success,timeout,failed_images,failed_audio,failed_video,screen_id,trial_type,trial_index,time_elapsed,internal_node_id,run_id,condition,recorded_at,source_code_version,user_agent,device,browser,browser_version,platform,platform_version,referer,accept_language,ppt_id,age,race,ethnicity,gender,other_countries,prev_study,exp_duration,view_history,rt,stimulus,response,phase,order,set,effect,t_high,category,d1_best,d2_best,d1_worst1,d2_worst1,d1_worst2,d2_worst2,first_dim,d1_t,d1_c,d1_d,d2_t,d2_c,d2_d,d1_name,d2_name,strategy_response,question_order
TRUE,FALSE,[],[],[],img preload,preload,0,879,0.0-0.0,101,1,2025-04-30T21:24:01Z,b60275e29fe2361ab97ac0ac217840d7,"Mozilla/5.0 (Macintosh; Intel Mac OS X 10_15_7) AppleWebKit/605.1.15 (KHTML, like Gecko) Version/16.1 Safari/605.1.15",Macintosh,Safari,16.1,OS X,10_15_7,https://5puzkbbxv1.cognition.run/?sona_id=48811,"en-US,en;q=0.9",bvf665e21o5ypl7,20,"[""Asian""]",No,Female,"India - 18 years 
US - 2 years",I'm not sure,434730,NA,NA,NA,NA,NA,NA,NA,NA,NA,NA,NA,NA,NA,NA,NA,NA,NA,NA,NA,NA,NA,NA,NA,NA,NA,NA,NA
NA,NA,NA,NA,NA,computer_message,instructions,1,4247,0.0-1.0,101,1,2025-04-30T21:24:01Z,b60275e29fe2361ab97ac0ac217840d7,"Mozilla/5.0 (Macintosh; Intel Mac OS X 10_15_7) AppleWebKit/605.1.15 (KHTML, like Gecko) Version/16.1 Safari/605.1.15",Macintosh,Safari,16.1,OS X,10_15_7,https://5puzkbbxv1.cognition.run/?sona_id=48811,"en-US,en;q=0.9",bvf665e21o5ypl7,20,"[""Asian""]",No,Female,"India - 18 years 
US - 2 years",I'm not sure,434730,"[{""page_index"":0,""viewing_time"":3363}]",3364,NA,NA,NA,NA,NA,NA,NA,NA,NA,NA,NA,NA,NA,NA,NA,NA,NA,NA,NA,NA,NA,NA,NA,NA,NA
TRUE,NA,NA,NA,NA,NA,fullscreen,2,7035,0.0-2.0,101,1,2025-04-30T21:24:01Z,b60275e29fe2361ab97ac0ac217840d7,"Mozilla/5.0 (Macintosh; Intel Mac OS X 10_15_7) AppleWebKit/605.1.15 (KHTML, like Gecko) Version/16.1 Safari/605.1.15",Macintosh,Safari,16.1,OS X,10_15_7,https://5puzkbbxv1.cognition.run/?sona_id=48811,"en-US,en;q=0.9",bvf665e21o5ypl7,20,"[""Asian""]",No,Female,"India - 18 years 
US - 2 years",I'm not sure,434730,NA,1786,NA,NA,NA,NA,NA,NA,NA,NA,NA,NA,NA,NA,NA,NA,NA,NA,NA,NA,NA,NA,NA,NA,NA,NA,NA
NA,NA,NA,NA,NA,choice_instructions,instructions,3,130489,0.0-3.0,101,1,2025-04-30T21:24:01Z,b60275e29fe2361ab97ac0ac217840d7,"Mozilla/5.0 (Macintosh; Intel Mac OS X 10_15_7) AppleWebKit/605.1.15 (KHTML, like Gecko) Version/16.1 Safari/605.1.15",Macintosh,Safari,16.1,OS X,10_15_7,https://5puzkbbxv1.cognition.run/?sona_id=48811,"en-US,en;q=0.9",bvf665e21o5ypl7,20,"[""Asian""]",No,Female,"India - 18 years 
US - 2 years",I'm not sure,434730,"[{""page_index"":0,""viewing_time"":1349},{""page_index"":1,""viewing_time"":3302},{""page_index"":2,""viewing_time"":1485},{""page_index"":3,""viewing_time"":3107},{""page_index"":4,""viewing_time"":2119},{""page_index"":5,""viewing_time"":24268},{""page_index"":6,""viewing_time"":87821}]",123452,NA,NA,NA,NA,NA,NA,NA,NA,NA,NA,NA,NA,NA,NA,NA,NA,NA,NA,NA,NA,NA,NA,NA,NA,NA
NA,NA,NA,NA,NA,choice_trial_setup,html-keyboard-response,4,130797,0.0-4.0-0.0,101,1,2025-04-30T21:24:01Z,b60275e29fe2361ab97ac0ac217840d7,"Mozilla/5.0 (Macintosh; Intel Mac OS X 10_15_7) AppleWebKit/605.1.15 (KHTML, like Gecko) Version/16.1 Safari/605.1.15",Macintosh,Safari,16.1,OS X,10_15_7,https://5puzkbbxv1.cognition.run/?sona_id=48811,"en-US,en;q=0.9",bvf665e21o5ypl7,20,"[""Asian""]",No,Female,"India - 18 years 
US - 2 years",I'm not sure,434730,NA,null,<p></p>,null,choice,dct,trinary,repulsion_A,1,laptops,null,null,null,null,null,null,2,NA,NA,NA,NA,NA,NA,NA,NA,NA,NA
NA,NA,NA,NA,NA,choice_trial,survey-html-form,5,140630,0.0-4.0-1.0,101,1,2025-04-30T21:24:01Z,b60275e29fe2361ab97ac0ac217840d7,"Mozilla/5.0 (Macintosh; Intel Mac OS X 10_15_7) AppleWebKit/605.1.15 (KHTML, like Gecko) Version/16.1 Safari/605.1.15",Macintosh,Safari,16.1,OS X,10_15_7,https://5puzkbbxv1.cognition.run/?sona_id=48811,"en-US,en;q=0.9",bvf665e21o5ypl7,20,"[""Asian""]",No,Female,"India - 18 years 
US - 2 years",I'm not sure,434730,NA,9823,NA,"{""product_choice"":""B""}",choice,dct,trinary,repulsion_A,1,laptops,null,null,null,null,null,null,2,100,90,100,30,40,20,Processing speed,Memory (RAM),NA,NA
NA,NA,NA,NA,NA,choice_trial_setup,html-keyboard-response,6,140934,0.0-4.0-0.1,101,1,2025-04-30T21:24:01Z,b60275e29fe2361ab97ac0ac217840d7,"Mozilla/5.0 (Macintosh; Intel Mac OS X 10_15_7) AppleWebKit/605.1.15 (KHTML, like Gecko) Version/16.1 Safari/605.1.15",Macintosh,Safari,16.1,OS X,10_15_7,https://5puzkbbxv1.cognition.run/?sona_id=48811,"en-US,en;q=0.9",bvf665e21o5ypl7,20,"[""Asian""]",No,Female,"India - 18 years 
US - 2 years",I'm not sure,434730,NA,null,<p></p>,null,choice,tdc,trinary,attraction,2,laptops,null,null,null,null,null,null,2,NA,NA,NA,NA,NA,NA,NA,NA,NA,NA
NA,NA,NA,NA,NA,choice_trial,survey-html-form,7,147327,0.0-4.0-1.1,101,1,2025-04-30T21:24:01Z,b60275e29fe2361ab97ac0ac217840d7,"Mozilla/5.0 (Macintosh; Intel Mac OS X 10_15_7) AppleWebKit/605.1.15 (KHTML, like Gecko) Version/16.1 Safari/605.1.15",Macintosh,Safari,16.1,OS X,10_15_7,https://5puzkbbxv1.cognition.run/?sona_id=48811,"en-US,en;q=0.9",bvf665e21o5ypl7,20,"[""Asian""]",No,Female,"India - 18 years 
US - 2 years",I'm not sure,434730,NA,6390,NA,"{""product_choice"":""C""}",choice,tdc,trinary,attraction,2,laptops,null,null,null,null,null,null,2,50,60,40,60,50,60,Processing speed,Memory (RAM),NA,NA
NA,NA,NA,NA,NA,choice_trial_setup,html-keyboard-response,8,147631,0.0-4.0-0.2,101,1,2025-04-30T21:24:01Z,b60275e29fe2361ab97ac0ac217840d7,"Mozilla/5.0 (Macintosh; Intel Mac OS X 10_15_7) AppleWebKit/605.1.15 (KHTML, like Gecko) Version/16.1 Safari/605.1.15",Macintosh,Safari,16.1,OS X,10_15_7,https://5puzkbbxv1.cognition.run/?sona_id=48811,"en-US,en;q=0.9",bvf665e21o5ypl7,20,"[""Asian""]",No,Female,"India - 18 years 
US - 2 years",I'm not sure,434730,NA,null,<p></p>,null,choice,tdc,trinary,repulsion_A,2,washing machines,null,null,null,null,null,null,2,NA,NA,NA,NA,NA,NA,NA,NA,NA,NA
NA,NA,NA,NA,NA,choice_trial,survey-html-form,9,154068,0.0-4.0-1.2,101,1,2025-04-30T21:24:01Z,b60275e29fe2361ab97ac0ac217840d7,"Mozilla/5.0 (Macintosh; Intel Mac OS X 10_15_7) AppleWebKit/605.1.15 (KHTML, like Gecko) Version/16.1 Safari/605.1.15",Macintosh,Safari,16.1,OS X,10_15_7,https://5puzkbbxv1.cognition.run/?sona_id=48811,"en-US,en;q=0.9",bvf665e21o5ypl7,20,"[""Asian""]",No,Female,"India - 18 years 
US - 2 years",I'm not sure,434730,NA,6432,NA,"{""product_choice"":""B""}",choice,tdc,trinary,repulsion_A,2,washing machines,null,null,null,null,null,null,2,30,40,20,100,90,100,Average lifespan,Energy savings,NA,NA
NA,NA,NA,NA,NA,choice_trial_setup,html-keyboard-response,10,154371,0.0-4.0-0.3,101,1,2025-04-30T21:24:01Z,b60275e29fe2361ab97ac0ac217840d7,"Mozilla/5.0 (Macintosh; Intel Mac OS X 10_15_7) AppleWebKit/605.1.15 (KHTML, like Gecko) Version/16.1 Safari/605.1.15",Macintosh,Safari,16.1,OS X,10_15_7,https://5puzkbbxv1.cognition.run/?sona_id=48811,"en-US,en;q=0.9",bvf665e21o5ypl7,20,"[""Asian""]",No,Female,"India - 18 years 
US - 2 years",I'm not sure,434730,NA,null,<p></p>,null,choice,ctd,trinary,repulsion_A,2,laptops,null,null,null,null,null,null,2,NA,NA,NA,NA,NA,NA,NA,NA,NA,NA
NA,NA,NA,NA,NA,choice_trial,survey-html-form,11,159883,0.0-4.0-1.3,101,1,2025-04-30T21:24:01Z,b60275e29fe2361ab97ac0ac217840d7,"Mozilla/5.0 (Macintosh; Intel Mac OS X 10_15_7) AppleWebKit/605.1.15 (KHTML, like Gecko) Version/16.1 Safari/605.1.15",Macintosh,Safari,16.1,OS X,10_15_7,https://5puzkbbxv1.cognition.run/?sona_id=48811,"en-US,en;q=0.9",bvf665e21o5ypl7,20,"[""Asian""]",No,Female,"India - 18 years 
US - 2 years",I'm not sure,434730,NA,5508,NA,"{""product_choice"":""B""}",choice,ctd,trinary,repulsion_A,2,laptops,null,null,null,null,null,null,2,30,40,20,100,90,100,Processing speed,Memory (RAM),NA,NA
NA,NA,NA,NA,NA,choice_trial_setup,html-keyboard-response,12,160186,0.0-4.0-0.4,101,1,2025-04-30T21:24:01Z,b60275e29fe2361ab97ac0ac217840d7,"Mozilla/5.0 (Macintosh; Intel Mac OS X 10_15_7) AppleWebKit/605.1.15 (KHTML, like Gecko) Version/16.1 Safari/605.1.15",Macintosh,Safari,16.1,OS X,10_15_7,https://5puzkbbxv1.cognition.run/?sona_id=48811,"en-US,en;q=0.9",bvf665e21o5ypl7,20,"[""Asian""]",No,Female,"India - 18 years 
US - 2 years",I'm not sure,434730,NA,null,<p></p>,null,choice,wb,binary,catch,null,televisions,65,75,25,40,null,null,2,NA,NA,NA,NA,NA,NA,NA,NA,NA,NA
NA,NA,NA,NA,NA,choice_trial,survey-html-form,13,163894,0.0-4.0-1.4,101,1,2025-04-30T21:24:01Z,b60275e29fe2361ab97ac0ac217840d7,"Mozilla/5.0 (Macintosh; Intel Mac OS X 10_15_7) AppleWebKit/605.1.15 (KHTML, like Gecko) Version/16.1 Safari/605.1.15",Macintosh,Safari,16.1,OS X,10_15_7,https://5puzkbbxv1.cognition.run/?sona_id=48811,"en-US,en;q=0.9",bvf665e21o5ypl7,20,"[""Asian""]",No,Female,"India - 18 years 
US - 2 years",I'm not sure,434730,NA,3703,NA,"{""product_choice"":""B""}",choice,wb,binary,catch,null,televisions,65,75,25,40,null,null,2,null,null,null,null,null,null,Screen size,Average lifespan,NA,NA
NA,NA,NA,NA,NA,choice_trial_setup,html-keyboard-response,14,164197,0.0-4.0-0.5,101,1,2025-04-30T21:24:01Z,b60275e29fe2361ab97ac0ac217840d7,"Mozilla/5.0 (Macintosh; Intel Mac OS X 10_15_7) AppleWebKit/605.1.15 (KHTML, like Gecko) Version/16.1 Safari/605.1.15",Macintosh,Safari,16.1,OS X,10_15_7,https://5puzkbbxv1.cognition.run/?sona_id=48811,"en-US,en;q=0.9",bvf665e21o5ypl7,20,"[""Asian""]",No,Female,"India - 18 years 
US - 2 years",I'm not sure,434730,NA,null,<p></p>,null,choice,dct,trinary,attraction,1,washing machines,null,null,null,null,null,null,1,NA,NA,NA,NA,NA,NA,NA,NA,NA,NA
NA,NA,NA,NA,NA,choice_trial,survey-html-form,15,171107,0.0-4.0-1.5,101,1,2025-04-30T21:24:01Z,b60275e29fe2361ab97ac0ac217840d7,"Mozilla/5.0 (Macintosh; Intel Mac OS X 10_15_7) AppleWebKit/605.1.15 (KHTML, like Gecko) Version/16.1 Safari/605.1.15",Macintosh,Safari,16.1,OS X,10_15_7,https://5puzkbbxv1.cognition.run/?sona_id=48811,"en-US,en;q=0.9",bvf665e21o5ypl7,20,"[""Asian""]",No,Female,"India - 18 years 
US - 2 years",I'm not sure,434730,NA,6905,NA,"{""product_choice"":""C""}",choice,dct,trinary,attraction,1,washing machines,null,null,null,null,null,null,1,60,50,60,50,60,40,Average lifespan,Energy savings,NA,NA
NA,NA,NA,NA,NA,choice_trial_setup,html-keyboard-response,16,171410,0.0-4.0-0.6,101,1,2025-04-30T21:24:01Z,b60275e29fe2361ab97ac0ac217840d7,"Mozilla/5.0 (Macintosh; Intel Mac OS X 10_15_7) AppleWebKit/605.1.15 (KHTML, like Gecko) Version/16.1 Safari/605.1.15",Macintosh,Safari,16.1,OS X,10_15_7,https://5puzkbbxv1.cognition.run/?sona_id=48811,"en-US,en;q=0.9",bvf665e21o5ypl7,20,"[""Asian""]",No,Female,"India - 18 years 
US - 2 years",I'm not sure,434730,NA,null,<p></p>,null,choice,tcd,trinary,repulsion_B,2,washing machines,null,null,null,null,null,null,1,NA,NA,NA,NA,NA,NA,NA,NA,NA,NA
NA,NA,NA,NA,NA,choice_trial,survey-html-form,17,175375,0.0-4.0-1.6,101,1,2025-04-30T21:24:01Z,b60275e29fe2361ab97ac0ac217840d7,"Mozilla/5.0 (Macintosh; Intel Mac OS X 10_15_7) AppleWebKit/605.1.15 (KHTML, like Gecko) Version/16.1 Safari/605.1.15",Macintosh,Safari,16.1,OS X,10_15_7,https://5puzkbbxv1.cognition.run/?sona_id=48811,"en-US,en;q=0.9",bvf665e21o5ypl7,20,"[""Asian""]",No,Female,"India - 18 years 
US - 2 years",I'm not sure,434730,NA,3959,NA,"{""product_choice"":""A""}",choice,tcd,trinary,repulsion_B,2,washing machines,null,null,null,null,null,null,1,40,30,40,90,100,80,Average lifespan,Energy savings,NA,NA
NA,NA,NA,NA,NA,choice_trial_setup,html-keyboard-response,18,175679,0.0-4.0-0.7,101,1,2025-04-30T21:24:01Z,b60275e29fe2361ab97ac0ac217840d7,"Mozilla/5.0 (Macintosh; Intel Mac OS X 10_15_7) AppleWebKit/605.1.15 (KHTML, like Gecko) Version/16.1 Safari/605.1.15",Macintosh,Safari,16.1,OS X,10_15_7,https://5puzkbbxv1.cognition.run/?sona_id=48811,"en-US,en;q=0.9",bvf665e21o5ypl7,20,"[""Asian""]",No,Female,"India - 18 years 
US - 2 years",I'm not sure,434730,NA,null,<p></p>,null,choice,dct,trinary,repulsion_B,1,laptops,null,null,null,null,null,null,1,NA,NA,NA,NA,NA,NA,NA,NA,NA,NA
NA,NA,NA,NA,NA,choice_trial,survey-html-form,19,184878,0.0-4.0-1.7,101,1,2025-04-30T21:24:01Z,b60275e29fe2361ab97ac0ac217840d7,"Mozilla/5.0 (Macintosh; Intel Mac OS X 10_15_7) AppleWebKit/605.1.15 (KHTML, like Gecko) Version/16.1 Safari/605.1.15",Macintosh,Safari,16.1,OS X,10_15_7,https://5puzkbbxv1.cognition.run/?sona_id=48811,"en-US,en;q=0.9",bvf665e21o5ypl7,20,"[""Asian""]",No,Female,"India - 18 years 
US - 2 years",I'm not sure,434730,NA,9194,NA,"{""product_choice"":""C""}",choice,dct,trinary,repulsion_B,1,laptops,null,null,null,null,null,null,1,90,100,80,40,30,40,Processing speed,Memory (RAM),NA,NA
NA,NA,NA,NA,NA,choice_trial_setup,html-keyboard-response,20,185181,0.0-4.0-0.8,101,1,2025-04-30T21:24:01Z,b60275e29fe2361ab97ac0ac217840d7,"Mozilla/5.0 (Macintosh; Intel Mac OS X 10_15_7) AppleWebKit/605.1.15 (KHTML, like Gecko) Version/16.1 Safari/605.1.15",Macintosh,Safari,16.1,OS X,10_15_7,https://5puzkbbxv1.cognition.run/?sona_id=48811,"en-US,en;q=0.9",bvf665e21o5ypl7,20,"[""Asian""]",No,Female,"India - 18 years 
US - 2 years",I'm not sure,434730,NA,null,<p></p>,null,choice,tdc,trinary,repulsion_B,1,microwave ovens,null,null,null,null,null,null,1,NA,NA,NA,NA,NA,NA,NA,NA,NA,NA
NA,NA,NA,NA,NA,choice_trial,survey-html-form,21,190198,0.0-4.0-1.8,101,1,2025-04-30T21:24:01Z,b60275e29fe2361ab97ac0ac217840d7,"Mozilla/5.0 (Macintosh; Intel Mac OS X 10_15_7) AppleWebKit/605.1.15 (KHTML, like Gecko) Version/16.1 Safari/605.1.15",Macintosh,Safari,16.1,OS X,10_15_7,https://5puzkbbxv1.cognition.run/?sona_id=48811,"en-US,en;q=0.9",bvf665e21o5ypl7,20,"[""Asian""]",No,Female,"India - 18 years 
US - 2 years",I'm not sure,434730,NA,5011,NA,"{""product_choice"":""B""}",choice,tdc,trinary,repulsion_B,1,microwave ovens,null,null,null,null,null,null,1,90,100,80,40,30,40,Warranty,Cooking power,NA,NA
NA,NA,NA,NA,NA,choice_trial_setup,html-keyboard-response,22,190502,0.0-4.0-0.9,101,1,2025-04-30T21:24:01Z,b60275e29fe2361ab97ac0ac217840d7,"Mozilla/5.0 (Macintosh; Intel Mac OS X 10_15_7) AppleWebKit/605.1.15 (KHTML, like Gecko) Version/16.1 Safari/605.1.15",Macintosh,Safari,16.1,OS X,10_15_7,https://5puzkbbxv1.cognition.run/?sona_id=48811,"en-US,en;q=0.9",bvf665e21o5ypl7,20,"[""Asian""]",No,Female,"India - 18 years 
US - 2 years",I'm not sure,434730,NA,null,<p></p>,null,choice,wb,binary,catch,null,laptops,90,65,40,15,null,null,2,NA,NA,NA,NA,NA,NA,NA,NA,NA,NA
NA,NA,NA,NA,NA,choice_trial,survey-html-form,23,193553,0.0-4.0-1.9,101,1,2025-04-30T21:24:01Z,b60275e29fe2361ab97ac0ac217840d7,"Mozilla/5.0 (Macintosh; Intel Mac OS X 10_15_7) AppleWebKit/605.1.15 (KHTML, like Gecko) Version/16.1 Safari/605.1.15",Macintosh,Safari,16.1,OS X,10_15_7,https://5puzkbbxv1.cognition.run/?sona_id=48811,"en-US,en;q=0.9",bvf665e21o5ypl7,20,"[""Asian""]",No,Female,"India - 18 years 
US - 2 years",I'm not sure,434730,NA,3046,NA,"{""product_choice"":""B""}",choice,wb,binary,catch,null,laptops,90,65,40,15,null,null,2,null,null,null,null,null,null,Processing speed,Memory (RAM),NA,NA
NA,NA,NA,NA,NA,choice_trial_setup,html-keyboard-response,24,193857,0.0-4.0-0.10,101,1,2025-04-30T21:24:01Z,b60275e29fe2361ab97ac0ac217840d7,"Mozilla/5.0 (Macintosh; Intel Mac OS X 10_15_7) AppleWebKit/605.1.15 (KHTML, like Gecko) Version/16.1 Safari/605.1.15",Macintosh,Safari,16.1,OS X,10_15_7,https://5puzkbbxv1.cognition.run/?sona_id=48811,"en-US,en;q=0.9",bvf665e21o5ypl7,20,"[""Asian""]",No,Female,"India - 18 years 
US - 2 years",I'm not sure,434730,NA,null,<p></p>,null,choice,dtc,trinary,repulsion_B,2,microwave ovens,null,null,null,null,null,null,1,NA,NA,NA,NA,NA,NA,NA,NA,NA,NA
NA,NA,NA,NA,NA,choice_trial,survey-html-form,25,201131,0.0-4.0-1.10,101,1,2025-04-30T21:24:01Z,b60275e29fe2361ab97ac0ac217840d7,"Mozilla/5.0 (Macintosh; Intel Mac OS X 10_15_7) AppleWebKit/605.1.15 (KHTML, like Gecko) Version/16.1 Safari/605.1.15",Macintosh,Safari,16.1,OS X,10_15_7,https://5puzkbbxv1.cognition.run/?sona_id=48811,"en-US,en;q=0.9",bvf665e21o5ypl7,20,"[""Asian""]",No,Female,"India - 18 years 
US - 2 years",I'm not sure,434730,NA,7269,NA,"{""product_choice"":""B""}",choice,dtc,trinary,repulsion_B,2,microwave ovens,null,null,null,null,null,null,1,40,30,40,90,100,80,Warranty,Cooking power,NA,NA
NA,NA,NA,NA,NA,choice_trial_setup,html-keyboard-response,26,201434,0.0-4.0-0.11,101,1,2025-04-30T21:24:01Z,b60275e29fe2361ab97ac0ac217840d7,"Mozilla/5.0 (Macintosh; Intel Mac OS X 10_15_7) AppleWebKit/605.1.15 (KHTML, like Gecko) Version/16.1 Safari/605.1.15",Macintosh,Safari,16.1,OS X,10_15_7,https://5puzkbbxv1.cognition.run/?sona_id=48811,"en-US,en;q=0.9",bvf665e21o5ypl7,20,"[""Asian""]",No,Female,"India - 18 years 
US - 2 years",I'm not sure,434730,NA,null,<p></p>,null,choice,cdt,trinary,attraction,2,washing machines,null,null,null,null,null,null,1,NA,NA,NA,NA,NA,NA,NA,NA,NA,NA
NA,NA,NA,NA,NA,choice_trial,survey-html-form,27,207639,0.0-4.0-1.11,101,1,2025-04-30T21:24:01Z,b60275e29fe2361ab97ac0ac217840d7,"Mozilla/5.0 (Macintosh; Intel Mac OS X 10_15_7) AppleWebKit/605.1.15 (KHTML, like Gecko) Version/16.1 Safari/605.1.15",Macintosh,Safari,16.1,OS X,10_15_7,https://5puzkbbxv1.cognition.run/?sona_id=48811,"en-US,en;q=0.9",bvf665e21o5ypl7,20,"[""Asian""]",No,Female,"India - 18 years 
US - 2 years",I'm not sure,434730,NA,6201,NA,"{""product_choice"":""C""}",choice,cdt,trinary,attraction,2,washing machines,null,null,null,null,null,null,1,50,60,40,60,50,60,Average lifespan,Energy savings,NA,NA
NA,NA,NA,NA,NA,choice_trial_setup,html-keyboard-response,28,207942,0.0-4.0-0.12,101,1,2025-04-30T21:24:01Z,b60275e29fe2361ab97ac0ac217840d7,"Mozilla/5.0 (Macintosh; Intel Mac OS X 10_15_7) AppleWebKit/605.1.15 (KHTML, like Gecko) Version/16.1 Safari/605.1.15",Macintosh,Safari,16.1,OS X,10_15_7,https://5puzkbbxv1.cognition.run/?sona_id=48811,"en-US,en;q=0.9",bvf665e21o5ypl7,20,"[""Asian""]",No,Female,"India - 18 years 
US - 2 years",I'm not sure,434730,NA,null,<p></p>,null,choice,ct,binary,repulsion,2,laptops,null,null,null,null,null,null,2,NA,NA,NA,NA,NA,NA,NA,NA,NA,NA
NA,NA,NA,NA,NA,choice_trial,survey-html-form,29,213390,0.0-4.0-1.12,101,1,2025-04-30T21:24:01Z,b60275e29fe2361ab97ac0ac217840d7,"Mozilla/5.0 (Macintosh; Intel Mac OS X 10_15_7) AppleWebKit/605.1.15 (KHTML, like Gecko) Version/16.1 Safari/605.1.15",Macintosh,Safari,16.1,OS X,10_15_7,https://5puzkbbxv1.cognition.run/?sona_id=48811,"en-US,en;q=0.9",bvf665e21o5ypl7,20,"[""Asian""]",No,Female,"India - 18 years 
US - 2 years",I'm not sure,434730,NA,5445,NA,"{""product_choice"":""A""}",choice,ct,binary,repulsion,2,laptops,null,null,null,null,null,null,2,30,40,null,100,90,null,Processing speed,Memory (RAM),NA,NA
NA,NA,NA,NA,NA,choice_trial_setup,html-keyboard-response,30,213694,0.0-4.0-0.13,101,1,2025-04-30T21:24:01Z,b60275e29fe2361ab97ac0ac217840d7,"Mozilla/5.0 (Macintosh; Intel Mac OS X 10_15_7) AppleWebKit/605.1.15 (KHTML, like Gecko) Version/16.1 Safari/605.1.15",Macintosh,Safari,16.1,OS X,10_15_7,https://5puzkbbxv1.cognition.run/?sona_id=48811,"en-US,en;q=0.9",bvf665e21o5ypl7,20,"[""Asian""]",No,Female,"India - 18 years 
US - 2 years",I'm not sure,434730,NA,null,<p></p>,null,choice,ct,binary,repulsion,1,microwave ovens,null,null,null,null,null,null,1,NA,NA,NA,NA,NA,NA,NA,NA,NA,NA
NA,NA,NA,NA,NA,choice_trial,survey-html-form,31,217836,0.0-4.0-1.13,101,1,2025-04-30T21:24:01Z,b60275e29fe2361ab97ac0ac217840d7,"Mozilla/5.0 (Macintosh; Intel Mac OS X 10_15_7) AppleWebKit/605.1.15 (KHTML, like Gecko) Version/16.1 Safari/605.1.15",Macintosh,Safari,16.1,OS X,10_15_7,https://5puzkbbxv1.cognition.run/?sona_id=48811,"en-US,en;q=0.9",bvf665e21o5ypl7,20,"[""Asian""]",No,Female,"India - 18 years 
US - 2 years",I'm not sure,434730,NA,4137,NA,"{""product_choice"":""A""}",choice,ct,binary,repulsion,1,microwave ovens,null,null,null,null,null,null,1,100,90,null,30,40,null,Warranty,Cooking power,NA,NA
NA,NA,NA,NA,NA,choice_trial_setup,html-keyboard-response,32,218140,0.0-4.0-0.14,101,1,2025-04-30T21:24:01Z,b60275e29fe2361ab97ac0ac217840d7,"Mozilla/5.0 (Macintosh; Intel Mac OS X 10_15_7) AppleWebKit/605.1.15 (KHTML, like Gecko) Version/16.1 Safari/605.1.15",Macintosh,Safari,16.1,OS X,10_15_7,https://5puzkbbxv1.cognition.run/?sona_id=48811,"en-US,en;q=0.9",bvf665e21o5ypl7,20,"[""Asian""]",No,Female,"India - 18 years 
US - 2 years",I'm not sure,434730,NA,null,<p></p>,null,choice,tc,binary,repulsion,1,washing machines,null,null,null,null,null,null,2,NA,NA,NA,NA,NA,NA,NA,NA,NA,NA
NA,NA,NA,NA,NA,choice_trial,survey-html-form,33,222265,0.0-4.0-1.14,101,1,2025-04-30T21:24:01Z,b60275e29fe2361ab97ac0ac217840d7,"Mozilla/5.0 (Macintosh; Intel Mac OS X 10_15_7) AppleWebKit/605.1.15 (KHTML, like Gecko) Version/16.1 Safari/605.1.15",Macintosh,Safari,16.1,OS X,10_15_7,https://5puzkbbxv1.cognition.run/?sona_id=48811,"en-US,en;q=0.9",bvf665e21o5ypl7,20,"[""Asian""]",No,Female,"India - 18 years 
US - 2 years",I'm not sure,434730,NA,4121,NA,"{""product_choice"":""B""}",choice,tc,binary,repulsion,1,washing machines,null,null,null,null,null,null,2,100,90,null,30,40,null,Average lifespan,Energy savings,NA,NA
NA,NA,NA,NA,NA,choice_trial_setup,html-keyboard-response,34,222569,0.0-4.0-0.15,101,1,2025-04-30T21:24:01Z,b60275e29fe2361ab97ac0ac217840d7,"Mozilla/5.0 (Macintosh; Intel Mac OS X 10_15_7) AppleWebKit/605.1.15 (KHTML, like Gecko) Version/16.1 Safari/605.1.15",Macintosh,Safari,16.1,OS X,10_15_7,https://5puzkbbxv1.cognition.run/?sona_id=48811,"en-US,en;q=0.9",bvf665e21o5ypl7,20,"[""Asian""]",No,Female,"India - 18 years 
US - 2 years",I'm not sure,434730,NA,null,<p></p>,null,choice,dtc,trinary,repulsion_A,1,televisions,null,null,null,null,null,null,1,NA,NA,NA,NA,NA,NA,NA,NA,NA,NA
NA,NA,NA,NA,NA,choice_trial,survey-html-form,35,226569,0.0-4.0-1.15,101,1,2025-04-30T21:24:01Z,b60275e29fe2361ab97ac0ac217840d7,"Mozilla/5.0 (Macintosh; Intel Mac OS X 10_15_7) AppleWebKit/605.1.15 (KHTML, like Gecko) Version/16.1 Safari/605.1.15",Macintosh,Safari,16.1,OS X,10_15_7,https://5puzkbbxv1.cognition.run/?sona_id=48811,"en-US,en;q=0.9",bvf665e21o5ypl7,20,"[""Asian""]",No,Female,"India - 18 years 
US - 2 years",I'm not sure,434730,NA,3997,NA,"{""product_choice"":""C""}",choice,dtc,trinary,repulsion_A,1,televisions,null,null,null,null,null,null,1,100,90,100,30,40,20,Screen size,Average lifespan,NA,NA
NA,NA,NA,NA,NA,choice_trial_setup,html-keyboard-response,36,226873,0.0-4.0-0.16,101,1,2025-04-30T21:24:01Z,b60275e29fe2361ab97ac0ac217840d7,"Mozilla/5.0 (Macintosh; Intel Mac OS X 10_15_7) AppleWebKit/605.1.15 (KHTML, like Gecko) Version/16.1 Safari/605.1.15",Macintosh,Safari,16.1,OS X,10_15_7,https://5puzkbbxv1.cognition.run/?sona_id=48811,"en-US,en;q=0.9",bvf665e21o5ypl7,20,"[""Asian""]",No,Female,"India - 18 years 
US - 2 years",I'm not sure,434730,NA,null,<p></p>,null,choice,ct,binary,attraction,NA,laptops,null,null,null,null,null,null,1,NA,NA,NA,NA,NA,NA,NA,NA,NA,NA
NA,NA,NA,NA,NA,choice_trial,survey-html-form,37,235066,0.0-4.0-1.16,101,1,2025-04-30T21:24:01Z,b60275e29fe2361ab97ac0ac217840d7,"Mozilla/5.0 (Macintosh; Intel Mac OS X 10_15_7) AppleWebKit/605.1.15 (KHTML, like Gecko) Version/16.1 Safari/605.1.15",Macintosh,Safari,16.1,OS X,10_15_7,https://5puzkbbxv1.cognition.run/?sona_id=48811,"en-US,en;q=0.9",bvf665e21o5ypl7,20,"[""Asian""]",No,Female,"India - 18 years 
US - 2 years",I'm not sure,434730,NA,8188,NA,"{""product_choice"":""B""}",choice,ct,binary,attraction,NA,laptops,null,null,null,null,null,null,1,60,50,null,50,60,null,Processing speed,Memory (RAM),NA,NA
NA,NA,NA,NA,NA,choice_trial_setup,html-keyboard-response,38,235370,0.0-4.0-0.17,101,1,2025-04-30T21:24:01Z,b60275e29fe2361ab97ac0ac217840d7,"Mozilla/5.0 (Macintosh; Intel Mac OS X 10_15_7) AppleWebKit/605.1.15 (KHTML, like Gecko) Version/16.1 Safari/605.1.15",Macintosh,Safari,16.1,OS X,10_15_7,https://5puzkbbxv1.cognition.run/?sona_id=48811,"en-US,en;q=0.9",bvf665e21o5ypl7,20,"[""Asian""]",No,Female,"India - 18 years 
US - 2 years",I'm not sure,434730,NA,null,<p></p>,null,choice,dct,trinary,repulsion_B,1,televisions,null,null,null,null,null,null,2,NA,NA,NA,NA,NA,NA,NA,NA,NA,NA
NA,NA,NA,NA,NA,choice_trial,survey-html-form,39,239921,0.0-4.0-1.17,101,1,2025-04-30T21:24:01Z,b60275e29fe2361ab97ac0ac217840d7,"Mozilla/5.0 (Macintosh; Intel Mac OS X 10_15_7) AppleWebKit/605.1.15 (KHTML, like Gecko) Version/16.1 Safari/605.1.15",Macintosh,Safari,16.1,OS X,10_15_7,https://5puzkbbxv1.cognition.run/?sona_id=48811,"en-US,en;q=0.9",bvf665e21o5ypl7,20,"[""Asian""]",No,Female,"India - 18 years 
US - 2 years",I'm not sure,434730,NA,4546,NA,"{""product_choice"":""C""}",choice,dct,trinary,repulsion_B,1,televisions,null,null,null,null,null,null,2,90,100,80,40,30,40,Screen size,Average lifespan,NA,NA
NA,NA,NA,NA,NA,choice_trial_setup,html-keyboard-response,40,240223,0.0-4.0-0.18,101,1,2025-04-30T21:24:01Z,b60275e29fe2361ab97ac0ac217840d7,"Mozilla/5.0 (Macintosh; Intel Mac OS X 10_15_7) AppleWebKit/605.1.15 (KHTML, like Gecko) Version/16.1 Safari/605.1.15",Macintosh,Safari,16.1,OS X,10_15_7,https://5puzkbbxv1.cognition.run/?sona_id=48811,"en-US,en;q=0.9",bvf665e21o5ypl7,20,"[""Asian""]",No,Female,"India - 18 years 
US - 2 years",I'm not sure,434730,NA,null,<p></p>,null,choice,ct,binary,repulsion,1,televisions,null,null,null,null,null,null,1,NA,NA,NA,NA,NA,NA,NA,NA,NA,NA
NA,NA,NA,NA,NA,choice_trial,survey-html-form,41,245534,0.0-4.0-1.18,101,1,2025-04-30T21:24:01Z,b60275e29fe2361ab97ac0ac217840d7,"Mozilla/5.0 (Macintosh; Intel Mac OS X 10_15_7) AppleWebKit/605.1.15 (KHTML, like Gecko) Version/16.1 Safari/605.1.15",Macintosh,Safari,16.1,OS X,10_15_7,https://5puzkbbxv1.cognition.run/?sona_id=48811,"en-US,en;q=0.9",bvf665e21o5ypl7,20,"[""Asian""]",No,Female,"India - 18 years 
US - 2 years",I'm not sure,434730,NA,5305,NA,"{""product_choice"":""A""}",choice,ct,binary,repulsion,1,televisions,null,null,null,null,null,null,1,100,90,null,30,40,null,Screen size,Average lifespan,NA,NA
NA,NA,NA,NA,NA,choice_trial_setup,html-keyboard-response,42,245838,0.0-4.0-0.19,101,1,2025-04-30T21:24:01Z,b60275e29fe2361ab97ac0ac217840d7,"Mozilla/5.0 (Macintosh; Intel Mac OS X 10_15_7) AppleWebKit/605.1.15 (KHTML, like Gecko) Version/16.1 Safari/605.1.15",Macintosh,Safari,16.1,OS X,10_15_7,https://5puzkbbxv1.cognition.run/?sona_id=48811,"en-US,en;q=0.9",bvf665e21o5ypl7,20,"[""Asian""]",No,Female,"India - 18 years 
US - 2 years",I'm not sure,434730,NA,null,<p></p>,null,choice,tc,binary,attraction,NA,televisions,null,null,null,null,null,null,2,NA,NA,NA,NA,NA,NA,NA,NA,NA,NA
NA,NA,NA,NA,NA,choice_trial,survey-html-form,43,249731,0.0-4.0-1.19,101,1,2025-04-30T21:24:01Z,b60275e29fe2361ab97ac0ac217840d7,"Mozilla/5.0 (Macintosh; Intel Mac OS X 10_15_7) AppleWebKit/605.1.15 (KHTML, like Gecko) Version/16.1 Safari/605.1.15",Macintosh,Safari,16.1,OS X,10_15_7,https://5puzkbbxv1.cognition.run/?sona_id=48811,"en-US,en;q=0.9",bvf665e21o5ypl7,20,"[""Asian""]",No,Female,"India - 18 years 
US - 2 years",I'm not sure,434730,NA,3888,NA,"{""product_choice"":""A""}",choice,tc,binary,attraction,NA,televisions,null,null,null,null,null,null,2,60,50,null,50,60,null,Screen size,Average lifespan,NA,NA
NA,NA,NA,NA,NA,choice_trial_setup,html-keyboard-response,44,250034,0.0-4.0-0.20,101,1,2025-04-30T21:24:01Z,b60275e29fe2361ab97ac0ac217840d7,"Mozilla/5.0 (Macintosh; Intel Mac OS X 10_15_7) AppleWebKit/605.1.15 (KHTML, like Gecko) Version/16.1 Safari/605.1.15",Macintosh,Safari,16.1,OS X,10_15_7,https://5puzkbbxv1.cognition.run/?sona_id=48811,"en-US,en;q=0.9",bvf665e21o5ypl7,20,"[""Asian""]",No,Female,"India - 18 years 
US - 2 years",I'm not sure,434730,NA,null,<p></p>,null,choice,dtc,trinary,repulsion_A,2,televisions,null,null,null,null,null,null,2,NA,NA,NA,NA,NA,NA,NA,NA,NA,NA
NA,NA,NA,NA,NA,choice_trial,survey-html-form,45,255554,0.0-4.0-1.20,101,1,2025-04-30T21:24:01Z,b60275e29fe2361ab97ac0ac217840d7,"Mozilla/5.0 (Macintosh; Intel Mac OS X 10_15_7) AppleWebKit/605.1.15 (KHTML, like Gecko) Version/16.1 Safari/605.1.15",Macintosh,Safari,16.1,OS X,10_15_7,https://5puzkbbxv1.cognition.run/?sona_id=48811,"en-US,en;q=0.9",bvf665e21o5ypl7,20,"[""Asian""]",No,Female,"India - 18 years 
US - 2 years",I'm not sure,434730,NA,5516,NA,"{""product_choice"":""B""}",choice,dtc,trinary,repulsion_A,2,televisions,null,null,null,null,null,null,2,30,40,20,100,90,100,Screen size,Average lifespan,NA,NA
NA,NA,NA,NA,NA,choice_trial_setup,html-keyboard-response,46,255858,0.0-4.0-0.21,101,1,2025-04-30T21:24:01Z,b60275e29fe2361ab97ac0ac217840d7,"Mozilla/5.0 (Macintosh; Intel Mac OS X 10_15_7) AppleWebKit/605.1.15 (KHTML, like Gecko) Version/16.1 Safari/605.1.15",Macintosh,Safari,16.1,OS X,10_15_7,https://5puzkbbxv1.cognition.run/?sona_id=48811,"en-US,en;q=0.9",bvf665e21o5ypl7,20,"[""Asian""]",No,Female,"India - 18 years 
US - 2 years",I'm not sure,434730,NA,null,<p></p>,null,choice,tcd,trinary,attraction,2,televisions,null,null,null,null,null,null,2,NA,NA,NA,NA,NA,NA,NA,NA,NA,NA
NA,NA,NA,NA,NA,choice_trial,survey-html-form,47,262653,0.0-4.0-1.21,101,1,2025-04-30T21:24:01Z,b60275e29fe2361ab97ac0ac217840d7,"Mozilla/5.0 (Macintosh; Intel Mac OS X 10_15_7) AppleWebKit/605.1.15 (KHTML, like Gecko) Version/16.1 Safari/605.1.15",Macintosh,Safari,16.1,OS X,10_15_7,https://5puzkbbxv1.cognition.run/?sona_id=48811,"en-US,en;q=0.9",bvf665e21o5ypl7,20,"[""Asian""]",No,Female,"India - 18 years 
US - 2 years",I'm not sure,434730,NA,6789,NA,"{""product_choice"":""A""}",choice,tcd,trinary,attraction,2,televisions,null,null,null,null,null,null,2,50,60,40,60,50,60,Screen size,Average lifespan,NA,NA
NA,NA,NA,NA,NA,choice_trial_setup,html-keyboard-response,48,262957,0.0-4.0-0.22,101,1,2025-04-30T21:24:01Z,b60275e29fe2361ab97ac0ac217840d7,"Mozilla/5.0 (Macintosh; Intel Mac OS X 10_15_7) AppleWebKit/605.1.15 (KHTML, like Gecko) Version/16.1 Safari/605.1.15",Macintosh,Safari,16.1,OS X,10_15_7,https://5puzkbbxv1.cognition.run/?sona_id=48811,"en-US,en;q=0.9",bvf665e21o5ypl7,20,"[""Asian""]",No,Female,"India - 18 years 
US - 2 years",I'm not sure,434730,NA,null,<p></p>,null,choice,tcd,trinary,repulsion_A,1,microwave ovens,null,null,null,null,null,null,1,NA,NA,NA,NA,NA,NA,NA,NA,NA,NA
NA,NA,NA,NA,NA,choice_trial,survey-html-form,49,270269,0.0-4.0-1.22,101,1,2025-04-30T21:24:01Z,b60275e29fe2361ab97ac0ac217840d7,"Mozilla/5.0 (Macintosh; Intel Mac OS X 10_15_7) AppleWebKit/605.1.15 (KHTML, like Gecko) Version/16.1 Safari/605.1.15",Macintosh,Safari,16.1,OS X,10_15_7,https://5puzkbbxv1.cognition.run/?sona_id=48811,"en-US,en;q=0.9",bvf665e21o5ypl7,20,"[""Asian""]",No,Female,"India - 18 years 
US - 2 years",I'm not sure,434730,NA,7307,NA,"{""product_choice"":""A""}",choice,tcd,trinary,repulsion_A,1,microwave ovens,null,null,null,null,null,null,1,100,90,100,30,40,20,Warranty,Cooking power,NA,NA
NA,NA,NA,NA,NA,choice_trial_setup,html-keyboard-response,50,270573,0.0-4.0-0.23,101,1,2025-04-30T21:24:01Z,b60275e29fe2361ab97ac0ac217840d7,"Mozilla/5.0 (Macintosh; Intel Mac OS X 10_15_7) AppleWebKit/605.1.15 (KHTML, like Gecko) Version/16.1 Safari/605.1.15",Macintosh,Safari,16.1,OS X,10_15_7,https://5puzkbbxv1.cognition.run/?sona_id=48811,"en-US,en;q=0.9",bvf665e21o5ypl7,20,"[""Asian""]",No,Female,"India - 18 years 
US - 2 years",I'm not sure,434730,NA,null,<p></p>,null,choice,dct,trinary,repulsion_A,2,microwave ovens,null,null,null,null,null,null,2,NA,NA,NA,NA,NA,NA,NA,NA,NA,NA
NA,NA,NA,NA,NA,choice_trial,survey-html-form,51,276441,0.0-4.0-1.23,101,1,2025-04-30T21:24:01Z,b60275e29fe2361ab97ac0ac217840d7,"Mozilla/5.0 (Macintosh; Intel Mac OS X 10_15_7) AppleWebKit/605.1.15 (KHTML, like Gecko) Version/16.1 Safari/605.1.15",Macintosh,Safari,16.1,OS X,10_15_7,https://5puzkbbxv1.cognition.run/?sona_id=48811,"en-US,en;q=0.9",bvf665e21o5ypl7,20,"[""Asian""]",No,Female,"India - 18 years 
US - 2 years",I'm not sure,434730,NA,5857,NA,"{""product_choice"":""C""}",choice,dct,trinary,repulsion_A,2,microwave ovens,null,null,null,null,null,null,2,30,40,20,100,90,100,Warranty,Cooking power,NA,NA
NA,NA,NA,NA,NA,choice_trial_setup,html-keyboard-response,52,276745,0.0-4.0-0.24,101,1,2025-04-30T21:24:01Z,b60275e29fe2361ab97ac0ac217840d7,"Mozilla/5.0 (Macintosh; Intel Mac OS X 10_15_7) AppleWebKit/605.1.15 (KHTML, like Gecko) Version/16.1 Safari/605.1.15",Macintosh,Safari,16.1,OS X,10_15_7,https://5puzkbbxv1.cognition.run/?sona_id=48811,"en-US,en;q=0.9",bvf665e21o5ypl7,20,"[""Asian""]",No,Female,"India - 18 years 
US - 2 years",I'm not sure,434730,NA,null,<p></p>,null,choice,wbw,trinary,catch,null,microwave ovens,95,70,5,20,5,10,1,NA,NA,NA,NA,NA,NA,NA,NA,NA,NA
NA,NA,NA,NA,NA,choice_trial,survey-html-form,53,281562,0.0-4.0-1.24,101,1,2025-04-30T21:24:01Z,b60275e29fe2361ab97ac0ac217840d7,"Mozilla/5.0 (Macintosh; Intel Mac OS X 10_15_7) AppleWebKit/605.1.15 (KHTML, like Gecko) Version/16.1 Safari/605.1.15",Macintosh,Safari,16.1,OS X,10_15_7,https://5puzkbbxv1.cognition.run/?sona_id=48811,"en-US,en;q=0.9",bvf665e21o5ypl7,20,"[""Asian""]",No,Female,"India - 18 years 
US - 2 years",I'm not sure,434730,NA,4811,NA,"{""product_choice"":""B""}",choice,wbw,trinary,catch,null,microwave ovens,95,70,5,20,5,10,1,null,null,null,null,null,null,Warranty,Cooking power,NA,NA
NA,NA,NA,NA,NA,choice_trial_setup,html-keyboard-response,54,281866,0.0-4.0-0.25,101,1,2025-04-30T21:24:01Z,b60275e29fe2361ab97ac0ac217840d7,"Mozilla/5.0 (Macintosh; Intel Mac OS X 10_15_7) AppleWebKit/605.1.15 (KHTML, like Gecko) Version/16.1 Safari/605.1.15",Macintosh,Safari,16.1,OS X,10_15_7,https://5puzkbbxv1.cognition.run/?sona_id=48811,"en-US,en;q=0.9",bvf665e21o5ypl7,20,"[""Asian""]",No,Female,"India - 18 years 
US - 2 years",I'm not sure,434730,NA,null,<p></p>,null,choice,tcd,trinary,attraction,1,televisions,null,null,null,null,null,null,2,NA,NA,NA,NA,NA,NA,NA,NA,NA,NA
NA,NA,NA,NA,NA,choice_trial,survey-html-form,55,288115,0.0-4.0-1.25,101,1,2025-04-30T21:24:01Z,b60275e29fe2361ab97ac0ac217840d7,"Mozilla/5.0 (Macintosh; Intel Mac OS X 10_15_7) AppleWebKit/605.1.15 (KHTML, like Gecko) Version/16.1 Safari/605.1.15",Macintosh,Safari,16.1,OS X,10_15_7,https://5puzkbbxv1.cognition.run/?sona_id=48811,"en-US,en;q=0.9",bvf665e21o5ypl7,20,"[""Asian""]",No,Female,"India - 18 years 
US - 2 years",I'm not sure,434730,NA,6243,NA,"{""product_choice"":""A""}",choice,tcd,trinary,attraction,1,televisions,null,null,null,null,null,null,2,60,50,60,50,60,40,Screen size,Average lifespan,NA,NA
NA,NA,NA,NA,NA,choice_trial_setup,html-keyboard-response,56,288419,0.0-4.0-0.26,101,1,2025-04-30T21:24:01Z,b60275e29fe2361ab97ac0ac217840d7,"Mozilla/5.0 (Macintosh; Intel Mac OS X 10_15_7) AppleWebKit/605.1.15 (KHTML, like Gecko) Version/16.1 Safari/605.1.15",Macintosh,Safari,16.1,OS X,10_15_7,https://5puzkbbxv1.cognition.run/?sona_id=48811,"en-US,en;q=0.9",bvf665e21o5ypl7,20,"[""Asian""]",No,Female,"India - 18 years 
US - 2 years",I'm not sure,434730,NA,null,<p></p>,null,choice,ctd,trinary,repulsion_A,1,washing machines,null,null,null,null,null,null,1,NA,NA,NA,NA,NA,NA,NA,NA,NA,NA
NA,NA,NA,NA,NA,choice_trial,survey-html-form,57,293742,0.0-4.0-1.26,101,1,2025-04-30T21:24:01Z,b60275e29fe2361ab97ac0ac217840d7,"Mozilla/5.0 (Macintosh; Intel Mac OS X 10_15_7) AppleWebKit/605.1.15 (KHTML, like Gecko) Version/16.1 Safari/605.1.15",Macintosh,Safari,16.1,OS X,10_15_7,https://5puzkbbxv1.cognition.run/?sona_id=48811,"en-US,en;q=0.9",bvf665e21o5ypl7,20,"[""Asian""]",No,Female,"India - 18 years 
US - 2 years",I'm not sure,434730,NA,5317,NA,"{""product_choice"":""B""}",choice,ctd,trinary,repulsion_A,1,washing machines,null,null,null,null,null,null,1,100,90,100,30,40,20,Average lifespan,Energy savings,NA,NA
NA,NA,NA,NA,NA,choice_trial_setup,html-keyboard-response,58,294047,0.0-4.0-0.27,101,1,2025-04-30T21:24:01Z,b60275e29fe2361ab97ac0ac217840d7,"Mozilla/5.0 (Macintosh; Intel Mac OS X 10_15_7) AppleWebKit/605.1.15 (KHTML, like Gecko) Version/16.1 Safari/605.1.15",Macintosh,Safari,16.1,OS X,10_15_7,https://5puzkbbxv1.cognition.run/?sona_id=48811,"en-US,en;q=0.9",bvf665e21o5ypl7,20,"[""Asian""]",No,Female,"India - 18 years 
US - 2 years",I'm not sure,434730,NA,null,<p></p>,null,choice,tcd,trinary,attraction,1,microwave ovens,null,null,null,null,null,null,1,NA,NA,NA,NA,NA,NA,NA,NA,NA,NA
NA,NA,NA,NA,NA,choice_trial,survey-html-form,59,297210,0.0-4.0-1.27,101,1,2025-04-30T21:24:01Z,b60275e29fe2361ab97ac0ac217840d7,"Mozilla/5.0 (Macintosh; Intel Mac OS X 10_15_7) AppleWebKit/605.1.15 (KHTML, like Gecko) Version/16.1 Safari/605.1.15",Macintosh,Safari,16.1,OS X,10_15_7,https://5puzkbbxv1.cognition.run/?sona_id=48811,"en-US,en;q=0.9",bvf665e21o5ypl7,20,"[""Asian""]",No,Female,"India - 18 years 
US - 2 years",I'm not sure,434730,NA,3157,NA,"{""product_choice"":""A""}",choice,tcd,trinary,attraction,1,microwave ovens,null,null,null,null,null,null,1,60,50,60,50,60,40,Warranty,Cooking power,NA,NA
NA,NA,NA,NA,NA,choice_trial_setup,html-keyboard-response,60,297515,0.0-4.0-0.28,101,1,2025-04-30T21:24:01Z,b60275e29fe2361ab97ac0ac217840d7,"Mozilla/5.0 (Macintosh; Intel Mac OS X 10_15_7) AppleWebKit/605.1.15 (KHTML, like Gecko) Version/16.1 Safari/605.1.15",Macintosh,Safari,16.1,OS X,10_15_7,https://5puzkbbxv1.cognition.run/?sona_id=48811,"en-US,en;q=0.9",bvf665e21o5ypl7,20,"[""Asian""]",No,Female,"India - 18 years 
US - 2 years",I'm not sure,434730,NA,null,<p></p>,null,choice,tc,binary,attraction,NA,microwave ovens,null,null,null,null,null,null,1,NA,NA,NA,NA,NA,NA,NA,NA,NA,NA
NA,NA,NA,NA,NA,choice_trial,survey-html-form,61,299927,0.0-4.0-1.28,101,1,2025-04-30T21:24:01Z,b60275e29fe2361ab97ac0ac217840d7,"Mozilla/5.0 (Macintosh; Intel Mac OS X 10_15_7) AppleWebKit/605.1.15 (KHTML, like Gecko) Version/16.1 Safari/605.1.15",Macintosh,Safari,16.1,OS X,10_15_7,https://5puzkbbxv1.cognition.run/?sona_id=48811,"en-US,en;q=0.9",bvf665e21o5ypl7,20,"[""Asian""]",No,Female,"India - 18 years 
US - 2 years",I'm not sure,434730,NA,2406,NA,"{""product_choice"":""A""}",choice,tc,binary,attraction,NA,microwave ovens,null,null,null,null,null,null,1,60,50,null,50,60,null,Warranty,Cooking power,NA,NA
NA,NA,NA,NA,NA,choice_trial_setup,html-keyboard-response,62,300231,0.0-4.0-0.29,101,1,2025-04-30T21:24:01Z,b60275e29fe2361ab97ac0ac217840d7,"Mozilla/5.0 (Macintosh; Intel Mac OS X 10_15_7) AppleWebKit/605.1.15 (KHTML, like Gecko) Version/16.1 Safari/605.1.15",Macintosh,Safari,16.1,OS X,10_15_7,https://5puzkbbxv1.cognition.run/?sona_id=48811,"en-US,en;q=0.9",bvf665e21o5ypl7,20,"[""Asian""]",No,Female,"India - 18 years 
US - 2 years",I'm not sure,434730,NA,null,<p></p>,null,choice,cdt,trinary,repulsion_B,2,televisions,null,null,null,null,null,null,1,NA,NA,NA,NA,NA,NA,NA,NA,NA,NA
NA,NA,NA,NA,NA,choice_trial,survey-html-form,63,304581,0.0-4.0-1.29,101,1,2025-04-30T21:24:01Z,b60275e29fe2361ab97ac0ac217840d7,"Mozilla/5.0 (Macintosh; Intel Mac OS X 10_15_7) AppleWebKit/605.1.15 (KHTML, like Gecko) Version/16.1 Safari/605.1.15",Macintosh,Safari,16.1,OS X,10_15_7,https://5puzkbbxv1.cognition.run/?sona_id=48811,"en-US,en;q=0.9",bvf665e21o5ypl7,20,"[""Asian""]",No,Female,"India - 18 years 
US - 2 years",I'm not sure,434730,NA,4341,NA,"{""product_choice"":""C""}",choice,cdt,trinary,repulsion_B,2,televisions,null,null,null,null,null,null,1,40,30,40,90,100,80,Screen size,Average lifespan,NA,NA
NA,NA,NA,NA,NA,choice_trial_setup,html-keyboard-response,64,304886,0.0-4.0-0.30,101,1,2025-04-30T21:24:01Z,b60275e29fe2361ab97ac0ac217840d7,"Mozilla/5.0 (Macintosh; Intel Mac OS X 10_15_7) AppleWebKit/605.1.15 (KHTML, like Gecko) Version/16.1 Safari/605.1.15",Macintosh,Safari,16.1,OS X,10_15_7,https://5puzkbbxv1.cognition.run/?sona_id=48811,"en-US,en;q=0.9",bvf665e21o5ypl7,20,"[""Asian""]",No,Female,"India - 18 years 
US - 2 years",I'm not sure,434730,NA,null,<p></p>,null,choice,wwb,trinary,catch,null,washing machines,55,60,40,5,25,35,1,NA,NA,NA,NA,NA,NA,NA,NA,NA,NA
NA,NA,NA,NA,NA,choice_trial,survey-html-form,65,309571,0.0-4.0-1.30,101,1,2025-04-30T21:24:01Z,b60275e29fe2361ab97ac0ac217840d7,"Mozilla/5.0 (Macintosh; Intel Mac OS X 10_15_7) AppleWebKit/605.1.15 (KHTML, like Gecko) Version/16.1 Safari/605.1.15",Macintosh,Safari,16.1,OS X,10_15_7,https://5puzkbbxv1.cognition.run/?sona_id=48811,"en-US,en;q=0.9",bvf665e21o5ypl7,20,"[""Asian""]",No,Female,"India - 18 years 
US - 2 years",I'm not sure,434730,NA,4679,NA,"{""product_choice"":""C""}",choice,wwb,trinary,catch,null,washing machines,55,60,40,5,25,35,1,null,null,null,null,null,null,Average lifespan,Energy savings,NA,NA
NA,NA,NA,NA,NA,choice_trial_setup,html-keyboard-response,66,309876,0.0-4.0-0.31,101,1,2025-04-30T21:24:01Z,b60275e29fe2361ab97ac0ac217840d7,"Mozilla/5.0 (Macintosh; Intel Mac OS X 10_15_7) AppleWebKit/605.1.15 (KHTML, like Gecko) Version/16.1 Safari/605.1.15",Macintosh,Safari,16.1,OS X,10_15_7,https://5puzkbbxv1.cognition.run/?sona_id=48811,"en-US,en;q=0.9",bvf665e21o5ypl7,20,"[""Asian""]",No,Female,"India - 18 years 
US - 2 years",I'm not sure,434730,NA,null,<p></p>,null,choice,bw,binary,catch,null,washing machines,90,85,15,50,null,null,1,NA,NA,NA,NA,NA,NA,NA,NA,NA,NA
NA,NA,NA,NA,NA,choice_trial,survey-html-form,67,312589,0.0-4.0-1.31,101,1,2025-04-30T21:24:01Z,b60275e29fe2361ab97ac0ac217840d7,"Mozilla/5.0 (Macintosh; Intel Mac OS X 10_15_7) AppleWebKit/605.1.15 (KHTML, like Gecko) Version/16.1 Safari/605.1.15",Macintosh,Safari,16.1,OS X,10_15_7,https://5puzkbbxv1.cognition.run/?sona_id=48811,"en-US,en;q=0.9",bvf665e21o5ypl7,20,"[""Asian""]",No,Female,"India - 18 years 
US - 2 years",I'm not sure,434730,NA,2707,NA,"{""product_choice"":""A""}",choice,bw,binary,catch,null,washing machines,90,85,15,50,null,null,1,null,null,null,null,null,null,Average lifespan,Energy savings,NA,NA
NA,NA,NA,NA,NA,choice_trial_setup,html-keyboard-response,68,312894,0.0-4.0-0.32,101,1,2025-04-30T21:24:01Z,b60275e29fe2361ab97ac0ac217840d7,"Mozilla/5.0 (Macintosh; Intel Mac OS X 10_15_7) AppleWebKit/605.1.15 (KHTML, like Gecko) Version/16.1 Safari/605.1.15",Macintosh,Safari,16.1,OS X,10_15_7,https://5puzkbbxv1.cognition.run/?sona_id=48811,"en-US,en;q=0.9",bvf665e21o5ypl7,20,"[""Asian""]",No,Female,"India - 18 years 
US - 2 years",I'm not sure,434730,NA,null,<p></p>,null,choice,ct,binary,attraction,NA,washing machines,null,null,null,null,null,null,1,NA,NA,NA,NA,NA,NA,NA,NA,NA,NA
NA,NA,NA,NA,NA,choice_trial,survey-html-form,69,316638,0.0-4.0-1.32,101,1,2025-04-30T21:24:01Z,b60275e29fe2361ab97ac0ac217840d7,"Mozilla/5.0 (Macintosh; Intel Mac OS X 10_15_7) AppleWebKit/605.1.15 (KHTML, like Gecko) Version/16.1 Safari/605.1.15",Macintosh,Safari,16.1,OS X,10_15_7,https://5puzkbbxv1.cognition.run/?sona_id=48811,"en-US,en;q=0.9",bvf665e21o5ypl7,20,"[""Asian""]",No,Female,"India - 18 years 
US - 2 years",I'm not sure,434730,NA,3738,NA,"{""product_choice"":""B""}",choice,ct,binary,attraction,NA,washing machines,null,null,null,null,null,null,1,60,50,null,50,60,null,Average lifespan,Energy savings,NA,NA
NA,NA,NA,NA,NA,choice_trial_setup,html-keyboard-response,70,316943,0.0-4.0-0.33,101,1,2025-04-30T21:24:01Z,b60275e29fe2361ab97ac0ac217840d7,"Mozilla/5.0 (Macintosh; Intel Mac OS X 10_15_7) AppleWebKit/605.1.15 (KHTML, like Gecko) Version/16.1 Safari/605.1.15",Macintosh,Safari,16.1,OS X,10_15_7,https://5puzkbbxv1.cognition.run/?sona_id=48811,"en-US,en;q=0.9",bvf665e21o5ypl7,20,"[""Asian""]",No,Female,"India - 18 years 
US - 2 years",I'm not sure,434730,NA,null,<p></p>,null,choice,cdt,trinary,repulsion_B,1,washing machines,null,null,null,null,null,null,1,NA,NA,NA,NA,NA,NA,NA,NA,NA,NA
NA,NA,NA,NA,NA,choice_trial,survey-html-form,71,319833,0.0-4.0-1.33,101,1,2025-04-30T21:24:01Z,b60275e29fe2361ab97ac0ac217840d7,"Mozilla/5.0 (Macintosh; Intel Mac OS X 10_15_7) AppleWebKit/605.1.15 (KHTML, like Gecko) Version/16.1 Safari/605.1.15",Macintosh,Safari,16.1,OS X,10_15_7,https://5puzkbbxv1.cognition.run/?sona_id=48811,"en-US,en;q=0.9",bvf665e21o5ypl7,20,"[""Asian""]",No,Female,"India - 18 years 
US - 2 years",I'm not sure,434730,NA,2884,NA,"{""product_choice"":""A""}",choice,cdt,trinary,repulsion_B,1,washing machines,null,null,null,null,null,null,1,90,100,80,40,30,40,Average lifespan,Energy savings,NA,NA
NA,NA,NA,NA,NA,choice_trial_setup,html-keyboard-response,72,320137,0.0-4.0-0.34,101,1,2025-04-30T21:24:01Z,b60275e29fe2361ab97ac0ac217840d7,"Mozilla/5.0 (Macintosh; Intel Mac OS X 10_15_7) AppleWebKit/605.1.15 (KHTML, like Gecko) Version/16.1 Safari/605.1.15",Macintosh,Safari,16.1,OS X,10_15_7,https://5puzkbbxv1.cognition.run/?sona_id=48811,"en-US,en;q=0.9",bvf665e21o5ypl7,20,"[""Asian""]",No,Female,"India - 18 years 
US - 2 years",I'm not sure,434730,NA,null,<p></p>,null,choice,wbw,trinary,catch,null,televisions,80,95,30,10,50,5,1,NA,NA,NA,NA,NA,NA,NA,NA,NA,NA
NA,NA,NA,NA,NA,choice_trial,survey-html-form,73,323714,0.0-4.0-1.34,101,1,2025-04-30T21:24:01Z,b60275e29fe2361ab97ac0ac217840d7,"Mozilla/5.0 (Macintosh; Intel Mac OS X 10_15_7) AppleWebKit/605.1.15 (KHTML, like Gecko) Version/16.1 Safari/605.1.15",Macintosh,Safari,16.1,OS X,10_15_7,https://5puzkbbxv1.cognition.run/?sona_id=48811,"en-US,en;q=0.9",bvf665e21o5ypl7,20,"[""Asian""]",No,Female,"India - 18 years 
US - 2 years",I'm not sure,434730,NA,3571,NA,"{""product_choice"":""B""}",choice,wbw,trinary,catch,null,televisions,80,95,30,10,50,5,1,null,null,null,null,null,null,Screen size,Average lifespan,NA,NA
NA,NA,NA,NA,NA,choice_trial_setup,html-keyboard-response,74,324019,0.0-4.0-0.35,101,1,2025-04-30T21:24:01Z,b60275e29fe2361ab97ac0ac217840d7,"Mozilla/5.0 (Macintosh; Intel Mac OS X 10_15_7) AppleWebKit/605.1.15 (KHTML, like Gecko) Version/16.1 Safari/605.1.15",Macintosh,Safari,16.1,OS X,10_15_7,https://5puzkbbxv1.cognition.run/?sona_id=48811,"en-US,en;q=0.9",bvf665e21o5ypl7,20,"[""Asian""]",No,Female,"India - 18 years 
US - 2 years",I'm not sure,434730,NA,null,<p></p>,null,choice,ct,binary,repulsion,1,laptops,null,null,null,null,null,null,2,NA,NA,NA,NA,NA,NA,NA,NA,NA,NA
NA,NA,NA,NA,NA,choice_trial,survey-html-form,75,328287,0.0-4.0-1.35,101,1,2025-04-30T21:24:01Z,b60275e29fe2361ab97ac0ac217840d7,"Mozilla/5.0 (Macintosh; Intel Mac OS X 10_15_7) AppleWebKit/605.1.15 (KHTML, like Gecko) Version/16.1 Safari/605.1.15",Macintosh,Safari,16.1,OS X,10_15_7,https://5puzkbbxv1.cognition.run/?sona_id=48811,"en-US,en;q=0.9",bvf665e21o5ypl7,20,"[""Asian""]",No,Female,"India - 18 years 
US - 2 years",I'm not sure,434730,NA,4262,NA,"{""product_choice"":""A""}",choice,ct,binary,repulsion,1,laptops,null,null,null,null,null,null,2,100,90,null,30,40,null,Processing speed,Memory (RAM),NA,NA
NA,NA,NA,NA,NA,choice_trial_setup,html-keyboard-response,76,328591,0.0-4.0-0.36,101,1,2025-04-30T21:24:01Z,b60275e29fe2361ab97ac0ac217840d7,"Mozilla/5.0 (Macintosh; Intel Mac OS X 10_15_7) AppleWebKit/605.1.15 (KHTML, like Gecko) Version/16.1 Safari/605.1.15",Macintosh,Safari,16.1,OS X,10_15_7,https://5puzkbbxv1.cognition.run/?sona_id=48811,"en-US,en;q=0.9",bvf665e21o5ypl7,20,"[""Asian""]",No,Female,"India - 18 years 
US - 2 years",I'm not sure,434730,NA,null,<p></p>,null,choice,tc,binary,repulsion,2,microwave ovens,null,null,null,null,null,null,2,NA,NA,NA,NA,NA,NA,NA,NA,NA,NA
NA,NA,NA,NA,NA,choice_trial,survey-html-form,77,331491,0.0-4.0-1.36,101,1,2025-04-30T21:24:01Z,b60275e29fe2361ab97ac0ac217840d7,"Mozilla/5.0 (Macintosh; Intel Mac OS X 10_15_7) AppleWebKit/605.1.15 (KHTML, like Gecko) Version/16.1 Safari/605.1.15",Macintosh,Safari,16.1,OS X,10_15_7,https://5puzkbbxv1.cognition.run/?sona_id=48811,"en-US,en;q=0.9",bvf665e21o5ypl7,20,"[""Asian""]",No,Female,"India - 18 years 
US - 2 years",I'm not sure,434730,NA,2894,NA,"{""product_choice"":""B""}",choice,tc,binary,repulsion,2,microwave ovens,null,null,null,null,null,null,2,30,40,null,100,90,null,Warranty,Cooking power,NA,NA
NA,NA,NA,NA,NA,choice_trial_setup,html-keyboard-response,78,331796,0.0-4.0-0.37,101,1,2025-04-30T21:24:01Z,b60275e29fe2361ab97ac0ac217840d7,"Mozilla/5.0 (Macintosh; Intel Mac OS X 10_15_7) AppleWebKit/605.1.15 (KHTML, like Gecko) Version/16.1 Safari/605.1.15",Macintosh,Safari,16.1,OS X,10_15_7,https://5puzkbbxv1.cognition.run/?sona_id=48811,"en-US,en;q=0.9",bvf665e21o5ypl7,20,"[""Asian""]",No,Female,"India - 18 years 
US - 2 years",I'm not sure,434730,NA,null,<p></p>,null,choice,dtc,trinary,attraction,1,laptops,null,null,null,null,null,null,1,NA,NA,NA,NA,NA,NA,NA,NA,NA,NA
NA,NA,NA,NA,NA,choice_trial,survey-html-form,79,335011,0.0-4.0-1.37,101,1,2025-04-30T21:24:01Z,b60275e29fe2361ab97ac0ac217840d7,"Mozilla/5.0 (Macintosh; Intel Mac OS X 10_15_7) AppleWebKit/605.1.15 (KHTML, like Gecko) Version/16.1 Safari/605.1.15",Macintosh,Safari,16.1,OS X,10_15_7,https://5puzkbbxv1.cognition.run/?sona_id=48811,"en-US,en;q=0.9",bvf665e21o5ypl7,20,"[""Asian""]",No,Female,"India - 18 years 
US - 2 years",I'm not sure,434730,NA,3210,NA,"{""product_choice"":""B""}",choice,dtc,trinary,attraction,1,laptops,null,null,null,null,null,null,1,60,50,60,50,60,40,Processing speed,Memory (RAM),NA,NA
NA,NA,NA,NA,NA,choice_trial_setup,html-keyboard-response,80,335316,0.0-4.0-0.38,101,1,2025-04-30T21:24:01Z,b60275e29fe2361ab97ac0ac217840d7,"Mozilla/5.0 (Macintosh; Intel Mac OS X 10_15_7) AppleWebKit/605.1.15 (KHTML, like Gecko) Version/16.1 Safari/605.1.15",Macintosh,Safari,16.1,OS X,10_15_7,https://5puzkbbxv1.cognition.run/?sona_id=48811,"en-US,en;q=0.9",bvf665e21o5ypl7,20,"[""Asian""]",No,Female,"India - 18 years 
US - 2 years",I'm not sure,434730,NA,null,<p></p>,null,choice,ct,binary,repulsion,2,washing machines,null,null,null,null,null,null,2,NA,NA,NA,NA,NA,NA,NA,NA,NA,NA
NA,NA,NA,NA,NA,choice_trial,survey-html-form,81,337901,0.0-4.0-1.38,101,1,2025-04-30T21:24:01Z,b60275e29fe2361ab97ac0ac217840d7,"Mozilla/5.0 (Macintosh; Intel Mac OS X 10_15_7) AppleWebKit/605.1.15 (KHTML, like Gecko) Version/16.1 Safari/605.1.15",Macintosh,Safari,16.1,OS X,10_15_7,https://5puzkbbxv1.cognition.run/?sona_id=48811,"en-US,en;q=0.9",bvf665e21o5ypl7,20,"[""Asian""]",No,Female,"India - 18 years 
US - 2 years",I'm not sure,434730,NA,2576,NA,"{""product_choice"":""B""}",choice,ct,binary,repulsion,2,washing machines,null,null,null,null,null,null,2,30,40,null,100,90,null,Average lifespan,Energy savings,NA,NA
NA,NA,NA,NA,NA,choice_trial_setup,html-keyboard-response,82,338208,0.0-4.0-0.39,101,1,2025-04-30T21:24:01Z,b60275e29fe2361ab97ac0ac217840d7,"Mozilla/5.0 (Macintosh; Intel Mac OS X 10_15_7) AppleWebKit/605.1.15 (KHTML, like Gecko) Version/16.1 Safari/605.1.15",Macintosh,Safari,16.1,OS X,10_15_7,https://5puzkbbxv1.cognition.run/?sona_id=48811,"en-US,en;q=0.9",bvf665e21o5ypl7,20,"[""Asian""]",No,Female,"India - 18 years 
US - 2 years",I'm not sure,434730,NA,null,<p></p>,null,choice,ct,binary,repulsion,2,televisions,null,null,null,null,null,null,2,NA,NA,NA,NA,NA,NA,NA,NA,NA,NA
NA,NA,NA,NA,NA,choice_trial,survey-html-form,83,343107,0.0-4.0-1.39,101,1,2025-04-30T21:24:01Z,b60275e29fe2361ab97ac0ac217840d7,"Mozilla/5.0 (Macintosh; Intel Mac OS X 10_15_7) AppleWebKit/605.1.15 (KHTML, like Gecko) Version/16.1 Safari/605.1.15",Macintosh,Safari,16.1,OS X,10_15_7,https://5puzkbbxv1.cognition.run/?sona_id=48811,"en-US,en;q=0.9",bvf665e21o5ypl7,20,"[""Asian""]",No,Female,"India - 18 years 
US - 2 years",I'm not sure,434730,NA,4893,NA,"{""product_choice"":""A""}",choice,ct,binary,repulsion,2,televisions,null,null,null,null,null,null,2,30,40,null,100,90,null,Screen size,Average lifespan,NA,NA
NA,NA,NA,NA,NA,choice_trial_setup,html-keyboard-response,84,343411,0.0-4.0-0.40,101,1,2025-04-30T21:24:01Z,b60275e29fe2361ab97ac0ac217840d7,"Mozilla/5.0 (Macintosh; Intel Mac OS X 10_15_7) AppleWebKit/605.1.15 (KHTML, like Gecko) Version/16.1 Safari/605.1.15",Macintosh,Safari,16.1,OS X,10_15_7,https://5puzkbbxv1.cognition.run/?sona_id=48811,"en-US,en;q=0.9",bvf665e21o5ypl7,20,"[""Asian""]",No,Female,"India - 18 years 
US - 2 years",I'm not sure,434730,NA,null,<p></p>,null,choice,tdc,trinary,repulsion_B,2,laptops,null,null,null,null,null,null,2,NA,NA,NA,NA,NA,NA,NA,NA,NA,NA
NA,NA,NA,NA,NA,choice_trial,survey-html-form,85,346385,0.0-4.0-1.40,101,1,2025-04-30T21:24:01Z,b60275e29fe2361ab97ac0ac217840d7,"Mozilla/5.0 (Macintosh; Intel Mac OS X 10_15_7) AppleWebKit/605.1.15 (KHTML, like Gecko) Version/16.1 Safari/605.1.15",Macintosh,Safari,16.1,OS X,10_15_7,https://5puzkbbxv1.cognition.run/?sona_id=48811,"en-US,en;q=0.9",bvf665e21o5ypl7,20,"[""Asian""]",No,Female,"India - 18 years 
US - 2 years",I'm not sure,434730,NA,2967,NA,"{""product_choice"":""A""}",choice,tdc,trinary,repulsion_B,2,laptops,null,null,null,null,null,null,2,40,30,40,90,100,80,Processing speed,Memory (RAM),NA,NA
NA,NA,NA,NA,NA,choice_trial_setup,html-keyboard-response,86,346690,0.0-4.0-0.41,101,1,2025-04-30T21:24:01Z,b60275e29fe2361ab97ac0ac217840d7,"Mozilla/5.0 (Macintosh; Intel Mac OS X 10_15_7) AppleWebKit/605.1.15 (KHTML, like Gecko) Version/16.1 Safari/605.1.15",Macintosh,Safari,16.1,OS X,10_15_7,https://5puzkbbxv1.cognition.run/?sona_id=48811,"en-US,en;q=0.9",bvf665e21o5ypl7,20,"[""Asian""]",No,Female,"India - 18 years 
US - 2 years",I'm not sure,434730,NA,null,<p></p>,null,choice,wwb,trinary,catch,null,laptops,75,50,5,35,15,45,2,NA,NA,NA,NA,NA,NA,NA,NA,NA,NA
NA,NA,NA,NA,NA,choice_trial,survey-html-form,87,349359,0.0-4.0-1.41,101,1,2025-04-30T21:24:01Z,b60275e29fe2361ab97ac0ac217840d7,"Mozilla/5.0 (Macintosh; Intel Mac OS X 10_15_7) AppleWebKit/605.1.15 (KHTML, like Gecko) Version/16.1 Safari/605.1.15",Macintosh,Safari,16.1,OS X,10_15_7,https://5puzkbbxv1.cognition.run/?sona_id=48811,"en-US,en;q=0.9",bvf665e21o5ypl7,20,"[""Asian""]",No,Female,"India - 18 years 
US - 2 years",I'm not sure,434730,NA,2665,NA,"{""product_choice"":""C""}",choice,wwb,trinary,catch,null,laptops,75,50,5,35,15,45,2,null,null,null,null,null,null,Processing speed,Memory (RAM),NA,NA
NA,NA,NA,NA,NA,choice_trial_setup,html-keyboard-response,88,349664,0.0-4.0-0.42,101,1,2025-04-30T21:24:01Z,b60275e29fe2361ab97ac0ac217840d7,"Mozilla/5.0 (Macintosh; Intel Mac OS X 10_15_7) AppleWebKit/605.1.15 (KHTML, like Gecko) Version/16.1 Safari/605.1.15",Macintosh,Safari,16.1,OS X,10_15_7,https://5puzkbbxv1.cognition.run/?sona_id=48811,"en-US,en;q=0.9",bvf665e21o5ypl7,20,"[""Asian""]",No,Female,"India - 18 years 
US - 2 years",I'm not sure,434730,NA,null,<p></p>,null,choice,bw,binary,catch,null,microwave ovens,70,75,45,45,null,null,1,NA,NA,NA,NA,NA,NA,NA,NA,NA,NA
NA,NA,NA,NA,NA,choice_trial,survey-html-form,89,354326,0.0-4.0-1.42,101,1,2025-04-30T21:24:01Z,b60275e29fe2361ab97ac0ac217840d7,"Mozilla/5.0 (Macintosh; Intel Mac OS X 10_15_7) AppleWebKit/605.1.15 (KHTML, like Gecko) Version/16.1 Safari/605.1.15",Macintosh,Safari,16.1,OS X,10_15_7,https://5puzkbbxv1.cognition.run/?sona_id=48811,"en-US,en;q=0.9",bvf665e21o5ypl7,20,"[""Asian""]",No,Female,"India - 18 years 
US - 2 years",I'm not sure,434730,NA,4656,NA,"{""product_choice"":""A""}",choice,bw,binary,catch,null,microwave ovens,70,75,45,45,null,null,1,null,null,null,null,null,null,Warranty,Cooking power,NA,NA
NA,NA,NA,NA,NA,choice_trial_setup,html-keyboard-response,90,354632,0.0-4.0-0.43,101,1,2025-04-30T21:24:01Z,b60275e29fe2361ab97ac0ac217840d7,"Mozilla/5.0 (Macintosh; Intel Mac OS X 10_15_7) AppleWebKit/605.1.15 (KHTML, like Gecko) Version/16.1 Safari/605.1.15",Macintosh,Safari,16.1,OS X,10_15_7,https://5puzkbbxv1.cognition.run/?sona_id=48811,"en-US,en;q=0.9",bvf665e21o5ypl7,20,"[""Asian""]",No,Female,"India - 18 years 
US - 2 years",I'm not sure,434730,NA,null,<p></p>,null,choice,tcd,trinary,attraction,2,microwave ovens,null,null,null,null,null,null,2,NA,NA,NA,NA,NA,NA,NA,NA,NA,NA
NA,NA,NA,NA,NA,choice_trial,survey-html-form,91,357798,0.0-4.0-1.43,101,1,2025-04-30T21:24:01Z,b60275e29fe2361ab97ac0ac217840d7,"Mozilla/5.0 (Macintosh; Intel Mac OS X 10_15_7) AppleWebKit/605.1.15 (KHTML, like Gecko) Version/16.1 Safari/605.1.15",Macintosh,Safari,16.1,OS X,10_15_7,https://5puzkbbxv1.cognition.run/?sona_id=48811,"en-US,en;q=0.9",bvf665e21o5ypl7,20,"[""Asian""]",No,Female,"India - 18 years 
US - 2 years",I'm not sure,434730,NA,3159,NA,"{""product_choice"":""A""}",choice,tcd,trinary,attraction,2,microwave ovens,null,null,null,null,null,null,2,50,60,40,60,50,60,Warranty,Cooking power,NA,NA
NA,NA,NA,NA,NA,post_trials_message,html-button-response,92,359267,0.0-5.0,101,1,2025-04-30T21:24:01Z,b60275e29fe2361ab97ac0ac217840d7,"Mozilla/5.0 (Macintosh; Intel Mac OS X 10_15_7) AppleWebKit/605.1.15 (KHTML, like Gecko) Version/16.1 Safari/605.1.15",Macintosh,Safari,16.1,OS X,10_15_7,https://5puzkbbxv1.cognition.run/?sona_id=48811,"en-US,en;q=0.9",bvf665e21o5ypl7,20,"[""Asian""]",No,Female,"India - 18 years 
US - 2 years",I'm not sure,434730,NA,1463,<p> <b>Thank you for your patience!</b></p><p>  The study will be done after completing a brief form. </p>,0,NA,NA,NA,NA,NA,NA,NA,NA,NA,NA,NA,NA,NA,NA,NA,NA,NA,NA,NA,NA,NA,NA,NA
NA,NA,NA,NA,NA,survey_message,survey-text,93,380262,0.0-6.0,101,1,2025-04-30T21:24:01Z,b60275e29fe2361ab97ac0ac217840d7,"Mozilla/5.0 (Macintosh; Intel Mac OS X 10_15_7) AppleWebKit/605.1.15 (KHTML, like Gecko) Version/16.1 Safari/605.1.15",Macintosh,Safari,16.1,OS X,10_15_7,https://5puzkbbxv1.cognition.run/?sona_id=48811,"en-US,en;q=0.9",bvf665e21o5ypl7,20,"[""Asian""]",No,Female,"India - 18 years 
US - 2 years",I'm not sure,434730,NA,20983,NA,"{""Q0"":""I chose to have a balance between both""}",NA,NA,NA,NA,NA,NA,NA,NA,NA,NA,NA,NA,NA,NA,NA,NA,NA,NA,NA,NA,NA,I chose to have a balance between both,NA
NA,NA,NA,NA,NA,demo_age,survey-text,94,382851,0.0-7.0,101,1,2025-04-30T21:24:01Z,b60275e29fe2361ab97ac0ac217840d7,"Mozilla/5.0 (Macintosh; Intel Mac OS X 10_15_7) AppleWebKit/605.1.15 (KHTML, like Gecko) Version/16.1 Safari/605.1.15",Macintosh,Safari,16.1,OS X,10_15_7,https://5puzkbbxv1.cognition.run/?sona_id=48811,"en-US,en;q=0.9",bvf665e21o5ypl7,20,"[""Asian""]",No,Female,"India - 18 years 
US - 2 years",I'm not sure,434730,NA,2583,NA,"{""Q0"":""20""}",NA,NA,NA,NA,NA,NA,NA,NA,NA,NA,NA,NA,NA,NA,NA,NA,NA,NA,NA,NA,NA,NA,NA
NA,NA,NA,NA,NA,demo_race,survey-multi-select,95,385640,0.0-8.0,101,1,2025-04-30T21:24:01Z,b60275e29fe2361ab97ac0ac217840d7,"Mozilla/5.0 (Macintosh; Intel Mac OS X 10_15_7) AppleWebKit/605.1.15 (KHTML, like Gecko) Version/16.1 Safari/605.1.15",Macintosh,Safari,16.1,OS X,10_15_7,https://5puzkbbxv1.cognition.run/?sona_id=48811,"en-US,en;q=0.9",bvf665e21o5ypl7,20,"[""Asian""]",No,Female,"India - 18 years 
US - 2 years",I'm not sure,434730,NA,2784,NA,"{""Q0"":[""Asian""]}",NA,NA,NA,NA,NA,NA,NA,NA,NA,NA,NA,NA,NA,NA,NA,NA,NA,NA,NA,NA,NA,NA,[0]
NA,NA,NA,NA,NA,demo_ethnicity_gender,survey-multi-choice,96,389991,0.0-9.0,101,1,2025-04-30T21:24:01Z,b60275e29fe2361ab97ac0ac217840d7,"Mozilla/5.0 (Macintosh; Intel Mac OS X 10_15_7) AppleWebKit/605.1.15 (KHTML, like Gecko) Version/16.1 Safari/605.1.15",Macintosh,Safari,16.1,OS X,10_15_7,https://5puzkbbxv1.cognition.run/?sona_id=48811,"en-US,en;q=0.9",bvf665e21o5ypl7,20,"[""Asian""]",No,Female,"India - 18 years 
US - 2 years",I'm not sure,434730,NA,4345,NA,"{""Q0"":""No"",""Q1"":""Female""}",NA,NA,NA,NA,NA,NA,NA,NA,NA,NA,NA,NA,NA,NA,NA,NA,NA,NA,NA,NA,NA,NA,"[0,1]"
NA,NA,NA,NA,NA,demo_countries,survey-text,97,412984,0.0-10.0,101,1,2025-04-30T21:24:01Z,b60275e29fe2361ab97ac0ac217840d7,"Mozilla/5.0 (Macintosh; Intel Mac OS X 10_15_7) AppleWebKit/605.1.15 (KHTML, like Gecko) Version/16.1 Safari/605.1.15",Macintosh,Safari,16.1,OS X,10_15_7,https://5puzkbbxv1.cognition.run/?sona_id=48811,"en-US,en;q=0.9",bvf665e21o5ypl7,20,"[""Asian""]",No,Female,"India - 18 years 
US - 2 years",I'm not sure,434730,NA,22987,NA,"{""Q0"":""India - 18 years \nUS - 2 years""}",NA,NA,NA,NA,NA,NA,NA,NA,NA,NA,NA,NA,NA,NA,NA,NA,NA,NA,NA,NA,NA,NA,NA
NA,NA,NA,NA,NA,demo_prev_study,survey-multi-choice,98,422122,0.0-11.0,101,1,2025-04-30T21:24:01Z,b60275e29fe2361ab97ac0ac217840d7,"Mozilla/5.0 (Macintosh; Intel Mac OS X 10_15_7) AppleWebKit/605.1.15 (KHTML, like Gecko) Version/16.1 Safari/605.1.15",Macintosh,Safari,16.1,OS X,10_15_7,https://5puzkbbxv1.cognition.run/?sona_id=48811,"en-US,en;q=0.9",bvf665e21o5ypl7,20,"[""Asian""]",No,Female,"India - 18 years 
US - 2 years",I'm not sure,434730,NA,9132,NA,"{""Q0"":""I'm not sure""}",NA,NA,NA,NA,NA,NA,NA,NA,NA,NA,NA,NA,NA,NA,NA,NA,NA,NA,NA,NA,NA,NA,[0]
NA,NA,NA,NA,NA,post_survey_message,html-keyboard-response,99,426861,0.0-12.0,101,1,2025-04-30T21:24:01Z,b60275e29fe2361ab97ac0ac217840d7,"Mozilla/5.0 (Macintosh; Intel Mac OS X 10_15_7) AppleWebKit/605.1.15 (KHTML, like Gecko) Version/16.1 Safari/605.1.15",Macintosh,Safari,16.1,OS X,10_15_7,https://5puzkbbxv1.cognition.run/?sona_id=48811,"en-US,en;q=0.9",bvf665e21o5ypl7,20,"[""Asian""]",No,Female,"India - 18 years 
US - 2 years",I'm not sure,434730,NA,4727,NA,j,NA,NA,NA,NA,NA,NA,NA,NA,NA,NA,NA,NA,NA,NA,NA,NA,NA,NA,NA,NA,NA,NA,NA
NA,NA,NA,NA,NA,debrief,image-keyboard-response,100,434729,0.0-13.0,101,1,2025-04-30T21:24:01Z,b60275e29fe2361ab97ac0ac217840d7,"Mozilla/5.0 (Macintosh; Intel Mac OS X 10_15_7) AppleWebKit/605.1.15 (KHTML, like Gecko) Version/16.1 Safari/605.1.15",Macintosh,Safari,16.1,OS X,10_15_7,https://5puzkbbxv1.cognition.run/?sona_id=48811,"en-US,en;q=0.9",bvf665e21o5ypl7,20,"[""Asian""]",No,Female,"India - 18 years 
US - 2 years",I'm not sure,434730,NA,7829,Judg_choice_debrief.png,p,NA,NA,NA,NA,NA,NA,NA,NA,NA,NA,NA,NA,NA,NA,NA,NA,NA,NA,NA,NA,NA,NA,NA
