success,timeout,failed_images,failed_audio,failed_video,screen_id,trial_type,trial_index,time_elapsed,internal_node_id,run_id,condition,recorded_at,source_code_version,user_agent,device,browser,browser_version,platform,platform_version,referer,accept_language,ppt_id,age,race,ethnicity,gender,other_countries,prev_study,exp_duration,view_history,rt,stimulus,response,phase,order,set,effect,t_high,category,d1_best,d2_best,d1_worst1,d2_worst1,d1_worst2,d2_worst2,first_dim,d1_t,d1_c,d1_d,d2_t,d2_c,d2_d,d1_name,d2_name,strategy_response,question_order
TRUE,FALSE,[],[],[],img preload,preload,0,199,0.0-0.0,102,1,2025-04-30T21:52:28Z,b60275e29fe2361ab97ac0ac217840d7,"Mozilla/5.0 (Macintosh; Intel Mac OS X 10_15_7) AppleWebKit/537.36 (KHTML, like Gecko) Chrome/134.0.0.0 Safari/537.36",Macintosh,Chrome,134.0.0.0,OS X,10_15_7,https://5puzkbbxv1.cognition.run/?sona_id=48254,"en-GB,en-US;q=0.9,en;q=0.8",om0r7pllll9qdfs,24,"[""Asian""]",No,Male,"Singapore, India, Canada",No,427331.59999996424,NA,NA,NA,NA,NA,NA,NA,NA,NA,NA,NA,NA,NA,NA,NA,NA,NA,NA,NA,NA,NA,NA,NA,NA,NA,NA,NA
NA,NA,NA,NA,NA,computer_message,instructions,1,4739,0.0-1.0,102,1,2025-04-30T21:52:28Z,b60275e29fe2361ab97ac0ac217840d7,"Mozilla/5.0 (Macintosh; Intel Mac OS X 10_15_7) AppleWebKit/537.36 (KHTML, like Gecko) Chrome/134.0.0.0 Safari/537.36",Macintosh,Chrome,134.0.0.0,OS X,10_15_7,https://5puzkbbxv1.cognition.run/?sona_id=48254,"en-GB,en-US;q=0.9,en;q=0.8",om0r7pllll9qdfs,24,"[""Asian""]",No,Male,"Singapore, India, Canada",No,427331.59999996424,"[{""page_index"":0,""viewing_time"":4538}]",4539,NA,NA,NA,NA,NA,NA,NA,NA,NA,NA,NA,NA,NA,NA,NA,NA,NA,NA,NA,NA,NA,NA,NA,NA,NA
TRUE,NA,NA,NA,NA,NA,fullscreen,2,7480,0.0-2.0,102,1,2025-04-30T21:52:28Z,b60275e29fe2361ab97ac0ac217840d7,"Mozilla/5.0 (Macintosh; Intel Mac OS X 10_15_7) AppleWebKit/537.36 (KHTML, like Gecko) Chrome/134.0.0.0 Safari/537.36",Macintosh,Chrome,134.0.0.0,OS X,10_15_7,https://5puzkbbxv1.cognition.run/?sona_id=48254,"en-GB,en-US;q=0.9,en;q=0.8",om0r7pllll9qdfs,24,"[""Asian""]",No,Male,"Singapore, India, Canada",No,427331.59999996424,NA,1730,NA,NA,NA,NA,NA,NA,NA,NA,NA,NA,NA,NA,NA,NA,NA,NA,NA,NA,NA,NA,NA,NA,NA,NA,NA
NA,NA,NA,NA,NA,choice_instructions,instructions,3,63004,0.0-3.0,102,1,2025-04-30T21:52:28Z,b60275e29fe2361ab97ac0ac217840d7,"Mozilla/5.0 (Macintosh; Intel Mac OS X 10_15_7) AppleWebKit/537.36 (KHTML, like Gecko) Chrome/134.0.0.0 Safari/537.36",Macintosh,Chrome,134.0.0.0,OS X,10_15_7,https://5puzkbbxv1.cognition.run/?sona_id=48254,"en-GB,en-US;q=0.9,en;q=0.8",om0r7pllll9qdfs,24,"[""Asian""]",No,Male,"Singapore, India, Canada",No,427331.59999996424,"[{""page_index"":0,""viewing_time"":1778},{""page_index"":1,""viewing_time"":3811},{""page_index"":2,""viewing_time"":3262},{""page_index"":3,""viewing_time"":2146},{""page_index"":4,""viewing_time"":1287},{""page_index"":5,""viewing_time"":35349},{""page_index"":6,""viewing_time"":2199},{""page_index"":5,""viewing_time"":3708},{""page_index"":6,""viewing_time"":1983}]",55523,NA,NA,NA,NA,NA,NA,NA,NA,NA,NA,NA,NA,NA,NA,NA,NA,NA,NA,NA,NA,NA,NA,NA,NA,NA
NA,NA,NA,NA,NA,choice_trial_setup,html-keyboard-response,4,63310,0.0-4.0-0.0,102,1,2025-04-30T21:52:28Z,b60275e29fe2361ab97ac0ac217840d7,"Mozilla/5.0 (Macintosh; Intel Mac OS X 10_15_7) AppleWebKit/537.36 (KHTML, like Gecko) Chrome/134.0.0.0 Safari/537.36",Macintosh,Chrome,134.0.0.0,OS X,10_15_7,https://5puzkbbxv1.cognition.run/?sona_id=48254,"en-GB,en-US;q=0.9,en;q=0.8",om0r7pllll9qdfs,24,"[""Asian""]",No,Male,"Singapore, India, Canada",No,427331.59999996424,NA,null,<p></p>,null,choice,tc,binary,attraction,NA,washing machines,null,null,null,null,null,null,1,NA,NA,NA,NA,NA,NA,NA,NA,NA,NA
NA,NA,NA,NA,NA,choice_trial,survey-html-form,5,72273,0.0-4.0-1.0,102,1,2025-04-30T21:52:28Z,b60275e29fe2361ab97ac0ac217840d7,"Mozilla/5.0 (Macintosh; Intel Mac OS X 10_15_7) AppleWebKit/537.36 (KHTML, like Gecko) Chrome/134.0.0.0 Safari/537.36",Macintosh,Chrome,134.0.0.0,OS X,10_15_7,https://5puzkbbxv1.cognition.run/?sona_id=48254,"en-GB,en-US;q=0.9,en;q=0.8",om0r7pllll9qdfs,24,"[""Asian""]",No,Male,"Singapore, India, Canada",No,427331.59999996424,NA,8956,NA,"{""product_choice"":""B""}",choice,tc,binary,attraction,NA,washing machines,null,null,null,null,null,null,1,60,50,null,50,60,null,Average lifespan,Energy savings,NA,NA
NA,NA,NA,NA,NA,choice_trial_setup,html-keyboard-response,6,72576,0.0-4.0-0.1,102,1,2025-04-30T21:52:28Z,b60275e29fe2361ab97ac0ac217840d7,"Mozilla/5.0 (Macintosh; Intel Mac OS X 10_15_7) AppleWebKit/537.36 (KHTML, like Gecko) Chrome/134.0.0.0 Safari/537.36",Macintosh,Chrome,134.0.0.0,OS X,10_15_7,https://5puzkbbxv1.cognition.run/?sona_id=48254,"en-GB,en-US;q=0.9,en;q=0.8",om0r7pllll9qdfs,24,"[""Asian""]",No,Male,"Singapore, India, Canada",No,427331.59999996424,NA,null,<p></p>,null,choice,cdt,trinary,attraction,1,televisions,null,null,null,null,null,null,1,NA,NA,NA,NA,NA,NA,NA,NA,NA,NA
NA,NA,NA,NA,NA,choice_trial,survey-html-form,7,79014,0.0-4.0-1.1,102,1,2025-04-30T21:52:28Z,b60275e29fe2361ab97ac0ac217840d7,"Mozilla/5.0 (Macintosh; Intel Mac OS X 10_15_7) AppleWebKit/537.36 (KHTML, like Gecko) Chrome/134.0.0.0 Safari/537.36",Macintosh,Chrome,134.0.0.0,OS X,10_15_7,https://5puzkbbxv1.cognition.run/?sona_id=48254,"en-GB,en-US;q=0.9,en;q=0.8",om0r7pllll9qdfs,24,"[""Asian""]",No,Male,"Singapore, India, Canada",No,427331.59999996424,NA,6435,NA,"{""product_choice"":""C""}",choice,cdt,trinary,attraction,1,televisions,null,null,null,null,null,null,1,60,50,60,50,60,40,Screen size,Average lifespan,NA,NA
NA,NA,NA,NA,NA,choice_trial_setup,html-keyboard-response,8,79318,0.0-4.0-0.2,102,1,2025-04-30T21:52:28Z,b60275e29fe2361ab97ac0ac217840d7,"Mozilla/5.0 (Macintosh; Intel Mac OS X 10_15_7) AppleWebKit/537.36 (KHTML, like Gecko) Chrome/134.0.0.0 Safari/537.36",Macintosh,Chrome,134.0.0.0,OS X,10_15_7,https://5puzkbbxv1.cognition.run/?sona_id=48254,"en-GB,en-US;q=0.9,en;q=0.8",om0r7pllll9qdfs,24,"[""Asian""]",No,Male,"Singapore, India, Canada",No,427331.59999996424,NA,null,<p></p>,null,choice,tc,binary,attraction,NA,microwave ovens,null,null,null,null,null,null,2,NA,NA,NA,NA,NA,NA,NA,NA,NA,NA
NA,NA,NA,NA,NA,choice_trial,survey-html-form,9,88307,0.0-4.0-1.2,102,1,2025-04-30T21:52:28Z,b60275e29fe2361ab97ac0ac217840d7,"Mozilla/5.0 (Macintosh; Intel Mac OS X 10_15_7) AppleWebKit/537.36 (KHTML, like Gecko) Chrome/134.0.0.0 Safari/537.36",Macintosh,Chrome,134.0.0.0,OS X,10_15_7,https://5puzkbbxv1.cognition.run/?sona_id=48254,"en-GB,en-US;q=0.9,en;q=0.8",om0r7pllll9qdfs,24,"[""Asian""]",No,Male,"Singapore, India, Canada",No,427331.59999996424,NA,8986,NA,"{""product_choice"":""B""}",choice,tc,binary,attraction,NA,microwave ovens,null,null,null,null,null,null,2,60,50,null,50,60,null,Warranty,Cooking power,NA,NA
NA,NA,NA,NA,NA,choice_trial_setup,html-keyboard-response,10,88611,0.0-4.0-0.3,102,1,2025-04-30T21:52:28Z,b60275e29fe2361ab97ac0ac217840d7,"Mozilla/5.0 (Macintosh; Intel Mac OS X 10_15_7) AppleWebKit/537.36 (KHTML, like Gecko) Chrome/134.0.0.0 Safari/537.36",Macintosh,Chrome,134.0.0.0,OS X,10_15_7,https://5puzkbbxv1.cognition.run/?sona_id=48254,"en-GB,en-US;q=0.9,en;q=0.8",om0r7pllll9qdfs,24,"[""Asian""]",No,Male,"Singapore, India, Canada",No,427331.59999996424,NA,null,<p></p>,null,choice,tcd,trinary,attraction,2,televisions,null,null,null,null,null,null,2,NA,NA,NA,NA,NA,NA,NA,NA,NA,NA
NA,NA,NA,NA,NA,choice_trial,survey-html-form,11,96378,0.0-4.0-1.3,102,1,2025-04-30T21:52:28Z,b60275e29fe2361ab97ac0ac217840d7,"Mozilla/5.0 (Macintosh; Intel Mac OS X 10_15_7) AppleWebKit/537.36 (KHTML, like Gecko) Chrome/134.0.0.0 Safari/537.36",Macintosh,Chrome,134.0.0.0,OS X,10_15_7,https://5puzkbbxv1.cognition.run/?sona_id=48254,"en-GB,en-US;q=0.9,en;q=0.8",om0r7pllll9qdfs,24,"[""Asian""]",No,Male,"Singapore, India, Canada",No,427331.59999996424,NA,7763,NA,"{""product_choice"":""A""}",choice,tcd,trinary,attraction,2,televisions,null,null,null,null,null,null,2,50,60,40,60,50,60,Screen size,Average lifespan,NA,NA
NA,NA,NA,NA,NA,choice_trial_setup,html-keyboard-response,12,96681,0.0-4.0-0.4,102,1,2025-04-30T21:52:28Z,b60275e29fe2361ab97ac0ac217840d7,"Mozilla/5.0 (Macintosh; Intel Mac OS X 10_15_7) AppleWebKit/537.36 (KHTML, like Gecko) Chrome/134.0.0.0 Safari/537.36",Macintosh,Chrome,134.0.0.0,OS X,10_15_7,https://5puzkbbxv1.cognition.run/?sona_id=48254,"en-GB,en-US;q=0.9,en;q=0.8",om0r7pllll9qdfs,24,"[""Asian""]",No,Male,"Singapore, India, Canada",No,427331.59999996424,NA,null,<p></p>,null,choice,bw,binary,catch,null,televisions,95,70,20,20,null,null,1,NA,NA,NA,NA,NA,NA,NA,NA,NA,NA
NA,NA,NA,NA,NA,choice_trial,survey-html-form,13,104697,0.0-4.0-1.4,102,1,2025-04-30T21:52:28Z,b60275e29fe2361ab97ac0ac217840d7,"Mozilla/5.0 (Macintosh; Intel Mac OS X 10_15_7) AppleWebKit/537.36 (KHTML, like Gecko) Chrome/134.0.0.0 Safari/537.36",Macintosh,Chrome,134.0.0.0,OS X,10_15_7,https://5puzkbbxv1.cognition.run/?sona_id=48254,"en-GB,en-US;q=0.9,en;q=0.8",om0r7pllll9qdfs,24,"[""Asian""]",No,Male,"Singapore, India, Canada",No,427331.59999996424,NA,8013,NA,"{""product_choice"":""A""}",choice,bw,binary,catch,null,televisions,95,70,20,20,null,null,1,null,null,null,null,null,null,Screen size,Average lifespan,NA,NA
NA,NA,NA,NA,NA,choice_trial_setup,html-keyboard-response,14,105001,0.0-4.0-0.5,102,1,2025-04-30T21:52:28Z,b60275e29fe2361ab97ac0ac217840d7,"Mozilla/5.0 (Macintosh; Intel Mac OS X 10_15_7) AppleWebKit/537.36 (KHTML, like Gecko) Chrome/134.0.0.0 Safari/537.36",Macintosh,Chrome,134.0.0.0,OS X,10_15_7,https://5puzkbbxv1.cognition.run/?sona_id=48254,"en-GB,en-US;q=0.9,en;q=0.8",om0r7pllll9qdfs,24,"[""Asian""]",No,Male,"Singapore, India, Canada",No,427331.59999996424,NA,null,<p></p>,null,choice,tc,binary,repulsion,2,laptops,null,null,null,null,null,null,2,NA,NA,NA,NA,NA,NA,NA,NA,NA,NA
NA,NA,NA,NA,NA,choice_trial,survey-html-form,15,112169,0.0-4.0-1.5,102,1,2025-04-30T21:52:28Z,b60275e29fe2361ab97ac0ac217840d7,"Mozilla/5.0 (Macintosh; Intel Mac OS X 10_15_7) AppleWebKit/537.36 (KHTML, like Gecko) Chrome/134.0.0.0 Safari/537.36",Macintosh,Chrome,134.0.0.0,OS X,10_15_7,https://5puzkbbxv1.cognition.run/?sona_id=48254,"en-GB,en-US;q=0.9,en;q=0.8",om0r7pllll9qdfs,24,"[""Asian""]",No,Male,"Singapore, India, Canada",No,427331.59999996424,NA,7164,NA,"{""product_choice"":""B""}",choice,tc,binary,repulsion,2,laptops,null,null,null,null,null,null,2,30,40,null,100,90,null,Processing speed,Memory (RAM),NA,NA
NA,NA,NA,NA,NA,choice_trial_setup,html-keyboard-response,16,112473,0.0-4.0-0.6,102,1,2025-04-30T21:52:28Z,b60275e29fe2361ab97ac0ac217840d7,"Mozilla/5.0 (Macintosh; Intel Mac OS X 10_15_7) AppleWebKit/537.36 (KHTML, like Gecko) Chrome/134.0.0.0 Safari/537.36",Macintosh,Chrome,134.0.0.0,OS X,10_15_7,https://5puzkbbxv1.cognition.run/?sona_id=48254,"en-GB,en-US;q=0.9,en;q=0.8",om0r7pllll9qdfs,24,"[""Asian""]",No,Male,"Singapore, India, Canada",No,427331.59999996424,NA,null,<p></p>,null,choice,ct,binary,repulsion,2,washing machines,null,null,null,null,null,null,1,NA,NA,NA,NA,NA,NA,NA,NA,NA,NA
NA,NA,NA,NA,NA,choice_trial,survey-html-form,17,116782,0.0-4.0-1.6,102,1,2025-04-30T21:52:28Z,b60275e29fe2361ab97ac0ac217840d7,"Mozilla/5.0 (Macintosh; Intel Mac OS X 10_15_7) AppleWebKit/537.36 (KHTML, like Gecko) Chrome/134.0.0.0 Safari/537.36",Macintosh,Chrome,134.0.0.0,OS X,10_15_7,https://5puzkbbxv1.cognition.run/?sona_id=48254,"en-GB,en-US;q=0.9,en;q=0.8",om0r7pllll9qdfs,24,"[""Asian""]",No,Male,"Singapore, India, Canada",No,427331.59999996424,NA,4306,NA,"{""product_choice"":""A""}",choice,ct,binary,repulsion,2,washing machines,null,null,null,null,null,null,1,30,40,null,100,90,null,Average lifespan,Energy savings,NA,NA
NA,NA,NA,NA,NA,choice_trial_setup,html-keyboard-response,18,117086,0.0-4.0-0.7,102,1,2025-04-30T21:52:28Z,b60275e29fe2361ab97ac0ac217840d7,"Mozilla/5.0 (Macintosh; Intel Mac OS X 10_15_7) AppleWebKit/537.36 (KHTML, like Gecko) Chrome/134.0.0.0 Safari/537.36",Macintosh,Chrome,134.0.0.0,OS X,10_15_7,https://5puzkbbxv1.cognition.run/?sona_id=48254,"en-GB,en-US;q=0.9,en;q=0.8",om0r7pllll9qdfs,24,"[""Asian""]",No,Male,"Singapore, India, Canada",No,427331.59999996424,NA,null,<p></p>,null,choice,bw,binary,catch,null,laptops,60,95,40,10,null,null,2,NA,NA,NA,NA,NA,NA,NA,NA,NA,NA
NA,NA,NA,NA,NA,choice_trial,survey-html-form,19,120329,0.0-4.0-1.7,102,1,2025-04-30T21:52:28Z,b60275e29fe2361ab97ac0ac217840d7,"Mozilla/5.0 (Macintosh; Intel Mac OS X 10_15_7) AppleWebKit/537.36 (KHTML, like Gecko) Chrome/134.0.0.0 Safari/537.36",Macintosh,Chrome,134.0.0.0,OS X,10_15_7,https://5puzkbbxv1.cognition.run/?sona_id=48254,"en-GB,en-US;q=0.9,en;q=0.8",om0r7pllll9qdfs,24,"[""Asian""]",No,Male,"Singapore, India, Canada",No,427331.59999996424,NA,3239,NA,"{""product_choice"":""A""}",choice,bw,binary,catch,null,laptops,60,95,40,10,null,null,2,null,null,null,null,null,null,Processing speed,Memory (RAM),NA,NA
NA,NA,NA,NA,NA,choice_trial_setup,html-keyboard-response,20,120633,0.0-4.0-0.8,102,1,2025-04-30T21:52:28Z,b60275e29fe2361ab97ac0ac217840d7,"Mozilla/5.0 (Macintosh; Intel Mac OS X 10_15_7) AppleWebKit/537.36 (KHTML, like Gecko) Chrome/134.0.0.0 Safari/537.36",Macintosh,Chrome,134.0.0.0,OS X,10_15_7,https://5puzkbbxv1.cognition.run/?sona_id=48254,"en-GB,en-US;q=0.9,en;q=0.8",om0r7pllll9qdfs,24,"[""Asian""]",No,Male,"Singapore, India, Canada",No,427331.59999996424,NA,null,<p></p>,null,choice,tcd,trinary,repulsion_B,1,washing machines,null,null,null,null,null,null,2,NA,NA,NA,NA,NA,NA,NA,NA,NA,NA
NA,NA,NA,NA,NA,choice_trial,survey-html-form,21,125419,0.0-4.0-1.8,102,1,2025-04-30T21:52:28Z,b60275e29fe2361ab97ac0ac217840d7,"Mozilla/5.0 (Macintosh; Intel Mac OS X 10_15_7) AppleWebKit/537.36 (KHTML, like Gecko) Chrome/134.0.0.0 Safari/537.36",Macintosh,Chrome,134.0.0.0,OS X,10_15_7,https://5puzkbbxv1.cognition.run/?sona_id=48254,"en-GB,en-US;q=0.9,en;q=0.8",om0r7pllll9qdfs,24,"[""Asian""]",No,Male,"Singapore, India, Canada",No,427331.59999996424,NA,4783,NA,"{""product_choice"":""A""}",choice,tcd,trinary,repulsion_B,1,washing machines,null,null,null,null,null,null,2,90,100,80,40,30,40,Average lifespan,Energy savings,NA,NA
NA,NA,NA,NA,NA,choice_trial_setup,html-keyboard-response,22,125724,0.0-4.0-0.9,102,1,2025-04-30T21:52:28Z,b60275e29fe2361ab97ac0ac217840d7,"Mozilla/5.0 (Macintosh; Intel Mac OS X 10_15_7) AppleWebKit/537.36 (KHTML, like Gecko) Chrome/134.0.0.0 Safari/537.36",Macintosh,Chrome,134.0.0.0,OS X,10_15_7,https://5puzkbbxv1.cognition.run/?sona_id=48254,"en-GB,en-US;q=0.9,en;q=0.8",om0r7pllll9qdfs,24,"[""Asian""]",No,Male,"Singapore, India, Canada",No,427331.59999996424,NA,null,<p></p>,null,choice,tdc,trinary,repulsion_A,2,televisions,null,null,null,null,null,null,1,NA,NA,NA,NA,NA,NA,NA,NA,NA,NA
NA,NA,NA,NA,NA,choice_trial,survey-html-form,23,129263,0.0-4.0-1.9,102,1,2025-04-30T21:52:28Z,b60275e29fe2361ab97ac0ac217840d7,"Mozilla/5.0 (Macintosh; Intel Mac OS X 10_15_7) AppleWebKit/537.36 (KHTML, like Gecko) Chrome/134.0.0.0 Safari/537.36",Macintosh,Chrome,134.0.0.0,OS X,10_15_7,https://5puzkbbxv1.cognition.run/?sona_id=48254,"en-GB,en-US;q=0.9,en;q=0.8",om0r7pllll9qdfs,24,"[""Asian""]",No,Male,"Singapore, India, Canada",No,427331.59999996424,NA,3537,NA,"{""product_choice"":""C""}",choice,tdc,trinary,repulsion_A,2,televisions,null,null,null,null,null,null,1,30,40,20,100,90,100,Screen size,Average lifespan,NA,NA
NA,NA,NA,NA,NA,choice_trial_setup,html-keyboard-response,24,129567,0.0-4.0-0.10,102,1,2025-04-30T21:52:28Z,b60275e29fe2361ab97ac0ac217840d7,"Mozilla/5.0 (Macintosh; Intel Mac OS X 10_15_7) AppleWebKit/537.36 (KHTML, like Gecko) Chrome/134.0.0.0 Safari/537.36",Macintosh,Chrome,134.0.0.0,OS X,10_15_7,https://5puzkbbxv1.cognition.run/?sona_id=48254,"en-GB,en-US;q=0.9,en;q=0.8",om0r7pllll9qdfs,24,"[""Asian""]",No,Male,"Singapore, India, Canada",No,427331.59999996424,NA,null,<p></p>,null,choice,wbw,trinary,catch,null,washing machines,80,80,50,40,15,20,2,NA,NA,NA,NA,NA,NA,NA,NA,NA,NA
NA,NA,NA,NA,NA,choice_trial,survey-html-form,25,132914,0.0-4.0-1.10,102,1,2025-04-30T21:52:28Z,b60275e29fe2361ab97ac0ac217840d7,"Mozilla/5.0 (Macintosh; Intel Mac OS X 10_15_7) AppleWebKit/537.36 (KHTML, like Gecko) Chrome/134.0.0.0 Safari/537.36",Macintosh,Chrome,134.0.0.0,OS X,10_15_7,https://5puzkbbxv1.cognition.run/?sona_id=48254,"en-GB,en-US;q=0.9,en;q=0.8",om0r7pllll9qdfs,24,"[""Asian""]",No,Male,"Singapore, India, Canada",No,427331.59999996424,NA,3343,NA,"{""product_choice"":""B""}",choice,wbw,trinary,catch,null,washing machines,80,80,50,40,15,20,2,null,null,null,null,null,null,Average lifespan,Energy savings,NA,NA
NA,NA,NA,NA,NA,choice_trial_setup,html-keyboard-response,26,133218,0.0-4.0-0.11,102,1,2025-04-30T21:52:28Z,b60275e29fe2361ab97ac0ac217840d7,"Mozilla/5.0 (Macintosh; Intel Mac OS X 10_15_7) AppleWebKit/537.36 (KHTML, like Gecko) Chrome/134.0.0.0 Safari/537.36",Macintosh,Chrome,134.0.0.0,OS X,10_15_7,https://5puzkbbxv1.cognition.run/?sona_id=48254,"en-GB,en-US;q=0.9,en;q=0.8",om0r7pllll9qdfs,24,"[""Asian""]",No,Male,"Singapore, India, Canada",No,427331.59999996424,NA,null,<p></p>,null,choice,dct,trinary,attraction,2,washing machines,null,null,null,null,null,null,2,NA,NA,NA,NA,NA,NA,NA,NA,NA,NA
NA,NA,NA,NA,NA,choice_trial,survey-html-form,27,136969,0.0-4.0-1.11,102,1,2025-04-30T21:52:28Z,b60275e29fe2361ab97ac0ac217840d7,"Mozilla/5.0 (Macintosh; Intel Mac OS X 10_15_7) AppleWebKit/537.36 (KHTML, like Gecko) Chrome/134.0.0.0 Safari/537.36",Macintosh,Chrome,134.0.0.0,OS X,10_15_7,https://5puzkbbxv1.cognition.run/?sona_id=48254,"en-GB,en-US;q=0.9,en;q=0.8",om0r7pllll9qdfs,24,"[""Asian""]",No,Male,"Singapore, India, Canada",No,427331.59999996424,NA,3747,NA,"{""product_choice"":""C""}",choice,dct,trinary,attraction,2,washing machines,null,null,null,null,null,null,2,50,60,40,60,50,60,Average lifespan,Energy savings,NA,NA
NA,NA,NA,NA,NA,choice_trial_setup,html-keyboard-response,28,137272,0.0-4.0-0.12,102,1,2025-04-30T21:52:28Z,b60275e29fe2361ab97ac0ac217840d7,"Mozilla/5.0 (Macintosh; Intel Mac OS X 10_15_7) AppleWebKit/537.36 (KHTML, like Gecko) Chrome/134.0.0.0 Safari/537.36",Macintosh,Chrome,134.0.0.0,OS X,10_15_7,https://5puzkbbxv1.cognition.run/?sona_id=48254,"en-GB,en-US;q=0.9,en;q=0.8",om0r7pllll9qdfs,24,"[""Asian""]",No,Male,"Singapore, India, Canada",No,427331.59999996424,NA,null,<p></p>,null,choice,ct,binary,repulsion,2,microwave ovens,null,null,null,null,null,null,2,NA,NA,NA,NA,NA,NA,NA,NA,NA,NA
NA,NA,NA,NA,NA,choice_trial,survey-html-form,29,141057,0.0-4.0-1.12,102,1,2025-04-30T21:52:28Z,b60275e29fe2361ab97ac0ac217840d7,"Mozilla/5.0 (Macintosh; Intel Mac OS X 10_15_7) AppleWebKit/537.36 (KHTML, like Gecko) Chrome/134.0.0.0 Safari/537.36",Macintosh,Chrome,134.0.0.0,OS X,10_15_7,https://5puzkbbxv1.cognition.run/?sona_id=48254,"en-GB,en-US;q=0.9,en;q=0.8",om0r7pllll9qdfs,24,"[""Asian""]",No,Male,"Singapore, India, Canada",No,427331.59999996424,NA,3780,NA,"{""product_choice"":""A""}",choice,ct,binary,repulsion,2,microwave ovens,null,null,null,null,null,null,2,30,40,null,100,90,null,Warranty,Cooking power,NA,NA
NA,NA,NA,NA,NA,choice_trial_setup,html-keyboard-response,30,141361,0.0-4.0-0.13,102,1,2025-04-30T21:52:28Z,b60275e29fe2361ab97ac0ac217840d7,"Mozilla/5.0 (Macintosh; Intel Mac OS X 10_15_7) AppleWebKit/537.36 (KHTML, like Gecko) Chrome/134.0.0.0 Safari/537.36",Macintosh,Chrome,134.0.0.0,OS X,10_15_7,https://5puzkbbxv1.cognition.run/?sona_id=48254,"en-GB,en-US;q=0.9,en;q=0.8",om0r7pllll9qdfs,24,"[""Asian""]",No,Male,"Singapore, India, Canada",No,427331.59999996424,NA,null,<p></p>,null,choice,tcd,trinary,repulsion_A,1,microwave ovens,null,null,null,null,null,null,1,NA,NA,NA,NA,NA,NA,NA,NA,NA,NA
NA,NA,NA,NA,NA,choice_trial,survey-html-form,31,149415,0.0-4.0-1.13,102,1,2025-04-30T21:52:28Z,b60275e29fe2361ab97ac0ac217840d7,"Mozilla/5.0 (Macintosh; Intel Mac OS X 10_15_7) AppleWebKit/537.36 (KHTML, like Gecko) Chrome/134.0.0.0 Safari/537.36",Macintosh,Chrome,134.0.0.0,OS X,10_15_7,https://5puzkbbxv1.cognition.run/?sona_id=48254,"en-GB,en-US;q=0.9,en;q=0.8",om0r7pllll9qdfs,24,"[""Asian""]",No,Male,"Singapore, India, Canada",No,427331.59999996424,NA,8051,NA,"{""product_choice"":""B""}",choice,tcd,trinary,repulsion_A,1,microwave ovens,null,null,null,null,null,null,1,100,90,100,30,40,20,Warranty,Cooking power,NA,NA
NA,NA,NA,NA,NA,choice_trial_setup,html-keyboard-response,32,149719,0.0-4.0-0.14,102,1,2025-04-30T21:52:28Z,b60275e29fe2361ab97ac0ac217840d7,"Mozilla/5.0 (Macintosh; Intel Mac OS X 10_15_7) AppleWebKit/537.36 (KHTML, like Gecko) Chrome/134.0.0.0 Safari/537.36",Macintosh,Chrome,134.0.0.0,OS X,10_15_7,https://5puzkbbxv1.cognition.run/?sona_id=48254,"en-GB,en-US;q=0.9,en;q=0.8",om0r7pllll9qdfs,24,"[""Asian""]",No,Male,"Singapore, India, Canada",No,427331.59999996424,NA,null,<p></p>,null,choice,tdc,trinary,repulsion_A,2,laptops,null,null,null,null,null,null,1,NA,NA,NA,NA,NA,NA,NA,NA,NA,NA
NA,NA,NA,NA,NA,choice_trial,survey-html-form,33,154151,0.0-4.0-1.14,102,1,2025-04-30T21:52:28Z,b60275e29fe2361ab97ac0ac217840d7,"Mozilla/5.0 (Macintosh; Intel Mac OS X 10_15_7) AppleWebKit/537.36 (KHTML, like Gecko) Chrome/134.0.0.0 Safari/537.36",Macintosh,Chrome,134.0.0.0,OS X,10_15_7,https://5puzkbbxv1.cognition.run/?sona_id=48254,"en-GB,en-US;q=0.9,en;q=0.8",om0r7pllll9qdfs,24,"[""Asian""]",No,Male,"Singapore, India, Canada",No,427331.59999996424,NA,4428,NA,"{""product_choice"":""C""}",choice,tdc,trinary,repulsion_A,2,laptops,null,null,null,null,null,null,1,30,40,20,100,90,100,Processing speed,Memory (RAM),NA,NA
NA,NA,NA,NA,NA,choice_trial_setup,html-keyboard-response,34,154455,0.0-4.0-0.15,102,1,2025-04-30T21:52:28Z,b60275e29fe2361ab97ac0ac217840d7,"Mozilla/5.0 (Macintosh; Intel Mac OS X 10_15_7) AppleWebKit/537.36 (KHTML, like Gecko) Chrome/134.0.0.0 Safari/537.36",Macintosh,Chrome,134.0.0.0,OS X,10_15_7,https://5puzkbbxv1.cognition.run/?sona_id=48254,"en-GB,en-US;q=0.9,en;q=0.8",om0r7pllll9qdfs,24,"[""Asian""]",No,Male,"Singapore, India, Canada",No,427331.59999996424,NA,null,<p></p>,null,choice,tcd,trinary,repulsion_A,1,televisions,null,null,null,null,null,null,2,NA,NA,NA,NA,NA,NA,NA,NA,NA,NA
NA,NA,NA,NA,NA,choice_trial,survey-html-form,35,162061,0.0-4.0-1.15,102,1,2025-04-30T21:52:28Z,b60275e29fe2361ab97ac0ac217840d7,"Mozilla/5.0 (Macintosh; Intel Mac OS X 10_15_7) AppleWebKit/537.36 (KHTML, like Gecko) Chrome/134.0.0.0 Safari/537.36",Macintosh,Chrome,134.0.0.0,OS X,10_15_7,https://5puzkbbxv1.cognition.run/?sona_id=48254,"en-GB,en-US;q=0.9,en;q=0.8",om0r7pllll9qdfs,24,"[""Asian""]",No,Male,"Singapore, India, Canada",No,427331.59999996424,NA,7601,NA,"{""product_choice"":""A""}",choice,tcd,trinary,repulsion_A,1,televisions,null,null,null,null,null,null,2,100,90,100,30,40,20,Screen size,Average lifespan,NA,NA
NA,NA,NA,NA,NA,choice_trial_setup,html-keyboard-response,36,162366,0.0-4.0-0.16,102,1,2025-04-30T21:52:28Z,b60275e29fe2361ab97ac0ac217840d7,"Mozilla/5.0 (Macintosh; Intel Mac OS X 10_15_7) AppleWebKit/537.36 (KHTML, like Gecko) Chrome/134.0.0.0 Safari/537.36",Macintosh,Chrome,134.0.0.0,OS X,10_15_7,https://5puzkbbxv1.cognition.run/?sona_id=48254,"en-GB,en-US;q=0.9,en;q=0.8",om0r7pllll9qdfs,24,"[""Asian""]",No,Male,"Singapore, India, Canada",No,427331.59999996424,NA,null,<p></p>,null,choice,dtc,trinary,repulsion_A,1,laptops,null,null,null,null,null,null,2,NA,NA,NA,NA,NA,NA,NA,NA,NA,NA
NA,NA,NA,NA,NA,choice_trial,survey-html-form,37,168987,0.0-4.0-1.16,102,1,2025-04-30T21:52:28Z,b60275e29fe2361ab97ac0ac217840d7,"Mozilla/5.0 (Macintosh; Intel Mac OS X 10_15_7) AppleWebKit/537.36 (KHTML, like Gecko) Chrome/134.0.0.0 Safari/537.36",Macintosh,Chrome,134.0.0.0,OS X,10_15_7,https://5puzkbbxv1.cognition.run/?sona_id=48254,"en-GB,en-US;q=0.9,en;q=0.8",om0r7pllll9qdfs,24,"[""Asian""]",No,Male,"Singapore, India, Canada",No,427331.59999996424,NA,6616,NA,"{""product_choice"":""C""}",choice,dtc,trinary,repulsion_A,1,laptops,null,null,null,null,null,null,2,100,90,100,30,40,20,Processing speed,Memory (RAM),NA,NA
NA,NA,NA,NA,NA,choice_trial_setup,html-keyboard-response,38,169291,0.0-4.0-0.17,102,1,2025-04-30T21:52:28Z,b60275e29fe2361ab97ac0ac217840d7,"Mozilla/5.0 (Macintosh; Intel Mac OS X 10_15_7) AppleWebKit/537.36 (KHTML, like Gecko) Chrome/134.0.0.0 Safari/537.36",Macintosh,Chrome,134.0.0.0,OS X,10_15_7,https://5puzkbbxv1.cognition.run/?sona_id=48254,"en-GB,en-US;q=0.9,en;q=0.8",om0r7pllll9qdfs,24,"[""Asian""]",No,Male,"Singapore, India, Canada",No,427331.59999996424,NA,null,<p></p>,null,choice,ct,binary,attraction,NA,televisions,null,null,null,null,null,null,1,NA,NA,NA,NA,NA,NA,NA,NA,NA,NA
NA,NA,NA,NA,NA,choice_trial,survey-html-form,39,178044,0.0-4.0-1.17,102,1,2025-04-30T21:52:28Z,b60275e29fe2361ab97ac0ac217840d7,"Mozilla/5.0 (Macintosh; Intel Mac OS X 10_15_7) AppleWebKit/537.36 (KHTML, like Gecko) Chrome/134.0.0.0 Safari/537.36",Macintosh,Chrome,134.0.0.0,OS X,10_15_7,https://5puzkbbxv1.cognition.run/?sona_id=48254,"en-GB,en-US;q=0.9,en;q=0.8",om0r7pllll9qdfs,24,"[""Asian""]",No,Male,"Singapore, India, Canada",No,427331.59999996424,NA,8748,NA,"{""product_choice"":""B""}",choice,ct,binary,attraction,NA,televisions,null,null,null,null,null,null,1,60,50,null,50,60,null,Screen size,Average lifespan,NA,NA
NA,NA,NA,NA,NA,choice_trial_setup,html-keyboard-response,40,178348,0.0-4.0-0.18,102,1,2025-04-30T21:52:28Z,b60275e29fe2361ab97ac0ac217840d7,"Mozilla/5.0 (Macintosh; Intel Mac OS X 10_15_7) AppleWebKit/537.36 (KHTML, like Gecko) Chrome/134.0.0.0 Safari/537.36",Macintosh,Chrome,134.0.0.0,OS X,10_15_7,https://5puzkbbxv1.cognition.run/?sona_id=48254,"en-GB,en-US;q=0.9,en;q=0.8",om0r7pllll9qdfs,24,"[""Asian""]",No,Male,"Singapore, India, Canada",No,427331.59999996424,NA,null,<p></p>,null,choice,cdt,trinary,repulsion_B,2,laptops,null,null,null,null,null,null,1,NA,NA,NA,NA,NA,NA,NA,NA,NA,NA
NA,NA,NA,NA,NA,choice_trial,survey-html-form,41,183726,0.0-4.0-1.18,102,1,2025-04-30T21:52:28Z,b60275e29fe2361ab97ac0ac217840d7,"Mozilla/5.0 (Macintosh; Intel Mac OS X 10_15_7) AppleWebKit/537.36 (KHTML, like Gecko) Chrome/134.0.0.0 Safari/537.36",Macintosh,Chrome,134.0.0.0,OS X,10_15_7,https://5puzkbbxv1.cognition.run/?sona_id=48254,"en-GB,en-US;q=0.9,en;q=0.8",om0r7pllll9qdfs,24,"[""Asian""]",No,Male,"Singapore, India, Canada",No,427331.59999996424,NA,5373,NA,"{""product_choice"":""C""}",choice,cdt,trinary,repulsion_B,2,laptops,null,null,null,null,null,null,1,40,30,40,90,100,80,Processing speed,Memory (RAM),NA,NA
NA,NA,NA,NA,NA,choice_trial_setup,html-keyboard-response,42,184030,0.0-4.0-0.19,102,1,2025-04-30T21:52:28Z,b60275e29fe2361ab97ac0ac217840d7,"Mozilla/5.0 (Macintosh; Intel Mac OS X 10_15_7) AppleWebKit/537.36 (KHTML, like Gecko) Chrome/134.0.0.0 Safari/537.36",Macintosh,Chrome,134.0.0.0,OS X,10_15_7,https://5puzkbbxv1.cognition.run/?sona_id=48254,"en-GB,en-US;q=0.9,en;q=0.8",om0r7pllll9qdfs,24,"[""Asian""]",No,Male,"Singapore, India, Canada",No,427331.59999996424,NA,null,<p></p>,null,choice,wbw,trinary,catch,null,microwave ovens,60,85,40,40,35,50,2,NA,NA,NA,NA,NA,NA,NA,NA,NA,NA
NA,NA,NA,NA,NA,choice_trial,survey-html-form,43,187667,0.0-4.0-1.19,102,1,2025-04-30T21:52:28Z,b60275e29fe2361ab97ac0ac217840d7,"Mozilla/5.0 (Macintosh; Intel Mac OS X 10_15_7) AppleWebKit/537.36 (KHTML, like Gecko) Chrome/134.0.0.0 Safari/537.36",Macintosh,Chrome,134.0.0.0,OS X,10_15_7,https://5puzkbbxv1.cognition.run/?sona_id=48254,"en-GB,en-US;q=0.9,en;q=0.8",om0r7pllll9qdfs,24,"[""Asian""]",No,Male,"Singapore, India, Canada",No,427331.59999996424,NA,3632,NA,"{""product_choice"":""B""}",choice,wbw,trinary,catch,null,microwave ovens,60,85,40,40,35,50,2,null,null,null,null,null,null,Warranty,Cooking power,NA,NA
NA,NA,NA,NA,NA,choice_trial_setup,html-keyboard-response,44,187973,0.0-4.0-0.20,102,1,2025-04-30T21:52:28Z,b60275e29fe2361ab97ac0ac217840d7,"Mozilla/5.0 (Macintosh; Intel Mac OS X 10_15_7) AppleWebKit/537.36 (KHTML, like Gecko) Chrome/134.0.0.0 Safari/537.36",Macintosh,Chrome,134.0.0.0,OS X,10_15_7,https://5puzkbbxv1.cognition.run/?sona_id=48254,"en-GB,en-US;q=0.9,en;q=0.8",om0r7pllll9qdfs,24,"[""Asian""]",No,Male,"Singapore, India, Canada",No,427331.59999996424,NA,null,<p></p>,null,choice,tc,binary,repulsion,1,microwave ovens,null,null,null,null,null,null,1,NA,NA,NA,NA,NA,NA,NA,NA,NA,NA
NA,NA,NA,NA,NA,choice_trial,survey-html-form,45,192330,0.0-4.0-1.20,102,1,2025-04-30T21:52:28Z,b60275e29fe2361ab97ac0ac217840d7,"Mozilla/5.0 (Macintosh; Intel Mac OS X 10_15_7) AppleWebKit/537.36 (KHTML, like Gecko) Chrome/134.0.0.0 Safari/537.36",Macintosh,Chrome,134.0.0.0,OS X,10_15_7,https://5puzkbbxv1.cognition.run/?sona_id=48254,"en-GB,en-US;q=0.9,en;q=0.8",om0r7pllll9qdfs,24,"[""Asian""]",No,Male,"Singapore, India, Canada",No,427331.59999996424,NA,4353,NA,"{""product_choice"":""B""}",choice,tc,binary,repulsion,1,microwave ovens,null,null,null,null,null,null,1,100,90,null,30,40,null,Warranty,Cooking power,NA,NA
NA,NA,NA,NA,NA,choice_trial_setup,html-keyboard-response,46,192634,0.0-4.0-0.21,102,1,2025-04-30T21:52:28Z,b60275e29fe2361ab97ac0ac217840d7,"Mozilla/5.0 (Macintosh; Intel Mac OS X 10_15_7) AppleWebKit/537.36 (KHTML, like Gecko) Chrome/134.0.0.0 Safari/537.36",Macintosh,Chrome,134.0.0.0,OS X,10_15_7,https://5puzkbbxv1.cognition.run/?sona_id=48254,"en-GB,en-US;q=0.9,en;q=0.8",om0r7pllll9qdfs,24,"[""Asian""]",No,Male,"Singapore, India, Canada",No,427331.59999996424,NA,null,<p></p>,null,choice,cdt,trinary,repulsion_B,2,washing machines,null,null,null,null,null,null,2,NA,NA,NA,NA,NA,NA,NA,NA,NA,NA
NA,NA,NA,NA,NA,choice_trial,survey-html-form,47,197307,0.0-4.0-1.21,102,1,2025-04-30T21:52:28Z,b60275e29fe2361ab97ac0ac217840d7,"Mozilla/5.0 (Macintosh; Intel Mac OS X 10_15_7) AppleWebKit/537.36 (KHTML, like Gecko) Chrome/134.0.0.0 Safari/537.36",Macintosh,Chrome,134.0.0.0,OS X,10_15_7,https://5puzkbbxv1.cognition.run/?sona_id=48254,"en-GB,en-US;q=0.9,en;q=0.8",om0r7pllll9qdfs,24,"[""Asian""]",No,Male,"Singapore, India, Canada",No,427331.59999996424,NA,4668,NA,"{""product_choice"":""C""}",choice,cdt,trinary,repulsion_B,2,washing machines,null,null,null,null,null,null,2,40,30,40,90,100,80,Average lifespan,Energy savings,NA,NA
NA,NA,NA,NA,NA,choice_trial_setup,html-keyboard-response,48,197611,0.0-4.0-0.22,102,1,2025-04-30T21:52:28Z,b60275e29fe2361ab97ac0ac217840d7,"Mozilla/5.0 (Macintosh; Intel Mac OS X 10_15_7) AppleWebKit/537.36 (KHTML, like Gecko) Chrome/134.0.0.0 Safari/537.36",Macintosh,Chrome,134.0.0.0,OS X,10_15_7,https://5puzkbbxv1.cognition.run/?sona_id=48254,"en-GB,en-US;q=0.9,en;q=0.8",om0r7pllll9qdfs,24,"[""Asian""]",No,Male,"Singapore, India, Canada",No,427331.59999996424,NA,null,<p></p>,null,choice,dct,trinary,repulsion_B,1,televisions,null,null,null,null,null,null,1,NA,NA,NA,NA,NA,NA,NA,NA,NA,NA
NA,NA,NA,NA,NA,choice_trial,survey-html-form,49,202083,0.0-4.0-1.22,102,1,2025-04-30T21:52:28Z,b60275e29fe2361ab97ac0ac217840d7,"Mozilla/5.0 (Macintosh; Intel Mac OS X 10_15_7) AppleWebKit/537.36 (KHTML, like Gecko) Chrome/134.0.0.0 Safari/537.36",Macintosh,Chrome,134.0.0.0,OS X,10_15_7,https://5puzkbbxv1.cognition.run/?sona_id=48254,"en-GB,en-US;q=0.9,en;q=0.8",om0r7pllll9qdfs,24,"[""Asian""]",No,Male,"Singapore, India, Canada",No,427331.59999996424,NA,4468,NA,"{""product_choice"":""C""}",choice,dct,trinary,repulsion_B,1,televisions,null,null,null,null,null,null,1,90,100,80,40,30,40,Screen size,Average lifespan,NA,NA
NA,NA,NA,NA,NA,choice_trial_setup,html-keyboard-response,50,202388,0.0-4.0-0.23,102,1,2025-04-30T21:52:28Z,b60275e29fe2361ab97ac0ac217840d7,"Mozilla/5.0 (Macintosh; Intel Mac OS X 10_15_7) AppleWebKit/537.36 (KHTML, like Gecko) Chrome/134.0.0.0 Safari/537.36",Macintosh,Chrome,134.0.0.0,OS X,10_15_7,https://5puzkbbxv1.cognition.run/?sona_id=48254,"en-GB,en-US;q=0.9,en;q=0.8",om0r7pllll9qdfs,24,"[""Asian""]",No,Male,"Singapore, India, Canada",No,427331.59999996424,NA,null,<p></p>,null,choice,ct,binary,repulsion,1,laptops,null,null,null,null,null,null,2,NA,NA,NA,NA,NA,NA,NA,NA,NA,NA
NA,NA,NA,NA,NA,choice_trial,survey-html-form,51,207287,0.0-4.0-1.23,102,1,2025-04-30T21:52:28Z,b60275e29fe2361ab97ac0ac217840d7,"Mozilla/5.0 (Macintosh; Intel Mac OS X 10_15_7) AppleWebKit/537.36 (KHTML, like Gecko) Chrome/134.0.0.0 Safari/537.36",Macintosh,Chrome,134.0.0.0,OS X,10_15_7,https://5puzkbbxv1.cognition.run/?sona_id=48254,"en-GB,en-US;q=0.9,en;q=0.8",om0r7pllll9qdfs,24,"[""Asian""]",No,Male,"Singapore, India, Canada",No,427331.59999996424,NA,4895,NA,"{""product_choice"":""A""}",choice,ct,binary,repulsion,1,laptops,null,null,null,null,null,null,2,100,90,null,30,40,null,Processing speed,Memory (RAM),NA,NA
NA,NA,NA,NA,NA,choice_trial_setup,html-keyboard-response,52,207590,0.0-4.0-0.24,102,1,2025-04-30T21:52:28Z,b60275e29fe2361ab97ac0ac217840d7,"Mozilla/5.0 (Macintosh; Intel Mac OS X 10_15_7) AppleWebKit/537.36 (KHTML, like Gecko) Chrome/134.0.0.0 Safari/537.36",Macintosh,Chrome,134.0.0.0,OS X,10_15_7,https://5puzkbbxv1.cognition.run/?sona_id=48254,"en-GB,en-US;q=0.9,en;q=0.8",om0r7pllll9qdfs,24,"[""Asian""]",No,Male,"Singapore, India, Canada",No,427331.59999996424,NA,null,<p></p>,null,choice,dct,trinary,attraction,2,microwave ovens,null,null,null,null,null,null,2,NA,NA,NA,NA,NA,NA,NA,NA,NA,NA
NA,NA,NA,NA,NA,choice_trial,survey-html-form,53,215664,0.0-4.0-1.24,102,1,2025-04-30T21:52:28Z,b60275e29fe2361ab97ac0ac217840d7,"Mozilla/5.0 (Macintosh; Intel Mac OS X 10_15_7) AppleWebKit/537.36 (KHTML, like Gecko) Chrome/134.0.0.0 Safari/537.36",Macintosh,Chrome,134.0.0.0,OS X,10_15_7,https://5puzkbbxv1.cognition.run/?sona_id=48254,"en-GB,en-US;q=0.9,en;q=0.8",om0r7pllll9qdfs,24,"[""Asian""]",No,Male,"Singapore, India, Canada",No,427331.59999996424,NA,8069,NA,"{""product_choice"":""C""}",choice,dct,trinary,attraction,2,microwave ovens,null,null,null,null,null,null,2,50,60,40,60,50,60,Warranty,Cooking power,NA,NA
NA,NA,NA,NA,NA,choice_trial_setup,html-keyboard-response,54,215968,0.0-4.0-0.25,102,1,2025-04-30T21:52:28Z,b60275e29fe2361ab97ac0ac217840d7,"Mozilla/5.0 (Macintosh; Intel Mac OS X 10_15_7) AppleWebKit/537.36 (KHTML, like Gecko) Chrome/134.0.0.0 Safari/537.36",Macintosh,Chrome,134.0.0.0,OS X,10_15_7,https://5puzkbbxv1.cognition.run/?sona_id=48254,"en-GB,en-US;q=0.9,en;q=0.8",om0r7pllll9qdfs,24,"[""Asian""]",No,Male,"Singapore, India, Canada",No,427331.59999996424,NA,null,<p></p>,null,choice,wbw,trinary,catch,null,televisions,60,65,40,25,15,25,1,NA,NA,NA,NA,NA,NA,NA,NA,NA,NA
NA,NA,NA,NA,NA,choice_trial,survey-html-form,55,220699,0.0-4.0-1.25,102,1,2025-04-30T21:52:28Z,b60275e29fe2361ab97ac0ac217840d7,"Mozilla/5.0 (Macintosh; Intel Mac OS X 10_15_7) AppleWebKit/537.36 (KHTML, like Gecko) Chrome/134.0.0.0 Safari/537.36",Macintosh,Chrome,134.0.0.0,OS X,10_15_7,https://5puzkbbxv1.cognition.run/?sona_id=48254,"en-GB,en-US;q=0.9,en;q=0.8",om0r7pllll9qdfs,24,"[""Asian""]",No,Male,"Singapore, India, Canada",No,427331.59999996424,NA,4727,NA,"{""product_choice"":""B""}",choice,wbw,trinary,catch,null,televisions,60,65,40,25,15,25,1,null,null,null,null,null,null,Screen size,Average lifespan,NA,NA
NA,NA,NA,NA,NA,choice_trial_setup,html-keyboard-response,56,221004,0.0-4.0-0.26,102,1,2025-04-30T21:52:28Z,b60275e29fe2361ab97ac0ac217840d7,"Mozilla/5.0 (Macintosh; Intel Mac OS X 10_15_7) AppleWebKit/537.36 (KHTML, like Gecko) Chrome/134.0.0.0 Safari/537.36",Macintosh,Chrome,134.0.0.0,OS X,10_15_7,https://5puzkbbxv1.cognition.run/?sona_id=48254,"en-GB,en-US;q=0.9,en;q=0.8",om0r7pllll9qdfs,24,"[""Asian""]",No,Male,"Singapore, India, Canada",No,427331.59999996424,NA,null,<p></p>,null,choice,dtc,trinary,repulsion_A,1,washing machines,null,null,null,null,null,null,1,NA,NA,NA,NA,NA,NA,NA,NA,NA,NA
NA,NA,NA,NA,NA,choice_trial,survey-html-form,57,225676,0.0-4.0-1.26,102,1,2025-04-30T21:52:28Z,b60275e29fe2361ab97ac0ac217840d7,"Mozilla/5.0 (Macintosh; Intel Mac OS X 10_15_7) AppleWebKit/537.36 (KHTML, like Gecko) Chrome/134.0.0.0 Safari/537.36",Macintosh,Chrome,134.0.0.0,OS X,10_15_7,https://5puzkbbxv1.cognition.run/?sona_id=48254,"en-GB,en-US;q=0.9,en;q=0.8",om0r7pllll9qdfs,24,"[""Asian""]",No,Male,"Singapore, India, Canada",No,427331.59999996424,NA,4668,NA,"{""product_choice"":""C""}",choice,dtc,trinary,repulsion_A,1,washing machines,null,null,null,null,null,null,1,100,90,100,30,40,20,Average lifespan,Energy savings,NA,NA
NA,NA,NA,NA,NA,choice_trial_setup,html-keyboard-response,58,225981,0.0-4.0-0.27,102,1,2025-04-30T21:52:28Z,b60275e29fe2361ab97ac0ac217840d7,"Mozilla/5.0 (Macintosh; Intel Mac OS X 10_15_7) AppleWebKit/537.36 (KHTML, like Gecko) Chrome/134.0.0.0 Safari/537.36",Macintosh,Chrome,134.0.0.0,OS X,10_15_7,https://5puzkbbxv1.cognition.run/?sona_id=48254,"en-GB,en-US;q=0.9,en;q=0.8",om0r7pllll9qdfs,24,"[""Asian""]",No,Male,"Singapore, India, Canada",No,427331.59999996424,NA,null,<p></p>,null,choice,dct,trinary,attraction,1,washing machines,null,null,null,null,null,null,2,NA,NA,NA,NA,NA,NA,NA,NA,NA,NA
NA,NA,NA,NA,NA,choice_trial,survey-html-form,59,235098,0.0-4.0-1.27,102,1,2025-04-30T21:52:28Z,b60275e29fe2361ab97ac0ac217840d7,"Mozilla/5.0 (Macintosh; Intel Mac OS X 10_15_7) AppleWebKit/537.36 (KHTML, like Gecko) Chrome/134.0.0.0 Safari/537.36",Macintosh,Chrome,134.0.0.0,OS X,10_15_7,https://5puzkbbxv1.cognition.run/?sona_id=48254,"en-GB,en-US;q=0.9,en;q=0.8",om0r7pllll9qdfs,24,"[""Asian""]",No,Male,"Singapore, India, Canada",No,427331.59999996424,NA,9114,NA,"{""product_choice"":""C""}",choice,dct,trinary,attraction,1,washing machines,null,null,null,null,null,null,2,60,50,60,50,60,40,Average lifespan,Energy savings,NA,NA
NA,NA,NA,NA,NA,choice_trial_setup,html-keyboard-response,60,235403,0.0-4.0-0.28,102,1,2025-04-30T21:52:28Z,b60275e29fe2361ab97ac0ac217840d7,"Mozilla/5.0 (Macintosh; Intel Mac OS X 10_15_7) AppleWebKit/537.36 (KHTML, like Gecko) Chrome/134.0.0.0 Safari/537.36",Macintosh,Chrome,134.0.0.0,OS X,10_15_7,https://5puzkbbxv1.cognition.run/?sona_id=48254,"en-GB,en-US;q=0.9,en;q=0.8",om0r7pllll9qdfs,24,"[""Asian""]",No,Male,"Singapore, India, Canada",No,427331.59999996424,NA,null,<p></p>,null,choice,tcd,trinary,repulsion_B,1,microwave ovens,null,null,null,null,null,null,2,NA,NA,NA,NA,NA,NA,NA,NA,NA,NA
NA,NA,NA,NA,NA,choice_trial,survey-html-form,61,242164,0.0-4.0-1.28,102,1,2025-04-30T21:52:28Z,b60275e29fe2361ab97ac0ac217840d7,"Mozilla/5.0 (Macintosh; Intel Mac OS X 10_15_7) AppleWebKit/537.36 (KHTML, like Gecko) Chrome/134.0.0.0 Safari/537.36",Macintosh,Chrome,134.0.0.0,OS X,10_15_7,https://5puzkbbxv1.cognition.run/?sona_id=48254,"en-GB,en-US;q=0.9,en;q=0.8",om0r7pllll9qdfs,24,"[""Asian""]",No,Male,"Singapore, India, Canada",No,427331.59999996424,NA,6754,NA,"{""product_choice"":""A""}",choice,tcd,trinary,repulsion_B,1,microwave ovens,null,null,null,null,null,null,2,90,100,80,40,30,40,Warranty,Cooking power,NA,NA
NA,NA,NA,NA,NA,choice_trial_setup,html-keyboard-response,62,242468,0.0-4.0-0.29,102,1,2025-04-30T21:52:28Z,b60275e29fe2361ab97ac0ac217840d7,"Mozilla/5.0 (Macintosh; Intel Mac OS X 10_15_7) AppleWebKit/537.36 (KHTML, like Gecko) Chrome/134.0.0.0 Safari/537.36",Macintosh,Chrome,134.0.0.0,OS X,10_15_7,https://5puzkbbxv1.cognition.run/?sona_id=48254,"en-GB,en-US;q=0.9,en;q=0.8",om0r7pllll9qdfs,24,"[""Asian""]",No,Male,"Singapore, India, Canada",No,427331.59999996424,NA,null,<p></p>,null,choice,ctd,trinary,attraction,2,laptops,null,null,null,null,null,null,1,NA,NA,NA,NA,NA,NA,NA,NA,NA,NA
NA,NA,NA,NA,NA,choice_trial,survey-html-form,63,255122,0.0-4.0-1.29,102,1,2025-04-30T21:52:28Z,b60275e29fe2361ab97ac0ac217840d7,"Mozilla/5.0 (Macintosh; Intel Mac OS X 10_15_7) AppleWebKit/537.36 (KHTML, like Gecko) Chrome/134.0.0.0 Safari/537.36",Macintosh,Chrome,134.0.0.0,OS X,10_15_7,https://5puzkbbxv1.cognition.run/?sona_id=48254,"en-GB,en-US;q=0.9,en;q=0.8",om0r7pllll9qdfs,24,"[""Asian""]",No,Male,"Singapore, India, Canada",No,427331.59999996424,NA,12647,NA,"{""product_choice"":""B""}",choice,ctd,trinary,attraction,2,laptops,null,null,null,null,null,null,1,50,60,40,60,50,60,Processing speed,Memory (RAM),NA,NA
NA,NA,NA,NA,NA,choice_trial_setup,html-keyboard-response,64,255428,0.0-4.0-0.30,102,1,2025-04-30T21:52:28Z,b60275e29fe2361ab97ac0ac217840d7,"Mozilla/5.0 (Macintosh; Intel Mac OS X 10_15_7) AppleWebKit/537.36 (KHTML, like Gecko) Chrome/134.0.0.0 Safari/537.36",Macintosh,Chrome,134.0.0.0,OS X,10_15_7,https://5puzkbbxv1.cognition.run/?sona_id=48254,"en-GB,en-US;q=0.9,en;q=0.8",om0r7pllll9qdfs,24,"[""Asian""]",No,Male,"Singapore, India, Canada",No,427331.59999996424,NA,null,<p></p>,null,choice,tc,binary,repulsion,1,washing machines,null,null,null,null,null,null,1,NA,NA,NA,NA,NA,NA,NA,NA,NA,NA
NA,NA,NA,NA,NA,choice_trial,survey-html-form,65,260325,0.0-4.0-1.30,102,1,2025-04-30T21:52:28Z,b60275e29fe2361ab97ac0ac217840d7,"Mozilla/5.0 (Macintosh; Intel Mac OS X 10_15_7) AppleWebKit/537.36 (KHTML, like Gecko) Chrome/134.0.0.0 Safari/537.36",Macintosh,Chrome,134.0.0.0,OS X,10_15_7,https://5puzkbbxv1.cognition.run/?sona_id=48254,"en-GB,en-US;q=0.9,en;q=0.8",om0r7pllll9qdfs,24,"[""Asian""]",No,Male,"Singapore, India, Canada",No,427331.59999996424,NA,4891,NA,"{""product_choice"":""B""}",choice,tc,binary,repulsion,1,washing machines,null,null,null,null,null,null,1,100,90,null,30,40,null,Average lifespan,Energy savings,NA,NA
NA,NA,NA,NA,NA,choice_trial_setup,html-keyboard-response,66,260630,0.0-4.0-0.31,102,1,2025-04-30T21:52:28Z,b60275e29fe2361ab97ac0ac217840d7,"Mozilla/5.0 (Macintosh; Intel Mac OS X 10_15_7) AppleWebKit/537.36 (KHTML, like Gecko) Chrome/134.0.0.0 Safari/537.36",Macintosh,Chrome,134.0.0.0,OS X,10_15_7,https://5puzkbbxv1.cognition.run/?sona_id=48254,"en-GB,en-US;q=0.9,en;q=0.8",om0r7pllll9qdfs,24,"[""Asian""]",No,Male,"Singapore, India, Canada",No,427331.59999996424,NA,null,<p></p>,null,choice,dct,trinary,repulsion_A,2,washing machines,null,null,null,null,null,null,1,NA,NA,NA,NA,NA,NA,NA,NA,NA,NA
NA,NA,NA,NA,NA,choice_trial,survey-html-form,67,264899,0.0-4.0-1.31,102,1,2025-04-30T21:52:28Z,b60275e29fe2361ab97ac0ac217840d7,"Mozilla/5.0 (Macintosh; Intel Mac OS X 10_15_7) AppleWebKit/537.36 (KHTML, like Gecko) Chrome/134.0.0.0 Safari/537.36",Macintosh,Chrome,134.0.0.0,OS X,10_15_7,https://5puzkbbxv1.cognition.run/?sona_id=48254,"en-GB,en-US;q=0.9,en;q=0.8",om0r7pllll9qdfs,24,"[""Asian""]",No,Male,"Singapore, India, Canada",No,427331.59999996424,NA,4260,NA,"{""product_choice"":""B""}",choice,dct,trinary,repulsion_A,2,washing machines,null,null,null,null,null,null,1,30,40,20,100,90,100,Average lifespan,Energy savings,NA,NA
NA,NA,NA,NA,NA,choice_trial_setup,html-keyboard-response,68,265206,0.0-4.0-0.32,102,1,2025-04-30T21:52:28Z,b60275e29fe2361ab97ac0ac217840d7,"Mozilla/5.0 (Macintosh; Intel Mac OS X 10_15_7) AppleWebKit/537.36 (KHTML, like Gecko) Chrome/134.0.0.0 Safari/537.36",Macintosh,Chrome,134.0.0.0,OS X,10_15_7,https://5puzkbbxv1.cognition.run/?sona_id=48254,"en-GB,en-US;q=0.9,en;q=0.8",om0r7pllll9qdfs,24,"[""Asian""]",No,Male,"Singapore, India, Canada",No,427331.59999996424,NA,null,<p></p>,null,choice,tdc,trinary,attraction,1,microwave ovens,null,null,null,null,null,null,1,NA,NA,NA,NA,NA,NA,NA,NA,NA,NA
NA,NA,NA,NA,NA,choice_trial,survey-html-form,69,268476,0.0-4.0-1.32,102,1,2025-04-30T21:52:28Z,b60275e29fe2361ab97ac0ac217840d7,"Mozilla/5.0 (Macintosh; Intel Mac OS X 10_15_7) AppleWebKit/537.36 (KHTML, like Gecko) Chrome/134.0.0.0 Safari/537.36",Macintosh,Chrome,134.0.0.0,OS X,10_15_7,https://5puzkbbxv1.cognition.run/?sona_id=48254,"en-GB,en-US;q=0.9,en;q=0.8",om0r7pllll9qdfs,24,"[""Asian""]",No,Male,"Singapore, India, Canada",No,427331.59999996424,NA,3265,NA,"{""product_choice"":""A""}",choice,tdc,trinary,attraction,1,microwave ovens,null,null,null,null,null,null,1,60,50,60,50,60,40,Warranty,Cooking power,NA,NA
NA,NA,NA,NA,NA,choice_trial_setup,html-keyboard-response,70,268780,0.0-4.0-0.33,102,1,2025-04-30T21:52:28Z,b60275e29fe2361ab97ac0ac217840d7,"Mozilla/5.0 (Macintosh; Intel Mac OS X 10_15_7) AppleWebKit/537.36 (KHTML, like Gecko) Chrome/134.0.0.0 Safari/537.36",Macintosh,Chrome,134.0.0.0,OS X,10_15_7,https://5puzkbbxv1.cognition.run/?sona_id=48254,"en-GB,en-US;q=0.9,en;q=0.8",om0r7pllll9qdfs,24,"[""Asian""]",No,Male,"Singapore, India, Canada",No,427331.59999996424,NA,null,<p></p>,null,choice,dct,trinary,attraction,1,laptops,null,null,null,null,null,null,2,NA,NA,NA,NA,NA,NA,NA,NA,NA,NA
NA,NA,NA,NA,NA,choice_trial,survey-html-form,71,272871,0.0-4.0-1.33,102,1,2025-04-30T21:52:28Z,b60275e29fe2361ab97ac0ac217840d7,"Mozilla/5.0 (Macintosh; Intel Mac OS X 10_15_7) AppleWebKit/537.36 (KHTML, like Gecko) Chrome/134.0.0.0 Safari/537.36",Macintosh,Chrome,134.0.0.0,OS X,10_15_7,https://5puzkbbxv1.cognition.run/?sona_id=48254,"en-GB,en-US;q=0.9,en;q=0.8",om0r7pllll9qdfs,24,"[""Asian""]",No,Male,"Singapore, India, Canada",No,427331.59999996424,NA,4085,NA,"{""product_choice"":""B""}",choice,dct,trinary,attraction,1,laptops,null,null,null,null,null,null,2,60,50,60,50,60,40,Processing speed,Memory (RAM),NA,NA
NA,NA,NA,NA,NA,choice_trial_setup,html-keyboard-response,72,273176,0.0-4.0-0.34,102,1,2025-04-30T21:52:28Z,b60275e29fe2361ab97ac0ac217840d7,"Mozilla/5.0 (Macintosh; Intel Mac OS X 10_15_7) AppleWebKit/537.36 (KHTML, like Gecko) Chrome/134.0.0.0 Safari/537.36",Macintosh,Chrome,134.0.0.0,OS X,10_15_7,https://5puzkbbxv1.cognition.run/?sona_id=48254,"en-GB,en-US;q=0.9,en;q=0.8",om0r7pllll9qdfs,24,"[""Asian""]",No,Male,"Singapore, India, Canada",No,427331.59999996424,NA,null,<p></p>,null,choice,ctd,trinary,repulsion_B,2,televisions,null,null,null,null,null,null,2,NA,NA,NA,NA,NA,NA,NA,NA,NA,NA
NA,NA,NA,NA,NA,choice_trial,survey-html-form,73,276877,0.0-4.0-1.34,102,1,2025-04-30T21:52:28Z,b60275e29fe2361ab97ac0ac217840d7,"Mozilla/5.0 (Macintosh; Intel Mac OS X 10_15_7) AppleWebKit/537.36 (KHTML, like Gecko) Chrome/134.0.0.0 Safari/537.36",Macintosh,Chrome,134.0.0.0,OS X,10_15_7,https://5puzkbbxv1.cognition.run/?sona_id=48254,"en-GB,en-US;q=0.9,en;q=0.8",om0r7pllll9qdfs,24,"[""Asian""]",No,Male,"Singapore, India, Canada",No,427331.59999996424,NA,3695,NA,"{""product_choice"":""B""}",choice,ctd,trinary,repulsion_B,2,televisions,null,null,null,null,null,null,2,40,30,40,90,100,80,Screen size,Average lifespan,NA,NA
NA,NA,NA,NA,NA,choice_trial_setup,html-keyboard-response,74,277183,0.0-4.0-0.35,102,1,2025-04-30T21:52:28Z,b60275e29fe2361ab97ac0ac217840d7,"Mozilla/5.0 (Macintosh; Intel Mac OS X 10_15_7) AppleWebKit/537.36 (KHTML, like Gecko) Chrome/134.0.0.0 Safari/537.36",Macintosh,Chrome,134.0.0.0,OS X,10_15_7,https://5puzkbbxv1.cognition.run/?sona_id=48254,"en-GB,en-US;q=0.9,en;q=0.8",om0r7pllll9qdfs,24,"[""Asian""]",No,Male,"Singapore, India, Canada",No,427331.59999996424,NA,null,<p></p>,null,choice,ct,binary,attraction,NA,laptops,null,null,null,null,null,null,2,NA,NA,NA,NA,NA,NA,NA,NA,NA,NA
NA,NA,NA,NA,NA,choice_trial,survey-html-form,75,284526,0.0-4.0-1.35,102,1,2025-04-30T21:52:28Z,b60275e29fe2361ab97ac0ac217840d7,"Mozilla/5.0 (Macintosh; Intel Mac OS X 10_15_7) AppleWebKit/537.36 (KHTML, like Gecko) Chrome/134.0.0.0 Safari/537.36",Macintosh,Chrome,134.0.0.0,OS X,10_15_7,https://5puzkbbxv1.cognition.run/?sona_id=48254,"en-GB,en-US;q=0.9,en;q=0.8",om0r7pllll9qdfs,24,"[""Asian""]",No,Male,"Singapore, India, Canada",No,427331.59999996424,NA,7335,NA,"{""product_choice"":""B""}",choice,ct,binary,attraction,NA,laptops,null,null,null,null,null,null,2,60,50,null,50,60,null,Processing speed,Memory (RAM),NA,NA
NA,NA,NA,NA,NA,choice_trial_setup,html-keyboard-response,76,284831,0.0-4.0-0.36,102,1,2025-04-30T21:52:28Z,b60275e29fe2361ab97ac0ac217840d7,"Mozilla/5.0 (Macintosh; Intel Mac OS X 10_15_7) AppleWebKit/537.36 (KHTML, like Gecko) Chrome/134.0.0.0 Safari/537.36",Macintosh,Chrome,134.0.0.0,OS X,10_15_7,https://5puzkbbxv1.cognition.run/?sona_id=48254,"en-GB,en-US;q=0.9,en;q=0.8",om0r7pllll9qdfs,24,"[""Asian""]",No,Male,"Singapore, India, Canada",No,427331.59999996424,NA,null,<p></p>,null,choice,ct,binary,repulsion,2,televisions,null,null,null,null,null,null,2,NA,NA,NA,NA,NA,NA,NA,NA,NA,NA
NA,NA,NA,NA,NA,choice_trial,survey-html-form,77,287723,0.0-4.0-1.36,102,1,2025-04-30T21:52:28Z,b60275e29fe2361ab97ac0ac217840d7,"Mozilla/5.0 (Macintosh; Intel Mac OS X 10_15_7) AppleWebKit/537.36 (KHTML, like Gecko) Chrome/134.0.0.0 Safari/537.36",Macintosh,Chrome,134.0.0.0,OS X,10_15_7,https://5puzkbbxv1.cognition.run/?sona_id=48254,"en-GB,en-US;q=0.9,en;q=0.8",om0r7pllll9qdfs,24,"[""Asian""]",No,Male,"Singapore, India, Canada",No,427331.59999996424,NA,2889,NA,"{""product_choice"":""A""}",choice,ct,binary,repulsion,2,televisions,null,null,null,null,null,null,2,30,40,null,100,90,null,Screen size,Average lifespan,NA,NA
NA,NA,NA,NA,NA,choice_trial_setup,html-keyboard-response,78,288031,0.0-4.0-0.37,102,1,2025-04-30T21:52:28Z,b60275e29fe2361ab97ac0ac217840d7,"Mozilla/5.0 (Macintosh; Intel Mac OS X 10_15_7) AppleWebKit/537.36 (KHTML, like Gecko) Chrome/134.0.0.0 Safari/537.36",Macintosh,Chrome,134.0.0.0,OS X,10_15_7,https://5puzkbbxv1.cognition.run/?sona_id=48254,"en-GB,en-US;q=0.9,en;q=0.8",om0r7pllll9qdfs,24,"[""Asian""]",No,Male,"Singapore, India, Canada",No,427331.59999996424,NA,null,<p></p>,null,choice,tcd,trinary,repulsion_B,2,microwave ovens,null,null,null,null,null,null,1,NA,NA,NA,NA,NA,NA,NA,NA,NA,NA
NA,NA,NA,NA,NA,choice_trial,survey-html-form,79,292944,0.0-4.0-1.37,102,1,2025-04-30T21:52:28Z,b60275e29fe2361ab97ac0ac217840d7,"Mozilla/5.0 (Macintosh; Intel Mac OS X 10_15_7) AppleWebKit/537.36 (KHTML, like Gecko) Chrome/134.0.0.0 Safari/537.36",Macintosh,Chrome,134.0.0.0,OS X,10_15_7,https://5puzkbbxv1.cognition.run/?sona_id=48254,"en-GB,en-US;q=0.9,en;q=0.8",om0r7pllll9qdfs,24,"[""Asian""]",No,Male,"Singapore, India, Canada",No,427331.59999996424,NA,4906,NA,"{""product_choice"":""A""}",choice,tcd,trinary,repulsion_B,2,microwave ovens,null,null,null,null,null,null,1,40,30,40,90,100,80,Warranty,Cooking power,NA,NA
NA,NA,NA,NA,NA,choice_trial_setup,html-keyboard-response,80,293249,0.0-4.0-0.38,102,1,2025-04-30T21:52:28Z,b60275e29fe2361ab97ac0ac217840d7,"Mozilla/5.0 (Macintosh; Intel Mac OS X 10_15_7) AppleWebKit/537.36 (KHTML, like Gecko) Chrome/134.0.0.0 Safari/537.36",Macintosh,Chrome,134.0.0.0,OS X,10_15_7,https://5puzkbbxv1.cognition.run/?sona_id=48254,"en-GB,en-US;q=0.9,en;q=0.8",om0r7pllll9qdfs,24,"[""Asian""]",No,Male,"Singapore, India, Canada",No,427331.59999996424,NA,null,<p></p>,null,choice,wwb,trinary,catch,null,laptops,55,75,10,35,10,50,1,NA,NA,NA,NA,NA,NA,NA,NA,NA,NA
NA,NA,NA,NA,NA,choice_trial,survey-html-form,81,296512,0.0-4.0-1.38,102,1,2025-04-30T21:52:28Z,b60275e29fe2361ab97ac0ac217840d7,"Mozilla/5.0 (Macintosh; Intel Mac OS X 10_15_7) AppleWebKit/537.36 (KHTML, like Gecko) Chrome/134.0.0.0 Safari/537.36",Macintosh,Chrome,134.0.0.0,OS X,10_15_7,https://5puzkbbxv1.cognition.run/?sona_id=48254,"en-GB,en-US;q=0.9,en;q=0.8",om0r7pllll9qdfs,24,"[""Asian""]",No,Male,"Singapore, India, Canada",No,427331.59999996424,NA,3260,NA,"{""product_choice"":""C""}",choice,wwb,trinary,catch,null,laptops,55,75,10,35,10,50,1,null,null,null,null,null,null,Processing speed,Memory (RAM),NA,NA
NA,NA,NA,NA,NA,choice_trial_setup,html-keyboard-response,82,296817,0.0-4.0-0.39,102,1,2025-04-30T21:52:28Z,b60275e29fe2361ab97ac0ac217840d7,"Mozilla/5.0 (Macintosh; Intel Mac OS X 10_15_7) AppleWebKit/537.36 (KHTML, like Gecko) Chrome/134.0.0.0 Safari/537.36",Macintosh,Chrome,134.0.0.0,OS X,10_15_7,https://5puzkbbxv1.cognition.run/?sona_id=48254,"en-GB,en-US;q=0.9,en;q=0.8",om0r7pllll9qdfs,24,"[""Asian""]",No,Male,"Singapore, India, Canada",No,427331.59999996424,NA,null,<p></p>,null,choice,dtc,trinary,repulsion_B,1,laptops,null,null,null,null,null,null,2,NA,NA,NA,NA,NA,NA,NA,NA,NA,NA
NA,NA,NA,NA,NA,choice_trial,survey-html-form,83,301603,0.0-4.0-1.39,102,1,2025-04-30T21:52:28Z,b60275e29fe2361ab97ac0ac217840d7,"Mozilla/5.0 (Macintosh; Intel Mac OS X 10_15_7) AppleWebKit/537.36 (KHTML, like Gecko) Chrome/134.0.0.0 Safari/537.36",Macintosh,Chrome,134.0.0.0,OS X,10_15_7,https://5puzkbbxv1.cognition.run/?sona_id=48254,"en-GB,en-US;q=0.9,en;q=0.8",om0r7pllll9qdfs,24,"[""Asian""]",No,Male,"Singapore, India, Canada",No,427331.59999996424,NA,4779,NA,"{""product_choice"":""B""}",choice,dtc,trinary,repulsion_B,1,laptops,null,null,null,null,null,null,2,90,100,80,40,30,40,Processing speed,Memory (RAM),NA,NA
NA,NA,NA,NA,NA,choice_trial_setup,html-keyboard-response,84,301909,0.0-4.0-0.40,102,1,2025-04-30T21:52:28Z,b60275e29fe2361ab97ac0ac217840d7,"Mozilla/5.0 (Macintosh; Intel Mac OS X 10_15_7) AppleWebKit/537.36 (KHTML, like Gecko) Chrome/134.0.0.0 Safari/537.36",Macintosh,Chrome,134.0.0.0,OS X,10_15_7,https://5puzkbbxv1.cognition.run/?sona_id=48254,"en-GB,en-US;q=0.9,en;q=0.8",om0r7pllll9qdfs,24,"[""Asian""]",No,Male,"Singapore, India, Canada",No,427331.59999996424,NA,null,<p></p>,null,choice,tdc,trinary,repulsion_A,2,microwave ovens,null,null,null,null,null,null,2,NA,NA,NA,NA,NA,NA,NA,NA,NA,NA
NA,NA,NA,NA,NA,choice_trial,survey-html-form,85,307770,0.0-4.0-1.40,102,1,2025-04-30T21:52:28Z,b60275e29fe2361ab97ac0ac217840d7,"Mozilla/5.0 (Macintosh; Intel Mac OS X 10_15_7) AppleWebKit/537.36 (KHTML, like Gecko) Chrome/134.0.0.0 Safari/537.36",Macintosh,Chrome,134.0.0.0,OS X,10_15_7,https://5puzkbbxv1.cognition.run/?sona_id=48254,"en-GB,en-US;q=0.9,en;q=0.8",om0r7pllll9qdfs,24,"[""Asian""]",No,Male,"Singapore, India, Canada",No,427331.59999996424,NA,5859,NA,"{""product_choice"":""C""}",choice,tdc,trinary,repulsion_A,2,microwave ovens,null,null,null,null,null,null,2,30,40,20,100,90,100,Warranty,Cooking power,NA,NA
NA,NA,NA,NA,NA,choice_trial_setup,html-keyboard-response,86,308076,0.0-4.0-0.41,102,1,2025-04-30T21:52:28Z,b60275e29fe2361ab97ac0ac217840d7,"Mozilla/5.0 (Macintosh; Intel Mac OS X 10_15_7) AppleWebKit/537.36 (KHTML, like Gecko) Chrome/134.0.0.0 Safari/537.36",Macintosh,Chrome,134.0.0.0,OS X,10_15_7,https://5puzkbbxv1.cognition.run/?sona_id=48254,"en-GB,en-US;q=0.9,en;q=0.8",om0r7pllll9qdfs,24,"[""Asian""]",No,Male,"Singapore, India, Canada",No,427331.59999996424,NA,null,<p></p>,null,choice,tc,binary,repulsion,1,televisions,null,null,null,null,null,null,2,NA,NA,NA,NA,NA,NA,NA,NA,NA,NA
NA,NA,NA,NA,NA,choice_trial,survey-html-form,87,310726,0.0-4.0-1.41,102,1,2025-04-30T21:52:28Z,b60275e29fe2361ab97ac0ac217840d7,"Mozilla/5.0 (Macintosh; Intel Mac OS X 10_15_7) AppleWebKit/537.36 (KHTML, like Gecko) Chrome/134.0.0.0 Safari/537.36",Macintosh,Chrome,134.0.0.0,OS X,10_15_7,https://5puzkbbxv1.cognition.run/?sona_id=48254,"en-GB,en-US;q=0.9,en;q=0.8",om0r7pllll9qdfs,24,"[""Asian""]",No,Male,"Singapore, India, Canada",No,427331.59999996424,NA,2643,NA,"{""product_choice"":""B""}",choice,tc,binary,repulsion,1,televisions,null,null,null,null,null,null,2,100,90,null,30,40,null,Screen size,Average lifespan,NA,NA
NA,NA,NA,NA,NA,choice_trial_setup,html-keyboard-response,88,311031,0.0-4.0-0.42,102,1,2025-04-30T21:52:28Z,b60275e29fe2361ab97ac0ac217840d7,"Mozilla/5.0 (Macintosh; Intel Mac OS X 10_15_7) AppleWebKit/537.36 (KHTML, like Gecko) Chrome/134.0.0.0 Safari/537.36",Macintosh,Chrome,134.0.0.0,OS X,10_15_7,https://5puzkbbxv1.cognition.run/?sona_id=48254,"en-GB,en-US;q=0.9,en;q=0.8",om0r7pllll9qdfs,24,"[""Asian""]",No,Male,"Singapore, India, Canada",No,427331.59999996424,NA,null,<p></p>,null,choice,wb,binary,catch,null,microwave ovens,80,65,45,45,null,null,1,NA,NA,NA,NA,NA,NA,NA,NA,NA,NA
NA,NA,NA,NA,NA,choice_trial,survey-html-form,89,313242,0.0-4.0-1.42,102,1,2025-04-30T21:52:28Z,b60275e29fe2361ab97ac0ac217840d7,"Mozilla/5.0 (Macintosh; Intel Mac OS X 10_15_7) AppleWebKit/537.36 (KHTML, like Gecko) Chrome/134.0.0.0 Safari/537.36",Macintosh,Chrome,134.0.0.0,OS X,10_15_7,https://5puzkbbxv1.cognition.run/?sona_id=48254,"en-GB,en-US;q=0.9,en;q=0.8",om0r7pllll9qdfs,24,"[""Asian""]",No,Male,"Singapore, India, Canada",No,427331.59999996424,NA,2204,NA,"{""product_choice"":""B""}",choice,wb,binary,catch,null,microwave ovens,80,65,45,45,null,null,1,null,null,null,null,null,null,Warranty,Cooking power,NA,NA
NA,NA,NA,NA,NA,choice_trial_setup,html-keyboard-response,90,313547,0.0-4.0-0.43,102,1,2025-04-30T21:52:28Z,b60275e29fe2361ab97ac0ac217840d7,"Mozilla/5.0 (Macintosh; Intel Mac OS X 10_15_7) AppleWebKit/537.36 (KHTML, like Gecko) Chrome/134.0.0.0 Safari/537.36",Macintosh,Chrome,134.0.0.0,OS X,10_15_7,https://5puzkbbxv1.cognition.run/?sona_id=48254,"en-GB,en-US;q=0.9,en;q=0.8",om0r7pllll9qdfs,24,"[""Asian""]",No,Male,"Singapore, India, Canada",No,427331.59999996424,NA,null,<p></p>,null,choice,wb,binary,catch,null,washing machines,75,95,25,10,null,null,1,NA,NA,NA,NA,NA,NA,NA,NA,NA,NA
NA,NA,NA,NA,NA,choice_trial,survey-html-form,91,316699,0.0-4.0-1.43,102,1,2025-04-30T21:52:28Z,b60275e29fe2361ab97ac0ac217840d7,"Mozilla/5.0 (Macintosh; Intel Mac OS X 10_15_7) AppleWebKit/537.36 (KHTML, like Gecko) Chrome/134.0.0.0 Safari/537.36",Macintosh,Chrome,134.0.0.0,OS X,10_15_7,https://5puzkbbxv1.cognition.run/?sona_id=48254,"en-GB,en-US;q=0.9,en;q=0.8",om0r7pllll9qdfs,24,"[""Asian""]",No,Male,"Singapore, India, Canada",No,427331.59999996424,NA,3146,NA,"{""product_choice"":""B""}",choice,wb,binary,catch,null,washing machines,75,95,25,10,null,null,1,null,null,null,null,null,null,Average lifespan,Energy savings,NA,NA
NA,NA,NA,NA,NA,post_trials_message,html-button-response,92,319321,0.0-5.0,102,1,2025-04-30T21:52:28Z,b60275e29fe2361ab97ac0ac217840d7,"Mozilla/5.0 (Macintosh; Intel Mac OS X 10_15_7) AppleWebKit/537.36 (KHTML, like Gecko) Chrome/134.0.0.0 Safari/537.36",Macintosh,Chrome,134.0.0.0,OS X,10_15_7,https://5puzkbbxv1.cognition.run/?sona_id=48254,"en-GB,en-US;q=0.9,en;q=0.8",om0r7pllll9qdfs,24,"[""Asian""]",No,Male,"Singapore, India, Canada",No,427331.59999996424,NA,2616,<p> <b>Thank you for your patience!</b></p><p>  The study will be done after completing a brief form. </p>,0,NA,NA,NA,NA,NA,NA,NA,NA,NA,NA,NA,NA,NA,NA,NA,NA,NA,NA,NA,NA,NA,NA,NA
NA,NA,NA,NA,NA,survey_message,survey-text,93,380466,0.0-6.0,102,1,2025-04-30T21:52:28Z,b60275e29fe2361ab97ac0ac217840d7,"Mozilla/5.0 (Macintosh; Intel Mac OS X 10_15_7) AppleWebKit/537.36 (KHTML, like Gecko) Chrome/134.0.0.0 Safari/537.36",Macintosh,Chrome,134.0.0.0,OS X,10_15_7,https://5puzkbbxv1.cognition.run/?sona_id=48254,"en-GB,en-US;q=0.9,en;q=0.8",om0r7pllll9qdfs,24,"[""Asian""]",No,Male,"Singapore, India, Canada",No,427331.59999996424,NA,61136,NA,"{""Q0"":""I chose daily appliances for their reliability and the devices in terms of fairly spread out performance""}",NA,NA,NA,NA,NA,NA,NA,NA,NA,NA,NA,NA,NA,NA,NA,NA,NA,NA,NA,NA,NA,I chose daily appliances for their reliability and the devices in terms of fairly spread out performance,NA
NA,NA,NA,NA,NA,demo_age,survey-text,94,382702,0.0-7.0,102,1,2025-04-30T21:52:28Z,b60275e29fe2361ab97ac0ac217840d7,"Mozilla/5.0 (Macintosh; Intel Mac OS X 10_15_7) AppleWebKit/537.36 (KHTML, like Gecko) Chrome/134.0.0.0 Safari/537.36",Macintosh,Chrome,134.0.0.0,OS X,10_15_7,https://5puzkbbxv1.cognition.run/?sona_id=48254,"en-GB,en-US;q=0.9,en;q=0.8",om0r7pllll9qdfs,24,"[""Asian""]",No,Male,"Singapore, India, Canada",No,427331.59999996424,NA,2231,NA,"{""Q0"":""24""}",NA,NA,NA,NA,NA,NA,NA,NA,NA,NA,NA,NA,NA,NA,NA,NA,NA,NA,NA,NA,NA,NA,NA
NA,NA,NA,NA,NA,demo_race,survey-multi-select,95,384975,0.0-8.0,102,1,2025-04-30T21:52:28Z,b60275e29fe2361ab97ac0ac217840d7,"Mozilla/5.0 (Macintosh; Intel Mac OS X 10_15_7) AppleWebKit/537.36 (KHTML, like Gecko) Chrome/134.0.0.0 Safari/537.36",Macintosh,Chrome,134.0.0.0,OS X,10_15_7,https://5puzkbbxv1.cognition.run/?sona_id=48254,"en-GB,en-US;q=0.9,en;q=0.8",om0r7pllll9qdfs,24,"[""Asian""]",No,Male,"Singapore, India, Canada",No,427331.59999996424,NA,2264,NA,"{""Q0"":[""Asian""]}",NA,NA,NA,NA,NA,NA,NA,NA,NA,NA,NA,NA,NA,NA,NA,NA,NA,NA,NA,NA,NA,NA,[0]
NA,NA,NA,NA,NA,demo_ethnicity_gender,survey-multi-choice,96,389565,0.0-9.0,102,1,2025-04-30T21:52:28Z,b60275e29fe2361ab97ac0ac217840d7,"Mozilla/5.0 (Macintosh; Intel Mac OS X 10_15_7) AppleWebKit/537.36 (KHTML, like Gecko) Chrome/134.0.0.0 Safari/537.36",Macintosh,Chrome,134.0.0.0,OS X,10_15_7,https://5puzkbbxv1.cognition.run/?sona_id=48254,"en-GB,en-US;q=0.9,en;q=0.8",om0r7pllll9qdfs,24,"[""Asian""]",No,Male,"Singapore, India, Canada",No,427331.59999996424,NA,4581,NA,"{""Q0"":""No"",""Q1"":""Male""}",NA,NA,NA,NA,NA,NA,NA,NA,NA,NA,NA,NA,NA,NA,NA,NA,NA,NA,NA,NA,NA,NA,"[0,1]"
NA,NA,NA,NA,NA,demo_countries,survey-text,97,398839,0.0-10.0,102,1,2025-04-30T21:52:28Z,b60275e29fe2361ab97ac0ac217840d7,"Mozilla/5.0 (Macintosh; Intel Mac OS X 10_15_7) AppleWebKit/537.36 (KHTML, like Gecko) Chrome/134.0.0.0 Safari/537.36",Macintosh,Chrome,134.0.0.0,OS X,10_15_7,https://5puzkbbxv1.cognition.run/?sona_id=48254,"en-GB,en-US;q=0.9,en;q=0.8",om0r7pllll9qdfs,24,"[""Asian""]",No,Male,"Singapore, India, Canada",No,427331.59999996424,NA,9255,NA,"{""Q0"":""Singapore, India, Canada""}",NA,NA,NA,NA,NA,NA,NA,NA,NA,NA,NA,NA,NA,NA,NA,NA,NA,NA,NA,NA,NA,NA,NA
NA,NA,NA,NA,NA,demo_prev_study,survey-multi-choice,98,405515,0.0-11.0,102,1,2025-04-30T21:52:28Z,b60275e29fe2361ab97ac0ac217840d7,"Mozilla/5.0 (Macintosh; Intel Mac OS X 10_15_7) AppleWebKit/537.36 (KHTML, like Gecko) Chrome/134.0.0.0 Safari/537.36",Macintosh,Chrome,134.0.0.0,OS X,10_15_7,https://5puzkbbxv1.cognition.run/?sona_id=48254,"en-GB,en-US;q=0.9,en;q=0.8",om0r7pllll9qdfs,24,"[""Asian""]",No,Male,"Singapore, India, Canada",No,427331.59999996424,NA,6670,NA,"{""Q0"":""No""}",NA,NA,NA,NA,NA,NA,NA,NA,NA,NA,NA,NA,NA,NA,NA,NA,NA,NA,NA,NA,NA,NA,[0]
NA,NA,NA,NA,NA,post_survey_message,html-keyboard-response,99,416116,0.0-12.0,102,1,2025-04-30T21:52:28Z,b60275e29fe2361ab97ac0ac217840d7,"Mozilla/5.0 (Macintosh; Intel Mac OS X 10_15_7) AppleWebKit/537.36 (KHTML, like Gecko) Chrome/134.0.0.0 Safari/537.36",Macintosh,Chrome,134.0.0.0,OS X,10_15_7,https://5puzkbbxv1.cognition.run/?sona_id=48254,"en-GB,en-US;q=0.9,en;q=0.8",om0r7pllll9qdfs,24,"[""Asian""]",No,Male,"Singapore, India, Canada",No,427331.59999996424,NA,10595,NA,j,NA,NA,NA,NA,NA,NA,NA,NA,NA,NA,NA,NA,NA,NA,NA,NA,NA,NA,NA,NA,NA,NA,NA
NA,NA,NA,NA,NA,debrief,image-keyboard-response,100,427329,0.0-13.0,102,1,2025-04-30T21:52:28Z,b60275e29fe2361ab97ac0ac217840d7,"Mozilla/5.0 (Macintosh; Intel Mac OS X 10_15_7) AppleWebKit/537.36 (KHTML, like Gecko) Chrome/134.0.0.0 Safari/537.36",Macintosh,Chrome,134.0.0.0,OS X,10_15_7,https://5puzkbbxv1.cognition.run/?sona_id=48254,"en-GB,en-US;q=0.9,en;q=0.8",om0r7pllll9qdfs,24,"[""Asian""]",No,Male,"Singapore, India, Canada",No,427331.59999996424,NA,11203,Judg_choice_debrief.png,p,NA,NA,NA,NA,NA,NA,NA,NA,NA,NA,NA,NA,NA,NA,NA,NA,NA,NA,NA,NA,NA,NA,NA
