success,timeout,failed_images,failed_audio,failed_video,screen_id,trial_type,trial_index,time_elapsed,internal_node_id,run_id,condition,recorded_at,source_code_version,user_agent,device,browser,browser_version,platform,platform_version,referer,accept_language,ppt_id,age,race,ethnicity,gender,other_countries,prev_study,exp_duration,view_history,rt,stimulus,response,phase,order,set,effect,t_high,category,d1_best,d2_best,d1_worst1,d2_worst1,d1_worst2,d2_worst2,first_dim,d1_t,d1_c,d1_d,d2_t,d2_c,d2_d,d1_name,d2_name,strategy_response,question_order
TRUE,FALSE,[],[],[],img preload,preload,0,152,0.0-0.0,103,1,2025-04-30T21:59:31Z,b60275e29fe2361ab97ac0ac217840d7,"Mozilla/5.0 (Macintosh; Intel Mac OS X 10_15_7) AppleWebKit/537.36 (KHTML, like Gecko) Chrome/135.0.0.0 Safari/537.36",Macintosh,Chrome,135.0.0.0,OS X,10_15_7,https://5puzkbbxv1.cognition.run/?sona_id=55673,"en-US,en;q=0.9",jo9yqd4wghosunj,19,"[""Asian""]",No,Male,NA,I'm not sure,474680.30000019073,NA,NA,NA,NA,NA,NA,NA,NA,NA,NA,NA,NA,NA,NA,NA,NA,NA,NA,NA,NA,NA,NA,NA,NA,NA,NA,NA
NA,NA,NA,NA,NA,computer_message,instructions,1,4490,0.0-1.0,103,1,2025-04-30T21:59:31Z,b60275e29fe2361ab97ac0ac217840d7,"Mozilla/5.0 (Macintosh; Intel Mac OS X 10_15_7) AppleWebKit/537.36 (KHTML, like Gecko) Chrome/135.0.0.0 Safari/537.36",Macintosh,Chrome,135.0.0.0,OS X,10_15_7,https://5puzkbbxv1.cognition.run/?sona_id=55673,"en-US,en;q=0.9",jo9yqd4wghosunj,19,"[""Asian""]",No,Male,NA,I'm not sure,474680.30000019073,"[{""page_index"":0,""viewing_time"":4337}]",4337,NA,NA,NA,NA,NA,NA,NA,NA,NA,NA,NA,NA,NA,NA,NA,NA,NA,NA,NA,NA,NA,NA,NA,NA,NA
TRUE,NA,NA,NA,NA,NA,fullscreen,2,6380,0.0-2.0,103,1,2025-04-30T21:59:31Z,b60275e29fe2361ab97ac0ac217840d7,"Mozilla/5.0 (Macintosh; Intel Mac OS X 10_15_7) AppleWebKit/537.36 (KHTML, like Gecko) Chrome/135.0.0.0 Safari/537.36",Macintosh,Chrome,135.0.0.0,OS X,10_15_7,https://5puzkbbxv1.cognition.run/?sona_id=55673,"en-US,en;q=0.9",jo9yqd4wghosunj,19,"[""Asian""]",No,Male,NA,I'm not sure,474680.30000019073,NA,887,NA,NA,NA,NA,NA,NA,NA,NA,NA,NA,NA,NA,NA,NA,NA,NA,NA,NA,NA,NA,NA,NA,NA,NA,NA
NA,NA,NA,NA,NA,choice_instructions,instructions,3,29733,0.0-3.0,103,1,2025-04-30T21:59:31Z,b60275e29fe2361ab97ac0ac217840d7,"Mozilla/5.0 (Macintosh; Intel Mac OS X 10_15_7) AppleWebKit/537.36 (KHTML, like Gecko) Chrome/135.0.0.0 Safari/537.36",Macintosh,Chrome,135.0.0.0,OS X,10_15_7,https://5puzkbbxv1.cognition.run/?sona_id=55673,"en-US,en;q=0.9",jo9yqd4wghosunj,19,"[""Asian""]",No,Male,NA,I'm not sure,474680.30000019073,"[{""page_index"":0,""viewing_time"":1377},{""page_index"":1,""viewing_time"":2637},{""page_index"":2,""viewing_time"":951},{""page_index"":3,""viewing_time"":1230},{""page_index"":4,""viewing_time"":535},{""page_index"":5,""viewing_time"":14568},{""page_index"":6,""viewing_time"":2053}]",23352,NA,NA,NA,NA,NA,NA,NA,NA,NA,NA,NA,NA,NA,NA,NA,NA,NA,NA,NA,NA,NA,NA,NA,NA,NA
NA,NA,NA,NA,NA,choice_trial_setup,html-keyboard-response,4,30037,0.0-4.0-0.0,103,1,2025-04-30T21:59:31Z,b60275e29fe2361ab97ac0ac217840d7,"Mozilla/5.0 (Macintosh; Intel Mac OS X 10_15_7) AppleWebKit/537.36 (KHTML, like Gecko) Chrome/135.0.0.0 Safari/537.36",Macintosh,Chrome,135.0.0.0,OS X,10_15_7,https://5puzkbbxv1.cognition.run/?sona_id=55673,"en-US,en;q=0.9",jo9yqd4wghosunj,19,"[""Asian""]",No,Male,NA,I'm not sure,474680.30000019073,NA,null,<p></p>,null,choice,dct,trinary,repulsion_B,2,televisions,null,null,null,null,null,null,1,NA,NA,NA,NA,NA,NA,NA,NA,NA,NA
NA,NA,NA,NA,NA,choice_trial,survey-html-form,5,46845,0.0-4.0-1.0,103,1,2025-04-30T21:59:31Z,b60275e29fe2361ab97ac0ac217840d7,"Mozilla/5.0 (Macintosh; Intel Mac OS X 10_15_7) AppleWebKit/537.36 (KHTML, like Gecko) Chrome/135.0.0.0 Safari/537.36",Macintosh,Chrome,135.0.0.0,OS X,10_15_7,https://5puzkbbxv1.cognition.run/?sona_id=55673,"en-US,en;q=0.9",jo9yqd4wghosunj,19,"[""Asian""]",No,Male,NA,I'm not sure,474680.30000019073,NA,16804,NA,"{""product_choice"":""C""}",choice,dct,trinary,repulsion_B,2,televisions,null,null,null,null,null,null,1,40,30,40,90,100,80,Screen size,Average lifespan,NA,NA
NA,NA,NA,NA,NA,choice_trial_setup,html-keyboard-response,6,47148,0.0-4.0-0.1,103,1,2025-04-30T21:59:31Z,b60275e29fe2361ab97ac0ac217840d7,"Mozilla/5.0 (Macintosh; Intel Mac OS X 10_15_7) AppleWebKit/537.36 (KHTML, like Gecko) Chrome/135.0.0.0 Safari/537.36",Macintosh,Chrome,135.0.0.0,OS X,10_15_7,https://5puzkbbxv1.cognition.run/?sona_id=55673,"en-US,en;q=0.9",jo9yqd4wghosunj,19,"[""Asian""]",No,Male,NA,I'm not sure,474680.30000019073,NA,null,<p></p>,null,choice,wwb,trinary,catch,null,washing machines,60,95,30,25,25,5,1,NA,NA,NA,NA,NA,NA,NA,NA,NA,NA
NA,NA,NA,NA,NA,choice_trial,survey-html-form,7,54674,0.0-4.0-1.1,103,1,2025-04-30T21:59:31Z,b60275e29fe2361ab97ac0ac217840d7,"Mozilla/5.0 (Macintosh; Intel Mac OS X 10_15_7) AppleWebKit/537.36 (KHTML, like Gecko) Chrome/135.0.0.0 Safari/537.36",Macintosh,Chrome,135.0.0.0,OS X,10_15_7,https://5puzkbbxv1.cognition.run/?sona_id=55673,"en-US,en;q=0.9",jo9yqd4wghosunj,19,"[""Asian""]",No,Male,NA,I'm not sure,474680.30000019073,NA,7522,NA,"{""product_choice"":""C""}",choice,wwb,trinary,catch,null,washing machines,60,95,30,25,25,5,1,null,null,null,null,null,null,Average lifespan,Energy savings,NA,NA
NA,NA,NA,NA,NA,choice_trial_setup,html-keyboard-response,8,54977,0.0-4.0-0.2,103,1,2025-04-30T21:59:31Z,b60275e29fe2361ab97ac0ac217840d7,"Mozilla/5.0 (Macintosh; Intel Mac OS X 10_15_7) AppleWebKit/537.36 (KHTML, like Gecko) Chrome/135.0.0.0 Safari/537.36",Macintosh,Chrome,135.0.0.0,OS X,10_15_7,https://5puzkbbxv1.cognition.run/?sona_id=55673,"en-US,en;q=0.9",jo9yqd4wghosunj,19,"[""Asian""]",No,Male,NA,I'm not sure,474680.30000019073,NA,null,<p></p>,null,choice,bw,binary,catch,null,washing machines,95,95,20,40,null,null,1,NA,NA,NA,NA,NA,NA,NA,NA,NA,NA
NA,NA,NA,NA,NA,choice_trial,survey-html-form,9,58740,0.0-4.0-1.2,103,1,2025-04-30T21:59:31Z,b60275e29fe2361ab97ac0ac217840d7,"Mozilla/5.0 (Macintosh; Intel Mac OS X 10_15_7) AppleWebKit/537.36 (KHTML, like Gecko) Chrome/135.0.0.0 Safari/537.36",Macintosh,Chrome,135.0.0.0,OS X,10_15_7,https://5puzkbbxv1.cognition.run/?sona_id=55673,"en-US,en;q=0.9",jo9yqd4wghosunj,19,"[""Asian""]",No,Male,NA,I'm not sure,474680.30000019073,NA,3760,NA,"{""product_choice"":""A""}",choice,bw,binary,catch,null,washing machines,95,95,20,40,null,null,1,null,null,null,null,null,null,Average lifespan,Energy savings,NA,NA
NA,NA,NA,NA,NA,choice_trial_setup,html-keyboard-response,10,59043,0.0-4.0-0.3,103,1,2025-04-30T21:59:31Z,b60275e29fe2361ab97ac0ac217840d7,"Mozilla/5.0 (Macintosh; Intel Mac OS X 10_15_7) AppleWebKit/537.36 (KHTML, like Gecko) Chrome/135.0.0.0 Safari/537.36",Macintosh,Chrome,135.0.0.0,OS X,10_15_7,https://5puzkbbxv1.cognition.run/?sona_id=55673,"en-US,en;q=0.9",jo9yqd4wghosunj,19,"[""Asian""]",No,Male,NA,I'm not sure,474680.30000019073,NA,null,<p></p>,null,choice,ct,binary,repulsion,2,televisions,null,null,null,null,null,null,2,NA,NA,NA,NA,NA,NA,NA,NA,NA,NA
NA,NA,NA,NA,NA,choice_trial,survey-html-form,11,65786,0.0-4.0-1.3,103,1,2025-04-30T21:59:31Z,b60275e29fe2361ab97ac0ac217840d7,"Mozilla/5.0 (Macintosh; Intel Mac OS X 10_15_7) AppleWebKit/537.36 (KHTML, like Gecko) Chrome/135.0.0.0 Safari/537.36",Macintosh,Chrome,135.0.0.0,OS X,10_15_7,https://5puzkbbxv1.cognition.run/?sona_id=55673,"en-US,en;q=0.9",jo9yqd4wghosunj,19,"[""Asian""]",No,Male,NA,I'm not sure,474680.30000019073,NA,6741,NA,"{""product_choice"":""A""}",choice,ct,binary,repulsion,2,televisions,null,null,null,null,null,null,2,30,40,null,100,90,null,Screen size,Average lifespan,NA,NA
NA,NA,NA,NA,NA,choice_trial_setup,html-keyboard-response,12,66089,0.0-4.0-0.4,103,1,2025-04-30T21:59:31Z,b60275e29fe2361ab97ac0ac217840d7,"Mozilla/5.0 (Macintosh; Intel Mac OS X 10_15_7) AppleWebKit/537.36 (KHTML, like Gecko) Chrome/135.0.0.0 Safari/537.36",Macintosh,Chrome,135.0.0.0,OS X,10_15_7,https://5puzkbbxv1.cognition.run/?sona_id=55673,"en-US,en;q=0.9",jo9yqd4wghosunj,19,"[""Asian""]",No,Male,NA,I'm not sure,474680.30000019073,NA,null,<p></p>,null,choice,tcd,trinary,repulsion_A,1,laptops,null,null,null,null,null,null,2,NA,NA,NA,NA,NA,NA,NA,NA,NA,NA
NA,NA,NA,NA,NA,choice_trial,survey-html-form,13,75317,0.0-4.0-1.4,103,1,2025-04-30T21:59:31Z,b60275e29fe2361ab97ac0ac217840d7,"Mozilla/5.0 (Macintosh; Intel Mac OS X 10_15_7) AppleWebKit/537.36 (KHTML, like Gecko) Chrome/135.0.0.0 Safari/537.36",Macintosh,Chrome,135.0.0.0,OS X,10_15_7,https://5puzkbbxv1.cognition.run/?sona_id=55673,"en-US,en;q=0.9",jo9yqd4wghosunj,19,"[""Asian""]",No,Male,NA,I'm not sure,474680.30000019073,NA,9225,NA,"{""product_choice"":""A""}",choice,tcd,trinary,repulsion_A,1,laptops,null,null,null,null,null,null,2,100,90,100,30,40,20,Processing speed,Memory (RAM),NA,NA
NA,NA,NA,NA,NA,choice_trial_setup,html-keyboard-response,14,75620,0.0-4.0-0.5,103,1,2025-04-30T21:59:31Z,b60275e29fe2361ab97ac0ac217840d7,"Mozilla/5.0 (Macintosh; Intel Mac OS X 10_15_7) AppleWebKit/537.36 (KHTML, like Gecko) Chrome/135.0.0.0 Safari/537.36",Macintosh,Chrome,135.0.0.0,OS X,10_15_7,https://5puzkbbxv1.cognition.run/?sona_id=55673,"en-US,en;q=0.9",jo9yqd4wghosunj,19,"[""Asian""]",No,Male,NA,I'm not sure,474680.30000019073,NA,null,<p></p>,null,choice,tcd,trinary,attraction,1,televisions,null,null,null,null,null,null,2,NA,NA,NA,NA,NA,NA,NA,NA,NA,NA
NA,NA,NA,NA,NA,choice_trial,survey-html-form,15,85344,0.0-4.0-1.5,103,1,2025-04-30T21:59:31Z,b60275e29fe2361ab97ac0ac217840d7,"Mozilla/5.0 (Macintosh; Intel Mac OS X 10_15_7) AppleWebKit/537.36 (KHTML, like Gecko) Chrome/135.0.0.0 Safari/537.36",Macintosh,Chrome,135.0.0.0,OS X,10_15_7,https://5puzkbbxv1.cognition.run/?sona_id=55673,"en-US,en;q=0.9",jo9yqd4wghosunj,19,"[""Asian""]",No,Male,NA,I'm not sure,474680.30000019073,NA,9722,NA,"{""product_choice"":""A""}",choice,tcd,trinary,attraction,1,televisions,null,null,null,null,null,null,2,60,50,60,50,60,40,Screen size,Average lifespan,NA,NA
NA,NA,NA,NA,NA,choice_trial_setup,html-keyboard-response,16,85647,0.0-4.0-0.6,103,1,2025-04-30T21:59:31Z,b60275e29fe2361ab97ac0ac217840d7,"Mozilla/5.0 (Macintosh; Intel Mac OS X 10_15_7) AppleWebKit/537.36 (KHTML, like Gecko) Chrome/135.0.0.0 Safari/537.36",Macintosh,Chrome,135.0.0.0,OS X,10_15_7,https://5puzkbbxv1.cognition.run/?sona_id=55673,"en-US,en;q=0.9",jo9yqd4wghosunj,19,"[""Asian""]",No,Male,NA,I'm not sure,474680.30000019073,NA,null,<p></p>,null,choice,tdc,trinary,repulsion_A,2,laptops,null,null,null,null,null,null,1,NA,NA,NA,NA,NA,NA,NA,NA,NA,NA
NA,NA,NA,NA,NA,choice_trial,survey-html-form,17,97426,0.0-4.0-1.6,103,1,2025-04-30T21:59:31Z,b60275e29fe2361ab97ac0ac217840d7,"Mozilla/5.0 (Macintosh; Intel Mac OS X 10_15_7) AppleWebKit/537.36 (KHTML, like Gecko) Chrome/135.0.0.0 Safari/537.36",Macintosh,Chrome,135.0.0.0,OS X,10_15_7,https://5puzkbbxv1.cognition.run/?sona_id=55673,"en-US,en;q=0.9",jo9yqd4wghosunj,19,"[""Asian""]",No,Male,NA,I'm not sure,474680.30000019073,NA,11777,NA,"{""product_choice"":""C""}",choice,tdc,trinary,repulsion_A,2,laptops,null,null,null,null,null,null,1,30,40,20,100,90,100,Processing speed,Memory (RAM),NA,NA
NA,NA,NA,NA,NA,choice_trial_setup,html-keyboard-response,18,97729,0.0-4.0-0.7,103,1,2025-04-30T21:59:31Z,b60275e29fe2361ab97ac0ac217840d7,"Mozilla/5.0 (Macintosh; Intel Mac OS X 10_15_7) AppleWebKit/537.36 (KHTML, like Gecko) Chrome/135.0.0.0 Safari/537.36",Macintosh,Chrome,135.0.0.0,OS X,10_15_7,https://5puzkbbxv1.cognition.run/?sona_id=55673,"en-US,en;q=0.9",jo9yqd4wghosunj,19,"[""Asian""]",No,Male,NA,I'm not sure,474680.30000019073,NA,null,<p></p>,null,choice,wwb,trinary,catch,null,laptops,50,60,20,20,35,35,1,NA,NA,NA,NA,NA,NA,NA,NA,NA,NA
NA,NA,NA,NA,NA,choice_trial,survey-html-form,19,110385,0.0-4.0-1.7,103,1,2025-04-30T21:59:31Z,b60275e29fe2361ab97ac0ac217840d7,"Mozilla/5.0 (Macintosh; Intel Mac OS X 10_15_7) AppleWebKit/537.36 (KHTML, like Gecko) Chrome/135.0.0.0 Safari/537.36",Macintosh,Chrome,135.0.0.0,OS X,10_15_7,https://5puzkbbxv1.cognition.run/?sona_id=55673,"en-US,en;q=0.9",jo9yqd4wghosunj,19,"[""Asian""]",No,Male,NA,I'm not sure,474680.30000019073,NA,12653,NA,"{""product_choice"":""C""}",choice,wwb,trinary,catch,null,laptops,50,60,20,20,35,35,1,null,null,null,null,null,null,Processing speed,Memory (RAM),NA,NA
NA,NA,NA,NA,NA,choice_trial_setup,html-keyboard-response,20,110687,0.0-4.0-0.8,103,1,2025-04-30T21:59:31Z,b60275e29fe2361ab97ac0ac217840d7,"Mozilla/5.0 (Macintosh; Intel Mac OS X 10_15_7) AppleWebKit/537.36 (KHTML, like Gecko) Chrome/135.0.0.0 Safari/537.36",Macintosh,Chrome,135.0.0.0,OS X,10_15_7,https://5puzkbbxv1.cognition.run/?sona_id=55673,"en-US,en;q=0.9",jo9yqd4wghosunj,19,"[""Asian""]",No,Male,NA,I'm not sure,474680.30000019073,NA,null,<p></p>,null,choice,tc,binary,attraction,NA,televisions,null,null,null,null,null,null,1,NA,NA,NA,NA,NA,NA,NA,NA,NA,NA
NA,NA,NA,NA,NA,choice_trial,survey-html-form,21,116409,0.0-4.0-1.8,103,1,2025-04-30T21:59:31Z,b60275e29fe2361ab97ac0ac217840d7,"Mozilla/5.0 (Macintosh; Intel Mac OS X 10_15_7) AppleWebKit/537.36 (KHTML, like Gecko) Chrome/135.0.0.0 Safari/537.36",Macintosh,Chrome,135.0.0.0,OS X,10_15_7,https://5puzkbbxv1.cognition.run/?sona_id=55673,"en-US,en;q=0.9",jo9yqd4wghosunj,19,"[""Asian""]",No,Male,NA,I'm not sure,474680.30000019073,NA,5719,NA,"{""product_choice"":""A""}",choice,tc,binary,attraction,NA,televisions,null,null,null,null,null,null,1,60,50,null,50,60,null,Screen size,Average lifespan,NA,NA
NA,NA,NA,NA,NA,choice_trial_setup,html-keyboard-response,22,116712,0.0-4.0-0.9,103,1,2025-04-30T21:59:31Z,b60275e29fe2361ab97ac0ac217840d7,"Mozilla/5.0 (Macintosh; Intel Mac OS X 10_15_7) AppleWebKit/537.36 (KHTML, like Gecko) Chrome/135.0.0.0 Safari/537.36",Macintosh,Chrome,135.0.0.0,OS X,10_15_7,https://5puzkbbxv1.cognition.run/?sona_id=55673,"en-US,en;q=0.9",jo9yqd4wghosunj,19,"[""Asian""]",No,Male,NA,I'm not sure,474680.30000019073,NA,null,<p></p>,null,choice,tdc,trinary,repulsion_A,2,televisions,null,null,null,null,null,null,2,NA,NA,NA,NA,NA,NA,NA,NA,NA,NA
NA,NA,NA,NA,NA,choice_trial,survey-html-form,23,124031,0.0-4.0-1.9,103,1,2025-04-30T21:59:31Z,b60275e29fe2361ab97ac0ac217840d7,"Mozilla/5.0 (Macintosh; Intel Mac OS X 10_15_7) AppleWebKit/537.36 (KHTML, like Gecko) Chrome/135.0.0.0 Safari/537.36",Macintosh,Chrome,135.0.0.0,OS X,10_15_7,https://5puzkbbxv1.cognition.run/?sona_id=55673,"en-US,en;q=0.9",jo9yqd4wghosunj,19,"[""Asian""]",No,Male,NA,I'm not sure,474680.30000019073,NA,7316,NA,"{""product_choice"":""A""}",choice,tdc,trinary,repulsion_A,2,televisions,null,null,null,null,null,null,2,30,40,20,100,90,100,Screen size,Average lifespan,NA,NA
NA,NA,NA,NA,NA,choice_trial_setup,html-keyboard-response,24,124335,0.0-4.0-0.10,103,1,2025-04-30T21:59:31Z,b60275e29fe2361ab97ac0ac217840d7,"Mozilla/5.0 (Macintosh; Intel Mac OS X 10_15_7) AppleWebKit/537.36 (KHTML, like Gecko) Chrome/135.0.0.0 Safari/537.36",Macintosh,Chrome,135.0.0.0,OS X,10_15_7,https://5puzkbbxv1.cognition.run/?sona_id=55673,"en-US,en;q=0.9",jo9yqd4wghosunj,19,"[""Asian""]",No,Male,NA,I'm not sure,474680.30000019073,NA,null,<p></p>,null,choice,bw,binary,catch,null,laptops,85,65,45,25,null,null,1,NA,NA,NA,NA,NA,NA,NA,NA,NA,NA
NA,NA,NA,NA,NA,choice_trial,survey-html-form,25,127395,0.0-4.0-1.10,103,1,2025-04-30T21:59:31Z,b60275e29fe2361ab97ac0ac217840d7,"Mozilla/5.0 (Macintosh; Intel Mac OS X 10_15_7) AppleWebKit/537.36 (KHTML, like Gecko) Chrome/135.0.0.0 Safari/537.36",Macintosh,Chrome,135.0.0.0,OS X,10_15_7,https://5puzkbbxv1.cognition.run/?sona_id=55673,"en-US,en;q=0.9",jo9yqd4wghosunj,19,"[""Asian""]",No,Male,NA,I'm not sure,474680.30000019073,NA,3057,NA,"{""product_choice"":""A""}",choice,bw,binary,catch,null,laptops,85,65,45,25,null,null,1,null,null,null,null,null,null,Processing speed,Memory (RAM),NA,NA
NA,NA,NA,NA,NA,choice_trial_setup,html-keyboard-response,26,127698,0.0-4.0-0.11,103,1,2025-04-30T21:59:31Z,b60275e29fe2361ab97ac0ac217840d7,"Mozilla/5.0 (Macintosh; Intel Mac OS X 10_15_7) AppleWebKit/537.36 (KHTML, like Gecko) Chrome/135.0.0.0 Safari/537.36",Macintosh,Chrome,135.0.0.0,OS X,10_15_7,https://5puzkbbxv1.cognition.run/?sona_id=55673,"en-US,en;q=0.9",jo9yqd4wghosunj,19,"[""Asian""]",No,Male,NA,I'm not sure,474680.30000019073,NA,null,<p></p>,null,choice,bw,binary,catch,null,televisions,50,90,25,10,null,null,1,NA,NA,NA,NA,NA,NA,NA,NA,NA,NA
NA,NA,NA,NA,NA,choice_trial,survey-html-form,27,130222,0.0-4.0-1.11,103,1,2025-04-30T21:59:31Z,b60275e29fe2361ab97ac0ac217840d7,"Mozilla/5.0 (Macintosh; Intel Mac OS X 10_15_7) AppleWebKit/537.36 (KHTML, like Gecko) Chrome/135.0.0.0 Safari/537.36",Macintosh,Chrome,135.0.0.0,OS X,10_15_7,https://5puzkbbxv1.cognition.run/?sona_id=55673,"en-US,en;q=0.9",jo9yqd4wghosunj,19,"[""Asian""]",No,Male,NA,I'm not sure,474680.30000019073,NA,2521,NA,"{""product_choice"":""A""}",choice,bw,binary,catch,null,televisions,50,90,25,10,null,null,1,null,null,null,null,null,null,Screen size,Average lifespan,NA,NA
NA,NA,NA,NA,NA,choice_trial_setup,html-keyboard-response,28,130525,0.0-4.0-0.12,103,1,2025-04-30T21:59:31Z,b60275e29fe2361ab97ac0ac217840d7,"Mozilla/5.0 (Macintosh; Intel Mac OS X 10_15_7) AppleWebKit/537.36 (KHTML, like Gecko) Chrome/135.0.0.0 Safari/537.36",Macintosh,Chrome,135.0.0.0,OS X,10_15_7,https://5puzkbbxv1.cognition.run/?sona_id=55673,"en-US,en;q=0.9",jo9yqd4wghosunj,19,"[""Asian""]",No,Male,NA,I'm not sure,474680.30000019073,NA,null,<p></p>,null,choice,dtc,trinary,repulsion_A,1,televisions,null,null,null,null,null,null,2,NA,NA,NA,NA,NA,NA,NA,NA,NA,NA
NA,NA,NA,NA,NA,choice_trial,survey-html-form,29,137692,0.0-4.0-1.12,103,1,2025-04-30T21:59:31Z,b60275e29fe2361ab97ac0ac217840d7,"Mozilla/5.0 (Macintosh; Intel Mac OS X 10_15_7) AppleWebKit/537.36 (KHTML, like Gecko) Chrome/135.0.0.0 Safari/537.36",Macintosh,Chrome,135.0.0.0,OS X,10_15_7,https://5puzkbbxv1.cognition.run/?sona_id=55673,"en-US,en;q=0.9",jo9yqd4wghosunj,19,"[""Asian""]",No,Male,NA,I'm not sure,474680.30000019073,NA,7164,NA,"{""product_choice"":""C""}",choice,dtc,trinary,repulsion_A,1,televisions,null,null,null,null,null,null,2,100,90,100,30,40,20,Screen size,Average lifespan,NA,NA
NA,NA,NA,NA,NA,choice_trial_setup,html-keyboard-response,30,137996,0.0-4.0-0.13,103,1,2025-04-30T21:59:31Z,b60275e29fe2361ab97ac0ac217840d7,"Mozilla/5.0 (Macintosh; Intel Mac OS X 10_15_7) AppleWebKit/537.36 (KHTML, like Gecko) Chrome/135.0.0.0 Safari/537.36",Macintosh,Chrome,135.0.0.0,OS X,10_15_7,https://5puzkbbxv1.cognition.run/?sona_id=55673,"en-US,en;q=0.9",jo9yqd4wghosunj,19,"[""Asian""]",No,Male,NA,I'm not sure,474680.30000019073,NA,null,<p></p>,null,choice,cdt,trinary,attraction,2,microwave ovens,null,null,null,null,null,null,2,NA,NA,NA,NA,NA,NA,NA,NA,NA,NA
NA,NA,NA,NA,NA,choice_trial,survey-html-form,31,143110,0.0-4.0-1.13,103,1,2025-04-30T21:59:31Z,b60275e29fe2361ab97ac0ac217840d7,"Mozilla/5.0 (Macintosh; Intel Mac OS X 10_15_7) AppleWebKit/537.36 (KHTML, like Gecko) Chrome/135.0.0.0 Safari/537.36",Macintosh,Chrome,135.0.0.0,OS X,10_15_7,https://5puzkbbxv1.cognition.run/?sona_id=55673,"en-US,en;q=0.9",jo9yqd4wghosunj,19,"[""Asian""]",No,Male,NA,I'm not sure,474680.30000019073,NA,5111,NA,"{""product_choice"":""C""}",choice,cdt,trinary,attraction,2,microwave ovens,null,null,null,null,null,null,2,50,60,40,60,50,60,Warranty,Cooking power,NA,NA
NA,NA,NA,NA,NA,choice_trial_setup,html-keyboard-response,32,143413,0.0-4.0-0.14,103,1,2025-04-30T21:59:31Z,b60275e29fe2361ab97ac0ac217840d7,"Mozilla/5.0 (Macintosh; Intel Mac OS X 10_15_7) AppleWebKit/537.36 (KHTML, like Gecko) Chrome/135.0.0.0 Safari/537.36",Macintosh,Chrome,135.0.0.0,OS X,10_15_7,https://5puzkbbxv1.cognition.run/?sona_id=55673,"en-US,en;q=0.9",jo9yqd4wghosunj,19,"[""Asian""]",No,Male,NA,I'm not sure,474680.30000019073,NA,null,<p></p>,null,choice,ctd,trinary,attraction,1,laptops,null,null,null,null,null,null,1,NA,NA,NA,NA,NA,NA,NA,NA,NA,NA
NA,NA,NA,NA,NA,choice_trial,survey-html-form,33,150412,0.0-4.0-1.14,103,1,2025-04-30T21:59:31Z,b60275e29fe2361ab97ac0ac217840d7,"Mozilla/5.0 (Macintosh; Intel Mac OS X 10_15_7) AppleWebKit/537.36 (KHTML, like Gecko) Chrome/135.0.0.0 Safari/537.36",Macintosh,Chrome,135.0.0.0,OS X,10_15_7,https://5puzkbbxv1.cognition.run/?sona_id=55673,"en-US,en;q=0.9",jo9yqd4wghosunj,19,"[""Asian""]",No,Male,NA,I'm not sure,474680.30000019073,NA,6995,NA,"{""product_choice"":""B""}",choice,ctd,trinary,attraction,1,laptops,null,null,null,null,null,null,1,60,50,60,50,60,40,Processing speed,Memory (RAM),NA,NA
NA,NA,NA,NA,NA,choice_trial_setup,html-keyboard-response,34,150715,0.0-4.0-0.15,103,1,2025-04-30T21:59:31Z,b60275e29fe2361ab97ac0ac217840d7,"Mozilla/5.0 (Macintosh; Intel Mac OS X 10_15_7) AppleWebKit/537.36 (KHTML, like Gecko) Chrome/135.0.0.0 Safari/537.36",Macintosh,Chrome,135.0.0.0,OS X,10_15_7,https://5puzkbbxv1.cognition.run/?sona_id=55673,"en-US,en;q=0.9",jo9yqd4wghosunj,19,"[""Asian""]",No,Male,NA,I'm not sure,474680.30000019073,NA,null,<p></p>,null,choice,dtc,trinary,attraction,1,washing machines,null,null,null,null,null,null,2,NA,NA,NA,NA,NA,NA,NA,NA,NA,NA
NA,NA,NA,NA,NA,choice_trial,survey-html-form,35,156644,0.0-4.0-1.15,103,1,2025-04-30T21:59:31Z,b60275e29fe2361ab97ac0ac217840d7,"Mozilla/5.0 (Macintosh; Intel Mac OS X 10_15_7) AppleWebKit/537.36 (KHTML, like Gecko) Chrome/135.0.0.0 Safari/537.36",Macintosh,Chrome,135.0.0.0,OS X,10_15_7,https://5puzkbbxv1.cognition.run/?sona_id=55673,"en-US,en;q=0.9",jo9yqd4wghosunj,19,"[""Asian""]",No,Male,NA,I'm not sure,474680.30000019073,NA,5926,NA,"{""product_choice"":""C""}",choice,dtc,trinary,attraction,1,washing machines,null,null,null,null,null,null,2,60,50,60,50,60,40,Average lifespan,Energy savings,NA,NA
NA,NA,NA,NA,NA,choice_trial_setup,html-keyboard-response,36,156949,0.0-4.0-0.16,103,1,2025-04-30T21:59:31Z,b60275e29fe2361ab97ac0ac217840d7,"Mozilla/5.0 (Macintosh; Intel Mac OS X 10_15_7) AppleWebKit/537.36 (KHTML, like Gecko) Chrome/135.0.0.0 Safari/537.36",Macintosh,Chrome,135.0.0.0,OS X,10_15_7,https://5puzkbbxv1.cognition.run/?sona_id=55673,"en-US,en;q=0.9",jo9yqd4wghosunj,19,"[""Asian""]",No,Male,NA,I'm not sure,474680.30000019073,NA,null,<p></p>,null,choice,ct,binary,repulsion,2,washing machines,null,null,null,null,null,null,1,NA,NA,NA,NA,NA,NA,NA,NA,NA,NA
NA,NA,NA,NA,NA,choice_trial,survey-html-form,37,162548,0.0-4.0-1.16,103,1,2025-04-30T21:59:31Z,b60275e29fe2361ab97ac0ac217840d7,"Mozilla/5.0 (Macintosh; Intel Mac OS X 10_15_7) AppleWebKit/537.36 (KHTML, like Gecko) Chrome/135.0.0.0 Safari/537.36",Macintosh,Chrome,135.0.0.0,OS X,10_15_7,https://5puzkbbxv1.cognition.run/?sona_id=55673,"en-US,en;q=0.9",jo9yqd4wghosunj,19,"[""Asian""]",No,Male,NA,I'm not sure,474680.30000019073,NA,5596,NA,"{""product_choice"":""A""}",choice,ct,binary,repulsion,2,washing machines,null,null,null,null,null,null,1,30,40,null,100,90,null,Average lifespan,Energy savings,NA,NA
NA,NA,NA,NA,NA,choice_trial_setup,html-keyboard-response,38,162852,0.0-4.0-0.17,103,1,2025-04-30T21:59:31Z,b60275e29fe2361ab97ac0ac217840d7,"Mozilla/5.0 (Macintosh; Intel Mac OS X 10_15_7) AppleWebKit/537.36 (KHTML, like Gecko) Chrome/135.0.0.0 Safari/537.36",Macintosh,Chrome,135.0.0.0,OS X,10_15_7,https://5puzkbbxv1.cognition.run/?sona_id=55673,"en-US,en;q=0.9",jo9yqd4wghosunj,19,"[""Asian""]",No,Male,NA,I'm not sure,474680.30000019073,NA,null,<p></p>,null,choice,ctd,trinary,repulsion_B,1,microwave ovens,null,null,null,null,null,null,2,NA,NA,NA,NA,NA,NA,NA,NA,NA,NA
NA,NA,NA,NA,NA,choice_trial,survey-html-form,39,170298,0.0-4.0-1.17,103,1,2025-04-30T21:59:31Z,b60275e29fe2361ab97ac0ac217840d7,"Mozilla/5.0 (Macintosh; Intel Mac OS X 10_15_7) AppleWebKit/537.36 (KHTML, like Gecko) Chrome/135.0.0.0 Safari/537.36",Macintosh,Chrome,135.0.0.0,OS X,10_15_7,https://5puzkbbxv1.cognition.run/?sona_id=55673,"en-US,en;q=0.9",jo9yqd4wghosunj,19,"[""Asian""]",No,Male,NA,I'm not sure,474680.30000019073,NA,7443,NA,"{""product_choice"":""B""}",choice,ctd,trinary,repulsion_B,1,microwave ovens,null,null,null,null,null,null,2,90,100,80,40,30,40,Warranty,Cooking power,NA,NA
NA,NA,NA,NA,NA,choice_trial_setup,html-keyboard-response,40,170601,0.0-4.0-0.18,103,1,2025-04-30T21:59:31Z,b60275e29fe2361ab97ac0ac217840d7,"Mozilla/5.0 (Macintosh; Intel Mac OS X 10_15_7) AppleWebKit/537.36 (KHTML, like Gecko) Chrome/135.0.0.0 Safari/537.36",Macintosh,Chrome,135.0.0.0,OS X,10_15_7,https://5puzkbbxv1.cognition.run/?sona_id=55673,"en-US,en;q=0.9",jo9yqd4wghosunj,19,"[""Asian""]",No,Male,NA,I'm not sure,474680.30000019073,NA,null,<p></p>,null,choice,tc,binary,repulsion,2,microwave ovens,null,null,null,null,null,null,2,NA,NA,NA,NA,NA,NA,NA,NA,NA,NA
NA,NA,NA,NA,NA,choice_trial,survey-html-form,41,179925,0.0-4.0-1.18,103,1,2025-04-30T21:59:31Z,b60275e29fe2361ab97ac0ac217840d7,"Mozilla/5.0 (Macintosh; Intel Mac OS X 10_15_7) AppleWebKit/537.36 (KHTML, like Gecko) Chrome/135.0.0.0 Safari/537.36",Macintosh,Chrome,135.0.0.0,OS X,10_15_7,https://5puzkbbxv1.cognition.run/?sona_id=55673,"en-US,en;q=0.9",jo9yqd4wghosunj,19,"[""Asian""]",No,Male,NA,I'm not sure,474680.30000019073,NA,9320,NA,"{""product_choice"":""A""}",choice,tc,binary,repulsion,2,microwave ovens,null,null,null,null,null,null,2,30,40,null,100,90,null,Warranty,Cooking power,NA,NA
NA,NA,NA,NA,NA,choice_trial_setup,html-keyboard-response,42,180229,0.0-4.0-0.19,103,1,2025-04-30T21:59:31Z,b60275e29fe2361ab97ac0ac217840d7,"Mozilla/5.0 (Macintosh; Intel Mac OS X 10_15_7) AppleWebKit/537.36 (KHTML, like Gecko) Chrome/135.0.0.0 Safari/537.36",Macintosh,Chrome,135.0.0.0,OS X,10_15_7,https://5puzkbbxv1.cognition.run/?sona_id=55673,"en-US,en;q=0.9",jo9yqd4wghosunj,19,"[""Asian""]",No,Male,NA,I'm not sure,474680.30000019073,NA,null,<p></p>,null,choice,tdc,trinary,repulsion_A,1,washing machines,null,null,null,null,null,null,1,NA,NA,NA,NA,NA,NA,NA,NA,NA,NA
NA,NA,NA,NA,NA,choice_trial,survey-html-form,43,185534,0.0-4.0-1.19,103,1,2025-04-30T21:59:31Z,b60275e29fe2361ab97ac0ac217840d7,"Mozilla/5.0 (Macintosh; Intel Mac OS X 10_15_7) AppleWebKit/537.36 (KHTML, like Gecko) Chrome/135.0.0.0 Safari/537.36",Macintosh,Chrome,135.0.0.0,OS X,10_15_7,https://5puzkbbxv1.cognition.run/?sona_id=55673,"en-US,en;q=0.9",jo9yqd4wghosunj,19,"[""Asian""]",No,Male,NA,I'm not sure,474680.30000019073,NA,5301,NA,"{""product_choice"":""C""}",choice,tdc,trinary,repulsion_A,1,washing machines,null,null,null,null,null,null,1,100,90,100,30,40,20,Average lifespan,Energy savings,NA,NA
NA,NA,NA,NA,NA,choice_trial_setup,html-keyboard-response,44,185839,0.0-4.0-0.20,103,1,2025-04-30T21:59:31Z,b60275e29fe2361ab97ac0ac217840d7,"Mozilla/5.0 (Macintosh; Intel Mac OS X 10_15_7) AppleWebKit/537.36 (KHTML, like Gecko) Chrome/135.0.0.0 Safari/537.36",Macintosh,Chrome,135.0.0.0,OS X,10_15_7,https://5puzkbbxv1.cognition.run/?sona_id=55673,"en-US,en;q=0.9",jo9yqd4wghosunj,19,"[""Asian""]",No,Male,NA,I'm not sure,474680.30000019073,NA,null,<p></p>,null,choice,dct,trinary,repulsion_A,2,washing machines,null,null,null,null,null,null,2,NA,NA,NA,NA,NA,NA,NA,NA,NA,NA
NA,NA,NA,NA,NA,choice_trial,survey-html-form,45,190814,0.0-4.0-1.20,103,1,2025-04-30T21:59:31Z,b60275e29fe2361ab97ac0ac217840d7,"Mozilla/5.0 (Macintosh; Intel Mac OS X 10_15_7) AppleWebKit/537.36 (KHTML, like Gecko) Chrome/135.0.0.0 Safari/537.36",Macintosh,Chrome,135.0.0.0,OS X,10_15_7,https://5puzkbbxv1.cognition.run/?sona_id=55673,"en-US,en;q=0.9",jo9yqd4wghosunj,19,"[""Asian""]",No,Male,NA,I'm not sure,474680.30000019073,NA,4972,NA,"{""product_choice"":""B""}",choice,dct,trinary,repulsion_A,2,washing machines,null,null,null,null,null,null,2,30,40,20,100,90,100,Average lifespan,Energy savings,NA,NA
NA,NA,NA,NA,NA,choice_trial_setup,html-keyboard-response,46,191118,0.0-4.0-0.21,103,1,2025-04-30T21:59:31Z,b60275e29fe2361ab97ac0ac217840d7,"Mozilla/5.0 (Macintosh; Intel Mac OS X 10_15_7) AppleWebKit/537.36 (KHTML, like Gecko) Chrome/135.0.0.0 Safari/537.36",Macintosh,Chrome,135.0.0.0,OS X,10_15_7,https://5puzkbbxv1.cognition.run/?sona_id=55673,"en-US,en;q=0.9",jo9yqd4wghosunj,19,"[""Asian""]",No,Male,NA,I'm not sure,474680.30000019073,NA,null,<p></p>,null,choice,tc,binary,attraction,NA,laptops,null,null,null,null,null,null,2,NA,NA,NA,NA,NA,NA,NA,NA,NA,NA
NA,NA,NA,NA,NA,choice_trial,survey-html-form,47,195761,0.0-4.0-1.21,103,1,2025-04-30T21:59:31Z,b60275e29fe2361ab97ac0ac217840d7,"Mozilla/5.0 (Macintosh; Intel Mac OS X 10_15_7) AppleWebKit/537.36 (KHTML, like Gecko) Chrome/135.0.0.0 Safari/537.36",Macintosh,Chrome,135.0.0.0,OS X,10_15_7,https://5puzkbbxv1.cognition.run/?sona_id=55673,"en-US,en;q=0.9",jo9yqd4wghosunj,19,"[""Asian""]",No,Male,NA,I'm not sure,474680.30000019073,NA,4639,NA,"{""product_choice"":""A""}",choice,tc,binary,attraction,NA,laptops,null,null,null,null,null,null,2,60,50,null,50,60,null,Processing speed,Memory (RAM),NA,NA
NA,NA,NA,NA,NA,choice_trial_setup,html-keyboard-response,48,196065,0.0-4.0-0.22,103,1,2025-04-30T21:59:31Z,b60275e29fe2361ab97ac0ac217840d7,"Mozilla/5.0 (Macintosh; Intel Mac OS X 10_15_7) AppleWebKit/537.36 (KHTML, like Gecko) Chrome/135.0.0.0 Safari/537.36",Macintosh,Chrome,135.0.0.0,OS X,10_15_7,https://5puzkbbxv1.cognition.run/?sona_id=55673,"en-US,en;q=0.9",jo9yqd4wghosunj,19,"[""Asian""]",No,Male,NA,I'm not sure,474680.30000019073,NA,null,<p></p>,null,choice,tcd,trinary,repulsion_B,2,microwave ovens,null,null,null,null,null,null,2,NA,NA,NA,NA,NA,NA,NA,NA,NA,NA
NA,NA,NA,NA,NA,choice_trial,survey-html-form,49,199890,0.0-4.0-1.22,103,1,2025-04-30T21:59:31Z,b60275e29fe2361ab97ac0ac217840d7,"Mozilla/5.0 (Macintosh; Intel Mac OS X 10_15_7) AppleWebKit/537.36 (KHTML, like Gecko) Chrome/135.0.0.0 Safari/537.36",Macintosh,Chrome,135.0.0.0,OS X,10_15_7,https://5puzkbbxv1.cognition.run/?sona_id=55673,"en-US,en;q=0.9",jo9yqd4wghosunj,19,"[""Asian""]",No,Male,NA,I'm not sure,474680.30000019073,NA,3822,NA,"{""product_choice"":""B""}",choice,tcd,trinary,repulsion_B,2,microwave ovens,null,null,null,null,null,null,2,40,30,40,90,100,80,Warranty,Cooking power,NA,NA
NA,NA,NA,NA,NA,choice_trial_setup,html-keyboard-response,50,200193,0.0-4.0-0.23,103,1,2025-04-30T21:59:31Z,b60275e29fe2361ab97ac0ac217840d7,"Mozilla/5.0 (Macintosh; Intel Mac OS X 10_15_7) AppleWebKit/537.36 (KHTML, like Gecko) Chrome/135.0.0.0 Safari/537.36",Macintosh,Chrome,135.0.0.0,OS X,10_15_7,https://5puzkbbxv1.cognition.run/?sona_id=55673,"en-US,en;q=0.9",jo9yqd4wghosunj,19,"[""Asian""]",No,Male,NA,I'm not sure,474680.30000019073,NA,null,<p></p>,null,choice,ct,binary,attraction,NA,washing machines,null,null,null,null,null,null,1,NA,NA,NA,NA,NA,NA,NA,NA,NA,NA
NA,NA,NA,NA,NA,choice_trial,survey-html-form,51,204836,0.0-4.0-1.23,103,1,2025-04-30T21:59:31Z,b60275e29fe2361ab97ac0ac217840d7,"Mozilla/5.0 (Macintosh; Intel Mac OS X 10_15_7) AppleWebKit/537.36 (KHTML, like Gecko) Chrome/135.0.0.0 Safari/537.36",Macintosh,Chrome,135.0.0.0,OS X,10_15_7,https://5puzkbbxv1.cognition.run/?sona_id=55673,"en-US,en;q=0.9",jo9yqd4wghosunj,19,"[""Asian""]",No,Male,NA,I'm not sure,474680.30000019073,NA,4639,NA,"{""product_choice"":""B""}",choice,ct,binary,attraction,NA,washing machines,null,null,null,null,null,null,1,60,50,null,50,60,null,Average lifespan,Energy savings,NA,NA
NA,NA,NA,NA,NA,choice_trial_setup,html-keyboard-response,52,205141,0.0-4.0-0.24,103,1,2025-04-30T21:59:31Z,b60275e29fe2361ab97ac0ac217840d7,"Mozilla/5.0 (Macintosh; Intel Mac OS X 10_15_7) AppleWebKit/537.36 (KHTML, like Gecko) Chrome/135.0.0.0 Safari/537.36",Macintosh,Chrome,135.0.0.0,OS X,10_15_7,https://5puzkbbxv1.cognition.run/?sona_id=55673,"en-US,en;q=0.9",jo9yqd4wghosunj,19,"[""Asian""]",No,Male,NA,I'm not sure,474680.30000019073,NA,null,<p></p>,null,choice,tc,binary,repulsion,1,televisions,null,null,null,null,null,null,1,NA,NA,NA,NA,NA,NA,NA,NA,NA,NA
NA,NA,NA,NA,NA,choice_trial,survey-html-form,53,209989,0.0-4.0-1.24,103,1,2025-04-30T21:59:31Z,b60275e29fe2361ab97ac0ac217840d7,"Mozilla/5.0 (Macintosh; Intel Mac OS X 10_15_7) AppleWebKit/537.36 (KHTML, like Gecko) Chrome/135.0.0.0 Safari/537.36",Macintosh,Chrome,135.0.0.0,OS X,10_15_7,https://5puzkbbxv1.cognition.run/?sona_id=55673,"en-US,en;q=0.9",jo9yqd4wghosunj,19,"[""Asian""]",No,Male,NA,I'm not sure,474680.30000019073,NA,4844,NA,"{""product_choice"":""B""}",choice,tc,binary,repulsion,1,televisions,null,null,null,null,null,null,1,100,90,null,30,40,null,Screen size,Average lifespan,NA,NA
NA,NA,NA,NA,NA,choice_trial_setup,html-keyboard-response,54,210294,0.0-4.0-0.25,103,1,2025-04-30T21:59:31Z,b60275e29fe2361ab97ac0ac217840d7,"Mozilla/5.0 (Macintosh; Intel Mac OS X 10_15_7) AppleWebKit/537.36 (KHTML, like Gecko) Chrome/135.0.0.0 Safari/537.36",Macintosh,Chrome,135.0.0.0,OS X,10_15_7,https://5puzkbbxv1.cognition.run/?sona_id=55673,"en-US,en;q=0.9",jo9yqd4wghosunj,19,"[""Asian""]",No,Male,NA,I'm not sure,474680.30000019073,NA,null,<p></p>,null,choice,ctd,trinary,repulsion_B,2,laptops,null,null,null,null,null,null,1,NA,NA,NA,NA,NA,NA,NA,NA,NA,NA
NA,NA,NA,NA,NA,choice_trial,survey-html-form,55,215581,0.0-4.0-1.25,103,1,2025-04-30T21:59:31Z,b60275e29fe2361ab97ac0ac217840d7,"Mozilla/5.0 (Macintosh; Intel Mac OS X 10_15_7) AppleWebKit/537.36 (KHTML, like Gecko) Chrome/135.0.0.0 Safari/537.36",Macintosh,Chrome,135.0.0.0,OS X,10_15_7,https://5puzkbbxv1.cognition.run/?sona_id=55673,"en-US,en;q=0.9",jo9yqd4wghosunj,19,"[""Asian""]",No,Male,NA,I'm not sure,474680.30000019073,NA,5284,NA,"{""product_choice"":""B""}",choice,ctd,trinary,repulsion_B,2,laptops,null,null,null,null,null,null,1,40,30,40,90,100,80,Processing speed,Memory (RAM),NA,NA
NA,NA,NA,NA,NA,choice_trial_setup,html-keyboard-response,56,215885,0.0-4.0-0.26,103,1,2025-04-30T21:59:31Z,b60275e29fe2361ab97ac0ac217840d7,"Mozilla/5.0 (Macintosh; Intel Mac OS X 10_15_7) AppleWebKit/537.36 (KHTML, like Gecko) Chrome/135.0.0.0 Safari/537.36",Macintosh,Chrome,135.0.0.0,OS X,10_15_7,https://5puzkbbxv1.cognition.run/?sona_id=55673,"en-US,en;q=0.9",jo9yqd4wghosunj,19,"[""Asian""]",No,Male,NA,I'm not sure,474680.30000019073,NA,null,<p></p>,null,choice,dtc,trinary,attraction,2,televisions,null,null,null,null,null,null,2,NA,NA,NA,NA,NA,NA,NA,NA,NA,NA
NA,NA,NA,NA,NA,choice_trial,survey-html-form,57,227528,0.0-4.0-1.26,103,1,2025-04-30T21:59:31Z,b60275e29fe2361ab97ac0ac217840d7,"Mozilla/5.0 (Macintosh; Intel Mac OS X 10_15_7) AppleWebKit/537.36 (KHTML, like Gecko) Chrome/135.0.0.0 Safari/537.36",Macintosh,Chrome,135.0.0.0,OS X,10_15_7,https://5puzkbbxv1.cognition.run/?sona_id=55673,"en-US,en;q=0.9",jo9yqd4wghosunj,19,"[""Asian""]",No,Male,NA,I'm not sure,474680.30000019073,NA,11639,NA,"{""product_choice"":""B""}",choice,dtc,trinary,attraction,2,televisions,null,null,null,null,null,null,2,50,60,40,60,50,60,Screen size,Average lifespan,NA,NA
NA,NA,NA,NA,NA,choice_trial_setup,html-keyboard-response,58,227832,0.0-4.0-0.27,103,1,2025-04-30T21:59:31Z,b60275e29fe2361ab97ac0ac217840d7,"Mozilla/5.0 (Macintosh; Intel Mac OS X 10_15_7) AppleWebKit/537.36 (KHTML, like Gecko) Chrome/135.0.0.0 Safari/537.36",Macintosh,Chrome,135.0.0.0,OS X,10_15_7,https://5puzkbbxv1.cognition.run/?sona_id=55673,"en-US,en;q=0.9",jo9yqd4wghosunj,19,"[""Asian""]",No,Male,NA,I'm not sure,474680.30000019073,NA,null,<p></p>,null,choice,dtc,trinary,attraction,2,laptops,null,null,null,null,null,null,1,NA,NA,NA,NA,NA,NA,NA,NA,NA,NA
NA,NA,NA,NA,NA,choice_trial,survey-html-form,59,231611,0.0-4.0-1.27,103,1,2025-04-30T21:59:31Z,b60275e29fe2361ab97ac0ac217840d7,"Mozilla/5.0 (Macintosh; Intel Mac OS X 10_15_7) AppleWebKit/537.36 (KHTML, like Gecko) Chrome/135.0.0.0 Safari/537.36",Macintosh,Chrome,135.0.0.0,OS X,10_15_7,https://5puzkbbxv1.cognition.run/?sona_id=55673,"en-US,en;q=0.9",jo9yqd4wghosunj,19,"[""Asian""]",No,Male,NA,I'm not sure,474680.30000019073,NA,3774,NA,"{""product_choice"":""C""}",choice,dtc,trinary,attraction,2,laptops,null,null,null,null,null,null,1,50,60,40,60,50,60,Processing speed,Memory (RAM),NA,NA
NA,NA,NA,NA,NA,choice_trial_setup,html-keyboard-response,60,231916,0.0-4.0-0.28,103,1,2025-04-30T21:59:31Z,b60275e29fe2361ab97ac0ac217840d7,"Mozilla/5.0 (Macintosh; Intel Mac OS X 10_15_7) AppleWebKit/537.36 (KHTML, like Gecko) Chrome/135.0.0.0 Safari/537.36",Macintosh,Chrome,135.0.0.0,OS X,10_15_7,https://5puzkbbxv1.cognition.run/?sona_id=55673,"en-US,en;q=0.9",jo9yqd4wghosunj,19,"[""Asian""]",No,Male,NA,I'm not sure,474680.30000019073,NA,null,<p></p>,null,choice,wb,binary,catch,null,microwave ovens,85,70,5,30,null,null,2,NA,NA,NA,NA,NA,NA,NA,NA,NA,NA
NA,NA,NA,NA,NA,choice_trial,survey-html-form,61,235054,0.0-4.0-1.28,103,1,2025-04-30T21:59:31Z,b60275e29fe2361ab97ac0ac217840d7,"Mozilla/5.0 (Macintosh; Intel Mac OS X 10_15_7) AppleWebKit/537.36 (KHTML, like Gecko) Chrome/135.0.0.0 Safari/537.36",Macintosh,Chrome,135.0.0.0,OS X,10_15_7,https://5puzkbbxv1.cognition.run/?sona_id=55673,"en-US,en;q=0.9",jo9yqd4wghosunj,19,"[""Asian""]",No,Male,NA,I'm not sure,474680.30000019073,NA,3134,NA,"{""product_choice"":""B""}",choice,wb,binary,catch,null,microwave ovens,85,70,5,30,null,null,2,null,null,null,null,null,null,Warranty,Cooking power,NA,NA
NA,NA,NA,NA,NA,choice_trial_setup,html-keyboard-response,62,235360,0.0-4.0-0.29,103,1,2025-04-30T21:59:31Z,b60275e29fe2361ab97ac0ac217840d7,"Mozilla/5.0 (Macintosh; Intel Mac OS X 10_15_7) AppleWebKit/537.36 (KHTML, like Gecko) Chrome/135.0.0.0 Safari/537.36",Macintosh,Chrome,135.0.0.0,OS X,10_15_7,https://5puzkbbxv1.cognition.run/?sona_id=55673,"en-US,en;q=0.9",jo9yqd4wghosunj,19,"[""Asian""]",No,Male,NA,I'm not sure,474680.30000019073,NA,null,<p></p>,null,choice,tc,binary,repulsion,1,laptops,null,null,null,null,null,null,2,NA,NA,NA,NA,NA,NA,NA,NA,NA,NA
NA,NA,NA,NA,NA,choice_trial,survey-html-form,63,246257,0.0-4.0-1.29,103,1,2025-04-30T21:59:31Z,b60275e29fe2361ab97ac0ac217840d7,"Mozilla/5.0 (Macintosh; Intel Mac OS X 10_15_7) AppleWebKit/537.36 (KHTML, like Gecko) Chrome/135.0.0.0 Safari/537.36",Macintosh,Chrome,135.0.0.0,OS X,10_15_7,https://5puzkbbxv1.cognition.run/?sona_id=55673,"en-US,en;q=0.9",jo9yqd4wghosunj,19,"[""Asian""]",No,Male,NA,I'm not sure,474680.30000019073,NA,10894,NA,"{""product_choice"":""A""}",choice,tc,binary,repulsion,1,laptops,null,null,null,null,null,null,2,100,90,null,30,40,null,Processing speed,Memory (RAM),NA,NA
NA,NA,NA,NA,NA,choice_trial_setup,html-keyboard-response,64,246561,0.0-4.0-0.30,103,1,2025-04-30T21:59:31Z,b60275e29fe2361ab97ac0ac217840d7,"Mozilla/5.0 (Macintosh; Intel Mac OS X 10_15_7) AppleWebKit/537.36 (KHTML, like Gecko) Chrome/135.0.0.0 Safari/537.36",Macintosh,Chrome,135.0.0.0,OS X,10_15_7,https://5puzkbbxv1.cognition.run/?sona_id=55673,"en-US,en;q=0.9",jo9yqd4wghosunj,19,"[""Asian""]",No,Male,NA,I'm not sure,474680.30000019073,NA,null,<p></p>,null,choice,cdt,trinary,repulsion_B,1,televisions,null,null,null,null,null,null,2,NA,NA,NA,NA,NA,NA,NA,NA,NA,NA
NA,NA,NA,NA,NA,choice_trial,survey-html-form,65,253886,0.0-4.0-1.30,103,1,2025-04-30T21:59:31Z,b60275e29fe2361ab97ac0ac217840d7,"Mozilla/5.0 (Macintosh; Intel Mac OS X 10_15_7) AppleWebKit/537.36 (KHTML, like Gecko) Chrome/135.0.0.0 Safari/537.36",Macintosh,Chrome,135.0.0.0,OS X,10_15_7,https://5puzkbbxv1.cognition.run/?sona_id=55673,"en-US,en;q=0.9",jo9yqd4wghosunj,19,"[""Asian""]",No,Male,NA,I'm not sure,474680.30000019073,NA,7321,NA,"{""product_choice"":""C""}",choice,cdt,trinary,repulsion_B,1,televisions,null,null,null,null,null,null,2,90,100,80,40,30,40,Screen size,Average lifespan,NA,NA
NA,NA,NA,NA,NA,choice_trial_setup,html-keyboard-response,66,254189,0.0-4.0-0.31,103,1,2025-04-30T21:59:31Z,b60275e29fe2361ab97ac0ac217840d7,"Mozilla/5.0 (Macintosh; Intel Mac OS X 10_15_7) AppleWebKit/537.36 (KHTML, like Gecko) Chrome/135.0.0.0 Safari/537.36",Macintosh,Chrome,135.0.0.0,OS X,10_15_7,https://5puzkbbxv1.cognition.run/?sona_id=55673,"en-US,en;q=0.9",jo9yqd4wghosunj,19,"[""Asian""]",No,Male,NA,I'm not sure,474680.30000019073,NA,null,<p></p>,null,choice,dct,trinary,attraction,2,washing machines,null,null,null,null,null,null,2,NA,NA,NA,NA,NA,NA,NA,NA,NA,NA
NA,NA,NA,NA,NA,choice_trial,survey-html-form,67,257921,0.0-4.0-1.31,103,1,2025-04-30T21:59:31Z,b60275e29fe2361ab97ac0ac217840d7,"Mozilla/5.0 (Macintosh; Intel Mac OS X 10_15_7) AppleWebKit/537.36 (KHTML, like Gecko) Chrome/135.0.0.0 Safari/537.36",Macintosh,Chrome,135.0.0.0,OS X,10_15_7,https://5puzkbbxv1.cognition.run/?sona_id=55673,"en-US,en;q=0.9",jo9yqd4wghosunj,19,"[""Asian""]",No,Male,NA,I'm not sure,474680.30000019073,NA,3727,NA,"{""product_choice"":""C""}",choice,dct,trinary,attraction,2,washing machines,null,null,null,null,null,null,2,50,60,40,60,50,60,Average lifespan,Energy savings,NA,NA
NA,NA,NA,NA,NA,choice_trial_setup,html-keyboard-response,68,258225,0.0-4.0-0.32,103,1,2025-04-30T21:59:31Z,b60275e29fe2361ab97ac0ac217840d7,"Mozilla/5.0 (Macintosh; Intel Mac OS X 10_15_7) AppleWebKit/537.36 (KHTML, like Gecko) Chrome/135.0.0.0 Safari/537.36",Macintosh,Chrome,135.0.0.0,OS X,10_15_7,https://5puzkbbxv1.cognition.run/?sona_id=55673,"en-US,en;q=0.9",jo9yqd4wghosunj,19,"[""Asian""]",No,Male,NA,I'm not sure,474680.30000019073,NA,null,<p></p>,null,choice,bww,trinary,catch,null,televisions,65,70,30,10,25,20,1,NA,NA,NA,NA,NA,NA,NA,NA,NA,NA
NA,NA,NA,NA,NA,choice_trial,survey-html-form,69,265382,0.0-4.0-1.32,103,1,2025-04-30T21:59:31Z,b60275e29fe2361ab97ac0ac217840d7,"Mozilla/5.0 (Macintosh; Intel Mac OS X 10_15_7) AppleWebKit/537.36 (KHTML, like Gecko) Chrome/135.0.0.0 Safari/537.36",Macintosh,Chrome,135.0.0.0,OS X,10_15_7,https://5puzkbbxv1.cognition.run/?sona_id=55673,"en-US,en;q=0.9",jo9yqd4wghosunj,19,"[""Asian""]",No,Male,NA,I'm not sure,474680.30000019073,NA,7155,NA,"{""product_choice"":""A""}",choice,bww,trinary,catch,null,televisions,65,70,30,10,25,20,1,null,null,null,null,null,null,Screen size,Average lifespan,NA,NA
NA,NA,NA,NA,NA,choice_trial_setup,html-keyboard-response,70,265686,0.0-4.0-0.33,103,1,2025-04-30T21:59:31Z,b60275e29fe2361ab97ac0ac217840d7,"Mozilla/5.0 (Macintosh; Intel Mac OS X 10_15_7) AppleWebKit/537.36 (KHTML, like Gecko) Chrome/135.0.0.0 Safari/537.36",Macintosh,Chrome,135.0.0.0,OS X,10_15_7,https://5puzkbbxv1.cognition.run/?sona_id=55673,"en-US,en;q=0.9",jo9yqd4wghosunj,19,"[""Asian""]",No,Male,NA,I'm not sure,474680.30000019073,NA,null,<p></p>,null,choice,dct,trinary,repulsion_A,2,microwave ovens,null,null,null,null,null,null,1,NA,NA,NA,NA,NA,NA,NA,NA,NA,NA
NA,NA,NA,NA,NA,choice_trial,survey-html-form,71,270599,0.0-4.0-1.33,103,1,2025-04-30T21:59:31Z,b60275e29fe2361ab97ac0ac217840d7,"Mozilla/5.0 (Macintosh; Intel Mac OS X 10_15_7) AppleWebKit/537.36 (KHTML, like Gecko) Chrome/135.0.0.0 Safari/537.36",Macintosh,Chrome,135.0.0.0,OS X,10_15_7,https://5puzkbbxv1.cognition.run/?sona_id=55673,"en-US,en;q=0.9",jo9yqd4wghosunj,19,"[""Asian""]",No,Male,NA,I'm not sure,474680.30000019073,NA,4909,NA,"{""product_choice"":""C""}",choice,dct,trinary,repulsion_A,2,microwave ovens,null,null,null,null,null,null,1,30,40,20,100,90,100,Warranty,Cooking power,NA,NA
NA,NA,NA,NA,NA,choice_trial_setup,html-keyboard-response,72,270904,0.0-4.0-0.34,103,1,2025-04-30T21:59:31Z,b60275e29fe2361ab97ac0ac217840d7,"Mozilla/5.0 (Macintosh; Intel Mac OS X 10_15_7) AppleWebKit/537.36 (KHTML, like Gecko) Chrome/135.0.0.0 Safari/537.36",Macintosh,Chrome,135.0.0.0,OS X,10_15_7,https://5puzkbbxv1.cognition.run/?sona_id=55673,"en-US,en;q=0.9",jo9yqd4wghosunj,19,"[""Asian""]",No,Male,NA,I'm not sure,474680.30000019073,NA,null,<p></p>,null,choice,wwb,trinary,catch,null,microwave ovens,80,60,50,45,25,35,2,NA,NA,NA,NA,NA,NA,NA,NA,NA,NA
NA,NA,NA,NA,NA,choice_trial,survey-html-form,73,274953,0.0-4.0-1.34,103,1,2025-04-30T21:59:31Z,b60275e29fe2361ab97ac0ac217840d7,"Mozilla/5.0 (Macintosh; Intel Mac OS X 10_15_7) AppleWebKit/537.36 (KHTML, like Gecko) Chrome/135.0.0.0 Safari/537.36",Macintosh,Chrome,135.0.0.0,OS X,10_15_7,https://5puzkbbxv1.cognition.run/?sona_id=55673,"en-US,en;q=0.9",jo9yqd4wghosunj,19,"[""Asian""]",No,Male,NA,I'm not sure,474680.30000019073,NA,4043,NA,"{""product_choice"":""C""}",choice,wwb,trinary,catch,null,microwave ovens,80,60,50,45,25,35,2,null,null,null,null,null,null,Warranty,Cooking power,NA,NA
NA,NA,NA,NA,NA,choice_trial_setup,html-keyboard-response,74,275258,0.0-4.0-0.35,103,1,2025-04-30T21:59:31Z,b60275e29fe2361ab97ac0ac217840d7,"Mozilla/5.0 (Macintosh; Intel Mac OS X 10_15_7) AppleWebKit/537.36 (KHTML, like Gecko) Chrome/135.0.0.0 Safari/537.36",Macintosh,Chrome,135.0.0.0,OS X,10_15_7,https://5puzkbbxv1.cognition.run/?sona_id=55673,"en-US,en;q=0.9",jo9yqd4wghosunj,19,"[""Asian""]",No,Male,NA,I'm not sure,474680.30000019073,NA,null,<p></p>,null,choice,tc,binary,repulsion,2,laptops,null,null,null,null,null,null,2,NA,NA,NA,NA,NA,NA,NA,NA,NA,NA
NA,NA,NA,NA,NA,choice_trial,survey-html-form,75,282902,0.0-4.0-1.35,103,1,2025-04-30T21:59:31Z,b60275e29fe2361ab97ac0ac217840d7,"Mozilla/5.0 (Macintosh; Intel Mac OS X 10_15_7) AppleWebKit/537.36 (KHTML, like Gecko) Chrome/135.0.0.0 Safari/537.36",Macintosh,Chrome,135.0.0.0,OS X,10_15_7,https://5puzkbbxv1.cognition.run/?sona_id=55673,"en-US,en;q=0.9",jo9yqd4wghosunj,19,"[""Asian""]",No,Male,NA,I'm not sure,474680.30000019073,NA,7639,NA,"{""product_choice"":""B""}",choice,tc,binary,repulsion,2,laptops,null,null,null,null,null,null,2,30,40,null,100,90,null,Processing speed,Memory (RAM),NA,NA
NA,NA,NA,NA,NA,choice_trial_setup,html-keyboard-response,76,283207,0.0-4.0-0.36,103,1,2025-04-30T21:59:31Z,b60275e29fe2361ab97ac0ac217840d7,"Mozilla/5.0 (Macintosh; Intel Mac OS X 10_15_7) AppleWebKit/537.36 (KHTML, like Gecko) Chrome/135.0.0.0 Safari/537.36",Macintosh,Chrome,135.0.0.0,OS X,10_15_7,https://5puzkbbxv1.cognition.run/?sona_id=55673,"en-US,en;q=0.9",jo9yqd4wghosunj,19,"[""Asian""]",No,Male,NA,I'm not sure,474680.30000019073,NA,null,<p></p>,null,choice,tc,binary,repulsion,1,microwave ovens,null,null,null,null,null,null,2,NA,NA,NA,NA,NA,NA,NA,NA,NA,NA
NA,NA,NA,NA,NA,choice_trial,survey-html-form,77,294441,0.0-4.0-1.36,103,1,2025-04-30T21:59:31Z,b60275e29fe2361ab97ac0ac217840d7,"Mozilla/5.0 (Macintosh; Intel Mac OS X 10_15_7) AppleWebKit/537.36 (KHTML, like Gecko) Chrome/135.0.0.0 Safari/537.36",Macintosh,Chrome,135.0.0.0,OS X,10_15_7,https://5puzkbbxv1.cognition.run/?sona_id=55673,"en-US,en;q=0.9",jo9yqd4wghosunj,19,"[""Asian""]",No,Male,NA,I'm not sure,474680.30000019073,NA,11228,NA,"{""product_choice"":""B""}",choice,tc,binary,repulsion,1,microwave ovens,null,null,null,null,null,null,2,100,90,null,30,40,null,Warranty,Cooking power,NA,NA
NA,NA,NA,NA,NA,choice_trial_setup,html-keyboard-response,78,294746,0.0-4.0-0.37,103,1,2025-04-30T21:59:31Z,b60275e29fe2361ab97ac0ac217840d7,"Mozilla/5.0 (Macintosh; Intel Mac OS X 10_15_7) AppleWebKit/537.36 (KHTML, like Gecko) Chrome/135.0.0.0 Safari/537.36",Macintosh,Chrome,135.0.0.0,OS X,10_15_7,https://5puzkbbxv1.cognition.run/?sona_id=55673,"en-US,en;q=0.9",jo9yqd4wghosunj,19,"[""Asian""]",No,Male,NA,I'm not sure,474680.30000019073,NA,null,<p></p>,null,choice,dtc,trinary,repulsion_A,1,microwave ovens,null,null,null,null,null,null,2,NA,NA,NA,NA,NA,NA,NA,NA,NA,NA
NA,NA,NA,NA,NA,choice_trial,survey-html-form,79,298612,0.0-4.0-1.37,103,1,2025-04-30T21:59:31Z,b60275e29fe2361ab97ac0ac217840d7,"Mozilla/5.0 (Macintosh; Intel Mac OS X 10_15_7) AppleWebKit/537.36 (KHTML, like Gecko) Chrome/135.0.0.0 Safari/537.36",Macintosh,Chrome,135.0.0.0,OS X,10_15_7,https://5puzkbbxv1.cognition.run/?sona_id=55673,"en-US,en;q=0.9",jo9yqd4wghosunj,19,"[""Asian""]",No,Male,NA,I'm not sure,474680.30000019073,NA,3861,NA,"{""product_choice"":""C""}",choice,dtc,trinary,repulsion_A,1,microwave ovens,null,null,null,null,null,null,2,100,90,100,30,40,20,Warranty,Cooking power,NA,NA
NA,NA,NA,NA,NA,choice_trial_setup,html-keyboard-response,80,298917,0.0-4.0-0.38,103,1,2025-04-30T21:59:31Z,b60275e29fe2361ab97ac0ac217840d7,"Mozilla/5.0 (Macintosh; Intel Mac OS X 10_15_7) AppleWebKit/537.36 (KHTML, like Gecko) Chrome/135.0.0.0 Safari/537.36",Macintosh,Chrome,135.0.0.0,OS X,10_15_7,https://5puzkbbxv1.cognition.run/?sona_id=55673,"en-US,en;q=0.9",jo9yqd4wghosunj,19,"[""Asian""]",No,Male,NA,I'm not sure,474680.30000019073,NA,null,<p></p>,null,choice,ctd,trinary,repulsion_B,1,washing machines,null,null,null,null,null,null,1,NA,NA,NA,NA,NA,NA,NA,NA,NA,NA
NA,NA,NA,NA,NA,choice_trial,survey-html-form,81,302966,0.0-4.0-1.38,103,1,2025-04-30T21:59:31Z,b60275e29fe2361ab97ac0ac217840d7,"Mozilla/5.0 (Macintosh; Intel Mac OS X 10_15_7) AppleWebKit/537.36 (KHTML, like Gecko) Chrome/135.0.0.0 Safari/537.36",Macintosh,Chrome,135.0.0.0,OS X,10_15_7,https://5puzkbbxv1.cognition.run/?sona_id=55673,"en-US,en;q=0.9",jo9yqd4wghosunj,19,"[""Asian""]",No,Male,NA,I'm not sure,474680.30000019073,NA,4044,NA,"{""product_choice"":""C""}",choice,ctd,trinary,repulsion_B,1,washing machines,null,null,null,null,null,null,1,90,100,80,40,30,40,Average lifespan,Energy savings,NA,NA
NA,NA,NA,NA,NA,choice_trial_setup,html-keyboard-response,82,303271,0.0-4.0-0.39,103,1,2025-04-30T21:59:31Z,b60275e29fe2361ab97ac0ac217840d7,"Mozilla/5.0 (Macintosh; Intel Mac OS X 10_15_7) AppleWebKit/537.36 (KHTML, like Gecko) Chrome/135.0.0.0 Safari/537.36",Macintosh,Chrome,135.0.0.0,OS X,10_15_7,https://5puzkbbxv1.cognition.run/?sona_id=55673,"en-US,en;q=0.9",jo9yqd4wghosunj,19,"[""Asian""]",No,Male,NA,I'm not sure,474680.30000019073,NA,null,<p></p>,null,choice,ct,binary,attraction,NA,microwave ovens,null,null,null,null,null,null,1,NA,NA,NA,NA,NA,NA,NA,NA,NA,NA
NA,NA,NA,NA,NA,choice_trial,survey-html-form,83,306753,0.0-4.0-1.39,103,1,2025-04-30T21:59:31Z,b60275e29fe2361ab97ac0ac217840d7,"Mozilla/5.0 (Macintosh; Intel Mac OS X 10_15_7) AppleWebKit/537.36 (KHTML, like Gecko) Chrome/135.0.0.0 Safari/537.36",Macintosh,Chrome,135.0.0.0,OS X,10_15_7,https://5puzkbbxv1.cognition.run/?sona_id=55673,"en-US,en;q=0.9",jo9yqd4wghosunj,19,"[""Asian""]",No,Male,NA,I'm not sure,474680.30000019073,NA,3477,NA,"{""product_choice"":""A""}",choice,ct,binary,attraction,NA,microwave ovens,null,null,null,null,null,null,1,60,50,null,50,60,null,Warranty,Cooking power,NA,NA
NA,NA,NA,NA,NA,choice_trial_setup,html-keyboard-response,84,307058,0.0-4.0-0.40,103,1,2025-04-30T21:59:31Z,b60275e29fe2361ab97ac0ac217840d7,"Mozilla/5.0 (Macintosh; Intel Mac OS X 10_15_7) AppleWebKit/537.36 (KHTML, like Gecko) Chrome/135.0.0.0 Safari/537.36",Macintosh,Chrome,135.0.0.0,OS X,10_15_7,https://5puzkbbxv1.cognition.run/?sona_id=55673,"en-US,en;q=0.9",jo9yqd4wghosunj,19,"[""Asian""]",No,Male,NA,I'm not sure,474680.30000019073,NA,null,<p></p>,null,choice,cdt,trinary,attraction,1,microwave ovens,null,null,null,null,null,null,2,NA,NA,NA,NA,NA,NA,NA,NA,NA,NA
NA,NA,NA,NA,NA,choice_trial,survey-html-form,85,310355,0.0-4.0-1.40,103,1,2025-04-30T21:59:31Z,b60275e29fe2361ab97ac0ac217840d7,"Mozilla/5.0 (Macintosh; Intel Mac OS X 10_15_7) AppleWebKit/537.36 (KHTML, like Gecko) Chrome/135.0.0.0 Safari/537.36",Macintosh,Chrome,135.0.0.0,OS X,10_15_7,https://5puzkbbxv1.cognition.run/?sona_id=55673,"en-US,en;q=0.9",jo9yqd4wghosunj,19,"[""Asian""]",No,Male,NA,I'm not sure,474680.30000019073,NA,3292,NA,"{""product_choice"":""A""}",choice,cdt,trinary,attraction,1,microwave ovens,null,null,null,null,null,null,2,60,50,60,50,60,40,Warranty,Cooking power,NA,NA
NA,NA,NA,NA,NA,choice_trial_setup,html-keyboard-response,86,310659,0.0-4.0-0.41,103,1,2025-04-30T21:59:31Z,b60275e29fe2361ab97ac0ac217840d7,"Mozilla/5.0 (Macintosh; Intel Mac OS X 10_15_7) AppleWebKit/537.36 (KHTML, like Gecko) Chrome/135.0.0.0 Safari/537.36",Macintosh,Chrome,135.0.0.0,OS X,10_15_7,https://5puzkbbxv1.cognition.run/?sona_id=55673,"en-US,en;q=0.9",jo9yqd4wghosunj,19,"[""Asian""]",No,Male,NA,I'm not sure,474680.30000019073,NA,null,<p></p>,null,choice,dtc,trinary,repulsion_B,2,washing machines,null,null,null,null,null,null,2,NA,NA,NA,NA,NA,NA,NA,NA,NA,NA
NA,NA,NA,NA,NA,choice_trial,survey-html-form,87,315556,0.0-4.0-1.41,103,1,2025-04-30T21:59:31Z,b60275e29fe2361ab97ac0ac217840d7,"Mozilla/5.0 (Macintosh; Intel Mac OS X 10_15_7) AppleWebKit/537.36 (KHTML, like Gecko) Chrome/135.0.0.0 Safari/537.36",Macintosh,Chrome,135.0.0.0,OS X,10_15_7,https://5puzkbbxv1.cognition.run/?sona_id=55673,"en-US,en;q=0.9",jo9yqd4wghosunj,19,"[""Asian""]",No,Male,NA,I'm not sure,474680.30000019073,NA,4892,NA,"{""product_choice"":""A""}",choice,dtc,trinary,repulsion_B,2,washing machines,null,null,null,null,null,null,2,40,30,40,90,100,80,Average lifespan,Energy savings,NA,NA
NA,NA,NA,NA,NA,choice_trial_setup,html-keyboard-response,88,315860,0.0-4.0-0.42,103,1,2025-04-30T21:59:31Z,b60275e29fe2361ab97ac0ac217840d7,"Mozilla/5.0 (Macintosh; Intel Mac OS X 10_15_7) AppleWebKit/537.36 (KHTML, like Gecko) Chrome/135.0.0.0 Safari/537.36",Macintosh,Chrome,135.0.0.0,OS X,10_15_7,https://5puzkbbxv1.cognition.run/?sona_id=55673,"en-US,en;q=0.9",jo9yqd4wghosunj,19,"[""Asian""]",No,Male,NA,I'm not sure,474680.30000019073,NA,null,<p></p>,null,choice,ct,binary,repulsion,1,washing machines,null,null,null,null,null,null,1,NA,NA,NA,NA,NA,NA,NA,NA,NA,NA
NA,NA,NA,NA,NA,choice_trial,survey-html-form,89,321963,0.0-4.0-1.42,103,1,2025-04-30T21:59:31Z,b60275e29fe2361ab97ac0ac217840d7,"Mozilla/5.0 (Macintosh; Intel Mac OS X 10_15_7) AppleWebKit/537.36 (KHTML, like Gecko) Chrome/135.0.0.0 Safari/537.36",Macintosh,Chrome,135.0.0.0,OS X,10_15_7,https://5puzkbbxv1.cognition.run/?sona_id=55673,"en-US,en;q=0.9",jo9yqd4wghosunj,19,"[""Asian""]",No,Male,NA,I'm not sure,474680.30000019073,NA,6098,NA,"{""product_choice"":""A""}",choice,ct,binary,repulsion,1,washing machines,null,null,null,null,null,null,1,100,90,null,30,40,null,Average lifespan,Energy savings,NA,NA
NA,NA,NA,NA,NA,choice_trial_setup,html-keyboard-response,90,322267,0.0-4.0-0.43,103,1,2025-04-30T21:59:31Z,b60275e29fe2361ab97ac0ac217840d7,"Mozilla/5.0 (Macintosh; Intel Mac OS X 10_15_7) AppleWebKit/537.36 (KHTML, like Gecko) Chrome/135.0.0.0 Safari/537.36",Macintosh,Chrome,135.0.0.0,OS X,10_15_7,https://5puzkbbxv1.cognition.run/?sona_id=55673,"en-US,en;q=0.9",jo9yqd4wghosunj,19,"[""Asian""]",No,Male,NA,I'm not sure,474680.30000019073,NA,null,<p></p>,null,choice,tcd,trinary,repulsion_B,1,laptops,null,null,null,null,null,null,1,NA,NA,NA,NA,NA,NA,NA,NA,NA,NA
NA,NA,NA,NA,NA,choice_trial,survey-html-form,91,326238,0.0-4.0-1.43,103,1,2025-04-30T21:59:31Z,b60275e29fe2361ab97ac0ac217840d7,"Mozilla/5.0 (Macintosh; Intel Mac OS X 10_15_7) AppleWebKit/537.36 (KHTML, like Gecko) Chrome/135.0.0.0 Safari/537.36",Macintosh,Chrome,135.0.0.0,OS X,10_15_7,https://5puzkbbxv1.cognition.run/?sona_id=55673,"en-US,en;q=0.9",jo9yqd4wghosunj,19,"[""Asian""]",No,Male,NA,I'm not sure,474680.30000019073,NA,3965,NA,"{""product_choice"":""B""}",choice,tcd,trinary,repulsion_B,1,laptops,null,null,null,null,null,null,1,90,100,80,40,30,40,Processing speed,Memory (RAM),NA,NA
NA,NA,NA,NA,NA,post_trials_message,html-button-response,92,327756,0.0-5.0,103,1,2025-04-30T21:59:31Z,b60275e29fe2361ab97ac0ac217840d7,"Mozilla/5.0 (Macintosh; Intel Mac OS X 10_15_7) AppleWebKit/537.36 (KHTML, like Gecko) Chrome/135.0.0.0 Safari/537.36",Macintosh,Chrome,135.0.0.0,OS X,10_15_7,https://5puzkbbxv1.cognition.run/?sona_id=55673,"en-US,en;q=0.9",jo9yqd4wghosunj,19,"[""Asian""]",No,Male,NA,I'm not sure,474680.30000019073,NA,1513,<p> <b>Thank you for your patience!</b></p><p>  The study will be done after completing a brief form. </p>,0,NA,NA,NA,NA,NA,NA,NA,NA,NA,NA,NA,NA,NA,NA,NA,NA,NA,NA,NA,NA,NA,NA,NA
NA,NA,NA,NA,NA,survey_message,survey-text,93,446719,0.0-6.0,103,1,2025-04-30T21:59:31Z,b60275e29fe2361ab97ac0ac217840d7,"Mozilla/5.0 (Macintosh; Intel Mac OS X 10_15_7) AppleWebKit/537.36 (KHTML, like Gecko) Chrome/135.0.0.0 Safari/537.36",Macintosh,Chrome,135.0.0.0,OS X,10_15_7,https://5puzkbbxv1.cognition.run/?sona_id=55673,"en-US,en;q=0.9",jo9yqd4wghosunj,19,"[""Asian""]",No,Male,NA,I'm not sure,474680.30000019073,NA,118957,NA,"{""Q0"":""Whenever I was asked to pick between the higher vs lower warranty, I normally pick the lower one because the performance is better, I don't normally anticipate using the warranty at all. ""}",NA,NA,NA,NA,NA,NA,NA,NA,NA,NA,NA,NA,NA,NA,NA,NA,NA,NA,NA,NA,NA,"Whenever I was asked to pick between the higher vs lower warranty, I normally pick the lower one because the performance is better, I don't normally anticipate using the warranty at all.",NA
NA,NA,NA,NA,NA,demo_age,survey-text,94,448924,0.0-7.0,103,1,2025-04-30T21:59:31Z,b60275e29fe2361ab97ac0ac217840d7,"Mozilla/5.0 (Macintosh; Intel Mac OS X 10_15_7) AppleWebKit/537.36 (KHTML, like Gecko) Chrome/135.0.0.0 Safari/537.36",Macintosh,Chrome,135.0.0.0,OS X,10_15_7,https://5puzkbbxv1.cognition.run/?sona_id=55673,"en-US,en;q=0.9",jo9yqd4wghosunj,19,"[""Asian""]",No,Male,NA,I'm not sure,474680.30000019073,NA,2203,NA,"{""Q0"":""19""}",NA,NA,NA,NA,NA,NA,NA,NA,NA,NA,NA,NA,NA,NA,NA,NA,NA,NA,NA,NA,NA,NA,NA
NA,NA,NA,NA,NA,demo_race,survey-multi-select,95,450419,0.0-8.0,103,1,2025-04-30T21:59:31Z,b60275e29fe2361ab97ac0ac217840d7,"Mozilla/5.0 (Macintosh; Intel Mac OS X 10_15_7) AppleWebKit/537.36 (KHTML, like Gecko) Chrome/135.0.0.0 Safari/537.36",Macintosh,Chrome,135.0.0.0,OS X,10_15_7,https://5puzkbbxv1.cognition.run/?sona_id=55673,"en-US,en;q=0.9",jo9yqd4wghosunj,19,"[""Asian""]",No,Male,NA,I'm not sure,474680.30000019073,NA,1492,NA,"{""Q0"":[""Asian""]}",NA,NA,NA,NA,NA,NA,NA,NA,NA,NA,NA,NA,NA,NA,NA,NA,NA,NA,NA,NA,NA,NA,[0]
NA,NA,NA,NA,NA,demo_ethnicity_gender,survey-multi-choice,96,453879,0.0-9.0,103,1,2025-04-30T21:59:31Z,b60275e29fe2361ab97ac0ac217840d7,"Mozilla/5.0 (Macintosh; Intel Mac OS X 10_15_7) AppleWebKit/537.36 (KHTML, like Gecko) Chrome/135.0.0.0 Safari/537.36",Macintosh,Chrome,135.0.0.0,OS X,10_15_7,https://5puzkbbxv1.cognition.run/?sona_id=55673,"en-US,en;q=0.9",jo9yqd4wghosunj,19,"[""Asian""]",No,Male,NA,I'm not sure,474680.30000019073,NA,3454,NA,"{""Q0"":""No"",""Q1"":""Male""}",NA,NA,NA,NA,NA,NA,NA,NA,NA,NA,NA,NA,NA,NA,NA,NA,NA,NA,NA,NA,NA,NA,"[0,1]"
NA,NA,NA,NA,NA,demo_countries,survey-text,97,460228,0.0-10.0,103,1,2025-04-30T21:59:31Z,b60275e29fe2361ab97ac0ac217840d7,"Mozilla/5.0 (Macintosh; Intel Mac OS X 10_15_7) AppleWebKit/537.36 (KHTML, like Gecko) Chrome/135.0.0.0 Safari/537.36",Macintosh,Chrome,135.0.0.0,OS X,10_15_7,https://5puzkbbxv1.cognition.run/?sona_id=55673,"en-US,en;q=0.9",jo9yqd4wghosunj,19,"[""Asian""]",No,Male,NA,I'm not sure,474680.30000019073,NA,6339,NA,"{""Q0"":""NA""}",NA,NA,NA,NA,NA,NA,NA,NA,NA,NA,NA,NA,NA,NA,NA,NA,NA,NA,NA,NA,NA,NA,NA
NA,NA,NA,NA,NA,demo_prev_study,survey-multi-choice,98,464129,0.0-11.0,103,1,2025-04-30T21:59:31Z,b60275e29fe2361ab97ac0ac217840d7,"Mozilla/5.0 (Macintosh; Intel Mac OS X 10_15_7) AppleWebKit/537.36 (KHTML, like Gecko) Chrome/135.0.0.0 Safari/537.36",Macintosh,Chrome,135.0.0.0,OS X,10_15_7,https://5puzkbbxv1.cognition.run/?sona_id=55673,"en-US,en;q=0.9",jo9yqd4wghosunj,19,"[""Asian""]",No,Male,NA,I'm not sure,474680.30000019073,NA,3899,NA,"{""Q0"":""I'm not sure""}",NA,NA,NA,NA,NA,NA,NA,NA,NA,NA,NA,NA,NA,NA,NA,NA,NA,NA,NA,NA,NA,NA,[0]
NA,NA,NA,NA,NA,post_survey_message,html-keyboard-response,99,468269,0.0-12.0,103,1,2025-04-30T21:59:31Z,b60275e29fe2361ab97ac0ac217840d7,"Mozilla/5.0 (Macintosh; Intel Mac OS X 10_15_7) AppleWebKit/537.36 (KHTML, like Gecko) Chrome/135.0.0.0 Safari/537.36",Macintosh,Chrome,135.0.0.0,OS X,10_15_7,https://5puzkbbxv1.cognition.run/?sona_id=55673,"en-US,en;q=0.9",jo9yqd4wghosunj,19,"[""Asian""]",No,Male,NA,I'm not sure,474680.30000019073,NA,4135,NA,j,NA,NA,NA,NA,NA,NA,NA,NA,NA,NA,NA,NA,NA,NA,NA,NA,NA,NA,NA,NA,NA,NA,NA
NA,NA,NA,NA,NA,debrief,image-keyboard-response,100,474682,0.0-13.0,103,1,2025-04-30T21:59:31Z,b60275e29fe2361ab97ac0ac217840d7,"Mozilla/5.0 (Macintosh; Intel Mac OS X 10_15_7) AppleWebKit/537.36 (KHTML, like Gecko) Chrome/135.0.0.0 Safari/537.36",Macintosh,Chrome,135.0.0.0,OS X,10_15_7,https://5puzkbbxv1.cognition.run/?sona_id=55673,"en-US,en;q=0.9",jo9yqd4wghosunj,19,"[""Asian""]",No,Male,NA,I'm not sure,474680.30000019073,NA,6407,Judg_choice_debrief.png,p,NA,NA,NA,NA,NA,NA,NA,NA,NA,NA,NA,NA,NA,NA,NA,NA,NA,NA,NA,NA,NA,NA,NA
