success,timeout,failed_images,failed_audio,failed_video,screen_id,trial_type,trial_index,time_elapsed,internal_node_id,run_id,condition,recorded_at,source_code_version,user_agent,device,browser,browser_version,platform,platform_version,referer,accept_language,ppt_id,age,race,ethnicity,gender,other_countries,prev_study,exp_duration,view_history,rt,stimulus,response,phase,order,set,effect,t_high,category,d1_best,d2_best,d1_worst1,d2_worst1,d1_worst2,d2_worst2,first_dim,d1_t,d1_c,d1_d,d2_t,d2_c,d2_d,d1_name,d2_name,strategy_response,question_order
TRUE,FALSE,[],[],[],img preload,preload,0,19,0.0-0.0,106,1,2025-05-01T15:02:24Z,b60275e29fe2361ab97ac0ac217840d7,"Mozilla/5.0 (Windows NT 10.0; Win64; x64) AppleWebKit/537.36 (KHTML, like Gecko) Chrome/135.0.0.0 Safari/537.36",WebKit,Chrome,135.0.0.0,Windows,10,https://5puzkbbxv1.cognition.run/?sona_id=58116,"en-US,en;q=0.9",w7dktqv721958bh,19,"[""Asian""]",No,Male,NA,No,311003.8000000119,NA,NA,NA,NA,NA,NA,NA,NA,NA,NA,NA,NA,NA,NA,NA,NA,NA,NA,NA,NA,NA,NA,NA,NA,NA,NA,NA
NA,NA,NA,NA,NA,computer_message,instructions,1,2736,0.0-1.0,106,1,2025-05-01T15:02:24Z,b60275e29fe2361ab97ac0ac217840d7,"Mozilla/5.0 (Windows NT 10.0; Win64; x64) AppleWebKit/537.36 (KHTML, like Gecko) Chrome/135.0.0.0 Safari/537.36",WebKit,Chrome,135.0.0.0,Windows,10,https://5puzkbbxv1.cognition.run/?sona_id=58116,"en-US,en;q=0.9",w7dktqv721958bh,19,"[""Asian""]",No,Male,NA,No,311003.8000000119,"[{""page_index"":0,""viewing_time"":2716}]",2716,NA,NA,NA,NA,NA,NA,NA,NA,NA,NA,NA,NA,NA,NA,NA,NA,NA,NA,NA,NA,NA,NA,NA,NA,NA
TRUE,NA,NA,NA,NA,NA,fullscreen,2,4636,0.0-2.0,106,1,2025-05-01T15:02:24Z,b60275e29fe2361ab97ac0ac217840d7,"Mozilla/5.0 (Windows NT 10.0; Win64; x64) AppleWebKit/537.36 (KHTML, like Gecko) Chrome/135.0.0.0 Safari/537.36",WebKit,Chrome,135.0.0.0,Windows,10,https://5puzkbbxv1.cognition.run/?sona_id=58116,"en-US,en;q=0.9",w7dktqv721958bh,19,"[""Asian""]",No,Male,NA,No,311003.8000000119,NA,887,NA,NA,NA,NA,NA,NA,NA,NA,NA,NA,NA,NA,NA,NA,NA,NA,NA,NA,NA,NA,NA,NA,NA,NA,NA
NA,NA,NA,NA,NA,choice_instructions,instructions,3,30288,0.0-3.0,106,1,2025-05-01T15:02:24Z,b60275e29fe2361ab97ac0ac217840d7,"Mozilla/5.0 (Windows NT 10.0; Win64; x64) AppleWebKit/537.36 (KHTML, like Gecko) Chrome/135.0.0.0 Safari/537.36",WebKit,Chrome,135.0.0.0,Windows,10,https://5puzkbbxv1.cognition.run/?sona_id=58116,"en-US,en;q=0.9",w7dktqv721958bh,19,"[""Asian""]",No,Male,NA,No,311003.8000000119,"[{""page_index"":0,""viewing_time"":946},{""page_index"":1,""viewing_time"":2048},{""page_index"":2,""viewing_time"":2682},{""page_index"":3,""viewing_time"":911},{""page_index"":4,""viewing_time"":609},{""page_index"":5,""viewing_time"":16678},{""page_index"":6,""viewing_time"":1776}]",25651,NA,NA,NA,NA,NA,NA,NA,NA,NA,NA,NA,NA,NA,NA,NA,NA,NA,NA,NA,NA,NA,NA,NA,NA,NA
NA,NA,NA,NA,NA,choice_trial_setup,html-keyboard-response,4,30598,0.0-4.0-0.0,106,1,2025-05-01T15:02:24Z,b60275e29fe2361ab97ac0ac217840d7,"Mozilla/5.0 (Windows NT 10.0; Win64; x64) AppleWebKit/537.36 (KHTML, like Gecko) Chrome/135.0.0.0 Safari/537.36",WebKit,Chrome,135.0.0.0,Windows,10,https://5puzkbbxv1.cognition.run/?sona_id=58116,"en-US,en;q=0.9",w7dktqv721958bh,19,"[""Asian""]",No,Male,NA,No,311003.8000000119,NA,null,<p></p>,null,choice,tc,binary,repulsion,1,laptops,null,null,null,null,null,null,2,NA,NA,NA,NA,NA,NA,NA,NA,NA,NA
NA,NA,NA,NA,NA,choice_trial,survey-html-form,5,40259,0.0-4.0-1.0,106,1,2025-05-01T15:02:24Z,b60275e29fe2361ab97ac0ac217840d7,"Mozilla/5.0 (Windows NT 10.0; Win64; x64) AppleWebKit/537.36 (KHTML, like Gecko) Chrome/135.0.0.0 Safari/537.36",WebKit,Chrome,135.0.0.0,Windows,10,https://5puzkbbxv1.cognition.run/?sona_id=58116,"en-US,en;q=0.9",w7dktqv721958bh,19,"[""Asian""]",No,Male,NA,No,311003.8000000119,NA,9657,NA,"{""product_choice"":""B""}",choice,tc,binary,repulsion,1,laptops,null,null,null,null,null,null,2,100,90,null,30,40,null,Processing speed,Memory (RAM),NA,NA
NA,NA,NA,NA,NA,choice_trial_setup,html-keyboard-response,6,40563,0.0-4.0-0.1,106,1,2025-05-01T15:02:24Z,b60275e29fe2361ab97ac0ac217840d7,"Mozilla/5.0 (Windows NT 10.0; Win64; x64) AppleWebKit/537.36 (KHTML, like Gecko) Chrome/135.0.0.0 Safari/537.36",WebKit,Chrome,135.0.0.0,Windows,10,https://5puzkbbxv1.cognition.run/?sona_id=58116,"en-US,en;q=0.9",w7dktqv721958bh,19,"[""Asian""]",No,Male,NA,No,311003.8000000119,NA,null,<p></p>,null,choice,tc,binary,repulsion,1,washing machines,null,null,null,null,null,null,2,NA,NA,NA,NA,NA,NA,NA,NA,NA,NA
NA,NA,NA,NA,NA,choice_trial,survey-html-form,7,47357,0.0-4.0-1.1,106,1,2025-05-01T15:02:24Z,b60275e29fe2361ab97ac0ac217840d7,"Mozilla/5.0 (Windows NT 10.0; Win64; x64) AppleWebKit/537.36 (KHTML, like Gecko) Chrome/135.0.0.0 Safari/537.36",WebKit,Chrome,135.0.0.0,Windows,10,https://5puzkbbxv1.cognition.run/?sona_id=58116,"en-US,en;q=0.9",w7dktqv721958bh,19,"[""Asian""]",No,Male,NA,No,311003.8000000119,NA,6791,NA,"{""product_choice"":""B""}",choice,tc,binary,repulsion,1,washing machines,null,null,null,null,null,null,2,100,90,null,30,40,null,Average lifespan,Energy savings,NA,NA
NA,NA,NA,NA,NA,choice_trial_setup,html-keyboard-response,8,47664,0.0-4.0-0.2,106,1,2025-05-01T15:02:24Z,b60275e29fe2361ab97ac0ac217840d7,"Mozilla/5.0 (Windows NT 10.0; Win64; x64) AppleWebKit/537.36 (KHTML, like Gecko) Chrome/135.0.0.0 Safari/537.36",WebKit,Chrome,135.0.0.0,Windows,10,https://5puzkbbxv1.cognition.run/?sona_id=58116,"en-US,en;q=0.9",w7dktqv721958bh,19,"[""Asian""]",No,Male,NA,No,311003.8000000119,NA,null,<p></p>,null,choice,dct,trinary,repulsion_A,2,televisions,null,null,null,null,null,null,2,NA,NA,NA,NA,NA,NA,NA,NA,NA,NA
NA,NA,NA,NA,NA,choice_trial,survey-html-form,9,55635,0.0-4.0-1.2,106,1,2025-05-01T15:02:24Z,b60275e29fe2361ab97ac0ac217840d7,"Mozilla/5.0 (Windows NT 10.0; Win64; x64) AppleWebKit/537.36 (KHTML, like Gecko) Chrome/135.0.0.0 Safari/537.36",WebKit,Chrome,135.0.0.0,Windows,10,https://5puzkbbxv1.cognition.run/?sona_id=58116,"en-US,en;q=0.9",w7dktqv721958bh,19,"[""Asian""]",No,Male,NA,No,311003.8000000119,NA,7969,NA,"{""product_choice"":""C""}",choice,dct,trinary,repulsion_A,2,televisions,null,null,null,null,null,null,2,30,40,20,100,90,100,Screen size,Average lifespan,NA,NA
NA,NA,NA,NA,NA,choice_trial_setup,html-keyboard-response,10,55950,0.0-4.0-0.3,106,1,2025-05-01T15:02:24Z,b60275e29fe2361ab97ac0ac217840d7,"Mozilla/5.0 (Windows NT 10.0; Win64; x64) AppleWebKit/537.36 (KHTML, like Gecko) Chrome/135.0.0.0 Safari/537.36",WebKit,Chrome,135.0.0.0,Windows,10,https://5puzkbbxv1.cognition.run/?sona_id=58116,"en-US,en;q=0.9",w7dktqv721958bh,19,"[""Asian""]",No,Male,NA,No,311003.8000000119,NA,null,<p></p>,null,choice,dtc,trinary,repulsion_A,2,washing machines,null,null,null,null,null,null,2,NA,NA,NA,NA,NA,NA,NA,NA,NA,NA
NA,NA,NA,NA,NA,choice_trial,survey-html-form,11,60193,0.0-4.0-1.3,106,1,2025-05-01T15:02:24Z,b60275e29fe2361ab97ac0ac217840d7,"Mozilla/5.0 (Windows NT 10.0; Win64; x64) AppleWebKit/537.36 (KHTML, like Gecko) Chrome/135.0.0.0 Safari/537.36",WebKit,Chrome,135.0.0.0,Windows,10,https://5puzkbbxv1.cognition.run/?sona_id=58116,"en-US,en;q=0.9",w7dktqv721958bh,19,"[""Asian""]",No,Male,NA,No,311003.8000000119,NA,4241,NA,"{""product_choice"":""B""}",choice,dtc,trinary,repulsion_A,2,washing machines,null,null,null,null,null,null,2,30,40,20,100,90,100,Average lifespan,Energy savings,NA,NA
NA,NA,NA,NA,NA,choice_trial_setup,html-keyboard-response,12,60497,0.0-4.0-0.4,106,1,2025-05-01T15:02:24Z,b60275e29fe2361ab97ac0ac217840d7,"Mozilla/5.0 (Windows NT 10.0; Win64; x64) AppleWebKit/537.36 (KHTML, like Gecko) Chrome/135.0.0.0 Safari/537.36",WebKit,Chrome,135.0.0.0,Windows,10,https://5puzkbbxv1.cognition.run/?sona_id=58116,"en-US,en;q=0.9",w7dktqv721958bh,19,"[""Asian""]",No,Male,NA,No,311003.8000000119,NA,null,<p></p>,null,choice,tc,binary,repulsion,2,laptops,null,null,null,null,null,null,2,NA,NA,NA,NA,NA,NA,NA,NA,NA,NA
NA,NA,NA,NA,NA,choice_trial,survey-html-form,13,70251,0.0-4.0-1.4,106,1,2025-05-01T15:02:24Z,b60275e29fe2361ab97ac0ac217840d7,"Mozilla/5.0 (Windows NT 10.0; Win64; x64) AppleWebKit/537.36 (KHTML, like Gecko) Chrome/135.0.0.0 Safari/537.36",WebKit,Chrome,135.0.0.0,Windows,10,https://5puzkbbxv1.cognition.run/?sona_id=58116,"en-US,en;q=0.9",w7dktqv721958bh,19,"[""Asian""]",No,Male,NA,No,311003.8000000119,NA,9752,NA,"{""product_choice"":""B""}",choice,tc,binary,repulsion,2,laptops,null,null,null,null,null,null,2,30,40,null,100,90,null,Processing speed,Memory (RAM),NA,NA
NA,NA,NA,NA,NA,choice_trial_setup,html-keyboard-response,14,70556,0.0-4.0-0.5,106,1,2025-05-01T15:02:24Z,b60275e29fe2361ab97ac0ac217840d7,"Mozilla/5.0 (Windows NT 10.0; Win64; x64) AppleWebKit/537.36 (KHTML, like Gecko) Chrome/135.0.0.0 Safari/537.36",WebKit,Chrome,135.0.0.0,Windows,10,https://5puzkbbxv1.cognition.run/?sona_id=58116,"en-US,en;q=0.9",w7dktqv721958bh,19,"[""Asian""]",No,Male,NA,No,311003.8000000119,NA,null,<p></p>,null,choice,bw,binary,catch,null,washing machines,95,85,15,15,null,null,1,NA,NA,NA,NA,NA,NA,NA,NA,NA,NA
NA,NA,NA,NA,NA,choice_trial,survey-html-form,15,74907,0.0-4.0-1.5,106,1,2025-05-01T15:02:24Z,b60275e29fe2361ab97ac0ac217840d7,"Mozilla/5.0 (Windows NT 10.0; Win64; x64) AppleWebKit/537.36 (KHTML, like Gecko) Chrome/135.0.0.0 Safari/537.36",WebKit,Chrome,135.0.0.0,Windows,10,https://5puzkbbxv1.cognition.run/?sona_id=58116,"en-US,en;q=0.9",w7dktqv721958bh,19,"[""Asian""]",No,Male,NA,No,311003.8000000119,NA,4348,NA,"{""product_choice"":""A""}",choice,bw,binary,catch,null,washing machines,95,85,15,15,null,null,1,null,null,null,null,null,null,Average lifespan,Energy savings,NA,NA
NA,NA,NA,NA,NA,choice_trial_setup,html-keyboard-response,16,75224,0.0-4.0-0.6,106,1,2025-05-01T15:02:24Z,b60275e29fe2361ab97ac0ac217840d7,"Mozilla/5.0 (Windows NT 10.0; Win64; x64) AppleWebKit/537.36 (KHTML, like Gecko) Chrome/135.0.0.0 Safari/537.36",WebKit,Chrome,135.0.0.0,Windows,10,https://5puzkbbxv1.cognition.run/?sona_id=58116,"en-US,en;q=0.9",w7dktqv721958bh,19,"[""Asian""]",No,Male,NA,No,311003.8000000119,NA,null,<p></p>,null,choice,cdt,trinary,attraction,1,televisions,null,null,null,null,null,null,2,NA,NA,NA,NA,NA,NA,NA,NA,NA,NA
NA,NA,NA,NA,NA,choice_trial,survey-html-form,17,85411,0.0-4.0-1.6,106,1,2025-05-01T15:02:24Z,b60275e29fe2361ab97ac0ac217840d7,"Mozilla/5.0 (Windows NT 10.0; Win64; x64) AppleWebKit/537.36 (KHTML, like Gecko) Chrome/135.0.0.0 Safari/537.36",WebKit,Chrome,135.0.0.0,Windows,10,https://5puzkbbxv1.cognition.run/?sona_id=58116,"en-US,en;q=0.9",w7dktqv721958bh,19,"[""Asian""]",No,Male,NA,No,311003.8000000119,NA,10186,NA,"{""product_choice"":""A""}",choice,cdt,trinary,attraction,1,televisions,null,null,null,null,null,null,2,60,50,60,50,60,40,Screen size,Average lifespan,NA,NA
NA,NA,NA,NA,NA,choice_trial_setup,html-keyboard-response,18,85716,0.0-4.0-0.7,106,1,2025-05-01T15:02:24Z,b60275e29fe2361ab97ac0ac217840d7,"Mozilla/5.0 (Windows NT 10.0; Win64; x64) AppleWebKit/537.36 (KHTML, like Gecko) Chrome/135.0.0.0 Safari/537.36",WebKit,Chrome,135.0.0.0,Windows,10,https://5puzkbbxv1.cognition.run/?sona_id=58116,"en-US,en;q=0.9",w7dktqv721958bh,19,"[""Asian""]",No,Male,NA,No,311003.8000000119,NA,null,<p></p>,null,choice,bww,trinary,catch,null,microwave ovens,55,90,30,30,20,25,1,NA,NA,NA,NA,NA,NA,NA,NA,NA,NA
NA,NA,NA,NA,NA,choice_trial,survey-html-form,19,89378,0.0-4.0-1.7,106,1,2025-05-01T15:02:24Z,b60275e29fe2361ab97ac0ac217840d7,"Mozilla/5.0 (Windows NT 10.0; Win64; x64) AppleWebKit/537.36 (KHTML, like Gecko) Chrome/135.0.0.0 Safari/537.36",WebKit,Chrome,135.0.0.0,Windows,10,https://5puzkbbxv1.cognition.run/?sona_id=58116,"en-US,en;q=0.9",w7dktqv721958bh,19,"[""Asian""]",No,Male,NA,No,311003.8000000119,NA,3660,NA,"{""product_choice"":""A""}",choice,bww,trinary,catch,null,microwave ovens,55,90,30,30,20,25,1,null,null,null,null,null,null,Warranty,Cooking power,NA,NA
NA,NA,NA,NA,NA,choice_trial_setup,html-keyboard-response,20,89682,0.0-4.0-0.8,106,1,2025-05-01T15:02:24Z,b60275e29fe2361ab97ac0ac217840d7,"Mozilla/5.0 (Windows NT 10.0; Win64; x64) AppleWebKit/537.36 (KHTML, like Gecko) Chrome/135.0.0.0 Safari/537.36",WebKit,Chrome,135.0.0.0,Windows,10,https://5puzkbbxv1.cognition.run/?sona_id=58116,"en-US,en;q=0.9",w7dktqv721958bh,19,"[""Asian""]",No,Male,NA,No,311003.8000000119,NA,null,<p></p>,null,choice,wb,binary,catch,null,microwave ovens,85,95,50,45,null,null,2,NA,NA,NA,NA,NA,NA,NA,NA,NA,NA
NA,NA,NA,NA,NA,choice_trial,survey-html-form,21,91947,0.0-4.0-1.8,106,1,2025-05-01T15:02:24Z,b60275e29fe2361ab97ac0ac217840d7,"Mozilla/5.0 (Windows NT 10.0; Win64; x64) AppleWebKit/537.36 (KHTML, like Gecko) Chrome/135.0.0.0 Safari/537.36",WebKit,Chrome,135.0.0.0,Windows,10,https://5puzkbbxv1.cognition.run/?sona_id=58116,"en-US,en;q=0.9",w7dktqv721958bh,19,"[""Asian""]",No,Male,NA,No,311003.8000000119,NA,2264,NA,"{""product_choice"":""B""}",choice,wb,binary,catch,null,microwave ovens,85,95,50,45,null,null,2,null,null,null,null,null,null,Warranty,Cooking power,NA,NA
NA,NA,NA,NA,NA,choice_trial_setup,html-keyboard-response,22,92256,0.0-4.0-0.9,106,1,2025-05-01T15:02:24Z,b60275e29fe2361ab97ac0ac217840d7,"Mozilla/5.0 (Windows NT 10.0; Win64; x64) AppleWebKit/537.36 (KHTML, like Gecko) Chrome/135.0.0.0 Safari/537.36",WebKit,Chrome,135.0.0.0,Windows,10,https://5puzkbbxv1.cognition.run/?sona_id=58116,"en-US,en;q=0.9",w7dktqv721958bh,19,"[""Asian""]",No,Male,NA,No,311003.8000000119,NA,null,<p></p>,null,choice,dct,trinary,attraction,2,washing machines,null,null,null,null,null,null,2,NA,NA,NA,NA,NA,NA,NA,NA,NA,NA
NA,NA,NA,NA,NA,choice_trial,survey-html-form,23,99941,0.0-4.0-1.9,106,1,2025-05-01T15:02:24Z,b60275e29fe2361ab97ac0ac217840d7,"Mozilla/5.0 (Windows NT 10.0; Win64; x64) AppleWebKit/537.36 (KHTML, like Gecko) Chrome/135.0.0.0 Safari/537.36",WebKit,Chrome,135.0.0.0,Windows,10,https://5puzkbbxv1.cognition.run/?sona_id=58116,"en-US,en;q=0.9",w7dktqv721958bh,19,"[""Asian""]",No,Male,NA,No,311003.8000000119,NA,7682,NA,"{""product_choice"":""C""}",choice,dct,trinary,attraction,2,washing machines,null,null,null,null,null,null,2,50,60,40,60,50,60,Average lifespan,Energy savings,NA,NA
NA,NA,NA,NA,NA,choice_trial_setup,html-keyboard-response,24,100243,0.0-4.0-0.10,106,1,2025-05-01T15:02:24Z,b60275e29fe2361ab97ac0ac217840d7,"Mozilla/5.0 (Windows NT 10.0; Win64; x64) AppleWebKit/537.36 (KHTML, like Gecko) Chrome/135.0.0.0 Safari/537.36",WebKit,Chrome,135.0.0.0,Windows,10,https://5puzkbbxv1.cognition.run/?sona_id=58116,"en-US,en;q=0.9",w7dktqv721958bh,19,"[""Asian""]",No,Male,NA,No,311003.8000000119,NA,null,<p></p>,null,choice,ctd,trinary,repulsion_A,2,microwave ovens,null,null,null,null,null,null,2,NA,NA,NA,NA,NA,NA,NA,NA,NA,NA
NA,NA,NA,NA,NA,choice_trial,survey-html-form,25,111363,0.0-4.0-1.10,106,1,2025-05-01T15:02:24Z,b60275e29fe2361ab97ac0ac217840d7,"Mozilla/5.0 (Windows NT 10.0; Win64; x64) AppleWebKit/537.36 (KHTML, like Gecko) Chrome/135.0.0.0 Safari/537.36",WebKit,Chrome,135.0.0.0,Windows,10,https://5puzkbbxv1.cognition.run/?sona_id=58116,"en-US,en;q=0.9",w7dktqv721958bh,19,"[""Asian""]",No,Male,NA,No,311003.8000000119,NA,11116,NA,"{""product_choice"":""B""}",choice,ctd,trinary,repulsion_A,2,microwave ovens,null,null,null,null,null,null,2,30,40,20,100,90,100,Warranty,Cooking power,NA,NA
NA,NA,NA,NA,NA,choice_trial_setup,html-keyboard-response,26,111679,0.0-4.0-0.11,106,1,2025-05-01T15:02:24Z,b60275e29fe2361ab97ac0ac217840d7,"Mozilla/5.0 (Windows NT 10.0; Win64; x64) AppleWebKit/537.36 (KHTML, like Gecko) Chrome/135.0.0.0 Safari/537.36",WebKit,Chrome,135.0.0.0,Windows,10,https://5puzkbbxv1.cognition.run/?sona_id=58116,"en-US,en;q=0.9",w7dktqv721958bh,19,"[""Asian""]",No,Male,NA,No,311003.8000000119,NA,null,<p></p>,null,choice,ctd,trinary,repulsion_B,1,washing machines,null,null,null,null,null,null,1,NA,NA,NA,NA,NA,NA,NA,NA,NA,NA
NA,NA,NA,NA,NA,choice_trial,survey-html-form,27,117068,0.0-4.0-1.11,106,1,2025-05-01T15:02:24Z,b60275e29fe2361ab97ac0ac217840d7,"Mozilla/5.0 (Windows NT 10.0; Win64; x64) AppleWebKit/537.36 (KHTML, like Gecko) Chrome/135.0.0.0 Safari/537.36",WebKit,Chrome,135.0.0.0,Windows,10,https://5puzkbbxv1.cognition.run/?sona_id=58116,"en-US,en;q=0.9",w7dktqv721958bh,19,"[""Asian""]",No,Male,NA,No,311003.8000000119,NA,5387,NA,"{""product_choice"":""B""}",choice,ctd,trinary,repulsion_B,1,washing machines,null,null,null,null,null,null,1,90,100,80,40,30,40,Average lifespan,Energy savings,NA,NA
NA,NA,NA,NA,NA,choice_trial_setup,html-keyboard-response,28,117370,0.0-4.0-0.12,106,1,2025-05-01T15:02:24Z,b60275e29fe2361ab97ac0ac217840d7,"Mozilla/5.0 (Windows NT 10.0; Win64; x64) AppleWebKit/537.36 (KHTML, like Gecko) Chrome/135.0.0.0 Safari/537.36",WebKit,Chrome,135.0.0.0,Windows,10,https://5puzkbbxv1.cognition.run/?sona_id=58116,"en-US,en;q=0.9",w7dktqv721958bh,19,"[""Asian""]",No,Male,NA,No,311003.8000000119,NA,null,<p></p>,null,choice,dtc,trinary,attraction,1,washing machines,null,null,null,null,null,null,1,NA,NA,NA,NA,NA,NA,NA,NA,NA,NA
NA,NA,NA,NA,NA,choice_trial,survey-html-form,29,123984,0.0-4.0-1.12,106,1,2025-05-01T15:02:24Z,b60275e29fe2361ab97ac0ac217840d7,"Mozilla/5.0 (Windows NT 10.0; Win64; x64) AppleWebKit/537.36 (KHTML, like Gecko) Chrome/135.0.0.0 Safari/537.36",WebKit,Chrome,135.0.0.0,Windows,10,https://5puzkbbxv1.cognition.run/?sona_id=58116,"en-US,en;q=0.9",w7dktqv721958bh,19,"[""Asian""]",No,Male,NA,No,311003.8000000119,NA,6612,NA,"{""product_choice"":""C""}",choice,dtc,trinary,attraction,1,washing machines,null,null,null,null,null,null,1,60,50,60,50,60,40,Average lifespan,Energy savings,NA,NA
NA,NA,NA,NA,NA,choice_trial_setup,html-keyboard-response,30,124292,0.0-4.0-0.13,106,1,2025-05-01T15:02:24Z,b60275e29fe2361ab97ac0ac217840d7,"Mozilla/5.0 (Windows NT 10.0; Win64; x64) AppleWebKit/537.36 (KHTML, like Gecko) Chrome/135.0.0.0 Safari/537.36",WebKit,Chrome,135.0.0.0,Windows,10,https://5puzkbbxv1.cognition.run/?sona_id=58116,"en-US,en;q=0.9",w7dktqv721958bh,19,"[""Asian""]",No,Male,NA,No,311003.8000000119,NA,null,<p></p>,null,choice,wwb,trinary,catch,null,laptops,50,80,35,5,50,50,1,NA,NA,NA,NA,NA,NA,NA,NA,NA,NA
NA,NA,NA,NA,NA,choice_trial,survey-html-form,31,130973,0.0-4.0-1.13,106,1,2025-05-01T15:02:24Z,b60275e29fe2361ab97ac0ac217840d7,"Mozilla/5.0 (Windows NT 10.0; Win64; x64) AppleWebKit/537.36 (KHTML, like Gecko) Chrome/135.0.0.0 Safari/537.36",WebKit,Chrome,135.0.0.0,Windows,10,https://5puzkbbxv1.cognition.run/?sona_id=58116,"en-US,en;q=0.9",w7dktqv721958bh,19,"[""Asian""]",No,Male,NA,No,311003.8000000119,NA,6676,NA,"{""product_choice"":""B""}",choice,wwb,trinary,catch,null,laptops,50,80,35,5,50,50,1,null,null,null,null,null,null,Processing speed,Memory (RAM),NA,NA
NA,NA,NA,NA,NA,choice_trial_setup,html-keyboard-response,32,131284,0.0-4.0-0.14,106,1,2025-05-01T15:02:24Z,b60275e29fe2361ab97ac0ac217840d7,"Mozilla/5.0 (Windows NT 10.0; Win64; x64) AppleWebKit/537.36 (KHTML, like Gecko) Chrome/135.0.0.0 Safari/537.36",WebKit,Chrome,135.0.0.0,Windows,10,https://5puzkbbxv1.cognition.run/?sona_id=58116,"en-US,en;q=0.9",w7dktqv721958bh,19,"[""Asian""]",No,Male,NA,No,311003.8000000119,NA,null,<p></p>,null,choice,tc,binary,repulsion,1,microwave ovens,null,null,null,null,null,null,1,NA,NA,NA,NA,NA,NA,NA,NA,NA,NA
NA,NA,NA,NA,NA,choice_trial,survey-html-form,33,134748,0.0-4.0-1.14,106,1,2025-05-01T15:02:24Z,b60275e29fe2361ab97ac0ac217840d7,"Mozilla/5.0 (Windows NT 10.0; Win64; x64) AppleWebKit/537.36 (KHTML, like Gecko) Chrome/135.0.0.0 Safari/537.36",WebKit,Chrome,135.0.0.0,Windows,10,https://5puzkbbxv1.cognition.run/?sona_id=58116,"en-US,en;q=0.9",w7dktqv721958bh,19,"[""Asian""]",No,Male,NA,No,311003.8000000119,NA,3463,NA,"{""product_choice"":""B""}",choice,tc,binary,repulsion,1,microwave ovens,null,null,null,null,null,null,1,100,90,null,30,40,null,Warranty,Cooking power,NA,NA
NA,NA,NA,NA,NA,choice_trial_setup,html-keyboard-response,34,135054,0.0-4.0-0.15,106,1,2025-05-01T15:02:24Z,b60275e29fe2361ab97ac0ac217840d7,"Mozilla/5.0 (Windows NT 10.0; Win64; x64) AppleWebKit/537.36 (KHTML, like Gecko) Chrome/135.0.0.0 Safari/537.36",WebKit,Chrome,135.0.0.0,Windows,10,https://5puzkbbxv1.cognition.run/?sona_id=58116,"en-US,en;q=0.9",w7dktqv721958bh,19,"[""Asian""]",No,Male,NA,No,311003.8000000119,NA,null,<p></p>,null,choice,tdc,trinary,attraction,2,laptops,null,null,null,null,null,null,1,NA,NA,NA,NA,NA,NA,NA,NA,NA,NA
NA,NA,NA,NA,NA,choice_trial,survey-html-form,35,141316,0.0-4.0-1.15,106,1,2025-05-01T15:02:24Z,b60275e29fe2361ab97ac0ac217840d7,"Mozilla/5.0 (Windows NT 10.0; Win64; x64) AppleWebKit/537.36 (KHTML, like Gecko) Chrome/135.0.0.0 Safari/537.36",WebKit,Chrome,135.0.0.0,Windows,10,https://5puzkbbxv1.cognition.run/?sona_id=58116,"en-US,en;q=0.9",w7dktqv721958bh,19,"[""Asian""]",No,Male,NA,No,311003.8000000119,NA,6260,NA,"{""product_choice"":""C""}",choice,tdc,trinary,attraction,2,laptops,null,null,null,null,null,null,1,50,60,40,60,50,60,Processing speed,Memory (RAM),NA,NA
NA,NA,NA,NA,NA,choice_trial_setup,html-keyboard-response,36,141630,0.0-4.0-0.16,106,1,2025-05-01T15:02:24Z,b60275e29fe2361ab97ac0ac217840d7,"Mozilla/5.0 (Windows NT 10.0; Win64; x64) AppleWebKit/537.36 (KHTML, like Gecko) Chrome/135.0.0.0 Safari/537.36",WebKit,Chrome,135.0.0.0,Windows,10,https://5puzkbbxv1.cognition.run/?sona_id=58116,"en-US,en;q=0.9",w7dktqv721958bh,19,"[""Asian""]",No,Male,NA,No,311003.8000000119,NA,null,<p></p>,null,choice,bw,binary,catch,null,laptops,70,90,15,20,null,null,1,NA,NA,NA,NA,NA,NA,NA,NA,NA,NA
NA,NA,NA,NA,NA,choice_trial,survey-html-form,37,146444,0.0-4.0-1.16,106,1,2025-05-01T15:02:24Z,b60275e29fe2361ab97ac0ac217840d7,"Mozilla/5.0 (Windows NT 10.0; Win64; x64) AppleWebKit/537.36 (KHTML, like Gecko) Chrome/135.0.0.0 Safari/537.36",WebKit,Chrome,135.0.0.0,Windows,10,https://5puzkbbxv1.cognition.run/?sona_id=58116,"en-US,en;q=0.9",w7dktqv721958bh,19,"[""Asian""]",No,Male,NA,No,311003.8000000119,NA,4812,NA,"{""product_choice"":""A""}",choice,bw,binary,catch,null,laptops,70,90,15,20,null,null,1,null,null,null,null,null,null,Processing speed,Memory (RAM),NA,NA
NA,NA,NA,NA,NA,choice_trial_setup,html-keyboard-response,38,146754,0.0-4.0-0.17,106,1,2025-05-01T15:02:24Z,b60275e29fe2361ab97ac0ac217840d7,"Mozilla/5.0 (Windows NT 10.0; Win64; x64) AppleWebKit/537.36 (KHTML, like Gecko) Chrome/135.0.0.0 Safari/537.36",WebKit,Chrome,135.0.0.0,Windows,10,https://5puzkbbxv1.cognition.run/?sona_id=58116,"en-US,en;q=0.9",w7dktqv721958bh,19,"[""Asian""]",No,Male,NA,No,311003.8000000119,NA,null,<p></p>,null,choice,tcd,trinary,attraction,2,microwave ovens,null,null,null,null,null,null,1,NA,NA,NA,NA,NA,NA,NA,NA,NA,NA
NA,NA,NA,NA,NA,choice_trial,survey-html-form,39,152509,0.0-4.0-1.17,106,1,2025-05-01T15:02:24Z,b60275e29fe2361ab97ac0ac217840d7,"Mozilla/5.0 (Windows NT 10.0; Win64; x64) AppleWebKit/537.36 (KHTML, like Gecko) Chrome/135.0.0.0 Safari/537.36",WebKit,Chrome,135.0.0.0,Windows,10,https://5puzkbbxv1.cognition.run/?sona_id=58116,"en-US,en;q=0.9",w7dktqv721958bh,19,"[""Asian""]",No,Male,NA,No,311003.8000000119,NA,5753,NA,"{""product_choice"":""B""}",choice,tcd,trinary,attraction,2,microwave ovens,null,null,null,null,null,null,1,50,60,40,60,50,60,Warranty,Cooking power,NA,NA
NA,NA,NA,NA,NA,choice_trial_setup,html-keyboard-response,40,152816,0.0-4.0-0.18,106,1,2025-05-01T15:02:24Z,b60275e29fe2361ab97ac0ac217840d7,"Mozilla/5.0 (Windows NT 10.0; Win64; x64) AppleWebKit/537.36 (KHTML, like Gecko) Chrome/135.0.0.0 Safari/537.36",WebKit,Chrome,135.0.0.0,Windows,10,https://5puzkbbxv1.cognition.run/?sona_id=58116,"en-US,en;q=0.9",w7dktqv721958bh,19,"[""Asian""]",No,Male,NA,No,311003.8000000119,NA,null,<p></p>,null,choice,ct,binary,attraction,NA,microwave ovens,null,null,null,null,null,null,2,NA,NA,NA,NA,NA,NA,NA,NA,NA,NA
NA,NA,NA,NA,NA,choice_trial,survey-html-form,41,155709,0.0-4.0-1.18,106,1,2025-05-01T15:02:24Z,b60275e29fe2361ab97ac0ac217840d7,"Mozilla/5.0 (Windows NT 10.0; Win64; x64) AppleWebKit/537.36 (KHTML, like Gecko) Chrome/135.0.0.0 Safari/537.36",WebKit,Chrome,135.0.0.0,Windows,10,https://5puzkbbxv1.cognition.run/?sona_id=58116,"en-US,en;q=0.9",w7dktqv721958bh,19,"[""Asian""]",No,Male,NA,No,311003.8000000119,NA,2891,NA,"{""product_choice"":""A""}",choice,ct,binary,attraction,NA,microwave ovens,null,null,null,null,null,null,2,60,50,null,50,60,null,Warranty,Cooking power,NA,NA
NA,NA,NA,NA,NA,choice_trial_setup,html-keyboard-response,42,156011,0.0-4.0-0.19,106,1,2025-05-01T15:02:24Z,b60275e29fe2361ab97ac0ac217840d7,"Mozilla/5.0 (Windows NT 10.0; Win64; x64) AppleWebKit/537.36 (KHTML, like Gecko) Chrome/135.0.0.0 Safari/537.36",WebKit,Chrome,135.0.0.0,Windows,10,https://5puzkbbxv1.cognition.run/?sona_id=58116,"en-US,en;q=0.9",w7dktqv721958bh,19,"[""Asian""]",No,Male,NA,No,311003.8000000119,NA,null,<p></p>,null,choice,dct,trinary,attraction,2,televisions,null,null,null,null,null,null,2,NA,NA,NA,NA,NA,NA,NA,NA,NA,NA
NA,NA,NA,NA,NA,choice_trial,survey-html-form,43,160141,0.0-4.0-1.19,106,1,2025-05-01T15:02:24Z,b60275e29fe2361ab97ac0ac217840d7,"Mozilla/5.0 (Windows NT 10.0; Win64; x64) AppleWebKit/537.36 (KHTML, like Gecko) Chrome/135.0.0.0 Safari/537.36",WebKit,Chrome,135.0.0.0,Windows,10,https://5puzkbbxv1.cognition.run/?sona_id=58116,"en-US,en;q=0.9",w7dktqv721958bh,19,"[""Asian""]",No,Male,NA,No,311003.8000000119,NA,4128,NA,"{""product_choice"":""C""}",choice,dct,trinary,attraction,2,televisions,null,null,null,null,null,null,2,50,60,40,60,50,60,Screen size,Average lifespan,NA,NA
NA,NA,NA,NA,NA,choice_trial_setup,html-keyboard-response,44,160443,0.0-4.0-0.20,106,1,2025-05-01T15:02:24Z,b60275e29fe2361ab97ac0ac217840d7,"Mozilla/5.0 (Windows NT 10.0; Win64; x64) AppleWebKit/537.36 (KHTML, like Gecko) Chrome/135.0.0.0 Safari/537.36",WebKit,Chrome,135.0.0.0,Windows,10,https://5puzkbbxv1.cognition.run/?sona_id=58116,"en-US,en;q=0.9",w7dktqv721958bh,19,"[""Asian""]",No,Male,NA,No,311003.8000000119,NA,null,<p></p>,null,choice,ctd,trinary,repulsion_B,2,laptops,null,null,null,null,null,null,1,NA,NA,NA,NA,NA,NA,NA,NA,NA,NA
NA,NA,NA,NA,NA,choice_trial,survey-html-form,45,164232,0.0-4.0-1.20,106,1,2025-05-01T15:02:24Z,b60275e29fe2361ab97ac0ac217840d7,"Mozilla/5.0 (Windows NT 10.0; Win64; x64) AppleWebKit/537.36 (KHTML, like Gecko) Chrome/135.0.0.0 Safari/537.36",WebKit,Chrome,135.0.0.0,Windows,10,https://5puzkbbxv1.cognition.run/?sona_id=58116,"en-US,en;q=0.9",w7dktqv721958bh,19,"[""Asian""]",No,Male,NA,No,311003.8000000119,NA,3787,NA,"{""product_choice"":""B""}",choice,ctd,trinary,repulsion_B,2,laptops,null,null,null,null,null,null,1,40,30,40,90,100,80,Processing speed,Memory (RAM),NA,NA
NA,NA,NA,NA,NA,choice_trial_setup,html-keyboard-response,46,164535,0.0-4.0-0.21,106,1,2025-05-01T15:02:24Z,b60275e29fe2361ab97ac0ac217840d7,"Mozilla/5.0 (Windows NT 10.0; Win64; x64) AppleWebKit/537.36 (KHTML, like Gecko) Chrome/135.0.0.0 Safari/537.36",WebKit,Chrome,135.0.0.0,Windows,10,https://5puzkbbxv1.cognition.run/?sona_id=58116,"en-US,en;q=0.9",w7dktqv721958bh,19,"[""Asian""]",No,Male,NA,No,311003.8000000119,NA,null,<p></p>,null,choice,bww,trinary,catch,null,televisions,85,50,40,40,30,5,1,NA,NA,NA,NA,NA,NA,NA,NA,NA,NA
NA,NA,NA,NA,NA,choice_trial,survey-html-form,47,170630,0.0-4.0-1.21,106,1,2025-05-01T15:02:24Z,b60275e29fe2361ab97ac0ac217840d7,"Mozilla/5.0 (Windows NT 10.0; Win64; x64) AppleWebKit/537.36 (KHTML, like Gecko) Chrome/135.0.0.0 Safari/537.36",WebKit,Chrome,135.0.0.0,Windows,10,https://5puzkbbxv1.cognition.run/?sona_id=58116,"en-US,en;q=0.9",w7dktqv721958bh,19,"[""Asian""]",No,Male,NA,No,311003.8000000119,NA,6094,NA,"{""product_choice"":""A""}",choice,bww,trinary,catch,null,televisions,85,50,40,40,30,5,1,null,null,null,null,null,null,Screen size,Average lifespan,NA,NA
NA,NA,NA,NA,NA,choice_trial_setup,html-keyboard-response,48,170936,0.0-4.0-0.22,106,1,2025-05-01T15:02:24Z,b60275e29fe2361ab97ac0ac217840d7,"Mozilla/5.0 (Windows NT 10.0; Win64; x64) AppleWebKit/537.36 (KHTML, like Gecko) Chrome/135.0.0.0 Safari/537.36",WebKit,Chrome,135.0.0.0,Windows,10,https://5puzkbbxv1.cognition.run/?sona_id=58116,"en-US,en;q=0.9",w7dktqv721958bh,19,"[""Asian""]",No,Male,NA,No,311003.8000000119,NA,null,<p></p>,null,choice,bw,binary,catch,null,televisions,60,65,40,5,null,null,2,NA,NA,NA,NA,NA,NA,NA,NA,NA,NA
NA,NA,NA,NA,NA,choice_trial,survey-html-form,49,173661,0.0-4.0-1.22,106,1,2025-05-01T15:02:24Z,b60275e29fe2361ab97ac0ac217840d7,"Mozilla/5.0 (Windows NT 10.0; Win64; x64) AppleWebKit/537.36 (KHTML, like Gecko) Chrome/135.0.0.0 Safari/537.36",WebKit,Chrome,135.0.0.0,Windows,10,https://5puzkbbxv1.cognition.run/?sona_id=58116,"en-US,en;q=0.9",w7dktqv721958bh,19,"[""Asian""]",No,Male,NA,No,311003.8000000119,NA,2723,NA,"{""product_choice"":""A""}",choice,bw,binary,catch,null,televisions,60,65,40,5,null,null,2,null,null,null,null,null,null,Screen size,Average lifespan,NA,NA
NA,NA,NA,NA,NA,choice_trial_setup,html-keyboard-response,50,173975,0.0-4.0-0.23,106,1,2025-05-01T15:02:24Z,b60275e29fe2361ab97ac0ac217840d7,"Mozilla/5.0 (Windows NT 10.0; Win64; x64) AppleWebKit/537.36 (KHTML, like Gecko) Chrome/135.0.0.0 Safari/537.36",WebKit,Chrome,135.0.0.0,Windows,10,https://5puzkbbxv1.cognition.run/?sona_id=58116,"en-US,en;q=0.9",w7dktqv721958bh,19,"[""Asian""]",No,Male,NA,No,311003.8000000119,NA,null,<p></p>,null,choice,cdt,trinary,repulsion_B,2,microwave ovens,null,null,null,null,null,null,1,NA,NA,NA,NA,NA,NA,NA,NA,NA,NA
NA,NA,NA,NA,NA,choice_trial,survey-html-form,51,177239,0.0-4.0-1.23,106,1,2025-05-01T15:02:24Z,b60275e29fe2361ab97ac0ac217840d7,"Mozilla/5.0 (Windows NT 10.0; Win64; x64) AppleWebKit/537.36 (KHTML, like Gecko) Chrome/135.0.0.0 Safari/537.36",WebKit,Chrome,135.0.0.0,Windows,10,https://5puzkbbxv1.cognition.run/?sona_id=58116,"en-US,en;q=0.9",w7dktqv721958bh,19,"[""Asian""]",No,Male,NA,No,311003.8000000119,NA,3261,NA,"{""product_choice"":""C""}",choice,cdt,trinary,repulsion_B,2,microwave ovens,null,null,null,null,null,null,1,40,30,40,90,100,80,Warranty,Cooking power,NA,NA
NA,NA,NA,NA,NA,choice_trial_setup,html-keyboard-response,52,177544,0.0-4.0-0.24,106,1,2025-05-01T15:02:24Z,b60275e29fe2361ab97ac0ac217840d7,"Mozilla/5.0 (Windows NT 10.0; Win64; x64) AppleWebKit/537.36 (KHTML, like Gecko) Chrome/135.0.0.0 Safari/537.36",WebKit,Chrome,135.0.0.0,Windows,10,https://5puzkbbxv1.cognition.run/?sona_id=58116,"en-US,en;q=0.9",w7dktqv721958bh,19,"[""Asian""]",No,Male,NA,No,311003.8000000119,NA,null,<p></p>,null,choice,dtc,trinary,attraction,1,laptops,null,null,null,null,null,null,2,NA,NA,NA,NA,NA,NA,NA,NA,NA,NA
NA,NA,NA,NA,NA,choice_trial,survey-html-form,53,180814,0.0-4.0-1.24,106,1,2025-05-01T15:02:24Z,b60275e29fe2361ab97ac0ac217840d7,"Mozilla/5.0 (Windows NT 10.0; Win64; x64) AppleWebKit/537.36 (KHTML, like Gecko) Chrome/135.0.0.0 Safari/537.36",WebKit,Chrome,135.0.0.0,Windows,10,https://5puzkbbxv1.cognition.run/?sona_id=58116,"en-US,en;q=0.9",w7dktqv721958bh,19,"[""Asian""]",No,Male,NA,No,311003.8000000119,NA,3266,NA,"{""product_choice"":""C""}",choice,dtc,trinary,attraction,1,laptops,null,null,null,null,null,null,2,60,50,60,50,60,40,Processing speed,Memory (RAM),NA,NA
NA,NA,NA,NA,NA,choice_trial_setup,html-keyboard-response,54,181125,0.0-4.0-0.25,106,1,2025-05-01T15:02:24Z,b60275e29fe2361ab97ac0ac217840d7,"Mozilla/5.0 (Windows NT 10.0; Win64; x64) AppleWebKit/537.36 (KHTML, like Gecko) Chrome/135.0.0.0 Safari/537.36",WebKit,Chrome,135.0.0.0,Windows,10,https://5puzkbbxv1.cognition.run/?sona_id=58116,"en-US,en;q=0.9",w7dktqv721958bh,19,"[""Asian""]",No,Male,NA,No,311003.8000000119,NA,null,<p></p>,null,choice,tdc,trinary,repulsion_A,1,microwave ovens,null,null,null,null,null,null,2,NA,NA,NA,NA,NA,NA,NA,NA,NA,NA
NA,NA,NA,NA,NA,choice_trial,survey-html-form,55,185029,0.0-4.0-1.25,106,1,2025-05-01T15:02:24Z,b60275e29fe2361ab97ac0ac217840d7,"Mozilla/5.0 (Windows NT 10.0; Win64; x64) AppleWebKit/537.36 (KHTML, like Gecko) Chrome/135.0.0.0 Safari/537.36",WebKit,Chrome,135.0.0.0,Windows,10,https://5puzkbbxv1.cognition.run/?sona_id=58116,"en-US,en;q=0.9",w7dktqv721958bh,19,"[""Asian""]",No,Male,NA,No,311003.8000000119,NA,3901,NA,"{""product_choice"":""C""}",choice,tdc,trinary,repulsion_A,1,microwave ovens,null,null,null,null,null,null,2,100,90,100,30,40,20,Warranty,Cooking power,NA,NA
NA,NA,NA,NA,NA,choice_trial_setup,html-keyboard-response,56,185331,0.0-4.0-0.26,106,1,2025-05-01T15:02:24Z,b60275e29fe2361ab97ac0ac217840d7,"Mozilla/5.0 (Windows NT 10.0; Win64; x64) AppleWebKit/537.36 (KHTML, like Gecko) Chrome/135.0.0.0 Safari/537.36",WebKit,Chrome,135.0.0.0,Windows,10,https://5puzkbbxv1.cognition.run/?sona_id=58116,"en-US,en;q=0.9",w7dktqv721958bh,19,"[""Asian""]",No,Male,NA,No,311003.8000000119,NA,null,<p></p>,null,choice,tc,binary,repulsion,2,microwave ovens,null,null,null,null,null,null,1,NA,NA,NA,NA,NA,NA,NA,NA,NA,NA
NA,NA,NA,NA,NA,choice_trial,survey-html-form,57,192543,0.0-4.0-1.26,106,1,2025-05-01T15:02:24Z,b60275e29fe2361ab97ac0ac217840d7,"Mozilla/5.0 (Windows NT 10.0; Win64; x64) AppleWebKit/537.36 (KHTML, like Gecko) Chrome/135.0.0.0 Safari/537.36",WebKit,Chrome,135.0.0.0,Windows,10,https://5puzkbbxv1.cognition.run/?sona_id=58116,"en-US,en;q=0.9",w7dktqv721958bh,19,"[""Asian""]",No,Male,NA,No,311003.8000000119,NA,7208,NA,"{""product_choice"":""B""}",choice,tc,binary,repulsion,2,microwave ovens,null,null,null,null,null,null,1,30,40,null,100,90,null,Warranty,Cooking power,NA,NA
NA,NA,NA,NA,NA,choice_trial_setup,html-keyboard-response,58,192852,0.0-4.0-0.27,106,1,2025-05-01T15:02:24Z,b60275e29fe2361ab97ac0ac217840d7,"Mozilla/5.0 (Windows NT 10.0; Win64; x64) AppleWebKit/537.36 (KHTML, like Gecko) Chrome/135.0.0.0 Safari/537.36",WebKit,Chrome,135.0.0.0,Windows,10,https://5puzkbbxv1.cognition.run/?sona_id=58116,"en-US,en;q=0.9",w7dktqv721958bh,19,"[""Asian""]",No,Male,NA,No,311003.8000000119,NA,null,<p></p>,null,choice,tdc,trinary,repulsion_B,1,microwave ovens,null,null,null,null,null,null,1,NA,NA,NA,NA,NA,NA,NA,NA,NA,NA
NA,NA,NA,NA,NA,choice_trial,survey-html-form,59,198671,0.0-4.0-1.27,106,1,2025-05-01T15:02:24Z,b60275e29fe2361ab97ac0ac217840d7,"Mozilla/5.0 (Windows NT 10.0; Win64; x64) AppleWebKit/537.36 (KHTML, like Gecko) Chrome/135.0.0.0 Safari/537.36",WebKit,Chrome,135.0.0.0,Windows,10,https://5puzkbbxv1.cognition.run/?sona_id=58116,"en-US,en;q=0.9",w7dktqv721958bh,19,"[""Asian""]",No,Male,NA,No,311003.8000000119,NA,5817,NA,"{""product_choice"":""A""}",choice,tdc,trinary,repulsion_B,1,microwave ovens,null,null,null,null,null,null,1,90,100,80,40,30,40,Warranty,Cooking power,NA,NA
NA,NA,NA,NA,NA,choice_trial_setup,html-keyboard-response,60,198980,0.0-4.0-0.28,106,1,2025-05-01T15:02:24Z,b60275e29fe2361ab97ac0ac217840d7,"Mozilla/5.0 (Windows NT 10.0; Win64; x64) AppleWebKit/537.36 (KHTML, like Gecko) Chrome/135.0.0.0 Safari/537.36",WebKit,Chrome,135.0.0.0,Windows,10,https://5puzkbbxv1.cognition.run/?sona_id=58116,"en-US,en;q=0.9",w7dktqv721958bh,19,"[""Asian""]",No,Male,NA,No,311003.8000000119,NA,null,<p></p>,null,choice,ct,binary,repulsion,1,televisions,null,null,null,null,null,null,1,NA,NA,NA,NA,NA,NA,NA,NA,NA,NA
NA,NA,NA,NA,NA,choice_trial,survey-html-form,61,204438,0.0-4.0-1.28,106,1,2025-05-01T15:02:24Z,b60275e29fe2361ab97ac0ac217840d7,"Mozilla/5.0 (Windows NT 10.0; Win64; x64) AppleWebKit/537.36 (KHTML, like Gecko) Chrome/135.0.0.0 Safari/537.36",WebKit,Chrome,135.0.0.0,Windows,10,https://5puzkbbxv1.cognition.run/?sona_id=58116,"en-US,en;q=0.9",w7dktqv721958bh,19,"[""Asian""]",No,Male,NA,No,311003.8000000119,NA,5454,NA,"{""product_choice"":""A""}",choice,ct,binary,repulsion,1,televisions,null,null,null,null,null,null,1,100,90,null,30,40,null,Screen size,Average lifespan,NA,NA
NA,NA,NA,NA,NA,choice_trial_setup,html-keyboard-response,62,204748,0.0-4.0-0.29,106,1,2025-05-01T15:02:24Z,b60275e29fe2361ab97ac0ac217840d7,"Mozilla/5.0 (Windows NT 10.0; Win64; x64) AppleWebKit/537.36 (KHTML, like Gecko) Chrome/135.0.0.0 Safari/537.36",WebKit,Chrome,135.0.0.0,Windows,10,https://5puzkbbxv1.cognition.run/?sona_id=58116,"en-US,en;q=0.9",w7dktqv721958bh,19,"[""Asian""]",No,Male,NA,No,311003.8000000119,NA,null,<p></p>,null,choice,tc,binary,repulsion,2,televisions,null,null,null,null,null,null,2,NA,NA,NA,NA,NA,NA,NA,NA,NA,NA
NA,NA,NA,NA,NA,choice_trial,survey-html-form,63,208294,0.0-4.0-1.29,106,1,2025-05-01T15:02:24Z,b60275e29fe2361ab97ac0ac217840d7,"Mozilla/5.0 (Windows NT 10.0; Win64; x64) AppleWebKit/537.36 (KHTML, like Gecko) Chrome/135.0.0.0 Safari/537.36",WebKit,Chrome,135.0.0.0,Windows,10,https://5puzkbbxv1.cognition.run/?sona_id=58116,"en-US,en;q=0.9",w7dktqv721958bh,19,"[""Asian""]",No,Male,NA,No,311003.8000000119,NA,3543,NA,"{""product_choice"":""A""}",choice,tc,binary,repulsion,2,televisions,null,null,null,null,null,null,2,30,40,null,100,90,null,Screen size,Average lifespan,NA,NA
NA,NA,NA,NA,NA,choice_trial_setup,html-keyboard-response,64,208603,0.0-4.0-0.30,106,1,2025-05-01T15:02:24Z,b60275e29fe2361ab97ac0ac217840d7,"Mozilla/5.0 (Windows NT 10.0; Win64; x64) AppleWebKit/537.36 (KHTML, like Gecko) Chrome/135.0.0.0 Safari/537.36",WebKit,Chrome,135.0.0.0,Windows,10,https://5puzkbbxv1.cognition.run/?sona_id=58116,"en-US,en;q=0.9",w7dktqv721958bh,19,"[""Asian""]",No,Male,NA,No,311003.8000000119,NA,null,<p></p>,null,choice,ctd,trinary,repulsion_B,2,washing machines,null,null,null,null,null,null,1,NA,NA,NA,NA,NA,NA,NA,NA,NA,NA
NA,NA,NA,NA,NA,choice_trial,survey-html-form,65,213246,0.0-4.0-1.30,106,1,2025-05-01T15:02:24Z,b60275e29fe2361ab97ac0ac217840d7,"Mozilla/5.0 (Windows NT 10.0; Win64; x64) AppleWebKit/537.36 (KHTML, like Gecko) Chrome/135.0.0.0 Safari/537.36",WebKit,Chrome,135.0.0.0,Windows,10,https://5puzkbbxv1.cognition.run/?sona_id=58116,"en-US,en;q=0.9",w7dktqv721958bh,19,"[""Asian""]",No,Male,NA,No,311003.8000000119,NA,4640,NA,"{""product_choice"":""B""}",choice,ctd,trinary,repulsion_B,2,washing machines,null,null,null,null,null,null,1,40,30,40,90,100,80,Average lifespan,Energy savings,NA,NA
NA,NA,NA,NA,NA,choice_trial_setup,html-keyboard-response,66,213558,0.0-4.0-0.31,106,1,2025-05-01T15:02:24Z,b60275e29fe2361ab97ac0ac217840d7,"Mozilla/5.0 (Windows NT 10.0; Win64; x64) AppleWebKit/537.36 (KHTML, like Gecko) Chrome/135.0.0.0 Safari/537.36",WebKit,Chrome,135.0.0.0,Windows,10,https://5puzkbbxv1.cognition.run/?sona_id=58116,"en-US,en;q=0.9",w7dktqv721958bh,19,"[""Asian""]",No,Male,NA,No,311003.8000000119,NA,null,<p></p>,null,choice,cdt,trinary,repulsion_A,1,washing machines,null,null,null,null,null,null,2,NA,NA,NA,NA,NA,NA,NA,NA,NA,NA
NA,NA,NA,NA,NA,choice_trial,survey-html-form,67,218622,0.0-4.0-1.31,106,1,2025-05-01T15:02:24Z,b60275e29fe2361ab97ac0ac217840d7,"Mozilla/5.0 (Windows NT 10.0; Win64; x64) AppleWebKit/537.36 (KHTML, like Gecko) Chrome/135.0.0.0 Safari/537.36",WebKit,Chrome,135.0.0.0,Windows,10,https://5puzkbbxv1.cognition.run/?sona_id=58116,"en-US,en;q=0.9",w7dktqv721958bh,19,"[""Asian""]",No,Male,NA,No,311003.8000000119,NA,5062,NA,"{""product_choice"":""C""}",choice,cdt,trinary,repulsion_A,1,washing machines,null,null,null,null,null,null,2,100,90,100,30,40,20,Average lifespan,Energy savings,NA,NA
NA,NA,NA,NA,NA,choice_trial_setup,html-keyboard-response,68,218930,0.0-4.0-0.32,106,1,2025-05-01T15:02:24Z,b60275e29fe2361ab97ac0ac217840d7,"Mozilla/5.0 (Windows NT 10.0; Win64; x64) AppleWebKit/537.36 (KHTML, like Gecko) Chrome/135.0.0.0 Safari/537.36",WebKit,Chrome,135.0.0.0,Windows,10,https://5puzkbbxv1.cognition.run/?sona_id=58116,"en-US,en;q=0.9",w7dktqv721958bh,19,"[""Asian""]",No,Male,NA,No,311003.8000000119,NA,null,<p></p>,null,choice,cdt,trinary,repulsion_A,1,televisions,null,null,null,null,null,null,2,NA,NA,NA,NA,NA,NA,NA,NA,NA,NA
NA,NA,NA,NA,NA,choice_trial,survey-html-form,69,226952,0.0-4.0-1.32,106,1,2025-05-01T15:02:24Z,b60275e29fe2361ab97ac0ac217840d7,"Mozilla/5.0 (Windows NT 10.0; Win64; x64) AppleWebKit/537.36 (KHTML, like Gecko) Chrome/135.0.0.0 Safari/537.36",WebKit,Chrome,135.0.0.0,Windows,10,https://5puzkbbxv1.cognition.run/?sona_id=58116,"en-US,en;q=0.9",w7dktqv721958bh,19,"[""Asian""]",No,Male,NA,No,311003.8000000119,NA,8020,NA,"{""product_choice"":""C""}",choice,cdt,trinary,repulsion_A,1,televisions,null,null,null,null,null,null,2,100,90,100,30,40,20,Screen size,Average lifespan,NA,NA
NA,NA,NA,NA,NA,choice_trial_setup,html-keyboard-response,70,227261,0.0-4.0-0.33,106,1,2025-05-01T15:02:24Z,b60275e29fe2361ab97ac0ac217840d7,"Mozilla/5.0 (Windows NT 10.0; Win64; x64) AppleWebKit/537.36 (KHTML, like Gecko) Chrome/135.0.0.0 Safari/537.36",WebKit,Chrome,135.0.0.0,Windows,10,https://5puzkbbxv1.cognition.run/?sona_id=58116,"en-US,en;q=0.9",w7dktqv721958bh,19,"[""Asian""]",No,Male,NA,No,311003.8000000119,NA,null,<p></p>,null,choice,dct,trinary,repulsion_B,1,televisions,null,null,null,null,null,null,1,NA,NA,NA,NA,NA,NA,NA,NA,NA,NA
NA,NA,NA,NA,NA,choice_trial,survey-html-form,71,231262,0.0-4.0-1.33,106,1,2025-05-01T15:02:24Z,b60275e29fe2361ab97ac0ac217840d7,"Mozilla/5.0 (Windows NT 10.0; Win64; x64) AppleWebKit/537.36 (KHTML, like Gecko) Chrome/135.0.0.0 Safari/537.36",WebKit,Chrome,135.0.0.0,Windows,10,https://5puzkbbxv1.cognition.run/?sona_id=58116,"en-US,en;q=0.9",w7dktqv721958bh,19,"[""Asian""]",No,Male,NA,No,311003.8000000119,NA,3999,NA,"{""product_choice"":""B""}",choice,dct,trinary,repulsion_B,1,televisions,null,null,null,null,null,null,1,90,100,80,40,30,40,Screen size,Average lifespan,NA,NA
NA,NA,NA,NA,NA,choice_trial_setup,html-keyboard-response,72,231570,0.0-4.0-0.34,106,1,2025-05-01T15:02:24Z,b60275e29fe2361ab97ac0ac217840d7,"Mozilla/5.0 (Windows NT 10.0; Win64; x64) AppleWebKit/537.36 (KHTML, like Gecko) Chrome/135.0.0.0 Safari/537.36",WebKit,Chrome,135.0.0.0,Windows,10,https://5puzkbbxv1.cognition.run/?sona_id=58116,"en-US,en;q=0.9",w7dktqv721958bh,19,"[""Asian""]",No,Male,NA,No,311003.8000000119,NA,null,<p></p>,null,choice,tc,binary,repulsion,2,washing machines,null,null,null,null,null,null,1,NA,NA,NA,NA,NA,NA,NA,NA,NA,NA
NA,NA,NA,NA,NA,choice_trial,survey-html-form,73,236626,0.0-4.0-1.34,106,1,2025-05-01T15:02:24Z,b60275e29fe2361ab97ac0ac217840d7,"Mozilla/5.0 (Windows NT 10.0; Win64; x64) AppleWebKit/537.36 (KHTML, like Gecko) Chrome/135.0.0.0 Safari/537.36",WebKit,Chrome,135.0.0.0,Windows,10,https://5puzkbbxv1.cognition.run/?sona_id=58116,"en-US,en;q=0.9",w7dktqv721958bh,19,"[""Asian""]",No,Male,NA,No,311003.8000000119,NA,5055,NA,"{""product_choice"":""A""}",choice,tc,binary,repulsion,2,washing machines,null,null,null,null,null,null,1,30,40,null,100,90,null,Average lifespan,Energy savings,NA,NA
NA,NA,NA,NA,NA,choice_trial_setup,html-keyboard-response,74,236936,0.0-4.0-0.35,106,1,2025-05-01T15:02:24Z,b60275e29fe2361ab97ac0ac217840d7,"Mozilla/5.0 (Windows NT 10.0; Win64; x64) AppleWebKit/537.36 (KHTML, like Gecko) Chrome/135.0.0.0 Safari/537.36",WebKit,Chrome,135.0.0.0,Windows,10,https://5puzkbbxv1.cognition.run/?sona_id=58116,"en-US,en;q=0.9",w7dktqv721958bh,19,"[""Asian""]",No,Male,NA,No,311003.8000000119,NA,null,<p></p>,null,choice,wbw,trinary,catch,null,washing machines,80,65,5,20,25,5,1,NA,NA,NA,NA,NA,NA,NA,NA,NA,NA
NA,NA,NA,NA,NA,choice_trial,survey-html-form,75,239621,0.0-4.0-1.35,106,1,2025-05-01T15:02:24Z,b60275e29fe2361ab97ac0ac217840d7,"Mozilla/5.0 (Windows NT 10.0; Win64; x64) AppleWebKit/537.36 (KHTML, like Gecko) Chrome/135.0.0.0 Safari/537.36",WebKit,Chrome,135.0.0.0,Windows,10,https://5puzkbbxv1.cognition.run/?sona_id=58116,"en-US,en;q=0.9",w7dktqv721958bh,19,"[""Asian""]",No,Male,NA,No,311003.8000000119,NA,2683,NA,"{""product_choice"":""B""}",choice,wbw,trinary,catch,null,washing machines,80,65,5,20,25,5,1,null,null,null,null,null,null,Average lifespan,Energy savings,NA,NA
NA,NA,NA,NA,NA,choice_trial_setup,html-keyboard-response,76,239925,0.0-4.0-0.36,106,1,2025-05-01T15:02:24Z,b60275e29fe2361ab97ac0ac217840d7,"Mozilla/5.0 (Windows NT 10.0; Win64; x64) AppleWebKit/537.36 (KHTML, like Gecko) Chrome/135.0.0.0 Safari/537.36",WebKit,Chrome,135.0.0.0,Windows,10,https://5puzkbbxv1.cognition.run/?sona_id=58116,"en-US,en;q=0.9",w7dktqv721958bh,19,"[""Asian""]",No,Male,NA,No,311003.8000000119,NA,null,<p></p>,null,choice,tdc,trinary,repulsion_B,2,televisions,null,null,null,null,null,null,2,NA,NA,NA,NA,NA,NA,NA,NA,NA,NA
NA,NA,NA,NA,NA,choice_trial,survey-html-form,77,243616,0.0-4.0-1.36,106,1,2025-05-01T15:02:24Z,b60275e29fe2361ab97ac0ac217840d7,"Mozilla/5.0 (Windows NT 10.0; Win64; x64) AppleWebKit/537.36 (KHTML, like Gecko) Chrome/135.0.0.0 Safari/537.36",WebKit,Chrome,135.0.0.0,Windows,10,https://5puzkbbxv1.cognition.run/?sona_id=58116,"en-US,en;q=0.9",w7dktqv721958bh,19,"[""Asian""]",No,Male,NA,No,311003.8000000119,NA,3689,NA,"{""product_choice"":""A""}",choice,tdc,trinary,repulsion_B,2,televisions,null,null,null,null,null,null,2,40,30,40,90,100,80,Screen size,Average lifespan,NA,NA
NA,NA,NA,NA,NA,choice_trial_setup,html-keyboard-response,78,243919,0.0-4.0-0.37,106,1,2025-05-01T15:02:24Z,b60275e29fe2361ab97ac0ac217840d7,"Mozilla/5.0 (Windows NT 10.0; Win64; x64) AppleWebKit/537.36 (KHTML, like Gecko) Chrome/135.0.0.0 Safari/537.36",WebKit,Chrome,135.0.0.0,Windows,10,https://5puzkbbxv1.cognition.run/?sona_id=58116,"en-US,en;q=0.9",w7dktqv721958bh,19,"[""Asian""]",No,Male,NA,No,311003.8000000119,NA,null,<p></p>,null,choice,ct,binary,attraction,NA,laptops,null,null,null,null,null,null,2,NA,NA,NA,NA,NA,NA,NA,NA,NA,NA
NA,NA,NA,NA,NA,choice_trial,survey-html-form,79,245795,0.0-4.0-1.37,106,1,2025-05-01T15:02:24Z,b60275e29fe2361ab97ac0ac217840d7,"Mozilla/5.0 (Windows NT 10.0; Win64; x64) AppleWebKit/537.36 (KHTML, like Gecko) Chrome/135.0.0.0 Safari/537.36",WebKit,Chrome,135.0.0.0,Windows,10,https://5puzkbbxv1.cognition.run/?sona_id=58116,"en-US,en;q=0.9",w7dktqv721958bh,19,"[""Asian""]",No,Male,NA,No,311003.8000000119,NA,1874,NA,"{""product_choice"":""B""}",choice,ct,binary,attraction,NA,laptops,null,null,null,null,null,null,2,60,50,null,50,60,null,Processing speed,Memory (RAM),NA,NA
NA,NA,NA,NA,NA,choice_trial_setup,html-keyboard-response,80,246102,0.0-4.0-0.38,106,1,2025-05-01T15:02:24Z,b60275e29fe2361ab97ac0ac217840d7,"Mozilla/5.0 (Windows NT 10.0; Win64; x64) AppleWebKit/537.36 (KHTML, like Gecko) Chrome/135.0.0.0 Safari/537.36",WebKit,Chrome,135.0.0.0,Windows,10,https://5puzkbbxv1.cognition.run/?sona_id=58116,"en-US,en;q=0.9",w7dktqv721958bh,19,"[""Asian""]",No,Male,NA,No,311003.8000000119,NA,null,<p></p>,null,choice,ct,binary,attraction,NA,televisions,null,null,null,null,null,null,2,NA,NA,NA,NA,NA,NA,NA,NA,NA,NA
NA,NA,NA,NA,NA,choice_trial,survey-html-form,81,247284,0.0-4.0-1.38,106,1,2025-05-01T15:02:24Z,b60275e29fe2361ab97ac0ac217840d7,"Mozilla/5.0 (Windows NT 10.0; Win64; x64) AppleWebKit/537.36 (KHTML, like Gecko) Chrome/135.0.0.0 Safari/537.36",WebKit,Chrome,135.0.0.0,Windows,10,https://5puzkbbxv1.cognition.run/?sona_id=58116,"en-US,en;q=0.9",w7dktqv721958bh,19,"[""Asian""]",No,Male,NA,No,311003.8000000119,NA,1180,NA,"{""product_choice"":""A""}",choice,ct,binary,attraction,NA,televisions,null,null,null,null,null,null,2,60,50,null,50,60,null,Screen size,Average lifespan,NA,NA
NA,NA,NA,NA,NA,choice_trial_setup,html-keyboard-response,82,247598,0.0-4.0-0.39,106,1,2025-05-01T15:02:24Z,b60275e29fe2361ab97ac0ac217840d7,"Mozilla/5.0 (Windows NT 10.0; Win64; x64) AppleWebKit/537.36 (KHTML, like Gecko) Chrome/135.0.0.0 Safari/537.36",WebKit,Chrome,135.0.0.0,Windows,10,https://5puzkbbxv1.cognition.run/?sona_id=58116,"en-US,en;q=0.9",w7dktqv721958bh,19,"[""Asian""]",No,Male,NA,No,311003.8000000119,NA,null,<p></p>,null,choice,tcd,trinary,attraction,1,microwave ovens,null,null,null,null,null,null,2,NA,NA,NA,NA,NA,NA,NA,NA,NA,NA
NA,NA,NA,NA,NA,choice_trial,survey-html-form,83,248858,0.0-4.0-1.39,106,1,2025-05-01T15:02:24Z,b60275e29fe2361ab97ac0ac217840d7,"Mozilla/5.0 (Windows NT 10.0; Win64; x64) AppleWebKit/537.36 (KHTML, like Gecko) Chrome/135.0.0.0 Safari/537.36",WebKit,Chrome,135.0.0.0,Windows,10,https://5puzkbbxv1.cognition.run/?sona_id=58116,"en-US,en;q=0.9",w7dktqv721958bh,19,"[""Asian""]",No,Male,NA,No,311003.8000000119,NA,1257,NA,"{""product_choice"":""B""}",choice,tcd,trinary,attraction,1,microwave ovens,null,null,null,null,null,null,2,60,50,60,50,60,40,Warranty,Cooking power,NA,NA
NA,NA,NA,NA,NA,choice_trial_setup,html-keyboard-response,84,249174,0.0-4.0-0.40,106,1,2025-05-01T15:02:24Z,b60275e29fe2361ab97ac0ac217840d7,"Mozilla/5.0 (Windows NT 10.0; Win64; x64) AppleWebKit/537.36 (KHTML, like Gecko) Chrome/135.0.0.0 Safari/537.36",WebKit,Chrome,135.0.0.0,Windows,10,https://5puzkbbxv1.cognition.run/?sona_id=58116,"en-US,en;q=0.9",w7dktqv721958bh,19,"[""Asian""]",No,Male,NA,No,311003.8000000119,NA,null,<p></p>,null,choice,tc,binary,attraction,NA,washing machines,null,null,null,null,null,null,1,NA,NA,NA,NA,NA,NA,NA,NA,NA,NA
NA,NA,NA,NA,NA,choice_trial,survey-html-form,85,251761,0.0-4.0-1.40,106,1,2025-05-01T15:02:24Z,b60275e29fe2361ab97ac0ac217840d7,"Mozilla/5.0 (Windows NT 10.0; Win64; x64) AppleWebKit/537.36 (KHTML, like Gecko) Chrome/135.0.0.0 Safari/537.36",WebKit,Chrome,135.0.0.0,Windows,10,https://5puzkbbxv1.cognition.run/?sona_id=58116,"en-US,en;q=0.9",w7dktqv721958bh,19,"[""Asian""]",No,Male,NA,No,311003.8000000119,NA,2585,NA,"{""product_choice"":""B""}",choice,tc,binary,attraction,NA,washing machines,null,null,null,null,null,null,1,60,50,null,50,60,null,Average lifespan,Energy savings,NA,NA
NA,NA,NA,NA,NA,choice_trial_setup,html-keyboard-response,86,252072,0.0-4.0-0.41,106,1,2025-05-01T15:02:24Z,b60275e29fe2361ab97ac0ac217840d7,"Mozilla/5.0 (Windows NT 10.0; Win64; x64) AppleWebKit/537.36 (KHTML, like Gecko) Chrome/135.0.0.0 Safari/537.36",WebKit,Chrome,135.0.0.0,Windows,10,https://5puzkbbxv1.cognition.run/?sona_id=58116,"en-US,en;q=0.9",w7dktqv721958bh,19,"[""Asian""]",No,Male,NA,No,311003.8000000119,NA,null,<p></p>,null,choice,dct,trinary,repulsion_B,1,laptops,null,null,null,null,null,null,1,NA,NA,NA,NA,NA,NA,NA,NA,NA,NA
NA,NA,NA,NA,NA,choice_trial,survey-html-form,87,254931,0.0-4.0-1.41,106,1,2025-05-01T15:02:24Z,b60275e29fe2361ab97ac0ac217840d7,"Mozilla/5.0 (Windows NT 10.0; Win64; x64) AppleWebKit/537.36 (KHTML, like Gecko) Chrome/135.0.0.0 Safari/537.36",WebKit,Chrome,135.0.0.0,Windows,10,https://5puzkbbxv1.cognition.run/?sona_id=58116,"en-US,en;q=0.9",w7dktqv721958bh,19,"[""Asian""]",No,Male,NA,No,311003.8000000119,NA,2855,NA,"{""product_choice"":""C""}",choice,dct,trinary,repulsion_B,1,laptops,null,null,null,null,null,null,1,90,100,80,40,30,40,Processing speed,Memory (RAM),NA,NA
NA,NA,NA,NA,NA,choice_trial_setup,html-keyboard-response,88,255244,0.0-4.0-0.42,106,1,2025-05-01T15:02:24Z,b60275e29fe2361ab97ac0ac217840d7,"Mozilla/5.0 (Windows NT 10.0; Win64; x64) AppleWebKit/537.36 (KHTML, like Gecko) Chrome/135.0.0.0 Safari/537.36",WebKit,Chrome,135.0.0.0,Windows,10,https://5puzkbbxv1.cognition.run/?sona_id=58116,"en-US,en;q=0.9",w7dktqv721958bh,19,"[""Asian""]",No,Male,NA,No,311003.8000000119,NA,null,<p></p>,null,choice,tcd,trinary,repulsion_A,1,laptops,null,null,null,null,null,null,2,NA,NA,NA,NA,NA,NA,NA,NA,NA,NA
NA,NA,NA,NA,NA,choice_trial,survey-html-form,89,258336,0.0-4.0-1.42,106,1,2025-05-01T15:02:24Z,b60275e29fe2361ab97ac0ac217840d7,"Mozilla/5.0 (Windows NT 10.0; Win64; x64) AppleWebKit/537.36 (KHTML, like Gecko) Chrome/135.0.0.0 Safari/537.36",WebKit,Chrome,135.0.0.0,Windows,10,https://5puzkbbxv1.cognition.run/?sona_id=58116,"en-US,en;q=0.9",w7dktqv721958bh,19,"[""Asian""]",No,Male,NA,No,311003.8000000119,NA,3085,NA,"{""product_choice"":""B""}",choice,tcd,trinary,repulsion_A,1,laptops,null,null,null,null,null,null,2,100,90,100,30,40,20,Processing speed,Memory (RAM),NA,NA
NA,NA,NA,NA,NA,choice_trial_setup,html-keyboard-response,90,258639,0.0-4.0-0.43,106,1,2025-05-01T15:02:24Z,b60275e29fe2361ab97ac0ac217840d7,"Mozilla/5.0 (Windows NT 10.0; Win64; x64) AppleWebKit/537.36 (KHTML, like Gecko) Chrome/135.0.0.0 Safari/537.36",WebKit,Chrome,135.0.0.0,Windows,10,https://5puzkbbxv1.cognition.run/?sona_id=58116,"en-US,en;q=0.9",w7dktqv721958bh,19,"[""Asian""]",No,Male,NA,No,311003.8000000119,NA,null,<p></p>,null,choice,tcd,trinary,repulsion_A,2,laptops,null,null,null,null,null,null,2,NA,NA,NA,NA,NA,NA,NA,NA,NA,NA
NA,NA,NA,NA,NA,choice_trial,survey-html-form,91,261613,0.0-4.0-1.43,106,1,2025-05-01T15:02:24Z,b60275e29fe2361ab97ac0ac217840d7,"Mozilla/5.0 (Windows NT 10.0; Win64; x64) AppleWebKit/537.36 (KHTML, like Gecko) Chrome/135.0.0.0 Safari/537.36",WebKit,Chrome,135.0.0.0,Windows,10,https://5puzkbbxv1.cognition.run/?sona_id=58116,"en-US,en;q=0.9",w7dktqv721958bh,19,"[""Asian""]",No,Male,NA,No,311003.8000000119,NA,2971,NA,"{""product_choice"":""B""}",choice,tcd,trinary,repulsion_A,2,laptops,null,null,null,null,null,null,2,30,40,20,100,90,100,Processing speed,Memory (RAM),NA,NA
NA,NA,NA,NA,NA,post_trials_message,html-button-response,92,263053,0.0-5.0,106,1,2025-05-01T15:02:24Z,b60275e29fe2361ab97ac0ac217840d7,"Mozilla/5.0 (Windows NT 10.0; Win64; x64) AppleWebKit/537.36 (KHTML, like Gecko) Chrome/135.0.0.0 Safari/537.36",WebKit,Chrome,135.0.0.0,Windows,10,https://5puzkbbxv1.cognition.run/?sona_id=58116,"en-US,en;q=0.9",w7dktqv721958bh,19,"[""Asian""]",No,Male,NA,No,311003.8000000119,NA,1438,<p> <b>Thank you for your patience!</b></p><p>  The study will be done after completing a brief form. </p>,0,NA,NA,NA,NA,NA,NA,NA,NA,NA,NA,NA,NA,NA,NA,NA,NA,NA,NA,NA,NA,NA,NA,NA
NA,NA,NA,NA,NA,survey_message,survey-text,93,281213,0.0-6.0,106,1,2025-05-01T15:02:24Z,b60275e29fe2361ab97ac0ac217840d7,"Mozilla/5.0 (Windows NT 10.0; Win64; x64) AppleWebKit/537.36 (KHTML, like Gecko) Chrome/135.0.0.0 Safari/537.36",WebKit,Chrome,135.0.0.0,Windows,10,https://5puzkbbxv1.cognition.run/?sona_id=58116,"en-US,en;q=0.9",w7dktqv721958bh,19,"[""Asian""]",No,Male,NA,No,311003.8000000119,NA,18155,NA,"{""Q0"":""Which provided the total score the best, and provided the most immediate benifts""}",NA,NA,NA,NA,NA,NA,NA,NA,NA,NA,NA,NA,NA,NA,NA,NA,NA,NA,NA,NA,NA,"Which provided the total score the best, and provided the most immediate benifts",NA
NA,NA,NA,NA,NA,demo_age,survey-text,94,284757,0.0-7.0,106,1,2025-05-01T15:02:24Z,b60275e29fe2361ab97ac0ac217840d7,"Mozilla/5.0 (Windows NT 10.0; Win64; x64) AppleWebKit/537.36 (KHTML, like Gecko) Chrome/135.0.0.0 Safari/537.36",WebKit,Chrome,135.0.0.0,Windows,10,https://5puzkbbxv1.cognition.run/?sona_id=58116,"en-US,en;q=0.9",w7dktqv721958bh,19,"[""Asian""]",No,Male,NA,No,311003.8000000119,NA,3541,NA,"{""Q0"":""19""}",NA,NA,NA,NA,NA,NA,NA,NA,NA,NA,NA,NA,NA,NA,NA,NA,NA,NA,NA,NA,NA,NA,NA
NA,NA,NA,NA,NA,demo_race,survey-multi-select,95,286782,0.0-8.0,106,1,2025-05-01T15:02:24Z,b60275e29fe2361ab97ac0ac217840d7,"Mozilla/5.0 (Windows NT 10.0; Win64; x64) AppleWebKit/537.36 (KHTML, like Gecko) Chrome/135.0.0.0 Safari/537.36",WebKit,Chrome,135.0.0.0,Windows,10,https://5puzkbbxv1.cognition.run/?sona_id=58116,"en-US,en;q=0.9",w7dktqv721958bh,19,"[""Asian""]",No,Male,NA,No,311003.8000000119,NA,2021,NA,"{""Q0"":[""Asian""]}",NA,NA,NA,NA,NA,NA,NA,NA,NA,NA,NA,NA,NA,NA,NA,NA,NA,NA,NA,NA,NA,NA,[0]
NA,NA,NA,NA,NA,demo_ethnicity_gender,survey-multi-choice,96,289989,0.0-9.0,106,1,2025-05-01T15:02:24Z,b60275e29fe2361ab97ac0ac217840d7,"Mozilla/5.0 (Windows NT 10.0; Win64; x64) AppleWebKit/537.36 (KHTML, like Gecko) Chrome/135.0.0.0 Safari/537.36",WebKit,Chrome,135.0.0.0,Windows,10,https://5puzkbbxv1.cognition.run/?sona_id=58116,"en-US,en;q=0.9",w7dktqv721958bh,19,"[""Asian""]",No,Male,NA,No,311003.8000000119,NA,3204,NA,"{""Q0"":""No"",""Q1"":""Male""}",NA,NA,NA,NA,NA,NA,NA,NA,NA,NA,NA,NA,NA,NA,NA,NA,NA,NA,NA,NA,NA,NA,"[0,1]"
NA,NA,NA,NA,NA,demo_countries,survey-text,97,295861,0.0-10.0,106,1,2025-05-01T15:02:24Z,b60275e29fe2361ab97ac0ac217840d7,"Mozilla/5.0 (Windows NT 10.0; Win64; x64) AppleWebKit/537.36 (KHTML, like Gecko) Chrome/135.0.0.0 Safari/537.36",WebKit,Chrome,135.0.0.0,Windows,10,https://5puzkbbxv1.cognition.run/?sona_id=58116,"en-US,en;q=0.9",w7dktqv721958bh,19,"[""Asian""]",No,Male,NA,No,311003.8000000119,NA,5865,NA,"{""Q0"":""NA""}",NA,NA,NA,NA,NA,NA,NA,NA,NA,NA,NA,NA,NA,NA,NA,NA,NA,NA,NA,NA,NA,NA,NA
NA,NA,NA,NA,NA,demo_prev_study,survey-multi-choice,98,301047,0.0-11.0,106,1,2025-05-01T15:02:24Z,b60275e29fe2361ab97ac0ac217840d7,"Mozilla/5.0 (Windows NT 10.0; Win64; x64) AppleWebKit/537.36 (KHTML, like Gecko) Chrome/135.0.0.0 Safari/537.36",WebKit,Chrome,135.0.0.0,Windows,10,https://5puzkbbxv1.cognition.run/?sona_id=58116,"en-US,en;q=0.9",w7dktqv721958bh,19,"[""Asian""]",No,Male,NA,No,311003.8000000119,NA,5183,NA,"{""Q0"":""No""}",NA,NA,NA,NA,NA,NA,NA,NA,NA,NA,NA,NA,NA,NA,NA,NA,NA,NA,NA,NA,NA,NA,[0]
NA,NA,NA,NA,NA,post_survey_message,html-keyboard-response,99,304594,0.0-12.0,106,1,2025-05-01T15:02:24Z,b60275e29fe2361ab97ac0ac217840d7,"Mozilla/5.0 (Windows NT 10.0; Win64; x64) AppleWebKit/537.36 (KHTML, like Gecko) Chrome/135.0.0.0 Safari/537.36",WebKit,Chrome,135.0.0.0,Windows,10,https://5puzkbbxv1.cognition.run/?sona_id=58116,"en-US,en;q=0.9",w7dktqv721958bh,19,"[""Asian""]",No,Male,NA,No,311003.8000000119,NA,3544,NA,j,NA,NA,NA,NA,NA,NA,NA,NA,NA,NA,NA,NA,NA,NA,NA,NA,NA,NA,NA,NA,NA,NA,NA
NA,NA,NA,NA,NA,debrief,image-keyboard-response,100,311003,0.0-13.0,106,1,2025-05-01T15:02:24Z,b60275e29fe2361ab97ac0ac217840d7,"Mozilla/5.0 (Windows NT 10.0; Win64; x64) AppleWebKit/537.36 (KHTML, like Gecko) Chrome/135.0.0.0 Safari/537.36",WebKit,Chrome,135.0.0.0,Windows,10,https://5puzkbbxv1.cognition.run/?sona_id=58116,"en-US,en;q=0.9",w7dktqv721958bh,19,"[""Asian""]",No,Male,NA,No,311003.8000000119,NA,6398,Judg_choice_debrief.png,p,NA,NA,NA,NA,NA,NA,NA,NA,NA,NA,NA,NA,NA,NA,NA,NA,NA,NA,NA,NA,NA,NA,NA
