success,timeout,failed_images,failed_audio,failed_video,screen_id,trial_type,trial_index,time_elapsed,internal_node_id,run_id,condition,recorded_at,source_code_version,user_agent,device,browser,browser_version,platform,platform_version,referer,accept_language,ppt_id,age,race,ethnicity,gender,other_countries,prev_study,view_history,rt,stimulus,response,phase,order,set,effect,t_high,category,d1_best,d2_best,d1_worst1,d2_worst1,d1_worst2,d2_worst2,first_dim,d1_t,d1_c,d1_d,d2_t,d2_c,d2_d,d1_name,d2_name,strategy_response,question_order
TRUE,FALSE,[],[],[],img preload,preload,0,363,0.0-0.0,109,1,2025-05-01T15:47:02Z,b60275e29fe2361ab97ac0ac217840d7,"Mozilla/5.0 (iPhone; CPU iPhone OS 18_4_1 like Mac OS X) AppleWebKit/605.1.15 (KHTML, like Gecko) Version/18.4 Mobile/15E148 Safari/604.1",iPhone,Safari,18.4,iOS,18_4_1,https://5puzkbbxv1.cognition.run/?sona_id=57018,"en-US,en;q=0.9",ejp8r94wvwq8m4c,23,"[""White""]",No,Male,NA,No,NA,NA,NA,NA,NA,NA,NA,NA,NA,NA,NA,NA,NA,NA,NA,NA,NA,NA,NA,NA,NA,NA,NA,NA,NA,NA,NA
NA,NA,NA,NA,NA,computer_message,instructions,1,5718,0.0-1.0,109,1,2025-05-01T15:47:02Z,b60275e29fe2361ab97ac0ac217840d7,"Mozilla/5.0 (iPhone; CPU iPhone OS 18_4_1 like Mac OS X) AppleWebKit/605.1.15 (KHTML, like Gecko) Version/18.4 Mobile/15E148 Safari/604.1",iPhone,Safari,18.4,iOS,18_4_1,https://5puzkbbxv1.cognition.run/?sona_id=57018,"en-US,en;q=0.9",ejp8r94wvwq8m4c,23,"[""White""]",No,Male,NA,No,"[{""page_index"":0,""viewing_time"":5353}]",5353,NA,NA,NA,NA,NA,NA,NA,NA,NA,NA,NA,NA,NA,NA,NA,NA,NA,NA,NA,NA,NA,NA,NA,NA,NA
TRUE,NA,NA,NA,NA,NA,fullscreen,2,11305,0.0-2.0,109,1,2025-05-01T15:47:02Z,b60275e29fe2361ab97ac0ac217840d7,"Mozilla/5.0 (iPhone; CPU iPhone OS 18_4_1 like Mac OS X) AppleWebKit/605.1.15 (KHTML, like Gecko) Version/18.4 Mobile/15E148 Safari/604.1",iPhone,Safari,18.4,iOS,18_4_1,https://5puzkbbxv1.cognition.run/?sona_id=57018,"en-US,en;q=0.9",ejp8r94wvwq8m4c,23,"[""White""]",No,Male,NA,No,NA,4583,NA,NA,NA,NA,NA,NA,NA,NA,NA,NA,NA,NA,NA,NA,NA,NA,NA,NA,NA,NA,NA,NA,NA,NA,NA
NA,NA,NA,NA,NA,choice_instructions,instructions,3,63613,0.0-3.0,109,1,2025-05-01T15:47:02Z,b60275e29fe2361ab97ac0ac217840d7,"Mozilla/5.0 (iPhone; CPU iPhone OS 18_4_1 like Mac OS X) AppleWebKit/605.1.15 (KHTML, like Gecko) Version/18.4 Mobile/15E148 Safari/604.1",iPhone,Safari,18.4,iOS,18_4_1,https://5puzkbbxv1.cognition.run/?sona_id=57018,"en-US,en;q=0.9",ejp8r94wvwq8m4c,23,"[""White""]",No,Male,NA,No,"[{""page_index"":0,""viewing_time"":1413},{""page_index"":1,""viewing_time"":5304},{""page_index"":2,""viewing_time"":5650},{""page_index"":3,""viewing_time"":5333},{""page_index"":4,""viewing_time"":3266},{""page_index"":5,""viewing_time"":21250},{""page_index"":6,""viewing_time"":10091}]",52307,NA,NA,NA,NA,NA,NA,NA,NA,NA,NA,NA,NA,NA,NA,NA,NA,NA,NA,NA,NA,NA,NA,NA,NA,NA
NA,NA,NA,NA,NA,choice_trial_setup,html-keyboard-response,4,63918,0.0-4.0-0.0,109,1,2025-05-01T15:47:02Z,b60275e29fe2361ab97ac0ac217840d7,"Mozilla/5.0 (iPhone; CPU iPhone OS 18_4_1 like Mac OS X) AppleWebKit/605.1.15 (KHTML, like Gecko) Version/18.4 Mobile/15E148 Safari/604.1",iPhone,Safari,18.4,iOS,18_4_1,https://5puzkbbxv1.cognition.run/?sona_id=57018,"en-US,en;q=0.9",ejp8r94wvwq8m4c,23,"[""White""]",No,Male,NA,No,NA,null,<p></p>,null,choice,wwb,trinary,catch,null,microwave ovens,85,85,35,5,15,10,1,NA,NA,NA,NA,NA,NA,NA,NA,NA,NA
NA,NA,NA,NA,NA,choice_trial,survey-html-form,5,73174,0.0-4.0-1.0,109,1,2025-05-01T15:47:02Z,b60275e29fe2361ab97ac0ac217840d7,"Mozilla/5.0 (iPhone; CPU iPhone OS 18_4_1 like Mac OS X) AppleWebKit/605.1.15 (KHTML, like Gecko) Version/18.4 Mobile/15E148 Safari/604.1",iPhone,Safari,18.4,iOS,18_4_1,https://5puzkbbxv1.cognition.run/?sona_id=57018,"en-US,en;q=0.9",ejp8r94wvwq8m4c,23,"[""White""]",No,Male,NA,No,NA,9250,NA,"{""product_choice"":""C""}",choice,wwb,trinary,catch,null,microwave ovens,85,85,35,5,15,10,1,null,null,null,null,null,null,Warranty,Cooking power,NA,NA
NA,NA,NA,NA,NA,choice_trial_setup,html-keyboard-response,6,73477,0.0-4.0-0.1,109,1,2025-05-01T15:47:02Z,b60275e29fe2361ab97ac0ac217840d7,"Mozilla/5.0 (iPhone; CPU iPhone OS 18_4_1 like Mac OS X) AppleWebKit/605.1.15 (KHTML, like Gecko) Version/18.4 Mobile/15E148 Safari/604.1",iPhone,Safari,18.4,iOS,18_4_1,https://5puzkbbxv1.cognition.run/?sona_id=57018,"en-US,en;q=0.9",ejp8r94wvwq8m4c,23,"[""White""]",No,Male,NA,No,NA,null,<p></p>,null,choice,tdc,trinary,repulsion_A,1,televisions,null,null,null,null,null,null,1,NA,NA,NA,NA,NA,NA,NA,NA,NA,NA
NA,NA,NA,NA,NA,choice_trial,survey-html-form,7,77372,0.0-4.0-1.1,109,1,2025-05-01T15:47:02Z,b60275e29fe2361ab97ac0ac217840d7,"Mozilla/5.0 (iPhone; CPU iPhone OS 18_4_1 like Mac OS X) AppleWebKit/605.1.15 (KHTML, like Gecko) Version/18.4 Mobile/15E148 Safari/604.1",iPhone,Safari,18.4,iOS,18_4_1,https://5puzkbbxv1.cognition.run/?sona_id=57018,"en-US,en;q=0.9",ejp8r94wvwq8m4c,23,"[""White""]",No,Male,NA,No,NA,3880,NA,"{""product_choice"":""B""}",choice,tdc,trinary,repulsion_A,1,televisions,null,null,null,null,null,null,1,100,90,100,30,40,20,Screen size,Average lifespan,NA,NA
NA,NA,NA,NA,NA,choice_trial_setup,html-keyboard-response,8,77676,0.0-4.0-0.2,109,1,2025-05-01T15:47:02Z,b60275e29fe2361ab97ac0ac217840d7,"Mozilla/5.0 (iPhone; CPU iPhone OS 18_4_1 like Mac OS X) AppleWebKit/605.1.15 (KHTML, like Gecko) Version/18.4 Mobile/15E148 Safari/604.1",iPhone,Safari,18.4,iOS,18_4_1,https://5puzkbbxv1.cognition.run/?sona_id=57018,"en-US,en;q=0.9",ejp8r94wvwq8m4c,23,"[""White""]",No,Male,NA,No,NA,null,<p></p>,null,choice,ctd,trinary,repulsion_B,1,washing machines,null,null,null,null,null,null,1,NA,NA,NA,NA,NA,NA,NA,NA,NA,NA
NA,NA,NA,NA,NA,choice_trial,survey-html-form,9,79690,0.0-4.0-1.2,109,1,2025-05-01T15:47:02Z,b60275e29fe2361ab97ac0ac217840d7,"Mozilla/5.0 (iPhone; CPU iPhone OS 18_4_1 like Mac OS X) AppleWebKit/605.1.15 (KHTML, like Gecko) Version/18.4 Mobile/15E148 Safari/604.1",iPhone,Safari,18.4,iOS,18_4_1,https://5puzkbbxv1.cognition.run/?sona_id=57018,"en-US,en;q=0.9",ejp8r94wvwq8m4c,23,"[""White""]",No,Male,NA,No,NA,2009,NA,"{""product_choice"":""C""}",choice,ctd,trinary,repulsion_B,1,washing machines,null,null,null,null,null,null,1,90,100,80,40,30,40,Average lifespan,Energy savings,NA,NA
NA,NA,NA,NA,NA,choice_trial_setup,html-keyboard-response,10,79994,0.0-4.0-0.3,109,1,2025-05-01T15:47:02Z,b60275e29fe2361ab97ac0ac217840d7,"Mozilla/5.0 (iPhone; CPU iPhone OS 18_4_1 like Mac OS X) AppleWebKit/605.1.15 (KHTML, like Gecko) Version/18.4 Mobile/15E148 Safari/604.1",iPhone,Safari,18.4,iOS,18_4_1,https://5puzkbbxv1.cognition.run/?sona_id=57018,"en-US,en;q=0.9",ejp8r94wvwq8m4c,23,"[""White""]",No,Male,NA,No,NA,null,<p></p>,null,choice,tdc,trinary,attraction,1,washing machines,null,null,null,null,null,null,2,NA,NA,NA,NA,NA,NA,NA,NA,NA,NA
NA,NA,NA,NA,NA,choice_trial,survey-html-form,11,82776,0.0-4.0-1.3,109,1,2025-05-01T15:47:02Z,b60275e29fe2361ab97ac0ac217840d7,"Mozilla/5.0 (iPhone; CPU iPhone OS 18_4_1 like Mac OS X) AppleWebKit/605.1.15 (KHTML, like Gecko) Version/18.4 Mobile/15E148 Safari/604.1",iPhone,Safari,18.4,iOS,18_4_1,https://5puzkbbxv1.cognition.run/?sona_id=57018,"en-US,en;q=0.9",ejp8r94wvwq8m4c,23,"[""White""]",No,Male,NA,No,NA,2778,NA,"{""product_choice"":""C""}",choice,tdc,trinary,attraction,1,washing machines,null,null,null,null,null,null,2,60,50,60,50,60,40,Average lifespan,Energy savings,NA,NA
NA,NA,NA,NA,NA,choice_trial_setup,html-keyboard-response,12,83079,0.0-4.0-0.4,109,1,2025-05-01T15:47:02Z,b60275e29fe2361ab97ac0ac217840d7,"Mozilla/5.0 (iPhone; CPU iPhone OS 18_4_1 like Mac OS X) AppleWebKit/605.1.15 (KHTML, like Gecko) Version/18.4 Mobile/15E148 Safari/604.1",iPhone,Safari,18.4,iOS,18_4_1,https://5puzkbbxv1.cognition.run/?sona_id=57018,"en-US,en;q=0.9",ejp8r94wvwq8m4c,23,"[""White""]",No,Male,NA,No,NA,null,<p></p>,null,choice,ct,binary,repulsion,2,washing machines,null,null,null,null,null,null,2,NA,NA,NA,NA,NA,NA,NA,NA,NA,NA
NA,NA,NA,NA,NA,choice_trial,survey-html-form,13,87194,0.0-4.0-1.4,109,1,2025-05-01T15:47:02Z,b60275e29fe2361ab97ac0ac217840d7,"Mozilla/5.0 (iPhone; CPU iPhone OS 18_4_1 like Mac OS X) AppleWebKit/605.1.15 (KHTML, like Gecko) Version/18.4 Mobile/15E148 Safari/604.1",iPhone,Safari,18.4,iOS,18_4_1,https://5puzkbbxv1.cognition.run/?sona_id=57018,"en-US,en;q=0.9",ejp8r94wvwq8m4c,23,"[""White""]",No,Male,NA,No,NA,4109,NA,"{""product_choice"":""A""}",choice,ct,binary,repulsion,2,washing machines,null,null,null,null,null,null,2,30,40,null,100,90,null,Average lifespan,Energy savings,NA,NA
NA,NA,NA,NA,NA,choice_trial_setup,html-keyboard-response,14,87497,0.0-4.0-0.5,109,1,2025-05-01T15:47:02Z,b60275e29fe2361ab97ac0ac217840d7,"Mozilla/5.0 (iPhone; CPU iPhone OS 18_4_1 like Mac OS X) AppleWebKit/605.1.15 (KHTML, like Gecko) Version/18.4 Mobile/15E148 Safari/604.1",iPhone,Safari,18.4,iOS,18_4_1,https://5puzkbbxv1.cognition.run/?sona_id=57018,"en-US,en;q=0.9",ejp8r94wvwq8m4c,23,"[""White""]",No,Male,NA,No,NA,null,<p></p>,null,choice,bww,trinary,catch,null,televisions,55,95,40,15,10,35,2,NA,NA,NA,NA,NA,NA,NA,NA,NA,NA
NA,NA,NA,NA,NA,choice_trial,survey-html-form,15,89349,0.0-4.0-1.5,109,1,2025-05-01T15:47:02Z,b60275e29fe2361ab97ac0ac217840d7,"Mozilla/5.0 (iPhone; CPU iPhone OS 18_4_1 like Mac OS X) AppleWebKit/605.1.15 (KHTML, like Gecko) Version/18.4 Mobile/15E148 Safari/604.1",iPhone,Safari,18.4,iOS,18_4_1,https://5puzkbbxv1.cognition.run/?sona_id=57018,"en-US,en;q=0.9",ejp8r94wvwq8m4c,23,"[""White""]",No,Male,NA,No,NA,1846,NA,"{""product_choice"":""C""}",choice,bww,trinary,catch,null,televisions,55,95,40,15,10,35,2,null,null,null,null,null,null,Screen size,Average lifespan,NA,NA
NA,NA,NA,NA,NA,choice_trial_setup,html-keyboard-response,16,89652,0.0-4.0-0.6,109,1,2025-05-01T15:47:02Z,b60275e29fe2361ab97ac0ac217840d7,"Mozilla/5.0 (iPhone; CPU iPhone OS 18_4_1 like Mac OS X) AppleWebKit/605.1.15 (KHTML, like Gecko) Version/18.4 Mobile/15E148 Safari/604.1",iPhone,Safari,18.4,iOS,18_4_1,https://5puzkbbxv1.cognition.run/?sona_id=57018,"en-US,en;q=0.9",ejp8r94wvwq8m4c,23,"[""White""]",No,Male,NA,No,NA,null,<p></p>,null,choice,tdc,trinary,repulsion_B,1,laptops,null,null,null,null,null,null,2,NA,NA,NA,NA,NA,NA,NA,NA,NA,NA
NA,NA,NA,NA,NA,choice_trial,survey-html-form,17,100403,0.0-4.0-1.6,109,1,2025-05-01T15:47:02Z,b60275e29fe2361ab97ac0ac217840d7,"Mozilla/5.0 (iPhone; CPU iPhone OS 18_4_1 like Mac OS X) AppleWebKit/605.1.15 (KHTML, like Gecko) Version/18.4 Mobile/15E148 Safari/604.1",iPhone,Safari,18.4,iOS,18_4_1,https://5puzkbbxv1.cognition.run/?sona_id=57018,"en-US,en;q=0.9",ejp8r94wvwq8m4c,23,"[""White""]",No,Male,NA,No,NA,10745,NA,"{""product_choice"":""A""}",choice,tdc,trinary,repulsion_B,1,laptops,null,null,null,null,null,null,2,90,100,80,40,30,40,Processing speed,Memory (RAM),NA,NA
NA,NA,NA,NA,NA,choice_trial_setup,html-keyboard-response,18,100706,0.0-4.0-0.7,109,1,2025-05-01T15:47:02Z,b60275e29fe2361ab97ac0ac217840d7,"Mozilla/5.0 (iPhone; CPU iPhone OS 18_4_1 like Mac OS X) AppleWebKit/605.1.15 (KHTML, like Gecko) Version/18.4 Mobile/15E148 Safari/604.1",iPhone,Safari,18.4,iOS,18_4_1,https://5puzkbbxv1.cognition.run/?sona_id=57018,"en-US,en;q=0.9",ejp8r94wvwq8m4c,23,"[""White""]",No,Male,NA,No,NA,null,<p></p>,null,choice,ct,binary,repulsion,2,laptops,null,null,null,null,null,null,2,NA,NA,NA,NA,NA,NA,NA,NA,NA,NA
NA,NA,NA,NA,NA,choice_trial,survey-html-form,19,105656,0.0-4.0-1.7,109,1,2025-05-01T15:47:02Z,b60275e29fe2361ab97ac0ac217840d7,"Mozilla/5.0 (iPhone; CPU iPhone OS 18_4_1 like Mac OS X) AppleWebKit/605.1.15 (KHTML, like Gecko) Version/18.4 Mobile/15E148 Safari/604.1",iPhone,Safari,18.4,iOS,18_4_1,https://5puzkbbxv1.cognition.run/?sona_id=57018,"en-US,en;q=0.9",ejp8r94wvwq8m4c,23,"[""White""]",No,Male,NA,No,NA,4945,NA,"{""product_choice"":""B""}",choice,ct,binary,repulsion,2,laptops,null,null,null,null,null,null,2,30,40,null,100,90,null,Processing speed,Memory (RAM),NA,NA
NA,NA,NA,NA,NA,choice_trial_setup,html-keyboard-response,20,105960,0.0-4.0-0.8,109,1,2025-05-01T15:47:02Z,b60275e29fe2361ab97ac0ac217840d7,"Mozilla/5.0 (iPhone; CPU iPhone OS 18_4_1 like Mac OS X) AppleWebKit/605.1.15 (KHTML, like Gecko) Version/18.4 Mobile/15E148 Safari/604.1",iPhone,Safari,18.4,iOS,18_4_1,https://5puzkbbxv1.cognition.run/?sona_id=57018,"en-US,en;q=0.9",ejp8r94wvwq8m4c,23,"[""White""]",No,Male,NA,No,NA,null,<p></p>,null,choice,dtc,trinary,repulsion_A,2,televisions,null,null,null,null,null,null,2,NA,NA,NA,NA,NA,NA,NA,NA,NA,NA
NA,NA,NA,NA,NA,choice_trial,survey-html-form,21,109710,0.0-4.0-1.8,109,1,2025-05-01T15:47:02Z,b60275e29fe2361ab97ac0ac217840d7,"Mozilla/5.0 (iPhone; CPU iPhone OS 18_4_1 like Mac OS X) AppleWebKit/605.1.15 (KHTML, like Gecko) Version/18.4 Mobile/15E148 Safari/604.1",iPhone,Safari,18.4,iOS,18_4_1,https://5puzkbbxv1.cognition.run/?sona_id=57018,"en-US,en;q=0.9",ejp8r94wvwq8m4c,23,"[""White""]",No,Male,NA,No,NA,3746,NA,"{""product_choice"":""B""}",choice,dtc,trinary,repulsion_A,2,televisions,null,null,null,null,null,null,2,30,40,20,100,90,100,Screen size,Average lifespan,NA,NA
NA,NA,NA,NA,NA,choice_trial_setup,html-keyboard-response,22,110012,0.0-4.0-0.9,109,1,2025-05-01T15:47:02Z,b60275e29fe2361ab97ac0ac217840d7,"Mozilla/5.0 (iPhone; CPU iPhone OS 18_4_1 like Mac OS X) AppleWebKit/605.1.15 (KHTML, like Gecko) Version/18.4 Mobile/15E148 Safari/604.1",iPhone,Safari,18.4,iOS,18_4_1,https://5puzkbbxv1.cognition.run/?sona_id=57018,"en-US,en;q=0.9",ejp8r94wvwq8m4c,23,"[""White""]",No,Male,NA,No,NA,null,<p></p>,null,choice,cdt,trinary,repulsion_A,2,microwave ovens,null,null,null,null,null,null,2,NA,NA,NA,NA,NA,NA,NA,NA,NA,NA
NA,NA,NA,NA,NA,choice_trial,survey-html-form,23,112145,0.0-4.0-1.9,109,1,2025-05-01T15:47:02Z,b60275e29fe2361ab97ac0ac217840d7,"Mozilla/5.0 (iPhone; CPU iPhone OS 18_4_1 like Mac OS X) AppleWebKit/605.1.15 (KHTML, like Gecko) Version/18.4 Mobile/15E148 Safari/604.1",iPhone,Safari,18.4,iOS,18_4_1,https://5puzkbbxv1.cognition.run/?sona_id=57018,"en-US,en;q=0.9",ejp8r94wvwq8m4c,23,"[""White""]",No,Male,NA,No,NA,2128,NA,"{""product_choice"":""C""}",choice,cdt,trinary,repulsion_A,2,microwave ovens,null,null,null,null,null,null,2,30,40,20,100,90,100,Warranty,Cooking power,NA,NA
NA,NA,NA,NA,NA,choice_trial_setup,html-keyboard-response,24,112449,0.0-4.0-0.10,109,1,2025-05-01T15:47:02Z,b60275e29fe2361ab97ac0ac217840d7,"Mozilla/5.0 (iPhone; CPU iPhone OS 18_4_1 like Mac OS X) AppleWebKit/605.1.15 (KHTML, like Gecko) Version/18.4 Mobile/15E148 Safari/604.1",iPhone,Safari,18.4,iOS,18_4_1,https://5puzkbbxv1.cognition.run/?sona_id=57018,"en-US,en;q=0.9",ejp8r94wvwq8m4c,23,"[""White""]",No,Male,NA,No,NA,null,<p></p>,null,choice,ct,binary,repulsion,1,microwave ovens,null,null,null,null,null,null,1,NA,NA,NA,NA,NA,NA,NA,NA,NA,NA
NA,NA,NA,NA,NA,choice_trial,survey-html-form,25,115030,0.0-4.0-1.10,109,1,2025-05-01T15:47:02Z,b60275e29fe2361ab97ac0ac217840d7,"Mozilla/5.0 (iPhone; CPU iPhone OS 18_4_1 like Mac OS X) AppleWebKit/605.1.15 (KHTML, like Gecko) Version/18.4 Mobile/15E148 Safari/604.1",iPhone,Safari,18.4,iOS,18_4_1,https://5puzkbbxv1.cognition.run/?sona_id=57018,"en-US,en;q=0.9",ejp8r94wvwq8m4c,23,"[""White""]",No,Male,NA,No,NA,2577,NA,"{""product_choice"":""B""}",choice,ct,binary,repulsion,1,microwave ovens,null,null,null,null,null,null,1,100,90,null,30,40,null,Warranty,Cooking power,NA,NA
NA,NA,NA,NA,NA,choice_trial_setup,html-keyboard-response,26,115334,0.0-4.0-0.11,109,1,2025-05-01T15:47:02Z,b60275e29fe2361ab97ac0ac217840d7,"Mozilla/5.0 (iPhone; CPU iPhone OS 18_4_1 like Mac OS X) AppleWebKit/605.1.15 (KHTML, like Gecko) Version/18.4 Mobile/15E148 Safari/604.1",iPhone,Safari,18.4,iOS,18_4_1,https://5puzkbbxv1.cognition.run/?sona_id=57018,"en-US,en;q=0.9",ejp8r94wvwq8m4c,23,"[""White""]",No,Male,NA,No,NA,null,<p></p>,null,choice,cdt,trinary,repulsion_A,1,laptops,null,null,null,null,null,null,1,NA,NA,NA,NA,NA,NA,NA,NA,NA,NA
NA,NA,NA,NA,NA,choice_trial,survey-html-form,27,118283,0.0-4.0-1.11,109,1,2025-05-01T15:47:02Z,b60275e29fe2361ab97ac0ac217840d7,"Mozilla/5.0 (iPhone; CPU iPhone OS 18_4_1 like Mac OS X) AppleWebKit/605.1.15 (KHTML, like Gecko) Version/18.4 Mobile/15E148 Safari/604.1",iPhone,Safari,18.4,iOS,18_4_1,https://5puzkbbxv1.cognition.run/?sona_id=57018,"en-US,en;q=0.9",ejp8r94wvwq8m4c,23,"[""White""]",No,Male,NA,No,NA,2944,NA,"{""product_choice"":""C""}",choice,cdt,trinary,repulsion_A,1,laptops,null,null,null,null,null,null,1,100,90,100,30,40,20,Processing speed,Memory (RAM),NA,NA
NA,NA,NA,NA,NA,choice_trial_setup,html-keyboard-response,28,118586,0.0-4.0-0.12,109,1,2025-05-01T15:47:02Z,b60275e29fe2361ab97ac0ac217840d7,"Mozilla/5.0 (iPhone; CPU iPhone OS 18_4_1 like Mac OS X) AppleWebKit/605.1.15 (KHTML, like Gecko) Version/18.4 Mobile/15E148 Safari/604.1",iPhone,Safari,18.4,iOS,18_4_1,https://5puzkbbxv1.cognition.run/?sona_id=57018,"en-US,en;q=0.9",ejp8r94wvwq8m4c,23,"[""White""]",No,Male,NA,No,NA,null,<p></p>,null,choice,ctd,trinary,repulsion_B,2,washing machines,null,null,null,null,null,null,1,NA,NA,NA,NA,NA,NA,NA,NA,NA,NA
NA,NA,NA,NA,NA,choice_trial,survey-html-form,29,122069,0.0-4.0-1.12,109,1,2025-05-01T15:47:02Z,b60275e29fe2361ab97ac0ac217840d7,"Mozilla/5.0 (iPhone; CPU iPhone OS 18_4_1 like Mac OS X) AppleWebKit/605.1.15 (KHTML, like Gecko) Version/18.4 Mobile/15E148 Safari/604.1",iPhone,Safari,18.4,iOS,18_4_1,https://5puzkbbxv1.cognition.run/?sona_id=57018,"en-US,en;q=0.9",ejp8r94wvwq8m4c,23,"[""White""]",No,Male,NA,No,NA,3478,NA,"{""product_choice"":""A""}",choice,ctd,trinary,repulsion_B,2,washing machines,null,null,null,null,null,null,1,40,30,40,90,100,80,Average lifespan,Energy savings,NA,NA
NA,NA,NA,NA,NA,choice_trial_setup,html-keyboard-response,30,122373,0.0-4.0-0.13,109,1,2025-05-01T15:47:02Z,b60275e29fe2361ab97ac0ac217840d7,"Mozilla/5.0 (iPhone; CPU iPhone OS 18_4_1 like Mac OS X) AppleWebKit/605.1.15 (KHTML, like Gecko) Version/18.4 Mobile/15E148 Safari/604.1",iPhone,Safari,18.4,iOS,18_4_1,https://5puzkbbxv1.cognition.run/?sona_id=57018,"en-US,en;q=0.9",ejp8r94wvwq8m4c,23,"[""White""]",No,Male,NA,No,NA,null,<p></p>,null,choice,wb,binary,catch,null,televisions,50,90,30,50,null,null,2,NA,NA,NA,NA,NA,NA,NA,NA,NA,NA
NA,NA,NA,NA,NA,choice_trial,survey-html-form,31,125755,0.0-4.0-1.13,109,1,2025-05-01T15:47:02Z,b60275e29fe2361ab97ac0ac217840d7,"Mozilla/5.0 (iPhone; CPU iPhone OS 18_4_1 like Mac OS X) AppleWebKit/605.1.15 (KHTML, like Gecko) Version/18.4 Mobile/15E148 Safari/604.1",iPhone,Safari,18.4,iOS,18_4_1,https://5puzkbbxv1.cognition.run/?sona_id=57018,"en-US,en;q=0.9",ejp8r94wvwq8m4c,23,"[""White""]",No,Male,NA,No,NA,3377,NA,"{""product_choice"":""A""}",choice,wb,binary,catch,null,televisions,50,90,30,50,null,null,2,null,null,null,null,null,null,Screen size,Average lifespan,NA,NA
NA,NA,NA,NA,NA,choice_trial_setup,html-keyboard-response,32,126059,0.0-4.0-0.14,109,1,2025-05-01T15:47:02Z,b60275e29fe2361ab97ac0ac217840d7,"Mozilla/5.0 (iPhone; CPU iPhone OS 18_4_1 like Mac OS X) AppleWebKit/605.1.15 (KHTML, like Gecko) Version/18.4 Mobile/15E148 Safari/604.1",iPhone,Safari,18.4,iOS,18_4_1,https://5puzkbbxv1.cognition.run/?sona_id=57018,"en-US,en;q=0.9",ejp8r94wvwq8m4c,23,"[""White""]",No,Male,NA,No,NA,null,<p></p>,null,choice,dct,trinary,attraction,2,washing machines,null,null,null,null,null,null,2,NA,NA,NA,NA,NA,NA,NA,NA,NA,NA
NA,NA,NA,NA,NA,choice_trial,survey-html-form,33,129175,0.0-4.0-1.14,109,1,2025-05-01T15:47:02Z,b60275e29fe2361ab97ac0ac217840d7,"Mozilla/5.0 (iPhone; CPU iPhone OS 18_4_1 like Mac OS X) AppleWebKit/605.1.15 (KHTML, like Gecko) Version/18.4 Mobile/15E148 Safari/604.1",iPhone,Safari,18.4,iOS,18_4_1,https://5puzkbbxv1.cognition.run/?sona_id=57018,"en-US,en;q=0.9",ejp8r94wvwq8m4c,23,"[""White""]",No,Male,NA,No,NA,3110,NA,"{""product_choice"":""C""}",choice,dct,trinary,attraction,2,washing machines,null,null,null,null,null,null,2,50,60,40,60,50,60,Average lifespan,Energy savings,NA,NA
NA,NA,NA,NA,NA,choice_trial_setup,html-keyboard-response,34,129479,0.0-4.0-0.15,109,1,2025-05-01T15:47:02Z,b60275e29fe2361ab97ac0ac217840d7,"Mozilla/5.0 (iPhone; CPU iPhone OS 18_4_1 like Mac OS X) AppleWebKit/605.1.15 (KHTML, like Gecko) Version/18.4 Mobile/15E148 Safari/604.1",iPhone,Safari,18.4,iOS,18_4_1,https://5puzkbbxv1.cognition.run/?sona_id=57018,"en-US,en;q=0.9",ejp8r94wvwq8m4c,23,"[""White""]",No,Male,NA,No,NA,null,<p></p>,null,choice,ct,binary,repulsion,2,televisions,null,null,null,null,null,null,2,NA,NA,NA,NA,NA,NA,NA,NA,NA,NA
NA,NA,NA,NA,NA,choice_trial,survey-html-form,35,130995,0.0-4.0-1.15,109,1,2025-05-01T15:47:02Z,b60275e29fe2361ab97ac0ac217840d7,"Mozilla/5.0 (iPhone; CPU iPhone OS 18_4_1 like Mac OS X) AppleWebKit/605.1.15 (KHTML, like Gecko) Version/18.4 Mobile/15E148 Safari/604.1",iPhone,Safari,18.4,iOS,18_4_1,https://5puzkbbxv1.cognition.run/?sona_id=57018,"en-US,en;q=0.9",ejp8r94wvwq8m4c,23,"[""White""]",No,Male,NA,No,NA,1510,NA,"{""product_choice"":""A""}",choice,ct,binary,repulsion,2,televisions,null,null,null,null,null,null,2,30,40,null,100,90,null,Screen size,Average lifespan,NA,NA
NA,NA,NA,NA,NA,choice_trial_setup,html-keyboard-response,36,131299,0.0-4.0-0.16,109,1,2025-05-01T15:47:02Z,b60275e29fe2361ab97ac0ac217840d7,"Mozilla/5.0 (iPhone; CPU iPhone OS 18_4_1 like Mac OS X) AppleWebKit/605.1.15 (KHTML, like Gecko) Version/18.4 Mobile/15E148 Safari/604.1",iPhone,Safari,18.4,iOS,18_4_1,https://5puzkbbxv1.cognition.run/?sona_id=57018,"en-US,en;q=0.9",ejp8r94wvwq8m4c,23,"[""White""]",No,Male,NA,No,NA,null,<p></p>,null,choice,tdc,trinary,repulsion_A,1,microwave ovens,null,null,null,null,null,null,2,NA,NA,NA,NA,NA,NA,NA,NA,NA,NA
NA,NA,NA,NA,NA,choice_trial,survey-html-form,37,133312,0.0-4.0-1.16,109,1,2025-05-01T15:47:02Z,b60275e29fe2361ab97ac0ac217840d7,"Mozilla/5.0 (iPhone; CPU iPhone OS 18_4_1 like Mac OS X) AppleWebKit/605.1.15 (KHTML, like Gecko) Version/18.4 Mobile/15E148 Safari/604.1",iPhone,Safari,18.4,iOS,18_4_1,https://5puzkbbxv1.cognition.run/?sona_id=57018,"en-US,en;q=0.9",ejp8r94wvwq8m4c,23,"[""White""]",No,Male,NA,No,NA,2008,NA,"{""product_choice"":""A""}",choice,tdc,trinary,repulsion_A,1,microwave ovens,null,null,null,null,null,null,2,100,90,100,30,40,20,Warranty,Cooking power,NA,NA
NA,NA,NA,NA,NA,choice_trial_setup,html-keyboard-response,38,133616,0.0-4.0-0.17,109,1,2025-05-01T15:47:02Z,b60275e29fe2361ab97ac0ac217840d7,"Mozilla/5.0 (iPhone; CPU iPhone OS 18_4_1 like Mac OS X) AppleWebKit/605.1.15 (KHTML, like Gecko) Version/18.4 Mobile/15E148 Safari/604.1",iPhone,Safari,18.4,iOS,18_4_1,https://5puzkbbxv1.cognition.run/?sona_id=57018,"en-US,en;q=0.9",ejp8r94wvwq8m4c,23,"[""White""]",No,Male,NA,No,NA,null,<p></p>,null,choice,ctd,trinary,repulsion_A,2,laptops,null,null,null,null,null,null,1,NA,NA,NA,NA,NA,NA,NA,NA,NA,NA
NA,NA,NA,NA,NA,choice_trial,survey-html-form,39,134746,0.0-4.0-1.17,109,1,2025-05-01T15:47:02Z,b60275e29fe2361ab97ac0ac217840d7,"Mozilla/5.0 (iPhone; CPU iPhone OS 18_4_1 like Mac OS X) AppleWebKit/605.1.15 (KHTML, like Gecko) Version/18.4 Mobile/15E148 Safari/604.1",iPhone,Safari,18.4,iOS,18_4_1,https://5puzkbbxv1.cognition.run/?sona_id=57018,"en-US,en;q=0.9",ejp8r94wvwq8m4c,23,"[""White""]",No,Male,NA,No,NA,1125,NA,"{""product_choice"":""B""}",choice,ctd,trinary,repulsion_A,2,laptops,null,null,null,null,null,null,1,30,40,20,100,90,100,Processing speed,Memory (RAM),NA,NA
NA,NA,NA,NA,NA,choice_trial_setup,html-keyboard-response,40,135050,0.0-4.0-0.18,109,1,2025-05-01T15:47:02Z,b60275e29fe2361ab97ac0ac217840d7,"Mozilla/5.0 (iPhone; CPU iPhone OS 18_4_1 like Mac OS X) AppleWebKit/605.1.15 (KHTML, like Gecko) Version/18.4 Mobile/15E148 Safari/604.1",iPhone,Safari,18.4,iOS,18_4_1,https://5puzkbbxv1.cognition.run/?sona_id=57018,"en-US,en;q=0.9",ejp8r94wvwq8m4c,23,"[""White""]",No,Male,NA,No,NA,null,<p></p>,null,choice,tc,binary,repulsion,1,laptops,null,null,null,null,null,null,1,NA,NA,NA,NA,NA,NA,NA,NA,NA,NA
NA,NA,NA,NA,NA,choice_trial,survey-html-form,41,136130,0.0-4.0-1.18,109,1,2025-05-01T15:47:02Z,b60275e29fe2361ab97ac0ac217840d7,"Mozilla/5.0 (iPhone; CPU iPhone OS 18_4_1 like Mac OS X) AppleWebKit/605.1.15 (KHTML, like Gecko) Version/18.4 Mobile/15E148 Safari/604.1",iPhone,Safari,18.4,iOS,18_4_1,https://5puzkbbxv1.cognition.run/?sona_id=57018,"en-US,en;q=0.9",ejp8r94wvwq8m4c,23,"[""White""]",No,Male,NA,No,NA,1074,NA,"{""product_choice"":""B""}",choice,tc,binary,repulsion,1,laptops,null,null,null,null,null,null,1,100,90,null,30,40,null,Processing speed,Memory (RAM),NA,NA
NA,NA,NA,NA,NA,choice_trial_setup,html-keyboard-response,42,136434,0.0-4.0-0.19,109,1,2025-05-01T15:47:02Z,b60275e29fe2361ab97ac0ac217840d7,"Mozilla/5.0 (iPhone; CPU iPhone OS 18_4_1 like Mac OS X) AppleWebKit/605.1.15 (KHTML, like Gecko) Version/18.4 Mobile/15E148 Safari/604.1",iPhone,Safari,18.4,iOS,18_4_1,https://5puzkbbxv1.cognition.run/?sona_id=57018,"en-US,en;q=0.9",ejp8r94wvwq8m4c,23,"[""White""]",No,Male,NA,No,NA,null,<p></p>,null,choice,tcd,trinary,repulsion_A,2,washing machines,null,null,null,null,null,null,2,NA,NA,NA,NA,NA,NA,NA,NA,NA,NA
NA,NA,NA,NA,NA,choice_trial,survey-html-form,43,137532,0.0-4.0-1.19,109,1,2025-05-01T15:47:02Z,b60275e29fe2361ab97ac0ac217840d7,"Mozilla/5.0 (iPhone; CPU iPhone OS 18_4_1 like Mac OS X) AppleWebKit/605.1.15 (KHTML, like Gecko) Version/18.4 Mobile/15E148 Safari/604.1",iPhone,Safari,18.4,iOS,18_4_1,https://5puzkbbxv1.cognition.run/?sona_id=57018,"en-US,en;q=0.9",ejp8r94wvwq8m4c,23,"[""White""]",No,Male,NA,No,NA,1092,NA,"{""product_choice"":""B""}",choice,tcd,trinary,repulsion_A,2,washing machines,null,null,null,null,null,null,2,30,40,20,100,90,100,Average lifespan,Energy savings,NA,NA
NA,NA,NA,NA,NA,choice_trial_setup,html-keyboard-response,44,137836,0.0-4.0-0.20,109,1,2025-05-01T15:47:02Z,b60275e29fe2361ab97ac0ac217840d7,"Mozilla/5.0 (iPhone; CPU iPhone OS 18_4_1 like Mac OS X) AppleWebKit/605.1.15 (KHTML, like Gecko) Version/18.4 Mobile/15E148 Safari/604.1",iPhone,Safari,18.4,iOS,18_4_1,https://5puzkbbxv1.cognition.run/?sona_id=57018,"en-US,en;q=0.9",ejp8r94wvwq8m4c,23,"[""White""]",No,Male,NA,No,NA,null,<p></p>,null,choice,tdc,trinary,attraction,1,microwave ovens,null,null,null,null,null,null,2,NA,NA,NA,NA,NA,NA,NA,NA,NA,NA
NA,NA,NA,NA,NA,choice_trial,survey-html-form,45,138849,0.0-4.0-1.20,109,1,2025-05-01T15:47:02Z,b60275e29fe2361ab97ac0ac217840d7,"Mozilla/5.0 (iPhone; CPU iPhone OS 18_4_1 like Mac OS X) AppleWebKit/605.1.15 (KHTML, like Gecko) Version/18.4 Mobile/15E148 Safari/604.1",iPhone,Safari,18.4,iOS,18_4_1,https://5puzkbbxv1.cognition.run/?sona_id=57018,"en-US,en;q=0.9",ejp8r94wvwq8m4c,23,"[""White""]",No,Male,NA,No,NA,1007,NA,"{""product_choice"":""C""}",choice,tdc,trinary,attraction,1,microwave ovens,null,null,null,null,null,null,2,60,50,60,50,60,40,Warranty,Cooking power,NA,NA
NA,NA,NA,NA,NA,choice_trial_setup,html-keyboard-response,46,139153,0.0-4.0-0.21,109,1,2025-05-01T15:47:02Z,b60275e29fe2361ab97ac0ac217840d7,"Mozilla/5.0 (iPhone; CPU iPhone OS 18_4_1 like Mac OS X) AppleWebKit/605.1.15 (KHTML, like Gecko) Version/18.4 Mobile/15E148 Safari/604.1",iPhone,Safari,18.4,iOS,18_4_1,https://5puzkbbxv1.cognition.run/?sona_id=57018,"en-US,en;q=0.9",ejp8r94wvwq8m4c,23,"[""White""]",No,Male,NA,No,NA,null,<p></p>,null,choice,wb,binary,catch,null,washing machines,60,65,25,10,null,null,2,NA,NA,NA,NA,NA,NA,NA,NA,NA,NA
NA,NA,NA,NA,NA,choice_trial,survey-html-form,47,140234,0.0-4.0-1.21,109,1,2025-05-01T15:47:02Z,b60275e29fe2361ab97ac0ac217840d7,"Mozilla/5.0 (iPhone; CPU iPhone OS 18_4_1 like Mac OS X) AppleWebKit/605.1.15 (KHTML, like Gecko) Version/18.4 Mobile/15E148 Safari/604.1",iPhone,Safari,18.4,iOS,18_4_1,https://5puzkbbxv1.cognition.run/?sona_id=57018,"en-US,en;q=0.9",ejp8r94wvwq8m4c,23,"[""White""]",No,Male,NA,No,NA,1074,NA,"{""product_choice"":""A""}",choice,wb,binary,catch,null,washing machines,60,65,25,10,null,null,2,null,null,null,null,null,null,Average lifespan,Energy savings,NA,NA
NA,NA,NA,NA,NA,choice_trial_setup,html-keyboard-response,48,140539,0.0-4.0-0.22,109,1,2025-05-01T15:47:02Z,b60275e29fe2361ab97ac0ac217840d7,"Mozilla/5.0 (iPhone; CPU iPhone OS 18_4_1 like Mac OS X) AppleWebKit/605.1.15 (KHTML, like Gecko) Version/18.4 Mobile/15E148 Safari/604.1",iPhone,Safari,18.4,iOS,18_4_1,https://5puzkbbxv1.cognition.run/?sona_id=57018,"en-US,en;q=0.9",ejp8r94wvwq8m4c,23,"[""White""]",No,Male,NA,No,NA,null,<p></p>,null,choice,bww,trinary,catch,null,washing machines,90,95,10,40,25,15,1,NA,NA,NA,NA,NA,NA,NA,NA,NA,NA
NA,NA,NA,NA,NA,choice_trial,survey-html-form,49,141518,0.0-4.0-1.22,109,1,2025-05-01T15:47:02Z,b60275e29fe2361ab97ac0ac217840d7,"Mozilla/5.0 (iPhone; CPU iPhone OS 18_4_1 like Mac OS X) AppleWebKit/605.1.15 (KHTML, like Gecko) Version/18.4 Mobile/15E148 Safari/604.1",iPhone,Safari,18.4,iOS,18_4_1,https://5puzkbbxv1.cognition.run/?sona_id=57018,"en-US,en;q=0.9",ejp8r94wvwq8m4c,23,"[""White""]",No,Male,NA,No,NA,973,NA,"{""product_choice"":""C""}",choice,bww,trinary,catch,null,washing machines,90,95,10,40,25,15,1,null,null,null,null,null,null,Average lifespan,Energy savings,NA,NA
NA,NA,NA,NA,NA,choice_trial_setup,html-keyboard-response,50,141823,0.0-4.0-0.23,109,1,2025-05-01T15:47:02Z,b60275e29fe2361ab97ac0ac217840d7,"Mozilla/5.0 (iPhone; CPU iPhone OS 18_4_1 like Mac OS X) AppleWebKit/605.1.15 (KHTML, like Gecko) Version/18.4 Mobile/15E148 Safari/604.1",iPhone,Safari,18.4,iOS,18_4_1,https://5puzkbbxv1.cognition.run/?sona_id=57018,"en-US,en;q=0.9",ejp8r94wvwq8m4c,23,"[""White""]",No,Male,NA,No,NA,null,<p></p>,null,choice,cdt,trinary,attraction,2,televisions,null,null,null,null,null,null,1,NA,NA,NA,NA,NA,NA,NA,NA,NA,NA
NA,NA,NA,NA,NA,choice_trial,survey-html-form,51,142858,0.0-4.0-1.23,109,1,2025-05-01T15:47:02Z,b60275e29fe2361ab97ac0ac217840d7,"Mozilla/5.0 (iPhone; CPU iPhone OS 18_4_1 like Mac OS X) AppleWebKit/605.1.15 (KHTML, like Gecko) Version/18.4 Mobile/15E148 Safari/604.1",iPhone,Safari,18.4,iOS,18_4_1,https://5puzkbbxv1.cognition.run/?sona_id=57018,"en-US,en;q=0.9",ejp8r94wvwq8m4c,23,"[""White""]",No,Male,NA,No,NA,1028,NA,"{""product_choice"":""B""}",choice,cdt,trinary,attraction,2,televisions,null,null,null,null,null,null,1,50,60,40,60,50,60,Screen size,Average lifespan,NA,NA
NA,NA,NA,NA,NA,choice_trial_setup,html-keyboard-response,52,143163,0.0-4.0-0.24,109,1,2025-05-01T15:47:02Z,b60275e29fe2361ab97ac0ac217840d7,"Mozilla/5.0 (iPhone; CPU iPhone OS 18_4_1 like Mac OS X) AppleWebKit/605.1.15 (KHTML, like Gecko) Version/18.4 Mobile/15E148 Safari/604.1",iPhone,Safari,18.4,iOS,18_4_1,https://5puzkbbxv1.cognition.run/?sona_id=57018,"en-US,en;q=0.9",ejp8r94wvwq8m4c,23,"[""White""]",No,Male,NA,No,NA,null,<p></p>,null,choice,cdt,trinary,repulsion_B,2,televisions,null,null,null,null,null,null,1,NA,NA,NA,NA,NA,NA,NA,NA,NA,NA
NA,NA,NA,NA,NA,choice_trial,survey-html-form,53,144220,0.0-4.0-1.24,109,1,2025-05-01T15:47:02Z,b60275e29fe2361ab97ac0ac217840d7,"Mozilla/5.0 (iPhone; CPU iPhone OS 18_4_1 like Mac OS X) AppleWebKit/605.1.15 (KHTML, like Gecko) Version/18.4 Mobile/15E148 Safari/604.1",iPhone,Safari,18.4,iOS,18_4_1,https://5puzkbbxv1.cognition.run/?sona_id=57018,"en-US,en;q=0.9",ejp8r94wvwq8m4c,23,"[""White""]",No,Male,NA,No,NA,1050,NA,"{""product_choice"":""C""}",choice,cdt,trinary,repulsion_B,2,televisions,null,null,null,null,null,null,1,40,30,40,90,100,80,Screen size,Average lifespan,NA,NA
NA,NA,NA,NA,NA,choice_trial_setup,html-keyboard-response,54,144525,0.0-4.0-0.25,109,1,2025-05-01T15:47:02Z,b60275e29fe2361ab97ac0ac217840d7,"Mozilla/5.0 (iPhone; CPU iPhone OS 18_4_1 like Mac OS X) AppleWebKit/605.1.15 (KHTML, like Gecko) Version/18.4 Mobile/15E148 Safari/604.1",iPhone,Safari,18.4,iOS,18_4_1,https://5puzkbbxv1.cognition.run/?sona_id=57018,"en-US,en;q=0.9",ejp8r94wvwq8m4c,23,"[""White""]",No,Male,NA,No,NA,null,<p></p>,null,choice,tc,binary,attraction,NA,washing machines,null,null,null,null,null,null,1,NA,NA,NA,NA,NA,NA,NA,NA,NA,NA
NA,NA,NA,NA,NA,choice_trial,survey-html-form,55,145592,0.0-4.0-1.25,109,1,2025-05-01T15:47:02Z,b60275e29fe2361ab97ac0ac217840d7,"Mozilla/5.0 (iPhone; CPU iPhone OS 18_4_1 like Mac OS X) AppleWebKit/605.1.15 (KHTML, like Gecko) Version/18.4 Mobile/15E148 Safari/604.1",iPhone,Safari,18.4,iOS,18_4_1,https://5puzkbbxv1.cognition.run/?sona_id=57018,"en-US,en;q=0.9",ejp8r94wvwq8m4c,23,"[""White""]",No,Male,NA,No,NA,1061,NA,"{""product_choice"":""A""}",choice,tc,binary,attraction,NA,washing machines,null,null,null,null,null,null,1,60,50,null,50,60,null,Average lifespan,Energy savings,NA,NA
NA,NA,NA,NA,NA,choice_trial_setup,html-keyboard-response,56,145896,0.0-4.0-0.26,109,1,2025-05-01T15:47:02Z,b60275e29fe2361ab97ac0ac217840d7,"Mozilla/5.0 (iPhone; CPU iPhone OS 18_4_1 like Mac OS X) AppleWebKit/605.1.15 (KHTML, like Gecko) Version/18.4 Mobile/15E148 Safari/604.1",iPhone,Safari,18.4,iOS,18_4_1,https://5puzkbbxv1.cognition.run/?sona_id=57018,"en-US,en;q=0.9",ejp8r94wvwq8m4c,23,"[""White""]",No,Male,NA,No,NA,null,<p></p>,null,choice,wb,binary,catch,null,microwave ovens,75,70,10,50,null,null,2,NA,NA,NA,NA,NA,NA,NA,NA,NA,NA
NA,NA,NA,NA,NA,choice_trial,survey-html-form,57,146956,0.0-4.0-1.26,109,1,2025-05-01T15:47:02Z,b60275e29fe2361ab97ac0ac217840d7,"Mozilla/5.0 (iPhone; CPU iPhone OS 18_4_1 like Mac OS X) AppleWebKit/605.1.15 (KHTML, like Gecko) Version/18.4 Mobile/15E148 Safari/604.1",iPhone,Safari,18.4,iOS,18_4_1,https://5puzkbbxv1.cognition.run/?sona_id=57018,"en-US,en;q=0.9",ejp8r94wvwq8m4c,23,"[""White""]",No,Male,NA,No,NA,1056,NA,"{""product_choice"":""B""}",choice,wb,binary,catch,null,microwave ovens,75,70,10,50,null,null,2,null,null,null,null,null,null,Warranty,Cooking power,NA,NA
NA,NA,NA,NA,NA,choice_trial_setup,html-keyboard-response,58,147261,0.0-4.0-0.27,109,1,2025-05-01T15:47:02Z,b60275e29fe2361ab97ac0ac217840d7,"Mozilla/5.0 (iPhone; CPU iPhone OS 18_4_1 like Mac OS X) AppleWebKit/605.1.15 (KHTML, like Gecko) Version/18.4 Mobile/15E148 Safari/604.1",iPhone,Safari,18.4,iOS,18_4_1,https://5puzkbbxv1.cognition.run/?sona_id=57018,"en-US,en;q=0.9",ejp8r94wvwq8m4c,23,"[""White""]",No,Male,NA,No,NA,null,<p></p>,null,choice,ct,binary,repulsion,1,washing machines,null,null,null,null,null,null,1,NA,NA,NA,NA,NA,NA,NA,NA,NA,NA
NA,NA,NA,NA,NA,choice_trial,survey-html-form,59,148323,0.0-4.0-1.27,109,1,2025-05-01T15:47:02Z,b60275e29fe2361ab97ac0ac217840d7,"Mozilla/5.0 (iPhone; CPU iPhone OS 18_4_1 like Mac OS X) AppleWebKit/605.1.15 (KHTML, like Gecko) Version/18.4 Mobile/15E148 Safari/604.1",iPhone,Safari,18.4,iOS,18_4_1,https://5puzkbbxv1.cognition.run/?sona_id=57018,"en-US,en;q=0.9",ejp8r94wvwq8m4c,23,"[""White""]",No,Male,NA,No,NA,1057,NA,"{""product_choice"":""A""}",choice,ct,binary,repulsion,1,washing machines,null,null,null,null,null,null,1,100,90,null,30,40,null,Average lifespan,Energy savings,NA,NA
NA,NA,NA,NA,NA,choice_trial_setup,html-keyboard-response,60,148628,0.0-4.0-0.28,109,1,2025-05-01T15:47:02Z,b60275e29fe2361ab97ac0ac217840d7,"Mozilla/5.0 (iPhone; CPU iPhone OS 18_4_1 like Mac OS X) AppleWebKit/605.1.15 (KHTML, like Gecko) Version/18.4 Mobile/15E148 Safari/604.1",iPhone,Safari,18.4,iOS,18_4_1,https://5puzkbbxv1.cognition.run/?sona_id=57018,"en-US,en;q=0.9",ejp8r94wvwq8m4c,23,"[""White""]",No,Male,NA,No,NA,null,<p></p>,null,choice,tdc,trinary,attraction,2,laptops,null,null,null,null,null,null,2,NA,NA,NA,NA,NA,NA,NA,NA,NA,NA
NA,NA,NA,NA,NA,choice_trial,survey-html-form,61,149962,0.0-4.0-1.28,109,1,2025-05-01T15:47:02Z,b60275e29fe2361ab97ac0ac217840d7,"Mozilla/5.0 (iPhone; CPU iPhone OS 18_4_1 like Mac OS X) AppleWebKit/605.1.15 (KHTML, like Gecko) Version/18.4 Mobile/15E148 Safari/604.1",iPhone,Safari,18.4,iOS,18_4_1,https://5puzkbbxv1.cognition.run/?sona_id=57018,"en-US,en;q=0.9",ejp8r94wvwq8m4c,23,"[""White""]",No,Male,NA,No,NA,1327,NA,"{""product_choice"":""C""}",choice,tdc,trinary,attraction,2,laptops,null,null,null,null,null,null,2,50,60,40,60,50,60,Processing speed,Memory (RAM),NA,NA
NA,NA,NA,NA,NA,choice_trial_setup,html-keyboard-response,62,150266,0.0-4.0-0.29,109,1,2025-05-01T15:47:02Z,b60275e29fe2361ab97ac0ac217840d7,"Mozilla/5.0 (iPhone; CPU iPhone OS 18_4_1 like Mac OS X) AppleWebKit/605.1.15 (KHTML, like Gecko) Version/18.4 Mobile/15E148 Safari/604.1",iPhone,Safari,18.4,iOS,18_4_1,https://5puzkbbxv1.cognition.run/?sona_id=57018,"en-US,en;q=0.9",ejp8r94wvwq8m4c,23,"[""White""]",No,Male,NA,No,NA,null,<p></p>,null,choice,tcd,trinary,repulsion_A,1,washing machines,null,null,null,null,null,null,1,NA,NA,NA,NA,NA,NA,NA,NA,NA,NA
NA,NA,NA,NA,NA,choice_trial,survey-html-form,63,152176,0.0-4.0-1.29,109,1,2025-05-01T15:47:02Z,b60275e29fe2361ab97ac0ac217840d7,"Mozilla/5.0 (iPhone; CPU iPhone OS 18_4_1 like Mac OS X) AppleWebKit/605.1.15 (KHTML, like Gecko) Version/18.4 Mobile/15E148 Safari/604.1",iPhone,Safari,18.4,iOS,18_4_1,https://5puzkbbxv1.cognition.run/?sona_id=57018,"en-US,en;q=0.9",ejp8r94wvwq8m4c,23,"[""White""]",No,Male,NA,No,NA,1903,NA,"{""product_choice"":""B""}",choice,tcd,trinary,repulsion_A,1,washing machines,null,null,null,null,null,null,1,100,90,100,30,40,20,Average lifespan,Energy savings,NA,NA
NA,NA,NA,NA,NA,choice_trial_setup,html-keyboard-response,64,152479,0.0-4.0-0.30,109,1,2025-05-01T15:47:02Z,b60275e29fe2361ab97ac0ac217840d7,"Mozilla/5.0 (iPhone; CPU iPhone OS 18_4_1 like Mac OS X) AppleWebKit/605.1.15 (KHTML, like Gecko) Version/18.4 Mobile/15E148 Safari/604.1",iPhone,Safari,18.4,iOS,18_4_1,https://5puzkbbxv1.cognition.run/?sona_id=57018,"en-US,en;q=0.9",ejp8r94wvwq8m4c,23,"[""White""]",No,Male,NA,No,NA,null,<p></p>,null,choice,tc,binary,repulsion,1,televisions,null,null,null,null,null,null,1,NA,NA,NA,NA,NA,NA,NA,NA,NA,NA
NA,NA,NA,NA,NA,choice_trial,survey-html-form,65,153492,0.0-4.0-1.30,109,1,2025-05-01T15:47:02Z,b60275e29fe2361ab97ac0ac217840d7,"Mozilla/5.0 (iPhone; CPU iPhone OS 18_4_1 like Mac OS X) AppleWebKit/605.1.15 (KHTML, like Gecko) Version/18.4 Mobile/15E148 Safari/604.1",iPhone,Safari,18.4,iOS,18_4_1,https://5puzkbbxv1.cognition.run/?sona_id=57018,"en-US,en;q=0.9",ejp8r94wvwq8m4c,23,"[""White""]",No,Male,NA,No,NA,1006,NA,"{""product_choice"":""B""}",choice,tc,binary,repulsion,1,televisions,null,null,null,null,null,null,1,100,90,null,30,40,null,Screen size,Average lifespan,NA,NA
NA,NA,NA,NA,NA,choice_trial_setup,html-keyboard-response,66,153796,0.0-4.0-0.31,109,1,2025-05-01T15:47:02Z,b60275e29fe2361ab97ac0ac217840d7,"Mozilla/5.0 (iPhone; CPU iPhone OS 18_4_1 like Mac OS X) AppleWebKit/605.1.15 (KHTML, like Gecko) Version/18.4 Mobile/15E148 Safari/604.1",iPhone,Safari,18.4,iOS,18_4_1,https://5puzkbbxv1.cognition.run/?sona_id=57018,"en-US,en;q=0.9",ejp8r94wvwq8m4c,23,"[""White""]",No,Male,NA,No,NA,null,<p></p>,null,choice,ct,binary,repulsion,2,microwave ovens,null,null,null,null,null,null,1,NA,NA,NA,NA,NA,NA,NA,NA,NA,NA
NA,NA,NA,NA,NA,choice_trial,survey-html-form,67,154861,0.0-4.0-1.31,109,1,2025-05-01T15:47:02Z,b60275e29fe2361ab97ac0ac217840d7,"Mozilla/5.0 (iPhone; CPU iPhone OS 18_4_1 like Mac OS X) AppleWebKit/605.1.15 (KHTML, like Gecko) Version/18.4 Mobile/15E148 Safari/604.1",iPhone,Safari,18.4,iOS,18_4_1,https://5puzkbbxv1.cognition.run/?sona_id=57018,"en-US,en;q=0.9",ejp8r94wvwq8m4c,23,"[""White""]",No,Male,NA,No,NA,1058,NA,"{""product_choice"":""B""}",choice,ct,binary,repulsion,2,microwave ovens,null,null,null,null,null,null,1,30,40,null,100,90,null,Warranty,Cooking power,NA,NA
NA,NA,NA,NA,NA,choice_trial_setup,html-keyboard-response,68,155166,0.0-4.0-0.32,109,1,2025-05-01T15:47:02Z,b60275e29fe2361ab97ac0ac217840d7,"Mozilla/5.0 (iPhone; CPU iPhone OS 18_4_1 like Mac OS X) AppleWebKit/605.1.15 (KHTML, like Gecko) Version/18.4 Mobile/15E148 Safari/604.1",iPhone,Safari,18.4,iOS,18_4_1,https://5puzkbbxv1.cognition.run/?sona_id=57018,"en-US,en;q=0.9",ejp8r94wvwq8m4c,23,"[""White""]",No,Male,NA,No,NA,null,<p></p>,null,choice,tcd,trinary,repulsion_B,2,laptops,null,null,null,null,null,null,1,NA,NA,NA,NA,NA,NA,NA,NA,NA,NA
NA,NA,NA,NA,NA,choice_trial,survey-html-form,69,156313,0.0-4.0-1.32,109,1,2025-05-01T15:47:02Z,b60275e29fe2361ab97ac0ac217840d7,"Mozilla/5.0 (iPhone; CPU iPhone OS 18_4_1 like Mac OS X) AppleWebKit/605.1.15 (KHTML, like Gecko) Version/18.4 Mobile/15E148 Safari/604.1",iPhone,Safari,18.4,iOS,18_4_1,https://5puzkbbxv1.cognition.run/?sona_id=57018,"en-US,en;q=0.9",ejp8r94wvwq8m4c,23,"[""White""]",No,Male,NA,No,NA,1139,NA,"{""product_choice"":""A""}",choice,tcd,trinary,repulsion_B,2,laptops,null,null,null,null,null,null,1,40,30,40,90,100,80,Processing speed,Memory (RAM),NA,NA
NA,NA,NA,NA,NA,choice_trial_setup,html-keyboard-response,70,156618,0.0-4.0-0.33,109,1,2025-05-01T15:47:02Z,b60275e29fe2361ab97ac0ac217840d7,"Mozilla/5.0 (iPhone; CPU iPhone OS 18_4_1 like Mac OS X) AppleWebKit/605.1.15 (KHTML, like Gecko) Version/18.4 Mobile/15E148 Safari/604.1",iPhone,Safari,18.4,iOS,18_4_1,https://5puzkbbxv1.cognition.run/?sona_id=57018,"en-US,en;q=0.9",ejp8r94wvwq8m4c,23,"[""White""]",No,Male,NA,No,NA,null,<p></p>,null,choice,wwb,trinary,catch,null,laptops,75,85,45,25,30,40,1,NA,NA,NA,NA,NA,NA,NA,NA,NA,NA
NA,NA,NA,NA,NA,choice_trial,survey-html-form,71,157648,0.0-4.0-1.33,109,1,2025-05-01T15:47:02Z,b60275e29fe2361ab97ac0ac217840d7,"Mozilla/5.0 (iPhone; CPU iPhone OS 18_4_1 like Mac OS X) AppleWebKit/605.1.15 (KHTML, like Gecko) Version/18.4 Mobile/15E148 Safari/604.1",iPhone,Safari,18.4,iOS,18_4_1,https://5puzkbbxv1.cognition.run/?sona_id=57018,"en-US,en;q=0.9",ejp8r94wvwq8m4c,23,"[""White""]",No,Male,NA,No,NA,1022,NA,"{""product_choice"":""C""}",choice,wwb,trinary,catch,null,laptops,75,85,45,25,30,40,1,null,null,null,null,null,null,Processing speed,Memory (RAM),NA,NA
NA,NA,NA,NA,NA,choice_trial_setup,html-keyboard-response,72,157959,0.0-4.0-0.34,109,1,2025-05-01T15:47:02Z,b60275e29fe2361ab97ac0ac217840d7,"Mozilla/5.0 (iPhone; CPU iPhone OS 18_4_1 like Mac OS X) AppleWebKit/605.1.15 (KHTML, like Gecko) Version/18.4 Mobile/15E148 Safari/604.1",iPhone,Safari,18.4,iOS,18_4_1,https://5puzkbbxv1.cognition.run/?sona_id=57018,"en-US,en;q=0.9",ejp8r94wvwq8m4c,23,"[""White""]",No,Male,NA,No,NA,null,<p></p>,null,choice,tc,binary,attraction,NA,laptops,null,null,null,null,null,null,2,NA,NA,NA,NA,NA,NA,NA,NA,NA,NA
NA,NA,NA,NA,NA,choice_trial,survey-html-form,73,159196,0.0-4.0-1.34,109,1,2025-05-01T15:47:02Z,b60275e29fe2361ab97ac0ac217840d7,"Mozilla/5.0 (iPhone; CPU iPhone OS 18_4_1 like Mac OS X) AppleWebKit/605.1.15 (KHTML, like Gecko) Version/18.4 Mobile/15E148 Safari/604.1",iPhone,Safari,18.4,iOS,18_4_1,https://5puzkbbxv1.cognition.run/?sona_id=57018,"en-US,en;q=0.9",ejp8r94wvwq8m4c,23,"[""White""]",No,Male,NA,No,NA,1232,NA,"{""product_choice"":""B""}",choice,tc,binary,attraction,NA,laptops,null,null,null,null,null,null,2,60,50,null,50,60,null,Processing speed,Memory (RAM),NA,NA
NA,NA,NA,NA,NA,choice_trial_setup,html-keyboard-response,74,159501,0.0-4.0-0.35,109,1,2025-05-01T15:47:02Z,b60275e29fe2361ab97ac0ac217840d7,"Mozilla/5.0 (iPhone; CPU iPhone OS 18_4_1 like Mac OS X) AppleWebKit/605.1.15 (KHTML, like Gecko) Version/18.4 Mobile/15E148 Safari/604.1",iPhone,Safari,18.4,iOS,18_4_1,https://5puzkbbxv1.cognition.run/?sona_id=57018,"en-US,en;q=0.9",ejp8r94wvwq8m4c,23,"[""White""]",No,Male,NA,No,NA,null,<p></p>,null,choice,tdc,trinary,repulsion_B,2,microwave ovens,null,null,null,null,null,null,2,NA,NA,NA,NA,NA,NA,NA,NA,NA,NA
NA,NA,NA,NA,NA,choice_trial,survey-html-form,75,160558,0.0-4.0-1.35,109,1,2025-05-01T15:47:02Z,b60275e29fe2361ab97ac0ac217840d7,"Mozilla/5.0 (iPhone; CPU iPhone OS 18_4_1 like Mac OS X) AppleWebKit/605.1.15 (KHTML, like Gecko) Version/18.4 Mobile/15E148 Safari/604.1",iPhone,Safari,18.4,iOS,18_4_1,https://5puzkbbxv1.cognition.run/?sona_id=57018,"en-US,en;q=0.9",ejp8r94wvwq8m4c,23,"[""White""]",No,Male,NA,No,NA,1049,NA,"{""product_choice"":""B""}",choice,tdc,trinary,repulsion_B,2,microwave ovens,null,null,null,null,null,null,2,40,30,40,90,100,80,Warranty,Cooking power,NA,NA
NA,NA,NA,NA,NA,choice_trial_setup,html-keyboard-response,76,160863,0.0-4.0-0.36,109,1,2025-05-01T15:47:02Z,b60275e29fe2361ab97ac0ac217840d7,"Mozilla/5.0 (iPhone; CPU iPhone OS 18_4_1 like Mac OS X) AppleWebKit/605.1.15 (KHTML, like Gecko) Version/18.4 Mobile/15E148 Safari/604.1",iPhone,Safari,18.4,iOS,18_4_1,https://5puzkbbxv1.cognition.run/?sona_id=57018,"en-US,en;q=0.9",ejp8r94wvwq8m4c,23,"[""White""]",No,Male,NA,No,NA,null,<p></p>,null,choice,ct,binary,attraction,NA,televisions,null,null,null,null,null,null,2,NA,NA,NA,NA,NA,NA,NA,NA,NA,NA
NA,NA,NA,NA,NA,choice_trial,survey-html-form,77,161852,0.0-4.0-1.36,109,1,2025-05-01T15:47:02Z,b60275e29fe2361ab97ac0ac217840d7,"Mozilla/5.0 (iPhone; CPU iPhone OS 18_4_1 like Mac OS X) AppleWebKit/605.1.15 (KHTML, like Gecko) Version/18.4 Mobile/15E148 Safari/604.1",iPhone,Safari,18.4,iOS,18_4_1,https://5puzkbbxv1.cognition.run/?sona_id=57018,"en-US,en;q=0.9",ejp8r94wvwq8m4c,23,"[""White""]",No,Male,NA,No,NA,980,NA,"{""product_choice"":""B""}",choice,ct,binary,attraction,NA,televisions,null,null,null,null,null,null,2,60,50,null,50,60,null,Screen size,Average lifespan,NA,NA
NA,NA,NA,NA,NA,choice_trial_setup,html-keyboard-response,78,162157,0.0-4.0-0.37,109,1,2025-05-01T15:47:02Z,b60275e29fe2361ab97ac0ac217840d7,"Mozilla/5.0 (iPhone; CPU iPhone OS 18_4_1 like Mac OS X) AppleWebKit/605.1.15 (KHTML, like Gecko) Version/18.4 Mobile/15E148 Safari/604.1",iPhone,Safari,18.4,iOS,18_4_1,https://5puzkbbxv1.cognition.run/?sona_id=57018,"en-US,en;q=0.9",ejp8r94wvwq8m4c,23,"[""White""]",No,Male,NA,No,NA,null,<p></p>,null,choice,tc,binary,attraction,NA,microwave ovens,null,null,null,null,null,null,2,NA,NA,NA,NA,NA,NA,NA,NA,NA,NA
NA,NA,NA,NA,NA,choice_trial,survey-html-form,79,163188,0.0-4.0-1.37,109,1,2025-05-01T15:47:02Z,b60275e29fe2361ab97ac0ac217840d7,"Mozilla/5.0 (iPhone; CPU iPhone OS 18_4_1 like Mac OS X) AppleWebKit/605.1.15 (KHTML, like Gecko) Version/18.4 Mobile/15E148 Safari/604.1",iPhone,Safari,18.4,iOS,18_4_1,https://5puzkbbxv1.cognition.run/?sona_id=57018,"en-US,en;q=0.9",ejp8r94wvwq8m4c,23,"[""White""]",No,Male,NA,No,NA,1026,NA,"{""product_choice"":""A""}",choice,tc,binary,attraction,NA,microwave ovens,null,null,null,null,null,null,2,60,50,null,50,60,null,Warranty,Cooking power,NA,NA
NA,NA,NA,NA,NA,choice_trial_setup,html-keyboard-response,80,163494,0.0-4.0-0.38,109,1,2025-05-01T15:47:02Z,b60275e29fe2361ab97ac0ac217840d7,"Mozilla/5.0 (iPhone; CPU iPhone OS 18_4_1 like Mac OS X) AppleWebKit/605.1.15 (KHTML, like Gecko) Version/18.4 Mobile/15E148 Safari/604.1",iPhone,Safari,18.4,iOS,18_4_1,https://5puzkbbxv1.cognition.run/?sona_id=57018,"en-US,en;q=0.9",ejp8r94wvwq8m4c,23,"[""White""]",No,Male,NA,No,NA,null,<p></p>,null,choice,ctd,trinary,attraction,2,microwave ovens,null,null,null,null,null,null,2,NA,NA,NA,NA,NA,NA,NA,NA,NA,NA
NA,NA,NA,NA,NA,choice_trial,survey-html-form,81,164484,0.0-4.0-1.38,109,1,2025-05-01T15:47:02Z,b60275e29fe2361ab97ac0ac217840d7,"Mozilla/5.0 (iPhone; CPU iPhone OS 18_4_1 like Mac OS X) AppleWebKit/605.1.15 (KHTML, like Gecko) Version/18.4 Mobile/15E148 Safari/604.1",iPhone,Safari,18.4,iOS,18_4_1,https://5puzkbbxv1.cognition.run/?sona_id=57018,"en-US,en;q=0.9",ejp8r94wvwq8m4c,23,"[""White""]",No,Male,NA,No,NA,983,NA,"{""product_choice"":""C""}",choice,ctd,trinary,attraction,2,microwave ovens,null,null,null,null,null,null,2,50,60,40,60,50,60,Warranty,Cooking power,NA,NA
NA,NA,NA,NA,NA,choice_trial_setup,html-keyboard-response,82,164789,0.0-4.0-0.39,109,1,2025-05-01T15:47:02Z,b60275e29fe2361ab97ac0ac217840d7,"Mozilla/5.0 (iPhone; CPU iPhone OS 18_4_1 like Mac OS X) AppleWebKit/605.1.15 (KHTML, like Gecko) Version/18.4 Mobile/15E148 Safari/604.1",iPhone,Safari,18.4,iOS,18_4_1,https://5puzkbbxv1.cognition.run/?sona_id=57018,"en-US,en;q=0.9",ejp8r94wvwq8m4c,23,"[""White""]",No,Male,NA,No,NA,null,<p></p>,null,choice,dtc,trinary,repulsion_B,1,televisions,null,null,null,null,null,null,1,NA,NA,NA,NA,NA,NA,NA,NA,NA,NA
NA,NA,NA,NA,NA,choice_trial,survey-html-form,83,166522,0.0-4.0-1.39,109,1,2025-05-01T15:47:02Z,b60275e29fe2361ab97ac0ac217840d7,"Mozilla/5.0 (iPhone; CPU iPhone OS 18_4_1 like Mac OS X) AppleWebKit/605.1.15 (KHTML, like Gecko) Version/18.4 Mobile/15E148 Safari/604.1",iPhone,Safari,18.4,iOS,18_4_1,https://5puzkbbxv1.cognition.run/?sona_id=57018,"en-US,en;q=0.9",ejp8r94wvwq8m4c,23,"[""White""]",No,Male,NA,No,NA,1725,NA,"{""product_choice"":""A""}",choice,dtc,trinary,repulsion_B,1,televisions,null,null,null,null,null,null,1,90,100,80,40,30,40,Screen size,Average lifespan,NA,NA
NA,NA,NA,NA,NA,choice_trial_setup,html-keyboard-response,84,166827,0.0-4.0-0.40,109,1,2025-05-01T15:47:02Z,b60275e29fe2361ab97ac0ac217840d7,"Mozilla/5.0 (iPhone; CPU iPhone OS 18_4_1 like Mac OS X) AppleWebKit/605.1.15 (KHTML, like Gecko) Version/18.4 Mobile/15E148 Safari/604.1",iPhone,Safari,18.4,iOS,18_4_1,https://5puzkbbxv1.cognition.run/?sona_id=57018,"en-US,en;q=0.9",ejp8r94wvwq8m4c,23,"[""White""]",No,Male,NA,No,NA,null,<p></p>,null,choice,wb,binary,catch,null,laptops,60,95,25,35,null,null,2,NA,NA,NA,NA,NA,NA,NA,NA,NA,NA
NA,NA,NA,NA,NA,choice_trial,survey-html-form,85,167870,0.0-4.0-1.40,109,1,2025-05-01T15:47:02Z,b60275e29fe2361ab97ac0ac217840d7,"Mozilla/5.0 (iPhone; CPU iPhone OS 18_4_1 like Mac OS X) AppleWebKit/605.1.15 (KHTML, like Gecko) Version/18.4 Mobile/15E148 Safari/604.1",iPhone,Safari,18.4,iOS,18_4_1,https://5puzkbbxv1.cognition.run/?sona_id=57018,"en-US,en;q=0.9",ejp8r94wvwq8m4c,23,"[""White""]",No,Male,NA,No,NA,1035,NA,"{""product_choice"":""B""}",choice,wb,binary,catch,null,laptops,60,95,25,35,null,null,2,null,null,null,null,null,null,Processing speed,Memory (RAM),NA,NA
NA,NA,NA,NA,NA,choice_trial_setup,html-keyboard-response,86,168175,0.0-4.0-0.41,109,1,2025-05-01T15:47:02Z,b60275e29fe2361ab97ac0ac217840d7,"Mozilla/5.0 (iPhone; CPU iPhone OS 18_4_1 like Mac OS X) AppleWebKit/605.1.15 (KHTML, like Gecko) Version/18.4 Mobile/15E148 Safari/604.1",iPhone,Safari,18.4,iOS,18_4_1,https://5puzkbbxv1.cognition.run/?sona_id=57018,"en-US,en;q=0.9",ejp8r94wvwq8m4c,23,"[""White""]",No,Male,NA,No,NA,null,<p></p>,null,choice,dtc,trinary,attraction,1,televisions,null,null,null,null,null,null,2,NA,NA,NA,NA,NA,NA,NA,NA,NA,NA
NA,NA,NA,NA,NA,choice_trial,survey-html-form,87,169277,0.0-4.0-1.41,109,1,2025-05-01T15:47:02Z,b60275e29fe2361ab97ac0ac217840d7,"Mozilla/5.0 (iPhone; CPU iPhone OS 18_4_1 like Mac OS X) AppleWebKit/605.1.15 (KHTML, like Gecko) Version/18.4 Mobile/15E148 Safari/604.1",iPhone,Safari,18.4,iOS,18_4_1,https://5puzkbbxv1.cognition.run/?sona_id=57018,"en-US,en;q=0.9",ejp8r94wvwq8m4c,23,"[""White""]",No,Male,NA,No,NA,1094,NA,"{""product_choice"":""B""}",choice,dtc,trinary,attraction,1,televisions,null,null,null,null,null,null,2,60,50,60,50,60,40,Screen size,Average lifespan,NA,NA
NA,NA,NA,NA,NA,choice_trial_setup,html-keyboard-response,88,169583,0.0-4.0-0.42,109,1,2025-05-01T15:47:02Z,b60275e29fe2361ab97ac0ac217840d7,"Mozilla/5.0 (iPhone; CPU iPhone OS 18_4_1 like Mac OS X) AppleWebKit/605.1.15 (KHTML, like Gecko) Version/18.4 Mobile/15E148 Safari/604.1",iPhone,Safari,18.4,iOS,18_4_1,https://5puzkbbxv1.cognition.run/?sona_id=57018,"en-US,en;q=0.9",ejp8r94wvwq8m4c,23,"[""White""]",No,Male,NA,No,NA,null,<p></p>,null,choice,dct,trinary,repulsion_B,1,microwave ovens,null,null,null,null,null,null,1,NA,NA,NA,NA,NA,NA,NA,NA,NA,NA
NA,NA,NA,NA,NA,choice_trial,survey-html-form,89,170591,0.0-4.0-1.42,109,1,2025-05-01T15:47:02Z,b60275e29fe2361ab97ac0ac217840d7,"Mozilla/5.0 (iPhone; CPU iPhone OS 18_4_1 like Mac OS X) AppleWebKit/605.1.15 (KHTML, like Gecko) Version/18.4 Mobile/15E148 Safari/604.1",iPhone,Safari,18.4,iOS,18_4_1,https://5puzkbbxv1.cognition.run/?sona_id=57018,"en-US,en;q=0.9",ejp8r94wvwq8m4c,23,"[""White""]",No,Male,NA,No,NA,1000,NA,"{""product_choice"":""C""}",choice,dct,trinary,repulsion_B,1,microwave ovens,null,null,null,null,null,null,1,90,100,80,40,30,40,Warranty,Cooking power,NA,NA
NA,NA,NA,NA,NA,choice_trial_setup,html-keyboard-response,90,170896,0.0-4.0-0.43,109,1,2025-05-01T15:47:02Z,b60275e29fe2361ab97ac0ac217840d7,"Mozilla/5.0 (iPhone; CPU iPhone OS 18_4_1 like Mac OS X) AppleWebKit/605.1.15 (KHTML, like Gecko) Version/18.4 Mobile/15E148 Safari/604.1",iPhone,Safari,18.4,iOS,18_4_1,https://5puzkbbxv1.cognition.run/?sona_id=57018,"en-US,en;q=0.9",ejp8r94wvwq8m4c,23,"[""White""]",No,Male,NA,No,NA,null,<p></p>,null,choice,tdc,trinary,attraction,1,laptops,null,null,null,null,null,null,1,NA,NA,NA,NA,NA,NA,NA,NA,NA,NA
NA,NA,NA,NA,NA,choice_trial,survey-html-form,91,171897,0.0-4.0-1.43,109,1,2025-05-01T15:47:02Z,b60275e29fe2361ab97ac0ac217840d7,"Mozilla/5.0 (iPhone; CPU iPhone OS 18_4_1 like Mac OS X) AppleWebKit/605.1.15 (KHTML, like Gecko) Version/18.4 Mobile/15E148 Safari/604.1",iPhone,Safari,18.4,iOS,18_4_1,https://5puzkbbxv1.cognition.run/?sona_id=57018,"en-US,en;q=0.9",ejp8r94wvwq8m4c,23,"[""White""]",No,Male,NA,No,NA,993,NA,"{""product_choice"":""B""}",choice,tdc,trinary,attraction,1,laptops,null,null,null,null,null,null,1,60,50,60,50,60,40,Processing speed,Memory (RAM),NA,NA
NA,NA,NA,NA,NA,post_trials_message,html-button-response,92,174641,0.0-5.0,109,1,2025-05-01T15:47:02Z,b60275e29fe2361ab97ac0ac217840d7,"Mozilla/5.0 (iPhone; CPU iPhone OS 18_4_1 like Mac OS X) AppleWebKit/605.1.15 (KHTML, like Gecko) Version/18.4 Mobile/15E148 Safari/604.1",iPhone,Safari,18.4,iOS,18_4_1,https://5puzkbbxv1.cognition.run/?sona_id=57018,"en-US,en;q=0.9",ejp8r94wvwq8m4c,23,"[""White""]",No,Male,NA,No,NA,2737,<p> <b>Thank you for your patience!</b></p><p>  The study will be done after completing a brief form. </p>,0,NA,NA,NA,NA,NA,NA,NA,NA,NA,NA,NA,NA,NA,NA,NA,NA,NA,NA,NA,NA,NA,NA,NA
NA,NA,NA,NA,NA,survey_message,survey-text,93,212963,0.0-6.0,109,1,2025-05-01T15:47:02Z,b60275e29fe2361ab97ac0ac217840d7,"Mozilla/5.0 (iPhone; CPU iPhone OS 18_4_1 like Mac OS X) AppleWebKit/605.1.15 (KHTML, like Gecko) Version/18.4 Mobile/15E148 Safari/604.1",iPhone,Safari,18.4,iOS,18_4_1,https://5puzkbbxv1.cognition.run/?sona_id=57018,"en-US,en;q=0.9",ejp8r94wvwq8m4c,23,"[""White""]",No,Male,NA,No,NA,38302,NA,"{""Q0"":""Based off which I thought was best.""}",NA,NA,NA,NA,NA,NA,NA,NA,NA,NA,NA,NA,NA,NA,NA,NA,NA,NA,NA,NA,NA,Based off which I thought was best.,NA
NA,NA,NA,NA,NA,demo_age,survey-text,94,216490,0.0-7.0,109,1,2025-05-01T15:47:02Z,b60275e29fe2361ab97ac0ac217840d7,"Mozilla/5.0 (iPhone; CPU iPhone OS 18_4_1 like Mac OS X) AppleWebKit/605.1.15 (KHTML, like Gecko) Version/18.4 Mobile/15E148 Safari/604.1",iPhone,Safari,18.4,iOS,18_4_1,https://5puzkbbxv1.cognition.run/?sona_id=57018,"en-US,en;q=0.9",ejp8r94wvwq8m4c,23,"[""White""]",No,Male,NA,No,NA,3514,NA,"{""Q0"":""23""}",NA,NA,NA,NA,NA,NA,NA,NA,NA,NA,NA,NA,NA,NA,NA,NA,NA,NA,NA,NA,NA,NA,NA
NA,NA,NA,NA,NA,demo_race,survey-multi-select,95,219607,0.0-8.0,109,1,2025-05-01T15:47:02Z,b60275e29fe2361ab97ac0ac217840d7,"Mozilla/5.0 (iPhone; CPU iPhone OS 18_4_1 like Mac OS X) AppleWebKit/605.1.15 (KHTML, like Gecko) Version/18.4 Mobile/15E148 Safari/604.1",iPhone,Safari,18.4,iOS,18_4_1,https://5puzkbbxv1.cognition.run/?sona_id=57018,"en-US,en;q=0.9",ejp8r94wvwq8m4c,23,"[""White""]",No,Male,NA,No,NA,3110,NA,"{""Q0"":[""White""]}",NA,NA,NA,NA,NA,NA,NA,NA,NA,NA,NA,NA,NA,NA,NA,NA,NA,NA,NA,NA,NA,NA,[0]
NA,NA,NA,NA,NA,demo_ethnicity_gender,survey-multi-choice,96,223906,0.0-9.0,109,1,2025-05-01T15:47:02Z,b60275e29fe2361ab97ac0ac217840d7,"Mozilla/5.0 (iPhone; CPU iPhone OS 18_4_1 like Mac OS X) AppleWebKit/605.1.15 (KHTML, like Gecko) Version/18.4 Mobile/15E148 Safari/604.1",iPhone,Safari,18.4,iOS,18_4_1,https://5puzkbbxv1.cognition.run/?sona_id=57018,"en-US,en;q=0.9",ejp8r94wvwq8m4c,23,"[""White""]",No,Male,NA,No,NA,4293,NA,"{""Q0"":""No"",""Q1"":""Male""}",NA,NA,NA,NA,NA,NA,NA,NA,NA,NA,NA,NA,NA,NA,NA,NA,NA,NA,NA,NA,NA,NA,"[0,1]"
NA,NA,NA,NA,NA,demo_countries,survey-text,97,235990,0.0-10.0,109,1,2025-05-01T15:47:02Z,b60275e29fe2361ab97ac0ac217840d7,"Mozilla/5.0 (iPhone; CPU iPhone OS 18_4_1 like Mac OS X) AppleWebKit/605.1.15 (KHTML, like Gecko) Version/18.4 Mobile/15E148 Safari/604.1",iPhone,Safari,18.4,iOS,18_4_1,https://5puzkbbxv1.cognition.run/?sona_id=57018,"en-US,en;q=0.9",ejp8r94wvwq8m4c,23,"[""White""]",No,Male,NA,No,NA,12075,NA,"{""Q0"":""NA""}",NA,NA,NA,NA,NA,NA,NA,NA,NA,NA,NA,NA,NA,NA,NA,NA,NA,NA,NA,NA,NA,NA,NA
NA,NA,NA,NA,NA,demo_prev_study,survey-multi-choice,98,244689,0.0-11.0,109,1,2025-05-01T15:47:02Z,b60275e29fe2361ab97ac0ac217840d7,"Mozilla/5.0 (iPhone; CPU iPhone OS 18_4_1 like Mac OS X) AppleWebKit/605.1.15 (KHTML, like Gecko) Version/18.4 Mobile/15E148 Safari/604.1",iPhone,Safari,18.4,iOS,18_4_1,https://5puzkbbxv1.cognition.run/?sona_id=57018,"en-US,en;q=0.9",ejp8r94wvwq8m4c,23,"[""White""]",No,Male,NA,No,NA,8695,NA,"{""Q0"":""No""}",NA,NA,NA,NA,NA,NA,NA,NA,NA,NA,NA,NA,NA,NA,NA,NA,NA,NA,NA,NA,NA,NA,[0]
