success,timeout,failed_images,failed_audio,failed_video,screen_id,trial_type,trial_index,time_elapsed,internal_node_id,run_id,condition,recorded_at,source_code_version,user_agent,device,browser,browser_version,platform,platform_version,referer,accept_language,ppt_id,age,race,ethnicity,gender,other_countries,prev_study,exp_duration,view_history,rt,stimulus,response,phase,order,set,effect,t_high,category,d1_best,d2_best,d1_worst1,d2_worst1,d1_worst2,d2_worst2,first_dim,d1_t,d1_c,d1_d,d2_t,d2_c,d2_d,d1_name,d2_name,strategy_response,question_order
TRUE,FALSE,[],[],[],img preload,preload,0,164,0.0-0.0,117,1,2025-05-01T20:26:14Z,b60275e29fe2361ab97ac0ac217840d7,"Mozilla/5.0 (Macintosh; Intel Mac OS X 10_15_7) AppleWebKit/537.36 (KHTML, like Gecko) Chrome/135.0.0.0 Safari/537.36",Macintosh,Chrome,135.0.0.0,OS X,10_15_7,https://5puzkbbxv1.cognition.run/?sona_id=53596,"en-US,en;q=0.9",9q4snbk0pcbpvr6,21,"[""White""]",No,Female,NA,I'm not sure,229031.20000000295,NA,NA,NA,NA,NA,NA,NA,NA,NA,NA,NA,NA,NA,NA,NA,NA,NA,NA,NA,NA,NA,NA,NA,NA,NA,NA,NA
NA,NA,NA,NA,NA,computer_message,instructions,1,3549,0.0-1.0,117,1,2025-05-01T20:26:14Z,b60275e29fe2361ab97ac0ac217840d7,"Mozilla/5.0 (Macintosh; Intel Mac OS X 10_15_7) AppleWebKit/537.36 (KHTML, like Gecko) Chrome/135.0.0.0 Safari/537.36",Macintosh,Chrome,135.0.0.0,OS X,10_15_7,https://5puzkbbxv1.cognition.run/?sona_id=53596,"en-US,en;q=0.9",9q4snbk0pcbpvr6,21,"[""White""]",No,Female,NA,I'm not sure,229031.20000000295,"[{""page_index"":0,""viewing_time"":3384}]",3385,NA,NA,NA,NA,NA,NA,NA,NA,NA,NA,NA,NA,NA,NA,NA,NA,NA,NA,NA,NA,NA,NA,NA,NA,NA
TRUE,NA,NA,NA,NA,NA,fullscreen,2,9525,0.0-2.0,117,1,2025-05-01T20:26:14Z,b60275e29fe2361ab97ac0ac217840d7,"Mozilla/5.0 (Macintosh; Intel Mac OS X 10_15_7) AppleWebKit/537.36 (KHTML, like Gecko) Chrome/135.0.0.0 Safari/537.36",Macintosh,Chrome,135.0.0.0,OS X,10_15_7,https://5puzkbbxv1.cognition.run/?sona_id=53596,"en-US,en;q=0.9",9q4snbk0pcbpvr6,21,"[""White""]",No,Female,NA,I'm not sure,229031.20000000295,NA,4966,NA,NA,NA,NA,NA,NA,NA,NA,NA,NA,NA,NA,NA,NA,NA,NA,NA,NA,NA,NA,NA,NA,NA,NA,NA
NA,NA,NA,NA,NA,choice_instructions,instructions,3,26925,0.0-3.0,117,1,2025-05-01T20:26:14Z,b60275e29fe2361ab97ac0ac217840d7,"Mozilla/5.0 (Macintosh; Intel Mac OS X 10_15_7) AppleWebKit/537.36 (KHTML, like Gecko) Chrome/135.0.0.0 Safari/537.36",Macintosh,Chrome,135.0.0.0,OS X,10_15_7,https://5puzkbbxv1.cognition.run/?sona_id=53596,"en-US,en;q=0.9",9q4snbk0pcbpvr6,21,"[""White""]",No,Female,NA,I'm not sure,229031.20000000295,"[{""page_index"":0,""viewing_time"":1338},{""page_index"":1,""viewing_time"":3484},{""page_index"":2,""viewing_time"":2538},{""page_index"":3,""viewing_time"":2258},{""page_index"":4,""viewing_time"":1910},{""page_index"":5,""viewing_time"":4135},{""page_index"":6,""viewing_time"":1713}]",17377,NA,NA,NA,NA,NA,NA,NA,NA,NA,NA,NA,NA,NA,NA,NA,NA,NA,NA,NA,NA,NA,NA,NA,NA,NA
NA,NA,NA,NA,NA,choice_trial_setup,html-keyboard-response,4,27231,0.0-4.0-0.0,117,1,2025-05-01T20:26:14Z,b60275e29fe2361ab97ac0ac217840d7,"Mozilla/5.0 (Macintosh; Intel Mac OS X 10_15_7) AppleWebKit/537.36 (KHTML, like Gecko) Chrome/135.0.0.0 Safari/537.36",Macintosh,Chrome,135.0.0.0,OS X,10_15_7,https://5puzkbbxv1.cognition.run/?sona_id=53596,"en-US,en;q=0.9",9q4snbk0pcbpvr6,21,"[""White""]",No,Female,NA,I'm not sure,229031.20000000295,NA,null,<p></p>,null,choice,cdt,trinary,repulsion_A,2,washing machines,null,null,null,null,null,null,1,NA,NA,NA,NA,NA,NA,NA,NA,NA,NA
NA,NA,NA,NA,NA,choice_trial,survey-html-form,5,36001,0.0-4.0-1.0,117,1,2025-05-01T20:26:14Z,b60275e29fe2361ab97ac0ac217840d7,"Mozilla/5.0 (Macintosh; Intel Mac OS X 10_15_7) AppleWebKit/537.36 (KHTML, like Gecko) Chrome/135.0.0.0 Safari/537.36",Macintosh,Chrome,135.0.0.0,OS X,10_15_7,https://5puzkbbxv1.cognition.run/?sona_id=53596,"en-US,en;q=0.9",9q4snbk0pcbpvr6,21,"[""White""]",No,Female,NA,I'm not sure,229031.20000000295,NA,8760,NA,"{""product_choice"":""A""}",choice,cdt,trinary,repulsion_A,2,washing machines,null,null,null,null,null,null,1,30,40,20,100,90,100,Average lifespan,Energy savings,NA,NA
NA,NA,NA,NA,NA,choice_trial_setup,html-keyboard-response,6,36304,0.0-4.0-0.1,117,1,2025-05-01T20:26:14Z,b60275e29fe2361ab97ac0ac217840d7,"Mozilla/5.0 (Macintosh; Intel Mac OS X 10_15_7) AppleWebKit/537.36 (KHTML, like Gecko) Chrome/135.0.0.0 Safari/537.36",Macintosh,Chrome,135.0.0.0,OS X,10_15_7,https://5puzkbbxv1.cognition.run/?sona_id=53596,"en-US,en;q=0.9",9q4snbk0pcbpvr6,21,"[""White""]",No,Female,NA,I'm not sure,229031.20000000295,NA,null,<p></p>,null,choice,tdc,trinary,repulsion_B,2,laptops,null,null,null,null,null,null,1,NA,NA,NA,NA,NA,NA,NA,NA,NA,NA
NA,NA,NA,NA,NA,choice_trial,survey-html-form,7,44364,0.0-4.0-1.1,117,1,2025-05-01T20:26:14Z,b60275e29fe2361ab97ac0ac217840d7,"Mozilla/5.0 (Macintosh; Intel Mac OS X 10_15_7) AppleWebKit/537.36 (KHTML, like Gecko) Chrome/135.0.0.0 Safari/537.36",Macintosh,Chrome,135.0.0.0,OS X,10_15_7,https://5puzkbbxv1.cognition.run/?sona_id=53596,"en-US,en;q=0.9",9q4snbk0pcbpvr6,21,"[""White""]",No,Female,NA,I'm not sure,229031.20000000295,NA,8055,NA,"{""product_choice"":""A""}",choice,tdc,trinary,repulsion_B,2,laptops,null,null,null,null,null,null,1,40,30,40,90,100,80,Processing speed,Memory (RAM),NA,NA
NA,NA,NA,NA,NA,choice_trial_setup,html-keyboard-response,8,44668,0.0-4.0-0.2,117,1,2025-05-01T20:26:14Z,b60275e29fe2361ab97ac0ac217840d7,"Mozilla/5.0 (Macintosh; Intel Mac OS X 10_15_7) AppleWebKit/537.36 (KHTML, like Gecko) Chrome/135.0.0.0 Safari/537.36",Macintosh,Chrome,135.0.0.0,OS X,10_15_7,https://5puzkbbxv1.cognition.run/?sona_id=53596,"en-US,en;q=0.9",9q4snbk0pcbpvr6,21,"[""White""]",No,Female,NA,I'm not sure,229031.20000000295,NA,null,<p></p>,null,choice,dtc,trinary,attraction,1,laptops,null,null,null,null,null,null,1,NA,NA,NA,NA,NA,NA,NA,NA,NA,NA
NA,NA,NA,NA,NA,choice_trial,survey-html-form,9,48799,0.0-4.0-1.2,117,1,2025-05-01T20:26:14Z,b60275e29fe2361ab97ac0ac217840d7,"Mozilla/5.0 (Macintosh; Intel Mac OS X 10_15_7) AppleWebKit/537.36 (KHTML, like Gecko) Chrome/135.0.0.0 Safari/537.36",Macintosh,Chrome,135.0.0.0,OS X,10_15_7,https://5puzkbbxv1.cognition.run/?sona_id=53596,"en-US,en;q=0.9",9q4snbk0pcbpvr6,21,"[""White""]",No,Female,NA,I'm not sure,229031.20000000295,NA,4127,NA,"{""product_choice"":""B""}",choice,dtc,trinary,attraction,1,laptops,null,null,null,null,null,null,1,60,50,60,50,60,40,Processing speed,Memory (RAM),NA,NA
NA,NA,NA,NA,NA,choice_trial_setup,html-keyboard-response,10,49102,0.0-4.0-0.3,117,1,2025-05-01T20:26:14Z,b60275e29fe2361ab97ac0ac217840d7,"Mozilla/5.0 (Macintosh; Intel Mac OS X 10_15_7) AppleWebKit/537.36 (KHTML, like Gecko) Chrome/135.0.0.0 Safari/537.36",Macintosh,Chrome,135.0.0.0,OS X,10_15_7,https://5puzkbbxv1.cognition.run/?sona_id=53596,"en-US,en;q=0.9",9q4snbk0pcbpvr6,21,"[""White""]",No,Female,NA,I'm not sure,229031.20000000295,NA,null,<p></p>,null,choice,cdt,trinary,attraction,1,microwave ovens,null,null,null,null,null,null,1,NA,NA,NA,NA,NA,NA,NA,NA,NA,NA
NA,NA,NA,NA,NA,choice_trial,survey-html-form,11,54977,0.0-4.0-1.3,117,1,2025-05-01T20:26:14Z,b60275e29fe2361ab97ac0ac217840d7,"Mozilla/5.0 (Macintosh; Intel Mac OS X 10_15_7) AppleWebKit/537.36 (KHTML, like Gecko) Chrome/135.0.0.0 Safari/537.36",Macintosh,Chrome,135.0.0.0,OS X,10_15_7,https://5puzkbbxv1.cognition.run/?sona_id=53596,"en-US,en;q=0.9",9q4snbk0pcbpvr6,21,"[""White""]",No,Female,NA,I'm not sure,229031.20000000295,NA,5871,NA,"{""product_choice"":""A""}",choice,cdt,trinary,attraction,1,microwave ovens,null,null,null,null,null,null,1,60,50,60,50,60,40,Warranty,Cooking power,NA,NA
NA,NA,NA,NA,NA,choice_trial_setup,html-keyboard-response,12,55281,0.0-4.0-0.4,117,1,2025-05-01T20:26:14Z,b60275e29fe2361ab97ac0ac217840d7,"Mozilla/5.0 (Macintosh; Intel Mac OS X 10_15_7) AppleWebKit/537.36 (KHTML, like Gecko) Chrome/135.0.0.0 Safari/537.36",Macintosh,Chrome,135.0.0.0,OS X,10_15_7,https://5puzkbbxv1.cognition.run/?sona_id=53596,"en-US,en;q=0.9",9q4snbk0pcbpvr6,21,"[""White""]",No,Female,NA,I'm not sure,229031.20000000295,NA,null,<p></p>,null,choice,bw,binary,catch,null,televisions,65,50,5,45,null,null,1,NA,NA,NA,NA,NA,NA,NA,NA,NA,NA
NA,NA,NA,NA,NA,choice_trial,survey-html-form,13,60443,0.0-4.0-1.4,117,1,2025-05-01T20:26:14Z,b60275e29fe2361ab97ac0ac217840d7,"Mozilla/5.0 (Macintosh; Intel Mac OS X 10_15_7) AppleWebKit/537.36 (KHTML, like Gecko) Chrome/135.0.0.0 Safari/537.36",Macintosh,Chrome,135.0.0.0,OS X,10_15_7,https://5puzkbbxv1.cognition.run/?sona_id=53596,"en-US,en;q=0.9",9q4snbk0pcbpvr6,21,"[""White""]",No,Female,NA,I'm not sure,229031.20000000295,NA,5157,NA,"{""product_choice"":""A""}",choice,bw,binary,catch,null,televisions,65,50,5,45,null,null,1,null,null,null,null,null,null,Screen size,Average lifespan,NA,NA
NA,NA,NA,NA,NA,choice_trial_setup,html-keyboard-response,14,60746,0.0-4.0-0.5,117,1,2025-05-01T20:26:14Z,b60275e29fe2361ab97ac0ac217840d7,"Mozilla/5.0 (Macintosh; Intel Mac OS X 10_15_7) AppleWebKit/537.36 (KHTML, like Gecko) Chrome/135.0.0.0 Safari/537.36",Macintosh,Chrome,135.0.0.0,OS X,10_15_7,https://5puzkbbxv1.cognition.run/?sona_id=53596,"en-US,en;q=0.9",9q4snbk0pcbpvr6,21,"[""White""]",No,Female,NA,I'm not sure,229031.20000000295,NA,null,<p></p>,null,choice,tdc,trinary,repulsion_B,1,televisions,null,null,null,null,null,null,2,NA,NA,NA,NA,NA,NA,NA,NA,NA,NA
NA,NA,NA,NA,NA,choice_trial,survey-html-form,15,65462,0.0-4.0-1.5,117,1,2025-05-01T20:26:14Z,b60275e29fe2361ab97ac0ac217840d7,"Mozilla/5.0 (Macintosh; Intel Mac OS X 10_15_7) AppleWebKit/537.36 (KHTML, like Gecko) Chrome/135.0.0.0 Safari/537.36",Macintosh,Chrome,135.0.0.0,OS X,10_15_7,https://5puzkbbxv1.cognition.run/?sona_id=53596,"en-US,en;q=0.9",9q4snbk0pcbpvr6,21,"[""White""]",No,Female,NA,I'm not sure,229031.20000000295,NA,4712,NA,"{""product_choice"":""A""}",choice,tdc,trinary,repulsion_B,1,televisions,null,null,null,null,null,null,2,90,100,80,40,30,40,Screen size,Average lifespan,NA,NA
NA,NA,NA,NA,NA,choice_trial_setup,html-keyboard-response,16,65765,0.0-4.0-0.6,117,1,2025-05-01T20:26:14Z,b60275e29fe2361ab97ac0ac217840d7,"Mozilla/5.0 (Macintosh; Intel Mac OS X 10_15_7) AppleWebKit/537.36 (KHTML, like Gecko) Chrome/135.0.0.0 Safari/537.36",Macintosh,Chrome,135.0.0.0,OS X,10_15_7,https://5puzkbbxv1.cognition.run/?sona_id=53596,"en-US,en;q=0.9",9q4snbk0pcbpvr6,21,"[""White""]",No,Female,NA,I'm not sure,229031.20000000295,NA,null,<p></p>,null,choice,ctd,trinary,repulsion_B,1,microwave ovens,null,null,null,null,null,null,2,NA,NA,NA,NA,NA,NA,NA,NA,NA,NA
NA,NA,NA,NA,NA,choice_trial,survey-html-form,17,68598,0.0-4.0-1.6,117,1,2025-05-01T20:26:14Z,b60275e29fe2361ab97ac0ac217840d7,"Mozilla/5.0 (Macintosh; Intel Mac OS X 10_15_7) AppleWebKit/537.36 (KHTML, like Gecko) Chrome/135.0.0.0 Safari/537.36",Macintosh,Chrome,135.0.0.0,OS X,10_15_7,https://5puzkbbxv1.cognition.run/?sona_id=53596,"en-US,en;q=0.9",9q4snbk0pcbpvr6,21,"[""White""]",No,Female,NA,I'm not sure,229031.20000000295,NA,2829,NA,"{""product_choice"":""A""}",choice,ctd,trinary,repulsion_B,1,microwave ovens,null,null,null,null,null,null,2,90,100,80,40,30,40,Warranty,Cooking power,NA,NA
NA,NA,NA,NA,NA,choice_trial_setup,html-keyboard-response,18,68901,0.0-4.0-0.7,117,1,2025-05-01T20:26:14Z,b60275e29fe2361ab97ac0ac217840d7,"Mozilla/5.0 (Macintosh; Intel Mac OS X 10_15_7) AppleWebKit/537.36 (KHTML, like Gecko) Chrome/135.0.0.0 Safari/537.36",Macintosh,Chrome,135.0.0.0,OS X,10_15_7,https://5puzkbbxv1.cognition.run/?sona_id=53596,"en-US,en;q=0.9",9q4snbk0pcbpvr6,21,"[""White""]",No,Female,NA,I'm not sure,229031.20000000295,NA,null,<p></p>,null,choice,wb,binary,catch,null,microwave ovens,65,75,5,45,null,null,1,NA,NA,NA,NA,NA,NA,NA,NA,NA,NA
NA,NA,NA,NA,NA,choice_trial,survey-html-form,19,70980,0.0-4.0-1.7,117,1,2025-05-01T20:26:14Z,b60275e29fe2361ab97ac0ac217840d7,"Mozilla/5.0 (Macintosh; Intel Mac OS X 10_15_7) AppleWebKit/537.36 (KHTML, like Gecko) Chrome/135.0.0.0 Safari/537.36",Macintosh,Chrome,135.0.0.0,OS X,10_15_7,https://5puzkbbxv1.cognition.run/?sona_id=53596,"en-US,en;q=0.9",9q4snbk0pcbpvr6,21,"[""White""]",No,Female,NA,I'm not sure,229031.20000000295,NA,2075,NA,"{""product_choice"":""B""}",choice,wb,binary,catch,null,microwave ovens,65,75,5,45,null,null,1,null,null,null,null,null,null,Warranty,Cooking power,NA,NA
NA,NA,NA,NA,NA,choice_trial_setup,html-keyboard-response,20,71282,0.0-4.0-0.8,117,1,2025-05-01T20:26:14Z,b60275e29fe2361ab97ac0ac217840d7,"Mozilla/5.0 (Macintosh; Intel Mac OS X 10_15_7) AppleWebKit/537.36 (KHTML, like Gecko) Chrome/135.0.0.0 Safari/537.36",Macintosh,Chrome,135.0.0.0,OS X,10_15_7,https://5puzkbbxv1.cognition.run/?sona_id=53596,"en-US,en;q=0.9",9q4snbk0pcbpvr6,21,"[""White""]",No,Female,NA,I'm not sure,229031.20000000295,NA,null,<p></p>,null,choice,ctd,trinary,repulsion_A,2,televisions,null,null,null,null,null,null,2,NA,NA,NA,NA,NA,NA,NA,NA,NA,NA
NA,NA,NA,NA,NA,choice_trial,survey-html-form,21,74060,0.0-4.0-1.8,117,1,2025-05-01T20:26:14Z,b60275e29fe2361ab97ac0ac217840d7,"Mozilla/5.0 (Macintosh; Intel Mac OS X 10_15_7) AppleWebKit/537.36 (KHTML, like Gecko) Chrome/135.0.0.0 Safari/537.36",Macintosh,Chrome,135.0.0.0,OS X,10_15_7,https://5puzkbbxv1.cognition.run/?sona_id=53596,"en-US,en;q=0.9",9q4snbk0pcbpvr6,21,"[""White""]",No,Female,NA,I'm not sure,229031.20000000295,NA,2774,NA,"{""product_choice"":""B""}",choice,ctd,trinary,repulsion_A,2,televisions,null,null,null,null,null,null,2,30,40,20,100,90,100,Screen size,Average lifespan,NA,NA
NA,NA,NA,NA,NA,choice_trial_setup,html-keyboard-response,22,74363,0.0-4.0-0.9,117,1,2025-05-01T20:26:14Z,b60275e29fe2361ab97ac0ac217840d7,"Mozilla/5.0 (Macintosh; Intel Mac OS X 10_15_7) AppleWebKit/537.36 (KHTML, like Gecko) Chrome/135.0.0.0 Safari/537.36",Macintosh,Chrome,135.0.0.0,OS X,10_15_7,https://5puzkbbxv1.cognition.run/?sona_id=53596,"en-US,en;q=0.9",9q4snbk0pcbpvr6,21,"[""White""]",No,Female,NA,I'm not sure,229031.20000000295,NA,null,<p></p>,null,choice,ctd,trinary,attraction,1,washing machines,null,null,null,null,null,null,1,NA,NA,NA,NA,NA,NA,NA,NA,NA,NA
NA,NA,NA,NA,NA,choice_trial,survey-html-form,23,76541,0.0-4.0-1.9,117,1,2025-05-01T20:26:14Z,b60275e29fe2361ab97ac0ac217840d7,"Mozilla/5.0 (Macintosh; Intel Mac OS X 10_15_7) AppleWebKit/537.36 (KHTML, like Gecko) Chrome/135.0.0.0 Safari/537.36",Macintosh,Chrome,135.0.0.0,OS X,10_15_7,https://5puzkbbxv1.cognition.run/?sona_id=53596,"en-US,en;q=0.9",9q4snbk0pcbpvr6,21,"[""White""]",No,Female,NA,I'm not sure,229031.20000000295,NA,2175,NA,"{""product_choice"":""B""}",choice,ctd,trinary,attraction,1,washing machines,null,null,null,null,null,null,1,60,50,60,50,60,40,Average lifespan,Energy savings,NA,NA
NA,NA,NA,NA,NA,choice_trial_setup,html-keyboard-response,24,76845,0.0-4.0-0.10,117,1,2025-05-01T20:26:14Z,b60275e29fe2361ab97ac0ac217840d7,"Mozilla/5.0 (Macintosh; Intel Mac OS X 10_15_7) AppleWebKit/537.36 (KHTML, like Gecko) Chrome/135.0.0.0 Safari/537.36",Macintosh,Chrome,135.0.0.0,OS X,10_15_7,https://5puzkbbxv1.cognition.run/?sona_id=53596,"en-US,en;q=0.9",9q4snbk0pcbpvr6,21,"[""White""]",No,Female,NA,I'm not sure,229031.20000000295,NA,null,<p></p>,null,choice,tdc,trinary,attraction,1,televisions,null,null,null,null,null,null,1,NA,NA,NA,NA,NA,NA,NA,NA,NA,NA
NA,NA,NA,NA,NA,choice_trial,survey-html-form,25,79169,0.0-4.0-1.10,117,1,2025-05-01T20:26:14Z,b60275e29fe2361ab97ac0ac217840d7,"Mozilla/5.0 (Macintosh; Intel Mac OS X 10_15_7) AppleWebKit/537.36 (KHTML, like Gecko) Chrome/135.0.0.0 Safari/537.36",Macintosh,Chrome,135.0.0.0,OS X,10_15_7,https://5puzkbbxv1.cognition.run/?sona_id=53596,"en-US,en;q=0.9",9q4snbk0pcbpvr6,21,"[""White""]",No,Female,NA,I'm not sure,229031.20000000295,NA,2320,NA,"{""product_choice"":""C""}",choice,tdc,trinary,attraction,1,televisions,null,null,null,null,null,null,1,60,50,60,50,60,40,Screen size,Average lifespan,NA,NA
NA,NA,NA,NA,NA,choice_trial_setup,html-keyboard-response,26,79471,0.0-4.0-0.11,117,1,2025-05-01T20:26:14Z,b60275e29fe2361ab97ac0ac217840d7,"Mozilla/5.0 (Macintosh; Intel Mac OS X 10_15_7) AppleWebKit/537.36 (KHTML, like Gecko) Chrome/135.0.0.0 Safari/537.36",Macintosh,Chrome,135.0.0.0,OS X,10_15_7,https://5puzkbbxv1.cognition.run/?sona_id=53596,"en-US,en;q=0.9",9q4snbk0pcbpvr6,21,"[""White""]",No,Female,NA,I'm not sure,229031.20000000295,NA,null,<p></p>,null,choice,dct,trinary,repulsion_A,1,washing machines,null,null,null,null,null,null,1,NA,NA,NA,NA,NA,NA,NA,NA,NA,NA
NA,NA,NA,NA,NA,choice_trial,survey-html-form,27,81700,0.0-4.0-1.11,117,1,2025-05-01T20:26:14Z,b60275e29fe2361ab97ac0ac217840d7,"Mozilla/5.0 (Macintosh; Intel Mac OS X 10_15_7) AppleWebKit/537.36 (KHTML, like Gecko) Chrome/135.0.0.0 Safari/537.36",Macintosh,Chrome,135.0.0.0,OS X,10_15_7,https://5puzkbbxv1.cognition.run/?sona_id=53596,"en-US,en;q=0.9",9q4snbk0pcbpvr6,21,"[""White""]",No,Female,NA,I'm not sure,229031.20000000295,NA,2227,NA,"{""product_choice"":""C""}",choice,dct,trinary,repulsion_A,1,washing machines,null,null,null,null,null,null,1,100,90,100,30,40,20,Average lifespan,Energy savings,NA,NA
NA,NA,NA,NA,NA,choice_trial_setup,html-keyboard-response,28,82004,0.0-4.0-0.12,117,1,2025-05-01T20:26:14Z,b60275e29fe2361ab97ac0ac217840d7,"Mozilla/5.0 (Macintosh; Intel Mac OS X 10_15_7) AppleWebKit/537.36 (KHTML, like Gecko) Chrome/135.0.0.0 Safari/537.36",Macintosh,Chrome,135.0.0.0,OS X,10_15_7,https://5puzkbbxv1.cognition.run/?sona_id=53596,"en-US,en;q=0.9",9q4snbk0pcbpvr6,21,"[""White""]",No,Female,NA,I'm not sure,229031.20000000295,NA,null,<p></p>,null,choice,dtc,trinary,repulsion_A,1,televisions,null,null,null,null,null,null,2,NA,NA,NA,NA,NA,NA,NA,NA,NA,NA
NA,NA,NA,NA,NA,choice_trial,survey-html-form,29,84301,0.0-4.0-1.12,117,1,2025-05-01T20:26:14Z,b60275e29fe2361ab97ac0ac217840d7,"Mozilla/5.0 (Macintosh; Intel Mac OS X 10_15_7) AppleWebKit/537.36 (KHTML, like Gecko) Chrome/135.0.0.0 Safari/537.36",Macintosh,Chrome,135.0.0.0,OS X,10_15_7,https://5puzkbbxv1.cognition.run/?sona_id=53596,"en-US,en;q=0.9",9q4snbk0pcbpvr6,21,"[""White""]",No,Female,NA,I'm not sure,229031.20000000295,NA,2294,NA,"{""product_choice"":""B""}",choice,dtc,trinary,repulsion_A,1,televisions,null,null,null,null,null,null,2,100,90,100,30,40,20,Screen size,Average lifespan,NA,NA
NA,NA,NA,NA,NA,choice_trial_setup,html-keyboard-response,30,84605,0.0-4.0-0.13,117,1,2025-05-01T20:26:14Z,b60275e29fe2361ab97ac0ac217840d7,"Mozilla/5.0 (Macintosh; Intel Mac OS X 10_15_7) AppleWebKit/537.36 (KHTML, like Gecko) Chrome/135.0.0.0 Safari/537.36",Macintosh,Chrome,135.0.0.0,OS X,10_15_7,https://5puzkbbxv1.cognition.run/?sona_id=53596,"en-US,en;q=0.9",9q4snbk0pcbpvr6,21,"[""White""]",No,Female,NA,I'm not sure,229031.20000000295,NA,null,<p></p>,null,choice,dtc,trinary,repulsion_B,2,washing machines,null,null,null,null,null,null,1,NA,NA,NA,NA,NA,NA,NA,NA,NA,NA
NA,NA,NA,NA,NA,choice_trial,survey-html-form,31,86687,0.0-4.0-1.13,117,1,2025-05-01T20:26:14Z,b60275e29fe2361ab97ac0ac217840d7,"Mozilla/5.0 (Macintosh; Intel Mac OS X 10_15_7) AppleWebKit/537.36 (KHTML, like Gecko) Chrome/135.0.0.0 Safari/537.36",Macintosh,Chrome,135.0.0.0,OS X,10_15_7,https://5puzkbbxv1.cognition.run/?sona_id=53596,"en-US,en;q=0.9",9q4snbk0pcbpvr6,21,"[""White""]",No,Female,NA,I'm not sure,229031.20000000295,NA,2079,NA,"{""product_choice"":""C""}",choice,dtc,trinary,repulsion_B,2,washing machines,null,null,null,null,null,null,1,40,30,40,90,100,80,Average lifespan,Energy savings,NA,NA
NA,NA,NA,NA,NA,choice_trial_setup,html-keyboard-response,32,86991,0.0-4.0-0.14,117,1,2025-05-01T20:26:14Z,b60275e29fe2361ab97ac0ac217840d7,"Mozilla/5.0 (Macintosh; Intel Mac OS X 10_15_7) AppleWebKit/537.36 (KHTML, like Gecko) Chrome/135.0.0.0 Safari/537.36",Macintosh,Chrome,135.0.0.0,OS X,10_15_7,https://5puzkbbxv1.cognition.run/?sona_id=53596,"en-US,en;q=0.9",9q4snbk0pcbpvr6,21,"[""White""]",No,Female,NA,I'm not sure,229031.20000000295,NA,null,<p></p>,null,choice,wwb,trinary,catch,null,microwave ovens,65,75,25,45,50,40,1,NA,NA,NA,NA,NA,NA,NA,NA,NA,NA
NA,NA,NA,NA,NA,choice_trial,survey-html-form,33,88932,0.0-4.0-1.14,117,1,2025-05-01T20:26:14Z,b60275e29fe2361ab97ac0ac217840d7,"Mozilla/5.0 (Macintosh; Intel Mac OS X 10_15_7) AppleWebKit/537.36 (KHTML, like Gecko) Chrome/135.0.0.0 Safari/537.36",Macintosh,Chrome,135.0.0.0,OS X,10_15_7,https://5puzkbbxv1.cognition.run/?sona_id=53596,"en-US,en;q=0.9",9q4snbk0pcbpvr6,21,"[""White""]",No,Female,NA,I'm not sure,229031.20000000295,NA,1937,NA,"{""product_choice"":""C""}",choice,wwb,trinary,catch,null,microwave ovens,65,75,25,45,50,40,1,null,null,null,null,null,null,Warranty,Cooking power,NA,NA
NA,NA,NA,NA,NA,choice_trial_setup,html-keyboard-response,34,89235,0.0-4.0-0.15,117,1,2025-05-01T20:26:14Z,b60275e29fe2361ab97ac0ac217840d7,"Mozilla/5.0 (Macintosh; Intel Mac OS X 10_15_7) AppleWebKit/537.36 (KHTML, like Gecko) Chrome/135.0.0.0 Safari/537.36",Macintosh,Chrome,135.0.0.0,OS X,10_15_7,https://5puzkbbxv1.cognition.run/?sona_id=53596,"en-US,en;q=0.9",9q4snbk0pcbpvr6,21,"[""White""]",No,Female,NA,I'm not sure,229031.20000000295,NA,null,<p></p>,null,choice,tc,binary,repulsion,1,laptops,null,null,null,null,null,null,1,NA,NA,NA,NA,NA,NA,NA,NA,NA,NA
NA,NA,NA,NA,NA,choice_trial,survey-html-form,35,90971,0.0-4.0-1.15,117,1,2025-05-01T20:26:14Z,b60275e29fe2361ab97ac0ac217840d7,"Mozilla/5.0 (Macintosh; Intel Mac OS X 10_15_7) AppleWebKit/537.36 (KHTML, like Gecko) Chrome/135.0.0.0 Safari/537.36",Macintosh,Chrome,135.0.0.0,OS X,10_15_7,https://5puzkbbxv1.cognition.run/?sona_id=53596,"en-US,en;q=0.9",9q4snbk0pcbpvr6,21,"[""White""]",No,Female,NA,I'm not sure,229031.20000000295,NA,1735,NA,"{""product_choice"":""A""}",choice,tc,binary,repulsion,1,laptops,null,null,null,null,null,null,1,100,90,null,30,40,null,Processing speed,Memory (RAM),NA,NA
NA,NA,NA,NA,NA,choice_trial_setup,html-keyboard-response,36,91276,0.0-4.0-0.16,117,1,2025-05-01T20:26:14Z,b60275e29fe2361ab97ac0ac217840d7,"Mozilla/5.0 (Macintosh; Intel Mac OS X 10_15_7) AppleWebKit/537.36 (KHTML, like Gecko) Chrome/135.0.0.0 Safari/537.36",Macintosh,Chrome,135.0.0.0,OS X,10_15_7,https://5puzkbbxv1.cognition.run/?sona_id=53596,"en-US,en;q=0.9",9q4snbk0pcbpvr6,21,"[""White""]",No,Female,NA,I'm not sure,229031.20000000295,NA,null,<p></p>,null,choice,tc,binary,repulsion,1,washing machines,null,null,null,null,null,null,1,NA,NA,NA,NA,NA,NA,NA,NA,NA,NA
NA,NA,NA,NA,NA,choice_trial,survey-html-form,37,93616,0.0-4.0-1.16,117,1,2025-05-01T20:26:14Z,b60275e29fe2361ab97ac0ac217840d7,"Mozilla/5.0 (Macintosh; Intel Mac OS X 10_15_7) AppleWebKit/537.36 (KHTML, like Gecko) Chrome/135.0.0.0 Safari/537.36",Macintosh,Chrome,135.0.0.0,OS X,10_15_7,https://5puzkbbxv1.cognition.run/?sona_id=53596,"en-US,en;q=0.9",9q4snbk0pcbpvr6,21,"[""White""]",No,Female,NA,I'm not sure,229031.20000000295,NA,2336,NA,"{""product_choice"":""A""}",choice,tc,binary,repulsion,1,washing machines,null,null,null,null,null,null,1,100,90,null,30,40,null,Average lifespan,Energy savings,NA,NA
NA,NA,NA,NA,NA,choice_trial_setup,html-keyboard-response,38,93920,0.0-4.0-0.17,117,1,2025-05-01T20:26:14Z,b60275e29fe2361ab97ac0ac217840d7,"Mozilla/5.0 (Macintosh; Intel Mac OS X 10_15_7) AppleWebKit/537.36 (KHTML, like Gecko) Chrome/135.0.0.0 Safari/537.36",Macintosh,Chrome,135.0.0.0,OS X,10_15_7,https://5puzkbbxv1.cognition.run/?sona_id=53596,"en-US,en;q=0.9",9q4snbk0pcbpvr6,21,"[""White""]",No,Female,NA,I'm not sure,229031.20000000295,NA,null,<p></p>,null,choice,ct,binary,repulsion,1,televisions,null,null,null,null,null,null,2,NA,NA,NA,NA,NA,NA,NA,NA,NA,NA
NA,NA,NA,NA,NA,choice_trial,survey-html-form,39,95928,0.0-4.0-1.17,117,1,2025-05-01T20:26:14Z,b60275e29fe2361ab97ac0ac217840d7,"Mozilla/5.0 (Macintosh; Intel Mac OS X 10_15_7) AppleWebKit/537.36 (KHTML, like Gecko) Chrome/135.0.0.0 Safari/537.36",Macintosh,Chrome,135.0.0.0,OS X,10_15_7,https://5puzkbbxv1.cognition.run/?sona_id=53596,"en-US,en;q=0.9",9q4snbk0pcbpvr6,21,"[""White""]",No,Female,NA,I'm not sure,229031.20000000295,NA,2004,NA,"{""product_choice"":""B""}",choice,ct,binary,repulsion,1,televisions,null,null,null,null,null,null,2,100,90,null,30,40,null,Screen size,Average lifespan,NA,NA
NA,NA,NA,NA,NA,choice_trial_setup,html-keyboard-response,40,96233,0.0-4.0-0.18,117,1,2025-05-01T20:26:14Z,b60275e29fe2361ab97ac0ac217840d7,"Mozilla/5.0 (Macintosh; Intel Mac OS X 10_15_7) AppleWebKit/537.36 (KHTML, like Gecko) Chrome/135.0.0.0 Safari/537.36",Macintosh,Chrome,135.0.0.0,OS X,10_15_7,https://5puzkbbxv1.cognition.run/?sona_id=53596,"en-US,en;q=0.9",9q4snbk0pcbpvr6,21,"[""White""]",No,Female,NA,I'm not sure,229031.20000000295,NA,null,<p></p>,null,choice,bww,trinary,catch,null,laptops,75,75,50,15,10,15,2,NA,NA,NA,NA,NA,NA,NA,NA,NA,NA
NA,NA,NA,NA,NA,choice_trial,survey-html-form,41,97678,0.0-4.0-1.18,117,1,2025-05-01T20:26:14Z,b60275e29fe2361ab97ac0ac217840d7,"Mozilla/5.0 (Macintosh; Intel Mac OS X 10_15_7) AppleWebKit/537.36 (KHTML, like Gecko) Chrome/135.0.0.0 Safari/537.36",Macintosh,Chrome,135.0.0.0,OS X,10_15_7,https://5puzkbbxv1.cognition.run/?sona_id=53596,"en-US,en;q=0.9",9q4snbk0pcbpvr6,21,"[""White""]",No,Female,NA,I'm not sure,229031.20000000295,NA,1442,NA,"{""product_choice"":""B""}",choice,bww,trinary,catch,null,laptops,75,75,50,15,10,15,2,null,null,null,null,null,null,Processing speed,Memory (RAM),NA,NA
NA,NA,NA,NA,NA,choice_trial_setup,html-keyboard-response,42,97982,0.0-4.0-0.19,117,1,2025-05-01T20:26:14Z,b60275e29fe2361ab97ac0ac217840d7,"Mozilla/5.0 (Macintosh; Intel Mac OS X 10_15_7) AppleWebKit/537.36 (KHTML, like Gecko) Chrome/135.0.0.0 Safari/537.36",Macintosh,Chrome,135.0.0.0,OS X,10_15_7,https://5puzkbbxv1.cognition.run/?sona_id=53596,"en-US,en;q=0.9",9q4snbk0pcbpvr6,21,"[""White""]",No,Female,NA,I'm not sure,229031.20000000295,NA,null,<p></p>,null,choice,tc,binary,repulsion,2,washing machines,null,null,null,null,null,null,2,NA,NA,NA,NA,NA,NA,NA,NA,NA,NA
NA,NA,NA,NA,NA,choice_trial,survey-html-form,43,100080,0.0-4.0-1.19,117,1,2025-05-01T20:26:14Z,b60275e29fe2361ab97ac0ac217840d7,"Mozilla/5.0 (Macintosh; Intel Mac OS X 10_15_7) AppleWebKit/537.36 (KHTML, like Gecko) Chrome/135.0.0.0 Safari/537.36",Macintosh,Chrome,135.0.0.0,OS X,10_15_7,https://5puzkbbxv1.cognition.run/?sona_id=53596,"en-US,en;q=0.9",9q4snbk0pcbpvr6,21,"[""White""]",No,Female,NA,I'm not sure,229031.20000000295,NA,2094,NA,"{""product_choice"":""A""}",choice,tc,binary,repulsion,2,washing machines,null,null,null,null,null,null,2,30,40,null,100,90,null,Average lifespan,Energy savings,NA,NA
NA,NA,NA,NA,NA,choice_trial_setup,html-keyboard-response,44,100384,0.0-4.0-0.20,117,1,2025-05-01T20:26:14Z,b60275e29fe2361ab97ac0ac217840d7,"Mozilla/5.0 (Macintosh; Intel Mac OS X 10_15_7) AppleWebKit/537.36 (KHTML, like Gecko) Chrome/135.0.0.0 Safari/537.36",Macintosh,Chrome,135.0.0.0,OS X,10_15_7,https://5puzkbbxv1.cognition.run/?sona_id=53596,"en-US,en;q=0.9",9q4snbk0pcbpvr6,21,"[""White""]",No,Female,NA,I'm not sure,229031.20000000295,NA,null,<p></p>,null,choice,tc,binary,attraction,NA,washing machines,null,null,null,null,null,null,2,NA,NA,NA,NA,NA,NA,NA,NA,NA,NA
NA,NA,NA,NA,NA,choice_trial,survey-html-form,45,102386,0.0-4.0-1.20,117,1,2025-05-01T20:26:14Z,b60275e29fe2361ab97ac0ac217840d7,"Mozilla/5.0 (Macintosh; Intel Mac OS X 10_15_7) AppleWebKit/537.36 (KHTML, like Gecko) Chrome/135.0.0.0 Safari/537.36",Macintosh,Chrome,135.0.0.0,OS X,10_15_7,https://5puzkbbxv1.cognition.run/?sona_id=53596,"en-US,en;q=0.9",9q4snbk0pcbpvr6,21,"[""White""]",No,Female,NA,I'm not sure,229031.20000000295,NA,1997,NA,"{""product_choice"":""A""}",choice,tc,binary,attraction,NA,washing machines,null,null,null,null,null,null,2,60,50,null,50,60,null,Average lifespan,Energy savings,NA,NA
NA,NA,NA,NA,NA,choice_trial_setup,html-keyboard-response,46,102690,0.0-4.0-0.21,117,1,2025-05-01T20:26:14Z,b60275e29fe2361ab97ac0ac217840d7,"Mozilla/5.0 (Macintosh; Intel Mac OS X 10_15_7) AppleWebKit/537.36 (KHTML, like Gecko) Chrome/135.0.0.0 Safari/537.36",Macintosh,Chrome,135.0.0.0,OS X,10_15_7,https://5puzkbbxv1.cognition.run/?sona_id=53596,"en-US,en;q=0.9",9q4snbk0pcbpvr6,21,"[""White""]",No,Female,NA,I'm not sure,229031.20000000295,NA,null,<p></p>,null,choice,dct,trinary,repulsion_A,2,microwave ovens,null,null,null,null,null,null,2,NA,NA,NA,NA,NA,NA,NA,NA,NA,NA
NA,NA,NA,NA,NA,choice_trial,survey-html-form,47,105062,0.0-4.0-1.21,117,1,2025-05-01T20:26:14Z,b60275e29fe2361ab97ac0ac217840d7,"Mozilla/5.0 (Macintosh; Intel Mac OS X 10_15_7) AppleWebKit/537.36 (KHTML, like Gecko) Chrome/135.0.0.0 Safari/537.36",Macintosh,Chrome,135.0.0.0,OS X,10_15_7,https://5puzkbbxv1.cognition.run/?sona_id=53596,"en-US,en;q=0.9",9q4snbk0pcbpvr6,21,"[""White""]",No,Female,NA,I'm not sure,229031.20000000295,NA,2368,NA,"{""product_choice"":""C""}",choice,dct,trinary,repulsion_A,2,microwave ovens,null,null,null,null,null,null,2,30,40,20,100,90,100,Warranty,Cooking power,NA,NA
NA,NA,NA,NA,NA,choice_trial_setup,html-keyboard-response,48,105366,0.0-4.0-0.22,117,1,2025-05-01T20:26:14Z,b60275e29fe2361ab97ac0ac217840d7,"Mozilla/5.0 (Macintosh; Intel Mac OS X 10_15_7) AppleWebKit/537.36 (KHTML, like Gecko) Chrome/135.0.0.0 Safari/537.36",Macintosh,Chrome,135.0.0.0,OS X,10_15_7,https://5puzkbbxv1.cognition.run/?sona_id=53596,"en-US,en;q=0.9",9q4snbk0pcbpvr6,21,"[""White""]",No,Female,NA,I'm not sure,229031.20000000295,NA,null,<p></p>,null,choice,wb,binary,catch,null,washing machines,60,85,20,25,null,null,1,NA,NA,NA,NA,NA,NA,NA,NA,NA,NA
NA,NA,NA,NA,NA,choice_trial,survey-html-form,49,107342,0.0-4.0-1.22,117,1,2025-05-01T20:26:14Z,b60275e29fe2361ab97ac0ac217840d7,"Mozilla/5.0 (Macintosh; Intel Mac OS X 10_15_7) AppleWebKit/537.36 (KHTML, like Gecko) Chrome/135.0.0.0 Safari/537.36",Macintosh,Chrome,135.0.0.0,OS X,10_15_7,https://5puzkbbxv1.cognition.run/?sona_id=53596,"en-US,en;q=0.9",9q4snbk0pcbpvr6,21,"[""White""]",No,Female,NA,I'm not sure,229031.20000000295,NA,1971,NA,"{""product_choice"":""B""}",choice,wb,binary,catch,null,washing machines,60,85,20,25,null,null,1,null,null,null,null,null,null,Average lifespan,Energy savings,NA,NA
NA,NA,NA,NA,NA,choice_trial_setup,html-keyboard-response,50,107647,0.0-4.0-0.23,117,1,2025-05-01T20:26:14Z,b60275e29fe2361ab97ac0ac217840d7,"Mozilla/5.0 (Macintosh; Intel Mac OS X 10_15_7) AppleWebKit/537.36 (KHTML, like Gecko) Chrome/135.0.0.0 Safari/537.36",Macintosh,Chrome,135.0.0.0,OS X,10_15_7,https://5puzkbbxv1.cognition.run/?sona_id=53596,"en-US,en;q=0.9",9q4snbk0pcbpvr6,21,"[""White""]",No,Female,NA,I'm not sure,229031.20000000295,NA,null,<p></p>,null,choice,tdc,trinary,repulsion_A,1,microwave ovens,null,null,null,null,null,null,1,NA,NA,NA,NA,NA,NA,NA,NA,NA,NA
NA,NA,NA,NA,NA,choice_trial,survey-html-form,51,111075,0.0-4.0-1.23,117,1,2025-05-01T20:26:14Z,b60275e29fe2361ab97ac0ac217840d7,"Mozilla/5.0 (Macintosh; Intel Mac OS X 10_15_7) AppleWebKit/537.36 (KHTML, like Gecko) Chrome/135.0.0.0 Safari/537.36",Macintosh,Chrome,135.0.0.0,OS X,10_15_7,https://5puzkbbxv1.cognition.run/?sona_id=53596,"en-US,en;q=0.9",9q4snbk0pcbpvr6,21,"[""White""]",No,Female,NA,I'm not sure,229031.20000000295,NA,3424,NA,"{""product_choice"":""A""}",choice,tdc,trinary,repulsion_A,1,microwave ovens,null,null,null,null,null,null,1,100,90,100,30,40,20,Warranty,Cooking power,NA,NA
NA,NA,NA,NA,NA,choice_trial_setup,html-keyboard-response,52,111380,0.0-4.0-0.24,117,1,2025-05-01T20:26:14Z,b60275e29fe2361ab97ac0ac217840d7,"Mozilla/5.0 (Macintosh; Intel Mac OS X 10_15_7) AppleWebKit/537.36 (KHTML, like Gecko) Chrome/135.0.0.0 Safari/537.36",Macintosh,Chrome,135.0.0.0,OS X,10_15_7,https://5puzkbbxv1.cognition.run/?sona_id=53596,"en-US,en;q=0.9",9q4snbk0pcbpvr6,21,"[""White""]",No,Female,NA,I'm not sure,229031.20000000295,NA,null,<p></p>,null,choice,ctd,trinary,repulsion_B,2,televisions,null,null,null,null,null,null,2,NA,NA,NA,NA,NA,NA,NA,NA,NA,NA
NA,NA,NA,NA,NA,choice_trial,survey-html-form,53,113479,0.0-4.0-1.24,117,1,2025-05-01T20:26:14Z,b60275e29fe2361ab97ac0ac217840d7,"Mozilla/5.0 (Macintosh; Intel Mac OS X 10_15_7) AppleWebKit/537.36 (KHTML, like Gecko) Chrome/135.0.0.0 Safari/537.36",Macintosh,Chrome,135.0.0.0,OS X,10_15_7,https://5puzkbbxv1.cognition.run/?sona_id=53596,"en-US,en;q=0.9",9q4snbk0pcbpvr6,21,"[""White""]",No,Female,NA,I'm not sure,229031.20000000295,NA,2096,NA,"{""product_choice"":""A""}",choice,ctd,trinary,repulsion_B,2,televisions,null,null,null,null,null,null,2,40,30,40,90,100,80,Screen size,Average lifespan,NA,NA
NA,NA,NA,NA,NA,choice_trial_setup,html-keyboard-response,54,113783,0.0-4.0-0.25,117,1,2025-05-01T20:26:14Z,b60275e29fe2361ab97ac0ac217840d7,"Mozilla/5.0 (Macintosh; Intel Mac OS X 10_15_7) AppleWebKit/537.36 (KHTML, like Gecko) Chrome/135.0.0.0 Safari/537.36",Macintosh,Chrome,135.0.0.0,OS X,10_15_7,https://5puzkbbxv1.cognition.run/?sona_id=53596,"en-US,en;q=0.9",9q4snbk0pcbpvr6,21,"[""White""]",No,Female,NA,I'm not sure,229031.20000000295,NA,null,<p></p>,null,choice,ctd,trinary,attraction,2,televisions,null,null,null,null,null,null,2,NA,NA,NA,NA,NA,NA,NA,NA,NA,NA
NA,NA,NA,NA,NA,choice_trial,survey-html-form,55,115885,0.0-4.0-1.25,117,1,2025-05-01T20:26:14Z,b60275e29fe2361ab97ac0ac217840d7,"Mozilla/5.0 (Macintosh; Intel Mac OS X 10_15_7) AppleWebKit/537.36 (KHTML, like Gecko) Chrome/135.0.0.0 Safari/537.36",Macintosh,Chrome,135.0.0.0,OS X,10_15_7,https://5puzkbbxv1.cognition.run/?sona_id=53596,"en-US,en;q=0.9",9q4snbk0pcbpvr6,21,"[""White""]",No,Female,NA,I'm not sure,229031.20000000295,NA,2098,NA,"{""product_choice"":""B""}",choice,ctd,trinary,attraction,2,televisions,null,null,null,null,null,null,2,50,60,40,60,50,60,Screen size,Average lifespan,NA,NA
NA,NA,NA,NA,NA,choice_trial_setup,html-keyboard-response,56,116190,0.0-4.0-0.26,117,1,2025-05-01T20:26:14Z,b60275e29fe2361ab97ac0ac217840d7,"Mozilla/5.0 (Macintosh; Intel Mac OS X 10_15_7) AppleWebKit/537.36 (KHTML, like Gecko) Chrome/135.0.0.0 Safari/537.36",Macintosh,Chrome,135.0.0.0,OS X,10_15_7,https://5puzkbbxv1.cognition.run/?sona_id=53596,"en-US,en;q=0.9",9q4snbk0pcbpvr6,21,"[""White""]",No,Female,NA,I'm not sure,229031.20000000295,NA,null,<p></p>,null,choice,tc,binary,attraction,NA,microwave ovens,null,null,null,null,null,null,1,NA,NA,NA,NA,NA,NA,NA,NA,NA,NA
NA,NA,NA,NA,NA,choice_trial,survey-html-form,57,117825,0.0-4.0-1.26,117,1,2025-05-01T20:26:14Z,b60275e29fe2361ab97ac0ac217840d7,"Mozilla/5.0 (Macintosh; Intel Mac OS X 10_15_7) AppleWebKit/537.36 (KHTML, like Gecko) Chrome/135.0.0.0 Safari/537.36",Macintosh,Chrome,135.0.0.0,OS X,10_15_7,https://5puzkbbxv1.cognition.run/?sona_id=53596,"en-US,en;q=0.9",9q4snbk0pcbpvr6,21,"[""White""]",No,Female,NA,I'm not sure,229031.20000000295,NA,1632,NA,"{""product_choice"":""A""}",choice,tc,binary,attraction,NA,microwave ovens,null,null,null,null,null,null,1,60,50,null,50,60,null,Warranty,Cooking power,NA,NA
NA,NA,NA,NA,NA,choice_trial_setup,html-keyboard-response,58,118129,0.0-4.0-0.27,117,1,2025-05-01T20:26:14Z,b60275e29fe2361ab97ac0ac217840d7,"Mozilla/5.0 (Macintosh; Intel Mac OS X 10_15_7) AppleWebKit/537.36 (KHTML, like Gecko) Chrome/135.0.0.0 Safari/537.36",Macintosh,Chrome,135.0.0.0,OS X,10_15_7,https://5puzkbbxv1.cognition.run/?sona_id=53596,"en-US,en;q=0.9",9q4snbk0pcbpvr6,21,"[""White""]",No,Female,NA,I'm not sure,229031.20000000295,NA,null,<p></p>,null,choice,tdc,trinary,repulsion_B,2,microwave ovens,null,null,null,null,null,null,2,NA,NA,NA,NA,NA,NA,NA,NA,NA,NA
NA,NA,NA,NA,NA,choice_trial,survey-html-form,59,120081,0.0-4.0-1.27,117,1,2025-05-01T20:26:14Z,b60275e29fe2361ab97ac0ac217840d7,"Mozilla/5.0 (Macintosh; Intel Mac OS X 10_15_7) AppleWebKit/537.36 (KHTML, like Gecko) Chrome/135.0.0.0 Safari/537.36",Macintosh,Chrome,135.0.0.0,OS X,10_15_7,https://5puzkbbxv1.cognition.run/?sona_id=53596,"en-US,en;q=0.9",9q4snbk0pcbpvr6,21,"[""White""]",No,Female,NA,I'm not sure,229031.20000000295,NA,1945,NA,"{""product_choice"":""C""}",choice,tdc,trinary,repulsion_B,2,microwave ovens,null,null,null,null,null,null,2,40,30,40,90,100,80,Warranty,Cooking power,NA,NA
NA,NA,NA,NA,NA,choice_trial_setup,html-keyboard-response,60,120385,0.0-4.0-0.28,117,1,2025-05-01T20:26:14Z,b60275e29fe2361ab97ac0ac217840d7,"Mozilla/5.0 (Macintosh; Intel Mac OS X 10_15_7) AppleWebKit/537.36 (KHTML, like Gecko) Chrome/135.0.0.0 Safari/537.36",Macintosh,Chrome,135.0.0.0,OS X,10_15_7,https://5puzkbbxv1.cognition.run/?sona_id=53596,"en-US,en;q=0.9",9q4snbk0pcbpvr6,21,"[""White""]",No,Female,NA,I'm not sure,229031.20000000295,NA,null,<p></p>,null,choice,wb,binary,catch,null,laptops,70,55,15,15,null,null,1,NA,NA,NA,NA,NA,NA,NA,NA,NA,NA
NA,NA,NA,NA,NA,choice_trial,survey-html-form,61,122655,0.0-4.0-1.28,117,1,2025-05-01T20:26:14Z,b60275e29fe2361ab97ac0ac217840d7,"Mozilla/5.0 (Macintosh; Intel Mac OS X 10_15_7) AppleWebKit/537.36 (KHTML, like Gecko) Chrome/135.0.0.0 Safari/537.36",Macintosh,Chrome,135.0.0.0,OS X,10_15_7,https://5puzkbbxv1.cognition.run/?sona_id=53596,"en-US,en;q=0.9",9q4snbk0pcbpvr6,21,"[""White""]",No,Female,NA,I'm not sure,229031.20000000295,NA,2266,NA,"{""product_choice"":""B""}",choice,wb,binary,catch,null,laptops,70,55,15,15,null,null,1,null,null,null,null,null,null,Processing speed,Memory (RAM),NA,NA
NA,NA,NA,NA,NA,choice_trial_setup,html-keyboard-response,62,122959,0.0-4.0-0.29,117,1,2025-05-01T20:26:14Z,b60275e29fe2361ab97ac0ac217840d7,"Mozilla/5.0 (Macintosh; Intel Mac OS X 10_15_7) AppleWebKit/537.36 (KHTML, like Gecko) Chrome/135.0.0.0 Safari/537.36",Macintosh,Chrome,135.0.0.0,OS X,10_15_7,https://5puzkbbxv1.cognition.run/?sona_id=53596,"en-US,en;q=0.9",9q4snbk0pcbpvr6,21,"[""White""]",No,Female,NA,I'm not sure,229031.20000000295,NA,null,<p></p>,null,choice,dct,trinary,repulsion_B,1,laptops,null,null,null,null,null,null,1,NA,NA,NA,NA,NA,NA,NA,NA,NA,NA
NA,NA,NA,NA,NA,choice_trial,survey-html-form,63,125872,0.0-4.0-1.29,117,1,2025-05-01T20:26:14Z,b60275e29fe2361ab97ac0ac217840d7,"Mozilla/5.0 (Macintosh; Intel Mac OS X 10_15_7) AppleWebKit/537.36 (KHTML, like Gecko) Chrome/135.0.0.0 Safari/537.36",Macintosh,Chrome,135.0.0.0,OS X,10_15_7,https://5puzkbbxv1.cognition.run/?sona_id=53596,"en-US,en;q=0.9",9q4snbk0pcbpvr6,21,"[""White""]",No,Female,NA,I'm not sure,229031.20000000295,NA,2909,NA,"{""product_choice"":""B""}",choice,dct,trinary,repulsion_B,1,laptops,null,null,null,null,null,null,1,90,100,80,40,30,40,Processing speed,Memory (RAM),NA,NA
NA,NA,NA,NA,NA,choice_trial_setup,html-keyboard-response,64,126176,0.0-4.0-0.30,117,1,2025-05-01T20:26:14Z,b60275e29fe2361ab97ac0ac217840d7,"Mozilla/5.0 (Macintosh; Intel Mac OS X 10_15_7) AppleWebKit/537.36 (KHTML, like Gecko) Chrome/135.0.0.0 Safari/537.36",Macintosh,Chrome,135.0.0.0,OS X,10_15_7,https://5puzkbbxv1.cognition.run/?sona_id=53596,"en-US,en;q=0.9",9q4snbk0pcbpvr6,21,"[""White""]",No,Female,NA,I'm not sure,229031.20000000295,NA,null,<p></p>,null,choice,ct,binary,repulsion,2,televisions,null,null,null,null,null,null,1,NA,NA,NA,NA,NA,NA,NA,NA,NA,NA
NA,NA,NA,NA,NA,choice_trial,survey-html-form,65,129151,0.0-4.0-1.30,117,1,2025-05-01T20:26:14Z,b60275e29fe2361ab97ac0ac217840d7,"Mozilla/5.0 (Macintosh; Intel Mac OS X 10_15_7) AppleWebKit/537.36 (KHTML, like Gecko) Chrome/135.0.0.0 Safari/537.36",Macintosh,Chrome,135.0.0.0,OS X,10_15_7,https://5puzkbbxv1.cognition.run/?sona_id=53596,"en-US,en;q=0.9",9q4snbk0pcbpvr6,21,"[""White""]",No,Female,NA,I'm not sure,229031.20000000295,NA,2971,NA,"{""product_choice"":""B""}",choice,ct,binary,repulsion,2,televisions,null,null,null,null,null,null,1,30,40,null,100,90,null,Screen size,Average lifespan,NA,NA
NA,NA,NA,NA,NA,choice_trial_setup,html-keyboard-response,66,129456,0.0-4.0-0.31,117,1,2025-05-01T20:26:14Z,b60275e29fe2361ab97ac0ac217840d7,"Mozilla/5.0 (Macintosh; Intel Mac OS X 10_15_7) AppleWebKit/537.36 (KHTML, like Gecko) Chrome/135.0.0.0 Safari/537.36",Macintosh,Chrome,135.0.0.0,OS X,10_15_7,https://5puzkbbxv1.cognition.run/?sona_id=53596,"en-US,en;q=0.9",9q4snbk0pcbpvr6,21,"[""White""]",No,Female,NA,I'm not sure,229031.20000000295,NA,null,<p></p>,null,choice,cdt,trinary,attraction,2,microwave ovens,null,null,null,null,null,null,1,NA,NA,NA,NA,NA,NA,NA,NA,NA,NA
NA,NA,NA,NA,NA,choice_trial,survey-html-form,67,131903,0.0-4.0-1.31,117,1,2025-05-01T20:26:14Z,b60275e29fe2361ab97ac0ac217840d7,"Mozilla/5.0 (Macintosh; Intel Mac OS X 10_15_7) AppleWebKit/537.36 (KHTML, like Gecko) Chrome/135.0.0.0 Safari/537.36",Macintosh,Chrome,135.0.0.0,OS X,10_15_7,https://5puzkbbxv1.cognition.run/?sona_id=53596,"en-US,en;q=0.9",9q4snbk0pcbpvr6,21,"[""White""]",No,Female,NA,I'm not sure,229031.20000000295,NA,2442,NA,"{""product_choice"":""A""}",choice,cdt,trinary,attraction,2,microwave ovens,null,null,null,null,null,null,1,50,60,40,60,50,60,Warranty,Cooking power,NA,NA
NA,NA,NA,NA,NA,choice_trial_setup,html-keyboard-response,68,132207,0.0-4.0-0.32,117,1,2025-05-01T20:26:14Z,b60275e29fe2361ab97ac0ac217840d7,"Mozilla/5.0 (Macintosh; Intel Mac OS X 10_15_7) AppleWebKit/537.36 (KHTML, like Gecko) Chrome/135.0.0.0 Safari/537.36",Macintosh,Chrome,135.0.0.0,OS X,10_15_7,https://5puzkbbxv1.cognition.run/?sona_id=53596,"en-US,en;q=0.9",9q4snbk0pcbpvr6,21,"[""White""]",No,Female,NA,I'm not sure,229031.20000000295,NA,null,<p></p>,null,choice,wbw,trinary,catch,null,televisions,55,80,30,30,35,20,2,NA,NA,NA,NA,NA,NA,NA,NA,NA,NA
NA,NA,NA,NA,NA,choice_trial,survey-html-form,69,134553,0.0-4.0-1.32,117,1,2025-05-01T20:26:14Z,b60275e29fe2361ab97ac0ac217840d7,"Mozilla/5.0 (Macintosh; Intel Mac OS X 10_15_7) AppleWebKit/537.36 (KHTML, like Gecko) Chrome/135.0.0.0 Safari/537.36",Macintosh,Chrome,135.0.0.0,OS X,10_15_7,https://5puzkbbxv1.cognition.run/?sona_id=53596,"en-US,en;q=0.9",9q4snbk0pcbpvr6,21,"[""White""]",No,Female,NA,I'm not sure,229031.20000000295,NA,2340,NA,"{""product_choice"":""B""}",choice,wbw,trinary,catch,null,televisions,55,80,30,30,35,20,2,null,null,null,null,null,null,Screen size,Average lifespan,NA,NA
NA,NA,NA,NA,NA,choice_trial_setup,html-keyboard-response,70,134858,0.0-4.0-0.33,117,1,2025-05-01T20:26:14Z,b60275e29fe2361ab97ac0ac217840d7,"Mozilla/5.0 (Macintosh; Intel Mac OS X 10_15_7) AppleWebKit/537.36 (KHTML, like Gecko) Chrome/135.0.0.0 Safari/537.36",Macintosh,Chrome,135.0.0.0,OS X,10_15_7,https://5puzkbbxv1.cognition.run/?sona_id=53596,"en-US,en;q=0.9",9q4snbk0pcbpvr6,21,"[""White""]",No,Female,NA,I'm not sure,229031.20000000295,NA,null,<p></p>,null,choice,tcd,trinary,repulsion_B,1,washing machines,null,null,null,null,null,null,1,NA,NA,NA,NA,NA,NA,NA,NA,NA,NA
NA,NA,NA,NA,NA,choice_trial,survey-html-form,71,137728,0.0-4.0-1.33,117,1,2025-05-01T20:26:14Z,b60275e29fe2361ab97ac0ac217840d7,"Mozilla/5.0 (Macintosh; Intel Mac OS X 10_15_7) AppleWebKit/537.36 (KHTML, like Gecko) Chrome/135.0.0.0 Safari/537.36",Macintosh,Chrome,135.0.0.0,OS X,10_15_7,https://5puzkbbxv1.cognition.run/?sona_id=53596,"en-US,en;q=0.9",9q4snbk0pcbpvr6,21,"[""White""]",No,Female,NA,I'm not sure,229031.20000000295,NA,2866,NA,"{""product_choice"":""B""}",choice,tcd,trinary,repulsion_B,1,washing machines,null,null,null,null,null,null,1,90,100,80,40,30,40,Average lifespan,Energy savings,NA,NA
NA,NA,NA,NA,NA,choice_trial_setup,html-keyboard-response,72,138033,0.0-4.0-0.34,117,1,2025-05-01T20:26:14Z,b60275e29fe2361ab97ac0ac217840d7,"Mozilla/5.0 (Macintosh; Intel Mac OS X 10_15_7) AppleWebKit/537.36 (KHTML, like Gecko) Chrome/135.0.0.0 Safari/537.36",Macintosh,Chrome,135.0.0.0,OS X,10_15_7,https://5puzkbbxv1.cognition.run/?sona_id=53596,"en-US,en;q=0.9",9q4snbk0pcbpvr6,21,"[""White""]",No,Female,NA,I'm not sure,229031.20000000295,NA,null,<p></p>,null,choice,cdt,trinary,attraction,2,washing machines,null,null,null,null,null,null,1,NA,NA,NA,NA,NA,NA,NA,NA,NA,NA
NA,NA,NA,NA,NA,choice_trial,survey-html-form,73,140285,0.0-4.0-1.34,117,1,2025-05-01T20:26:14Z,b60275e29fe2361ab97ac0ac217840d7,"Mozilla/5.0 (Macintosh; Intel Mac OS X 10_15_7) AppleWebKit/537.36 (KHTML, like Gecko) Chrome/135.0.0.0 Safari/537.36",Macintosh,Chrome,135.0.0.0,OS X,10_15_7,https://5puzkbbxv1.cognition.run/?sona_id=53596,"en-US,en;q=0.9",9q4snbk0pcbpvr6,21,"[""White""]",No,Female,NA,I'm not sure,229031.20000000295,NA,2248,NA,"{""product_choice"":""A""}",choice,cdt,trinary,attraction,2,washing machines,null,null,null,null,null,null,1,50,60,40,60,50,60,Average lifespan,Energy savings,NA,NA
NA,NA,NA,NA,NA,choice_trial_setup,html-keyboard-response,74,140591,0.0-4.0-0.35,117,1,2025-05-01T20:26:14Z,b60275e29fe2361ab97ac0ac217840d7,"Mozilla/5.0 (Macintosh; Intel Mac OS X 10_15_7) AppleWebKit/537.36 (KHTML, like Gecko) Chrome/135.0.0.0 Safari/537.36",Macintosh,Chrome,135.0.0.0,OS X,10_15_7,https://5puzkbbxv1.cognition.run/?sona_id=53596,"en-US,en;q=0.9",9q4snbk0pcbpvr6,21,"[""White""]",No,Female,NA,I'm not sure,229031.20000000295,NA,null,<p></p>,null,choice,dtc,trinary,attraction,2,laptops,null,null,null,null,null,null,1,NA,NA,NA,NA,NA,NA,NA,NA,NA,NA
NA,NA,NA,NA,NA,choice_trial,survey-html-form,75,142935,0.0-4.0-1.35,117,1,2025-05-01T20:26:14Z,b60275e29fe2361ab97ac0ac217840d7,"Mozilla/5.0 (Macintosh; Intel Mac OS X 10_15_7) AppleWebKit/537.36 (KHTML, like Gecko) Chrome/135.0.0.0 Safari/537.36",Macintosh,Chrome,135.0.0.0,OS X,10_15_7,https://5puzkbbxv1.cognition.run/?sona_id=53596,"en-US,en;q=0.9",9q4snbk0pcbpvr6,21,"[""White""]",No,Female,NA,I'm not sure,229031.20000000295,NA,2338,NA,"{""product_choice"":""B""}",choice,dtc,trinary,attraction,2,laptops,null,null,null,null,null,null,1,50,60,40,60,50,60,Processing speed,Memory (RAM),NA,NA
NA,NA,NA,NA,NA,choice_trial_setup,html-keyboard-response,76,143241,0.0-4.0-0.36,117,1,2025-05-01T20:26:14Z,b60275e29fe2361ab97ac0ac217840d7,"Mozilla/5.0 (Macintosh; Intel Mac OS X 10_15_7) AppleWebKit/537.36 (KHTML, like Gecko) Chrome/135.0.0.0 Safari/537.36",Macintosh,Chrome,135.0.0.0,OS X,10_15_7,https://5puzkbbxv1.cognition.run/?sona_id=53596,"en-US,en;q=0.9",9q4snbk0pcbpvr6,21,"[""White""]",No,Female,NA,I'm not sure,229031.20000000295,NA,null,<p></p>,null,choice,tdc,trinary,repulsion_A,1,laptops,null,null,null,null,null,null,2,NA,NA,NA,NA,NA,NA,NA,NA,NA,NA
NA,NA,NA,NA,NA,choice_trial,survey-html-form,77,146517,0.0-4.0-1.36,117,1,2025-05-01T20:26:14Z,b60275e29fe2361ab97ac0ac217840d7,"Mozilla/5.0 (Macintosh; Intel Mac OS X 10_15_7) AppleWebKit/537.36 (KHTML, like Gecko) Chrome/135.0.0.0 Safari/537.36",Macintosh,Chrome,135.0.0.0,OS X,10_15_7,https://5puzkbbxv1.cognition.run/?sona_id=53596,"en-US,en;q=0.9",9q4snbk0pcbpvr6,21,"[""White""]",No,Female,NA,I'm not sure,229031.20000000295,NA,3271,NA,"{""product_choice"":""A""}",choice,tdc,trinary,repulsion_A,1,laptops,null,null,null,null,null,null,2,100,90,100,30,40,20,Processing speed,Memory (RAM),NA,NA
NA,NA,NA,NA,NA,choice_trial_setup,html-keyboard-response,78,146824,0.0-4.0-0.37,117,1,2025-05-01T20:26:14Z,b60275e29fe2361ab97ac0ac217840d7,"Mozilla/5.0 (Macintosh; Intel Mac OS X 10_15_7) AppleWebKit/537.36 (KHTML, like Gecko) Chrome/135.0.0.0 Safari/537.36",Macintosh,Chrome,135.0.0.0,OS X,10_15_7,https://5puzkbbxv1.cognition.run/?sona_id=53596,"en-US,en;q=0.9",9q4snbk0pcbpvr6,21,"[""White""]",No,Female,NA,I'm not sure,229031.20000000295,NA,null,<p></p>,null,choice,wwb,trinary,catch,null,washing machines,80,55,45,35,20,40,2,NA,NA,NA,NA,NA,NA,NA,NA,NA,NA
NA,NA,NA,NA,NA,choice_trial,survey-html-form,79,152712,0.0-4.0-1.37,117,1,2025-05-01T20:26:14Z,b60275e29fe2361ab97ac0ac217840d7,"Mozilla/5.0 (Macintosh; Intel Mac OS X 10_15_7) AppleWebKit/537.36 (KHTML, like Gecko) Chrome/135.0.0.0 Safari/537.36",Macintosh,Chrome,135.0.0.0,OS X,10_15_7,https://5puzkbbxv1.cognition.run/?sona_id=53596,"en-US,en;q=0.9",9q4snbk0pcbpvr6,21,"[""White""]",No,Female,NA,I'm not sure,229031.20000000295,NA,5883,NA,"{""product_choice"":""C""}",choice,wwb,trinary,catch,null,washing machines,80,55,45,35,20,40,2,null,null,null,null,null,null,Average lifespan,Energy savings,NA,NA
NA,NA,NA,NA,NA,choice_trial_setup,html-keyboard-response,80,153017,0.0-4.0-0.38,117,1,2025-05-01T20:26:14Z,b60275e29fe2361ab97ac0ac217840d7,"Mozilla/5.0 (Macintosh; Intel Mac OS X 10_15_7) AppleWebKit/537.36 (KHTML, like Gecko) Chrome/135.0.0.0 Safari/537.36",Macintosh,Chrome,135.0.0.0,OS X,10_15_7,https://5puzkbbxv1.cognition.run/?sona_id=53596,"en-US,en;q=0.9",9q4snbk0pcbpvr6,21,"[""White""]",No,Female,NA,I'm not sure,229031.20000000295,NA,null,<p></p>,null,choice,ct,binary,attraction,NA,laptops,null,null,null,null,null,null,1,NA,NA,NA,NA,NA,NA,NA,NA,NA,NA
NA,NA,NA,NA,NA,choice_trial,survey-html-form,81,154553,0.0-4.0-1.38,117,1,2025-05-01T20:26:14Z,b60275e29fe2361ab97ac0ac217840d7,"Mozilla/5.0 (Macintosh; Intel Mac OS X 10_15_7) AppleWebKit/537.36 (KHTML, like Gecko) Chrome/135.0.0.0 Safari/537.36",Macintosh,Chrome,135.0.0.0,OS X,10_15_7,https://5puzkbbxv1.cognition.run/?sona_id=53596,"en-US,en;q=0.9",9q4snbk0pcbpvr6,21,"[""White""]",No,Female,NA,I'm not sure,229031.20000000295,NA,1530,NA,"{""product_choice"":""B""}",choice,ct,binary,attraction,NA,laptops,null,null,null,null,null,null,1,60,50,null,50,60,null,Processing speed,Memory (RAM),NA,NA
NA,NA,NA,NA,NA,choice_trial_setup,html-keyboard-response,82,154858,0.0-4.0-0.39,117,1,2025-05-01T20:26:14Z,b60275e29fe2361ab97ac0ac217840d7,"Mozilla/5.0 (Macintosh; Intel Mac OS X 10_15_7) AppleWebKit/537.36 (KHTML, like Gecko) Chrome/135.0.0.0 Safari/537.36",Macintosh,Chrome,135.0.0.0,OS X,10_15_7,https://5puzkbbxv1.cognition.run/?sona_id=53596,"en-US,en;q=0.9",9q4snbk0pcbpvr6,21,"[""White""]",No,Female,NA,I'm not sure,229031.20000000295,NA,null,<p></p>,null,choice,tc,binary,repulsion,2,microwave ovens,null,null,null,null,null,null,1,NA,NA,NA,NA,NA,NA,NA,NA,NA,NA
NA,NA,NA,NA,NA,choice_trial,survey-html-form,83,156517,0.0-4.0-1.39,117,1,2025-05-01T20:26:14Z,b60275e29fe2361ab97ac0ac217840d7,"Mozilla/5.0 (Macintosh; Intel Mac OS X 10_15_7) AppleWebKit/537.36 (KHTML, like Gecko) Chrome/135.0.0.0 Safari/537.36",Macintosh,Chrome,135.0.0.0,OS X,10_15_7,https://5puzkbbxv1.cognition.run/?sona_id=53596,"en-US,en;q=0.9",9q4snbk0pcbpvr6,21,"[""White""]",No,Female,NA,I'm not sure,229031.20000000295,NA,1654,NA,"{""product_choice"":""A""}",choice,tc,binary,repulsion,2,microwave ovens,null,null,null,null,null,null,1,30,40,null,100,90,null,Warranty,Cooking power,NA,NA
NA,NA,NA,NA,NA,choice_trial_setup,html-keyboard-response,84,156823,0.0-4.0-0.40,117,1,2025-05-01T20:26:14Z,b60275e29fe2361ab97ac0ac217840d7,"Mozilla/5.0 (Macintosh; Intel Mac OS X 10_15_7) AppleWebKit/537.36 (KHTML, like Gecko) Chrome/135.0.0.0 Safari/537.36",Macintosh,Chrome,135.0.0.0,OS X,10_15_7,https://5puzkbbxv1.cognition.run/?sona_id=53596,"en-US,en;q=0.9",9q4snbk0pcbpvr6,21,"[""White""]",No,Female,NA,I'm not sure,229031.20000000295,NA,null,<p></p>,null,choice,ct,binary,repulsion,1,microwave ovens,null,null,null,null,null,null,2,NA,NA,NA,NA,NA,NA,NA,NA,NA,NA
NA,NA,NA,NA,NA,choice_trial,survey-html-form,85,158501,0.0-4.0-1.40,117,1,2025-05-01T20:26:14Z,b60275e29fe2361ab97ac0ac217840d7,"Mozilla/5.0 (Macintosh; Intel Mac OS X 10_15_7) AppleWebKit/537.36 (KHTML, like Gecko) Chrome/135.0.0.0 Safari/537.36",Macintosh,Chrome,135.0.0.0,OS X,10_15_7,https://5puzkbbxv1.cognition.run/?sona_id=53596,"en-US,en;q=0.9",9q4snbk0pcbpvr6,21,"[""White""]",No,Female,NA,I'm not sure,229031.20000000295,NA,1673,NA,"{""product_choice"":""B""}",choice,ct,binary,repulsion,1,microwave ovens,null,null,null,null,null,null,2,100,90,null,30,40,null,Warranty,Cooking power,NA,NA
NA,NA,NA,NA,NA,choice_trial_setup,html-keyboard-response,86,158807,0.0-4.0-0.41,117,1,2025-05-01T20:26:14Z,b60275e29fe2361ab97ac0ac217840d7,"Mozilla/5.0 (Macintosh; Intel Mac OS X 10_15_7) AppleWebKit/537.36 (KHTML, like Gecko) Chrome/135.0.0.0 Safari/537.36",Macintosh,Chrome,135.0.0.0,OS X,10_15_7,https://5puzkbbxv1.cognition.run/?sona_id=53596,"en-US,en;q=0.9",9q4snbk0pcbpvr6,21,"[""White""]",No,Female,NA,I'm not sure,229031.20000000295,NA,null,<p></p>,null,choice,tc,binary,repulsion,2,laptops,null,null,null,null,null,null,2,NA,NA,NA,NA,NA,NA,NA,NA,NA,NA
NA,NA,NA,NA,NA,choice_trial,survey-html-form,87,162697,0.0-4.0-1.41,117,1,2025-05-01T20:26:14Z,b60275e29fe2361ab97ac0ac217840d7,"Mozilla/5.0 (Macintosh; Intel Mac OS X 10_15_7) AppleWebKit/537.36 (KHTML, like Gecko) Chrome/135.0.0.0 Safari/537.36",Macintosh,Chrome,135.0.0.0,OS X,10_15_7,https://5puzkbbxv1.cognition.run/?sona_id=53596,"en-US,en;q=0.9",9q4snbk0pcbpvr6,21,"[""White""]",No,Female,NA,I'm not sure,229031.20000000295,NA,3884,NA,"{""product_choice"":""A""}",choice,tc,binary,repulsion,2,laptops,null,null,null,null,null,null,2,30,40,null,100,90,null,Processing speed,Memory (RAM),NA,NA
NA,NA,NA,NA,NA,choice_trial_setup,html-keyboard-response,88,163002,0.0-4.0-0.42,117,1,2025-05-01T20:26:14Z,b60275e29fe2361ab97ac0ac217840d7,"Mozilla/5.0 (Macintosh; Intel Mac OS X 10_15_7) AppleWebKit/537.36 (KHTML, like Gecko) Chrome/135.0.0.0 Safari/537.36",Macintosh,Chrome,135.0.0.0,OS X,10_15_7,https://5puzkbbxv1.cognition.run/?sona_id=53596,"en-US,en;q=0.9",9q4snbk0pcbpvr6,21,"[""White""]",No,Female,NA,I'm not sure,229031.20000000295,NA,null,<p></p>,null,choice,tdc,trinary,repulsion_A,2,laptops,null,null,null,null,null,null,2,NA,NA,NA,NA,NA,NA,NA,NA,NA,NA
NA,NA,NA,NA,NA,choice_trial,survey-html-form,89,165954,0.0-4.0-1.42,117,1,2025-05-01T20:26:14Z,b60275e29fe2361ab97ac0ac217840d7,"Mozilla/5.0 (Macintosh; Intel Mac OS X 10_15_7) AppleWebKit/537.36 (KHTML, like Gecko) Chrome/135.0.0.0 Safari/537.36",Macintosh,Chrome,135.0.0.0,OS X,10_15_7,https://5puzkbbxv1.cognition.run/?sona_id=53596,"en-US,en;q=0.9",9q4snbk0pcbpvr6,21,"[""White""]",No,Female,NA,I'm not sure,229031.20000000295,NA,2949,NA,"{""product_choice"":""A""}",choice,tdc,trinary,repulsion_A,2,laptops,null,null,null,null,null,null,2,30,40,20,100,90,100,Processing speed,Memory (RAM),NA,NA
NA,NA,NA,NA,NA,choice_trial_setup,html-keyboard-response,90,166261,0.0-4.0-0.43,117,1,2025-05-01T20:26:14Z,b60275e29fe2361ab97ac0ac217840d7,"Mozilla/5.0 (Macintosh; Intel Mac OS X 10_15_7) AppleWebKit/537.36 (KHTML, like Gecko) Chrome/135.0.0.0 Safari/537.36",Macintosh,Chrome,135.0.0.0,OS X,10_15_7,https://5puzkbbxv1.cognition.run/?sona_id=53596,"en-US,en;q=0.9",9q4snbk0pcbpvr6,21,"[""White""]",No,Female,NA,I'm not sure,229031.20000000295,NA,null,<p></p>,null,choice,ct,binary,attraction,NA,televisions,null,null,null,null,null,null,1,NA,NA,NA,NA,NA,NA,NA,NA,NA,NA
NA,NA,NA,NA,NA,choice_trial,survey-html-form,91,168197,0.0-4.0-1.43,117,1,2025-05-01T20:26:14Z,b60275e29fe2361ab97ac0ac217840d7,"Mozilla/5.0 (Macintosh; Intel Mac OS X 10_15_7) AppleWebKit/537.36 (KHTML, like Gecko) Chrome/135.0.0.0 Safari/537.36",Macintosh,Chrome,135.0.0.0,OS X,10_15_7,https://5puzkbbxv1.cognition.run/?sona_id=53596,"en-US,en;q=0.9",9q4snbk0pcbpvr6,21,"[""White""]",No,Female,NA,I'm not sure,229031.20000000295,NA,1930,NA,"{""product_choice"":""B""}",choice,ct,binary,attraction,NA,televisions,null,null,null,null,null,null,1,60,50,null,50,60,null,Screen size,Average lifespan,NA,NA
NA,NA,NA,NA,NA,post_trials_message,html-button-response,92,179674,0.0-5.0,117,1,2025-05-01T20:26:14Z,b60275e29fe2361ab97ac0ac217840d7,"Mozilla/5.0 (Macintosh; Intel Mac OS X 10_15_7) AppleWebKit/537.36 (KHTML, like Gecko) Chrome/135.0.0.0 Safari/537.36",Macintosh,Chrome,135.0.0.0,OS X,10_15_7,https://5puzkbbxv1.cognition.run/?sona_id=53596,"en-US,en;q=0.9",9q4snbk0pcbpvr6,21,"[""White""]",No,Female,NA,I'm not sure,229031.20000000295,NA,11472,<p> <b>Thank you for your patience!</b></p><p>  The study will be done after completing a brief form. </p>,0,NA,NA,NA,NA,NA,NA,NA,NA,NA,NA,NA,NA,NA,NA,NA,NA,NA,NA,NA,NA,NA,NA,NA
NA,NA,NA,NA,NA,survey_message,survey-text,93,198115,0.0-6.0,117,1,2025-05-01T20:26:14Z,b60275e29fe2361ab97ac0ac217840d7,"Mozilla/5.0 (Macintosh; Intel Mac OS X 10_15_7) AppleWebKit/537.36 (KHTML, like Gecko) Chrome/135.0.0.0 Safari/537.36",Macintosh,Chrome,135.0.0.0,OS X,10_15_7,https://5puzkbbxv1.cognition.run/?sona_id=53596,"en-US,en;q=0.9",9q4snbk0pcbpvr6,21,"[""White""]",No,Female,NA,I'm not sure,229031.20000000295,NA,18431,NA,"{""Q0"":""I chose the product that had the highest rate of function and longest life span.""}",NA,NA,NA,NA,NA,NA,NA,NA,NA,NA,NA,NA,NA,NA,NA,NA,NA,NA,NA,NA,NA,I chose the product that had the highest rate of function and longest life span.,NA
NA,NA,NA,NA,NA,demo_age,survey-text,94,200463,0.0-7.0,117,1,2025-05-01T20:26:14Z,b60275e29fe2361ab97ac0ac217840d7,"Mozilla/5.0 (Macintosh; Intel Mac OS X 10_15_7) AppleWebKit/537.36 (KHTML, like Gecko) Chrome/135.0.0.0 Safari/537.36",Macintosh,Chrome,135.0.0.0,OS X,10_15_7,https://5puzkbbxv1.cognition.run/?sona_id=53596,"en-US,en;q=0.9",9q4snbk0pcbpvr6,21,"[""White""]",No,Female,NA,I'm not sure,229031.20000000295,NA,2341,NA,"{""Q0"":""21""}",NA,NA,NA,NA,NA,NA,NA,NA,NA,NA,NA,NA,NA,NA,NA,NA,NA,NA,NA,NA,NA,NA,NA
NA,NA,NA,NA,NA,demo_race,survey-multi-select,95,202852,0.0-8.0,117,1,2025-05-01T20:26:14Z,b60275e29fe2361ab97ac0ac217840d7,"Mozilla/5.0 (Macintosh; Intel Mac OS X 10_15_7) AppleWebKit/537.36 (KHTML, like Gecko) Chrome/135.0.0.0 Safari/537.36",Macintosh,Chrome,135.0.0.0,OS X,10_15_7,https://5puzkbbxv1.cognition.run/?sona_id=53596,"en-US,en;q=0.9",9q4snbk0pcbpvr6,21,"[""White""]",No,Female,NA,I'm not sure,229031.20000000295,NA,2381,NA,"{""Q0"":[""White""]}",NA,NA,NA,NA,NA,NA,NA,NA,NA,NA,NA,NA,NA,NA,NA,NA,NA,NA,NA,NA,NA,NA,[0]
NA,NA,NA,NA,NA,demo_ethnicity_gender,survey-multi-choice,96,206082,0.0-9.0,117,1,2025-05-01T20:26:14Z,b60275e29fe2361ab97ac0ac217840d7,"Mozilla/5.0 (Macintosh; Intel Mac OS X 10_15_7) AppleWebKit/537.36 (KHTML, like Gecko) Chrome/135.0.0.0 Safari/537.36",Macintosh,Chrome,135.0.0.0,OS X,10_15_7,https://5puzkbbxv1.cognition.run/?sona_id=53596,"en-US,en;q=0.9",9q4snbk0pcbpvr6,21,"[""White""]",No,Female,NA,I'm not sure,229031.20000000295,NA,3223,NA,"{""Q0"":""No"",""Q1"":""Female""}",NA,NA,NA,NA,NA,NA,NA,NA,NA,NA,NA,NA,NA,NA,NA,NA,NA,NA,NA,NA,NA,NA,"[0,1]"
NA,NA,NA,NA,NA,demo_countries,survey-text,97,212005,0.0-10.0,117,1,2025-05-01T20:26:14Z,b60275e29fe2361ab97ac0ac217840d7,"Mozilla/5.0 (Macintosh; Intel Mac OS X 10_15_7) AppleWebKit/537.36 (KHTML, like Gecko) Chrome/135.0.0.0 Safari/537.36",Macintosh,Chrome,135.0.0.0,OS X,10_15_7,https://5puzkbbxv1.cognition.run/?sona_id=53596,"en-US,en;q=0.9",9q4snbk0pcbpvr6,21,"[""White""]",No,Female,NA,I'm not sure,229031.20000000295,NA,5908,NA,"{""Q0"":""NA""}",NA,NA,NA,NA,NA,NA,NA,NA,NA,NA,NA,NA,NA,NA,NA,NA,NA,NA,NA,NA,NA,NA,NA
NA,NA,NA,NA,NA,demo_prev_study,survey-multi-choice,98,221987,0.0-11.0,117,1,2025-05-01T20:26:14Z,b60275e29fe2361ab97ac0ac217840d7,"Mozilla/5.0 (Macintosh; Intel Mac OS X 10_15_7) AppleWebKit/537.36 (KHTML, like Gecko) Chrome/135.0.0.0 Safari/537.36",Macintosh,Chrome,135.0.0.0,OS X,10_15_7,https://5puzkbbxv1.cognition.run/?sona_id=53596,"en-US,en;q=0.9",9q4snbk0pcbpvr6,21,"[""White""]",No,Female,NA,I'm not sure,229031.20000000295,NA,9978,NA,"{""Q0"":""I'm not sure""}",NA,NA,NA,NA,NA,NA,NA,NA,NA,NA,NA,NA,NA,NA,NA,NA,NA,NA,NA,NA,NA,NA,[0]
NA,NA,NA,NA,NA,post_survey_message,html-keyboard-response,99,226256,0.0-12.0,117,1,2025-05-01T20:26:14Z,b60275e29fe2361ab97ac0ac217840d7,"Mozilla/5.0 (Macintosh; Intel Mac OS X 10_15_7) AppleWebKit/537.36 (KHTML, like Gecko) Chrome/135.0.0.0 Safari/537.36",Macintosh,Chrome,135.0.0.0,OS X,10_15_7,https://5puzkbbxv1.cognition.run/?sona_id=53596,"en-US,en;q=0.9",9q4snbk0pcbpvr6,21,"[""White""]",No,Female,NA,I'm not sure,229031.20000000295,NA,4263,NA,j,NA,NA,NA,NA,NA,NA,NA,NA,NA,NA,NA,NA,NA,NA,NA,NA,NA,NA,NA,NA,NA,NA,NA
NA,NA,NA,NA,NA,debrief,image-keyboard-response,100,229069,0.0-13.0,117,1,2025-05-01T20:26:14Z,b60275e29fe2361ab97ac0ac217840d7,"Mozilla/5.0 (Macintosh; Intel Mac OS X 10_15_7) AppleWebKit/537.36 (KHTML, like Gecko) Chrome/135.0.0.0 Safari/537.36",Macintosh,Chrome,135.0.0.0,OS X,10_15_7,https://5puzkbbxv1.cognition.run/?sona_id=53596,"en-US,en;q=0.9",9q4snbk0pcbpvr6,21,"[""White""]",No,Female,NA,I'm not sure,229031.20000000295,NA,2809,Judg_choice_debrief.png,p,NA,NA,NA,NA,NA,NA,NA,NA,NA,NA,NA,NA,NA,NA,NA,NA,NA,NA,NA,NA,NA,NA,NA
