success,timeout,failed_images,failed_audio,failed_video,screen_id,trial_type,trial_index,time_elapsed,internal_node_id,run_id,condition,recorded_at,source_code_version,user_agent,device,browser,browser_version,platform,platform_version,referer,accept_language,ppt_id,age,race,ethnicity,gender,other_countries,prev_study,exp_duration,view_history,rt,stimulus,response,phase,order,set,effect,t_high,category,d1_best,d2_best,d1_worst1,d2_worst1,d1_worst2,d2_worst2,first_dim,d1_t,d1_c,d1_d,d2_t,d2_c,d2_d,d1_name,d2_name,strategy_response,question_order
TRUE,FALSE,[],[],[],img preload,preload,0,138,0.0-0.0,119,1,2025-05-01T20:44:32Z,b60275e29fe2361ab97ac0ac217840d7,"Mozilla/5.0 (Macintosh; Intel Mac OS X 10_15_7) AppleWebKit/537.36 (KHTML, like Gecko) Chrome/133.0.0.0 Safari/537.36",Macintosh,Chrome,133.0.0.0,OS X,10_15_7,https://5puzkbbxv1.cognition.run/?sona_id=57211,"en-US,en;q=0.9",s0v4kakky0baby4,19,"[""Asian"",""White""]",No,Male,NA,No,460668.60000002384,NA,NA,NA,NA,NA,NA,NA,NA,NA,NA,NA,NA,NA,NA,NA,NA,NA,NA,NA,NA,NA,NA,NA,NA,NA,NA,NA
NA,NA,NA,NA,NA,computer_message,instructions,1,3582,0.0-1.0,119,1,2025-05-01T20:44:32Z,b60275e29fe2361ab97ac0ac217840d7,"Mozilla/5.0 (Macintosh; Intel Mac OS X 10_15_7) AppleWebKit/537.36 (KHTML, like Gecko) Chrome/133.0.0.0 Safari/537.36",Macintosh,Chrome,133.0.0.0,OS X,10_15_7,https://5puzkbbxv1.cognition.run/?sona_id=57211,"en-US,en;q=0.9",s0v4kakky0baby4,19,"[""Asian"",""White""]",No,Male,NA,No,460668.60000002384,"[{""page_index"":0,""viewing_time"":3443}]",3443,NA,NA,NA,NA,NA,NA,NA,NA,NA,NA,NA,NA,NA,NA,NA,NA,NA,NA,NA,NA,NA,NA,NA,NA,NA
TRUE,NA,NA,NA,NA,NA,fullscreen,2,14113,0.0-2.0,119,1,2025-05-01T20:44:32Z,b60275e29fe2361ab97ac0ac217840d7,"Mozilla/5.0 (Macintosh; Intel Mac OS X 10_15_7) AppleWebKit/537.36 (KHTML, like Gecko) Chrome/133.0.0.0 Safari/537.36",Macintosh,Chrome,133.0.0.0,OS X,10_15_7,https://5puzkbbxv1.cognition.run/?sona_id=57211,"en-US,en;q=0.9",s0v4kakky0baby4,19,"[""Asian"",""White""]",No,Male,NA,No,460668.60000002384,NA,9528,NA,NA,NA,NA,NA,NA,NA,NA,NA,NA,NA,NA,NA,NA,NA,NA,NA,NA,NA,NA,NA,NA,NA,NA,NA
NA,NA,NA,NA,NA,choice_instructions,instructions,3,66214,0.0-3.0,119,1,2025-05-01T20:44:32Z,b60275e29fe2361ab97ac0ac217840d7,"Mozilla/5.0 (Macintosh; Intel Mac OS X 10_15_7) AppleWebKit/537.36 (KHTML, like Gecko) Chrome/133.0.0.0 Safari/537.36",Macintosh,Chrome,133.0.0.0,OS X,10_15_7,https://5puzkbbxv1.cognition.run/?sona_id=57211,"en-US,en;q=0.9",s0v4kakky0baby4,19,"[""Asian"",""White""]",No,Male,NA,No,460668.60000002384,"[{""page_index"":0,""viewing_time"":9246},{""page_index"":1,""viewing_time"":2926},{""page_index"":2,""viewing_time"":5678},{""page_index"":3,""viewing_time"":1863},{""page_index"":4,""viewing_time"":2075},{""page_index"":5,""viewing_time"":25149},{""page_index"":4,""viewing_time"":1075},{""page_index"":5,""viewing_time"":626},{""page_index"":6,""viewing_time"":3462}]",52100,NA,NA,NA,NA,NA,NA,NA,NA,NA,NA,NA,NA,NA,NA,NA,NA,NA,NA,NA,NA,NA,NA,NA,NA,NA
NA,NA,NA,NA,NA,choice_trial_setup,html-keyboard-response,4,66517,0.0-4.0-0.0,119,1,2025-05-01T20:44:32Z,b60275e29fe2361ab97ac0ac217840d7,"Mozilla/5.0 (Macintosh; Intel Mac OS X 10_15_7) AppleWebKit/537.36 (KHTML, like Gecko) Chrome/133.0.0.0 Safari/537.36",Macintosh,Chrome,133.0.0.0,OS X,10_15_7,https://5puzkbbxv1.cognition.run/?sona_id=57211,"en-US,en;q=0.9",s0v4kakky0baby4,19,"[""Asian"",""White""]",No,Male,NA,No,460668.60000002384,NA,null,<p></p>,null,choice,dct,trinary,repulsion_B,2,laptops,null,null,null,null,null,null,1,NA,NA,NA,NA,NA,NA,NA,NA,NA,NA
NA,NA,NA,NA,NA,choice_trial,survey-html-form,5,80956,0.0-4.0-1.0,119,1,2025-05-01T20:44:32Z,b60275e29fe2361ab97ac0ac217840d7,"Mozilla/5.0 (Macintosh; Intel Mac OS X 10_15_7) AppleWebKit/537.36 (KHTML, like Gecko) Chrome/133.0.0.0 Safari/537.36",Macintosh,Chrome,133.0.0.0,OS X,10_15_7,https://5puzkbbxv1.cognition.run/?sona_id=57211,"en-US,en;q=0.9",s0v4kakky0baby4,19,"[""Asian"",""White""]",No,Male,NA,No,460668.60000002384,NA,14436,NA,"{""product_choice"":""C""}",choice,dct,trinary,repulsion_B,2,laptops,null,null,null,null,null,null,1,40,30,40,90,100,80,Processing speed,Memory (RAM),NA,NA
NA,NA,NA,NA,NA,choice_trial_setup,html-keyboard-response,6,81259,0.0-4.0-0.1,119,1,2025-05-01T20:44:32Z,b60275e29fe2361ab97ac0ac217840d7,"Mozilla/5.0 (Macintosh; Intel Mac OS X 10_15_7) AppleWebKit/537.36 (KHTML, like Gecko) Chrome/133.0.0.0 Safari/537.36",Macintosh,Chrome,133.0.0.0,OS X,10_15_7,https://5puzkbbxv1.cognition.run/?sona_id=57211,"en-US,en;q=0.9",s0v4kakky0baby4,19,"[""Asian"",""White""]",No,Male,NA,No,460668.60000002384,NA,null,<p></p>,null,choice,ct,binary,repulsion,2,washing machines,null,null,null,null,null,null,2,NA,NA,NA,NA,NA,NA,NA,NA,NA,NA
NA,NA,NA,NA,NA,choice_trial,survey-html-form,7,86691,0.0-4.0-1.1,119,1,2025-05-01T20:44:32Z,b60275e29fe2361ab97ac0ac217840d7,"Mozilla/5.0 (Macintosh; Intel Mac OS X 10_15_7) AppleWebKit/537.36 (KHTML, like Gecko) Chrome/133.0.0.0 Safari/537.36",Macintosh,Chrome,133.0.0.0,OS X,10_15_7,https://5puzkbbxv1.cognition.run/?sona_id=57211,"en-US,en;q=0.9",s0v4kakky0baby4,19,"[""Asian"",""White""]",No,Male,NA,No,460668.60000002384,NA,5429,NA,"{""product_choice"":""A""}",choice,ct,binary,repulsion,2,washing machines,null,null,null,null,null,null,2,30,40,null,100,90,null,Average lifespan,Energy savings,NA,NA
NA,NA,NA,NA,NA,choice_trial_setup,html-keyboard-response,8,86994,0.0-4.0-0.2,119,1,2025-05-01T20:44:32Z,b60275e29fe2361ab97ac0ac217840d7,"Mozilla/5.0 (Macintosh; Intel Mac OS X 10_15_7) AppleWebKit/537.36 (KHTML, like Gecko) Chrome/133.0.0.0 Safari/537.36",Macintosh,Chrome,133.0.0.0,OS X,10_15_7,https://5puzkbbxv1.cognition.run/?sona_id=57211,"en-US,en;q=0.9",s0v4kakky0baby4,19,"[""Asian"",""White""]",No,Male,NA,No,460668.60000002384,NA,null,<p></p>,null,choice,tc,binary,repulsion,2,laptops,null,null,null,null,null,null,1,NA,NA,NA,NA,NA,NA,NA,NA,NA,NA
NA,NA,NA,NA,NA,choice_trial,survey-html-form,9,91527,0.0-4.0-1.2,119,1,2025-05-01T20:44:32Z,b60275e29fe2361ab97ac0ac217840d7,"Mozilla/5.0 (Macintosh; Intel Mac OS X 10_15_7) AppleWebKit/537.36 (KHTML, like Gecko) Chrome/133.0.0.0 Safari/537.36",Macintosh,Chrome,133.0.0.0,OS X,10_15_7,https://5puzkbbxv1.cognition.run/?sona_id=57211,"en-US,en;q=0.9",s0v4kakky0baby4,19,"[""Asian"",""White""]",No,Male,NA,No,460668.60000002384,NA,4530,NA,"{""product_choice"":""B""}",choice,tc,binary,repulsion,2,laptops,null,null,null,null,null,null,1,30,40,null,100,90,null,Processing speed,Memory (RAM),NA,NA
NA,NA,NA,NA,NA,choice_trial_setup,html-keyboard-response,10,91830,0.0-4.0-0.3,119,1,2025-05-01T20:44:32Z,b60275e29fe2361ab97ac0ac217840d7,"Mozilla/5.0 (Macintosh; Intel Mac OS X 10_15_7) AppleWebKit/537.36 (KHTML, like Gecko) Chrome/133.0.0.0 Safari/537.36",Macintosh,Chrome,133.0.0.0,OS X,10_15_7,https://5puzkbbxv1.cognition.run/?sona_id=57211,"en-US,en;q=0.9",s0v4kakky0baby4,19,"[""Asian"",""White""]",No,Male,NA,No,460668.60000002384,NA,null,<p></p>,null,choice,wwb,trinary,catch,null,televisions,80,95,25,50,20,35,1,NA,NA,NA,NA,NA,NA,NA,NA,NA,NA
NA,NA,NA,NA,NA,choice_trial,survey-html-form,11,98906,0.0-4.0-1.3,119,1,2025-05-01T20:44:32Z,b60275e29fe2361ab97ac0ac217840d7,"Mozilla/5.0 (Macintosh; Intel Mac OS X 10_15_7) AppleWebKit/537.36 (KHTML, like Gecko) Chrome/133.0.0.0 Safari/537.36",Macintosh,Chrome,133.0.0.0,OS X,10_15_7,https://5puzkbbxv1.cognition.run/?sona_id=57211,"en-US,en;q=0.9",s0v4kakky0baby4,19,"[""Asian"",""White""]",No,Male,NA,No,460668.60000002384,NA,7072,NA,"{""product_choice"":""C""}",choice,wwb,trinary,catch,null,televisions,80,95,25,50,20,35,1,null,null,null,null,null,null,Screen size,Average lifespan,NA,NA
NA,NA,NA,NA,NA,choice_trial_setup,html-keyboard-response,12,99208,0.0-4.0-0.4,119,1,2025-05-01T20:44:32Z,b60275e29fe2361ab97ac0ac217840d7,"Mozilla/5.0 (Macintosh; Intel Mac OS X 10_15_7) AppleWebKit/537.36 (KHTML, like Gecko) Chrome/133.0.0.0 Safari/537.36",Macintosh,Chrome,133.0.0.0,OS X,10_15_7,https://5puzkbbxv1.cognition.run/?sona_id=57211,"en-US,en;q=0.9",s0v4kakky0baby4,19,"[""Asian"",""White""]",No,Male,NA,No,460668.60000002384,NA,null,<p></p>,null,choice,cdt,trinary,repulsion_B,2,microwave ovens,null,null,null,null,null,null,2,NA,NA,NA,NA,NA,NA,NA,NA,NA,NA
NA,NA,NA,NA,NA,choice_trial,survey-html-form,13,107373,0.0-4.0-1.4,119,1,2025-05-01T20:44:32Z,b60275e29fe2361ab97ac0ac217840d7,"Mozilla/5.0 (Macintosh; Intel Mac OS X 10_15_7) AppleWebKit/537.36 (KHTML, like Gecko) Chrome/133.0.0.0 Safari/537.36",Macintosh,Chrome,133.0.0.0,OS X,10_15_7,https://5puzkbbxv1.cognition.run/?sona_id=57211,"en-US,en;q=0.9",s0v4kakky0baby4,19,"[""Asian"",""White""]",No,Male,NA,No,460668.60000002384,NA,8162,NA,"{""product_choice"":""C""}",choice,cdt,trinary,repulsion_B,2,microwave ovens,null,null,null,null,null,null,2,40,30,40,90,100,80,Warranty,Cooking power,NA,NA
NA,NA,NA,NA,NA,choice_trial_setup,html-keyboard-response,14,107675,0.0-4.0-0.5,119,1,2025-05-01T20:44:32Z,b60275e29fe2361ab97ac0ac217840d7,"Mozilla/5.0 (Macintosh; Intel Mac OS X 10_15_7) AppleWebKit/537.36 (KHTML, like Gecko) Chrome/133.0.0.0 Safari/537.36",Macintosh,Chrome,133.0.0.0,OS X,10_15_7,https://5puzkbbxv1.cognition.run/?sona_id=57211,"en-US,en;q=0.9",s0v4kakky0baby4,19,"[""Asian"",""White""]",No,Male,NA,No,460668.60000002384,NA,null,<p></p>,null,choice,tc,binary,attraction,NA,washing machines,null,null,null,null,null,null,1,NA,NA,NA,NA,NA,NA,NA,NA,NA,NA
NA,NA,NA,NA,NA,choice_trial,survey-html-form,15,113302,0.0-4.0-1.5,119,1,2025-05-01T20:44:32Z,b60275e29fe2361ab97ac0ac217840d7,"Mozilla/5.0 (Macintosh; Intel Mac OS X 10_15_7) AppleWebKit/537.36 (KHTML, like Gecko) Chrome/133.0.0.0 Safari/537.36",Macintosh,Chrome,133.0.0.0,OS X,10_15_7,https://5puzkbbxv1.cognition.run/?sona_id=57211,"en-US,en;q=0.9",s0v4kakky0baby4,19,"[""Asian"",""White""]",No,Male,NA,No,460668.60000002384,NA,5623,NA,"{""product_choice"":""B""}",choice,tc,binary,attraction,NA,washing machines,null,null,null,null,null,null,1,60,50,null,50,60,null,Average lifespan,Energy savings,NA,NA
NA,NA,NA,NA,NA,choice_trial_setup,html-keyboard-response,16,113605,0.0-4.0-0.6,119,1,2025-05-01T20:44:32Z,b60275e29fe2361ab97ac0ac217840d7,"Mozilla/5.0 (Macintosh; Intel Mac OS X 10_15_7) AppleWebKit/537.36 (KHTML, like Gecko) Chrome/133.0.0.0 Safari/537.36",Macintosh,Chrome,133.0.0.0,OS X,10_15_7,https://5puzkbbxv1.cognition.run/?sona_id=57211,"en-US,en;q=0.9",s0v4kakky0baby4,19,"[""Asian"",""White""]",No,Male,NA,No,460668.60000002384,NA,null,<p></p>,null,choice,ct,binary,repulsion,1,washing machines,null,null,null,null,null,null,2,NA,NA,NA,NA,NA,NA,NA,NA,NA,NA
NA,NA,NA,NA,NA,choice_trial,survey-html-form,17,117894,0.0-4.0-1.6,119,1,2025-05-01T20:44:32Z,b60275e29fe2361ab97ac0ac217840d7,"Mozilla/5.0 (Macintosh; Intel Mac OS X 10_15_7) AppleWebKit/537.36 (KHTML, like Gecko) Chrome/133.0.0.0 Safari/537.36",Macintosh,Chrome,133.0.0.0,OS X,10_15_7,https://5puzkbbxv1.cognition.run/?sona_id=57211,"en-US,en;q=0.9",s0v4kakky0baby4,19,"[""Asian"",""White""]",No,Male,NA,No,460668.60000002384,NA,4287,NA,"{""product_choice"":""A""}",choice,ct,binary,repulsion,1,washing machines,null,null,null,null,null,null,2,100,90,null,30,40,null,Average lifespan,Energy savings,NA,NA
NA,NA,NA,NA,NA,choice_trial_setup,html-keyboard-response,18,118197,0.0-4.0-0.7,119,1,2025-05-01T20:44:32Z,b60275e29fe2361ab97ac0ac217840d7,"Mozilla/5.0 (Macintosh; Intel Mac OS X 10_15_7) AppleWebKit/537.36 (KHTML, like Gecko) Chrome/133.0.0.0 Safari/537.36",Macintosh,Chrome,133.0.0.0,OS X,10_15_7,https://5puzkbbxv1.cognition.run/?sona_id=57211,"en-US,en;q=0.9",s0v4kakky0baby4,19,"[""Asian"",""White""]",No,Male,NA,No,460668.60000002384,NA,null,<p></p>,null,choice,tcd,trinary,attraction,1,laptops,null,null,null,null,null,null,1,NA,NA,NA,NA,NA,NA,NA,NA,NA,NA
NA,NA,NA,NA,NA,choice_trial,survey-html-form,19,128473,0.0-4.0-1.7,119,1,2025-05-01T20:44:32Z,b60275e29fe2361ab97ac0ac217840d7,"Mozilla/5.0 (Macintosh; Intel Mac OS X 10_15_7) AppleWebKit/537.36 (KHTML, like Gecko) Chrome/133.0.0.0 Safari/537.36",Macintosh,Chrome,133.0.0.0,OS X,10_15_7,https://5puzkbbxv1.cognition.run/?sona_id=57211,"en-US,en;q=0.9",s0v4kakky0baby4,19,"[""Asian"",""White""]",No,Male,NA,No,460668.60000002384,NA,10272,NA,"{""product_choice"":""A""}",choice,tcd,trinary,attraction,1,laptops,null,null,null,null,null,null,1,60,50,60,50,60,40,Processing speed,Memory (RAM),NA,NA
NA,NA,NA,NA,NA,choice_trial_setup,html-keyboard-response,20,128774,0.0-4.0-0.8,119,1,2025-05-01T20:44:32Z,b60275e29fe2361ab97ac0ac217840d7,"Mozilla/5.0 (Macintosh; Intel Mac OS X 10_15_7) AppleWebKit/537.36 (KHTML, like Gecko) Chrome/133.0.0.0 Safari/537.36",Macintosh,Chrome,133.0.0.0,OS X,10_15_7,https://5puzkbbxv1.cognition.run/?sona_id=57211,"en-US,en;q=0.9",s0v4kakky0baby4,19,"[""Asian"",""White""]",No,Male,NA,No,460668.60000002384,NA,null,<p></p>,null,choice,wbw,trinary,catch,null,microwave ovens,95,80,25,40,5,50,1,NA,NA,NA,NA,NA,NA,NA,NA,NA,NA
NA,NA,NA,NA,NA,choice_trial,survey-html-form,21,132164,0.0-4.0-1.8,119,1,2025-05-01T20:44:32Z,b60275e29fe2361ab97ac0ac217840d7,"Mozilla/5.0 (Macintosh; Intel Mac OS X 10_15_7) AppleWebKit/537.36 (KHTML, like Gecko) Chrome/133.0.0.0 Safari/537.36",Macintosh,Chrome,133.0.0.0,OS X,10_15_7,https://5puzkbbxv1.cognition.run/?sona_id=57211,"en-US,en;q=0.9",s0v4kakky0baby4,19,"[""Asian"",""White""]",No,Male,NA,No,460668.60000002384,NA,3388,NA,"{""product_choice"":""B""}",choice,wbw,trinary,catch,null,microwave ovens,95,80,25,40,5,50,1,null,null,null,null,null,null,Warranty,Cooking power,NA,NA
NA,NA,NA,NA,NA,choice_trial_setup,html-keyboard-response,22,132467,0.0-4.0-0.9,119,1,2025-05-01T20:44:32Z,b60275e29fe2361ab97ac0ac217840d7,"Mozilla/5.0 (Macintosh; Intel Mac OS X 10_15_7) AppleWebKit/537.36 (KHTML, like Gecko) Chrome/133.0.0.0 Safari/537.36",Macintosh,Chrome,133.0.0.0,OS X,10_15_7,https://5puzkbbxv1.cognition.run/?sona_id=57211,"en-US,en;q=0.9",s0v4kakky0baby4,19,"[""Asian"",""White""]",No,Male,NA,No,460668.60000002384,NA,null,<p></p>,null,choice,tc,binary,repulsion,1,microwave ovens,null,null,null,null,null,null,2,NA,NA,NA,NA,NA,NA,NA,NA,NA,NA
NA,NA,NA,NA,NA,choice_trial,survey-html-form,23,138193,0.0-4.0-1.9,119,1,2025-05-01T20:44:32Z,b60275e29fe2361ab97ac0ac217840d7,"Mozilla/5.0 (Macintosh; Intel Mac OS X 10_15_7) AppleWebKit/537.36 (KHTML, like Gecko) Chrome/133.0.0.0 Safari/537.36",Macintosh,Chrome,133.0.0.0,OS X,10_15_7,https://5puzkbbxv1.cognition.run/?sona_id=57211,"en-US,en;q=0.9",s0v4kakky0baby4,19,"[""Asian"",""White""]",No,Male,NA,No,460668.60000002384,NA,5722,NA,"{""product_choice"":""B""}",choice,tc,binary,repulsion,1,microwave ovens,null,null,null,null,null,null,2,100,90,null,30,40,null,Warranty,Cooking power,NA,NA
NA,NA,NA,NA,NA,choice_trial_setup,html-keyboard-response,24,138495,0.0-4.0-0.10,119,1,2025-05-01T20:44:32Z,b60275e29fe2361ab97ac0ac217840d7,"Mozilla/5.0 (Macintosh; Intel Mac OS X 10_15_7) AppleWebKit/537.36 (KHTML, like Gecko) Chrome/133.0.0.0 Safari/537.36",Macintosh,Chrome,133.0.0.0,OS X,10_15_7,https://5puzkbbxv1.cognition.run/?sona_id=57211,"en-US,en;q=0.9",s0v4kakky0baby4,19,"[""Asian"",""White""]",No,Male,NA,No,460668.60000002384,NA,null,<p></p>,null,choice,dct,trinary,attraction,1,microwave ovens,null,null,null,null,null,null,1,NA,NA,NA,NA,NA,NA,NA,NA,NA,NA
NA,NA,NA,NA,NA,choice_trial,survey-html-form,25,142460,0.0-4.0-1.10,119,1,2025-05-01T20:44:32Z,b60275e29fe2361ab97ac0ac217840d7,"Mozilla/5.0 (Macintosh; Intel Mac OS X 10_15_7) AppleWebKit/537.36 (KHTML, like Gecko) Chrome/133.0.0.0 Safari/537.36",Macintosh,Chrome,133.0.0.0,OS X,10_15_7,https://5puzkbbxv1.cognition.run/?sona_id=57211,"en-US,en;q=0.9",s0v4kakky0baby4,19,"[""Asian"",""White""]",No,Male,NA,No,460668.60000002384,NA,3963,NA,"{""product_choice"":""B""}",choice,dct,trinary,attraction,1,microwave ovens,null,null,null,null,null,null,1,60,50,60,50,60,40,Warranty,Cooking power,NA,NA
NA,NA,NA,NA,NA,choice_trial_setup,html-keyboard-response,26,142762,0.0-4.0-0.11,119,1,2025-05-01T20:44:32Z,b60275e29fe2361ab97ac0ac217840d7,"Mozilla/5.0 (Macintosh; Intel Mac OS X 10_15_7) AppleWebKit/537.36 (KHTML, like Gecko) Chrome/133.0.0.0 Safari/537.36",Macintosh,Chrome,133.0.0.0,OS X,10_15_7,https://5puzkbbxv1.cognition.run/?sona_id=57211,"en-US,en;q=0.9",s0v4kakky0baby4,19,"[""Asian"",""White""]",No,Male,NA,No,460668.60000002384,NA,null,<p></p>,null,choice,ct,binary,repulsion,1,laptops,null,null,null,null,null,null,1,NA,NA,NA,NA,NA,NA,NA,NA,NA,NA
NA,NA,NA,NA,NA,choice_trial,survey-html-form,27,147636,0.0-4.0-1.11,119,1,2025-05-01T20:44:32Z,b60275e29fe2361ab97ac0ac217840d7,"Mozilla/5.0 (Macintosh; Intel Mac OS X 10_15_7) AppleWebKit/537.36 (KHTML, like Gecko) Chrome/133.0.0.0 Safari/537.36",Macintosh,Chrome,133.0.0.0,OS X,10_15_7,https://5puzkbbxv1.cognition.run/?sona_id=57211,"en-US,en;q=0.9",s0v4kakky0baby4,19,"[""Asian"",""White""]",No,Male,NA,No,460668.60000002384,NA,4872,NA,"{""product_choice"":""A""}",choice,ct,binary,repulsion,1,laptops,null,null,null,null,null,null,1,100,90,null,30,40,null,Processing speed,Memory (RAM),NA,NA
NA,NA,NA,NA,NA,choice_trial_setup,html-keyboard-response,28,147939,0.0-4.0-0.12,119,1,2025-05-01T20:44:32Z,b60275e29fe2361ab97ac0ac217840d7,"Mozilla/5.0 (Macintosh; Intel Mac OS X 10_15_7) AppleWebKit/537.36 (KHTML, like Gecko) Chrome/133.0.0.0 Safari/537.36",Macintosh,Chrome,133.0.0.0,OS X,10_15_7,https://5puzkbbxv1.cognition.run/?sona_id=57211,"en-US,en;q=0.9",s0v4kakky0baby4,19,"[""Asian"",""White""]",No,Male,NA,No,460668.60000002384,NA,null,<p></p>,null,choice,ctd,trinary,repulsion_B,2,washing machines,null,null,null,null,null,null,2,NA,NA,NA,NA,NA,NA,NA,NA,NA,NA
NA,NA,NA,NA,NA,choice_trial,survey-html-form,29,158618,0.0-4.0-1.12,119,1,2025-05-01T20:44:32Z,b60275e29fe2361ab97ac0ac217840d7,"Mozilla/5.0 (Macintosh; Intel Mac OS X 10_15_7) AppleWebKit/537.36 (KHTML, like Gecko) Chrome/133.0.0.0 Safari/537.36",Macintosh,Chrome,133.0.0.0,OS X,10_15_7,https://5puzkbbxv1.cognition.run/?sona_id=57211,"en-US,en;q=0.9",s0v4kakky0baby4,19,"[""Asian"",""White""]",No,Male,NA,No,460668.60000002384,NA,10674,NA,"{""product_choice"":""B""}",choice,ctd,trinary,repulsion_B,2,washing machines,null,null,null,null,null,null,2,40,30,40,90,100,80,Average lifespan,Energy savings,NA,NA
NA,NA,NA,NA,NA,choice_trial_setup,html-keyboard-response,30,158921,0.0-4.0-0.13,119,1,2025-05-01T20:44:32Z,b60275e29fe2361ab97ac0ac217840d7,"Mozilla/5.0 (Macintosh; Intel Mac OS X 10_15_7) AppleWebKit/537.36 (KHTML, like Gecko) Chrome/133.0.0.0 Safari/537.36",Macintosh,Chrome,133.0.0.0,OS X,10_15_7,https://5puzkbbxv1.cognition.run/?sona_id=57211,"en-US,en;q=0.9",s0v4kakky0baby4,19,"[""Asian"",""White""]",No,Male,NA,No,460668.60000002384,NA,null,<p></p>,null,choice,ctd,trinary,repulsion_A,1,laptops,null,null,null,null,null,null,2,NA,NA,NA,NA,NA,NA,NA,NA,NA,NA
NA,NA,NA,NA,NA,choice_trial,survey-html-form,31,165052,0.0-4.0-1.13,119,1,2025-05-01T20:44:32Z,b60275e29fe2361ab97ac0ac217840d7,"Mozilla/5.0 (Macintosh; Intel Mac OS X 10_15_7) AppleWebKit/537.36 (KHTML, like Gecko) Chrome/133.0.0.0 Safari/537.36",Macintosh,Chrome,133.0.0.0,OS X,10_15_7,https://5puzkbbxv1.cognition.run/?sona_id=57211,"en-US,en;q=0.9",s0v4kakky0baby4,19,"[""Asian"",""White""]",No,Male,NA,No,460668.60000002384,NA,6128,NA,"{""product_choice"":""A""}",choice,ctd,trinary,repulsion_A,1,laptops,null,null,null,null,null,null,2,100,90,100,30,40,20,Processing speed,Memory (RAM),NA,NA
NA,NA,NA,NA,NA,choice_trial_setup,html-keyboard-response,32,165355,0.0-4.0-0.14,119,1,2025-05-01T20:44:32Z,b60275e29fe2361ab97ac0ac217840d7,"Mozilla/5.0 (Macintosh; Intel Mac OS X 10_15_7) AppleWebKit/537.36 (KHTML, like Gecko) Chrome/133.0.0.0 Safari/537.36",Macintosh,Chrome,133.0.0.0,OS X,10_15_7,https://5puzkbbxv1.cognition.run/?sona_id=57211,"en-US,en;q=0.9",s0v4kakky0baby4,19,"[""Asian"",""White""]",No,Male,NA,No,460668.60000002384,NA,null,<p></p>,null,choice,wb,binary,catch,null,microwave ovens,70,65,10,35,null,null,2,NA,NA,NA,NA,NA,NA,NA,NA,NA,NA
NA,NA,NA,NA,NA,choice_trial,survey-html-form,33,168735,0.0-4.0-1.14,119,1,2025-05-01T20:44:32Z,b60275e29fe2361ab97ac0ac217840d7,"Mozilla/5.0 (Macintosh; Intel Mac OS X 10_15_7) AppleWebKit/537.36 (KHTML, like Gecko) Chrome/133.0.0.0 Safari/537.36",Macintosh,Chrome,133.0.0.0,OS X,10_15_7,https://5puzkbbxv1.cognition.run/?sona_id=57211,"en-US,en;q=0.9",s0v4kakky0baby4,19,"[""Asian"",""White""]",No,Male,NA,No,460668.60000002384,NA,3375,NA,"{""product_choice"":""B""}",choice,wb,binary,catch,null,microwave ovens,70,65,10,35,null,null,2,null,null,null,null,null,null,Warranty,Cooking power,NA,NA
NA,NA,NA,NA,NA,choice_trial_setup,html-keyboard-response,34,169038,0.0-4.0-0.15,119,1,2025-05-01T20:44:32Z,b60275e29fe2361ab97ac0ac217840d7,"Mozilla/5.0 (Macintosh; Intel Mac OS X 10_15_7) AppleWebKit/537.36 (KHTML, like Gecko) Chrome/133.0.0.0 Safari/537.36",Macintosh,Chrome,133.0.0.0,OS X,10_15_7,https://5puzkbbxv1.cognition.run/?sona_id=57211,"en-US,en;q=0.9",s0v4kakky0baby4,19,"[""Asian"",""White""]",No,Male,NA,No,460668.60000002384,NA,null,<p></p>,null,choice,bw,binary,catch,null,laptops,75,85,10,45,null,null,1,NA,NA,NA,NA,NA,NA,NA,NA,NA,NA
NA,NA,NA,NA,NA,choice_trial,survey-html-form,35,173380,0.0-4.0-1.15,119,1,2025-05-01T20:44:32Z,b60275e29fe2361ab97ac0ac217840d7,"Mozilla/5.0 (Macintosh; Intel Mac OS X 10_15_7) AppleWebKit/537.36 (KHTML, like Gecko) Chrome/133.0.0.0 Safari/537.36",Macintosh,Chrome,133.0.0.0,OS X,10_15_7,https://5puzkbbxv1.cognition.run/?sona_id=57211,"en-US,en;q=0.9",s0v4kakky0baby4,19,"[""Asian"",""White""]",No,Male,NA,No,460668.60000002384,NA,4339,NA,"{""product_choice"":""A""}",choice,bw,binary,catch,null,laptops,75,85,10,45,null,null,1,null,null,null,null,null,null,Processing speed,Memory (RAM),NA,NA
NA,NA,NA,NA,NA,choice_trial_setup,html-keyboard-response,36,173682,0.0-4.0-0.16,119,1,2025-05-01T20:44:32Z,b60275e29fe2361ab97ac0ac217840d7,"Mozilla/5.0 (Macintosh; Intel Mac OS X 10_15_7) AppleWebKit/537.36 (KHTML, like Gecko) Chrome/133.0.0.0 Safari/537.36",Macintosh,Chrome,133.0.0.0,OS X,10_15_7,https://5puzkbbxv1.cognition.run/?sona_id=57211,"en-US,en;q=0.9",s0v4kakky0baby4,19,"[""Asian"",""White""]",No,Male,NA,No,460668.60000002384,NA,null,<p></p>,null,choice,tcd,trinary,attraction,2,televisions,null,null,null,null,null,null,2,NA,NA,NA,NA,NA,NA,NA,NA,NA,NA
NA,NA,NA,NA,NA,choice_trial,survey-html-form,37,177514,0.0-4.0-1.16,119,1,2025-05-01T20:44:32Z,b60275e29fe2361ab97ac0ac217840d7,"Mozilla/5.0 (Macintosh; Intel Mac OS X 10_15_7) AppleWebKit/537.36 (KHTML, like Gecko) Chrome/133.0.0.0 Safari/537.36",Macintosh,Chrome,133.0.0.0,OS X,10_15_7,https://5puzkbbxv1.cognition.run/?sona_id=57211,"en-US,en;q=0.9",s0v4kakky0baby4,19,"[""Asian"",""White""]",No,Male,NA,No,460668.60000002384,NA,3831,NA,"{""product_choice"":""B""}",choice,tcd,trinary,attraction,2,televisions,null,null,null,null,null,null,2,50,60,40,60,50,60,Screen size,Average lifespan,NA,NA
NA,NA,NA,NA,NA,choice_trial_setup,html-keyboard-response,38,177815,0.0-4.0-0.17,119,1,2025-05-01T20:44:32Z,b60275e29fe2361ab97ac0ac217840d7,"Mozilla/5.0 (Macintosh; Intel Mac OS X 10_15_7) AppleWebKit/537.36 (KHTML, like Gecko) Chrome/133.0.0.0 Safari/537.36",Macintosh,Chrome,133.0.0.0,OS X,10_15_7,https://5puzkbbxv1.cognition.run/?sona_id=57211,"en-US,en;q=0.9",s0v4kakky0baby4,19,"[""Asian"",""White""]",No,Male,NA,No,460668.60000002384,NA,null,<p></p>,null,choice,ct,binary,attraction,NA,microwave ovens,null,null,null,null,null,null,1,NA,NA,NA,NA,NA,NA,NA,NA,NA,NA
NA,NA,NA,NA,NA,choice_trial,survey-html-form,39,180626,0.0-4.0-1.17,119,1,2025-05-01T20:44:32Z,b60275e29fe2361ab97ac0ac217840d7,"Mozilla/5.0 (Macintosh; Intel Mac OS X 10_15_7) AppleWebKit/537.36 (KHTML, like Gecko) Chrome/133.0.0.0 Safari/537.36",Macintosh,Chrome,133.0.0.0,OS X,10_15_7,https://5puzkbbxv1.cognition.run/?sona_id=57211,"en-US,en;q=0.9",s0v4kakky0baby4,19,"[""Asian"",""White""]",No,Male,NA,No,460668.60000002384,NA,2809,NA,"{""product_choice"":""A""}",choice,ct,binary,attraction,NA,microwave ovens,null,null,null,null,null,null,1,60,50,null,50,60,null,Warranty,Cooking power,NA,NA
NA,NA,NA,NA,NA,choice_trial_setup,html-keyboard-response,40,180929,0.0-4.0-0.18,119,1,2025-05-01T20:44:32Z,b60275e29fe2361ab97ac0ac217840d7,"Mozilla/5.0 (Macintosh; Intel Mac OS X 10_15_7) AppleWebKit/537.36 (KHTML, like Gecko) Chrome/133.0.0.0 Safari/537.36",Macintosh,Chrome,133.0.0.0,OS X,10_15_7,https://5puzkbbxv1.cognition.run/?sona_id=57211,"en-US,en;q=0.9",s0v4kakky0baby4,19,"[""Asian"",""White""]",No,Male,NA,No,460668.60000002384,NA,null,<p></p>,null,choice,tdc,trinary,attraction,2,laptops,null,null,null,null,null,null,2,NA,NA,NA,NA,NA,NA,NA,NA,NA,NA
NA,NA,NA,NA,NA,choice_trial,survey-html-form,41,185134,0.0-4.0-1.18,119,1,2025-05-01T20:44:32Z,b60275e29fe2361ab97ac0ac217840d7,"Mozilla/5.0 (Macintosh; Intel Mac OS X 10_15_7) AppleWebKit/537.36 (KHTML, like Gecko) Chrome/133.0.0.0 Safari/537.36",Macintosh,Chrome,133.0.0.0,OS X,10_15_7,https://5puzkbbxv1.cognition.run/?sona_id=57211,"en-US,en;q=0.9",s0v4kakky0baby4,19,"[""Asian"",""White""]",No,Male,NA,No,460668.60000002384,NA,4203,NA,"{""product_choice"":""C""}",choice,tdc,trinary,attraction,2,laptops,null,null,null,null,null,null,2,50,60,40,60,50,60,Processing speed,Memory (RAM),NA,NA
NA,NA,NA,NA,NA,choice_trial_setup,html-keyboard-response,42,185438,0.0-4.0-0.19,119,1,2025-05-01T20:44:32Z,b60275e29fe2361ab97ac0ac217840d7,"Mozilla/5.0 (Macintosh; Intel Mac OS X 10_15_7) AppleWebKit/537.36 (KHTML, like Gecko) Chrome/133.0.0.0 Safari/537.36",Macintosh,Chrome,133.0.0.0,OS X,10_15_7,https://5puzkbbxv1.cognition.run/?sona_id=57211,"en-US,en;q=0.9",s0v4kakky0baby4,19,"[""Asian"",""White""]",No,Male,NA,No,460668.60000002384,NA,null,<p></p>,null,choice,dct,trinary,repulsion_A,1,televisions,null,null,null,null,null,null,2,NA,NA,NA,NA,NA,NA,NA,NA,NA,NA
NA,NA,NA,NA,NA,choice_trial,survey-html-form,43,223553,0.0-4.0-1.19,119,1,2025-05-01T20:44:32Z,b60275e29fe2361ab97ac0ac217840d7,"Mozilla/5.0 (Macintosh; Intel Mac OS X 10_15_7) AppleWebKit/537.36 (KHTML, like Gecko) Chrome/133.0.0.0 Safari/537.36",Macintosh,Chrome,133.0.0.0,OS X,10_15_7,https://5puzkbbxv1.cognition.run/?sona_id=57211,"en-US,en;q=0.9",s0v4kakky0baby4,19,"[""Asian"",""White""]",No,Male,NA,No,460668.60000002384,NA,38112,NA,"{""product_choice"":""C""}",choice,dct,trinary,repulsion_A,1,televisions,null,null,null,null,null,null,2,100,90,100,30,40,20,Screen size,Average lifespan,NA,NA
NA,NA,NA,NA,NA,choice_trial_setup,html-keyboard-response,44,223856,0.0-4.0-0.20,119,1,2025-05-01T20:44:32Z,b60275e29fe2361ab97ac0ac217840d7,"Mozilla/5.0 (Macintosh; Intel Mac OS X 10_15_7) AppleWebKit/537.36 (KHTML, like Gecko) Chrome/133.0.0.0 Safari/537.36",Macintosh,Chrome,133.0.0.0,OS X,10_15_7,https://5puzkbbxv1.cognition.run/?sona_id=57211,"en-US,en;q=0.9",s0v4kakky0baby4,19,"[""Asian"",""White""]",No,Male,NA,No,460668.60000002384,NA,null,<p></p>,null,choice,bww,trinary,catch,null,washing machines,55,70,45,50,5,35,1,NA,NA,NA,NA,NA,NA,NA,NA,NA,NA
NA,NA,NA,NA,NA,choice_trial,survey-html-form,45,229147,0.0-4.0-1.20,119,1,2025-05-01T20:44:32Z,b60275e29fe2361ab97ac0ac217840d7,"Mozilla/5.0 (Macintosh; Intel Mac OS X 10_15_7) AppleWebKit/537.36 (KHTML, like Gecko) Chrome/133.0.0.0 Safari/537.36",Macintosh,Chrome,133.0.0.0,OS X,10_15_7,https://5puzkbbxv1.cognition.run/?sona_id=57211,"en-US,en;q=0.9",s0v4kakky0baby4,19,"[""Asian"",""White""]",No,Male,NA,No,460668.60000002384,NA,5287,NA,"{""product_choice"":""A""}",choice,bww,trinary,catch,null,washing machines,55,70,45,50,5,35,1,null,null,null,null,null,null,Average lifespan,Energy savings,NA,NA
NA,NA,NA,NA,NA,choice_trial_setup,html-keyboard-response,46,229449,0.0-4.0-0.21,119,1,2025-05-01T20:44:32Z,b60275e29fe2361ab97ac0ac217840d7,"Mozilla/5.0 (Macintosh; Intel Mac OS X 10_15_7) AppleWebKit/537.36 (KHTML, like Gecko) Chrome/133.0.0.0 Safari/537.36",Macintosh,Chrome,133.0.0.0,OS X,10_15_7,https://5puzkbbxv1.cognition.run/?sona_id=57211,"en-US,en;q=0.9",s0v4kakky0baby4,19,"[""Asian"",""White""]",No,Male,NA,No,460668.60000002384,NA,null,<p></p>,null,choice,dct,trinary,repulsion_B,2,televisions,null,null,null,null,null,null,2,NA,NA,NA,NA,NA,NA,NA,NA,NA,NA
NA,NA,NA,NA,NA,choice_trial,survey-html-form,47,235117,0.0-4.0-1.21,119,1,2025-05-01T20:44:32Z,b60275e29fe2361ab97ac0ac217840d7,"Mozilla/5.0 (Macintosh; Intel Mac OS X 10_15_7) AppleWebKit/537.36 (KHTML, like Gecko) Chrome/133.0.0.0 Safari/537.36",Macintosh,Chrome,133.0.0.0,OS X,10_15_7,https://5puzkbbxv1.cognition.run/?sona_id=57211,"en-US,en;q=0.9",s0v4kakky0baby4,19,"[""Asian"",""White""]",No,Male,NA,No,460668.60000002384,NA,5665,NA,"{""product_choice"":""C""}",choice,dct,trinary,repulsion_B,2,televisions,null,null,null,null,null,null,2,40,30,40,90,100,80,Screen size,Average lifespan,NA,NA
NA,NA,NA,NA,NA,choice_trial_setup,html-keyboard-response,48,235420,0.0-4.0-0.22,119,1,2025-05-01T20:44:32Z,b60275e29fe2361ab97ac0ac217840d7,"Mozilla/5.0 (Macintosh; Intel Mac OS X 10_15_7) AppleWebKit/537.36 (KHTML, like Gecko) Chrome/133.0.0.0 Safari/537.36",Macintosh,Chrome,133.0.0.0,OS X,10_15_7,https://5puzkbbxv1.cognition.run/?sona_id=57211,"en-US,en;q=0.9",s0v4kakky0baby4,19,"[""Asian"",""White""]",No,Male,NA,No,460668.60000002384,NA,null,<p></p>,null,choice,tcd,trinary,attraction,2,microwave ovens,null,null,null,null,null,null,1,NA,NA,NA,NA,NA,NA,NA,NA,NA,NA
NA,NA,NA,NA,NA,choice_trial,survey-html-form,49,241091,0.0-4.0-1.22,119,1,2025-05-01T20:44:32Z,b60275e29fe2361ab97ac0ac217840d7,"Mozilla/5.0 (Macintosh; Intel Mac OS X 10_15_7) AppleWebKit/537.36 (KHTML, like Gecko) Chrome/133.0.0.0 Safari/537.36",Macintosh,Chrome,133.0.0.0,OS X,10_15_7,https://5puzkbbxv1.cognition.run/?sona_id=57211,"en-US,en;q=0.9",s0v4kakky0baby4,19,"[""Asian"",""White""]",No,Male,NA,No,460668.60000002384,NA,5667,NA,"{""product_choice"":""A""}",choice,tcd,trinary,attraction,2,microwave ovens,null,null,null,null,null,null,1,50,60,40,60,50,60,Warranty,Cooking power,NA,NA
NA,NA,NA,NA,NA,choice_trial_setup,html-keyboard-response,50,241395,0.0-4.0-0.23,119,1,2025-05-01T20:44:32Z,b60275e29fe2361ab97ac0ac217840d7,"Mozilla/5.0 (Macintosh; Intel Mac OS X 10_15_7) AppleWebKit/537.36 (KHTML, like Gecko) Chrome/133.0.0.0 Safari/537.36",Macintosh,Chrome,133.0.0.0,OS X,10_15_7,https://5puzkbbxv1.cognition.run/?sona_id=57211,"en-US,en;q=0.9",s0v4kakky0baby4,19,"[""Asian"",""White""]",No,Male,NA,No,460668.60000002384,NA,null,<p></p>,null,choice,bww,trinary,catch,null,laptops,50,75,15,25,50,10,2,NA,NA,NA,NA,NA,NA,NA,NA,NA,NA
NA,NA,NA,NA,NA,choice_trial,survey-html-form,51,247612,0.0-4.0-1.23,119,1,2025-05-01T20:44:32Z,b60275e29fe2361ab97ac0ac217840d7,"Mozilla/5.0 (Macintosh; Intel Mac OS X 10_15_7) AppleWebKit/537.36 (KHTML, like Gecko) Chrome/133.0.0.0 Safari/537.36",Macintosh,Chrome,133.0.0.0,OS X,10_15_7,https://5puzkbbxv1.cognition.run/?sona_id=57211,"en-US,en;q=0.9",s0v4kakky0baby4,19,"[""Asian"",""White""]",No,Male,NA,No,460668.60000002384,NA,6212,NA,"{""product_choice"":""A""}",choice,bww,trinary,catch,null,laptops,50,75,15,25,50,10,2,null,null,null,null,null,null,Processing speed,Memory (RAM),NA,NA
NA,NA,NA,NA,NA,choice_trial_setup,html-keyboard-response,52,247915,0.0-4.0-0.24,119,1,2025-05-01T20:44:32Z,b60275e29fe2361ab97ac0ac217840d7,"Mozilla/5.0 (Macintosh; Intel Mac OS X 10_15_7) AppleWebKit/537.36 (KHTML, like Gecko) Chrome/133.0.0.0 Safari/537.36",Macintosh,Chrome,133.0.0.0,OS X,10_15_7,https://5puzkbbxv1.cognition.run/?sona_id=57211,"en-US,en;q=0.9",s0v4kakky0baby4,19,"[""Asian"",""White""]",No,Male,NA,No,460668.60000002384,NA,null,<p></p>,null,choice,tdc,trinary,repulsion_A,2,laptops,null,null,null,null,null,null,1,NA,NA,NA,NA,NA,NA,NA,NA,NA,NA
NA,NA,NA,NA,NA,choice_trial,survey-html-form,53,252553,0.0-4.0-1.24,119,1,2025-05-01T20:44:32Z,b60275e29fe2361ab97ac0ac217840d7,"Mozilla/5.0 (Macintosh; Intel Mac OS X 10_15_7) AppleWebKit/537.36 (KHTML, like Gecko) Chrome/133.0.0.0 Safari/537.36",Macintosh,Chrome,133.0.0.0,OS X,10_15_7,https://5puzkbbxv1.cognition.run/?sona_id=57211,"en-US,en;q=0.9",s0v4kakky0baby4,19,"[""Asian"",""White""]",No,Male,NA,No,460668.60000002384,NA,4634,NA,"{""product_choice"":""C""}",choice,tdc,trinary,repulsion_A,2,laptops,null,null,null,null,null,null,1,30,40,20,100,90,100,Processing speed,Memory (RAM),NA,NA
NA,NA,NA,NA,NA,choice_trial_setup,html-keyboard-response,54,252856,0.0-4.0-0.25,119,1,2025-05-01T20:44:32Z,b60275e29fe2361ab97ac0ac217840d7,"Mozilla/5.0 (Macintosh; Intel Mac OS X 10_15_7) AppleWebKit/537.36 (KHTML, like Gecko) Chrome/133.0.0.0 Safari/537.36",Macintosh,Chrome,133.0.0.0,OS X,10_15_7,https://5puzkbbxv1.cognition.run/?sona_id=57211,"en-US,en;q=0.9",s0v4kakky0baby4,19,"[""Asian"",""White""]",No,Male,NA,No,460668.60000002384,NA,null,<p></p>,null,choice,cdt,trinary,attraction,1,washing machines,null,null,null,null,null,null,1,NA,NA,NA,NA,NA,NA,NA,NA,NA,NA
NA,NA,NA,NA,NA,choice_trial,survey-html-form,55,257729,0.0-4.0-1.25,119,1,2025-05-01T20:44:32Z,b60275e29fe2361ab97ac0ac217840d7,"Mozilla/5.0 (Macintosh; Intel Mac OS X 10_15_7) AppleWebKit/537.36 (KHTML, like Gecko) Chrome/133.0.0.0 Safari/537.36",Macintosh,Chrome,133.0.0.0,OS X,10_15_7,https://5puzkbbxv1.cognition.run/?sona_id=57211,"en-US,en;q=0.9",s0v4kakky0baby4,19,"[""Asian"",""White""]",No,Male,NA,No,460668.60000002384,NA,4868,NA,"{""product_choice"":""A""}",choice,cdt,trinary,attraction,1,washing machines,null,null,null,null,null,null,1,60,50,60,50,60,40,Average lifespan,Energy savings,NA,NA
NA,NA,NA,NA,NA,choice_trial_setup,html-keyboard-response,56,258032,0.0-4.0-0.26,119,1,2025-05-01T20:44:32Z,b60275e29fe2361ab97ac0ac217840d7,"Mozilla/5.0 (Macintosh; Intel Mac OS X 10_15_7) AppleWebKit/537.36 (KHTML, like Gecko) Chrome/133.0.0.0 Safari/537.36",Macintosh,Chrome,133.0.0.0,OS X,10_15_7,https://5puzkbbxv1.cognition.run/?sona_id=57211,"en-US,en;q=0.9",s0v4kakky0baby4,19,"[""Asian"",""White""]",No,Male,NA,No,460668.60000002384,NA,null,<p></p>,null,choice,tc,binary,repulsion,2,televisions,null,null,null,null,null,null,2,NA,NA,NA,NA,NA,NA,NA,NA,NA,NA
NA,NA,NA,NA,NA,choice_trial,survey-html-form,57,261095,0.0-4.0-1.26,119,1,2025-05-01T20:44:32Z,b60275e29fe2361ab97ac0ac217840d7,"Mozilla/5.0 (Macintosh; Intel Mac OS X 10_15_7) AppleWebKit/537.36 (KHTML, like Gecko) Chrome/133.0.0.0 Safari/537.36",Macintosh,Chrome,133.0.0.0,OS X,10_15_7,https://5puzkbbxv1.cognition.run/?sona_id=57211,"en-US,en;q=0.9",s0v4kakky0baby4,19,"[""Asian"",""White""]",No,Male,NA,No,460668.60000002384,NA,3059,NA,"{""product_choice"":""B""}",choice,tc,binary,repulsion,2,televisions,null,null,null,null,null,null,2,30,40,null,100,90,null,Screen size,Average lifespan,NA,NA
NA,NA,NA,NA,NA,choice_trial_setup,html-keyboard-response,58,261397,0.0-4.0-0.27,119,1,2025-05-01T20:44:32Z,b60275e29fe2361ab97ac0ac217840d7,"Mozilla/5.0 (Macintosh; Intel Mac OS X 10_15_7) AppleWebKit/537.36 (KHTML, like Gecko) Chrome/133.0.0.0 Safari/537.36",Macintosh,Chrome,133.0.0.0,OS X,10_15_7,https://5puzkbbxv1.cognition.run/?sona_id=57211,"en-US,en;q=0.9",s0v4kakky0baby4,19,"[""Asian"",""White""]",No,Male,NA,No,460668.60000002384,NA,null,<p></p>,null,choice,ct,binary,repulsion,2,microwave ovens,null,null,null,null,null,null,2,NA,NA,NA,NA,NA,NA,NA,NA,NA,NA
NA,NA,NA,NA,NA,choice_trial,survey-html-form,59,264577,0.0-4.0-1.27,119,1,2025-05-01T20:44:32Z,b60275e29fe2361ab97ac0ac217840d7,"Mozilla/5.0 (Macintosh; Intel Mac OS X 10_15_7) AppleWebKit/537.36 (KHTML, like Gecko) Chrome/133.0.0.0 Safari/537.36",Macintosh,Chrome,133.0.0.0,OS X,10_15_7,https://5puzkbbxv1.cognition.run/?sona_id=57211,"en-US,en;q=0.9",s0v4kakky0baby4,19,"[""Asian"",""White""]",No,Male,NA,No,460668.60000002384,NA,3176,NA,"{""product_choice"":""A""}",choice,ct,binary,repulsion,2,microwave ovens,null,null,null,null,null,null,2,30,40,null,100,90,null,Warranty,Cooking power,NA,NA
NA,NA,NA,NA,NA,choice_trial_setup,html-keyboard-response,60,264880,0.0-4.0-0.28,119,1,2025-05-01T20:44:32Z,b60275e29fe2361ab97ac0ac217840d7,"Mozilla/5.0 (Macintosh; Intel Mac OS X 10_15_7) AppleWebKit/537.36 (KHTML, like Gecko) Chrome/133.0.0.0 Safari/537.36",Macintosh,Chrome,133.0.0.0,OS X,10_15_7,https://5puzkbbxv1.cognition.run/?sona_id=57211,"en-US,en;q=0.9",s0v4kakky0baby4,19,"[""Asian"",""White""]",No,Male,NA,No,460668.60000002384,NA,null,<p></p>,null,choice,cdt,trinary,repulsion_A,2,televisions,null,null,null,null,null,null,1,NA,NA,NA,NA,NA,NA,NA,NA,NA,NA
NA,NA,NA,NA,NA,choice_trial,survey-html-form,61,271027,0.0-4.0-1.28,119,1,2025-05-01T20:44:32Z,b60275e29fe2361ab97ac0ac217840d7,"Mozilla/5.0 (Macintosh; Intel Mac OS X 10_15_7) AppleWebKit/537.36 (KHTML, like Gecko) Chrome/133.0.0.0 Safari/537.36",Macintosh,Chrome,133.0.0.0,OS X,10_15_7,https://5puzkbbxv1.cognition.run/?sona_id=57211,"en-US,en;q=0.9",s0v4kakky0baby4,19,"[""Asian"",""White""]",No,Male,NA,No,460668.60000002384,NA,6142,NA,"{""product_choice"":""A""}",choice,cdt,trinary,repulsion_A,2,televisions,null,null,null,null,null,null,1,30,40,20,100,90,100,Screen size,Average lifespan,NA,NA
NA,NA,NA,NA,NA,choice_trial_setup,html-keyboard-response,62,271330,0.0-4.0-0.29,119,1,2025-05-01T20:44:32Z,b60275e29fe2361ab97ac0ac217840d7,"Mozilla/5.0 (Macintosh; Intel Mac OS X 10_15_7) AppleWebKit/537.36 (KHTML, like Gecko) Chrome/133.0.0.0 Safari/537.36",Macintosh,Chrome,133.0.0.0,OS X,10_15_7,https://5puzkbbxv1.cognition.run/?sona_id=57211,"en-US,en;q=0.9",s0v4kakky0baby4,19,"[""Asian"",""White""]",No,Male,NA,No,460668.60000002384,NA,null,<p></p>,null,choice,cdt,trinary,attraction,2,washing machines,null,null,null,null,null,null,1,NA,NA,NA,NA,NA,NA,NA,NA,NA,NA
NA,NA,NA,NA,NA,choice_trial,survey-html-form,63,277169,0.0-4.0-1.29,119,1,2025-05-01T20:44:32Z,b60275e29fe2361ab97ac0ac217840d7,"Mozilla/5.0 (Macintosh; Intel Mac OS X 10_15_7) AppleWebKit/537.36 (KHTML, like Gecko) Chrome/133.0.0.0 Safari/537.36",Macintosh,Chrome,133.0.0.0,OS X,10_15_7,https://5puzkbbxv1.cognition.run/?sona_id=57211,"en-US,en;q=0.9",s0v4kakky0baby4,19,"[""Asian"",""White""]",No,Male,NA,No,460668.60000002384,NA,5834,NA,"{""product_choice"":""C""}",choice,cdt,trinary,attraction,2,washing machines,null,null,null,null,null,null,1,50,60,40,60,50,60,Average lifespan,Energy savings,NA,NA
NA,NA,NA,NA,NA,choice_trial_setup,html-keyboard-response,64,277472,0.0-4.0-0.30,119,1,2025-05-01T20:44:32Z,b60275e29fe2361ab97ac0ac217840d7,"Mozilla/5.0 (Macintosh; Intel Mac OS X 10_15_7) AppleWebKit/537.36 (KHTML, like Gecko) Chrome/133.0.0.0 Safari/537.36",Macintosh,Chrome,133.0.0.0,OS X,10_15_7,https://5puzkbbxv1.cognition.run/?sona_id=57211,"en-US,en;q=0.9",s0v4kakky0baby4,19,"[""Asian"",""White""]",No,Male,NA,No,460668.60000002384,NA,null,<p></p>,null,choice,bw,binary,catch,null,washing machines,55,50,30,10,null,null,2,NA,NA,NA,NA,NA,NA,NA,NA,NA,NA
NA,NA,NA,NA,NA,choice_trial,survey-html-form,65,282215,0.0-4.0-1.30,119,1,2025-05-01T20:44:32Z,b60275e29fe2361ab97ac0ac217840d7,"Mozilla/5.0 (Macintosh; Intel Mac OS X 10_15_7) AppleWebKit/537.36 (KHTML, like Gecko) Chrome/133.0.0.0 Safari/537.36",Macintosh,Chrome,133.0.0.0,OS X,10_15_7,https://5puzkbbxv1.cognition.run/?sona_id=57211,"en-US,en;q=0.9",s0v4kakky0baby4,19,"[""Asian"",""White""]",No,Male,NA,No,460668.60000002384,NA,4740,NA,"{""product_choice"":""A""}",choice,bw,binary,catch,null,washing machines,55,50,30,10,null,null,2,null,null,null,null,null,null,Average lifespan,Energy savings,NA,NA
NA,NA,NA,NA,NA,choice_trial_setup,html-keyboard-response,66,282517,0.0-4.0-0.31,119,1,2025-05-01T20:44:32Z,b60275e29fe2361ab97ac0ac217840d7,"Mozilla/5.0 (Macintosh; Intel Mac OS X 10_15_7) AppleWebKit/537.36 (KHTML, like Gecko) Chrome/133.0.0.0 Safari/537.36",Macintosh,Chrome,133.0.0.0,OS X,10_15_7,https://5puzkbbxv1.cognition.run/?sona_id=57211,"en-US,en;q=0.9",s0v4kakky0baby4,19,"[""Asian"",""White""]",No,Male,NA,No,460668.60000002384,NA,null,<p></p>,null,choice,dct,trinary,repulsion_B,1,televisions,null,null,null,null,null,null,1,NA,NA,NA,NA,NA,NA,NA,NA,NA,NA
NA,NA,NA,NA,NA,choice_trial,survey-html-form,67,286836,0.0-4.0-1.31,119,1,2025-05-01T20:44:32Z,b60275e29fe2361ab97ac0ac217840d7,"Mozilla/5.0 (Macintosh; Intel Mac OS X 10_15_7) AppleWebKit/537.36 (KHTML, like Gecko) Chrome/133.0.0.0 Safari/537.36",Macintosh,Chrome,133.0.0.0,OS X,10_15_7,https://5puzkbbxv1.cognition.run/?sona_id=57211,"en-US,en;q=0.9",s0v4kakky0baby4,19,"[""Asian"",""White""]",No,Male,NA,No,460668.60000002384,NA,4313,NA,"{""product_choice"":""C""}",choice,dct,trinary,repulsion_B,1,televisions,null,null,null,null,null,null,1,90,100,80,40,30,40,Screen size,Average lifespan,NA,NA
NA,NA,NA,NA,NA,choice_trial_setup,html-keyboard-response,68,287140,0.0-4.0-0.32,119,1,2025-05-01T20:44:32Z,b60275e29fe2361ab97ac0ac217840d7,"Mozilla/5.0 (Macintosh; Intel Mac OS X 10_15_7) AppleWebKit/537.36 (KHTML, like Gecko) Chrome/133.0.0.0 Safari/537.36",Macintosh,Chrome,133.0.0.0,OS X,10_15_7,https://5puzkbbxv1.cognition.run/?sona_id=57211,"en-US,en;q=0.9",s0v4kakky0baby4,19,"[""Asian"",""White""]",No,Male,NA,No,460668.60000002384,NA,null,<p></p>,null,choice,tcd,trinary,repulsion_A,2,washing machines,null,null,null,null,null,null,1,NA,NA,NA,NA,NA,NA,NA,NA,NA,NA
NA,NA,NA,NA,NA,choice_trial,survey-html-form,69,317023,0.0-4.0-1.32,119,1,2025-05-01T20:44:32Z,b60275e29fe2361ab97ac0ac217840d7,"Mozilla/5.0 (Macintosh; Intel Mac OS X 10_15_7) AppleWebKit/537.36 (KHTML, like Gecko) Chrome/133.0.0.0 Safari/537.36",Macintosh,Chrome,133.0.0.0,OS X,10_15_7,https://5puzkbbxv1.cognition.run/?sona_id=57211,"en-US,en;q=0.9",s0v4kakky0baby4,19,"[""Asian"",""White""]",No,Male,NA,No,460668.60000002384,NA,29880,NA,"{""product_choice"":""B""}",choice,tcd,trinary,repulsion_A,2,washing machines,null,null,null,null,null,null,1,30,40,20,100,90,100,Average lifespan,Energy savings,NA,NA
NA,NA,NA,NA,NA,choice_trial_setup,html-keyboard-response,70,317326,0.0-4.0-0.33,119,1,2025-05-01T20:44:32Z,b60275e29fe2361ab97ac0ac217840d7,"Mozilla/5.0 (Macintosh; Intel Mac OS X 10_15_7) AppleWebKit/537.36 (KHTML, like Gecko) Chrome/133.0.0.0 Safari/537.36",Macintosh,Chrome,133.0.0.0,OS X,10_15_7,https://5puzkbbxv1.cognition.run/?sona_id=57211,"en-US,en;q=0.9",s0v4kakky0baby4,19,"[""Asian"",""White""]",No,Male,NA,No,460668.60000002384,NA,null,<p></p>,null,choice,tdc,trinary,repulsion_B,1,washing machines,null,null,null,null,null,null,2,NA,NA,NA,NA,NA,NA,NA,NA,NA,NA
NA,NA,NA,NA,NA,choice_trial,survey-html-form,71,321497,0.0-4.0-1.33,119,1,2025-05-01T20:44:32Z,b60275e29fe2361ab97ac0ac217840d7,"Mozilla/5.0 (Macintosh; Intel Mac OS X 10_15_7) AppleWebKit/537.36 (KHTML, like Gecko) Chrome/133.0.0.0 Safari/537.36",Macintosh,Chrome,133.0.0.0,OS X,10_15_7,https://5puzkbbxv1.cognition.run/?sona_id=57211,"en-US,en;q=0.9",s0v4kakky0baby4,19,"[""Asian"",""White""]",No,Male,NA,No,460668.60000002384,NA,4165,NA,"{""product_choice"":""A""}",choice,tdc,trinary,repulsion_B,1,washing machines,null,null,null,null,null,null,2,90,100,80,40,30,40,Average lifespan,Energy savings,NA,NA
NA,NA,NA,NA,NA,choice_trial_setup,html-keyboard-response,72,321800,0.0-4.0-0.34,119,1,2025-05-01T20:44:32Z,b60275e29fe2361ab97ac0ac217840d7,"Mozilla/5.0 (Macintosh; Intel Mac OS X 10_15_7) AppleWebKit/537.36 (KHTML, like Gecko) Chrome/133.0.0.0 Safari/537.36",Macintosh,Chrome,133.0.0.0,OS X,10_15_7,https://5puzkbbxv1.cognition.run/?sona_id=57211,"en-US,en;q=0.9",s0v4kakky0baby4,19,"[""Asian"",""White""]",No,Male,NA,No,460668.60000002384,NA,null,<p></p>,null,choice,wb,binary,catch,null,televisions,95,50,20,15,null,null,1,NA,NA,NA,NA,NA,NA,NA,NA,NA,NA
NA,NA,NA,NA,NA,choice_trial,survey-html-form,73,324714,0.0-4.0-1.34,119,1,2025-05-01T20:44:32Z,b60275e29fe2361ab97ac0ac217840d7,"Mozilla/5.0 (Macintosh; Intel Mac OS X 10_15_7) AppleWebKit/537.36 (KHTML, like Gecko) Chrome/133.0.0.0 Safari/537.36",Macintosh,Chrome,133.0.0.0,OS X,10_15_7,https://5puzkbbxv1.cognition.run/?sona_id=57211,"en-US,en;q=0.9",s0v4kakky0baby4,19,"[""Asian"",""White""]",No,Male,NA,No,460668.60000002384,NA,2908,NA,"{""product_choice"":""B""}",choice,wb,binary,catch,null,televisions,95,50,20,15,null,null,1,null,null,null,null,null,null,Screen size,Average lifespan,NA,NA
NA,NA,NA,NA,NA,choice_trial_setup,html-keyboard-response,74,325017,0.0-4.0-0.35,119,1,2025-05-01T20:44:32Z,b60275e29fe2361ab97ac0ac217840d7,"Mozilla/5.0 (Macintosh; Intel Mac OS X 10_15_7) AppleWebKit/537.36 (KHTML, like Gecko) Chrome/133.0.0.0 Safari/537.36",Macintosh,Chrome,133.0.0.0,OS X,10_15_7,https://5puzkbbxv1.cognition.run/?sona_id=57211,"en-US,en;q=0.9",s0v4kakky0baby4,19,"[""Asian"",""White""]",No,Male,NA,No,460668.60000002384,NA,null,<p></p>,null,choice,dct,trinary,repulsion_A,2,microwave ovens,null,null,null,null,null,null,2,NA,NA,NA,NA,NA,NA,NA,NA,NA,NA
NA,NA,NA,NA,NA,choice_trial,survey-html-form,75,328419,0.0-4.0-1.35,119,1,2025-05-01T20:44:32Z,b60275e29fe2361ab97ac0ac217840d7,"Mozilla/5.0 (Macintosh; Intel Mac OS X 10_15_7) AppleWebKit/537.36 (KHTML, like Gecko) Chrome/133.0.0.0 Safari/537.36",Macintosh,Chrome,133.0.0.0,OS X,10_15_7,https://5puzkbbxv1.cognition.run/?sona_id=57211,"en-US,en;q=0.9",s0v4kakky0baby4,19,"[""Asian"",""White""]",No,Male,NA,No,460668.60000002384,NA,3397,NA,"{""product_choice"":""B""}",choice,dct,trinary,repulsion_A,2,microwave ovens,null,null,null,null,null,null,2,30,40,20,100,90,100,Warranty,Cooking power,NA,NA
NA,NA,NA,NA,NA,choice_trial_setup,html-keyboard-response,76,328722,0.0-4.0-0.36,119,1,2025-05-01T20:44:32Z,b60275e29fe2361ab97ac0ac217840d7,"Mozilla/5.0 (Macintosh; Intel Mac OS X 10_15_7) AppleWebKit/537.36 (KHTML, like Gecko) Chrome/133.0.0.0 Safari/537.36",Macintosh,Chrome,133.0.0.0,OS X,10_15_7,https://5puzkbbxv1.cognition.run/?sona_id=57211,"en-US,en;q=0.9",s0v4kakky0baby4,19,"[""Asian"",""White""]",No,Male,NA,No,460668.60000002384,NA,null,<p></p>,null,choice,tdc,trinary,repulsion_A,1,microwave ovens,null,null,null,null,null,null,1,NA,NA,NA,NA,NA,NA,NA,NA,NA,NA
NA,NA,NA,NA,NA,choice_trial,survey-html-form,77,340803,0.0-4.0-1.36,119,1,2025-05-01T20:44:32Z,b60275e29fe2361ab97ac0ac217840d7,"Mozilla/5.0 (Macintosh; Intel Mac OS X 10_15_7) AppleWebKit/537.36 (KHTML, like Gecko) Chrome/133.0.0.0 Safari/537.36",Macintosh,Chrome,133.0.0.0,OS X,10_15_7,https://5puzkbbxv1.cognition.run/?sona_id=57211,"en-US,en;q=0.9",s0v4kakky0baby4,19,"[""Asian"",""White""]",No,Male,NA,No,460668.60000002384,NA,12075,NA,"{""product_choice"":""C""}",choice,tdc,trinary,repulsion_A,1,microwave ovens,null,null,null,null,null,null,1,100,90,100,30,40,20,Warranty,Cooking power,NA,NA
NA,NA,NA,NA,NA,choice_trial_setup,html-keyboard-response,78,341107,0.0-4.0-0.37,119,1,2025-05-01T20:44:32Z,b60275e29fe2361ab97ac0ac217840d7,"Mozilla/5.0 (Macintosh; Intel Mac OS X 10_15_7) AppleWebKit/537.36 (KHTML, like Gecko) Chrome/133.0.0.0 Safari/537.36",Macintosh,Chrome,133.0.0.0,OS X,10_15_7,https://5puzkbbxv1.cognition.run/?sona_id=57211,"en-US,en;q=0.9",s0v4kakky0baby4,19,"[""Asian"",""White""]",No,Male,NA,No,460668.60000002384,NA,null,<p></p>,null,choice,cdt,trinary,repulsion_B,1,microwave ovens,null,null,null,null,null,null,2,NA,NA,NA,NA,NA,NA,NA,NA,NA,NA
NA,NA,NA,NA,NA,choice_trial,survey-html-form,79,344510,0.0-4.0-1.37,119,1,2025-05-01T20:44:32Z,b60275e29fe2361ab97ac0ac217840d7,"Mozilla/5.0 (Macintosh; Intel Mac OS X 10_15_7) AppleWebKit/537.36 (KHTML, like Gecko) Chrome/133.0.0.0 Safari/537.36",Macintosh,Chrome,133.0.0.0,OS X,10_15_7,https://5puzkbbxv1.cognition.run/?sona_id=57211,"en-US,en;q=0.9",s0v4kakky0baby4,19,"[""Asian"",""White""]",No,Male,NA,No,460668.60000002384,NA,3397,NA,"{""product_choice"":""C""}",choice,cdt,trinary,repulsion_B,1,microwave ovens,null,null,null,null,null,null,2,90,100,80,40,30,40,Warranty,Cooking power,NA,NA
NA,NA,NA,NA,NA,choice_trial_setup,html-keyboard-response,80,344814,0.0-4.0-0.38,119,1,2025-05-01T20:44:32Z,b60275e29fe2361ab97ac0ac217840d7,"Mozilla/5.0 (Macintosh; Intel Mac OS X 10_15_7) AppleWebKit/537.36 (KHTML, like Gecko) Chrome/133.0.0.0 Safari/537.36",Macintosh,Chrome,133.0.0.0,OS X,10_15_7,https://5puzkbbxv1.cognition.run/?sona_id=57211,"en-US,en;q=0.9",s0v4kakky0baby4,19,"[""Asian"",""White""]",No,Male,NA,No,460668.60000002384,NA,null,<p></p>,null,choice,ctd,trinary,repulsion_B,1,laptops,null,null,null,null,null,null,1,NA,NA,NA,NA,NA,NA,NA,NA,NA,NA
NA,NA,NA,NA,NA,choice_trial,survey-html-form,81,349523,0.0-4.0-1.38,119,1,2025-05-01T20:44:32Z,b60275e29fe2361ab97ac0ac217840d7,"Mozilla/5.0 (Macintosh; Intel Mac OS X 10_15_7) AppleWebKit/537.36 (KHTML, like Gecko) Chrome/133.0.0.0 Safari/537.36",Macintosh,Chrome,133.0.0.0,OS X,10_15_7,https://5puzkbbxv1.cognition.run/?sona_id=57211,"en-US,en;q=0.9",s0v4kakky0baby4,19,"[""Asian"",""White""]",No,Male,NA,No,460668.60000002384,NA,4703,NA,"{""product_choice"":""B""}",choice,ctd,trinary,repulsion_B,1,laptops,null,null,null,null,null,null,1,90,100,80,40,30,40,Processing speed,Memory (RAM),NA,NA
NA,NA,NA,NA,NA,choice_trial_setup,html-keyboard-response,82,349825,0.0-4.0-0.39,119,1,2025-05-01T20:44:32Z,b60275e29fe2361ab97ac0ac217840d7,"Mozilla/5.0 (Macintosh; Intel Mac OS X 10_15_7) AppleWebKit/537.36 (KHTML, like Gecko) Chrome/133.0.0.0 Safari/537.36",Macintosh,Chrome,133.0.0.0,OS X,10_15_7,https://5puzkbbxv1.cognition.run/?sona_id=57211,"en-US,en;q=0.9",s0v4kakky0baby4,19,"[""Asian"",""White""]",No,Male,NA,No,460668.60000002384,NA,null,<p></p>,null,choice,ct,binary,attraction,NA,televisions,null,null,null,null,null,null,2,NA,NA,NA,NA,NA,NA,NA,NA,NA,NA
NA,NA,NA,NA,NA,choice_trial,survey-html-form,83,352805,0.0-4.0-1.39,119,1,2025-05-01T20:44:32Z,b60275e29fe2361ab97ac0ac217840d7,"Mozilla/5.0 (Macintosh; Intel Mac OS X 10_15_7) AppleWebKit/537.36 (KHTML, like Gecko) Chrome/133.0.0.0 Safari/537.36",Macintosh,Chrome,133.0.0.0,OS X,10_15_7,https://5puzkbbxv1.cognition.run/?sona_id=57211,"en-US,en;q=0.9",s0v4kakky0baby4,19,"[""Asian"",""White""]",No,Male,NA,No,460668.60000002384,NA,2975,NA,"{""product_choice"":""B""}",choice,ct,binary,attraction,NA,televisions,null,null,null,null,null,null,2,60,50,null,50,60,null,Screen size,Average lifespan,NA,NA
NA,NA,NA,NA,NA,choice_trial_setup,html-keyboard-response,84,353109,0.0-4.0-0.40,119,1,2025-05-01T20:44:32Z,b60275e29fe2361ab97ac0ac217840d7,"Mozilla/5.0 (Macintosh; Intel Mac OS X 10_15_7) AppleWebKit/537.36 (KHTML, like Gecko) Chrome/133.0.0.0 Safari/537.36",Macintosh,Chrome,133.0.0.0,OS X,10_15_7,https://5puzkbbxv1.cognition.run/?sona_id=57211,"en-US,en;q=0.9",s0v4kakky0baby4,19,"[""Asian"",""White""]",No,Male,NA,No,460668.60000002384,NA,null,<p></p>,null,choice,dct,trinary,repulsion_A,1,washing machines,null,null,null,null,null,null,1,NA,NA,NA,NA,NA,NA,NA,NA,NA,NA
NA,NA,NA,NA,NA,choice_trial,survey-html-form,85,357051,0.0-4.0-1.40,119,1,2025-05-01T20:44:32Z,b60275e29fe2361ab97ac0ac217840d7,"Mozilla/5.0 (Macintosh; Intel Mac OS X 10_15_7) AppleWebKit/537.36 (KHTML, like Gecko) Chrome/133.0.0.0 Safari/537.36",Macintosh,Chrome,133.0.0.0,OS X,10_15_7,https://5puzkbbxv1.cognition.run/?sona_id=57211,"en-US,en;q=0.9",s0v4kakky0baby4,19,"[""Asian"",""White""]",No,Male,NA,No,460668.60000002384,NA,3934,NA,"{""product_choice"":""B""}",choice,dct,trinary,repulsion_A,1,washing machines,null,null,null,null,null,null,1,100,90,100,30,40,20,Average lifespan,Energy savings,NA,NA
NA,NA,NA,NA,NA,choice_trial_setup,html-keyboard-response,86,357353,0.0-4.0-0.41,119,1,2025-05-01T20:44:32Z,b60275e29fe2361ab97ac0ac217840d7,"Mozilla/5.0 (Macintosh; Intel Mac OS X 10_15_7) AppleWebKit/537.36 (KHTML, like Gecko) Chrome/133.0.0.0 Safari/537.36",Macintosh,Chrome,133.0.0.0,OS X,10_15_7,https://5puzkbbxv1.cognition.run/?sona_id=57211,"en-US,en;q=0.9",s0v4kakky0baby4,19,"[""Asian"",""White""]",No,Male,NA,No,460668.60000002384,NA,null,<p></p>,null,choice,ct,binary,repulsion,1,televisions,null,null,null,null,null,null,2,NA,NA,NA,NA,NA,NA,NA,NA,NA,NA
NA,NA,NA,NA,NA,choice_trial,survey-html-form,87,372947,0.0-4.0-1.41,119,1,2025-05-01T20:44:32Z,b60275e29fe2361ab97ac0ac217840d7,"Mozilla/5.0 (Macintosh; Intel Mac OS X 10_15_7) AppleWebKit/537.36 (KHTML, like Gecko) Chrome/133.0.0.0 Safari/537.36",Macintosh,Chrome,133.0.0.0,OS X,10_15_7,https://5puzkbbxv1.cognition.run/?sona_id=57211,"en-US,en;q=0.9",s0v4kakky0baby4,19,"[""Asian"",""White""]",No,Male,NA,No,460668.60000002384,NA,15588,NA,"{""product_choice"":""A""}",choice,ct,binary,repulsion,1,televisions,null,null,null,null,null,null,2,100,90,null,30,40,null,Screen size,Average lifespan,NA,NA
NA,NA,NA,NA,NA,choice_trial_setup,html-keyboard-response,88,373251,0.0-4.0-0.42,119,1,2025-05-01T20:44:32Z,b60275e29fe2361ab97ac0ac217840d7,"Mozilla/5.0 (Macintosh; Intel Mac OS X 10_15_7) AppleWebKit/537.36 (KHTML, like Gecko) Chrome/133.0.0.0 Safari/537.36",Macintosh,Chrome,133.0.0.0,OS X,10_15_7,https://5puzkbbxv1.cognition.run/?sona_id=57211,"en-US,en;q=0.9",s0v4kakky0baby4,19,"[""Asian"",""White""]",No,Male,NA,No,460668.60000002384,NA,null,<p></p>,null,choice,tc,binary,attraction,NA,laptops,null,null,null,null,null,null,1,NA,NA,NA,NA,NA,NA,NA,NA,NA,NA
NA,NA,NA,NA,NA,choice_trial,survey-html-form,89,381164,0.0-4.0-1.42,119,1,2025-05-01T20:44:32Z,b60275e29fe2361ab97ac0ac217840d7,"Mozilla/5.0 (Macintosh; Intel Mac OS X 10_15_7) AppleWebKit/537.36 (KHTML, like Gecko) Chrome/133.0.0.0 Safari/537.36",Macintosh,Chrome,133.0.0.0,OS X,10_15_7,https://5puzkbbxv1.cognition.run/?sona_id=57211,"en-US,en;q=0.9",s0v4kakky0baby4,19,"[""Asian"",""White""]",No,Male,NA,No,460668.60000002384,NA,7907,NA,"{""product_choice"":""B""}",choice,tc,binary,attraction,NA,laptops,null,null,null,null,null,null,1,60,50,null,50,60,null,Processing speed,Memory (RAM),NA,NA
NA,NA,NA,NA,NA,choice_trial_setup,html-keyboard-response,90,381467,0.0-4.0-0.43,119,1,2025-05-01T20:44:32Z,b60275e29fe2361ab97ac0ac217840d7,"Mozilla/5.0 (Macintosh; Intel Mac OS X 10_15_7) AppleWebKit/537.36 (KHTML, like Gecko) Chrome/133.0.0.0 Safari/537.36",Macintosh,Chrome,133.0.0.0,OS X,10_15_7,https://5puzkbbxv1.cognition.run/?sona_id=57211,"en-US,en;q=0.9",s0v4kakky0baby4,19,"[""Asian"",""White""]",No,Male,NA,No,460668.60000002384,NA,null,<p></p>,null,choice,tcd,trinary,attraction,1,televisions,null,null,null,null,null,null,2,NA,NA,NA,NA,NA,NA,NA,NA,NA,NA
NA,NA,NA,NA,NA,choice_trial,survey-html-form,91,385176,0.0-4.0-1.43,119,1,2025-05-01T20:44:32Z,b60275e29fe2361ab97ac0ac217840d7,"Mozilla/5.0 (Macintosh; Intel Mac OS X 10_15_7) AppleWebKit/537.36 (KHTML, like Gecko) Chrome/133.0.0.0 Safari/537.36",Macintosh,Chrome,133.0.0.0,OS X,10_15_7,https://5puzkbbxv1.cognition.run/?sona_id=57211,"en-US,en;q=0.9",s0v4kakky0baby4,19,"[""Asian"",""White""]",No,Male,NA,No,460668.60000002384,NA,3704,NA,"{""product_choice"":""A""}",choice,tcd,trinary,attraction,1,televisions,null,null,null,null,null,null,2,60,50,60,50,60,40,Screen size,Average lifespan,NA,NA
NA,NA,NA,NA,NA,post_trials_message,html-button-response,92,386251,0.0-5.0,119,1,2025-05-01T20:44:32Z,b60275e29fe2361ab97ac0ac217840d7,"Mozilla/5.0 (Macintosh; Intel Mac OS X 10_15_7) AppleWebKit/537.36 (KHTML, like Gecko) Chrome/133.0.0.0 Safari/537.36",Macintosh,Chrome,133.0.0.0,OS X,10_15_7,https://5puzkbbxv1.cognition.run/?sona_id=57211,"en-US,en;q=0.9",s0v4kakky0baby4,19,"[""Asian"",""White""]",No,Male,NA,No,460668.60000002384,NA,1072,<p> <b>Thank you for your patience!</b></p><p>  The study will be done after completing a brief form. </p>,0,NA,NA,NA,NA,NA,NA,NA,NA,NA,NA,NA,NA,NA,NA,NA,NA,NA,NA,NA,NA,NA,NA,NA
NA,NA,NA,NA,NA,survey_message,survey-text,93,424098,0.0-6.0,119,1,2025-05-01T20:44:32Z,b60275e29fe2361ab97ac0ac217840d7,"Mozilla/5.0 (Macintosh; Intel Mac OS X 10_15_7) AppleWebKit/537.36 (KHTML, like Gecko) Chrome/133.0.0.0 Safari/537.36",Macintosh,Chrome,133.0.0.0,OS X,10_15_7,https://5puzkbbxv1.cognition.run/?sona_id=57211,"en-US,en;q=0.9",s0v4kakky0baby4,19,"[""Asian"",""White""]",No,Male,NA,No,460668.60000002384,NA,37843,NA,"{""Q0"":""The way I thought about it was instead of getting the absolute best in one category it is better to have second best in one category if it means another category will be slightly better.""}",NA,NA,NA,NA,NA,NA,NA,NA,NA,NA,NA,NA,NA,NA,NA,NA,NA,NA,NA,NA,NA,The way I thought about it was instead of getting the absolute best in one category it is better to have second best in one category if it means another category will be slightly better.,NA
NA,NA,NA,NA,NA,demo_age,survey-text,94,426144,0.0-7.0,119,1,2025-05-01T20:44:32Z,b60275e29fe2361ab97ac0ac217840d7,"Mozilla/5.0 (Macintosh; Intel Mac OS X 10_15_7) AppleWebKit/537.36 (KHTML, like Gecko) Chrome/133.0.0.0 Safari/537.36",Macintosh,Chrome,133.0.0.0,OS X,10_15_7,https://5puzkbbxv1.cognition.run/?sona_id=57211,"en-US,en;q=0.9",s0v4kakky0baby4,19,"[""Asian"",""White""]",No,Male,NA,No,460668.60000002384,NA,2044,NA,"{""Q0"":""19""}",NA,NA,NA,NA,NA,NA,NA,NA,NA,NA,NA,NA,NA,NA,NA,NA,NA,NA,NA,NA,NA,NA,NA
NA,NA,NA,NA,NA,demo_race,survey-multi-select,95,430718,0.0-8.0,119,1,2025-05-01T20:44:32Z,b60275e29fe2361ab97ac0ac217840d7,"Mozilla/5.0 (Macintosh; Intel Mac OS X 10_15_7) AppleWebKit/537.36 (KHTML, like Gecko) Chrome/133.0.0.0 Safari/537.36",Macintosh,Chrome,133.0.0.0,OS X,10_15_7,https://5puzkbbxv1.cognition.run/?sona_id=57211,"en-US,en;q=0.9",s0v4kakky0baby4,19,"[""Asian"",""White""]",No,Male,NA,No,460668.60000002384,NA,4569,NA,"{""Q0"":[""Asian"",""White""]}",NA,NA,NA,NA,NA,NA,NA,NA,NA,NA,NA,NA,NA,NA,NA,NA,NA,NA,NA,NA,NA,NA,[0]
NA,NA,NA,NA,NA,demo_ethnicity_gender,survey-multi-choice,96,434638,0.0-9.0,119,1,2025-05-01T20:44:32Z,b60275e29fe2361ab97ac0ac217840d7,"Mozilla/5.0 (Macintosh; Intel Mac OS X 10_15_7) AppleWebKit/537.36 (KHTML, like Gecko) Chrome/133.0.0.0 Safari/537.36",Macintosh,Chrome,133.0.0.0,OS X,10_15_7,https://5puzkbbxv1.cognition.run/?sona_id=57211,"en-US,en;q=0.9",s0v4kakky0baby4,19,"[""Asian"",""White""]",No,Male,NA,No,460668.60000002384,NA,3918,NA,"{""Q0"":""No"",""Q1"":""Male""}",NA,NA,NA,NA,NA,NA,NA,NA,NA,NA,NA,NA,NA,NA,NA,NA,NA,NA,NA,NA,NA,NA,"[0,1]"
NA,NA,NA,NA,NA,demo_countries,survey-text,97,442260,0.0-10.0,119,1,2025-05-01T20:44:32Z,b60275e29fe2361ab97ac0ac217840d7,"Mozilla/5.0 (Macintosh; Intel Mac OS X 10_15_7) AppleWebKit/537.36 (KHTML, like Gecko) Chrome/133.0.0.0 Safari/537.36",Macintosh,Chrome,133.0.0.0,OS X,10_15_7,https://5puzkbbxv1.cognition.run/?sona_id=57211,"en-US,en;q=0.9",s0v4kakky0baby4,19,"[""Asian"",""White""]",No,Male,NA,No,460668.60000002384,NA,7616,NA,"{""Q0"":""NA""}",NA,NA,NA,NA,NA,NA,NA,NA,NA,NA,NA,NA,NA,NA,NA,NA,NA,NA,NA,NA,NA,NA,NA
NA,NA,NA,NA,NA,demo_prev_study,survey-multi-choice,98,448735,0.0-11.0,119,1,2025-05-01T20:44:32Z,b60275e29fe2361ab97ac0ac217840d7,"Mozilla/5.0 (Macintosh; Intel Mac OS X 10_15_7) AppleWebKit/537.36 (KHTML, like Gecko) Chrome/133.0.0.0 Safari/537.36",Macintosh,Chrome,133.0.0.0,OS X,10_15_7,https://5puzkbbxv1.cognition.run/?sona_id=57211,"en-US,en;q=0.9",s0v4kakky0baby4,19,"[""Asian"",""White""]",No,Male,NA,No,460668.60000002384,NA,6472,NA,"{""Q0"":""No""}",NA,NA,NA,NA,NA,NA,NA,NA,NA,NA,NA,NA,NA,NA,NA,NA,NA,NA,NA,NA,NA,NA,[0]
NA,NA,NA,NA,NA,post_survey_message,html-keyboard-response,99,455670,0.0-12.0,119,1,2025-05-01T20:44:32Z,b60275e29fe2361ab97ac0ac217840d7,"Mozilla/5.0 (Macintosh; Intel Mac OS X 10_15_7) AppleWebKit/537.36 (KHTML, like Gecko) Chrome/133.0.0.0 Safari/537.36",Macintosh,Chrome,133.0.0.0,OS X,10_15_7,https://5puzkbbxv1.cognition.run/?sona_id=57211,"en-US,en;q=0.9",s0v4kakky0baby4,19,"[""Asian"",""White""]",No,Male,NA,No,460668.60000002384,NA,6931,NA,j,NA,NA,NA,NA,NA,NA,NA,NA,NA,NA,NA,NA,NA,NA,NA,NA,NA,NA,NA,NA,NA,NA,NA
NA,NA,NA,NA,NA,debrief,image-keyboard-response,100,460666,0.0-13.0,119,1,2025-05-01T20:44:32Z,b60275e29fe2361ab97ac0ac217840d7,"Mozilla/5.0 (Macintosh; Intel Mac OS X 10_15_7) AppleWebKit/537.36 (KHTML, like Gecko) Chrome/133.0.0.0 Safari/537.36",Macintosh,Chrome,133.0.0.0,OS X,10_15_7,https://5puzkbbxv1.cognition.run/?sona_id=57211,"en-US,en;q=0.9",s0v4kakky0baby4,19,"[""Asian"",""White""]",No,Male,NA,No,460668.60000002384,NA,4990,Judg_choice_debrief.png,p,NA,NA,NA,NA,NA,NA,NA,NA,NA,NA,NA,NA,NA,NA,NA,NA,NA,NA,NA,NA,NA,NA,NA
