success,timeout,failed_images,failed_audio,failed_video,screen_id,trial_type,trial_index,time_elapsed,internal_node_id,run_id,condition,recorded_at,source_code_version,user_agent,device,browser,browser_version,platform,platform_version,referer,accept_language,ppt_id,view_history,rt,stimulus,response,phase,order,set,effect,t_high,category,d1_best,d2_best,d1_worst1,d2_worst1,d1_worst2,d2_worst2,first_dim,d1_t,d1_c,d1_d,d2_t,d2_c,d2_d,d1_name,d2_name
TRUE,FALSE,[],[],[],img preload,preload,0,168,0.0-0.0,120,1,2025-05-01T21:03:13Z,b60275e29fe2361ab97ac0ac217840d7,"Mozilla/5.0 (Macintosh; Intel Mac OS X 10_15_7) AppleWebKit/605.1.15 (KHTML, like Gecko) Version/18.4 Safari/605.1.15",Macintosh,Safari,18.4,OS X,10_15_7,https://5puzkbbxv1.cognition.run/?sona_id=52864,"en-US,en;q=0.9",psmkluzw5m3wlqh,NA,NA,NA,NA,NA,NA,NA,NA,NA,NA,NA,NA,NA,NA,NA,NA,NA,NA,NA,NA,NA,NA,NA,NA,NA
NA,NA,NA,NA,NA,computer_message,instructions,1,1662,0.0-1.0,120,1,2025-05-01T21:03:13Z,b60275e29fe2361ab97ac0ac217840d7,"Mozilla/5.0 (Macintosh; Intel Mac OS X 10_15_7) AppleWebKit/605.1.15 (KHTML, like Gecko) Version/18.4 Safari/605.1.15",Macintosh,Safari,18.4,OS X,10_15_7,https://5puzkbbxv1.cognition.run/?sona_id=52864,"en-US,en;q=0.9",psmkluzw5m3wlqh,"[{""page_index"":0,""viewing_time"":1493}]",1493,NA,NA,NA,NA,NA,NA,NA,NA,NA,NA,NA,NA,NA,NA,NA,NA,NA,NA,NA,NA,NA,NA,NA
TRUE,NA,NA,NA,NA,NA,fullscreen,2,3731,0.0-2.0,120,1,2025-05-01T21:03:13Z,b60275e29fe2361ab97ac0ac217840d7,"Mozilla/5.0 (Macintosh; Intel Mac OS X 10_15_7) AppleWebKit/605.1.15 (KHTML, like Gecko) Version/18.4 Safari/605.1.15",Macintosh,Safari,18.4,OS X,10_15_7,https://5puzkbbxv1.cognition.run/?sona_id=52864,"en-US,en;q=0.9",psmkluzw5m3wlqh,NA,1066,NA,NA,NA,NA,NA,NA,NA,NA,NA,NA,NA,NA,NA,NA,NA,NA,NA,NA,NA,NA,NA,NA,NA
NA,NA,NA,NA,NA,choice_instructions,instructions,3,81322,0.0-3.0,120,1,2025-05-01T21:03:13Z,b60275e29fe2361ab97ac0ac217840d7,"Mozilla/5.0 (Macintosh; Intel Mac OS X 10_15_7) AppleWebKit/605.1.15 (KHTML, like Gecko) Version/18.4 Safari/605.1.15",Macintosh,Safari,18.4,OS X,10_15_7,https://5puzkbbxv1.cognition.run/?sona_id=52864,"en-US,en;q=0.9",psmkluzw5m3wlqh,"[{""page_index"":0,""viewing_time"":1494},{""page_index"":1,""viewing_time"":5740},{""page_index"":2,""viewing_time"":4567},{""page_index"":3,""viewing_time"":2952},{""page_index"":2,""viewing_time"":6907},{""page_index"":3,""viewing_time"":5552},{""page_index"":4,""viewing_time"":3653},{""page_index"":5,""viewing_time"":36934},{""page_index"":6,""viewing_time"":9791}]",77591,NA,NA,NA,NA,NA,NA,NA,NA,NA,NA,NA,NA,NA,NA,NA,NA,NA,NA,NA,NA,NA,NA,NA
NA,NA,NA,NA,NA,choice_trial_setup,html-keyboard-response,4,81626,0.0-4.0-0.0,120,1,2025-05-01T21:03:13Z,b60275e29fe2361ab97ac0ac217840d7,"Mozilla/5.0 (Macintosh; Intel Mac OS X 10_15_7) AppleWebKit/605.1.15 (KHTML, like Gecko) Version/18.4 Safari/605.1.15",Macintosh,Safari,18.4,OS X,10_15_7,https://5puzkbbxv1.cognition.run/?sona_id=52864,"en-US,en;q=0.9",psmkluzw5m3wlqh,NA,null,<p></p>,null,choice,tc,binary,attraction,NA,washing machines,null,null,null,null,null,null,1,NA,NA,NA,NA,NA,NA,NA,NA
NA,NA,NA,NA,NA,choice_trial,survey-html-form,5,90935,0.0-4.0-1.0,120,1,2025-05-01T21:03:13Z,b60275e29fe2361ab97ac0ac217840d7,"Mozilla/5.0 (Macintosh; Intel Mac OS X 10_15_7) AppleWebKit/605.1.15 (KHTML, like Gecko) Version/18.4 Safari/605.1.15",Macintosh,Safari,18.4,OS X,10_15_7,https://5puzkbbxv1.cognition.run/?sona_id=52864,"en-US,en;q=0.9",psmkluzw5m3wlqh,NA,9301,NA,"{""product_choice"":""B""}",choice,tc,binary,attraction,NA,washing machines,null,null,null,null,null,null,1,60,50,null,50,60,null,Average lifespan,Energy savings
NA,NA,NA,NA,NA,choice_trial_setup,html-keyboard-response,6,91237,0.0-4.0-0.1,120,1,2025-05-01T21:03:13Z,b60275e29fe2361ab97ac0ac217840d7,"Mozilla/5.0 (Macintosh; Intel Mac OS X 10_15_7) AppleWebKit/605.1.15 (KHTML, like Gecko) Version/18.4 Safari/605.1.15",Macintosh,Safari,18.4,OS X,10_15_7,https://5puzkbbxv1.cognition.run/?sona_id=52864,"en-US,en;q=0.9",psmkluzw5m3wlqh,NA,null,<p></p>,null,choice,tc,binary,repulsion,1,microwave ovens,null,null,null,null,null,null,1,NA,NA,NA,NA,NA,NA,NA,NA
NA,NA,NA,NA,NA,choice_trial,survey-html-form,7,98388,0.0-4.0-1.1,120,1,2025-05-01T21:03:13Z,b60275e29fe2361ab97ac0ac217840d7,"Mozilla/5.0 (Macintosh; Intel Mac OS X 10_15_7) AppleWebKit/605.1.15 (KHTML, like Gecko) Version/18.4 Safari/605.1.15",Macintosh,Safari,18.4,OS X,10_15_7,https://5puzkbbxv1.cognition.run/?sona_id=52864,"en-US,en;q=0.9",psmkluzw5m3wlqh,NA,7146,NA,"{""product_choice"":""A""}",choice,tc,binary,repulsion,1,microwave ovens,null,null,null,null,null,null,1,100,90,null,30,40,null,Warranty,Cooking power
NA,NA,NA,NA,NA,choice_trial_setup,html-keyboard-response,8,98691,0.0-4.0-0.2,120,1,2025-05-01T21:03:13Z,b60275e29fe2361ab97ac0ac217840d7,"Mozilla/5.0 (Macintosh; Intel Mac OS X 10_15_7) AppleWebKit/605.1.15 (KHTML, like Gecko) Version/18.4 Safari/605.1.15",Macintosh,Safari,18.4,OS X,10_15_7,https://5puzkbbxv1.cognition.run/?sona_id=52864,"en-US,en;q=0.9",psmkluzw5m3wlqh,NA,null,<p></p>,null,choice,ctd,trinary,repulsion_B,1,washing machines,null,null,null,null,null,null,1,NA,NA,NA,NA,NA,NA,NA,NA
NA,NA,NA,NA,NA,choice_trial,survey-html-form,9,106205,0.0-4.0-1.2,120,1,2025-05-01T21:03:13Z,b60275e29fe2361ab97ac0ac217840d7,"Mozilla/5.0 (Macintosh; Intel Mac OS X 10_15_7) AppleWebKit/605.1.15 (KHTML, like Gecko) Version/18.4 Safari/605.1.15",Macintosh,Safari,18.4,OS X,10_15_7,https://5puzkbbxv1.cognition.run/?sona_id=52864,"en-US,en;q=0.9",psmkluzw5m3wlqh,NA,7510,NA,"{""product_choice"":""B""}",choice,ctd,trinary,repulsion_B,1,washing machines,null,null,null,null,null,null,1,90,100,80,40,30,40,Average lifespan,Energy savings
NA,NA,NA,NA,NA,choice_trial_setup,html-keyboard-response,10,106507,0.0-4.0-0.3,120,1,2025-05-01T21:03:13Z,b60275e29fe2361ab97ac0ac217840d7,"Mozilla/5.0 (Macintosh; Intel Mac OS X 10_15_7) AppleWebKit/605.1.15 (KHTML, like Gecko) Version/18.4 Safari/605.1.15",Macintosh,Safari,18.4,OS X,10_15_7,https://5puzkbbxv1.cognition.run/?sona_id=52864,"en-US,en;q=0.9",psmkluzw5m3wlqh,NA,null,<p></p>,null,choice,dtc,trinary,repulsion_B,2,laptops,null,null,null,null,null,null,2,NA,NA,NA,NA,NA,NA,NA,NA
NA,NA,NA,NA,NA,choice_trial,survey-html-form,11,113593,0.0-4.0-1.3,120,1,2025-05-01T21:03:13Z,b60275e29fe2361ab97ac0ac217840d7,"Mozilla/5.0 (Macintosh; Intel Mac OS X 10_15_7) AppleWebKit/605.1.15 (KHTML, like Gecko) Version/18.4 Safari/605.1.15",Macintosh,Safari,18.4,OS X,10_15_7,https://5puzkbbxv1.cognition.run/?sona_id=52864,"en-US,en;q=0.9",psmkluzw5m3wlqh,NA,7083,NA,"{""product_choice"":""B""}",choice,dtc,trinary,repulsion_B,2,laptops,null,null,null,null,null,null,2,40,30,40,90,100,80,Processing speed,Memory (RAM)
NA,NA,NA,NA,NA,choice_trial_setup,html-keyboard-response,12,113895,0.0-4.0-0.4,120,1,2025-05-01T21:03:13Z,b60275e29fe2361ab97ac0ac217840d7,"Mozilla/5.0 (Macintosh; Intel Mac OS X 10_15_7) AppleWebKit/605.1.15 (KHTML, like Gecko) Version/18.4 Safari/605.1.15",Macintosh,Safari,18.4,OS X,10_15_7,https://5puzkbbxv1.cognition.run/?sona_id=52864,"en-US,en;q=0.9",psmkluzw5m3wlqh,NA,null,<p></p>,null,choice,dct,trinary,repulsion_B,2,microwave ovens,null,null,null,null,null,null,2,NA,NA,NA,NA,NA,NA,NA,NA
NA,NA,NA,NA,NA,choice_trial,survey-html-form,13,129267,0.0-4.0-1.4,120,1,2025-05-01T21:03:13Z,b60275e29fe2361ab97ac0ac217840d7,"Mozilla/5.0 (Macintosh; Intel Mac OS X 10_15_7) AppleWebKit/605.1.15 (KHTML, like Gecko) Version/18.4 Safari/605.1.15",Macintosh,Safari,18.4,OS X,10_15_7,https://5puzkbbxv1.cognition.run/?sona_id=52864,"en-US,en;q=0.9",psmkluzw5m3wlqh,NA,15368,NA,"{""product_choice"":""C""}",choice,dct,trinary,repulsion_B,2,microwave ovens,null,null,null,null,null,null,2,40,30,40,90,100,80,Warranty,Cooking power
NA,NA,NA,NA,NA,choice_trial_setup,html-keyboard-response,14,129570,0.0-4.0-0.5,120,1,2025-05-01T21:03:13Z,b60275e29fe2361ab97ac0ac217840d7,"Mozilla/5.0 (Macintosh; Intel Mac OS X 10_15_7) AppleWebKit/605.1.15 (KHTML, like Gecko) Version/18.4 Safari/605.1.15",Macintosh,Safari,18.4,OS X,10_15_7,https://5puzkbbxv1.cognition.run/?sona_id=52864,"en-US,en;q=0.9",psmkluzw5m3wlqh,NA,null,<p></p>,null,choice,bww,trinary,catch,null,microwave ovens,60,80,20,45,10,10,1,NA,NA,NA,NA,NA,NA,NA,NA
NA,NA,NA,NA,NA,choice_trial,survey-html-form,15,134101,0.0-4.0-1.5,120,1,2025-05-01T21:03:13Z,b60275e29fe2361ab97ac0ac217840d7,"Mozilla/5.0 (Macintosh; Intel Mac OS X 10_15_7) AppleWebKit/605.1.15 (KHTML, like Gecko) Version/18.4 Safari/605.1.15",Macintosh,Safari,18.4,OS X,10_15_7,https://5puzkbbxv1.cognition.run/?sona_id=52864,"en-US,en;q=0.9",psmkluzw5m3wlqh,NA,4527,NA,"{""product_choice"":""A""}",choice,bww,trinary,catch,null,microwave ovens,60,80,20,45,10,10,1,null,null,null,null,null,null,Warranty,Cooking power
NA,NA,NA,NA,NA,choice_trial_setup,html-keyboard-response,16,134402,0.0-4.0-0.6,120,1,2025-05-01T21:03:13Z,b60275e29fe2361ab97ac0ac217840d7,"Mozilla/5.0 (Macintosh; Intel Mac OS X 10_15_7) AppleWebKit/605.1.15 (KHTML, like Gecko) Version/18.4 Safari/605.1.15",Macintosh,Safari,18.4,OS X,10_15_7,https://5puzkbbxv1.cognition.run/?sona_id=52864,"en-US,en;q=0.9",psmkluzw5m3wlqh,NA,null,<p></p>,null,choice,bww,trinary,catch,null,washing machines,70,55,10,5,30,15,1,NA,NA,NA,NA,NA,NA,NA,NA
NA,NA,NA,NA,NA,choice_trial,survey-html-form,17,141910,0.0-4.0-1.6,120,1,2025-05-01T21:03:13Z,b60275e29fe2361ab97ac0ac217840d7,"Mozilla/5.0 (Macintosh; Intel Mac OS X 10_15_7) AppleWebKit/605.1.15 (KHTML, like Gecko) Version/18.4 Safari/605.1.15",Macintosh,Safari,18.4,OS X,10_15_7,https://5puzkbbxv1.cognition.run/?sona_id=52864,"en-US,en;q=0.9",psmkluzw5m3wlqh,NA,7505,NA,"{""product_choice"":""A""}",choice,bww,trinary,catch,null,washing machines,70,55,10,5,30,15,1,null,null,null,null,null,null,Average lifespan,Energy savings
NA,NA,NA,NA,NA,choice_trial_setup,html-keyboard-response,18,142213,0.0-4.0-0.7,120,1,2025-05-01T21:03:13Z,b60275e29fe2361ab97ac0ac217840d7,"Mozilla/5.0 (Macintosh; Intel Mac OS X 10_15_7) AppleWebKit/605.1.15 (KHTML, like Gecko) Version/18.4 Safari/605.1.15",Macintosh,Safari,18.4,OS X,10_15_7,https://5puzkbbxv1.cognition.run/?sona_id=52864,"en-US,en;q=0.9",psmkluzw5m3wlqh,NA,null,<p></p>,null,choice,cdt,trinary,repulsion_B,1,televisions,null,null,null,null,null,null,1,NA,NA,NA,NA,NA,NA,NA,NA
NA,NA,NA,NA,NA,choice_trial,survey-html-form,19,148358,0.0-4.0-1.7,120,1,2025-05-01T21:03:13Z,b60275e29fe2361ab97ac0ac217840d7,"Mozilla/5.0 (Macintosh; Intel Mac OS X 10_15_7) AppleWebKit/605.1.15 (KHTML, like Gecko) Version/18.4 Safari/605.1.15",Macintosh,Safari,18.4,OS X,10_15_7,https://5puzkbbxv1.cognition.run/?sona_id=52864,"en-US,en;q=0.9",psmkluzw5m3wlqh,NA,6142,NA,"{""product_choice"":""C""}",choice,cdt,trinary,repulsion_B,1,televisions,null,null,null,null,null,null,1,90,100,80,40,30,40,Screen size,Average lifespan
NA,NA,NA,NA,NA,choice_trial_setup,html-keyboard-response,20,148660,0.0-4.0-0.8,120,1,2025-05-01T21:03:13Z,b60275e29fe2361ab97ac0ac217840d7,"Mozilla/5.0 (Macintosh; Intel Mac OS X 10_15_7) AppleWebKit/605.1.15 (KHTML, like Gecko) Version/18.4 Safari/605.1.15",Macintosh,Safari,18.4,OS X,10_15_7,https://5puzkbbxv1.cognition.run/?sona_id=52864,"en-US,en;q=0.9",psmkluzw5m3wlqh,NA,null,<p></p>,null,choice,tc,binary,repulsion,2,microwave ovens,null,null,null,null,null,null,2,NA,NA,NA,NA,NA,NA,NA,NA
NA,NA,NA,NA,NA,choice_trial,survey-html-form,21,153546,0.0-4.0-1.8,120,1,2025-05-01T21:03:13Z,b60275e29fe2361ab97ac0ac217840d7,"Mozilla/5.0 (Macintosh; Intel Mac OS X 10_15_7) AppleWebKit/605.1.15 (KHTML, like Gecko) Version/18.4 Safari/605.1.15",Macintosh,Safari,18.4,OS X,10_15_7,https://5puzkbbxv1.cognition.run/?sona_id=52864,"en-US,en;q=0.9",psmkluzw5m3wlqh,NA,4882,NA,"{""product_choice"":""B""}",choice,tc,binary,repulsion,2,microwave ovens,null,null,null,null,null,null,2,30,40,null,100,90,null,Warranty,Cooking power
NA,NA,NA,NA,NA,choice_trial_setup,html-keyboard-response,22,153848,0.0-4.0-0.9,120,1,2025-05-01T21:03:13Z,b60275e29fe2361ab97ac0ac217840d7,"Mozilla/5.0 (Macintosh; Intel Mac OS X 10_15_7) AppleWebKit/605.1.15 (KHTML, like Gecko) Version/18.4 Safari/605.1.15",Macintosh,Safari,18.4,OS X,10_15_7,https://5puzkbbxv1.cognition.run/?sona_id=52864,"en-US,en;q=0.9",psmkluzw5m3wlqh,NA,null,<p></p>,null,choice,wb,binary,catch,null,laptops,75,85,40,45,null,null,1,NA,NA,NA,NA,NA,NA,NA,NA
NA,NA,NA,NA,NA,choice_trial,survey-html-form,23,157751,0.0-4.0-1.9,120,1,2025-05-01T21:03:13Z,b60275e29fe2361ab97ac0ac217840d7,"Mozilla/5.0 (Macintosh; Intel Mac OS X 10_15_7) AppleWebKit/605.1.15 (KHTML, like Gecko) Version/18.4 Safari/605.1.15",Macintosh,Safari,18.4,OS X,10_15_7,https://5puzkbbxv1.cognition.run/?sona_id=52864,"en-US,en;q=0.9",psmkluzw5m3wlqh,NA,3900,NA,"{""product_choice"":""B""}",choice,wb,binary,catch,null,laptops,75,85,40,45,null,null,1,null,null,null,null,null,null,Processing speed,Memory (RAM)
NA,NA,NA,NA,NA,choice_trial_setup,html-keyboard-response,24,158054,0.0-4.0-0.10,120,1,2025-05-01T21:03:13Z,b60275e29fe2361ab97ac0ac217840d7,"Mozilla/5.0 (Macintosh; Intel Mac OS X 10_15_7) AppleWebKit/605.1.15 (KHTML, like Gecko) Version/18.4 Safari/605.1.15",Macintosh,Safari,18.4,OS X,10_15_7,https://5puzkbbxv1.cognition.run/?sona_id=52864,"en-US,en;q=0.9",psmkluzw5m3wlqh,NA,null,<p></p>,null,choice,ct,binary,attraction,NA,laptops,null,null,null,null,null,null,1,NA,NA,NA,NA,NA,NA,NA,NA
NA,NA,NA,NA,NA,choice_trial,survey-html-form,25,163170,0.0-4.0-1.10,120,1,2025-05-01T21:03:13Z,b60275e29fe2361ab97ac0ac217840d7,"Mozilla/5.0 (Macintosh; Intel Mac OS X 10_15_7) AppleWebKit/605.1.15 (KHTML, like Gecko) Version/18.4 Safari/605.1.15",Macintosh,Safari,18.4,OS X,10_15_7,https://5puzkbbxv1.cognition.run/?sona_id=52864,"en-US,en;q=0.9",psmkluzw5m3wlqh,NA,5112,NA,"{""product_choice"":""A""}",choice,ct,binary,attraction,NA,laptops,null,null,null,null,null,null,1,60,50,null,50,60,null,Processing speed,Memory (RAM)
NA,NA,NA,NA,NA,choice_trial_setup,html-keyboard-response,26,163472,0.0-4.0-0.11,120,1,2025-05-01T21:03:13Z,b60275e29fe2361ab97ac0ac217840d7,"Mozilla/5.0 (Macintosh; Intel Mac OS X 10_15_7) AppleWebKit/605.1.15 (KHTML, like Gecko) Version/18.4 Safari/605.1.15",Macintosh,Safari,18.4,OS X,10_15_7,https://5puzkbbxv1.cognition.run/?sona_id=52864,"en-US,en;q=0.9",psmkluzw5m3wlqh,NA,null,<p></p>,null,choice,tc,binary,attraction,NA,microwave ovens,null,null,null,null,null,null,1,NA,NA,NA,NA,NA,NA,NA,NA
NA,NA,NA,NA,NA,choice_trial,survey-html-form,27,170058,0.0-4.0-1.11,120,1,2025-05-01T21:03:13Z,b60275e29fe2361ab97ac0ac217840d7,"Mozilla/5.0 (Macintosh; Intel Mac OS X 10_15_7) AppleWebKit/605.1.15 (KHTML, like Gecko) Version/18.4 Safari/605.1.15",Macintosh,Safari,18.4,OS X,10_15_7,https://5puzkbbxv1.cognition.run/?sona_id=52864,"en-US,en;q=0.9",psmkluzw5m3wlqh,NA,6582,NA,"{""product_choice"":""B""}",choice,tc,binary,attraction,NA,microwave ovens,null,null,null,null,null,null,1,60,50,null,50,60,null,Warranty,Cooking power
NA,NA,NA,NA,NA,choice_trial_setup,html-keyboard-response,28,170361,0.0-4.0-0.12,120,1,2025-05-01T21:03:13Z,b60275e29fe2361ab97ac0ac217840d7,"Mozilla/5.0 (Macintosh; Intel Mac OS X 10_15_7) AppleWebKit/605.1.15 (KHTML, like Gecko) Version/18.4 Safari/605.1.15",Macintosh,Safari,18.4,OS X,10_15_7,https://5puzkbbxv1.cognition.run/?sona_id=52864,"en-US,en;q=0.9",psmkluzw5m3wlqh,NA,null,<p></p>,null,choice,tc,binary,repulsion,2,laptops,null,null,null,null,null,null,1,NA,NA,NA,NA,NA,NA,NA,NA
NA,NA,NA,NA,NA,choice_trial,survey-html-form,29,175845,0.0-4.0-1.12,120,1,2025-05-01T21:03:13Z,b60275e29fe2361ab97ac0ac217840d7,"Mozilla/5.0 (Macintosh; Intel Mac OS X 10_15_7) AppleWebKit/605.1.15 (KHTML, like Gecko) Version/18.4 Safari/605.1.15",Macintosh,Safari,18.4,OS X,10_15_7,https://5puzkbbxv1.cognition.run/?sona_id=52864,"en-US,en;q=0.9",psmkluzw5m3wlqh,NA,5479,NA,"{""product_choice"":""B""}",choice,tc,binary,repulsion,2,laptops,null,null,null,null,null,null,1,30,40,null,100,90,null,Processing speed,Memory (RAM)
NA,NA,NA,NA,NA,choice_trial_setup,html-keyboard-response,30,176147,0.0-4.0-0.13,120,1,2025-05-01T21:03:13Z,b60275e29fe2361ab97ac0ac217840d7,"Mozilla/5.0 (Macintosh; Intel Mac OS X 10_15_7) AppleWebKit/605.1.15 (KHTML, like Gecko) Version/18.4 Safari/605.1.15",Macintosh,Safari,18.4,OS X,10_15_7,https://5puzkbbxv1.cognition.run/?sona_id=52864,"en-US,en;q=0.9",psmkluzw5m3wlqh,NA,null,<p></p>,null,choice,dtc,trinary,repulsion_A,1,laptops,null,null,null,null,null,null,1,NA,NA,NA,NA,NA,NA,NA,NA
NA,NA,NA,NA,NA,choice_trial,survey-html-form,31,184699,0.0-4.0-1.13,120,1,2025-05-01T21:03:13Z,b60275e29fe2361ab97ac0ac217840d7,"Mozilla/5.0 (Macintosh; Intel Mac OS X 10_15_7) AppleWebKit/605.1.15 (KHTML, like Gecko) Version/18.4 Safari/605.1.15",Macintosh,Safari,18.4,OS X,10_15_7,https://5puzkbbxv1.cognition.run/?sona_id=52864,"en-US,en;q=0.9",psmkluzw5m3wlqh,NA,8548,NA,"{""product_choice"":""B""}",choice,dtc,trinary,repulsion_A,1,laptops,null,null,null,null,null,null,1,100,90,100,30,40,20,Processing speed,Memory (RAM)
NA,NA,NA,NA,NA,choice_trial_setup,html-keyboard-response,32,185002,0.0-4.0-0.14,120,1,2025-05-01T21:03:13Z,b60275e29fe2361ab97ac0ac217840d7,"Mozilla/5.0 (Macintosh; Intel Mac OS X 10_15_7) AppleWebKit/605.1.15 (KHTML, like Gecko) Version/18.4 Safari/605.1.15",Macintosh,Safari,18.4,OS X,10_15_7,https://5puzkbbxv1.cognition.run/?sona_id=52864,"en-US,en;q=0.9",psmkluzw5m3wlqh,NA,null,<p></p>,null,choice,wwb,trinary,catch,null,laptops,70,75,10,35,45,20,2,NA,NA,NA,NA,NA,NA,NA,NA
NA,NA,NA,NA,NA,choice_trial,survey-html-form,33,190103,0.0-4.0-1.14,120,1,2025-05-01T21:03:13Z,b60275e29fe2361ab97ac0ac217840d7,"Mozilla/5.0 (Macintosh; Intel Mac OS X 10_15_7) AppleWebKit/605.1.15 (KHTML, like Gecko) Version/18.4 Safari/605.1.15",Macintosh,Safari,18.4,OS X,10_15_7,https://5puzkbbxv1.cognition.run/?sona_id=52864,"en-US,en;q=0.9",psmkluzw5m3wlqh,NA,5097,NA,"{""product_choice"":""C""}",choice,wwb,trinary,catch,null,laptops,70,75,10,35,45,20,2,null,null,null,null,null,null,Processing speed,Memory (RAM)
NA,NA,NA,NA,NA,choice_trial_setup,html-keyboard-response,34,190405,0.0-4.0-0.15,120,1,2025-05-01T21:03:13Z,b60275e29fe2361ab97ac0ac217840d7,"Mozilla/5.0 (Macintosh; Intel Mac OS X 10_15_7) AppleWebKit/605.1.15 (KHTML, like Gecko) Version/18.4 Safari/605.1.15",Macintosh,Safari,18.4,OS X,10_15_7,https://5puzkbbxv1.cognition.run/?sona_id=52864,"en-US,en;q=0.9",psmkluzw5m3wlqh,NA,null,<p></p>,null,choice,tc,binary,repulsion,1,laptops,null,null,null,null,null,null,1,NA,NA,NA,NA,NA,NA,NA,NA
NA,NA,NA,NA,NA,choice_trial,survey-html-form,35,196622,0.0-4.0-1.15,120,1,2025-05-01T21:03:13Z,b60275e29fe2361ab97ac0ac217840d7,"Mozilla/5.0 (Macintosh; Intel Mac OS X 10_15_7) AppleWebKit/605.1.15 (KHTML, like Gecko) Version/18.4 Safari/605.1.15",Macintosh,Safari,18.4,OS X,10_15_7,https://5puzkbbxv1.cognition.run/?sona_id=52864,"en-US,en;q=0.9",psmkluzw5m3wlqh,NA,6214,NA,"{""product_choice"":""B""}",choice,tc,binary,repulsion,1,laptops,null,null,null,null,null,null,1,100,90,null,30,40,null,Processing speed,Memory (RAM)
NA,NA,NA,NA,NA,choice_trial_setup,html-keyboard-response,36,196924,0.0-4.0-0.16,120,1,2025-05-01T21:03:13Z,b60275e29fe2361ab97ac0ac217840d7,"Mozilla/5.0 (Macintosh; Intel Mac OS X 10_15_7) AppleWebKit/605.1.15 (KHTML, like Gecko) Version/18.4 Safari/605.1.15",Macintosh,Safari,18.4,OS X,10_15_7,https://5puzkbbxv1.cognition.run/?sona_id=52864,"en-US,en;q=0.9",psmkluzw5m3wlqh,NA,null,<p></p>,null,choice,ctd,trinary,attraction,1,televisions,null,null,null,null,null,null,1,NA,NA,NA,NA,NA,NA,NA,NA
NA,NA,NA,NA,NA,choice_trial,survey-html-form,37,203548,0.0-4.0-1.16,120,1,2025-05-01T21:03:13Z,b60275e29fe2361ab97ac0ac217840d7,"Mozilla/5.0 (Macintosh; Intel Mac OS X 10_15_7) AppleWebKit/605.1.15 (KHTML, like Gecko) Version/18.4 Safari/605.1.15",Macintosh,Safari,18.4,OS X,10_15_7,https://5puzkbbxv1.cognition.run/?sona_id=52864,"en-US,en;q=0.9",psmkluzw5m3wlqh,NA,6620,NA,"{""product_choice"":""A""}",choice,ctd,trinary,attraction,1,televisions,null,null,null,null,null,null,1,60,50,60,50,60,40,Screen size,Average lifespan
NA,NA,NA,NA,NA,choice_trial_setup,html-keyboard-response,38,203851,0.0-4.0-0.17,120,1,2025-05-01T21:03:13Z,b60275e29fe2361ab97ac0ac217840d7,"Mozilla/5.0 (Macintosh; Intel Mac OS X 10_15_7) AppleWebKit/605.1.15 (KHTML, like Gecko) Version/18.4 Safari/605.1.15",Macintosh,Safari,18.4,OS X,10_15_7,https://5puzkbbxv1.cognition.run/?sona_id=52864,"en-US,en;q=0.9",psmkluzw5m3wlqh,NA,null,<p></p>,null,choice,dct,trinary,attraction,1,washing machines,null,null,null,null,null,null,2,NA,NA,NA,NA,NA,NA,NA,NA
NA,NA,NA,NA,NA,choice_trial,survey-html-form,39,211635,0.0-4.0-1.17,120,1,2025-05-01T21:03:13Z,b60275e29fe2361ab97ac0ac217840d7,"Mozilla/5.0 (Macintosh; Intel Mac OS X 10_15_7) AppleWebKit/605.1.15 (KHTML, like Gecko) Version/18.4 Safari/605.1.15",Macintosh,Safari,18.4,OS X,10_15_7,https://5puzkbbxv1.cognition.run/?sona_id=52864,"en-US,en;q=0.9",psmkluzw5m3wlqh,NA,7778,NA,"{""product_choice"":""C""}",choice,dct,trinary,attraction,1,washing machines,null,null,null,null,null,null,2,60,50,60,50,60,40,Average lifespan,Energy savings
NA,NA,NA,NA,NA,choice_trial_setup,html-keyboard-response,40,211938,0.0-4.0-0.18,120,1,2025-05-01T21:03:13Z,b60275e29fe2361ab97ac0ac217840d7,"Mozilla/5.0 (Macintosh; Intel Mac OS X 10_15_7) AppleWebKit/605.1.15 (KHTML, like Gecko) Version/18.4 Safari/605.1.15",Macintosh,Safari,18.4,OS X,10_15_7,https://5puzkbbxv1.cognition.run/?sona_id=52864,"en-US,en;q=0.9",psmkluzw5m3wlqh,NA,null,<p></p>,null,choice,dct,trinary,repulsion_B,2,washing machines,null,null,null,null,null,null,1,NA,NA,NA,NA,NA,NA,NA,NA
NA,NA,NA,NA,NA,choice_trial,survey-html-form,41,216566,0.0-4.0-1.18,120,1,2025-05-01T21:03:13Z,b60275e29fe2361ab97ac0ac217840d7,"Mozilla/5.0 (Macintosh; Intel Mac OS X 10_15_7) AppleWebKit/605.1.15 (KHTML, like Gecko) Version/18.4 Safari/605.1.15",Macintosh,Safari,18.4,OS X,10_15_7,https://5puzkbbxv1.cognition.run/?sona_id=52864,"en-US,en;q=0.9",psmkluzw5m3wlqh,NA,4622,NA,"{""product_choice"":""C""}",choice,dct,trinary,repulsion_B,2,washing machines,null,null,null,null,null,null,1,40,30,40,90,100,80,Average lifespan,Energy savings
NA,NA,NA,NA,NA,choice_trial_setup,html-keyboard-response,42,216870,0.0-4.0-0.19,120,1,2025-05-01T21:03:13Z,b60275e29fe2361ab97ac0ac217840d7,"Mozilla/5.0 (Macintosh; Intel Mac OS X 10_15_7) AppleWebKit/605.1.15 (KHTML, like Gecko) Version/18.4 Safari/605.1.15",Macintosh,Safari,18.4,OS X,10_15_7,https://5puzkbbxv1.cognition.run/?sona_id=52864,"en-US,en;q=0.9",psmkluzw5m3wlqh,NA,null,<p></p>,null,choice,cdt,trinary,repulsion_B,1,laptops,null,null,null,null,null,null,2,NA,NA,NA,NA,NA,NA,NA,NA
NA,NA,NA,NA,NA,choice_trial,survey-html-form,43,220987,0.0-4.0-1.19,120,1,2025-05-01T21:03:13Z,b60275e29fe2361ab97ac0ac217840d7,"Mozilla/5.0 (Macintosh; Intel Mac OS X 10_15_7) AppleWebKit/605.1.15 (KHTML, like Gecko) Version/18.4 Safari/605.1.15",Macintosh,Safari,18.4,OS X,10_15_7,https://5puzkbbxv1.cognition.run/?sona_id=52864,"en-US,en;q=0.9",psmkluzw5m3wlqh,NA,4112,NA,"{""product_choice"":""C""}",choice,cdt,trinary,repulsion_B,1,laptops,null,null,null,null,null,null,2,90,100,80,40,30,40,Processing speed,Memory (RAM)
NA,NA,NA,NA,NA,choice_trial_setup,html-keyboard-response,44,221289,0.0-4.0-0.20,120,1,2025-05-01T21:03:13Z,b60275e29fe2361ab97ac0ac217840d7,"Mozilla/5.0 (Macintosh; Intel Mac OS X 10_15_7) AppleWebKit/605.1.15 (KHTML, like Gecko) Version/18.4 Safari/605.1.15",Macintosh,Safari,18.4,OS X,10_15_7,https://5puzkbbxv1.cognition.run/?sona_id=52864,"en-US,en;q=0.9",psmkluzw5m3wlqh,NA,null,<p></p>,null,choice,tdc,trinary,attraction,2,microwave ovens,null,null,null,null,null,null,2,NA,NA,NA,NA,NA,NA,NA,NA
NA,NA,NA,NA,NA,choice_trial,survey-html-form,45,224906,0.0-4.0-1.20,120,1,2025-05-01T21:03:13Z,b60275e29fe2361ab97ac0ac217840d7,"Mozilla/5.0 (Macintosh; Intel Mac OS X 10_15_7) AppleWebKit/605.1.15 (KHTML, like Gecko) Version/18.4 Safari/605.1.15",Macintosh,Safari,18.4,OS X,10_15_7,https://5puzkbbxv1.cognition.run/?sona_id=52864,"en-US,en;q=0.9",psmkluzw5m3wlqh,NA,3611,NA,"{""product_choice"":""A""}",choice,tdc,trinary,attraction,2,microwave ovens,null,null,null,null,null,null,2,50,60,40,60,50,60,Warranty,Cooking power
NA,NA,NA,NA,NA,choice_trial_setup,html-keyboard-response,46,225208,0.0-4.0-0.21,120,1,2025-05-01T21:03:13Z,b60275e29fe2361ab97ac0ac217840d7,"Mozilla/5.0 (Macintosh; Intel Mac OS X 10_15_7) AppleWebKit/605.1.15 (KHTML, like Gecko) Version/18.4 Safari/605.1.15",Macintosh,Safari,18.4,OS X,10_15_7,https://5puzkbbxv1.cognition.run/?sona_id=52864,"en-US,en;q=0.9",psmkluzw5m3wlqh,NA,null,<p></p>,null,choice,dct,trinary,repulsion_A,1,televisions,null,null,null,null,null,null,2,NA,NA,NA,NA,NA,NA,NA,NA
NA,NA,NA,NA,NA,choice_trial,survey-html-form,47,230937,0.0-4.0-1.21,120,1,2025-05-01T21:03:13Z,b60275e29fe2361ab97ac0ac217840d7,"Mozilla/5.0 (Macintosh; Intel Mac OS X 10_15_7) AppleWebKit/605.1.15 (KHTML, like Gecko) Version/18.4 Safari/605.1.15",Macintosh,Safari,18.4,OS X,10_15_7,https://5puzkbbxv1.cognition.run/?sona_id=52864,"en-US,en;q=0.9",psmkluzw5m3wlqh,NA,5723,NA,"{""product_choice"":""B""}",choice,dct,trinary,repulsion_A,1,televisions,null,null,null,null,null,null,2,100,90,100,30,40,20,Screen size,Average lifespan
NA,NA,NA,NA,NA,choice_trial_setup,html-keyboard-response,48,231240,0.0-4.0-0.22,120,1,2025-05-01T21:03:13Z,b60275e29fe2361ab97ac0ac217840d7,"Mozilla/5.0 (Macintosh; Intel Mac OS X 10_15_7) AppleWebKit/605.1.15 (KHTML, like Gecko) Version/18.4 Safari/605.1.15",Macintosh,Safari,18.4,OS X,10_15_7,https://5puzkbbxv1.cognition.run/?sona_id=52864,"en-US,en;q=0.9",psmkluzw5m3wlqh,NA,null,<p></p>,null,choice,bww,trinary,catch,null,televisions,65,70,20,30,5,35,1,NA,NA,NA,NA,NA,NA,NA,NA
NA,NA,NA,NA,NA,choice_trial,survey-html-form,49,235212,0.0-4.0-1.22,120,1,2025-05-01T21:03:13Z,b60275e29fe2361ab97ac0ac217840d7,"Mozilla/5.0 (Macintosh; Intel Mac OS X 10_15_7) AppleWebKit/605.1.15 (KHTML, like Gecko) Version/18.4 Safari/605.1.15",Macintosh,Safari,18.4,OS X,10_15_7,https://5puzkbbxv1.cognition.run/?sona_id=52864,"en-US,en;q=0.9",psmkluzw5m3wlqh,NA,3967,NA,"{""product_choice"":""A""}",choice,bww,trinary,catch,null,televisions,65,70,20,30,5,35,1,null,null,null,null,null,null,Screen size,Average lifespan
NA,NA,NA,NA,NA,choice_trial_setup,html-keyboard-response,50,235514,0.0-4.0-0.23,120,1,2025-05-01T21:03:13Z,b60275e29fe2361ab97ac0ac217840d7,"Mozilla/5.0 (Macintosh; Intel Mac OS X 10_15_7) AppleWebKit/605.1.15 (KHTML, like Gecko) Version/18.4 Safari/605.1.15",Macintosh,Safari,18.4,OS X,10_15_7,https://5puzkbbxv1.cognition.run/?sona_id=52864,"en-US,en;q=0.9",psmkluzw5m3wlqh,NA,null,<p></p>,null,choice,ctd,trinary,repulsion_A,2,laptops,null,null,null,null,null,null,1,NA,NA,NA,NA,NA,NA,NA,NA
NA,NA,NA,NA,NA,choice_trial,survey-html-form,51,242914,0.0-4.0-1.23,120,1,2025-05-01T21:03:13Z,b60275e29fe2361ab97ac0ac217840d7,"Mozilla/5.0 (Macintosh; Intel Mac OS X 10_15_7) AppleWebKit/605.1.15 (KHTML, like Gecko) Version/18.4 Safari/605.1.15",Macintosh,Safari,18.4,OS X,10_15_7,https://5puzkbbxv1.cognition.run/?sona_id=52864,"en-US,en;q=0.9",psmkluzw5m3wlqh,NA,7394,NA,"{""product_choice"":""A""}",choice,ctd,trinary,repulsion_A,2,laptops,null,null,null,null,null,null,1,30,40,20,100,90,100,Processing speed,Memory (RAM)
NA,NA,NA,NA,NA,choice_trial_setup,html-keyboard-response,52,243217,0.0-4.0-0.24,120,1,2025-05-01T21:03:13Z,b60275e29fe2361ab97ac0ac217840d7,"Mozilla/5.0 (Macintosh; Intel Mac OS X 10_15_7) AppleWebKit/605.1.15 (KHTML, like Gecko) Version/18.4 Safari/605.1.15",Macintosh,Safari,18.4,OS X,10_15_7,https://5puzkbbxv1.cognition.run/?sona_id=52864,"en-US,en;q=0.9",psmkluzw5m3wlqh,NA,null,<p></p>,null,choice,tcd,trinary,attraction,2,laptops,null,null,null,null,null,null,2,NA,NA,NA,NA,NA,NA,NA,NA
NA,NA,NA,NA,NA,choice_trial,survey-html-form,53,252088,0.0-4.0-1.24,120,1,2025-05-01T21:03:13Z,b60275e29fe2361ab97ac0ac217840d7,"Mozilla/5.0 (Macintosh; Intel Mac OS X 10_15_7) AppleWebKit/605.1.15 (KHTML, like Gecko) Version/18.4 Safari/605.1.15",Macintosh,Safari,18.4,OS X,10_15_7,https://5puzkbbxv1.cognition.run/?sona_id=52864,"en-US,en;q=0.9",psmkluzw5m3wlqh,NA,8865,NA,"{""product_choice"":""A""}",choice,tcd,trinary,attraction,2,laptops,null,null,null,null,null,null,2,50,60,40,60,50,60,Processing speed,Memory (RAM)
NA,NA,NA,NA,NA,choice_trial_setup,html-keyboard-response,54,252391,0.0-4.0-0.25,120,1,2025-05-01T21:03:13Z,b60275e29fe2361ab97ac0ac217840d7,"Mozilla/5.0 (Macintosh; Intel Mac OS X 10_15_7) AppleWebKit/605.1.15 (KHTML, like Gecko) Version/18.4 Safari/605.1.15",Macintosh,Safari,18.4,OS X,10_15_7,https://5puzkbbxv1.cognition.run/?sona_id=52864,"en-US,en;q=0.9",psmkluzw5m3wlqh,NA,null,<p></p>,null,choice,tcd,trinary,repulsion_B,1,microwave ovens,null,null,null,null,null,null,2,NA,NA,NA,NA,NA,NA,NA,NA
NA,NA,NA,NA,NA,choice_trial,survey-html-form,55,259191,0.0-4.0-1.25,120,1,2025-05-01T21:03:13Z,b60275e29fe2361ab97ac0ac217840d7,"Mozilla/5.0 (Macintosh; Intel Mac OS X 10_15_7) AppleWebKit/605.1.15 (KHTML, like Gecko) Version/18.4 Safari/605.1.15",Macintosh,Safari,18.4,OS X,10_15_7,https://5puzkbbxv1.cognition.run/?sona_id=52864,"en-US,en;q=0.9",psmkluzw5m3wlqh,NA,6794,NA,"{""product_choice"":""A""}",choice,tcd,trinary,repulsion_B,1,microwave ovens,null,null,null,null,null,null,2,90,100,80,40,30,40,Warranty,Cooking power
NA,NA,NA,NA,NA,choice_trial_setup,html-keyboard-response,56,259496,0.0-4.0-0.26,120,1,2025-05-01T21:03:13Z,b60275e29fe2361ab97ac0ac217840d7,"Mozilla/5.0 (Macintosh; Intel Mac OS X 10_15_7) AppleWebKit/605.1.15 (KHTML, like Gecko) Version/18.4 Safari/605.1.15",Macintosh,Safari,18.4,OS X,10_15_7,https://5puzkbbxv1.cognition.run/?sona_id=52864,"en-US,en;q=0.9",psmkluzw5m3wlqh,NA,null,<p></p>,null,choice,wb,binary,catch,null,microwave ovens,95,55,35,45,null,null,1,NA,NA,NA,NA,NA,NA,NA,NA
NA,NA,NA,NA,NA,choice_trial,survey-html-form,57,263152,0.0-4.0-1.26,120,1,2025-05-01T21:03:13Z,b60275e29fe2361ab97ac0ac217840d7,"Mozilla/5.0 (Macintosh; Intel Mac OS X 10_15_7) AppleWebKit/605.1.15 (KHTML, like Gecko) Version/18.4 Safari/605.1.15",Macintosh,Safari,18.4,OS X,10_15_7,https://5puzkbbxv1.cognition.run/?sona_id=52864,"en-US,en;q=0.9",psmkluzw5m3wlqh,NA,3649,NA,"{""product_choice"":""B""}",choice,wb,binary,catch,null,microwave ovens,95,55,35,45,null,null,1,null,null,null,null,null,null,Warranty,Cooking power
NA,NA,NA,NA,NA,choice_trial_setup,html-keyboard-response,58,263455,0.0-4.0-0.27,120,1,2025-05-01T21:03:13Z,b60275e29fe2361ab97ac0ac217840d7,"Mozilla/5.0 (Macintosh; Intel Mac OS X 10_15_7) AppleWebKit/605.1.15 (KHTML, like Gecko) Version/18.4 Safari/605.1.15",Macintosh,Safari,18.4,OS X,10_15_7,https://5puzkbbxv1.cognition.run/?sona_id=52864,"en-US,en;q=0.9",psmkluzw5m3wlqh,NA,null,<p></p>,null,choice,tc,binary,repulsion,1,televisions,null,null,null,null,null,null,1,NA,NA,NA,NA,NA,NA,NA,NA
NA,NA,NA,NA,NA,choice_trial,survey-html-form,59,269769,0.0-4.0-1.27,120,1,2025-05-01T21:03:13Z,b60275e29fe2361ab97ac0ac217840d7,"Mozilla/5.0 (Macintosh; Intel Mac OS X 10_15_7) AppleWebKit/605.1.15 (KHTML, like Gecko) Version/18.4 Safari/605.1.15",Macintosh,Safari,18.4,OS X,10_15_7,https://5puzkbbxv1.cognition.run/?sona_id=52864,"en-US,en;q=0.9",psmkluzw5m3wlqh,NA,6308,NA,"{""product_choice"":""B""}",choice,tc,binary,repulsion,1,televisions,null,null,null,null,null,null,1,100,90,null,30,40,null,Screen size,Average lifespan
NA,NA,NA,NA,NA,choice_trial_setup,html-keyboard-response,60,270073,0.0-4.0-0.28,120,1,2025-05-01T21:03:13Z,b60275e29fe2361ab97ac0ac217840d7,"Mozilla/5.0 (Macintosh; Intel Mac OS X 10_15_7) AppleWebKit/605.1.15 (KHTML, like Gecko) Version/18.4 Safari/605.1.15",Macintosh,Safari,18.4,OS X,10_15_7,https://5puzkbbxv1.cognition.run/?sona_id=52864,"en-US,en;q=0.9",psmkluzw5m3wlqh,NA,null,<p></p>,null,choice,dtc,trinary,attraction,2,televisions,null,null,null,null,null,null,1,NA,NA,NA,NA,NA,NA,NA,NA
NA,NA,NA,NA,NA,choice_trial,survey-html-form,61,280560,0.0-4.0-1.28,120,1,2025-05-01T21:03:13Z,b60275e29fe2361ab97ac0ac217840d7,"Mozilla/5.0 (Macintosh; Intel Mac OS X 10_15_7) AppleWebKit/605.1.15 (KHTML, like Gecko) Version/18.4 Safari/605.1.15",Macintosh,Safari,18.4,OS X,10_15_7,https://5puzkbbxv1.cognition.run/?sona_id=52864,"en-US,en;q=0.9",psmkluzw5m3wlqh,NA,10481,NA,"{""product_choice"":""A""}",choice,dtc,trinary,attraction,2,televisions,null,null,null,null,null,null,1,50,60,40,60,50,60,Screen size,Average lifespan
NA,NA,NA,NA,NA,choice_trial_setup,html-keyboard-response,62,280864,0.0-4.0-0.29,120,1,2025-05-01T21:03:13Z,b60275e29fe2361ab97ac0ac217840d7,"Mozilla/5.0 (Macintosh; Intel Mac OS X 10_15_7) AppleWebKit/605.1.15 (KHTML, like Gecko) Version/18.4 Safari/605.1.15",Macintosh,Safari,18.4,OS X,10_15_7,https://5puzkbbxv1.cognition.run/?sona_id=52864,"en-US,en;q=0.9",psmkluzw5m3wlqh,NA,null,<p></p>,null,choice,tc,binary,repulsion,2,washing machines,null,null,null,null,null,null,1,NA,NA,NA,NA,NA,NA,NA,NA
NA,NA,NA,NA,NA,choice_trial,survey-html-form,63,286161,0.0-4.0-1.29,120,1,2025-05-01T21:03:13Z,b60275e29fe2361ab97ac0ac217840d7,"Mozilla/5.0 (Macintosh; Intel Mac OS X 10_15_7) AppleWebKit/605.1.15 (KHTML, like Gecko) Version/18.4 Safari/605.1.15",Macintosh,Safari,18.4,OS X,10_15_7,https://5puzkbbxv1.cognition.run/?sona_id=52864,"en-US,en;q=0.9",psmkluzw5m3wlqh,NA,5290,NA,"{""product_choice"":""B""}",choice,tc,binary,repulsion,2,washing machines,null,null,null,null,null,null,1,30,40,null,100,90,null,Average lifespan,Energy savings
NA,NA,NA,NA,NA,choice_trial_setup,html-keyboard-response,64,286466,0.0-4.0-0.30,120,1,2025-05-01T21:03:13Z,b60275e29fe2361ab97ac0ac217840d7,"Mozilla/5.0 (Macintosh; Intel Mac OS X 10_15_7) AppleWebKit/605.1.15 (KHTML, like Gecko) Version/18.4 Safari/605.1.15",Macintosh,Safari,18.4,OS X,10_15_7,https://5puzkbbxv1.cognition.run/?sona_id=52864,"en-US,en;q=0.9",psmkluzw5m3wlqh,NA,null,<p></p>,null,choice,ct,binary,attraction,NA,televisions,null,null,null,null,null,null,2,NA,NA,NA,NA,NA,NA,NA,NA
NA,NA,NA,NA,NA,choice_trial,survey-html-form,65,290611,0.0-4.0-1.30,120,1,2025-05-01T21:03:13Z,b60275e29fe2361ab97ac0ac217840d7,"Mozilla/5.0 (Macintosh; Intel Mac OS X 10_15_7) AppleWebKit/605.1.15 (KHTML, like Gecko) Version/18.4 Safari/605.1.15",Macintosh,Safari,18.4,OS X,10_15_7,https://5puzkbbxv1.cognition.run/?sona_id=52864,"en-US,en;q=0.9",psmkluzw5m3wlqh,NA,4140,NA,"{""product_choice"":""A""}",choice,ct,binary,attraction,NA,televisions,null,null,null,null,null,null,2,60,50,null,50,60,null,Screen size,Average lifespan
NA,NA,NA,NA,NA,choice_trial_setup,html-keyboard-response,66,290914,0.0-4.0-0.31,120,1,2025-05-01T21:03:13Z,b60275e29fe2361ab97ac0ac217840d7,"Mozilla/5.0 (Macintosh; Intel Mac OS X 10_15_7) AppleWebKit/605.1.15 (KHTML, like Gecko) Version/18.4 Safari/605.1.15",Macintosh,Safari,18.4,OS X,10_15_7,https://5puzkbbxv1.cognition.run/?sona_id=52864,"en-US,en;q=0.9",psmkluzw5m3wlqh,NA,null,<p></p>,null,choice,ctd,trinary,repulsion_A,2,televisions,null,null,null,null,null,null,1,NA,NA,NA,NA,NA,NA,NA,NA
NA,NA,NA,NA,NA,choice_trial,survey-html-form,67,296895,0.0-4.0-1.31,120,1,2025-05-01T21:03:13Z,b60275e29fe2361ab97ac0ac217840d7,"Mozilla/5.0 (Macintosh; Intel Mac OS X 10_15_7) AppleWebKit/605.1.15 (KHTML, like Gecko) Version/18.4 Safari/605.1.15",Macintosh,Safari,18.4,OS X,10_15_7,https://5puzkbbxv1.cognition.run/?sona_id=52864,"en-US,en;q=0.9",psmkluzw5m3wlqh,NA,5975,NA,"{""product_choice"":""B""}",choice,ctd,trinary,repulsion_A,2,televisions,null,null,null,null,null,null,1,30,40,20,100,90,100,Screen size,Average lifespan
NA,NA,NA,NA,NA,choice_trial_setup,html-keyboard-response,68,297199,0.0-4.0-0.32,120,1,2025-05-01T21:03:13Z,b60275e29fe2361ab97ac0ac217840d7,"Mozilla/5.0 (Macintosh; Intel Mac OS X 10_15_7) AppleWebKit/605.1.15 (KHTML, like Gecko) Version/18.4 Safari/605.1.15",Macintosh,Safari,18.4,OS X,10_15_7,https://5puzkbbxv1.cognition.run/?sona_id=52864,"en-US,en;q=0.9",psmkluzw5m3wlqh,NA,null,<p></p>,null,choice,tdc,trinary,repulsion_A,2,microwave ovens,null,null,null,null,null,null,1,NA,NA,NA,NA,NA,NA,NA,NA
