success,timeout,failed_images,failed_audio,failed_video,screen_id,trial_type,trial_index,time_elapsed,internal_node_id,run_id,condition,recorded_at,source_code_version,user_agent,device,browser,browser_version,platform,platform_version,referer,accept_language,ppt_id,age,race,ethnicity,gender,other_countries,prev_study,view_history,rt,stimulus,response,phase,order,set,effect,t_high,category,d1_best,d2_best,d1_worst1,d2_worst1,d1_worst2,d2_worst2,first_dim,d1_t,d1_c,d1_d,d2_t,d2_c,d2_d,d1_name,d2_name,strategy_response,question_order
TRUE,FALSE,[],[],[],img preload,preload,0,284,0.0-0.0,125,1,2025-05-01T21:55:27Z,b60275e29fe2361ab97ac0ac217840d7,"Mozilla/5.0 (iPhone; CPU iPhone OS 18_4_1 like Mac OS X) AppleWebKit/605.1.15 (KHTML, like Gecko) Version/18.4 Mobile/15E148 Safari/604.1",iPhone,Safari,18.4,iOS,18_4_1,https://5puzkbbxv1.cognition.run/?sona_id=52116,"en-US,en;q=0.9",wm9gtq7cdwd068g,20,"[""Asian""]",No,Male,NA,Yes,NA,NA,NA,NA,NA,NA,NA,NA,NA,NA,NA,NA,NA,NA,NA,NA,NA,NA,NA,NA,NA,NA,NA,NA,NA,NA,NA
NA,NA,NA,NA,NA,computer_message,instructions,1,4166,0.0-1.0,125,1,2025-05-01T21:55:27Z,b60275e29fe2361ab97ac0ac217840d7,"Mozilla/5.0 (iPhone; CPU iPhone OS 18_4_1 like Mac OS X) AppleWebKit/605.1.15 (KHTML, like Gecko) Version/18.4 Mobile/15E148 Safari/604.1",iPhone,Safari,18.4,iOS,18_4_1,https://5puzkbbxv1.cognition.run/?sona_id=52116,"en-US,en;q=0.9",wm9gtq7cdwd068g,20,"[""Asian""]",No,Male,NA,Yes,"[{""page_index"":0,""viewing_time"":3878}]",3879,NA,NA,NA,NA,NA,NA,NA,NA,NA,NA,NA,NA,NA,NA,NA,NA,NA,NA,NA,NA,NA,NA,NA,NA,NA
TRUE,NA,NA,NA,NA,NA,fullscreen,2,7084,0.0-2.0,125,1,2025-05-01T21:55:27Z,b60275e29fe2361ab97ac0ac217840d7,"Mozilla/5.0 (iPhone; CPU iPhone OS 18_4_1 like Mac OS X) AppleWebKit/605.1.15 (KHTML, like Gecko) Version/18.4 Mobile/15E148 Safari/604.1",iPhone,Safari,18.4,iOS,18_4_1,https://5puzkbbxv1.cognition.run/?sona_id=52116,"en-US,en;q=0.9",wm9gtq7cdwd068g,20,"[""Asian""]",No,Male,NA,Yes,NA,1913,NA,NA,NA,NA,NA,NA,NA,NA,NA,NA,NA,NA,NA,NA,NA,NA,NA,NA,NA,NA,NA,NA,NA,NA,NA
NA,NA,NA,NA,NA,choice_instructions,instructions,3,32235,0.0-3.0,125,1,2025-05-01T21:55:27Z,b60275e29fe2361ab97ac0ac217840d7,"Mozilla/5.0 (iPhone; CPU iPhone OS 18_4_1 like Mac OS X) AppleWebKit/605.1.15 (KHTML, like Gecko) Version/18.4 Mobile/15E148 Safari/604.1",iPhone,Safari,18.4,iOS,18_4_1,https://5puzkbbxv1.cognition.run/?sona_id=52116,"en-US,en;q=0.9",wm9gtq7cdwd068g,20,"[""Asian""]",No,Male,NA,Yes,"[{""page_index"":0,""viewing_time"":1097},{""page_index"":1,""viewing_time"":8901},{""page_index"":2,""viewing_time"":2617},{""page_index"":3,""viewing_time"":1333},{""page_index"":4,""viewing_time"":667},{""page_index"":5,""viewing_time"":7167},{""page_index"":6,""viewing_time"":3367}]",25149,NA,NA,NA,NA,NA,NA,NA,NA,NA,NA,NA,NA,NA,NA,NA,NA,NA,NA,NA,NA,NA,NA,NA,NA,NA
NA,NA,NA,NA,NA,choice_trial_setup,html-keyboard-response,4,32541,0.0-4.0-0.0,125,1,2025-05-01T21:55:27Z,b60275e29fe2361ab97ac0ac217840d7,"Mozilla/5.0 (iPhone; CPU iPhone OS 18_4_1 like Mac OS X) AppleWebKit/605.1.15 (KHTML, like Gecko) Version/18.4 Mobile/15E148 Safari/604.1",iPhone,Safari,18.4,iOS,18_4_1,https://5puzkbbxv1.cognition.run/?sona_id=52116,"en-US,en;q=0.9",wm9gtq7cdwd068g,20,"[""Asian""]",No,Male,NA,Yes,NA,null,<p></p>,null,choice,ct,binary,repulsion,1,televisions,null,null,null,null,null,null,2,NA,NA,NA,NA,NA,NA,NA,NA,NA,NA
NA,NA,NA,NA,NA,choice_trial,survey-html-form,5,36215,0.0-4.0-1.0,125,1,2025-05-01T21:55:27Z,b60275e29fe2361ab97ac0ac217840d7,"Mozilla/5.0 (iPhone; CPU iPhone OS 18_4_1 like Mac OS X) AppleWebKit/605.1.15 (KHTML, like Gecko) Version/18.4 Mobile/15E148 Safari/604.1",iPhone,Safari,18.4,iOS,18_4_1,https://5puzkbbxv1.cognition.run/?sona_id=52116,"en-US,en;q=0.9",wm9gtq7cdwd068g,20,"[""Asian""]",No,Male,NA,Yes,NA,3669,NA,"{""product_choice"":""A""}",choice,ct,binary,repulsion,1,televisions,null,null,null,null,null,null,2,100,90,null,30,40,null,Screen size,Average lifespan,NA,NA
NA,NA,NA,NA,NA,choice_trial_setup,html-keyboard-response,6,36520,0.0-4.0-0.1,125,1,2025-05-01T21:55:27Z,b60275e29fe2361ab97ac0ac217840d7,"Mozilla/5.0 (iPhone; CPU iPhone OS 18_4_1 like Mac OS X) AppleWebKit/605.1.15 (KHTML, like Gecko) Version/18.4 Mobile/15E148 Safari/604.1",iPhone,Safari,18.4,iOS,18_4_1,https://5puzkbbxv1.cognition.run/?sona_id=52116,"en-US,en;q=0.9",wm9gtq7cdwd068g,20,"[""Asian""]",No,Male,NA,Yes,NA,null,<p></p>,null,choice,tc,binary,repulsion,2,laptops,null,null,null,null,null,null,1,NA,NA,NA,NA,NA,NA,NA,NA,NA,NA
NA,NA,NA,NA,NA,choice_trial,survey-html-form,7,37908,0.0-4.0-1.1,125,1,2025-05-01T21:55:27Z,b60275e29fe2361ab97ac0ac217840d7,"Mozilla/5.0 (iPhone; CPU iPhone OS 18_4_1 like Mac OS X) AppleWebKit/605.1.15 (KHTML, like Gecko) Version/18.4 Mobile/15E148 Safari/604.1",iPhone,Safari,18.4,iOS,18_4_1,https://5puzkbbxv1.cognition.run/?sona_id=52116,"en-US,en;q=0.9",wm9gtq7cdwd068g,20,"[""Asian""]",No,Male,NA,Yes,NA,1377,NA,"{""product_choice"":""B""}",choice,tc,binary,repulsion,2,laptops,null,null,null,null,null,null,1,30,40,null,100,90,null,Processing speed,Memory (RAM),NA,NA
NA,NA,NA,NA,NA,choice_trial_setup,html-keyboard-response,8,38211,0.0-4.0-0.2,125,1,2025-05-01T21:55:27Z,b60275e29fe2361ab97ac0ac217840d7,"Mozilla/5.0 (iPhone; CPU iPhone OS 18_4_1 like Mac OS X) AppleWebKit/605.1.15 (KHTML, like Gecko) Version/18.4 Mobile/15E148 Safari/604.1",iPhone,Safari,18.4,iOS,18_4_1,https://5puzkbbxv1.cognition.run/?sona_id=52116,"en-US,en;q=0.9",wm9gtq7cdwd068g,20,"[""Asian""]",No,Male,NA,Yes,NA,null,<p></p>,null,choice,dtc,trinary,repulsion_A,1,televisions,null,null,null,null,null,null,1,NA,NA,NA,NA,NA,NA,NA,NA,NA,NA
NA,NA,NA,NA,NA,choice_trial,survey-html-form,9,39674,0.0-4.0-1.2,125,1,2025-05-01T21:55:27Z,b60275e29fe2361ab97ac0ac217840d7,"Mozilla/5.0 (iPhone; CPU iPhone OS 18_4_1 like Mac OS X) AppleWebKit/605.1.15 (KHTML, like Gecko) Version/18.4 Mobile/15E148 Safari/604.1",iPhone,Safari,18.4,iOS,18_4_1,https://5puzkbbxv1.cognition.run/?sona_id=52116,"en-US,en;q=0.9",wm9gtq7cdwd068g,20,"[""Asian""]",No,Male,NA,Yes,NA,1459,NA,"{""product_choice"":""C""}",choice,dtc,trinary,repulsion_A,1,televisions,null,null,null,null,null,null,1,100,90,100,30,40,20,Screen size,Average lifespan,NA,NA
NA,NA,NA,NA,NA,choice_trial_setup,html-keyboard-response,10,39976,0.0-4.0-0.3,125,1,2025-05-01T21:55:27Z,b60275e29fe2361ab97ac0ac217840d7,"Mozilla/5.0 (iPhone; CPU iPhone OS 18_4_1 like Mac OS X) AppleWebKit/605.1.15 (KHTML, like Gecko) Version/18.4 Mobile/15E148 Safari/604.1",iPhone,Safari,18.4,iOS,18_4_1,https://5puzkbbxv1.cognition.run/?sona_id=52116,"en-US,en;q=0.9",wm9gtq7cdwd068g,20,"[""Asian""]",No,Male,NA,Yes,NA,null,<p></p>,null,choice,dtc,trinary,repulsion_A,1,microwave ovens,null,null,null,null,null,null,1,NA,NA,NA,NA,NA,NA,NA,NA,NA,NA
NA,NA,NA,NA,NA,choice_trial,survey-html-form,11,42487,0.0-4.0-1.3,125,1,2025-05-01T21:55:27Z,b60275e29fe2361ab97ac0ac217840d7,"Mozilla/5.0 (iPhone; CPU iPhone OS 18_4_1 like Mac OS X) AppleWebKit/605.1.15 (KHTML, like Gecko) Version/18.4 Mobile/15E148 Safari/604.1",iPhone,Safari,18.4,iOS,18_4_1,https://5puzkbbxv1.cognition.run/?sona_id=52116,"en-US,en;q=0.9",wm9gtq7cdwd068g,20,"[""Asian""]",No,Male,NA,Yes,NA,2506,NA,"{""product_choice"":""B""}",choice,dtc,trinary,repulsion_A,1,microwave ovens,null,null,null,null,null,null,1,100,90,100,30,40,20,Warranty,Cooking power,NA,NA
NA,NA,NA,NA,NA,choice_trial_setup,html-keyboard-response,12,42790,0.0-4.0-0.4,125,1,2025-05-01T21:55:27Z,b60275e29fe2361ab97ac0ac217840d7,"Mozilla/5.0 (iPhone; CPU iPhone OS 18_4_1 like Mac OS X) AppleWebKit/605.1.15 (KHTML, like Gecko) Version/18.4 Mobile/15E148 Safari/604.1",iPhone,Safari,18.4,iOS,18_4_1,https://5puzkbbxv1.cognition.run/?sona_id=52116,"en-US,en;q=0.9",wm9gtq7cdwd068g,20,"[""Asian""]",No,Male,NA,Yes,NA,null,<p></p>,null,choice,dct,trinary,repulsion_A,1,laptops,null,null,null,null,null,null,1,NA,NA,NA,NA,NA,NA,NA,NA,NA,NA
NA,NA,NA,NA,NA,choice_trial,survey-html-form,13,45025,0.0-4.0-1.4,125,1,2025-05-01T21:55:27Z,b60275e29fe2361ab97ac0ac217840d7,"Mozilla/5.0 (iPhone; CPU iPhone OS 18_4_1 like Mac OS X) AppleWebKit/605.1.15 (KHTML, like Gecko) Version/18.4 Mobile/15E148 Safari/604.1",iPhone,Safari,18.4,iOS,18_4_1,https://5puzkbbxv1.cognition.run/?sona_id=52116,"en-US,en;q=0.9",wm9gtq7cdwd068g,20,"[""Asian""]",No,Male,NA,Yes,NA,2229,NA,"{""product_choice"":""B""}",choice,dct,trinary,repulsion_A,1,laptops,null,null,null,null,null,null,1,100,90,100,30,40,20,Processing speed,Memory (RAM),NA,NA
NA,NA,NA,NA,NA,choice_trial_setup,html-keyboard-response,14,45328,0.0-4.0-0.5,125,1,2025-05-01T21:55:27Z,b60275e29fe2361ab97ac0ac217840d7,"Mozilla/5.0 (iPhone; CPU iPhone OS 18_4_1 like Mac OS X) AppleWebKit/605.1.15 (KHTML, like Gecko) Version/18.4 Mobile/15E148 Safari/604.1",iPhone,Safari,18.4,iOS,18_4_1,https://5puzkbbxv1.cognition.run/?sona_id=52116,"en-US,en;q=0.9",wm9gtq7cdwd068g,20,"[""Asian""]",No,Male,NA,Yes,NA,null,<p></p>,null,choice,dtc,trinary,repulsion_A,2,laptops,null,null,null,null,null,null,2,NA,NA,NA,NA,NA,NA,NA,NA,NA,NA
NA,NA,NA,NA,NA,choice_trial,survey-html-form,15,46926,0.0-4.0-1.5,125,1,2025-05-01T21:55:27Z,b60275e29fe2361ab97ac0ac217840d7,"Mozilla/5.0 (iPhone; CPU iPhone OS 18_4_1 like Mac OS X) AppleWebKit/605.1.15 (KHTML, like Gecko) Version/18.4 Mobile/15E148 Safari/604.1",iPhone,Safari,18.4,iOS,18_4_1,https://5puzkbbxv1.cognition.run/?sona_id=52116,"en-US,en;q=0.9",wm9gtq7cdwd068g,20,"[""Asian""]",No,Male,NA,Yes,NA,1593,NA,"{""product_choice"":""C""}",choice,dtc,trinary,repulsion_A,2,laptops,null,null,null,null,null,null,2,30,40,20,100,90,100,Processing speed,Memory (RAM),NA,NA
NA,NA,NA,NA,NA,choice_trial_setup,html-keyboard-response,16,47229,0.0-4.0-0.6,125,1,2025-05-01T21:55:27Z,b60275e29fe2361ab97ac0ac217840d7,"Mozilla/5.0 (iPhone; CPU iPhone OS 18_4_1 like Mac OS X) AppleWebKit/605.1.15 (KHTML, like Gecko) Version/18.4 Mobile/15E148 Safari/604.1",iPhone,Safari,18.4,iOS,18_4_1,https://5puzkbbxv1.cognition.run/?sona_id=52116,"en-US,en;q=0.9",wm9gtq7cdwd068g,20,"[""Asian""]",No,Male,NA,Yes,NA,null,<p></p>,null,choice,tc,binary,repulsion,1,washing machines,null,null,null,null,null,null,2,NA,NA,NA,NA,NA,NA,NA,NA,NA,NA
NA,NA,NA,NA,NA,choice_trial,survey-html-form,17,48458,0.0-4.0-1.6,125,1,2025-05-01T21:55:27Z,b60275e29fe2361ab97ac0ac217840d7,"Mozilla/5.0 (iPhone; CPU iPhone OS 18_4_1 like Mac OS X) AppleWebKit/605.1.15 (KHTML, like Gecko) Version/18.4 Mobile/15E148 Safari/604.1",iPhone,Safari,18.4,iOS,18_4_1,https://5puzkbbxv1.cognition.run/?sona_id=52116,"en-US,en;q=0.9",wm9gtq7cdwd068g,20,"[""Asian""]",No,Male,NA,Yes,NA,1224,NA,"{""product_choice"":""A""}",choice,tc,binary,repulsion,1,washing machines,null,null,null,null,null,null,2,100,90,null,30,40,null,Average lifespan,Energy savings,NA,NA
NA,NA,NA,NA,NA,choice_trial_setup,html-keyboard-response,18,48762,0.0-4.0-0.7,125,1,2025-05-01T21:55:27Z,b60275e29fe2361ab97ac0ac217840d7,"Mozilla/5.0 (iPhone; CPU iPhone OS 18_4_1 like Mac OS X) AppleWebKit/605.1.15 (KHTML, like Gecko) Version/18.4 Mobile/15E148 Safari/604.1",iPhone,Safari,18.4,iOS,18_4_1,https://5puzkbbxv1.cognition.run/?sona_id=52116,"en-US,en;q=0.9",wm9gtq7cdwd068g,20,"[""Asian""]",No,Male,NA,Yes,NA,null,<p></p>,null,choice,dct,trinary,attraction,2,televisions,null,null,null,null,null,null,2,NA,NA,NA,NA,NA,NA,NA,NA,NA,NA
NA,NA,NA,NA,NA,choice_trial,survey-html-form,19,50025,0.0-4.0-1.7,125,1,2025-05-01T21:55:27Z,b60275e29fe2361ab97ac0ac217840d7,"Mozilla/5.0 (iPhone; CPU iPhone OS 18_4_1 like Mac OS X) AppleWebKit/605.1.15 (KHTML, like Gecko) Version/18.4 Mobile/15E148 Safari/604.1",iPhone,Safari,18.4,iOS,18_4_1,https://5puzkbbxv1.cognition.run/?sona_id=52116,"en-US,en;q=0.9",wm9gtq7cdwd068g,20,"[""Asian""]",No,Male,NA,Yes,NA,1259,NA,"{""product_choice"":""B""}",choice,dct,trinary,attraction,2,televisions,null,null,null,null,null,null,2,50,60,40,60,50,60,Screen size,Average lifespan,NA,NA
NA,NA,NA,NA,NA,choice_trial_setup,html-keyboard-response,20,50328,0.0-4.0-0.8,125,1,2025-05-01T21:55:27Z,b60275e29fe2361ab97ac0ac217840d7,"Mozilla/5.0 (iPhone; CPU iPhone OS 18_4_1 like Mac OS X) AppleWebKit/605.1.15 (KHTML, like Gecko) Version/18.4 Mobile/15E148 Safari/604.1",iPhone,Safari,18.4,iOS,18_4_1,https://5puzkbbxv1.cognition.run/?sona_id=52116,"en-US,en;q=0.9",wm9gtq7cdwd068g,20,"[""Asian""]",No,Male,NA,Yes,NA,null,<p></p>,null,choice,cdt,trinary,repulsion_A,2,washing machines,null,null,null,null,null,null,1,NA,NA,NA,NA,NA,NA,NA,NA,NA,NA
NA,NA,NA,NA,NA,choice_trial,survey-html-form,21,51392,0.0-4.0-1.8,125,1,2025-05-01T21:55:27Z,b60275e29fe2361ab97ac0ac217840d7,"Mozilla/5.0 (iPhone; CPU iPhone OS 18_4_1 like Mac OS X) AppleWebKit/605.1.15 (KHTML, like Gecko) Version/18.4 Mobile/15E148 Safari/604.1",iPhone,Safari,18.4,iOS,18_4_1,https://5puzkbbxv1.cognition.run/?sona_id=52116,"en-US,en;q=0.9",wm9gtq7cdwd068g,20,"[""Asian""]",No,Male,NA,Yes,NA,1059,NA,"{""product_choice"":""B""}",choice,cdt,trinary,repulsion_A,2,washing machines,null,null,null,null,null,null,1,30,40,20,100,90,100,Average lifespan,Energy savings,NA,NA
NA,NA,NA,NA,NA,choice_trial_setup,html-keyboard-response,22,51695,0.0-4.0-0.9,125,1,2025-05-01T21:55:27Z,b60275e29fe2361ab97ac0ac217840d7,"Mozilla/5.0 (iPhone; CPU iPhone OS 18_4_1 like Mac OS X) AppleWebKit/605.1.15 (KHTML, like Gecko) Version/18.4 Mobile/15E148 Safari/604.1",iPhone,Safari,18.4,iOS,18_4_1,https://5puzkbbxv1.cognition.run/?sona_id=52116,"en-US,en;q=0.9",wm9gtq7cdwd068g,20,"[""Asian""]",No,Male,NA,Yes,NA,null,<p></p>,null,choice,ct,binary,attraction,NA,televisions,null,null,null,null,null,null,1,NA,NA,NA,NA,NA,NA,NA,NA,NA,NA
NA,NA,NA,NA,NA,choice_trial,survey-html-form,23,52608,0.0-4.0-1.9,125,1,2025-05-01T21:55:27Z,b60275e29fe2361ab97ac0ac217840d7,"Mozilla/5.0 (iPhone; CPU iPhone OS 18_4_1 like Mac OS X) AppleWebKit/605.1.15 (KHTML, like Gecko) Version/18.4 Mobile/15E148 Safari/604.1",iPhone,Safari,18.4,iOS,18_4_1,https://5puzkbbxv1.cognition.run/?sona_id=52116,"en-US,en;q=0.9",wm9gtq7cdwd068g,20,"[""Asian""]",No,Male,NA,Yes,NA,908,NA,"{""product_choice"":""B""}",choice,ct,binary,attraction,NA,televisions,null,null,null,null,null,null,1,60,50,null,50,60,null,Screen size,Average lifespan,NA,NA
NA,NA,NA,NA,NA,choice_trial_setup,html-keyboard-response,24,52912,0.0-4.0-0.10,125,1,2025-05-01T21:55:27Z,b60275e29fe2361ab97ac0ac217840d7,"Mozilla/5.0 (iPhone; CPU iPhone OS 18_4_1 like Mac OS X) AppleWebKit/605.1.15 (KHTML, like Gecko) Version/18.4 Mobile/15E148 Safari/604.1",iPhone,Safari,18.4,iOS,18_4_1,https://5puzkbbxv1.cognition.run/?sona_id=52116,"en-US,en;q=0.9",wm9gtq7cdwd068g,20,"[""Asian""]",No,Male,NA,Yes,NA,null,<p></p>,null,choice,tc,binary,attraction,NA,microwave ovens,null,null,null,null,null,null,1,NA,NA,NA,NA,NA,NA,NA,NA,NA,NA
NA,NA,NA,NA,NA,choice_trial,survey-html-form,25,53892,0.0-4.0-1.10,125,1,2025-05-01T21:55:27Z,b60275e29fe2361ab97ac0ac217840d7,"Mozilla/5.0 (iPhone; CPU iPhone OS 18_4_1 like Mac OS X) AppleWebKit/605.1.15 (KHTML, like Gecko) Version/18.4 Mobile/15E148 Safari/604.1",iPhone,Safari,18.4,iOS,18_4_1,https://5puzkbbxv1.cognition.run/?sona_id=52116,"en-US,en;q=0.9",wm9gtq7cdwd068g,20,"[""Asian""]",No,Male,NA,Yes,NA,975,NA,"{""product_choice"":""A""}",choice,tc,binary,attraction,NA,microwave ovens,null,null,null,null,null,null,1,60,50,null,50,60,null,Warranty,Cooking power,NA,NA
NA,NA,NA,NA,NA,choice_trial_setup,html-keyboard-response,26,54195,0.0-4.0-0.11,125,1,2025-05-01T21:55:27Z,b60275e29fe2361ab97ac0ac217840d7,"Mozilla/5.0 (iPhone; CPU iPhone OS 18_4_1 like Mac OS X) AppleWebKit/605.1.15 (KHTML, like Gecko) Version/18.4 Mobile/15E148 Safari/604.1",iPhone,Safari,18.4,iOS,18_4_1,https://5puzkbbxv1.cognition.run/?sona_id=52116,"en-US,en;q=0.9",wm9gtq7cdwd068g,20,"[""Asian""]",No,Male,NA,Yes,NA,null,<p></p>,null,choice,dtc,trinary,repulsion_B,1,microwave ovens,null,null,null,null,null,null,2,NA,NA,NA,NA,NA,NA,NA,NA,NA,NA
NA,NA,NA,NA,NA,choice_trial,survey-html-form,27,56926,0.0-4.0-1.11,125,1,2025-05-01T21:55:27Z,b60275e29fe2361ab97ac0ac217840d7,"Mozilla/5.0 (iPhone; CPU iPhone OS 18_4_1 like Mac OS X) AppleWebKit/605.1.15 (KHTML, like Gecko) Version/18.4 Mobile/15E148 Safari/604.1",iPhone,Safari,18.4,iOS,18_4_1,https://5puzkbbxv1.cognition.run/?sona_id=52116,"en-US,en;q=0.9",wm9gtq7cdwd068g,20,"[""Asian""]",No,Male,NA,Yes,NA,2726,NA,"{""product_choice"":""C""}",choice,dtc,trinary,repulsion_B,1,microwave ovens,null,null,null,null,null,null,2,90,100,80,40,30,40,Warranty,Cooking power,NA,NA
NA,NA,NA,NA,NA,choice_trial_setup,html-keyboard-response,28,57229,0.0-4.0-0.12,125,1,2025-05-01T21:55:27Z,b60275e29fe2361ab97ac0ac217840d7,"Mozilla/5.0 (iPhone; CPU iPhone OS 18_4_1 like Mac OS X) AppleWebKit/605.1.15 (KHTML, like Gecko) Version/18.4 Mobile/15E148 Safari/604.1",iPhone,Safari,18.4,iOS,18_4_1,https://5puzkbbxv1.cognition.run/?sona_id=52116,"en-US,en;q=0.9",wm9gtq7cdwd068g,20,"[""Asian""]",No,Male,NA,Yes,NA,null,<p></p>,null,choice,cdt,trinary,attraction,1,microwave ovens,null,null,null,null,null,null,1,NA,NA,NA,NA,NA,NA,NA,NA,NA,NA
NA,NA,NA,NA,NA,choice_trial,survey-html-form,29,58243,0.0-4.0-1.12,125,1,2025-05-01T21:55:27Z,b60275e29fe2361ab97ac0ac217840d7,"Mozilla/5.0 (iPhone; CPU iPhone OS 18_4_1 like Mac OS X) AppleWebKit/605.1.15 (KHTML, like Gecko) Version/18.4 Mobile/15E148 Safari/604.1",iPhone,Safari,18.4,iOS,18_4_1,https://5puzkbbxv1.cognition.run/?sona_id=52116,"en-US,en;q=0.9",wm9gtq7cdwd068g,20,"[""Asian""]",No,Male,NA,Yes,NA,1010,NA,"{""product_choice"":""A""}",choice,cdt,trinary,attraction,1,microwave ovens,null,null,null,null,null,null,1,60,50,60,50,60,40,Warranty,Cooking power,NA,NA
NA,NA,NA,NA,NA,choice_trial_setup,html-keyboard-response,30,58547,0.0-4.0-0.13,125,1,2025-05-01T21:55:27Z,b60275e29fe2361ab97ac0ac217840d7,"Mozilla/5.0 (iPhone; CPU iPhone OS 18_4_1 like Mac OS X) AppleWebKit/605.1.15 (KHTML, like Gecko) Version/18.4 Mobile/15E148 Safari/604.1",iPhone,Safari,18.4,iOS,18_4_1,https://5puzkbbxv1.cognition.run/?sona_id=52116,"en-US,en;q=0.9",wm9gtq7cdwd068g,20,"[""Asian""]",No,Male,NA,Yes,NA,null,<p></p>,null,choice,dtc,trinary,repulsion_A,1,washing machines,null,null,null,null,null,null,2,NA,NA,NA,NA,NA,NA,NA,NA,NA,NA
NA,NA,NA,NA,NA,choice_trial,survey-html-form,31,59661,0.0-4.0-1.13,125,1,2025-05-01T21:55:27Z,b60275e29fe2361ab97ac0ac217840d7,"Mozilla/5.0 (iPhone; CPU iPhone OS 18_4_1 like Mac OS X) AppleWebKit/605.1.15 (KHTML, like Gecko) Version/18.4 Mobile/15E148 Safari/604.1",iPhone,Safari,18.4,iOS,18_4_1,https://5puzkbbxv1.cognition.run/?sona_id=52116,"en-US,en;q=0.9",wm9gtq7cdwd068g,20,"[""Asian""]",No,Male,NA,Yes,NA,1109,NA,"{""product_choice"":""A""}",choice,dtc,trinary,repulsion_A,1,washing machines,null,null,null,null,null,null,2,100,90,100,30,40,20,Average lifespan,Energy savings,NA,NA
NA,NA,NA,NA,NA,choice_trial_setup,html-keyboard-response,32,59965,0.0-4.0-0.14,125,1,2025-05-01T21:55:27Z,b60275e29fe2361ab97ac0ac217840d7,"Mozilla/5.0 (iPhone; CPU iPhone OS 18_4_1 like Mac OS X) AppleWebKit/605.1.15 (KHTML, like Gecko) Version/18.4 Mobile/15E148 Safari/604.1",iPhone,Safari,18.4,iOS,18_4_1,https://5puzkbbxv1.cognition.run/?sona_id=52116,"en-US,en;q=0.9",wm9gtq7cdwd068g,20,"[""Asian""]",No,Male,NA,Yes,NA,null,<p></p>,null,choice,dtc,trinary,repulsion_B,1,laptops,null,null,null,null,null,null,1,NA,NA,NA,NA,NA,NA,NA,NA,NA,NA
NA,NA,NA,NA,NA,choice_trial,survey-html-form,33,65661,0.0-4.0-1.14,125,1,2025-05-01T21:55:27Z,b60275e29fe2361ab97ac0ac217840d7,"Mozilla/5.0 (iPhone; CPU iPhone OS 18_4_1 like Mac OS X) AppleWebKit/605.1.15 (KHTML, like Gecko) Version/18.4 Mobile/15E148 Safari/604.1",iPhone,Safari,18.4,iOS,18_4_1,https://5puzkbbxv1.cognition.run/?sona_id=52116,"en-US,en;q=0.9",wm9gtq7cdwd068g,20,"[""Asian""]",No,Male,NA,Yes,NA,5692,NA,"{""product_choice"":""B""}",choice,dtc,trinary,repulsion_B,1,laptops,null,null,null,null,null,null,1,90,100,80,40,30,40,Processing speed,Memory (RAM),NA,NA
NA,NA,NA,NA,NA,choice_trial_setup,html-keyboard-response,34,65965,0.0-4.0-0.15,125,1,2025-05-01T21:55:27Z,b60275e29fe2361ab97ac0ac217840d7,"Mozilla/5.0 (iPhone; CPU iPhone OS 18_4_1 like Mac OS X) AppleWebKit/605.1.15 (KHTML, like Gecko) Version/18.4 Mobile/15E148 Safari/604.1",iPhone,Safari,18.4,iOS,18_4_1,https://5puzkbbxv1.cognition.run/?sona_id=52116,"en-US,en;q=0.9",wm9gtq7cdwd068g,20,"[""Asian""]",No,Male,NA,Yes,NA,null,<p></p>,null,choice,bw,binary,catch,null,televisions,70,55,40,30,null,null,2,NA,NA,NA,NA,NA,NA,NA,NA,NA,NA
NA,NA,NA,NA,NA,choice_trial,survey-html-form,35,67493,0.0-4.0-1.15,125,1,2025-05-01T21:55:27Z,b60275e29fe2361ab97ac0ac217840d7,"Mozilla/5.0 (iPhone; CPU iPhone OS 18_4_1 like Mac OS X) AppleWebKit/605.1.15 (KHTML, like Gecko) Version/18.4 Mobile/15E148 Safari/604.1",iPhone,Safari,18.4,iOS,18_4_1,https://5puzkbbxv1.cognition.run/?sona_id=52116,"en-US,en;q=0.9",wm9gtq7cdwd068g,20,"[""Asian""]",No,Male,NA,Yes,NA,1523,NA,"{""product_choice"":""A""}",choice,bw,binary,catch,null,televisions,70,55,40,30,null,null,2,null,null,null,null,null,null,Screen size,Average lifespan,NA,NA
NA,NA,NA,NA,NA,choice_trial_setup,html-keyboard-response,36,67797,0.0-4.0-0.16,125,1,2025-05-01T21:55:27Z,b60275e29fe2361ab97ac0ac217840d7,"Mozilla/5.0 (iPhone; CPU iPhone OS 18_4_1 like Mac OS X) AppleWebKit/605.1.15 (KHTML, like Gecko) Version/18.4 Mobile/15E148 Safari/604.1",iPhone,Safari,18.4,iOS,18_4_1,https://5puzkbbxv1.cognition.run/?sona_id=52116,"en-US,en;q=0.9",wm9gtq7cdwd068g,20,"[""Asian""]",No,Male,NA,Yes,NA,null,<p></p>,null,choice,bww,trinary,catch,null,microwave ovens,50,90,45,40,35,5,2,NA,NA,NA,NA,NA,NA,NA,NA,NA,NA
NA,NA,NA,NA,NA,choice_trial,survey-html-form,37,69461,0.0-4.0-1.16,125,1,2025-05-01T21:55:27Z,b60275e29fe2361ab97ac0ac217840d7,"Mozilla/5.0 (iPhone; CPU iPhone OS 18_4_1 like Mac OS X) AppleWebKit/605.1.15 (KHTML, like Gecko) Version/18.4 Mobile/15E148 Safari/604.1",iPhone,Safari,18.4,iOS,18_4_1,https://5puzkbbxv1.cognition.run/?sona_id=52116,"en-US,en;q=0.9",wm9gtq7cdwd068g,20,"[""Asian""]",No,Male,NA,Yes,NA,1659,NA,"{""product_choice"":""C""}",choice,bww,trinary,catch,null,microwave ovens,50,90,45,40,35,5,2,null,null,null,null,null,null,Warranty,Cooking power,NA,NA
NA,NA,NA,NA,NA,choice_trial_setup,html-keyboard-response,38,69764,0.0-4.0-0.17,125,1,2025-05-01T21:55:27Z,b60275e29fe2361ab97ac0ac217840d7,"Mozilla/5.0 (iPhone; CPU iPhone OS 18_4_1 like Mac OS X) AppleWebKit/605.1.15 (KHTML, like Gecko) Version/18.4 Mobile/15E148 Safari/604.1",iPhone,Safari,18.4,iOS,18_4_1,https://5puzkbbxv1.cognition.run/?sona_id=52116,"en-US,en;q=0.9",wm9gtq7cdwd068g,20,"[""Asian""]",No,Male,NA,Yes,NA,null,<p></p>,null,choice,ct,binary,attraction,NA,laptops,null,null,null,null,null,null,2,NA,NA,NA,NA,NA,NA,NA,NA,NA,NA
NA,NA,NA,NA,NA,choice_trial,survey-html-form,39,72895,0.0-4.0-1.17,125,1,2025-05-01T21:55:27Z,b60275e29fe2361ab97ac0ac217840d7,"Mozilla/5.0 (iPhone; CPU iPhone OS 18_4_1 like Mac OS X) AppleWebKit/605.1.15 (KHTML, like Gecko) Version/18.4 Mobile/15E148 Safari/604.1",iPhone,Safari,18.4,iOS,18_4_1,https://5puzkbbxv1.cognition.run/?sona_id=52116,"en-US,en;q=0.9",wm9gtq7cdwd068g,20,"[""Asian""]",No,Male,NA,Yes,NA,3125,NA,"{""product_choice"":""B""}",choice,ct,binary,attraction,NA,laptops,null,null,null,null,null,null,2,60,50,null,50,60,null,Processing speed,Memory (RAM),NA,NA
NA,NA,NA,NA,NA,choice_trial_setup,html-keyboard-response,40,73198,0.0-4.0-0.18,125,1,2025-05-01T21:55:27Z,b60275e29fe2361ab97ac0ac217840d7,"Mozilla/5.0 (iPhone; CPU iPhone OS 18_4_1 like Mac OS X) AppleWebKit/605.1.15 (KHTML, like Gecko) Version/18.4 Mobile/15E148 Safari/604.1",iPhone,Safari,18.4,iOS,18_4_1,https://5puzkbbxv1.cognition.run/?sona_id=52116,"en-US,en;q=0.9",wm9gtq7cdwd068g,20,"[""Asian""]",No,Male,NA,Yes,NA,null,<p></p>,null,choice,tdc,trinary,attraction,2,microwave ovens,null,null,null,null,null,null,1,NA,NA,NA,NA,NA,NA,NA,NA,NA,NA
NA,NA,NA,NA,NA,choice_trial,survey-html-form,41,74194,0.0-4.0-1.18,125,1,2025-05-01T21:55:27Z,b60275e29fe2361ab97ac0ac217840d7,"Mozilla/5.0 (iPhone; CPU iPhone OS 18_4_1 like Mac OS X) AppleWebKit/605.1.15 (KHTML, like Gecko) Version/18.4 Mobile/15E148 Safari/604.1",iPhone,Safari,18.4,iOS,18_4_1,https://5puzkbbxv1.cognition.run/?sona_id=52116,"en-US,en;q=0.9",wm9gtq7cdwd068g,20,"[""Asian""]",No,Male,NA,Yes,NA,990,NA,"{""product_choice"":""A""}",choice,tdc,trinary,attraction,2,microwave ovens,null,null,null,null,null,null,1,50,60,40,60,50,60,Warranty,Cooking power,NA,NA
NA,NA,NA,NA,NA,choice_trial_setup,html-keyboard-response,42,74497,0.0-4.0-0.19,125,1,2025-05-01T21:55:27Z,b60275e29fe2361ab97ac0ac217840d7,"Mozilla/5.0 (iPhone; CPU iPhone OS 18_4_1 like Mac OS X) AppleWebKit/605.1.15 (KHTML, like Gecko) Version/18.4 Mobile/15E148 Safari/604.1",iPhone,Safari,18.4,iOS,18_4_1,https://5puzkbbxv1.cognition.run/?sona_id=52116,"en-US,en;q=0.9",wm9gtq7cdwd068g,20,"[""Asian""]",No,Male,NA,Yes,NA,null,<p></p>,null,choice,wbw,trinary,catch,null,laptops,65,75,35,5,30,25,2,NA,NA,NA,NA,NA,NA,NA,NA,NA,NA
NA,NA,NA,NA,NA,choice_trial,survey-html-form,43,76761,0.0-4.0-1.19,125,1,2025-05-01T21:55:27Z,b60275e29fe2361ab97ac0ac217840d7,"Mozilla/5.0 (iPhone; CPU iPhone OS 18_4_1 like Mac OS X) AppleWebKit/605.1.15 (KHTML, like Gecko) Version/18.4 Mobile/15E148 Safari/604.1",iPhone,Safari,18.4,iOS,18_4_1,https://5puzkbbxv1.cognition.run/?sona_id=52116,"en-US,en;q=0.9",wm9gtq7cdwd068g,20,"[""Asian""]",No,Male,NA,Yes,NA,2257,NA,"{""product_choice"":""B""}",choice,wbw,trinary,catch,null,laptops,65,75,35,5,30,25,2,null,null,null,null,null,null,Processing speed,Memory (RAM),NA,NA
NA,NA,NA,NA,NA,choice_trial_setup,html-keyboard-response,44,77065,0.0-4.0-0.20,125,1,2025-05-01T21:55:27Z,b60275e29fe2361ab97ac0ac217840d7,"Mozilla/5.0 (iPhone; CPU iPhone OS 18_4_1 like Mac OS X) AppleWebKit/605.1.15 (KHTML, like Gecko) Version/18.4 Mobile/15E148 Safari/604.1",iPhone,Safari,18.4,iOS,18_4_1,https://5puzkbbxv1.cognition.run/?sona_id=52116,"en-US,en;q=0.9",wm9gtq7cdwd068g,20,"[""Asian""]",No,Male,NA,Yes,NA,null,<p></p>,null,choice,wb,binary,catch,null,washing machines,85,75,35,15,null,null,1,NA,NA,NA,NA,NA,NA,NA,NA,NA,NA
NA,NA,NA,NA,NA,choice_trial,survey-html-form,45,87112,0.0-4.0-1.20,125,1,2025-05-01T21:55:27Z,b60275e29fe2361ab97ac0ac217840d7,"Mozilla/5.0 (iPhone; CPU iPhone OS 18_4_1 like Mac OS X) AppleWebKit/605.1.15 (KHTML, like Gecko) Version/18.4 Mobile/15E148 Safari/604.1",iPhone,Safari,18.4,iOS,18_4_1,https://5puzkbbxv1.cognition.run/?sona_id=52116,"en-US,en;q=0.9",wm9gtq7cdwd068g,20,"[""Asian""]",No,Male,NA,Yes,NA,10042,NA,"{""product_choice"":""A""}",choice,wb,binary,catch,null,washing machines,85,75,35,15,null,null,1,null,null,null,null,null,null,Average lifespan,Energy savings,NA,NA
NA,NA,NA,NA,NA,choice_trial_setup,html-keyboard-response,46,87416,0.0-4.0-0.21,125,1,2025-05-01T21:55:27Z,b60275e29fe2361ab97ac0ac217840d7,"Mozilla/5.0 (iPhone; CPU iPhone OS 18_4_1 like Mac OS X) AppleWebKit/605.1.15 (KHTML, like Gecko) Version/18.4 Mobile/15E148 Safari/604.1",iPhone,Safari,18.4,iOS,18_4_1,https://5puzkbbxv1.cognition.run/?sona_id=52116,"en-US,en;q=0.9",wm9gtq7cdwd068g,20,"[""Asian""]",No,Male,NA,Yes,NA,null,<p></p>,null,choice,dtc,trinary,attraction,2,washing machines,null,null,null,null,null,null,2,NA,NA,NA,NA,NA,NA,NA,NA,NA,NA
NA,NA,NA,NA,NA,choice_trial,survey-html-form,47,88328,0.0-4.0-1.21,125,1,2025-05-01T21:55:27Z,b60275e29fe2361ab97ac0ac217840d7,"Mozilla/5.0 (iPhone; CPU iPhone OS 18_4_1 like Mac OS X) AppleWebKit/605.1.15 (KHTML, like Gecko) Version/18.4 Mobile/15E148 Safari/604.1",iPhone,Safari,18.4,iOS,18_4_1,https://5puzkbbxv1.cognition.run/?sona_id=52116,"en-US,en;q=0.9",wm9gtq7cdwd068g,20,"[""Asian""]",No,Male,NA,Yes,NA,907,NA,"{""product_choice"":""B""}",choice,dtc,trinary,attraction,2,washing machines,null,null,null,null,null,null,2,50,60,40,60,50,60,Average lifespan,Energy savings,NA,NA
NA,NA,NA,NA,NA,choice_trial_setup,html-keyboard-response,48,88632,0.0-4.0-0.22,125,1,2025-05-01T21:55:27Z,b60275e29fe2361ab97ac0ac217840d7,"Mozilla/5.0 (iPhone; CPU iPhone OS 18_4_1 like Mac OS X) AppleWebKit/605.1.15 (KHTML, like Gecko) Version/18.4 Mobile/15E148 Safari/604.1",iPhone,Safari,18.4,iOS,18_4_1,https://5puzkbbxv1.cognition.run/?sona_id=52116,"en-US,en;q=0.9",wm9gtq7cdwd068g,20,"[""Asian""]",No,Male,NA,Yes,NA,null,<p></p>,null,choice,tcd,trinary,attraction,1,televisions,null,null,null,null,null,null,1,NA,NA,NA,NA,NA,NA,NA,NA,NA,NA
NA,NA,NA,NA,NA,choice_trial,survey-html-form,49,90195,0.0-4.0-1.22,125,1,2025-05-01T21:55:27Z,b60275e29fe2361ab97ac0ac217840d7,"Mozilla/5.0 (iPhone; CPU iPhone OS 18_4_1 like Mac OS X) AppleWebKit/605.1.15 (KHTML, like Gecko) Version/18.4 Mobile/15E148 Safari/604.1",iPhone,Safari,18.4,iOS,18_4_1,https://5puzkbbxv1.cognition.run/?sona_id=52116,"en-US,en;q=0.9",wm9gtq7cdwd068g,20,"[""Asian""]",No,Male,NA,Yes,NA,1557,NA,"{""product_choice"":""B""}",choice,tcd,trinary,attraction,1,televisions,null,null,null,null,null,null,1,60,50,60,50,60,40,Screen size,Average lifespan,NA,NA
NA,NA,NA,NA,NA,choice_trial_setup,html-keyboard-response,50,90504,0.0-4.0-0.23,125,1,2025-05-01T21:55:27Z,b60275e29fe2361ab97ac0ac217840d7,"Mozilla/5.0 (iPhone; CPU iPhone OS 18_4_1 like Mac OS X) AppleWebKit/605.1.15 (KHTML, like Gecko) Version/18.4 Mobile/15E148 Safari/604.1",iPhone,Safari,18.4,iOS,18_4_1,https://5puzkbbxv1.cognition.run/?sona_id=52116,"en-US,en;q=0.9",wm9gtq7cdwd068g,20,"[""Asian""]",No,Male,NA,Yes,NA,null,<p></p>,null,choice,tc,binary,repulsion,2,microwave ovens,null,null,null,null,null,null,1,NA,NA,NA,NA,NA,NA,NA,NA,NA,NA
NA,NA,NA,NA,NA,choice_trial,survey-html-form,51,91562,0.0-4.0-1.23,125,1,2025-05-01T21:55:27Z,b60275e29fe2361ab97ac0ac217840d7,"Mozilla/5.0 (iPhone; CPU iPhone OS 18_4_1 like Mac OS X) AppleWebKit/605.1.15 (KHTML, like Gecko) Version/18.4 Mobile/15E148 Safari/604.1",iPhone,Safari,18.4,iOS,18_4_1,https://5puzkbbxv1.cognition.run/?sona_id=52116,"en-US,en;q=0.9",wm9gtq7cdwd068g,20,"[""Asian""]",No,Male,NA,Yes,NA,1053,NA,"{""product_choice"":""B""}",choice,tc,binary,repulsion,2,microwave ovens,null,null,null,null,null,null,1,30,40,null,100,90,null,Warranty,Cooking power,NA,NA
NA,NA,NA,NA,NA,choice_trial_setup,html-keyboard-response,52,91866,0.0-4.0-0.24,125,1,2025-05-01T21:55:27Z,b60275e29fe2361ab97ac0ac217840d7,"Mozilla/5.0 (iPhone; CPU iPhone OS 18_4_1 like Mac OS X) AppleWebKit/605.1.15 (KHTML, like Gecko) Version/18.4 Mobile/15E148 Safari/604.1",iPhone,Safari,18.4,iOS,18_4_1,https://5puzkbbxv1.cognition.run/?sona_id=52116,"en-US,en;q=0.9",wm9gtq7cdwd068g,20,"[""Asian""]",No,Male,NA,Yes,NA,null,<p></p>,null,choice,ct,binary,attraction,NA,washing machines,null,null,null,null,null,null,2,NA,NA,NA,NA,NA,NA,NA,NA,NA,NA
NA,NA,NA,NA,NA,choice_trial,survey-html-form,53,92965,0.0-4.0-1.24,125,1,2025-05-01T21:55:27Z,b60275e29fe2361ab97ac0ac217840d7,"Mozilla/5.0 (iPhone; CPU iPhone OS 18_4_1 like Mac OS X) AppleWebKit/605.1.15 (KHTML, like Gecko) Version/18.4 Mobile/15E148 Safari/604.1",iPhone,Safari,18.4,iOS,18_4_1,https://5puzkbbxv1.cognition.run/?sona_id=52116,"en-US,en;q=0.9",wm9gtq7cdwd068g,20,"[""Asian""]",No,Male,NA,Yes,NA,1094,NA,"{""product_choice"":""B""}",choice,ct,binary,attraction,NA,washing machines,null,null,null,null,null,null,2,60,50,null,50,60,null,Average lifespan,Energy savings,NA,NA
NA,NA,NA,NA,NA,choice_trial_setup,html-keyboard-response,54,93269,0.0-4.0-0.25,125,1,2025-05-01T21:55:27Z,b60275e29fe2361ab97ac0ac217840d7,"Mozilla/5.0 (iPhone; CPU iPhone OS 18_4_1 like Mac OS X) AppleWebKit/605.1.15 (KHTML, like Gecko) Version/18.4 Mobile/15E148 Safari/604.1",iPhone,Safari,18.4,iOS,18_4_1,https://5puzkbbxv1.cognition.run/?sona_id=52116,"en-US,en;q=0.9",wm9gtq7cdwd068g,20,"[""Asian""]",No,Male,NA,Yes,NA,null,<p></p>,null,choice,tc,binary,repulsion,1,laptops,null,null,null,null,null,null,1,NA,NA,NA,NA,NA,NA,NA,NA,NA,NA
NA,NA,NA,NA,NA,choice_trial,survey-html-form,55,95512,0.0-4.0-1.25,125,1,2025-05-01T21:55:27Z,b60275e29fe2361ab97ac0ac217840d7,"Mozilla/5.0 (iPhone; CPU iPhone OS 18_4_1 like Mac OS X) AppleWebKit/605.1.15 (KHTML, like Gecko) Version/18.4 Mobile/15E148 Safari/604.1",iPhone,Safari,18.4,iOS,18_4_1,https://5puzkbbxv1.cognition.run/?sona_id=52116,"en-US,en;q=0.9",wm9gtq7cdwd068g,20,"[""Asian""]",No,Male,NA,Yes,NA,2238,NA,"{""product_choice"":""B""}",choice,tc,binary,repulsion,1,laptops,null,null,null,null,null,null,1,100,90,null,30,40,null,Processing speed,Memory (RAM),NA,NA
NA,NA,NA,NA,NA,choice_trial_setup,html-keyboard-response,56,95816,0.0-4.0-0.26,125,1,2025-05-01T21:55:27Z,b60275e29fe2361ab97ac0ac217840d7,"Mozilla/5.0 (iPhone; CPU iPhone OS 18_4_1 like Mac OS X) AppleWebKit/605.1.15 (KHTML, like Gecko) Version/18.4 Mobile/15E148 Safari/604.1",iPhone,Safari,18.4,iOS,18_4_1,https://5puzkbbxv1.cognition.run/?sona_id=52116,"en-US,en;q=0.9",wm9gtq7cdwd068g,20,"[""Asian""]",No,Male,NA,Yes,NA,null,<p></p>,null,choice,dtc,trinary,repulsion_A,2,televisions,null,null,null,null,null,null,1,NA,NA,NA,NA,NA,NA,NA,NA,NA,NA
NA,NA,NA,NA,NA,choice_trial,survey-html-form,57,99097,0.0-4.0-1.26,125,1,2025-05-01T21:55:27Z,b60275e29fe2361ab97ac0ac217840d7,"Mozilla/5.0 (iPhone; CPU iPhone OS 18_4_1 like Mac OS X) AppleWebKit/605.1.15 (KHTML, like Gecko) Version/18.4 Mobile/15E148 Safari/604.1",iPhone,Safari,18.4,iOS,18_4_1,https://5puzkbbxv1.cognition.run/?sona_id=52116,"en-US,en;q=0.9",wm9gtq7cdwd068g,20,"[""Asian""]",No,Male,NA,Yes,NA,3275,NA,"{""product_choice"":""B""}",choice,dtc,trinary,repulsion_A,2,televisions,null,null,null,null,null,null,1,30,40,20,100,90,100,Screen size,Average lifespan,NA,NA
NA,NA,NA,NA,NA,choice_trial_setup,html-keyboard-response,58,99400,0.0-4.0-0.27,125,1,2025-05-01T21:55:27Z,b60275e29fe2361ab97ac0ac217840d7,"Mozilla/5.0 (iPhone; CPU iPhone OS 18_4_1 like Mac OS X) AppleWebKit/605.1.15 (KHTML, like Gecko) Version/18.4 Mobile/15E148 Safari/604.1",iPhone,Safari,18.4,iOS,18_4_1,https://5puzkbbxv1.cognition.run/?sona_id=52116,"en-US,en;q=0.9",wm9gtq7cdwd068g,20,"[""Asian""]",No,Male,NA,Yes,NA,null,<p></p>,null,choice,tc,binary,repulsion,2,washing machines,null,null,null,null,null,null,1,NA,NA,NA,NA,NA,NA,NA,NA,NA,NA
NA,NA,NA,NA,NA,choice_trial,survey-html-form,59,100996,0.0-4.0-1.27,125,1,2025-05-01T21:55:27Z,b60275e29fe2361ab97ac0ac217840d7,"Mozilla/5.0 (iPhone; CPU iPhone OS 18_4_1 like Mac OS X) AppleWebKit/605.1.15 (KHTML, like Gecko) Version/18.4 Mobile/15E148 Safari/604.1",iPhone,Safari,18.4,iOS,18_4_1,https://5puzkbbxv1.cognition.run/?sona_id=52116,"en-US,en;q=0.9",wm9gtq7cdwd068g,20,"[""Asian""]",No,Male,NA,Yes,NA,1591,NA,"{""product_choice"":""A""}",choice,tc,binary,repulsion,2,washing machines,null,null,null,null,null,null,1,30,40,null,100,90,null,Average lifespan,Energy savings,NA,NA
NA,NA,NA,NA,NA,choice_trial_setup,html-keyboard-response,60,101300,0.0-4.0-0.28,125,1,2025-05-01T21:55:27Z,b60275e29fe2361ab97ac0ac217840d7,"Mozilla/5.0 (iPhone; CPU iPhone OS 18_4_1 like Mac OS X) AppleWebKit/605.1.15 (KHTML, like Gecko) Version/18.4 Mobile/15E148 Safari/604.1",iPhone,Safari,18.4,iOS,18_4_1,https://5puzkbbxv1.cognition.run/?sona_id=52116,"en-US,en;q=0.9",wm9gtq7cdwd068g,20,"[""Asian""]",No,Male,NA,Yes,NA,null,<p></p>,null,choice,ct,binary,repulsion,1,microwave ovens,null,null,null,null,null,null,1,NA,NA,NA,NA,NA,NA,NA,NA,NA,NA
NA,NA,NA,NA,NA,choice_trial,survey-html-form,61,102563,0.0-4.0-1.28,125,1,2025-05-01T21:55:27Z,b60275e29fe2361ab97ac0ac217840d7,"Mozilla/5.0 (iPhone; CPU iPhone OS 18_4_1 like Mac OS X) AppleWebKit/605.1.15 (KHTML, like Gecko) Version/18.4 Mobile/15E148 Safari/604.1",iPhone,Safari,18.4,iOS,18_4_1,https://5puzkbbxv1.cognition.run/?sona_id=52116,"en-US,en;q=0.9",wm9gtq7cdwd068g,20,"[""Asian""]",No,Male,NA,Yes,NA,1258,NA,"{""product_choice"":""B""}",choice,ct,binary,repulsion,1,microwave ovens,null,null,null,null,null,null,1,100,90,null,30,40,null,Warranty,Cooking power,NA,NA
NA,NA,NA,NA,NA,choice_trial_setup,html-keyboard-response,62,102867,0.0-4.0-0.29,125,1,2025-05-01T21:55:27Z,b60275e29fe2361ab97ac0ac217840d7,"Mozilla/5.0 (iPhone; CPU iPhone OS 18_4_1 like Mac OS X) AppleWebKit/605.1.15 (KHTML, like Gecko) Version/18.4 Mobile/15E148 Safari/604.1",iPhone,Safari,18.4,iOS,18_4_1,https://5puzkbbxv1.cognition.run/?sona_id=52116,"en-US,en;q=0.9",wm9gtq7cdwd068g,20,"[""Asian""]",No,Male,NA,Yes,NA,null,<p></p>,null,choice,cdt,trinary,repulsion_B,1,washing machines,null,null,null,null,null,null,1,NA,NA,NA,NA,NA,NA,NA,NA,NA,NA
NA,NA,NA,NA,NA,choice_trial,survey-html-form,63,104669,0.0-4.0-1.29,125,1,2025-05-01T21:55:27Z,b60275e29fe2361ab97ac0ac217840d7,"Mozilla/5.0 (iPhone; CPU iPhone OS 18_4_1 like Mac OS X) AppleWebKit/605.1.15 (KHTML, like Gecko) Version/18.4 Mobile/15E148 Safari/604.1",iPhone,Safari,18.4,iOS,18_4_1,https://5puzkbbxv1.cognition.run/?sona_id=52116,"en-US,en;q=0.9",wm9gtq7cdwd068g,20,"[""Asian""]",No,Male,NA,Yes,NA,1794,NA,"{""product_choice"":""B""}",choice,cdt,trinary,repulsion_B,1,washing machines,null,null,null,null,null,null,1,90,100,80,40,30,40,Average lifespan,Energy savings,NA,NA
NA,NA,NA,NA,NA,choice_trial_setup,html-keyboard-response,64,104973,0.0-4.0-0.30,125,1,2025-05-01T21:55:27Z,b60275e29fe2361ab97ac0ac217840d7,"Mozilla/5.0 (iPhone; CPU iPhone OS 18_4_1 like Mac OS X) AppleWebKit/605.1.15 (KHTML, like Gecko) Version/18.4 Mobile/15E148 Safari/604.1",iPhone,Safari,18.4,iOS,18_4_1,https://5puzkbbxv1.cognition.run/?sona_id=52116,"en-US,en;q=0.9",wm9gtq7cdwd068g,20,"[""Asian""]",No,Male,NA,Yes,NA,null,<p></p>,null,choice,bw,binary,catch,null,laptops,65,90,10,45,null,null,2,NA,NA,NA,NA,NA,NA,NA,NA,NA,NA
NA,NA,NA,NA,NA,choice_trial,survey-html-form,65,106098,0.0-4.0-1.30,125,1,2025-05-01T21:55:27Z,b60275e29fe2361ab97ac0ac217840d7,"Mozilla/5.0 (iPhone; CPU iPhone OS 18_4_1 like Mac OS X) AppleWebKit/605.1.15 (KHTML, like Gecko) Version/18.4 Mobile/15E148 Safari/604.1",iPhone,Safari,18.4,iOS,18_4_1,https://5puzkbbxv1.cognition.run/?sona_id=52116,"en-US,en;q=0.9",wm9gtq7cdwd068g,20,"[""Asian""]",No,Male,NA,Yes,NA,1120,NA,"{""product_choice"":""B""}",choice,bw,binary,catch,null,laptops,65,90,10,45,null,null,2,null,null,null,null,null,null,Processing speed,Memory (RAM),NA,NA
NA,NA,NA,NA,NA,choice_trial_setup,html-keyboard-response,66,106403,0.0-4.0-0.31,125,1,2025-05-01T21:55:27Z,b60275e29fe2361ab97ac0ac217840d7,"Mozilla/5.0 (iPhone; CPU iPhone OS 18_4_1 like Mac OS X) AppleWebKit/605.1.15 (KHTML, like Gecko) Version/18.4 Mobile/15E148 Safari/604.1",iPhone,Safari,18.4,iOS,18_4_1,https://5puzkbbxv1.cognition.run/?sona_id=52116,"en-US,en;q=0.9",wm9gtq7cdwd068g,20,"[""Asian""]",No,Male,NA,Yes,NA,null,<p></p>,null,choice,dtc,trinary,repulsion_B,2,laptops,null,null,null,null,null,null,1,NA,NA,NA,NA,NA,NA,NA,NA,NA,NA
NA,NA,NA,NA,NA,choice_trial,survey-html-form,67,108868,0.0-4.0-1.31,125,1,2025-05-01T21:55:27Z,b60275e29fe2361ab97ac0ac217840d7,"Mozilla/5.0 (iPhone; CPU iPhone OS 18_4_1 like Mac OS X) AppleWebKit/605.1.15 (KHTML, like Gecko) Version/18.4 Mobile/15E148 Safari/604.1",iPhone,Safari,18.4,iOS,18_4_1,https://5puzkbbxv1.cognition.run/?sona_id=52116,"en-US,en;q=0.9",wm9gtq7cdwd068g,20,"[""Asian""]",No,Male,NA,Yes,NA,2460,NA,"{""product_choice"":""C""}",choice,dtc,trinary,repulsion_B,2,laptops,null,null,null,null,null,null,1,40,30,40,90,100,80,Processing speed,Memory (RAM),NA,NA
NA,NA,NA,NA,NA,choice_trial_setup,html-keyboard-response,68,109172,0.0-4.0-0.32,125,1,2025-05-01T21:55:27Z,b60275e29fe2361ab97ac0ac217840d7,"Mozilla/5.0 (iPhone; CPU iPhone OS 18_4_1 like Mac OS X) AppleWebKit/605.1.15 (KHTML, like Gecko) Version/18.4 Mobile/15E148 Safari/604.1",iPhone,Safari,18.4,iOS,18_4_1,https://5puzkbbxv1.cognition.run/?sona_id=52116,"en-US,en;q=0.9",wm9gtq7cdwd068g,20,"[""Asian""]",No,Male,NA,Yes,NA,null,<p></p>,null,choice,dct,trinary,repulsion_B,2,televisions,null,null,null,null,null,null,2,NA,NA,NA,NA,NA,NA,NA,NA,NA,NA
NA,NA,NA,NA,NA,choice_trial,survey-html-form,69,110347,0.0-4.0-1.32,125,1,2025-05-01T21:55:27Z,b60275e29fe2361ab97ac0ac217840d7,"Mozilla/5.0 (iPhone; CPU iPhone OS 18_4_1 like Mac OS X) AppleWebKit/605.1.15 (KHTML, like Gecko) Version/18.4 Mobile/15E148 Safari/604.1",iPhone,Safari,18.4,iOS,18_4_1,https://5puzkbbxv1.cognition.run/?sona_id=52116,"en-US,en;q=0.9",wm9gtq7cdwd068g,20,"[""Asian""]",No,Male,NA,Yes,NA,1169,NA,"{""product_choice"":""C""}",choice,dct,trinary,repulsion_B,2,televisions,null,null,null,null,null,null,2,40,30,40,90,100,80,Screen size,Average lifespan,NA,NA
NA,NA,NA,NA,NA,choice_trial_setup,html-keyboard-response,70,110652,0.0-4.0-0.33,125,1,2025-05-01T21:55:27Z,b60275e29fe2361ab97ac0ac217840d7,"Mozilla/5.0 (iPhone; CPU iPhone OS 18_4_1 like Mac OS X) AppleWebKit/605.1.15 (KHTML, like Gecko) Version/18.4 Mobile/15E148 Safari/604.1",iPhone,Safari,18.4,iOS,18_4_1,https://5puzkbbxv1.cognition.run/?sona_id=52116,"en-US,en;q=0.9",wm9gtq7cdwd068g,20,"[""Asian""]",No,Male,NA,Yes,NA,null,<p></p>,null,choice,tcd,trinary,attraction,1,washing machines,null,null,null,null,null,null,2,NA,NA,NA,NA,NA,NA,NA,NA,NA,NA
NA,NA,NA,NA,NA,choice_trial,survey-html-form,71,111698,0.0-4.0-1.33,125,1,2025-05-01T21:55:27Z,b60275e29fe2361ab97ac0ac217840d7,"Mozilla/5.0 (iPhone; CPU iPhone OS 18_4_1 like Mac OS X) AppleWebKit/605.1.15 (KHTML, like Gecko) Version/18.4 Mobile/15E148 Safari/604.1",iPhone,Safari,18.4,iOS,18_4_1,https://5puzkbbxv1.cognition.run/?sona_id=52116,"en-US,en;q=0.9",wm9gtq7cdwd068g,20,"[""Asian""]",No,Male,NA,Yes,NA,1041,NA,"{""product_choice"":""B""}",choice,tcd,trinary,attraction,1,washing machines,null,null,null,null,null,null,2,60,50,60,50,60,40,Average lifespan,Energy savings,NA,NA
NA,NA,NA,NA,NA,choice_trial_setup,html-keyboard-response,72,112006,0.0-4.0-0.34,125,1,2025-05-01T21:55:27Z,b60275e29fe2361ab97ac0ac217840d7,"Mozilla/5.0 (iPhone; CPU iPhone OS 18_4_1 like Mac OS X) AppleWebKit/605.1.15 (KHTML, like Gecko) Version/18.4 Mobile/15E148 Safari/604.1",iPhone,Safari,18.4,iOS,18_4_1,https://5puzkbbxv1.cognition.run/?sona_id=52116,"en-US,en;q=0.9",wm9gtq7cdwd068g,20,"[""Asian""]",No,Male,NA,Yes,NA,null,<p></p>,null,choice,wwb,trinary,catch,null,washing machines,55,75,15,35,30,50,2,NA,NA,NA,NA,NA,NA,NA,NA,NA,NA
NA,NA,NA,NA,NA,choice_trial,survey-html-form,73,122016,0.0-4.0-1.34,125,1,2025-05-01T21:55:27Z,b60275e29fe2361ab97ac0ac217840d7,"Mozilla/5.0 (iPhone; CPU iPhone OS 18_4_1 like Mac OS X) AppleWebKit/605.1.15 (KHTML, like Gecko) Version/18.4 Mobile/15E148 Safari/604.1",iPhone,Safari,18.4,iOS,18_4_1,https://5puzkbbxv1.cognition.run/?sona_id=52116,"en-US,en;q=0.9",wm9gtq7cdwd068g,20,"[""Asian""]",No,Male,NA,Yes,NA,10005,NA,"{""product_choice"":""B""}",choice,wwb,trinary,catch,null,washing machines,55,75,15,35,30,50,2,null,null,null,null,null,null,Average lifespan,Energy savings,NA,NA
NA,NA,NA,NA,NA,choice_trial_setup,html-keyboard-response,74,122320,0.0-4.0-0.35,125,1,2025-05-01T21:55:27Z,b60275e29fe2361ab97ac0ac217840d7,"Mozilla/5.0 (iPhone; CPU iPhone OS 18_4_1 like Mac OS X) AppleWebKit/605.1.15 (KHTML, like Gecko) Version/18.4 Mobile/15E148 Safari/604.1",iPhone,Safari,18.4,iOS,18_4_1,https://5puzkbbxv1.cognition.run/?sona_id=52116,"en-US,en;q=0.9",wm9gtq7cdwd068g,20,"[""Asian""]",No,Male,NA,Yes,NA,null,<p></p>,null,choice,ctd,trinary,repulsion_B,1,televisions,null,null,null,null,null,null,2,NA,NA,NA,NA,NA,NA,NA,NA,NA,NA
NA,NA,NA,NA,NA,choice_trial,survey-html-form,75,123332,0.0-4.0-1.35,125,1,2025-05-01T21:55:27Z,b60275e29fe2361ab97ac0ac217840d7,"Mozilla/5.0 (iPhone; CPU iPhone OS 18_4_1 like Mac OS X) AppleWebKit/605.1.15 (KHTML, like Gecko) Version/18.4 Mobile/15E148 Safari/604.1",iPhone,Safari,18.4,iOS,18_4_1,https://5puzkbbxv1.cognition.run/?sona_id=52116,"en-US,en;q=0.9",wm9gtq7cdwd068g,20,"[""Asian""]",No,Male,NA,Yes,NA,1005,NA,"{""product_choice"":""B""}",choice,ctd,trinary,repulsion_B,1,televisions,null,null,null,null,null,null,2,90,100,80,40,30,40,Screen size,Average lifespan,NA,NA
NA,NA,NA,NA,NA,choice_trial_setup,html-keyboard-response,76,123636,0.0-4.0-0.36,125,1,2025-05-01T21:55:27Z,b60275e29fe2361ab97ac0ac217840d7,"Mozilla/5.0 (iPhone; CPU iPhone OS 18_4_1 like Mac OS X) AppleWebKit/605.1.15 (KHTML, like Gecko) Version/18.4 Mobile/15E148 Safari/604.1",iPhone,Safari,18.4,iOS,18_4_1,https://5puzkbbxv1.cognition.run/?sona_id=52116,"en-US,en;q=0.9",wm9gtq7cdwd068g,20,"[""Asian""]",No,Male,NA,Yes,NA,null,<p></p>,null,choice,ctd,trinary,repulsion_B,2,washing machines,null,null,null,null,null,null,2,NA,NA,NA,NA,NA,NA,NA,NA,NA,NA
NA,NA,NA,NA,NA,choice_trial,survey-html-form,77,124532,0.0-4.0-1.36,125,1,2025-05-01T21:55:27Z,b60275e29fe2361ab97ac0ac217840d7,"Mozilla/5.0 (iPhone; CPU iPhone OS 18_4_1 like Mac OS X) AppleWebKit/605.1.15 (KHTML, like Gecko) Version/18.4 Mobile/15E148 Safari/604.1",iPhone,Safari,18.4,iOS,18_4_1,https://5puzkbbxv1.cognition.run/?sona_id=52116,"en-US,en;q=0.9",wm9gtq7cdwd068g,20,"[""Asian""]",No,Male,NA,Yes,NA,889,NA,"{""product_choice"":""B""}",choice,ctd,trinary,repulsion_B,2,washing machines,null,null,null,null,null,null,2,40,30,40,90,100,80,Average lifespan,Energy savings,NA,NA
NA,NA,NA,NA,NA,choice_trial_setup,html-keyboard-response,78,124836,0.0-4.0-0.37,125,1,2025-05-01T21:55:27Z,b60275e29fe2361ab97ac0ac217840d7,"Mozilla/5.0 (iPhone; CPU iPhone OS 18_4_1 like Mac OS X) AppleWebKit/605.1.15 (KHTML, like Gecko) Version/18.4 Mobile/15E148 Safari/604.1",iPhone,Safari,18.4,iOS,18_4_1,https://5puzkbbxv1.cognition.run/?sona_id=52116,"en-US,en;q=0.9",wm9gtq7cdwd068g,20,"[""Asian""]",No,Male,NA,Yes,NA,null,<p></p>,null,choice,dct,trinary,attraction,2,laptops,null,null,null,null,null,null,2,NA,NA,NA,NA,NA,NA,NA,NA,NA,NA
NA,NA,NA,NA,NA,choice_trial,survey-html-form,79,125685,0.0-4.0-1.37,125,1,2025-05-01T21:55:27Z,b60275e29fe2361ab97ac0ac217840d7,"Mozilla/5.0 (iPhone; CPU iPhone OS 18_4_1 like Mac OS X) AppleWebKit/605.1.15 (KHTML, like Gecko) Version/18.4 Mobile/15E148 Safari/604.1",iPhone,Safari,18.4,iOS,18_4_1,https://5puzkbbxv1.cognition.run/?sona_id=52116,"en-US,en;q=0.9",wm9gtq7cdwd068g,20,"[""Asian""]",No,Male,NA,Yes,NA,843,NA,"{""product_choice"":""B""}",choice,dct,trinary,attraction,2,laptops,null,null,null,null,null,null,2,50,60,40,60,50,60,Processing speed,Memory (RAM),NA,NA
NA,NA,NA,NA,NA,choice_trial_setup,html-keyboard-response,80,125989,0.0-4.0-0.38,125,1,2025-05-01T21:55:27Z,b60275e29fe2361ab97ac0ac217840d7,"Mozilla/5.0 (iPhone; CPU iPhone OS 18_4_1 like Mac OS X) AppleWebKit/605.1.15 (KHTML, like Gecko) Version/18.4 Mobile/15E148 Safari/604.1",iPhone,Safari,18.4,iOS,18_4_1,https://5puzkbbxv1.cognition.run/?sona_id=52116,"en-US,en;q=0.9",wm9gtq7cdwd068g,20,"[""Asian""]",No,Male,NA,Yes,NA,null,<p></p>,null,choice,wwb,trinary,catch,null,televisions,85,95,5,35,50,45,1,NA,NA,NA,NA,NA,NA,NA,NA,NA,NA
NA,NA,NA,NA,NA,choice_trial,survey-html-form,81,126865,0.0-4.0-1.38,125,1,2025-05-01T21:55:27Z,b60275e29fe2361ab97ac0ac217840d7,"Mozilla/5.0 (iPhone; CPU iPhone OS 18_4_1 like Mac OS X) AppleWebKit/605.1.15 (KHTML, like Gecko) Version/18.4 Mobile/15E148 Safari/604.1",iPhone,Safari,18.4,iOS,18_4_1,https://5puzkbbxv1.cognition.run/?sona_id=52116,"en-US,en;q=0.9",wm9gtq7cdwd068g,20,"[""Asian""]",No,Male,NA,Yes,NA,869,NA,"{""product_choice"":""B""}",choice,wwb,trinary,catch,null,televisions,85,95,5,35,50,45,1,null,null,null,null,null,null,Screen size,Average lifespan,NA,NA
NA,NA,NA,NA,NA,choice_trial_setup,html-keyboard-response,82,127169,0.0-4.0-0.39,125,1,2025-05-01T21:55:27Z,b60275e29fe2361ab97ac0ac217840d7,"Mozilla/5.0 (iPhone; CPU iPhone OS 18_4_1 like Mac OS X) AppleWebKit/605.1.15 (KHTML, like Gecko) Version/18.4 Mobile/15E148 Safari/604.1",iPhone,Safari,18.4,iOS,18_4_1,https://5puzkbbxv1.cognition.run/?sona_id=52116,"en-US,en;q=0.9",wm9gtq7cdwd068g,20,"[""Asian""]",No,Male,NA,Yes,NA,null,<p></p>,null,choice,tc,binary,repulsion,2,televisions,null,null,null,null,null,null,1,NA,NA,NA,NA,NA,NA,NA,NA,NA,NA
NA,NA,NA,NA,NA,choice_trial,survey-html-form,83,128967,0.0-4.0-1.39,125,1,2025-05-01T21:55:27Z,b60275e29fe2361ab97ac0ac217840d7,"Mozilla/5.0 (iPhone; CPU iPhone OS 18_4_1 like Mac OS X) AppleWebKit/605.1.15 (KHTML, like Gecko) Version/18.4 Mobile/15E148 Safari/604.1",iPhone,Safari,18.4,iOS,18_4_1,https://5puzkbbxv1.cognition.run/?sona_id=52116,"en-US,en;q=0.9",wm9gtq7cdwd068g,20,"[""Asian""]",No,Male,NA,Yes,NA,1791,NA,"{""product_choice"":""B""}",choice,tc,binary,repulsion,2,televisions,null,null,null,null,null,null,1,30,40,null,100,90,null,Screen size,Average lifespan,NA,NA
NA,NA,NA,NA,NA,choice_trial_setup,html-keyboard-response,84,129272,0.0-4.0-0.40,125,1,2025-05-01T21:55:27Z,b60275e29fe2361ab97ac0ac217840d7,"Mozilla/5.0 (iPhone; CPU iPhone OS 18_4_1 like Mac OS X) AppleWebKit/605.1.15 (KHTML, like Gecko) Version/18.4 Mobile/15E148 Safari/604.1",iPhone,Safari,18.4,iOS,18_4_1,https://5puzkbbxv1.cognition.run/?sona_id=52116,"en-US,en;q=0.9",wm9gtq7cdwd068g,20,"[""Asian""]",No,Male,NA,Yes,NA,null,<p></p>,null,choice,cdt,trinary,attraction,1,laptops,null,null,null,null,null,null,1,NA,NA,NA,NA,NA,NA,NA,NA,NA,NA
NA,NA,NA,NA,NA,choice_trial,survey-html-form,85,130117,0.0-4.0-1.40,125,1,2025-05-01T21:55:27Z,b60275e29fe2361ab97ac0ac217840d7,"Mozilla/5.0 (iPhone; CPU iPhone OS 18_4_1 like Mac OS X) AppleWebKit/605.1.15 (KHTML, like Gecko) Version/18.4 Mobile/15E148 Safari/604.1",iPhone,Safari,18.4,iOS,18_4_1,https://5puzkbbxv1.cognition.run/?sona_id=52116,"en-US,en;q=0.9",wm9gtq7cdwd068g,20,"[""Asian""]",No,Male,NA,Yes,NA,837,NA,"{""product_choice"":""B""}",choice,cdt,trinary,attraction,1,laptops,null,null,null,null,null,null,1,60,50,60,50,60,40,Processing speed,Memory (RAM),NA,NA
NA,NA,NA,NA,NA,choice_trial_setup,html-keyboard-response,86,130421,0.0-4.0-0.41,125,1,2025-05-01T21:55:27Z,b60275e29fe2361ab97ac0ac217840d7,"Mozilla/5.0 (iPhone; CPU iPhone OS 18_4_1 like Mac OS X) AppleWebKit/605.1.15 (KHTML, like Gecko) Version/18.4 Mobile/15E148 Safari/604.1",iPhone,Safari,18.4,iOS,18_4_1,https://5puzkbbxv1.cognition.run/?sona_id=52116,"en-US,en;q=0.9",wm9gtq7cdwd068g,20,"[""Asian""]",No,Male,NA,Yes,NA,null,<p></p>,null,choice,tdc,trinary,repulsion_A,2,microwave ovens,null,null,null,null,null,null,2,NA,NA,NA,NA,NA,NA,NA,NA,NA,NA
NA,NA,NA,NA,NA,choice_trial,survey-html-form,87,131283,0.0-4.0-1.41,125,1,2025-05-01T21:55:27Z,b60275e29fe2361ab97ac0ac217840d7,"Mozilla/5.0 (iPhone; CPU iPhone OS 18_4_1 like Mac OS X) AppleWebKit/605.1.15 (KHTML, like Gecko) Version/18.4 Mobile/15E148 Safari/604.1",iPhone,Safari,18.4,iOS,18_4_1,https://5puzkbbxv1.cognition.run/?sona_id=52116,"en-US,en;q=0.9",wm9gtq7cdwd068g,20,"[""Asian""]",No,Male,NA,Yes,NA,856,NA,"{""product_choice"":""B""}",choice,tdc,trinary,repulsion_A,2,microwave ovens,null,null,null,null,null,null,2,30,40,20,100,90,100,Warranty,Cooking power,NA,NA
NA,NA,NA,NA,NA,choice_trial_setup,html-keyboard-response,88,131588,0.0-4.0-0.42,125,1,2025-05-01T21:55:27Z,b60275e29fe2361ab97ac0ac217840d7,"Mozilla/5.0 (iPhone; CPU iPhone OS 18_4_1 like Mac OS X) AppleWebKit/605.1.15 (KHTML, like Gecko) Version/18.4 Mobile/15E148 Safari/604.1",iPhone,Safari,18.4,iOS,18_4_1,https://5puzkbbxv1.cognition.run/?sona_id=52116,"en-US,en;q=0.9",wm9gtq7cdwd068g,20,"[""Asian""]",No,Male,NA,Yes,NA,null,<p></p>,null,choice,tdc,trinary,repulsion_B,2,microwave ovens,null,null,null,null,null,null,2,NA,NA,NA,NA,NA,NA,NA,NA,NA,NA
NA,NA,NA,NA,NA,choice_trial,survey-html-form,89,133682,0.0-4.0-1.42,125,1,2025-05-01T21:55:27Z,b60275e29fe2361ab97ac0ac217840d7,"Mozilla/5.0 (iPhone; CPU iPhone OS 18_4_1 like Mac OS X) AppleWebKit/605.1.15 (KHTML, like Gecko) Version/18.4 Mobile/15E148 Safari/604.1",iPhone,Safari,18.4,iOS,18_4_1,https://5puzkbbxv1.cognition.run/?sona_id=52116,"en-US,en;q=0.9",wm9gtq7cdwd068g,20,"[""Asian""]",No,Male,NA,Yes,NA,2084,NA,"{""product_choice"":""B""}",choice,tdc,trinary,repulsion_B,2,microwave ovens,null,null,null,null,null,null,2,40,30,40,90,100,80,Warranty,Cooking power,NA,NA
NA,NA,NA,NA,NA,choice_trial_setup,html-keyboard-response,90,133986,0.0-4.0-0.43,125,1,2025-05-01T21:55:27Z,b60275e29fe2361ab97ac0ac217840d7,"Mozilla/5.0 (iPhone; CPU iPhone OS 18_4_1 like Mac OS X) AppleWebKit/605.1.15 (KHTML, like Gecko) Version/18.4 Mobile/15E148 Safari/604.1",iPhone,Safari,18.4,iOS,18_4_1,https://5puzkbbxv1.cognition.run/?sona_id=52116,"en-US,en;q=0.9",wm9gtq7cdwd068g,20,"[""Asian""]",No,Male,NA,Yes,NA,null,<p></p>,null,choice,bw,binary,catch,null,microwave ovens,55,80,10,40,null,null,2,NA,NA,NA,NA,NA,NA,NA,NA,NA,NA
NA,NA,NA,NA,NA,choice_trial,survey-html-form,91,135636,0.0-4.0-1.43,125,1,2025-05-01T21:55:27Z,b60275e29fe2361ab97ac0ac217840d7,"Mozilla/5.0 (iPhone; CPU iPhone OS 18_4_1 like Mac OS X) AppleWebKit/605.1.15 (KHTML, like Gecko) Version/18.4 Mobile/15E148 Safari/604.1",iPhone,Safari,18.4,iOS,18_4_1,https://5puzkbbxv1.cognition.run/?sona_id=52116,"en-US,en;q=0.9",wm9gtq7cdwd068g,20,"[""Asian""]",No,Male,NA,Yes,NA,1643,NA,"{""product_choice"":""A""}",choice,bw,binary,catch,null,microwave ovens,55,80,10,40,null,null,2,null,null,null,null,null,null,Warranty,Cooking power,NA,NA
NA,NA,NA,NA,NA,post_trials_message,html-button-response,92,136863,0.0-5.0,125,1,2025-05-01T21:55:27Z,b60275e29fe2361ab97ac0ac217840d7,"Mozilla/5.0 (iPhone; CPU iPhone OS 18_4_1 like Mac OS X) AppleWebKit/605.1.15 (KHTML, like Gecko) Version/18.4 Mobile/15E148 Safari/604.1",iPhone,Safari,18.4,iOS,18_4_1,https://5puzkbbxv1.cognition.run/?sona_id=52116,"en-US,en;q=0.9",wm9gtq7cdwd068g,20,"[""Asian""]",No,Male,NA,Yes,NA,1222,<p> <b>Thank you for your patience!</b></p><p>  The study will be done after completing a brief form. </p>,0,NA,NA,NA,NA,NA,NA,NA,NA,NA,NA,NA,NA,NA,NA,NA,NA,NA,NA,NA,NA,NA,NA,NA
NA,NA,NA,NA,NA,survey_message,survey-text,93,187991,0.0-6.0,125,1,2025-05-01T21:55:27Z,b60275e29fe2361ab97ac0ac217840d7,"Mozilla/5.0 (iPhone; CPU iPhone OS 18_4_1 like Mac OS X) AppleWebKit/605.1.15 (KHTML, like Gecko) Version/18.4 Mobile/15E148 Safari/604.1",iPhone,Safari,18.4,iOS,18_4_1,https://5puzkbbxv1.cognition.run/?sona_id=52116,"en-US,en;q=0.9",wm9gtq7cdwd068g,20,"[""Asian""]",No,Male,NA,Yes,NA,51110,NA,"{""Q0"":""I decided to weigh my options of how the distribution of points were made. I believe whenever the most fair option was presented I chose it. ""}",NA,NA,NA,NA,NA,NA,NA,NA,NA,NA,NA,NA,NA,NA,NA,NA,NA,NA,NA,NA,NA,I decided to weigh my options of how the distribution of points were made. I believe whenever the most fair option was presented I chose it.,NA
NA,NA,NA,NA,NA,demo_age,survey-text,94,189879,0.0-7.0,125,1,2025-05-01T21:55:27Z,b60275e29fe2361ab97ac0ac217840d7,"Mozilla/5.0 (iPhone; CPU iPhone OS 18_4_1 like Mac OS X) AppleWebKit/605.1.15 (KHTML, like Gecko) Version/18.4 Mobile/15E148 Safari/604.1",iPhone,Safari,18.4,iOS,18_4_1,https://5puzkbbxv1.cognition.run/?sona_id=52116,"en-US,en;q=0.9",wm9gtq7cdwd068g,20,"[""Asian""]",No,Male,NA,Yes,NA,1879,NA,"{""Q0"":""20""}",NA,NA,NA,NA,NA,NA,NA,NA,NA,NA,NA,NA,NA,NA,NA,NA,NA,NA,NA,NA,NA,NA,NA
NA,NA,NA,NA,NA,demo_race,survey-multi-select,95,191164,0.0-8.0,125,1,2025-05-01T21:55:27Z,b60275e29fe2361ab97ac0ac217840d7,"Mozilla/5.0 (iPhone; CPU iPhone OS 18_4_1 like Mac OS X) AppleWebKit/605.1.15 (KHTML, like Gecko) Version/18.4 Mobile/15E148 Safari/604.1",iPhone,Safari,18.4,iOS,18_4_1,https://5puzkbbxv1.cognition.run/?sona_id=52116,"en-US,en;q=0.9",wm9gtq7cdwd068g,20,"[""Asian""]",No,Male,NA,Yes,NA,1280,NA,"{""Q0"":[""Asian""]}",NA,NA,NA,NA,NA,NA,NA,NA,NA,NA,NA,NA,NA,NA,NA,NA,NA,NA,NA,NA,NA,NA,[0]
NA,NA,NA,NA,NA,demo_ethnicity_gender,survey-multi-choice,96,193531,0.0-9.0,125,1,2025-05-01T21:55:27Z,b60275e29fe2361ab97ac0ac217840d7,"Mozilla/5.0 (iPhone; CPU iPhone OS 18_4_1 like Mac OS X) AppleWebKit/605.1.15 (KHTML, like Gecko) Version/18.4 Mobile/15E148 Safari/604.1",iPhone,Safari,18.4,iOS,18_4_1,https://5puzkbbxv1.cognition.run/?sona_id=52116,"en-US,en;q=0.9",wm9gtq7cdwd068g,20,"[""Asian""]",No,Male,NA,Yes,NA,2361,NA,"{""Q0"":""No"",""Q1"":""Male""}",NA,NA,NA,NA,NA,NA,NA,NA,NA,NA,NA,NA,NA,NA,NA,NA,NA,NA,NA,NA,NA,NA,"[0,1]"
NA,NA,NA,NA,NA,demo_countries,survey-text,97,199870,0.0-10.0,125,1,2025-05-01T21:55:27Z,b60275e29fe2361ab97ac0ac217840d7,"Mozilla/5.0 (iPhone; CPU iPhone OS 18_4_1 like Mac OS X) AppleWebKit/605.1.15 (KHTML, like Gecko) Version/18.4 Mobile/15E148 Safari/604.1",iPhone,Safari,18.4,iOS,18_4_1,https://5puzkbbxv1.cognition.run/?sona_id=52116,"en-US,en;q=0.9",wm9gtq7cdwd068g,20,"[""Asian""]",No,Male,NA,Yes,NA,6332,NA,"{""Q0"":""NA""}",NA,NA,NA,NA,NA,NA,NA,NA,NA,NA,NA,NA,NA,NA,NA,NA,NA,NA,NA,NA,NA,NA,NA
NA,NA,NA,NA,NA,demo_prev_study,survey-multi-choice,98,205731,0.0-11.0,125,1,2025-05-01T21:55:27Z,b60275e29fe2361ab97ac0ac217840d7,"Mozilla/5.0 (iPhone; CPU iPhone OS 18_4_1 like Mac OS X) AppleWebKit/605.1.15 (KHTML, like Gecko) Version/18.4 Mobile/15E148 Safari/604.1",iPhone,Safari,18.4,iOS,18_4_1,https://5puzkbbxv1.cognition.run/?sona_id=52116,"en-US,en;q=0.9",wm9gtq7cdwd068g,20,"[""Asian""]",No,Male,NA,Yes,NA,5857,NA,"{""Q0"":""Yes""}",NA,NA,NA,NA,NA,NA,NA,NA,NA,NA,NA,NA,NA,NA,NA,NA,NA,NA,NA,NA,NA,NA,[0]
