success,timeout,failed_images,failed_audio,failed_video,screen_id,trial_type,trial_index,time_elapsed,internal_node_id,run_id,condition,recorded_at,source_code_version,user_agent,device,browser,browser_version,platform,platform_version,referer,accept_language,ppt_id,age,race,ethnicity,gender,other_countries,prev_study,exp_duration,view_history,rt,stimulus,response,phase,order,set,effect,t_high,category,d1_best,d2_best,d1_worst1,d2_worst1,d1_worst2,d2_worst2,first_dim,d1_t,d1_c,d1_d,d2_t,d2_c,d2_d,d1_name,d2_name,strategy_response,question_order
TRUE,FALSE,[],[],[],img preload,preload,0,168,0.0-0.0,127,1,2025-05-01T22:07:52Z,b60275e29fe2361ab97ac0ac217840d7,"Mozilla/5.0 (Macintosh; Intel Mac OS X 10_15_7) AppleWebKit/537.36 (KHTML, like Gecko) Chrome/116.0.0.0 Safari/537.36",Macintosh,Chrome,116.0.0.0,OS X,10_15_7,https://5puzkbbxv1.cognition.run/?sona_id=57701,"en-US,en;q=0.9",7xfsynk95c8myzp,19,"[""Asian""]",No,Female,NA,No,395525.89999997616,NA,NA,NA,NA,NA,NA,NA,NA,NA,NA,NA,NA,NA,NA,NA,NA,NA,NA,NA,NA,NA,NA,NA,NA,NA,NA,NA
NA,NA,NA,NA,NA,computer_message,instructions,1,2243,0.0-1.0,127,1,2025-05-01T22:07:52Z,b60275e29fe2361ab97ac0ac217840d7,"Mozilla/5.0 (Macintosh; Intel Mac OS X 10_15_7) AppleWebKit/537.36 (KHTML, like Gecko) Chrome/116.0.0.0 Safari/537.36",Macintosh,Chrome,116.0.0.0,OS X,10_15_7,https://5puzkbbxv1.cognition.run/?sona_id=57701,"en-US,en;q=0.9",7xfsynk95c8myzp,19,"[""Asian""]",No,Female,NA,No,395525.89999997616,"[{""page_index"":0,""viewing_time"":2074}]",2075,NA,NA,NA,NA,NA,NA,NA,NA,NA,NA,NA,NA,NA,NA,NA,NA,NA,NA,NA,NA,NA,NA,NA,NA,NA
TRUE,NA,NA,NA,NA,NA,fullscreen,2,5829,0.0-2.0,127,1,2025-05-01T22:07:52Z,b60275e29fe2361ab97ac0ac217840d7,"Mozilla/5.0 (Macintosh; Intel Mac OS X 10_15_7) AppleWebKit/537.36 (KHTML, like Gecko) Chrome/116.0.0.0 Safari/537.36",Macintosh,Chrome,116.0.0.0,OS X,10_15_7,https://5puzkbbxv1.cognition.run/?sona_id=57701,"en-US,en;q=0.9",7xfsynk95c8myzp,19,"[""Asian""]",No,Female,NA,No,395525.89999997616,NA,2575,NA,NA,NA,NA,NA,NA,NA,NA,NA,NA,NA,NA,NA,NA,NA,NA,NA,NA,NA,NA,NA,NA,NA,NA,NA
NA,NA,NA,NA,NA,choice_instructions,instructions,3,48163,0.0-3.0,127,1,2025-05-01T22:07:52Z,b60275e29fe2361ab97ac0ac217840d7,"Mozilla/5.0 (Macintosh; Intel Mac OS X 10_15_7) AppleWebKit/537.36 (KHTML, like Gecko) Chrome/116.0.0.0 Safari/537.36",Macintosh,Chrome,116.0.0.0,OS X,10_15_7,https://5puzkbbxv1.cognition.run/?sona_id=57701,"en-US,en;q=0.9",7xfsynk95c8myzp,19,"[""Asian""]",No,Female,NA,No,395525.89999997616,"[{""page_index"":0,""viewing_time"":1603},{""page_index"":1,""viewing_time"":5072},{""page_index"":2,""viewing_time"":7346},{""page_index"":3,""viewing_time"":3311},{""page_index"":4,""viewing_time"":1825},{""page_index"":5,""viewing_time"":18152},{""page_index"":6,""viewing_time"":5023}]",42332,NA,NA,NA,NA,NA,NA,NA,NA,NA,NA,NA,NA,NA,NA,NA,NA,NA,NA,NA,NA,NA,NA,NA,NA,NA
NA,NA,NA,NA,NA,choice_trial_setup,html-keyboard-response,4,48476,0.0-4.0-0.0,127,1,2025-05-01T22:07:52Z,b60275e29fe2361ab97ac0ac217840d7,"Mozilla/5.0 (Macintosh; Intel Mac OS X 10_15_7) AppleWebKit/537.36 (KHTML, like Gecko) Chrome/116.0.0.0 Safari/537.36",Macintosh,Chrome,116.0.0.0,OS X,10_15_7,https://5puzkbbxv1.cognition.run/?sona_id=57701,"en-US,en;q=0.9",7xfsynk95c8myzp,19,"[""Asian""]",No,Female,NA,No,395525.89999997616,NA,null,<p></p>,null,choice,dct,trinary,attraction,2,televisions,null,null,null,null,null,null,1,NA,NA,NA,NA,NA,NA,NA,NA,NA,NA
NA,NA,NA,NA,NA,choice_trial,survey-html-form,5,57695,0.0-4.0-1.0,127,1,2025-05-01T22:07:52Z,b60275e29fe2361ab97ac0ac217840d7,"Mozilla/5.0 (Macintosh; Intel Mac OS X 10_15_7) AppleWebKit/537.36 (KHTML, like Gecko) Chrome/116.0.0.0 Safari/537.36",Macintosh,Chrome,116.0.0.0,OS X,10_15_7,https://5puzkbbxv1.cognition.run/?sona_id=57701,"en-US,en;q=0.9",7xfsynk95c8myzp,19,"[""Asian""]",No,Female,NA,No,395525.89999997616,NA,9214,NA,"{""product_choice"":""C""}",choice,dct,trinary,attraction,2,televisions,null,null,null,null,null,null,1,50,60,40,60,50,60,Screen size,Average lifespan,NA,NA
NA,NA,NA,NA,NA,choice_trial_setup,html-keyboard-response,6,58001,0.0-4.0-0.1,127,1,2025-05-01T22:07:52Z,b60275e29fe2361ab97ac0ac217840d7,"Mozilla/5.0 (Macintosh; Intel Mac OS X 10_15_7) AppleWebKit/537.36 (KHTML, like Gecko) Chrome/116.0.0.0 Safari/537.36",Macintosh,Chrome,116.0.0.0,OS X,10_15_7,https://5puzkbbxv1.cognition.run/?sona_id=57701,"en-US,en;q=0.9",7xfsynk95c8myzp,19,"[""Asian""]",No,Female,NA,No,395525.89999997616,NA,null,<p></p>,null,choice,ct,binary,repulsion,2,washing machines,null,null,null,null,null,null,2,NA,NA,NA,NA,NA,NA,NA,NA,NA,NA
NA,NA,NA,NA,NA,choice_trial,survey-html-form,7,68740,0.0-4.0-1.1,127,1,2025-05-01T22:07:52Z,b60275e29fe2361ab97ac0ac217840d7,"Mozilla/5.0 (Macintosh; Intel Mac OS X 10_15_7) AppleWebKit/537.36 (KHTML, like Gecko) Chrome/116.0.0.0 Safari/537.36",Macintosh,Chrome,116.0.0.0,OS X,10_15_7,https://5puzkbbxv1.cognition.run/?sona_id=57701,"en-US,en;q=0.9",7xfsynk95c8myzp,19,"[""Asian""]",No,Female,NA,No,395525.89999997616,NA,10735,NA,"{""product_choice"":""B""}",choice,ct,binary,repulsion,2,washing machines,null,null,null,null,null,null,2,30,40,null,100,90,null,Average lifespan,Energy savings,NA,NA
NA,NA,NA,NA,NA,choice_trial_setup,html-keyboard-response,8,69051,0.0-4.0-0.2,127,1,2025-05-01T22:07:52Z,b60275e29fe2361ab97ac0ac217840d7,"Mozilla/5.0 (Macintosh; Intel Mac OS X 10_15_7) AppleWebKit/537.36 (KHTML, like Gecko) Chrome/116.0.0.0 Safari/537.36",Macintosh,Chrome,116.0.0.0,OS X,10_15_7,https://5puzkbbxv1.cognition.run/?sona_id=57701,"en-US,en;q=0.9",7xfsynk95c8myzp,19,"[""Asian""]",No,Female,NA,No,395525.89999997616,NA,null,<p></p>,null,choice,ctd,trinary,repulsion_A,1,laptops,null,null,null,null,null,null,2,NA,NA,NA,NA,NA,NA,NA,NA,NA,NA
NA,NA,NA,NA,NA,choice_trial,survey-html-form,9,89195,0.0-4.0-1.2,127,1,2025-05-01T22:07:52Z,b60275e29fe2361ab97ac0ac217840d7,"Mozilla/5.0 (Macintosh; Intel Mac OS X 10_15_7) AppleWebKit/537.36 (KHTML, like Gecko) Chrome/116.0.0.0 Safari/537.36",Macintosh,Chrome,116.0.0.0,OS X,10_15_7,https://5puzkbbxv1.cognition.run/?sona_id=57701,"en-US,en;q=0.9",7xfsynk95c8myzp,19,"[""Asian""]",No,Female,NA,No,395525.89999997616,NA,20140,NA,"{""product_choice"":""A""}",choice,ctd,trinary,repulsion_A,1,laptops,null,null,null,null,null,null,2,100,90,100,30,40,20,Processing speed,Memory (RAM),NA,NA
NA,NA,NA,NA,NA,choice_trial_setup,html-keyboard-response,10,89509,0.0-4.0-0.3,127,1,2025-05-01T22:07:52Z,b60275e29fe2361ab97ac0ac217840d7,"Mozilla/5.0 (Macintosh; Intel Mac OS X 10_15_7) AppleWebKit/537.36 (KHTML, like Gecko) Chrome/116.0.0.0 Safari/537.36",Macintosh,Chrome,116.0.0.0,OS X,10_15_7,https://5puzkbbxv1.cognition.run/?sona_id=57701,"en-US,en;q=0.9",7xfsynk95c8myzp,19,"[""Asian""]",No,Female,NA,No,395525.89999997616,NA,null,<p></p>,null,choice,ctd,trinary,repulsion_A,1,televisions,null,null,null,null,null,null,1,NA,NA,NA,NA,NA,NA,NA,NA,NA,NA
NA,NA,NA,NA,NA,choice_trial,survey-html-form,11,96743,0.0-4.0-1.3,127,1,2025-05-01T22:07:52Z,b60275e29fe2361ab97ac0ac217840d7,"Mozilla/5.0 (Macintosh; Intel Mac OS X 10_15_7) AppleWebKit/537.36 (KHTML, like Gecko) Chrome/116.0.0.0 Safari/537.36",Macintosh,Chrome,116.0.0.0,OS X,10_15_7,https://5puzkbbxv1.cognition.run/?sona_id=57701,"en-US,en;q=0.9",7xfsynk95c8myzp,19,"[""Asian""]",No,Female,NA,No,395525.89999997616,NA,7231,NA,"{""product_choice"":""A""}",choice,ctd,trinary,repulsion_A,1,televisions,null,null,null,null,null,null,1,100,90,100,30,40,20,Screen size,Average lifespan,NA,NA
NA,NA,NA,NA,NA,choice_trial_setup,html-keyboard-response,12,97052,0.0-4.0-0.4,127,1,2025-05-01T22:07:52Z,b60275e29fe2361ab97ac0ac217840d7,"Mozilla/5.0 (Macintosh; Intel Mac OS X 10_15_7) AppleWebKit/537.36 (KHTML, like Gecko) Chrome/116.0.0.0 Safari/537.36",Macintosh,Chrome,116.0.0.0,OS X,10_15_7,https://5puzkbbxv1.cognition.run/?sona_id=57701,"en-US,en;q=0.9",7xfsynk95c8myzp,19,"[""Asian""]",No,Female,NA,No,395525.89999997616,NA,null,<p></p>,null,choice,tcd,trinary,repulsion_B,2,televisions,null,null,null,null,null,null,2,NA,NA,NA,NA,NA,NA,NA,NA,NA,NA
NA,NA,NA,NA,NA,choice_trial,survey-html-form,13,103388,0.0-4.0-1.4,127,1,2025-05-01T22:07:52Z,b60275e29fe2361ab97ac0ac217840d7,"Mozilla/5.0 (Macintosh; Intel Mac OS X 10_15_7) AppleWebKit/537.36 (KHTML, like Gecko) Chrome/116.0.0.0 Safari/537.36",Macintosh,Chrome,116.0.0.0,OS X,10_15_7,https://5puzkbbxv1.cognition.run/?sona_id=57701,"en-US,en;q=0.9",7xfsynk95c8myzp,19,"[""Asian""]",No,Female,NA,No,395525.89999997616,NA,6334,NA,"{""product_choice"":""A""}",choice,tcd,trinary,repulsion_B,2,televisions,null,null,null,null,null,null,2,40,30,40,90,100,80,Screen size,Average lifespan,NA,NA
NA,NA,NA,NA,NA,choice_trial_setup,html-keyboard-response,14,103701,0.0-4.0-0.5,127,1,2025-05-01T22:07:52Z,b60275e29fe2361ab97ac0ac217840d7,"Mozilla/5.0 (Macintosh; Intel Mac OS X 10_15_7) AppleWebKit/537.36 (KHTML, like Gecko) Chrome/116.0.0.0 Safari/537.36",Macintosh,Chrome,116.0.0.0,OS X,10_15_7,https://5puzkbbxv1.cognition.run/?sona_id=57701,"en-US,en;q=0.9",7xfsynk95c8myzp,19,"[""Asian""]",No,Female,NA,No,395525.89999997616,NA,null,<p></p>,null,choice,ct,binary,attraction,NA,televisions,null,null,null,null,null,null,1,NA,NA,NA,NA,NA,NA,NA,NA,NA,NA
NA,NA,NA,NA,NA,choice_trial,survey-html-form,15,112530,0.0-4.0-1.5,127,1,2025-05-01T22:07:52Z,b60275e29fe2361ab97ac0ac217840d7,"Mozilla/5.0 (Macintosh; Intel Mac OS X 10_15_7) AppleWebKit/537.36 (KHTML, like Gecko) Chrome/116.0.0.0 Safari/537.36",Macintosh,Chrome,116.0.0.0,OS X,10_15_7,https://5puzkbbxv1.cognition.run/?sona_id=57701,"en-US,en;q=0.9",7xfsynk95c8myzp,19,"[""Asian""]",No,Female,NA,No,395525.89999997616,NA,8825,NA,"{""product_choice"":""A""}",choice,ct,binary,attraction,NA,televisions,null,null,null,null,null,null,1,60,50,null,50,60,null,Screen size,Average lifespan,NA,NA
NA,NA,NA,NA,NA,choice_trial_setup,html-keyboard-response,16,112843,0.0-4.0-0.6,127,1,2025-05-01T22:07:52Z,b60275e29fe2361ab97ac0ac217840d7,"Mozilla/5.0 (Macintosh; Intel Mac OS X 10_15_7) AppleWebKit/537.36 (KHTML, like Gecko) Chrome/116.0.0.0 Safari/537.36",Macintosh,Chrome,116.0.0.0,OS X,10_15_7,https://5puzkbbxv1.cognition.run/?sona_id=57701,"en-US,en;q=0.9",7xfsynk95c8myzp,19,"[""Asian""]",No,Female,NA,No,395525.89999997616,NA,null,<p></p>,null,choice,cdt,trinary,repulsion_A,1,washing machines,null,null,null,null,null,null,2,NA,NA,NA,NA,NA,NA,NA,NA,NA,NA
NA,NA,NA,NA,NA,choice_trial,survey-html-form,17,121090,0.0-4.0-1.6,127,1,2025-05-01T22:07:52Z,b60275e29fe2361ab97ac0ac217840d7,"Mozilla/5.0 (Macintosh; Intel Mac OS X 10_15_7) AppleWebKit/537.36 (KHTML, like Gecko) Chrome/116.0.0.0 Safari/537.36",Macintosh,Chrome,116.0.0.0,OS X,10_15_7,https://5puzkbbxv1.cognition.run/?sona_id=57701,"en-US,en;q=0.9",7xfsynk95c8myzp,19,"[""Asian""]",No,Female,NA,No,395525.89999997616,NA,8243,NA,"{""product_choice"":""A""}",choice,cdt,trinary,repulsion_A,1,washing machines,null,null,null,null,null,null,2,100,90,100,30,40,20,Average lifespan,Energy savings,NA,NA
NA,NA,NA,NA,NA,choice_trial_setup,html-keyboard-response,18,121398,0.0-4.0-0.7,127,1,2025-05-01T22:07:52Z,b60275e29fe2361ab97ac0ac217840d7,"Mozilla/5.0 (Macintosh; Intel Mac OS X 10_15_7) AppleWebKit/537.36 (KHTML, like Gecko) Chrome/116.0.0.0 Safari/537.36",Macintosh,Chrome,116.0.0.0,OS X,10_15_7,https://5puzkbbxv1.cognition.run/?sona_id=57701,"en-US,en;q=0.9",7xfsynk95c8myzp,19,"[""Asian""]",No,Female,NA,No,395525.89999997616,NA,null,<p></p>,null,choice,wb,binary,catch,null,televisions,60,75,40,10,null,null,2,NA,NA,NA,NA,NA,NA,NA,NA,NA,NA
NA,NA,NA,NA,NA,choice_trial,survey-html-form,19,137556,0.0-4.0-1.7,127,1,2025-05-01T22:07:52Z,b60275e29fe2361ab97ac0ac217840d7,"Mozilla/5.0 (Macintosh; Intel Mac OS X 10_15_7) AppleWebKit/537.36 (KHTML, like Gecko) Chrome/116.0.0.0 Safari/537.36",Macintosh,Chrome,116.0.0.0,OS X,10_15_7,https://5puzkbbxv1.cognition.run/?sona_id=57701,"en-US,en;q=0.9",7xfsynk95c8myzp,19,"[""Asian""]",No,Female,NA,No,395525.89999997616,NA,16153,NA,"{""product_choice"":""B""}",choice,wb,binary,catch,null,televisions,60,75,40,10,null,null,2,null,null,null,null,null,null,Screen size,Average lifespan,NA,NA
NA,NA,NA,NA,NA,choice_trial_setup,html-keyboard-response,20,137867,0.0-4.0-0.8,127,1,2025-05-01T22:07:52Z,b60275e29fe2361ab97ac0ac217840d7,"Mozilla/5.0 (Macintosh; Intel Mac OS X 10_15_7) AppleWebKit/537.36 (KHTML, like Gecko) Chrome/116.0.0.0 Safari/537.36",Macintosh,Chrome,116.0.0.0,OS X,10_15_7,https://5puzkbbxv1.cognition.run/?sona_id=57701,"en-US,en;q=0.9",7xfsynk95c8myzp,19,"[""Asian""]",No,Female,NA,No,395525.89999997616,NA,null,<p></p>,null,choice,ctd,trinary,attraction,1,laptops,null,null,null,null,null,null,1,NA,NA,NA,NA,NA,NA,NA,NA,NA,NA
NA,NA,NA,NA,NA,choice_trial,survey-html-form,21,146559,0.0-4.0-1.8,127,1,2025-05-01T22:07:52Z,b60275e29fe2361ab97ac0ac217840d7,"Mozilla/5.0 (Macintosh; Intel Mac OS X 10_15_7) AppleWebKit/537.36 (KHTML, like Gecko) Chrome/116.0.0.0 Safari/537.36",Macintosh,Chrome,116.0.0.0,OS X,10_15_7,https://5puzkbbxv1.cognition.run/?sona_id=57701,"en-US,en;q=0.9",7xfsynk95c8myzp,19,"[""Asian""]",No,Female,NA,No,395525.89999997616,NA,8689,NA,"{""product_choice"":""B""}",choice,ctd,trinary,attraction,1,laptops,null,null,null,null,null,null,1,60,50,60,50,60,40,Processing speed,Memory (RAM),NA,NA
NA,NA,NA,NA,NA,choice_trial_setup,html-keyboard-response,22,146869,0.0-4.0-0.9,127,1,2025-05-01T22:07:52Z,b60275e29fe2361ab97ac0ac217840d7,"Mozilla/5.0 (Macintosh; Intel Mac OS X 10_15_7) AppleWebKit/537.36 (KHTML, like Gecko) Chrome/116.0.0.0 Safari/537.36",Macintosh,Chrome,116.0.0.0,OS X,10_15_7,https://5puzkbbxv1.cognition.run/?sona_id=57701,"en-US,en;q=0.9",7xfsynk95c8myzp,19,"[""Asian""]",No,Female,NA,No,395525.89999997616,NA,null,<p></p>,null,choice,tdc,trinary,repulsion_B,2,washing machines,null,null,null,null,null,null,1,NA,NA,NA,NA,NA,NA,NA,NA,NA,NA
NA,NA,NA,NA,NA,choice_trial,survey-html-form,23,153541,0.0-4.0-1.9,127,1,2025-05-01T22:07:52Z,b60275e29fe2361ab97ac0ac217840d7,"Mozilla/5.0 (Macintosh; Intel Mac OS X 10_15_7) AppleWebKit/537.36 (KHTML, like Gecko) Chrome/116.0.0.0 Safari/537.36",Macintosh,Chrome,116.0.0.0,OS X,10_15_7,https://5puzkbbxv1.cognition.run/?sona_id=57701,"en-US,en;q=0.9",7xfsynk95c8myzp,19,"[""Asian""]",No,Female,NA,No,395525.89999997616,NA,6668,NA,"{""product_choice"":""A""}",choice,tdc,trinary,repulsion_B,2,washing machines,null,null,null,null,null,null,1,40,30,40,90,100,80,Average lifespan,Energy savings,NA,NA
NA,NA,NA,NA,NA,choice_trial_setup,html-keyboard-response,24,153852,0.0-4.0-0.10,127,1,2025-05-01T22:07:52Z,b60275e29fe2361ab97ac0ac217840d7,"Mozilla/5.0 (Macintosh; Intel Mac OS X 10_15_7) AppleWebKit/537.36 (KHTML, like Gecko) Chrome/116.0.0.0 Safari/537.36",Macintosh,Chrome,116.0.0.0,OS X,10_15_7,https://5puzkbbxv1.cognition.run/?sona_id=57701,"en-US,en;q=0.9",7xfsynk95c8myzp,19,"[""Asian""]",No,Female,NA,No,395525.89999997616,NA,null,<p></p>,null,choice,bw,binary,catch,null,microwave ovens,50,90,45,10,null,null,2,NA,NA,NA,NA,NA,NA,NA,NA,NA,NA
NA,NA,NA,NA,NA,choice_trial,survey-html-form,25,161930,0.0-4.0-1.10,127,1,2025-05-01T22:07:52Z,b60275e29fe2361ab97ac0ac217840d7,"Mozilla/5.0 (Macintosh; Intel Mac OS X 10_15_7) AppleWebKit/537.36 (KHTML, like Gecko) Chrome/116.0.0.0 Safari/537.36",Macintosh,Chrome,116.0.0.0,OS X,10_15_7,https://5puzkbbxv1.cognition.run/?sona_id=57701,"en-US,en;q=0.9",7xfsynk95c8myzp,19,"[""Asian""]",No,Female,NA,No,395525.89999997616,NA,8075,NA,"{""product_choice"":""A""}",choice,bw,binary,catch,null,microwave ovens,50,90,45,10,null,null,2,null,null,null,null,null,null,Warranty,Cooking power,NA,NA
NA,NA,NA,NA,NA,choice_trial_setup,html-keyboard-response,26,162239,0.0-4.0-0.11,127,1,2025-05-01T22:07:52Z,b60275e29fe2361ab97ac0ac217840d7,"Mozilla/5.0 (Macintosh; Intel Mac OS X 10_15_7) AppleWebKit/537.36 (KHTML, like Gecko) Chrome/116.0.0.0 Safari/537.36",Macintosh,Chrome,116.0.0.0,OS X,10_15_7,https://5puzkbbxv1.cognition.run/?sona_id=57701,"en-US,en;q=0.9",7xfsynk95c8myzp,19,"[""Asian""]",No,Female,NA,No,395525.89999997616,NA,null,<p></p>,null,choice,wwb,trinary,catch,null,microwave ovens,85,50,35,40,20,45,2,NA,NA,NA,NA,NA,NA,NA,NA,NA,NA
NA,NA,NA,NA,NA,choice_trial,survey-html-form,27,167098,0.0-4.0-1.11,127,1,2025-05-01T22:07:52Z,b60275e29fe2361ab97ac0ac217840d7,"Mozilla/5.0 (Macintosh; Intel Mac OS X 10_15_7) AppleWebKit/537.36 (KHTML, like Gecko) Chrome/116.0.0.0 Safari/537.36",Macintosh,Chrome,116.0.0.0,OS X,10_15_7,https://5puzkbbxv1.cognition.run/?sona_id=57701,"en-US,en;q=0.9",7xfsynk95c8myzp,19,"[""Asian""]",No,Female,NA,No,395525.89999997616,NA,4856,NA,"{""product_choice"":""C""}",choice,wwb,trinary,catch,null,microwave ovens,85,50,35,40,20,45,2,null,null,null,null,null,null,Warranty,Cooking power,NA,NA
NA,NA,NA,NA,NA,choice_trial_setup,html-keyboard-response,28,167403,0.0-4.0-0.12,127,1,2025-05-01T22:07:52Z,b60275e29fe2361ab97ac0ac217840d7,"Mozilla/5.0 (Macintosh; Intel Mac OS X 10_15_7) AppleWebKit/537.36 (KHTML, like Gecko) Chrome/116.0.0.0 Safari/537.36",Macintosh,Chrome,116.0.0.0,OS X,10_15_7,https://5puzkbbxv1.cognition.run/?sona_id=57701,"en-US,en;q=0.9",7xfsynk95c8myzp,19,"[""Asian""]",No,Female,NA,No,395525.89999997616,NA,null,<p></p>,null,choice,dct,trinary,repulsion_A,2,microwave ovens,null,null,null,null,null,null,1,NA,NA,NA,NA,NA,NA,NA,NA,NA,NA
NA,NA,NA,NA,NA,choice_trial,survey-html-form,29,172564,0.0-4.0-1.12,127,1,2025-05-01T22:07:52Z,b60275e29fe2361ab97ac0ac217840d7,"Mozilla/5.0 (Macintosh; Intel Mac OS X 10_15_7) AppleWebKit/537.36 (KHTML, like Gecko) Chrome/116.0.0.0 Safari/537.36",Macintosh,Chrome,116.0.0.0,OS X,10_15_7,https://5puzkbbxv1.cognition.run/?sona_id=57701,"en-US,en;q=0.9",7xfsynk95c8myzp,19,"[""Asian""]",No,Female,NA,No,395525.89999997616,NA,5157,NA,"{""product_choice"":""B""}",choice,dct,trinary,repulsion_A,2,microwave ovens,null,null,null,null,null,null,1,30,40,20,100,90,100,Warranty,Cooking power,NA,NA
NA,NA,NA,NA,NA,choice_trial_setup,html-keyboard-response,30,172875,0.0-4.0-0.13,127,1,2025-05-01T22:07:52Z,b60275e29fe2361ab97ac0ac217840d7,"Mozilla/5.0 (Macintosh; Intel Mac OS X 10_15_7) AppleWebKit/537.36 (KHTML, like Gecko) Chrome/116.0.0.0 Safari/537.36",Macintosh,Chrome,116.0.0.0,OS X,10_15_7,https://5puzkbbxv1.cognition.run/?sona_id=57701,"en-US,en;q=0.9",7xfsynk95c8myzp,19,"[""Asian""]",No,Female,NA,No,395525.89999997616,NA,null,<p></p>,null,choice,ct,binary,repulsion,2,televisions,null,null,null,null,null,null,1,NA,NA,NA,NA,NA,NA,NA,NA,NA,NA
NA,NA,NA,NA,NA,choice_trial,survey-html-form,31,180396,0.0-4.0-1.13,127,1,2025-05-01T22:07:52Z,b60275e29fe2361ab97ac0ac217840d7,"Mozilla/5.0 (Macintosh; Intel Mac OS X 10_15_7) AppleWebKit/537.36 (KHTML, like Gecko) Chrome/116.0.0.0 Safari/537.36",Macintosh,Chrome,116.0.0.0,OS X,10_15_7,https://5puzkbbxv1.cognition.run/?sona_id=57701,"en-US,en;q=0.9",7xfsynk95c8myzp,19,"[""Asian""]",No,Female,NA,No,395525.89999997616,NA,7517,NA,"{""product_choice"":""A""}",choice,ct,binary,repulsion,2,televisions,null,null,null,null,null,null,1,30,40,null,100,90,null,Screen size,Average lifespan,NA,NA
NA,NA,NA,NA,NA,choice_trial_setup,html-keyboard-response,32,180704,0.0-4.0-0.14,127,1,2025-05-01T22:07:52Z,b60275e29fe2361ab97ac0ac217840d7,"Mozilla/5.0 (Macintosh; Intel Mac OS X 10_15_7) AppleWebKit/537.36 (KHTML, like Gecko) Chrome/116.0.0.0 Safari/537.36",Macintosh,Chrome,116.0.0.0,OS X,10_15_7,https://5puzkbbxv1.cognition.run/?sona_id=57701,"en-US,en;q=0.9",7xfsynk95c8myzp,19,"[""Asian""]",No,Female,NA,No,395525.89999997616,NA,null,<p></p>,null,choice,bww,trinary,catch,null,laptops,60,60,30,25,40,50,1,NA,NA,NA,NA,NA,NA,NA,NA,NA,NA
NA,NA,NA,NA,NA,choice_trial,survey-html-form,33,185087,0.0-4.0-1.14,127,1,2025-05-01T22:07:52Z,b60275e29fe2361ab97ac0ac217840d7,"Mozilla/5.0 (Macintosh; Intel Mac OS X 10_15_7) AppleWebKit/537.36 (KHTML, like Gecko) Chrome/116.0.0.0 Safari/537.36",Macintosh,Chrome,116.0.0.0,OS X,10_15_7,https://5puzkbbxv1.cognition.run/?sona_id=57701,"en-US,en;q=0.9",7xfsynk95c8myzp,19,"[""Asian""]",No,Female,NA,No,395525.89999997616,NA,4377,NA,"{""product_choice"":""A""}",choice,bww,trinary,catch,null,laptops,60,60,30,25,40,50,1,null,null,null,null,null,null,Processing speed,Memory (RAM),NA,NA
NA,NA,NA,NA,NA,choice_trial_setup,html-keyboard-response,34,185395,0.0-4.0-0.15,127,1,2025-05-01T22:07:52Z,b60275e29fe2361ab97ac0ac217840d7,"Mozilla/5.0 (Macintosh; Intel Mac OS X 10_15_7) AppleWebKit/537.36 (KHTML, like Gecko) Chrome/116.0.0.0 Safari/537.36",Macintosh,Chrome,116.0.0.0,OS X,10_15_7,https://5puzkbbxv1.cognition.run/?sona_id=57701,"en-US,en;q=0.9",7xfsynk95c8myzp,19,"[""Asian""]",No,Female,NA,No,395525.89999997616,NA,null,<p></p>,null,choice,tc,binary,repulsion,2,microwave ovens,null,null,null,null,null,null,1,NA,NA,NA,NA,NA,NA,NA,NA,NA,NA
NA,NA,NA,NA,NA,choice_trial,survey-html-form,35,188518,0.0-4.0-1.15,127,1,2025-05-01T22:07:52Z,b60275e29fe2361ab97ac0ac217840d7,"Mozilla/5.0 (Macintosh; Intel Mac OS X 10_15_7) AppleWebKit/537.36 (KHTML, like Gecko) Chrome/116.0.0.0 Safari/537.36",Macintosh,Chrome,116.0.0.0,OS X,10_15_7,https://5puzkbbxv1.cognition.run/?sona_id=57701,"en-US,en;q=0.9",7xfsynk95c8myzp,19,"[""Asian""]",No,Female,NA,No,395525.89999997616,NA,3119,NA,"{""product_choice"":""B""}",choice,tc,binary,repulsion,2,microwave ovens,null,null,null,null,null,null,1,30,40,null,100,90,null,Warranty,Cooking power,NA,NA
NA,NA,NA,NA,NA,choice_trial_setup,html-keyboard-response,36,188829,0.0-4.0-0.16,127,1,2025-05-01T22:07:52Z,b60275e29fe2361ab97ac0ac217840d7,"Mozilla/5.0 (Macintosh; Intel Mac OS X 10_15_7) AppleWebKit/537.36 (KHTML, like Gecko) Chrome/116.0.0.0 Safari/537.36",Macintosh,Chrome,116.0.0.0,OS X,10_15_7,https://5puzkbbxv1.cognition.run/?sona_id=57701,"en-US,en;q=0.9",7xfsynk95c8myzp,19,"[""Asian""]",No,Female,NA,No,395525.89999997616,NA,null,<p></p>,null,choice,cdt,trinary,attraction,1,microwave ovens,null,null,null,null,null,null,2,NA,NA,NA,NA,NA,NA,NA,NA,NA,NA
NA,NA,NA,NA,NA,choice_trial,survey-html-form,37,195479,0.0-4.0-1.16,127,1,2025-05-01T22:07:52Z,b60275e29fe2361ab97ac0ac217840d7,"Mozilla/5.0 (Macintosh; Intel Mac OS X 10_15_7) AppleWebKit/537.36 (KHTML, like Gecko) Chrome/116.0.0.0 Safari/537.36",Macintosh,Chrome,116.0.0.0,OS X,10_15_7,https://5puzkbbxv1.cognition.run/?sona_id=57701,"en-US,en;q=0.9",7xfsynk95c8myzp,19,"[""Asian""]",No,Female,NA,No,395525.89999997616,NA,6646,NA,"{""product_choice"":""A""}",choice,cdt,trinary,attraction,1,microwave ovens,null,null,null,null,null,null,2,60,50,60,50,60,40,Warranty,Cooking power,NA,NA
NA,NA,NA,NA,NA,choice_trial_setup,html-keyboard-response,38,195789,0.0-4.0-0.17,127,1,2025-05-01T22:07:52Z,b60275e29fe2361ab97ac0ac217840d7,"Mozilla/5.0 (Macintosh; Intel Mac OS X 10_15_7) AppleWebKit/537.36 (KHTML, like Gecko) Chrome/116.0.0.0 Safari/537.36",Macintosh,Chrome,116.0.0.0,OS X,10_15_7,https://5puzkbbxv1.cognition.run/?sona_id=57701,"en-US,en;q=0.9",7xfsynk95c8myzp,19,"[""Asian""]",No,Female,NA,No,395525.89999997616,NA,null,<p></p>,null,choice,ct,binary,repulsion,1,washing machines,null,null,null,null,null,null,1,NA,NA,NA,NA,NA,NA,NA,NA,NA,NA
NA,NA,NA,NA,NA,choice_trial,survey-html-form,39,199790,0.0-4.0-1.17,127,1,2025-05-01T22:07:52Z,b60275e29fe2361ab97ac0ac217840d7,"Mozilla/5.0 (Macintosh; Intel Mac OS X 10_15_7) AppleWebKit/537.36 (KHTML, like Gecko) Chrome/116.0.0.0 Safari/537.36",Macintosh,Chrome,116.0.0.0,OS X,10_15_7,https://5puzkbbxv1.cognition.run/?sona_id=57701,"en-US,en;q=0.9",7xfsynk95c8myzp,19,"[""Asian""]",No,Female,NA,No,395525.89999997616,NA,3996,NA,"{""product_choice"":""A""}",choice,ct,binary,repulsion,1,washing machines,null,null,null,null,null,null,1,100,90,null,30,40,null,Average lifespan,Energy savings,NA,NA
NA,NA,NA,NA,NA,choice_trial_setup,html-keyboard-response,40,200097,0.0-4.0-0.18,127,1,2025-05-01T22:07:52Z,b60275e29fe2361ab97ac0ac217840d7,"Mozilla/5.0 (Macintosh; Intel Mac OS X 10_15_7) AppleWebKit/537.36 (KHTML, like Gecko) Chrome/116.0.0.0 Safari/537.36",Macintosh,Chrome,116.0.0.0,OS X,10_15_7,https://5puzkbbxv1.cognition.run/?sona_id=57701,"en-US,en;q=0.9",7xfsynk95c8myzp,19,"[""Asian""]",No,Female,NA,No,395525.89999997616,NA,null,<p></p>,null,choice,cdt,trinary,repulsion_B,2,laptops,null,null,null,null,null,null,2,NA,NA,NA,NA,NA,NA,NA,NA,NA,NA
NA,NA,NA,NA,NA,choice_trial,survey-html-form,41,204738,0.0-4.0-1.18,127,1,2025-05-01T22:07:52Z,b60275e29fe2361ab97ac0ac217840d7,"Mozilla/5.0 (Macintosh; Intel Mac OS X 10_15_7) AppleWebKit/537.36 (KHTML, like Gecko) Chrome/116.0.0.0 Safari/537.36",Macintosh,Chrome,116.0.0.0,OS X,10_15_7,https://5puzkbbxv1.cognition.run/?sona_id=57701,"en-US,en;q=0.9",7xfsynk95c8myzp,19,"[""Asian""]",No,Female,NA,No,395525.89999997616,NA,4636,NA,"{""product_choice"":""C""}",choice,cdt,trinary,repulsion_B,2,laptops,null,null,null,null,null,null,2,40,30,40,90,100,80,Processing speed,Memory (RAM),NA,NA
NA,NA,NA,NA,NA,choice_trial_setup,html-keyboard-response,42,205049,0.0-4.0-0.19,127,1,2025-05-01T22:07:52Z,b60275e29fe2361ab97ac0ac217840d7,"Mozilla/5.0 (Macintosh; Intel Mac OS X 10_15_7) AppleWebKit/537.36 (KHTML, like Gecko) Chrome/116.0.0.0 Safari/537.36",Macintosh,Chrome,116.0.0.0,OS X,10_15_7,https://5puzkbbxv1.cognition.run/?sona_id=57701,"en-US,en;q=0.9",7xfsynk95c8myzp,19,"[""Asian""]",No,Female,NA,No,395525.89999997616,NA,null,<p></p>,null,choice,tdc,trinary,repulsion_B,1,microwave ovens,null,null,null,null,null,null,2,NA,NA,NA,NA,NA,NA,NA,NA,NA,NA
NA,NA,NA,NA,NA,choice_trial,survey-html-form,43,209331,0.0-4.0-1.19,127,1,2025-05-01T22:07:52Z,b60275e29fe2361ab97ac0ac217840d7,"Mozilla/5.0 (Macintosh; Intel Mac OS X 10_15_7) AppleWebKit/537.36 (KHTML, like Gecko) Chrome/116.0.0.0 Safari/537.36",Macintosh,Chrome,116.0.0.0,OS X,10_15_7,https://5puzkbbxv1.cognition.run/?sona_id=57701,"en-US,en;q=0.9",7xfsynk95c8myzp,19,"[""Asian""]",No,Female,NA,No,395525.89999997616,NA,4278,NA,"{""product_choice"":""A""}",choice,tdc,trinary,repulsion_B,1,microwave ovens,null,null,null,null,null,null,2,90,100,80,40,30,40,Warranty,Cooking power,NA,NA
NA,NA,NA,NA,NA,choice_trial_setup,html-keyboard-response,44,209644,0.0-4.0-0.20,127,1,2025-05-01T22:07:52Z,b60275e29fe2361ab97ac0ac217840d7,"Mozilla/5.0 (Macintosh; Intel Mac OS X 10_15_7) AppleWebKit/537.36 (KHTML, like Gecko) Chrome/116.0.0.0 Safari/537.36",Macintosh,Chrome,116.0.0.0,OS X,10_15_7,https://5puzkbbxv1.cognition.run/?sona_id=57701,"en-US,en;q=0.9",7xfsynk95c8myzp,19,"[""Asian""]",No,Female,NA,No,395525.89999997616,NA,null,<p></p>,null,choice,dct,trinary,repulsion_B,1,washing machines,null,null,null,null,null,null,2,NA,NA,NA,NA,NA,NA,NA,NA,NA,NA
NA,NA,NA,NA,NA,choice_trial,survey-html-form,45,214168,0.0-4.0-1.20,127,1,2025-05-01T22:07:52Z,b60275e29fe2361ab97ac0ac217840d7,"Mozilla/5.0 (Macintosh; Intel Mac OS X 10_15_7) AppleWebKit/537.36 (KHTML, like Gecko) Chrome/116.0.0.0 Safari/537.36",Macintosh,Chrome,116.0.0.0,OS X,10_15_7,https://5puzkbbxv1.cognition.run/?sona_id=57701,"en-US,en;q=0.9",7xfsynk95c8myzp,19,"[""Asian""]",No,Female,NA,No,395525.89999997616,NA,4519,NA,"{""product_choice"":""C""}",choice,dct,trinary,repulsion_B,1,washing machines,null,null,null,null,null,null,2,90,100,80,40,30,40,Average lifespan,Energy savings,NA,NA
NA,NA,NA,NA,NA,choice_trial_setup,html-keyboard-response,46,214472,0.0-4.0-0.21,127,1,2025-05-01T22:07:52Z,b60275e29fe2361ab97ac0ac217840d7,"Mozilla/5.0 (Macintosh; Intel Mac OS X 10_15_7) AppleWebKit/537.36 (KHTML, like Gecko) Chrome/116.0.0.0 Safari/537.36",Macintosh,Chrome,116.0.0.0,OS X,10_15_7,https://5puzkbbxv1.cognition.run/?sona_id=57701,"en-US,en;q=0.9",7xfsynk95c8myzp,19,"[""Asian""]",No,Female,NA,No,395525.89999997616,NA,null,<p></p>,null,choice,tcd,trinary,repulsion_A,1,microwave ovens,null,null,null,null,null,null,1,NA,NA,NA,NA,NA,NA,NA,NA,NA,NA
NA,NA,NA,NA,NA,choice_trial,survey-html-form,47,220320,0.0-4.0-1.21,127,1,2025-05-01T22:07:52Z,b60275e29fe2361ab97ac0ac217840d7,"Mozilla/5.0 (Macintosh; Intel Mac OS X 10_15_7) AppleWebKit/537.36 (KHTML, like Gecko) Chrome/116.0.0.0 Safari/537.36",Macintosh,Chrome,116.0.0.0,OS X,10_15_7,https://5puzkbbxv1.cognition.run/?sona_id=57701,"en-US,en;q=0.9",7xfsynk95c8myzp,19,"[""Asian""]",No,Female,NA,No,395525.89999997616,NA,5843,NA,"{""product_choice"":""B""}",choice,tcd,trinary,repulsion_A,1,microwave ovens,null,null,null,null,null,null,1,100,90,100,30,40,20,Warranty,Cooking power,NA,NA
NA,NA,NA,NA,NA,choice_trial_setup,html-keyboard-response,48,220629,0.0-4.0-0.22,127,1,2025-05-01T22:07:52Z,b60275e29fe2361ab97ac0ac217840d7,"Mozilla/5.0 (Macintosh; Intel Mac OS X 10_15_7) AppleWebKit/537.36 (KHTML, like Gecko) Chrome/116.0.0.0 Safari/537.36",Macintosh,Chrome,116.0.0.0,OS X,10_15_7,https://5puzkbbxv1.cognition.run/?sona_id=57701,"en-US,en;q=0.9",7xfsynk95c8myzp,19,"[""Asian""]",No,Female,NA,No,395525.89999997616,NA,null,<p></p>,null,choice,tc,binary,repulsion,2,laptops,null,null,null,null,null,null,1,NA,NA,NA,NA,NA,NA,NA,NA,NA,NA
NA,NA,NA,NA,NA,choice_trial,survey-html-form,49,224098,0.0-4.0-1.22,127,1,2025-05-01T22:07:52Z,b60275e29fe2361ab97ac0ac217840d7,"Mozilla/5.0 (Macintosh; Intel Mac OS X 10_15_7) AppleWebKit/537.36 (KHTML, like Gecko) Chrome/116.0.0.0 Safari/537.36",Macintosh,Chrome,116.0.0.0,OS X,10_15_7,https://5puzkbbxv1.cognition.run/?sona_id=57701,"en-US,en;q=0.9",7xfsynk95c8myzp,19,"[""Asian""]",No,Female,NA,No,395525.89999997616,NA,3464,NA,"{""product_choice"":""B""}",choice,tc,binary,repulsion,2,laptops,null,null,null,null,null,null,1,30,40,null,100,90,null,Processing speed,Memory (RAM),NA,NA
NA,NA,NA,NA,NA,choice_trial_setup,html-keyboard-response,50,224412,0.0-4.0-0.23,127,1,2025-05-01T22:07:52Z,b60275e29fe2361ab97ac0ac217840d7,"Mozilla/5.0 (Macintosh; Intel Mac OS X 10_15_7) AppleWebKit/537.36 (KHTML, like Gecko) Chrome/116.0.0.0 Safari/537.36",Macintosh,Chrome,116.0.0.0,OS X,10_15_7,https://5puzkbbxv1.cognition.run/?sona_id=57701,"en-US,en;q=0.9",7xfsynk95c8myzp,19,"[""Asian""]",No,Female,NA,No,395525.89999997616,NA,null,<p></p>,null,choice,tcd,trinary,attraction,1,washing machines,null,null,null,null,null,null,2,NA,NA,NA,NA,NA,NA,NA,NA,NA,NA
NA,NA,NA,NA,NA,choice_trial,survey-html-form,51,229411,0.0-4.0-1.23,127,1,2025-05-01T22:07:52Z,b60275e29fe2361ab97ac0ac217840d7,"Mozilla/5.0 (Macintosh; Intel Mac OS X 10_15_7) AppleWebKit/537.36 (KHTML, like Gecko) Chrome/116.0.0.0 Safari/537.36",Macintosh,Chrome,116.0.0.0,OS X,10_15_7,https://5puzkbbxv1.cognition.run/?sona_id=57701,"en-US,en;q=0.9",7xfsynk95c8myzp,19,"[""Asian""]",No,Female,NA,No,395525.89999997616,NA,4994,NA,"{""product_choice"":""B""}",choice,tcd,trinary,attraction,1,washing machines,null,null,null,null,null,null,2,60,50,60,50,60,40,Average lifespan,Energy savings,NA,NA
NA,NA,NA,NA,NA,choice_trial_setup,html-keyboard-response,52,229724,0.0-4.0-0.24,127,1,2025-05-01T22:07:52Z,b60275e29fe2361ab97ac0ac217840d7,"Mozilla/5.0 (Macintosh; Intel Mac OS X 10_15_7) AppleWebKit/537.36 (KHTML, like Gecko) Chrome/116.0.0.0 Safari/537.36",Macintosh,Chrome,116.0.0.0,OS X,10_15_7,https://5puzkbbxv1.cognition.run/?sona_id=57701,"en-US,en;q=0.9",7xfsynk95c8myzp,19,"[""Asian""]",No,Female,NA,No,395525.89999997616,NA,null,<p></p>,null,choice,cdt,trinary,attraction,1,televisions,null,null,null,null,null,null,2,NA,NA,NA,NA,NA,NA,NA,NA,NA,NA
NA,NA,NA,NA,NA,choice_trial,survey-html-form,53,234513,0.0-4.0-1.24,127,1,2025-05-01T22:07:52Z,b60275e29fe2361ab97ac0ac217840d7,"Mozilla/5.0 (Macintosh; Intel Mac OS X 10_15_7) AppleWebKit/537.36 (KHTML, like Gecko) Chrome/116.0.0.0 Safari/537.36",Macintosh,Chrome,116.0.0.0,OS X,10_15_7,https://5puzkbbxv1.cognition.run/?sona_id=57701,"en-US,en;q=0.9",7xfsynk95c8myzp,19,"[""Asian""]",No,Female,NA,No,395525.89999997616,NA,4785,NA,"{""product_choice"":""A""}",choice,cdt,trinary,attraction,1,televisions,null,null,null,null,null,null,2,60,50,60,50,60,40,Screen size,Average lifespan,NA,NA
NA,NA,NA,NA,NA,choice_trial_setup,html-keyboard-response,54,234826,0.0-4.0-0.25,127,1,2025-05-01T22:07:52Z,b60275e29fe2361ab97ac0ac217840d7,"Mozilla/5.0 (Macintosh; Intel Mac OS X 10_15_7) AppleWebKit/537.36 (KHTML, like Gecko) Chrome/116.0.0.0 Safari/537.36",Macintosh,Chrome,116.0.0.0,OS X,10_15_7,https://5puzkbbxv1.cognition.run/?sona_id=57701,"en-US,en;q=0.9",7xfsynk95c8myzp,19,"[""Asian""]",No,Female,NA,No,395525.89999997616,NA,null,<p></p>,null,choice,ct,binary,repulsion,1,televisions,null,null,null,null,null,null,1,NA,NA,NA,NA,NA,NA,NA,NA,NA,NA
NA,NA,NA,NA,NA,choice_trial,survey-html-form,55,237775,0.0-4.0-1.25,127,1,2025-05-01T22:07:52Z,b60275e29fe2361ab97ac0ac217840d7,"Mozilla/5.0 (Macintosh; Intel Mac OS X 10_15_7) AppleWebKit/537.36 (KHTML, like Gecko) Chrome/116.0.0.0 Safari/537.36",Macintosh,Chrome,116.0.0.0,OS X,10_15_7,https://5puzkbbxv1.cognition.run/?sona_id=57701,"en-US,en;q=0.9",7xfsynk95c8myzp,19,"[""Asian""]",No,Female,NA,No,395525.89999997616,NA,2944,NA,"{""product_choice"":""A""}",choice,ct,binary,repulsion,1,televisions,null,null,null,null,null,null,1,100,90,null,30,40,null,Screen size,Average lifespan,NA,NA
NA,NA,NA,NA,NA,choice_trial_setup,html-keyboard-response,56,238079,0.0-4.0-0.26,127,1,2025-05-01T22:07:52Z,b60275e29fe2361ab97ac0ac217840d7,"Mozilla/5.0 (Macintosh; Intel Mac OS X 10_15_7) AppleWebKit/537.36 (KHTML, like Gecko) Chrome/116.0.0.0 Safari/537.36",Macintosh,Chrome,116.0.0.0,OS X,10_15_7,https://5puzkbbxv1.cognition.run/?sona_id=57701,"en-US,en;q=0.9",7xfsynk95c8myzp,19,"[""Asian""]",No,Female,NA,No,395525.89999997616,NA,null,<p></p>,null,choice,bw,binary,catch,null,laptops,75,70,40,25,null,null,1,NA,NA,NA,NA,NA,NA,NA,NA,NA,NA
NA,NA,NA,NA,NA,choice_trial,survey-html-form,57,246623,0.0-4.0-1.26,127,1,2025-05-01T22:07:52Z,b60275e29fe2361ab97ac0ac217840d7,"Mozilla/5.0 (Macintosh; Intel Mac OS X 10_15_7) AppleWebKit/537.36 (KHTML, like Gecko) Chrome/116.0.0.0 Safari/537.36",Macintosh,Chrome,116.0.0.0,OS X,10_15_7,https://5puzkbbxv1.cognition.run/?sona_id=57701,"en-US,en;q=0.9",7xfsynk95c8myzp,19,"[""Asian""]",No,Female,NA,No,395525.89999997616,NA,8540,NA,"{""product_choice"":""A""}",choice,bw,binary,catch,null,laptops,75,70,40,25,null,null,1,null,null,null,null,null,null,Processing speed,Memory (RAM),NA,NA
NA,NA,NA,NA,NA,choice_trial_setup,html-keyboard-response,58,246928,0.0-4.0-0.27,127,1,2025-05-01T22:07:52Z,b60275e29fe2361ab97ac0ac217840d7,"Mozilla/5.0 (Macintosh; Intel Mac OS X 10_15_7) AppleWebKit/537.36 (KHTML, like Gecko) Chrome/116.0.0.0 Safari/537.36",Macintosh,Chrome,116.0.0.0,OS X,10_15_7,https://5puzkbbxv1.cognition.run/?sona_id=57701,"en-US,en;q=0.9",7xfsynk95c8myzp,19,"[""Asian""]",No,Female,NA,No,395525.89999997616,NA,null,<p></p>,null,choice,tc,binary,repulsion,1,microwave ovens,null,null,null,null,null,null,2,NA,NA,NA,NA,NA,NA,NA,NA,NA,NA
NA,NA,NA,NA,NA,choice_trial,survey-html-form,59,260224,0.0-4.0-1.27,127,1,2025-05-01T22:07:52Z,b60275e29fe2361ab97ac0ac217840d7,"Mozilla/5.0 (Macintosh; Intel Mac OS X 10_15_7) AppleWebKit/537.36 (KHTML, like Gecko) Chrome/116.0.0.0 Safari/537.36",Macintosh,Chrome,116.0.0.0,OS X,10_15_7,https://5puzkbbxv1.cognition.run/?sona_id=57701,"en-US,en;q=0.9",7xfsynk95c8myzp,19,"[""Asian""]",No,Female,NA,No,395525.89999997616,NA,13292,NA,"{""product_choice"":""B""}",choice,tc,binary,repulsion,1,microwave ovens,null,null,null,null,null,null,2,100,90,null,30,40,null,Warranty,Cooking power,NA,NA
NA,NA,NA,NA,NA,choice_trial_setup,html-keyboard-response,60,260538,0.0-4.0-0.28,127,1,2025-05-01T22:07:52Z,b60275e29fe2361ab97ac0ac217840d7,"Mozilla/5.0 (Macintosh; Intel Mac OS X 10_15_7) AppleWebKit/537.36 (KHTML, like Gecko) Chrome/116.0.0.0 Safari/537.36",Macintosh,Chrome,116.0.0.0,OS X,10_15_7,https://5puzkbbxv1.cognition.run/?sona_id=57701,"en-US,en;q=0.9",7xfsynk95c8myzp,19,"[""Asian""]",No,Female,NA,No,395525.89999997616,NA,null,<p></p>,null,choice,cdt,trinary,repulsion_A,2,laptops,null,null,null,null,null,null,1,NA,NA,NA,NA,NA,NA,NA,NA,NA,NA
NA,NA,NA,NA,NA,choice_trial,survey-html-form,61,263566,0.0-4.0-1.28,127,1,2025-05-01T22:07:52Z,b60275e29fe2361ab97ac0ac217840d7,"Mozilla/5.0 (Macintosh; Intel Mac OS X 10_15_7) AppleWebKit/537.36 (KHTML, like Gecko) Chrome/116.0.0.0 Safari/537.36",Macintosh,Chrome,116.0.0.0,OS X,10_15_7,https://5puzkbbxv1.cognition.run/?sona_id=57701,"en-US,en;q=0.9",7xfsynk95c8myzp,19,"[""Asian""]",No,Female,NA,No,395525.89999997616,NA,3022,NA,"{""product_choice"":""A""}",choice,cdt,trinary,repulsion_A,2,laptops,null,null,null,null,null,null,1,30,40,20,100,90,100,Processing speed,Memory (RAM),NA,NA
NA,NA,NA,NA,NA,choice_trial_setup,html-keyboard-response,62,263872,0.0-4.0-0.29,127,1,2025-05-01T22:07:52Z,b60275e29fe2361ab97ac0ac217840d7,"Mozilla/5.0 (Macintosh; Intel Mac OS X 10_15_7) AppleWebKit/537.36 (KHTML, like Gecko) Chrome/116.0.0.0 Safari/537.36",Macintosh,Chrome,116.0.0.0,OS X,10_15_7,https://5puzkbbxv1.cognition.run/?sona_id=57701,"en-US,en;q=0.9",7xfsynk95c8myzp,19,"[""Asian""]",No,Female,NA,No,395525.89999997616,NA,null,<p></p>,null,choice,dct,trinary,repulsion_B,1,televisions,null,null,null,null,null,null,2,NA,NA,NA,NA,NA,NA,NA,NA,NA,NA
NA,NA,NA,NA,NA,choice_trial,survey-html-form,63,269736,0.0-4.0-1.29,127,1,2025-05-01T22:07:52Z,b60275e29fe2361ab97ac0ac217840d7,"Mozilla/5.0 (Macintosh; Intel Mac OS X 10_15_7) AppleWebKit/537.36 (KHTML, like Gecko) Chrome/116.0.0.0 Safari/537.36",Macintosh,Chrome,116.0.0.0,OS X,10_15_7,https://5puzkbbxv1.cognition.run/?sona_id=57701,"en-US,en;q=0.9",7xfsynk95c8myzp,19,"[""Asian""]",No,Female,NA,No,395525.89999997616,NA,5857,NA,"{""product_choice"":""C""}",choice,dct,trinary,repulsion_B,1,televisions,null,null,null,null,null,null,2,90,100,80,40,30,40,Screen size,Average lifespan,NA,NA
NA,NA,NA,NA,NA,choice_trial_setup,html-keyboard-response,64,270044,0.0-4.0-0.30,127,1,2025-05-01T22:07:52Z,b60275e29fe2361ab97ac0ac217840d7,"Mozilla/5.0 (Macintosh; Intel Mac OS X 10_15_7) AppleWebKit/537.36 (KHTML, like Gecko) Chrome/116.0.0.0 Safari/537.36",Macintosh,Chrome,116.0.0.0,OS X,10_15_7,https://5puzkbbxv1.cognition.run/?sona_id=57701,"en-US,en;q=0.9",7xfsynk95c8myzp,19,"[""Asian""]",No,Female,NA,No,395525.89999997616,NA,null,<p></p>,null,choice,dct,trinary,repulsion_A,2,televisions,null,null,null,null,null,null,2,NA,NA,NA,NA,NA,NA,NA,NA,NA,NA
NA,NA,NA,NA,NA,choice_trial,survey-html-form,65,273659,0.0-4.0-1.30,127,1,2025-05-01T22:07:52Z,b60275e29fe2361ab97ac0ac217840d7,"Mozilla/5.0 (Macintosh; Intel Mac OS X 10_15_7) AppleWebKit/537.36 (KHTML, like Gecko) Chrome/116.0.0.0 Safari/537.36",Macintosh,Chrome,116.0.0.0,OS X,10_15_7,https://5puzkbbxv1.cognition.run/?sona_id=57701,"en-US,en;q=0.9",7xfsynk95c8myzp,19,"[""Asian""]",No,Female,NA,No,395525.89999997616,NA,3610,NA,"{""product_choice"":""B""}",choice,dct,trinary,repulsion_A,2,televisions,null,null,null,null,null,null,2,30,40,20,100,90,100,Screen size,Average lifespan,NA,NA
NA,NA,NA,NA,NA,choice_trial_setup,html-keyboard-response,66,273972,0.0-4.0-0.31,127,1,2025-05-01T22:07:52Z,b60275e29fe2361ab97ac0ac217840d7,"Mozilla/5.0 (Macintosh; Intel Mac OS X 10_15_7) AppleWebKit/537.36 (KHTML, like Gecko) Chrome/116.0.0.0 Safari/537.36",Macintosh,Chrome,116.0.0.0,OS X,10_15_7,https://5puzkbbxv1.cognition.run/?sona_id=57701,"en-US,en;q=0.9",7xfsynk95c8myzp,19,"[""Asian""]",No,Female,NA,No,395525.89999997616,NA,null,<p></p>,null,choice,ct,binary,repulsion,1,laptops,null,null,null,null,null,null,2,NA,NA,NA,NA,NA,NA,NA,NA,NA,NA
NA,NA,NA,NA,NA,choice_trial,survey-html-form,67,277609,0.0-4.0-1.31,127,1,2025-05-01T22:07:52Z,b60275e29fe2361ab97ac0ac217840d7,"Mozilla/5.0 (Macintosh; Intel Mac OS X 10_15_7) AppleWebKit/537.36 (KHTML, like Gecko) Chrome/116.0.0.0 Safari/537.36",Macintosh,Chrome,116.0.0.0,OS X,10_15_7,https://5puzkbbxv1.cognition.run/?sona_id=57701,"en-US,en;q=0.9",7xfsynk95c8myzp,19,"[""Asian""]",No,Female,NA,No,395525.89999997616,NA,3632,NA,"{""product_choice"":""A""}",choice,ct,binary,repulsion,1,laptops,null,null,null,null,null,null,2,100,90,null,30,40,null,Processing speed,Memory (RAM),NA,NA
NA,NA,NA,NA,NA,choice_trial_setup,html-keyboard-response,68,277914,0.0-4.0-0.32,127,1,2025-05-01T22:07:52Z,b60275e29fe2361ab97ac0ac217840d7,"Mozilla/5.0 (Macintosh; Intel Mac OS X 10_15_7) AppleWebKit/537.36 (KHTML, like Gecko) Chrome/116.0.0.0 Safari/537.36",Macintosh,Chrome,116.0.0.0,OS X,10_15_7,https://5puzkbbxv1.cognition.run/?sona_id=57701,"en-US,en;q=0.9",7xfsynk95c8myzp,19,"[""Asian""]",No,Female,NA,No,395525.89999997616,NA,null,<p></p>,null,choice,ct,binary,attraction,NA,washing machines,null,null,null,null,null,null,2,NA,NA,NA,NA,NA,NA,NA,NA,NA,NA
NA,NA,NA,NA,NA,choice_trial,survey-html-form,69,283034,0.0-4.0-1.32,127,1,2025-05-01T22:07:52Z,b60275e29fe2361ab97ac0ac217840d7,"Mozilla/5.0 (Macintosh; Intel Mac OS X 10_15_7) AppleWebKit/537.36 (KHTML, like Gecko) Chrome/116.0.0.0 Safari/537.36",Macintosh,Chrome,116.0.0.0,OS X,10_15_7,https://5puzkbbxv1.cognition.run/?sona_id=57701,"en-US,en;q=0.9",7xfsynk95c8myzp,19,"[""Asian""]",No,Female,NA,No,395525.89999997616,NA,5117,NA,"{""product_choice"":""B""}",choice,ct,binary,attraction,NA,washing machines,null,null,null,null,null,null,2,60,50,null,50,60,null,Average lifespan,Energy savings,NA,NA
NA,NA,NA,NA,NA,choice_trial_setup,html-keyboard-response,70,283344,0.0-4.0-0.33,127,1,2025-05-01T22:07:52Z,b60275e29fe2361ab97ac0ac217840d7,"Mozilla/5.0 (Macintosh; Intel Mac OS X 10_15_7) AppleWebKit/537.36 (KHTML, like Gecko) Chrome/116.0.0.0 Safari/537.36",Macintosh,Chrome,116.0.0.0,OS X,10_15_7,https://5puzkbbxv1.cognition.run/?sona_id=57701,"en-US,en;q=0.9",7xfsynk95c8myzp,19,"[""Asian""]",No,Female,NA,No,395525.89999997616,NA,null,<p></p>,null,choice,tcd,trinary,repulsion_B,1,laptops,null,null,null,null,null,null,2,NA,NA,NA,NA,NA,NA,NA,NA,NA,NA
NA,NA,NA,NA,NA,choice_trial,survey-html-form,71,286837,0.0-4.0-1.33,127,1,2025-05-01T22:07:52Z,b60275e29fe2361ab97ac0ac217840d7,"Mozilla/5.0 (Macintosh; Intel Mac OS X 10_15_7) AppleWebKit/537.36 (KHTML, like Gecko) Chrome/116.0.0.0 Safari/537.36",Macintosh,Chrome,116.0.0.0,OS X,10_15_7,https://5puzkbbxv1.cognition.run/?sona_id=57701,"en-US,en;q=0.9",7xfsynk95c8myzp,19,"[""Asian""]",No,Female,NA,No,395525.89999997616,NA,3488,NA,"{""product_choice"":""A""}",choice,tcd,trinary,repulsion_B,1,laptops,null,null,null,null,null,null,2,90,100,80,40,30,40,Processing speed,Memory (RAM),NA,NA
NA,NA,NA,NA,NA,choice_trial_setup,html-keyboard-response,72,287143,0.0-4.0-0.34,127,1,2025-05-01T22:07:52Z,b60275e29fe2361ab97ac0ac217840d7,"Mozilla/5.0 (Macintosh; Intel Mac OS X 10_15_7) AppleWebKit/537.36 (KHTML, like Gecko) Chrome/116.0.0.0 Safari/537.36",Macintosh,Chrome,116.0.0.0,OS X,10_15_7,https://5puzkbbxv1.cognition.run/?sona_id=57701,"en-US,en;q=0.9",7xfsynk95c8myzp,19,"[""Asian""]",No,Female,NA,No,395525.89999997616,NA,null,<p></p>,null,choice,bww,trinary,catch,null,televisions,55,85,45,15,15,40,1,NA,NA,NA,NA,NA,NA,NA,NA,NA,NA
NA,NA,NA,NA,NA,choice_trial,survey-html-form,73,289922,0.0-4.0-1.34,127,1,2025-05-01T22:07:52Z,b60275e29fe2361ab97ac0ac217840d7,"Mozilla/5.0 (Macintosh; Intel Mac OS X 10_15_7) AppleWebKit/537.36 (KHTML, like Gecko) Chrome/116.0.0.0 Safari/537.36",Macintosh,Chrome,116.0.0.0,OS X,10_15_7,https://5puzkbbxv1.cognition.run/?sona_id=57701,"en-US,en;q=0.9",7xfsynk95c8myzp,19,"[""Asian""]",No,Female,NA,No,395525.89999997616,NA,2773,NA,"{""product_choice"":""A""}",choice,bww,trinary,catch,null,televisions,55,85,45,15,15,40,1,null,null,null,null,null,null,Screen size,Average lifespan,NA,NA
NA,NA,NA,NA,NA,choice_trial_setup,html-keyboard-response,74,290225,0.0-4.0-0.35,127,1,2025-05-01T22:07:52Z,b60275e29fe2361ab97ac0ac217840d7,"Mozilla/5.0 (Macintosh; Intel Mac OS X 10_15_7) AppleWebKit/537.36 (KHTML, like Gecko) Chrome/116.0.0.0 Safari/537.36",Macintosh,Chrome,116.0.0.0,OS X,10_15_7,https://5puzkbbxv1.cognition.run/?sona_id=57701,"en-US,en;q=0.9",7xfsynk95c8myzp,19,"[""Asian""]",No,Female,NA,No,395525.89999997616,NA,null,<p></p>,null,choice,wwb,trinary,catch,null,washing machines,70,60,20,15,45,20,2,NA,NA,NA,NA,NA,NA,NA,NA,NA,NA
NA,NA,NA,NA,NA,choice_trial,survey-html-form,75,293014,0.0-4.0-1.35,127,1,2025-05-01T22:07:52Z,b60275e29fe2361ab97ac0ac217840d7,"Mozilla/5.0 (Macintosh; Intel Mac OS X 10_15_7) AppleWebKit/537.36 (KHTML, like Gecko) Chrome/116.0.0.0 Safari/537.36",Macintosh,Chrome,116.0.0.0,OS X,10_15_7,https://5puzkbbxv1.cognition.run/?sona_id=57701,"en-US,en;q=0.9",7xfsynk95c8myzp,19,"[""Asian""]",No,Female,NA,No,395525.89999997616,NA,2783,NA,"{""product_choice"":""C""}",choice,wwb,trinary,catch,null,washing machines,70,60,20,15,45,20,2,null,null,null,null,null,null,Average lifespan,Energy savings,NA,NA
NA,NA,NA,NA,NA,choice_trial_setup,html-keyboard-response,76,293322,0.0-4.0-0.36,127,1,2025-05-01T22:07:52Z,b60275e29fe2361ab97ac0ac217840d7,"Mozilla/5.0 (Macintosh; Intel Mac OS X 10_15_7) AppleWebKit/537.36 (KHTML, like Gecko) Chrome/116.0.0.0 Safari/537.36",Macintosh,Chrome,116.0.0.0,OS X,10_15_7,https://5puzkbbxv1.cognition.run/?sona_id=57701,"en-US,en;q=0.9",7xfsynk95c8myzp,19,"[""Asian""]",No,Female,NA,No,395525.89999997616,NA,null,<p></p>,null,choice,ctd,trinary,repulsion_A,2,washing machines,null,null,null,null,null,null,1,NA,NA,NA,NA,NA,NA,NA,NA,NA,NA
NA,NA,NA,NA,NA,choice_trial,survey-html-form,77,296123,0.0-4.0-1.36,127,1,2025-05-01T22:07:52Z,b60275e29fe2361ab97ac0ac217840d7,"Mozilla/5.0 (Macintosh; Intel Mac OS X 10_15_7) AppleWebKit/537.36 (KHTML, like Gecko) Chrome/116.0.0.0 Safari/537.36",Macintosh,Chrome,116.0.0.0,OS X,10_15_7,https://5puzkbbxv1.cognition.run/?sona_id=57701,"en-US,en;q=0.9",7xfsynk95c8myzp,19,"[""Asian""]",No,Female,NA,No,395525.89999997616,NA,2795,NA,"{""product_choice"":""A""}",choice,ctd,trinary,repulsion_A,2,washing machines,null,null,null,null,null,null,1,30,40,20,100,90,100,Average lifespan,Energy savings,NA,NA
NA,NA,NA,NA,NA,choice_trial_setup,html-keyboard-response,78,296432,0.0-4.0-0.37,127,1,2025-05-01T22:07:52Z,b60275e29fe2361ab97ac0ac217840d7,"Mozilla/5.0 (Macintosh; Intel Mac OS X 10_15_7) AppleWebKit/537.36 (KHTML, like Gecko) Chrome/116.0.0.0 Safari/537.36",Macintosh,Chrome,116.0.0.0,OS X,10_15_7,https://5puzkbbxv1.cognition.run/?sona_id=57701,"en-US,en;q=0.9",7xfsynk95c8myzp,19,"[""Asian""]",No,Female,NA,No,395525.89999997616,NA,null,<p></p>,null,choice,tcd,trinary,repulsion_B,2,microwave ovens,null,null,null,null,null,null,1,NA,NA,NA,NA,NA,NA,NA,NA,NA,NA
NA,NA,NA,NA,NA,choice_trial,survey-html-form,79,301234,0.0-4.0-1.37,127,1,2025-05-01T22:07:52Z,b60275e29fe2361ab97ac0ac217840d7,"Mozilla/5.0 (Macintosh; Intel Mac OS X 10_15_7) AppleWebKit/537.36 (KHTML, like Gecko) Chrome/116.0.0.0 Safari/537.36",Macintosh,Chrome,116.0.0.0,OS X,10_15_7,https://5puzkbbxv1.cognition.run/?sona_id=57701,"en-US,en;q=0.9",7xfsynk95c8myzp,19,"[""Asian""]",No,Female,NA,No,395525.89999997616,NA,4798,NA,"{""product_choice"":""A""}",choice,tcd,trinary,repulsion_B,2,microwave ovens,null,null,null,null,null,null,1,40,30,40,90,100,80,Warranty,Cooking power,NA,NA
NA,NA,NA,NA,NA,choice_trial_setup,html-keyboard-response,80,301548,0.0-4.0-0.38,127,1,2025-05-01T22:07:52Z,b60275e29fe2361ab97ac0ac217840d7,"Mozilla/5.0 (Macintosh; Intel Mac OS X 10_15_7) AppleWebKit/537.36 (KHTML, like Gecko) Chrome/116.0.0.0 Safari/537.36",Macintosh,Chrome,116.0.0.0,OS X,10_15_7,https://5puzkbbxv1.cognition.run/?sona_id=57701,"en-US,en;q=0.9",7xfsynk95c8myzp,19,"[""Asian""]",No,Female,NA,No,395525.89999997616,NA,null,<p></p>,null,choice,bw,binary,catch,null,washing machines,80,55,15,15,null,null,2,NA,NA,NA,NA,NA,NA,NA,NA,NA,NA
NA,NA,NA,NA,NA,choice_trial,survey-html-form,81,303680,0.0-4.0-1.38,127,1,2025-05-01T22:07:52Z,b60275e29fe2361ab97ac0ac217840d7,"Mozilla/5.0 (Macintosh; Intel Mac OS X 10_15_7) AppleWebKit/537.36 (KHTML, like Gecko) Chrome/116.0.0.0 Safari/537.36",Macintosh,Chrome,116.0.0.0,OS X,10_15_7,https://5puzkbbxv1.cognition.run/?sona_id=57701,"en-US,en;q=0.9",7xfsynk95c8myzp,19,"[""Asian""]",No,Female,NA,No,395525.89999997616,NA,2125,NA,"{""product_choice"":""A""}",choice,bw,binary,catch,null,washing machines,80,55,15,15,null,null,2,null,null,null,null,null,null,Average lifespan,Energy savings,NA,NA
NA,NA,NA,NA,NA,choice_trial_setup,html-keyboard-response,82,303988,0.0-4.0-0.39,127,1,2025-05-01T22:07:52Z,b60275e29fe2361ab97ac0ac217840d7,"Mozilla/5.0 (Macintosh; Intel Mac OS X 10_15_7) AppleWebKit/537.36 (KHTML, like Gecko) Chrome/116.0.0.0 Safari/537.36",Macintosh,Chrome,116.0.0.0,OS X,10_15_7,https://5puzkbbxv1.cognition.run/?sona_id=57701,"en-US,en;q=0.9",7xfsynk95c8myzp,19,"[""Asian""]",No,Female,NA,No,395525.89999997616,NA,null,<p></p>,null,choice,tcd,trinary,attraction,2,laptops,null,null,null,null,null,null,1,NA,NA,NA,NA,NA,NA,NA,NA,NA,NA
NA,NA,NA,NA,NA,choice_trial,survey-html-form,83,309534,0.0-4.0-1.39,127,1,2025-05-01T22:07:52Z,b60275e29fe2361ab97ac0ac217840d7,"Mozilla/5.0 (Macintosh; Intel Mac OS X 10_15_7) AppleWebKit/537.36 (KHTML, like Gecko) Chrome/116.0.0.0 Safari/537.36",Macintosh,Chrome,116.0.0.0,OS X,10_15_7,https://5puzkbbxv1.cognition.run/?sona_id=57701,"en-US,en;q=0.9",7xfsynk95c8myzp,19,"[""Asian""]",No,Female,NA,No,395525.89999997616,NA,5539,NA,"{""product_choice"":""A""}",choice,tcd,trinary,attraction,2,laptops,null,null,null,null,null,null,1,50,60,40,60,50,60,Processing speed,Memory (RAM),NA,NA
NA,NA,NA,NA,NA,choice_trial_setup,html-keyboard-response,84,309843,0.0-4.0-0.40,127,1,2025-05-01T22:07:52Z,b60275e29fe2361ab97ac0ac217840d7,"Mozilla/5.0 (Macintosh; Intel Mac OS X 10_15_7) AppleWebKit/537.36 (KHTML, like Gecko) Chrome/116.0.0.0 Safari/537.36",Macintosh,Chrome,116.0.0.0,OS X,10_15_7,https://5puzkbbxv1.cognition.run/?sona_id=57701,"en-US,en;q=0.9",7xfsynk95c8myzp,19,"[""Asian""]",No,Female,NA,No,395525.89999997616,NA,null,<p></p>,null,choice,cdt,trinary,attraction,2,washing machines,null,null,null,null,null,null,2,NA,NA,NA,NA,NA,NA,NA,NA,NA,NA
NA,NA,NA,NA,NA,choice_trial,survey-html-form,85,314129,0.0-4.0-1.40,127,1,2025-05-01T22:07:52Z,b60275e29fe2361ab97ac0ac217840d7,"Mozilla/5.0 (Macintosh; Intel Mac OS X 10_15_7) AppleWebKit/537.36 (KHTML, like Gecko) Chrome/116.0.0.0 Safari/537.36",Macintosh,Chrome,116.0.0.0,OS X,10_15_7,https://5puzkbbxv1.cognition.run/?sona_id=57701,"en-US,en;q=0.9",7xfsynk95c8myzp,19,"[""Asian""]",No,Female,NA,No,395525.89999997616,NA,4279,NA,"{""product_choice"":""A""}",choice,cdt,trinary,attraction,2,washing machines,null,null,null,null,null,null,2,50,60,40,60,50,60,Average lifespan,Energy savings,NA,NA
NA,NA,NA,NA,NA,choice_trial_setup,html-keyboard-response,86,314444,0.0-4.0-0.41,127,1,2025-05-01T22:07:52Z,b60275e29fe2361ab97ac0ac217840d7,"Mozilla/5.0 (Macintosh; Intel Mac OS X 10_15_7) AppleWebKit/537.36 (KHTML, like Gecko) Chrome/116.0.0.0 Safari/537.36",Macintosh,Chrome,116.0.0.0,OS X,10_15_7,https://5puzkbbxv1.cognition.run/?sona_id=57701,"en-US,en;q=0.9",7xfsynk95c8myzp,19,"[""Asian""]",No,Female,NA,No,395525.89999997616,NA,null,<p></p>,null,choice,ct,binary,attraction,NA,laptops,null,null,null,null,null,null,2,NA,NA,NA,NA,NA,NA,NA,NA,NA,NA
NA,NA,NA,NA,NA,choice_trial,survey-html-form,87,318263,0.0-4.0-1.41,127,1,2025-05-01T22:07:52Z,b60275e29fe2361ab97ac0ac217840d7,"Mozilla/5.0 (Macintosh; Intel Mac OS X 10_15_7) AppleWebKit/537.36 (KHTML, like Gecko) Chrome/116.0.0.0 Safari/537.36",Macintosh,Chrome,116.0.0.0,OS X,10_15_7,https://5puzkbbxv1.cognition.run/?sona_id=57701,"en-US,en;q=0.9",7xfsynk95c8myzp,19,"[""Asian""]",No,Female,NA,No,395525.89999997616,NA,3813,NA,"{""product_choice"":""B""}",choice,ct,binary,attraction,NA,laptops,null,null,null,null,null,null,2,60,50,null,50,60,null,Processing speed,Memory (RAM),NA,NA
NA,NA,NA,NA,NA,choice_trial_setup,html-keyboard-response,88,318568,0.0-4.0-0.42,127,1,2025-05-01T22:07:52Z,b60275e29fe2361ab97ac0ac217840d7,"Mozilla/5.0 (Macintosh; Intel Mac OS X 10_15_7) AppleWebKit/537.36 (KHTML, like Gecko) Chrome/116.0.0.0 Safari/537.36",Macintosh,Chrome,116.0.0.0,OS X,10_15_7,https://5puzkbbxv1.cognition.run/?sona_id=57701,"en-US,en;q=0.9",7xfsynk95c8myzp,19,"[""Asian""]",No,Female,NA,No,395525.89999997616,NA,null,<p></p>,null,choice,tc,binary,attraction,NA,microwave ovens,null,null,null,null,null,null,1,NA,NA,NA,NA,NA,NA,NA,NA,NA,NA
NA,NA,NA,NA,NA,choice_trial,survey-html-form,89,324036,0.0-4.0-1.42,127,1,2025-05-01T22:07:52Z,b60275e29fe2361ab97ac0ac217840d7,"Mozilla/5.0 (Macintosh; Intel Mac OS X 10_15_7) AppleWebKit/537.36 (KHTML, like Gecko) Chrome/116.0.0.0 Safari/537.36",Macintosh,Chrome,116.0.0.0,OS X,10_15_7,https://5puzkbbxv1.cognition.run/?sona_id=57701,"en-US,en;q=0.9",7xfsynk95c8myzp,19,"[""Asian""]",No,Female,NA,No,395525.89999997616,NA,5462,NA,"{""product_choice"":""B""}",choice,tc,binary,attraction,NA,microwave ovens,null,null,null,null,null,null,1,60,50,null,50,60,null,Warranty,Cooking power,NA,NA
NA,NA,NA,NA,NA,choice_trial_setup,html-keyboard-response,90,324347,0.0-4.0-0.43,127,1,2025-05-01T22:07:52Z,b60275e29fe2361ab97ac0ac217840d7,"Mozilla/5.0 (Macintosh; Intel Mac OS X 10_15_7) AppleWebKit/537.36 (KHTML, like Gecko) Chrome/116.0.0.0 Safari/537.36",Macintosh,Chrome,116.0.0.0,OS X,10_15_7,https://5puzkbbxv1.cognition.run/?sona_id=57701,"en-US,en;q=0.9",7xfsynk95c8myzp,19,"[""Asian""]",No,Female,NA,No,395525.89999997616,NA,null,<p></p>,null,choice,dtc,trinary,attraction,2,microwave ovens,null,null,null,null,null,null,2,NA,NA,NA,NA,NA,NA,NA,NA,NA,NA
NA,NA,NA,NA,NA,choice_trial,survey-html-form,91,330350,0.0-4.0-1.43,127,1,2025-05-01T22:07:52Z,b60275e29fe2361ab97ac0ac217840d7,"Mozilla/5.0 (Macintosh; Intel Mac OS X 10_15_7) AppleWebKit/537.36 (KHTML, like Gecko) Chrome/116.0.0.0 Safari/537.36",Macintosh,Chrome,116.0.0.0,OS X,10_15_7,https://5puzkbbxv1.cognition.run/?sona_id=57701,"en-US,en;q=0.9",7xfsynk95c8myzp,19,"[""Asian""]",No,Female,NA,No,395525.89999997616,NA,5996,NA,"{""product_choice"":""B""}",choice,dtc,trinary,attraction,2,microwave ovens,null,null,null,null,null,null,2,50,60,40,60,50,60,Warranty,Cooking power,NA,NA
NA,NA,NA,NA,NA,post_trials_message,html-button-response,92,332347,0.0-5.0,127,1,2025-05-01T22:07:52Z,b60275e29fe2361ab97ac0ac217840d7,"Mozilla/5.0 (Macintosh; Intel Mac OS X 10_15_7) AppleWebKit/537.36 (KHTML, like Gecko) Chrome/116.0.0.0 Safari/537.36",Macintosh,Chrome,116.0.0.0,OS X,10_15_7,https://5puzkbbxv1.cognition.run/?sona_id=57701,"en-US,en;q=0.9",7xfsynk95c8myzp,19,"[""Asian""]",No,Female,NA,No,395525.89999997616,NA,1991,<p> <b>Thank you for your patience!</b></p><p>  The study will be done after completing a brief form. </p>,0,NA,NA,NA,NA,NA,NA,NA,NA,NA,NA,NA,NA,NA,NA,NA,NA,NA,NA,NA,NA,NA,NA,NA
NA,NA,NA,NA,NA,survey_message,survey-text,93,362306,0.0-6.0,127,1,2025-05-01T22:07:52Z,b60275e29fe2361ab97ac0ac217840d7,"Mozilla/5.0 (Macintosh; Intel Mac OS X 10_15_7) AppleWebKit/537.36 (KHTML, like Gecko) Chrome/116.0.0.0 Safari/537.36",Macintosh,Chrome,116.0.0.0,OS X,10_15_7,https://5puzkbbxv1.cognition.run/?sona_id=57701,"en-US,en;q=0.9",7xfsynk95c8myzp,19,"[""Asian""]",No,Female,NA,No,395525.89999997616,NA,29951,NA,"{""Q0"":""i looked at the opportunity cost of each product choice""}",NA,NA,NA,NA,NA,NA,NA,NA,NA,NA,NA,NA,NA,NA,NA,NA,NA,NA,NA,NA,NA,i looked at the opportunity cost of each product choice,NA
NA,NA,NA,NA,NA,demo_age,survey-text,94,365999,0.0-7.0,127,1,2025-05-01T22:07:52Z,b60275e29fe2361ab97ac0ac217840d7,"Mozilla/5.0 (Macintosh; Intel Mac OS X 10_15_7) AppleWebKit/537.36 (KHTML, like Gecko) Chrome/116.0.0.0 Safari/537.36",Macintosh,Chrome,116.0.0.0,OS X,10_15_7,https://5puzkbbxv1.cognition.run/?sona_id=57701,"en-US,en;q=0.9",7xfsynk95c8myzp,19,"[""Asian""]",No,Female,NA,No,395525.89999997616,NA,3453,NA,"{""Q0"":""19""}",NA,NA,NA,NA,NA,NA,NA,NA,NA,NA,NA,NA,NA,NA,NA,NA,NA,NA,NA,NA,NA,NA,NA
NA,NA,NA,NA,NA,demo_race,survey-multi-select,95,368374,0.0-8.0,127,1,2025-05-01T22:07:52Z,b60275e29fe2361ab97ac0ac217840d7,"Mozilla/5.0 (Macintosh; Intel Mac OS X 10_15_7) AppleWebKit/537.36 (KHTML, like Gecko) Chrome/116.0.0.0 Safari/537.36",Macintosh,Chrome,116.0.0.0,OS X,10_15_7,https://5puzkbbxv1.cognition.run/?sona_id=57701,"en-US,en;q=0.9",7xfsynk95c8myzp,19,"[""Asian""]",No,Female,NA,No,395525.89999997616,NA,2257,NA,"{""Q0"":[""Asian""]}",NA,NA,NA,NA,NA,NA,NA,NA,NA,NA,NA,NA,NA,NA,NA,NA,NA,NA,NA,NA,NA,NA,[0]
NA,NA,NA,NA,NA,demo_ethnicity_gender,survey-multi-choice,96,373556,0.0-9.0,127,1,2025-05-01T22:07:52Z,b60275e29fe2361ab97ac0ac217840d7,"Mozilla/5.0 (Macintosh; Intel Mac OS X 10_15_7) AppleWebKit/537.36 (KHTML, like Gecko) Chrome/116.0.0.0 Safari/537.36",Macintosh,Chrome,116.0.0.0,OS X,10_15_7,https://5puzkbbxv1.cognition.run/?sona_id=57701,"en-US,en;q=0.9",7xfsynk95c8myzp,19,"[""Asian""]",No,Female,NA,No,395525.89999997616,NA,5178,NA,"{""Q0"":""No"",""Q1"":""Female""}",NA,NA,NA,NA,NA,NA,NA,NA,NA,NA,NA,NA,NA,NA,NA,NA,NA,NA,NA,NA,NA,NA,"[0,1]"
NA,NA,NA,NA,NA,demo_countries,survey-text,97,379673,0.0-10.0,127,1,2025-05-01T22:07:52Z,b60275e29fe2361ab97ac0ac217840d7,"Mozilla/5.0 (Macintosh; Intel Mac OS X 10_15_7) AppleWebKit/537.36 (KHTML, like Gecko) Chrome/116.0.0.0 Safari/537.36",Macintosh,Chrome,116.0.0.0,OS X,10_15_7,https://5puzkbbxv1.cognition.run/?sona_id=57701,"en-US,en;q=0.9",7xfsynk95c8myzp,19,"[""Asian""]",No,Female,NA,No,395525.89999997616,NA,6073,NA,"{""Q0"":""NA""}",NA,NA,NA,NA,NA,NA,NA,NA,NA,NA,NA,NA,NA,NA,NA,NA,NA,NA,NA,NA,NA,NA,NA
NA,NA,NA,NA,NA,demo_prev_study,survey-multi-choice,98,385924,0.0-11.0,127,1,2025-05-01T22:07:52Z,b60275e29fe2361ab97ac0ac217840d7,"Mozilla/5.0 (Macintosh; Intel Mac OS X 10_15_7) AppleWebKit/537.36 (KHTML, like Gecko) Chrome/116.0.0.0 Safari/537.36",Macintosh,Chrome,116.0.0.0,OS X,10_15_7,https://5puzkbbxv1.cognition.run/?sona_id=57701,"en-US,en;q=0.9",7xfsynk95c8myzp,19,"[""Asian""]",No,Female,NA,No,395525.89999997616,NA,6247,NA,"{""Q0"":""No""}",NA,NA,NA,NA,NA,NA,NA,NA,NA,NA,NA,NA,NA,NA,NA,NA,NA,NA,NA,NA,NA,NA,[0]
NA,NA,NA,NA,NA,post_survey_message,html-keyboard-response,99,390111,0.0-12.0,127,1,2025-05-01T22:07:52Z,b60275e29fe2361ab97ac0ac217840d7,"Mozilla/5.0 (Macintosh; Intel Mac OS X 10_15_7) AppleWebKit/537.36 (KHTML, like Gecko) Chrome/116.0.0.0 Safari/537.36",Macintosh,Chrome,116.0.0.0,OS X,10_15_7,https://5puzkbbxv1.cognition.run/?sona_id=57701,"en-US,en;q=0.9",7xfsynk95c8myzp,19,"[""Asian""]",No,Female,NA,No,395525.89999997616,NA,4180,NA,j,NA,NA,NA,NA,NA,NA,NA,NA,NA,NA,NA,NA,NA,NA,NA,NA,NA,NA,NA,NA,NA,NA,NA
NA,NA,NA,NA,NA,debrief,image-keyboard-response,100,395522,0.0-13.0,127,1,2025-05-01T22:07:52Z,b60275e29fe2361ab97ac0ac217840d7,"Mozilla/5.0 (Macintosh; Intel Mac OS X 10_15_7) AppleWebKit/537.36 (KHTML, like Gecko) Chrome/116.0.0.0 Safari/537.36",Macintosh,Chrome,116.0.0.0,OS X,10_15_7,https://5puzkbbxv1.cognition.run/?sona_id=57701,"en-US,en;q=0.9",7xfsynk95c8myzp,19,"[""Asian""]",No,Female,NA,No,395525.89999997616,NA,5310,Judg_choice_debrief.png,p,NA,NA,NA,NA,NA,NA,NA,NA,NA,NA,NA,NA,NA,NA,NA,NA,NA,NA,NA,NA,NA,NA,NA
