success,timeout,failed_images,failed_audio,failed_video,screen_id,trial_type,trial_index,time_elapsed,internal_node_id,run_id,condition,recorded_at,source_code_version,user_agent,device,browser,browser_version,platform,platform_version,referer,accept_language,ppt_id,age,race,ethnicity,gender,other_countries,prev_study,exp_duration,view_history,rt,stimulus,response,phase,order,set,effect,t_high,category,d1_best,d2_best,d1_worst1,d2_worst1,d1_worst2,d2_worst2,first_dim,d1_t,d1_c,d1_d,d2_t,d2_c,d2_d,d1_name,d2_name,strategy_response,question_order
TRUE,FALSE,[],[],[],img preload,preload,0,510,0.0-0.0,128,1,2025-05-01T22:28:20Z,b60275e29fe2361ab97ac0ac217840d7,Mozilla/5.0 (Windows NT 10.0; Win64; x64; rv:137.0) Gecko/20100101 Firefox/137.0,NA,Firefox,137,Windows,10,https://5puzkbbxv1.cognition.run/?sona_id=57989,"en-US,en;q=0.5",1t463yqaov9lq6o,18,"[""Asian""]",No,Female,"India, 18 years",No,2205236,NA,NA,NA,NA,NA,NA,NA,NA,NA,NA,NA,NA,NA,NA,NA,NA,NA,NA,NA,NA,NA,NA,NA,NA,NA,NA,NA
NA,NA,NA,NA,NA,computer_message,instructions,1,4645,0.0-1.0,128,1,2025-05-01T22:28:20Z,b60275e29fe2361ab97ac0ac217840d7,Mozilla/5.0 (Windows NT 10.0; Win64; x64; rv:137.0) Gecko/20100101 Firefox/137.0,NA,Firefox,137,Windows,10,https://5puzkbbxv1.cognition.run/?sona_id=57989,"en-US,en;q=0.5",1t463yqaov9lq6o,18,"[""Asian""]",No,Female,"India, 18 years",No,2205236,"[{""page_index"":0,""viewing_time"":4133}]",4134,NA,NA,NA,NA,NA,NA,NA,NA,NA,NA,NA,NA,NA,NA,NA,NA,NA,NA,NA,NA,NA,NA,NA,NA,NA
TRUE,NA,NA,NA,NA,NA,fullscreen,2,8286,0.0-2.0,128,1,2025-05-01T22:28:20Z,b60275e29fe2361ab97ac0ac217840d7,Mozilla/5.0 (Windows NT 10.0; Win64; x64; rv:137.0) Gecko/20100101 Firefox/137.0,NA,Firefox,137,Windows,10,https://5puzkbbxv1.cognition.run/?sona_id=57989,"en-US,en;q=0.5",1t463yqaov9lq6o,18,"[""Asian""]",No,Female,"India, 18 years",No,2205236,NA,2632,NA,NA,NA,NA,NA,NA,NA,NA,NA,NA,NA,NA,NA,NA,NA,NA,NA,NA,NA,NA,NA,NA,NA,NA,NA
NA,NA,NA,NA,NA,choice_instructions,instructions,3,49941,0.0-3.0,128,1,2025-05-01T22:28:20Z,b60275e29fe2361ab97ac0ac217840d7,Mozilla/5.0 (Windows NT 10.0; Win64; x64; rv:137.0) Gecko/20100101 Firefox/137.0,NA,Firefox,137,Windows,10,https://5puzkbbxv1.cognition.run/?sona_id=57989,"en-US,en;q=0.5",1t463yqaov9lq6o,18,"[""Asian""]",No,Female,"India, 18 years",No,2205236,"[{""page_index"":0,""viewing_time"":1749},{""page_index"":1,""viewing_time"":3546},{""page_index"":2,""viewing_time"":11800},{""page_index"":3,""viewing_time"":4855},{""page_index"":4,""viewing_time"":4778},{""page_index"":5,""viewing_time"":6051},{""page_index"":6,""viewing_time"":8874}]",41653,NA,NA,NA,NA,NA,NA,NA,NA,NA,NA,NA,NA,NA,NA,NA,NA,NA,NA,NA,NA,NA,NA,NA,NA,NA
NA,NA,NA,NA,NA,choice_trial_setup,html-keyboard-response,4,50263,0.0-4.0-0.0,128,1,2025-05-01T22:28:20Z,b60275e29fe2361ab97ac0ac217840d7,Mozilla/5.0 (Windows NT 10.0; Win64; x64; rv:137.0) Gecko/20100101 Firefox/137.0,NA,Firefox,137,Windows,10,https://5puzkbbxv1.cognition.run/?sona_id=57989,"en-US,en;q=0.5",1t463yqaov9lq6o,18,"[""Asian""]",No,Female,"India, 18 years",No,2205236,NA,null,<p></p>,null,choice,tdc,trinary,repulsion_B,2,washing machines,null,null,null,null,null,null,1,NA,NA,NA,NA,NA,NA,NA,NA,NA,NA
NA,NA,NA,NA,NA,choice_trial,survey-html-form,5,69344,0.0-4.0-1.0,128,1,2025-05-01T22:28:20Z,b60275e29fe2361ab97ac0ac217840d7,Mozilla/5.0 (Windows NT 10.0; Win64; x64; rv:137.0) Gecko/20100101 Firefox/137.0,NA,Firefox,137,Windows,10,https://5puzkbbxv1.cognition.run/?sona_id=57989,"en-US,en;q=0.5",1t463yqaov9lq6o,18,"[""Asian""]",No,Female,"India, 18 years",No,2205236,NA,19077,NA,"{""product_choice"":""C""}",choice,tdc,trinary,repulsion_B,2,washing machines,null,null,null,null,null,null,1,40,30,40,90,100,80,Average lifespan,Energy savings,NA,NA
NA,NA,NA,NA,NA,choice_trial_setup,html-keyboard-response,6,69649,0.0-4.0-0.1,128,1,2025-05-01T22:28:20Z,b60275e29fe2361ab97ac0ac217840d7,Mozilla/5.0 (Windows NT 10.0; Win64; x64; rv:137.0) Gecko/20100101 Firefox/137.0,NA,Firefox,137,Windows,10,https://5puzkbbxv1.cognition.run/?sona_id=57989,"en-US,en;q=0.5",1t463yqaov9lq6o,18,"[""Asian""]",No,Female,"India, 18 years",No,2205236,NA,null,<p></p>,null,choice,bw,binary,catch,null,televisions,50,95,40,35,null,null,2,NA,NA,NA,NA,NA,NA,NA,NA,NA,NA
NA,NA,NA,NA,NA,choice_trial,survey-html-form,7,85431,0.0-4.0-1.1,128,1,2025-05-01T22:28:20Z,b60275e29fe2361ab97ac0ac217840d7,Mozilla/5.0 (Windows NT 10.0; Win64; x64; rv:137.0) Gecko/20100101 Firefox/137.0,NA,Firefox,137,Windows,10,https://5puzkbbxv1.cognition.run/?sona_id=57989,"en-US,en;q=0.5",1t463yqaov9lq6o,18,"[""Asian""]",No,Female,"India, 18 years",No,2205236,NA,15779,NA,"{""product_choice"":""A""}",choice,bw,binary,catch,null,televisions,50,95,40,35,null,null,2,null,null,null,null,null,null,Screen size,Average lifespan,NA,NA
NA,NA,NA,NA,NA,choice_trial_setup,html-keyboard-response,8,85738,0.0-4.0-0.2,128,1,2025-05-01T22:28:20Z,b60275e29fe2361ab97ac0ac217840d7,Mozilla/5.0 (Windows NT 10.0; Win64; x64; rv:137.0) Gecko/20100101 Firefox/137.0,NA,Firefox,137,Windows,10,https://5puzkbbxv1.cognition.run/?sona_id=57989,"en-US,en;q=0.5",1t463yqaov9lq6o,18,"[""Asian""]",No,Female,"India, 18 years",No,2205236,NA,null,<p></p>,null,choice,cdt,trinary,repulsion_B,1,washing machines,null,null,null,null,null,null,1,NA,NA,NA,NA,NA,NA,NA,NA,NA,NA
NA,NA,NA,NA,NA,choice_trial,survey-html-form,9,97975,0.0-4.0-1.2,128,1,2025-05-01T22:28:20Z,b60275e29fe2361ab97ac0ac217840d7,Mozilla/5.0 (Windows NT 10.0; Win64; x64; rv:137.0) Gecko/20100101 Firefox/137.0,NA,Firefox,137,Windows,10,https://5puzkbbxv1.cognition.run/?sona_id=57989,"en-US,en;q=0.5",1t463yqaov9lq6o,18,"[""Asian""]",No,Female,"India, 18 years",No,2205236,NA,12234,NA,"{""product_choice"":""C""}",choice,cdt,trinary,repulsion_B,1,washing machines,null,null,null,null,null,null,1,90,100,80,40,30,40,Average lifespan,Energy savings,NA,NA
NA,NA,NA,NA,NA,choice_trial_setup,html-keyboard-response,10,98288,0.0-4.0-0.3,128,1,2025-05-01T22:28:20Z,b60275e29fe2361ab97ac0ac217840d7,Mozilla/5.0 (Windows NT 10.0; Win64; x64; rv:137.0) Gecko/20100101 Firefox/137.0,NA,Firefox,137,Windows,10,https://5puzkbbxv1.cognition.run/?sona_id=57989,"en-US,en;q=0.5",1t463yqaov9lq6o,18,"[""Asian""]",No,Female,"India, 18 years",No,2205236,NA,null,<p></p>,null,choice,wbw,trinary,catch,null,microwave ovens,85,60,35,25,20,10,2,NA,NA,NA,NA,NA,NA,NA,NA,NA,NA
NA,NA,NA,NA,NA,choice_trial,survey-html-form,11,107964,0.0-4.0-1.3,128,1,2025-05-01T22:28:20Z,b60275e29fe2361ab97ac0ac217840d7,Mozilla/5.0 (Windows NT 10.0; Win64; x64; rv:137.0) Gecko/20100101 Firefox/137.0,NA,Firefox,137,Windows,10,https://5puzkbbxv1.cognition.run/?sona_id=57989,"en-US,en;q=0.5",1t463yqaov9lq6o,18,"[""Asian""]",No,Female,"India, 18 years",No,2205236,NA,9674,NA,"{""product_choice"":""B""}",choice,wbw,trinary,catch,null,microwave ovens,85,60,35,25,20,10,2,null,null,null,null,null,null,Warranty,Cooking power,NA,NA
NA,NA,NA,NA,NA,choice_trial_setup,html-keyboard-response,12,108265,0.0-4.0-0.4,128,1,2025-05-01T22:28:20Z,b60275e29fe2361ab97ac0ac217840d7,Mozilla/5.0 (Windows NT 10.0; Win64; x64; rv:137.0) Gecko/20100101 Firefox/137.0,NA,Firefox,137,Windows,10,https://5puzkbbxv1.cognition.run/?sona_id=57989,"en-US,en;q=0.5",1t463yqaov9lq6o,18,"[""Asian""]",No,Female,"India, 18 years",No,2205236,NA,null,<p></p>,null,choice,cdt,trinary,attraction,2,washing machines,null,null,null,null,null,null,1,NA,NA,NA,NA,NA,NA,NA,NA,NA,NA
NA,NA,NA,NA,NA,choice_trial,survey-html-form,13,123842,0.0-4.0-1.4,128,1,2025-05-01T22:28:20Z,b60275e29fe2361ab97ac0ac217840d7,Mozilla/5.0 (Windows NT 10.0; Win64; x64; rv:137.0) Gecko/20100101 Firefox/137.0,NA,Firefox,137,Windows,10,https://5puzkbbxv1.cognition.run/?sona_id=57989,"en-US,en;q=0.5",1t463yqaov9lq6o,18,"[""Asian""]",No,Female,"India, 18 years",No,2205236,NA,15575,NA,"{""product_choice"":""B""}",choice,cdt,trinary,attraction,2,washing machines,null,null,null,null,null,null,1,50,60,40,60,50,60,Average lifespan,Energy savings,NA,NA
NA,NA,NA,NA,NA,choice_trial_setup,html-keyboard-response,14,124151,0.0-4.0-0.5,128,1,2025-05-01T22:28:20Z,b60275e29fe2361ab97ac0ac217840d7,Mozilla/5.0 (Windows NT 10.0; Win64; x64; rv:137.0) Gecko/20100101 Firefox/137.0,NA,Firefox,137,Windows,10,https://5puzkbbxv1.cognition.run/?sona_id=57989,"en-US,en;q=0.5",1t463yqaov9lq6o,18,"[""Asian""]",No,Female,"India, 18 years",No,2205236,NA,null,<p></p>,null,choice,cdt,trinary,repulsion_A,1,microwave ovens,null,null,null,null,null,null,1,NA,NA,NA,NA,NA,NA,NA,NA,NA,NA
NA,NA,NA,NA,NA,choice_trial,survey-html-form,15,136488,0.0-4.0-1.5,128,1,2025-05-01T22:28:20Z,b60275e29fe2361ab97ac0ac217840d7,Mozilla/5.0 (Windows NT 10.0; Win64; x64; rv:137.0) Gecko/20100101 Firefox/137.0,NA,Firefox,137,Windows,10,https://5puzkbbxv1.cognition.run/?sona_id=57989,"en-US,en;q=0.5",1t463yqaov9lq6o,18,"[""Asian""]",No,Female,"India, 18 years",No,2205236,NA,12336,NA,"{""product_choice"":""A""}",choice,cdt,trinary,repulsion_A,1,microwave ovens,null,null,null,null,null,null,1,100,90,100,30,40,20,Warranty,Cooking power,NA,NA
NA,NA,NA,NA,NA,choice_trial_setup,html-keyboard-response,16,136803,0.0-4.0-0.6,128,1,2025-05-01T22:28:20Z,b60275e29fe2361ab97ac0ac217840d7,Mozilla/5.0 (Windows NT 10.0; Win64; x64; rv:137.0) Gecko/20100101 Firefox/137.0,NA,Firefox,137,Windows,10,https://5puzkbbxv1.cognition.run/?sona_id=57989,"en-US,en;q=0.5",1t463yqaov9lq6o,18,"[""Asian""]",No,Female,"India, 18 years",No,2205236,NA,null,<p></p>,null,choice,ct,binary,repulsion,2,televisions,null,null,null,null,null,null,1,NA,NA,NA,NA,NA,NA,NA,NA,NA,NA
NA,NA,NA,NA,NA,choice_trial,survey-html-form,17,144300,0.0-4.0-1.6,128,1,2025-05-01T22:28:20Z,b60275e29fe2361ab97ac0ac217840d7,Mozilla/5.0 (Windows NT 10.0; Win64; x64; rv:137.0) Gecko/20100101 Firefox/137.0,NA,Firefox,137,Windows,10,https://5puzkbbxv1.cognition.run/?sona_id=57989,"en-US,en;q=0.5",1t463yqaov9lq6o,18,"[""Asian""]",No,Female,"India, 18 years",No,2205236,NA,7494,NA,"{""product_choice"":""A""}",choice,ct,binary,repulsion,2,televisions,null,null,null,null,null,null,1,30,40,null,100,90,null,Screen size,Average lifespan,NA,NA
NA,NA,NA,NA,NA,choice_trial_setup,html-keyboard-response,18,144610,0.0-4.0-0.7,128,1,2025-05-01T22:28:20Z,b60275e29fe2361ab97ac0ac217840d7,Mozilla/5.0 (Windows NT 10.0; Win64; x64; rv:137.0) Gecko/20100101 Firefox/137.0,NA,Firefox,137,Windows,10,https://5puzkbbxv1.cognition.run/?sona_id=57989,"en-US,en;q=0.5",1t463yqaov9lq6o,18,"[""Asian""]",No,Female,"India, 18 years",No,2205236,NA,null,<p></p>,null,choice,ct,binary,repulsion,2,laptops,null,null,null,null,null,null,2,NA,NA,NA,NA,NA,NA,NA,NA,NA,NA
NA,NA,NA,NA,NA,choice_trial,survey-html-form,19,154508,0.0-4.0-1.7,128,1,2025-05-01T22:28:20Z,b60275e29fe2361ab97ac0ac217840d7,Mozilla/5.0 (Windows NT 10.0; Win64; x64; rv:137.0) Gecko/20100101 Firefox/137.0,NA,Firefox,137,Windows,10,https://5puzkbbxv1.cognition.run/?sona_id=57989,"en-US,en;q=0.5",1t463yqaov9lq6o,18,"[""Asian""]",No,Female,"India, 18 years",No,2205236,NA,9897,NA,"{""product_choice"":""A""}",choice,ct,binary,repulsion,2,laptops,null,null,null,null,null,null,2,30,40,null,100,90,null,Processing speed,Memory (RAM),NA,NA
NA,NA,NA,NA,NA,choice_trial_setup,html-keyboard-response,20,154817,0.0-4.0-0.8,128,1,2025-05-01T22:28:20Z,b60275e29fe2361ab97ac0ac217840d7,Mozilla/5.0 (Windows NT 10.0; Win64; x64; rv:137.0) Gecko/20100101 Firefox/137.0,NA,Firefox,137,Windows,10,https://5puzkbbxv1.cognition.run/?sona_id=57989,"en-US,en;q=0.5",1t463yqaov9lq6o,18,"[""Asian""]",No,Female,"India, 18 years",No,2205236,NA,null,<p></p>,null,choice,tc,binary,repulsion,1,televisions,null,null,null,null,null,null,1,NA,NA,NA,NA,NA,NA,NA,NA,NA,NA
NA,NA,NA,NA,NA,choice_trial,survey-html-form,21,161211,0.0-4.0-1.8,128,1,2025-05-01T22:28:20Z,b60275e29fe2361ab97ac0ac217840d7,Mozilla/5.0 (Windows NT 10.0; Win64; x64; rv:137.0) Gecko/20100101 Firefox/137.0,NA,Firefox,137,Windows,10,https://5puzkbbxv1.cognition.run/?sona_id=57989,"en-US,en;q=0.5",1t463yqaov9lq6o,18,"[""Asian""]",No,Female,"India, 18 years",No,2205236,NA,6393,NA,"{""product_choice"":""A""}",choice,tc,binary,repulsion,1,televisions,null,null,null,null,null,null,1,100,90,null,30,40,null,Screen size,Average lifespan,NA,NA
NA,NA,NA,NA,NA,choice_trial_setup,html-keyboard-response,22,161521,0.0-4.0-0.9,128,1,2025-05-01T22:28:20Z,b60275e29fe2361ab97ac0ac217840d7,Mozilla/5.0 (Windows NT 10.0; Win64; x64; rv:137.0) Gecko/20100101 Firefox/137.0,NA,Firefox,137,Windows,10,https://5puzkbbxv1.cognition.run/?sona_id=57989,"en-US,en;q=0.5",1t463yqaov9lq6o,18,"[""Asian""]",No,Female,"India, 18 years",No,2205236,NA,null,<p></p>,null,choice,tdc,trinary,attraction,2,laptops,null,null,null,null,null,null,2,NA,NA,NA,NA,NA,NA,NA,NA,NA,NA
NA,NA,NA,NA,NA,choice_trial,survey-html-form,23,174375,0.0-4.0-1.9,128,1,2025-05-01T22:28:20Z,b60275e29fe2361ab97ac0ac217840d7,Mozilla/5.0 (Windows NT 10.0; Win64; x64; rv:137.0) Gecko/20100101 Firefox/137.0,NA,Firefox,137,Windows,10,https://5puzkbbxv1.cognition.run/?sona_id=57989,"en-US,en;q=0.5",1t463yqaov9lq6o,18,"[""Asian""]",No,Female,"India, 18 years",No,2205236,NA,12852,NA,"{""product_choice"":""C""}",choice,tdc,trinary,attraction,2,laptops,null,null,null,null,null,null,2,50,60,40,60,50,60,Processing speed,Memory (RAM),NA,NA
NA,NA,NA,NA,NA,choice_trial_setup,html-keyboard-response,24,174687,0.0-4.0-0.10,128,1,2025-05-01T22:28:20Z,b60275e29fe2361ab97ac0ac217840d7,Mozilla/5.0 (Windows NT 10.0; Win64; x64; rv:137.0) Gecko/20100101 Firefox/137.0,NA,Firefox,137,Windows,10,https://5puzkbbxv1.cognition.run/?sona_id=57989,"en-US,en;q=0.5",1t463yqaov9lq6o,18,"[""Asian""]",No,Female,"India, 18 years",No,2205236,NA,null,<p></p>,null,choice,wb,binary,catch,null,laptops,70,85,10,35,null,null,1,NA,NA,NA,NA,NA,NA,NA,NA,NA,NA
NA,NA,NA,NA,NA,choice_trial,survey-html-form,25,180566,0.0-4.0-1.10,128,1,2025-05-01T22:28:20Z,b60275e29fe2361ab97ac0ac217840d7,Mozilla/5.0 (Windows NT 10.0; Win64; x64; rv:137.0) Gecko/20100101 Firefox/137.0,NA,Firefox,137,Windows,10,https://5puzkbbxv1.cognition.run/?sona_id=57989,"en-US,en;q=0.5",1t463yqaov9lq6o,18,"[""Asian""]",No,Female,"India, 18 years",No,2205236,NA,5875,NA,"{""product_choice"":""B""}",choice,wb,binary,catch,null,laptops,70,85,10,35,null,null,1,null,null,null,null,null,null,Processing speed,Memory (RAM),NA,NA
NA,NA,NA,NA,NA,choice_trial_setup,html-keyboard-response,26,180868,0.0-4.0-0.11,128,1,2025-05-01T22:28:20Z,b60275e29fe2361ab97ac0ac217840d7,Mozilla/5.0 (Windows NT 10.0; Win64; x64; rv:137.0) Gecko/20100101 Firefox/137.0,NA,Firefox,137,Windows,10,https://5puzkbbxv1.cognition.run/?sona_id=57989,"en-US,en;q=0.5",1t463yqaov9lq6o,18,"[""Asian""]",No,Female,"India, 18 years",No,2205236,NA,null,<p></p>,null,choice,tdc,trinary,repulsion_B,1,televisions,null,null,null,null,null,null,2,NA,NA,NA,NA,NA,NA,NA,NA,NA,NA
NA,NA,NA,NA,NA,choice_trial,survey-html-form,27,190952,0.0-4.0-1.11,128,1,2025-05-01T22:28:20Z,b60275e29fe2361ab97ac0ac217840d7,Mozilla/5.0 (Windows NT 10.0; Win64; x64; rv:137.0) Gecko/20100101 Firefox/137.0,NA,Firefox,137,Windows,10,https://5puzkbbxv1.cognition.run/?sona_id=57989,"en-US,en;q=0.5",1t463yqaov9lq6o,18,"[""Asian""]",No,Female,"India, 18 years",No,2205236,NA,10081,NA,"{""product_choice"":""C""}",choice,tdc,trinary,repulsion_B,1,televisions,null,null,null,null,null,null,2,90,100,80,40,30,40,Screen size,Average lifespan,NA,NA
NA,NA,NA,NA,NA,choice_trial_setup,html-keyboard-response,28,191262,0.0-4.0-0.12,128,1,2025-05-01T22:28:20Z,b60275e29fe2361ab97ac0ac217840d7,Mozilla/5.0 (Windows NT 10.0; Win64; x64; rv:137.0) Gecko/20100101 Firefox/137.0,NA,Firefox,137,Windows,10,https://5puzkbbxv1.cognition.run/?sona_id=57989,"en-US,en;q=0.5",1t463yqaov9lq6o,18,"[""Asian""]",No,Female,"India, 18 years",No,2205236,NA,null,<p></p>,null,choice,ct,binary,repulsion,1,microwave ovens,null,null,null,null,null,null,1,NA,NA,NA,NA,NA,NA,NA,NA,NA,NA
NA,NA,NA,NA,NA,choice_trial,survey-html-form,29,201216,0.0-4.0-1.12,128,1,2025-05-01T22:28:20Z,b60275e29fe2361ab97ac0ac217840d7,Mozilla/5.0 (Windows NT 10.0; Win64; x64; rv:137.0) Gecko/20100101 Firefox/137.0,NA,Firefox,137,Windows,10,https://5puzkbbxv1.cognition.run/?sona_id=57989,"en-US,en;q=0.5",1t463yqaov9lq6o,18,"[""Asian""]",No,Female,"India, 18 years",No,2205236,NA,9951,NA,"{""product_choice"":""A""}",choice,ct,binary,repulsion,1,microwave ovens,null,null,null,null,null,null,1,100,90,null,30,40,null,Warranty,Cooking power,NA,NA
NA,NA,NA,NA,NA,choice_trial_setup,html-keyboard-response,30,201529,0.0-4.0-0.13,128,1,2025-05-01T22:28:20Z,b60275e29fe2361ab97ac0ac217840d7,Mozilla/5.0 (Windows NT 10.0; Win64; x64; rv:137.0) Gecko/20100101 Firefox/137.0,NA,Firefox,137,Windows,10,https://5puzkbbxv1.cognition.run/?sona_id=57989,"en-US,en;q=0.5",1t463yqaov9lq6o,18,"[""Asian""]",No,Female,"India, 18 years",No,2205236,NA,null,<p></p>,null,choice,bw,binary,catch,null,washing machines,60,60,50,20,null,null,1,NA,NA,NA,NA,NA,NA,NA,NA,NA,NA
NA,NA,NA,NA,NA,choice_trial,survey-html-form,31,207179,0.0-4.0-1.13,128,1,2025-05-01T22:28:20Z,b60275e29fe2361ab97ac0ac217840d7,Mozilla/5.0 (Windows NT 10.0; Win64; x64; rv:137.0) Gecko/20100101 Firefox/137.0,NA,Firefox,137,Windows,10,https://5puzkbbxv1.cognition.run/?sona_id=57989,"en-US,en;q=0.5",1t463yqaov9lq6o,18,"[""Asian""]",No,Female,"India, 18 years",No,2205236,NA,5647,NA,"{""product_choice"":""A""}",choice,bw,binary,catch,null,washing machines,60,60,50,20,null,null,1,null,null,null,null,null,null,Average lifespan,Energy savings,NA,NA
NA,NA,NA,NA,NA,choice_trial_setup,html-keyboard-response,32,207485,0.0-4.0-0.14,128,1,2025-05-01T22:28:20Z,b60275e29fe2361ab97ac0ac217840d7,Mozilla/5.0 (Windows NT 10.0; Win64; x64; rv:137.0) Gecko/20100101 Firefox/137.0,NA,Firefox,137,Windows,10,https://5puzkbbxv1.cognition.run/?sona_id=57989,"en-US,en;q=0.5",1t463yqaov9lq6o,18,"[""Asian""]",No,Female,"India, 18 years",No,2205236,NA,null,<p></p>,null,choice,dtc,trinary,repulsion_A,1,laptops,null,null,null,null,null,null,2,NA,NA,NA,NA,NA,NA,NA,NA,NA,NA
NA,NA,NA,NA,NA,choice_trial,survey-html-form,33,218699,0.0-4.0-1.14,128,1,2025-05-01T22:28:20Z,b60275e29fe2361ab97ac0ac217840d7,Mozilla/5.0 (Windows NT 10.0; Win64; x64; rv:137.0) Gecko/20100101 Firefox/137.0,NA,Firefox,137,Windows,10,https://5puzkbbxv1.cognition.run/?sona_id=57989,"en-US,en;q=0.5",1t463yqaov9lq6o,18,"[""Asian""]",No,Female,"India, 18 years",No,2205236,NA,11211,NA,"{""product_choice"":""B""}",choice,dtc,trinary,repulsion_A,1,laptops,null,null,null,null,null,null,2,100,90,100,30,40,20,Processing speed,Memory (RAM),NA,NA
NA,NA,NA,NA,NA,choice_trial_setup,html-keyboard-response,34,219009,0.0-4.0-0.15,128,1,2025-05-01T22:28:20Z,b60275e29fe2361ab97ac0ac217840d7,Mozilla/5.0 (Windows NT 10.0; Win64; x64; rv:137.0) Gecko/20100101 Firefox/137.0,NA,Firefox,137,Windows,10,https://5puzkbbxv1.cognition.run/?sona_id=57989,"en-US,en;q=0.5",1t463yqaov9lq6o,18,"[""Asian""]",No,Female,"India, 18 years",No,2205236,NA,null,<p></p>,null,choice,tcd,trinary,attraction,2,microwave ovens,null,null,null,null,null,null,1,NA,NA,NA,NA,NA,NA,NA,NA,NA,NA
NA,NA,NA,NA,NA,choice_trial,survey-html-form,35,225664,0.0-4.0-1.15,128,1,2025-05-01T22:28:20Z,b60275e29fe2361ab97ac0ac217840d7,Mozilla/5.0 (Windows NT 10.0; Win64; x64; rv:137.0) Gecko/20100101 Firefox/137.0,NA,Firefox,137,Windows,10,https://5puzkbbxv1.cognition.run/?sona_id=57989,"en-US,en;q=0.5",1t463yqaov9lq6o,18,"[""Asian""]",No,Female,"India, 18 years",No,2205236,NA,6652,NA,"{""product_choice"":""A""}",choice,tcd,trinary,attraction,2,microwave ovens,null,null,null,null,null,null,1,50,60,40,60,50,60,Warranty,Cooking power,NA,NA
NA,NA,NA,NA,NA,choice_trial_setup,html-keyboard-response,36,225974,0.0-4.0-0.16,128,1,2025-05-01T22:28:20Z,b60275e29fe2361ab97ac0ac217840d7,Mozilla/5.0 (Windows NT 10.0; Win64; x64; rv:137.0) Gecko/20100101 Firefox/137.0,NA,Firefox,137,Windows,10,https://5puzkbbxv1.cognition.run/?sona_id=57989,"en-US,en;q=0.5",1t463yqaov9lq6o,18,"[""Asian""]",No,Female,"India, 18 years",No,2205236,NA,null,<p></p>,null,choice,tdc,trinary,attraction,1,microwave ovens,null,null,null,null,null,null,2,NA,NA,NA,NA,NA,NA,NA,NA,NA,NA
NA,NA,NA,NA,NA,choice_trial,survey-html-form,37,230475,0.0-4.0-1.16,128,1,2025-05-01T22:28:20Z,b60275e29fe2361ab97ac0ac217840d7,Mozilla/5.0 (Windows NT 10.0; Win64; x64; rv:137.0) Gecko/20100101 Firefox/137.0,NA,Firefox,137,Windows,10,https://5puzkbbxv1.cognition.run/?sona_id=57989,"en-US,en;q=0.5",1t463yqaov9lq6o,18,"[""Asian""]",No,Female,"India, 18 years",No,2205236,NA,4500,NA,"{""product_choice"":""C""}",choice,tdc,trinary,attraction,1,microwave ovens,null,null,null,null,null,null,2,60,50,60,50,60,40,Warranty,Cooking power,NA,NA
NA,NA,NA,NA,NA,choice_trial_setup,html-keyboard-response,38,230786,0.0-4.0-0.17,128,1,2025-05-01T22:28:20Z,b60275e29fe2361ab97ac0ac217840d7,Mozilla/5.0 (Windows NT 10.0; Win64; x64; rv:137.0) Gecko/20100101 Firefox/137.0,NA,Firefox,137,Windows,10,https://5puzkbbxv1.cognition.run/?sona_id=57989,"en-US,en;q=0.5",1t463yqaov9lq6o,18,"[""Asian""]",No,Female,"India, 18 years",No,2205236,NA,null,<p></p>,null,choice,ctd,trinary,attraction,1,laptops,null,null,null,null,null,null,2,NA,NA,NA,NA,NA,NA,NA,NA,NA,NA
NA,NA,NA,NA,NA,choice_trial,survey-html-form,39,235248,0.0-4.0-1.17,128,1,2025-05-01T22:28:20Z,b60275e29fe2361ab97ac0ac217840d7,Mozilla/5.0 (Windows NT 10.0; Win64; x64; rv:137.0) Gecko/20100101 Firefox/137.0,NA,Firefox,137,Windows,10,https://5puzkbbxv1.cognition.run/?sona_id=57989,"en-US,en;q=0.5",1t463yqaov9lq6o,18,"[""Asian""]",No,Female,"India, 18 years",No,2205236,NA,4461,NA,"{""product_choice"":""B""}",choice,ctd,trinary,attraction,1,laptops,null,null,null,null,null,null,2,60,50,60,50,60,40,Processing speed,Memory (RAM),NA,NA
NA,NA,NA,NA,NA,choice_trial_setup,html-keyboard-response,40,235556,0.0-4.0-0.18,128,1,2025-05-01T22:28:20Z,b60275e29fe2361ab97ac0ac217840d7,Mozilla/5.0 (Windows NT 10.0; Win64; x64; rv:137.0) Gecko/20100101 Firefox/137.0,NA,Firefox,137,Windows,10,https://5puzkbbxv1.cognition.run/?sona_id=57989,"en-US,en;q=0.5",1t463yqaov9lq6o,18,"[""Asian""]",No,Female,"India, 18 years",No,2205236,NA,null,<p></p>,null,choice,dtc,trinary,attraction,1,washing machines,null,null,null,null,null,null,2,NA,NA,NA,NA,NA,NA,NA,NA,NA,NA
NA,NA,NA,NA,NA,choice_trial,survey-html-form,41,244371,0.0-4.0-1.18,128,1,2025-05-01T22:28:20Z,b60275e29fe2361ab97ac0ac217840d7,Mozilla/5.0 (Windows NT 10.0; Win64; x64; rv:137.0) Gecko/20100101 Firefox/137.0,NA,Firefox,137,Windows,10,https://5puzkbbxv1.cognition.run/?sona_id=57989,"en-US,en;q=0.5",1t463yqaov9lq6o,18,"[""Asian""]",No,Female,"India, 18 years",No,2205236,NA,8814,NA,"{""product_choice"":""C""}",choice,dtc,trinary,attraction,1,washing machines,null,null,null,null,null,null,2,60,50,60,50,60,40,Average lifespan,Energy savings,NA,NA
NA,NA,NA,NA,NA,choice_trial_setup,html-keyboard-response,42,244676,0.0-4.0-0.19,128,1,2025-05-01T22:28:20Z,b60275e29fe2361ab97ac0ac217840d7,Mozilla/5.0 (Windows NT 10.0; Win64; x64; rv:137.0) Gecko/20100101 Firefox/137.0,NA,Firefox,137,Windows,10,https://5puzkbbxv1.cognition.run/?sona_id=57989,"en-US,en;q=0.5",1t463yqaov9lq6o,18,"[""Asian""]",No,Female,"India, 18 years",No,2205236,NA,null,<p></p>,null,choice,tcd,trinary,repulsion_B,1,laptops,null,null,null,null,null,null,2,NA,NA,NA,NA,NA,NA,NA,NA,NA,NA
NA,NA,NA,NA,NA,choice_trial,survey-html-form,43,250918,0.0-4.0-1.19,128,1,2025-05-01T22:28:20Z,b60275e29fe2361ab97ac0ac217840d7,Mozilla/5.0 (Windows NT 10.0; Win64; x64; rv:137.0) Gecko/20100101 Firefox/137.0,NA,Firefox,137,Windows,10,https://5puzkbbxv1.cognition.run/?sona_id=57989,"en-US,en;q=0.5",1t463yqaov9lq6o,18,"[""Asian""]",No,Female,"India, 18 years",No,2205236,NA,6239,NA,"{""product_choice"":""A""}",choice,tcd,trinary,repulsion_B,1,laptops,null,null,null,null,null,null,2,90,100,80,40,30,40,Processing speed,Memory (RAM),NA,NA
NA,NA,NA,NA,NA,choice_trial_setup,html-keyboard-response,44,251220,0.0-4.0-0.20,128,1,2025-05-01T22:28:20Z,b60275e29fe2361ab97ac0ac217840d7,Mozilla/5.0 (Windows NT 10.0; Win64; x64; rv:137.0) Gecko/20100101 Firefox/137.0,NA,Firefox,137,Windows,10,https://5puzkbbxv1.cognition.run/?sona_id=57989,"en-US,en;q=0.5",1t463yqaov9lq6o,18,"[""Asian""]",No,Female,"India, 18 years",No,2205236,NA,null,<p></p>,null,choice,tc,binary,attraction,NA,televisions,null,null,null,null,null,null,2,NA,NA,NA,NA,NA,NA,NA,NA,NA,NA
NA,NA,NA,NA,NA,choice_trial,survey-html-form,45,255183,0.0-4.0-1.20,128,1,2025-05-01T22:28:20Z,b60275e29fe2361ab97ac0ac217840d7,Mozilla/5.0 (Windows NT 10.0; Win64; x64; rv:137.0) Gecko/20100101 Firefox/137.0,NA,Firefox,137,Windows,10,https://5puzkbbxv1.cognition.run/?sona_id=57989,"en-US,en;q=0.5",1t463yqaov9lq6o,18,"[""Asian""]",No,Female,"India, 18 years",No,2205236,NA,3961,NA,"{""product_choice"":""A""}",choice,tc,binary,attraction,NA,televisions,null,null,null,null,null,null,2,60,50,null,50,60,null,Screen size,Average lifespan,NA,NA
NA,NA,NA,NA,NA,choice_trial_setup,html-keyboard-response,46,255500,0.0-4.0-0.21,128,1,2025-05-01T22:28:20Z,b60275e29fe2361ab97ac0ac217840d7,Mozilla/5.0 (Windows NT 10.0; Win64; x64; rv:137.0) Gecko/20100101 Firefox/137.0,NA,Firefox,137,Windows,10,https://5puzkbbxv1.cognition.run/?sona_id=57989,"en-US,en;q=0.5",1t463yqaov9lq6o,18,"[""Asian""]",No,Female,"India, 18 years",No,2205236,NA,null,<p></p>,null,choice,tc,binary,attraction,NA,laptops,null,null,null,null,null,null,2,NA,NA,NA,NA,NA,NA,NA,NA,NA,NA
NA,NA,NA,NA,NA,choice_trial,survey-html-form,47,260826,0.0-4.0-1.21,128,1,2025-05-01T22:28:20Z,b60275e29fe2361ab97ac0ac217840d7,Mozilla/5.0 (Windows NT 10.0; Win64; x64; rv:137.0) Gecko/20100101 Firefox/137.0,NA,Firefox,137,Windows,10,https://5puzkbbxv1.cognition.run/?sona_id=57989,"en-US,en;q=0.5",1t463yqaov9lq6o,18,"[""Asian""]",No,Female,"India, 18 years",No,2205236,NA,5324,NA,"{""product_choice"":""A""}",choice,tc,binary,attraction,NA,laptops,null,null,null,null,null,null,2,60,50,null,50,60,null,Processing speed,Memory (RAM),NA,NA
NA,NA,NA,NA,NA,choice_trial_setup,html-keyboard-response,48,261131,0.0-4.0-0.22,128,1,2025-05-01T22:28:20Z,b60275e29fe2361ab97ac0ac217840d7,Mozilla/5.0 (Windows NT 10.0; Win64; x64; rv:137.0) Gecko/20100101 Firefox/137.0,NA,Firefox,137,Windows,10,https://5puzkbbxv1.cognition.run/?sona_id=57989,"en-US,en;q=0.5",1t463yqaov9lq6o,18,"[""Asian""]",No,Female,"India, 18 years",No,2205236,NA,null,<p></p>,null,choice,dtc,trinary,repulsion_B,1,microwave ovens,null,null,null,null,null,null,1,NA,NA,NA,NA,NA,NA,NA,NA,NA,NA
NA,NA,NA,NA,NA,choice_trial,survey-html-form,49,266509,0.0-4.0-1.22,128,1,2025-05-01T22:28:20Z,b60275e29fe2361ab97ac0ac217840d7,Mozilla/5.0 (Windows NT 10.0; Win64; x64; rv:137.0) Gecko/20100101 Firefox/137.0,NA,Firefox,137,Windows,10,https://5puzkbbxv1.cognition.run/?sona_id=57989,"en-US,en;q=0.5",1t463yqaov9lq6o,18,"[""Asian""]",No,Female,"India, 18 years",No,2205236,NA,5376,NA,"{""product_choice"":""B""}",choice,dtc,trinary,repulsion_B,1,microwave ovens,null,null,null,null,null,null,1,90,100,80,40,30,40,Warranty,Cooking power,NA,NA
NA,NA,NA,NA,NA,choice_trial_setup,html-keyboard-response,50,266813,0.0-4.0-0.23,128,1,2025-05-01T22:28:20Z,b60275e29fe2361ab97ac0ac217840d7,Mozilla/5.0 (Windows NT 10.0; Win64; x64; rv:137.0) Gecko/20100101 Firefox/137.0,NA,Firefox,137,Windows,10,https://5puzkbbxv1.cognition.run/?sona_id=57989,"en-US,en;q=0.5",1t463yqaov9lq6o,18,"[""Asian""]",No,Female,"India, 18 years",No,2205236,NA,null,<p></p>,null,choice,bww,trinary,catch,null,washing machines,80,50,15,35,45,35,2,NA,NA,NA,NA,NA,NA,NA,NA,NA,NA
NA,NA,NA,NA,NA,choice_trial,survey-html-form,51,274361,0.0-4.0-1.23,128,1,2025-05-01T22:28:20Z,b60275e29fe2361ab97ac0ac217840d7,Mozilla/5.0 (Windows NT 10.0; Win64; x64; rv:137.0) Gecko/20100101 Firefox/137.0,NA,Firefox,137,Windows,10,https://5puzkbbxv1.cognition.run/?sona_id=57989,"en-US,en;q=0.5",1t463yqaov9lq6o,18,"[""Asian""]",No,Female,"India, 18 years",No,2205236,NA,7545,NA,"{""product_choice"":""B""}",choice,bww,trinary,catch,null,washing machines,80,50,15,35,45,35,2,null,null,null,null,null,null,Average lifespan,Energy savings,NA,NA
NA,NA,NA,NA,NA,choice_trial_setup,html-keyboard-response,52,274670,0.0-4.0-0.24,128,1,2025-05-01T22:28:20Z,b60275e29fe2361ab97ac0ac217840d7,Mozilla/5.0 (Windows NT 10.0; Win64; x64; rv:137.0) Gecko/20100101 Firefox/137.0,NA,Firefox,137,Windows,10,https://5puzkbbxv1.cognition.run/?sona_id=57989,"en-US,en;q=0.5",1t463yqaov9lq6o,18,"[""Asian""]",No,Female,"India, 18 years",No,2205236,NA,null,<p></p>,null,choice,wbw,trinary,catch,null,televisions,75,85,30,45,35,25,1,NA,NA,NA,NA,NA,NA,NA,NA,NA,NA
NA,NA,NA,NA,NA,choice_trial,survey-html-form,53,286945,0.0-4.0-1.24,128,1,2025-05-01T22:28:20Z,b60275e29fe2361ab97ac0ac217840d7,Mozilla/5.0 (Windows NT 10.0; Win64; x64; rv:137.0) Gecko/20100101 Firefox/137.0,NA,Firefox,137,Windows,10,https://5puzkbbxv1.cognition.run/?sona_id=57989,"en-US,en;q=0.5",1t463yqaov9lq6o,18,"[""Asian""]",No,Female,"India, 18 years",No,2205236,NA,12272,NA,"{""product_choice"":""B""}",choice,wbw,trinary,catch,null,televisions,75,85,30,45,35,25,1,null,null,null,null,null,null,Screen size,Average lifespan,NA,NA
NA,NA,NA,NA,NA,choice_trial_setup,html-keyboard-response,54,287261,0.0-4.0-0.25,128,1,2025-05-01T22:28:20Z,b60275e29fe2361ab97ac0ac217840d7,Mozilla/5.0 (Windows NT 10.0; Win64; x64; rv:137.0) Gecko/20100101 Firefox/137.0,NA,Firefox,137,Windows,10,https://5puzkbbxv1.cognition.run/?sona_id=57989,"en-US,en;q=0.5",1t463yqaov9lq6o,18,"[""Asian""]",No,Female,"India, 18 years",No,2205236,NA,null,<p></p>,null,choice,tcd,trinary,repulsion_A,2,washing machines,null,null,null,null,null,null,2,NA,NA,NA,NA,NA,NA,NA,NA,NA,NA
NA,NA,NA,NA,NA,choice_trial,survey-html-form,55,300988,0.0-4.0-1.25,128,1,2025-05-01T22:28:20Z,b60275e29fe2361ab97ac0ac217840d7,Mozilla/5.0 (Windows NT 10.0; Win64; x64; rv:137.0) Gecko/20100101 Firefox/137.0,NA,Firefox,137,Windows,10,https://5puzkbbxv1.cognition.run/?sona_id=57989,"en-US,en;q=0.5",1t463yqaov9lq6o,18,"[""Asian""]",No,Female,"India, 18 years",No,2205236,NA,13724,NA,"{""product_choice"":""C""}",choice,tcd,trinary,repulsion_A,2,washing machines,null,null,null,null,null,null,2,30,40,20,100,90,100,Average lifespan,Energy savings,NA,NA
NA,NA,NA,NA,NA,choice_trial_setup,html-keyboard-response,56,301301,0.0-4.0-0.26,128,1,2025-05-01T22:28:20Z,b60275e29fe2361ab97ac0ac217840d7,Mozilla/5.0 (Windows NT 10.0; Win64; x64; rv:137.0) Gecko/20100101 Firefox/137.0,NA,Firefox,137,Windows,10,https://5puzkbbxv1.cognition.run/?sona_id=57989,"en-US,en;q=0.5",1t463yqaov9lq6o,18,"[""Asian""]",No,Female,"India, 18 years",No,2205236,NA,null,<p></p>,null,choice,dtc,trinary,repulsion_B,2,televisions,null,null,null,null,null,null,1,NA,NA,NA,NA,NA,NA,NA,NA,NA,NA
NA,NA,NA,NA,NA,choice_trial,survey-html-form,57,307953,0.0-4.0-1.26,128,1,2025-05-01T22:28:20Z,b60275e29fe2361ab97ac0ac217840d7,Mozilla/5.0 (Windows NT 10.0; Win64; x64; rv:137.0) Gecko/20100101 Firefox/137.0,NA,Firefox,137,Windows,10,https://5puzkbbxv1.cognition.run/?sona_id=57989,"en-US,en;q=0.5",1t463yqaov9lq6o,18,"[""Asian""]",No,Female,"India, 18 years",No,2205236,NA,6649,NA,"{""product_choice"":""A""}",choice,dtc,trinary,repulsion_B,2,televisions,null,null,null,null,null,null,1,40,30,40,90,100,80,Screen size,Average lifespan,NA,NA
NA,NA,NA,NA,NA,choice_trial_setup,html-keyboard-response,58,308265,0.0-4.0-0.27,128,1,2025-05-01T22:28:20Z,b60275e29fe2361ab97ac0ac217840d7,Mozilla/5.0 (Windows NT 10.0; Win64; x64; rv:137.0) Gecko/20100101 Firefox/137.0,NA,Firefox,137,Windows,10,https://5puzkbbxv1.cognition.run/?sona_id=57989,"en-US,en;q=0.5",1t463yqaov9lq6o,18,"[""Asian""]",No,Female,"India, 18 years",No,2205236,NA,null,<p></p>,null,choice,tdc,trinary,repulsion_A,2,televisions,null,null,null,null,null,null,1,NA,NA,NA,NA,NA,NA,NA,NA,NA,NA
NA,NA,NA,NA,NA,choice_trial,survey-html-form,59,314512,0.0-4.0-1.27,128,1,2025-05-01T22:28:20Z,b60275e29fe2361ab97ac0ac217840d7,Mozilla/5.0 (Windows NT 10.0; Win64; x64; rv:137.0) Gecko/20100101 Firefox/137.0,NA,Firefox,137,Windows,10,https://5puzkbbxv1.cognition.run/?sona_id=57989,"en-US,en;q=0.5",1t463yqaov9lq6o,18,"[""Asian""]",No,Female,"India, 18 years",No,2205236,NA,6245,NA,"{""product_choice"":""C""}",choice,tdc,trinary,repulsion_A,2,televisions,null,null,null,null,null,null,1,30,40,20,100,90,100,Screen size,Average lifespan,NA,NA
NA,NA,NA,NA,NA,choice_trial_setup,html-keyboard-response,60,314826,0.0-4.0-0.28,128,1,2025-05-01T22:28:20Z,b60275e29fe2361ab97ac0ac217840d7,Mozilla/5.0 (Windows NT 10.0; Win64; x64; rv:137.0) Gecko/20100101 Firefox/137.0,NA,Firefox,137,Windows,10,https://5puzkbbxv1.cognition.run/?sona_id=57989,"en-US,en;q=0.5",1t463yqaov9lq6o,18,"[""Asian""]",No,Female,"India, 18 years",No,2205236,NA,null,<p></p>,null,choice,ctd,trinary,repulsion_B,2,laptops,null,null,null,null,null,null,2,NA,NA,NA,NA,NA,NA,NA,NA,NA,NA
NA,NA,NA,NA,NA,choice_trial,survey-html-form,61,319094,0.0-4.0-1.28,128,1,2025-05-01T22:28:20Z,b60275e29fe2361ab97ac0ac217840d7,Mozilla/5.0 (Windows NT 10.0; Win64; x64; rv:137.0) Gecko/20100101 Firefox/137.0,NA,Firefox,137,Windows,10,https://5puzkbbxv1.cognition.run/?sona_id=57989,"en-US,en;q=0.5",1t463yqaov9lq6o,18,"[""Asian""]",No,Female,"India, 18 years",No,2205236,NA,4263,NA,"{""product_choice"":""B""}",choice,ctd,trinary,repulsion_B,2,laptops,null,null,null,null,null,null,2,40,30,40,90,100,80,Processing speed,Memory (RAM),NA,NA
NA,NA,NA,NA,NA,choice_trial_setup,html-keyboard-response,62,319410,0.0-4.0-0.29,128,1,2025-05-01T22:28:20Z,b60275e29fe2361ab97ac0ac217840d7,Mozilla/5.0 (Windows NT 10.0; Win64; x64; rv:137.0) Gecko/20100101 Firefox/137.0,NA,Firefox,137,Windows,10,https://5puzkbbxv1.cognition.run/?sona_id=57989,"en-US,en;q=0.5",1t463yqaov9lq6o,18,"[""Asian""]",No,Female,"India, 18 years",No,2205236,NA,null,<p></p>,null,choice,ctd,trinary,repulsion_A,1,televisions,null,null,null,null,null,null,2,NA,NA,NA,NA,NA,NA,NA,NA,NA,NA
NA,NA,NA,NA,NA,choice_trial,survey-html-form,63,325891,0.0-4.0-1.29,128,1,2025-05-01T22:28:20Z,b60275e29fe2361ab97ac0ac217840d7,Mozilla/5.0 (Windows NT 10.0; Win64; x64; rv:137.0) Gecko/20100101 Firefox/137.0,NA,Firefox,137,Windows,10,https://5puzkbbxv1.cognition.run/?sona_id=57989,"en-US,en;q=0.5",1t463yqaov9lq6o,18,"[""Asian""]",No,Female,"India, 18 years",No,2205236,NA,6476,NA,"{""product_choice"":""C""}",choice,ctd,trinary,repulsion_A,1,televisions,null,null,null,null,null,null,2,100,90,100,30,40,20,Screen size,Average lifespan,NA,NA
NA,NA,NA,NA,NA,choice_trial_setup,html-keyboard-response,64,326212,0.0-4.0-0.30,128,1,2025-05-01T22:28:20Z,b60275e29fe2361ab97ac0ac217840d7,Mozilla/5.0 (Windows NT 10.0; Win64; x64; rv:137.0) Gecko/20100101 Firefox/137.0,NA,Firefox,137,Windows,10,https://5puzkbbxv1.cognition.run/?sona_id=57989,"en-US,en;q=0.5",1t463yqaov9lq6o,18,"[""Asian""]",No,Female,"India, 18 years",No,2205236,NA,null,<p></p>,null,choice,ctd,trinary,repulsion_A,2,laptops,null,null,null,null,null,null,1,NA,NA,NA,NA,NA,NA,NA,NA,NA,NA
NA,NA,NA,NA,NA,choice_trial,survey-html-form,65,331647,0.0-4.0-1.30,128,1,2025-05-01T22:28:20Z,b60275e29fe2361ab97ac0ac217840d7,Mozilla/5.0 (Windows NT 10.0; Win64; x64; rv:137.0) Gecko/20100101 Firefox/137.0,NA,Firefox,137,Windows,10,https://5puzkbbxv1.cognition.run/?sona_id=57989,"en-US,en;q=0.5",1t463yqaov9lq6o,18,"[""Asian""]",No,Female,"India, 18 years",No,2205236,NA,5431,NA,"{""product_choice"":""A""}",choice,ctd,trinary,repulsion_A,2,laptops,null,null,null,null,null,null,1,30,40,20,100,90,100,Processing speed,Memory (RAM),NA,NA
NA,NA,NA,NA,NA,choice_trial_setup,html-keyboard-response,66,331957,0.0-4.0-0.31,128,1,2025-05-01T22:28:20Z,b60275e29fe2361ab97ac0ac217840d7,Mozilla/5.0 (Windows NT 10.0; Win64; x64; rv:137.0) Gecko/20100101 Firefox/137.0,NA,Firefox,137,Windows,10,https://5puzkbbxv1.cognition.run/?sona_id=57989,"en-US,en;q=0.5",1t463yqaov9lq6o,18,"[""Asian""]",No,Female,"India, 18 years",No,2205236,NA,null,<p></p>,null,choice,ct,binary,attraction,NA,washing machines,null,null,null,null,null,null,1,NA,NA,NA,NA,NA,NA,NA,NA,NA,NA
NA,NA,NA,NA,NA,choice_trial,survey-html-form,67,339522,0.0-4.0-1.31,128,1,2025-05-01T22:28:20Z,b60275e29fe2361ab97ac0ac217840d7,Mozilla/5.0 (Windows NT 10.0; Win64; x64; rv:137.0) Gecko/20100101 Firefox/137.0,NA,Firefox,137,Windows,10,https://5puzkbbxv1.cognition.run/?sona_id=57989,"en-US,en;q=0.5",1t463yqaov9lq6o,18,"[""Asian""]",No,Female,"India, 18 years",No,2205236,NA,7561,NA,"{""product_choice"":""A""}",choice,ct,binary,attraction,NA,washing machines,null,null,null,null,null,null,1,60,50,null,50,60,null,Average lifespan,Energy savings,NA,NA
NA,NA,NA,NA,NA,choice_trial_setup,html-keyboard-response,68,339834,0.0-4.0-0.32,128,1,2025-05-01T22:28:20Z,b60275e29fe2361ab97ac0ac217840d7,Mozilla/5.0 (Windows NT 10.0; Win64; x64; rv:137.0) Gecko/20100101 Firefox/137.0,NA,Firefox,137,Windows,10,https://5puzkbbxv1.cognition.run/?sona_id=57989,"en-US,en;q=0.5",1t463yqaov9lq6o,18,"[""Asian""]",No,Female,"India, 18 years",No,2205236,NA,null,<p></p>,null,choice,cdt,trinary,repulsion_A,2,microwave ovens,null,null,null,null,null,null,1,NA,NA,NA,NA,NA,NA,NA,NA,NA,NA
NA,NA,NA,NA,NA,choice_trial,survey-html-form,69,354000,0.0-4.0-1.32,128,1,2025-05-01T22:28:20Z,b60275e29fe2361ab97ac0ac217840d7,Mozilla/5.0 (Windows NT 10.0; Win64; x64; rv:137.0) Gecko/20100101 Firefox/137.0,NA,Firefox,137,Windows,10,https://5puzkbbxv1.cognition.run/?sona_id=57989,"en-US,en;q=0.5",1t463yqaov9lq6o,18,"[""Asian""]",No,Female,"India, 18 years",No,2205236,NA,14162,NA,"{""product_choice"":""B""}",choice,cdt,trinary,repulsion_A,2,microwave ovens,null,null,null,null,null,null,1,30,40,20,100,90,100,Warranty,Cooking power,NA,NA
NA,NA,NA,NA,NA,choice_trial_setup,html-keyboard-response,70,354307,0.0-4.0-0.33,128,1,2025-05-01T22:28:20Z,b60275e29fe2361ab97ac0ac217840d7,Mozilla/5.0 (Windows NT 10.0; Win64; x64; rv:137.0) Gecko/20100101 Firefox/137.0,NA,Firefox,137,Windows,10,https://5puzkbbxv1.cognition.run/?sona_id=57989,"en-US,en;q=0.5",1t463yqaov9lq6o,18,"[""Asian""]",No,Female,"India, 18 years",No,2205236,NA,null,<p></p>,null,choice,wbw,trinary,catch,null,laptops,70,95,25,25,40,40,2,NA,NA,NA,NA,NA,NA,NA,NA,NA,NA
NA,NA,NA,NA,NA,choice_trial,survey-html-form,71,360223,0.0-4.0-1.33,128,1,2025-05-01T22:28:20Z,b60275e29fe2361ab97ac0ac217840d7,Mozilla/5.0 (Windows NT 10.0; Win64; x64; rv:137.0) Gecko/20100101 Firefox/137.0,NA,Firefox,137,Windows,10,https://5puzkbbxv1.cognition.run/?sona_id=57989,"en-US,en;q=0.5",1t463yqaov9lq6o,18,"[""Asian""]",No,Female,"India, 18 years",No,2205236,NA,5913,NA,"{""product_choice"":""B""}",choice,wbw,trinary,catch,null,laptops,70,95,25,25,40,40,2,null,null,null,null,null,null,Processing speed,Memory (RAM),NA,NA
NA,NA,NA,NA,NA,choice_trial_setup,html-keyboard-response,72,360533,0.0-4.0-0.34,128,1,2025-05-01T22:28:20Z,b60275e29fe2361ab97ac0ac217840d7,Mozilla/5.0 (Windows NT 10.0; Win64; x64; rv:137.0) Gecko/20100101 Firefox/137.0,NA,Firefox,137,Windows,10,https://5puzkbbxv1.cognition.run/?sona_id=57989,"en-US,en;q=0.5",1t463yqaov9lq6o,18,"[""Asian""]",No,Female,"India, 18 years",No,2205236,NA,null,<p></p>,null,choice,ct,binary,repulsion,2,microwave ovens,null,null,null,null,null,null,2,NA,NA,NA,NA,NA,NA,NA,NA,NA,NA
NA,NA,NA,NA,NA,choice_trial,survey-html-form,73,364140,0.0-4.0-1.34,128,1,2025-05-01T22:28:20Z,b60275e29fe2361ab97ac0ac217840d7,Mozilla/5.0 (Windows NT 10.0; Win64; x64; rv:137.0) Gecko/20100101 Firefox/137.0,NA,Firefox,137,Windows,10,https://5puzkbbxv1.cognition.run/?sona_id=57989,"en-US,en;q=0.5",1t463yqaov9lq6o,18,"[""Asian""]",No,Female,"India, 18 years",No,2205236,NA,3602,NA,"{""product_choice"":""B""}",choice,ct,binary,repulsion,2,microwave ovens,null,null,null,null,null,null,2,30,40,null,100,90,null,Warranty,Cooking power,NA,NA
NA,NA,NA,NA,NA,choice_trial_setup,html-keyboard-response,74,364450,0.0-4.0-0.35,128,1,2025-05-01T22:28:20Z,b60275e29fe2361ab97ac0ac217840d7,Mozilla/5.0 (Windows NT 10.0; Win64; x64; rv:137.0) Gecko/20100101 Firefox/137.0,NA,Firefox,137,Windows,10,https://5puzkbbxv1.cognition.run/?sona_id=57989,"en-US,en;q=0.5",1t463yqaov9lq6o,18,"[""Asian""]",No,Female,"India, 18 years",No,2205236,NA,null,<p></p>,null,choice,tdc,trinary,repulsion_A,1,washing machines,null,null,null,null,null,null,2,NA,NA,NA,NA,NA,NA,NA,NA,NA,NA
NA,NA,NA,NA,NA,choice_trial,survey-html-form,75,368184,0.0-4.0-1.35,128,1,2025-05-01T22:28:20Z,b60275e29fe2361ab97ac0ac217840d7,Mozilla/5.0 (Windows NT 10.0; Win64; x64; rv:137.0) Gecko/20100101 Firefox/137.0,NA,Firefox,137,Windows,10,https://5puzkbbxv1.cognition.run/?sona_id=57989,"en-US,en;q=0.5",1t463yqaov9lq6o,18,"[""Asian""]",No,Female,"India, 18 years",No,2205236,NA,3730,NA,"{""product_choice"":""C""}",choice,tdc,trinary,repulsion_A,1,washing machines,null,null,null,null,null,null,2,100,90,100,30,40,20,Average lifespan,Energy savings,NA,NA
NA,NA,NA,NA,NA,choice_trial_setup,html-keyboard-response,76,368499,0.0-4.0-0.36,128,1,2025-05-01T22:28:20Z,b60275e29fe2361ab97ac0ac217840d7,Mozilla/5.0 (Windows NT 10.0; Win64; x64; rv:137.0) Gecko/20100101 Firefox/137.0,NA,Firefox,137,Windows,10,https://5puzkbbxv1.cognition.run/?sona_id=57989,"en-US,en;q=0.5",1t463yqaov9lq6o,18,"[""Asian""]",No,Female,"India, 18 years",No,2205236,NA,null,<p></p>,null,choice,tc,binary,attraction,NA,microwave ovens,null,null,null,null,null,null,1,NA,NA,NA,NA,NA,NA,NA,NA,NA,NA
NA,NA,NA,NA,NA,choice_trial,survey-html-form,77,374886,0.0-4.0-1.36,128,1,2025-05-01T22:28:20Z,b60275e29fe2361ab97ac0ac217840d7,Mozilla/5.0 (Windows NT 10.0; Win64; x64; rv:137.0) Gecko/20100101 Firefox/137.0,NA,Firefox,137,Windows,10,https://5puzkbbxv1.cognition.run/?sona_id=57989,"en-US,en;q=0.5",1t463yqaov9lq6o,18,"[""Asian""]",No,Female,"India, 18 years",No,2205236,NA,6384,NA,"{""product_choice"":""B""}",choice,tc,binary,attraction,NA,microwave ovens,null,null,null,null,null,null,1,60,50,null,50,60,null,Warranty,Cooking power,NA,NA
NA,NA,NA,NA,NA,choice_trial_setup,html-keyboard-response,78,375201,0.0-4.0-0.37,128,1,2025-05-01T22:28:20Z,b60275e29fe2361ab97ac0ac217840d7,Mozilla/5.0 (Windows NT 10.0; Win64; x64; rv:137.0) Gecko/20100101 Firefox/137.0,NA,Firefox,137,Windows,10,https://5puzkbbxv1.cognition.run/?sona_id=57989,"en-US,en;q=0.5",1t463yqaov9lq6o,18,"[""Asian""]",No,Female,"India, 18 years",No,2205236,NA,null,<p></p>,null,choice,tc,binary,repulsion,1,laptops,null,null,null,null,null,null,1,NA,NA,NA,NA,NA,NA,NA,NA,NA,NA
NA,NA,NA,NA,NA,choice_trial,survey-html-form,79,382786,0.0-4.0-1.37,128,1,2025-05-01T22:28:20Z,b60275e29fe2361ab97ac0ac217840d7,Mozilla/5.0 (Windows NT 10.0; Win64; x64; rv:137.0) Gecko/20100101 Firefox/137.0,NA,Firefox,137,Windows,10,https://5puzkbbxv1.cognition.run/?sona_id=57989,"en-US,en;q=0.5",1t463yqaov9lq6o,18,"[""Asian""]",No,Female,"India, 18 years",No,2205236,NA,7579,NA,"{""product_choice"":""B""}",choice,tc,binary,repulsion,1,laptops,null,null,null,null,null,null,1,100,90,null,30,40,null,Processing speed,Memory (RAM),NA,NA
NA,NA,NA,NA,NA,choice_trial_setup,html-keyboard-response,80,383104,0.0-4.0-0.38,128,1,2025-05-01T22:28:20Z,b60275e29fe2361ab97ac0ac217840d7,Mozilla/5.0 (Windows NT 10.0; Win64; x64; rv:137.0) Gecko/20100101 Firefox/137.0,NA,Firefox,137,Windows,10,https://5puzkbbxv1.cognition.run/?sona_id=57989,"en-US,en;q=0.5",1t463yqaov9lq6o,18,"[""Asian""]",No,Female,"India, 18 years",No,2205236,NA,null,<p></p>,null,choice,wb,binary,catch,null,microwave ovens,75,60,25,15,null,null,1,NA,NA,NA,NA,NA,NA,NA,NA,NA,NA
NA,NA,NA,NA,NA,choice_trial,survey-html-form,81,389310,0.0-4.0-1.38,128,1,2025-05-01T22:28:20Z,b60275e29fe2361ab97ac0ac217840d7,Mozilla/5.0 (Windows NT 10.0; Win64; x64; rv:137.0) Gecko/20100101 Firefox/137.0,NA,Firefox,137,Windows,10,https://5puzkbbxv1.cognition.run/?sona_id=57989,"en-US,en;q=0.5",1t463yqaov9lq6o,18,"[""Asian""]",No,Female,"India, 18 years",No,2205236,NA,6202,NA,"{""product_choice"":""B""}",choice,wb,binary,catch,null,microwave ovens,75,60,25,15,null,null,1,null,null,null,null,null,null,Warranty,Cooking power,NA,NA
NA,NA,NA,NA,NA,choice_trial_setup,html-keyboard-response,82,389618,0.0-4.0-0.39,128,1,2025-05-01T22:28:20Z,b60275e29fe2361ab97ac0ac217840d7,Mozilla/5.0 (Windows NT 10.0; Win64; x64; rv:137.0) Gecko/20100101 Firefox/137.0,NA,Firefox,137,Windows,10,https://5puzkbbxv1.cognition.run/?sona_id=57989,"en-US,en;q=0.5",1t463yqaov9lq6o,18,"[""Asian""]",No,Female,"India, 18 years",No,2205236,NA,null,<p></p>,null,choice,dtc,trinary,attraction,2,televisions,null,null,null,null,null,null,2,NA,NA,NA,NA,NA,NA,NA,NA,NA,NA
NA,NA,NA,NA,NA,choice_trial,survey-html-form,83,399437,0.0-4.0-1.39,128,1,2025-05-01T22:28:20Z,b60275e29fe2361ab97ac0ac217840d7,Mozilla/5.0 (Windows NT 10.0; Win64; x64; rv:137.0) Gecko/20100101 Firefox/137.0,NA,Firefox,137,Windows,10,https://5puzkbbxv1.cognition.run/?sona_id=57989,"en-US,en;q=0.5",1t463yqaov9lq6o,18,"[""Asian""]",No,Female,"India, 18 years",No,2205236,NA,9814,NA,"{""product_choice"":""C""}",choice,dtc,trinary,attraction,2,televisions,null,null,null,null,null,null,2,50,60,40,60,50,60,Screen size,Average lifespan,NA,NA
NA,NA,NA,NA,NA,choice_trial_setup,html-keyboard-response,84,399747,0.0-4.0-0.40,128,1,2025-05-01T22:28:20Z,b60275e29fe2361ab97ac0ac217840d7,Mozilla/5.0 (Windows NT 10.0; Win64; x64; rv:137.0) Gecko/20100101 Firefox/137.0,NA,Firefox,137,Windows,10,https://5puzkbbxv1.cognition.run/?sona_id=57989,"en-US,en;q=0.5",1t463yqaov9lq6o,18,"[""Asian""]",No,Female,"India, 18 years",No,2205236,NA,null,<p></p>,null,choice,tc,binary,repulsion,1,washing machines,null,null,null,null,null,null,2,NA,NA,NA,NA,NA,NA,NA,NA,NA,NA
NA,NA,NA,NA,NA,choice_trial,survey-html-form,85,404404,0.0-4.0-1.40,128,1,2025-05-01T22:28:20Z,b60275e29fe2361ab97ac0ac217840d7,Mozilla/5.0 (Windows NT 10.0; Win64; x64; rv:137.0) Gecko/20100101 Firefox/137.0,NA,Firefox,137,Windows,10,https://5puzkbbxv1.cognition.run/?sona_id=57989,"en-US,en;q=0.5",1t463yqaov9lq6o,18,"[""Asian""]",No,Female,"India, 18 years",No,2205236,NA,4654,NA,"{""product_choice"":""B""}",choice,tc,binary,repulsion,1,washing machines,null,null,null,null,null,null,2,100,90,null,30,40,null,Average lifespan,Energy savings,NA,NA
NA,NA,NA,NA,NA,choice_trial_setup,html-keyboard-response,86,404722,0.0-4.0-0.41,128,1,2025-05-01T22:28:20Z,b60275e29fe2361ab97ac0ac217840d7,Mozilla/5.0 (Windows NT 10.0; Win64; x64; rv:137.0) Gecko/20100101 Firefox/137.0,NA,Firefox,137,Windows,10,https://5puzkbbxv1.cognition.run/?sona_id=57989,"en-US,en;q=0.5",1t463yqaov9lq6o,18,"[""Asian""]",No,Female,"India, 18 years",No,2205236,NA,null,<p></p>,null,choice,tcd,trinary,repulsion_B,2,microwave ovens,null,null,null,null,null,null,1,NA,NA,NA,NA,NA,NA,NA,NA,NA,NA
NA,NA,NA,NA,NA,choice_trial,survey-html-form,87,411565,0.0-4.0-1.41,128,1,2025-05-01T22:28:20Z,b60275e29fe2361ab97ac0ac217840d7,Mozilla/5.0 (Windows NT 10.0; Win64; x64; rv:137.0) Gecko/20100101 Firefox/137.0,NA,Firefox,137,Windows,10,https://5puzkbbxv1.cognition.run/?sona_id=57989,"en-US,en;q=0.5",1t463yqaov9lq6o,18,"[""Asian""]",No,Female,"India, 18 years",No,2205236,NA,6838,NA,"{""product_choice"":""B""}",choice,tcd,trinary,repulsion_B,2,microwave ovens,null,null,null,null,null,null,1,40,30,40,90,100,80,Warranty,Cooking power,NA,NA
NA,NA,NA,NA,NA,choice_trial_setup,html-keyboard-response,88,411871,0.0-4.0-0.42,128,1,2025-05-01T22:28:20Z,b60275e29fe2361ab97ac0ac217840d7,Mozilla/5.0 (Windows NT 10.0; Win64; x64; rv:137.0) Gecko/20100101 Firefox/137.0,NA,Firefox,137,Windows,10,https://5puzkbbxv1.cognition.run/?sona_id=57989,"en-US,en;q=0.5",1t463yqaov9lq6o,18,"[""Asian""]",No,Female,"India, 18 years",No,2205236,NA,null,<p></p>,null,choice,dct,trinary,attraction,1,televisions,null,null,null,null,null,null,1,NA,NA,NA,NA,NA,NA,NA,NA,NA,NA
NA,NA,NA,NA,NA,choice_trial,survey-html-form,89,1797890,0.0-4.0-1.42,128,1,2025-05-01T22:28:20Z,b60275e29fe2361ab97ac0ac217840d7,Mozilla/5.0 (Windows NT 10.0; Win64; x64; rv:137.0) Gecko/20100101 Firefox/137.0,NA,Firefox,137,Windows,10,https://5puzkbbxv1.cognition.run/?sona_id=57989,"en-US,en;q=0.5",1t463yqaov9lq6o,18,"[""Asian""]",No,Female,"India, 18 years",No,2205236,NA,1386014,NA,"{""product_choice"":""A""}",choice,dct,trinary,attraction,1,televisions,null,null,null,null,null,null,1,60,50,60,50,60,40,Screen size,Average lifespan,NA,NA
NA,NA,NA,NA,NA,choice_trial_setup,html-keyboard-response,90,1798200,0.0-4.0-0.43,128,1,2025-05-01T22:28:20Z,b60275e29fe2361ab97ac0ac217840d7,Mozilla/5.0 (Windows NT 10.0; Win64; x64; rv:137.0) Gecko/20100101 Firefox/137.0,NA,Firefox,137,Windows,10,https://5puzkbbxv1.cognition.run/?sona_id=57989,"en-US,en;q=0.5",1t463yqaov9lq6o,18,"[""Asian""]",No,Female,"India, 18 years",No,2205236,NA,null,<p></p>,null,choice,ct,binary,repulsion,2,washing machines,null,null,null,null,null,null,1,NA,NA,NA,NA,NA,NA,NA,NA,NA,NA
NA,NA,NA,NA,NA,choice_trial,survey-html-form,91,1803126,0.0-4.0-1.43,128,1,2025-05-01T22:28:20Z,b60275e29fe2361ab97ac0ac217840d7,Mozilla/5.0 (Windows NT 10.0; Win64; x64; rv:137.0) Gecko/20100101 Firefox/137.0,NA,Firefox,137,Windows,10,https://5puzkbbxv1.cognition.run/?sona_id=57989,"en-US,en;q=0.5",1t463yqaov9lq6o,18,"[""Asian""]",No,Female,"India, 18 years",No,2205236,NA,4920,NA,"{""product_choice"":""B""}",choice,ct,binary,repulsion,2,washing machines,null,null,null,null,null,null,1,30,40,null,100,90,null,Average lifespan,Energy savings,NA,NA
NA,NA,NA,NA,NA,post_trials_message,html-button-response,92,1805617,0.0-5.0,128,1,2025-05-01T22:28:20Z,b60275e29fe2361ab97ac0ac217840d7,Mozilla/5.0 (Windows NT 10.0; Win64; x64; rv:137.0) Gecko/20100101 Firefox/137.0,NA,Firefox,137,Windows,10,https://5puzkbbxv1.cognition.run/?sona_id=57989,"en-US,en;q=0.5",1t463yqaov9lq6o,18,"[""Asian""]",No,Female,"India, 18 years",No,2205236,NA,2488,<p> <b>Thank you for your patience!</b></p><p>  The study will be done after completing a brief form. </p>,0,NA,NA,NA,NA,NA,NA,NA,NA,NA,NA,NA,NA,NA,NA,NA,NA,NA,NA,NA,NA,NA,NA,NA
NA,NA,NA,NA,NA,survey_message,survey-text,93,2089116,0.0-6.0,128,1,2025-05-01T22:28:20Z,b60275e29fe2361ab97ac0ac217840d7,Mozilla/5.0 (Windows NT 10.0; Win64; x64; rv:137.0) Gecko/20100101 Firefox/137.0,NA,Firefox,137,Windows,10,https://5puzkbbxv1.cognition.run/?sona_id=57989,"en-US,en;q=0.5",1t463yqaov9lq6o,18,"[""Asian""]",No,Female,"India, 18 years",No,2205236,NA,283494,NA,"{""Q0"":""I prioritized quality over lifespan because the earlier a product dies, the more a customer will have to buy (similar to the light bulb industry). Otherwise I tried to find a good balance between the other qualities. I also prioritized warranty less because I personally don't look at a product's warranty that much while buying""}",NA,NA,NA,NA,NA,NA,NA,NA,NA,NA,NA,NA,NA,NA,NA,NA,NA,NA,NA,NA,NA,"I prioritized quality over lifespan because the earlier a product dies, the more a customer will have to buy (similar to the light bulb industry). Otherwise I tried to find a good balance between the other qualities. I also prioritized warranty less because I personally don't look at a product's warranty that much while buying",NA
NA,NA,NA,NA,NA,demo_age,survey-text,94,2091537,0.0-7.0,128,1,2025-05-01T22:28:20Z,b60275e29fe2361ab97ac0ac217840d7,Mozilla/5.0 (Windows NT 10.0; Win64; x64; rv:137.0) Gecko/20100101 Firefox/137.0,NA,Firefox,137,Windows,10,https://5puzkbbxv1.cognition.run/?sona_id=57989,"en-US,en;q=0.5",1t463yqaov9lq6o,18,"[""Asian""]",No,Female,"India, 18 years",No,2205236,NA,2414,NA,"{""Q0"":""18""}",NA,NA,NA,NA,NA,NA,NA,NA,NA,NA,NA,NA,NA,NA,NA,NA,NA,NA,NA,NA,NA,NA,NA
NA,NA,NA,NA,NA,demo_race,survey-multi-select,95,2094729,0.0-8.0,128,1,2025-05-01T22:28:20Z,b60275e29fe2361ab97ac0ac217840d7,Mozilla/5.0 (Windows NT 10.0; Win64; x64; rv:137.0) Gecko/20100101 Firefox/137.0,NA,Firefox,137,Windows,10,https://5puzkbbxv1.cognition.run/?sona_id=57989,"en-US,en;q=0.5",1t463yqaov9lq6o,18,"[""Asian""]",No,Female,"India, 18 years",No,2205236,NA,3187,NA,"{""Q0"":[""Asian""]}",NA,NA,NA,NA,NA,NA,NA,NA,NA,NA,NA,NA,NA,NA,NA,NA,NA,NA,NA,NA,NA,NA,[0]
NA,NA,NA,NA,NA,demo_ethnicity_gender,survey-multi-choice,96,2098360,0.0-9.0,128,1,2025-05-01T22:28:20Z,b60275e29fe2361ab97ac0ac217840d7,Mozilla/5.0 (Windows NT 10.0; Win64; x64; rv:137.0) Gecko/20100101 Firefox/137.0,NA,Firefox,137,Windows,10,https://5puzkbbxv1.cognition.run/?sona_id=57989,"en-US,en;q=0.5",1t463yqaov9lq6o,18,"[""Asian""]",No,Female,"India, 18 years",No,2205236,NA,3626,NA,"{""Q0"":""No"",""Q1"":""Female""}",NA,NA,NA,NA,NA,NA,NA,NA,NA,NA,NA,NA,NA,NA,NA,NA,NA,NA,NA,NA,NA,NA,"[0,1]"
NA,NA,NA,NA,NA,demo_countries,survey-text,97,2107109,0.0-10.0,128,1,2025-05-01T22:28:20Z,b60275e29fe2361ab97ac0ac217840d7,Mozilla/5.0 (Windows NT 10.0; Win64; x64; rv:137.0) Gecko/20100101 Firefox/137.0,NA,Firefox,137,Windows,10,https://5puzkbbxv1.cognition.run/?sona_id=57989,"en-US,en;q=0.5",1t463yqaov9lq6o,18,"[""Asian""]",No,Female,"India, 18 years",No,2205236,NA,8736,NA,"{""Q0"":""India, 18 years""}",NA,NA,NA,NA,NA,NA,NA,NA,NA,NA,NA,NA,NA,NA,NA,NA,NA,NA,NA,NA,NA,NA,NA
NA,NA,NA,NA,NA,demo_prev_study,survey-multi-choice,98,2113055,0.0-11.0,128,1,2025-05-01T22:28:20Z,b60275e29fe2361ab97ac0ac217840d7,Mozilla/5.0 (Windows NT 10.0; Win64; x64; rv:137.0) Gecko/20100101 Firefox/137.0,NA,Firefox,137,Windows,10,https://5puzkbbxv1.cognition.run/?sona_id=57989,"en-US,en;q=0.5",1t463yqaov9lq6o,18,"[""Asian""]",No,Female,"India, 18 years",No,2205236,NA,5942,NA,"{""Q0"":""No""}",NA,NA,NA,NA,NA,NA,NA,NA,NA,NA,NA,NA,NA,NA,NA,NA,NA,NA,NA,NA,NA,NA,[0]
NA,NA,NA,NA,NA,post_survey_message,html-keyboard-response,99,2116923,0.0-12.0,128,1,2025-05-01T22:28:20Z,b60275e29fe2361ab97ac0ac217840d7,Mozilla/5.0 (Windows NT 10.0; Win64; x64; rv:137.0) Gecko/20100101 Firefox/137.0,NA,Firefox,137,Windows,10,https://5puzkbbxv1.cognition.run/?sona_id=57989,"en-US,en;q=0.5",1t463yqaov9lq6o,18,"[""Asian""]",No,Female,"India, 18 years",No,2205236,NA,3861,NA,j,NA,NA,NA,NA,NA,NA,NA,NA,NA,NA,NA,NA,NA,NA,NA,NA,NA,NA,NA,NA,NA,NA,NA
NA,NA,NA,NA,NA,debrief,image-keyboard-response,100,2205234,0.0-13.0,128,1,2025-05-01T22:28:20Z,b60275e29fe2361ab97ac0ac217840d7,Mozilla/5.0 (Windows NT 10.0; Win64; x64; rv:137.0) Gecko/20100101 Firefox/137.0,NA,Firefox,137,Windows,10,https://5puzkbbxv1.cognition.run/?sona_id=57989,"en-US,en;q=0.5",1t463yqaov9lq6o,18,"[""Asian""]",No,Female,"India, 18 years",No,2205236,NA,88276,Judg_choice_debrief.png,p,NA,NA,NA,NA,NA,NA,NA,NA,NA,NA,NA,NA,NA,NA,NA,NA,NA,NA,NA,NA,NA,NA,NA
