success,timeout,failed_images,failed_audio,failed_video,screen_id,trial_type,trial_index,time_elapsed,internal_node_id,run_id,condition,recorded_at,source_code_version,user_agent,device,browser,browser_version,platform,platform_version,referer,accept_language,ppt_id,age,race,ethnicity,gender,other_countries,prev_study,exp_duration,view_history,rt,stimulus,response,phase,order,set,effect,t_high,category,d1_best,d2_best,d1_worst1,d2_worst1,d1_worst2,d2_worst2,first_dim,d1_t,d1_c,d1_d,d2_t,d2_c,d2_d,d1_name,d2_name,strategy_response,question_order
TRUE,FALSE,[],[],[],img preload,preload,0,565,0.0-0.0,132,1,2025-05-02T01:47:31Z,b60275e29fe2361ab97ac0ac217840d7,"Mozilla/5.0 (Windows NT 10.0; Win64; x64) AppleWebKit/537.36 (KHTML, like Gecko) Chrome/135.0.0.0 Safari/537.36",WebKit,Chrome,135.0.0.0,Windows,10,https://5puzkbbxv1.cognition.run/?sona_id=52188,"en-US,en;q=0.9",b0j6gk9pted0ql5,19,"[""Other""]",Yes,Male,Puerto Rico,I'm not sure,1367796.5,NA,NA,NA,NA,NA,NA,NA,NA,NA,NA,NA,NA,NA,NA,NA,NA,NA,NA,NA,NA,NA,NA,NA,NA,NA,NA,NA
NA,NA,NA,NA,NA,computer_message,instructions,1,5816,0.0-1.0,132,1,2025-05-02T01:47:31Z,b60275e29fe2361ab97ac0ac217840d7,"Mozilla/5.0 (Windows NT 10.0; Win64; x64) AppleWebKit/537.36 (KHTML, like Gecko) Chrome/135.0.0.0 Safari/537.36",WebKit,Chrome,135.0.0.0,Windows,10,https://5puzkbbxv1.cognition.run/?sona_id=52188,"en-US,en;q=0.9",b0j6gk9pted0ql5,19,"[""Other""]",Yes,Male,Puerto Rico,I'm not sure,1367796.5,"[{""page_index"":0,""viewing_time"":5248}]",5248,NA,NA,NA,NA,NA,NA,NA,NA,NA,NA,NA,NA,NA,NA,NA,NA,NA,NA,NA,NA,NA,NA,NA,NA,NA
TRUE,NA,NA,NA,NA,NA,fullscreen,2,16622,0.0-2.0,132,1,2025-05-02T01:47:31Z,b60275e29fe2361ab97ac0ac217840d7,"Mozilla/5.0 (Windows NT 10.0; Win64; x64) AppleWebKit/537.36 (KHTML, like Gecko) Chrome/135.0.0.0 Safari/537.36",WebKit,Chrome,135.0.0.0,Windows,10,https://5puzkbbxv1.cognition.run/?sona_id=52188,"en-US,en;q=0.9",b0j6gk9pted0ql5,19,"[""Other""]",Yes,Male,Puerto Rico,I'm not sure,1367796.5,NA,9799,NA,NA,NA,NA,NA,NA,NA,NA,NA,NA,NA,NA,NA,NA,NA,NA,NA,NA,NA,NA,NA,NA,NA,NA,NA
NA,NA,NA,NA,NA,choice_instructions,instructions,3,157698,0.0-3.0,132,1,2025-05-02T01:47:31Z,b60275e29fe2361ab97ac0ac217840d7,"Mozilla/5.0 (Windows NT 10.0; Win64; x64) AppleWebKit/537.36 (KHTML, like Gecko) Chrome/135.0.0.0 Safari/537.36",WebKit,Chrome,135.0.0.0,Windows,10,https://5puzkbbxv1.cognition.run/?sona_id=52188,"en-US,en;q=0.9",b0j6gk9pted0ql5,19,"[""Other""]",Yes,Male,Puerto Rico,I'm not sure,1367796.5,"[{""page_index"":0,""viewing_time"":3804},{""page_index"":1,""viewing_time"":17297},{""page_index"":2,""viewing_time"":17169},{""page_index"":3,""viewing_time"":33906},{""page_index"":4,""viewing_time"":9936},{""page_index"":5,""viewing_time"":31794},{""page_index"":6,""viewing_time"":4815},{""page_index"":5,""viewing_time"":4058},{""page_index"":6,""viewing_time"":18295}]",141073,NA,NA,NA,NA,NA,NA,NA,NA,NA,NA,NA,NA,NA,NA,NA,NA,NA,NA,NA,NA,NA,NA,NA,NA,NA
NA,NA,NA,NA,NA,choice_trial_setup,html-keyboard-response,4,158008,0.0-4.0-0.0,132,1,2025-05-02T01:47:31Z,b60275e29fe2361ab97ac0ac217840d7,"Mozilla/5.0 (Windows NT 10.0; Win64; x64) AppleWebKit/537.36 (KHTML, like Gecko) Chrome/135.0.0.0 Safari/537.36",WebKit,Chrome,135.0.0.0,Windows,10,https://5puzkbbxv1.cognition.run/?sona_id=52188,"en-US,en;q=0.9",b0j6gk9pted0ql5,19,"[""Other""]",Yes,Male,Puerto Rico,I'm not sure,1367796.5,NA,null,<p></p>,null,choice,tcd,trinary,repulsion_A,2,microwave ovens,null,null,null,null,null,null,1,NA,NA,NA,NA,NA,NA,NA,NA,NA,NA
NA,NA,NA,NA,NA,choice_trial,survey-html-form,5,176285,0.0-4.0-1.0,132,1,2025-05-02T01:47:31Z,b60275e29fe2361ab97ac0ac217840d7,"Mozilla/5.0 (Windows NT 10.0; Win64; x64) AppleWebKit/537.36 (KHTML, like Gecko) Chrome/135.0.0.0 Safari/537.36",WebKit,Chrome,135.0.0.0,Windows,10,https://5puzkbbxv1.cognition.run/?sona_id=52188,"en-US,en;q=0.9",b0j6gk9pted0ql5,19,"[""Other""]",Yes,Male,Puerto Rico,I'm not sure,1367796.5,NA,18271,NA,"{""product_choice"":""A""}",choice,tcd,trinary,repulsion_A,2,microwave ovens,null,null,null,null,null,null,1,30,40,20,100,90,100,Warranty,Cooking power,NA,NA
NA,NA,NA,NA,NA,choice_trial_setup,html-keyboard-response,6,176595,0.0-4.0-0.1,132,1,2025-05-02T01:47:31Z,b60275e29fe2361ab97ac0ac217840d7,"Mozilla/5.0 (Windows NT 10.0; Win64; x64) AppleWebKit/537.36 (KHTML, like Gecko) Chrome/135.0.0.0 Safari/537.36",WebKit,Chrome,135.0.0.0,Windows,10,https://5puzkbbxv1.cognition.run/?sona_id=52188,"en-US,en;q=0.9",b0j6gk9pted0ql5,19,"[""Other""]",Yes,Male,Puerto Rico,I'm not sure,1367796.5,NA,null,<p></p>,null,choice,dct,trinary,attraction,1,laptops,null,null,null,null,null,null,1,NA,NA,NA,NA,NA,NA,NA,NA,NA,NA
NA,NA,NA,NA,NA,choice_trial,survey-html-form,7,203210,0.0-4.0-1.1,132,1,2025-05-02T01:47:31Z,b60275e29fe2361ab97ac0ac217840d7,"Mozilla/5.0 (Windows NT 10.0; Win64; x64) AppleWebKit/537.36 (KHTML, like Gecko) Chrome/135.0.0.0 Safari/537.36",WebKit,Chrome,135.0.0.0,Windows,10,https://5puzkbbxv1.cognition.run/?sona_id=52188,"en-US,en;q=0.9",b0j6gk9pted0ql5,19,"[""Other""]",Yes,Male,Puerto Rico,I'm not sure,1367796.5,NA,26611,NA,"{""product_choice"":""B""}",choice,dct,trinary,attraction,1,laptops,null,null,null,null,null,null,1,60,50,60,50,60,40,Processing speed,Memory (RAM),NA,NA
NA,NA,NA,NA,NA,choice_trial_setup,html-keyboard-response,8,203518,0.0-4.0-0.2,132,1,2025-05-02T01:47:31Z,b60275e29fe2361ab97ac0ac217840d7,"Mozilla/5.0 (Windows NT 10.0; Win64; x64) AppleWebKit/537.36 (KHTML, like Gecko) Chrome/135.0.0.0 Safari/537.36",WebKit,Chrome,135.0.0.0,Windows,10,https://5puzkbbxv1.cognition.run/?sona_id=52188,"en-US,en;q=0.9",b0j6gk9pted0ql5,19,"[""Other""]",Yes,Male,Puerto Rico,I'm not sure,1367796.5,NA,null,<p></p>,null,choice,dct,trinary,repulsion_B,1,laptops,null,null,null,null,null,null,1,NA,NA,NA,NA,NA,NA,NA,NA,NA,NA
NA,NA,NA,NA,NA,choice_trial,survey-html-form,9,222668,0.0-4.0-1.2,132,1,2025-05-02T01:47:31Z,b60275e29fe2361ab97ac0ac217840d7,"Mozilla/5.0 (Windows NT 10.0; Win64; x64) AppleWebKit/537.36 (KHTML, like Gecko) Chrome/135.0.0.0 Safari/537.36",WebKit,Chrome,135.0.0.0,Windows,10,https://5puzkbbxv1.cognition.run/?sona_id=52188,"en-US,en;q=0.9",b0j6gk9pted0ql5,19,"[""Other""]",Yes,Male,Puerto Rico,I'm not sure,1367796.5,NA,19145,NA,"{""product_choice"":""C""}",choice,dct,trinary,repulsion_B,1,laptops,null,null,null,null,null,null,1,90,100,80,40,30,40,Processing speed,Memory (RAM),NA,NA
NA,NA,NA,NA,NA,choice_trial_setup,html-keyboard-response,10,222976,0.0-4.0-0.3,132,1,2025-05-02T01:47:31Z,b60275e29fe2361ab97ac0ac217840d7,"Mozilla/5.0 (Windows NT 10.0; Win64; x64) AppleWebKit/537.36 (KHTML, like Gecko) Chrome/135.0.0.0 Safari/537.36",WebKit,Chrome,135.0.0.0,Windows,10,https://5puzkbbxv1.cognition.run/?sona_id=52188,"en-US,en;q=0.9",b0j6gk9pted0ql5,19,"[""Other""]",Yes,Male,Puerto Rico,I'm not sure,1367796.5,NA,null,<p></p>,null,choice,tdc,trinary,repulsion_B,2,laptops,null,null,null,null,null,null,1,NA,NA,NA,NA,NA,NA,NA,NA,NA,NA
NA,NA,NA,NA,NA,choice_trial,survey-html-form,11,259440,0.0-4.0-1.3,132,1,2025-05-02T01:47:31Z,b60275e29fe2361ab97ac0ac217840d7,"Mozilla/5.0 (Windows NT 10.0; Win64; x64) AppleWebKit/537.36 (KHTML, like Gecko) Chrome/135.0.0.0 Safari/537.36",WebKit,Chrome,135.0.0.0,Windows,10,https://5puzkbbxv1.cognition.run/?sona_id=52188,"en-US,en;q=0.9",b0j6gk9pted0ql5,19,"[""Other""]",Yes,Male,Puerto Rico,I'm not sure,1367796.5,NA,36461,NA,"{""product_choice"":""C""}",choice,tdc,trinary,repulsion_B,2,laptops,null,null,null,null,null,null,1,40,30,40,90,100,80,Processing speed,Memory (RAM),NA,NA
NA,NA,NA,NA,NA,choice_trial_setup,html-keyboard-response,12,259749,0.0-4.0-0.4,132,1,2025-05-02T01:47:31Z,b60275e29fe2361ab97ac0ac217840d7,"Mozilla/5.0 (Windows NT 10.0; Win64; x64) AppleWebKit/537.36 (KHTML, like Gecko) Chrome/135.0.0.0 Safari/537.36",WebKit,Chrome,135.0.0.0,Windows,10,https://5puzkbbxv1.cognition.run/?sona_id=52188,"en-US,en;q=0.9",b0j6gk9pted0ql5,19,"[""Other""]",Yes,Male,Puerto Rico,I'm not sure,1367796.5,NA,null,<p></p>,null,choice,dct,trinary,repulsion_B,1,televisions,null,null,null,null,null,null,1,NA,NA,NA,NA,NA,NA,NA,NA,NA,NA
NA,NA,NA,NA,NA,choice_trial,survey-html-form,13,297716,0.0-4.0-1.4,132,1,2025-05-02T01:47:31Z,b60275e29fe2361ab97ac0ac217840d7,"Mozilla/5.0 (Windows NT 10.0; Win64; x64) AppleWebKit/537.36 (KHTML, like Gecko) Chrome/135.0.0.0 Safari/537.36",WebKit,Chrome,135.0.0.0,Windows,10,https://5puzkbbxv1.cognition.run/?sona_id=52188,"en-US,en;q=0.9",b0j6gk9pted0ql5,19,"[""Other""]",Yes,Male,Puerto Rico,I'm not sure,1367796.5,NA,37965,NA,"{""product_choice"":""C""}",choice,dct,trinary,repulsion_B,1,televisions,null,null,null,null,null,null,1,90,100,80,40,30,40,Screen size,Average lifespan,NA,NA
NA,NA,NA,NA,NA,choice_trial_setup,html-keyboard-response,14,298031,0.0-4.0-0.5,132,1,2025-05-02T01:47:31Z,b60275e29fe2361ab97ac0ac217840d7,"Mozilla/5.0 (Windows NT 10.0; Win64; x64) AppleWebKit/537.36 (KHTML, like Gecko) Chrome/135.0.0.0 Safari/537.36",WebKit,Chrome,135.0.0.0,Windows,10,https://5puzkbbxv1.cognition.run/?sona_id=52188,"en-US,en;q=0.9",b0j6gk9pted0ql5,19,"[""Other""]",Yes,Male,Puerto Rico,I'm not sure,1367796.5,NA,null,<p></p>,null,choice,ct,binary,attraction,NA,microwave ovens,null,null,null,null,null,null,2,NA,NA,NA,NA,NA,NA,NA,NA,NA,NA
NA,NA,NA,NA,NA,choice_trial,survey-html-form,15,324366,0.0-4.0-1.5,132,1,2025-05-02T01:47:31Z,b60275e29fe2361ab97ac0ac217840d7,"Mozilla/5.0 (Windows NT 10.0; Win64; x64) AppleWebKit/537.36 (KHTML, like Gecko) Chrome/135.0.0.0 Safari/537.36",WebKit,Chrome,135.0.0.0,Windows,10,https://5puzkbbxv1.cognition.run/?sona_id=52188,"en-US,en;q=0.9",b0j6gk9pted0ql5,19,"[""Other""]",Yes,Male,Puerto Rico,I'm not sure,1367796.5,NA,26332,NA,"{""product_choice"":""A""}",choice,ct,binary,attraction,NA,microwave ovens,null,null,null,null,null,null,2,60,50,null,50,60,null,Warranty,Cooking power,NA,NA
NA,NA,NA,NA,NA,choice_trial_setup,html-keyboard-response,16,324681,0.0-4.0-0.6,132,1,2025-05-02T01:47:31Z,b60275e29fe2361ab97ac0ac217840d7,"Mozilla/5.0 (Windows NT 10.0; Win64; x64) AppleWebKit/537.36 (KHTML, like Gecko) Chrome/135.0.0.0 Safari/537.36",WebKit,Chrome,135.0.0.0,Windows,10,https://5puzkbbxv1.cognition.run/?sona_id=52188,"en-US,en;q=0.9",b0j6gk9pted0ql5,19,"[""Other""]",Yes,Male,Puerto Rico,I'm not sure,1367796.5,NA,null,<p></p>,null,choice,tc,binary,repulsion,1,laptops,null,null,null,null,null,null,2,NA,NA,NA,NA,NA,NA,NA,NA,NA,NA
NA,NA,NA,NA,NA,choice_trial,survey-html-form,17,339402,0.0-4.0-1.6,132,1,2025-05-02T01:47:31Z,b60275e29fe2361ab97ac0ac217840d7,"Mozilla/5.0 (Windows NT 10.0; Win64; x64) AppleWebKit/537.36 (KHTML, like Gecko) Chrome/135.0.0.0 Safari/537.36",WebKit,Chrome,135.0.0.0,Windows,10,https://5puzkbbxv1.cognition.run/?sona_id=52188,"en-US,en;q=0.9",b0j6gk9pted0ql5,19,"[""Other""]",Yes,Male,Puerto Rico,I'm not sure,1367796.5,NA,14717,NA,"{""product_choice"":""A""}",choice,tc,binary,repulsion,1,laptops,null,null,null,null,null,null,2,100,90,null,30,40,null,Processing speed,Memory (RAM),NA,NA
NA,NA,NA,NA,NA,choice_trial_setup,html-keyboard-response,18,339715,0.0-4.0-0.7,132,1,2025-05-02T01:47:31Z,b60275e29fe2361ab97ac0ac217840d7,"Mozilla/5.0 (Windows NT 10.0; Win64; x64) AppleWebKit/537.36 (KHTML, like Gecko) Chrome/135.0.0.0 Safari/537.36",WebKit,Chrome,135.0.0.0,Windows,10,https://5puzkbbxv1.cognition.run/?sona_id=52188,"en-US,en;q=0.9",b0j6gk9pted0ql5,19,"[""Other""]",Yes,Male,Puerto Rico,I'm not sure,1367796.5,NA,null,<p></p>,null,choice,ctd,trinary,repulsion_A,2,televisions,null,null,null,null,null,null,1,NA,NA,NA,NA,NA,NA,NA,NA,NA,NA
NA,NA,NA,NA,NA,choice_trial,survey-html-form,19,358828,0.0-4.0-1.7,132,1,2025-05-02T01:47:31Z,b60275e29fe2361ab97ac0ac217840d7,"Mozilla/5.0 (Windows NT 10.0; Win64; x64) AppleWebKit/537.36 (KHTML, like Gecko) Chrome/135.0.0.0 Safari/537.36",WebKit,Chrome,135.0.0.0,Windows,10,https://5puzkbbxv1.cognition.run/?sona_id=52188,"en-US,en;q=0.9",b0j6gk9pted0ql5,19,"[""Other""]",Yes,Male,Puerto Rico,I'm not sure,1367796.5,NA,19109,NA,"{""product_choice"":""A""}",choice,ctd,trinary,repulsion_A,2,televisions,null,null,null,null,null,null,1,30,40,20,100,90,100,Screen size,Average lifespan,NA,NA
NA,NA,NA,NA,NA,choice_trial_setup,html-keyboard-response,20,359142,0.0-4.0-0.8,132,1,2025-05-02T01:47:31Z,b60275e29fe2361ab97ac0ac217840d7,"Mozilla/5.0 (Windows NT 10.0; Win64; x64) AppleWebKit/537.36 (KHTML, like Gecko) Chrome/135.0.0.0 Safari/537.36",WebKit,Chrome,135.0.0.0,Windows,10,https://5puzkbbxv1.cognition.run/?sona_id=52188,"en-US,en;q=0.9",b0j6gk9pted0ql5,19,"[""Other""]",Yes,Male,Puerto Rico,I'm not sure,1367796.5,NA,null,<p></p>,null,choice,tc,binary,repulsion,1,microwave ovens,null,null,null,null,null,null,2,NA,NA,NA,NA,NA,NA,NA,NA,NA,NA
NA,NA,NA,NA,NA,choice_trial,survey-html-form,21,378023,0.0-4.0-1.8,132,1,2025-05-02T01:47:31Z,b60275e29fe2361ab97ac0ac217840d7,"Mozilla/5.0 (Windows NT 10.0; Win64; x64) AppleWebKit/537.36 (KHTML, like Gecko) Chrome/135.0.0.0 Safari/537.36",WebKit,Chrome,135.0.0.0,Windows,10,https://5puzkbbxv1.cognition.run/?sona_id=52188,"en-US,en;q=0.9",b0j6gk9pted0ql5,19,"[""Other""]",Yes,Male,Puerto Rico,I'm not sure,1367796.5,NA,18876,NA,"{""product_choice"":""A""}",choice,tc,binary,repulsion,1,microwave ovens,null,null,null,null,null,null,2,100,90,null,30,40,null,Warranty,Cooking power,NA,NA
NA,NA,NA,NA,NA,choice_trial_setup,html-keyboard-response,22,378330,0.0-4.0-0.9,132,1,2025-05-02T01:47:31Z,b60275e29fe2361ab97ac0ac217840d7,"Mozilla/5.0 (Windows NT 10.0; Win64; x64) AppleWebKit/537.36 (KHTML, like Gecko) Chrome/135.0.0.0 Safari/537.36",WebKit,Chrome,135.0.0.0,Windows,10,https://5puzkbbxv1.cognition.run/?sona_id=52188,"en-US,en;q=0.9",b0j6gk9pted0ql5,19,"[""Other""]",Yes,Male,Puerto Rico,I'm not sure,1367796.5,NA,null,<p></p>,null,choice,ct,binary,repulsion,2,televisions,null,null,null,null,null,null,1,NA,NA,NA,NA,NA,NA,NA,NA,NA,NA
NA,NA,NA,NA,NA,choice_trial,survey-html-form,23,386766,0.0-4.0-1.9,132,1,2025-05-02T01:47:31Z,b60275e29fe2361ab97ac0ac217840d7,"Mozilla/5.0 (Windows NT 10.0; Win64; x64) AppleWebKit/537.36 (KHTML, like Gecko) Chrome/135.0.0.0 Safari/537.36",WebKit,Chrome,135.0.0.0,Windows,10,https://5puzkbbxv1.cognition.run/?sona_id=52188,"en-US,en;q=0.9",b0j6gk9pted0ql5,19,"[""Other""]",Yes,Male,Puerto Rico,I'm not sure,1367796.5,NA,8431,NA,"{""product_choice"":""B""}",choice,ct,binary,repulsion,2,televisions,null,null,null,null,null,null,1,30,40,null,100,90,null,Screen size,Average lifespan,NA,NA
NA,NA,NA,NA,NA,choice_trial_setup,html-keyboard-response,24,387071,0.0-4.0-0.10,132,1,2025-05-02T01:47:31Z,b60275e29fe2361ab97ac0ac217840d7,"Mozilla/5.0 (Windows NT 10.0; Win64; x64) AppleWebKit/537.36 (KHTML, like Gecko) Chrome/135.0.0.0 Safari/537.36",WebKit,Chrome,135.0.0.0,Windows,10,https://5puzkbbxv1.cognition.run/?sona_id=52188,"en-US,en;q=0.9",b0j6gk9pted0ql5,19,"[""Other""]",Yes,Male,Puerto Rico,I'm not sure,1367796.5,NA,null,<p></p>,null,choice,dct,trinary,repulsion_B,1,washing machines,null,null,null,null,null,null,2,NA,NA,NA,NA,NA,NA,NA,NA,NA,NA
NA,NA,NA,NA,NA,choice_trial,survey-html-form,25,402836,0.0-4.0-1.10,132,1,2025-05-02T01:47:31Z,b60275e29fe2361ab97ac0ac217840d7,"Mozilla/5.0 (Windows NT 10.0; Win64; x64) AppleWebKit/537.36 (KHTML, like Gecko) Chrome/135.0.0.0 Safari/537.36",WebKit,Chrome,135.0.0.0,Windows,10,https://5puzkbbxv1.cognition.run/?sona_id=52188,"en-US,en;q=0.9",b0j6gk9pted0ql5,19,"[""Other""]",Yes,Male,Puerto Rico,I'm not sure,1367796.5,NA,15760,NA,"{""product_choice"":""C""}",choice,dct,trinary,repulsion_B,1,washing machines,null,null,null,null,null,null,2,90,100,80,40,30,40,Average lifespan,Energy savings,NA,NA
NA,NA,NA,NA,NA,choice_trial_setup,html-keyboard-response,26,403143,0.0-4.0-0.11,132,1,2025-05-02T01:47:31Z,b60275e29fe2361ab97ac0ac217840d7,"Mozilla/5.0 (Windows NT 10.0; Win64; x64) AppleWebKit/537.36 (KHTML, like Gecko) Chrome/135.0.0.0 Safari/537.36",WebKit,Chrome,135.0.0.0,Windows,10,https://5puzkbbxv1.cognition.run/?sona_id=52188,"en-US,en;q=0.9",b0j6gk9pted0ql5,19,"[""Other""]",Yes,Male,Puerto Rico,I'm not sure,1367796.5,NA,null,<p></p>,null,choice,cdt,trinary,attraction,1,microwave ovens,null,null,null,null,null,null,2,NA,NA,NA,NA,NA,NA,NA,NA,NA,NA
NA,NA,NA,NA,NA,choice_trial,survey-html-form,27,421586,0.0-4.0-1.11,132,1,2025-05-02T01:47:31Z,b60275e29fe2361ab97ac0ac217840d7,"Mozilla/5.0 (Windows NT 10.0; Win64; x64) AppleWebKit/537.36 (KHTML, like Gecko) Chrome/135.0.0.0 Safari/537.36",WebKit,Chrome,135.0.0.0,Windows,10,https://5puzkbbxv1.cognition.run/?sona_id=52188,"en-US,en;q=0.9",b0j6gk9pted0ql5,19,"[""Other""]",Yes,Male,Puerto Rico,I'm not sure,1367796.5,NA,18440,NA,"{""product_choice"":""A""}",choice,cdt,trinary,attraction,1,microwave ovens,null,null,null,null,null,null,2,60,50,60,50,60,40,Warranty,Cooking power,NA,NA
NA,NA,NA,NA,NA,choice_trial_setup,html-keyboard-response,28,421902,0.0-4.0-0.12,132,1,2025-05-02T01:47:31Z,b60275e29fe2361ab97ac0ac217840d7,"Mozilla/5.0 (Windows NT 10.0; Win64; x64) AppleWebKit/537.36 (KHTML, like Gecko) Chrome/135.0.0.0 Safari/537.36",WebKit,Chrome,135.0.0.0,Windows,10,https://5puzkbbxv1.cognition.run/?sona_id=52188,"en-US,en;q=0.9",b0j6gk9pted0ql5,19,"[""Other""]",Yes,Male,Puerto Rico,I'm not sure,1367796.5,NA,null,<p></p>,null,choice,cdt,trinary,attraction,2,televisions,null,null,null,null,null,null,2,NA,NA,NA,NA,NA,NA,NA,NA,NA,NA
NA,NA,NA,NA,NA,choice_trial,survey-html-form,29,453127,0.0-4.0-1.12,132,1,2025-05-02T01:47:31Z,b60275e29fe2361ab97ac0ac217840d7,"Mozilla/5.0 (Windows NT 10.0; Win64; x64) AppleWebKit/537.36 (KHTML, like Gecko) Chrome/135.0.0.0 Safari/537.36",WebKit,Chrome,135.0.0.0,Windows,10,https://5puzkbbxv1.cognition.run/?sona_id=52188,"en-US,en;q=0.9",b0j6gk9pted0ql5,19,"[""Other""]",Yes,Male,Puerto Rico,I'm not sure,1367796.5,NA,31221,NA,"{""product_choice"":""A""}",choice,cdt,trinary,attraction,2,televisions,null,null,null,null,null,null,2,50,60,40,60,50,60,Screen size,Average lifespan,NA,NA
NA,NA,NA,NA,NA,choice_trial_setup,html-keyboard-response,30,453434,0.0-4.0-0.13,132,1,2025-05-02T01:47:31Z,b60275e29fe2361ab97ac0ac217840d7,"Mozilla/5.0 (Windows NT 10.0; Win64; x64) AppleWebKit/537.36 (KHTML, like Gecko) Chrome/135.0.0.0 Safari/537.36",WebKit,Chrome,135.0.0.0,Windows,10,https://5puzkbbxv1.cognition.run/?sona_id=52188,"en-US,en;q=0.9",b0j6gk9pted0ql5,19,"[""Other""]",Yes,Male,Puerto Rico,I'm not sure,1367796.5,NA,null,<p></p>,null,choice,dct,trinary,repulsion_B,2,televisions,null,null,null,null,null,null,1,NA,NA,NA,NA,NA,NA,NA,NA,NA,NA
NA,NA,NA,NA,NA,choice_trial,survey-html-form,31,472059,0.0-4.0-1.13,132,1,2025-05-02T01:47:31Z,b60275e29fe2361ab97ac0ac217840d7,"Mozilla/5.0 (Windows NT 10.0; Win64; x64) AppleWebKit/537.36 (KHTML, like Gecko) Chrome/135.0.0.0 Safari/537.36",WebKit,Chrome,135.0.0.0,Windows,10,https://5puzkbbxv1.cognition.run/?sona_id=52188,"en-US,en;q=0.9",b0j6gk9pted0ql5,19,"[""Other""]",Yes,Male,Puerto Rico,I'm not sure,1367796.5,NA,18620,NA,"{""product_choice"":""B""}",choice,dct,trinary,repulsion_B,2,televisions,null,null,null,null,null,null,1,40,30,40,90,100,80,Screen size,Average lifespan,NA,NA
NA,NA,NA,NA,NA,choice_trial_setup,html-keyboard-response,32,472369,0.0-4.0-0.14,132,1,2025-05-02T01:47:31Z,b60275e29fe2361ab97ac0ac217840d7,"Mozilla/5.0 (Windows NT 10.0; Win64; x64) AppleWebKit/537.36 (KHTML, like Gecko) Chrome/135.0.0.0 Safari/537.36",WebKit,Chrome,135.0.0.0,Windows,10,https://5puzkbbxv1.cognition.run/?sona_id=52188,"en-US,en;q=0.9",b0j6gk9pted0ql5,19,"[""Other""]",Yes,Male,Puerto Rico,I'm not sure,1367796.5,NA,null,<p></p>,null,choice,tdc,trinary,attraction,1,televisions,null,null,null,null,null,null,1,NA,NA,NA,NA,NA,NA,NA,NA,NA,NA
NA,NA,NA,NA,NA,choice_trial,survey-html-form,33,515687,0.0-4.0-1.14,132,1,2025-05-02T01:47:31Z,b60275e29fe2361ab97ac0ac217840d7,"Mozilla/5.0 (Windows NT 10.0; Win64; x64) AppleWebKit/537.36 (KHTML, like Gecko) Chrome/135.0.0.0 Safari/537.36",WebKit,Chrome,135.0.0.0,Windows,10,https://5puzkbbxv1.cognition.run/?sona_id=52188,"en-US,en;q=0.9",b0j6gk9pted0ql5,19,"[""Other""]",Yes,Male,Puerto Rico,I'm not sure,1367796.5,NA,43313,NA,"{""product_choice"":""A""}",choice,tdc,trinary,attraction,1,televisions,null,null,null,null,null,null,1,60,50,60,50,60,40,Screen size,Average lifespan,NA,NA
NA,NA,NA,NA,NA,choice_trial_setup,html-keyboard-response,34,515999,0.0-4.0-0.15,132,1,2025-05-02T01:47:31Z,b60275e29fe2361ab97ac0ac217840d7,"Mozilla/5.0 (Windows NT 10.0; Win64; x64) AppleWebKit/537.36 (KHTML, like Gecko) Chrome/135.0.0.0 Safari/537.36",WebKit,Chrome,135.0.0.0,Windows,10,https://5puzkbbxv1.cognition.run/?sona_id=52188,"en-US,en;q=0.9",b0j6gk9pted0ql5,19,"[""Other""]",Yes,Male,Puerto Rico,I'm not sure,1367796.5,NA,null,<p></p>,null,choice,tdc,trinary,repulsion_A,1,microwave ovens,null,null,null,null,null,null,1,NA,NA,NA,NA,NA,NA,NA,NA,NA,NA
NA,NA,NA,NA,NA,choice_trial,survey-html-form,35,526340,0.0-4.0-1.15,132,1,2025-05-02T01:47:31Z,b60275e29fe2361ab97ac0ac217840d7,"Mozilla/5.0 (Windows NT 10.0; Win64; x64) AppleWebKit/537.36 (KHTML, like Gecko) Chrome/135.0.0.0 Safari/537.36",WebKit,Chrome,135.0.0.0,Windows,10,https://5puzkbbxv1.cognition.run/?sona_id=52188,"en-US,en;q=0.9",b0j6gk9pted0ql5,19,"[""Other""]",Yes,Male,Puerto Rico,I'm not sure,1367796.5,NA,10338,NA,"{""product_choice"":""A""}",choice,tdc,trinary,repulsion_A,1,microwave ovens,null,null,null,null,null,null,1,100,90,100,30,40,20,Warranty,Cooking power,NA,NA
NA,NA,NA,NA,NA,choice_trial_setup,html-keyboard-response,36,526649,0.0-4.0-0.16,132,1,2025-05-02T01:47:31Z,b60275e29fe2361ab97ac0ac217840d7,"Mozilla/5.0 (Windows NT 10.0; Win64; x64) AppleWebKit/537.36 (KHTML, like Gecko) Chrome/135.0.0.0 Safari/537.36",WebKit,Chrome,135.0.0.0,Windows,10,https://5puzkbbxv1.cognition.run/?sona_id=52188,"en-US,en;q=0.9",b0j6gk9pted0ql5,19,"[""Other""]",Yes,Male,Puerto Rico,I'm not sure,1367796.5,NA,null,<p></p>,null,choice,wb,binary,catch,null,microwave ovens,70,50,10,45,null,null,1,NA,NA,NA,NA,NA,NA,NA,NA,NA,NA
NA,NA,NA,NA,NA,choice_trial,survey-html-form,37,554690,0.0-4.0-1.16,132,1,2025-05-02T01:47:31Z,b60275e29fe2361ab97ac0ac217840d7,"Mozilla/5.0 (Windows NT 10.0; Win64; x64) AppleWebKit/537.36 (KHTML, like Gecko) Chrome/135.0.0.0 Safari/537.36",WebKit,Chrome,135.0.0.0,Windows,10,https://5puzkbbxv1.cognition.run/?sona_id=52188,"en-US,en;q=0.9",b0j6gk9pted0ql5,19,"[""Other""]",Yes,Male,Puerto Rico,I'm not sure,1367796.5,NA,28032,NA,"{""product_choice"":""B""}",choice,wb,binary,catch,null,microwave ovens,70,50,10,45,null,null,1,null,null,null,null,null,null,Warranty,Cooking power,NA,NA
NA,NA,NA,NA,NA,choice_trial_setup,html-keyboard-response,38,554996,0.0-4.0-0.17,132,1,2025-05-02T01:47:31Z,b60275e29fe2361ab97ac0ac217840d7,"Mozilla/5.0 (Windows NT 10.0; Win64; x64) AppleWebKit/537.36 (KHTML, like Gecko) Chrome/135.0.0.0 Safari/537.36",WebKit,Chrome,135.0.0.0,Windows,10,https://5puzkbbxv1.cognition.run/?sona_id=52188,"en-US,en;q=0.9",b0j6gk9pted0ql5,19,"[""Other""]",Yes,Male,Puerto Rico,I'm not sure,1367796.5,NA,null,<p></p>,null,choice,dtc,trinary,attraction,2,microwave ovens,null,null,null,null,null,null,2,NA,NA,NA,NA,NA,NA,NA,NA,NA,NA
NA,NA,NA,NA,NA,choice_trial,survey-html-form,39,569890,0.0-4.0-1.17,132,1,2025-05-02T01:47:31Z,b60275e29fe2361ab97ac0ac217840d7,"Mozilla/5.0 (Windows NT 10.0; Win64; x64) AppleWebKit/537.36 (KHTML, like Gecko) Chrome/135.0.0.0 Safari/537.36",WebKit,Chrome,135.0.0.0,Windows,10,https://5puzkbbxv1.cognition.run/?sona_id=52188,"en-US,en;q=0.9",b0j6gk9pted0ql5,19,"[""Other""]",Yes,Male,Puerto Rico,I'm not sure,1367796.5,NA,14890,NA,"{""product_choice"":""B""}",choice,dtc,trinary,attraction,2,microwave ovens,null,null,null,null,null,null,2,50,60,40,60,50,60,Warranty,Cooking power,NA,NA
NA,NA,NA,NA,NA,choice_trial_setup,html-keyboard-response,40,570198,0.0-4.0-0.18,132,1,2025-05-02T01:47:31Z,b60275e29fe2361ab97ac0ac217840d7,"Mozilla/5.0 (Windows NT 10.0; Win64; x64) AppleWebKit/537.36 (KHTML, like Gecko) Chrome/135.0.0.0 Safari/537.36",WebKit,Chrome,135.0.0.0,Windows,10,https://5puzkbbxv1.cognition.run/?sona_id=52188,"en-US,en;q=0.9",b0j6gk9pted0ql5,19,"[""Other""]",Yes,Male,Puerto Rico,I'm not sure,1367796.5,NA,null,<p></p>,null,choice,bw,binary,catch,null,washing machines,80,95,40,35,null,null,2,NA,NA,NA,NA,NA,NA,NA,NA,NA,NA
NA,NA,NA,NA,NA,choice_trial,survey-html-form,41,583746,0.0-4.0-1.18,132,1,2025-05-02T01:47:31Z,b60275e29fe2361ab97ac0ac217840d7,"Mozilla/5.0 (Windows NT 10.0; Win64; x64) AppleWebKit/537.36 (KHTML, like Gecko) Chrome/135.0.0.0 Safari/537.36",WebKit,Chrome,135.0.0.0,Windows,10,https://5puzkbbxv1.cognition.run/?sona_id=52188,"en-US,en;q=0.9",b0j6gk9pted0ql5,19,"[""Other""]",Yes,Male,Puerto Rico,I'm not sure,1367796.5,NA,13544,NA,"{""product_choice"":""A""}",choice,bw,binary,catch,null,washing machines,80,95,40,35,null,null,2,null,null,null,null,null,null,Average lifespan,Energy savings,NA,NA
NA,NA,NA,NA,NA,choice_trial_setup,html-keyboard-response,42,584050,0.0-4.0-0.19,132,1,2025-05-02T01:47:31Z,b60275e29fe2361ab97ac0ac217840d7,"Mozilla/5.0 (Windows NT 10.0; Win64; x64) AppleWebKit/537.36 (KHTML, like Gecko) Chrome/135.0.0.0 Safari/537.36",WebKit,Chrome,135.0.0.0,Windows,10,https://5puzkbbxv1.cognition.run/?sona_id=52188,"en-US,en;q=0.9",b0j6gk9pted0ql5,19,"[""Other""]",Yes,Male,Puerto Rico,I'm not sure,1367796.5,NA,null,<p></p>,null,choice,bw,binary,catch,null,laptops,85,90,40,10,null,null,2,NA,NA,NA,NA,NA,NA,NA,NA,NA,NA
NA,NA,NA,NA,NA,choice_trial,survey-html-form,43,591052,0.0-4.0-1.19,132,1,2025-05-02T01:47:31Z,b60275e29fe2361ab97ac0ac217840d7,"Mozilla/5.0 (Windows NT 10.0; Win64; x64) AppleWebKit/537.36 (KHTML, like Gecko) Chrome/135.0.0.0 Safari/537.36",WebKit,Chrome,135.0.0.0,Windows,10,https://5puzkbbxv1.cognition.run/?sona_id=52188,"en-US,en;q=0.9",b0j6gk9pted0ql5,19,"[""Other""]",Yes,Male,Puerto Rico,I'm not sure,1367796.5,NA,6995,NA,"{""product_choice"":""A""}",choice,bw,binary,catch,null,laptops,85,90,40,10,null,null,2,null,null,null,null,null,null,Processing speed,Memory (RAM),NA,NA
NA,NA,NA,NA,NA,choice_trial_setup,html-keyboard-response,44,591370,0.0-4.0-0.20,132,1,2025-05-02T01:47:31Z,b60275e29fe2361ab97ac0ac217840d7,"Mozilla/5.0 (Windows NT 10.0; Win64; x64) AppleWebKit/537.36 (KHTML, like Gecko) Chrome/135.0.0.0 Safari/537.36",WebKit,Chrome,135.0.0.0,Windows,10,https://5puzkbbxv1.cognition.run/?sona_id=52188,"en-US,en;q=0.9",b0j6gk9pted0ql5,19,"[""Other""]",Yes,Male,Puerto Rico,I'm not sure,1367796.5,NA,null,<p></p>,null,choice,dct,trinary,attraction,1,washing machines,null,null,null,null,null,null,1,NA,NA,NA,NA,NA,NA,NA,NA,NA,NA
NA,NA,NA,NA,NA,choice_trial,survey-html-form,45,606398,0.0-4.0-1.20,132,1,2025-05-02T01:47:31Z,b60275e29fe2361ab97ac0ac217840d7,"Mozilla/5.0 (Windows NT 10.0; Win64; x64) AppleWebKit/537.36 (KHTML, like Gecko) Chrome/135.0.0.0 Safari/537.36",WebKit,Chrome,135.0.0.0,Windows,10,https://5puzkbbxv1.cognition.run/?sona_id=52188,"en-US,en;q=0.9",b0j6gk9pted0ql5,19,"[""Other""]",Yes,Male,Puerto Rico,I'm not sure,1367796.5,NA,15024,NA,"{""product_choice"":""B""}",choice,dct,trinary,attraction,1,washing machines,null,null,null,null,null,null,1,60,50,60,50,60,40,Average lifespan,Energy savings,NA,NA
NA,NA,NA,NA,NA,choice_trial_setup,html-keyboard-response,46,606708,0.0-4.0-0.21,132,1,2025-05-02T01:47:31Z,b60275e29fe2361ab97ac0ac217840d7,"Mozilla/5.0 (Windows NT 10.0; Win64; x64) AppleWebKit/537.36 (KHTML, like Gecko) Chrome/135.0.0.0 Safari/537.36",WebKit,Chrome,135.0.0.0,Windows,10,https://5puzkbbxv1.cognition.run/?sona_id=52188,"en-US,en;q=0.9",b0j6gk9pted0ql5,19,"[""Other""]",Yes,Male,Puerto Rico,I'm not sure,1367796.5,NA,null,<p></p>,null,choice,dct,trinary,repulsion_A,1,laptops,null,null,null,null,null,null,1,NA,NA,NA,NA,NA,NA,NA,NA,NA,NA
NA,NA,NA,NA,NA,choice_trial,survey-html-form,47,635453,0.0-4.0-1.21,132,1,2025-05-02T01:47:31Z,b60275e29fe2361ab97ac0ac217840d7,"Mozilla/5.0 (Windows NT 10.0; Win64; x64) AppleWebKit/537.36 (KHTML, like Gecko) Chrome/135.0.0.0 Safari/537.36",WebKit,Chrome,135.0.0.0,Windows,10,https://5puzkbbxv1.cognition.run/?sona_id=52188,"en-US,en;q=0.9",b0j6gk9pted0ql5,19,"[""Other""]",Yes,Male,Puerto Rico,I'm not sure,1367796.5,NA,28739,NA,"{""product_choice"":""B""}",choice,dct,trinary,repulsion_A,1,laptops,null,null,null,null,null,null,1,100,90,100,30,40,20,Processing speed,Memory (RAM),NA,NA
NA,NA,NA,NA,NA,choice_trial_setup,html-keyboard-response,48,635759,0.0-4.0-0.22,132,1,2025-05-02T01:47:31Z,b60275e29fe2361ab97ac0ac217840d7,"Mozilla/5.0 (Windows NT 10.0; Win64; x64) AppleWebKit/537.36 (KHTML, like Gecko) Chrome/135.0.0.0 Safari/537.36",WebKit,Chrome,135.0.0.0,Windows,10,https://5puzkbbxv1.cognition.run/?sona_id=52188,"en-US,en;q=0.9",b0j6gk9pted0ql5,19,"[""Other""]",Yes,Male,Puerto Rico,I'm not sure,1367796.5,NA,null,<p></p>,null,choice,ct,binary,repulsion,2,laptops,null,null,null,null,null,null,1,NA,NA,NA,NA,NA,NA,NA,NA,NA,NA
NA,NA,NA,NA,NA,choice_trial,survey-html-form,49,658366,0.0-4.0-1.22,132,1,2025-05-02T01:47:31Z,b60275e29fe2361ab97ac0ac217840d7,"Mozilla/5.0 (Windows NT 10.0; Win64; x64) AppleWebKit/537.36 (KHTML, like Gecko) Chrome/135.0.0.0 Safari/537.36",WebKit,Chrome,135.0.0.0,Windows,10,https://5puzkbbxv1.cognition.run/?sona_id=52188,"en-US,en;q=0.9",b0j6gk9pted0ql5,19,"[""Other""]",Yes,Male,Puerto Rico,I'm not sure,1367796.5,NA,22602,NA,"{""product_choice"":""A""}",choice,ct,binary,repulsion,2,laptops,null,null,null,null,null,null,1,30,40,null,100,90,null,Processing speed,Memory (RAM),NA,NA
NA,NA,NA,NA,NA,choice_trial_setup,html-keyboard-response,50,658673,0.0-4.0-0.23,132,1,2025-05-02T01:47:31Z,b60275e29fe2361ab97ac0ac217840d7,"Mozilla/5.0 (Windows NT 10.0; Win64; x64) AppleWebKit/537.36 (KHTML, like Gecko) Chrome/135.0.0.0 Safari/537.36",WebKit,Chrome,135.0.0.0,Windows,10,https://5puzkbbxv1.cognition.run/?sona_id=52188,"en-US,en;q=0.9",b0j6gk9pted0ql5,19,"[""Other""]",Yes,Male,Puerto Rico,I'm not sure,1367796.5,NA,null,<p></p>,null,choice,dtc,trinary,attraction,2,washing machines,null,null,null,null,null,null,1,NA,NA,NA,NA,NA,NA,NA,NA,NA,NA
NA,NA,NA,NA,NA,choice_trial,survey-html-form,51,670549,0.0-4.0-1.23,132,1,2025-05-02T01:47:31Z,b60275e29fe2361ab97ac0ac217840d7,"Mozilla/5.0 (Windows NT 10.0; Win64; x64) AppleWebKit/537.36 (KHTML, like Gecko) Chrome/135.0.0.0 Safari/537.36",WebKit,Chrome,135.0.0.0,Windows,10,https://5puzkbbxv1.cognition.run/?sona_id=52188,"en-US,en;q=0.9",b0j6gk9pted0ql5,19,"[""Other""]",Yes,Male,Puerto Rico,I'm not sure,1367796.5,NA,11871,NA,"{""product_choice"":""B""}",choice,dtc,trinary,attraction,2,washing machines,null,null,null,null,null,null,1,50,60,40,60,50,60,Average lifespan,Energy savings,NA,NA
NA,NA,NA,NA,NA,choice_trial_setup,html-keyboard-response,52,670857,0.0-4.0-0.24,132,1,2025-05-02T01:47:31Z,b60275e29fe2361ab97ac0ac217840d7,"Mozilla/5.0 (Windows NT 10.0; Win64; x64) AppleWebKit/537.36 (KHTML, like Gecko) Chrome/135.0.0.0 Safari/537.36",WebKit,Chrome,135.0.0.0,Windows,10,https://5puzkbbxv1.cognition.run/?sona_id=52188,"en-US,en;q=0.9",b0j6gk9pted0ql5,19,"[""Other""]",Yes,Male,Puerto Rico,I'm not sure,1367796.5,NA,null,<p></p>,null,choice,tcd,trinary,attraction,2,laptops,null,null,null,null,null,null,1,NA,NA,NA,NA,NA,NA,NA,NA,NA,NA
NA,NA,NA,NA,NA,choice_trial,survey-html-form,53,695902,0.0-4.0-1.24,132,1,2025-05-02T01:47:31Z,b60275e29fe2361ab97ac0ac217840d7,"Mozilla/5.0 (Windows NT 10.0; Win64; x64) AppleWebKit/537.36 (KHTML, like Gecko) Chrome/135.0.0.0 Safari/537.36",WebKit,Chrome,135.0.0.0,Windows,10,https://5puzkbbxv1.cognition.run/?sona_id=52188,"en-US,en;q=0.9",b0j6gk9pted0ql5,19,"[""Other""]",Yes,Male,Puerto Rico,I'm not sure,1367796.5,NA,25039,NA,"{""product_choice"":""B""}",choice,tcd,trinary,attraction,2,laptops,null,null,null,null,null,null,1,50,60,40,60,50,60,Processing speed,Memory (RAM),NA,NA
NA,NA,NA,NA,NA,choice_trial_setup,html-keyboard-response,54,696216,0.0-4.0-0.25,132,1,2025-05-02T01:47:31Z,b60275e29fe2361ab97ac0ac217840d7,"Mozilla/5.0 (Windows NT 10.0; Win64; x64) AppleWebKit/537.36 (KHTML, like Gecko) Chrome/135.0.0.0 Safari/537.36",WebKit,Chrome,135.0.0.0,Windows,10,https://5puzkbbxv1.cognition.run/?sona_id=52188,"en-US,en;q=0.9",b0j6gk9pted0ql5,19,"[""Other""]",Yes,Male,Puerto Rico,I'm not sure,1367796.5,NA,null,<p></p>,null,choice,ct,binary,repulsion,1,televisions,null,null,null,null,null,null,1,NA,NA,NA,NA,NA,NA,NA,NA,NA,NA
NA,NA,NA,NA,NA,choice_trial,survey-html-form,55,707687,0.0-4.0-1.25,132,1,2025-05-02T01:47:31Z,b60275e29fe2361ab97ac0ac217840d7,"Mozilla/5.0 (Windows NT 10.0; Win64; x64) AppleWebKit/537.36 (KHTML, like Gecko) Chrome/135.0.0.0 Safari/537.36",WebKit,Chrome,135.0.0.0,Windows,10,https://5puzkbbxv1.cognition.run/?sona_id=52188,"en-US,en;q=0.9",b0j6gk9pted0ql5,19,"[""Other""]",Yes,Male,Puerto Rico,I'm not sure,1367796.5,NA,11467,NA,"{""product_choice"":""B""}",choice,ct,binary,repulsion,1,televisions,null,null,null,null,null,null,1,100,90,null,30,40,null,Screen size,Average lifespan,NA,NA
NA,NA,NA,NA,NA,choice_trial_setup,html-keyboard-response,56,707997,0.0-4.0-0.26,132,1,2025-05-02T01:47:31Z,b60275e29fe2361ab97ac0ac217840d7,"Mozilla/5.0 (Windows NT 10.0; Win64; x64) AppleWebKit/537.36 (KHTML, like Gecko) Chrome/135.0.0.0 Safari/537.36",WebKit,Chrome,135.0.0.0,Windows,10,https://5puzkbbxv1.cognition.run/?sona_id=52188,"en-US,en;q=0.9",b0j6gk9pted0ql5,19,"[""Other""]",Yes,Male,Puerto Rico,I'm not sure,1367796.5,NA,null,<p></p>,null,choice,bww,trinary,catch,null,televisions,50,50,50,45,15,40,2,NA,NA,NA,NA,NA,NA,NA,NA,NA,NA
NA,NA,NA,NA,NA,choice_trial,survey-html-form,57,722770,0.0-4.0-1.26,132,1,2025-05-02T01:47:31Z,b60275e29fe2361ab97ac0ac217840d7,"Mozilla/5.0 (Windows NT 10.0; Win64; x64) AppleWebKit/537.36 (KHTML, like Gecko) Chrome/135.0.0.0 Safari/537.36",WebKit,Chrome,135.0.0.0,Windows,10,https://5puzkbbxv1.cognition.run/?sona_id=52188,"en-US,en;q=0.9",b0j6gk9pted0ql5,19,"[""Other""]",Yes,Male,Puerto Rico,I'm not sure,1367796.5,NA,14766,NA,"{""product_choice"":""A""}",choice,bww,trinary,catch,null,televisions,50,50,50,45,15,40,2,null,null,null,null,null,null,Screen size,Average lifespan,NA,NA
NA,NA,NA,NA,NA,choice_trial_setup,html-keyboard-response,58,723076,0.0-4.0-0.27,132,1,2025-05-02T01:47:31Z,b60275e29fe2361ab97ac0ac217840d7,"Mozilla/5.0 (Windows NT 10.0; Win64; x64) AppleWebKit/537.36 (KHTML, like Gecko) Chrome/135.0.0.0 Safari/537.36",WebKit,Chrome,135.0.0.0,Windows,10,https://5puzkbbxv1.cognition.run/?sona_id=52188,"en-US,en;q=0.9",b0j6gk9pted0ql5,19,"[""Other""]",Yes,Male,Puerto Rico,I'm not sure,1367796.5,NA,null,<p></p>,null,choice,bw,binary,catch,null,televisions,85,55,30,10,null,null,1,NA,NA,NA,NA,NA,NA,NA,NA,NA,NA
NA,NA,NA,NA,NA,choice_trial,survey-html-form,59,735771,0.0-4.0-1.27,132,1,2025-05-02T01:47:31Z,b60275e29fe2361ab97ac0ac217840d7,"Mozilla/5.0 (Windows NT 10.0; Win64; x64) AppleWebKit/537.36 (KHTML, like Gecko) Chrome/135.0.0.0 Safari/537.36",WebKit,Chrome,135.0.0.0,Windows,10,https://5puzkbbxv1.cognition.run/?sona_id=52188,"en-US,en;q=0.9",b0j6gk9pted0ql5,19,"[""Other""]",Yes,Male,Puerto Rico,I'm not sure,1367796.5,NA,12687,NA,"{""product_choice"":""A""}",choice,bw,binary,catch,null,televisions,85,55,30,10,null,null,1,null,null,null,null,null,null,Screen size,Average lifespan,NA,NA
NA,NA,NA,NA,NA,choice_trial_setup,html-keyboard-response,60,736087,0.0-4.0-0.28,132,1,2025-05-02T01:47:31Z,b60275e29fe2361ab97ac0ac217840d7,"Mozilla/5.0 (Windows NT 10.0; Win64; x64) AppleWebKit/537.36 (KHTML, like Gecko) Chrome/135.0.0.0 Safari/537.36",WebKit,Chrome,135.0.0.0,Windows,10,https://5puzkbbxv1.cognition.run/?sona_id=52188,"en-US,en;q=0.9",b0j6gk9pted0ql5,19,"[""Other""]",Yes,Male,Puerto Rico,I'm not sure,1367796.5,NA,null,<p></p>,null,choice,tdc,trinary,repulsion_A,1,washing machines,null,null,null,null,null,null,2,NA,NA,NA,NA,NA,NA,NA,NA,NA,NA
NA,NA,NA,NA,NA,choice_trial,survey-html-form,61,742387,0.0-4.0-1.28,132,1,2025-05-02T01:47:31Z,b60275e29fe2361ab97ac0ac217840d7,"Mozilla/5.0 (Windows NT 10.0; Win64; x64) AppleWebKit/537.36 (KHTML, like Gecko) Chrome/135.0.0.0 Safari/537.36",WebKit,Chrome,135.0.0.0,Windows,10,https://5puzkbbxv1.cognition.run/?sona_id=52188,"en-US,en;q=0.9",b0j6gk9pted0ql5,19,"[""Other""]",Yes,Male,Puerto Rico,I'm not sure,1367796.5,NA,6294,NA,"{""product_choice"":""C""}",choice,tdc,trinary,repulsion_A,1,washing machines,null,null,null,null,null,null,2,100,90,100,30,40,20,Average lifespan,Energy savings,NA,NA
NA,NA,NA,NA,NA,choice_trial_setup,html-keyboard-response,62,742702,0.0-4.0-0.29,132,1,2025-05-02T01:47:31Z,b60275e29fe2361ab97ac0ac217840d7,"Mozilla/5.0 (Windows NT 10.0; Win64; x64) AppleWebKit/537.36 (KHTML, like Gecko) Chrome/135.0.0.0 Safari/537.36",WebKit,Chrome,135.0.0.0,Windows,10,https://5puzkbbxv1.cognition.run/?sona_id=52188,"en-US,en;q=0.9",b0j6gk9pted0ql5,19,"[""Other""]",Yes,Male,Puerto Rico,I'm not sure,1367796.5,NA,null,<p></p>,null,choice,dct,trinary,repulsion_A,2,laptops,null,null,null,null,null,null,1,NA,NA,NA,NA,NA,NA,NA,NA,NA,NA
NA,NA,NA,NA,NA,choice_trial,survey-html-form,63,747049,0.0-4.0-1.29,132,1,2025-05-02T01:47:31Z,b60275e29fe2361ab97ac0ac217840d7,"Mozilla/5.0 (Windows NT 10.0; Win64; x64) AppleWebKit/537.36 (KHTML, like Gecko) Chrome/135.0.0.0 Safari/537.36",WebKit,Chrome,135.0.0.0,Windows,10,https://5puzkbbxv1.cognition.run/?sona_id=52188,"en-US,en;q=0.9",b0j6gk9pted0ql5,19,"[""Other""]",Yes,Male,Puerto Rico,I'm not sure,1367796.5,NA,4342,NA,"{""product_choice"":""B""}",choice,dct,trinary,repulsion_A,2,laptops,null,null,null,null,null,null,1,30,40,20,100,90,100,Processing speed,Memory (RAM),NA,NA
NA,NA,NA,NA,NA,choice_trial_setup,html-keyboard-response,64,747356,0.0-4.0-0.30,132,1,2025-05-02T01:47:31Z,b60275e29fe2361ab97ac0ac217840d7,"Mozilla/5.0 (Windows NT 10.0; Win64; x64) AppleWebKit/537.36 (KHTML, like Gecko) Chrome/135.0.0.0 Safari/537.36",WebKit,Chrome,135.0.0.0,Windows,10,https://5puzkbbxv1.cognition.run/?sona_id=52188,"en-US,en;q=0.9",b0j6gk9pted0ql5,19,"[""Other""]",Yes,Male,Puerto Rico,I'm not sure,1367796.5,NA,null,<p></p>,null,choice,ctd,trinary,repulsion_B,2,washing machines,null,null,null,null,null,null,1,NA,NA,NA,NA,NA,NA,NA,NA,NA,NA
NA,NA,NA,NA,NA,choice_trial,survey-html-form,65,754283,0.0-4.0-1.30,132,1,2025-05-02T01:47:31Z,b60275e29fe2361ab97ac0ac217840d7,"Mozilla/5.0 (Windows NT 10.0; Win64; x64) AppleWebKit/537.36 (KHTML, like Gecko) Chrome/135.0.0.0 Safari/537.36",WebKit,Chrome,135.0.0.0,Windows,10,https://5puzkbbxv1.cognition.run/?sona_id=52188,"en-US,en;q=0.9",b0j6gk9pted0ql5,19,"[""Other""]",Yes,Male,Puerto Rico,I'm not sure,1367796.5,NA,6920,NA,"{""product_choice"":""A""}",choice,ctd,trinary,repulsion_B,2,washing machines,null,null,null,null,null,null,1,40,30,40,90,100,80,Average lifespan,Energy savings,NA,NA
NA,NA,NA,NA,NA,choice_trial_setup,html-keyboard-response,66,754591,0.0-4.0-0.31,132,1,2025-05-02T01:47:31Z,b60275e29fe2361ab97ac0ac217840d7,"Mozilla/5.0 (Windows NT 10.0; Win64; x64) AppleWebKit/537.36 (KHTML, like Gecko) Chrome/135.0.0.0 Safari/537.36",WebKit,Chrome,135.0.0.0,Windows,10,https://5puzkbbxv1.cognition.run/?sona_id=52188,"en-US,en;q=0.9",b0j6gk9pted0ql5,19,"[""Other""]",Yes,Male,Puerto Rico,I'm not sure,1367796.5,NA,null,<p></p>,null,choice,tc,binary,attraction,NA,laptops,null,null,null,null,null,null,2,NA,NA,NA,NA,NA,NA,NA,NA,NA,NA
NA,NA,NA,NA,NA,choice_trial,survey-html-form,67,762724,0.0-4.0-1.31,132,1,2025-05-02T01:47:31Z,b60275e29fe2361ab97ac0ac217840d7,"Mozilla/5.0 (Windows NT 10.0; Win64; x64) AppleWebKit/537.36 (KHTML, like Gecko) Chrome/135.0.0.0 Safari/537.36",WebKit,Chrome,135.0.0.0,Windows,10,https://5puzkbbxv1.cognition.run/?sona_id=52188,"en-US,en;q=0.9",b0j6gk9pted0ql5,19,"[""Other""]",Yes,Male,Puerto Rico,I'm not sure,1367796.5,NA,8124,NA,"{""product_choice"":""A""}",choice,tc,binary,attraction,NA,laptops,null,null,null,null,null,null,2,60,50,null,50,60,null,Processing speed,Memory (RAM),NA,NA
NA,NA,NA,NA,NA,choice_trial_setup,html-keyboard-response,68,763031,0.0-4.0-0.32,132,1,2025-05-02T01:47:31Z,b60275e29fe2361ab97ac0ac217840d7,"Mozilla/5.0 (Windows NT 10.0; Win64; x64) AppleWebKit/537.36 (KHTML, like Gecko) Chrome/135.0.0.0 Safari/537.36",WebKit,Chrome,135.0.0.0,Windows,10,https://5puzkbbxv1.cognition.run/?sona_id=52188,"en-US,en;q=0.9",b0j6gk9pted0ql5,19,"[""Other""]",Yes,Male,Puerto Rico,I'm not sure,1367796.5,NA,null,<p></p>,null,choice,dtc,trinary,repulsion_B,2,microwave ovens,null,null,null,null,null,null,2,NA,NA,NA,NA,NA,NA,NA,NA,NA,NA
NA,NA,NA,NA,NA,choice_trial,survey-html-form,69,770512,0.0-4.0-1.32,132,1,2025-05-02T01:47:31Z,b60275e29fe2361ab97ac0ac217840d7,"Mozilla/5.0 (Windows NT 10.0; Win64; x64) AppleWebKit/537.36 (KHTML, like Gecko) Chrome/135.0.0.0 Safari/537.36",WebKit,Chrome,135.0.0.0,Windows,10,https://5puzkbbxv1.cognition.run/?sona_id=52188,"en-US,en;q=0.9",b0j6gk9pted0ql5,19,"[""Other""]",Yes,Male,Puerto Rico,I'm not sure,1367796.5,NA,7475,NA,"{""product_choice"":""C""}",choice,dtc,trinary,repulsion_B,2,microwave ovens,null,null,null,null,null,null,2,40,30,40,90,100,80,Warranty,Cooking power,NA,NA
NA,NA,NA,NA,NA,choice_trial_setup,html-keyboard-response,70,770825,0.0-4.0-0.33,132,1,2025-05-02T01:47:31Z,b60275e29fe2361ab97ac0ac217840d7,"Mozilla/5.0 (Windows NT 10.0; Win64; x64) AppleWebKit/537.36 (KHTML, like Gecko) Chrome/135.0.0.0 Safari/537.36",WebKit,Chrome,135.0.0.0,Windows,10,https://5puzkbbxv1.cognition.run/?sona_id=52188,"en-US,en;q=0.9",b0j6gk9pted0ql5,19,"[""Other""]",Yes,Male,Puerto Rico,I'm not sure,1367796.5,NA,null,<p></p>,null,choice,dct,trinary,repulsion_A,1,televisions,null,null,null,null,null,null,1,NA,NA,NA,NA,NA,NA,NA,NA,NA,NA
NA,NA,NA,NA,NA,choice_trial,survey-html-form,71,782419,0.0-4.0-1.33,132,1,2025-05-02T01:47:31Z,b60275e29fe2361ab97ac0ac217840d7,"Mozilla/5.0 (Windows NT 10.0; Win64; x64) AppleWebKit/537.36 (KHTML, like Gecko) Chrome/135.0.0.0 Safari/537.36",WebKit,Chrome,135.0.0.0,Windows,10,https://5puzkbbxv1.cognition.run/?sona_id=52188,"en-US,en;q=0.9",b0j6gk9pted0ql5,19,"[""Other""]",Yes,Male,Puerto Rico,I'm not sure,1367796.5,NA,11587,NA,"{""product_choice"":""B""}",choice,dct,trinary,repulsion_A,1,televisions,null,null,null,null,null,null,1,100,90,100,30,40,20,Screen size,Average lifespan,NA,NA
NA,NA,NA,NA,NA,choice_trial_setup,html-keyboard-response,72,782732,0.0-4.0-0.34,132,1,2025-05-02T01:47:31Z,b60275e29fe2361ab97ac0ac217840d7,"Mozilla/5.0 (Windows NT 10.0; Win64; x64) AppleWebKit/537.36 (KHTML, like Gecko) Chrome/135.0.0.0 Safari/537.36",WebKit,Chrome,135.0.0.0,Windows,10,https://5puzkbbxv1.cognition.run/?sona_id=52188,"en-US,en;q=0.9",b0j6gk9pted0ql5,19,"[""Other""]",Yes,Male,Puerto Rico,I'm not sure,1367796.5,NA,null,<p></p>,null,choice,wbw,trinary,catch,null,microwave ovens,80,60,5,40,40,25,1,NA,NA,NA,NA,NA,NA,NA,NA,NA,NA
NA,NA,NA,NA,NA,choice_trial,survey-html-form,73,793915,0.0-4.0-1.34,132,1,2025-05-02T01:47:31Z,b60275e29fe2361ab97ac0ac217840d7,"Mozilla/5.0 (Windows NT 10.0; Win64; x64) AppleWebKit/537.36 (KHTML, like Gecko) Chrome/135.0.0.0 Safari/537.36",WebKit,Chrome,135.0.0.0,Windows,10,https://5puzkbbxv1.cognition.run/?sona_id=52188,"en-US,en;q=0.9",b0j6gk9pted0ql5,19,"[""Other""]",Yes,Male,Puerto Rico,I'm not sure,1367796.5,NA,11177,NA,"{""product_choice"":""B""}",choice,wbw,trinary,catch,null,microwave ovens,80,60,5,40,40,25,1,null,null,null,null,null,null,Warranty,Cooking power,NA,NA
NA,NA,NA,NA,NA,choice_trial_setup,html-keyboard-response,74,794234,0.0-4.0-0.35,132,1,2025-05-02T01:47:31Z,b60275e29fe2361ab97ac0ac217840d7,"Mozilla/5.0 (Windows NT 10.0; Win64; x64) AppleWebKit/537.36 (KHTML, like Gecko) Chrome/135.0.0.0 Safari/537.36",WebKit,Chrome,135.0.0.0,Windows,10,https://5puzkbbxv1.cognition.run/?sona_id=52188,"en-US,en;q=0.9",b0j6gk9pted0ql5,19,"[""Other""]",Yes,Male,Puerto Rico,I'm not sure,1367796.5,NA,null,<p></p>,null,choice,tc,binary,repulsion,1,washing machines,null,null,null,null,null,null,1,NA,NA,NA,NA,NA,NA,NA,NA,NA,NA
NA,NA,NA,NA,NA,choice_trial,survey-html-form,75,805097,0.0-4.0-1.35,132,1,2025-05-02T01:47:31Z,b60275e29fe2361ab97ac0ac217840d7,"Mozilla/5.0 (Windows NT 10.0; Win64; x64) AppleWebKit/537.36 (KHTML, like Gecko) Chrome/135.0.0.0 Safari/537.36",WebKit,Chrome,135.0.0.0,Windows,10,https://5puzkbbxv1.cognition.run/?sona_id=52188,"en-US,en;q=0.9",b0j6gk9pted0ql5,19,"[""Other""]",Yes,Male,Puerto Rico,I'm not sure,1367796.5,NA,10858,NA,"{""product_choice"":""B""}",choice,tc,binary,repulsion,1,washing machines,null,null,null,null,null,null,1,100,90,null,30,40,null,Average lifespan,Energy savings,NA,NA
NA,NA,NA,NA,NA,choice_trial_setup,html-keyboard-response,76,805408,0.0-4.0-0.36,132,1,2025-05-02T01:47:31Z,b60275e29fe2361ab97ac0ac217840d7,"Mozilla/5.0 (Windows NT 10.0; Win64; x64) AppleWebKit/537.36 (KHTML, like Gecko) Chrome/135.0.0.0 Safari/537.36",WebKit,Chrome,135.0.0.0,Windows,10,https://5puzkbbxv1.cognition.run/?sona_id=52188,"en-US,en;q=0.9",b0j6gk9pted0ql5,19,"[""Other""]",Yes,Male,Puerto Rico,I'm not sure,1367796.5,NA,null,<p></p>,null,choice,ct,binary,attraction,NA,televisions,null,null,null,null,null,null,1,NA,NA,NA,NA,NA,NA,NA,NA,NA,NA
NA,NA,NA,NA,NA,choice_trial,survey-html-form,77,823812,0.0-4.0-1.36,132,1,2025-05-02T01:47:31Z,b60275e29fe2361ab97ac0ac217840d7,"Mozilla/5.0 (Windows NT 10.0; Win64; x64) AppleWebKit/537.36 (KHTML, like Gecko) Chrome/135.0.0.0 Safari/537.36",WebKit,Chrome,135.0.0.0,Windows,10,https://5puzkbbxv1.cognition.run/?sona_id=52188,"en-US,en;q=0.9",b0j6gk9pted0ql5,19,"[""Other""]",Yes,Male,Puerto Rico,I'm not sure,1367796.5,NA,18397,NA,"{""product_choice"":""A""}",choice,ct,binary,attraction,NA,televisions,null,null,null,null,null,null,1,60,50,null,50,60,null,Screen size,Average lifespan,NA,NA
NA,NA,NA,NA,NA,choice_trial_setup,html-keyboard-response,78,824124,0.0-4.0-0.37,132,1,2025-05-02T01:47:31Z,b60275e29fe2361ab97ac0ac217840d7,"Mozilla/5.0 (Windows NT 10.0; Win64; x64) AppleWebKit/537.36 (KHTML, like Gecko) Chrome/135.0.0.0 Safari/537.36",WebKit,Chrome,135.0.0.0,Windows,10,https://5puzkbbxv1.cognition.run/?sona_id=52188,"en-US,en;q=0.9",b0j6gk9pted0ql5,19,"[""Other""]",Yes,Male,Puerto Rico,I'm not sure,1367796.5,NA,null,<p></p>,null,choice,ct,binary,repulsion,2,washing machines,null,null,null,null,null,null,1,NA,NA,NA,NA,NA,NA,NA,NA,NA,NA
NA,NA,NA,NA,NA,choice_trial,survey-html-form,79,833045,0.0-4.0-1.37,132,1,2025-05-02T01:47:31Z,b60275e29fe2361ab97ac0ac217840d7,"Mozilla/5.0 (Windows NT 10.0; Win64; x64) AppleWebKit/537.36 (KHTML, like Gecko) Chrome/135.0.0.0 Safari/537.36",WebKit,Chrome,135.0.0.0,Windows,10,https://5puzkbbxv1.cognition.run/?sona_id=52188,"en-US,en;q=0.9",b0j6gk9pted0ql5,19,"[""Other""]",Yes,Male,Puerto Rico,I'm not sure,1367796.5,NA,8914,NA,"{""product_choice"":""A""}",choice,ct,binary,repulsion,2,washing machines,null,null,null,null,null,null,1,30,40,null,100,90,null,Average lifespan,Energy savings,NA,NA
NA,NA,NA,NA,NA,choice_trial_setup,html-keyboard-response,80,833359,0.0-4.0-0.38,132,1,2025-05-02T01:47:31Z,b60275e29fe2361ab97ac0ac217840d7,"Mozilla/5.0 (Windows NT 10.0; Win64; x64) AppleWebKit/537.36 (KHTML, like Gecko) Chrome/135.0.0.0 Safari/537.36",WebKit,Chrome,135.0.0.0,Windows,10,https://5puzkbbxv1.cognition.run/?sona_id=52188,"en-US,en;q=0.9",b0j6gk9pted0ql5,19,"[""Other""]",Yes,Male,Puerto Rico,I'm not sure,1367796.5,NA,null,<p></p>,null,choice,bww,trinary,catch,null,washing machines,65,70,15,50,45,35,2,NA,NA,NA,NA,NA,NA,NA,NA,NA,NA
NA,NA,NA,NA,NA,choice_trial,survey-html-form,81,845648,0.0-4.0-1.38,132,1,2025-05-02T01:47:31Z,b60275e29fe2361ab97ac0ac217840d7,"Mozilla/5.0 (Windows NT 10.0; Win64; x64) AppleWebKit/537.36 (KHTML, like Gecko) Chrome/135.0.0.0 Safari/537.36",WebKit,Chrome,135.0.0.0,Windows,10,https://5puzkbbxv1.cognition.run/?sona_id=52188,"en-US,en;q=0.9",b0j6gk9pted0ql5,19,"[""Other""]",Yes,Male,Puerto Rico,I'm not sure,1367796.5,NA,12281,NA,"{""product_choice"":""A""}",choice,bww,trinary,catch,null,washing machines,65,70,15,50,45,35,2,null,null,null,null,null,null,Average lifespan,Energy savings,NA,NA
NA,NA,NA,NA,NA,choice_trial_setup,html-keyboard-response,82,845956,0.0-4.0-0.39,132,1,2025-05-02T01:47:31Z,b60275e29fe2361ab97ac0ac217840d7,"Mozilla/5.0 (Windows NT 10.0; Win64; x64) AppleWebKit/537.36 (KHTML, like Gecko) Chrome/135.0.0.0 Safari/537.36",WebKit,Chrome,135.0.0.0,Windows,10,https://5puzkbbxv1.cognition.run/?sona_id=52188,"en-US,en;q=0.9",b0j6gk9pted0ql5,19,"[""Other""]",Yes,Male,Puerto Rico,I'm not sure,1367796.5,NA,null,<p></p>,null,choice,tc,binary,attraction,NA,washing machines,null,null,null,null,null,null,2,NA,NA,NA,NA,NA,NA,NA,NA,NA,NA
NA,NA,NA,NA,NA,choice_trial,survey-html-form,83,869678,0.0-4.0-1.39,132,1,2025-05-02T01:47:31Z,b60275e29fe2361ab97ac0ac217840d7,"Mozilla/5.0 (Windows NT 10.0; Win64; x64) AppleWebKit/537.36 (KHTML, like Gecko) Chrome/135.0.0.0 Safari/537.36",WebKit,Chrome,135.0.0.0,Windows,10,https://5puzkbbxv1.cognition.run/?sona_id=52188,"en-US,en;q=0.9",b0j6gk9pted0ql5,19,"[""Other""]",Yes,Male,Puerto Rico,I'm not sure,1367796.5,NA,23715,NA,"{""product_choice"":""B""}",choice,tc,binary,attraction,NA,washing machines,null,null,null,null,null,null,2,60,50,null,50,60,null,Average lifespan,Energy savings,NA,NA
NA,NA,NA,NA,NA,choice_trial_setup,html-keyboard-response,84,869984,0.0-4.0-0.40,132,1,2025-05-02T01:47:31Z,b60275e29fe2361ab97ac0ac217840d7,"Mozilla/5.0 (Windows NT 10.0; Win64; x64) AppleWebKit/537.36 (KHTML, like Gecko) Chrome/135.0.0.0 Safari/537.36",WebKit,Chrome,135.0.0.0,Windows,10,https://5puzkbbxv1.cognition.run/?sona_id=52188,"en-US,en;q=0.9",b0j6gk9pted0ql5,19,"[""Other""]",Yes,Male,Puerto Rico,I'm not sure,1367796.5,NA,null,<p></p>,null,choice,bww,trinary,catch,null,laptops,90,70,10,25,45,5,2,NA,NA,NA,NA,NA,NA,NA,NA,NA,NA
NA,NA,NA,NA,NA,choice_trial,survey-html-form,85,880409,0.0-4.0-1.40,132,1,2025-05-02T01:47:31Z,b60275e29fe2361ab97ac0ac217840d7,"Mozilla/5.0 (Windows NT 10.0; Win64; x64) AppleWebKit/537.36 (KHTML, like Gecko) Chrome/135.0.0.0 Safari/537.36",WebKit,Chrome,135.0.0.0,Windows,10,https://5puzkbbxv1.cognition.run/?sona_id=52188,"en-US,en;q=0.9",b0j6gk9pted0ql5,19,"[""Other""]",Yes,Male,Puerto Rico,I'm not sure,1367796.5,NA,10418,NA,"{""product_choice"":""A""}",choice,bww,trinary,catch,null,laptops,90,70,10,25,45,5,2,null,null,null,null,null,null,Processing speed,Memory (RAM),NA,NA
NA,NA,NA,NA,NA,choice_trial_setup,html-keyboard-response,86,880720,0.0-4.0-0.41,132,1,2025-05-02T01:47:31Z,b60275e29fe2361ab97ac0ac217840d7,"Mozilla/5.0 (Windows NT 10.0; Win64; x64) AppleWebKit/537.36 (KHTML, like Gecko) Chrome/135.0.0.0 Safari/537.36",WebKit,Chrome,135.0.0.0,Windows,10,https://5puzkbbxv1.cognition.run/?sona_id=52188,"en-US,en;q=0.9",b0j6gk9pted0ql5,19,"[""Other""]",Yes,Male,Puerto Rico,I'm not sure,1367796.5,NA,null,<p></p>,null,choice,ct,binary,repulsion,2,microwave ovens,null,null,null,null,null,null,1,NA,NA,NA,NA,NA,NA,NA,NA,NA,NA
NA,NA,NA,NA,NA,choice_trial,survey-html-form,87,888071,0.0-4.0-1.41,132,1,2025-05-02T01:47:31Z,b60275e29fe2361ab97ac0ac217840d7,"Mozilla/5.0 (Windows NT 10.0; Win64; x64) AppleWebKit/537.36 (KHTML, like Gecko) Chrome/135.0.0.0 Safari/537.36",WebKit,Chrome,135.0.0.0,Windows,10,https://5puzkbbxv1.cognition.run/?sona_id=52188,"en-US,en;q=0.9",b0j6gk9pted0ql5,19,"[""Other""]",Yes,Male,Puerto Rico,I'm not sure,1367796.5,NA,7343,NA,"{""product_choice"":""B""}",choice,ct,binary,repulsion,2,microwave ovens,null,null,null,null,null,null,1,30,40,null,100,90,null,Warranty,Cooking power,NA,NA
NA,NA,NA,NA,NA,choice_trial_setup,html-keyboard-response,88,888385,0.0-4.0-0.42,132,1,2025-05-02T01:47:31Z,b60275e29fe2361ab97ac0ac217840d7,"Mozilla/5.0 (Windows NT 10.0; Win64; x64) AppleWebKit/537.36 (KHTML, like Gecko) Chrome/135.0.0.0 Safari/537.36",WebKit,Chrome,135.0.0.0,Windows,10,https://5puzkbbxv1.cognition.run/?sona_id=52188,"en-US,en;q=0.9",b0j6gk9pted0ql5,19,"[""Other""]",Yes,Male,Puerto Rico,I'm not sure,1367796.5,NA,null,<p></p>,null,choice,ctd,trinary,repulsion_B,1,microwave ovens,null,null,null,null,null,null,2,NA,NA,NA,NA,NA,NA,NA,NA,NA,NA
NA,NA,NA,NA,NA,choice_trial,survey-html-form,89,900066,0.0-4.0-1.42,132,1,2025-05-02T01:47:31Z,b60275e29fe2361ab97ac0ac217840d7,"Mozilla/5.0 (Windows NT 10.0; Win64; x64) AppleWebKit/537.36 (KHTML, like Gecko) Chrome/135.0.0.0 Safari/537.36",WebKit,Chrome,135.0.0.0,Windows,10,https://5puzkbbxv1.cognition.run/?sona_id=52188,"en-US,en;q=0.9",b0j6gk9pted0ql5,19,"[""Other""]",Yes,Male,Puerto Rico,I'm not sure,1367796.5,NA,11673,NA,"{""product_choice"":""B""}",choice,ctd,trinary,repulsion_B,1,microwave ovens,null,null,null,null,null,null,2,90,100,80,40,30,40,Warranty,Cooking power,NA,NA
NA,NA,NA,NA,NA,choice_trial_setup,html-keyboard-response,90,900378,0.0-4.0-0.43,132,1,2025-05-02T01:47:31Z,b60275e29fe2361ab97ac0ac217840d7,"Mozilla/5.0 (Windows NT 10.0; Win64; x64) AppleWebKit/537.36 (KHTML, like Gecko) Chrome/135.0.0.0 Safari/537.36",WebKit,Chrome,135.0.0.0,Windows,10,https://5puzkbbxv1.cognition.run/?sona_id=52188,"en-US,en;q=0.9",b0j6gk9pted0ql5,19,"[""Other""]",Yes,Male,Puerto Rico,I'm not sure,1367796.5,NA,null,<p></p>,null,choice,tcd,trinary,repulsion_A,2,washing machines,null,null,null,null,null,null,2,NA,NA,NA,NA,NA,NA,NA,NA,NA,NA
NA,NA,NA,NA,NA,choice_trial,survey-html-form,91,909019,0.0-4.0-1.43,132,1,2025-05-02T01:47:31Z,b60275e29fe2361ab97ac0ac217840d7,"Mozilla/5.0 (Windows NT 10.0; Win64; x64) AppleWebKit/537.36 (KHTML, like Gecko) Chrome/135.0.0.0 Safari/537.36",WebKit,Chrome,135.0.0.0,Windows,10,https://5puzkbbxv1.cognition.run/?sona_id=52188,"en-US,en;q=0.9",b0j6gk9pted0ql5,19,"[""Other""]",Yes,Male,Puerto Rico,I'm not sure,1367796.5,NA,8634,NA,"{""product_choice"":""A""}",choice,tcd,trinary,repulsion_A,2,washing machines,null,null,null,null,null,null,2,30,40,20,100,90,100,Average lifespan,Energy savings,NA,NA
NA,NA,NA,NA,NA,post_trials_message,html-button-response,92,911108,0.0-5.0,132,1,2025-05-02T01:47:31Z,b60275e29fe2361ab97ac0ac217840d7,"Mozilla/5.0 (Windows NT 10.0; Win64; x64) AppleWebKit/537.36 (KHTML, like Gecko) Chrome/135.0.0.0 Safari/537.36",WebKit,Chrome,135.0.0.0,Windows,10,https://5puzkbbxv1.cognition.run/?sona_id=52188,"en-US,en;q=0.9",b0j6gk9pted0ql5,19,"[""Other""]",Yes,Male,Puerto Rico,I'm not sure,1367796.5,NA,2081,<p> <b>Thank you for your patience!</b></p><p>  The study will be done after completing a brief form. </p>,0,NA,NA,NA,NA,NA,NA,NA,NA,NA,NA,NA,NA,NA,NA,NA,NA,NA,NA,NA,NA,NA,NA,NA
NA,NA,NA,NA,NA,survey_message,survey-text,93,1177328,0.0-6.0,132,1,2025-05-02T01:47:31Z,b60275e29fe2361ab97ac0ac217840d7,"Mozilla/5.0 (Windows NT 10.0; Win64; x64) AppleWebKit/537.36 (KHTML, like Gecko) Chrome/135.0.0.0 Safari/537.36",WebKit,Chrome,135.0.0.0,Windows,10,https://5puzkbbxv1.cognition.run/?sona_id=52188,"en-US,en;q=0.9",b0j6gk9pted0ql5,19,"[""Other""]",Yes,Male,Puerto Rico,I'm not sure,1367796.5,NA,266209,NA,"{""Q0"":""well for sum of them your looking at the long term use of these products and sometimes a warranty is nice but if you truly have the best product it shouldn't need replacing until its paid for its self and more. also for some of the other stuff its more about how consumers would look at it, sometimes people want the best and they'll take a step down in sum other variable.  ""}",NA,NA,NA,NA,NA,NA,NA,NA,NA,NA,NA,NA,NA,NA,NA,NA,NA,NA,NA,NA,NA,"well for sum of them your looking at the long term use of these products and sometimes a warranty is nice but if you truly have the best product it shouldn't need replacing until its paid for its self and more. also for some of the other stuff its more about how consumers would look at it, sometimes people want the best and they'll take a step down in sum other variable.",NA
NA,NA,NA,NA,NA,demo_age,survey-text,94,1183146,0.0-7.0,132,1,2025-05-02T01:47:31Z,b60275e29fe2361ab97ac0ac217840d7,"Mozilla/5.0 (Windows NT 10.0; Win64; x64) AppleWebKit/537.36 (KHTML, like Gecko) Chrome/135.0.0.0 Safari/537.36",WebKit,Chrome,135.0.0.0,Windows,10,https://5puzkbbxv1.cognition.run/?sona_id=52188,"en-US,en;q=0.9",b0j6gk9pted0ql5,19,"[""Other""]",Yes,Male,Puerto Rico,I'm not sure,1367796.5,NA,5805,NA,"{""Q0"":""19""}",NA,NA,NA,NA,NA,NA,NA,NA,NA,NA,NA,NA,NA,NA,NA,NA,NA,NA,NA,NA,NA,NA,NA
NA,NA,NA,NA,NA,demo_race,survey-multi-select,95,1195479,0.0-8.0,132,1,2025-05-02T01:47:31Z,b60275e29fe2361ab97ac0ac217840d7,"Mozilla/5.0 (Windows NT 10.0; Win64; x64) AppleWebKit/537.36 (KHTML, like Gecko) Chrome/135.0.0.0 Safari/537.36",WebKit,Chrome,135.0.0.0,Windows,10,https://5puzkbbxv1.cognition.run/?sona_id=52188,"en-US,en;q=0.9",b0j6gk9pted0ql5,19,"[""Other""]",Yes,Male,Puerto Rico,I'm not sure,1367796.5,NA,12322,NA,"{""Q0"":[""Other""]}",NA,NA,NA,NA,NA,NA,NA,NA,NA,NA,NA,NA,NA,NA,NA,NA,NA,NA,NA,NA,NA,NA,[0]
NA,NA,NA,NA,NA,demo_ethnicity_gender,survey-multi-choice,96,1222335,0.0-9.0,132,1,2025-05-02T01:47:31Z,b60275e29fe2361ab97ac0ac217840d7,"Mozilla/5.0 (Windows NT 10.0; Win64; x64) AppleWebKit/537.36 (KHTML, like Gecko) Chrome/135.0.0.0 Safari/537.36",WebKit,Chrome,135.0.0.0,Windows,10,https://5puzkbbxv1.cognition.run/?sona_id=52188,"en-US,en;q=0.9",b0j6gk9pted0ql5,19,"[""Other""]",Yes,Male,Puerto Rico,I'm not sure,1367796.5,NA,26847,NA,"{""Q0"":""Yes"",""Q1"":""Male""}",NA,NA,NA,NA,NA,NA,NA,NA,NA,NA,NA,NA,NA,NA,NA,NA,NA,NA,NA,NA,NA,NA,"[0,1]"
NA,NA,NA,NA,NA,demo_countries,survey-text,97,1243351,0.0-10.0,132,1,2025-05-02T01:47:31Z,b60275e29fe2361ab97ac0ac217840d7,"Mozilla/5.0 (Windows NT 10.0; Win64; x64) AppleWebKit/537.36 (KHTML, like Gecko) Chrome/135.0.0.0 Safari/537.36",WebKit,Chrome,135.0.0.0,Windows,10,https://5puzkbbxv1.cognition.run/?sona_id=52188,"en-US,en;q=0.9",b0j6gk9pted0ql5,19,"[""Other""]",Yes,Male,Puerto Rico,I'm not sure,1367796.5,NA,21000,NA,"{""Q0"":""Puerto Rico""}",NA,NA,NA,NA,NA,NA,NA,NA,NA,NA,NA,NA,NA,NA,NA,NA,NA,NA,NA,NA,NA,NA,NA
NA,NA,NA,NA,NA,demo_prev_study,survey-multi-choice,98,1278255,0.0-11.0,132,1,2025-05-02T01:47:31Z,b60275e29fe2361ab97ac0ac217840d7,"Mozilla/5.0 (Windows NT 10.0; Win64; x64) AppleWebKit/537.36 (KHTML, like Gecko) Chrome/135.0.0.0 Safari/537.36",WebKit,Chrome,135.0.0.0,Windows,10,https://5puzkbbxv1.cognition.run/?sona_id=52188,"en-US,en;q=0.9",b0j6gk9pted0ql5,19,"[""Other""]",Yes,Male,Puerto Rico,I'm not sure,1367796.5,NA,34895,NA,"{""Q0"":""I'm not sure""}",NA,NA,NA,NA,NA,NA,NA,NA,NA,NA,NA,NA,NA,NA,NA,NA,NA,NA,NA,NA,NA,NA,[0]
NA,NA,NA,NA,NA,post_survey_message,html-keyboard-response,99,1299605,0.0-12.0,132,1,2025-05-02T01:47:31Z,b60275e29fe2361ab97ac0ac217840d7,"Mozilla/5.0 (Windows NT 10.0; Win64; x64) AppleWebKit/537.36 (KHTML, like Gecko) Chrome/135.0.0.0 Safari/537.36",WebKit,Chrome,135.0.0.0,Windows,10,https://5puzkbbxv1.cognition.run/?sona_id=52188,"en-US,en;q=0.9",b0j6gk9pted0ql5,19,"[""Other""]",Yes,Male,Puerto Rico,I'm not sure,1367796.5,NA,21343,NA,j,NA,NA,NA,NA,NA,NA,NA,NA,NA,NA,NA,NA,NA,NA,NA,NA,NA,NA,NA,NA,NA,NA,NA
NA,NA,NA,NA,NA,debrief,image-keyboard-response,100,1367794,0.0-13.0,132,1,2025-05-02T01:47:31Z,b60275e29fe2361ab97ac0ac217840d7,"Mozilla/5.0 (Windows NT 10.0; Win64; x64) AppleWebKit/537.36 (KHTML, like Gecko) Chrome/135.0.0.0 Safari/537.36",WebKit,Chrome,135.0.0.0,Windows,10,https://5puzkbbxv1.cognition.run/?sona_id=52188,"en-US,en;q=0.9",b0j6gk9pted0ql5,19,"[""Other""]",Yes,Male,Puerto Rico,I'm not sure,1367796.5,NA,68178,Judg_choice_debrief.png,p,NA,NA,NA,NA,NA,NA,NA,NA,NA,NA,NA,NA,NA,NA,NA,NA,NA,NA,NA,NA,NA,NA,NA
