success,timeout,failed_images,failed_audio,failed_video,screen_id,trial_type,trial_index,time_elapsed,internal_node_id,run_id,condition,recorded_at,source_code_version,user_agent,device,browser,browser_version,platform,platform_version,referer,accept_language,ppt_id,age,race,ethnicity,gender,other_countries,prev_study,exp_duration,view_history,rt,stimulus,response,phase,order,set,effect,t_high,category,d1_best,d2_best,d1_worst1,d2_worst1,d1_worst2,d2_worst2,first_dim,d1_t,d1_c,d1_d,d2_t,d2_c,d2_d,d1_name,d2_name,strategy_response,question_order
TRUE,FALSE,[],[],[],img preload,preload,0,141,0.0-0.0,133,1,2025-05-02T03:45:15Z,b60275e29fe2361ab97ac0ac217840d7,"Mozilla/5.0 (Macintosh; Intel Mac OS X 10_15_7) AppleWebKit/537.36 (KHTML, like Gecko) Chrome/135.0.0.0 Safari/537.36",Macintosh,Chrome,135.0.0.0,OS X,10_15_7,https://5puzkbbxv1.cognition.run/?sona_id=51650,"en-US,en;q=0.9",wwu5jpgt9nfhwfz,21,"[""White""]",No,Female,"Aleppo, Syria and for 5 years",Yes,378776.5,NA,NA,NA,NA,NA,NA,NA,NA,NA,NA,NA,NA,NA,NA,NA,NA,NA,NA,NA,NA,NA,NA,NA,NA,NA,NA,NA
NA,NA,NA,NA,NA,computer_message,instructions,1,2221,0.0-1.0,133,1,2025-05-02T03:45:15Z,b60275e29fe2361ab97ac0ac217840d7,"Mozilla/5.0 (Macintosh; Intel Mac OS X 10_15_7) AppleWebKit/537.36 (KHTML, like Gecko) Chrome/135.0.0.0 Safari/537.36",Macintosh,Chrome,135.0.0.0,OS X,10_15_7,https://5puzkbbxv1.cognition.run/?sona_id=51650,"en-US,en;q=0.9",wwu5jpgt9nfhwfz,21,"[""White""]",No,Female,"Aleppo, Syria and for 5 years",Yes,378776.5,"[{""page_index"":0,""viewing_time"":2079}]",2079,NA,NA,NA,NA,NA,NA,NA,NA,NA,NA,NA,NA,NA,NA,NA,NA,NA,NA,NA,NA,NA,NA,NA,NA,NA
TRUE,NA,NA,NA,NA,NA,fullscreen,2,5111,0.0-2.0,133,1,2025-05-02T03:45:15Z,b60275e29fe2361ab97ac0ac217840d7,"Mozilla/5.0 (Macintosh; Intel Mac OS X 10_15_7) AppleWebKit/537.36 (KHTML, like Gecko) Chrome/135.0.0.0 Safari/537.36",Macintosh,Chrome,135.0.0.0,OS X,10_15_7,https://5puzkbbxv1.cognition.run/?sona_id=51650,"en-US,en;q=0.9",wwu5jpgt9nfhwfz,21,"[""White""]",No,Female,"Aleppo, Syria and for 5 years",Yes,378776.5,NA,1884,NA,NA,NA,NA,NA,NA,NA,NA,NA,NA,NA,NA,NA,NA,NA,NA,NA,NA,NA,NA,NA,NA,NA,NA,NA
NA,NA,NA,NA,NA,choice_instructions,instructions,3,46507,0.0-3.0,133,1,2025-05-02T03:45:15Z,b60275e29fe2361ab97ac0ac217840d7,"Mozilla/5.0 (Macintosh; Intel Mac OS X 10_15_7) AppleWebKit/537.36 (KHTML, like Gecko) Chrome/135.0.0.0 Safari/537.36",Macintosh,Chrome,135.0.0.0,OS X,10_15_7,https://5puzkbbxv1.cognition.run/?sona_id=51650,"en-US,en;q=0.9",wwu5jpgt9nfhwfz,21,"[""White""]",No,Female,"Aleppo, Syria and for 5 years",Yes,378776.5,"[{""page_index"":0,""viewing_time"":2192},{""page_index"":1,""viewing_time"":3185},{""page_index"":2,""viewing_time"":3833},{""page_index"":3,""viewing_time"":3001},{""page_index"":4,""viewing_time"":1717},{""page_index"":5,""viewing_time"":21365},{""page_index"":6,""viewing_time"":6101}]",41394,NA,NA,NA,NA,NA,NA,NA,NA,NA,NA,NA,NA,NA,NA,NA,NA,NA,NA,NA,NA,NA,NA,NA,NA,NA
NA,NA,NA,NA,NA,choice_trial_setup,html-keyboard-response,4,46814,0.0-4.0-0.0,133,1,2025-05-02T03:45:15Z,b60275e29fe2361ab97ac0ac217840d7,"Mozilla/5.0 (Macintosh; Intel Mac OS X 10_15_7) AppleWebKit/537.36 (KHTML, like Gecko) Chrome/135.0.0.0 Safari/537.36",Macintosh,Chrome,135.0.0.0,OS X,10_15_7,https://5puzkbbxv1.cognition.run/?sona_id=51650,"en-US,en;q=0.9",wwu5jpgt9nfhwfz,21,"[""White""]",No,Female,"Aleppo, Syria and for 5 years",Yes,378776.5,NA,null,<p></p>,null,choice,bww,trinary,catch,null,microwave ovens,65,85,20,25,20,50,2,NA,NA,NA,NA,NA,NA,NA,NA,NA,NA
NA,NA,NA,NA,NA,choice_trial,survey-html-form,5,54380,0.0-4.0-1.0,133,1,2025-05-02T03:45:15Z,b60275e29fe2361ab97ac0ac217840d7,"Mozilla/5.0 (Macintosh; Intel Mac OS X 10_15_7) AppleWebKit/537.36 (KHTML, like Gecko) Chrome/135.0.0.0 Safari/537.36",Macintosh,Chrome,135.0.0.0,OS X,10_15_7,https://5puzkbbxv1.cognition.run/?sona_id=51650,"en-US,en;q=0.9",wwu5jpgt9nfhwfz,21,"[""White""]",No,Female,"Aleppo, Syria and for 5 years",Yes,378776.5,NA,7553,NA,"{""product_choice"":""A""}",choice,bww,trinary,catch,null,microwave ovens,65,85,20,25,20,50,2,null,null,null,null,null,null,Warranty,Cooking power,NA,NA
NA,NA,NA,NA,NA,choice_trial_setup,html-keyboard-response,6,54682,0.0-4.0-0.1,133,1,2025-05-02T03:45:15Z,b60275e29fe2361ab97ac0ac217840d7,"Mozilla/5.0 (Macintosh; Intel Mac OS X 10_15_7) AppleWebKit/537.36 (KHTML, like Gecko) Chrome/135.0.0.0 Safari/537.36",Macintosh,Chrome,135.0.0.0,OS X,10_15_7,https://5puzkbbxv1.cognition.run/?sona_id=51650,"en-US,en;q=0.9",wwu5jpgt9nfhwfz,21,"[""White""]",No,Female,"Aleppo, Syria and for 5 years",Yes,378776.5,NA,null,<p></p>,null,choice,dtc,trinary,repulsion_A,1,televisions,null,null,null,null,null,null,1,NA,NA,NA,NA,NA,NA,NA,NA,NA,NA
NA,NA,NA,NA,NA,choice_trial,survey-html-form,7,61741,0.0-4.0-1.1,133,1,2025-05-02T03:45:15Z,b60275e29fe2361ab97ac0ac217840d7,"Mozilla/5.0 (Macintosh; Intel Mac OS X 10_15_7) AppleWebKit/537.36 (KHTML, like Gecko) Chrome/135.0.0.0 Safari/537.36",Macintosh,Chrome,135.0.0.0,OS X,10_15_7,https://5puzkbbxv1.cognition.run/?sona_id=51650,"en-US,en;q=0.9",wwu5jpgt9nfhwfz,21,"[""White""]",No,Female,"Aleppo, Syria and for 5 years",Yes,378776.5,NA,7055,NA,"{""product_choice"":""C""}",choice,dtc,trinary,repulsion_A,1,televisions,null,null,null,null,null,null,1,100,90,100,30,40,20,Screen size,Average lifespan,NA,NA
NA,NA,NA,NA,NA,choice_trial_setup,html-keyboard-response,8,62045,0.0-4.0-0.2,133,1,2025-05-02T03:45:15Z,b60275e29fe2361ab97ac0ac217840d7,"Mozilla/5.0 (Macintosh; Intel Mac OS X 10_15_7) AppleWebKit/537.36 (KHTML, like Gecko) Chrome/135.0.0.0 Safari/537.36",Macintosh,Chrome,135.0.0.0,OS X,10_15_7,https://5puzkbbxv1.cognition.run/?sona_id=51650,"en-US,en;q=0.9",wwu5jpgt9nfhwfz,21,"[""White""]",No,Female,"Aleppo, Syria and for 5 years",Yes,378776.5,NA,null,<p></p>,null,choice,wbw,trinary,catch,null,washing machines,95,70,35,50,45,50,2,NA,NA,NA,NA,NA,NA,NA,NA,NA,NA
NA,NA,NA,NA,NA,choice_trial,survey-html-form,9,67874,0.0-4.0-1.2,133,1,2025-05-02T03:45:15Z,b60275e29fe2361ab97ac0ac217840d7,"Mozilla/5.0 (Macintosh; Intel Mac OS X 10_15_7) AppleWebKit/537.36 (KHTML, like Gecko) Chrome/135.0.0.0 Safari/537.36",Macintosh,Chrome,135.0.0.0,OS X,10_15_7,https://5puzkbbxv1.cognition.run/?sona_id=51650,"en-US,en;q=0.9",wwu5jpgt9nfhwfz,21,"[""White""]",No,Female,"Aleppo, Syria and for 5 years",Yes,378776.5,NA,5825,NA,"{""product_choice"":""B""}",choice,wbw,trinary,catch,null,washing machines,95,70,35,50,45,50,2,null,null,null,null,null,null,Average lifespan,Energy savings,NA,NA
NA,NA,NA,NA,NA,choice_trial_setup,html-keyboard-response,10,68178,0.0-4.0-0.3,133,1,2025-05-02T03:45:15Z,b60275e29fe2361ab97ac0ac217840d7,"Mozilla/5.0 (Macintosh; Intel Mac OS X 10_15_7) AppleWebKit/537.36 (KHTML, like Gecko) Chrome/135.0.0.0 Safari/537.36",Macintosh,Chrome,135.0.0.0,OS X,10_15_7,https://5puzkbbxv1.cognition.run/?sona_id=51650,"en-US,en;q=0.9",wwu5jpgt9nfhwfz,21,"[""White""]",No,Female,"Aleppo, Syria and for 5 years",Yes,378776.5,NA,null,<p></p>,null,choice,ct,binary,repulsion,2,washing machines,null,null,null,null,null,null,1,NA,NA,NA,NA,NA,NA,NA,NA,NA,NA
NA,NA,NA,NA,NA,choice_trial,survey-html-form,11,76091,0.0-4.0-1.3,133,1,2025-05-02T03:45:15Z,b60275e29fe2361ab97ac0ac217840d7,"Mozilla/5.0 (Macintosh; Intel Mac OS X 10_15_7) AppleWebKit/537.36 (KHTML, like Gecko) Chrome/135.0.0.0 Safari/537.36",Macintosh,Chrome,135.0.0.0,OS X,10_15_7,https://5puzkbbxv1.cognition.run/?sona_id=51650,"en-US,en;q=0.9",wwu5jpgt9nfhwfz,21,"[""White""]",No,Female,"Aleppo, Syria and for 5 years",Yes,378776.5,NA,7910,NA,"{""product_choice"":""A""}",choice,ct,binary,repulsion,2,washing machines,null,null,null,null,null,null,1,30,40,null,100,90,null,Average lifespan,Energy savings,NA,NA
NA,NA,NA,NA,NA,choice_trial_setup,html-keyboard-response,12,76394,0.0-4.0-0.4,133,1,2025-05-02T03:45:15Z,b60275e29fe2361ab97ac0ac217840d7,"Mozilla/5.0 (Macintosh; Intel Mac OS X 10_15_7) AppleWebKit/537.36 (KHTML, like Gecko) Chrome/135.0.0.0 Safari/537.36",Macintosh,Chrome,135.0.0.0,OS X,10_15_7,https://5puzkbbxv1.cognition.run/?sona_id=51650,"en-US,en;q=0.9",wwu5jpgt9nfhwfz,21,"[""White""]",No,Female,"Aleppo, Syria and for 5 years",Yes,378776.5,NA,null,<p></p>,null,choice,tdc,trinary,repulsion_B,1,laptops,null,null,null,null,null,null,1,NA,NA,NA,NA,NA,NA,NA,NA,NA,NA
NA,NA,NA,NA,NA,choice_trial,survey-html-form,13,86723,0.0-4.0-1.4,133,1,2025-05-02T03:45:15Z,b60275e29fe2361ab97ac0ac217840d7,"Mozilla/5.0 (Macintosh; Intel Mac OS X 10_15_7) AppleWebKit/537.36 (KHTML, like Gecko) Chrome/135.0.0.0 Safari/537.36",Macintosh,Chrome,135.0.0.0,OS X,10_15_7,https://5puzkbbxv1.cognition.run/?sona_id=51650,"en-US,en;q=0.9",wwu5jpgt9nfhwfz,21,"[""White""]",No,Female,"Aleppo, Syria and for 5 years",Yes,378776.5,NA,10326,NA,"{""product_choice"":""A""}",choice,tdc,trinary,repulsion_B,1,laptops,null,null,null,null,null,null,1,90,100,80,40,30,40,Processing speed,Memory (RAM),NA,NA
NA,NA,NA,NA,NA,choice_trial_setup,html-keyboard-response,14,87027,0.0-4.0-0.5,133,1,2025-05-02T03:45:15Z,b60275e29fe2361ab97ac0ac217840d7,"Mozilla/5.0 (Macintosh; Intel Mac OS X 10_15_7) AppleWebKit/537.36 (KHTML, like Gecko) Chrome/135.0.0.0 Safari/537.36",Macintosh,Chrome,135.0.0.0,OS X,10_15_7,https://5puzkbbxv1.cognition.run/?sona_id=51650,"en-US,en;q=0.9",wwu5jpgt9nfhwfz,21,"[""White""]",No,Female,"Aleppo, Syria and for 5 years",Yes,378776.5,NA,null,<p></p>,null,choice,wb,binary,catch,null,laptops,50,85,45,15,null,null,2,NA,NA,NA,NA,NA,NA,NA,NA,NA,NA
NA,NA,NA,NA,NA,choice_trial,survey-html-form,15,90507,0.0-4.0-1.5,133,1,2025-05-02T03:45:15Z,b60275e29fe2361ab97ac0ac217840d7,"Mozilla/5.0 (Macintosh; Intel Mac OS X 10_15_7) AppleWebKit/537.36 (KHTML, like Gecko) Chrome/135.0.0.0 Safari/537.36",Macintosh,Chrome,135.0.0.0,OS X,10_15_7,https://5puzkbbxv1.cognition.run/?sona_id=51650,"en-US,en;q=0.9",wwu5jpgt9nfhwfz,21,"[""White""]",No,Female,"Aleppo, Syria and for 5 years",Yes,378776.5,NA,3477,NA,"{""product_choice"":""B""}",choice,wb,binary,catch,null,laptops,50,85,45,15,null,null,2,null,null,null,null,null,null,Processing speed,Memory (RAM),NA,NA
NA,NA,NA,NA,NA,choice_trial_setup,html-keyboard-response,16,90810,0.0-4.0-0.6,133,1,2025-05-02T03:45:15Z,b60275e29fe2361ab97ac0ac217840d7,"Mozilla/5.0 (Macintosh; Intel Mac OS X 10_15_7) AppleWebKit/537.36 (KHTML, like Gecko) Chrome/135.0.0.0 Safari/537.36",Macintosh,Chrome,135.0.0.0,OS X,10_15_7,https://5puzkbbxv1.cognition.run/?sona_id=51650,"en-US,en;q=0.9",wwu5jpgt9nfhwfz,21,"[""White""]",No,Female,"Aleppo, Syria and for 5 years",Yes,378776.5,NA,null,<p></p>,null,choice,ct,binary,attraction,NA,televisions,null,null,null,null,null,null,2,NA,NA,NA,NA,NA,NA,NA,NA,NA,NA
NA,NA,NA,NA,NA,choice_trial,survey-html-form,17,97090,0.0-4.0-1.6,133,1,2025-05-02T03:45:15Z,b60275e29fe2361ab97ac0ac217840d7,"Mozilla/5.0 (Macintosh; Intel Mac OS X 10_15_7) AppleWebKit/537.36 (KHTML, like Gecko) Chrome/135.0.0.0 Safari/537.36",Macintosh,Chrome,135.0.0.0,OS X,10_15_7,https://5puzkbbxv1.cognition.run/?sona_id=51650,"en-US,en;q=0.9",wwu5jpgt9nfhwfz,21,"[""White""]",No,Female,"Aleppo, Syria and for 5 years",Yes,378776.5,NA,6276,NA,"{""product_choice"":""A""}",choice,ct,binary,attraction,NA,televisions,null,null,null,null,null,null,2,60,50,null,50,60,null,Screen size,Average lifespan,NA,NA
NA,NA,NA,NA,NA,choice_trial_setup,html-keyboard-response,18,97393,0.0-4.0-0.7,133,1,2025-05-02T03:45:15Z,b60275e29fe2361ab97ac0ac217840d7,"Mozilla/5.0 (Macintosh; Intel Mac OS X 10_15_7) AppleWebKit/537.36 (KHTML, like Gecko) Chrome/135.0.0.0 Safari/537.36",Macintosh,Chrome,135.0.0.0,OS X,10_15_7,https://5puzkbbxv1.cognition.run/?sona_id=51650,"en-US,en;q=0.9",wwu5jpgt9nfhwfz,21,"[""White""]",No,Female,"Aleppo, Syria and for 5 years",Yes,378776.5,NA,null,<p></p>,null,choice,tcd,trinary,attraction,1,laptops,null,null,null,null,null,null,2,NA,NA,NA,NA,NA,NA,NA,NA,NA,NA
NA,NA,NA,NA,NA,choice_trial,survey-html-form,19,100124,0.0-4.0-1.7,133,1,2025-05-02T03:45:15Z,b60275e29fe2361ab97ac0ac217840d7,"Mozilla/5.0 (Macintosh; Intel Mac OS X 10_15_7) AppleWebKit/537.36 (KHTML, like Gecko) Chrome/135.0.0.0 Safari/537.36",Macintosh,Chrome,135.0.0.0,OS X,10_15_7,https://5puzkbbxv1.cognition.run/?sona_id=51650,"en-US,en;q=0.9",wwu5jpgt9nfhwfz,21,"[""White""]",No,Female,"Aleppo, Syria and for 5 years",Yes,378776.5,NA,2726,NA,"{""product_choice"":""B""}",choice,tcd,trinary,attraction,1,laptops,null,null,null,null,null,null,2,60,50,60,50,60,40,Processing speed,Memory (RAM),NA,NA
NA,NA,NA,NA,NA,choice_trial_setup,html-keyboard-response,20,100428,0.0-4.0-0.8,133,1,2025-05-02T03:45:15Z,b60275e29fe2361ab97ac0ac217840d7,"Mozilla/5.0 (Macintosh; Intel Mac OS X 10_15_7) AppleWebKit/537.36 (KHTML, like Gecko) Chrome/135.0.0.0 Safari/537.36",Macintosh,Chrome,135.0.0.0,OS X,10_15_7,https://5puzkbbxv1.cognition.run/?sona_id=51650,"en-US,en;q=0.9",wwu5jpgt9nfhwfz,21,"[""White""]",No,Female,"Aleppo, Syria and for 5 years",Yes,378776.5,NA,null,<p></p>,null,choice,dtc,trinary,repulsion_B,2,microwave ovens,null,null,null,null,null,null,2,NA,NA,NA,NA,NA,NA,NA,NA,NA,NA
NA,NA,NA,NA,NA,choice_trial,survey-html-form,21,107741,0.0-4.0-1.8,133,1,2025-05-02T03:45:15Z,b60275e29fe2361ab97ac0ac217840d7,"Mozilla/5.0 (Macintosh; Intel Mac OS X 10_15_7) AppleWebKit/537.36 (KHTML, like Gecko) Chrome/135.0.0.0 Safari/537.36",Macintosh,Chrome,135.0.0.0,OS X,10_15_7,https://5puzkbbxv1.cognition.run/?sona_id=51650,"en-US,en;q=0.9",wwu5jpgt9nfhwfz,21,"[""White""]",No,Female,"Aleppo, Syria and for 5 years",Yes,378776.5,NA,7309,NA,"{""product_choice"":""C""}",choice,dtc,trinary,repulsion_B,2,microwave ovens,null,null,null,null,null,null,2,40,30,40,90,100,80,Warranty,Cooking power,NA,NA
NA,NA,NA,NA,NA,choice_trial_setup,html-keyboard-response,22,108045,0.0-4.0-0.9,133,1,2025-05-02T03:45:15Z,b60275e29fe2361ab97ac0ac217840d7,"Mozilla/5.0 (Macintosh; Intel Mac OS X 10_15_7) AppleWebKit/537.36 (KHTML, like Gecko) Chrome/135.0.0.0 Safari/537.36",Macintosh,Chrome,135.0.0.0,OS X,10_15_7,https://5puzkbbxv1.cognition.run/?sona_id=51650,"en-US,en;q=0.9",wwu5jpgt9nfhwfz,21,"[""White""]",No,Female,"Aleppo, Syria and for 5 years",Yes,378776.5,NA,null,<p></p>,null,choice,ct,binary,attraction,NA,laptops,null,null,null,null,null,null,1,NA,NA,NA,NA,NA,NA,NA,NA,NA,NA
NA,NA,NA,NA,NA,choice_trial,survey-html-form,23,111807,0.0-4.0-1.9,133,1,2025-05-02T03:45:15Z,b60275e29fe2361ab97ac0ac217840d7,"Mozilla/5.0 (Macintosh; Intel Mac OS X 10_15_7) AppleWebKit/537.36 (KHTML, like Gecko) Chrome/135.0.0.0 Safari/537.36",Macintosh,Chrome,135.0.0.0,OS X,10_15_7,https://5puzkbbxv1.cognition.run/?sona_id=51650,"en-US,en;q=0.9",wwu5jpgt9nfhwfz,21,"[""White""]",No,Female,"Aleppo, Syria and for 5 years",Yes,378776.5,NA,3757,NA,"{""product_choice"":""A""}",choice,ct,binary,attraction,NA,laptops,null,null,null,null,null,null,1,60,50,null,50,60,null,Processing speed,Memory (RAM),NA,NA
NA,NA,NA,NA,NA,choice_trial_setup,html-keyboard-response,24,112110,0.0-4.0-0.10,133,1,2025-05-02T03:45:15Z,b60275e29fe2361ab97ac0ac217840d7,"Mozilla/5.0 (Macintosh; Intel Mac OS X 10_15_7) AppleWebKit/537.36 (KHTML, like Gecko) Chrome/135.0.0.0 Safari/537.36",Macintosh,Chrome,135.0.0.0,OS X,10_15_7,https://5puzkbbxv1.cognition.run/?sona_id=51650,"en-US,en;q=0.9",wwu5jpgt9nfhwfz,21,"[""White""]",No,Female,"Aleppo, Syria and for 5 years",Yes,378776.5,NA,null,<p></p>,null,choice,cdt,trinary,attraction,2,washing machines,null,null,null,null,null,null,1,NA,NA,NA,NA,NA,NA,NA,NA,NA,NA
NA,NA,NA,NA,NA,choice_trial,survey-html-form,25,114924,0.0-4.0-1.10,133,1,2025-05-02T03:45:15Z,b60275e29fe2361ab97ac0ac217840d7,"Mozilla/5.0 (Macintosh; Intel Mac OS X 10_15_7) AppleWebKit/537.36 (KHTML, like Gecko) Chrome/135.0.0.0 Safari/537.36",Macintosh,Chrome,135.0.0.0,OS X,10_15_7,https://5puzkbbxv1.cognition.run/?sona_id=51650,"en-US,en;q=0.9",wwu5jpgt9nfhwfz,21,"[""White""]",No,Female,"Aleppo, Syria and for 5 years",Yes,378776.5,NA,2810,NA,"{""product_choice"":""A""}",choice,cdt,trinary,attraction,2,washing machines,null,null,null,null,null,null,1,50,60,40,60,50,60,Average lifespan,Energy savings,NA,NA
NA,NA,NA,NA,NA,choice_trial_setup,html-keyboard-response,26,115227,0.0-4.0-0.11,133,1,2025-05-02T03:45:15Z,b60275e29fe2361ab97ac0ac217840d7,"Mozilla/5.0 (Macintosh; Intel Mac OS X 10_15_7) AppleWebKit/537.36 (KHTML, like Gecko) Chrome/135.0.0.0 Safari/537.36",Macintosh,Chrome,135.0.0.0,OS X,10_15_7,https://5puzkbbxv1.cognition.run/?sona_id=51650,"en-US,en;q=0.9",wwu5jpgt9nfhwfz,21,"[""White""]",No,Female,"Aleppo, Syria and for 5 years",Yes,378776.5,NA,null,<p></p>,null,choice,ctd,trinary,repulsion_A,2,washing machines,null,null,null,null,null,null,1,NA,NA,NA,NA,NA,NA,NA,NA,NA,NA
NA,NA,NA,NA,NA,choice_trial,survey-html-form,27,121623,0.0-4.0-1.11,133,1,2025-05-02T03:45:15Z,b60275e29fe2361ab97ac0ac217840d7,"Mozilla/5.0 (Macintosh; Intel Mac OS X 10_15_7) AppleWebKit/537.36 (KHTML, like Gecko) Chrome/135.0.0.0 Safari/537.36",Macintosh,Chrome,135.0.0.0,OS X,10_15_7,https://5puzkbbxv1.cognition.run/?sona_id=51650,"en-US,en;q=0.9",wwu5jpgt9nfhwfz,21,"[""White""]",No,Female,"Aleppo, Syria and for 5 years",Yes,378776.5,NA,6392,NA,"{""product_choice"":""B""}",choice,ctd,trinary,repulsion_A,2,washing machines,null,null,null,null,null,null,1,30,40,20,100,90,100,Average lifespan,Energy savings,NA,NA
NA,NA,NA,NA,NA,choice_trial_setup,html-keyboard-response,28,121927,0.0-4.0-0.12,133,1,2025-05-02T03:45:15Z,b60275e29fe2361ab97ac0ac217840d7,"Mozilla/5.0 (Macintosh; Intel Mac OS X 10_15_7) AppleWebKit/537.36 (KHTML, like Gecko) Chrome/135.0.0.0 Safari/537.36",Macintosh,Chrome,135.0.0.0,OS X,10_15_7,https://5puzkbbxv1.cognition.run/?sona_id=51650,"en-US,en;q=0.9",wwu5jpgt9nfhwfz,21,"[""White""]",No,Female,"Aleppo, Syria and for 5 years",Yes,378776.5,NA,null,<p></p>,null,choice,tc,binary,repulsion,1,televisions,null,null,null,null,null,null,1,NA,NA,NA,NA,NA,NA,NA,NA,NA,NA
NA,NA,NA,NA,NA,choice_trial,survey-html-form,29,129457,0.0-4.0-1.12,133,1,2025-05-02T03:45:15Z,b60275e29fe2361ab97ac0ac217840d7,"Mozilla/5.0 (Macintosh; Intel Mac OS X 10_15_7) AppleWebKit/537.36 (KHTML, like Gecko) Chrome/135.0.0.0 Safari/537.36",Macintosh,Chrome,135.0.0.0,OS X,10_15_7,https://5puzkbbxv1.cognition.run/?sona_id=51650,"en-US,en;q=0.9",wwu5jpgt9nfhwfz,21,"[""White""]",No,Female,"Aleppo, Syria and for 5 years",Yes,378776.5,NA,7526,NA,"{""product_choice"":""A""}",choice,tc,binary,repulsion,1,televisions,null,null,null,null,null,null,1,100,90,null,30,40,null,Screen size,Average lifespan,NA,NA
NA,NA,NA,NA,NA,choice_trial_setup,html-keyboard-response,30,129761,0.0-4.0-0.13,133,1,2025-05-02T03:45:15Z,b60275e29fe2361ab97ac0ac217840d7,"Mozilla/5.0 (Macintosh; Intel Mac OS X 10_15_7) AppleWebKit/537.36 (KHTML, like Gecko) Chrome/135.0.0.0 Safari/537.36",Macintosh,Chrome,135.0.0.0,OS X,10_15_7,https://5puzkbbxv1.cognition.run/?sona_id=51650,"en-US,en;q=0.9",wwu5jpgt9nfhwfz,21,"[""White""]",No,Female,"Aleppo, Syria and for 5 years",Yes,378776.5,NA,null,<p></p>,null,choice,tc,binary,repulsion,1,washing machines,null,null,null,null,null,null,2,NA,NA,NA,NA,NA,NA,NA,NA,NA,NA
NA,NA,NA,NA,NA,choice_trial,survey-html-form,31,133591,0.0-4.0-1.13,133,1,2025-05-02T03:45:15Z,b60275e29fe2361ab97ac0ac217840d7,"Mozilla/5.0 (Macintosh; Intel Mac OS X 10_15_7) AppleWebKit/537.36 (KHTML, like Gecko) Chrome/135.0.0.0 Safari/537.36",Macintosh,Chrome,135.0.0.0,OS X,10_15_7,https://5puzkbbxv1.cognition.run/?sona_id=51650,"en-US,en;q=0.9",wwu5jpgt9nfhwfz,21,"[""White""]",No,Female,"Aleppo, Syria and for 5 years",Yes,378776.5,NA,3825,NA,"{""product_choice"":""B""}",choice,tc,binary,repulsion,1,washing machines,null,null,null,null,null,null,2,100,90,null,30,40,null,Average lifespan,Energy savings,NA,NA
NA,NA,NA,NA,NA,choice_trial_setup,html-keyboard-response,32,133895,0.0-4.0-0.14,133,1,2025-05-02T03:45:15Z,b60275e29fe2361ab97ac0ac217840d7,"Mozilla/5.0 (Macintosh; Intel Mac OS X 10_15_7) AppleWebKit/537.36 (KHTML, like Gecko) Chrome/135.0.0.0 Safari/537.36",Macintosh,Chrome,135.0.0.0,OS X,10_15_7,https://5puzkbbxv1.cognition.run/?sona_id=51650,"en-US,en;q=0.9",wwu5jpgt9nfhwfz,21,"[""White""]",No,Female,"Aleppo, Syria and for 5 years",Yes,378776.5,NA,null,<p></p>,null,choice,tdc,trinary,attraction,2,laptops,null,null,null,null,null,null,2,NA,NA,NA,NA,NA,NA,NA,NA,NA,NA
NA,NA,NA,NA,NA,choice_trial,survey-html-form,33,136373,0.0-4.0-1.14,133,1,2025-05-02T03:45:15Z,b60275e29fe2361ab97ac0ac217840d7,"Mozilla/5.0 (Macintosh; Intel Mac OS X 10_15_7) AppleWebKit/537.36 (KHTML, like Gecko) Chrome/135.0.0.0 Safari/537.36",Macintosh,Chrome,135.0.0.0,OS X,10_15_7,https://5puzkbbxv1.cognition.run/?sona_id=51650,"en-US,en;q=0.9",wwu5jpgt9nfhwfz,21,"[""White""]",No,Female,"Aleppo, Syria and for 5 years",Yes,378776.5,NA,2476,NA,"{""product_choice"":""A""}",choice,tdc,trinary,attraction,2,laptops,null,null,null,null,null,null,2,50,60,40,60,50,60,Processing speed,Memory (RAM),NA,NA
NA,NA,NA,NA,NA,choice_trial_setup,html-keyboard-response,34,136677,0.0-4.0-0.15,133,1,2025-05-02T03:45:15Z,b60275e29fe2361ab97ac0ac217840d7,"Mozilla/5.0 (Macintosh; Intel Mac OS X 10_15_7) AppleWebKit/537.36 (KHTML, like Gecko) Chrome/135.0.0.0 Safari/537.36",Macintosh,Chrome,135.0.0.0,OS X,10_15_7,https://5puzkbbxv1.cognition.run/?sona_id=51650,"en-US,en;q=0.9",wwu5jpgt9nfhwfz,21,"[""White""]",No,Female,"Aleppo, Syria and for 5 years",Yes,378776.5,NA,null,<p></p>,null,choice,tc,binary,repulsion,1,microwave ovens,null,null,null,null,null,null,1,NA,NA,NA,NA,NA,NA,NA,NA,NA,NA
NA,NA,NA,NA,NA,choice_trial,survey-html-form,35,140525,0.0-4.0-1.15,133,1,2025-05-02T03:45:15Z,b60275e29fe2361ab97ac0ac217840d7,"Mozilla/5.0 (Macintosh; Intel Mac OS X 10_15_7) AppleWebKit/537.36 (KHTML, like Gecko) Chrome/135.0.0.0 Safari/537.36",Macintosh,Chrome,135.0.0.0,OS X,10_15_7,https://5puzkbbxv1.cognition.run/?sona_id=51650,"en-US,en;q=0.9",wwu5jpgt9nfhwfz,21,"[""White""]",No,Female,"Aleppo, Syria and for 5 years",Yes,378776.5,NA,3843,NA,"{""product_choice"":""B""}",choice,tc,binary,repulsion,1,microwave ovens,null,null,null,null,null,null,1,100,90,null,30,40,null,Warranty,Cooking power,NA,NA
NA,NA,NA,NA,NA,choice_trial_setup,html-keyboard-response,36,140829,0.0-4.0-0.16,133,1,2025-05-02T03:45:15Z,b60275e29fe2361ab97ac0ac217840d7,"Mozilla/5.0 (Macintosh; Intel Mac OS X 10_15_7) AppleWebKit/537.36 (KHTML, like Gecko) Chrome/135.0.0.0 Safari/537.36",Macintosh,Chrome,135.0.0.0,OS X,10_15_7,https://5puzkbbxv1.cognition.run/?sona_id=51650,"en-US,en;q=0.9",wwu5jpgt9nfhwfz,21,"[""White""]",No,Female,"Aleppo, Syria and for 5 years",Yes,378776.5,NA,null,<p></p>,null,choice,ctd,trinary,repulsion_B,1,washing machines,null,null,null,null,null,null,2,NA,NA,NA,NA,NA,NA,NA,NA,NA,NA
NA,NA,NA,NA,NA,choice_trial,survey-html-form,37,143310,0.0-4.0-1.16,133,1,2025-05-02T03:45:15Z,b60275e29fe2361ab97ac0ac217840d7,"Mozilla/5.0 (Macintosh; Intel Mac OS X 10_15_7) AppleWebKit/537.36 (KHTML, like Gecko) Chrome/135.0.0.0 Safari/537.36",Macintosh,Chrome,135.0.0.0,OS X,10_15_7,https://5puzkbbxv1.cognition.run/?sona_id=51650,"en-US,en;q=0.9",wwu5jpgt9nfhwfz,21,"[""White""]",No,Female,"Aleppo, Syria and for 5 years",Yes,378776.5,NA,2476,NA,"{""product_choice"":""B""}",choice,ctd,trinary,repulsion_B,1,washing machines,null,null,null,null,null,null,2,90,100,80,40,30,40,Average lifespan,Energy savings,NA,NA
NA,NA,NA,NA,NA,choice_trial_setup,html-keyboard-response,38,143616,0.0-4.0-0.17,133,1,2025-05-02T03:45:15Z,b60275e29fe2361ab97ac0ac217840d7,"Mozilla/5.0 (Macintosh; Intel Mac OS X 10_15_7) AppleWebKit/537.36 (KHTML, like Gecko) Chrome/135.0.0.0 Safari/537.36",Macintosh,Chrome,135.0.0.0,OS X,10_15_7,https://5puzkbbxv1.cognition.run/?sona_id=51650,"en-US,en;q=0.9",wwu5jpgt9nfhwfz,21,"[""White""]",No,Female,"Aleppo, Syria and for 5 years",Yes,378776.5,NA,null,<p></p>,null,choice,tcd,trinary,attraction,1,televisions,null,null,null,null,null,null,1,NA,NA,NA,NA,NA,NA,NA,NA,NA,NA
NA,NA,NA,NA,NA,choice_trial,survey-html-form,39,146710,0.0-4.0-1.17,133,1,2025-05-02T03:45:15Z,b60275e29fe2361ab97ac0ac217840d7,"Mozilla/5.0 (Macintosh; Intel Mac OS X 10_15_7) AppleWebKit/537.36 (KHTML, like Gecko) Chrome/135.0.0.0 Safari/537.36",Macintosh,Chrome,135.0.0.0,OS X,10_15_7,https://5puzkbbxv1.cognition.run/?sona_id=51650,"en-US,en;q=0.9",wwu5jpgt9nfhwfz,21,"[""White""]",No,Female,"Aleppo, Syria and for 5 years",Yes,378776.5,NA,3090,NA,"{""product_choice"":""B""}",choice,tcd,trinary,attraction,1,televisions,null,null,null,null,null,null,1,60,50,60,50,60,40,Screen size,Average lifespan,NA,NA
NA,NA,NA,NA,NA,choice_trial_setup,html-keyboard-response,40,147015,0.0-4.0-0.18,133,1,2025-05-02T03:45:15Z,b60275e29fe2361ab97ac0ac217840d7,"Mozilla/5.0 (Macintosh; Intel Mac OS X 10_15_7) AppleWebKit/537.36 (KHTML, like Gecko) Chrome/135.0.0.0 Safari/537.36",Macintosh,Chrome,135.0.0.0,OS X,10_15_7,https://5puzkbbxv1.cognition.run/?sona_id=51650,"en-US,en;q=0.9",wwu5jpgt9nfhwfz,21,"[""White""]",No,Female,"Aleppo, Syria and for 5 years",Yes,378776.5,NA,null,<p></p>,null,choice,dct,trinary,repulsion_A,1,microwave ovens,null,null,null,null,null,null,1,NA,NA,NA,NA,NA,NA,NA,NA,NA,NA
NA,NA,NA,NA,NA,choice_trial,survey-html-form,41,152310,0.0-4.0-1.18,133,1,2025-05-02T03:45:15Z,b60275e29fe2361ab97ac0ac217840d7,"Mozilla/5.0 (Macintosh; Intel Mac OS X 10_15_7) AppleWebKit/537.36 (KHTML, like Gecko) Chrome/135.0.0.0 Safari/537.36",Macintosh,Chrome,135.0.0.0,OS X,10_15_7,https://5puzkbbxv1.cognition.run/?sona_id=51650,"en-US,en;q=0.9",wwu5jpgt9nfhwfz,21,"[""White""]",No,Female,"Aleppo, Syria and for 5 years",Yes,378776.5,NA,5290,NA,"{""product_choice"":""B""}",choice,dct,trinary,repulsion_A,1,microwave ovens,null,null,null,null,null,null,1,100,90,100,30,40,20,Warranty,Cooking power,NA,NA
NA,NA,NA,NA,NA,choice_trial_setup,html-keyboard-response,42,152614,0.0-4.0-0.19,133,1,2025-05-02T03:45:15Z,b60275e29fe2361ab97ac0ac217840d7,"Mozilla/5.0 (Macintosh; Intel Mac OS X 10_15_7) AppleWebKit/537.36 (KHTML, like Gecko) Chrome/135.0.0.0 Safari/537.36",Macintosh,Chrome,135.0.0.0,OS X,10_15_7,https://5puzkbbxv1.cognition.run/?sona_id=51650,"en-US,en;q=0.9",wwu5jpgt9nfhwfz,21,"[""White""]",No,Female,"Aleppo, Syria and for 5 years",Yes,378776.5,NA,null,<p></p>,null,choice,tcd,trinary,attraction,1,washing machines,null,null,null,null,null,null,2,NA,NA,NA,NA,NA,NA,NA,NA,NA,NA
NA,NA,NA,NA,NA,choice_trial,survey-html-form,43,156294,0.0-4.0-1.19,133,1,2025-05-02T03:45:15Z,b60275e29fe2361ab97ac0ac217840d7,"Mozilla/5.0 (Macintosh; Intel Mac OS X 10_15_7) AppleWebKit/537.36 (KHTML, like Gecko) Chrome/135.0.0.0 Safari/537.36",Macintosh,Chrome,135.0.0.0,OS X,10_15_7,https://5puzkbbxv1.cognition.run/?sona_id=51650,"en-US,en;q=0.9",wwu5jpgt9nfhwfz,21,"[""White""]",No,Female,"Aleppo, Syria and for 5 years",Yes,378776.5,NA,3675,NA,"{""product_choice"":""B""}",choice,tcd,trinary,attraction,1,washing machines,null,null,null,null,null,null,2,60,50,60,50,60,40,Average lifespan,Energy savings,NA,NA
NA,NA,NA,NA,NA,choice_trial_setup,html-keyboard-response,44,156599,0.0-4.0-0.20,133,1,2025-05-02T03:45:15Z,b60275e29fe2361ab97ac0ac217840d7,"Mozilla/5.0 (Macintosh; Intel Mac OS X 10_15_7) AppleWebKit/537.36 (KHTML, like Gecko) Chrome/135.0.0.0 Safari/537.36",Macintosh,Chrome,135.0.0.0,OS X,10_15_7,https://5puzkbbxv1.cognition.run/?sona_id=51650,"en-US,en;q=0.9",wwu5jpgt9nfhwfz,21,"[""White""]",No,Female,"Aleppo, Syria and for 5 years",Yes,378776.5,NA,null,<p></p>,null,choice,dct,trinary,repulsion_A,2,laptops,null,null,null,null,null,null,2,NA,NA,NA,NA,NA,NA,NA,NA,NA,NA
NA,NA,NA,NA,NA,choice_trial,survey-html-form,45,160679,0.0-4.0-1.20,133,1,2025-05-02T03:45:15Z,b60275e29fe2361ab97ac0ac217840d7,"Mozilla/5.0 (Macintosh; Intel Mac OS X 10_15_7) AppleWebKit/537.36 (KHTML, like Gecko) Chrome/135.0.0.0 Safari/537.36",Macintosh,Chrome,135.0.0.0,OS X,10_15_7,https://5puzkbbxv1.cognition.run/?sona_id=51650,"en-US,en;q=0.9",wwu5jpgt9nfhwfz,21,"[""White""]",No,Female,"Aleppo, Syria and for 5 years",Yes,378776.5,NA,4074,NA,"{""product_choice"":""B""}",choice,dct,trinary,repulsion_A,2,laptops,null,null,null,null,null,null,2,30,40,20,100,90,100,Processing speed,Memory (RAM),NA,NA
NA,NA,NA,NA,NA,choice_trial_setup,html-keyboard-response,46,160982,0.0-4.0-0.21,133,1,2025-05-02T03:45:15Z,b60275e29fe2361ab97ac0ac217840d7,"Mozilla/5.0 (Macintosh; Intel Mac OS X 10_15_7) AppleWebKit/537.36 (KHTML, like Gecko) Chrome/135.0.0.0 Safari/537.36",Macintosh,Chrome,135.0.0.0,OS X,10_15_7,https://5puzkbbxv1.cognition.run/?sona_id=51650,"en-US,en;q=0.9",wwu5jpgt9nfhwfz,21,"[""White""]",No,Female,"Aleppo, Syria and for 5 years",Yes,378776.5,NA,null,<p></p>,null,choice,tc,binary,repulsion,2,televisions,null,null,null,null,null,null,1,NA,NA,NA,NA,NA,NA,NA,NA,NA,NA
NA,NA,NA,NA,NA,choice_trial,survey-html-form,47,163079,0.0-4.0-1.21,133,1,2025-05-02T03:45:15Z,b60275e29fe2361ab97ac0ac217840d7,"Mozilla/5.0 (Macintosh; Intel Mac OS X 10_15_7) AppleWebKit/537.36 (KHTML, like Gecko) Chrome/135.0.0.0 Safari/537.36",Macintosh,Chrome,135.0.0.0,OS X,10_15_7,https://5puzkbbxv1.cognition.run/?sona_id=51650,"en-US,en;q=0.9",wwu5jpgt9nfhwfz,21,"[""White""]",No,Female,"Aleppo, Syria and for 5 years",Yes,378776.5,NA,2092,NA,"{""product_choice"":""A""}",choice,tc,binary,repulsion,2,televisions,null,null,null,null,null,null,1,30,40,null,100,90,null,Screen size,Average lifespan,NA,NA
NA,NA,NA,NA,NA,choice_trial_setup,html-keyboard-response,48,163382,0.0-4.0-0.22,133,1,2025-05-02T03:45:15Z,b60275e29fe2361ab97ac0ac217840d7,"Mozilla/5.0 (Macintosh; Intel Mac OS X 10_15_7) AppleWebKit/537.36 (KHTML, like Gecko) Chrome/135.0.0.0 Safari/537.36",Macintosh,Chrome,135.0.0.0,OS X,10_15_7,https://5puzkbbxv1.cognition.run/?sona_id=51650,"en-US,en;q=0.9",wwu5jpgt9nfhwfz,21,"[""White""]",No,Female,"Aleppo, Syria and for 5 years",Yes,378776.5,NA,null,<p></p>,null,choice,tc,binary,attraction,NA,microwave ovens,null,null,null,null,null,null,1,NA,NA,NA,NA,NA,NA,NA,NA,NA,NA
NA,NA,NA,NA,NA,choice_trial,survey-html-form,49,165594,0.0-4.0-1.22,133,1,2025-05-02T03:45:15Z,b60275e29fe2361ab97ac0ac217840d7,"Mozilla/5.0 (Macintosh; Intel Mac OS X 10_15_7) AppleWebKit/537.36 (KHTML, like Gecko) Chrome/135.0.0.0 Safari/537.36",Macintosh,Chrome,135.0.0.0,OS X,10_15_7,https://5puzkbbxv1.cognition.run/?sona_id=51650,"en-US,en;q=0.9",wwu5jpgt9nfhwfz,21,"[""White""]",No,Female,"Aleppo, Syria and for 5 years",Yes,378776.5,NA,2207,NA,"{""product_choice"":""A""}",choice,tc,binary,attraction,NA,microwave ovens,null,null,null,null,null,null,1,60,50,null,50,60,null,Warranty,Cooking power,NA,NA
NA,NA,NA,NA,NA,choice_trial_setup,html-keyboard-response,50,165897,0.0-4.0-0.23,133,1,2025-05-02T03:45:15Z,b60275e29fe2361ab97ac0ac217840d7,"Mozilla/5.0 (Macintosh; Intel Mac OS X 10_15_7) AppleWebKit/537.36 (KHTML, like Gecko) Chrome/135.0.0.0 Safari/537.36",Macintosh,Chrome,135.0.0.0,OS X,10_15_7,https://5puzkbbxv1.cognition.run/?sona_id=51650,"en-US,en;q=0.9",wwu5jpgt9nfhwfz,21,"[""White""]",No,Female,"Aleppo, Syria and for 5 years",Yes,378776.5,NA,null,<p></p>,null,choice,dtc,trinary,repulsion_A,2,microwave ovens,null,null,null,null,null,null,2,NA,NA,NA,NA,NA,NA,NA,NA,NA,NA
NA,NA,NA,NA,NA,choice_trial,survey-html-form,51,168811,0.0-4.0-1.23,133,1,2025-05-02T03:45:15Z,b60275e29fe2361ab97ac0ac217840d7,"Mozilla/5.0 (Macintosh; Intel Mac OS X 10_15_7) AppleWebKit/537.36 (KHTML, like Gecko) Chrome/135.0.0.0 Safari/537.36",Macintosh,Chrome,135.0.0.0,OS X,10_15_7,https://5puzkbbxv1.cognition.run/?sona_id=51650,"en-US,en;q=0.9",wwu5jpgt9nfhwfz,21,"[""White""]",No,Female,"Aleppo, Syria and for 5 years",Yes,378776.5,NA,2909,NA,"{""product_choice"":""C""}",choice,dtc,trinary,repulsion_A,2,microwave ovens,null,null,null,null,null,null,2,30,40,20,100,90,100,Warranty,Cooking power,NA,NA
NA,NA,NA,NA,NA,choice_trial_setup,html-keyboard-response,52,169115,0.0-4.0-0.24,133,1,2025-05-02T03:45:15Z,b60275e29fe2361ab97ac0ac217840d7,"Mozilla/5.0 (Macintosh; Intel Mac OS X 10_15_7) AppleWebKit/537.36 (KHTML, like Gecko) Chrome/135.0.0.0 Safari/537.36",Macintosh,Chrome,135.0.0.0,OS X,10_15_7,https://5puzkbbxv1.cognition.run/?sona_id=51650,"en-US,en;q=0.9",wwu5jpgt9nfhwfz,21,"[""White""]",No,Female,"Aleppo, Syria and for 5 years",Yes,378776.5,NA,null,<p></p>,null,choice,ct,binary,repulsion,2,microwave ovens,null,null,null,null,null,null,2,NA,NA,NA,NA,NA,NA,NA,NA,NA,NA
NA,NA,NA,NA,NA,choice_trial,survey-html-form,53,170930,0.0-4.0-1.24,133,1,2025-05-02T03:45:15Z,b60275e29fe2361ab97ac0ac217840d7,"Mozilla/5.0 (Macintosh; Intel Mac OS X 10_15_7) AppleWebKit/537.36 (KHTML, like Gecko) Chrome/135.0.0.0 Safari/537.36",Macintosh,Chrome,135.0.0.0,OS X,10_15_7,https://5puzkbbxv1.cognition.run/?sona_id=51650,"en-US,en;q=0.9",wwu5jpgt9nfhwfz,21,"[""White""]",No,Female,"Aleppo, Syria and for 5 years",Yes,378776.5,NA,1809,NA,"{""product_choice"":""B""}",choice,ct,binary,repulsion,2,microwave ovens,null,null,null,null,null,null,2,30,40,null,100,90,null,Warranty,Cooking power,NA,NA
NA,NA,NA,NA,NA,choice_trial_setup,html-keyboard-response,54,171234,0.0-4.0-0.25,133,1,2025-05-02T03:45:15Z,b60275e29fe2361ab97ac0ac217840d7,"Mozilla/5.0 (Macintosh; Intel Mac OS X 10_15_7) AppleWebKit/537.36 (KHTML, like Gecko) Chrome/135.0.0.0 Safari/537.36",Macintosh,Chrome,135.0.0.0,OS X,10_15_7,https://5puzkbbxv1.cognition.run/?sona_id=51650,"en-US,en;q=0.9",wwu5jpgt9nfhwfz,21,"[""White""]",No,Female,"Aleppo, Syria and for 5 years",Yes,378776.5,NA,null,<p></p>,null,choice,cdt,trinary,repulsion_B,2,laptops,null,null,null,null,null,null,2,NA,NA,NA,NA,NA,NA,NA,NA,NA,NA
NA,NA,NA,NA,NA,choice_trial,survey-html-form,55,180145,0.0-4.0-1.25,133,1,2025-05-02T03:45:15Z,b60275e29fe2361ab97ac0ac217840d7,"Mozilla/5.0 (Macintosh; Intel Mac OS X 10_15_7) AppleWebKit/537.36 (KHTML, like Gecko) Chrome/135.0.0.0 Safari/537.36",Macintosh,Chrome,135.0.0.0,OS X,10_15_7,https://5puzkbbxv1.cognition.run/?sona_id=51650,"en-US,en;q=0.9",wwu5jpgt9nfhwfz,21,"[""White""]",No,Female,"Aleppo, Syria and for 5 years",Yes,378776.5,NA,8905,NA,"{""product_choice"":""C""}",choice,cdt,trinary,repulsion_B,2,laptops,null,null,null,null,null,null,2,40,30,40,90,100,80,Processing speed,Memory (RAM),NA,NA
NA,NA,NA,NA,NA,choice_trial_setup,html-keyboard-response,56,180450,0.0-4.0-0.26,133,1,2025-05-02T03:45:15Z,b60275e29fe2361ab97ac0ac217840d7,"Mozilla/5.0 (Macintosh; Intel Mac OS X 10_15_7) AppleWebKit/537.36 (KHTML, like Gecko) Chrome/135.0.0.0 Safari/537.36",Macintosh,Chrome,135.0.0.0,OS X,10_15_7,https://5puzkbbxv1.cognition.run/?sona_id=51650,"en-US,en;q=0.9",wwu5jpgt9nfhwfz,21,"[""White""]",No,Female,"Aleppo, Syria and for 5 years",Yes,378776.5,NA,null,<p></p>,null,choice,tdc,trinary,repulsion_B,2,washing machines,null,null,null,null,null,null,1,NA,NA,NA,NA,NA,NA,NA,NA,NA,NA
NA,NA,NA,NA,NA,choice_trial,survey-html-form,57,183629,0.0-4.0-1.26,133,1,2025-05-02T03:45:15Z,b60275e29fe2361ab97ac0ac217840d7,"Mozilla/5.0 (Macintosh; Intel Mac OS X 10_15_7) AppleWebKit/537.36 (KHTML, like Gecko) Chrome/135.0.0.0 Safari/537.36",Macintosh,Chrome,135.0.0.0,OS X,10_15_7,https://5puzkbbxv1.cognition.run/?sona_id=51650,"en-US,en;q=0.9",wwu5jpgt9nfhwfz,21,"[""White""]",No,Female,"Aleppo, Syria and for 5 years",Yes,378776.5,NA,3175,NA,"{""product_choice"":""A""}",choice,tdc,trinary,repulsion_B,2,washing machines,null,null,null,null,null,null,1,40,30,40,90,100,80,Average lifespan,Energy savings,NA,NA
NA,NA,NA,NA,NA,choice_trial_setup,html-keyboard-response,58,183933,0.0-4.0-0.27,133,1,2025-05-02T03:45:15Z,b60275e29fe2361ab97ac0ac217840d7,"Mozilla/5.0 (Macintosh; Intel Mac OS X 10_15_7) AppleWebKit/537.36 (KHTML, like Gecko) Chrome/135.0.0.0 Safari/537.36",Macintosh,Chrome,135.0.0.0,OS X,10_15_7,https://5puzkbbxv1.cognition.run/?sona_id=51650,"en-US,en;q=0.9",wwu5jpgt9nfhwfz,21,"[""White""]",No,Female,"Aleppo, Syria and for 5 years",Yes,378776.5,NA,null,<p></p>,null,choice,dtc,trinary,repulsion_B,2,televisions,null,null,null,null,null,null,1,NA,NA,NA,NA,NA,NA,NA,NA,NA,NA
NA,NA,NA,NA,NA,choice_trial,survey-html-form,59,187596,0.0-4.0-1.27,133,1,2025-05-02T03:45:15Z,b60275e29fe2361ab97ac0ac217840d7,"Mozilla/5.0 (Macintosh; Intel Mac OS X 10_15_7) AppleWebKit/537.36 (KHTML, like Gecko) Chrome/135.0.0.0 Safari/537.36",Macintosh,Chrome,135.0.0.0,OS X,10_15_7,https://5puzkbbxv1.cognition.run/?sona_id=51650,"en-US,en;q=0.9",wwu5jpgt9nfhwfz,21,"[""White""]",No,Female,"Aleppo, Syria and for 5 years",Yes,378776.5,NA,3657,NA,"{""product_choice"":""B""}",choice,dtc,trinary,repulsion_B,2,televisions,null,null,null,null,null,null,1,40,30,40,90,100,80,Screen size,Average lifespan,NA,NA
NA,NA,NA,NA,NA,choice_trial_setup,html-keyboard-response,60,187901,0.0-4.0-0.28,133,1,2025-05-02T03:45:15Z,b60275e29fe2361ab97ac0ac217840d7,"Mozilla/5.0 (Macintosh; Intel Mac OS X 10_15_7) AppleWebKit/537.36 (KHTML, like Gecko) Chrome/135.0.0.0 Safari/537.36",Macintosh,Chrome,135.0.0.0,OS X,10_15_7,https://5puzkbbxv1.cognition.run/?sona_id=51650,"en-US,en;q=0.9",wwu5jpgt9nfhwfz,21,"[""White""]",No,Female,"Aleppo, Syria and for 5 years",Yes,378776.5,NA,null,<p></p>,null,choice,tcd,trinary,attraction,1,microwave ovens,null,null,null,null,null,null,2,NA,NA,NA,NA,NA,NA,NA,NA,NA,NA
NA,NA,NA,NA,NA,choice_trial,survey-html-form,61,197480,0.0-4.0-1.28,133,1,2025-05-02T03:45:15Z,b60275e29fe2361ab97ac0ac217840d7,"Mozilla/5.0 (Macintosh; Intel Mac OS X 10_15_7) AppleWebKit/537.36 (KHTML, like Gecko) Chrome/135.0.0.0 Safari/537.36",Macintosh,Chrome,135.0.0.0,OS X,10_15_7,https://5puzkbbxv1.cognition.run/?sona_id=51650,"en-US,en;q=0.9",wwu5jpgt9nfhwfz,21,"[""White""]",No,Female,"Aleppo, Syria and for 5 years",Yes,378776.5,NA,9574,NA,"{""product_choice"":""B""}",choice,tcd,trinary,attraction,1,microwave ovens,null,null,null,null,null,null,2,60,50,60,50,60,40,Warranty,Cooking power,NA,NA
NA,NA,NA,NA,NA,choice_trial_setup,html-keyboard-response,62,197786,0.0-4.0-0.29,133,1,2025-05-02T03:45:15Z,b60275e29fe2361ab97ac0ac217840d7,"Mozilla/5.0 (Macintosh; Intel Mac OS X 10_15_7) AppleWebKit/537.36 (KHTML, like Gecko) Chrome/135.0.0.0 Safari/537.36",Macintosh,Chrome,135.0.0.0,OS X,10_15_7,https://5puzkbbxv1.cognition.run/?sona_id=51650,"en-US,en;q=0.9",wwu5jpgt9nfhwfz,21,"[""White""]",No,Female,"Aleppo, Syria and for 5 years",Yes,378776.5,NA,null,<p></p>,null,choice,bw,binary,catch,null,televisions,75,80,15,30,null,null,1,NA,NA,NA,NA,NA,NA,NA,NA,NA,NA
NA,NA,NA,NA,NA,choice_trial,survey-html-form,63,204913,0.0-4.0-1.29,133,1,2025-05-02T03:45:15Z,b60275e29fe2361ab97ac0ac217840d7,"Mozilla/5.0 (Macintosh; Intel Mac OS X 10_15_7) AppleWebKit/537.36 (KHTML, like Gecko) Chrome/135.0.0.0 Safari/537.36",Macintosh,Chrome,135.0.0.0,OS X,10_15_7,https://5puzkbbxv1.cognition.run/?sona_id=51650,"en-US,en;q=0.9",wwu5jpgt9nfhwfz,21,"[""White""]",No,Female,"Aleppo, Syria and for 5 years",Yes,378776.5,NA,7121,NA,"{""product_choice"":""A""}",choice,bw,binary,catch,null,televisions,75,80,15,30,null,null,1,null,null,null,null,null,null,Screen size,Average lifespan,NA,NA
NA,NA,NA,NA,NA,choice_trial_setup,html-keyboard-response,64,205218,0.0-4.0-0.30,133,1,2025-05-02T03:45:15Z,b60275e29fe2361ab97ac0ac217840d7,"Mozilla/5.0 (Macintosh; Intel Mac OS X 10_15_7) AppleWebKit/537.36 (KHTML, like Gecko) Chrome/135.0.0.0 Safari/537.36",Macintosh,Chrome,135.0.0.0,OS X,10_15_7,https://5puzkbbxv1.cognition.run/?sona_id=51650,"en-US,en;q=0.9",wwu5jpgt9nfhwfz,21,"[""White""]",No,Female,"Aleppo, Syria and for 5 years",Yes,378776.5,NA,null,<p></p>,null,choice,ct,binary,repulsion,1,laptops,null,null,null,null,null,null,1,NA,NA,NA,NA,NA,NA,NA,NA,NA,NA
NA,NA,NA,NA,NA,choice_trial,survey-html-form,65,207463,0.0-4.0-1.30,133,1,2025-05-02T03:45:15Z,b60275e29fe2361ab97ac0ac217840d7,"Mozilla/5.0 (Macintosh; Intel Mac OS X 10_15_7) AppleWebKit/537.36 (KHTML, like Gecko) Chrome/135.0.0.0 Safari/537.36",Macintosh,Chrome,135.0.0.0,OS X,10_15_7,https://5puzkbbxv1.cognition.run/?sona_id=51650,"en-US,en;q=0.9",wwu5jpgt9nfhwfz,21,"[""White""]",No,Female,"Aleppo, Syria and for 5 years",Yes,378776.5,NA,2239,NA,"{""product_choice"":""A""}",choice,ct,binary,repulsion,1,laptops,null,null,null,null,null,null,1,100,90,null,30,40,null,Processing speed,Memory (RAM),NA,NA
NA,NA,NA,NA,NA,choice_trial_setup,html-keyboard-response,66,207767,0.0-4.0-0.31,133,1,2025-05-02T03:45:15Z,b60275e29fe2361ab97ac0ac217840d7,"Mozilla/5.0 (Macintosh; Intel Mac OS X 10_15_7) AppleWebKit/537.36 (KHTML, like Gecko) Chrome/135.0.0.0 Safari/537.36",Macintosh,Chrome,135.0.0.0,OS X,10_15_7,https://5puzkbbxv1.cognition.run/?sona_id=51650,"en-US,en;q=0.9",wwu5jpgt9nfhwfz,21,"[""White""]",No,Female,"Aleppo, Syria and for 5 years",Yes,378776.5,NA,null,<p></p>,null,choice,dct,trinary,repulsion_A,1,laptops,null,null,null,null,null,null,2,NA,NA,NA,NA,NA,NA,NA,NA,NA,NA
NA,NA,NA,NA,NA,choice_trial,survey-html-form,67,211112,0.0-4.0-1.31,133,1,2025-05-02T03:45:15Z,b60275e29fe2361ab97ac0ac217840d7,"Mozilla/5.0 (Macintosh; Intel Mac OS X 10_15_7) AppleWebKit/537.36 (KHTML, like Gecko) Chrome/135.0.0.0 Safari/537.36",Macintosh,Chrome,135.0.0.0,OS X,10_15_7,https://5puzkbbxv1.cognition.run/?sona_id=51650,"en-US,en;q=0.9",wwu5jpgt9nfhwfz,21,"[""White""]",No,Female,"Aleppo, Syria and for 5 years",Yes,378776.5,NA,3340,NA,"{""product_choice"":""B""}",choice,dct,trinary,repulsion_A,1,laptops,null,null,null,null,null,null,2,100,90,100,30,40,20,Processing speed,Memory (RAM),NA,NA
NA,NA,NA,NA,NA,choice_trial_setup,html-keyboard-response,68,211417,0.0-4.0-0.32,133,1,2025-05-02T03:45:15Z,b60275e29fe2361ab97ac0ac217840d7,"Mozilla/5.0 (Macintosh; Intel Mac OS X 10_15_7) AppleWebKit/537.36 (KHTML, like Gecko) Chrome/135.0.0.0 Safari/537.36",Macintosh,Chrome,135.0.0.0,OS X,10_15_7,https://5puzkbbxv1.cognition.run/?sona_id=51650,"en-US,en;q=0.9",wwu5jpgt9nfhwfz,21,"[""White""]",No,Female,"Aleppo, Syria and for 5 years",Yes,378776.5,NA,null,<p></p>,null,choice,cdt,trinary,attraction,2,microwave ovens,null,null,null,null,null,null,2,NA,NA,NA,NA,NA,NA,NA,NA,NA,NA
NA,NA,NA,NA,NA,choice_trial,survey-html-form,69,215529,0.0-4.0-1.32,133,1,2025-05-02T03:45:15Z,b60275e29fe2361ab97ac0ac217840d7,"Mozilla/5.0 (Macintosh; Intel Mac OS X 10_15_7) AppleWebKit/537.36 (KHTML, like Gecko) Chrome/135.0.0.0 Safari/537.36",Macintosh,Chrome,135.0.0.0,OS X,10_15_7,https://5puzkbbxv1.cognition.run/?sona_id=51650,"en-US,en;q=0.9",wwu5jpgt9nfhwfz,21,"[""White""]",No,Female,"Aleppo, Syria and for 5 years",Yes,378776.5,NA,4106,NA,"{""product_choice"":""A""}",choice,cdt,trinary,attraction,2,microwave ovens,null,null,null,null,null,null,2,50,60,40,60,50,60,Warranty,Cooking power,NA,NA
NA,NA,NA,NA,NA,choice_trial_setup,html-keyboard-response,70,215832,0.0-4.0-0.33,133,1,2025-05-02T03:45:15Z,b60275e29fe2361ab97ac0ac217840d7,"Mozilla/5.0 (Macintosh; Intel Mac OS X 10_15_7) AppleWebKit/537.36 (KHTML, like Gecko) Chrome/135.0.0.0 Safari/537.36",Macintosh,Chrome,135.0.0.0,OS X,10_15_7,https://5puzkbbxv1.cognition.run/?sona_id=51650,"en-US,en;q=0.9",wwu5jpgt9nfhwfz,21,"[""White""]",No,Female,"Aleppo, Syria and for 5 years",Yes,378776.5,NA,null,<p></p>,null,choice,dtc,trinary,repulsion_A,1,washing machines,null,null,null,null,null,null,1,NA,NA,NA,NA,NA,NA,NA,NA,NA,NA
NA,NA,NA,NA,NA,choice_trial,survey-html-form,71,218212,0.0-4.0-1.33,133,1,2025-05-02T03:45:15Z,b60275e29fe2361ab97ac0ac217840d7,"Mozilla/5.0 (Macintosh; Intel Mac OS X 10_15_7) AppleWebKit/537.36 (KHTML, like Gecko) Chrome/135.0.0.0 Safari/537.36",Macintosh,Chrome,135.0.0.0,OS X,10_15_7,https://5puzkbbxv1.cognition.run/?sona_id=51650,"en-US,en;q=0.9",wwu5jpgt9nfhwfz,21,"[""White""]",No,Female,"Aleppo, Syria and for 5 years",Yes,378776.5,NA,2375,NA,"{""product_choice"":""C""}",choice,dtc,trinary,repulsion_A,1,washing machines,null,null,null,null,null,null,1,100,90,100,30,40,20,Average lifespan,Energy savings,NA,NA
NA,NA,NA,NA,NA,choice_trial_setup,html-keyboard-response,72,218518,0.0-4.0-0.34,133,1,2025-05-02T03:45:15Z,b60275e29fe2361ab97ac0ac217840d7,"Mozilla/5.0 (Macintosh; Intel Mac OS X 10_15_7) AppleWebKit/537.36 (KHTML, like Gecko) Chrome/135.0.0.0 Safari/537.36",Macintosh,Chrome,135.0.0.0,OS X,10_15_7,https://5puzkbbxv1.cognition.run/?sona_id=51650,"en-US,en;q=0.9",wwu5jpgt9nfhwfz,21,"[""White""]",No,Female,"Aleppo, Syria and for 5 years",Yes,378776.5,NA,null,<p></p>,null,choice,tcd,trinary,repulsion_B,1,microwave ovens,null,null,null,null,null,null,2,NA,NA,NA,NA,NA,NA,NA,NA,NA,NA
NA,NA,NA,NA,NA,choice_trial,survey-html-form,73,221963,0.0-4.0-1.34,133,1,2025-05-02T03:45:15Z,b60275e29fe2361ab97ac0ac217840d7,"Mozilla/5.0 (Macintosh; Intel Mac OS X 10_15_7) AppleWebKit/537.36 (KHTML, like Gecko) Chrome/135.0.0.0 Safari/537.36",Macintosh,Chrome,135.0.0.0,OS X,10_15_7,https://5puzkbbxv1.cognition.run/?sona_id=51650,"en-US,en;q=0.9",wwu5jpgt9nfhwfz,21,"[""White""]",No,Female,"Aleppo, Syria and for 5 years",Yes,378776.5,NA,3439,NA,"{""product_choice"":""B""}",choice,tcd,trinary,repulsion_B,1,microwave ovens,null,null,null,null,null,null,2,90,100,80,40,30,40,Warranty,Cooking power,NA,NA
NA,NA,NA,NA,NA,choice_trial_setup,html-keyboard-response,74,222268,0.0-4.0-0.35,133,1,2025-05-02T03:45:15Z,b60275e29fe2361ab97ac0ac217840d7,"Mozilla/5.0 (Macintosh; Intel Mac OS X 10_15_7) AppleWebKit/537.36 (KHTML, like Gecko) Chrome/135.0.0.0 Safari/537.36",Macintosh,Chrome,135.0.0.0,OS X,10_15_7,https://5puzkbbxv1.cognition.run/?sona_id=51650,"en-US,en;q=0.9",wwu5jpgt9nfhwfz,21,"[""White""]",No,Female,"Aleppo, Syria and for 5 years",Yes,378776.5,NA,null,<p></p>,null,choice,wb,binary,catch,null,microwave ovens,80,95,30,20,null,null,2,NA,NA,NA,NA,NA,NA,NA,NA,NA,NA
NA,NA,NA,NA,NA,choice_trial,survey-html-form,75,227746,0.0-4.0-1.35,133,1,2025-05-02T03:45:15Z,b60275e29fe2361ab97ac0ac217840d7,"Mozilla/5.0 (Macintosh; Intel Mac OS X 10_15_7) AppleWebKit/537.36 (KHTML, like Gecko) Chrome/135.0.0.0 Safari/537.36",Macintosh,Chrome,135.0.0.0,OS X,10_15_7,https://5puzkbbxv1.cognition.run/?sona_id=51650,"en-US,en;q=0.9",wwu5jpgt9nfhwfz,21,"[""White""]",No,Female,"Aleppo, Syria and for 5 years",Yes,378776.5,NA,5475,NA,"{""product_choice"":""B""}",choice,wb,binary,catch,null,microwave ovens,80,95,30,20,null,null,2,null,null,null,null,null,null,Warranty,Cooking power,NA,NA
NA,NA,NA,NA,NA,choice_trial_setup,html-keyboard-response,76,228052,0.0-4.0-0.36,133,1,2025-05-02T03:45:15Z,b60275e29fe2361ab97ac0ac217840d7,"Mozilla/5.0 (Macintosh; Intel Mac OS X 10_15_7) AppleWebKit/537.36 (KHTML, like Gecko) Chrome/135.0.0.0 Safari/537.36",Macintosh,Chrome,135.0.0.0,OS X,10_15_7,https://5puzkbbxv1.cognition.run/?sona_id=51650,"en-US,en;q=0.9",wwu5jpgt9nfhwfz,21,"[""White""]",No,Female,"Aleppo, Syria and for 5 years",Yes,378776.5,NA,null,<p></p>,null,choice,bw,binary,catch,null,washing machines,80,60,35,45,null,null,2,NA,NA,NA,NA,NA,NA,NA,NA,NA,NA
NA,NA,NA,NA,NA,choice_trial,survey-html-form,77,233646,0.0-4.0-1.36,133,1,2025-05-02T03:45:15Z,b60275e29fe2361ab97ac0ac217840d7,"Mozilla/5.0 (Macintosh; Intel Mac OS X 10_15_7) AppleWebKit/537.36 (KHTML, like Gecko) Chrome/135.0.0.0 Safari/537.36",Macintosh,Chrome,135.0.0.0,OS X,10_15_7,https://5puzkbbxv1.cognition.run/?sona_id=51650,"en-US,en;q=0.9",wwu5jpgt9nfhwfz,21,"[""White""]",No,Female,"Aleppo, Syria and for 5 years",Yes,378776.5,NA,5588,NA,"{""product_choice"":""A""}",choice,bw,binary,catch,null,washing machines,80,60,35,45,null,null,2,null,null,null,null,null,null,Average lifespan,Energy savings,NA,NA
NA,NA,NA,NA,NA,choice_trial_setup,html-keyboard-response,78,233951,0.0-4.0-0.37,133,1,2025-05-02T03:45:15Z,b60275e29fe2361ab97ac0ac217840d7,"Mozilla/5.0 (Macintosh; Intel Mac OS X 10_15_7) AppleWebKit/537.36 (KHTML, like Gecko) Chrome/135.0.0.0 Safari/537.36",Macintosh,Chrome,135.0.0.0,OS X,10_15_7,https://5puzkbbxv1.cognition.run/?sona_id=51650,"en-US,en;q=0.9",wwu5jpgt9nfhwfz,21,"[""White""]",No,Female,"Aleppo, Syria and for 5 years",Yes,378776.5,NA,null,<p></p>,null,choice,wwb,trinary,catch,null,laptops,55,85,15,15,40,15,2,NA,NA,NA,NA,NA,NA,NA,NA,NA,NA
NA,NA,NA,NA,NA,choice_trial,survey-html-form,79,236614,0.0-4.0-1.37,133,1,2025-05-02T03:45:15Z,b60275e29fe2361ab97ac0ac217840d7,"Mozilla/5.0 (Macintosh; Intel Mac OS X 10_15_7) AppleWebKit/537.36 (KHTML, like Gecko) Chrome/135.0.0.0 Safari/537.36",Macintosh,Chrome,135.0.0.0,OS X,10_15_7,https://5puzkbbxv1.cognition.run/?sona_id=51650,"en-US,en;q=0.9",wwu5jpgt9nfhwfz,21,"[""White""]",No,Female,"Aleppo, Syria and for 5 years",Yes,378776.5,NA,2657,NA,"{""product_choice"":""C""}",choice,wwb,trinary,catch,null,laptops,55,85,15,15,40,15,2,null,null,null,null,null,null,Processing speed,Memory (RAM),NA,NA
NA,NA,NA,NA,NA,choice_trial_setup,html-keyboard-response,80,236919,0.0-4.0-0.38,133,1,2025-05-02T03:45:15Z,b60275e29fe2361ab97ac0ac217840d7,"Mozilla/5.0 (Macintosh; Intel Mac OS X 10_15_7) AppleWebKit/537.36 (KHTML, like Gecko) Chrome/135.0.0.0 Safari/537.36",Macintosh,Chrome,135.0.0.0,OS X,10_15_7,https://5puzkbbxv1.cognition.run/?sona_id=51650,"en-US,en;q=0.9",wwu5jpgt9nfhwfz,21,"[""White""]",No,Female,"Aleppo, Syria and for 5 years",Yes,378776.5,NA,null,<p></p>,null,choice,tc,binary,repulsion,2,laptops,null,null,null,null,null,null,1,NA,NA,NA,NA,NA,NA,NA,NA,NA,NA
NA,NA,NA,NA,NA,choice_trial,survey-html-form,81,242480,0.0-4.0-1.38,133,1,2025-05-02T03:45:15Z,b60275e29fe2361ab97ac0ac217840d7,"Mozilla/5.0 (Macintosh; Intel Mac OS X 10_15_7) AppleWebKit/537.36 (KHTML, like Gecko) Chrome/135.0.0.0 Safari/537.36",Macintosh,Chrome,135.0.0.0,OS X,10_15_7,https://5puzkbbxv1.cognition.run/?sona_id=51650,"en-US,en;q=0.9",wwu5jpgt9nfhwfz,21,"[""White""]",No,Female,"Aleppo, Syria and for 5 years",Yes,378776.5,NA,5555,NA,"{""product_choice"":""A""}",choice,tc,binary,repulsion,2,laptops,null,null,null,null,null,null,1,30,40,null,100,90,null,Processing speed,Memory (RAM),NA,NA
NA,NA,NA,NA,NA,choice_trial_setup,html-keyboard-response,82,242785,0.0-4.0-0.39,133,1,2025-05-02T03:45:15Z,b60275e29fe2361ab97ac0ac217840d7,"Mozilla/5.0 (Macintosh; Intel Mac OS X 10_15_7) AppleWebKit/537.36 (KHTML, like Gecko) Chrome/135.0.0.0 Safari/537.36",Macintosh,Chrome,135.0.0.0,OS X,10_15_7,https://5puzkbbxv1.cognition.run/?sona_id=51650,"en-US,en;q=0.9",wwu5jpgt9nfhwfz,21,"[""White""]",No,Female,"Aleppo, Syria and for 5 years",Yes,378776.5,NA,null,<p></p>,null,choice,wwb,trinary,catch,null,televisions,75,55,45,50,40,5,2,NA,NA,NA,NA,NA,NA,NA,NA,NA,NA
NA,NA,NA,NA,NA,choice_trial,survey-html-form,83,245646,0.0-4.0-1.39,133,1,2025-05-02T03:45:15Z,b60275e29fe2361ab97ac0ac217840d7,"Mozilla/5.0 (Macintosh; Intel Mac OS X 10_15_7) AppleWebKit/537.36 (KHTML, like Gecko) Chrome/135.0.0.0 Safari/537.36",Macintosh,Chrome,135.0.0.0,OS X,10_15_7,https://5puzkbbxv1.cognition.run/?sona_id=51650,"en-US,en;q=0.9",wwu5jpgt9nfhwfz,21,"[""White""]",No,Female,"Aleppo, Syria and for 5 years",Yes,378776.5,NA,2854,NA,"{""product_choice"":""C""}",choice,wwb,trinary,catch,null,televisions,75,55,45,50,40,5,2,null,null,null,null,null,null,Screen size,Average lifespan,NA,NA
NA,NA,NA,NA,NA,choice_trial_setup,html-keyboard-response,84,245950,0.0-4.0-0.40,133,1,2025-05-02T03:45:15Z,b60275e29fe2361ab97ac0ac217840d7,"Mozilla/5.0 (Macintosh; Intel Mac OS X 10_15_7) AppleWebKit/537.36 (KHTML, like Gecko) Chrome/135.0.0.0 Safari/537.36",Macintosh,Chrome,135.0.0.0,OS X,10_15_7,https://5puzkbbxv1.cognition.run/?sona_id=51650,"en-US,en;q=0.9",wwu5jpgt9nfhwfz,21,"[""White""]",No,Female,"Aleppo, Syria and for 5 years",Yes,378776.5,NA,null,<p></p>,null,choice,ct,binary,attraction,NA,washing machines,null,null,null,null,null,null,2,NA,NA,NA,NA,NA,NA,NA,NA,NA,NA
NA,NA,NA,NA,NA,choice_trial,survey-html-form,85,250147,0.0-4.0-1.40,133,1,2025-05-02T03:45:15Z,b60275e29fe2361ab97ac0ac217840d7,"Mozilla/5.0 (Macintosh; Intel Mac OS X 10_15_7) AppleWebKit/537.36 (KHTML, like Gecko) Chrome/135.0.0.0 Safari/537.36",Macintosh,Chrome,135.0.0.0,OS X,10_15_7,https://5puzkbbxv1.cognition.run/?sona_id=51650,"en-US,en;q=0.9",wwu5jpgt9nfhwfz,21,"[""White""]",No,Female,"Aleppo, Syria and for 5 years",Yes,378776.5,NA,4190,NA,"{""product_choice"":""A""}",choice,ct,binary,attraction,NA,washing machines,null,null,null,null,null,null,2,60,50,null,50,60,null,Average lifespan,Energy savings,NA,NA
NA,NA,NA,NA,NA,choice_trial_setup,html-keyboard-response,86,250453,0.0-4.0-0.41,133,1,2025-05-02T03:45:15Z,b60275e29fe2361ab97ac0ac217840d7,"Mozilla/5.0 (Macintosh; Intel Mac OS X 10_15_7) AppleWebKit/537.36 (KHTML, like Gecko) Chrome/135.0.0.0 Safari/537.36",Macintosh,Chrome,135.0.0.0,OS X,10_15_7,https://5puzkbbxv1.cognition.run/?sona_id=51650,"en-US,en;q=0.9",wwu5jpgt9nfhwfz,21,"[""White""]",No,Female,"Aleppo, Syria and for 5 years",Yes,378776.5,NA,null,<p></p>,null,choice,tcd,trinary,repulsion_A,2,televisions,null,null,null,null,null,null,1,NA,NA,NA,NA,NA,NA,NA,NA,NA,NA
NA,NA,NA,NA,NA,choice_trial,survey-html-form,87,254245,0.0-4.0-1.41,133,1,2025-05-02T03:45:15Z,b60275e29fe2361ab97ac0ac217840d7,"Mozilla/5.0 (Macintosh; Intel Mac OS X 10_15_7) AppleWebKit/537.36 (KHTML, like Gecko) Chrome/135.0.0.0 Safari/537.36",Macintosh,Chrome,135.0.0.0,OS X,10_15_7,https://5puzkbbxv1.cognition.run/?sona_id=51650,"en-US,en;q=0.9",wwu5jpgt9nfhwfz,21,"[""White""]",No,Female,"Aleppo, Syria and for 5 years",Yes,378776.5,NA,3787,NA,"{""product_choice"":""B""}",choice,tcd,trinary,repulsion_A,2,televisions,null,null,null,null,null,null,1,30,40,20,100,90,100,Screen size,Average lifespan,NA,NA
NA,NA,NA,NA,NA,choice_trial_setup,html-keyboard-response,88,254548,0.0-4.0-0.42,133,1,2025-05-02T03:45:15Z,b60275e29fe2361ab97ac0ac217840d7,"Mozilla/5.0 (Macintosh; Intel Mac OS X 10_15_7) AppleWebKit/537.36 (KHTML, like Gecko) Chrome/135.0.0.0 Safari/537.36",Macintosh,Chrome,135.0.0.0,OS X,10_15_7,https://5puzkbbxv1.cognition.run/?sona_id=51650,"en-US,en;q=0.9",wwu5jpgt9nfhwfz,21,"[""White""]",No,Female,"Aleppo, Syria and for 5 years",Yes,378776.5,NA,null,<p></p>,null,choice,cdt,trinary,repulsion_B,1,televisions,null,null,null,null,null,null,1,NA,NA,NA,NA,NA,NA,NA,NA,NA,NA
NA,NA,NA,NA,NA,choice_trial,survey-html-form,89,261414,0.0-4.0-1.42,133,1,2025-05-02T03:45:15Z,b60275e29fe2361ab97ac0ac217840d7,"Mozilla/5.0 (Macintosh; Intel Mac OS X 10_15_7) AppleWebKit/537.36 (KHTML, like Gecko) Chrome/135.0.0.0 Safari/537.36",Macintosh,Chrome,135.0.0.0,OS X,10_15_7,https://5puzkbbxv1.cognition.run/?sona_id=51650,"en-US,en;q=0.9",wwu5jpgt9nfhwfz,21,"[""White""]",No,Female,"Aleppo, Syria and for 5 years",Yes,378776.5,NA,6860,NA,"{""product_choice"":""A""}",choice,cdt,trinary,repulsion_B,1,televisions,null,null,null,null,null,null,1,90,100,80,40,30,40,Screen size,Average lifespan,NA,NA
NA,NA,NA,NA,NA,choice_trial_setup,html-keyboard-response,90,261719,0.0-4.0-0.43,133,1,2025-05-02T03:45:15Z,b60275e29fe2361ab97ac0ac217840d7,"Mozilla/5.0 (Macintosh; Intel Mac OS X 10_15_7) AppleWebKit/537.36 (KHTML, like Gecko) Chrome/135.0.0.0 Safari/537.36",Macintosh,Chrome,135.0.0.0,OS X,10_15_7,https://5puzkbbxv1.cognition.run/?sona_id=51650,"en-US,en;q=0.9",wwu5jpgt9nfhwfz,21,"[""White""]",No,Female,"Aleppo, Syria and for 5 years",Yes,378776.5,NA,null,<p></p>,null,choice,cdt,trinary,attraction,2,televisions,null,null,null,null,null,null,1,NA,NA,NA,NA,NA,NA,NA,NA,NA,NA
NA,NA,NA,NA,NA,choice_trial,survey-html-form,91,266663,0.0-4.0-1.43,133,1,2025-05-02T03:45:15Z,b60275e29fe2361ab97ac0ac217840d7,"Mozilla/5.0 (Macintosh; Intel Mac OS X 10_15_7) AppleWebKit/537.36 (KHTML, like Gecko) Chrome/135.0.0.0 Safari/537.36",Macintosh,Chrome,135.0.0.0,OS X,10_15_7,https://5puzkbbxv1.cognition.run/?sona_id=51650,"en-US,en;q=0.9",wwu5jpgt9nfhwfz,21,"[""White""]",No,Female,"Aleppo, Syria and for 5 years",Yes,378776.5,NA,4939,NA,"{""product_choice"":""B""}",choice,cdt,trinary,attraction,2,televisions,null,null,null,null,null,null,1,50,60,40,60,50,60,Screen size,Average lifespan,NA,NA
NA,NA,NA,NA,NA,post_trials_message,html-button-response,92,269180,0.0-5.0,133,1,2025-05-02T03:45:15Z,b60275e29fe2361ab97ac0ac217840d7,"Mozilla/5.0 (Macintosh; Intel Mac OS X 10_15_7) AppleWebKit/537.36 (KHTML, like Gecko) Chrome/135.0.0.0 Safari/537.36",Macintosh,Chrome,135.0.0.0,OS X,10_15_7,https://5puzkbbxv1.cognition.run/?sona_id=51650,"en-US,en;q=0.9",wwu5jpgt9nfhwfz,21,"[""White""]",No,Female,"Aleppo, Syria and for 5 years",Yes,378776.5,NA,2512,<p> <b>Thank you for your patience!</b></p><p>  The study will be done after completing a brief form. </p>,0,NA,NA,NA,NA,NA,NA,NA,NA,NA,NA,NA,NA,NA,NA,NA,NA,NA,NA,NA,NA,NA,NA,NA
NA,NA,NA,NA,NA,survey_message,survey-text,93,318945,0.0-6.0,133,1,2025-05-02T03:45:15Z,b60275e29fe2361ab97ac0ac217840d7,"Mozilla/5.0 (Macintosh; Intel Mac OS X 10_15_7) AppleWebKit/537.36 (KHTML, like Gecko) Chrome/135.0.0.0 Safari/537.36",Macintosh,Chrome,135.0.0.0,OS X,10_15_7,https://5puzkbbxv1.cognition.run/?sona_id=51650,"en-US,en;q=0.9",wwu5jpgt9nfhwfz,21,"[""White""]",No,Female,"Aleppo, Syria and for 5 years",Yes,378776.5,NA,49759,NA,"{""Q0"":""Honestly, I choose it based on what had the highest numbers across the categories, even if it was not the highest overall ""}",NA,NA,NA,NA,NA,NA,NA,NA,NA,NA,NA,NA,NA,NA,NA,NA,NA,NA,NA,NA,NA,"Honestly, I choose it based on what had the highest numbers across the categories, even if it was not the highest overall",NA
NA,NA,NA,NA,NA,demo_age,survey-text,94,321496,0.0-7.0,133,1,2025-05-02T03:45:15Z,b60275e29fe2361ab97ac0ac217840d7,"Mozilla/5.0 (Macintosh; Intel Mac OS X 10_15_7) AppleWebKit/537.36 (KHTML, like Gecko) Chrome/135.0.0.0 Safari/537.36",Macintosh,Chrome,135.0.0.0,OS X,10_15_7,https://5puzkbbxv1.cognition.run/?sona_id=51650,"en-US,en;q=0.9",wwu5jpgt9nfhwfz,21,"[""White""]",No,Female,"Aleppo, Syria and for 5 years",Yes,378776.5,NA,2548,NA,"{""Q0"":""21""}",NA,NA,NA,NA,NA,NA,NA,NA,NA,NA,NA,NA,NA,NA,NA,NA,NA,NA,NA,NA,NA,NA,NA
NA,NA,NA,NA,NA,demo_race,survey-multi-select,95,328983,0.0-8.0,133,1,2025-05-02T03:45:15Z,b60275e29fe2361ab97ac0ac217840d7,"Mozilla/5.0 (Macintosh; Intel Mac OS X 10_15_7) AppleWebKit/537.36 (KHTML, like Gecko) Chrome/135.0.0.0 Safari/537.36",Macintosh,Chrome,135.0.0.0,OS X,10_15_7,https://5puzkbbxv1.cognition.run/?sona_id=51650,"en-US,en;q=0.9",wwu5jpgt9nfhwfz,21,"[""White""]",No,Female,"Aleppo, Syria and for 5 years",Yes,378776.5,NA,7484,NA,"{""Q0"":[""White""]}",NA,NA,NA,NA,NA,NA,NA,NA,NA,NA,NA,NA,NA,NA,NA,NA,NA,NA,NA,NA,NA,NA,[0]
NA,NA,NA,NA,NA,demo_ethnicity_gender,survey-multi-choice,96,335648,0.0-9.0,133,1,2025-05-02T03:45:15Z,b60275e29fe2361ab97ac0ac217840d7,"Mozilla/5.0 (Macintosh; Intel Mac OS X 10_15_7) AppleWebKit/537.36 (KHTML, like Gecko) Chrome/135.0.0.0 Safari/537.36",Macintosh,Chrome,135.0.0.0,OS X,10_15_7,https://5puzkbbxv1.cognition.run/?sona_id=51650,"en-US,en;q=0.9",wwu5jpgt9nfhwfz,21,"[""White""]",No,Female,"Aleppo, Syria and for 5 years",Yes,378776.5,NA,6658,NA,"{""Q0"":""No"",""Q1"":""Female""}",NA,NA,NA,NA,NA,NA,NA,NA,NA,NA,NA,NA,NA,NA,NA,NA,NA,NA,NA,NA,NA,NA,"[0,1]"
NA,NA,NA,NA,NA,demo_countries,survey-text,97,354396,0.0-10.0,133,1,2025-05-02T03:45:15Z,b60275e29fe2361ab97ac0ac217840d7,"Mozilla/5.0 (Macintosh; Intel Mac OS X 10_15_7) AppleWebKit/537.36 (KHTML, like Gecko) Chrome/135.0.0.0 Safari/537.36",Macintosh,Chrome,135.0.0.0,OS X,10_15_7,https://5puzkbbxv1.cognition.run/?sona_id=51650,"en-US,en;q=0.9",wwu5jpgt9nfhwfz,21,"[""White""]",No,Female,"Aleppo, Syria and for 5 years",Yes,378776.5,NA,18725,NA,"{""Q0"":""Aleppo, Syria and for 5 years ""}",NA,NA,NA,NA,NA,NA,NA,NA,NA,NA,NA,NA,NA,NA,NA,NA,NA,NA,NA,NA,NA,NA,NA
NA,NA,NA,NA,NA,demo_prev_study,survey-multi-choice,98,364197,0.0-11.0,133,1,2025-05-02T03:45:15Z,b60275e29fe2361ab97ac0ac217840d7,"Mozilla/5.0 (Macintosh; Intel Mac OS X 10_15_7) AppleWebKit/537.36 (KHTML, like Gecko) Chrome/135.0.0.0 Safari/537.36",Macintosh,Chrome,135.0.0.0,OS X,10_15_7,https://5puzkbbxv1.cognition.run/?sona_id=51650,"en-US,en;q=0.9",wwu5jpgt9nfhwfz,21,"[""White""]",No,Female,"Aleppo, Syria and for 5 years",Yes,378776.5,NA,9799,NA,"{""Q0"":""Yes""}",NA,NA,NA,NA,NA,NA,NA,NA,NA,NA,NA,NA,NA,NA,NA,NA,NA,NA,NA,NA,NA,NA,[0]
NA,NA,NA,NA,NA,post_survey_message,html-keyboard-response,99,369545,0.0-12.0,133,1,2025-05-02T03:45:15Z,b60275e29fe2361ab97ac0ac217840d7,"Mozilla/5.0 (Macintosh; Intel Mac OS X 10_15_7) AppleWebKit/537.36 (KHTML, like Gecko) Chrome/135.0.0.0 Safari/537.36",Macintosh,Chrome,135.0.0.0,OS X,10_15_7,https://5puzkbbxv1.cognition.run/?sona_id=51650,"en-US,en;q=0.9",wwu5jpgt9nfhwfz,21,"[""White""]",No,Female,"Aleppo, Syria and for 5 years",Yes,378776.5,NA,5343,NA,j,NA,NA,NA,NA,NA,NA,NA,NA,NA,NA,NA,NA,NA,NA,NA,NA,NA,NA,NA,NA,NA,NA,NA
NA,NA,NA,NA,NA,debrief,image-keyboard-response,100,378782,0.0-13.0,133,1,2025-05-02T03:45:15Z,b60275e29fe2361ab97ac0ac217840d7,"Mozilla/5.0 (Macintosh; Intel Mac OS X 10_15_7) AppleWebKit/537.36 (KHTML, like Gecko) Chrome/135.0.0.0 Safari/537.36",Macintosh,Chrome,135.0.0.0,OS X,10_15_7,https://5puzkbbxv1.cognition.run/?sona_id=51650,"en-US,en;q=0.9",wwu5jpgt9nfhwfz,21,"[""White""]",No,Female,"Aleppo, Syria and for 5 years",Yes,378776.5,NA,9226,Judg_choice_debrief.png,p,NA,NA,NA,NA,NA,NA,NA,NA,NA,NA,NA,NA,NA,NA,NA,NA,NA,NA,NA,NA,NA,NA,NA
