success,timeout,failed_images,failed_audio,failed_video,screen_id,trial_type,trial_index,time_elapsed,internal_node_id,run_id,condition,recorded_at,source_code_version,user_agent,device,browser,browser_version,platform,platform_version,referer,accept_language,ppt_id,age,race,ethnicity,gender,other_countries,prev_study,exp_duration,view_history,rt,stimulus,response,phase,order,set,effect,t_high,category,d1_best,d2_best,d1_worst1,d2_worst1,d1_worst2,d2_worst2,first_dim,d1_t,d1_c,d1_d,d2_t,d2_c,d2_d,d1_name,d2_name,strategy_response,question_order
TRUE,FALSE,[],[],[],img preload,preload,0,296,0.0-0.0,141,1,2025-05-02T23:15:48Z,b60275e29fe2361ab97ac0ac217840d7,"Mozilla/5.0 (Macintosh; Intel Mac OS X 10_15_7) AppleWebKit/605.1.15 (KHTML, like Gecko) Version/17.6 Safari/605.1.15",Macintosh,Safari,17.6,OS X,10_15_7,https://5puzkbbxv1.cognition.run/?sona_id=57455,"en-US,en;q=0.9",p2kp2a603d3jumr,18,"[""Black or African-American""]",No,Female,Ethiopia- 11 years,No,1299658,NA,NA,NA,NA,NA,NA,NA,NA,NA,NA,NA,NA,NA,NA,NA,NA,NA,NA,NA,NA,NA,NA,NA,NA,NA,NA,NA
NA,NA,NA,NA,NA,computer_message,instructions,1,1399,0.0-1.0,141,1,2025-05-02T23:15:48Z,b60275e29fe2361ab97ac0ac217840d7,"Mozilla/5.0 (Macintosh; Intel Mac OS X 10_15_7) AppleWebKit/605.1.15 (KHTML, like Gecko) Version/17.6 Safari/605.1.15",Macintosh,Safari,17.6,OS X,10_15_7,https://5puzkbbxv1.cognition.run/?sona_id=57455,"en-US,en;q=0.9",p2kp2a603d3jumr,18,"[""Black or African-American""]",No,Female,Ethiopia- 11 years,No,1299658,"[{""page_index"":0,""viewing_time"":1086}]",1089,NA,NA,NA,NA,NA,NA,NA,NA,NA,NA,NA,NA,NA,NA,NA,NA,NA,NA,NA,NA,NA,NA,NA,NA,NA
TRUE,NA,NA,NA,NA,NA,fullscreen,2,6786,0.0-2.0,141,1,2025-05-02T23:15:48Z,b60275e29fe2361ab97ac0ac217840d7,"Mozilla/5.0 (Macintosh; Intel Mac OS X 10_15_7) AppleWebKit/605.1.15 (KHTML, like Gecko) Version/17.6 Safari/605.1.15",Macintosh,Safari,17.6,OS X,10_15_7,https://5puzkbbxv1.cognition.run/?sona_id=57455,"en-US,en;q=0.9",p2kp2a603d3jumr,18,"[""Black or African-American""]",No,Female,Ethiopia- 11 years,No,1299658,NA,4345,NA,NA,NA,NA,NA,NA,NA,NA,NA,NA,NA,NA,NA,NA,NA,NA,NA,NA,NA,NA,NA,NA,NA,NA,NA
NA,NA,NA,NA,NA,choice_instructions,instructions,3,53819,0.0-3.0,141,1,2025-05-02T23:15:48Z,b60275e29fe2361ab97ac0ac217840d7,"Mozilla/5.0 (Macintosh; Intel Mac OS X 10_15_7) AppleWebKit/605.1.15 (KHTML, like Gecko) Version/17.6 Safari/605.1.15",Macintosh,Safari,17.6,OS X,10_15_7,https://5puzkbbxv1.cognition.run/?sona_id=57455,"en-US,en;q=0.9",p2kp2a603d3jumr,18,"[""Black or African-American""]",No,Female,Ethiopia- 11 years,No,1299658,"[{""page_index"":0,""viewing_time"":2127},{""page_index"":1,""viewing_time"":1914},{""page_index"":2,""viewing_time"":1888},{""page_index"":3,""viewing_time"":1339},{""page_index"":4,""viewing_time"":738},{""page_index"":5,""viewing_time"":24205},{""page_index"":6,""viewing_time"":14815}]",47027,NA,NA,NA,NA,NA,NA,NA,NA,NA,NA,NA,NA,NA,NA,NA,NA,NA,NA,NA,NA,NA,NA,NA,NA,NA
NA,NA,NA,NA,NA,choice_trial_setup,html-keyboard-response,4,54131,0.0-4.0-0.0,141,1,2025-05-02T23:15:48Z,b60275e29fe2361ab97ac0ac217840d7,"Mozilla/5.0 (Macintosh; Intel Mac OS X 10_15_7) AppleWebKit/605.1.15 (KHTML, like Gecko) Version/17.6 Safari/605.1.15",Macintosh,Safari,17.6,OS X,10_15_7,https://5puzkbbxv1.cognition.run/?sona_id=57455,"en-US,en;q=0.9",p2kp2a603d3jumr,18,"[""Black or African-American""]",No,Female,Ethiopia- 11 years,No,1299658,NA,null,<p></p>,null,choice,cdt,trinary,repulsion_A,1,washing machines,null,null,null,null,null,null,1,NA,NA,NA,NA,NA,NA,NA,NA,NA,NA
NA,NA,NA,NA,NA,choice_trial,survey-html-form,5,85377,0.0-4.0-1.0,141,1,2025-05-02T23:15:48Z,b60275e29fe2361ab97ac0ac217840d7,"Mozilla/5.0 (Macintosh; Intel Mac OS X 10_15_7) AppleWebKit/605.1.15 (KHTML, like Gecko) Version/17.6 Safari/605.1.15",Macintosh,Safari,17.6,OS X,10_15_7,https://5puzkbbxv1.cognition.run/?sona_id=57455,"en-US,en;q=0.9",p2kp2a603d3jumr,18,"[""Black or African-American""]",No,Female,Ethiopia- 11 years,No,1299658,NA,31236,NA,"{""product_choice"":""C""}",choice,cdt,trinary,repulsion_A,1,washing machines,null,null,null,null,null,null,1,100,90,100,30,40,20,Average lifespan,Energy savings,NA,NA
NA,NA,NA,NA,NA,choice_trial_setup,html-keyboard-response,6,85679,0.0-4.0-0.1,141,1,2025-05-02T23:15:48Z,b60275e29fe2361ab97ac0ac217840d7,"Mozilla/5.0 (Macintosh; Intel Mac OS X 10_15_7) AppleWebKit/605.1.15 (KHTML, like Gecko) Version/17.6 Safari/605.1.15",Macintosh,Safari,17.6,OS X,10_15_7,https://5puzkbbxv1.cognition.run/?sona_id=57455,"en-US,en;q=0.9",p2kp2a603d3jumr,18,"[""Black or African-American""]",No,Female,Ethiopia- 11 years,No,1299658,NA,null,<p></p>,null,choice,tc,binary,attraction,NA,laptops,null,null,null,null,null,null,1,NA,NA,NA,NA,NA,NA,NA,NA,NA,NA
NA,NA,NA,NA,NA,choice_trial,survey-html-form,7,101182,0.0-4.0-1.1,141,1,2025-05-02T23:15:48Z,b60275e29fe2361ab97ac0ac217840d7,"Mozilla/5.0 (Macintosh; Intel Mac OS X 10_15_7) AppleWebKit/605.1.15 (KHTML, like Gecko) Version/17.6 Safari/605.1.15",Macintosh,Safari,17.6,OS X,10_15_7,https://5puzkbbxv1.cognition.run/?sona_id=57455,"en-US,en;q=0.9",p2kp2a603d3jumr,18,"[""Black or African-American""]",No,Female,Ethiopia- 11 years,No,1299658,NA,15500,NA,"{""product_choice"":""B""}",choice,tc,binary,attraction,NA,laptops,null,null,null,null,null,null,1,60,50,null,50,60,null,Processing speed,Memory (RAM),NA,NA
NA,NA,NA,NA,NA,choice_trial_setup,html-keyboard-response,8,101485,0.0-4.0-0.2,141,1,2025-05-02T23:15:48Z,b60275e29fe2361ab97ac0ac217840d7,"Mozilla/5.0 (Macintosh; Intel Mac OS X 10_15_7) AppleWebKit/605.1.15 (KHTML, like Gecko) Version/17.6 Safari/605.1.15",Macintosh,Safari,17.6,OS X,10_15_7,https://5puzkbbxv1.cognition.run/?sona_id=57455,"en-US,en;q=0.9",p2kp2a603d3jumr,18,"[""Black or African-American""]",No,Female,Ethiopia- 11 years,No,1299658,NA,null,<p></p>,null,choice,bw,binary,catch,null,microwave ovens,60,75,25,35,null,null,2,NA,NA,NA,NA,NA,NA,NA,NA,NA,NA
NA,NA,NA,NA,NA,choice_trial,survey-html-form,9,114020,0.0-4.0-1.2,141,1,2025-05-02T23:15:48Z,b60275e29fe2361ab97ac0ac217840d7,"Mozilla/5.0 (Macintosh; Intel Mac OS X 10_15_7) AppleWebKit/605.1.15 (KHTML, like Gecko) Version/17.6 Safari/605.1.15",Macintosh,Safari,17.6,OS X,10_15_7,https://5puzkbbxv1.cognition.run/?sona_id=57455,"en-US,en;q=0.9",p2kp2a603d3jumr,18,"[""Black or African-American""]",No,Female,Ethiopia- 11 years,No,1299658,NA,12532,NA,"{""product_choice"":""A""}",choice,bw,binary,catch,null,microwave ovens,60,75,25,35,null,null,2,null,null,null,null,null,null,Warranty,Cooking power,NA,NA
NA,NA,NA,NA,NA,choice_trial_setup,html-keyboard-response,10,114323,0.0-4.0-0.3,141,1,2025-05-02T23:15:48Z,b60275e29fe2361ab97ac0ac217840d7,"Mozilla/5.0 (Macintosh; Intel Mac OS X 10_15_7) AppleWebKit/605.1.15 (KHTML, like Gecko) Version/17.6 Safari/605.1.15",Macintosh,Safari,17.6,OS X,10_15_7,https://5puzkbbxv1.cognition.run/?sona_id=57455,"en-US,en;q=0.9",p2kp2a603d3jumr,18,"[""Black or African-American""]",No,Female,Ethiopia- 11 years,No,1299658,NA,null,<p></p>,null,choice,wbw,trinary,catch,null,microwave ovens,55,95,50,25,40,25,1,NA,NA,NA,NA,NA,NA,NA,NA,NA,NA
NA,NA,NA,NA,NA,choice_trial,survey-html-form,11,128863,0.0-4.0-1.3,141,1,2025-05-02T23:15:48Z,b60275e29fe2361ab97ac0ac217840d7,"Mozilla/5.0 (Macintosh; Intel Mac OS X 10_15_7) AppleWebKit/605.1.15 (KHTML, like Gecko) Version/17.6 Safari/605.1.15",Macintosh,Safari,17.6,OS X,10_15_7,https://5puzkbbxv1.cognition.run/?sona_id=57455,"en-US,en;q=0.9",p2kp2a603d3jumr,18,"[""Black or African-American""]",No,Female,Ethiopia- 11 years,No,1299658,NA,14538,NA,"{""product_choice"":""B""}",choice,wbw,trinary,catch,null,microwave ovens,55,95,50,25,40,25,1,null,null,null,null,null,null,Warranty,Cooking power,NA,NA
NA,NA,NA,NA,NA,choice_trial_setup,html-keyboard-response,12,129166,0.0-4.0-0.4,141,1,2025-05-02T23:15:48Z,b60275e29fe2361ab97ac0ac217840d7,"Mozilla/5.0 (Macintosh; Intel Mac OS X 10_15_7) AppleWebKit/605.1.15 (KHTML, like Gecko) Version/17.6 Safari/605.1.15",Macintosh,Safari,17.6,OS X,10_15_7,https://5puzkbbxv1.cognition.run/?sona_id=57455,"en-US,en;q=0.9",p2kp2a603d3jumr,18,"[""Black or African-American""]",No,Female,Ethiopia- 11 years,No,1299658,NA,null,<p></p>,null,choice,bww,trinary,catch,null,washing machines,85,90,20,15,35,5,1,NA,NA,NA,NA,NA,NA,NA,NA,NA,NA
NA,NA,NA,NA,NA,choice_trial,survey-html-form,13,144710,0.0-4.0-1.4,141,1,2025-05-02T23:15:48Z,b60275e29fe2361ab97ac0ac217840d7,"Mozilla/5.0 (Macintosh; Intel Mac OS X 10_15_7) AppleWebKit/605.1.15 (KHTML, like Gecko) Version/17.6 Safari/605.1.15",Macintosh,Safari,17.6,OS X,10_15_7,https://5puzkbbxv1.cognition.run/?sona_id=57455,"en-US,en;q=0.9",p2kp2a603d3jumr,18,"[""Black or African-American""]",No,Female,Ethiopia- 11 years,No,1299658,NA,15540,NA,"{""product_choice"":""A""}",choice,bww,trinary,catch,null,washing machines,85,90,20,15,35,5,1,null,null,null,null,null,null,Average lifespan,Energy savings,NA,NA
NA,NA,NA,NA,NA,choice_trial_setup,html-keyboard-response,14,145013,0.0-4.0-0.5,141,1,2025-05-02T23:15:48Z,b60275e29fe2361ab97ac0ac217840d7,"Mozilla/5.0 (Macintosh; Intel Mac OS X 10_15_7) AppleWebKit/605.1.15 (KHTML, like Gecko) Version/17.6 Safari/605.1.15",Macintosh,Safari,17.6,OS X,10_15_7,https://5puzkbbxv1.cognition.run/?sona_id=57455,"en-US,en;q=0.9",p2kp2a603d3jumr,18,"[""Black or African-American""]",No,Female,Ethiopia- 11 years,No,1299658,NA,null,<p></p>,null,choice,wb,binary,catch,null,televisions,90,60,10,20,null,null,1,NA,NA,NA,NA,NA,NA,NA,NA,NA,NA
NA,NA,NA,NA,NA,choice_trial,survey-html-form,15,149736,0.0-4.0-1.5,141,1,2025-05-02T23:15:48Z,b60275e29fe2361ab97ac0ac217840d7,"Mozilla/5.0 (Macintosh; Intel Mac OS X 10_15_7) AppleWebKit/605.1.15 (KHTML, like Gecko) Version/17.6 Safari/605.1.15",Macintosh,Safari,17.6,OS X,10_15_7,https://5puzkbbxv1.cognition.run/?sona_id=57455,"en-US,en;q=0.9",p2kp2a603d3jumr,18,"[""Black or African-American""]",No,Female,Ethiopia- 11 years,No,1299658,NA,4720,NA,"{""product_choice"":""B""}",choice,wb,binary,catch,null,televisions,90,60,10,20,null,null,1,null,null,null,null,null,null,Screen size,Average lifespan,NA,NA
NA,NA,NA,NA,NA,choice_trial_setup,html-keyboard-response,16,150039,0.0-4.0-0.6,141,1,2025-05-02T23:15:48Z,b60275e29fe2361ab97ac0ac217840d7,"Mozilla/5.0 (Macintosh; Intel Mac OS X 10_15_7) AppleWebKit/605.1.15 (KHTML, like Gecko) Version/17.6 Safari/605.1.15",Macintosh,Safari,17.6,OS X,10_15_7,https://5puzkbbxv1.cognition.run/?sona_id=57455,"en-US,en;q=0.9",p2kp2a603d3jumr,18,"[""Black or African-American""]",No,Female,Ethiopia- 11 years,No,1299658,NA,null,<p></p>,null,choice,ct,binary,repulsion,1,laptops,null,null,null,null,null,null,2,NA,NA,NA,NA,NA,NA,NA,NA,NA,NA
NA,NA,NA,NA,NA,choice_trial,survey-html-form,17,160450,0.0-4.0-1.6,141,1,2025-05-02T23:15:48Z,b60275e29fe2361ab97ac0ac217840d7,"Mozilla/5.0 (Macintosh; Intel Mac OS X 10_15_7) AppleWebKit/605.1.15 (KHTML, like Gecko) Version/17.6 Safari/605.1.15",Macintosh,Safari,17.6,OS X,10_15_7,https://5puzkbbxv1.cognition.run/?sona_id=57455,"en-US,en;q=0.9",p2kp2a603d3jumr,18,"[""Black or African-American""]",No,Female,Ethiopia- 11 years,No,1299658,NA,10408,NA,"{""product_choice"":""B""}",choice,ct,binary,repulsion,1,laptops,null,null,null,null,null,null,2,100,90,null,30,40,null,Processing speed,Memory (RAM),NA,NA
NA,NA,NA,NA,NA,choice_trial_setup,html-keyboard-response,18,160753,0.0-4.0-0.7,141,1,2025-05-02T23:15:48Z,b60275e29fe2361ab97ac0ac217840d7,"Mozilla/5.0 (Macintosh; Intel Mac OS X 10_15_7) AppleWebKit/605.1.15 (KHTML, like Gecko) Version/17.6 Safari/605.1.15",Macintosh,Safari,17.6,OS X,10_15_7,https://5puzkbbxv1.cognition.run/?sona_id=57455,"en-US,en;q=0.9",p2kp2a603d3jumr,18,"[""Black or African-American""]",No,Female,Ethiopia- 11 years,No,1299658,NA,null,<p></p>,null,choice,tdc,trinary,repulsion_B,1,washing machines,null,null,null,null,null,null,1,NA,NA,NA,NA,NA,NA,NA,NA,NA,NA
NA,NA,NA,NA,NA,choice_trial,survey-html-form,19,203227,0.0-4.0-1.7,141,1,2025-05-02T23:15:48Z,b60275e29fe2361ab97ac0ac217840d7,"Mozilla/5.0 (Macintosh; Intel Mac OS X 10_15_7) AppleWebKit/605.1.15 (KHTML, like Gecko) Version/17.6 Safari/605.1.15",Macintosh,Safari,17.6,OS X,10_15_7,https://5puzkbbxv1.cognition.run/?sona_id=57455,"en-US,en;q=0.9",p2kp2a603d3jumr,18,"[""Black or African-American""]",No,Female,Ethiopia- 11 years,No,1299658,NA,42471,NA,"{""product_choice"":""A""}",choice,tdc,trinary,repulsion_B,1,washing machines,null,null,null,null,null,null,1,90,100,80,40,30,40,Average lifespan,Energy savings,NA,NA
NA,NA,NA,NA,NA,choice_trial_setup,html-keyboard-response,20,203529,0.0-4.0-0.8,141,1,2025-05-02T23:15:48Z,b60275e29fe2361ab97ac0ac217840d7,"Mozilla/5.0 (Macintosh; Intel Mac OS X 10_15_7) AppleWebKit/605.1.15 (KHTML, like Gecko) Version/17.6 Safari/605.1.15",Macintosh,Safari,17.6,OS X,10_15_7,https://5puzkbbxv1.cognition.run/?sona_id=57455,"en-US,en;q=0.9",p2kp2a603d3jumr,18,"[""Black or African-American""]",No,Female,Ethiopia- 11 years,No,1299658,NA,null,<p></p>,null,choice,tc,binary,repulsion,2,laptops,null,null,null,null,null,null,1,NA,NA,NA,NA,NA,NA,NA,NA,NA,NA
NA,NA,NA,NA,NA,choice_trial,survey-html-form,21,213233,0.0-4.0-1.8,141,1,2025-05-02T23:15:48Z,b60275e29fe2361ab97ac0ac217840d7,"Mozilla/5.0 (Macintosh; Intel Mac OS X 10_15_7) AppleWebKit/605.1.15 (KHTML, like Gecko) Version/17.6 Safari/605.1.15",Macintosh,Safari,17.6,OS X,10_15_7,https://5puzkbbxv1.cognition.run/?sona_id=57455,"en-US,en;q=0.9",p2kp2a603d3jumr,18,"[""Black or African-American""]",No,Female,Ethiopia- 11 years,No,1299658,NA,9700,NA,"{""product_choice"":""B""}",choice,tc,binary,repulsion,2,laptops,null,null,null,null,null,null,1,30,40,null,100,90,null,Processing speed,Memory (RAM),NA,NA
NA,NA,NA,NA,NA,choice_trial_setup,html-keyboard-response,22,213536,0.0-4.0-0.9,141,1,2025-05-02T23:15:48Z,b60275e29fe2361ab97ac0ac217840d7,"Mozilla/5.0 (Macintosh; Intel Mac OS X 10_15_7) AppleWebKit/605.1.15 (KHTML, like Gecko) Version/17.6 Safari/605.1.15",Macintosh,Safari,17.6,OS X,10_15_7,https://5puzkbbxv1.cognition.run/?sona_id=57455,"en-US,en;q=0.9",p2kp2a603d3jumr,18,"[""Black or African-American""]",No,Female,Ethiopia- 11 years,No,1299658,NA,null,<p></p>,null,choice,dtc,trinary,attraction,1,laptops,null,null,null,null,null,null,1,NA,NA,NA,NA,NA,NA,NA,NA,NA,NA
NA,NA,NA,NA,NA,choice_trial,survey-html-form,23,236093,0.0-4.0-1.9,141,1,2025-05-02T23:15:48Z,b60275e29fe2361ab97ac0ac217840d7,"Mozilla/5.0 (Macintosh; Intel Mac OS X 10_15_7) AppleWebKit/605.1.15 (KHTML, like Gecko) Version/17.6 Safari/605.1.15",Macintosh,Safari,17.6,OS X,10_15_7,https://5puzkbbxv1.cognition.run/?sona_id=57455,"en-US,en;q=0.9",p2kp2a603d3jumr,18,"[""Black or African-American""]",No,Female,Ethiopia- 11 years,No,1299658,NA,22554,NA,"{""product_choice"":""B""}",choice,dtc,trinary,attraction,1,laptops,null,null,null,null,null,null,1,60,50,60,50,60,40,Processing speed,Memory (RAM),NA,NA
NA,NA,NA,NA,NA,choice_trial_setup,html-keyboard-response,24,236396,0.0-4.0-0.10,141,1,2025-05-02T23:15:48Z,b60275e29fe2361ab97ac0ac217840d7,"Mozilla/5.0 (Macintosh; Intel Mac OS X 10_15_7) AppleWebKit/605.1.15 (KHTML, like Gecko) Version/17.6 Safari/605.1.15",Macintosh,Safari,17.6,OS X,10_15_7,https://5puzkbbxv1.cognition.run/?sona_id=57455,"en-US,en;q=0.9",p2kp2a603d3jumr,18,"[""Black or African-American""]",No,Female,Ethiopia- 11 years,No,1299658,NA,null,<p></p>,null,choice,dct,trinary,repulsion_A,2,microwave ovens,null,null,null,null,null,null,1,NA,NA,NA,NA,NA,NA,NA,NA,NA,NA
NA,NA,NA,NA,NA,choice_trial,survey-html-form,25,258112,0.0-4.0-1.10,141,1,2025-05-02T23:15:48Z,b60275e29fe2361ab97ac0ac217840d7,"Mozilla/5.0 (Macintosh; Intel Mac OS X 10_15_7) AppleWebKit/605.1.15 (KHTML, like Gecko) Version/17.6 Safari/605.1.15",Macintosh,Safari,17.6,OS X,10_15_7,https://5puzkbbxv1.cognition.run/?sona_id=57455,"en-US,en;q=0.9",p2kp2a603d3jumr,18,"[""Black or African-American""]",No,Female,Ethiopia- 11 years,No,1299658,NA,21713,NA,"{""product_choice"":""C""}",choice,dct,trinary,repulsion_A,2,microwave ovens,null,null,null,null,null,null,1,30,40,20,100,90,100,Warranty,Cooking power,NA,NA
NA,NA,NA,NA,NA,choice_trial_setup,html-keyboard-response,26,258415,0.0-4.0-0.11,141,1,2025-05-02T23:15:48Z,b60275e29fe2361ab97ac0ac217840d7,"Mozilla/5.0 (Macintosh; Intel Mac OS X 10_15_7) AppleWebKit/605.1.15 (KHTML, like Gecko) Version/17.6 Safari/605.1.15",Macintosh,Safari,17.6,OS X,10_15_7,https://5puzkbbxv1.cognition.run/?sona_id=57455,"en-US,en;q=0.9",p2kp2a603d3jumr,18,"[""Black or African-American""]",No,Female,Ethiopia- 11 years,No,1299658,NA,null,<p></p>,null,choice,wb,binary,catch,null,laptops,95,50,5,25,null,null,2,NA,NA,NA,NA,NA,NA,NA,NA,NA,NA
NA,NA,NA,NA,NA,choice_trial,survey-html-form,27,269120,0.0-4.0-1.11,141,1,2025-05-02T23:15:48Z,b60275e29fe2361ab97ac0ac217840d7,"Mozilla/5.0 (Macintosh; Intel Mac OS X 10_15_7) AppleWebKit/605.1.15 (KHTML, like Gecko) Version/17.6 Safari/605.1.15",Macintosh,Safari,17.6,OS X,10_15_7,https://5puzkbbxv1.cognition.run/?sona_id=57455,"en-US,en;q=0.9",p2kp2a603d3jumr,18,"[""Black or African-American""]",No,Female,Ethiopia- 11 years,No,1299658,NA,10702,NA,"{""product_choice"":""B""}",choice,wb,binary,catch,null,laptops,95,50,5,25,null,null,2,null,null,null,null,null,null,Processing speed,Memory (RAM),NA,NA
NA,NA,NA,NA,NA,choice_trial_setup,html-keyboard-response,28,269422,0.0-4.0-0.12,141,1,2025-05-02T23:15:48Z,b60275e29fe2361ab97ac0ac217840d7,"Mozilla/5.0 (Macintosh; Intel Mac OS X 10_15_7) AppleWebKit/605.1.15 (KHTML, like Gecko) Version/17.6 Safari/605.1.15",Macintosh,Safari,17.6,OS X,10_15_7,https://5puzkbbxv1.cognition.run/?sona_id=57455,"en-US,en;q=0.9",p2kp2a603d3jumr,18,"[""Black or African-American""]",No,Female,Ethiopia- 11 years,No,1299658,NA,null,<p></p>,null,choice,tcd,trinary,attraction,1,televisions,null,null,null,null,null,null,1,NA,NA,NA,NA,NA,NA,NA,NA,NA,NA
NA,NA,NA,NA,NA,choice_trial,survey-html-form,29,287556,0.0-4.0-1.12,141,1,2025-05-02T23:15:48Z,b60275e29fe2361ab97ac0ac217840d7,"Mozilla/5.0 (Macintosh; Intel Mac OS X 10_15_7) AppleWebKit/605.1.15 (KHTML, like Gecko) Version/17.6 Safari/605.1.15",Macintosh,Safari,17.6,OS X,10_15_7,https://5puzkbbxv1.cognition.run/?sona_id=57455,"en-US,en;q=0.9",p2kp2a603d3jumr,18,"[""Black or African-American""]",No,Female,Ethiopia- 11 years,No,1299658,NA,18131,NA,"{""product_choice"":""A""}",choice,tcd,trinary,attraction,1,televisions,null,null,null,null,null,null,1,60,50,60,50,60,40,Screen size,Average lifespan,NA,NA
NA,NA,NA,NA,NA,choice_trial_setup,html-keyboard-response,30,287860,0.0-4.0-0.13,141,1,2025-05-02T23:15:48Z,b60275e29fe2361ab97ac0ac217840d7,"Mozilla/5.0 (Macintosh; Intel Mac OS X 10_15_7) AppleWebKit/605.1.15 (KHTML, like Gecko) Version/17.6 Safari/605.1.15",Macintosh,Safari,17.6,OS X,10_15_7,https://5puzkbbxv1.cognition.run/?sona_id=57455,"en-US,en;q=0.9",p2kp2a603d3jumr,18,"[""Black or African-American""]",No,Female,Ethiopia- 11 years,No,1299658,NA,null,<p></p>,null,choice,ct,binary,repulsion,1,televisions,null,null,null,null,null,null,2,NA,NA,NA,NA,NA,NA,NA,NA,NA,NA
NA,NA,NA,NA,NA,choice_trial,survey-html-form,31,297412,0.0-4.0-1.13,141,1,2025-05-02T23:15:48Z,b60275e29fe2361ab97ac0ac217840d7,"Mozilla/5.0 (Macintosh; Intel Mac OS X 10_15_7) AppleWebKit/605.1.15 (KHTML, like Gecko) Version/17.6 Safari/605.1.15",Macintosh,Safari,17.6,OS X,10_15_7,https://5puzkbbxv1.cognition.run/?sona_id=57455,"en-US,en;q=0.9",p2kp2a603d3jumr,18,"[""Black or African-American""]",No,Female,Ethiopia- 11 years,No,1299658,NA,9549,NA,"{""product_choice"":""A""}",choice,ct,binary,repulsion,1,televisions,null,null,null,null,null,null,2,100,90,null,30,40,null,Screen size,Average lifespan,NA,NA
NA,NA,NA,NA,NA,choice_trial_setup,html-keyboard-response,32,297715,0.0-4.0-0.14,141,1,2025-05-02T23:15:48Z,b60275e29fe2361ab97ac0ac217840d7,"Mozilla/5.0 (Macintosh; Intel Mac OS X 10_15_7) AppleWebKit/605.1.15 (KHTML, like Gecko) Version/17.6 Safari/605.1.15",Macintosh,Safari,17.6,OS X,10_15_7,https://5puzkbbxv1.cognition.run/?sona_id=57455,"en-US,en;q=0.9",p2kp2a603d3jumr,18,"[""Black or African-American""]",No,Female,Ethiopia- 11 years,No,1299658,NA,null,<p></p>,null,choice,ctd,trinary,repulsion_A,1,laptops,null,null,null,null,null,null,1,NA,NA,NA,NA,NA,NA,NA,NA,NA,NA
NA,NA,NA,NA,NA,choice_trial,survey-html-form,33,369837,0.0-4.0-1.14,141,1,2025-05-02T23:15:48Z,b60275e29fe2361ab97ac0ac217840d7,"Mozilla/5.0 (Macintosh; Intel Mac OS X 10_15_7) AppleWebKit/605.1.15 (KHTML, like Gecko) Version/17.6 Safari/605.1.15",Macintosh,Safari,17.6,OS X,10_15_7,https://5puzkbbxv1.cognition.run/?sona_id=57455,"en-US,en;q=0.9",p2kp2a603d3jumr,18,"[""Black or African-American""]",No,Female,Ethiopia- 11 years,No,1299658,NA,72118,NA,"{""product_choice"":""A""}",choice,ctd,trinary,repulsion_A,1,laptops,null,null,null,null,null,null,1,100,90,100,30,40,20,Processing speed,Memory (RAM),NA,NA
NA,NA,NA,NA,NA,choice_trial_setup,html-keyboard-response,34,370140,0.0-4.0-0.15,141,1,2025-05-02T23:15:48Z,b60275e29fe2361ab97ac0ac217840d7,"Mozilla/5.0 (Macintosh; Intel Mac OS X 10_15_7) AppleWebKit/605.1.15 (KHTML, like Gecko) Version/17.6 Safari/605.1.15",Macintosh,Safari,17.6,OS X,10_15_7,https://5puzkbbxv1.cognition.run/?sona_id=57455,"en-US,en;q=0.9",p2kp2a603d3jumr,18,"[""Black or African-American""]",No,Female,Ethiopia- 11 years,No,1299658,NA,null,<p></p>,null,choice,tdc,trinary,attraction,2,laptops,null,null,null,null,null,null,1,NA,NA,NA,NA,NA,NA,NA,NA,NA,NA
NA,NA,NA,NA,NA,choice_trial,survey-html-form,35,381831,0.0-4.0-1.15,141,1,2025-05-02T23:15:48Z,b60275e29fe2361ab97ac0ac217840d7,"Mozilla/5.0 (Macintosh; Intel Mac OS X 10_15_7) AppleWebKit/605.1.15 (KHTML, like Gecko) Version/17.6 Safari/605.1.15",Macintosh,Safari,17.6,OS X,10_15_7,https://5puzkbbxv1.cognition.run/?sona_id=57455,"en-US,en;q=0.9",p2kp2a603d3jumr,18,"[""Black or African-American""]",No,Female,Ethiopia- 11 years,No,1299658,NA,11687,NA,"{""product_choice"":""C""}",choice,tdc,trinary,attraction,2,laptops,null,null,null,null,null,null,1,50,60,40,60,50,60,Processing speed,Memory (RAM),NA,NA
NA,NA,NA,NA,NA,choice_trial_setup,html-keyboard-response,36,382134,0.0-4.0-0.16,141,1,2025-05-02T23:15:48Z,b60275e29fe2361ab97ac0ac217840d7,"Mozilla/5.0 (Macintosh; Intel Mac OS X 10_15_7) AppleWebKit/605.1.15 (KHTML, like Gecko) Version/17.6 Safari/605.1.15",Macintosh,Safari,17.6,OS X,10_15_7,https://5puzkbbxv1.cognition.run/?sona_id=57455,"en-US,en;q=0.9",p2kp2a603d3jumr,18,"[""Black or African-American""]",No,Female,Ethiopia- 11 years,No,1299658,NA,null,<p></p>,null,choice,cdt,trinary,attraction,1,microwave ovens,null,null,null,null,null,null,1,NA,NA,NA,NA,NA,NA,NA,NA,NA,NA
NA,NA,NA,NA,NA,choice_trial,survey-html-form,37,407676,0.0-4.0-1.16,141,1,2025-05-02T23:15:48Z,b60275e29fe2361ab97ac0ac217840d7,"Mozilla/5.0 (Macintosh; Intel Mac OS X 10_15_7) AppleWebKit/605.1.15 (KHTML, like Gecko) Version/17.6 Safari/605.1.15",Macintosh,Safari,17.6,OS X,10_15_7,https://5puzkbbxv1.cognition.run/?sona_id=57455,"en-US,en;q=0.9",p2kp2a603d3jumr,18,"[""Black or African-American""]",No,Female,Ethiopia- 11 years,No,1299658,NA,25538,NA,"{""product_choice"":""A""}",choice,cdt,trinary,attraction,1,microwave ovens,null,null,null,null,null,null,1,60,50,60,50,60,40,Warranty,Cooking power,NA,NA
NA,NA,NA,NA,NA,choice_trial_setup,html-keyboard-response,38,407980,0.0-4.0-0.17,141,1,2025-05-02T23:15:48Z,b60275e29fe2361ab97ac0ac217840d7,"Mozilla/5.0 (Macintosh; Intel Mac OS X 10_15_7) AppleWebKit/605.1.15 (KHTML, like Gecko) Version/17.6 Safari/605.1.15",Macintosh,Safari,17.6,OS X,10_15_7,https://5puzkbbxv1.cognition.run/?sona_id=57455,"en-US,en;q=0.9",p2kp2a603d3jumr,18,"[""Black or African-American""]",No,Female,Ethiopia- 11 years,No,1299658,NA,null,<p></p>,null,choice,tc,binary,attraction,NA,microwave ovens,null,null,null,null,null,null,1,NA,NA,NA,NA,NA,NA,NA,NA,NA,NA
NA,NA,NA,NA,NA,choice_trial,survey-html-form,39,414305,0.0-4.0-1.17,141,1,2025-05-02T23:15:48Z,b60275e29fe2361ab97ac0ac217840d7,"Mozilla/5.0 (Macintosh; Intel Mac OS X 10_15_7) AppleWebKit/605.1.15 (KHTML, like Gecko) Version/17.6 Safari/605.1.15",Macintosh,Safari,17.6,OS X,10_15_7,https://5puzkbbxv1.cognition.run/?sona_id=57455,"en-US,en;q=0.9",p2kp2a603d3jumr,18,"[""Black or African-American""]",No,Female,Ethiopia- 11 years,No,1299658,NA,6320,NA,"{""product_choice"":""B""}",choice,tc,binary,attraction,NA,microwave ovens,null,null,null,null,null,null,1,60,50,null,50,60,null,Warranty,Cooking power,NA,NA
NA,NA,NA,NA,NA,choice_trial_setup,html-keyboard-response,40,414610,0.0-4.0-0.18,141,1,2025-05-02T23:15:48Z,b60275e29fe2361ab97ac0ac217840d7,"Mozilla/5.0 (Macintosh; Intel Mac OS X 10_15_7) AppleWebKit/605.1.15 (KHTML, like Gecko) Version/17.6 Safari/605.1.15",Macintosh,Safari,17.6,OS X,10_15_7,https://5puzkbbxv1.cognition.run/?sona_id=57455,"en-US,en;q=0.9",p2kp2a603d3jumr,18,"[""Black or African-American""]",No,Female,Ethiopia- 11 years,No,1299658,NA,null,<p></p>,null,choice,tc,binary,repulsion,2,microwave ovens,null,null,null,null,null,null,1,NA,NA,NA,NA,NA,NA,NA,NA,NA,NA
NA,NA,NA,NA,NA,choice_trial,survey-html-form,41,431015,0.0-4.0-1.18,141,1,2025-05-02T23:15:48Z,b60275e29fe2361ab97ac0ac217840d7,"Mozilla/5.0 (Macintosh; Intel Mac OS X 10_15_7) AppleWebKit/605.1.15 (KHTML, like Gecko) Version/17.6 Safari/605.1.15",Macintosh,Safari,17.6,OS X,10_15_7,https://5puzkbbxv1.cognition.run/?sona_id=57455,"en-US,en;q=0.9",p2kp2a603d3jumr,18,"[""Black or African-American""]",No,Female,Ethiopia- 11 years,No,1299658,NA,16400,NA,"{""product_choice"":""A""}",choice,tc,binary,repulsion,2,microwave ovens,null,null,null,null,null,null,1,30,40,null,100,90,null,Warranty,Cooking power,NA,NA
NA,NA,NA,NA,NA,choice_trial_setup,html-keyboard-response,42,431318,0.0-4.0-0.19,141,1,2025-05-02T23:15:48Z,b60275e29fe2361ab97ac0ac217840d7,"Mozilla/5.0 (Macintosh; Intel Mac OS X 10_15_7) AppleWebKit/605.1.15 (KHTML, like Gecko) Version/17.6 Safari/605.1.15",Macintosh,Safari,17.6,OS X,10_15_7,https://5puzkbbxv1.cognition.run/?sona_id=57455,"en-US,en;q=0.9",p2kp2a603d3jumr,18,"[""Black or African-American""]",No,Female,Ethiopia- 11 years,No,1299658,NA,null,<p></p>,null,choice,tdc,trinary,repulsion_A,1,televisions,null,null,null,null,null,null,1,NA,NA,NA,NA,NA,NA,NA,NA,NA,NA
NA,NA,NA,NA,NA,choice_trial,survey-html-form,43,479934,0.0-4.0-1.19,141,1,2025-05-02T23:15:48Z,b60275e29fe2361ab97ac0ac217840d7,"Mozilla/5.0 (Macintosh; Intel Mac OS X 10_15_7) AppleWebKit/605.1.15 (KHTML, like Gecko) Version/17.6 Safari/605.1.15",Macintosh,Safari,17.6,OS X,10_15_7,https://5puzkbbxv1.cognition.run/?sona_id=57455,"en-US,en;q=0.9",p2kp2a603d3jumr,18,"[""Black or African-American""]",No,Female,Ethiopia- 11 years,No,1299658,NA,48611,NA,"{""product_choice"":""A""}",choice,tdc,trinary,repulsion_A,1,televisions,null,null,null,null,null,null,1,100,90,100,30,40,20,Screen size,Average lifespan,NA,NA
NA,NA,NA,NA,NA,choice_trial_setup,html-keyboard-response,44,480238,0.0-4.0-0.20,141,1,2025-05-02T23:15:48Z,b60275e29fe2361ab97ac0ac217840d7,"Mozilla/5.0 (Macintosh; Intel Mac OS X 10_15_7) AppleWebKit/605.1.15 (KHTML, like Gecko) Version/17.6 Safari/605.1.15",Macintosh,Safari,17.6,OS X,10_15_7,https://5puzkbbxv1.cognition.run/?sona_id=57455,"en-US,en;q=0.9",p2kp2a603d3jumr,18,"[""Black or African-American""]",No,Female,Ethiopia- 11 years,No,1299658,NA,null,<p></p>,null,choice,cdt,trinary,repulsion_B,2,washing machines,null,null,null,null,null,null,2,NA,NA,NA,NA,NA,NA,NA,NA,NA,NA
NA,NA,NA,NA,NA,choice_trial,survey-html-form,45,489832,0.0-4.0-1.20,141,1,2025-05-02T23:15:48Z,b60275e29fe2361ab97ac0ac217840d7,"Mozilla/5.0 (Macintosh; Intel Mac OS X 10_15_7) AppleWebKit/605.1.15 (KHTML, like Gecko) Version/17.6 Safari/605.1.15",Macintosh,Safari,17.6,OS X,10_15_7,https://5puzkbbxv1.cognition.run/?sona_id=57455,"en-US,en;q=0.9",p2kp2a603d3jumr,18,"[""Black or African-American""]",No,Female,Ethiopia- 11 years,No,1299658,NA,9590,NA,"{""product_choice"":""A""}",choice,cdt,trinary,repulsion_B,2,washing machines,null,null,null,null,null,null,2,40,30,40,90,100,80,Average lifespan,Energy savings,NA,NA
NA,NA,NA,NA,NA,choice_trial_setup,html-keyboard-response,46,490134,0.0-4.0-0.21,141,1,2025-05-02T23:15:48Z,b60275e29fe2361ab97ac0ac217840d7,"Mozilla/5.0 (Macintosh; Intel Mac OS X 10_15_7) AppleWebKit/605.1.15 (KHTML, like Gecko) Version/17.6 Safari/605.1.15",Macintosh,Safari,17.6,OS X,10_15_7,https://5puzkbbxv1.cognition.run/?sona_id=57455,"en-US,en;q=0.9",p2kp2a603d3jumr,18,"[""Black or African-American""]",No,Female,Ethiopia- 11 years,No,1299658,NA,null,<p></p>,null,choice,wb,binary,catch,null,washing machines,70,50,30,40,null,null,1,NA,NA,NA,NA,NA,NA,NA,NA,NA,NA
NA,NA,NA,NA,NA,choice_trial,survey-html-form,47,500749,0.0-4.0-1.21,141,1,2025-05-02T23:15:48Z,b60275e29fe2361ab97ac0ac217840d7,"Mozilla/5.0 (Macintosh; Intel Mac OS X 10_15_7) AppleWebKit/605.1.15 (KHTML, like Gecko) Version/17.6 Safari/605.1.15",Macintosh,Safari,17.6,OS X,10_15_7,https://5puzkbbxv1.cognition.run/?sona_id=57455,"en-US,en;q=0.9",p2kp2a603d3jumr,18,"[""Black or African-American""]",No,Female,Ethiopia- 11 years,No,1299658,NA,10612,NA,"{""product_choice"":""B""}",choice,wb,binary,catch,null,washing machines,70,50,30,40,null,null,1,null,null,null,null,null,null,Average lifespan,Energy savings,NA,NA
NA,NA,NA,NA,NA,choice_trial_setup,html-keyboard-response,48,501052,0.0-4.0-0.22,141,1,2025-05-02T23:15:48Z,b60275e29fe2361ab97ac0ac217840d7,"Mozilla/5.0 (Macintosh; Intel Mac OS X 10_15_7) AppleWebKit/605.1.15 (KHTML, like Gecko) Version/17.6 Safari/605.1.15",Macintosh,Safari,17.6,OS X,10_15_7,https://5puzkbbxv1.cognition.run/?sona_id=57455,"en-US,en;q=0.9",p2kp2a603d3jumr,18,"[""Black or African-American""]",No,Female,Ethiopia- 11 years,No,1299658,NA,null,<p></p>,null,choice,dtc,trinary,repulsion_B,2,televisions,null,null,null,null,null,null,2,NA,NA,NA,NA,NA,NA,NA,NA,NA,NA
NA,NA,NA,NA,NA,choice_trial,survey-html-form,49,517850,0.0-4.0-1.22,141,1,2025-05-02T23:15:48Z,b60275e29fe2361ab97ac0ac217840d7,"Mozilla/5.0 (Macintosh; Intel Mac OS X 10_15_7) AppleWebKit/605.1.15 (KHTML, like Gecko) Version/17.6 Safari/605.1.15",Macintosh,Safari,17.6,OS X,10_15_7,https://5puzkbbxv1.cognition.run/?sona_id=57455,"en-US,en;q=0.9",p2kp2a603d3jumr,18,"[""Black or African-American""]",No,Female,Ethiopia- 11 years,No,1299658,NA,16793,NA,"{""product_choice"":""C""}",choice,dtc,trinary,repulsion_B,2,televisions,null,null,null,null,null,null,2,40,30,40,90,100,80,Screen size,Average lifespan,NA,NA
NA,NA,NA,NA,NA,choice_trial_setup,html-keyboard-response,50,518153,0.0-4.0-0.23,141,1,2025-05-02T23:15:48Z,b60275e29fe2361ab97ac0ac217840d7,"Mozilla/5.0 (Macintosh; Intel Mac OS X 10_15_7) AppleWebKit/605.1.15 (KHTML, like Gecko) Version/17.6 Safari/605.1.15",Macintosh,Safari,17.6,OS X,10_15_7,https://5puzkbbxv1.cognition.run/?sona_id=57455,"en-US,en;q=0.9",p2kp2a603d3jumr,18,"[""Black or African-American""]",No,Female,Ethiopia- 11 years,No,1299658,NA,null,<p></p>,null,choice,dtc,trinary,attraction,2,microwave ovens,null,null,null,null,null,null,2,NA,NA,NA,NA,NA,NA,NA,NA,NA,NA
NA,NA,NA,NA,NA,choice_trial,survey-html-form,51,529016,0.0-4.0-1.23,141,1,2025-05-02T23:15:48Z,b60275e29fe2361ab97ac0ac217840d7,"Mozilla/5.0 (Macintosh; Intel Mac OS X 10_15_7) AppleWebKit/605.1.15 (KHTML, like Gecko) Version/17.6 Safari/605.1.15",Macintosh,Safari,17.6,OS X,10_15_7,https://5puzkbbxv1.cognition.run/?sona_id=57455,"en-US,en;q=0.9",p2kp2a603d3jumr,18,"[""Black or African-American""]",No,Female,Ethiopia- 11 years,No,1299658,NA,10860,NA,"{""product_choice"":""B""}",choice,dtc,trinary,attraction,2,microwave ovens,null,null,null,null,null,null,2,50,60,40,60,50,60,Warranty,Cooking power,NA,NA
NA,NA,NA,NA,NA,choice_trial_setup,html-keyboard-response,52,529320,0.0-4.0-0.24,141,1,2025-05-02T23:15:48Z,b60275e29fe2361ab97ac0ac217840d7,"Mozilla/5.0 (Macintosh; Intel Mac OS X 10_15_7) AppleWebKit/605.1.15 (KHTML, like Gecko) Version/17.6 Safari/605.1.15",Macintosh,Safari,17.6,OS X,10_15_7,https://5puzkbbxv1.cognition.run/?sona_id=57455,"en-US,en;q=0.9",p2kp2a603d3jumr,18,"[""Black or African-American""]",No,Female,Ethiopia- 11 years,No,1299658,NA,null,<p></p>,null,choice,tc,binary,repulsion,2,televisions,null,null,null,null,null,null,1,NA,NA,NA,NA,NA,NA,NA,NA,NA,NA
NA,NA,NA,NA,NA,choice_trial,survey-html-form,53,547389,0.0-4.0-1.24,141,1,2025-05-02T23:15:48Z,b60275e29fe2361ab97ac0ac217840d7,"Mozilla/5.0 (Macintosh; Intel Mac OS X 10_15_7) AppleWebKit/605.1.15 (KHTML, like Gecko) Version/17.6 Safari/605.1.15",Macintosh,Safari,17.6,OS X,10_15_7,https://5puzkbbxv1.cognition.run/?sona_id=57455,"en-US,en;q=0.9",p2kp2a603d3jumr,18,"[""Black or African-American""]",No,Female,Ethiopia- 11 years,No,1299658,NA,18064,NA,"{""product_choice"":""B""}",choice,tc,binary,repulsion,2,televisions,null,null,null,null,null,null,1,30,40,null,100,90,null,Screen size,Average lifespan,NA,NA
NA,NA,NA,NA,NA,choice_trial_setup,html-keyboard-response,54,547693,0.0-4.0-0.25,141,1,2025-05-02T23:15:48Z,b60275e29fe2361ab97ac0ac217840d7,"Mozilla/5.0 (Macintosh; Intel Mac OS X 10_15_7) AppleWebKit/605.1.15 (KHTML, like Gecko) Version/17.6 Safari/605.1.15",Macintosh,Safari,17.6,OS X,10_15_7,https://5puzkbbxv1.cognition.run/?sona_id=57455,"en-US,en;q=0.9",p2kp2a603d3jumr,18,"[""Black or African-American""]",No,Female,Ethiopia- 11 years,No,1299658,NA,null,<p></p>,null,choice,dtc,trinary,repulsion_B,1,microwave ovens,null,null,null,null,null,null,2,NA,NA,NA,NA,NA,NA,NA,NA,NA,NA
NA,NA,NA,NA,NA,choice_trial,survey-html-form,55,594603,0.0-4.0-1.25,141,1,2025-05-02T23:15:48Z,b60275e29fe2361ab97ac0ac217840d7,"Mozilla/5.0 (Macintosh; Intel Mac OS X 10_15_7) AppleWebKit/605.1.15 (KHTML, like Gecko) Version/17.6 Safari/605.1.15",Macintosh,Safari,17.6,OS X,10_15_7,https://5puzkbbxv1.cognition.run/?sona_id=57455,"en-US,en;q=0.9",p2kp2a603d3jumr,18,"[""Black or African-American""]",No,Female,Ethiopia- 11 years,No,1299658,NA,46905,NA,"{""product_choice"":""B""}",choice,dtc,trinary,repulsion_B,1,microwave ovens,null,null,null,null,null,null,2,90,100,80,40,30,40,Warranty,Cooking power,NA,NA
NA,NA,NA,NA,NA,choice_trial_setup,html-keyboard-response,56,594907,0.0-4.0-0.26,141,1,2025-05-02T23:15:48Z,b60275e29fe2361ab97ac0ac217840d7,"Mozilla/5.0 (Macintosh; Intel Mac OS X 10_15_7) AppleWebKit/605.1.15 (KHTML, like Gecko) Version/17.6 Safari/605.1.15",Macintosh,Safari,17.6,OS X,10_15_7,https://5puzkbbxv1.cognition.run/?sona_id=57455,"en-US,en;q=0.9",p2kp2a603d3jumr,18,"[""Black or African-American""]",No,Female,Ethiopia- 11 years,No,1299658,NA,null,<p></p>,null,choice,tc,binary,attraction,NA,washing machines,null,null,null,null,null,null,1,NA,NA,NA,NA,NA,NA,NA,NA,NA,NA
NA,NA,NA,NA,NA,choice_trial,survey-html-form,57,602243,0.0-4.0-1.26,141,1,2025-05-02T23:15:48Z,b60275e29fe2361ab97ac0ac217840d7,"Mozilla/5.0 (Macintosh; Intel Mac OS X 10_15_7) AppleWebKit/605.1.15 (KHTML, like Gecko) Version/17.6 Safari/605.1.15",Macintosh,Safari,17.6,OS X,10_15_7,https://5puzkbbxv1.cognition.run/?sona_id=57455,"en-US,en;q=0.9",p2kp2a603d3jumr,18,"[""Black or African-American""]",No,Female,Ethiopia- 11 years,No,1299658,NA,7331,NA,"{""product_choice"":""B""}",choice,tc,binary,attraction,NA,washing machines,null,null,null,null,null,null,1,60,50,null,50,60,null,Average lifespan,Energy savings,NA,NA
NA,NA,NA,NA,NA,choice_trial_setup,html-keyboard-response,58,602548,0.0-4.0-0.27,141,1,2025-05-02T23:15:48Z,b60275e29fe2361ab97ac0ac217840d7,"Mozilla/5.0 (Macintosh; Intel Mac OS X 10_15_7) AppleWebKit/605.1.15 (KHTML, like Gecko) Version/17.6 Safari/605.1.15",Macintosh,Safari,17.6,OS X,10_15_7,https://5puzkbbxv1.cognition.run/?sona_id=57455,"en-US,en;q=0.9",p2kp2a603d3jumr,18,"[""Black or African-American""]",No,Female,Ethiopia- 11 years,No,1299658,NA,null,<p></p>,null,choice,tdc,trinary,repulsion_B,1,laptops,null,null,null,null,null,null,1,NA,NA,NA,NA,NA,NA,NA,NA,NA,NA
NA,NA,NA,NA,NA,choice_trial,survey-html-form,59,618584,0.0-4.0-1.27,141,1,2025-05-02T23:15:48Z,b60275e29fe2361ab97ac0ac217840d7,"Mozilla/5.0 (Macintosh; Intel Mac OS X 10_15_7) AppleWebKit/605.1.15 (KHTML, like Gecko) Version/17.6 Safari/605.1.15",Macintosh,Safari,17.6,OS X,10_15_7,https://5puzkbbxv1.cognition.run/?sona_id=57455,"en-US,en;q=0.9",p2kp2a603d3jumr,18,"[""Black or African-American""]",No,Female,Ethiopia- 11 years,No,1299658,NA,16031,NA,"{""product_choice"":""A""}",choice,tdc,trinary,repulsion_B,1,laptops,null,null,null,null,null,null,1,90,100,80,40,30,40,Processing speed,Memory (RAM),NA,NA
NA,NA,NA,NA,NA,choice_trial_setup,html-keyboard-response,60,618889,0.0-4.0-0.28,141,1,2025-05-02T23:15:48Z,b60275e29fe2361ab97ac0ac217840d7,"Mozilla/5.0 (Macintosh; Intel Mac OS X 10_15_7) AppleWebKit/605.1.15 (KHTML, like Gecko) Version/17.6 Safari/605.1.15",Macintosh,Safari,17.6,OS X,10_15_7,https://5puzkbbxv1.cognition.run/?sona_id=57455,"en-US,en;q=0.9",p2kp2a603d3jumr,18,"[""Black or African-American""]",No,Female,Ethiopia- 11 years,No,1299658,NA,null,<p></p>,null,choice,tc,binary,repulsion,1,washing machines,null,null,null,null,null,null,1,NA,NA,NA,NA,NA,NA,NA,NA,NA,NA
NA,NA,NA,NA,NA,choice_trial,survey-html-form,61,632292,0.0-4.0-1.28,141,1,2025-05-02T23:15:48Z,b60275e29fe2361ab97ac0ac217840d7,"Mozilla/5.0 (Macintosh; Intel Mac OS X 10_15_7) AppleWebKit/605.1.15 (KHTML, like Gecko) Version/17.6 Safari/605.1.15",Macintosh,Safari,17.6,OS X,10_15_7,https://5puzkbbxv1.cognition.run/?sona_id=57455,"en-US,en;q=0.9",p2kp2a603d3jumr,18,"[""Black or African-American""]",No,Female,Ethiopia- 11 years,No,1299658,NA,13398,NA,"{""product_choice"":""B""}",choice,tc,binary,repulsion,1,washing machines,null,null,null,null,null,null,1,100,90,null,30,40,null,Average lifespan,Energy savings,NA,NA
NA,NA,NA,NA,NA,choice_trial_setup,html-keyboard-response,62,632596,0.0-4.0-0.29,141,1,2025-05-02T23:15:48Z,b60275e29fe2361ab97ac0ac217840d7,"Mozilla/5.0 (Macintosh; Intel Mac OS X 10_15_7) AppleWebKit/605.1.15 (KHTML, like Gecko) Version/17.6 Safari/605.1.15",Macintosh,Safari,17.6,OS X,10_15_7,https://5puzkbbxv1.cognition.run/?sona_id=57455,"en-US,en;q=0.9",p2kp2a603d3jumr,18,"[""Black or African-American""]",No,Female,Ethiopia- 11 years,No,1299658,NA,null,<p></p>,null,choice,wwb,trinary,catch,null,televisions,65,90,30,35,15,5,2,NA,NA,NA,NA,NA,NA,NA,NA,NA,NA
NA,NA,NA,NA,NA,choice_trial,survey-html-form,63,644624,0.0-4.0-1.29,141,1,2025-05-02T23:15:48Z,b60275e29fe2361ab97ac0ac217840d7,"Mozilla/5.0 (Macintosh; Intel Mac OS X 10_15_7) AppleWebKit/605.1.15 (KHTML, like Gecko) Version/17.6 Safari/605.1.15",Macintosh,Safari,17.6,OS X,10_15_7,https://5puzkbbxv1.cognition.run/?sona_id=57455,"en-US,en;q=0.9",p2kp2a603d3jumr,18,"[""Black or African-American""]",No,Female,Ethiopia- 11 years,No,1299658,NA,12017,NA,"{""product_choice"":""C""}",choice,wwb,trinary,catch,null,televisions,65,90,30,35,15,5,2,null,null,null,null,null,null,Screen size,Average lifespan,NA,NA
NA,NA,NA,NA,NA,choice_trial_setup,html-keyboard-response,64,644929,0.0-4.0-0.30,141,1,2025-05-02T23:15:48Z,b60275e29fe2361ab97ac0ac217840d7,"Mozilla/5.0 (Macintosh; Intel Mac OS X 10_15_7) AppleWebKit/605.1.15 (KHTML, like Gecko) Version/17.6 Safari/605.1.15",Macintosh,Safari,17.6,OS X,10_15_7,https://5puzkbbxv1.cognition.run/?sona_id=57455,"en-US,en;q=0.9",p2kp2a603d3jumr,18,"[""Black or African-American""]",No,Female,Ethiopia- 11 years,No,1299658,NA,null,<p></p>,null,choice,cdt,trinary,repulsion_B,2,laptops,null,null,null,null,null,null,1,NA,NA,NA,NA,NA,NA,NA,NA,NA,NA
NA,NA,NA,NA,NA,choice_trial,survey-html-form,65,656636,0.0-4.0-1.30,141,1,2025-05-02T23:15:48Z,b60275e29fe2361ab97ac0ac217840d7,"Mozilla/5.0 (Macintosh; Intel Mac OS X 10_15_7) AppleWebKit/605.1.15 (KHTML, like Gecko) Version/17.6 Safari/605.1.15",Macintosh,Safari,17.6,OS X,10_15_7,https://5puzkbbxv1.cognition.run/?sona_id=57455,"en-US,en;q=0.9",p2kp2a603d3jumr,18,"[""Black or African-American""]",No,Female,Ethiopia- 11 years,No,1299658,NA,11701,NA,"{""product_choice"":""C""}",choice,cdt,trinary,repulsion_B,2,laptops,null,null,null,null,null,null,1,40,30,40,90,100,80,Processing speed,Memory (RAM),NA,NA
NA,NA,NA,NA,NA,choice_trial_setup,html-keyboard-response,66,656915,0.0-4.0-0.31,141,1,2025-05-02T23:15:48Z,b60275e29fe2361ab97ac0ac217840d7,"Mozilla/5.0 (Macintosh; Intel Mac OS X 10_15_7) AppleWebKit/605.1.15 (KHTML, like Gecko) Version/17.6 Safari/605.1.15",Macintosh,Safari,17.6,OS X,10_15_7,https://5puzkbbxv1.cognition.run/?sona_id=57455,"en-US,en;q=0.9",p2kp2a603d3jumr,18,"[""Black or African-American""]",No,Female,Ethiopia- 11 years,No,1299658,NA,276,<p></p>,control,choice,cdt,trinary,repulsion_A,2,laptops,null,null,null,null,null,null,2,NA,NA,NA,NA,NA,NA,NA,NA,NA,NA
NA,NA,NA,NA,NA,choice_trial,survey-html-form,67,707035,0.0-4.0-1.31,141,1,2025-05-02T23:15:48Z,b60275e29fe2361ab97ac0ac217840d7,"Mozilla/5.0 (Macintosh; Intel Mac OS X 10_15_7) AppleWebKit/605.1.15 (KHTML, like Gecko) Version/17.6 Safari/605.1.15",Macintosh,Safari,17.6,OS X,10_15_7,https://5puzkbbxv1.cognition.run/?sona_id=57455,"en-US,en;q=0.9",p2kp2a603d3jumr,18,"[""Black or African-American""]",No,Female,Ethiopia- 11 years,No,1299658,NA,50116,NA,"{""product_choice"":""A""}",choice,cdt,trinary,repulsion_A,2,laptops,null,null,null,null,null,null,2,30,40,20,100,90,100,Processing speed,Memory (RAM),NA,NA
NA,NA,NA,NA,NA,choice_trial_setup,html-keyboard-response,68,707339,0.0-4.0-0.32,141,1,2025-05-02T23:15:48Z,b60275e29fe2361ab97ac0ac217840d7,"Mozilla/5.0 (Macintosh; Intel Mac OS X 10_15_7) AppleWebKit/605.1.15 (KHTML, like Gecko) Version/17.6 Safari/605.1.15",Macintosh,Safari,17.6,OS X,10_15_7,https://5puzkbbxv1.cognition.run/?sona_id=57455,"en-US,en;q=0.9",p2kp2a603d3jumr,18,"[""Black or African-American""]",No,Female,Ethiopia- 11 years,No,1299658,NA,null,<p></p>,null,choice,cdt,trinary,attraction,2,washing machines,null,null,null,null,null,null,1,NA,NA,NA,NA,NA,NA,NA,NA,NA,NA
NA,NA,NA,NA,NA,choice_trial,survey-html-form,69,742957,0.0-4.0-1.32,141,1,2025-05-02T23:15:48Z,b60275e29fe2361ab97ac0ac217840d7,"Mozilla/5.0 (Macintosh; Intel Mac OS X 10_15_7) AppleWebKit/605.1.15 (KHTML, like Gecko) Version/17.6 Safari/605.1.15",Macintosh,Safari,17.6,OS X,10_15_7,https://5puzkbbxv1.cognition.run/?sona_id=57455,"en-US,en;q=0.9",p2kp2a603d3jumr,18,"[""Black or African-American""]",No,Female,Ethiopia- 11 years,No,1299658,NA,35613,NA,"{""product_choice"":""C""}",choice,cdt,trinary,attraction,2,washing machines,null,null,null,null,null,null,1,50,60,40,60,50,60,Average lifespan,Energy savings,NA,NA
NA,NA,NA,NA,NA,choice_trial_setup,html-keyboard-response,70,743260,0.0-4.0-0.33,141,1,2025-05-02T23:15:48Z,b60275e29fe2361ab97ac0ac217840d7,"Mozilla/5.0 (Macintosh; Intel Mac OS X 10_15_7) AppleWebKit/605.1.15 (KHTML, like Gecko) Version/17.6 Safari/605.1.15",Macintosh,Safari,17.6,OS X,10_15_7,https://5puzkbbxv1.cognition.run/?sona_id=57455,"en-US,en;q=0.9",p2kp2a603d3jumr,18,"[""Black or African-American""]",No,Female,Ethiopia- 11 years,No,1299658,NA,null,<p></p>,null,choice,tc,binary,repulsion,2,washing machines,null,null,null,null,null,null,1,NA,NA,NA,NA,NA,NA,NA,NA,NA,NA
NA,NA,NA,NA,NA,choice_trial,survey-html-form,71,930130,0.0-4.0-1.33,141,1,2025-05-02T23:15:48Z,b60275e29fe2361ab97ac0ac217840d7,"Mozilla/5.0 (Macintosh; Intel Mac OS X 10_15_7) AppleWebKit/605.1.15 (KHTML, like Gecko) Version/17.6 Safari/605.1.15",Macintosh,Safari,17.6,OS X,10_15_7,https://5puzkbbxv1.cognition.run/?sona_id=57455,"en-US,en;q=0.9",p2kp2a603d3jumr,18,"[""Black or African-American""]",No,Female,Ethiopia- 11 years,No,1299658,NA,186865,NA,"{""product_choice"":""A""}",choice,tc,binary,repulsion,2,washing machines,null,null,null,null,null,null,1,30,40,null,100,90,null,Average lifespan,Energy savings,NA,NA
NA,NA,NA,NA,NA,choice_trial_setup,html-keyboard-response,72,930434,0.0-4.0-0.34,141,1,2025-05-02T23:15:48Z,b60275e29fe2361ab97ac0ac217840d7,"Mozilla/5.0 (Macintosh; Intel Mac OS X 10_15_7) AppleWebKit/605.1.15 (KHTML, like Gecko) Version/17.6 Safari/605.1.15",Macintosh,Safari,17.6,OS X,10_15_7,https://5puzkbbxv1.cognition.run/?sona_id=57455,"en-US,en;q=0.9",p2kp2a603d3jumr,18,"[""Black or African-American""]",No,Female,Ethiopia- 11 years,No,1299658,NA,null,<p></p>,null,choice,ct,binary,repulsion,1,microwave ovens,null,null,null,null,null,null,2,NA,NA,NA,NA,NA,NA,NA,NA,NA,NA
NA,NA,NA,NA,NA,choice_trial,survey-html-form,73,945640,0.0-4.0-1.34,141,1,2025-05-02T23:15:48Z,b60275e29fe2361ab97ac0ac217840d7,"Mozilla/5.0 (Macintosh; Intel Mac OS X 10_15_7) AppleWebKit/605.1.15 (KHTML, like Gecko) Version/17.6 Safari/605.1.15",Macintosh,Safari,17.6,OS X,10_15_7,https://5puzkbbxv1.cognition.run/?sona_id=57455,"en-US,en;q=0.9",p2kp2a603d3jumr,18,"[""Black or African-American""]",No,Female,Ethiopia- 11 years,No,1299658,NA,15201,NA,"{""product_choice"":""B""}",choice,ct,binary,repulsion,1,microwave ovens,null,null,null,null,null,null,2,100,90,null,30,40,null,Warranty,Cooking power,NA,NA
NA,NA,NA,NA,NA,choice_trial_setup,html-keyboard-response,74,945945,0.0-4.0-0.35,141,1,2025-05-02T23:15:48Z,b60275e29fe2361ab97ac0ac217840d7,"Mozilla/5.0 (Macintosh; Intel Mac OS X 10_15_7) AppleWebKit/605.1.15 (KHTML, like Gecko) Version/17.6 Safari/605.1.15",Macintosh,Safari,17.6,OS X,10_15_7,https://5puzkbbxv1.cognition.run/?sona_id=57455,"en-US,en;q=0.9",p2kp2a603d3jumr,18,"[""Black or African-American""]",No,Female,Ethiopia- 11 years,No,1299658,NA,null,<p></p>,null,choice,tc,binary,attraction,NA,televisions,null,null,null,null,null,null,2,NA,NA,NA,NA,NA,NA,NA,NA,NA,NA
NA,NA,NA,NA,NA,choice_trial,survey-html-form,75,953141,0.0-4.0-1.35,141,1,2025-05-02T23:15:48Z,b60275e29fe2361ab97ac0ac217840d7,"Mozilla/5.0 (Macintosh; Intel Mac OS X 10_15_7) AppleWebKit/605.1.15 (KHTML, like Gecko) Version/17.6 Safari/605.1.15",Macintosh,Safari,17.6,OS X,10_15_7,https://5puzkbbxv1.cognition.run/?sona_id=57455,"en-US,en;q=0.9",p2kp2a603d3jumr,18,"[""Black or African-American""]",No,Female,Ethiopia- 11 years,No,1299658,NA,7190,NA,"{""product_choice"":""A""}",choice,tc,binary,attraction,NA,televisions,null,null,null,null,null,null,2,60,50,null,50,60,null,Screen size,Average lifespan,NA,NA
NA,NA,NA,NA,NA,choice_trial_setup,html-keyboard-response,76,953445,0.0-4.0-0.36,141,1,2025-05-02T23:15:48Z,b60275e29fe2361ab97ac0ac217840d7,"Mozilla/5.0 (Macintosh; Intel Mac OS X 10_15_7) AppleWebKit/605.1.15 (KHTML, like Gecko) Version/17.6 Safari/605.1.15",Macintosh,Safari,17.6,OS X,10_15_7,https://5puzkbbxv1.cognition.run/?sona_id=57455,"en-US,en;q=0.9",p2kp2a603d3jumr,18,"[""Black or African-American""]",No,Female,Ethiopia- 11 years,No,1299658,NA,null,<p></p>,null,choice,tcd,trinary,repulsion_B,2,microwave ovens,null,null,null,null,null,null,2,NA,NA,NA,NA,NA,NA,NA,NA,NA,NA
NA,NA,NA,NA,NA,choice_trial,survey-html-form,77,964073,0.0-4.0-1.36,141,1,2025-05-02T23:15:48Z,b60275e29fe2361ab97ac0ac217840d7,"Mozilla/5.0 (Macintosh; Intel Mac OS X 10_15_7) AppleWebKit/605.1.15 (KHTML, like Gecko) Version/17.6 Safari/605.1.15",Macintosh,Safari,17.6,OS X,10_15_7,https://5puzkbbxv1.cognition.run/?sona_id=57455,"en-US,en;q=0.9",p2kp2a603d3jumr,18,"[""Black or African-American""]",No,Female,Ethiopia- 11 years,No,1299658,NA,10622,NA,"{""product_choice"":""B""}",choice,tcd,trinary,repulsion_B,2,microwave ovens,null,null,null,null,null,null,2,40,30,40,90,100,80,Warranty,Cooking power,NA,NA
NA,NA,NA,NA,NA,choice_trial_setup,html-keyboard-response,78,964377,0.0-4.0-0.37,141,1,2025-05-02T23:15:48Z,b60275e29fe2361ab97ac0ac217840d7,"Mozilla/5.0 (Macintosh; Intel Mac OS X 10_15_7) AppleWebKit/605.1.15 (KHTML, like Gecko) Version/17.6 Safari/605.1.15",Macintosh,Safari,17.6,OS X,10_15_7,https://5puzkbbxv1.cognition.run/?sona_id=57455,"en-US,en;q=0.9",p2kp2a603d3jumr,18,"[""Black or African-American""]",No,Female,Ethiopia- 11 years,No,1299658,NA,null,<p></p>,null,choice,cdt,trinary,repulsion_A,1,microwave ovens,null,null,null,null,null,null,1,NA,NA,NA,NA,NA,NA,NA,NA,NA,NA
NA,NA,NA,NA,NA,choice_trial,survey-html-form,79,1005156,0.0-4.0-1.37,141,1,2025-05-02T23:15:48Z,b60275e29fe2361ab97ac0ac217840d7,"Mozilla/5.0 (Macintosh; Intel Mac OS X 10_15_7) AppleWebKit/605.1.15 (KHTML, like Gecko) Version/17.6 Safari/605.1.15",Macintosh,Safari,17.6,OS X,10_15_7,https://5puzkbbxv1.cognition.run/?sona_id=57455,"en-US,en;q=0.9",p2kp2a603d3jumr,18,"[""Black or African-American""]",No,Female,Ethiopia- 11 years,No,1299658,NA,40773,NA,"{""product_choice"":""A""}",choice,cdt,trinary,repulsion_A,1,microwave ovens,null,null,null,null,null,null,1,100,90,100,30,40,20,Warranty,Cooking power,NA,NA
NA,NA,NA,NA,NA,choice_trial_setup,html-keyboard-response,80,1005460,0.0-4.0-0.38,141,1,2025-05-02T23:15:48Z,b60275e29fe2361ab97ac0ac217840d7,"Mozilla/5.0 (Macintosh; Intel Mac OS X 10_15_7) AppleWebKit/605.1.15 (KHTML, like Gecko) Version/17.6 Safari/605.1.15",Macintosh,Safari,17.6,OS X,10_15_7,https://5puzkbbxv1.cognition.run/?sona_id=57455,"en-US,en;q=0.9",p2kp2a603d3jumr,18,"[""Black or African-American""]",No,Female,Ethiopia- 11 years,No,1299658,NA,null,<p></p>,null,choice,tdc,trinary,repulsion_B,1,televisions,null,null,null,null,null,null,1,NA,NA,NA,NA,NA,NA,NA,NA,NA,NA
NA,NA,NA,NA,NA,choice_trial,survey-html-form,81,1023474,0.0-4.0-1.38,141,1,2025-05-02T23:15:48Z,b60275e29fe2361ab97ac0ac217840d7,"Mozilla/5.0 (Macintosh; Intel Mac OS X 10_15_7) AppleWebKit/605.1.15 (KHTML, like Gecko) Version/17.6 Safari/605.1.15",Macintosh,Safari,17.6,OS X,10_15_7,https://5puzkbbxv1.cognition.run/?sona_id=57455,"en-US,en;q=0.9",p2kp2a603d3jumr,18,"[""Black or African-American""]",No,Female,Ethiopia- 11 years,No,1299658,NA,18008,NA,"{""product_choice"":""C""}",choice,tdc,trinary,repulsion_B,1,televisions,null,null,null,null,null,null,1,90,100,80,40,30,40,Screen size,Average lifespan,NA,NA
NA,NA,NA,NA,NA,choice_trial_setup,html-keyboard-response,82,1023779,0.0-4.0-0.39,141,1,2025-05-02T23:15:48Z,b60275e29fe2361ab97ac0ac217840d7,"Mozilla/5.0 (Macintosh; Intel Mac OS X 10_15_7) AppleWebKit/605.1.15 (KHTML, like Gecko) Version/17.6 Safari/605.1.15",Macintosh,Safari,17.6,OS X,10_15_7,https://5puzkbbxv1.cognition.run/?sona_id=57455,"en-US,en;q=0.9",p2kp2a603d3jumr,18,"[""Black or African-American""]",No,Female,Ethiopia- 11 years,No,1299658,NA,null,<p></p>,null,choice,dct,trinary,repulsion_A,2,televisions,null,null,null,null,null,null,1,NA,NA,NA,NA,NA,NA,NA,NA,NA,NA
NA,NA,NA,NA,NA,choice_trial,survey-html-form,83,1036557,0.0-4.0-1.39,141,1,2025-05-02T23:15:48Z,b60275e29fe2361ab97ac0ac217840d7,"Mozilla/5.0 (Macintosh; Intel Mac OS X 10_15_7) AppleWebKit/605.1.15 (KHTML, like Gecko) Version/17.6 Safari/605.1.15",Macintosh,Safari,17.6,OS X,10_15_7,https://5puzkbbxv1.cognition.run/?sona_id=57455,"en-US,en;q=0.9",p2kp2a603d3jumr,18,"[""Black or African-American""]",No,Female,Ethiopia- 11 years,No,1299658,NA,12772,NA,"{""product_choice"":""C""}",choice,dct,trinary,repulsion_A,2,televisions,null,null,null,null,null,null,1,30,40,20,100,90,100,Screen size,Average lifespan,NA,NA
NA,NA,NA,NA,NA,choice_trial_setup,html-keyboard-response,84,1036861,0.0-4.0-0.40,141,1,2025-05-02T23:15:48Z,b60275e29fe2361ab97ac0ac217840d7,"Mozilla/5.0 (Macintosh; Intel Mac OS X 10_15_7) AppleWebKit/605.1.15 (KHTML, like Gecko) Version/17.6 Safari/605.1.15",Macintosh,Safari,17.6,OS X,10_15_7,https://5puzkbbxv1.cognition.run/?sona_id=57455,"en-US,en;q=0.9",p2kp2a603d3jumr,18,"[""Black or African-American""]",No,Female,Ethiopia- 11 years,No,1299658,NA,null,<p></p>,null,choice,bww,trinary,catch,null,laptops,70,70,50,40,20,40,1,NA,NA,NA,NA,NA,NA,NA,NA,NA,NA
NA,NA,NA,NA,NA,choice_trial,survey-html-form,85,1043720,0.0-4.0-1.40,141,1,2025-05-02T23:15:48Z,b60275e29fe2361ab97ac0ac217840d7,"Mozilla/5.0 (Macintosh; Intel Mac OS X 10_15_7) AppleWebKit/605.1.15 (KHTML, like Gecko) Version/17.6 Safari/605.1.15",Macintosh,Safari,17.6,OS X,10_15_7,https://5puzkbbxv1.cognition.run/?sona_id=57455,"en-US,en;q=0.9",p2kp2a603d3jumr,18,"[""Black or African-American""]",No,Female,Ethiopia- 11 years,No,1299658,NA,6852,NA,"{""product_choice"":""A""}",choice,bww,trinary,catch,null,laptops,70,70,50,40,20,40,1,null,null,null,null,null,null,Processing speed,Memory (RAM),NA,NA
NA,NA,NA,NA,NA,choice_trial_setup,html-keyboard-response,86,1044023,0.0-4.0-0.41,141,1,2025-05-02T23:15:48Z,b60275e29fe2361ab97ac0ac217840d7,"Mozilla/5.0 (Macintosh; Intel Mac OS X 10_15_7) AppleWebKit/605.1.15 (KHTML, like Gecko) Version/17.6 Safari/605.1.15",Macintosh,Safari,17.6,OS X,10_15_7,https://5puzkbbxv1.cognition.run/?sona_id=57455,"en-US,en;q=0.9",p2kp2a603d3jumr,18,"[""Black or African-American""]",No,Female,Ethiopia- 11 years,No,1299658,NA,null,<p></p>,null,choice,ctd,trinary,attraction,2,televisions,null,null,null,null,null,null,2,NA,NA,NA,NA,NA,NA,NA,NA,NA,NA
NA,NA,NA,NA,NA,choice_trial,survey-html-form,87,1085887,0.0-4.0-1.41,141,1,2025-05-02T23:15:48Z,b60275e29fe2361ab97ac0ac217840d7,"Mozilla/5.0 (Macintosh; Intel Mac OS X 10_15_7) AppleWebKit/605.1.15 (KHTML, like Gecko) Version/17.6 Safari/605.1.15",Macintosh,Safari,17.6,OS X,10_15_7,https://5puzkbbxv1.cognition.run/?sona_id=57455,"en-US,en;q=0.9",p2kp2a603d3jumr,18,"[""Black or African-American""]",No,Female,Ethiopia- 11 years,No,1299658,NA,41860,NA,"{""product_choice"":""A""}",choice,ctd,trinary,attraction,2,televisions,null,null,null,null,null,null,2,50,60,40,60,50,60,Screen size,Average lifespan,NA,NA
NA,NA,NA,NA,NA,choice_trial_setup,html-keyboard-response,88,1086192,0.0-4.0-0.42,141,1,2025-05-02T23:15:48Z,b60275e29fe2361ab97ac0ac217840d7,"Mozilla/5.0 (Macintosh; Intel Mac OS X 10_15_7) AppleWebKit/605.1.15 (KHTML, like Gecko) Version/17.6 Safari/605.1.15",Macintosh,Safari,17.6,OS X,10_15_7,https://5puzkbbxv1.cognition.run/?sona_id=57455,"en-US,en;q=0.9",p2kp2a603d3jumr,18,"[""Black or African-American""]",No,Female,Ethiopia- 11 years,No,1299658,NA,null,<p></p>,null,choice,dtc,trinary,repulsion_A,2,washing machines,null,null,null,null,null,null,2,NA,NA,NA,NA,NA,NA,NA,NA,NA,NA
NA,NA,NA,NA,NA,choice_trial,survey-html-form,89,1099570,0.0-4.0-1.42,141,1,2025-05-02T23:15:48Z,b60275e29fe2361ab97ac0ac217840d7,"Mozilla/5.0 (Macintosh; Intel Mac OS X 10_15_7) AppleWebKit/605.1.15 (KHTML, like Gecko) Version/17.6 Safari/605.1.15",Macintosh,Safari,17.6,OS X,10_15_7,https://5puzkbbxv1.cognition.run/?sona_id=57455,"en-US,en;q=0.9",p2kp2a603d3jumr,18,"[""Black or African-American""]",No,Female,Ethiopia- 11 years,No,1299658,NA,13372,NA,"{""product_choice"":""B""}",choice,dtc,trinary,repulsion_A,2,washing machines,null,null,null,null,null,null,2,30,40,20,100,90,100,Average lifespan,Energy savings,NA,NA
NA,NA,NA,NA,NA,choice_trial_setup,html-keyboard-response,90,1099873,0.0-4.0-0.43,141,1,2025-05-02T23:15:48Z,b60275e29fe2361ab97ac0ac217840d7,"Mozilla/5.0 (Macintosh; Intel Mac OS X 10_15_7) AppleWebKit/605.1.15 (KHTML, like Gecko) Version/17.6 Safari/605.1.15",Macintosh,Safari,17.6,OS X,10_15_7,https://5puzkbbxv1.cognition.run/?sona_id=57455,"en-US,en;q=0.9",p2kp2a603d3jumr,18,"[""Black or African-American""]",No,Female,Ethiopia- 11 years,No,1299658,NA,null,<p></p>,null,choice,tdc,trinary,attraction,1,washing machines,null,null,null,null,null,null,2,NA,NA,NA,NA,NA,NA,NA,NA,NA,NA
NA,NA,NA,NA,NA,choice_trial,survey-html-form,91,1109968,0.0-4.0-1.43,141,1,2025-05-02T23:15:48Z,b60275e29fe2361ab97ac0ac217840d7,"Mozilla/5.0 (Macintosh; Intel Mac OS X 10_15_7) AppleWebKit/605.1.15 (KHTML, like Gecko) Version/17.6 Safari/605.1.15",Macintosh,Safari,17.6,OS X,10_15_7,https://5puzkbbxv1.cognition.run/?sona_id=57455,"en-US,en;q=0.9",p2kp2a603d3jumr,18,"[""Black or African-American""]",No,Female,Ethiopia- 11 years,No,1299658,NA,10090,NA,"{""product_choice"":""C""}",choice,tdc,trinary,attraction,1,washing machines,null,null,null,null,null,null,2,60,50,60,50,60,40,Average lifespan,Energy savings,NA,NA
NA,NA,NA,NA,NA,post_trials_message,html-button-response,92,1114571,0.0-5.0,141,1,2025-05-02T23:15:48Z,b60275e29fe2361ab97ac0ac217840d7,"Mozilla/5.0 (Macintosh; Intel Mac OS X 10_15_7) AppleWebKit/605.1.15 (KHTML, like Gecko) Version/17.6 Safari/605.1.15",Macintosh,Safari,17.6,OS X,10_15_7,https://5puzkbbxv1.cognition.run/?sona_id=57455,"en-US,en;q=0.9",p2kp2a603d3jumr,18,"[""Black or African-American""]",No,Female,Ethiopia- 11 years,No,1299658,NA,4599,<p> <b>Thank you for your patience!</b></p><p>  The study will be done after completing a brief form. </p>,0,NA,NA,NA,NA,NA,NA,NA,NA,NA,NA,NA,NA,NA,NA,NA,NA,NA,NA,NA,NA,NA,NA,NA
NA,NA,NA,NA,NA,survey_message,survey-text,93,1235125,0.0-6.0,141,1,2025-05-02T23:15:48Z,b60275e29fe2361ab97ac0ac217840d7,"Mozilla/5.0 (Macintosh; Intel Mac OS X 10_15_7) AppleWebKit/605.1.15 (KHTML, like Gecko) Version/17.6 Safari/605.1.15",Macintosh,Safari,17.6,OS X,10_15_7,https://5puzkbbxv1.cognition.run/?sona_id=57455,"en-US,en;q=0.9",p2kp2a603d3jumr,18,"[""Black or African-American""]",No,Female,Ethiopia- 11 years,No,1299658,NA,120641,NA,"{""Q0"":""I choose based on what I thought was important like the size of the screen and the speed of the computer. then I also considered how long it would last so the warranty.""}",NA,NA,NA,NA,NA,NA,NA,NA,NA,NA,NA,NA,NA,NA,NA,NA,NA,NA,NA,NA,NA,I choose based on what I thought was important like the size of the screen and the speed of the computer. then I also considered how long it would last so the warranty.,NA
NA,NA,NA,NA,NA,demo_age,survey-text,94,1237410,0.0-7.0,141,1,2025-05-02T23:15:48Z,b60275e29fe2361ab97ac0ac217840d7,"Mozilla/5.0 (Macintosh; Intel Mac OS X 10_15_7) AppleWebKit/605.1.15 (KHTML, like Gecko) Version/17.6 Safari/605.1.15",Macintosh,Safari,17.6,OS X,10_15_7,https://5puzkbbxv1.cognition.run/?sona_id=57455,"en-US,en;q=0.9",p2kp2a603d3jumr,18,"[""Black or African-American""]",No,Female,Ethiopia- 11 years,No,1299658,NA,2279,NA,"{""Q0"":""18""}",NA,NA,NA,NA,NA,NA,NA,NA,NA,NA,NA,NA,NA,NA,NA,NA,NA,NA,NA,NA,NA,NA,NA
NA,NA,NA,NA,NA,demo_race,survey-multi-select,95,1240629,0.0-8.0,141,1,2025-05-02T23:15:48Z,b60275e29fe2361ab97ac0ac217840d7,"Mozilla/5.0 (Macintosh; Intel Mac OS X 10_15_7) AppleWebKit/605.1.15 (KHTML, like Gecko) Version/17.6 Safari/605.1.15",Macintosh,Safari,17.6,OS X,10_15_7,https://5puzkbbxv1.cognition.run/?sona_id=57455,"en-US,en;q=0.9",p2kp2a603d3jumr,18,"[""Black or African-American""]",No,Female,Ethiopia- 11 years,No,1299658,NA,3213,NA,"{""Q0"":[""Black or African-American""]}",NA,NA,NA,NA,NA,NA,NA,NA,NA,NA,NA,NA,NA,NA,NA,NA,NA,NA,NA,NA,NA,NA,[0]
NA,NA,NA,NA,NA,demo_ethnicity_gender,survey-multi-choice,96,1247629,0.0-9.0,141,1,2025-05-02T23:15:48Z,b60275e29fe2361ab97ac0ac217840d7,"Mozilla/5.0 (Macintosh; Intel Mac OS X 10_15_7) AppleWebKit/605.1.15 (KHTML, like Gecko) Version/17.6 Safari/605.1.15",Macintosh,Safari,17.6,OS X,10_15_7,https://5puzkbbxv1.cognition.run/?sona_id=57455,"en-US,en;q=0.9",p2kp2a603d3jumr,18,"[""Black or African-American""]",No,Female,Ethiopia- 11 years,No,1299658,NA,6995,NA,"{""Q0"":""No"",""Q1"":""Female""}",NA,NA,NA,NA,NA,NA,NA,NA,NA,NA,NA,NA,NA,NA,NA,NA,NA,NA,NA,NA,NA,NA,"[0,1]"
NA,NA,NA,NA,NA,demo_countries,survey-text,97,1272173,0.0-10.0,141,1,2025-05-02T23:15:48Z,b60275e29fe2361ab97ac0ac217840d7,"Mozilla/5.0 (Macintosh; Intel Mac OS X 10_15_7) AppleWebKit/605.1.15 (KHTML, like Gecko) Version/17.6 Safari/605.1.15",Macintosh,Safari,17.6,OS X,10_15_7,https://5puzkbbxv1.cognition.run/?sona_id=57455,"en-US,en;q=0.9",p2kp2a603d3jumr,18,"[""Black or African-American""]",No,Female,Ethiopia- 11 years,No,1299658,NA,24539,NA,"{""Q0"":""Ethiopia- 11 years ""}",NA,NA,NA,NA,NA,NA,NA,NA,NA,NA,NA,NA,NA,NA,NA,NA,NA,NA,NA,NA,NA,NA,NA
NA,NA,NA,NA,NA,demo_prev_study,survey-multi-choice,98,1284640,0.0-11.0,141,1,2025-05-02T23:15:48Z,b60275e29fe2361ab97ac0ac217840d7,"Mozilla/5.0 (Macintosh; Intel Mac OS X 10_15_7) AppleWebKit/605.1.15 (KHTML, like Gecko) Version/17.6 Safari/605.1.15",Macintosh,Safari,17.6,OS X,10_15_7,https://5puzkbbxv1.cognition.run/?sona_id=57455,"en-US,en;q=0.9",p2kp2a603d3jumr,18,"[""Black or African-American""]",No,Female,Ethiopia- 11 years,No,1299658,NA,12465,NA,"{""Q0"":""No""}",NA,NA,NA,NA,NA,NA,NA,NA,NA,NA,NA,NA,NA,NA,NA,NA,NA,NA,NA,NA,NA,NA,[0]
NA,NA,NA,NA,NA,post_survey_message,html-keyboard-response,99,1290889,0.0-12.0,141,1,2025-05-02T23:15:48Z,b60275e29fe2361ab97ac0ac217840d7,"Mozilla/5.0 (Macintosh; Intel Mac OS X 10_15_7) AppleWebKit/605.1.15 (KHTML, like Gecko) Version/17.6 Safari/605.1.15",Macintosh,Safari,17.6,OS X,10_15_7,https://5puzkbbxv1.cognition.run/?sona_id=57455,"en-US,en;q=0.9",p2kp2a603d3jumr,18,"[""Black or African-American""]",No,Female,Ethiopia- 11 years,No,1299658,NA,6244,NA,j,NA,NA,NA,NA,NA,NA,NA,NA,NA,NA,NA,NA,NA,NA,NA,NA,NA,NA,NA,NA,NA,NA,NA
NA,NA,NA,NA,NA,debrief,image-keyboard-response,100,1299535,0.0-13.0,141,1,2025-05-02T23:15:48Z,b60275e29fe2361ab97ac0ac217840d7,"Mozilla/5.0 (Macintosh; Intel Mac OS X 10_15_7) AppleWebKit/605.1.15 (KHTML, like Gecko) Version/17.6 Safari/605.1.15",Macintosh,Safari,17.6,OS X,10_15_7,https://5puzkbbxv1.cognition.run/?sona_id=57455,"en-US,en;q=0.9",p2kp2a603d3jumr,18,"[""Black or African-American""]",No,Female,Ethiopia- 11 years,No,1299658,NA,8608,Judg_choice_debrief.png,p,NA,NA,NA,NA,NA,NA,NA,NA,NA,NA,NA,NA,NA,NA,NA,NA,NA,NA,NA,NA,NA,NA,NA
