success,timeout,failed_images,failed_audio,failed_video,screen_id,trial_type,trial_index,time_elapsed,internal_node_id,run_id,condition,recorded_at,source_code_version,user_agent,device,browser,browser_version,platform,platform_version,referer,accept_language,ppt_id,age,race,ethnicity,gender,other_countries,prev_study,exp_duration,view_history,rt,stimulus,response,phase,order,set,effect,t_high,category,d1_best,d2_best,d1_worst1,d2_worst1,d1_worst2,d2_worst2,first_dim,d1_t,d1_c,d1_d,d2_t,d2_c,d2_d,d1_name,d2_name,strategy_response,question_order
TRUE,FALSE,[],[],[],img preload,preload,0,193,0.0-0.0,145,1,2025-05-03T21:22:18Z,b60275e29fe2361ab97ac0ac217840d7,"Mozilla/5.0 (Macintosh; Intel Mac OS X 10_15_7) AppleWebKit/605.1.15 (KHTML, like Gecko) Version/17.5 Safari/605.1.15",Macintosh,Safari,17.5,OS X,10_15_7,https://5puzkbbxv1.cognition.run/?sona_id=56890,"en-US,en;q=0.9",b8wzymdczqwxmfk,20,"[""White""]",No,Female,NA,Yes,153954.00000000003,NA,NA,NA,NA,NA,NA,NA,NA,NA,NA,NA,NA,NA,NA,NA,NA,NA,NA,NA,NA,NA,NA,NA,NA,NA,NA,NA
NA,NA,NA,NA,NA,computer_message,instructions,1,1124,0.0-1.0,145,1,2025-05-03T21:22:18Z,b60275e29fe2361ab97ac0ac217840d7,"Mozilla/5.0 (Macintosh; Intel Mac OS X 10_15_7) AppleWebKit/605.1.15 (KHTML, like Gecko) Version/17.5 Safari/605.1.15",Macintosh,Safari,17.5,OS X,10_15_7,https://5puzkbbxv1.cognition.run/?sona_id=56890,"en-US,en;q=0.9",b8wzymdczqwxmfk,20,"[""White""]",No,Female,NA,Yes,153954.00000000003,"[{""page_index"":0,""viewing_time"":928}]",929,NA,NA,NA,NA,NA,NA,NA,NA,NA,NA,NA,NA,NA,NA,NA,NA,NA,NA,NA,NA,NA,NA,NA,NA,NA
TRUE,NA,NA,NA,NA,NA,fullscreen,2,3000,0.0-2.0,145,1,2025-05-03T21:22:18Z,b60275e29fe2361ab97ac0ac217840d7,"Mozilla/5.0 (Macintosh; Intel Mac OS X 10_15_7) AppleWebKit/605.1.15 (KHTML, like Gecko) Version/17.5 Safari/605.1.15",Macintosh,Safari,17.5,OS X,10_15_7,https://5puzkbbxv1.cognition.run/?sona_id=56890,"en-US,en;q=0.9",b8wzymdczqwxmfk,20,"[""White""]",No,Female,NA,Yes,153954.00000000003,NA,868,NA,NA,NA,NA,NA,NA,NA,NA,NA,NA,NA,NA,NA,NA,NA,NA,NA,NA,NA,NA,NA,NA,NA,NA,NA
NA,NA,NA,NA,NA,choice_instructions,instructions,3,9138,0.0-3.0,145,1,2025-05-03T21:22:18Z,b60275e29fe2361ab97ac0ac217840d7,"Mozilla/5.0 (Macintosh; Intel Mac OS X 10_15_7) AppleWebKit/605.1.15 (KHTML, like Gecko) Version/17.5 Safari/605.1.15",Macintosh,Safari,17.5,OS X,10_15_7,https://5puzkbbxv1.cognition.run/?sona_id=56890,"en-US,en;q=0.9",b8wzymdczqwxmfk,20,"[""White""]",No,Female,NA,Yes,153954.00000000003,"[{""page_index"":0,""viewing_time"":966},{""page_index"":1,""viewing_time"":983},{""page_index"":2,""viewing_time"":975},{""page_index"":3,""viewing_time"":805},{""page_index"":4,""viewing_time"":513},{""page_index"":5,""viewing_time"":1134},{""page_index"":6,""viewing_time"":761}]",6137,NA,NA,NA,NA,NA,NA,NA,NA,NA,NA,NA,NA,NA,NA,NA,NA,NA,NA,NA,NA,NA,NA,NA,NA,NA
NA,NA,NA,NA,NA,choice_trial_setup,html-keyboard-response,4,9442,0.0-4.0-0.0,145,1,2025-05-03T21:22:18Z,b60275e29fe2361ab97ac0ac217840d7,"Mozilla/5.0 (Macintosh; Intel Mac OS X 10_15_7) AppleWebKit/605.1.15 (KHTML, like Gecko) Version/17.5 Safari/605.1.15",Macintosh,Safari,17.5,OS X,10_15_7,https://5puzkbbxv1.cognition.run/?sona_id=56890,"en-US,en;q=0.9",b8wzymdczqwxmfk,20,"[""White""]",No,Female,NA,Yes,153954.00000000003,NA,null,<p></p>,null,choice,ctd,trinary,repulsion_B,2,televisions,null,null,null,null,null,null,2,NA,NA,NA,NA,NA,NA,NA,NA,NA,NA
NA,NA,NA,NA,NA,choice_trial,survey-html-form,5,13916,0.0-4.0-1.0,145,1,2025-05-03T21:22:18Z,b60275e29fe2361ab97ac0ac217840d7,"Mozilla/5.0 (Macintosh; Intel Mac OS X 10_15_7) AppleWebKit/605.1.15 (KHTML, like Gecko) Version/17.5 Safari/605.1.15",Macintosh,Safari,17.5,OS X,10_15_7,https://5puzkbbxv1.cognition.run/?sona_id=56890,"en-US,en;q=0.9",b8wzymdczqwxmfk,20,"[""White""]",No,Female,NA,Yes,153954.00000000003,NA,4470,NA,"{""product_choice"":""B""}",choice,ctd,trinary,repulsion_B,2,televisions,null,null,null,null,null,null,2,40,30,40,90,100,80,Screen size,Average lifespan,NA,NA
NA,NA,NA,NA,NA,choice_trial_setup,html-keyboard-response,6,14218,0.0-4.0-0.1,145,1,2025-05-03T21:22:18Z,b60275e29fe2361ab97ac0ac217840d7,"Mozilla/5.0 (Macintosh; Intel Mac OS X 10_15_7) AppleWebKit/605.1.15 (KHTML, like Gecko) Version/17.5 Safari/605.1.15",Macintosh,Safari,17.5,OS X,10_15_7,https://5puzkbbxv1.cognition.run/?sona_id=56890,"en-US,en;q=0.9",b8wzymdczqwxmfk,20,"[""White""]",No,Female,NA,Yes,153954.00000000003,NA,null,<p></p>,null,choice,tc,binary,attraction,NA,televisions,null,null,null,null,null,null,2,NA,NA,NA,NA,NA,NA,NA,NA,NA,NA
NA,NA,NA,NA,NA,choice_trial,survey-html-form,7,16137,0.0-4.0-1.1,145,1,2025-05-03T21:22:18Z,b60275e29fe2361ab97ac0ac217840d7,"Mozilla/5.0 (Macintosh; Intel Mac OS X 10_15_7) AppleWebKit/605.1.15 (KHTML, like Gecko) Version/17.5 Safari/605.1.15",Macintosh,Safari,17.5,OS X,10_15_7,https://5puzkbbxv1.cognition.run/?sona_id=56890,"en-US,en;q=0.9",b8wzymdczqwxmfk,20,"[""White""]",No,Female,NA,Yes,153954.00000000003,NA,1917,NA,"{""product_choice"":""A""}",choice,tc,binary,attraction,NA,televisions,null,null,null,null,null,null,2,60,50,null,50,60,null,Screen size,Average lifespan,NA,NA
NA,NA,NA,NA,NA,choice_trial_setup,html-keyboard-response,8,16439,0.0-4.0-0.2,145,1,2025-05-03T21:22:18Z,b60275e29fe2361ab97ac0ac217840d7,"Mozilla/5.0 (Macintosh; Intel Mac OS X 10_15_7) AppleWebKit/605.1.15 (KHTML, like Gecko) Version/17.5 Safari/605.1.15",Macintosh,Safari,17.5,OS X,10_15_7,https://5puzkbbxv1.cognition.run/?sona_id=56890,"en-US,en;q=0.9",b8wzymdczqwxmfk,20,"[""White""]",No,Female,NA,Yes,153954.00000000003,NA,null,<p></p>,null,choice,tc,binary,repulsion,1,washing machines,null,null,null,null,null,null,2,NA,NA,NA,NA,NA,NA,NA,NA,NA,NA
NA,NA,NA,NA,NA,choice_trial,survey-html-form,9,18222,0.0-4.0-1.2,145,1,2025-05-03T21:22:18Z,b60275e29fe2361ab97ac0ac217840d7,"Mozilla/5.0 (Macintosh; Intel Mac OS X 10_15_7) AppleWebKit/605.1.15 (KHTML, like Gecko) Version/17.5 Safari/605.1.15",Macintosh,Safari,17.5,OS X,10_15_7,https://5puzkbbxv1.cognition.run/?sona_id=56890,"en-US,en;q=0.9",b8wzymdczqwxmfk,20,"[""White""]",No,Female,NA,Yes,153954.00000000003,NA,1781,NA,"{""product_choice"":""A""}",choice,tc,binary,repulsion,1,washing machines,null,null,null,null,null,null,2,100,90,null,30,40,null,Average lifespan,Energy savings,NA,NA
NA,NA,NA,NA,NA,choice_trial_setup,html-keyboard-response,10,18524,0.0-4.0-0.3,145,1,2025-05-03T21:22:18Z,b60275e29fe2361ab97ac0ac217840d7,"Mozilla/5.0 (Macintosh; Intel Mac OS X 10_15_7) AppleWebKit/605.1.15 (KHTML, like Gecko) Version/17.5 Safari/605.1.15",Macintosh,Safari,17.5,OS X,10_15_7,https://5puzkbbxv1.cognition.run/?sona_id=56890,"en-US,en;q=0.9",b8wzymdczqwxmfk,20,"[""White""]",No,Female,NA,Yes,153954.00000000003,NA,null,<p></p>,null,choice,ct,binary,repulsion,2,microwave ovens,null,null,null,null,null,null,2,NA,NA,NA,NA,NA,NA,NA,NA,NA,NA
NA,NA,NA,NA,NA,choice_trial,survey-html-form,11,19844,0.0-4.0-1.3,145,1,2025-05-03T21:22:18Z,b60275e29fe2361ab97ac0ac217840d7,"Mozilla/5.0 (Macintosh; Intel Mac OS X 10_15_7) AppleWebKit/605.1.15 (KHTML, like Gecko) Version/17.5 Safari/605.1.15",Macintosh,Safari,17.5,OS X,10_15_7,https://5puzkbbxv1.cognition.run/?sona_id=56890,"en-US,en;q=0.9",b8wzymdczqwxmfk,20,"[""White""]",No,Female,NA,Yes,153954.00000000003,NA,1318,NA,"{""product_choice"":""A""}",choice,ct,binary,repulsion,2,microwave ovens,null,null,null,null,null,null,2,30,40,null,100,90,null,Warranty,Cooking power,NA,NA
NA,NA,NA,NA,NA,choice_trial_setup,html-keyboard-response,12,20145,0.0-4.0-0.4,145,1,2025-05-03T21:22:18Z,b60275e29fe2361ab97ac0ac217840d7,"Mozilla/5.0 (Macintosh; Intel Mac OS X 10_15_7) AppleWebKit/605.1.15 (KHTML, like Gecko) Version/17.5 Safari/605.1.15",Macintosh,Safari,17.5,OS X,10_15_7,https://5puzkbbxv1.cognition.run/?sona_id=56890,"en-US,en;q=0.9",b8wzymdczqwxmfk,20,"[""White""]",No,Female,NA,Yes,153954.00000000003,NA,null,<p></p>,null,choice,ctd,trinary,repulsion_A,1,laptops,null,null,null,null,null,null,1,NA,NA,NA,NA,NA,NA,NA,NA,NA,NA
NA,NA,NA,NA,NA,choice_trial,survey-html-form,13,21619,0.0-4.0-1.4,145,1,2025-05-03T21:22:18Z,b60275e29fe2361ab97ac0ac217840d7,"Mozilla/5.0 (Macintosh; Intel Mac OS X 10_15_7) AppleWebKit/605.1.15 (KHTML, like Gecko) Version/17.5 Safari/605.1.15",Macintosh,Safari,17.5,OS X,10_15_7,https://5puzkbbxv1.cognition.run/?sona_id=56890,"en-US,en;q=0.9",b8wzymdczqwxmfk,20,"[""White""]",No,Female,NA,Yes,153954.00000000003,NA,1470,NA,"{""product_choice"":""B""}",choice,ctd,trinary,repulsion_A,1,laptops,null,null,null,null,null,null,1,100,90,100,30,40,20,Processing speed,Memory (RAM),NA,NA
NA,NA,NA,NA,NA,choice_trial_setup,html-keyboard-response,14,21920,0.0-4.0-0.5,145,1,2025-05-03T21:22:18Z,b60275e29fe2361ab97ac0ac217840d7,"Mozilla/5.0 (Macintosh; Intel Mac OS X 10_15_7) AppleWebKit/605.1.15 (KHTML, like Gecko) Version/17.5 Safari/605.1.15",Macintosh,Safari,17.5,OS X,10_15_7,https://5puzkbbxv1.cognition.run/?sona_id=56890,"en-US,en;q=0.9",b8wzymdczqwxmfk,20,"[""White""]",No,Female,NA,Yes,153954.00000000003,NA,null,<p></p>,null,choice,tdc,trinary,repulsion_B,2,washing machines,null,null,null,null,null,null,1,NA,NA,NA,NA,NA,NA,NA,NA,NA,NA
NA,NA,NA,NA,NA,choice_trial,survey-html-form,15,23662,0.0-4.0-1.5,145,1,2025-05-03T21:22:18Z,b60275e29fe2361ab97ac0ac217840d7,"Mozilla/5.0 (Macintosh; Intel Mac OS X 10_15_7) AppleWebKit/605.1.15 (KHTML, like Gecko) Version/17.5 Safari/605.1.15",Macintosh,Safari,17.5,OS X,10_15_7,https://5puzkbbxv1.cognition.run/?sona_id=56890,"en-US,en;q=0.9",b8wzymdczqwxmfk,20,"[""White""]",No,Female,NA,Yes,153954.00000000003,NA,1740,NA,"{""product_choice"":""B""}",choice,tdc,trinary,repulsion_B,2,washing machines,null,null,null,null,null,null,1,40,30,40,90,100,80,Average lifespan,Energy savings,NA,NA
NA,NA,NA,NA,NA,choice_trial_setup,html-keyboard-response,16,23966,0.0-4.0-0.6,145,1,2025-05-03T21:22:18Z,b60275e29fe2361ab97ac0ac217840d7,"Mozilla/5.0 (Macintosh; Intel Mac OS X 10_15_7) AppleWebKit/605.1.15 (KHTML, like Gecko) Version/17.5 Safari/605.1.15",Macintosh,Safari,17.5,OS X,10_15_7,https://5puzkbbxv1.cognition.run/?sona_id=56890,"en-US,en;q=0.9",b8wzymdczqwxmfk,20,"[""White""]",No,Female,NA,Yes,153954.00000000003,NA,null,<p></p>,null,choice,bww,trinary,catch,null,televisions,70,75,50,20,15,45,1,NA,NA,NA,NA,NA,NA,NA,NA,NA,NA
NA,NA,NA,NA,NA,choice_trial,survey-html-form,17,28519,0.0-4.0-1.6,145,1,2025-05-03T21:22:18Z,b60275e29fe2361ab97ac0ac217840d7,"Mozilla/5.0 (Macintosh; Intel Mac OS X 10_15_7) AppleWebKit/605.1.15 (KHTML, like Gecko) Version/17.5 Safari/605.1.15",Macintosh,Safari,17.5,OS X,10_15_7,https://5puzkbbxv1.cognition.run/?sona_id=56890,"en-US,en;q=0.9",b8wzymdczqwxmfk,20,"[""White""]",No,Female,NA,Yes,153954.00000000003,NA,4551,NA,"{""product_choice"":""B""}",choice,bww,trinary,catch,null,televisions,70,75,50,20,15,45,1,null,null,null,null,null,null,Screen size,Average lifespan,NA,NA
NA,NA,NA,NA,NA,choice_trial_setup,html-keyboard-response,18,28822,0.0-4.0-0.7,145,1,2025-05-03T21:22:18Z,b60275e29fe2361ab97ac0ac217840d7,"Mozilla/5.0 (Macintosh; Intel Mac OS X 10_15_7) AppleWebKit/605.1.15 (KHTML, like Gecko) Version/17.5 Safari/605.1.15",Macintosh,Safari,17.5,OS X,10_15_7,https://5puzkbbxv1.cognition.run/?sona_id=56890,"en-US,en;q=0.9",b8wzymdczqwxmfk,20,"[""White""]",No,Female,NA,Yes,153954.00000000003,NA,null,<p></p>,null,choice,dct,trinary,repulsion_B,1,laptops,null,null,null,null,null,null,2,NA,NA,NA,NA,NA,NA,NA,NA,NA,NA
NA,NA,NA,NA,NA,choice_trial,survey-html-form,19,30422,0.0-4.0-1.7,145,1,2025-05-03T21:22:18Z,b60275e29fe2361ab97ac0ac217840d7,"Mozilla/5.0 (Macintosh; Intel Mac OS X 10_15_7) AppleWebKit/605.1.15 (KHTML, like Gecko) Version/17.5 Safari/605.1.15",Macintosh,Safari,17.5,OS X,10_15_7,https://5puzkbbxv1.cognition.run/?sona_id=56890,"en-US,en;q=0.9",b8wzymdczqwxmfk,20,"[""White""]",No,Female,NA,Yes,153954.00000000003,NA,1597,NA,"{""product_choice"":""A""}",choice,dct,trinary,repulsion_B,1,laptops,null,null,null,null,null,null,2,90,100,80,40,30,40,Processing speed,Memory (RAM),NA,NA
NA,NA,NA,NA,NA,choice_trial_setup,html-keyboard-response,20,30725,0.0-4.0-0.8,145,1,2025-05-03T21:22:18Z,b60275e29fe2361ab97ac0ac217840d7,"Mozilla/5.0 (Macintosh; Intel Mac OS X 10_15_7) AppleWebKit/605.1.15 (KHTML, like Gecko) Version/17.5 Safari/605.1.15",Macintosh,Safari,17.5,OS X,10_15_7,https://5puzkbbxv1.cognition.run/?sona_id=56890,"en-US,en;q=0.9",b8wzymdczqwxmfk,20,"[""White""]",No,Female,NA,Yes,153954.00000000003,NA,null,<p></p>,null,choice,tc,binary,repulsion,2,televisions,null,null,null,null,null,null,1,NA,NA,NA,NA,NA,NA,NA,NA,NA,NA
NA,NA,NA,NA,NA,choice_trial,survey-html-form,21,33169,0.0-4.0-1.8,145,1,2025-05-03T21:22:18Z,b60275e29fe2361ab97ac0ac217840d7,"Mozilla/5.0 (Macintosh; Intel Mac OS X 10_15_7) AppleWebKit/605.1.15 (KHTML, like Gecko) Version/17.5 Safari/605.1.15",Macintosh,Safari,17.5,OS X,10_15_7,https://5puzkbbxv1.cognition.run/?sona_id=56890,"en-US,en;q=0.9",b8wzymdczqwxmfk,20,"[""White""]",No,Female,NA,Yes,153954.00000000003,NA,2441,NA,"{""product_choice"":""A""}",choice,tc,binary,repulsion,2,televisions,null,null,null,null,null,null,1,30,40,null,100,90,null,Screen size,Average lifespan,NA,NA
NA,NA,NA,NA,NA,choice_trial_setup,html-keyboard-response,22,33470,0.0-4.0-0.9,145,1,2025-05-03T21:22:18Z,b60275e29fe2361ab97ac0ac217840d7,"Mozilla/5.0 (Macintosh; Intel Mac OS X 10_15_7) AppleWebKit/605.1.15 (KHTML, like Gecko) Version/17.5 Safari/605.1.15",Macintosh,Safari,17.5,OS X,10_15_7,https://5puzkbbxv1.cognition.run/?sona_id=56890,"en-US,en;q=0.9",b8wzymdczqwxmfk,20,"[""White""]",No,Female,NA,Yes,153954.00000000003,NA,null,<p></p>,null,choice,tc,binary,repulsion,1,laptops,null,null,null,null,null,null,1,NA,NA,NA,NA,NA,NA,NA,NA,NA,NA
NA,NA,NA,NA,NA,choice_trial,survey-html-form,23,35211,0.0-4.0-1.9,145,1,2025-05-03T21:22:18Z,b60275e29fe2361ab97ac0ac217840d7,"Mozilla/5.0 (Macintosh; Intel Mac OS X 10_15_7) AppleWebKit/605.1.15 (KHTML, like Gecko) Version/17.5 Safari/605.1.15",Macintosh,Safari,17.5,OS X,10_15_7,https://5puzkbbxv1.cognition.run/?sona_id=56890,"en-US,en;q=0.9",b8wzymdczqwxmfk,20,"[""White""]",No,Female,NA,Yes,153954.00000000003,NA,1738,NA,"{""product_choice"":""A""}",choice,tc,binary,repulsion,1,laptops,null,null,null,null,null,null,1,100,90,null,30,40,null,Processing speed,Memory (RAM),NA,NA
NA,NA,NA,NA,NA,choice_trial_setup,html-keyboard-response,24,35514,0.0-4.0-0.10,145,1,2025-05-03T21:22:18Z,b60275e29fe2361ab97ac0ac217840d7,"Mozilla/5.0 (Macintosh; Intel Mac OS X 10_15_7) AppleWebKit/605.1.15 (KHTML, like Gecko) Version/17.5 Safari/605.1.15",Macintosh,Safari,17.5,OS X,10_15_7,https://5puzkbbxv1.cognition.run/?sona_id=56890,"en-US,en;q=0.9",b8wzymdczqwxmfk,20,"[""White""]",No,Female,NA,Yes,153954.00000000003,NA,null,<p></p>,null,choice,tc,binary,attraction,NA,washing machines,null,null,null,null,null,null,2,NA,NA,NA,NA,NA,NA,NA,NA,NA,NA
NA,NA,NA,NA,NA,choice_trial,survey-html-form,25,38008,0.0-4.0-1.10,145,1,2025-05-03T21:22:18Z,b60275e29fe2361ab97ac0ac217840d7,"Mozilla/5.0 (Macintosh; Intel Mac OS X 10_15_7) AppleWebKit/605.1.15 (KHTML, like Gecko) Version/17.5 Safari/605.1.15",Macintosh,Safari,17.5,OS X,10_15_7,https://5puzkbbxv1.cognition.run/?sona_id=56890,"en-US,en;q=0.9",b8wzymdczqwxmfk,20,"[""White""]",No,Female,NA,Yes,153954.00000000003,NA,2491,NA,"{""product_choice"":""A""}",choice,tc,binary,attraction,NA,washing machines,null,null,null,null,null,null,2,60,50,null,50,60,null,Average lifespan,Energy savings,NA,NA
NA,NA,NA,NA,NA,choice_trial_setup,html-keyboard-response,26,38310,0.0-4.0-0.11,145,1,2025-05-03T21:22:18Z,b60275e29fe2361ab97ac0ac217840d7,"Mozilla/5.0 (Macintosh; Intel Mac OS X 10_15_7) AppleWebKit/605.1.15 (KHTML, like Gecko) Version/17.5 Safari/605.1.15",Macintosh,Safari,17.5,OS X,10_15_7,https://5puzkbbxv1.cognition.run/?sona_id=56890,"en-US,en;q=0.9",b8wzymdczqwxmfk,20,"[""White""]",No,Female,NA,Yes,153954.00000000003,NA,null,<p></p>,null,choice,tdc,trinary,attraction,1,televisions,null,null,null,null,null,null,1,NA,NA,NA,NA,NA,NA,NA,NA,NA,NA
NA,NA,NA,NA,NA,choice_trial,survey-html-form,27,40453,0.0-4.0-1.11,145,1,2025-05-03T21:22:18Z,b60275e29fe2361ab97ac0ac217840d7,"Mozilla/5.0 (Macintosh; Intel Mac OS X 10_15_7) AppleWebKit/605.1.15 (KHTML, like Gecko) Version/17.5 Safari/605.1.15",Macintosh,Safari,17.5,OS X,10_15_7,https://5puzkbbxv1.cognition.run/?sona_id=56890,"en-US,en;q=0.9",b8wzymdczqwxmfk,20,"[""White""]",No,Female,NA,Yes,153954.00000000003,NA,2141,NA,"{""product_choice"":""A""}",choice,tdc,trinary,attraction,1,televisions,null,null,null,null,null,null,1,60,50,60,50,60,40,Screen size,Average lifespan,NA,NA
NA,NA,NA,NA,NA,choice_trial_setup,html-keyboard-response,28,40755,0.0-4.0-0.12,145,1,2025-05-03T21:22:18Z,b60275e29fe2361ab97ac0ac217840d7,"Mozilla/5.0 (Macintosh; Intel Mac OS X 10_15_7) AppleWebKit/605.1.15 (KHTML, like Gecko) Version/17.5 Safari/605.1.15",Macintosh,Safari,17.5,OS X,10_15_7,https://5puzkbbxv1.cognition.run/?sona_id=56890,"en-US,en;q=0.9",b8wzymdczqwxmfk,20,"[""White""]",No,Female,NA,Yes,153954.00000000003,NA,null,<p></p>,null,choice,bw,binary,catch,null,televisions,85,95,45,40,null,null,2,NA,NA,NA,NA,NA,NA,NA,NA,NA,NA
NA,NA,NA,NA,NA,choice_trial,survey-html-form,29,42723,0.0-4.0-1.12,145,1,2025-05-03T21:22:18Z,b60275e29fe2361ab97ac0ac217840d7,"Mozilla/5.0 (Macintosh; Intel Mac OS X 10_15_7) AppleWebKit/605.1.15 (KHTML, like Gecko) Version/17.5 Safari/605.1.15",Macintosh,Safari,17.5,OS X,10_15_7,https://5puzkbbxv1.cognition.run/?sona_id=56890,"en-US,en;q=0.9",b8wzymdczqwxmfk,20,"[""White""]",No,Female,NA,Yes,153954.00000000003,NA,1966,NA,"{""product_choice"":""A""}",choice,bw,binary,catch,null,televisions,85,95,45,40,null,null,2,null,null,null,null,null,null,Screen size,Average lifespan,NA,NA
NA,NA,NA,NA,NA,choice_trial_setup,html-keyboard-response,30,43026,0.0-4.0-0.13,145,1,2025-05-03T21:22:18Z,b60275e29fe2361ab97ac0ac217840d7,"Mozilla/5.0 (Macintosh; Intel Mac OS X 10_15_7) AppleWebKit/605.1.15 (KHTML, like Gecko) Version/17.5 Safari/605.1.15",Macintosh,Safari,17.5,OS X,10_15_7,https://5puzkbbxv1.cognition.run/?sona_id=56890,"en-US,en;q=0.9",b8wzymdczqwxmfk,20,"[""White""]",No,Female,NA,Yes,153954.00000000003,NA,null,<p></p>,null,choice,tc,binary,repulsion,1,microwave ovens,null,null,null,null,null,null,1,NA,NA,NA,NA,NA,NA,NA,NA,NA,NA
NA,NA,NA,NA,NA,choice_trial,survey-html-form,31,45333,0.0-4.0-1.13,145,1,2025-05-03T21:22:18Z,b60275e29fe2361ab97ac0ac217840d7,"Mozilla/5.0 (Macintosh; Intel Mac OS X 10_15_7) AppleWebKit/605.1.15 (KHTML, like Gecko) Version/17.5 Safari/605.1.15",Macintosh,Safari,17.5,OS X,10_15_7,https://5puzkbbxv1.cognition.run/?sona_id=56890,"en-US,en;q=0.9",b8wzymdczqwxmfk,20,"[""White""]",No,Female,NA,Yes,153954.00000000003,NA,2304,NA,"{""product_choice"":""A""}",choice,tc,binary,repulsion,1,microwave ovens,null,null,null,null,null,null,1,100,90,null,30,40,null,Warranty,Cooking power,NA,NA
NA,NA,NA,NA,NA,choice_trial_setup,html-keyboard-response,32,45635,0.0-4.0-0.14,145,1,2025-05-03T21:22:18Z,b60275e29fe2361ab97ac0ac217840d7,"Mozilla/5.0 (Macintosh; Intel Mac OS X 10_15_7) AppleWebKit/605.1.15 (KHTML, like Gecko) Version/17.5 Safari/605.1.15",Macintosh,Safari,17.5,OS X,10_15_7,https://5puzkbbxv1.cognition.run/?sona_id=56890,"en-US,en;q=0.9",b8wzymdczqwxmfk,20,"[""White""]",No,Female,NA,Yes,153954.00000000003,NA,null,<p></p>,null,choice,tcd,trinary,repulsion_B,1,televisions,null,null,null,null,null,null,2,NA,NA,NA,NA,NA,NA,NA,NA,NA,NA
NA,NA,NA,NA,NA,choice_trial,survey-html-form,33,48017,0.0-4.0-1.14,145,1,2025-05-03T21:22:18Z,b60275e29fe2361ab97ac0ac217840d7,"Mozilla/5.0 (Macintosh; Intel Mac OS X 10_15_7) AppleWebKit/605.1.15 (KHTML, like Gecko) Version/17.5 Safari/605.1.15",Macintosh,Safari,17.5,OS X,10_15_7,https://5puzkbbxv1.cognition.run/?sona_id=56890,"en-US,en;q=0.9",b8wzymdczqwxmfk,20,"[""White""]",No,Female,NA,Yes,153954.00000000003,NA,2380,NA,"{""product_choice"":""A""}",choice,tcd,trinary,repulsion_B,1,televisions,null,null,null,null,null,null,2,90,100,80,40,30,40,Screen size,Average lifespan,NA,NA
NA,NA,NA,NA,NA,choice_trial_setup,html-keyboard-response,34,48320,0.0-4.0-0.15,145,1,2025-05-03T21:22:18Z,b60275e29fe2361ab97ac0ac217840d7,"Mozilla/5.0 (Macintosh; Intel Mac OS X 10_15_7) AppleWebKit/605.1.15 (KHTML, like Gecko) Version/17.5 Safari/605.1.15",Macintosh,Safari,17.5,OS X,10_15_7,https://5puzkbbxv1.cognition.run/?sona_id=56890,"en-US,en;q=0.9",b8wzymdczqwxmfk,20,"[""White""]",No,Female,NA,Yes,153954.00000000003,NA,null,<p></p>,null,choice,dtc,trinary,attraction,1,microwave ovens,null,null,null,null,null,null,1,NA,NA,NA,NA,NA,NA,NA,NA,NA,NA
NA,NA,NA,NA,NA,choice_trial,survey-html-form,35,50760,0.0-4.0-1.15,145,1,2025-05-03T21:22:18Z,b60275e29fe2361ab97ac0ac217840d7,"Mozilla/5.0 (Macintosh; Intel Mac OS X 10_15_7) AppleWebKit/605.1.15 (KHTML, like Gecko) Version/17.5 Safari/605.1.15",Macintosh,Safari,17.5,OS X,10_15_7,https://5puzkbbxv1.cognition.run/?sona_id=56890,"en-US,en;q=0.9",b8wzymdczqwxmfk,20,"[""White""]",No,Female,NA,Yes,153954.00000000003,NA,2438,NA,"{""product_choice"":""C""}",choice,dtc,trinary,attraction,1,microwave ovens,null,null,null,null,null,null,1,60,50,60,50,60,40,Warranty,Cooking power,NA,NA
NA,NA,NA,NA,NA,choice_trial_setup,html-keyboard-response,36,51063,0.0-4.0-0.16,145,1,2025-05-03T21:22:18Z,b60275e29fe2361ab97ac0ac217840d7,"Mozilla/5.0 (Macintosh; Intel Mac OS X 10_15_7) AppleWebKit/605.1.15 (KHTML, like Gecko) Version/17.5 Safari/605.1.15",Macintosh,Safari,17.5,OS X,10_15_7,https://5puzkbbxv1.cognition.run/?sona_id=56890,"en-US,en;q=0.9",b8wzymdczqwxmfk,20,"[""White""]",No,Female,NA,Yes,153954.00000000003,NA,null,<p></p>,null,choice,ctd,trinary,repulsion_A,1,washing machines,null,null,null,null,null,null,2,NA,NA,NA,NA,NA,NA,NA,NA,NA,NA
NA,NA,NA,NA,NA,choice_trial,survey-html-form,37,52525,0.0-4.0-1.16,145,1,2025-05-03T21:22:18Z,b60275e29fe2361ab97ac0ac217840d7,"Mozilla/5.0 (Macintosh; Intel Mac OS X 10_15_7) AppleWebKit/605.1.15 (KHTML, like Gecko) Version/17.5 Safari/605.1.15",Macintosh,Safari,17.5,OS X,10_15_7,https://5puzkbbxv1.cognition.run/?sona_id=56890,"en-US,en;q=0.9",b8wzymdczqwxmfk,20,"[""White""]",No,Female,NA,Yes,153954.00000000003,NA,1458,NA,"{""product_choice"":""A""}",choice,ctd,trinary,repulsion_A,1,washing machines,null,null,null,null,null,null,2,100,90,100,30,40,20,Average lifespan,Energy savings,NA,NA
NA,NA,NA,NA,NA,choice_trial_setup,html-keyboard-response,38,52827,0.0-4.0-0.17,145,1,2025-05-03T21:22:18Z,b60275e29fe2361ab97ac0ac217840d7,"Mozilla/5.0 (Macintosh; Intel Mac OS X 10_15_7) AppleWebKit/605.1.15 (KHTML, like Gecko) Version/17.5 Safari/605.1.15",Macintosh,Safari,17.5,OS X,10_15_7,https://5puzkbbxv1.cognition.run/?sona_id=56890,"en-US,en;q=0.9",b8wzymdczqwxmfk,20,"[""White""]",No,Female,NA,Yes,153954.00000000003,NA,null,<p></p>,null,choice,bw,binary,catch,null,microwave ovens,55,90,10,25,null,null,1,NA,NA,NA,NA,NA,NA,NA,NA,NA,NA
NA,NA,NA,NA,NA,choice_trial,survey-html-form,39,54391,0.0-4.0-1.17,145,1,2025-05-03T21:22:18Z,b60275e29fe2361ab97ac0ac217840d7,"Mozilla/5.0 (Macintosh; Intel Mac OS X 10_15_7) AppleWebKit/605.1.15 (KHTML, like Gecko) Version/17.5 Safari/605.1.15",Macintosh,Safari,17.5,OS X,10_15_7,https://5puzkbbxv1.cognition.run/?sona_id=56890,"en-US,en;q=0.9",b8wzymdczqwxmfk,20,"[""White""]",No,Female,NA,Yes,153954.00000000003,NA,1562,NA,"{""product_choice"":""A""}",choice,bw,binary,catch,null,microwave ovens,55,90,10,25,null,null,1,null,null,null,null,null,null,Warranty,Cooking power,NA,NA
NA,NA,NA,NA,NA,choice_trial_setup,html-keyboard-response,40,54694,0.0-4.0-0.18,145,1,2025-05-03T21:22:18Z,b60275e29fe2361ab97ac0ac217840d7,"Mozilla/5.0 (Macintosh; Intel Mac OS X 10_15_7) AppleWebKit/605.1.15 (KHTML, like Gecko) Version/17.5 Safari/605.1.15",Macintosh,Safari,17.5,OS X,10_15_7,https://5puzkbbxv1.cognition.run/?sona_id=56890,"en-US,en;q=0.9",b8wzymdczqwxmfk,20,"[""White""]",No,Female,NA,Yes,153954.00000000003,NA,null,<p></p>,null,choice,cdt,trinary,attraction,2,microwave ovens,null,null,null,null,null,null,1,NA,NA,NA,NA,NA,NA,NA,NA,NA,NA
NA,NA,NA,NA,NA,choice_trial,survey-html-form,41,56167,0.0-4.0-1.18,145,1,2025-05-03T21:22:18Z,b60275e29fe2361ab97ac0ac217840d7,"Mozilla/5.0 (Macintosh; Intel Mac OS X 10_15_7) AppleWebKit/605.1.15 (KHTML, like Gecko) Version/17.5 Safari/605.1.15",Macintosh,Safari,17.5,OS X,10_15_7,https://5puzkbbxv1.cognition.run/?sona_id=56890,"en-US,en;q=0.9",b8wzymdczqwxmfk,20,"[""White""]",No,Female,NA,Yes,153954.00000000003,NA,1471,NA,"{""product_choice"":""A""}",choice,cdt,trinary,attraction,2,microwave ovens,null,null,null,null,null,null,1,50,60,40,60,50,60,Warranty,Cooking power,NA,NA
NA,NA,NA,NA,NA,choice_trial_setup,html-keyboard-response,42,56470,0.0-4.0-0.19,145,1,2025-05-03T21:22:18Z,b60275e29fe2361ab97ac0ac217840d7,"Mozilla/5.0 (Macintosh; Intel Mac OS X 10_15_7) AppleWebKit/605.1.15 (KHTML, like Gecko) Version/17.5 Safari/605.1.15",Macintosh,Safari,17.5,OS X,10_15_7,https://5puzkbbxv1.cognition.run/?sona_id=56890,"en-US,en;q=0.9",b8wzymdczqwxmfk,20,"[""White""]",No,Female,NA,Yes,153954.00000000003,NA,null,<p></p>,null,choice,dtc,trinary,repulsion_B,2,laptops,null,null,null,null,null,null,2,NA,NA,NA,NA,NA,NA,NA,NA,NA,NA
NA,NA,NA,NA,NA,choice_trial,survey-html-form,43,59323,0.0-4.0-1.19,145,1,2025-05-03T21:22:18Z,b60275e29fe2361ab97ac0ac217840d7,"Mozilla/5.0 (Macintosh; Intel Mac OS X 10_15_7) AppleWebKit/605.1.15 (KHTML, like Gecko) Version/17.5 Safari/605.1.15",Macintosh,Safari,17.5,OS X,10_15_7,https://5puzkbbxv1.cognition.run/?sona_id=56890,"en-US,en;q=0.9",b8wzymdczqwxmfk,20,"[""White""]",No,Female,NA,Yes,153954.00000000003,NA,2851,NA,"{""product_choice"":""A""}",choice,dtc,trinary,repulsion_B,2,laptops,null,null,null,null,null,null,2,40,30,40,90,100,80,Processing speed,Memory (RAM),NA,NA
NA,NA,NA,NA,NA,choice_trial_setup,html-keyboard-response,44,59626,0.0-4.0-0.20,145,1,2025-05-03T21:22:18Z,b60275e29fe2361ab97ac0ac217840d7,"Mozilla/5.0 (Macintosh; Intel Mac OS X 10_15_7) AppleWebKit/605.1.15 (KHTML, like Gecko) Version/17.5 Safari/605.1.15",Macintosh,Safari,17.5,OS X,10_15_7,https://5puzkbbxv1.cognition.run/?sona_id=56890,"en-US,en;q=0.9",b8wzymdczqwxmfk,20,"[""White""]",No,Female,NA,Yes,153954.00000000003,NA,null,<p></p>,null,choice,tdc,trinary,attraction,2,laptops,null,null,null,null,null,null,2,NA,NA,NA,NA,NA,NA,NA,NA,NA,NA
NA,NA,NA,NA,NA,choice_trial,survey-html-form,45,61278,0.0-4.0-1.20,145,1,2025-05-03T21:22:18Z,b60275e29fe2361ab97ac0ac217840d7,"Mozilla/5.0 (Macintosh; Intel Mac OS X 10_15_7) AppleWebKit/605.1.15 (KHTML, like Gecko) Version/17.5 Safari/605.1.15",Macintosh,Safari,17.5,OS X,10_15_7,https://5puzkbbxv1.cognition.run/?sona_id=56890,"en-US,en;q=0.9",b8wzymdczqwxmfk,20,"[""White""]",No,Female,NA,Yes,153954.00000000003,NA,1650,NA,"{""product_choice"":""A""}",choice,tdc,trinary,attraction,2,laptops,null,null,null,null,null,null,2,50,60,40,60,50,60,Processing speed,Memory (RAM),NA,NA
NA,NA,NA,NA,NA,choice_trial_setup,html-keyboard-response,46,61580,0.0-4.0-0.21,145,1,2025-05-03T21:22:18Z,b60275e29fe2361ab97ac0ac217840d7,"Mozilla/5.0 (Macintosh; Intel Mac OS X 10_15_7) AppleWebKit/605.1.15 (KHTML, like Gecko) Version/17.5 Safari/605.1.15",Macintosh,Safari,17.5,OS X,10_15_7,https://5puzkbbxv1.cognition.run/?sona_id=56890,"en-US,en;q=0.9",b8wzymdczqwxmfk,20,"[""White""]",No,Female,NA,Yes,153954.00000000003,NA,null,<p></p>,null,choice,tdc,trinary,attraction,1,laptops,null,null,null,null,null,null,2,NA,NA,NA,NA,NA,NA,NA,NA,NA,NA
NA,NA,NA,NA,NA,choice_trial,survey-html-form,47,63211,0.0-4.0-1.21,145,1,2025-05-03T21:22:18Z,b60275e29fe2361ab97ac0ac217840d7,"Mozilla/5.0 (Macintosh; Intel Mac OS X 10_15_7) AppleWebKit/605.1.15 (KHTML, like Gecko) Version/17.5 Safari/605.1.15",Macintosh,Safari,17.5,OS X,10_15_7,https://5puzkbbxv1.cognition.run/?sona_id=56890,"en-US,en;q=0.9",b8wzymdczqwxmfk,20,"[""White""]",No,Female,NA,Yes,153954.00000000003,NA,1628,NA,"{""product_choice"":""A""}",choice,tdc,trinary,attraction,1,laptops,null,null,null,null,null,null,2,60,50,60,50,60,40,Processing speed,Memory (RAM),NA,NA
NA,NA,NA,NA,NA,choice_trial_setup,html-keyboard-response,48,63513,0.0-4.0-0.22,145,1,2025-05-03T21:22:18Z,b60275e29fe2361ab97ac0ac217840d7,"Mozilla/5.0 (Macintosh; Intel Mac OS X 10_15_7) AppleWebKit/605.1.15 (KHTML, like Gecko) Version/17.5 Safari/605.1.15",Macintosh,Safari,17.5,OS X,10_15_7,https://5puzkbbxv1.cognition.run/?sona_id=56890,"en-US,en;q=0.9",b8wzymdczqwxmfk,20,"[""White""]",No,Female,NA,Yes,153954.00000000003,NA,null,<p></p>,null,choice,ctd,trinary,repulsion_B,2,microwave ovens,null,null,null,null,null,null,2,NA,NA,NA,NA,NA,NA,NA,NA,NA,NA
NA,NA,NA,NA,NA,choice_trial,survey-html-form,49,64890,0.0-4.0-1.22,145,1,2025-05-03T21:22:18Z,b60275e29fe2361ab97ac0ac217840d7,"Mozilla/5.0 (Macintosh; Intel Mac OS X 10_15_7) AppleWebKit/605.1.15 (KHTML, like Gecko) Version/17.5 Safari/605.1.15",Macintosh,Safari,17.5,OS X,10_15_7,https://5puzkbbxv1.cognition.run/?sona_id=56890,"en-US,en;q=0.9",b8wzymdczqwxmfk,20,"[""White""]",No,Female,NA,Yes,153954.00000000003,NA,1375,NA,"{""product_choice"":""A""}",choice,ctd,trinary,repulsion_B,2,microwave ovens,null,null,null,null,null,null,2,40,30,40,90,100,80,Warranty,Cooking power,NA,NA
NA,NA,NA,NA,NA,choice_trial_setup,html-keyboard-response,50,65193,0.0-4.0-0.23,145,1,2025-05-03T21:22:18Z,b60275e29fe2361ab97ac0ac217840d7,"Mozilla/5.0 (Macintosh; Intel Mac OS X 10_15_7) AppleWebKit/605.1.15 (KHTML, like Gecko) Version/17.5 Safari/605.1.15",Macintosh,Safari,17.5,OS X,10_15_7,https://5puzkbbxv1.cognition.run/?sona_id=56890,"en-US,en;q=0.9",b8wzymdczqwxmfk,20,"[""White""]",No,Female,NA,Yes,153954.00000000003,NA,null,<p></p>,null,choice,tcd,trinary,repulsion_A,2,televisions,null,null,null,null,null,null,2,NA,NA,NA,NA,NA,NA,NA,NA,NA,NA
NA,NA,NA,NA,NA,choice_trial,survey-html-form,51,66798,0.0-4.0-1.23,145,1,2025-05-03T21:22:18Z,b60275e29fe2361ab97ac0ac217840d7,"Mozilla/5.0 (Macintosh; Intel Mac OS X 10_15_7) AppleWebKit/605.1.15 (KHTML, like Gecko) Version/17.5 Safari/605.1.15",Macintosh,Safari,17.5,OS X,10_15_7,https://5puzkbbxv1.cognition.run/?sona_id=56890,"en-US,en;q=0.9",b8wzymdczqwxmfk,20,"[""White""]",No,Female,NA,Yes,153954.00000000003,NA,1602,NA,"{""product_choice"":""A""}",choice,tcd,trinary,repulsion_A,2,televisions,null,null,null,null,null,null,2,30,40,20,100,90,100,Screen size,Average lifespan,NA,NA
NA,NA,NA,NA,NA,choice_trial_setup,html-keyboard-response,52,67101,0.0-4.0-0.24,145,1,2025-05-03T21:22:18Z,b60275e29fe2361ab97ac0ac217840d7,"Mozilla/5.0 (Macintosh; Intel Mac OS X 10_15_7) AppleWebKit/605.1.15 (KHTML, like Gecko) Version/17.5 Safari/605.1.15",Macintosh,Safari,17.5,OS X,10_15_7,https://5puzkbbxv1.cognition.run/?sona_id=56890,"en-US,en;q=0.9",b8wzymdczqwxmfk,20,"[""White""]",No,Female,NA,Yes,153954.00000000003,NA,null,<p></p>,null,choice,dtc,trinary,repulsion_A,2,washing machines,null,null,null,null,null,null,2,NA,NA,NA,NA,NA,NA,NA,NA,NA,NA
NA,NA,NA,NA,NA,choice_trial,survey-html-form,53,68388,0.0-4.0-1.24,145,1,2025-05-03T21:22:18Z,b60275e29fe2361ab97ac0ac217840d7,"Mozilla/5.0 (Macintosh; Intel Mac OS X 10_15_7) AppleWebKit/605.1.15 (KHTML, like Gecko) Version/17.5 Safari/605.1.15",Macintosh,Safari,17.5,OS X,10_15_7,https://5puzkbbxv1.cognition.run/?sona_id=56890,"en-US,en;q=0.9",b8wzymdczqwxmfk,20,"[""White""]",No,Female,NA,Yes,153954.00000000003,NA,1285,NA,"{""product_choice"":""A""}",choice,dtc,trinary,repulsion_A,2,washing machines,null,null,null,null,null,null,2,30,40,20,100,90,100,Average lifespan,Energy savings,NA,NA
NA,NA,NA,NA,NA,choice_trial_setup,html-keyboard-response,54,68690,0.0-4.0-0.25,145,1,2025-05-03T21:22:18Z,b60275e29fe2361ab97ac0ac217840d7,"Mozilla/5.0 (Macintosh; Intel Mac OS X 10_15_7) AppleWebKit/605.1.15 (KHTML, like Gecko) Version/17.5 Safari/605.1.15",Macintosh,Safari,17.5,OS X,10_15_7,https://5puzkbbxv1.cognition.run/?sona_id=56890,"en-US,en;q=0.9",b8wzymdczqwxmfk,20,"[""White""]",No,Female,NA,Yes,153954.00000000003,NA,null,<p></p>,null,choice,tcd,trinary,attraction,2,televisions,null,null,null,null,null,null,2,NA,NA,NA,NA,NA,NA,NA,NA,NA,NA
NA,NA,NA,NA,NA,choice_trial,survey-html-form,55,69979,0.0-4.0-1.25,145,1,2025-05-03T21:22:18Z,b60275e29fe2361ab97ac0ac217840d7,"Mozilla/5.0 (Macintosh; Intel Mac OS X 10_15_7) AppleWebKit/605.1.15 (KHTML, like Gecko) Version/17.5 Safari/605.1.15",Macintosh,Safari,17.5,OS X,10_15_7,https://5puzkbbxv1.cognition.run/?sona_id=56890,"en-US,en;q=0.9",b8wzymdczqwxmfk,20,"[""White""]",No,Female,NA,Yes,153954.00000000003,NA,1285,NA,"{""product_choice"":""A""}",choice,tcd,trinary,attraction,2,televisions,null,null,null,null,null,null,2,50,60,40,60,50,60,Screen size,Average lifespan,NA,NA
NA,NA,NA,NA,NA,choice_trial_setup,html-keyboard-response,56,70281,0.0-4.0-0.26,145,1,2025-05-03T21:22:18Z,b60275e29fe2361ab97ac0ac217840d7,"Mozilla/5.0 (Macintosh; Intel Mac OS X 10_15_7) AppleWebKit/605.1.15 (KHTML, like Gecko) Version/17.5 Safari/605.1.15",Macintosh,Safari,17.5,OS X,10_15_7,https://5puzkbbxv1.cognition.run/?sona_id=56890,"en-US,en;q=0.9",b8wzymdczqwxmfk,20,"[""White""]",No,Female,NA,Yes,153954.00000000003,NA,null,<p></p>,null,choice,bw,binary,catch,null,washing machines,60,85,5,10,null,null,1,NA,NA,NA,NA,NA,NA,NA,NA,NA,NA
NA,NA,NA,NA,NA,choice_trial,survey-html-form,57,72983,0.0-4.0-1.26,145,1,2025-05-03T21:22:18Z,b60275e29fe2361ab97ac0ac217840d7,"Mozilla/5.0 (Macintosh; Intel Mac OS X 10_15_7) AppleWebKit/605.1.15 (KHTML, like Gecko) Version/17.5 Safari/605.1.15",Macintosh,Safari,17.5,OS X,10_15_7,https://5puzkbbxv1.cognition.run/?sona_id=56890,"en-US,en;q=0.9",b8wzymdczqwxmfk,20,"[""White""]",No,Female,NA,Yes,153954.00000000003,NA,2699,NA,"{""product_choice"":""A""}",choice,bw,binary,catch,null,washing machines,60,85,5,10,null,null,1,null,null,null,null,null,null,Average lifespan,Energy savings,NA,NA
NA,NA,NA,NA,NA,choice_trial_setup,html-keyboard-response,58,73286,0.0-4.0-0.27,145,1,2025-05-03T21:22:18Z,b60275e29fe2361ab97ac0ac217840d7,"Mozilla/5.0 (Macintosh; Intel Mac OS X 10_15_7) AppleWebKit/605.1.15 (KHTML, like Gecko) Version/17.5 Safari/605.1.15",Macintosh,Safari,17.5,OS X,10_15_7,https://5puzkbbxv1.cognition.run/?sona_id=56890,"en-US,en;q=0.9",b8wzymdczqwxmfk,20,"[""White""]",No,Female,NA,Yes,153954.00000000003,NA,null,<p></p>,null,choice,bww,trinary,catch,null,microwave ovens,55,50,25,5,50,35,1,NA,NA,NA,NA,NA,NA,NA,NA,NA,NA
NA,NA,NA,NA,NA,choice_trial,survey-html-form,59,75211,0.0-4.0-1.27,145,1,2025-05-03T21:22:18Z,b60275e29fe2361ab97ac0ac217840d7,"Mozilla/5.0 (Macintosh; Intel Mac OS X 10_15_7) AppleWebKit/605.1.15 (KHTML, like Gecko) Version/17.5 Safari/605.1.15",Macintosh,Safari,17.5,OS X,10_15_7,https://5puzkbbxv1.cognition.run/?sona_id=56890,"en-US,en;q=0.9",b8wzymdczqwxmfk,20,"[""White""]",No,Female,NA,Yes,153954.00000000003,NA,1922,NA,"{""product_choice"":""A""}",choice,bww,trinary,catch,null,microwave ovens,55,50,25,5,50,35,1,null,null,null,null,null,null,Warranty,Cooking power,NA,NA
NA,NA,NA,NA,NA,choice_trial_setup,html-keyboard-response,60,75513,0.0-4.0-0.28,145,1,2025-05-03T21:22:18Z,b60275e29fe2361ab97ac0ac217840d7,"Mozilla/5.0 (Macintosh; Intel Mac OS X 10_15_7) AppleWebKit/605.1.15 (KHTML, like Gecko) Version/17.5 Safari/605.1.15",Macintosh,Safari,17.5,OS X,10_15_7,https://5puzkbbxv1.cognition.run/?sona_id=56890,"en-US,en;q=0.9",b8wzymdczqwxmfk,20,"[""White""]",No,Female,NA,Yes,153954.00000000003,NA,null,<p></p>,null,choice,ct,binary,attraction,NA,laptops,null,null,null,null,null,null,1,NA,NA,NA,NA,NA,NA,NA,NA,NA,NA
NA,NA,NA,NA,NA,choice_trial,survey-html-form,61,76881,0.0-4.0-1.28,145,1,2025-05-03T21:22:18Z,b60275e29fe2361ab97ac0ac217840d7,"Mozilla/5.0 (Macintosh; Intel Mac OS X 10_15_7) AppleWebKit/605.1.15 (KHTML, like Gecko) Version/17.5 Safari/605.1.15",Macintosh,Safari,17.5,OS X,10_15_7,https://5puzkbbxv1.cognition.run/?sona_id=56890,"en-US,en;q=0.9",b8wzymdczqwxmfk,20,"[""White""]",No,Female,NA,Yes,153954.00000000003,NA,1366,NA,"{""product_choice"":""A""}",choice,ct,binary,attraction,NA,laptops,null,null,null,null,null,null,1,60,50,null,50,60,null,Processing speed,Memory (RAM),NA,NA
NA,NA,NA,NA,NA,choice_trial_setup,html-keyboard-response,62,77185,0.0-4.0-0.29,145,1,2025-05-03T21:22:18Z,b60275e29fe2361ab97ac0ac217840d7,"Mozilla/5.0 (Macintosh; Intel Mac OS X 10_15_7) AppleWebKit/605.1.15 (KHTML, like Gecko) Version/17.5 Safari/605.1.15",Macintosh,Safari,17.5,OS X,10_15_7,https://5puzkbbxv1.cognition.run/?sona_id=56890,"en-US,en;q=0.9",b8wzymdczqwxmfk,20,"[""White""]",No,Female,NA,Yes,153954.00000000003,NA,null,<p></p>,null,choice,bww,trinary,catch,null,laptops,90,90,20,45,50,5,1,NA,NA,NA,NA,NA,NA,NA,NA,NA,NA
NA,NA,NA,NA,NA,choice_trial,survey-html-form,63,78964,0.0-4.0-1.29,145,1,2025-05-03T21:22:18Z,b60275e29fe2361ab97ac0ac217840d7,"Mozilla/5.0 (Macintosh; Intel Mac OS X 10_15_7) AppleWebKit/605.1.15 (KHTML, like Gecko) Version/17.5 Safari/605.1.15",Macintosh,Safari,17.5,OS X,10_15_7,https://5puzkbbxv1.cognition.run/?sona_id=56890,"en-US,en;q=0.9",b8wzymdczqwxmfk,20,"[""White""]",No,Female,NA,Yes,153954.00000000003,NA,1776,NA,"{""product_choice"":""A""}",choice,bww,trinary,catch,null,laptops,90,90,20,45,50,5,1,null,null,null,null,null,null,Processing speed,Memory (RAM),NA,NA
NA,NA,NA,NA,NA,choice_trial_setup,html-keyboard-response,64,79267,0.0-4.0-0.30,145,1,2025-05-03T21:22:18Z,b60275e29fe2361ab97ac0ac217840d7,"Mozilla/5.0 (Macintosh; Intel Mac OS X 10_15_7) AppleWebKit/605.1.15 (KHTML, like Gecko) Version/17.5 Safari/605.1.15",Macintosh,Safari,17.5,OS X,10_15_7,https://5puzkbbxv1.cognition.run/?sona_id=56890,"en-US,en;q=0.9",b8wzymdczqwxmfk,20,"[""White""]",No,Female,NA,Yes,153954.00000000003,NA,null,<p></p>,null,choice,tdc,trinary,attraction,1,washing machines,null,null,null,null,null,null,1,NA,NA,NA,NA,NA,NA,NA,NA,NA,NA
NA,NA,NA,NA,NA,choice_trial,survey-html-form,65,80609,0.0-4.0-1.30,145,1,2025-05-03T21:22:18Z,b60275e29fe2361ab97ac0ac217840d7,"Mozilla/5.0 (Macintosh; Intel Mac OS X 10_15_7) AppleWebKit/605.1.15 (KHTML, like Gecko) Version/17.5 Safari/605.1.15",Macintosh,Safari,17.5,OS X,10_15_7,https://5puzkbbxv1.cognition.run/?sona_id=56890,"en-US,en;q=0.9",b8wzymdczqwxmfk,20,"[""White""]",No,Female,NA,Yes,153954.00000000003,NA,1339,NA,"{""product_choice"":""A""}",choice,tdc,trinary,attraction,1,washing machines,null,null,null,null,null,null,1,60,50,60,50,60,40,Average lifespan,Energy savings,NA,NA
NA,NA,NA,NA,NA,choice_trial_setup,html-keyboard-response,66,80912,0.0-4.0-0.31,145,1,2025-05-03T21:22:18Z,b60275e29fe2361ab97ac0ac217840d7,"Mozilla/5.0 (Macintosh; Intel Mac OS X 10_15_7) AppleWebKit/605.1.15 (KHTML, like Gecko) Version/17.5 Safari/605.1.15",Macintosh,Safari,17.5,OS X,10_15_7,https://5puzkbbxv1.cognition.run/?sona_id=56890,"en-US,en;q=0.9",b8wzymdczqwxmfk,20,"[""White""]",No,Female,NA,Yes,153954.00000000003,NA,null,<p></p>,null,choice,wbw,trinary,catch,null,washing machines,90,50,45,10,35,5,2,NA,NA,NA,NA,NA,NA,NA,NA,NA,NA
NA,NA,NA,NA,NA,choice_trial,survey-html-form,67,82801,0.0-4.0-1.31,145,1,2025-05-03T21:22:18Z,b60275e29fe2361ab97ac0ac217840d7,"Mozilla/5.0 (Macintosh; Intel Mac OS X 10_15_7) AppleWebKit/605.1.15 (KHTML, like Gecko) Version/17.5 Safari/605.1.15",Macintosh,Safari,17.5,OS X,10_15_7,https://5puzkbbxv1.cognition.run/?sona_id=56890,"en-US,en;q=0.9",b8wzymdczqwxmfk,20,"[""White""]",No,Female,NA,Yes,153954.00000000003,NA,1885,NA,"{""product_choice"":""A""}",choice,wbw,trinary,catch,null,washing machines,90,50,45,10,35,5,2,null,null,null,null,null,null,Average lifespan,Energy savings,NA,NA
NA,NA,NA,NA,NA,choice_trial_setup,html-keyboard-response,68,83103,0.0-4.0-0.32,145,1,2025-05-03T21:22:18Z,b60275e29fe2361ab97ac0ac217840d7,"Mozilla/5.0 (Macintosh; Intel Mac OS X 10_15_7) AppleWebKit/605.1.15 (KHTML, like Gecko) Version/17.5 Safari/605.1.15",Macintosh,Safari,17.5,OS X,10_15_7,https://5puzkbbxv1.cognition.run/?sona_id=56890,"en-US,en;q=0.9",b8wzymdczqwxmfk,20,"[""White""]",No,Female,NA,Yes,153954.00000000003,NA,null,<p></p>,null,choice,tc,binary,attraction,NA,microwave ovens,null,null,null,null,null,null,1,NA,NA,NA,NA,NA,NA,NA,NA,NA,NA
NA,NA,NA,NA,NA,choice_trial,survey-html-form,69,84454,0.0-4.0-1.32,145,1,2025-05-03T21:22:18Z,b60275e29fe2361ab97ac0ac217840d7,"Mozilla/5.0 (Macintosh; Intel Mac OS X 10_15_7) AppleWebKit/605.1.15 (KHTML, like Gecko) Version/17.5 Safari/605.1.15",Macintosh,Safari,17.5,OS X,10_15_7,https://5puzkbbxv1.cognition.run/?sona_id=56890,"en-US,en;q=0.9",b8wzymdczqwxmfk,20,"[""White""]",No,Female,NA,Yes,153954.00000000003,NA,1347,NA,"{""product_choice"":""A""}",choice,tc,binary,attraction,NA,microwave ovens,null,null,null,null,null,null,1,60,50,null,50,60,null,Warranty,Cooking power,NA,NA
NA,NA,NA,NA,NA,choice_trial_setup,html-keyboard-response,70,84758,0.0-4.0-0.33,145,1,2025-05-03T21:22:18Z,b60275e29fe2361ab97ac0ac217840d7,"Mozilla/5.0 (Macintosh; Intel Mac OS X 10_15_7) AppleWebKit/605.1.15 (KHTML, like Gecko) Version/17.5 Safari/605.1.15",Macintosh,Safari,17.5,OS X,10_15_7,https://5puzkbbxv1.cognition.run/?sona_id=56890,"en-US,en;q=0.9",b8wzymdczqwxmfk,20,"[""White""]",No,Female,NA,Yes,153954.00000000003,NA,null,<p></p>,null,choice,tcd,trinary,repulsion_B,1,microwave ovens,null,null,null,null,null,null,2,NA,NA,NA,NA,NA,NA,NA,NA,NA,NA
NA,NA,NA,NA,NA,choice_trial,survey-html-form,71,86330,0.0-4.0-1.33,145,1,2025-05-03T21:22:18Z,b60275e29fe2361ab97ac0ac217840d7,"Mozilla/5.0 (Macintosh; Intel Mac OS X 10_15_7) AppleWebKit/605.1.15 (KHTML, like Gecko) Version/17.5 Safari/605.1.15",Macintosh,Safari,17.5,OS X,10_15_7,https://5puzkbbxv1.cognition.run/?sona_id=56890,"en-US,en;q=0.9",b8wzymdczqwxmfk,20,"[""White""]",No,Female,NA,Yes,153954.00000000003,NA,1570,NA,"{""product_choice"":""A""}",choice,tcd,trinary,repulsion_B,1,microwave ovens,null,null,null,null,null,null,2,90,100,80,40,30,40,Warranty,Cooking power,NA,NA
NA,NA,NA,NA,NA,choice_trial_setup,html-keyboard-response,72,86634,0.0-4.0-0.34,145,1,2025-05-03T21:22:18Z,b60275e29fe2361ab97ac0ac217840d7,"Mozilla/5.0 (Macintosh; Intel Mac OS X 10_15_7) AppleWebKit/605.1.15 (KHTML, like Gecko) Version/17.5 Safari/605.1.15",Macintosh,Safari,17.5,OS X,10_15_7,https://5puzkbbxv1.cognition.run/?sona_id=56890,"en-US,en;q=0.9",b8wzymdczqwxmfk,20,"[""White""]",No,Female,NA,Yes,153954.00000000003,NA,null,<p></p>,null,choice,tcd,trinary,repulsion_A,2,microwave ovens,null,null,null,null,null,null,2,NA,NA,NA,NA,NA,NA,NA,NA,NA,NA
NA,NA,NA,NA,NA,choice_trial,survey-html-form,73,88176,0.0-4.0-1.34,145,1,2025-05-03T21:22:18Z,b60275e29fe2361ab97ac0ac217840d7,"Mozilla/5.0 (Macintosh; Intel Mac OS X 10_15_7) AppleWebKit/605.1.15 (KHTML, like Gecko) Version/17.5 Safari/605.1.15",Macintosh,Safari,17.5,OS X,10_15_7,https://5puzkbbxv1.cognition.run/?sona_id=56890,"en-US,en;q=0.9",b8wzymdczqwxmfk,20,"[""White""]",No,Female,NA,Yes,153954.00000000003,NA,1540,NA,"{""product_choice"":""A""}",choice,tcd,trinary,repulsion_A,2,microwave ovens,null,null,null,null,null,null,2,30,40,20,100,90,100,Warranty,Cooking power,NA,NA
NA,NA,NA,NA,NA,choice_trial_setup,html-keyboard-response,74,88479,0.0-4.0-0.35,145,1,2025-05-03T21:22:18Z,b60275e29fe2361ab97ac0ac217840d7,"Mozilla/5.0 (Macintosh; Intel Mac OS X 10_15_7) AppleWebKit/605.1.15 (KHTML, like Gecko) Version/17.5 Safari/605.1.15",Macintosh,Safari,17.5,OS X,10_15_7,https://5puzkbbxv1.cognition.run/?sona_id=56890,"en-US,en;q=0.9",b8wzymdczqwxmfk,20,"[""White""]",No,Female,NA,Yes,153954.00000000003,NA,null,<p></p>,null,choice,ct,binary,repulsion,1,televisions,null,null,null,null,null,null,1,NA,NA,NA,NA,NA,NA,NA,NA,NA,NA
NA,NA,NA,NA,NA,choice_trial,survey-html-form,75,89835,0.0-4.0-1.35,145,1,2025-05-03T21:22:18Z,b60275e29fe2361ab97ac0ac217840d7,"Mozilla/5.0 (Macintosh; Intel Mac OS X 10_15_7) AppleWebKit/605.1.15 (KHTML, like Gecko) Version/17.5 Safari/605.1.15",Macintosh,Safari,17.5,OS X,10_15_7,https://5puzkbbxv1.cognition.run/?sona_id=56890,"en-US,en;q=0.9",b8wzymdczqwxmfk,20,"[""White""]",No,Female,NA,Yes,153954.00000000003,NA,1353,NA,"{""product_choice"":""A""}",choice,ct,binary,repulsion,1,televisions,null,null,null,null,null,null,1,100,90,null,30,40,null,Screen size,Average lifespan,NA,NA
NA,NA,NA,NA,NA,choice_trial_setup,html-keyboard-response,76,90137,0.0-4.0-0.36,145,1,2025-05-03T21:22:18Z,b60275e29fe2361ab97ac0ac217840d7,"Mozilla/5.0 (Macintosh; Intel Mac OS X 10_15_7) AppleWebKit/605.1.15 (KHTML, like Gecko) Version/17.5 Safari/605.1.15",Macintosh,Safari,17.5,OS X,10_15_7,https://5puzkbbxv1.cognition.run/?sona_id=56890,"en-US,en;q=0.9",b8wzymdczqwxmfk,20,"[""White""]",No,Female,NA,Yes,153954.00000000003,NA,null,<p></p>,null,choice,ct,binary,repulsion,2,washing machines,null,null,null,null,null,null,2,NA,NA,NA,NA,NA,NA,NA,NA,NA,NA
NA,NA,NA,NA,NA,choice_trial,survey-html-form,77,91371,0.0-4.0-1.36,145,1,2025-05-03T21:22:18Z,b60275e29fe2361ab97ac0ac217840d7,"Mozilla/5.0 (Macintosh; Intel Mac OS X 10_15_7) AppleWebKit/605.1.15 (KHTML, like Gecko) Version/17.5 Safari/605.1.15",Macintosh,Safari,17.5,OS X,10_15_7,https://5puzkbbxv1.cognition.run/?sona_id=56890,"en-US,en;q=0.9",b8wzymdczqwxmfk,20,"[""White""]",No,Female,NA,Yes,153954.00000000003,NA,1232,NA,"{""product_choice"":""A""}",choice,ct,binary,repulsion,2,washing machines,null,null,null,null,null,null,2,30,40,null,100,90,null,Average lifespan,Energy savings,NA,NA
NA,NA,NA,NA,NA,choice_trial_setup,html-keyboard-response,78,91674,0.0-4.0-0.37,145,1,2025-05-03T21:22:18Z,b60275e29fe2361ab97ac0ac217840d7,"Mozilla/5.0 (Macintosh; Intel Mac OS X 10_15_7) AppleWebKit/605.1.15 (KHTML, like Gecko) Version/17.5 Safari/605.1.15",Macintosh,Safari,17.5,OS X,10_15_7,https://5puzkbbxv1.cognition.run/?sona_id=56890,"en-US,en;q=0.9",b8wzymdczqwxmfk,20,"[""White""]",No,Female,NA,Yes,153954.00000000003,NA,null,<p></p>,null,choice,tdc,trinary,repulsion_B,1,washing machines,null,null,null,null,null,null,1,NA,NA,NA,NA,NA,NA,NA,NA,NA,NA
NA,NA,NA,NA,NA,choice_trial,survey-html-form,79,93113,0.0-4.0-1.37,145,1,2025-05-03T21:22:18Z,b60275e29fe2361ab97ac0ac217840d7,"Mozilla/5.0 (Macintosh; Intel Mac OS X 10_15_7) AppleWebKit/605.1.15 (KHTML, like Gecko) Version/17.5 Safari/605.1.15",Macintosh,Safari,17.5,OS X,10_15_7,https://5puzkbbxv1.cognition.run/?sona_id=56890,"en-US,en;q=0.9",b8wzymdczqwxmfk,20,"[""White""]",No,Female,NA,Yes,153954.00000000003,NA,1435,NA,"{""product_choice"":""A""}",choice,tdc,trinary,repulsion_B,1,washing machines,null,null,null,null,null,null,1,90,100,80,40,30,40,Average lifespan,Energy savings,NA,NA
NA,NA,NA,NA,NA,choice_trial_setup,html-keyboard-response,80,93416,0.0-4.0-0.38,145,1,2025-05-03T21:22:18Z,b60275e29fe2361ab97ac0ac217840d7,"Mozilla/5.0 (Macintosh; Intel Mac OS X 10_15_7) AppleWebKit/605.1.15 (KHTML, like Gecko) Version/17.5 Safari/605.1.15",Macintosh,Safari,17.5,OS X,10_15_7,https://5puzkbbxv1.cognition.run/?sona_id=56890,"en-US,en;q=0.9",b8wzymdczqwxmfk,20,"[""White""]",No,Female,NA,Yes,153954.00000000003,NA,null,<p></p>,null,choice,dct,trinary,repulsion_A,1,microwave ovens,null,null,null,null,null,null,2,NA,NA,NA,NA,NA,NA,NA,NA,NA,NA
NA,NA,NA,NA,NA,choice_trial,survey-html-form,81,95957,0.0-4.0-1.38,145,1,2025-05-03T21:22:18Z,b60275e29fe2361ab97ac0ac217840d7,"Mozilla/5.0 (Macintosh; Intel Mac OS X 10_15_7) AppleWebKit/605.1.15 (KHTML, like Gecko) Version/17.5 Safari/605.1.15",Macintosh,Safari,17.5,OS X,10_15_7,https://5puzkbbxv1.cognition.run/?sona_id=56890,"en-US,en;q=0.9",b8wzymdczqwxmfk,20,"[""White""]",No,Female,NA,Yes,153954.00000000003,NA,2537,NA,"{""product_choice"":""A""}",choice,dct,trinary,repulsion_A,1,microwave ovens,null,null,null,null,null,null,2,100,90,100,30,40,20,Warranty,Cooking power,NA,NA
NA,NA,NA,NA,NA,choice_trial_setup,html-keyboard-response,82,96259,0.0-4.0-0.39,145,1,2025-05-03T21:22:18Z,b60275e29fe2361ab97ac0ac217840d7,"Mozilla/5.0 (Macintosh; Intel Mac OS X 10_15_7) AppleWebKit/605.1.15 (KHTML, like Gecko) Version/17.5 Safari/605.1.15",Macintosh,Safari,17.5,OS X,10_15_7,https://5puzkbbxv1.cognition.run/?sona_id=56890,"en-US,en;q=0.9",b8wzymdczqwxmfk,20,"[""White""]",No,Female,NA,Yes,153954.00000000003,NA,null,<p></p>,null,choice,dct,trinary,attraction,2,washing machines,null,null,null,null,null,null,2,NA,NA,NA,NA,NA,NA,NA,NA,NA,NA
NA,NA,NA,NA,NA,choice_trial,survey-html-form,83,98912,0.0-4.0-1.39,145,1,2025-05-03T21:22:18Z,b60275e29fe2361ab97ac0ac217840d7,"Mozilla/5.0 (Macintosh; Intel Mac OS X 10_15_7) AppleWebKit/605.1.15 (KHTML, like Gecko) Version/17.5 Safari/605.1.15",Macintosh,Safari,17.5,OS X,10_15_7,https://5puzkbbxv1.cognition.run/?sona_id=56890,"en-US,en;q=0.9",b8wzymdczqwxmfk,20,"[""White""]",No,Female,NA,Yes,153954.00000000003,NA,2650,NA,"{""product_choice"":""A""}",choice,dct,trinary,attraction,2,washing machines,null,null,null,null,null,null,2,50,60,40,60,50,60,Average lifespan,Energy savings,NA,NA
NA,NA,NA,NA,NA,choice_trial_setup,html-keyboard-response,84,99214,0.0-4.0-0.40,145,1,2025-05-03T21:22:18Z,b60275e29fe2361ab97ac0ac217840d7,"Mozilla/5.0 (Macintosh; Intel Mac OS X 10_15_7) AppleWebKit/605.1.15 (KHTML, like Gecko) Version/17.5 Safari/605.1.15",Macintosh,Safari,17.5,OS X,10_15_7,https://5puzkbbxv1.cognition.run/?sona_id=56890,"en-US,en;q=0.9",b8wzymdczqwxmfk,20,"[""White""]",No,Female,NA,Yes,153954.00000000003,NA,null,<p></p>,null,choice,wb,binary,catch,null,laptops,80,70,50,5,null,null,2,NA,NA,NA,NA,NA,NA,NA,NA,NA,NA
NA,NA,NA,NA,NA,choice_trial,survey-html-form,85,100590,0.0-4.0-1.40,145,1,2025-05-03T21:22:18Z,b60275e29fe2361ab97ac0ac217840d7,"Mozilla/5.0 (Macintosh; Intel Mac OS X 10_15_7) AppleWebKit/605.1.15 (KHTML, like Gecko) Version/17.5 Safari/605.1.15",Macintosh,Safari,17.5,OS X,10_15_7,https://5puzkbbxv1.cognition.run/?sona_id=56890,"en-US,en;q=0.9",b8wzymdczqwxmfk,20,"[""White""]",No,Female,NA,Yes,153954.00000000003,NA,1372,NA,"{""product_choice"":""A""}",choice,wb,binary,catch,null,laptops,80,70,50,5,null,null,2,null,null,null,null,null,null,Processing speed,Memory (RAM),NA,NA
NA,NA,NA,NA,NA,choice_trial_setup,html-keyboard-response,86,100892,0.0-4.0-0.41,145,1,2025-05-03T21:22:18Z,b60275e29fe2361ab97ac0ac217840d7,"Mozilla/5.0 (Macintosh; Intel Mac OS X 10_15_7) AppleWebKit/605.1.15 (KHTML, like Gecko) Version/17.5 Safari/605.1.15",Macintosh,Safari,17.5,OS X,10_15_7,https://5puzkbbxv1.cognition.run/?sona_id=56890,"en-US,en;q=0.9",b8wzymdczqwxmfk,20,"[""White""]",No,Female,NA,Yes,153954.00000000003,NA,null,<p></p>,null,choice,dtc,trinary,repulsion_A,2,laptops,null,null,null,null,null,null,1,NA,NA,NA,NA,NA,NA,NA,NA,NA,NA
NA,NA,NA,NA,NA,choice_trial,survey-html-form,87,102785,0.0-4.0-1.41,145,1,2025-05-03T21:22:18Z,b60275e29fe2361ab97ac0ac217840d7,"Mozilla/5.0 (Macintosh; Intel Mac OS X 10_15_7) AppleWebKit/605.1.15 (KHTML, like Gecko) Version/17.5 Safari/605.1.15",Macintosh,Safari,17.5,OS X,10_15_7,https://5puzkbbxv1.cognition.run/?sona_id=56890,"en-US,en;q=0.9",b8wzymdczqwxmfk,20,"[""White""]",No,Female,NA,Yes,153954.00000000003,NA,1889,NA,"{""product_choice"":""A""}",choice,dtc,trinary,repulsion_A,2,laptops,null,null,null,null,null,null,1,30,40,20,100,90,100,Processing speed,Memory (RAM),NA,NA
NA,NA,NA,NA,NA,choice_trial_setup,html-keyboard-response,88,103088,0.0-4.0-0.42,145,1,2025-05-03T21:22:18Z,b60275e29fe2361ab97ac0ac217840d7,"Mozilla/5.0 (Macintosh; Intel Mac OS X 10_15_7) AppleWebKit/605.1.15 (KHTML, like Gecko) Version/17.5 Safari/605.1.15",Macintosh,Safari,17.5,OS X,10_15_7,https://5puzkbbxv1.cognition.run/?sona_id=56890,"en-US,en;q=0.9",b8wzymdczqwxmfk,20,"[""White""]",No,Female,NA,Yes,153954.00000000003,NA,null,<p></p>,null,choice,tdc,trinary,repulsion_A,1,televisions,null,null,null,null,null,null,1,NA,NA,NA,NA,NA,NA,NA,NA,NA,NA
NA,NA,NA,NA,NA,choice_trial,survey-html-form,89,104601,0.0-4.0-1.42,145,1,2025-05-03T21:22:18Z,b60275e29fe2361ab97ac0ac217840d7,"Mozilla/5.0 (Macintosh; Intel Mac OS X 10_15_7) AppleWebKit/605.1.15 (KHTML, like Gecko) Version/17.5 Safari/605.1.15",Macintosh,Safari,17.5,OS X,10_15_7,https://5puzkbbxv1.cognition.run/?sona_id=56890,"en-US,en;q=0.9",b8wzymdczqwxmfk,20,"[""White""]",No,Female,NA,Yes,153954.00000000003,NA,1511,NA,"{""product_choice"":""A""}",choice,tdc,trinary,repulsion_A,1,televisions,null,null,null,null,null,null,1,100,90,100,30,40,20,Screen size,Average lifespan,NA,NA
NA,NA,NA,NA,NA,choice_trial_setup,html-keyboard-response,90,104905,0.0-4.0-0.43,145,1,2025-05-03T21:22:18Z,b60275e29fe2361ab97ac0ac217840d7,"Mozilla/5.0 (Macintosh; Intel Mac OS X 10_15_7) AppleWebKit/605.1.15 (KHTML, like Gecko) Version/17.5 Safari/605.1.15",Macintosh,Safari,17.5,OS X,10_15_7,https://5puzkbbxv1.cognition.run/?sona_id=56890,"en-US,en;q=0.9",b8wzymdczqwxmfk,20,"[""White""]",No,Female,NA,Yes,153954.00000000003,NA,null,<p></p>,null,choice,tc,binary,repulsion,2,laptops,null,null,null,null,null,null,1,NA,NA,NA,NA,NA,NA,NA,NA,NA,NA
NA,NA,NA,NA,NA,choice_trial,survey-html-form,91,106429,0.0-4.0-1.43,145,1,2025-05-03T21:22:18Z,b60275e29fe2361ab97ac0ac217840d7,"Mozilla/5.0 (Macintosh; Intel Mac OS X 10_15_7) AppleWebKit/605.1.15 (KHTML, like Gecko) Version/17.5 Safari/605.1.15",Macintosh,Safari,17.5,OS X,10_15_7,https://5puzkbbxv1.cognition.run/?sona_id=56890,"en-US,en;q=0.9",b8wzymdczqwxmfk,20,"[""White""]",No,Female,NA,Yes,153954.00000000003,NA,1521,NA,"{""product_choice"":""A""}",choice,tc,binary,repulsion,2,laptops,null,null,null,null,null,null,1,30,40,null,100,90,null,Processing speed,Memory (RAM),NA,NA
NA,NA,NA,NA,NA,post_trials_message,html-button-response,92,107570,0.0-5.0,145,1,2025-05-03T21:22:18Z,b60275e29fe2361ab97ac0ac217840d7,"Mozilla/5.0 (Macintosh; Intel Mac OS X 10_15_7) AppleWebKit/605.1.15 (KHTML, like Gecko) Version/17.5 Safari/605.1.15",Macintosh,Safari,17.5,OS X,10_15_7,https://5puzkbbxv1.cognition.run/?sona_id=56890,"en-US,en;q=0.9",b8wzymdczqwxmfk,20,"[""White""]",No,Female,NA,Yes,153954.00000000003,NA,1136,<p> <b>Thank you for your patience!</b></p><p>  The study will be done after completing a brief form. </p>,0,NA,NA,NA,NA,NA,NA,NA,NA,NA,NA,NA,NA,NA,NA,NA,NA,NA,NA,NA,NA,NA,NA,NA
NA,NA,NA,NA,NA,survey_message,survey-text,93,123585,0.0-6.0,145,1,2025-05-03T21:22:18Z,b60275e29fe2361ab97ac0ac217840d7,"Mozilla/5.0 (Macintosh; Intel Mac OS X 10_15_7) AppleWebKit/605.1.15 (KHTML, like Gecko) Version/17.5 Safari/605.1.15",Macintosh,Safari,17.5,OS X,10_15_7,https://5puzkbbxv1.cognition.run/?sona_id=56890,"en-US,en;q=0.9",b8wzymdczqwxmfk,20,"[""White""]",No,Female,NA,Yes,153954.00000000003,NA,16004,NA,"{""Q0"":""Based on what I thought was the best product""}",NA,NA,NA,NA,NA,NA,NA,NA,NA,NA,NA,NA,NA,NA,NA,NA,NA,NA,NA,NA,NA,Based on what I thought was the best product,NA
NA,NA,NA,NA,NA,demo_age,survey-text,94,126253,0.0-7.0,145,1,2025-05-03T21:22:18Z,b60275e29fe2361ab97ac0ac217840d7,"Mozilla/5.0 (Macintosh; Intel Mac OS X 10_15_7) AppleWebKit/605.1.15 (KHTML, like Gecko) Version/17.5 Safari/605.1.15",Macintosh,Safari,17.5,OS X,10_15_7,https://5puzkbbxv1.cognition.run/?sona_id=56890,"en-US,en;q=0.9",b8wzymdczqwxmfk,20,"[""White""]",No,Female,NA,Yes,153954.00000000003,NA,2663,NA,"{""Q0"":""20""}",NA,NA,NA,NA,NA,NA,NA,NA,NA,NA,NA,NA,NA,NA,NA,NA,NA,NA,NA,NA,NA,NA,NA
NA,NA,NA,NA,NA,demo_race,survey-multi-select,95,131111,0.0-8.0,145,1,2025-05-03T21:22:18Z,b60275e29fe2361ab97ac0ac217840d7,"Mozilla/5.0 (Macintosh; Intel Mac OS X 10_15_7) AppleWebKit/605.1.15 (KHTML, like Gecko) Version/17.5 Safari/605.1.15",Macintosh,Safari,17.5,OS X,10_15_7,https://5puzkbbxv1.cognition.run/?sona_id=56890,"en-US,en;q=0.9",b8wzymdczqwxmfk,20,"[""White""]",No,Female,NA,Yes,153954.00000000003,NA,4855,NA,"{""Q0"":[""White""]}",NA,NA,NA,NA,NA,NA,NA,NA,NA,NA,NA,NA,NA,NA,NA,NA,NA,NA,NA,NA,NA,NA,[0]
NA,NA,NA,NA,NA,demo_ethnicity_gender,survey-multi-choice,96,134867,0.0-9.0,145,1,2025-05-03T21:22:18Z,b60275e29fe2361ab97ac0ac217840d7,"Mozilla/5.0 (Macintosh; Intel Mac OS X 10_15_7) AppleWebKit/605.1.15 (KHTML, like Gecko) Version/17.5 Safari/605.1.15",Macintosh,Safari,17.5,OS X,10_15_7,https://5puzkbbxv1.cognition.run/?sona_id=56890,"en-US,en;q=0.9",b8wzymdczqwxmfk,20,"[""White""]",No,Female,NA,Yes,153954.00000000003,NA,3753,NA,"{""Q0"":""No"",""Q1"":""Female""}",NA,NA,NA,NA,NA,NA,NA,NA,NA,NA,NA,NA,NA,NA,NA,NA,NA,NA,NA,NA,NA,NA,"[0,1]"
NA,NA,NA,NA,NA,demo_countries,survey-text,97,144230,0.0-10.0,145,1,2025-05-03T21:22:18Z,b60275e29fe2361ab97ac0ac217840d7,"Mozilla/5.0 (Macintosh; Intel Mac OS X 10_15_7) AppleWebKit/605.1.15 (KHTML, like Gecko) Version/17.5 Safari/605.1.15",Macintosh,Safari,17.5,OS X,10_15_7,https://5puzkbbxv1.cognition.run/?sona_id=56890,"en-US,en;q=0.9",b8wzymdczqwxmfk,20,"[""White""]",No,Female,NA,Yes,153954.00000000003,NA,9359,NA,"{""Q0"":""NA""}",NA,NA,NA,NA,NA,NA,NA,NA,NA,NA,NA,NA,NA,NA,NA,NA,NA,NA,NA,NA,NA,NA,NA
NA,NA,NA,NA,NA,demo_prev_study,survey-multi-choice,98,148191,0.0-11.0,145,1,2025-05-03T21:22:18Z,b60275e29fe2361ab97ac0ac217840d7,"Mozilla/5.0 (Macintosh; Intel Mac OS X 10_15_7) AppleWebKit/605.1.15 (KHTML, like Gecko) Version/17.5 Safari/605.1.15",Macintosh,Safari,17.5,OS X,10_15_7,https://5puzkbbxv1.cognition.run/?sona_id=56890,"en-US,en;q=0.9",b8wzymdczqwxmfk,20,"[""White""]",No,Female,NA,Yes,153954.00000000003,NA,3958,NA,"{""Q0"":""Yes""}",NA,NA,NA,NA,NA,NA,NA,NA,NA,NA,NA,NA,NA,NA,NA,NA,NA,NA,NA,NA,NA,NA,[0]
NA,NA,NA,NA,NA,post_survey_message,html-keyboard-response,99,151836,0.0-12.0,145,1,2025-05-03T21:22:18Z,b60275e29fe2361ab97ac0ac217840d7,"Mozilla/5.0 (Macintosh; Intel Mac OS X 10_15_7) AppleWebKit/605.1.15 (KHTML, like Gecko) Version/17.5 Safari/605.1.15",Macintosh,Safari,17.5,OS X,10_15_7,https://5puzkbbxv1.cognition.run/?sona_id=56890,"en-US,en;q=0.9",b8wzymdczqwxmfk,20,"[""White""]",No,Female,NA,Yes,153954.00000000003,NA,3640,NA,j,NA,NA,NA,NA,NA,NA,NA,NA,NA,NA,NA,NA,NA,NA,NA,NA,NA,NA,NA,NA,NA,NA,NA
NA,NA,NA,NA,NA,debrief,image-keyboard-response,100,153952,0.0-13.0,145,1,2025-05-03T21:22:18Z,b60275e29fe2361ab97ac0ac217840d7,"Mozilla/5.0 (Macintosh; Intel Mac OS X 10_15_7) AppleWebKit/605.1.15 (KHTML, like Gecko) Version/17.5 Safari/605.1.15",Macintosh,Safari,17.5,OS X,10_15_7,https://5puzkbbxv1.cognition.run/?sona_id=56890,"en-US,en;q=0.9",b8wzymdczqwxmfk,20,"[""White""]",No,Female,NA,Yes,153954.00000000003,NA,2090,Judg_choice_debrief.png,p,NA,NA,NA,NA,NA,NA,NA,NA,NA,NA,NA,NA,NA,NA,NA,NA,NA,NA,NA,NA,NA,NA,NA
