success,timeout,failed_images,failed_audio,failed_video,screen_id,trial_type,trial_index,time_elapsed,internal_node_id,run_id,condition,recorded_at,source_code_version,user_agent,device,browser,browser_version,platform,platform_version,referer,accept_language,ppt_id,age,race,ethnicity,gender,other_countries,prev_study,exp_duration,view_history,rt,stimulus,response,phase,order,set,effect,t_high,category,d1_best,d2_best,d1_worst1,d2_worst1,d1_worst2,d2_worst2,first_dim,d1_t,d1_c,d1_d,d2_t,d2_c,d2_d,d1_name,d2_name,strategy_response,question_order
TRUE,FALSE,[],[],[],img preload,preload,0,215,0.0-0.0,146,1,2025-05-03T21:22:43Z,b60275e29fe2361ab97ac0ac217840d7,"Mozilla/5.0 (X11; CrOS x86_64 14541.0.0) AppleWebKit/537.36 (KHTML, like Gecko) Chrome/134.0.0.0 Safari/537.36",WebKit,Chrome,134.0.0.0,ChromeOS,14541.0.0,https://5puzkbbxv1.cognition.run/?sona_id=58217,"en-US,en;q=0.9",zb552jy7l707v7r,19,"[""White""]",No,Female,NA,No,589893.1999999993,NA,NA,NA,NA,NA,NA,NA,NA,NA,NA,NA,NA,NA,NA,NA,NA,NA,NA,NA,NA,NA,NA,NA,NA,NA,NA,NA
NA,NA,NA,NA,NA,computer_message,instructions,1,4226,0.0-1.0,146,1,2025-05-03T21:22:43Z,b60275e29fe2361ab97ac0ac217840d7,"Mozilla/5.0 (X11; CrOS x86_64 14541.0.0) AppleWebKit/537.36 (KHTML, like Gecko) Chrome/134.0.0.0 Safari/537.36",WebKit,Chrome,134.0.0.0,ChromeOS,14541.0.0,https://5puzkbbxv1.cognition.run/?sona_id=58217,"en-US,en;q=0.9",zb552jy7l707v7r,19,"[""White""]",No,Female,NA,No,589893.1999999993,"[{""page_index"":0,""viewing_time"":4003}]",4005,NA,NA,NA,NA,NA,NA,NA,NA,NA,NA,NA,NA,NA,NA,NA,NA,NA,NA,NA,NA,NA,NA,NA,NA,NA
TRUE,NA,NA,NA,NA,NA,fullscreen,2,9790,0.0-2.0,146,1,2025-05-03T21:22:43Z,b60275e29fe2361ab97ac0ac217840d7,"Mozilla/5.0 (X11; CrOS x86_64 14541.0.0) AppleWebKit/537.36 (KHTML, like Gecko) Chrome/134.0.0.0 Safari/537.36",WebKit,Chrome,134.0.0.0,ChromeOS,14541.0.0,https://5puzkbbxv1.cognition.run/?sona_id=58217,"en-US,en;q=0.9",zb552jy7l707v7r,19,"[""White""]",No,Female,NA,No,589893.1999999993,NA,4552,NA,NA,NA,NA,NA,NA,NA,NA,NA,NA,NA,NA,NA,NA,NA,NA,NA,NA,NA,NA,NA,NA,NA,NA,NA
NA,NA,NA,NA,NA,choice_instructions,instructions,3,54852,0.0-3.0,146,1,2025-05-03T21:22:43Z,b60275e29fe2361ab97ac0ac217840d7,"Mozilla/5.0 (X11; CrOS x86_64 14541.0.0) AppleWebKit/537.36 (KHTML, like Gecko) Chrome/134.0.0.0 Safari/537.36",WebKit,Chrome,134.0.0.0,ChromeOS,14541.0.0,https://5puzkbbxv1.cognition.run/?sona_id=58217,"en-US,en;q=0.9",zb552jy7l707v7r,19,"[""White""]",No,Female,NA,No,589893.1999999993,"[{""page_index"":0,""viewing_time"":2197},{""page_index"":1,""viewing_time"":4252},{""page_index"":2,""viewing_time"":4454},{""page_index"":3,""viewing_time"":4174},{""page_index"":4,""viewing_time"":2642},{""page_index"":5,""viewing_time"":21477},{""page_index"":6,""viewing_time"":5861}]",45058,NA,NA,NA,NA,NA,NA,NA,NA,NA,NA,NA,NA,NA,NA,NA,NA,NA,NA,NA,NA,NA,NA,NA,NA,NA
NA,NA,NA,NA,NA,choice_trial_setup,html-keyboard-response,4,55161,0.0-4.0-0.0,146,1,2025-05-03T21:22:43Z,b60275e29fe2361ab97ac0ac217840d7,"Mozilla/5.0 (X11; CrOS x86_64 14541.0.0) AppleWebKit/537.36 (KHTML, like Gecko) Chrome/134.0.0.0 Safari/537.36",WebKit,Chrome,134.0.0.0,ChromeOS,14541.0.0,https://5puzkbbxv1.cognition.run/?sona_id=58217,"en-US,en;q=0.9",zb552jy7l707v7r,19,"[""White""]",No,Female,NA,No,589893.1999999993,NA,null,<p></p>,null,choice,wb,binary,catch,null,washing machines,75,50,35,20,null,null,2,NA,NA,NA,NA,NA,NA,NA,NA,NA,NA
NA,NA,NA,NA,NA,choice_trial,survey-html-form,5,67133,0.0-4.0-1.0,146,1,2025-05-03T21:22:43Z,b60275e29fe2361ab97ac0ac217840d7,"Mozilla/5.0 (X11; CrOS x86_64 14541.0.0) AppleWebKit/537.36 (KHTML, like Gecko) Chrome/134.0.0.0 Safari/537.36",WebKit,Chrome,134.0.0.0,ChromeOS,14541.0.0,https://5puzkbbxv1.cognition.run/?sona_id=58217,"en-US,en;q=0.9",zb552jy7l707v7r,19,"[""White""]",No,Female,NA,No,589893.1999999993,NA,11956,NA,"{""product_choice"":""B""}",choice,wb,binary,catch,null,washing machines,75,50,35,20,null,null,2,null,null,null,null,null,null,Average lifespan,Energy savings,NA,NA
NA,NA,NA,NA,NA,choice_trial_setup,html-keyboard-response,6,67439,0.0-4.0-0.1,146,1,2025-05-03T21:22:43Z,b60275e29fe2361ab97ac0ac217840d7,"Mozilla/5.0 (X11; CrOS x86_64 14541.0.0) AppleWebKit/537.36 (KHTML, like Gecko) Chrome/134.0.0.0 Safari/537.36",WebKit,Chrome,134.0.0.0,ChromeOS,14541.0.0,https://5puzkbbxv1.cognition.run/?sona_id=58217,"en-US,en;q=0.9",zb552jy7l707v7r,19,"[""White""]",No,Female,NA,No,589893.1999999993,NA,null,<p></p>,null,choice,tc,binary,repulsion,1,washing machines,null,null,null,null,null,null,2,NA,NA,NA,NA,NA,NA,NA,NA,NA,NA
NA,NA,NA,NA,NA,choice_trial,survey-html-form,7,74594,0.0-4.0-1.1,146,1,2025-05-03T21:22:43Z,b60275e29fe2361ab97ac0ac217840d7,"Mozilla/5.0 (X11; CrOS x86_64 14541.0.0) AppleWebKit/537.36 (KHTML, like Gecko) Chrome/134.0.0.0 Safari/537.36",WebKit,Chrome,134.0.0.0,ChromeOS,14541.0.0,https://5puzkbbxv1.cognition.run/?sona_id=58217,"en-US,en;q=0.9",zb552jy7l707v7r,19,"[""White""]",No,Female,NA,No,589893.1999999993,NA,7148,NA,"{""product_choice"":""B""}",choice,tc,binary,repulsion,1,washing machines,null,null,null,null,null,null,2,100,90,null,30,40,null,Average lifespan,Energy savings,NA,NA
NA,NA,NA,NA,NA,choice_trial_setup,html-keyboard-response,8,74901,0.0-4.0-0.2,146,1,2025-05-03T21:22:43Z,b60275e29fe2361ab97ac0ac217840d7,"Mozilla/5.0 (X11; CrOS x86_64 14541.0.0) AppleWebKit/537.36 (KHTML, like Gecko) Chrome/134.0.0.0 Safari/537.36",WebKit,Chrome,134.0.0.0,ChromeOS,14541.0.0,https://5puzkbbxv1.cognition.run/?sona_id=58217,"en-US,en;q=0.9",zb552jy7l707v7r,19,"[""White""]",No,Female,NA,No,589893.1999999993,NA,null,<p></p>,null,choice,tcd,trinary,repulsion_B,2,laptops,null,null,null,null,null,null,2,NA,NA,NA,NA,NA,NA,NA,NA,NA,NA
NA,NA,NA,NA,NA,choice_trial,survey-html-form,9,94175,0.0-4.0-1.2,146,1,2025-05-03T21:22:43Z,b60275e29fe2361ab97ac0ac217840d7,"Mozilla/5.0 (X11; CrOS x86_64 14541.0.0) AppleWebKit/537.36 (KHTML, like Gecko) Chrome/134.0.0.0 Safari/537.36",WebKit,Chrome,134.0.0.0,ChromeOS,14541.0.0,https://5puzkbbxv1.cognition.run/?sona_id=58217,"en-US,en;q=0.9",zb552jy7l707v7r,19,"[""White""]",No,Female,NA,No,589893.1999999993,NA,19266,NA,"{""product_choice"":""B""}",choice,tcd,trinary,repulsion_B,2,laptops,null,null,null,null,null,null,2,40,30,40,90,100,80,Processing speed,Memory (RAM),NA,NA
NA,NA,NA,NA,NA,choice_trial_setup,html-keyboard-response,10,94480,0.0-4.0-0.3,146,1,2025-05-03T21:22:43Z,b60275e29fe2361ab97ac0ac217840d7,"Mozilla/5.0 (X11; CrOS x86_64 14541.0.0) AppleWebKit/537.36 (KHTML, like Gecko) Chrome/134.0.0.0 Safari/537.36",WebKit,Chrome,134.0.0.0,ChromeOS,14541.0.0,https://5puzkbbxv1.cognition.run/?sona_id=58217,"en-US,en;q=0.9",zb552jy7l707v7r,19,"[""White""]",No,Female,NA,No,589893.1999999993,NA,null,<p></p>,null,choice,tdc,trinary,repulsion_B,2,washing machines,null,null,null,null,null,null,1,NA,NA,NA,NA,NA,NA,NA,NA,NA,NA
NA,NA,NA,NA,NA,choice_trial,survey-html-form,11,106803,0.0-4.0-1.3,146,1,2025-05-03T21:22:43Z,b60275e29fe2361ab97ac0ac217840d7,"Mozilla/5.0 (X11; CrOS x86_64 14541.0.0) AppleWebKit/537.36 (KHTML, like Gecko) Chrome/134.0.0.0 Safari/537.36",WebKit,Chrome,134.0.0.0,ChromeOS,14541.0.0,https://5puzkbbxv1.cognition.run/?sona_id=58217,"en-US,en;q=0.9",zb552jy7l707v7r,19,"[""White""]",No,Female,NA,No,589893.1999999993,NA,12315,NA,"{""product_choice"":""A""}",choice,tdc,trinary,repulsion_B,2,washing machines,null,null,null,null,null,null,1,40,30,40,90,100,80,Average lifespan,Energy savings,NA,NA
NA,NA,NA,NA,NA,choice_trial_setup,html-keyboard-response,12,107106,0.0-4.0-0.4,146,1,2025-05-03T21:22:43Z,b60275e29fe2361ab97ac0ac217840d7,"Mozilla/5.0 (X11; CrOS x86_64 14541.0.0) AppleWebKit/537.36 (KHTML, like Gecko) Chrome/134.0.0.0 Safari/537.36",WebKit,Chrome,134.0.0.0,ChromeOS,14541.0.0,https://5puzkbbxv1.cognition.run/?sona_id=58217,"en-US,en;q=0.9",zb552jy7l707v7r,19,"[""White""]",No,Female,NA,No,589893.1999999993,NA,null,<p></p>,null,choice,dtc,trinary,repulsion_A,1,televisions,null,null,null,null,null,null,2,NA,NA,NA,NA,NA,NA,NA,NA,NA,NA
NA,NA,NA,NA,NA,choice_trial,survey-html-form,13,117042,0.0-4.0-1.4,146,1,2025-05-03T21:22:43Z,b60275e29fe2361ab97ac0ac217840d7,"Mozilla/5.0 (X11; CrOS x86_64 14541.0.0) AppleWebKit/537.36 (KHTML, like Gecko) Chrome/134.0.0.0 Safari/537.36",WebKit,Chrome,134.0.0.0,ChromeOS,14541.0.0,https://5puzkbbxv1.cognition.run/?sona_id=58217,"en-US,en;q=0.9",zb552jy7l707v7r,19,"[""White""]",No,Female,NA,No,589893.1999999993,NA,9928,NA,"{""product_choice"":""C""}",choice,dtc,trinary,repulsion_A,1,televisions,null,null,null,null,null,null,2,100,90,100,30,40,20,Screen size,Average lifespan,NA,NA
NA,NA,NA,NA,NA,choice_trial_setup,html-keyboard-response,14,117348,0.0-4.0-0.5,146,1,2025-05-03T21:22:43Z,b60275e29fe2361ab97ac0ac217840d7,"Mozilla/5.0 (X11; CrOS x86_64 14541.0.0) AppleWebKit/537.36 (KHTML, like Gecko) Chrome/134.0.0.0 Safari/537.36",WebKit,Chrome,134.0.0.0,ChromeOS,14541.0.0,https://5puzkbbxv1.cognition.run/?sona_id=58217,"en-US,en;q=0.9",zb552jy7l707v7r,19,"[""White""]",No,Female,NA,No,589893.1999999993,NA,null,<p></p>,null,choice,cdt,trinary,repulsion_A,1,laptops,null,null,null,null,null,null,2,NA,NA,NA,NA,NA,NA,NA,NA,NA,NA
NA,NA,NA,NA,NA,choice_trial,survey-html-form,15,127088,0.0-4.0-1.5,146,1,2025-05-03T21:22:43Z,b60275e29fe2361ab97ac0ac217840d7,"Mozilla/5.0 (X11; CrOS x86_64 14541.0.0) AppleWebKit/537.36 (KHTML, like Gecko) Chrome/134.0.0.0 Safari/537.36",WebKit,Chrome,134.0.0.0,ChromeOS,14541.0.0,https://5puzkbbxv1.cognition.run/?sona_id=58217,"en-US,en;q=0.9",zb552jy7l707v7r,19,"[""White""]",No,Female,NA,No,589893.1999999993,NA,9733,NA,"{""product_choice"":""A""}",choice,cdt,trinary,repulsion_A,1,laptops,null,null,null,null,null,null,2,100,90,100,30,40,20,Processing speed,Memory (RAM),NA,NA
NA,NA,NA,NA,NA,choice_trial_setup,html-keyboard-response,16,127394,0.0-4.0-0.6,146,1,2025-05-03T21:22:43Z,b60275e29fe2361ab97ac0ac217840d7,"Mozilla/5.0 (X11; CrOS x86_64 14541.0.0) AppleWebKit/537.36 (KHTML, like Gecko) Chrome/134.0.0.0 Safari/537.36",WebKit,Chrome,134.0.0.0,ChromeOS,14541.0.0,https://5puzkbbxv1.cognition.run/?sona_id=58217,"en-US,en;q=0.9",zb552jy7l707v7r,19,"[""White""]",No,Female,NA,No,589893.1999999993,NA,null,<p></p>,null,choice,wb,binary,catch,null,laptops,70,65,30,30,null,null,2,NA,NA,NA,NA,NA,NA,NA,NA,NA,NA
NA,NA,NA,NA,NA,choice_trial,survey-html-form,17,132755,0.0-4.0-1.6,146,1,2025-05-03T21:22:43Z,b60275e29fe2361ab97ac0ac217840d7,"Mozilla/5.0 (X11; CrOS x86_64 14541.0.0) AppleWebKit/537.36 (KHTML, like Gecko) Chrome/134.0.0.0 Safari/537.36",WebKit,Chrome,134.0.0.0,ChromeOS,14541.0.0,https://5puzkbbxv1.cognition.run/?sona_id=58217,"en-US,en;q=0.9",zb552jy7l707v7r,19,"[""White""]",No,Female,NA,No,589893.1999999993,NA,5353,NA,"{""product_choice"":""B""}",choice,wb,binary,catch,null,laptops,70,65,30,30,null,null,2,null,null,null,null,null,null,Processing speed,Memory (RAM),NA,NA
NA,NA,NA,NA,NA,choice_trial_setup,html-keyboard-response,18,133061,0.0-4.0-0.7,146,1,2025-05-03T21:22:43Z,b60275e29fe2361ab97ac0ac217840d7,"Mozilla/5.0 (X11; CrOS x86_64 14541.0.0) AppleWebKit/537.36 (KHTML, like Gecko) Chrome/134.0.0.0 Safari/537.36",WebKit,Chrome,134.0.0.0,ChromeOS,14541.0.0,https://5puzkbbxv1.cognition.run/?sona_id=58217,"en-US,en;q=0.9",zb552jy7l707v7r,19,"[""White""]",No,Female,NA,No,589893.1999999993,NA,null,<p></p>,null,choice,tcd,trinary,attraction,2,laptops,null,null,null,null,null,null,2,NA,NA,NA,NA,NA,NA,NA,NA,NA,NA
NA,NA,NA,NA,NA,choice_trial,survey-html-form,19,139822,0.0-4.0-1.7,146,1,2025-05-03T21:22:43Z,b60275e29fe2361ab97ac0ac217840d7,"Mozilla/5.0 (X11; CrOS x86_64 14541.0.0) AppleWebKit/537.36 (KHTML, like Gecko) Chrome/134.0.0.0 Safari/537.36",WebKit,Chrome,134.0.0.0,ChromeOS,14541.0.0,https://5puzkbbxv1.cognition.run/?sona_id=58217,"en-US,en;q=0.9",zb552jy7l707v7r,19,"[""White""]",No,Female,NA,No,589893.1999999993,NA,6754,NA,"{""product_choice"":""A""}",choice,tcd,trinary,attraction,2,laptops,null,null,null,null,null,null,2,50,60,40,60,50,60,Processing speed,Memory (RAM),NA,NA
NA,NA,NA,NA,NA,choice_trial_setup,html-keyboard-response,20,140126,0.0-4.0-0.8,146,1,2025-05-03T21:22:43Z,b60275e29fe2361ab97ac0ac217840d7,"Mozilla/5.0 (X11; CrOS x86_64 14541.0.0) AppleWebKit/537.36 (KHTML, like Gecko) Chrome/134.0.0.0 Safari/537.36",WebKit,Chrome,134.0.0.0,ChromeOS,14541.0.0,https://5puzkbbxv1.cognition.run/?sona_id=58217,"en-US,en;q=0.9",zb552jy7l707v7r,19,"[""White""]",No,Female,NA,No,589893.1999999993,NA,null,<p></p>,null,choice,ctd,trinary,repulsion_B,1,laptops,null,null,null,null,null,null,1,NA,NA,NA,NA,NA,NA,NA,NA,NA,NA
NA,NA,NA,NA,NA,choice_trial,survey-html-form,21,165584,0.0-4.0-1.8,146,1,2025-05-03T21:22:43Z,b60275e29fe2361ab97ac0ac217840d7,"Mozilla/5.0 (X11; CrOS x86_64 14541.0.0) AppleWebKit/537.36 (KHTML, like Gecko) Chrome/134.0.0.0 Safari/537.36",WebKit,Chrome,134.0.0.0,ChromeOS,14541.0.0,https://5puzkbbxv1.cognition.run/?sona_id=58217,"en-US,en;q=0.9",zb552jy7l707v7r,19,"[""White""]",No,Female,NA,No,589893.1999999993,NA,25449,NA,"{""product_choice"":""B""}",choice,ctd,trinary,repulsion_B,1,laptops,null,null,null,null,null,null,1,90,100,80,40,30,40,Processing speed,Memory (RAM),NA,NA
NA,NA,NA,NA,NA,choice_trial_setup,html-keyboard-response,22,165895,0.0-4.0-0.9,146,1,2025-05-03T21:22:43Z,b60275e29fe2361ab97ac0ac217840d7,"Mozilla/5.0 (X11; CrOS x86_64 14541.0.0) AppleWebKit/537.36 (KHTML, like Gecko) Chrome/134.0.0.0 Safari/537.36",WebKit,Chrome,134.0.0.0,ChromeOS,14541.0.0,https://5puzkbbxv1.cognition.run/?sona_id=58217,"en-US,en;q=0.9",zb552jy7l707v7r,19,"[""White""]",No,Female,NA,No,589893.1999999993,NA,null,<p></p>,null,choice,tdc,trinary,repulsion_B,2,microwave ovens,null,null,null,null,null,null,1,NA,NA,NA,NA,NA,NA,NA,NA,NA,NA
NA,NA,NA,NA,NA,choice_trial,survey-html-form,23,173141,0.0-4.0-1.9,146,1,2025-05-03T21:22:43Z,b60275e29fe2361ab97ac0ac217840d7,"Mozilla/5.0 (X11; CrOS x86_64 14541.0.0) AppleWebKit/537.36 (KHTML, like Gecko) Chrome/134.0.0.0 Safari/537.36",WebKit,Chrome,134.0.0.0,ChromeOS,14541.0.0,https://5puzkbbxv1.cognition.run/?sona_id=58217,"en-US,en;q=0.9",zb552jy7l707v7r,19,"[""White""]",No,Female,NA,No,589893.1999999993,NA,7236,NA,"{""product_choice"":""A""}",choice,tdc,trinary,repulsion_B,2,microwave ovens,null,null,null,null,null,null,1,40,30,40,90,100,80,Warranty,Cooking power,NA,NA
NA,NA,NA,NA,NA,choice_trial_setup,html-keyboard-response,24,173448,0.0-4.0-0.10,146,1,2025-05-03T21:22:43Z,b60275e29fe2361ab97ac0ac217840d7,"Mozilla/5.0 (X11; CrOS x86_64 14541.0.0) AppleWebKit/537.36 (KHTML, like Gecko) Chrome/134.0.0.0 Safari/537.36",WebKit,Chrome,134.0.0.0,ChromeOS,14541.0.0,https://5puzkbbxv1.cognition.run/?sona_id=58217,"en-US,en;q=0.9",zb552jy7l707v7r,19,"[""White""]",No,Female,NA,No,589893.1999999993,NA,null,<p></p>,null,choice,ct,binary,attraction,NA,microwave ovens,null,null,null,null,null,null,1,NA,NA,NA,NA,NA,NA,NA,NA,NA,NA
NA,NA,NA,NA,NA,choice_trial,survey-html-form,25,180067,0.0-4.0-1.10,146,1,2025-05-03T21:22:43Z,b60275e29fe2361ab97ac0ac217840d7,"Mozilla/5.0 (X11; CrOS x86_64 14541.0.0) AppleWebKit/537.36 (KHTML, like Gecko) Chrome/134.0.0.0 Safari/537.36",WebKit,Chrome,134.0.0.0,ChromeOS,14541.0.0,https://5puzkbbxv1.cognition.run/?sona_id=58217,"en-US,en;q=0.9",zb552jy7l707v7r,19,"[""White""]",No,Female,NA,No,589893.1999999993,NA,6610,NA,"{""product_choice"":""A""}",choice,ct,binary,attraction,NA,microwave ovens,null,null,null,null,null,null,1,60,50,null,50,60,null,Warranty,Cooking power,NA,NA
NA,NA,NA,NA,NA,choice_trial_setup,html-keyboard-response,26,180374,0.0-4.0-0.11,146,1,2025-05-03T21:22:43Z,b60275e29fe2361ab97ac0ac217840d7,"Mozilla/5.0 (X11; CrOS x86_64 14541.0.0) AppleWebKit/537.36 (KHTML, like Gecko) Chrome/134.0.0.0 Safari/537.36",WebKit,Chrome,134.0.0.0,ChromeOS,14541.0.0,https://5puzkbbxv1.cognition.run/?sona_id=58217,"en-US,en;q=0.9",zb552jy7l707v7r,19,"[""White""]",No,Female,NA,No,589893.1999999993,NA,null,<p></p>,null,choice,bww,trinary,catch,null,televisions,60,65,5,50,25,45,2,NA,NA,NA,NA,NA,NA,NA,NA,NA,NA
NA,NA,NA,NA,NA,choice_trial,survey-html-form,27,189701,0.0-4.0-1.11,146,1,2025-05-03T21:22:43Z,b60275e29fe2361ab97ac0ac217840d7,"Mozilla/5.0 (X11; CrOS x86_64 14541.0.0) AppleWebKit/537.36 (KHTML, like Gecko) Chrome/134.0.0.0 Safari/537.36",WebKit,Chrome,134.0.0.0,ChromeOS,14541.0.0,https://5puzkbbxv1.cognition.run/?sona_id=58217,"en-US,en;q=0.9",zb552jy7l707v7r,19,"[""White""]",No,Female,NA,No,589893.1999999993,NA,9319,NA,"{""product_choice"":""A""}",choice,bww,trinary,catch,null,televisions,60,65,5,50,25,45,2,null,null,null,null,null,null,Screen size,Average lifespan,NA,NA
NA,NA,NA,NA,NA,choice_trial_setup,html-keyboard-response,28,190008,0.0-4.0-0.12,146,1,2025-05-03T21:22:43Z,b60275e29fe2361ab97ac0ac217840d7,"Mozilla/5.0 (X11; CrOS x86_64 14541.0.0) AppleWebKit/537.36 (KHTML, like Gecko) Chrome/134.0.0.0 Safari/537.36",WebKit,Chrome,134.0.0.0,ChromeOS,14541.0.0,https://5puzkbbxv1.cognition.run/?sona_id=58217,"en-US,en;q=0.9",zb552jy7l707v7r,19,"[""White""]",No,Female,NA,No,589893.1999999993,NA,null,<p></p>,null,choice,cdt,trinary,repulsion_B,1,televisions,null,null,null,null,null,null,2,NA,NA,NA,NA,NA,NA,NA,NA,NA,NA
NA,NA,NA,NA,NA,choice_trial,survey-html-form,29,199344,0.0-4.0-1.12,146,1,2025-05-03T21:22:43Z,b60275e29fe2361ab97ac0ac217840d7,"Mozilla/5.0 (X11; CrOS x86_64 14541.0.0) AppleWebKit/537.36 (KHTML, like Gecko) Chrome/134.0.0.0 Safari/537.36",WebKit,Chrome,134.0.0.0,ChromeOS,14541.0.0,https://5puzkbbxv1.cognition.run/?sona_id=58217,"en-US,en;q=0.9",zb552jy7l707v7r,19,"[""White""]",No,Female,NA,No,589893.1999999993,NA,9328,NA,"{""product_choice"":""C""}",choice,cdt,trinary,repulsion_B,1,televisions,null,null,null,null,null,null,2,90,100,80,40,30,40,Screen size,Average lifespan,NA,NA
NA,NA,NA,NA,NA,choice_trial_setup,html-keyboard-response,30,199653,0.0-4.0-0.13,146,1,2025-05-03T21:22:43Z,b60275e29fe2361ab97ac0ac217840d7,"Mozilla/5.0 (X11; CrOS x86_64 14541.0.0) AppleWebKit/537.36 (KHTML, like Gecko) Chrome/134.0.0.0 Safari/537.36",WebKit,Chrome,134.0.0.0,ChromeOS,14541.0.0,https://5puzkbbxv1.cognition.run/?sona_id=58217,"en-US,en;q=0.9",zb552jy7l707v7r,19,"[""White""]",No,Female,NA,No,589893.1999999993,NA,null,<p></p>,null,choice,ct,binary,repulsion,2,microwave ovens,null,null,null,null,null,null,1,NA,NA,NA,NA,NA,NA,NA,NA,NA,NA
NA,NA,NA,NA,NA,choice_trial,survey-html-form,31,206284,0.0-4.0-1.13,146,1,2025-05-03T21:22:43Z,b60275e29fe2361ab97ac0ac217840d7,"Mozilla/5.0 (X11; CrOS x86_64 14541.0.0) AppleWebKit/537.36 (KHTML, like Gecko) Chrome/134.0.0.0 Safari/537.36",WebKit,Chrome,134.0.0.0,ChromeOS,14541.0.0,https://5puzkbbxv1.cognition.run/?sona_id=58217,"en-US,en;q=0.9",zb552jy7l707v7r,19,"[""White""]",No,Female,NA,No,589893.1999999993,NA,6622,NA,"{""product_choice"":""B""}",choice,ct,binary,repulsion,2,microwave ovens,null,null,null,null,null,null,1,30,40,null,100,90,null,Warranty,Cooking power,NA,NA
NA,NA,NA,NA,NA,choice_trial_setup,html-keyboard-response,32,206591,0.0-4.0-0.14,146,1,2025-05-03T21:22:43Z,b60275e29fe2361ab97ac0ac217840d7,"Mozilla/5.0 (X11; CrOS x86_64 14541.0.0) AppleWebKit/537.36 (KHTML, like Gecko) Chrome/134.0.0.0 Safari/537.36",WebKit,Chrome,134.0.0.0,ChromeOS,14541.0.0,https://5puzkbbxv1.cognition.run/?sona_id=58217,"en-US,en;q=0.9",zb552jy7l707v7r,19,"[""White""]",No,Female,NA,No,589893.1999999993,NA,null,<p></p>,null,choice,dtc,trinary,repulsion_B,2,televisions,null,null,null,null,null,null,2,NA,NA,NA,NA,NA,NA,NA,NA,NA,NA
NA,NA,NA,NA,NA,choice_trial,survey-html-form,33,214427,0.0-4.0-1.14,146,1,2025-05-03T21:22:43Z,b60275e29fe2361ab97ac0ac217840d7,"Mozilla/5.0 (X11; CrOS x86_64 14541.0.0) AppleWebKit/537.36 (KHTML, like Gecko) Chrome/134.0.0.0 Safari/537.36",WebKit,Chrome,134.0.0.0,ChromeOS,14541.0.0,https://5puzkbbxv1.cognition.run/?sona_id=58217,"en-US,en;q=0.9",zb552jy7l707v7r,19,"[""White""]",No,Female,NA,No,589893.1999999993,NA,7827,NA,"{""product_choice"":""B""}",choice,dtc,trinary,repulsion_B,2,televisions,null,null,null,null,null,null,2,40,30,40,90,100,80,Screen size,Average lifespan,NA,NA
NA,NA,NA,NA,NA,choice_trial_setup,html-keyboard-response,34,214734,0.0-4.0-0.15,146,1,2025-05-03T21:22:43Z,b60275e29fe2361ab97ac0ac217840d7,"Mozilla/5.0 (X11; CrOS x86_64 14541.0.0) AppleWebKit/537.36 (KHTML, like Gecko) Chrome/134.0.0.0 Safari/537.36",WebKit,Chrome,134.0.0.0,ChromeOS,14541.0.0,https://5puzkbbxv1.cognition.run/?sona_id=58217,"en-US,en;q=0.9",zb552jy7l707v7r,19,"[""White""]",No,Female,NA,No,589893.1999999993,NA,null,<p></p>,null,choice,cdt,trinary,repulsion_A,1,microwave ovens,null,null,null,null,null,null,2,NA,NA,NA,NA,NA,NA,NA,NA,NA,NA
NA,NA,NA,NA,NA,choice_trial,survey-html-form,35,220811,0.0-4.0-1.15,146,1,2025-05-03T21:22:43Z,b60275e29fe2361ab97ac0ac217840d7,"Mozilla/5.0 (X11; CrOS x86_64 14541.0.0) AppleWebKit/537.36 (KHTML, like Gecko) Chrome/134.0.0.0 Safari/537.36",WebKit,Chrome,134.0.0.0,ChromeOS,14541.0.0,https://5puzkbbxv1.cognition.run/?sona_id=58217,"en-US,en;q=0.9",zb552jy7l707v7r,19,"[""White""]",No,Female,NA,No,589893.1999999993,NA,6070,NA,"{""product_choice"":""C""}",choice,cdt,trinary,repulsion_A,1,microwave ovens,null,null,null,null,null,null,2,100,90,100,30,40,20,Warranty,Cooking power,NA,NA
NA,NA,NA,NA,NA,choice_trial_setup,html-keyboard-response,36,221118,0.0-4.0-0.16,146,1,2025-05-03T21:22:43Z,b60275e29fe2361ab97ac0ac217840d7,"Mozilla/5.0 (X11; CrOS x86_64 14541.0.0) AppleWebKit/537.36 (KHTML, like Gecko) Chrome/134.0.0.0 Safari/537.36",WebKit,Chrome,134.0.0.0,ChromeOS,14541.0.0,https://5puzkbbxv1.cognition.run/?sona_id=58217,"en-US,en;q=0.9",zb552jy7l707v7r,19,"[""White""]",No,Female,NA,No,589893.1999999993,NA,null,<p></p>,null,choice,ctd,trinary,repulsion_B,1,microwave ovens,null,null,null,null,null,null,2,NA,NA,NA,NA,NA,NA,NA,NA,NA,NA
NA,NA,NA,NA,NA,choice_trial,survey-html-form,37,229285,0.0-4.0-1.16,146,1,2025-05-03T21:22:43Z,b60275e29fe2361ab97ac0ac217840d7,"Mozilla/5.0 (X11; CrOS x86_64 14541.0.0) AppleWebKit/537.36 (KHTML, like Gecko) Chrome/134.0.0.0 Safari/537.36",WebKit,Chrome,134.0.0.0,ChromeOS,14541.0.0,https://5puzkbbxv1.cognition.run/?sona_id=58217,"en-US,en;q=0.9",zb552jy7l707v7r,19,"[""White""]",No,Female,NA,No,589893.1999999993,NA,8160,NA,"{""product_choice"":""B""}",choice,ctd,trinary,repulsion_B,1,microwave ovens,null,null,null,null,null,null,2,90,100,80,40,30,40,Warranty,Cooking power,NA,NA
NA,NA,NA,NA,NA,choice_trial_setup,html-keyboard-response,38,229592,0.0-4.0-0.17,146,1,2025-05-03T21:22:43Z,b60275e29fe2361ab97ac0ac217840d7,"Mozilla/5.0 (X11; CrOS x86_64 14541.0.0) AppleWebKit/537.36 (KHTML, like Gecko) Chrome/134.0.0.0 Safari/537.36",WebKit,Chrome,134.0.0.0,ChromeOS,14541.0.0,https://5puzkbbxv1.cognition.run/?sona_id=58217,"en-US,en;q=0.9",zb552jy7l707v7r,19,"[""White""]",No,Female,NA,No,589893.1999999993,NA,null,<p></p>,null,choice,ct,binary,repulsion,2,washing machines,null,null,null,null,null,null,2,NA,NA,NA,NA,NA,NA,NA,NA,NA,NA
NA,NA,NA,NA,NA,choice_trial,survey-html-form,39,242969,0.0-4.0-1.17,146,1,2025-05-03T21:22:43Z,b60275e29fe2361ab97ac0ac217840d7,"Mozilla/5.0 (X11; CrOS x86_64 14541.0.0) AppleWebKit/537.36 (KHTML, like Gecko) Chrome/134.0.0.0 Safari/537.36",WebKit,Chrome,134.0.0.0,ChromeOS,14541.0.0,https://5puzkbbxv1.cognition.run/?sona_id=58217,"en-US,en;q=0.9",zb552jy7l707v7r,19,"[""White""]",No,Female,NA,No,589893.1999999993,NA,13368,NA,"{""product_choice"":""A""}",choice,ct,binary,repulsion,2,washing machines,null,null,null,null,null,null,2,30,40,null,100,90,null,Average lifespan,Energy savings,NA,NA
NA,NA,NA,NA,NA,choice_trial_setup,html-keyboard-response,40,243279,0.0-4.0-0.18,146,1,2025-05-03T21:22:43Z,b60275e29fe2361ab97ac0ac217840d7,"Mozilla/5.0 (X11; CrOS x86_64 14541.0.0) AppleWebKit/537.36 (KHTML, like Gecko) Chrome/134.0.0.0 Safari/537.36",WebKit,Chrome,134.0.0.0,ChromeOS,14541.0.0,https://5puzkbbxv1.cognition.run/?sona_id=58217,"en-US,en;q=0.9",zb552jy7l707v7r,19,"[""White""]",No,Female,NA,No,589893.1999999993,NA,null,<p></p>,null,choice,wbw,trinary,catch,null,laptops,55,55,20,20,40,40,2,NA,NA,NA,NA,NA,NA,NA,NA,NA,NA
NA,NA,NA,NA,NA,choice_trial,survey-html-form,41,252768,0.0-4.0-1.18,146,1,2025-05-03T21:22:43Z,b60275e29fe2361ab97ac0ac217840d7,"Mozilla/5.0 (X11; CrOS x86_64 14541.0.0) AppleWebKit/537.36 (KHTML, like Gecko) Chrome/134.0.0.0 Safari/537.36",WebKit,Chrome,134.0.0.0,ChromeOS,14541.0.0,https://5puzkbbxv1.cognition.run/?sona_id=58217,"en-US,en;q=0.9",zb552jy7l707v7r,19,"[""White""]",No,Female,NA,No,589893.1999999993,NA,9477,NA,"{""product_choice"":""B""}",choice,wbw,trinary,catch,null,laptops,55,55,20,20,40,40,2,null,null,null,null,null,null,Processing speed,Memory (RAM),NA,NA
NA,NA,NA,NA,NA,choice_trial_setup,html-keyboard-response,42,253076,0.0-4.0-0.19,146,1,2025-05-03T21:22:43Z,b60275e29fe2361ab97ac0ac217840d7,"Mozilla/5.0 (X11; CrOS x86_64 14541.0.0) AppleWebKit/537.36 (KHTML, like Gecko) Chrome/134.0.0.0 Safari/537.36",WebKit,Chrome,134.0.0.0,ChromeOS,14541.0.0,https://5puzkbbxv1.cognition.run/?sona_id=58217,"en-US,en;q=0.9",zb552jy7l707v7r,19,"[""White""]",No,Female,NA,No,589893.1999999993,NA,null,<p></p>,null,choice,tc,binary,attraction,NA,laptops,null,null,null,null,null,null,2,NA,NA,NA,NA,NA,NA,NA,NA,NA,NA
NA,NA,NA,NA,NA,choice_trial,survey-html-form,43,258390,0.0-4.0-1.19,146,1,2025-05-03T21:22:43Z,b60275e29fe2361ab97ac0ac217840d7,"Mozilla/5.0 (X11; CrOS x86_64 14541.0.0) AppleWebKit/537.36 (KHTML, like Gecko) Chrome/134.0.0.0 Safari/537.36",WebKit,Chrome,134.0.0.0,ChromeOS,14541.0.0,https://5puzkbbxv1.cognition.run/?sona_id=58217,"en-US,en;q=0.9",zb552jy7l707v7r,19,"[""White""]",No,Female,NA,No,589893.1999999993,NA,5307,NA,"{""product_choice"":""B""}",choice,tc,binary,attraction,NA,laptops,null,null,null,null,null,null,2,60,50,null,50,60,null,Processing speed,Memory (RAM),NA,NA
NA,NA,NA,NA,NA,choice_trial_setup,html-keyboard-response,44,258698,0.0-4.0-0.20,146,1,2025-05-03T21:22:43Z,b60275e29fe2361ab97ac0ac217840d7,"Mozilla/5.0 (X11; CrOS x86_64 14541.0.0) AppleWebKit/537.36 (KHTML, like Gecko) Chrome/134.0.0.0 Safari/537.36",WebKit,Chrome,134.0.0.0,ChromeOS,14541.0.0,https://5puzkbbxv1.cognition.run/?sona_id=58217,"en-US,en;q=0.9",zb552jy7l707v7r,19,"[""White""]",No,Female,NA,No,589893.1999999993,NA,null,<p></p>,null,choice,ctd,trinary,attraction,1,microwave ovens,null,null,null,null,null,null,1,NA,NA,NA,NA,NA,NA,NA,NA,NA,NA
NA,NA,NA,NA,NA,choice_trial,survey-html-form,45,264736,0.0-4.0-1.20,146,1,2025-05-03T21:22:43Z,b60275e29fe2361ab97ac0ac217840d7,"Mozilla/5.0 (X11; CrOS x86_64 14541.0.0) AppleWebKit/537.36 (KHTML, like Gecko) Chrome/134.0.0.0 Safari/537.36",WebKit,Chrome,134.0.0.0,ChromeOS,14541.0.0,https://5puzkbbxv1.cognition.run/?sona_id=58217,"en-US,en;q=0.9",zb552jy7l707v7r,19,"[""White""]",No,Female,NA,No,589893.1999999993,NA,6028,NA,"{""product_choice"":""A""}",choice,ctd,trinary,attraction,1,microwave ovens,null,null,null,null,null,null,1,60,50,60,50,60,40,Warranty,Cooking power,NA,NA
NA,NA,NA,NA,NA,choice_trial_setup,html-keyboard-response,46,265043,0.0-4.0-0.21,146,1,2025-05-03T21:22:43Z,b60275e29fe2361ab97ac0ac217840d7,"Mozilla/5.0 (X11; CrOS x86_64 14541.0.0) AppleWebKit/537.36 (KHTML, like Gecko) Chrome/134.0.0.0 Safari/537.36",WebKit,Chrome,134.0.0.0,ChromeOS,14541.0.0,https://5puzkbbxv1.cognition.run/?sona_id=58217,"en-US,en;q=0.9",zb552jy7l707v7r,19,"[""White""]",No,Female,NA,No,589893.1999999993,NA,null,<p></p>,null,choice,tc,binary,repulsion,2,laptops,null,null,null,null,null,null,1,NA,NA,NA,NA,NA,NA,NA,NA,NA,NA
NA,NA,NA,NA,NA,choice_trial,survey-html-form,47,272065,0.0-4.0-1.21,146,1,2025-05-03T21:22:43Z,b60275e29fe2361ab97ac0ac217840d7,"Mozilla/5.0 (X11; CrOS x86_64 14541.0.0) AppleWebKit/537.36 (KHTML, like Gecko) Chrome/134.0.0.0 Safari/537.36",WebKit,Chrome,134.0.0.0,ChromeOS,14541.0.0,https://5puzkbbxv1.cognition.run/?sona_id=58217,"en-US,en;q=0.9",zb552jy7l707v7r,19,"[""White""]",No,Female,NA,No,589893.1999999993,NA,7012,NA,"{""product_choice"":""A""}",choice,tc,binary,repulsion,2,laptops,null,null,null,null,null,null,1,30,40,null,100,90,null,Processing speed,Memory (RAM),NA,NA
NA,NA,NA,NA,NA,choice_trial_setup,html-keyboard-response,48,272371,0.0-4.0-0.22,146,1,2025-05-03T21:22:43Z,b60275e29fe2361ab97ac0ac217840d7,"Mozilla/5.0 (X11; CrOS x86_64 14541.0.0) AppleWebKit/537.36 (KHTML, like Gecko) Chrome/134.0.0.0 Safari/537.36",WebKit,Chrome,134.0.0.0,ChromeOS,14541.0.0,https://5puzkbbxv1.cognition.run/?sona_id=58217,"en-US,en;q=0.9",zb552jy7l707v7r,19,"[""White""]",No,Female,NA,No,589893.1999999993,NA,null,<p></p>,null,choice,tdc,trinary,attraction,2,microwave ovens,null,null,null,null,null,null,1,NA,NA,NA,NA,NA,NA,NA,NA,NA,NA
NA,NA,NA,NA,NA,choice_trial,survey-html-form,49,278459,0.0-4.0-1.22,146,1,2025-05-03T21:22:43Z,b60275e29fe2361ab97ac0ac217840d7,"Mozilla/5.0 (X11; CrOS x86_64 14541.0.0) AppleWebKit/537.36 (KHTML, like Gecko) Chrome/134.0.0.0 Safari/537.36",WebKit,Chrome,134.0.0.0,ChromeOS,14541.0.0,https://5puzkbbxv1.cognition.run/?sona_id=58217,"en-US,en;q=0.9",zb552jy7l707v7r,19,"[""White""]",No,Female,NA,No,589893.1999999993,NA,6078,NA,"{""product_choice"":""A""}",choice,tdc,trinary,attraction,2,microwave ovens,null,null,null,null,null,null,1,50,60,40,60,50,60,Warranty,Cooking power,NA,NA
NA,NA,NA,NA,NA,choice_trial_setup,html-keyboard-response,50,278769,0.0-4.0-0.23,146,1,2025-05-03T21:22:43Z,b60275e29fe2361ab97ac0ac217840d7,"Mozilla/5.0 (X11; CrOS x86_64 14541.0.0) AppleWebKit/537.36 (KHTML, like Gecko) Chrome/134.0.0.0 Safari/537.36",WebKit,Chrome,134.0.0.0,ChromeOS,14541.0.0,https://5puzkbbxv1.cognition.run/?sona_id=58217,"en-US,en;q=0.9",zb552jy7l707v7r,19,"[""White""]",No,Female,NA,No,589893.1999999993,NA,null,<p></p>,null,choice,cdt,trinary,repulsion_B,1,washing machines,null,null,null,null,null,null,1,NA,NA,NA,NA,NA,NA,NA,NA,NA,NA
NA,NA,NA,NA,NA,choice_trial,survey-html-form,51,287667,0.0-4.0-1.23,146,1,2025-05-03T21:22:43Z,b60275e29fe2361ab97ac0ac217840d7,"Mozilla/5.0 (X11; CrOS x86_64 14541.0.0) AppleWebKit/537.36 (KHTML, like Gecko) Chrome/134.0.0.0 Safari/537.36",WebKit,Chrome,134.0.0.0,ChromeOS,14541.0.0,https://5puzkbbxv1.cognition.run/?sona_id=58217,"en-US,en;q=0.9",zb552jy7l707v7r,19,"[""White""]",No,Female,NA,No,589893.1999999993,NA,8888,NA,"{""product_choice"":""C""}",choice,cdt,trinary,repulsion_B,1,washing machines,null,null,null,null,null,null,1,90,100,80,40,30,40,Average lifespan,Energy savings,NA,NA
NA,NA,NA,NA,NA,choice_trial_setup,html-keyboard-response,52,287977,0.0-4.0-0.24,146,1,2025-05-03T21:22:43Z,b60275e29fe2361ab97ac0ac217840d7,"Mozilla/5.0 (X11; CrOS x86_64 14541.0.0) AppleWebKit/537.36 (KHTML, like Gecko) Chrome/134.0.0.0 Safari/537.36",WebKit,Chrome,134.0.0.0,ChromeOS,14541.0.0,https://5puzkbbxv1.cognition.run/?sona_id=58217,"en-US,en;q=0.9",zb552jy7l707v7r,19,"[""White""]",No,Female,NA,No,589893.1999999993,NA,null,<p></p>,null,choice,wbw,trinary,catch,null,microwave ovens,95,55,40,20,20,5,2,NA,NA,NA,NA,NA,NA,NA,NA,NA,NA
NA,NA,NA,NA,NA,choice_trial,survey-html-form,53,311445,0.0-4.0-1.24,146,1,2025-05-03T21:22:43Z,b60275e29fe2361ab97ac0ac217840d7,"Mozilla/5.0 (X11; CrOS x86_64 14541.0.0) AppleWebKit/537.36 (KHTML, like Gecko) Chrome/134.0.0.0 Safari/537.36",WebKit,Chrome,134.0.0.0,ChromeOS,14541.0.0,https://5puzkbbxv1.cognition.run/?sona_id=58217,"en-US,en;q=0.9",zb552jy7l707v7r,19,"[""White""]",No,Female,NA,No,589893.1999999993,NA,23456,NA,"{""product_choice"":""B""}",choice,wbw,trinary,catch,null,microwave ovens,95,55,40,20,20,5,2,null,null,null,null,null,null,Warranty,Cooking power,NA,NA
NA,NA,NA,NA,NA,choice_trial_setup,html-keyboard-response,54,311761,0.0-4.0-0.25,146,1,2025-05-03T21:22:43Z,b60275e29fe2361ab97ac0ac217840d7,"Mozilla/5.0 (X11; CrOS x86_64 14541.0.0) AppleWebKit/537.36 (KHTML, like Gecko) Chrome/134.0.0.0 Safari/537.36",WebKit,Chrome,134.0.0.0,ChromeOS,14541.0.0,https://5puzkbbxv1.cognition.run/?sona_id=58217,"en-US,en;q=0.9",zb552jy7l707v7r,19,"[""White""]",No,Female,NA,No,589893.1999999993,NA,null,<p></p>,null,choice,wb,binary,catch,null,microwave ovens,85,65,30,30,null,null,2,NA,NA,NA,NA,NA,NA,NA,NA,NA,NA
NA,NA,NA,NA,NA,choice_trial,survey-html-form,55,316324,0.0-4.0-1.25,146,1,2025-05-03T21:22:43Z,b60275e29fe2361ab97ac0ac217840d7,"Mozilla/5.0 (X11; CrOS x86_64 14541.0.0) AppleWebKit/537.36 (KHTML, like Gecko) Chrome/134.0.0.0 Safari/537.36",WebKit,Chrome,134.0.0.0,ChromeOS,14541.0.0,https://5puzkbbxv1.cognition.run/?sona_id=58217,"en-US,en;q=0.9",zb552jy7l707v7r,19,"[""White""]",No,Female,NA,No,589893.1999999993,NA,4556,NA,"{""product_choice"":""B""}",choice,wb,binary,catch,null,microwave ovens,85,65,30,30,null,null,2,null,null,null,null,null,null,Warranty,Cooking power,NA,NA
NA,NA,NA,NA,NA,choice_trial_setup,html-keyboard-response,56,316634,0.0-4.0-0.26,146,1,2025-05-03T21:22:43Z,b60275e29fe2361ab97ac0ac217840d7,"Mozilla/5.0 (X11; CrOS x86_64 14541.0.0) AppleWebKit/537.36 (KHTML, like Gecko) Chrome/134.0.0.0 Safari/537.36",WebKit,Chrome,134.0.0.0,ChromeOS,14541.0.0,https://5puzkbbxv1.cognition.run/?sona_id=58217,"en-US,en;q=0.9",zb552jy7l707v7r,19,"[""White""]",No,Female,NA,No,589893.1999999993,NA,null,<p></p>,null,choice,bw,binary,catch,null,televisions,60,85,20,30,null,null,2,NA,NA,NA,NA,NA,NA,NA,NA,NA,NA
NA,NA,NA,NA,NA,choice_trial,survey-html-form,57,319682,0.0-4.0-1.26,146,1,2025-05-03T21:22:43Z,b60275e29fe2361ab97ac0ac217840d7,"Mozilla/5.0 (X11; CrOS x86_64 14541.0.0) AppleWebKit/537.36 (KHTML, like Gecko) Chrome/134.0.0.0 Safari/537.36",WebKit,Chrome,134.0.0.0,ChromeOS,14541.0.0,https://5puzkbbxv1.cognition.run/?sona_id=58217,"en-US,en;q=0.9",zb552jy7l707v7r,19,"[""White""]",No,Female,NA,No,589893.1999999993,NA,3036,NA,"{""product_choice"":""A""}",choice,bw,binary,catch,null,televisions,60,85,20,30,null,null,2,null,null,null,null,null,null,Screen size,Average lifespan,NA,NA
NA,NA,NA,NA,NA,choice_trial_setup,html-keyboard-response,58,319992,0.0-4.0-0.27,146,1,2025-05-03T21:22:43Z,b60275e29fe2361ab97ac0ac217840d7,"Mozilla/5.0 (X11; CrOS x86_64 14541.0.0) AppleWebKit/537.36 (KHTML, like Gecko) Chrome/134.0.0.0 Safari/537.36",WebKit,Chrome,134.0.0.0,ChromeOS,14541.0.0,https://5puzkbbxv1.cognition.run/?sona_id=58217,"en-US,en;q=0.9",zb552jy7l707v7r,19,"[""White""]",No,Female,NA,No,589893.1999999993,NA,null,<p></p>,null,choice,ct,binary,attraction,NA,televisions,null,null,null,null,null,null,2,NA,NA,NA,NA,NA,NA,NA,NA,NA,NA
NA,NA,NA,NA,NA,choice_trial,survey-html-form,59,324756,0.0-4.0-1.27,146,1,2025-05-03T21:22:43Z,b60275e29fe2361ab97ac0ac217840d7,"Mozilla/5.0 (X11; CrOS x86_64 14541.0.0) AppleWebKit/537.36 (KHTML, like Gecko) Chrome/134.0.0.0 Safari/537.36",WebKit,Chrome,134.0.0.0,ChromeOS,14541.0.0,https://5puzkbbxv1.cognition.run/?sona_id=58217,"en-US,en;q=0.9",zb552jy7l707v7r,19,"[""White""]",No,Female,NA,No,589893.1999999993,NA,4752,NA,"{""product_choice"":""A""}",choice,ct,binary,attraction,NA,televisions,null,null,null,null,null,null,2,60,50,null,50,60,null,Screen size,Average lifespan,NA,NA
NA,NA,NA,NA,NA,choice_trial_setup,html-keyboard-response,60,325065,0.0-4.0-0.28,146,1,2025-05-03T21:22:43Z,b60275e29fe2361ab97ac0ac217840d7,"Mozilla/5.0 (X11; CrOS x86_64 14541.0.0) AppleWebKit/537.36 (KHTML, like Gecko) Chrome/134.0.0.0 Safari/537.36",WebKit,Chrome,134.0.0.0,ChromeOS,14541.0.0,https://5puzkbbxv1.cognition.run/?sona_id=58217,"en-US,en;q=0.9",zb552jy7l707v7r,19,"[""White""]",No,Female,NA,No,589893.1999999993,NA,null,<p></p>,null,choice,tcd,trinary,repulsion_A,2,televisions,null,null,null,null,null,null,2,NA,NA,NA,NA,NA,NA,NA,NA,NA,NA
NA,NA,NA,NA,NA,choice_trial,survey-html-form,61,344260,0.0-4.0-1.28,146,1,2025-05-03T21:22:43Z,b60275e29fe2361ab97ac0ac217840d7,"Mozilla/5.0 (X11; CrOS x86_64 14541.0.0) AppleWebKit/537.36 (KHTML, like Gecko) Chrome/134.0.0.0 Safari/537.36",WebKit,Chrome,134.0.0.0,ChromeOS,14541.0.0,https://5puzkbbxv1.cognition.run/?sona_id=58217,"en-US,en;q=0.9",zb552jy7l707v7r,19,"[""White""]",No,Female,NA,No,589893.1999999993,NA,19186,NA,"{""product_choice"":""B""}",choice,tcd,trinary,repulsion_A,2,televisions,null,null,null,null,null,null,2,30,40,20,100,90,100,Screen size,Average lifespan,NA,NA
NA,NA,NA,NA,NA,choice_trial_setup,html-keyboard-response,62,344576,0.0-4.0-0.29,146,1,2025-05-03T21:22:43Z,b60275e29fe2361ab97ac0ac217840d7,"Mozilla/5.0 (X11; CrOS x86_64 14541.0.0) AppleWebKit/537.36 (KHTML, like Gecko) Chrome/134.0.0.0 Safari/537.36",WebKit,Chrome,134.0.0.0,ChromeOS,14541.0.0,https://5puzkbbxv1.cognition.run/?sona_id=58217,"en-US,en;q=0.9",zb552jy7l707v7r,19,"[""White""]",No,Female,NA,No,589893.1999999993,NA,null,<p></p>,null,choice,cdt,trinary,repulsion_A,1,washing machines,null,null,null,null,null,null,1,NA,NA,NA,NA,NA,NA,NA,NA,NA,NA
NA,NA,NA,NA,NA,choice_trial,survey-html-form,63,353718,0.0-4.0-1.29,146,1,2025-05-03T21:22:43Z,b60275e29fe2361ab97ac0ac217840d7,"Mozilla/5.0 (X11; CrOS x86_64 14541.0.0) AppleWebKit/537.36 (KHTML, like Gecko) Chrome/134.0.0.0 Safari/537.36",WebKit,Chrome,134.0.0.0,ChromeOS,14541.0.0,https://5puzkbbxv1.cognition.run/?sona_id=58217,"en-US,en;q=0.9",zb552jy7l707v7r,19,"[""White""]",No,Female,NA,No,589893.1999999993,NA,9129,NA,"{""product_choice"":""C""}",choice,cdt,trinary,repulsion_A,1,washing machines,null,null,null,null,null,null,1,100,90,100,30,40,20,Average lifespan,Energy savings,NA,NA
NA,NA,NA,NA,NA,choice_trial_setup,html-keyboard-response,64,354029,0.0-4.0-0.30,146,1,2025-05-03T21:22:43Z,b60275e29fe2361ab97ac0ac217840d7,"Mozilla/5.0 (X11; CrOS x86_64 14541.0.0) AppleWebKit/537.36 (KHTML, like Gecko) Chrome/134.0.0.0 Safari/537.36",WebKit,Chrome,134.0.0.0,ChromeOS,14541.0.0,https://5puzkbbxv1.cognition.run/?sona_id=58217,"en-US,en;q=0.9",zb552jy7l707v7r,19,"[""White""]",No,Female,NA,No,589893.1999999993,NA,null,<p></p>,null,choice,ctd,trinary,attraction,1,laptops,null,null,null,null,null,null,2,NA,NA,NA,NA,NA,NA,NA,NA,NA,NA
NA,NA,NA,NA,NA,choice_trial,survey-html-form,65,359013,0.0-4.0-1.30,146,1,2025-05-03T21:22:43Z,b60275e29fe2361ab97ac0ac217840d7,"Mozilla/5.0 (X11; CrOS x86_64 14541.0.0) AppleWebKit/537.36 (KHTML, like Gecko) Chrome/134.0.0.0 Safari/537.36",WebKit,Chrome,134.0.0.0,ChromeOS,14541.0.0,https://5puzkbbxv1.cognition.run/?sona_id=58217,"en-US,en;q=0.9",zb552jy7l707v7r,19,"[""White""]",No,Female,NA,No,589893.1999999993,NA,4971,NA,"{""product_choice"":""A""}",choice,ctd,trinary,attraction,1,laptops,null,null,null,null,null,null,2,60,50,60,50,60,40,Processing speed,Memory (RAM),NA,NA
NA,NA,NA,NA,NA,choice_trial_setup,html-keyboard-response,66,359323,0.0-4.0-0.31,146,1,2025-05-03T21:22:43Z,b60275e29fe2361ab97ac0ac217840d7,"Mozilla/5.0 (X11; CrOS x86_64 14541.0.0) AppleWebKit/537.36 (KHTML, like Gecko) Chrome/134.0.0.0 Safari/537.36",WebKit,Chrome,134.0.0.0,ChromeOS,14541.0.0,https://5puzkbbxv1.cognition.run/?sona_id=58217,"en-US,en;q=0.9",zb552jy7l707v7r,19,"[""White""]",No,Female,NA,No,589893.1999999993,NA,null,<p></p>,null,choice,ct,binary,attraction,NA,washing machines,null,null,null,null,null,null,2,NA,NA,NA,NA,NA,NA,NA,NA,NA,NA
NA,NA,NA,NA,NA,choice_trial,survey-html-form,67,369192,0.0-4.0-1.31,146,1,2025-05-03T21:22:43Z,b60275e29fe2361ab97ac0ac217840d7,"Mozilla/5.0 (X11; CrOS x86_64 14541.0.0) AppleWebKit/537.36 (KHTML, like Gecko) Chrome/134.0.0.0 Safari/537.36",WebKit,Chrome,134.0.0.0,ChromeOS,14541.0.0,https://5puzkbbxv1.cognition.run/?sona_id=58217,"en-US,en;q=0.9",zb552jy7l707v7r,19,"[""White""]",No,Female,NA,No,589893.1999999993,NA,9856,NA,"{""product_choice"":""B""}",choice,ct,binary,attraction,NA,washing machines,null,null,null,null,null,null,2,60,50,null,50,60,null,Average lifespan,Energy savings,NA,NA
NA,NA,NA,NA,NA,choice_trial_setup,html-keyboard-response,68,369504,0.0-4.0-0.32,146,1,2025-05-03T21:22:43Z,b60275e29fe2361ab97ac0ac217840d7,"Mozilla/5.0 (X11; CrOS x86_64 14541.0.0) AppleWebKit/537.36 (KHTML, like Gecko) Chrome/134.0.0.0 Safari/537.36",WebKit,Chrome,134.0.0.0,ChromeOS,14541.0.0,https://5puzkbbxv1.cognition.run/?sona_id=58217,"en-US,en;q=0.9",zb552jy7l707v7r,19,"[""White""]",No,Female,NA,No,589893.1999999993,NA,null,<p></p>,null,choice,bww,trinary,catch,null,washing machines,70,70,45,50,45,10,1,NA,NA,NA,NA,NA,NA,NA,NA,NA,NA
NA,NA,NA,NA,NA,choice_trial,survey-html-form,69,376629,0.0-4.0-1.32,146,1,2025-05-03T21:22:43Z,b60275e29fe2361ab97ac0ac217840d7,"Mozilla/5.0 (X11; CrOS x86_64 14541.0.0) AppleWebKit/537.36 (KHTML, like Gecko) Chrome/134.0.0.0 Safari/537.36",WebKit,Chrome,134.0.0.0,ChromeOS,14541.0.0,https://5puzkbbxv1.cognition.run/?sona_id=58217,"en-US,en;q=0.9",zb552jy7l707v7r,19,"[""White""]",No,Female,NA,No,589893.1999999993,NA,7112,NA,"{""product_choice"":""A""}",choice,bww,trinary,catch,null,washing machines,70,70,45,50,45,10,1,null,null,null,null,null,null,Average lifespan,Energy savings,NA,NA
NA,NA,NA,NA,NA,choice_trial_setup,html-keyboard-response,70,376936,0.0-4.0-0.33,146,1,2025-05-03T21:22:43Z,b60275e29fe2361ab97ac0ac217840d7,"Mozilla/5.0 (X11; CrOS x86_64 14541.0.0) AppleWebKit/537.36 (KHTML, like Gecko) Chrome/134.0.0.0 Safari/537.36",WebKit,Chrome,134.0.0.0,ChromeOS,14541.0.0,https://5puzkbbxv1.cognition.run/?sona_id=58217,"en-US,en;q=0.9",zb552jy7l707v7r,19,"[""White""]",No,Female,NA,No,589893.1999999993,NA,null,<p></p>,null,choice,cdt,trinary,attraction,1,washing machines,null,null,null,null,null,null,2,NA,NA,NA,NA,NA,NA,NA,NA,NA,NA
NA,NA,NA,NA,NA,choice_trial,survey-html-form,71,383931,0.0-4.0-1.33,146,1,2025-05-03T21:22:43Z,b60275e29fe2361ab97ac0ac217840d7,"Mozilla/5.0 (X11; CrOS x86_64 14541.0.0) AppleWebKit/537.36 (KHTML, like Gecko) Chrome/134.0.0.0 Safari/537.36",WebKit,Chrome,134.0.0.0,ChromeOS,14541.0.0,https://5puzkbbxv1.cognition.run/?sona_id=58217,"en-US,en;q=0.9",zb552jy7l707v7r,19,"[""White""]",No,Female,NA,No,589893.1999999993,NA,6981,NA,"{""product_choice"":""C""}",choice,cdt,trinary,attraction,1,washing machines,null,null,null,null,null,null,2,60,50,60,50,60,40,Average lifespan,Energy savings,NA,NA
NA,NA,NA,NA,NA,choice_trial_setup,html-keyboard-response,72,384242,0.0-4.0-0.34,146,1,2025-05-03T21:22:43Z,b60275e29fe2361ab97ac0ac217840d7,"Mozilla/5.0 (X11; CrOS x86_64 14541.0.0) AppleWebKit/537.36 (KHTML, like Gecko) Chrome/134.0.0.0 Safari/537.36",WebKit,Chrome,134.0.0.0,ChromeOS,14541.0.0,https://5puzkbbxv1.cognition.run/?sona_id=58217,"en-US,en;q=0.9",zb552jy7l707v7r,19,"[""White""]",No,Female,NA,No,589893.1999999993,NA,null,<p></p>,null,choice,tc,binary,repulsion,1,microwave ovens,null,null,null,null,null,null,1,NA,NA,NA,NA,NA,NA,NA,NA,NA,NA
NA,NA,NA,NA,NA,choice_trial,survey-html-form,73,388414,0.0-4.0-1.34,146,1,2025-05-03T21:22:43Z,b60275e29fe2361ab97ac0ac217840d7,"Mozilla/5.0 (X11; CrOS x86_64 14541.0.0) AppleWebKit/537.36 (KHTML, like Gecko) Chrome/134.0.0.0 Safari/537.36",WebKit,Chrome,134.0.0.0,ChromeOS,14541.0.0,https://5puzkbbxv1.cognition.run/?sona_id=58217,"en-US,en;q=0.9",zb552jy7l707v7r,19,"[""White""]",No,Female,NA,No,589893.1999999993,NA,4158,NA,"{""product_choice"":""B""}",choice,tc,binary,repulsion,1,microwave ovens,null,null,null,null,null,null,1,100,90,null,30,40,null,Warranty,Cooking power,NA,NA
NA,NA,NA,NA,NA,choice_trial_setup,html-keyboard-response,74,388725,0.0-4.0-0.35,146,1,2025-05-03T21:22:43Z,b60275e29fe2361ab97ac0ac217840d7,"Mozilla/5.0 (X11; CrOS x86_64 14541.0.0) AppleWebKit/537.36 (KHTML, like Gecko) Chrome/134.0.0.0 Safari/537.36",WebKit,Chrome,134.0.0.0,ChromeOS,14541.0.0,https://5puzkbbxv1.cognition.run/?sona_id=58217,"en-US,en;q=0.9",zb552jy7l707v7r,19,"[""White""]",No,Female,NA,No,589893.1999999993,NA,null,<p></p>,null,choice,ct,binary,repulsion,2,televisions,null,null,null,null,null,null,1,NA,NA,NA,NA,NA,NA,NA,NA,NA,NA
NA,NA,NA,NA,NA,choice_trial,survey-html-form,75,398090,0.0-4.0-1.35,146,1,2025-05-03T21:22:43Z,b60275e29fe2361ab97ac0ac217840d7,"Mozilla/5.0 (X11; CrOS x86_64 14541.0.0) AppleWebKit/537.36 (KHTML, like Gecko) Chrome/134.0.0.0 Safari/537.36",WebKit,Chrome,134.0.0.0,ChromeOS,14541.0.0,https://5puzkbbxv1.cognition.run/?sona_id=58217,"en-US,en;q=0.9",zb552jy7l707v7r,19,"[""White""]",No,Female,NA,No,589893.1999999993,NA,9352,NA,"{""product_choice"":""A""}",choice,ct,binary,repulsion,2,televisions,null,null,null,null,null,null,1,30,40,null,100,90,null,Screen size,Average lifespan,NA,NA
NA,NA,NA,NA,NA,choice_trial_setup,html-keyboard-response,76,398401,0.0-4.0-0.36,146,1,2025-05-03T21:22:43Z,b60275e29fe2361ab97ac0ac217840d7,"Mozilla/5.0 (X11; CrOS x86_64 14541.0.0) AppleWebKit/537.36 (KHTML, like Gecko) Chrome/134.0.0.0 Safari/537.36",WebKit,Chrome,134.0.0.0,ChromeOS,14541.0.0,https://5puzkbbxv1.cognition.run/?sona_id=58217,"en-US,en;q=0.9",zb552jy7l707v7r,19,"[""White""]",No,Female,NA,No,589893.1999999993,NA,null,<p></p>,null,choice,dtc,trinary,attraction,2,washing machines,null,null,null,null,null,null,2,NA,NA,NA,NA,NA,NA,NA,NA,NA,NA
NA,NA,NA,NA,NA,choice_trial,survey-html-form,77,448667,0.0-4.0-1.36,146,1,2025-05-03T21:22:43Z,b60275e29fe2361ab97ac0ac217840d7,"Mozilla/5.0 (X11; CrOS x86_64 14541.0.0) AppleWebKit/537.36 (KHTML, like Gecko) Chrome/134.0.0.0 Safari/537.36",WebKit,Chrome,134.0.0.0,ChromeOS,14541.0.0,https://5puzkbbxv1.cognition.run/?sona_id=58217,"en-US,en;q=0.9",zb552jy7l707v7r,19,"[""White""]",No,Female,NA,No,589893.1999999993,NA,50250,NA,"{""product_choice"":""B""}",choice,dtc,trinary,attraction,2,washing machines,null,null,null,null,null,null,2,50,60,40,60,50,60,Average lifespan,Energy savings,NA,NA
NA,NA,NA,NA,NA,choice_trial_setup,html-keyboard-response,78,448980,0.0-4.0-0.37,146,1,2025-05-03T21:22:43Z,b60275e29fe2361ab97ac0ac217840d7,"Mozilla/5.0 (X11; CrOS x86_64 14541.0.0) AppleWebKit/537.36 (KHTML, like Gecko) Chrome/134.0.0.0 Safari/537.36",WebKit,Chrome,134.0.0.0,ChromeOS,14541.0.0,https://5puzkbbxv1.cognition.run/?sona_id=58217,"en-US,en;q=0.9",zb552jy7l707v7r,19,"[""White""]",No,Female,NA,No,589893.1999999993,NA,null,<p></p>,null,choice,tcd,trinary,repulsion_A,2,microwave ovens,null,null,null,null,null,null,1,NA,NA,NA,NA,NA,NA,NA,NA,NA,NA
NA,NA,NA,NA,NA,choice_trial,survey-html-form,79,457186,0.0-4.0-1.37,146,1,2025-05-03T21:22:43Z,b60275e29fe2361ab97ac0ac217840d7,"Mozilla/5.0 (X11; CrOS x86_64 14541.0.0) AppleWebKit/537.36 (KHTML, like Gecko) Chrome/134.0.0.0 Safari/537.36",WebKit,Chrome,134.0.0.0,ChromeOS,14541.0.0,https://5puzkbbxv1.cognition.run/?sona_id=58217,"en-US,en;q=0.9",zb552jy7l707v7r,19,"[""White""]",No,Female,NA,No,589893.1999999993,NA,8192,NA,"{""product_choice"":""B""}",choice,tcd,trinary,repulsion_A,2,microwave ovens,null,null,null,null,null,null,1,30,40,20,100,90,100,Warranty,Cooking power,NA,NA
NA,NA,NA,NA,NA,choice_trial_setup,html-keyboard-response,80,457495,0.0-4.0-0.38,146,1,2025-05-03T21:22:43Z,b60275e29fe2361ab97ac0ac217840d7,"Mozilla/5.0 (X11; CrOS x86_64 14541.0.0) AppleWebKit/537.36 (KHTML, like Gecko) Chrome/134.0.0.0 Safari/537.36",WebKit,Chrome,134.0.0.0,ChromeOS,14541.0.0,https://5puzkbbxv1.cognition.run/?sona_id=58217,"en-US,en;q=0.9",zb552jy7l707v7r,19,"[""White""]",No,Female,NA,No,589893.1999999993,NA,null,<p></p>,null,choice,tdc,trinary,attraction,1,televisions,null,null,null,null,null,null,1,NA,NA,NA,NA,NA,NA,NA,NA,NA,NA
NA,NA,NA,NA,NA,choice_trial,survey-html-form,81,464227,0.0-4.0-1.38,146,1,2025-05-03T21:22:43Z,b60275e29fe2361ab97ac0ac217840d7,"Mozilla/5.0 (X11; CrOS x86_64 14541.0.0) AppleWebKit/537.36 (KHTML, like Gecko) Chrome/134.0.0.0 Safari/537.36",WebKit,Chrome,134.0.0.0,ChromeOS,14541.0.0,https://5puzkbbxv1.cognition.run/?sona_id=58217,"en-US,en;q=0.9",zb552jy7l707v7r,19,"[""White""]",No,Female,NA,No,589893.1999999993,NA,6718,NA,"{""product_choice"":""A""}",choice,tdc,trinary,attraction,1,televisions,null,null,null,null,null,null,1,60,50,60,50,60,40,Screen size,Average lifespan,NA,NA
NA,NA,NA,NA,NA,choice_trial_setup,html-keyboard-response,82,464541,0.0-4.0-0.39,146,1,2025-05-03T21:22:43Z,b60275e29fe2361ab97ac0ac217840d7,"Mozilla/5.0 (X11; CrOS x86_64 14541.0.0) AppleWebKit/537.36 (KHTML, like Gecko) Chrome/134.0.0.0 Safari/537.36",WebKit,Chrome,134.0.0.0,ChromeOS,14541.0.0,https://5puzkbbxv1.cognition.run/?sona_id=58217,"en-US,en;q=0.9",zb552jy7l707v7r,19,"[""White""]",No,Female,NA,No,589893.1999999993,NA,null,<p></p>,null,choice,cdt,trinary,attraction,2,televisions,null,null,null,null,null,null,1,NA,NA,NA,NA,NA,NA,NA,NA,NA,NA
NA,NA,NA,NA,NA,choice_trial,survey-html-form,83,474217,0.0-4.0-1.39,146,1,2025-05-03T21:22:43Z,b60275e29fe2361ab97ac0ac217840d7,"Mozilla/5.0 (X11; CrOS x86_64 14541.0.0) AppleWebKit/537.36 (KHTML, like Gecko) Chrome/134.0.0.0 Safari/537.36",WebKit,Chrome,134.0.0.0,ChromeOS,14541.0.0,https://5puzkbbxv1.cognition.run/?sona_id=58217,"en-US,en;q=0.9",zb552jy7l707v7r,19,"[""White""]",No,Female,NA,No,589893.1999999993,NA,9660,NA,"{""product_choice"":""C""}",choice,cdt,trinary,attraction,2,televisions,null,null,null,null,null,null,1,50,60,40,60,50,60,Screen size,Average lifespan,NA,NA
NA,NA,NA,NA,NA,choice_trial_setup,html-keyboard-response,84,474529,0.0-4.0-0.40,146,1,2025-05-03T21:22:43Z,b60275e29fe2361ab97ac0ac217840d7,"Mozilla/5.0 (X11; CrOS x86_64 14541.0.0) AppleWebKit/537.36 (KHTML, like Gecko) Chrome/134.0.0.0 Safari/537.36",WebKit,Chrome,134.0.0.0,ChromeOS,14541.0.0,https://5puzkbbxv1.cognition.run/?sona_id=58217,"en-US,en;q=0.9",zb552jy7l707v7r,19,"[""White""]",No,Female,NA,No,589893.1999999993,NA,null,<p></p>,null,choice,tdc,trinary,repulsion_A,2,washing machines,null,null,null,null,null,null,1,NA,NA,NA,NA,NA,NA,NA,NA,NA,NA
NA,NA,NA,NA,NA,choice_trial,survey-html-form,85,485261,0.0-4.0-1.40,146,1,2025-05-03T21:22:43Z,b60275e29fe2361ab97ac0ac217840d7,"Mozilla/5.0 (X11; CrOS x86_64 14541.0.0) AppleWebKit/537.36 (KHTML, like Gecko) Chrome/134.0.0.0 Safari/537.36",WebKit,Chrome,134.0.0.0,ChromeOS,14541.0.0,https://5puzkbbxv1.cognition.run/?sona_id=58217,"en-US,en;q=0.9",zb552jy7l707v7r,19,"[""White""]",No,Female,NA,No,589893.1999999993,NA,10716,NA,"{""product_choice"":""C""}",choice,tdc,trinary,repulsion_A,2,washing machines,null,null,null,null,null,null,1,30,40,20,100,90,100,Average lifespan,Energy savings,NA,NA
NA,NA,NA,NA,NA,choice_trial_setup,html-keyboard-response,86,485573,0.0-4.0-0.41,146,1,2025-05-03T21:22:43Z,b60275e29fe2361ab97ac0ac217840d7,"Mozilla/5.0 (X11; CrOS x86_64 14541.0.0) AppleWebKit/537.36 (KHTML, like Gecko) Chrome/134.0.0.0 Safari/537.36",WebKit,Chrome,134.0.0.0,ChromeOS,14541.0.0,https://5puzkbbxv1.cognition.run/?sona_id=58217,"en-US,en;q=0.9",zb552jy7l707v7r,19,"[""White""]",No,Female,NA,No,589893.1999999993,NA,null,<p></p>,null,choice,ct,binary,repulsion,1,televisions,null,null,null,null,null,null,2,NA,NA,NA,NA,NA,NA,NA,NA,NA,NA
NA,NA,NA,NA,NA,choice_trial,survey-html-form,87,492061,0.0-4.0-1.41,146,1,2025-05-03T21:22:43Z,b60275e29fe2361ab97ac0ac217840d7,"Mozilla/5.0 (X11; CrOS x86_64 14541.0.0) AppleWebKit/537.36 (KHTML, like Gecko) Chrome/134.0.0.0 Safari/537.36",WebKit,Chrome,134.0.0.0,ChromeOS,14541.0.0,https://5puzkbbxv1.cognition.run/?sona_id=58217,"en-US,en;q=0.9",zb552jy7l707v7r,19,"[""White""]",No,Female,NA,No,589893.1999999993,NA,6474,NA,"{""product_choice"":""A""}",choice,ct,binary,repulsion,1,televisions,null,null,null,null,null,null,2,100,90,null,30,40,null,Screen size,Average lifespan,NA,NA
NA,NA,NA,NA,NA,choice_trial_setup,html-keyboard-response,88,492372,0.0-4.0-0.42,146,1,2025-05-03T21:22:43Z,b60275e29fe2361ab97ac0ac217840d7,"Mozilla/5.0 (X11; CrOS x86_64 14541.0.0) AppleWebKit/537.36 (KHTML, like Gecko) Chrome/134.0.0.0 Safari/537.36",WebKit,Chrome,134.0.0.0,ChromeOS,14541.0.0,https://5puzkbbxv1.cognition.run/?sona_id=58217,"en-US,en;q=0.9",zb552jy7l707v7r,19,"[""White""]",No,Female,NA,No,589893.1999999993,NA,null,<p></p>,null,choice,tcd,trinary,repulsion_A,2,laptops,null,null,null,null,null,null,2,NA,NA,NA,NA,NA,NA,NA,NA,NA,NA
NA,NA,NA,NA,NA,choice_trial,survey-html-form,89,500811,0.0-4.0-1.42,146,1,2025-05-03T21:22:43Z,b60275e29fe2361ab97ac0ac217840d7,"Mozilla/5.0 (X11; CrOS x86_64 14541.0.0) AppleWebKit/537.36 (KHTML, like Gecko) Chrome/134.0.0.0 Safari/537.36",WebKit,Chrome,134.0.0.0,ChromeOS,14541.0.0,https://5puzkbbxv1.cognition.run/?sona_id=58217,"en-US,en;q=0.9",zb552jy7l707v7r,19,"[""White""]",No,Female,NA,No,589893.1999999993,NA,8421,NA,"{""product_choice"":""A""}",choice,tcd,trinary,repulsion_A,2,laptops,null,null,null,null,null,null,2,30,40,20,100,90,100,Processing speed,Memory (RAM),NA,NA
NA,NA,NA,NA,NA,choice_trial_setup,html-keyboard-response,90,501127,0.0-4.0-0.43,146,1,2025-05-03T21:22:43Z,b60275e29fe2361ab97ac0ac217840d7,"Mozilla/5.0 (X11; CrOS x86_64 14541.0.0) AppleWebKit/537.36 (KHTML, like Gecko) Chrome/134.0.0.0 Safari/537.36",WebKit,Chrome,134.0.0.0,ChromeOS,14541.0.0,https://5puzkbbxv1.cognition.run/?sona_id=58217,"en-US,en;q=0.9",zb552jy7l707v7r,19,"[""White""]",No,Female,NA,No,589893.1999999993,NA,null,<p></p>,null,choice,ct,binary,repulsion,1,laptops,null,null,null,null,null,null,1,NA,NA,NA,NA,NA,NA,NA,NA,NA,NA
NA,NA,NA,NA,NA,choice_trial,survey-html-form,91,507587,0.0-4.0-1.43,146,1,2025-05-03T21:22:43Z,b60275e29fe2361ab97ac0ac217840d7,"Mozilla/5.0 (X11; CrOS x86_64 14541.0.0) AppleWebKit/537.36 (KHTML, like Gecko) Chrome/134.0.0.0 Safari/537.36",WebKit,Chrome,134.0.0.0,ChromeOS,14541.0.0,https://5puzkbbxv1.cognition.run/?sona_id=58217,"en-US,en;q=0.9",zb552jy7l707v7r,19,"[""White""]",No,Female,NA,No,589893.1999999993,NA,6443,NA,"{""product_choice"":""A""}",choice,ct,binary,repulsion,1,laptops,null,null,null,null,null,null,1,100,90,null,30,40,null,Processing speed,Memory (RAM),NA,NA
NA,NA,NA,NA,NA,post_trials_message,html-button-response,92,509050,0.0-5.0,146,1,2025-05-03T21:22:43Z,b60275e29fe2361ab97ac0ac217840d7,"Mozilla/5.0 (X11; CrOS x86_64 14541.0.0) AppleWebKit/537.36 (KHTML, like Gecko) Chrome/134.0.0.0 Safari/537.36",WebKit,Chrome,134.0.0.0,ChromeOS,14541.0.0,https://5puzkbbxv1.cognition.run/?sona_id=58217,"en-US,en;q=0.9",zb552jy7l707v7r,19,"[""White""]",No,Female,NA,No,589893.1999999993,NA,1446,<p> <b>Thank you for your patience!</b></p><p>  The study will be done after completing a brief form. </p>,0,NA,NA,NA,NA,NA,NA,NA,NA,NA,NA,NA,NA,NA,NA,NA,NA,NA,NA,NA,NA,NA,NA,NA
NA,NA,NA,NA,NA,survey_message,survey-text,93,553780,0.0-6.0,146,1,2025-05-03T21:22:43Z,b60275e29fe2361ab97ac0ac217840d7,"Mozilla/5.0 (X11; CrOS x86_64 14541.0.0) AppleWebKit/537.36 (KHTML, like Gecko) Chrome/134.0.0.0 Safari/537.36",WebKit,Chrome,134.0.0.0,ChromeOS,14541.0.0,https://5puzkbbxv1.cognition.run/?sona_id=58217,"en-US,en;q=0.9",zb552jy7l707v7r,19,"[""White""]",No,Female,NA,No,589893.1999999993,NA,44714,NA,"{""Q0"":""I felt it changed, but I chose what to prioritize. For example memory over processing speed. Or I would rather make them equally both good than one much better than the other""}",NA,NA,NA,NA,NA,NA,NA,NA,NA,NA,NA,NA,NA,NA,NA,NA,NA,NA,NA,NA,NA,"I felt it changed, but I chose what to prioritize. For example memory over processing speed. Or I would rather make them equally both good than one much better than the other",NA
NA,NA,NA,NA,NA,demo_age,survey-text,94,556654,0.0-7.0,146,1,2025-05-03T21:22:43Z,b60275e29fe2361ab97ac0ac217840d7,"Mozilla/5.0 (X11; CrOS x86_64 14541.0.0) AppleWebKit/537.36 (KHTML, like Gecko) Chrome/134.0.0.0 Safari/537.36",WebKit,Chrome,134.0.0.0,ChromeOS,14541.0.0,https://5puzkbbxv1.cognition.run/?sona_id=58217,"en-US,en;q=0.9",zb552jy7l707v7r,19,"[""White""]",No,Female,NA,No,589893.1999999993,NA,2848,NA,"{""Q0"":""19""}",NA,NA,NA,NA,NA,NA,NA,NA,NA,NA,NA,NA,NA,NA,NA,NA,NA,NA,NA,NA,NA,NA,NA
NA,NA,NA,NA,NA,demo_race,survey-multi-select,95,559383,0.0-8.0,146,1,2025-05-03T21:22:43Z,b60275e29fe2361ab97ac0ac217840d7,"Mozilla/5.0 (X11; CrOS x86_64 14541.0.0) AppleWebKit/537.36 (KHTML, like Gecko) Chrome/134.0.0.0 Safari/537.36",WebKit,Chrome,134.0.0.0,ChromeOS,14541.0.0,https://5puzkbbxv1.cognition.run/?sona_id=58217,"en-US,en;q=0.9",zb552jy7l707v7r,19,"[""White""]",No,Female,NA,No,589893.1999999993,NA,2707,NA,"{""Q0"":[""White""]}",NA,NA,NA,NA,NA,NA,NA,NA,NA,NA,NA,NA,NA,NA,NA,NA,NA,NA,NA,NA,NA,NA,[0]
NA,NA,NA,NA,NA,demo_ethnicity_gender,survey-multi-choice,96,564327,0.0-9.0,146,1,2025-05-03T21:22:43Z,b60275e29fe2361ab97ac0ac217840d7,"Mozilla/5.0 (X11; CrOS x86_64 14541.0.0) AppleWebKit/537.36 (KHTML, like Gecko) Chrome/134.0.0.0 Safari/537.36",WebKit,Chrome,134.0.0.0,ChromeOS,14541.0.0,https://5puzkbbxv1.cognition.run/?sona_id=58217,"en-US,en;q=0.9",zb552jy7l707v7r,19,"[""White""]",No,Female,NA,No,589893.1999999993,NA,4924,NA,"{""Q0"":""No"",""Q1"":""Female""}",NA,NA,NA,NA,NA,NA,NA,NA,NA,NA,NA,NA,NA,NA,NA,NA,NA,NA,NA,NA,NA,NA,"[0,1]"
NA,NA,NA,NA,NA,demo_countries,survey-text,97,571822,0.0-10.0,146,1,2025-05-03T21:22:43Z,b60275e29fe2361ab97ac0ac217840d7,"Mozilla/5.0 (X11; CrOS x86_64 14541.0.0) AppleWebKit/537.36 (KHTML, like Gecko) Chrome/134.0.0.0 Safari/537.36",WebKit,Chrome,134.0.0.0,ChromeOS,14541.0.0,https://5puzkbbxv1.cognition.run/?sona_id=58217,"en-US,en;q=0.9",zb552jy7l707v7r,19,"[""White""]",No,Female,NA,No,589893.1999999993,NA,7454,NA,"{""Q0"":""NA""}",NA,NA,NA,NA,NA,NA,NA,NA,NA,NA,NA,NA,NA,NA,NA,NA,NA,NA,NA,NA,NA,NA,NA
NA,NA,NA,NA,NA,demo_prev_study,survey-multi-choice,98,577803,0.0-11.0,146,1,2025-05-03T21:22:43Z,b60275e29fe2361ab97ac0ac217840d7,"Mozilla/5.0 (X11; CrOS x86_64 14541.0.0) AppleWebKit/537.36 (KHTML, like Gecko) Chrome/134.0.0.0 Safari/537.36",WebKit,Chrome,134.0.0.0,ChromeOS,14541.0.0,https://5puzkbbxv1.cognition.run/?sona_id=58217,"en-US,en;q=0.9",zb552jy7l707v7r,19,"[""White""]",No,Female,NA,No,589893.1999999993,NA,5964,NA,"{""Q0"":""No""}",NA,NA,NA,NA,NA,NA,NA,NA,NA,NA,NA,NA,NA,NA,NA,NA,NA,NA,NA,NA,NA,NA,[0]
NA,NA,NA,NA,NA,post_survey_message,html-keyboard-response,99,584415,0.0-12.0,146,1,2025-05-03T21:22:43Z,b60275e29fe2361ab97ac0ac217840d7,"Mozilla/5.0 (X11; CrOS x86_64 14541.0.0) AppleWebKit/537.36 (KHTML, like Gecko) Chrome/134.0.0.0 Safari/537.36",WebKit,Chrome,134.0.0.0,ChromeOS,14541.0.0,https://5puzkbbxv1.cognition.run/?sona_id=58217,"en-US,en;q=0.9",zb552jy7l707v7r,19,"[""White""]",No,Female,NA,No,589893.1999999993,NA,6593,NA,j,NA,NA,NA,NA,NA,NA,NA,NA,NA,NA,NA,NA,NA,NA,NA,NA,NA,NA,NA,NA,NA,NA,NA
NA,NA,NA,NA,NA,debrief,image-keyboard-response,100,589886,0.0-13.0,146,1,2025-05-03T21:22:43Z,b60275e29fe2361ab97ac0ac217840d7,"Mozilla/5.0 (X11; CrOS x86_64 14541.0.0) AppleWebKit/537.36 (KHTML, like Gecko) Chrome/134.0.0.0 Safari/537.36",WebKit,Chrome,134.0.0.0,ChromeOS,14541.0.0,https://5puzkbbxv1.cognition.run/?sona_id=58217,"en-US,en;q=0.9",zb552jy7l707v7r,19,"[""White""]",No,Female,NA,No,589893.1999999993,NA,5448,Judg_choice_debrief.png,p,NA,NA,NA,NA,NA,NA,NA,NA,NA,NA,NA,NA,NA,NA,NA,NA,NA,NA,NA,NA,NA,NA,NA
