success,timeout,failed_images,failed_audio,failed_video,screen_id,trial_type,trial_index,time_elapsed,internal_node_id,run_id,condition,recorded_at,source_code_version,user_agent,device,browser,browser_version,platform,platform_version,referer,accept_language,ppt_id,age,race,ethnicity,gender,other_countries,prev_study,exp_duration,view_history,rt,stimulus,response,phase,order,set,effect,t_high,category,d1_best,d2_best,d1_worst1,d2_worst1,d1_worst2,d2_worst2,first_dim,d1_t,d1_c,d1_d,d2_t,d2_c,d2_d,d1_name,d2_name,strategy_response,question_order
TRUE,FALSE,[],[],[],img preload,preload,0,315,0.0-0.0,147,1,2025-05-03T21:22:50Z,b60275e29fe2361ab97ac0ac217840d7,"Mozilla/5.0 (Macintosh; Intel Mac OS X 10_15_7) AppleWebKit/605.1.15 (KHTML, like Gecko) Version/17.2 Safari/605.1.15",Macintosh,Safari,17.2,OS X,10_15_7,https://5puzkbbxv1.cognition.run/?sona_id=52116,"en-US,en;q=0.9",8zjcmx935ms6et3,20,"[""Asian""]",No,Male,NA,Yes,142650,NA,NA,NA,NA,NA,NA,NA,NA,NA,NA,NA,NA,NA,NA,NA,NA,NA,NA,NA,NA,NA,NA,NA,NA,NA,NA,NA
NA,NA,NA,NA,NA,computer_message,instructions,1,1899,0.0-1.0,147,1,2025-05-03T21:22:50Z,b60275e29fe2361ab97ac0ac217840d7,"Mozilla/5.0 (Macintosh; Intel Mac OS X 10_15_7) AppleWebKit/605.1.15 (KHTML, like Gecko) Version/17.2 Safari/605.1.15",Macintosh,Safari,17.2,OS X,10_15_7,https://5puzkbbxv1.cognition.run/?sona_id=52116,"en-US,en;q=0.9",8zjcmx935ms6et3,20,"[""Asian""]",No,Male,NA,Yes,142650,"[{""page_index"":0,""viewing_time"":1581}]",1581,NA,NA,NA,NA,NA,NA,NA,NA,NA,NA,NA,NA,NA,NA,NA,NA,NA,NA,NA,NA,NA,NA,NA,NA,NA
TRUE,NA,NA,NA,NA,NA,fullscreen,2,3646,0.0-2.0,147,1,2025-05-03T21:22:50Z,b60275e29fe2361ab97ac0ac217840d7,"Mozilla/5.0 (Macintosh; Intel Mac OS X 10_15_7) AppleWebKit/605.1.15 (KHTML, like Gecko) Version/17.2 Safari/605.1.15",Macintosh,Safari,17.2,OS X,10_15_7,https://5puzkbbxv1.cognition.run/?sona_id=52116,"en-US,en;q=0.9",8zjcmx935ms6et3,20,"[""Asian""]",No,Male,NA,Yes,142650,NA,742,NA,NA,NA,NA,NA,NA,NA,NA,NA,NA,NA,NA,NA,NA,NA,NA,NA,NA,NA,NA,NA,NA,NA,NA,NA
NA,NA,NA,NA,NA,choice_instructions,instructions,3,11920,0.0-3.0,147,1,2025-05-03T21:22:50Z,b60275e29fe2361ab97ac0ac217840d7,"Mozilla/5.0 (Macintosh; Intel Mac OS X 10_15_7) AppleWebKit/605.1.15 (KHTML, like Gecko) Version/17.2 Safari/605.1.15",Macintosh,Safari,17.2,OS X,10_15_7,https://5puzkbbxv1.cognition.run/?sona_id=52116,"en-US,en;q=0.9",8zjcmx935ms6et3,20,"[""Asian""]",No,Male,NA,Yes,142650,"[{""page_index"":0,""viewing_time"":724},{""page_index"":1,""viewing_time"":874},{""page_index"":2,""viewing_time"":598},{""page_index"":3,""viewing_time"":889},{""page_index"":4,""viewing_time"":412},{""page_index"":5,""viewing_time"":4082},{""page_index"":6,""viewing_time"":694}]",8273,NA,NA,NA,NA,NA,NA,NA,NA,NA,NA,NA,NA,NA,NA,NA,NA,NA,NA,NA,NA,NA,NA,NA,NA,NA
NA,NA,NA,NA,NA,choice_trial_setup,html-keyboard-response,4,12223,0.0-4.0-0.0,147,1,2025-05-03T21:22:50Z,b60275e29fe2361ab97ac0ac217840d7,"Mozilla/5.0 (Macintosh; Intel Mac OS X 10_15_7) AppleWebKit/605.1.15 (KHTML, like Gecko) Version/17.2 Safari/605.1.15",Macintosh,Safari,17.2,OS X,10_15_7,https://5puzkbbxv1.cognition.run/?sona_id=52116,"en-US,en;q=0.9",8zjcmx935ms6et3,20,"[""Asian""]",No,Male,NA,Yes,142650,NA,null,<p></p>,null,choice,cdt,trinary,repulsion_B,1,laptops,null,null,null,null,null,null,1,NA,NA,NA,NA,NA,NA,NA,NA,NA,NA
NA,NA,NA,NA,NA,choice_trial,survey-html-form,5,15042,0.0-4.0-1.0,147,1,2025-05-03T21:22:50Z,b60275e29fe2361ab97ac0ac217840d7,"Mozilla/5.0 (Macintosh; Intel Mac OS X 10_15_7) AppleWebKit/605.1.15 (KHTML, like Gecko) Version/17.2 Safari/605.1.15",Macintosh,Safari,17.2,OS X,10_15_7,https://5puzkbbxv1.cognition.run/?sona_id=52116,"en-US,en;q=0.9",8zjcmx935ms6et3,20,"[""Asian""]",No,Male,NA,Yes,142650,NA,2813,NA,"{""product_choice"":""B""}",choice,cdt,trinary,repulsion_B,1,laptops,null,null,null,null,null,null,1,90,100,80,40,30,40,Processing speed,Memory (RAM),NA,NA
NA,NA,NA,NA,NA,choice_trial_setup,html-keyboard-response,6,15343,0.0-4.0-0.1,147,1,2025-05-03T21:22:50Z,b60275e29fe2361ab97ac0ac217840d7,"Mozilla/5.0 (Macintosh; Intel Mac OS X 10_15_7) AppleWebKit/605.1.15 (KHTML, like Gecko) Version/17.2 Safari/605.1.15",Macintosh,Safari,17.2,OS X,10_15_7,https://5puzkbbxv1.cognition.run/?sona_id=52116,"en-US,en;q=0.9",8zjcmx935ms6et3,20,"[""Asian""]",No,Male,NA,Yes,142650,NA,null,<p></p>,null,choice,bw,binary,catch,null,televisions,50,90,40,20,null,null,1,NA,NA,NA,NA,NA,NA,NA,NA,NA,NA
NA,NA,NA,NA,NA,choice_trial,survey-html-form,7,16553,0.0-4.0-1.1,147,1,2025-05-03T21:22:50Z,b60275e29fe2361ab97ac0ac217840d7,"Mozilla/5.0 (Macintosh; Intel Mac OS X 10_15_7) AppleWebKit/605.1.15 (KHTML, like Gecko) Version/17.2 Safari/605.1.15",Macintosh,Safari,17.2,OS X,10_15_7,https://5puzkbbxv1.cognition.run/?sona_id=52116,"en-US,en;q=0.9",8zjcmx935ms6et3,20,"[""Asian""]",No,Male,NA,Yes,142650,NA,1204,NA,"{""product_choice"":""A""}",choice,bw,binary,catch,null,televisions,50,90,40,20,null,null,1,null,null,null,null,null,null,Screen size,Average lifespan,NA,NA
NA,NA,NA,NA,NA,choice_trial_setup,html-keyboard-response,8,16853,0.0-4.0-0.2,147,1,2025-05-03T21:22:50Z,b60275e29fe2361ab97ac0ac217840d7,"Mozilla/5.0 (Macintosh; Intel Mac OS X 10_15_7) AppleWebKit/605.1.15 (KHTML, like Gecko) Version/17.2 Safari/605.1.15",Macintosh,Safari,17.2,OS X,10_15_7,https://5puzkbbxv1.cognition.run/?sona_id=52116,"en-US,en;q=0.9",8zjcmx935ms6et3,20,"[""Asian""]",No,Male,NA,Yes,142650,NA,null,<p></p>,null,choice,tdc,trinary,repulsion_B,1,televisions,null,null,null,null,null,null,2,NA,NA,NA,NA,NA,NA,NA,NA,NA,NA
NA,NA,NA,NA,NA,choice_trial,survey-html-form,9,19744,0.0-4.0-1.2,147,1,2025-05-03T21:22:50Z,b60275e29fe2361ab97ac0ac217840d7,"Mozilla/5.0 (Macintosh; Intel Mac OS X 10_15_7) AppleWebKit/605.1.15 (KHTML, like Gecko) Version/17.2 Safari/605.1.15",Macintosh,Safari,17.2,OS X,10_15_7,https://5puzkbbxv1.cognition.run/?sona_id=52116,"en-US,en;q=0.9",8zjcmx935ms6et3,20,"[""Asian""]",No,Male,NA,Yes,142650,NA,2886,NA,"{""product_choice"":""C""}",choice,tdc,trinary,repulsion_B,1,televisions,null,null,null,null,null,null,2,90,100,80,40,30,40,Screen size,Average lifespan,NA,NA
NA,NA,NA,NA,NA,choice_trial_setup,html-keyboard-response,10,20046,0.0-4.0-0.3,147,1,2025-05-03T21:22:50Z,b60275e29fe2361ab97ac0ac217840d7,"Mozilla/5.0 (Macintosh; Intel Mac OS X 10_15_7) AppleWebKit/605.1.15 (KHTML, like Gecko) Version/17.2 Safari/605.1.15",Macintosh,Safari,17.2,OS X,10_15_7,https://5puzkbbxv1.cognition.run/?sona_id=52116,"en-US,en;q=0.9",8zjcmx935ms6et3,20,"[""Asian""]",No,Male,NA,Yes,142650,NA,null,<p></p>,null,choice,cdt,trinary,attraction,2,washing machines,null,null,null,null,null,null,1,NA,NA,NA,NA,NA,NA,NA,NA,NA,NA
NA,NA,NA,NA,NA,choice_trial,survey-html-form,11,21328,0.0-4.0-1.3,147,1,2025-05-03T21:22:50Z,b60275e29fe2361ab97ac0ac217840d7,"Mozilla/5.0 (Macintosh; Intel Mac OS X 10_15_7) AppleWebKit/605.1.15 (KHTML, like Gecko) Version/17.2 Safari/605.1.15",Macintosh,Safari,17.2,OS X,10_15_7,https://5puzkbbxv1.cognition.run/?sona_id=52116,"en-US,en;q=0.9",8zjcmx935ms6et3,20,"[""Asian""]",No,Male,NA,Yes,142650,NA,1276,NA,"{""product_choice"":""B""}",choice,cdt,trinary,attraction,2,washing machines,null,null,null,null,null,null,1,50,60,40,60,50,60,Average lifespan,Energy savings,NA,NA
NA,NA,NA,NA,NA,choice_trial_setup,html-keyboard-response,12,21629,0.0-4.0-0.4,147,1,2025-05-03T21:22:50Z,b60275e29fe2361ab97ac0ac217840d7,"Mozilla/5.0 (Macintosh; Intel Mac OS X 10_15_7) AppleWebKit/605.1.15 (KHTML, like Gecko) Version/17.2 Safari/605.1.15",Macintosh,Safari,17.2,OS X,10_15_7,https://5puzkbbxv1.cognition.run/?sona_id=52116,"en-US,en;q=0.9",8zjcmx935ms6et3,20,"[""Asian""]",No,Male,NA,Yes,142650,NA,null,<p></p>,null,choice,dct,trinary,repulsion_B,2,laptops,null,null,null,null,null,null,2,NA,NA,NA,NA,NA,NA,NA,NA,NA,NA
NA,NA,NA,NA,NA,choice_trial,survey-html-form,13,22969,0.0-4.0-1.4,147,1,2025-05-03T21:22:50Z,b60275e29fe2361ab97ac0ac217840d7,"Mozilla/5.0 (Macintosh; Intel Mac OS X 10_15_7) AppleWebKit/605.1.15 (KHTML, like Gecko) Version/17.2 Safari/605.1.15",Macintosh,Safari,17.2,OS X,10_15_7,https://5puzkbbxv1.cognition.run/?sona_id=52116,"en-US,en;q=0.9",8zjcmx935ms6et3,20,"[""Asian""]",No,Male,NA,Yes,142650,NA,1334,NA,"{""product_choice"":""A""}",choice,dct,trinary,repulsion_B,2,laptops,null,null,null,null,null,null,2,40,30,40,90,100,80,Processing speed,Memory (RAM),NA,NA
NA,NA,NA,NA,NA,choice_trial_setup,html-keyboard-response,14,23271,0.0-4.0-0.5,147,1,2025-05-03T21:22:50Z,b60275e29fe2361ab97ac0ac217840d7,"Mozilla/5.0 (Macintosh; Intel Mac OS X 10_15_7) AppleWebKit/605.1.15 (KHTML, like Gecko) Version/17.2 Safari/605.1.15",Macintosh,Safari,17.2,OS X,10_15_7,https://5puzkbbxv1.cognition.run/?sona_id=52116,"en-US,en;q=0.9",8zjcmx935ms6et3,20,"[""Asian""]",No,Male,NA,Yes,142650,NA,null,<p></p>,null,choice,ct,binary,repulsion,1,televisions,null,null,null,null,null,null,1,NA,NA,NA,NA,NA,NA,NA,NA,NA,NA
NA,NA,NA,NA,NA,choice_trial,survey-html-form,15,25022,0.0-4.0-1.5,147,1,2025-05-03T21:22:50Z,b60275e29fe2361ab97ac0ac217840d7,"Mozilla/5.0 (Macintosh; Intel Mac OS X 10_15_7) AppleWebKit/605.1.15 (KHTML, like Gecko) Version/17.2 Safari/605.1.15",Macintosh,Safari,17.2,OS X,10_15_7,https://5puzkbbxv1.cognition.run/?sona_id=52116,"en-US,en;q=0.9",8zjcmx935ms6et3,20,"[""Asian""]",No,Male,NA,Yes,142650,NA,1746,NA,"{""product_choice"":""B""}",choice,ct,binary,repulsion,1,televisions,null,null,null,null,null,null,1,100,90,null,30,40,null,Screen size,Average lifespan,NA,NA
NA,NA,NA,NA,NA,choice_trial_setup,html-keyboard-response,16,25324,0.0-4.0-0.6,147,1,2025-05-03T21:22:50Z,b60275e29fe2361ab97ac0ac217840d7,"Mozilla/5.0 (Macintosh; Intel Mac OS X 10_15_7) AppleWebKit/605.1.15 (KHTML, like Gecko) Version/17.2 Safari/605.1.15",Macintosh,Safari,17.2,OS X,10_15_7,https://5puzkbbxv1.cognition.run/?sona_id=52116,"en-US,en;q=0.9",8zjcmx935ms6et3,20,"[""Asian""]",No,Male,NA,Yes,142650,NA,null,<p></p>,null,choice,ct,binary,repulsion,2,microwave ovens,null,null,null,null,null,null,2,NA,NA,NA,NA,NA,NA,NA,NA,NA,NA
NA,NA,NA,NA,NA,choice_trial,survey-html-form,17,27616,0.0-4.0-1.6,147,1,2025-05-03T21:22:50Z,b60275e29fe2361ab97ac0ac217840d7,"Mozilla/5.0 (Macintosh; Intel Mac OS X 10_15_7) AppleWebKit/605.1.15 (KHTML, like Gecko) Version/17.2 Safari/605.1.15",Macintosh,Safari,17.2,OS X,10_15_7,https://5puzkbbxv1.cognition.run/?sona_id=52116,"en-US,en;q=0.9",8zjcmx935ms6et3,20,"[""Asian""]",No,Male,NA,Yes,142650,NA,2287,NA,"{""product_choice"":""A""}",choice,ct,binary,repulsion,2,microwave ovens,null,null,null,null,null,null,2,30,40,null,100,90,null,Warranty,Cooking power,NA,NA
NA,NA,NA,NA,NA,choice_trial_setup,html-keyboard-response,18,27918,0.0-4.0-0.7,147,1,2025-05-03T21:22:50Z,b60275e29fe2361ab97ac0ac217840d7,"Mozilla/5.0 (Macintosh; Intel Mac OS X 10_15_7) AppleWebKit/605.1.15 (KHTML, like Gecko) Version/17.2 Safari/605.1.15",Macintosh,Safari,17.2,OS X,10_15_7,https://5puzkbbxv1.cognition.run/?sona_id=52116,"en-US,en;q=0.9",8zjcmx935ms6et3,20,"[""Asian""]",No,Male,NA,Yes,142650,NA,null,<p></p>,null,choice,tcd,trinary,attraction,1,televisions,null,null,null,null,null,null,1,NA,NA,NA,NA,NA,NA,NA,NA,NA,NA
NA,NA,NA,NA,NA,choice_trial,survey-html-form,19,29393,0.0-4.0-1.7,147,1,2025-05-03T21:22:50Z,b60275e29fe2361ab97ac0ac217840d7,"Mozilla/5.0 (Macintosh; Intel Mac OS X 10_15_7) AppleWebKit/605.1.15 (KHTML, like Gecko) Version/17.2 Safari/605.1.15",Macintosh,Safari,17.2,OS X,10_15_7,https://5puzkbbxv1.cognition.run/?sona_id=52116,"en-US,en;q=0.9",8zjcmx935ms6et3,20,"[""Asian""]",No,Male,NA,Yes,142650,NA,1470,NA,"{""product_choice"":""B""}",choice,tcd,trinary,attraction,1,televisions,null,null,null,null,null,null,1,60,50,60,50,60,40,Screen size,Average lifespan,NA,NA
NA,NA,NA,NA,NA,choice_trial_setup,html-keyboard-response,20,29695,0.0-4.0-0.8,147,1,2025-05-03T21:22:50Z,b60275e29fe2361ab97ac0ac217840d7,"Mozilla/5.0 (Macintosh; Intel Mac OS X 10_15_7) AppleWebKit/605.1.15 (KHTML, like Gecko) Version/17.2 Safari/605.1.15",Macintosh,Safari,17.2,OS X,10_15_7,https://5puzkbbxv1.cognition.run/?sona_id=52116,"en-US,en;q=0.9",8zjcmx935ms6et3,20,"[""Asian""]",No,Male,NA,Yes,142650,NA,null,<p></p>,null,choice,dtc,trinary,repulsion_A,1,televisions,null,null,null,null,null,null,2,NA,NA,NA,NA,NA,NA,NA,NA,NA,NA
NA,NA,NA,NA,NA,choice_trial,survey-html-form,21,31487,0.0-4.0-1.8,147,1,2025-05-03T21:22:50Z,b60275e29fe2361ab97ac0ac217840d7,"Mozilla/5.0 (Macintosh; Intel Mac OS X 10_15_7) AppleWebKit/605.1.15 (KHTML, like Gecko) Version/17.2 Safari/605.1.15",Macintosh,Safari,17.2,OS X,10_15_7,https://5puzkbbxv1.cognition.run/?sona_id=52116,"en-US,en;q=0.9",8zjcmx935ms6et3,20,"[""Asian""]",No,Male,NA,Yes,142650,NA,1787,NA,"{""product_choice"":""C""}",choice,dtc,trinary,repulsion_A,1,televisions,null,null,null,null,null,null,2,100,90,100,30,40,20,Screen size,Average lifespan,NA,NA
NA,NA,NA,NA,NA,choice_trial_setup,html-keyboard-response,22,31789,0.0-4.0-0.9,147,1,2025-05-03T21:22:50Z,b60275e29fe2361ab97ac0ac217840d7,"Mozilla/5.0 (Macintosh; Intel Mac OS X 10_15_7) AppleWebKit/605.1.15 (KHTML, like Gecko) Version/17.2 Safari/605.1.15",Macintosh,Safari,17.2,OS X,10_15_7,https://5puzkbbxv1.cognition.run/?sona_id=52116,"en-US,en;q=0.9",8zjcmx935ms6et3,20,"[""Asian""]",No,Male,NA,Yes,142650,NA,null,<p></p>,null,choice,tc,binary,attraction,NA,laptops,null,null,null,null,null,null,1,NA,NA,NA,NA,NA,NA,NA,NA,NA,NA
NA,NA,NA,NA,NA,choice_trial,survey-html-form,23,35029,0.0-4.0-1.9,147,1,2025-05-03T21:22:50Z,b60275e29fe2361ab97ac0ac217840d7,"Mozilla/5.0 (Macintosh; Intel Mac OS X 10_15_7) AppleWebKit/605.1.15 (KHTML, like Gecko) Version/17.2 Safari/605.1.15",Macintosh,Safari,17.2,OS X,10_15_7,https://5puzkbbxv1.cognition.run/?sona_id=52116,"en-US,en;q=0.9",8zjcmx935ms6et3,20,"[""Asian""]",No,Male,NA,Yes,142650,NA,3234,NA,"{""product_choice"":""A""}",choice,tc,binary,attraction,NA,laptops,null,null,null,null,null,null,1,60,50,null,50,60,null,Processing speed,Memory (RAM),NA,NA
NA,NA,NA,NA,NA,choice_trial_setup,html-keyboard-response,24,35331,0.0-4.0-0.10,147,1,2025-05-03T21:22:50Z,b60275e29fe2361ab97ac0ac217840d7,"Mozilla/5.0 (Macintosh; Intel Mac OS X 10_15_7) AppleWebKit/605.1.15 (KHTML, like Gecko) Version/17.2 Safari/605.1.15",Macintosh,Safari,17.2,OS X,10_15_7,https://5puzkbbxv1.cognition.run/?sona_id=52116,"en-US,en;q=0.9",8zjcmx935ms6et3,20,"[""Asian""]",No,Male,NA,Yes,142650,NA,null,<p></p>,null,choice,cdt,trinary,repulsion_A,2,laptops,null,null,null,null,null,null,2,NA,NA,NA,NA,NA,NA,NA,NA,NA,NA
NA,NA,NA,NA,NA,choice_trial,survey-html-form,25,37201,0.0-4.0-1.10,147,1,2025-05-03T21:22:50Z,b60275e29fe2361ab97ac0ac217840d7,"Mozilla/5.0 (Macintosh; Intel Mac OS X 10_15_7) AppleWebKit/605.1.15 (KHTML, like Gecko) Version/17.2 Safari/605.1.15",Macintosh,Safari,17.2,OS X,10_15_7,https://5puzkbbxv1.cognition.run/?sona_id=52116,"en-US,en;q=0.9",8zjcmx935ms6et3,20,"[""Asian""]",No,Male,NA,Yes,142650,NA,1863,NA,"{""product_choice"":""B""}",choice,cdt,trinary,repulsion_A,2,laptops,null,null,null,null,null,null,2,30,40,20,100,90,100,Processing speed,Memory (RAM),NA,NA
NA,NA,NA,NA,NA,choice_trial_setup,html-keyboard-response,26,37503,0.0-4.0-0.11,147,1,2025-05-03T21:22:50Z,b60275e29fe2361ab97ac0ac217840d7,"Mozilla/5.0 (Macintosh; Intel Mac OS X 10_15_7) AppleWebKit/605.1.15 (KHTML, like Gecko) Version/17.2 Safari/605.1.15",Macintosh,Safari,17.2,OS X,10_15_7,https://5puzkbbxv1.cognition.run/?sona_id=52116,"en-US,en;q=0.9",8zjcmx935ms6et3,20,"[""Asian""]",No,Male,NA,Yes,142650,NA,null,<p></p>,null,choice,cdt,trinary,attraction,1,washing machines,null,null,null,null,null,null,2,NA,NA,NA,NA,NA,NA,NA,NA,NA,NA
NA,NA,NA,NA,NA,choice_trial,survey-html-form,27,39730,0.0-4.0-1.11,147,1,2025-05-03T21:22:50Z,b60275e29fe2361ab97ac0ac217840d7,"Mozilla/5.0 (Macintosh; Intel Mac OS X 10_15_7) AppleWebKit/605.1.15 (KHTML, like Gecko) Version/17.2 Safari/605.1.15",Macintosh,Safari,17.2,OS X,10_15_7,https://5puzkbbxv1.cognition.run/?sona_id=52116,"en-US,en;q=0.9",8zjcmx935ms6et3,20,"[""Asian""]",No,Male,NA,Yes,142650,NA,2221,NA,"{""product_choice"":""B""}",choice,cdt,trinary,attraction,1,washing machines,null,null,null,null,null,null,2,60,50,60,50,60,40,Average lifespan,Energy savings,NA,NA
NA,NA,NA,NA,NA,choice_trial_setup,html-keyboard-response,28,40032,0.0-4.0-0.12,147,1,2025-05-03T21:22:50Z,b60275e29fe2361ab97ac0ac217840d7,"Mozilla/5.0 (Macintosh; Intel Mac OS X 10_15_7) AppleWebKit/605.1.15 (KHTML, like Gecko) Version/17.2 Safari/605.1.15",Macintosh,Safari,17.2,OS X,10_15_7,https://5puzkbbxv1.cognition.run/?sona_id=52116,"en-US,en;q=0.9",8zjcmx935ms6et3,20,"[""Asian""]",No,Male,NA,Yes,142650,NA,null,<p></p>,null,choice,cdt,trinary,repulsion_A,1,laptops,null,null,null,null,null,null,2,NA,NA,NA,NA,NA,NA,NA,NA,NA,NA
NA,NA,NA,NA,NA,choice_trial,survey-html-form,29,41549,0.0-4.0-1.12,147,1,2025-05-03T21:22:50Z,b60275e29fe2361ab97ac0ac217840d7,"Mozilla/5.0 (Macintosh; Intel Mac OS X 10_15_7) AppleWebKit/605.1.15 (KHTML, like Gecko) Version/17.2 Safari/605.1.15",Macintosh,Safari,17.2,OS X,10_15_7,https://5puzkbbxv1.cognition.run/?sona_id=52116,"en-US,en;q=0.9",8zjcmx935ms6et3,20,"[""Asian""]",No,Male,NA,Yes,142650,NA,1509,NA,"{""product_choice"":""B""}",choice,cdt,trinary,repulsion_A,1,laptops,null,null,null,null,null,null,2,100,90,100,30,40,20,Processing speed,Memory (RAM),NA,NA
NA,NA,NA,NA,NA,choice_trial_setup,html-keyboard-response,30,41851,0.0-4.0-0.13,147,1,2025-05-03T21:22:50Z,b60275e29fe2361ab97ac0ac217840d7,"Mozilla/5.0 (Macintosh; Intel Mac OS X 10_15_7) AppleWebKit/605.1.15 (KHTML, like Gecko) Version/17.2 Safari/605.1.15",Macintosh,Safari,17.2,OS X,10_15_7,https://5puzkbbxv1.cognition.run/?sona_id=52116,"en-US,en;q=0.9",8zjcmx935ms6et3,20,"[""Asian""]",No,Male,NA,Yes,142650,NA,null,<p></p>,null,choice,ctd,trinary,repulsion_A,2,televisions,null,null,null,null,null,null,2,NA,NA,NA,NA,NA,NA,NA,NA,NA,NA
NA,NA,NA,NA,NA,choice_trial,survey-html-form,31,45209,0.0-4.0-1.13,147,1,2025-05-03T21:22:50Z,b60275e29fe2361ab97ac0ac217840d7,"Mozilla/5.0 (Macintosh; Intel Mac OS X 10_15_7) AppleWebKit/605.1.15 (KHTML, like Gecko) Version/17.2 Safari/605.1.15",Macintosh,Safari,17.2,OS X,10_15_7,https://5puzkbbxv1.cognition.run/?sona_id=52116,"en-US,en;q=0.9",8zjcmx935ms6et3,20,"[""Asian""]",No,Male,NA,Yes,142650,NA,3346,NA,"{""product_choice"":""B""}",choice,ctd,trinary,repulsion_A,2,televisions,null,null,null,null,null,null,2,30,40,20,100,90,100,Screen size,Average lifespan,NA,NA
NA,NA,NA,NA,NA,choice_trial_setup,html-keyboard-response,32,45511,0.0-4.0-0.14,147,1,2025-05-03T21:22:50Z,b60275e29fe2361ab97ac0ac217840d7,"Mozilla/5.0 (Macintosh; Intel Mac OS X 10_15_7) AppleWebKit/605.1.15 (KHTML, like Gecko) Version/17.2 Safari/605.1.15",Macintosh,Safari,17.2,OS X,10_15_7,https://5puzkbbxv1.cognition.run/?sona_id=52116,"en-US,en;q=0.9",8zjcmx935ms6et3,20,"[""Asian""]",No,Male,NA,Yes,142650,NA,null,<p></p>,null,choice,wwb,trinary,catch,null,televisions,65,60,5,10,5,35,2,NA,NA,NA,NA,NA,NA,NA,NA,NA,NA
NA,NA,NA,NA,NA,choice_trial,survey-html-form,33,46979,0.0-4.0-1.14,147,1,2025-05-03T21:22:50Z,b60275e29fe2361ab97ac0ac217840d7,"Mozilla/5.0 (Macintosh; Intel Mac OS X 10_15_7) AppleWebKit/605.1.15 (KHTML, like Gecko) Version/17.2 Safari/605.1.15",Macintosh,Safari,17.2,OS X,10_15_7,https://5puzkbbxv1.cognition.run/?sona_id=52116,"en-US,en;q=0.9",8zjcmx935ms6et3,20,"[""Asian""]",No,Male,NA,Yes,142650,NA,1463,NA,"{""product_choice"":""B""}",choice,wwb,trinary,catch,null,televisions,65,60,5,10,5,35,2,null,null,null,null,null,null,Screen size,Average lifespan,NA,NA
NA,NA,NA,NA,NA,choice_trial_setup,html-keyboard-response,34,47280,0.0-4.0-0.15,147,1,2025-05-03T21:22:50Z,b60275e29fe2361ab97ac0ac217840d7,"Mozilla/5.0 (Macintosh; Intel Mac OS X 10_15_7) AppleWebKit/605.1.15 (KHTML, like Gecko) Version/17.2 Safari/605.1.15",Macintosh,Safari,17.2,OS X,10_15_7,https://5puzkbbxv1.cognition.run/?sona_id=52116,"en-US,en;q=0.9",8zjcmx935ms6et3,20,"[""Asian""]",No,Male,NA,Yes,142650,NA,null,<p></p>,null,choice,tcd,trinary,attraction,2,televisions,null,null,null,null,null,null,1,NA,NA,NA,NA,NA,NA,NA,NA,NA,NA
NA,NA,NA,NA,NA,choice_trial,survey-html-form,35,48709,0.0-4.0-1.15,147,1,2025-05-03T21:22:50Z,b60275e29fe2361ab97ac0ac217840d7,"Mozilla/5.0 (Macintosh; Intel Mac OS X 10_15_7) AppleWebKit/605.1.15 (KHTML, like Gecko) Version/17.2 Safari/605.1.15",Macintosh,Safari,17.2,OS X,10_15_7,https://5puzkbbxv1.cognition.run/?sona_id=52116,"en-US,en;q=0.9",8zjcmx935ms6et3,20,"[""Asian""]",No,Male,NA,Yes,142650,NA,1423,NA,"{""product_choice"":""B""}",choice,tcd,trinary,attraction,2,televisions,null,null,null,null,null,null,1,50,60,40,60,50,60,Screen size,Average lifespan,NA,NA
NA,NA,NA,NA,NA,choice_trial_setup,html-keyboard-response,36,49011,0.0-4.0-0.16,147,1,2025-05-03T21:22:50Z,b60275e29fe2361ab97ac0ac217840d7,"Mozilla/5.0 (Macintosh; Intel Mac OS X 10_15_7) AppleWebKit/605.1.15 (KHTML, like Gecko) Version/17.2 Safari/605.1.15",Macintosh,Safari,17.2,OS X,10_15_7,https://5puzkbbxv1.cognition.run/?sona_id=52116,"en-US,en;q=0.9",8zjcmx935ms6et3,20,"[""Asian""]",No,Male,NA,Yes,142650,NA,null,<p></p>,null,choice,wb,binary,catch,null,laptops,70,65,40,10,null,null,1,NA,NA,NA,NA,NA,NA,NA,NA,NA,NA
NA,NA,NA,NA,NA,choice_trial,survey-html-form,37,50374,0.0-4.0-1.16,147,1,2025-05-03T21:22:50Z,b60275e29fe2361ab97ac0ac217840d7,"Mozilla/5.0 (Macintosh; Intel Mac OS X 10_15_7) AppleWebKit/605.1.15 (KHTML, like Gecko) Version/17.2 Safari/605.1.15",Macintosh,Safari,17.2,OS X,10_15_7,https://5puzkbbxv1.cognition.run/?sona_id=52116,"en-US,en;q=0.9",8zjcmx935ms6et3,20,"[""Asian""]",No,Male,NA,Yes,142650,NA,1358,NA,"{""product_choice"":""B""}",choice,wb,binary,catch,null,laptops,70,65,40,10,null,null,1,null,null,null,null,null,null,Processing speed,Memory (RAM),NA,NA
NA,NA,NA,NA,NA,choice_trial_setup,html-keyboard-response,38,50676,0.0-4.0-0.17,147,1,2025-05-03T21:22:50Z,b60275e29fe2361ab97ac0ac217840d7,"Mozilla/5.0 (Macintosh; Intel Mac OS X 10_15_7) AppleWebKit/605.1.15 (KHTML, like Gecko) Version/17.2 Safari/605.1.15",Macintosh,Safari,17.2,OS X,10_15_7,https://5puzkbbxv1.cognition.run/?sona_id=52116,"en-US,en;q=0.9",8zjcmx935ms6et3,20,"[""Asian""]",No,Male,NA,Yes,142650,NA,null,<p></p>,null,choice,tcd,trinary,repulsion_A,2,washing machines,null,null,null,null,null,null,1,NA,NA,NA,NA,NA,NA,NA,NA,NA,NA
NA,NA,NA,NA,NA,choice_trial,survey-html-form,39,52620,0.0-4.0-1.17,147,1,2025-05-03T21:22:50Z,b60275e29fe2361ab97ac0ac217840d7,"Mozilla/5.0 (Macintosh; Intel Mac OS X 10_15_7) AppleWebKit/605.1.15 (KHTML, like Gecko) Version/17.2 Safari/605.1.15",Macintosh,Safari,17.2,OS X,10_15_7,https://5puzkbbxv1.cognition.run/?sona_id=52116,"en-US,en;q=0.9",8zjcmx935ms6et3,20,"[""Asian""]",No,Male,NA,Yes,142650,NA,1938,NA,"{""product_choice"":""B""}",choice,tcd,trinary,repulsion_A,2,washing machines,null,null,null,null,null,null,1,30,40,20,100,90,100,Average lifespan,Energy savings,NA,NA
NA,NA,NA,NA,NA,choice_trial_setup,html-keyboard-response,40,52922,0.0-4.0-0.18,147,1,2025-05-03T21:22:50Z,b60275e29fe2361ab97ac0ac217840d7,"Mozilla/5.0 (Macintosh; Intel Mac OS X 10_15_7) AppleWebKit/605.1.15 (KHTML, like Gecko) Version/17.2 Safari/605.1.15",Macintosh,Safari,17.2,OS X,10_15_7,https://5puzkbbxv1.cognition.run/?sona_id=52116,"en-US,en;q=0.9",8zjcmx935ms6et3,20,"[""Asian""]",No,Male,NA,Yes,142650,NA,null,<p></p>,null,choice,tdc,trinary,repulsion_B,2,washing machines,null,null,null,null,null,null,1,NA,NA,NA,NA,NA,NA,NA,NA,NA,NA
NA,NA,NA,NA,NA,choice_trial,survey-html-form,41,54915,0.0-4.0-1.18,147,1,2025-05-03T21:22:50Z,b60275e29fe2361ab97ac0ac217840d7,"Mozilla/5.0 (Macintosh; Intel Mac OS X 10_15_7) AppleWebKit/605.1.15 (KHTML, like Gecko) Version/17.2 Safari/605.1.15",Macintosh,Safari,17.2,OS X,10_15_7,https://5puzkbbxv1.cognition.run/?sona_id=52116,"en-US,en;q=0.9",8zjcmx935ms6et3,20,"[""Asian""]",No,Male,NA,Yes,142650,NA,1987,NA,"{""product_choice"":""B""}",choice,tdc,trinary,repulsion_B,2,washing machines,null,null,null,null,null,null,1,40,30,40,90,100,80,Average lifespan,Energy savings,NA,NA
NA,NA,NA,NA,NA,choice_trial_setup,html-keyboard-response,42,55217,0.0-4.0-0.19,147,1,2025-05-03T21:22:50Z,b60275e29fe2361ab97ac0ac217840d7,"Mozilla/5.0 (Macintosh; Intel Mac OS X 10_15_7) AppleWebKit/605.1.15 (KHTML, like Gecko) Version/17.2 Safari/605.1.15",Macintosh,Safari,17.2,OS X,10_15_7,https://5puzkbbxv1.cognition.run/?sona_id=52116,"en-US,en;q=0.9",8zjcmx935ms6et3,20,"[""Asian""]",No,Male,NA,Yes,142650,NA,null,<p></p>,null,choice,dtc,trinary,repulsion_A,2,microwave ovens,null,null,null,null,null,null,1,NA,NA,NA,NA,NA,NA,NA,NA,NA,NA
NA,NA,NA,NA,NA,choice_trial,survey-html-form,43,56677,0.0-4.0-1.19,147,1,2025-05-03T21:22:50Z,b60275e29fe2361ab97ac0ac217840d7,"Mozilla/5.0 (Macintosh; Intel Mac OS X 10_15_7) AppleWebKit/605.1.15 (KHTML, like Gecko) Version/17.2 Safari/605.1.15",Macintosh,Safari,17.2,OS X,10_15_7,https://5puzkbbxv1.cognition.run/?sona_id=52116,"en-US,en;q=0.9",8zjcmx935ms6et3,20,"[""Asian""]",No,Male,NA,Yes,142650,NA,1454,NA,"{""product_choice"":""C""}",choice,dtc,trinary,repulsion_A,2,microwave ovens,null,null,null,null,null,null,1,30,40,20,100,90,100,Warranty,Cooking power,NA,NA
NA,NA,NA,NA,NA,choice_trial_setup,html-keyboard-response,44,56978,0.0-4.0-0.20,147,1,2025-05-03T21:22:50Z,b60275e29fe2361ab97ac0ac217840d7,"Mozilla/5.0 (Macintosh; Intel Mac OS X 10_15_7) AppleWebKit/605.1.15 (KHTML, like Gecko) Version/17.2 Safari/605.1.15",Macintosh,Safari,17.2,OS X,10_15_7,https://5puzkbbxv1.cognition.run/?sona_id=52116,"en-US,en;q=0.9",8zjcmx935ms6et3,20,"[""Asian""]",No,Male,NA,Yes,142650,NA,null,<p></p>,null,choice,dtc,trinary,repulsion_B,1,microwave ovens,null,null,null,null,null,null,1,NA,NA,NA,NA,NA,NA,NA,NA,NA,NA
NA,NA,NA,NA,NA,choice_trial,survey-html-form,45,59869,0.0-4.0-1.20,147,1,2025-05-03T21:22:50Z,b60275e29fe2361ab97ac0ac217840d7,"Mozilla/5.0 (Macintosh; Intel Mac OS X 10_15_7) AppleWebKit/605.1.15 (KHTML, like Gecko) Version/17.2 Safari/605.1.15",Macintosh,Safari,17.2,OS X,10_15_7,https://5puzkbbxv1.cognition.run/?sona_id=52116,"en-US,en;q=0.9",8zjcmx935ms6et3,20,"[""Asian""]",No,Male,NA,Yes,142650,NA,2885,NA,"{""product_choice"":""B""}",choice,dtc,trinary,repulsion_B,1,microwave ovens,null,null,null,null,null,null,1,90,100,80,40,30,40,Warranty,Cooking power,NA,NA
NA,NA,NA,NA,NA,choice_trial_setup,html-keyboard-response,46,60171,0.0-4.0-0.21,147,1,2025-05-03T21:22:50Z,b60275e29fe2361ab97ac0ac217840d7,"Mozilla/5.0 (Macintosh; Intel Mac OS X 10_15_7) AppleWebKit/605.1.15 (KHTML, like Gecko) Version/17.2 Safari/605.1.15",Macintosh,Safari,17.2,OS X,10_15_7,https://5puzkbbxv1.cognition.run/?sona_id=52116,"en-US,en;q=0.9",8zjcmx935ms6et3,20,"[""Asian""]",No,Male,NA,Yes,142650,NA,null,<p></p>,null,choice,dct,trinary,repulsion_B,2,microwave ovens,null,null,null,null,null,null,1,NA,NA,NA,NA,NA,NA,NA,NA,NA,NA
NA,NA,NA,NA,NA,choice_trial,survey-html-form,47,62924,0.0-4.0-1.21,147,1,2025-05-03T21:22:50Z,b60275e29fe2361ab97ac0ac217840d7,"Mozilla/5.0 (Macintosh; Intel Mac OS X 10_15_7) AppleWebKit/605.1.15 (KHTML, like Gecko) Version/17.2 Safari/605.1.15",Macintosh,Safari,17.2,OS X,10_15_7,https://5puzkbbxv1.cognition.run/?sona_id=52116,"en-US,en;q=0.9",8zjcmx935ms6et3,20,"[""Asian""]",No,Male,NA,Yes,142650,NA,2747,NA,"{""product_choice"":""B""}",choice,dct,trinary,repulsion_B,2,microwave ovens,null,null,null,null,null,null,1,40,30,40,90,100,80,Warranty,Cooking power,NA,NA
NA,NA,NA,NA,NA,choice_trial_setup,html-keyboard-response,48,63226,0.0-4.0-0.22,147,1,2025-05-03T21:22:50Z,b60275e29fe2361ab97ac0ac217840d7,"Mozilla/5.0 (Macintosh; Intel Mac OS X 10_15_7) AppleWebKit/605.1.15 (KHTML, like Gecko) Version/17.2 Safari/605.1.15",Macintosh,Safari,17.2,OS X,10_15_7,https://5puzkbbxv1.cognition.run/?sona_id=52116,"en-US,en;q=0.9",8zjcmx935ms6et3,20,"[""Asian""]",No,Male,NA,Yes,142650,NA,null,<p></p>,null,choice,bww,trinary,catch,null,washing machines,90,90,50,45,5,15,2,NA,NA,NA,NA,NA,NA,NA,NA,NA,NA
NA,NA,NA,NA,NA,choice_trial,survey-html-form,49,65033,0.0-4.0-1.22,147,1,2025-05-03T21:22:50Z,b60275e29fe2361ab97ac0ac217840d7,"Mozilla/5.0 (Macintosh; Intel Mac OS X 10_15_7) AppleWebKit/605.1.15 (KHTML, like Gecko) Version/17.2 Safari/605.1.15",Macintosh,Safari,17.2,OS X,10_15_7,https://5puzkbbxv1.cognition.run/?sona_id=52116,"en-US,en;q=0.9",8zjcmx935ms6et3,20,"[""Asian""]",No,Male,NA,Yes,142650,NA,1801,NA,"{""product_choice"":""B""}",choice,bww,trinary,catch,null,washing machines,90,90,50,45,5,15,2,null,null,null,null,null,null,Average lifespan,Energy savings,NA,NA
NA,NA,NA,NA,NA,choice_trial_setup,html-keyboard-response,50,65334,0.0-4.0-0.23,147,1,2025-05-03T21:22:50Z,b60275e29fe2361ab97ac0ac217840d7,"Mozilla/5.0 (Macintosh; Intel Mac OS X 10_15_7) AppleWebKit/605.1.15 (KHTML, like Gecko) Version/17.2 Safari/605.1.15",Macintosh,Safari,17.2,OS X,10_15_7,https://5puzkbbxv1.cognition.run/?sona_id=52116,"en-US,en;q=0.9",8zjcmx935ms6et3,20,"[""Asian""]",No,Male,NA,Yes,142650,NA,null,<p></p>,null,choice,tdc,trinary,attraction,2,microwave ovens,null,null,null,null,null,null,2,NA,NA,NA,NA,NA,NA,NA,NA,NA,NA
NA,NA,NA,NA,NA,choice_trial,survey-html-form,51,67772,0.0-4.0-1.23,147,1,2025-05-03T21:22:50Z,b60275e29fe2361ab97ac0ac217840d7,"Mozilla/5.0 (Macintosh; Intel Mac OS X 10_15_7) AppleWebKit/605.1.15 (KHTML, like Gecko) Version/17.2 Safari/605.1.15",Macintosh,Safari,17.2,OS X,10_15_7,https://5puzkbbxv1.cognition.run/?sona_id=52116,"en-US,en;q=0.9",8zjcmx935ms6et3,20,"[""Asian""]",No,Male,NA,Yes,142650,NA,2432,NA,"{""product_choice"":""B""}",choice,tdc,trinary,attraction,2,microwave ovens,null,null,null,null,null,null,2,50,60,40,60,50,60,Warranty,Cooking power,NA,NA
NA,NA,NA,NA,NA,choice_trial_setup,html-keyboard-response,52,68074,0.0-4.0-0.24,147,1,2025-05-03T21:22:50Z,b60275e29fe2361ab97ac0ac217840d7,"Mozilla/5.0 (Macintosh; Intel Mac OS X 10_15_7) AppleWebKit/605.1.15 (KHTML, like Gecko) Version/17.2 Safari/605.1.15",Macintosh,Safari,17.2,OS X,10_15_7,https://5puzkbbxv1.cognition.run/?sona_id=52116,"en-US,en;q=0.9",8zjcmx935ms6et3,20,"[""Asian""]",No,Male,NA,Yes,142650,NA,null,<p></p>,null,choice,tc,binary,repulsion,2,televisions,null,null,null,null,null,null,1,NA,NA,NA,NA,NA,NA,NA,NA,NA,NA
NA,NA,NA,NA,NA,choice_trial,survey-html-form,53,69293,0.0-4.0-1.24,147,1,2025-05-03T21:22:50Z,b60275e29fe2361ab97ac0ac217840d7,"Mozilla/5.0 (Macintosh; Intel Mac OS X 10_15_7) AppleWebKit/605.1.15 (KHTML, like Gecko) Version/17.2 Safari/605.1.15",Macintosh,Safari,17.2,OS X,10_15_7,https://5puzkbbxv1.cognition.run/?sona_id=52116,"en-US,en;q=0.9",8zjcmx935ms6et3,20,"[""Asian""]",No,Male,NA,Yes,142650,NA,1214,NA,"{""product_choice"":""B""}",choice,tc,binary,repulsion,2,televisions,null,null,null,null,null,null,1,30,40,null,100,90,null,Screen size,Average lifespan,NA,NA
NA,NA,NA,NA,NA,choice_trial_setup,html-keyboard-response,54,69594,0.0-4.0-0.25,147,1,2025-05-03T21:22:50Z,b60275e29fe2361ab97ac0ac217840d7,"Mozilla/5.0 (Macintosh; Intel Mac OS X 10_15_7) AppleWebKit/605.1.15 (KHTML, like Gecko) Version/17.2 Safari/605.1.15",Macintosh,Safari,17.2,OS X,10_15_7,https://5puzkbbxv1.cognition.run/?sona_id=52116,"en-US,en;q=0.9",8zjcmx935ms6et3,20,"[""Asian""]",No,Male,NA,Yes,142650,NA,null,<p></p>,null,choice,tc,binary,repulsion,2,washing machines,null,null,null,null,null,null,1,NA,NA,NA,NA,NA,NA,NA,NA,NA,NA
NA,NA,NA,NA,NA,choice_trial,survey-html-form,55,70723,0.0-4.0-1.25,147,1,2025-05-03T21:22:50Z,b60275e29fe2361ab97ac0ac217840d7,"Mozilla/5.0 (Macintosh; Intel Mac OS X 10_15_7) AppleWebKit/605.1.15 (KHTML, like Gecko) Version/17.2 Safari/605.1.15",Macintosh,Safari,17.2,OS X,10_15_7,https://5puzkbbxv1.cognition.run/?sona_id=52116,"en-US,en;q=0.9",8zjcmx935ms6et3,20,"[""Asian""]",No,Male,NA,Yes,142650,NA,1123,NA,"{""product_choice"":""A""}",choice,tc,binary,repulsion,2,washing machines,null,null,null,null,null,null,1,30,40,null,100,90,null,Average lifespan,Energy savings,NA,NA
NA,NA,NA,NA,NA,choice_trial_setup,html-keyboard-response,56,71024,0.0-4.0-0.26,147,1,2025-05-03T21:22:50Z,b60275e29fe2361ab97ac0ac217840d7,"Mozilla/5.0 (Macintosh; Intel Mac OS X 10_15_7) AppleWebKit/605.1.15 (KHTML, like Gecko) Version/17.2 Safari/605.1.15",Macintosh,Safari,17.2,OS X,10_15_7,https://5puzkbbxv1.cognition.run/?sona_id=52116,"en-US,en;q=0.9",8zjcmx935ms6et3,20,"[""Asian""]",No,Male,NA,Yes,142650,NA,null,<p></p>,null,choice,bww,trinary,catch,null,laptops,55,70,35,5,20,40,2,NA,NA,NA,NA,NA,NA,NA,NA,NA,NA
NA,NA,NA,NA,NA,choice_trial,survey-html-form,57,72148,0.0-4.0-1.26,147,1,2025-05-03T21:22:50Z,b60275e29fe2361ab97ac0ac217840d7,"Mozilla/5.0 (Macintosh; Intel Mac OS X 10_15_7) AppleWebKit/605.1.15 (KHTML, like Gecko) Version/17.2 Safari/605.1.15",Macintosh,Safari,17.2,OS X,10_15_7,https://5puzkbbxv1.cognition.run/?sona_id=52116,"en-US,en;q=0.9",8zjcmx935ms6et3,20,"[""Asian""]",No,Male,NA,Yes,142650,NA,1119,NA,"{""product_choice"":""B""}",choice,bww,trinary,catch,null,laptops,55,70,35,5,20,40,2,null,null,null,null,null,null,Processing speed,Memory (RAM),NA,NA
NA,NA,NA,NA,NA,choice_trial_setup,html-keyboard-response,58,72451,0.0-4.0-0.27,147,1,2025-05-03T21:22:50Z,b60275e29fe2361ab97ac0ac217840d7,"Mozilla/5.0 (Macintosh; Intel Mac OS X 10_15_7) AppleWebKit/605.1.15 (KHTML, like Gecko) Version/17.2 Safari/605.1.15",Macintosh,Safari,17.2,OS X,10_15_7,https://5puzkbbxv1.cognition.run/?sona_id=52116,"en-US,en;q=0.9",8zjcmx935ms6et3,20,"[""Asian""]",No,Male,NA,Yes,142650,NA,null,<p></p>,null,choice,ctd,trinary,attraction,1,microwave ovens,null,null,null,null,null,null,1,NA,NA,NA,NA,NA,NA,NA,NA,NA,NA
NA,NA,NA,NA,NA,choice_trial,survey-html-form,59,73933,0.0-4.0-1.27,147,1,2025-05-03T21:22:50Z,b60275e29fe2361ab97ac0ac217840d7,"Mozilla/5.0 (Macintosh; Intel Mac OS X 10_15_7) AppleWebKit/605.1.15 (KHTML, like Gecko) Version/17.2 Safari/605.1.15",Macintosh,Safari,17.2,OS X,10_15_7,https://5puzkbbxv1.cognition.run/?sona_id=52116,"en-US,en;q=0.9",8zjcmx935ms6et3,20,"[""Asian""]",No,Male,NA,Yes,142650,NA,1475,NA,"{""product_choice"":""B""}",choice,ctd,trinary,attraction,1,microwave ovens,null,null,null,null,null,null,1,60,50,60,50,60,40,Warranty,Cooking power,NA,NA
NA,NA,NA,NA,NA,choice_trial_setup,html-keyboard-response,60,74234,0.0-4.0-0.28,147,1,2025-05-03T21:22:50Z,b60275e29fe2361ab97ac0ac217840d7,"Mozilla/5.0 (Macintosh; Intel Mac OS X 10_15_7) AppleWebKit/605.1.15 (KHTML, like Gecko) Version/17.2 Safari/605.1.15",Macintosh,Safari,17.2,OS X,10_15_7,https://5puzkbbxv1.cognition.run/?sona_id=52116,"en-US,en;q=0.9",8zjcmx935ms6et3,20,"[""Asian""]",No,Male,NA,Yes,142650,NA,null,<p></p>,null,choice,cdt,trinary,repulsion_A,1,washing machines,null,null,null,null,null,null,1,NA,NA,NA,NA,NA,NA,NA,NA,NA,NA
NA,NA,NA,NA,NA,choice_trial,survey-html-form,61,77019,0.0-4.0-1.28,147,1,2025-05-03T21:22:50Z,b60275e29fe2361ab97ac0ac217840d7,"Mozilla/5.0 (Macintosh; Intel Mac OS X 10_15_7) AppleWebKit/605.1.15 (KHTML, like Gecko) Version/17.2 Safari/605.1.15",Macintosh,Safari,17.2,OS X,10_15_7,https://5puzkbbxv1.cognition.run/?sona_id=52116,"en-US,en;q=0.9",8zjcmx935ms6et3,20,"[""Asian""]",No,Male,NA,Yes,142650,NA,2778,NA,"{""product_choice"":""B""}",choice,cdt,trinary,repulsion_A,1,washing machines,null,null,null,null,null,null,1,100,90,100,30,40,20,Average lifespan,Energy savings,NA,NA
NA,NA,NA,NA,NA,choice_trial_setup,html-keyboard-response,62,77322,0.0-4.0-0.29,147,1,2025-05-03T21:22:50Z,b60275e29fe2361ab97ac0ac217840d7,"Mozilla/5.0 (Macintosh; Intel Mac OS X 10_15_7) AppleWebKit/605.1.15 (KHTML, like Gecko) Version/17.2 Safari/605.1.15",Macintosh,Safari,17.2,OS X,10_15_7,https://5puzkbbxv1.cognition.run/?sona_id=52116,"en-US,en;q=0.9",8zjcmx935ms6et3,20,"[""Asian""]",No,Male,NA,Yes,142650,NA,null,<p></p>,null,choice,ct,binary,attraction,NA,washing machines,null,null,null,null,null,null,2,NA,NA,NA,NA,NA,NA,NA,NA,NA,NA
NA,NA,NA,NA,NA,choice_trial,survey-html-form,63,78660,0.0-4.0-1.29,147,1,2025-05-03T21:22:50Z,b60275e29fe2361ab97ac0ac217840d7,"Mozilla/5.0 (Macintosh; Intel Mac OS X 10_15_7) AppleWebKit/605.1.15 (KHTML, like Gecko) Version/17.2 Safari/605.1.15",Macintosh,Safari,17.2,OS X,10_15_7,https://5puzkbbxv1.cognition.run/?sona_id=52116,"en-US,en;q=0.9",8zjcmx935ms6et3,20,"[""Asian""]",No,Male,NA,Yes,142650,NA,1332,NA,"{""product_choice"":""B""}",choice,ct,binary,attraction,NA,washing machines,null,null,null,null,null,null,2,60,50,null,50,60,null,Average lifespan,Energy savings,NA,NA
NA,NA,NA,NA,NA,choice_trial_setup,html-keyboard-response,64,78962,0.0-4.0-0.30,147,1,2025-05-03T21:22:50Z,b60275e29fe2361ab97ac0ac217840d7,"Mozilla/5.0 (Macintosh; Intel Mac OS X 10_15_7) AppleWebKit/605.1.15 (KHTML, like Gecko) Version/17.2 Safari/605.1.15",Macintosh,Safari,17.2,OS X,10_15_7,https://5puzkbbxv1.cognition.run/?sona_id=52116,"en-US,en;q=0.9",8zjcmx935ms6et3,20,"[""Asian""]",No,Male,NA,Yes,142650,NA,null,<p></p>,null,choice,ct,binary,repulsion,1,laptops,null,null,null,null,null,null,1,NA,NA,NA,NA,NA,NA,NA,NA,NA,NA
NA,NA,NA,NA,NA,choice_trial,survey-html-form,65,80625,0.0-4.0-1.30,147,1,2025-05-03T21:22:50Z,b60275e29fe2361ab97ac0ac217840d7,"Mozilla/5.0 (Macintosh; Intel Mac OS X 10_15_7) AppleWebKit/605.1.15 (KHTML, like Gecko) Version/17.2 Safari/605.1.15",Macintosh,Safari,17.2,OS X,10_15_7,https://5puzkbbxv1.cognition.run/?sona_id=52116,"en-US,en;q=0.9",8zjcmx935ms6et3,20,"[""Asian""]",No,Male,NA,Yes,142650,NA,1657,NA,"{""product_choice"":""A""}",choice,ct,binary,repulsion,1,laptops,null,null,null,null,null,null,1,100,90,null,30,40,null,Processing speed,Memory (RAM),NA,NA
NA,NA,NA,NA,NA,choice_trial_setup,html-keyboard-response,66,80927,0.0-4.0-0.31,147,1,2025-05-03T21:22:50Z,b60275e29fe2361ab97ac0ac217840d7,"Mozilla/5.0 (Macintosh; Intel Mac OS X 10_15_7) AppleWebKit/605.1.15 (KHTML, like Gecko) Version/17.2 Safari/605.1.15",Macintosh,Safari,17.2,OS X,10_15_7,https://5puzkbbxv1.cognition.run/?sona_id=52116,"en-US,en;q=0.9",8zjcmx935ms6et3,20,"[""Asian""]",No,Male,NA,Yes,142650,NA,null,<p></p>,null,choice,bw,binary,catch,null,washing machines,55,85,10,30,null,null,2,NA,NA,NA,NA,NA,NA,NA,NA,NA,NA
NA,NA,NA,NA,NA,choice_trial,survey-html-form,67,82094,0.0-4.0-1.31,147,1,2025-05-03T21:22:50Z,b60275e29fe2361ab97ac0ac217840d7,"Mozilla/5.0 (Macintosh; Intel Mac OS X 10_15_7) AppleWebKit/605.1.15 (KHTML, like Gecko) Version/17.2 Safari/605.1.15",Macintosh,Safari,17.2,OS X,10_15_7,https://5puzkbbxv1.cognition.run/?sona_id=52116,"en-US,en;q=0.9",8zjcmx935ms6et3,20,"[""Asian""]",No,Male,NA,Yes,142650,NA,1160,NA,"{""product_choice"":""A""}",choice,bw,binary,catch,null,washing machines,55,85,10,30,null,null,2,null,null,null,null,null,null,Average lifespan,Energy savings,NA,NA
NA,NA,NA,NA,NA,choice_trial_setup,html-keyboard-response,68,82396,0.0-4.0-0.32,147,1,2025-05-03T21:22:50Z,b60275e29fe2361ab97ac0ac217840d7,"Mozilla/5.0 (Macintosh; Intel Mac OS X 10_15_7) AppleWebKit/605.1.15 (KHTML, like Gecko) Version/17.2 Safari/605.1.15",Macintosh,Safari,17.2,OS X,10_15_7,https://5puzkbbxv1.cognition.run/?sona_id=52116,"en-US,en;q=0.9",8zjcmx935ms6et3,20,"[""Asian""]",No,Male,NA,Yes,142650,NA,null,<p></p>,null,choice,cdt,trinary,repulsion_A,1,microwave ovens,null,null,null,null,null,null,1,NA,NA,NA,NA,NA,NA,NA,NA,NA,NA
NA,NA,NA,NA,NA,choice_trial,survey-html-form,69,83888,0.0-4.0-1.32,147,1,2025-05-03T21:22:50Z,b60275e29fe2361ab97ac0ac217840d7,"Mozilla/5.0 (Macintosh; Intel Mac OS X 10_15_7) AppleWebKit/605.1.15 (KHTML, like Gecko) Version/17.2 Safari/605.1.15",Macintosh,Safari,17.2,OS X,10_15_7,https://5puzkbbxv1.cognition.run/?sona_id=52116,"en-US,en;q=0.9",8zjcmx935ms6et3,20,"[""Asian""]",No,Male,NA,Yes,142650,NA,1486,NA,"{""product_choice"":""C""}",choice,cdt,trinary,repulsion_A,1,microwave ovens,null,null,null,null,null,null,1,100,90,100,30,40,20,Warranty,Cooking power,NA,NA
NA,NA,NA,NA,NA,choice_trial_setup,html-keyboard-response,70,84190,0.0-4.0-0.33,147,1,2025-05-03T21:22:50Z,b60275e29fe2361ab97ac0ac217840d7,"Mozilla/5.0 (Macintosh; Intel Mac OS X 10_15_7) AppleWebKit/605.1.15 (KHTML, like Gecko) Version/17.2 Safari/605.1.15",Macintosh,Safari,17.2,OS X,10_15_7,https://5puzkbbxv1.cognition.run/?sona_id=52116,"en-US,en;q=0.9",8zjcmx935ms6et3,20,"[""Asian""]",No,Male,NA,Yes,142650,NA,null,<p></p>,null,choice,ct,binary,attraction,NA,microwave ovens,null,null,null,null,null,null,1,NA,NA,NA,NA,NA,NA,NA,NA,NA,NA
NA,NA,NA,NA,NA,choice_trial,survey-html-form,71,86426,0.0-4.0-1.33,147,1,2025-05-03T21:22:50Z,b60275e29fe2361ab97ac0ac217840d7,"Mozilla/5.0 (Macintosh; Intel Mac OS X 10_15_7) AppleWebKit/605.1.15 (KHTML, like Gecko) Version/17.2 Safari/605.1.15",Macintosh,Safari,17.2,OS X,10_15_7,https://5puzkbbxv1.cognition.run/?sona_id=52116,"en-US,en;q=0.9",8zjcmx935ms6et3,20,"[""Asian""]",No,Male,NA,Yes,142650,NA,2230,NA,"{""product_choice"":""B""}",choice,ct,binary,attraction,NA,microwave ovens,null,null,null,null,null,null,1,60,50,null,50,60,null,Warranty,Cooking power,NA,NA
NA,NA,NA,NA,NA,choice_trial_setup,html-keyboard-response,72,86728,0.0-4.0-0.34,147,1,2025-05-03T21:22:50Z,b60275e29fe2361ab97ac0ac217840d7,"Mozilla/5.0 (Macintosh; Intel Mac OS X 10_15_7) AppleWebKit/605.1.15 (KHTML, like Gecko) Version/17.2 Safari/605.1.15",Macintosh,Safari,17.2,OS X,10_15_7,https://5puzkbbxv1.cognition.run/?sona_id=52116,"en-US,en;q=0.9",8zjcmx935ms6et3,20,"[""Asian""]",No,Male,NA,Yes,142650,NA,null,<p></p>,null,choice,tc,binary,repulsion,1,microwave ovens,null,null,null,null,null,null,1,NA,NA,NA,NA,NA,NA,NA,NA,NA,NA
NA,NA,NA,NA,NA,choice_trial,survey-html-form,73,87994,0.0-4.0-1.34,147,1,2025-05-03T21:22:50Z,b60275e29fe2361ab97ac0ac217840d7,"Mozilla/5.0 (Macintosh; Intel Mac OS X 10_15_7) AppleWebKit/605.1.15 (KHTML, like Gecko) Version/17.2 Safari/605.1.15",Macintosh,Safari,17.2,OS X,10_15_7,https://5puzkbbxv1.cognition.run/?sona_id=52116,"en-US,en;q=0.9",8zjcmx935ms6et3,20,"[""Asian""]",No,Male,NA,Yes,142650,NA,1260,NA,"{""product_choice"":""A""}",choice,tc,binary,repulsion,1,microwave ovens,null,null,null,null,null,null,1,100,90,null,30,40,null,Warranty,Cooking power,NA,NA
NA,NA,NA,NA,NA,choice_trial_setup,html-keyboard-response,74,88296,0.0-4.0-0.35,147,1,2025-05-03T21:22:50Z,b60275e29fe2361ab97ac0ac217840d7,"Mozilla/5.0 (Macintosh; Intel Mac OS X 10_15_7) AppleWebKit/605.1.15 (KHTML, like Gecko) Version/17.2 Safari/605.1.15",Macintosh,Safari,17.2,OS X,10_15_7,https://5puzkbbxv1.cognition.run/?sona_id=52116,"en-US,en;q=0.9",8zjcmx935ms6et3,20,"[""Asian""]",No,Male,NA,Yes,142650,NA,null,<p></p>,null,choice,dtc,trinary,attraction,2,laptops,null,null,null,null,null,null,1,NA,NA,NA,NA,NA,NA,NA,NA,NA,NA
NA,NA,NA,NA,NA,choice_trial,survey-html-form,75,89788,0.0-4.0-1.35,147,1,2025-05-03T21:22:50Z,b60275e29fe2361ab97ac0ac217840d7,"Mozilla/5.0 (Macintosh; Intel Mac OS X 10_15_7) AppleWebKit/605.1.15 (KHTML, like Gecko) Version/17.2 Safari/605.1.15",Macintosh,Safari,17.2,OS X,10_15_7,https://5puzkbbxv1.cognition.run/?sona_id=52116,"en-US,en;q=0.9",8zjcmx935ms6et3,20,"[""Asian""]",No,Male,NA,Yes,142650,NA,1487,NA,"{""product_choice"":""B""}",choice,dtc,trinary,attraction,2,laptops,null,null,null,null,null,null,1,50,60,40,60,50,60,Processing speed,Memory (RAM),NA,NA
NA,NA,NA,NA,NA,choice_trial_setup,html-keyboard-response,76,90089,0.0-4.0-0.36,147,1,2025-05-03T21:22:50Z,b60275e29fe2361ab97ac0ac217840d7,"Mozilla/5.0 (Macintosh; Intel Mac OS X 10_15_7) AppleWebKit/605.1.15 (KHTML, like Gecko) Version/17.2 Safari/605.1.15",Macintosh,Safari,17.2,OS X,10_15_7,https://5puzkbbxv1.cognition.run/?sona_id=52116,"en-US,en;q=0.9",8zjcmx935ms6et3,20,"[""Asian""]",No,Male,NA,Yes,142650,NA,null,<p></p>,null,choice,tc,binary,repulsion,1,washing machines,null,null,null,null,null,null,1,NA,NA,NA,NA,NA,NA,NA,NA,NA,NA
NA,NA,NA,NA,NA,choice_trial,survey-html-form,77,91290,0.0-4.0-1.36,147,1,2025-05-03T21:22:50Z,b60275e29fe2361ab97ac0ac217840d7,"Mozilla/5.0 (Macintosh; Intel Mac OS X 10_15_7) AppleWebKit/605.1.15 (KHTML, like Gecko) Version/17.2 Safari/605.1.15",Macintosh,Safari,17.2,OS X,10_15_7,https://5puzkbbxv1.cognition.run/?sona_id=52116,"en-US,en;q=0.9",8zjcmx935ms6et3,20,"[""Asian""]",No,Male,NA,Yes,142650,NA,1195,NA,"{""product_choice"":""B""}",choice,tc,binary,repulsion,1,washing machines,null,null,null,null,null,null,1,100,90,null,30,40,null,Average lifespan,Energy savings,NA,NA
NA,NA,NA,NA,NA,choice_trial_setup,html-keyboard-response,78,91592,0.0-4.0-0.37,147,1,2025-05-03T21:22:50Z,b60275e29fe2361ab97ac0ac217840d7,"Mozilla/5.0 (Macintosh; Intel Mac OS X 10_15_7) AppleWebKit/605.1.15 (KHTML, like Gecko) Version/17.2 Safari/605.1.15",Macintosh,Safari,17.2,OS X,10_15_7,https://5puzkbbxv1.cognition.run/?sona_id=52116,"en-US,en;q=0.9",8zjcmx935ms6et3,20,"[""Asian""]",No,Male,NA,Yes,142650,NA,null,<p></p>,null,choice,ct,binary,attraction,NA,televisions,null,null,null,null,null,null,2,NA,NA,NA,NA,NA,NA,NA,NA,NA,NA
NA,NA,NA,NA,NA,choice_trial,survey-html-form,79,92641,0.0-4.0-1.37,147,1,2025-05-03T21:22:50Z,b60275e29fe2361ab97ac0ac217840d7,"Mozilla/5.0 (Macintosh; Intel Mac OS X 10_15_7) AppleWebKit/605.1.15 (KHTML, like Gecko) Version/17.2 Safari/605.1.15",Macintosh,Safari,17.2,OS X,10_15_7,https://5puzkbbxv1.cognition.run/?sona_id=52116,"en-US,en;q=0.9",8zjcmx935ms6et3,20,"[""Asian""]",No,Male,NA,Yes,142650,NA,1044,NA,"{""product_choice"":""A""}",choice,ct,binary,attraction,NA,televisions,null,null,null,null,null,null,2,60,50,null,50,60,null,Screen size,Average lifespan,NA,NA
NA,NA,NA,NA,NA,choice_trial_setup,html-keyboard-response,80,92942,0.0-4.0-0.38,147,1,2025-05-03T21:22:50Z,b60275e29fe2361ab97ac0ac217840d7,"Mozilla/5.0 (Macintosh; Intel Mac OS X 10_15_7) AppleWebKit/605.1.15 (KHTML, like Gecko) Version/17.2 Safari/605.1.15",Macintosh,Safari,17.2,OS X,10_15_7,https://5puzkbbxv1.cognition.run/?sona_id=52116,"en-US,en;q=0.9",8zjcmx935ms6et3,20,"[""Asian""]",No,Male,NA,Yes,142650,NA,null,<p></p>,null,choice,cdt,trinary,repulsion_B,1,washing machines,null,null,null,null,null,null,1,NA,NA,NA,NA,NA,NA,NA,NA,NA,NA
NA,NA,NA,NA,NA,choice_trial,survey-html-form,81,96270,0.0-4.0-1.38,147,1,2025-05-03T21:22:50Z,b60275e29fe2361ab97ac0ac217840d7,"Mozilla/5.0 (Macintosh; Intel Mac OS X 10_15_7) AppleWebKit/605.1.15 (KHTML, like Gecko) Version/17.2 Safari/605.1.15",Macintosh,Safari,17.2,OS X,10_15_7,https://5puzkbbxv1.cognition.run/?sona_id=52116,"en-US,en;q=0.9",8zjcmx935ms6et3,20,"[""Asian""]",No,Male,NA,Yes,142650,NA,3321,NA,"{""product_choice"":""C""}",choice,cdt,trinary,repulsion_B,1,washing machines,null,null,null,null,null,null,1,90,100,80,40,30,40,Average lifespan,Energy savings,NA,NA
NA,NA,NA,NA,NA,choice_trial_setup,html-keyboard-response,82,96572,0.0-4.0-0.39,147,1,2025-05-03T21:22:50Z,b60275e29fe2361ab97ac0ac217840d7,"Mozilla/5.0 (Macintosh; Intel Mac OS X 10_15_7) AppleWebKit/605.1.15 (KHTML, like Gecko) Version/17.2 Safari/605.1.15",Macintosh,Safari,17.2,OS X,10_15_7,https://5puzkbbxv1.cognition.run/?sona_id=52116,"en-US,en;q=0.9",8zjcmx935ms6et3,20,"[""Asian""]",No,Male,NA,Yes,142650,NA,null,<p></p>,null,choice,bww,trinary,catch,null,microwave ovens,80,95,50,25,15,10,1,NA,NA,NA,NA,NA,NA,NA,NA,NA,NA
NA,NA,NA,NA,NA,choice_trial,survey-html-form,83,98589,0.0-4.0-1.39,147,1,2025-05-03T21:22:50Z,b60275e29fe2361ab97ac0ac217840d7,"Mozilla/5.0 (Macintosh; Intel Mac OS X 10_15_7) AppleWebKit/605.1.15 (KHTML, like Gecko) Version/17.2 Safari/605.1.15",Macintosh,Safari,17.2,OS X,10_15_7,https://5puzkbbxv1.cognition.run/?sona_id=52116,"en-US,en;q=0.9",8zjcmx935ms6et3,20,"[""Asian""]",No,Male,NA,Yes,142650,NA,2009,NA,"{""product_choice"":""B""}",choice,bww,trinary,catch,null,microwave ovens,80,95,50,25,15,10,1,null,null,null,null,null,null,Warranty,Cooking power,NA,NA
NA,NA,NA,NA,NA,choice_trial_setup,html-keyboard-response,84,98890,0.0-4.0-0.40,147,1,2025-05-03T21:22:50Z,b60275e29fe2361ab97ac0ac217840d7,"Mozilla/5.0 (Macintosh; Intel Mac OS X 10_15_7) AppleWebKit/605.1.15 (KHTML, like Gecko) Version/17.2 Safari/605.1.15",Macintosh,Safari,17.2,OS X,10_15_7,https://5puzkbbxv1.cognition.run/?sona_id=52116,"en-US,en;q=0.9",8zjcmx935ms6et3,20,"[""Asian""]",No,Male,NA,Yes,142650,NA,null,<p></p>,null,choice,cdt,trinary,attraction,1,laptops,null,null,null,null,null,null,2,NA,NA,NA,NA,NA,NA,NA,NA,NA,NA
NA,NA,NA,NA,NA,choice_trial,survey-html-form,85,101207,0.0-4.0-1.40,147,1,2025-05-03T21:22:50Z,b60275e29fe2361ab97ac0ac217840d7,"Mozilla/5.0 (Macintosh; Intel Mac OS X 10_15_7) AppleWebKit/605.1.15 (KHTML, like Gecko) Version/17.2 Safari/605.1.15",Macintosh,Safari,17.2,OS X,10_15_7,https://5puzkbbxv1.cognition.run/?sona_id=52116,"en-US,en;q=0.9",8zjcmx935ms6et3,20,"[""Asian""]",No,Male,NA,Yes,142650,NA,2310,NA,"{""product_choice"":""B""}",choice,cdt,trinary,attraction,1,laptops,null,null,null,null,null,null,2,60,50,60,50,60,40,Processing speed,Memory (RAM),NA,NA
NA,NA,NA,NA,NA,choice_trial_setup,html-keyboard-response,86,101510,0.0-4.0-0.41,147,1,2025-05-03T21:22:50Z,b60275e29fe2361ab97ac0ac217840d7,"Mozilla/5.0 (Macintosh; Intel Mac OS X 10_15_7) AppleWebKit/605.1.15 (KHTML, like Gecko) Version/17.2 Safari/605.1.15",Macintosh,Safari,17.2,OS X,10_15_7,https://5puzkbbxv1.cognition.run/?sona_id=52116,"en-US,en;q=0.9",8zjcmx935ms6et3,20,"[""Asian""]",No,Male,NA,Yes,142650,NA,null,<p></p>,null,choice,tdc,trinary,repulsion_B,2,televisions,null,null,null,null,null,null,1,NA,NA,NA,NA,NA,NA,NA,NA,NA,NA
NA,NA,NA,NA,NA,choice_trial,survey-html-form,87,104108,0.0-4.0-1.41,147,1,2025-05-03T21:22:50Z,b60275e29fe2361ab97ac0ac217840d7,"Mozilla/5.0 (Macintosh; Intel Mac OS X 10_15_7) AppleWebKit/605.1.15 (KHTML, like Gecko) Version/17.2 Safari/605.1.15",Macintosh,Safari,17.2,OS X,10_15_7,https://5puzkbbxv1.cognition.run/?sona_id=52116,"en-US,en;q=0.9",8zjcmx935ms6et3,20,"[""Asian""]",No,Male,NA,Yes,142650,NA,2587,NA,"{""product_choice"":""B""}",choice,tdc,trinary,repulsion_B,2,televisions,null,null,null,null,null,null,1,40,30,40,90,100,80,Screen size,Average lifespan,NA,NA
NA,NA,NA,NA,NA,choice_trial_setup,html-keyboard-response,88,104410,0.0-4.0-0.42,147,1,2025-05-03T21:22:50Z,b60275e29fe2361ab97ac0ac217840d7,"Mozilla/5.0 (Macintosh; Intel Mac OS X 10_15_7) AppleWebKit/605.1.15 (KHTML, like Gecko) Version/17.2 Safari/605.1.15",Macintosh,Safari,17.2,OS X,10_15_7,https://5puzkbbxv1.cognition.run/?sona_id=52116,"en-US,en;q=0.9",8zjcmx935ms6et3,20,"[""Asian""]",No,Male,NA,Yes,142650,NA,null,<p></p>,null,choice,ct,binary,repulsion,2,laptops,null,null,null,null,null,null,1,NA,NA,NA,NA,NA,NA,NA,NA,NA,NA
NA,NA,NA,NA,NA,choice_trial,survey-html-form,89,105757,0.0-4.0-1.42,147,1,2025-05-03T21:22:50Z,b60275e29fe2361ab97ac0ac217840d7,"Mozilla/5.0 (Macintosh; Intel Mac OS X 10_15_7) AppleWebKit/605.1.15 (KHTML, like Gecko) Version/17.2 Safari/605.1.15",Macintosh,Safari,17.2,OS X,10_15_7,https://5puzkbbxv1.cognition.run/?sona_id=52116,"en-US,en;q=0.9",8zjcmx935ms6et3,20,"[""Asian""]",No,Male,NA,Yes,142650,NA,1341,NA,"{""product_choice"":""A""}",choice,ct,binary,repulsion,2,laptops,null,null,null,null,null,null,1,30,40,null,100,90,null,Processing speed,Memory (RAM),NA,NA
NA,NA,NA,NA,NA,choice_trial_setup,html-keyboard-response,90,106059,0.0-4.0-0.43,147,1,2025-05-03T21:22:50Z,b60275e29fe2361ab97ac0ac217840d7,"Mozilla/5.0 (Macintosh; Intel Mac OS X 10_15_7) AppleWebKit/605.1.15 (KHTML, like Gecko) Version/17.2 Safari/605.1.15",Macintosh,Safari,17.2,OS X,10_15_7,https://5puzkbbxv1.cognition.run/?sona_id=52116,"en-US,en;q=0.9",8zjcmx935ms6et3,20,"[""Asian""]",No,Male,NA,Yes,142650,NA,null,<p></p>,null,choice,wb,binary,catch,null,microwave ovens,80,75,20,50,null,null,2,NA,NA,NA,NA,NA,NA,NA,NA,NA,NA
NA,NA,NA,NA,NA,choice_trial,survey-html-form,91,107260,0.0-4.0-1.43,147,1,2025-05-03T21:22:50Z,b60275e29fe2361ab97ac0ac217840d7,"Mozilla/5.0 (Macintosh; Intel Mac OS X 10_15_7) AppleWebKit/605.1.15 (KHTML, like Gecko) Version/17.2 Safari/605.1.15",Macintosh,Safari,17.2,OS X,10_15_7,https://5puzkbbxv1.cognition.run/?sona_id=52116,"en-US,en;q=0.9",8zjcmx935ms6et3,20,"[""Asian""]",No,Male,NA,Yes,142650,NA,1194,NA,"{""product_choice"":""B""}",choice,wb,binary,catch,null,microwave ovens,80,75,20,50,null,null,2,null,null,null,null,null,null,Warranty,Cooking power,NA,NA
NA,NA,NA,NA,NA,post_trials_message,html-button-response,92,108441,0.0-5.0,147,1,2025-05-03T21:22:50Z,b60275e29fe2361ab97ac0ac217840d7,"Mozilla/5.0 (Macintosh; Intel Mac OS X 10_15_7) AppleWebKit/605.1.15 (KHTML, like Gecko) Version/17.2 Safari/605.1.15",Macintosh,Safari,17.2,OS X,10_15_7,https://5puzkbbxv1.cognition.run/?sona_id=52116,"en-US,en;q=0.9",8zjcmx935ms6et3,20,"[""Asian""]",No,Male,NA,Yes,142650,NA,1178,<p> <b>Thank you for your patience!</b></p><p>  The study will be done after completing a brief form. </p>,0,NA,NA,NA,NA,NA,NA,NA,NA,NA,NA,NA,NA,NA,NA,NA,NA,NA,NA,NA,NA,NA,NA,NA
NA,NA,NA,NA,NA,survey_message,survey-text,93,121058,0.0-6.0,147,1,2025-05-03T21:22:50Z,b60275e29fe2361ab97ac0ac217840d7,"Mozilla/5.0 (Macintosh; Intel Mac OS X 10_15_7) AppleWebKit/605.1.15 (KHTML, like Gecko) Version/17.2 Safari/605.1.15",Macintosh,Safari,17.2,OS X,10_15_7,https://5puzkbbxv1.cognition.run/?sona_id=52116,"en-US,en;q=0.9",8zjcmx935ms6et3,20,"[""Asian""]",No,Male,NA,Yes,142650,NA,12609,NA,"{""Q0"":""I was just doing what seemed the most fair to me ""}",NA,NA,NA,NA,NA,NA,NA,NA,NA,NA,NA,NA,NA,NA,NA,NA,NA,NA,NA,NA,NA,I was just doing what seemed the most fair to me,NA
NA,NA,NA,NA,NA,demo_age,survey-text,94,123441,0.0-7.0,147,1,2025-05-03T21:22:50Z,b60275e29fe2361ab97ac0ac217840d7,"Mozilla/5.0 (Macintosh; Intel Mac OS X 10_15_7) AppleWebKit/605.1.15 (KHTML, like Gecko) Version/17.2 Safari/605.1.15",Macintosh,Safari,17.2,OS X,10_15_7,https://5puzkbbxv1.cognition.run/?sona_id=52116,"en-US,en;q=0.9",8zjcmx935ms6et3,20,"[""Asian""]",No,Male,NA,Yes,142650,NA,2379,NA,"{""Q0"":""20""}",NA,NA,NA,NA,NA,NA,NA,NA,NA,NA,NA,NA,NA,NA,NA,NA,NA,NA,NA,NA,NA,NA,NA
NA,NA,NA,NA,NA,demo_race,survey-multi-select,95,125196,0.0-8.0,147,1,2025-05-03T21:22:50Z,b60275e29fe2361ab97ac0ac217840d7,"Mozilla/5.0 (Macintosh; Intel Mac OS X 10_15_7) AppleWebKit/605.1.15 (KHTML, like Gecko) Version/17.2 Safari/605.1.15",Macintosh,Safari,17.2,OS X,10_15_7,https://5puzkbbxv1.cognition.run/?sona_id=52116,"en-US,en;q=0.9",8zjcmx935ms6et3,20,"[""Asian""]",No,Male,NA,Yes,142650,NA,1752,NA,"{""Q0"":[""Asian""]}",NA,NA,NA,NA,NA,NA,NA,NA,NA,NA,NA,NA,NA,NA,NA,NA,NA,NA,NA,NA,NA,NA,[0]
NA,NA,NA,NA,NA,demo_ethnicity_gender,survey-multi-choice,96,128744,0.0-9.0,147,1,2025-05-03T21:22:50Z,b60275e29fe2361ab97ac0ac217840d7,"Mozilla/5.0 (Macintosh; Intel Mac OS X 10_15_7) AppleWebKit/605.1.15 (KHTML, like Gecko) Version/17.2 Safari/605.1.15",Macintosh,Safari,17.2,OS X,10_15_7,https://5puzkbbxv1.cognition.run/?sona_id=52116,"en-US,en;q=0.9",8zjcmx935ms6et3,20,"[""Asian""]",No,Male,NA,Yes,142650,NA,3540,NA,"{""Q0"":""No"",""Q1"":""Male""}",NA,NA,NA,NA,NA,NA,NA,NA,NA,NA,NA,NA,NA,NA,NA,NA,NA,NA,NA,NA,NA,NA,"[0,1]"
NA,NA,NA,NA,NA,demo_countries,survey-text,97,133596,0.0-10.0,147,1,2025-05-03T21:22:50Z,b60275e29fe2361ab97ac0ac217840d7,"Mozilla/5.0 (Macintosh; Intel Mac OS X 10_15_7) AppleWebKit/605.1.15 (KHTML, like Gecko) Version/17.2 Safari/605.1.15",Macintosh,Safari,17.2,OS X,10_15_7,https://5puzkbbxv1.cognition.run/?sona_id=52116,"en-US,en;q=0.9",8zjcmx935ms6et3,20,"[""Asian""]",No,Male,NA,Yes,142650,NA,4844,NA,"{""Q0"":""NA""}",NA,NA,NA,NA,NA,NA,NA,NA,NA,NA,NA,NA,NA,NA,NA,NA,NA,NA,NA,NA,NA,NA,NA
NA,NA,NA,NA,NA,demo_prev_study,survey-multi-choice,98,136867,0.0-11.0,147,1,2025-05-03T21:22:50Z,b60275e29fe2361ab97ac0ac217840d7,"Mozilla/5.0 (Macintosh; Intel Mac OS X 10_15_7) AppleWebKit/605.1.15 (KHTML, like Gecko) Version/17.2 Safari/605.1.15",Macintosh,Safari,17.2,OS X,10_15_7,https://5puzkbbxv1.cognition.run/?sona_id=52116,"en-US,en;q=0.9",8zjcmx935ms6et3,20,"[""Asian""]",No,Male,NA,Yes,142650,NA,3270,NA,"{""Q0"":""Yes""}",NA,NA,NA,NA,NA,NA,NA,NA,NA,NA,NA,NA,NA,NA,NA,NA,NA,NA,NA,NA,NA,NA,[0]
NA,NA,NA,NA,NA,post_survey_message,html-keyboard-response,99,137890,0.0-12.0,147,1,2025-05-03T21:22:50Z,b60275e29fe2361ab97ac0ac217840d7,"Mozilla/5.0 (Macintosh; Intel Mac OS X 10_15_7) AppleWebKit/605.1.15 (KHTML, like Gecko) Version/17.2 Safari/605.1.15",Macintosh,Safari,17.2,OS X,10_15_7,https://5puzkbbxv1.cognition.run/?sona_id=52116,"en-US,en;q=0.9",8zjcmx935ms6et3,20,"[""Asian""]",No,Male,NA,Yes,142650,NA,1015,NA,j,NA,NA,NA,NA,NA,NA,NA,NA,NA,NA,NA,NA,NA,NA,NA,NA,NA,NA,NA,NA,NA,NA,NA
NA,NA,NA,NA,NA,debrief,image-keyboard-response,100,142648,0.0-13.0,147,1,2025-05-03T21:22:50Z,b60275e29fe2361ab97ac0ac217840d7,"Mozilla/5.0 (Macintosh; Intel Mac OS X 10_15_7) AppleWebKit/605.1.15 (KHTML, like Gecko) Version/17.2 Safari/605.1.15",Macintosh,Safari,17.2,OS X,10_15_7,https://5puzkbbxv1.cognition.run/?sona_id=52116,"en-US,en;q=0.9",8zjcmx935ms6et3,20,"[""Asian""]",No,Male,NA,Yes,142650,NA,4725,Judg_choice_debrief.png,p,NA,NA,NA,NA,NA,NA,NA,NA,NA,NA,NA,NA,NA,NA,NA,NA,NA,NA,NA,NA,NA,NA,NA
