success,timeout,failed_images,failed_audio,failed_video,screen_id,trial_type,trial_index,time_elapsed,internal_node_id,run_id,condition,recorded_at,source_code_version,user_agent,device,browser,browser_version,platform,platform_version,referer,accept_language,ppt_id,age,race,ethnicity,gender,other_countries,prev_study,exp_duration,view_history,rt,stimulus,response,phase,order,set,effect,t_high,category,d1_best,d2_best,d1_worst1,d2_worst1,d1_worst2,d2_worst2,first_dim,d1_t,d1_c,d1_d,d2_t,d2_c,d2_d,d1_name,d2_name,strategy_response,question_order
TRUE,FALSE,[],[],[],img preload,preload,0,297,0.0-0.0,149,1,2025-05-03T21:52:36Z,b60275e29fe2361ab97ac0ac217840d7,"Mozilla/5.0 (Windows NT 10.0; Win64; x64) AppleWebKit/537.36 (KHTML, like Gecko) Chrome/135.0.0.0 Safari/537.36 Edg/135.0.0.0",WebKit,Edge,135.0.0.0,Windows,10,https://5puzkbbxv1.cognition.run/?sona_id=57588,"en-US,en;q=0.9",8vac8g8gmh4qf3e,18,"[""White""]",No,Male,NA,Yes,591517.3999999985,NA,NA,NA,NA,NA,NA,NA,NA,NA,NA,NA,NA,NA,NA,NA,NA,NA,NA,NA,NA,NA,NA,NA,NA,NA,NA,NA
NA,NA,NA,NA,NA,computer_message,instructions,1,4482,0.0-1.0,149,1,2025-05-03T21:52:36Z,b60275e29fe2361ab97ac0ac217840d7,"Mozilla/5.0 (Windows NT 10.0; Win64; x64) AppleWebKit/537.36 (KHTML, like Gecko) Chrome/135.0.0.0 Safari/537.36 Edg/135.0.0.0",WebKit,Edge,135.0.0.0,Windows,10,https://5puzkbbxv1.cognition.run/?sona_id=57588,"en-US,en;q=0.9",8vac8g8gmh4qf3e,18,"[""White""]",No,Male,NA,Yes,591517.3999999985,"[{""page_index"":0,""viewing_time"":4182}]",4182,NA,NA,NA,NA,NA,NA,NA,NA,NA,NA,NA,NA,NA,NA,NA,NA,NA,NA,NA,NA,NA,NA,NA,NA,NA
TRUE,NA,NA,NA,NA,NA,fullscreen,2,11692,0.0-2.0,149,1,2025-05-03T21:52:36Z,b60275e29fe2361ab97ac0ac217840d7,"Mozilla/5.0 (Windows NT 10.0; Win64; x64) AppleWebKit/537.36 (KHTML, like Gecko) Chrome/135.0.0.0 Safari/537.36 Edg/135.0.0.0",WebKit,Edge,135.0.0.0,Windows,10,https://5puzkbbxv1.cognition.run/?sona_id=57588,"en-US,en;q=0.9",8vac8g8gmh4qf3e,18,"[""White""]",No,Male,NA,Yes,591517.3999999985,NA,6198,NA,NA,NA,NA,NA,NA,NA,NA,NA,NA,NA,NA,NA,NA,NA,NA,NA,NA,NA,NA,NA,NA,NA,NA,NA
NA,NA,NA,NA,NA,choice_instructions,instructions,3,81988,0.0-3.0,149,1,2025-05-03T21:52:36Z,b60275e29fe2361ab97ac0ac217840d7,"Mozilla/5.0 (Windows NT 10.0; Win64; x64) AppleWebKit/537.36 (KHTML, like Gecko) Chrome/135.0.0.0 Safari/537.36 Edg/135.0.0.0",WebKit,Edge,135.0.0.0,Windows,10,https://5puzkbbxv1.cognition.run/?sona_id=57588,"en-US,en;q=0.9",8vac8g8gmh4qf3e,18,"[""White""]",No,Male,NA,Yes,591517.3999999985,"[{""page_index"":0,""viewing_time"":3468},{""page_index"":1,""viewing_time"":9991},{""page_index"":2,""viewing_time"":3727},{""page_index"":3,""viewing_time"":6363},{""page_index"":4,""viewing_time"":2897},{""page_index"":5,""viewing_time"":42444},{""page_index"":6,""viewing_time"":1406}]",70296,NA,NA,NA,NA,NA,NA,NA,NA,NA,NA,NA,NA,NA,NA,NA,NA,NA,NA,NA,NA,NA,NA,NA,NA,NA
NA,NA,NA,NA,NA,choice_trial_setup,html-keyboard-response,4,82305,0.0-4.0-0.0,149,1,2025-05-03T21:52:36Z,b60275e29fe2361ab97ac0ac217840d7,"Mozilla/5.0 (Windows NT 10.0; Win64; x64) AppleWebKit/537.36 (KHTML, like Gecko) Chrome/135.0.0.0 Safari/537.36 Edg/135.0.0.0",WebKit,Edge,135.0.0.0,Windows,10,https://5puzkbbxv1.cognition.run/?sona_id=57588,"en-US,en;q=0.9",8vac8g8gmh4qf3e,18,"[""White""]",No,Male,NA,Yes,591517.3999999985,NA,null,<p></p>,null,choice,tdc,trinary,attraction,2,televisions,null,null,null,null,null,null,2,NA,NA,NA,NA,NA,NA,NA,NA,NA,NA
NA,NA,NA,NA,NA,choice_trial,survey-html-form,5,92422,0.0-4.0-1.0,149,1,2025-05-03T21:52:36Z,b60275e29fe2361ab97ac0ac217840d7,"Mozilla/5.0 (Windows NT 10.0; Win64; x64) AppleWebKit/537.36 (KHTML, like Gecko) Chrome/135.0.0.0 Safari/537.36 Edg/135.0.0.0",WebKit,Edge,135.0.0.0,Windows,10,https://5puzkbbxv1.cognition.run/?sona_id=57588,"en-US,en;q=0.9",8vac8g8gmh4qf3e,18,"[""White""]",No,Male,NA,Yes,591517.3999999985,NA,10114,NA,"{""product_choice"":""A""}",choice,tdc,trinary,attraction,2,televisions,null,null,null,null,null,null,2,50,60,40,60,50,60,Screen size,Average lifespan,NA,NA
NA,NA,NA,NA,NA,choice_trial_setup,html-keyboard-response,6,92729,0.0-4.0-0.1,149,1,2025-05-03T21:52:36Z,b60275e29fe2361ab97ac0ac217840d7,"Mozilla/5.0 (Windows NT 10.0; Win64; x64) AppleWebKit/537.36 (KHTML, like Gecko) Chrome/135.0.0.0 Safari/537.36 Edg/135.0.0.0",WebKit,Edge,135.0.0.0,Windows,10,https://5puzkbbxv1.cognition.run/?sona_id=57588,"en-US,en;q=0.9",8vac8g8gmh4qf3e,18,"[""White""]",No,Male,NA,Yes,591517.3999999985,NA,null,<p></p>,null,choice,wb,binary,catch,null,televisions,60,85,40,10,null,null,1,NA,NA,NA,NA,NA,NA,NA,NA,NA,NA
NA,NA,NA,NA,NA,choice_trial,survey-html-form,7,104605,0.0-4.0-1.1,149,1,2025-05-03T21:52:36Z,b60275e29fe2361ab97ac0ac217840d7,"Mozilla/5.0 (Windows NT 10.0; Win64; x64) AppleWebKit/537.36 (KHTML, like Gecko) Chrome/135.0.0.0 Safari/537.36 Edg/135.0.0.0",WebKit,Edge,135.0.0.0,Windows,10,https://5puzkbbxv1.cognition.run/?sona_id=57588,"en-US,en;q=0.9",8vac8g8gmh4qf3e,18,"[""White""]",No,Male,NA,Yes,591517.3999999985,NA,11873,NA,"{""product_choice"":""B""}",choice,wb,binary,catch,null,televisions,60,85,40,10,null,null,1,null,null,null,null,null,null,Screen size,Average lifespan,NA,NA
NA,NA,NA,NA,NA,choice_trial_setup,html-keyboard-response,8,104914,0.0-4.0-0.2,149,1,2025-05-03T21:52:36Z,b60275e29fe2361ab97ac0ac217840d7,"Mozilla/5.0 (Windows NT 10.0; Win64; x64) AppleWebKit/537.36 (KHTML, like Gecko) Chrome/135.0.0.0 Safari/537.36 Edg/135.0.0.0",WebKit,Edge,135.0.0.0,Windows,10,https://5puzkbbxv1.cognition.run/?sona_id=57588,"en-US,en;q=0.9",8vac8g8gmh4qf3e,18,"[""White""]",No,Male,NA,Yes,591517.3999999985,NA,null,<p></p>,null,choice,tcd,trinary,attraction,2,laptops,null,null,null,null,null,null,1,NA,NA,NA,NA,NA,NA,NA,NA,NA,NA
NA,NA,NA,NA,NA,choice_trial,survey-html-form,9,114172,0.0-4.0-1.2,149,1,2025-05-03T21:52:36Z,b60275e29fe2361ab97ac0ac217840d7,"Mozilla/5.0 (Windows NT 10.0; Win64; x64) AppleWebKit/537.36 (KHTML, like Gecko) Chrome/135.0.0.0 Safari/537.36 Edg/135.0.0.0",WebKit,Edge,135.0.0.0,Windows,10,https://5puzkbbxv1.cognition.run/?sona_id=57588,"en-US,en;q=0.9",8vac8g8gmh4qf3e,18,"[""White""]",No,Male,NA,Yes,591517.3999999985,NA,9257,NA,"{""product_choice"":""B""}",choice,tcd,trinary,attraction,2,laptops,null,null,null,null,null,null,1,50,60,40,60,50,60,Processing speed,Memory (RAM),NA,NA
NA,NA,NA,NA,NA,choice_trial_setup,html-keyboard-response,10,114481,0.0-4.0-0.3,149,1,2025-05-03T21:52:36Z,b60275e29fe2361ab97ac0ac217840d7,"Mozilla/5.0 (Windows NT 10.0; Win64; x64) AppleWebKit/537.36 (KHTML, like Gecko) Chrome/135.0.0.0 Safari/537.36 Edg/135.0.0.0",WebKit,Edge,135.0.0.0,Windows,10,https://5puzkbbxv1.cognition.run/?sona_id=57588,"en-US,en;q=0.9",8vac8g8gmh4qf3e,18,"[""White""]",No,Male,NA,Yes,591517.3999999985,NA,null,<p></p>,null,choice,wwb,trinary,catch,null,televisions,70,55,45,30,45,20,2,NA,NA,NA,NA,NA,NA,NA,NA,NA,NA
NA,NA,NA,NA,NA,choice_trial,survey-html-form,11,124968,0.0-4.0-1.3,149,1,2025-05-03T21:52:36Z,b60275e29fe2361ab97ac0ac217840d7,"Mozilla/5.0 (Windows NT 10.0; Win64; x64) AppleWebKit/537.36 (KHTML, like Gecko) Chrome/135.0.0.0 Safari/537.36 Edg/135.0.0.0",WebKit,Edge,135.0.0.0,Windows,10,https://5puzkbbxv1.cognition.run/?sona_id=57588,"en-US,en;q=0.9",8vac8g8gmh4qf3e,18,"[""White""]",No,Male,NA,Yes,591517.3999999985,NA,10483,NA,"{""product_choice"":""C""}",choice,wwb,trinary,catch,null,televisions,70,55,45,30,45,20,2,null,null,null,null,null,null,Screen size,Average lifespan,NA,NA
NA,NA,NA,NA,NA,choice_trial_setup,html-keyboard-response,12,125279,0.0-4.0-0.4,149,1,2025-05-03T21:52:36Z,b60275e29fe2361ab97ac0ac217840d7,"Mozilla/5.0 (Windows NT 10.0; Win64; x64) AppleWebKit/537.36 (KHTML, like Gecko) Chrome/135.0.0.0 Safari/537.36 Edg/135.0.0.0",WebKit,Edge,135.0.0.0,Windows,10,https://5puzkbbxv1.cognition.run/?sona_id=57588,"en-US,en;q=0.9",8vac8g8gmh4qf3e,18,"[""White""]",No,Male,NA,Yes,591517.3999999985,NA,null,<p></p>,null,choice,ct,binary,repulsion,1,televisions,null,null,null,null,null,null,2,NA,NA,NA,NA,NA,NA,NA,NA,NA,NA
NA,NA,NA,NA,NA,choice_trial,survey-html-form,13,130404,0.0-4.0-1.4,149,1,2025-05-03T21:52:36Z,b60275e29fe2361ab97ac0ac217840d7,"Mozilla/5.0 (Windows NT 10.0; Win64; x64) AppleWebKit/537.36 (KHTML, like Gecko) Chrome/135.0.0.0 Safari/537.36 Edg/135.0.0.0",WebKit,Edge,135.0.0.0,Windows,10,https://5puzkbbxv1.cognition.run/?sona_id=57588,"en-US,en;q=0.9",8vac8g8gmh4qf3e,18,"[""White""]",No,Male,NA,Yes,591517.3999999985,NA,5122,NA,"{""product_choice"":""A""}",choice,ct,binary,repulsion,1,televisions,null,null,null,null,null,null,2,100,90,null,30,40,null,Screen size,Average lifespan,NA,NA
NA,NA,NA,NA,NA,choice_trial_setup,html-keyboard-response,14,130707,0.0-4.0-0.5,149,1,2025-05-03T21:52:36Z,b60275e29fe2361ab97ac0ac217840d7,"Mozilla/5.0 (Windows NT 10.0; Win64; x64) AppleWebKit/537.36 (KHTML, like Gecko) Chrome/135.0.0.0 Safari/537.36 Edg/135.0.0.0",WebKit,Edge,135.0.0.0,Windows,10,https://5puzkbbxv1.cognition.run/?sona_id=57588,"en-US,en;q=0.9",8vac8g8gmh4qf3e,18,"[""White""]",No,Male,NA,Yes,591517.3999999985,NA,null,<p></p>,null,choice,dtc,trinary,attraction,2,microwave ovens,null,null,null,null,null,null,2,NA,NA,NA,NA,NA,NA,NA,NA,NA,NA
NA,NA,NA,NA,NA,choice_trial,survey-html-form,15,135890,0.0-4.0-1.5,149,1,2025-05-03T21:52:36Z,b60275e29fe2361ab97ac0ac217840d7,"Mozilla/5.0 (Windows NT 10.0; Win64; x64) AppleWebKit/537.36 (KHTML, like Gecko) Chrome/135.0.0.0 Safari/537.36 Edg/135.0.0.0",WebKit,Edge,135.0.0.0,Windows,10,https://5puzkbbxv1.cognition.run/?sona_id=57588,"en-US,en;q=0.9",8vac8g8gmh4qf3e,18,"[""White""]",No,Male,NA,Yes,591517.3999999985,NA,5180,NA,"{""product_choice"":""C""}",choice,dtc,trinary,attraction,2,microwave ovens,null,null,null,null,null,null,2,50,60,40,60,50,60,Warranty,Cooking power,NA,NA
NA,NA,NA,NA,NA,choice_trial_setup,html-keyboard-response,16,136197,0.0-4.0-0.6,149,1,2025-05-03T21:52:36Z,b60275e29fe2361ab97ac0ac217840d7,"Mozilla/5.0 (Windows NT 10.0; Win64; x64) AppleWebKit/537.36 (KHTML, like Gecko) Chrome/135.0.0.0 Safari/537.36 Edg/135.0.0.0",WebKit,Edge,135.0.0.0,Windows,10,https://5puzkbbxv1.cognition.run/?sona_id=57588,"en-US,en;q=0.9",8vac8g8gmh4qf3e,18,"[""White""]",No,Male,NA,Yes,591517.3999999985,NA,null,<p></p>,null,choice,cdt,trinary,repulsion_A,1,televisions,null,null,null,null,null,null,1,NA,NA,NA,NA,NA,NA,NA,NA,NA,NA
NA,NA,NA,NA,NA,choice_trial,survey-html-form,17,142369,0.0-4.0-1.6,149,1,2025-05-03T21:52:36Z,b60275e29fe2361ab97ac0ac217840d7,"Mozilla/5.0 (Windows NT 10.0; Win64; x64) AppleWebKit/537.36 (KHTML, like Gecko) Chrome/135.0.0.0 Safari/537.36 Edg/135.0.0.0",WebKit,Edge,135.0.0.0,Windows,10,https://5puzkbbxv1.cognition.run/?sona_id=57588,"en-US,en;q=0.9",8vac8g8gmh4qf3e,18,"[""White""]",No,Male,NA,Yes,591517.3999999985,NA,6170,NA,"{""product_choice"":""A""}",choice,cdt,trinary,repulsion_A,1,televisions,null,null,null,null,null,null,1,100,90,100,30,40,20,Screen size,Average lifespan,NA,NA
NA,NA,NA,NA,NA,choice_trial_setup,html-keyboard-response,18,142678,0.0-4.0-0.7,149,1,2025-05-03T21:52:36Z,b60275e29fe2361ab97ac0ac217840d7,"Mozilla/5.0 (Windows NT 10.0; Win64; x64) AppleWebKit/537.36 (KHTML, like Gecko) Chrome/135.0.0.0 Safari/537.36 Edg/135.0.0.0",WebKit,Edge,135.0.0.0,Windows,10,https://5puzkbbxv1.cognition.run/?sona_id=57588,"en-US,en;q=0.9",8vac8g8gmh4qf3e,18,"[""White""]",No,Male,NA,Yes,591517.3999999985,NA,null,<p></p>,null,choice,bww,trinary,catch,null,washing machines,70,65,15,5,50,25,1,NA,NA,NA,NA,NA,NA,NA,NA,NA,NA
NA,NA,NA,NA,NA,choice_trial,survey-html-form,19,149413,0.0-4.0-1.7,149,1,2025-05-03T21:52:36Z,b60275e29fe2361ab97ac0ac217840d7,"Mozilla/5.0 (Windows NT 10.0; Win64; x64) AppleWebKit/537.36 (KHTML, like Gecko) Chrome/135.0.0.0 Safari/537.36 Edg/135.0.0.0",WebKit,Edge,135.0.0.0,Windows,10,https://5puzkbbxv1.cognition.run/?sona_id=57588,"en-US,en;q=0.9",8vac8g8gmh4qf3e,18,"[""White""]",No,Male,NA,Yes,591517.3999999985,NA,6731,NA,"{""product_choice"":""A""}",choice,bww,trinary,catch,null,washing machines,70,65,15,5,50,25,1,null,null,null,null,null,null,Average lifespan,Energy savings,NA,NA
NA,NA,NA,NA,NA,choice_trial_setup,html-keyboard-response,20,149715,0.0-4.0-0.8,149,1,2025-05-03T21:52:36Z,b60275e29fe2361ab97ac0ac217840d7,"Mozilla/5.0 (Windows NT 10.0; Win64; x64) AppleWebKit/537.36 (KHTML, like Gecko) Chrome/135.0.0.0 Safari/537.36 Edg/135.0.0.0",WebKit,Edge,135.0.0.0,Windows,10,https://5puzkbbxv1.cognition.run/?sona_id=57588,"en-US,en;q=0.9",8vac8g8gmh4qf3e,18,"[""White""]",No,Male,NA,Yes,591517.3999999985,NA,null,<p></p>,null,choice,wwb,trinary,catch,null,microwave ovens,85,80,20,25,30,20,2,NA,NA,NA,NA,NA,NA,NA,NA,NA,NA
NA,NA,NA,NA,NA,choice_trial,survey-html-form,21,153724,0.0-4.0-1.8,149,1,2025-05-03T21:52:36Z,b60275e29fe2361ab97ac0ac217840d7,"Mozilla/5.0 (Windows NT 10.0; Win64; x64) AppleWebKit/537.36 (KHTML, like Gecko) Chrome/135.0.0.0 Safari/537.36 Edg/135.0.0.0",WebKit,Edge,135.0.0.0,Windows,10,https://5puzkbbxv1.cognition.run/?sona_id=57588,"en-US,en;q=0.9",8vac8g8gmh4qf3e,18,"[""White""]",No,Male,NA,Yes,591517.3999999985,NA,4006,NA,"{""product_choice"":""C""}",choice,wwb,trinary,catch,null,microwave ovens,85,80,20,25,30,20,2,null,null,null,null,null,null,Warranty,Cooking power,NA,NA
NA,NA,NA,NA,NA,choice_trial_setup,html-keyboard-response,22,154037,0.0-4.0-0.9,149,1,2025-05-03T21:52:36Z,b60275e29fe2361ab97ac0ac217840d7,"Mozilla/5.0 (Windows NT 10.0; Win64; x64) AppleWebKit/537.36 (KHTML, like Gecko) Chrome/135.0.0.0 Safari/537.36 Edg/135.0.0.0",WebKit,Edge,135.0.0.0,Windows,10,https://5puzkbbxv1.cognition.run/?sona_id=57588,"en-US,en;q=0.9",8vac8g8gmh4qf3e,18,"[""White""]",No,Male,NA,Yes,591517.3999999985,NA,null,<p></p>,null,choice,ct,binary,repulsion,1,laptops,null,null,null,null,null,null,1,NA,NA,NA,NA,NA,NA,NA,NA,NA,NA
NA,NA,NA,NA,NA,choice_trial,survey-html-form,23,158476,0.0-4.0-1.9,149,1,2025-05-03T21:52:36Z,b60275e29fe2361ab97ac0ac217840d7,"Mozilla/5.0 (Windows NT 10.0; Win64; x64) AppleWebKit/537.36 (KHTML, like Gecko) Chrome/135.0.0.0 Safari/537.36 Edg/135.0.0.0",WebKit,Edge,135.0.0.0,Windows,10,https://5puzkbbxv1.cognition.run/?sona_id=57588,"en-US,en;q=0.9",8vac8g8gmh4qf3e,18,"[""White""]",No,Male,NA,Yes,591517.3999999985,NA,4435,NA,"{""product_choice"":""B""}",choice,ct,binary,repulsion,1,laptops,null,null,null,null,null,null,1,100,90,null,30,40,null,Processing speed,Memory (RAM),NA,NA
NA,NA,NA,NA,NA,choice_trial_setup,html-keyboard-response,24,158781,0.0-4.0-0.10,149,1,2025-05-03T21:52:36Z,b60275e29fe2361ab97ac0ac217840d7,"Mozilla/5.0 (Windows NT 10.0; Win64; x64) AppleWebKit/537.36 (KHTML, like Gecko) Chrome/135.0.0.0 Safari/537.36 Edg/135.0.0.0",WebKit,Edge,135.0.0.0,Windows,10,https://5puzkbbxv1.cognition.run/?sona_id=57588,"en-US,en;q=0.9",8vac8g8gmh4qf3e,18,"[""White""]",No,Male,NA,Yes,591517.3999999985,NA,null,<p></p>,null,choice,tcd,trinary,repulsion_A,2,televisions,null,null,null,null,null,null,1,NA,NA,NA,NA,NA,NA,NA,NA,NA,NA
NA,NA,NA,NA,NA,choice_trial,survey-html-form,25,169238,0.0-4.0-1.10,149,1,2025-05-03T21:52:36Z,b60275e29fe2361ab97ac0ac217840d7,"Mozilla/5.0 (Windows NT 10.0; Win64; x64) AppleWebKit/537.36 (KHTML, like Gecko) Chrome/135.0.0.0 Safari/537.36 Edg/135.0.0.0",WebKit,Edge,135.0.0.0,Windows,10,https://5puzkbbxv1.cognition.run/?sona_id=57588,"en-US,en;q=0.9",8vac8g8gmh4qf3e,18,"[""White""]",No,Male,NA,Yes,591517.3999999985,NA,10453,NA,"{""product_choice"":""B""}",choice,tcd,trinary,repulsion_A,2,televisions,null,null,null,null,null,null,1,30,40,20,100,90,100,Screen size,Average lifespan,NA,NA
NA,NA,NA,NA,NA,choice_trial_setup,html-keyboard-response,26,169549,0.0-4.0-0.11,149,1,2025-05-03T21:52:36Z,b60275e29fe2361ab97ac0ac217840d7,"Mozilla/5.0 (Windows NT 10.0; Win64; x64) AppleWebKit/537.36 (KHTML, like Gecko) Chrome/135.0.0.0 Safari/537.36 Edg/135.0.0.0",WebKit,Edge,135.0.0.0,Windows,10,https://5puzkbbxv1.cognition.run/?sona_id=57588,"en-US,en;q=0.9",8vac8g8gmh4qf3e,18,"[""White""]",No,Male,NA,Yes,591517.3999999985,NA,null,<p></p>,null,choice,tdc,trinary,repulsion_A,2,laptops,null,null,null,null,null,null,2,NA,NA,NA,NA,NA,NA,NA,NA,NA,NA
NA,NA,NA,NA,NA,choice_trial,survey-html-form,27,177659,0.0-4.0-1.11,149,1,2025-05-03T21:52:36Z,b60275e29fe2361ab97ac0ac217840d7,"Mozilla/5.0 (Windows NT 10.0; Win64; x64) AppleWebKit/537.36 (KHTML, like Gecko) Chrome/135.0.0.0 Safari/537.36 Edg/135.0.0.0",WebKit,Edge,135.0.0.0,Windows,10,https://5puzkbbxv1.cognition.run/?sona_id=57588,"en-US,en;q=0.9",8vac8g8gmh4qf3e,18,"[""White""]",No,Male,NA,Yes,591517.3999999985,NA,8106,NA,"{""product_choice"":""A""}",choice,tdc,trinary,repulsion_A,2,laptops,null,null,null,null,null,null,2,30,40,20,100,90,100,Processing speed,Memory (RAM),NA,NA
NA,NA,NA,NA,NA,choice_trial_setup,html-keyboard-response,28,177965,0.0-4.0-0.12,149,1,2025-05-03T21:52:36Z,b60275e29fe2361ab97ac0ac217840d7,"Mozilla/5.0 (Windows NT 10.0; Win64; x64) AppleWebKit/537.36 (KHTML, like Gecko) Chrome/135.0.0.0 Safari/537.36 Edg/135.0.0.0",WebKit,Edge,135.0.0.0,Windows,10,https://5puzkbbxv1.cognition.run/?sona_id=57588,"en-US,en;q=0.9",8vac8g8gmh4qf3e,18,"[""White""]",No,Male,NA,Yes,591517.3999999985,NA,null,<p></p>,null,choice,ct,binary,repulsion,2,laptops,null,null,null,null,null,null,1,NA,NA,NA,NA,NA,NA,NA,NA,NA,NA
NA,NA,NA,NA,NA,choice_trial,survey-html-form,29,182436,0.0-4.0-1.12,149,1,2025-05-03T21:52:36Z,b60275e29fe2361ab97ac0ac217840d7,"Mozilla/5.0 (Windows NT 10.0; Win64; x64) AppleWebKit/537.36 (KHTML, like Gecko) Chrome/135.0.0.0 Safari/537.36 Edg/135.0.0.0",WebKit,Edge,135.0.0.0,Windows,10,https://5puzkbbxv1.cognition.run/?sona_id=57588,"en-US,en;q=0.9",8vac8g8gmh4qf3e,18,"[""White""]",No,Male,NA,Yes,591517.3999999985,NA,4467,NA,"{""product_choice"":""B""}",choice,ct,binary,repulsion,2,laptops,null,null,null,null,null,null,1,30,40,null,100,90,null,Processing speed,Memory (RAM),NA,NA
NA,NA,NA,NA,NA,choice_trial_setup,html-keyboard-response,30,182745,0.0-4.0-0.13,149,1,2025-05-03T21:52:36Z,b60275e29fe2361ab97ac0ac217840d7,"Mozilla/5.0 (Windows NT 10.0; Win64; x64) AppleWebKit/537.36 (KHTML, like Gecko) Chrome/135.0.0.0 Safari/537.36 Edg/135.0.0.0",WebKit,Edge,135.0.0.0,Windows,10,https://5puzkbbxv1.cognition.run/?sona_id=57588,"en-US,en;q=0.9",8vac8g8gmh4qf3e,18,"[""White""]",No,Male,NA,Yes,591517.3999999985,NA,null,<p></p>,null,choice,tc,binary,attraction,NA,laptops,null,null,null,null,null,null,2,NA,NA,NA,NA,NA,NA,NA,NA,NA,NA
NA,NA,NA,NA,NA,choice_trial,survey-html-form,31,185106,0.0-4.0-1.13,149,1,2025-05-03T21:52:36Z,b60275e29fe2361ab97ac0ac217840d7,"Mozilla/5.0 (Windows NT 10.0; Win64; x64) AppleWebKit/537.36 (KHTML, like Gecko) Chrome/135.0.0.0 Safari/537.36 Edg/135.0.0.0",WebKit,Edge,135.0.0.0,Windows,10,https://5puzkbbxv1.cognition.run/?sona_id=57588,"en-US,en;q=0.9",8vac8g8gmh4qf3e,18,"[""White""]",No,Male,NA,Yes,591517.3999999985,NA,2358,NA,"{""product_choice"":""A""}",choice,tc,binary,attraction,NA,laptops,null,null,null,null,null,null,2,60,50,null,50,60,null,Processing speed,Memory (RAM),NA,NA
NA,NA,NA,NA,NA,choice_trial_setup,html-keyboard-response,32,185408,0.0-4.0-0.14,149,1,2025-05-03T21:52:36Z,b60275e29fe2361ab97ac0ac217840d7,"Mozilla/5.0 (Windows NT 10.0; Win64; x64) AppleWebKit/537.36 (KHTML, like Gecko) Chrome/135.0.0.0 Safari/537.36 Edg/135.0.0.0",WebKit,Edge,135.0.0.0,Windows,10,https://5puzkbbxv1.cognition.run/?sona_id=57588,"en-US,en;q=0.9",8vac8g8gmh4qf3e,18,"[""White""]",No,Male,NA,Yes,591517.3999999985,NA,null,<p></p>,null,choice,ct,binary,repulsion,2,televisions,null,null,null,null,null,null,1,NA,NA,NA,NA,NA,NA,NA,NA,NA,NA
NA,NA,NA,NA,NA,choice_trial,survey-html-form,33,189000,0.0-4.0-1.14,149,1,2025-05-03T21:52:36Z,b60275e29fe2361ab97ac0ac217840d7,"Mozilla/5.0 (Windows NT 10.0; Win64; x64) AppleWebKit/537.36 (KHTML, like Gecko) Chrome/135.0.0.0 Safari/537.36 Edg/135.0.0.0",WebKit,Edge,135.0.0.0,Windows,10,https://5puzkbbxv1.cognition.run/?sona_id=57588,"en-US,en;q=0.9",8vac8g8gmh4qf3e,18,"[""White""]",No,Male,NA,Yes,591517.3999999985,NA,3588,NA,"{""product_choice"":""A""}",choice,ct,binary,repulsion,2,televisions,null,null,null,null,null,null,1,30,40,null,100,90,null,Screen size,Average lifespan,NA,NA
NA,NA,NA,NA,NA,choice_trial_setup,html-keyboard-response,34,189303,0.0-4.0-0.15,149,1,2025-05-03T21:52:36Z,b60275e29fe2361ab97ac0ac217840d7,"Mozilla/5.0 (Windows NT 10.0; Win64; x64) AppleWebKit/537.36 (KHTML, like Gecko) Chrome/135.0.0.0 Safari/537.36 Edg/135.0.0.0",WebKit,Edge,135.0.0.0,Windows,10,https://5puzkbbxv1.cognition.run/?sona_id=57588,"en-US,en;q=0.9",8vac8g8gmh4qf3e,18,"[""White""]",No,Male,NA,Yes,591517.3999999985,NA,null,<p></p>,null,choice,ctd,trinary,attraction,1,microwave ovens,null,null,null,null,null,null,1,NA,NA,NA,NA,NA,NA,NA,NA,NA,NA
NA,NA,NA,NA,NA,choice_trial,survey-html-form,35,195627,0.0-4.0-1.15,149,1,2025-05-03T21:52:36Z,b60275e29fe2361ab97ac0ac217840d7,"Mozilla/5.0 (Windows NT 10.0; Win64; x64) AppleWebKit/537.36 (KHTML, like Gecko) Chrome/135.0.0.0 Safari/537.36 Edg/135.0.0.0",WebKit,Edge,135.0.0.0,Windows,10,https://5puzkbbxv1.cognition.run/?sona_id=57588,"en-US,en;q=0.9",8vac8g8gmh4qf3e,18,"[""White""]",No,Male,NA,Yes,591517.3999999985,NA,6320,NA,"{""product_choice"":""B""}",choice,ctd,trinary,attraction,1,microwave ovens,null,null,null,null,null,null,1,60,50,60,50,60,40,Warranty,Cooking power,NA,NA
NA,NA,NA,NA,NA,choice_trial_setup,html-keyboard-response,36,195943,0.0-4.0-0.16,149,1,2025-05-03T21:52:36Z,b60275e29fe2361ab97ac0ac217840d7,"Mozilla/5.0 (Windows NT 10.0; Win64; x64) AppleWebKit/537.36 (KHTML, like Gecko) Chrome/135.0.0.0 Safari/537.36 Edg/135.0.0.0",WebKit,Edge,135.0.0.0,Windows,10,https://5puzkbbxv1.cognition.run/?sona_id=57588,"en-US,en;q=0.9",8vac8g8gmh4qf3e,18,"[""White""]",No,Male,NA,Yes,591517.3999999985,NA,null,<p></p>,null,choice,ct,binary,repulsion,2,microwave ovens,null,null,null,null,null,null,1,NA,NA,NA,NA,NA,NA,NA,NA,NA,NA
NA,NA,NA,NA,NA,choice_trial,survey-html-form,37,200294,0.0-4.0-1.16,149,1,2025-05-03T21:52:36Z,b60275e29fe2361ab97ac0ac217840d7,"Mozilla/5.0 (Windows NT 10.0; Win64; x64) AppleWebKit/537.36 (KHTML, like Gecko) Chrome/135.0.0.0 Safari/537.36 Edg/135.0.0.0",WebKit,Edge,135.0.0.0,Windows,10,https://5puzkbbxv1.cognition.run/?sona_id=57588,"en-US,en;q=0.9",8vac8g8gmh4qf3e,18,"[""White""]",No,Male,NA,Yes,591517.3999999985,NA,4348,NA,"{""product_choice"":""A""}",choice,ct,binary,repulsion,2,microwave ovens,null,null,null,null,null,null,1,30,40,null,100,90,null,Warranty,Cooking power,NA,NA
NA,NA,NA,NA,NA,choice_trial_setup,html-keyboard-response,38,200606,0.0-4.0-0.17,149,1,2025-05-03T21:52:36Z,b60275e29fe2361ab97ac0ac217840d7,"Mozilla/5.0 (Windows NT 10.0; Win64; x64) AppleWebKit/537.36 (KHTML, like Gecko) Chrome/135.0.0.0 Safari/537.36 Edg/135.0.0.0",WebKit,Edge,135.0.0.0,Windows,10,https://5puzkbbxv1.cognition.run/?sona_id=57588,"en-US,en;q=0.9",8vac8g8gmh4qf3e,18,"[""White""]",No,Male,NA,Yes,591517.3999999985,NA,null,<p></p>,null,choice,tdc,trinary,attraction,1,washing machines,null,null,null,null,null,null,1,NA,NA,NA,NA,NA,NA,NA,NA,NA,NA
NA,NA,NA,NA,NA,choice_trial,survey-html-form,39,209350,0.0-4.0-1.17,149,1,2025-05-03T21:52:36Z,b60275e29fe2361ab97ac0ac217840d7,"Mozilla/5.0 (Windows NT 10.0; Win64; x64) AppleWebKit/537.36 (KHTML, like Gecko) Chrome/135.0.0.0 Safari/537.36 Edg/135.0.0.0",WebKit,Edge,135.0.0.0,Windows,10,https://5puzkbbxv1.cognition.run/?sona_id=57588,"en-US,en;q=0.9",8vac8g8gmh4qf3e,18,"[""White""]",No,Male,NA,Yes,591517.3999999985,NA,8741,NA,"{""product_choice"":""A""}",choice,tdc,trinary,attraction,1,washing machines,null,null,null,null,null,null,1,60,50,60,50,60,40,Average lifespan,Energy savings,NA,NA
NA,NA,NA,NA,NA,choice_trial_setup,html-keyboard-response,40,209657,0.0-4.0-0.18,149,1,2025-05-03T21:52:36Z,b60275e29fe2361ab97ac0ac217840d7,"Mozilla/5.0 (Windows NT 10.0; Win64; x64) AppleWebKit/537.36 (KHTML, like Gecko) Chrome/135.0.0.0 Safari/537.36 Edg/135.0.0.0",WebKit,Edge,135.0.0.0,Windows,10,https://5puzkbbxv1.cognition.run/?sona_id=57588,"en-US,en;q=0.9",8vac8g8gmh4qf3e,18,"[""White""]",No,Male,NA,Yes,591517.3999999985,NA,null,<p></p>,null,choice,tdc,trinary,repulsion_A,1,laptops,null,null,null,null,null,null,2,NA,NA,NA,NA,NA,NA,NA,NA,NA,NA
NA,NA,NA,NA,NA,choice_trial,survey-html-form,41,215145,0.0-4.0-1.18,149,1,2025-05-03T21:52:36Z,b60275e29fe2361ab97ac0ac217840d7,"Mozilla/5.0 (Windows NT 10.0; Win64; x64) AppleWebKit/537.36 (KHTML, like Gecko) Chrome/135.0.0.0 Safari/537.36 Edg/135.0.0.0",WebKit,Edge,135.0.0.0,Windows,10,https://5puzkbbxv1.cognition.run/?sona_id=57588,"en-US,en;q=0.9",8vac8g8gmh4qf3e,18,"[""White""]",No,Male,NA,Yes,591517.3999999985,NA,5485,NA,"{""product_choice"":""A""}",choice,tdc,trinary,repulsion_A,1,laptops,null,null,null,null,null,null,2,100,90,100,30,40,20,Processing speed,Memory (RAM),NA,NA
NA,NA,NA,NA,NA,choice_trial_setup,html-keyboard-response,42,215462,0.0-4.0-0.19,149,1,2025-05-03T21:52:36Z,b60275e29fe2361ab97ac0ac217840d7,"Mozilla/5.0 (Windows NT 10.0; Win64; x64) AppleWebKit/537.36 (KHTML, like Gecko) Chrome/135.0.0.0 Safari/537.36 Edg/135.0.0.0",WebKit,Edge,135.0.0.0,Windows,10,https://5puzkbbxv1.cognition.run/?sona_id=57588,"en-US,en;q=0.9",8vac8g8gmh4qf3e,18,"[""White""]",No,Male,NA,Yes,591517.3999999985,NA,null,<p></p>,null,choice,dct,trinary,repulsion_B,1,televisions,null,null,null,null,null,null,1,NA,NA,NA,NA,NA,NA,NA,NA,NA,NA
NA,NA,NA,NA,NA,choice_trial,survey-html-form,43,219440,0.0-4.0-1.19,149,1,2025-05-03T21:52:36Z,b60275e29fe2361ab97ac0ac217840d7,"Mozilla/5.0 (Windows NT 10.0; Win64; x64) AppleWebKit/537.36 (KHTML, like Gecko) Chrome/135.0.0.0 Safari/537.36 Edg/135.0.0.0",WebKit,Edge,135.0.0.0,Windows,10,https://5puzkbbxv1.cognition.run/?sona_id=57588,"en-US,en;q=0.9",8vac8g8gmh4qf3e,18,"[""White""]",No,Male,NA,Yes,591517.3999999985,NA,3974,NA,"{""product_choice"":""C""}",choice,dct,trinary,repulsion_B,1,televisions,null,null,null,null,null,null,1,90,100,80,40,30,40,Screen size,Average lifespan,NA,NA
NA,NA,NA,NA,NA,choice_trial_setup,html-keyboard-response,44,219746,0.0-4.0-0.20,149,1,2025-05-03T21:52:36Z,b60275e29fe2361ab97ac0ac217840d7,"Mozilla/5.0 (Windows NT 10.0; Win64; x64) AppleWebKit/537.36 (KHTML, like Gecko) Chrome/135.0.0.0 Safari/537.36 Edg/135.0.0.0",WebKit,Edge,135.0.0.0,Windows,10,https://5puzkbbxv1.cognition.run/?sona_id=57588,"en-US,en;q=0.9",8vac8g8gmh4qf3e,18,"[""White""]",No,Male,NA,Yes,591517.3999999985,NA,null,<p></p>,null,choice,tc,binary,repulsion,2,washing machines,null,null,null,null,null,null,1,NA,NA,NA,NA,NA,NA,NA,NA,NA,NA
NA,NA,NA,NA,NA,choice_trial,survey-html-form,45,224464,0.0-4.0-1.20,149,1,2025-05-03T21:52:36Z,b60275e29fe2361ab97ac0ac217840d7,"Mozilla/5.0 (Windows NT 10.0; Win64; x64) AppleWebKit/537.36 (KHTML, like Gecko) Chrome/135.0.0.0 Safari/537.36 Edg/135.0.0.0",WebKit,Edge,135.0.0.0,Windows,10,https://5puzkbbxv1.cognition.run/?sona_id=57588,"en-US,en;q=0.9",8vac8g8gmh4qf3e,18,"[""White""]",No,Male,NA,Yes,591517.3999999985,NA,4715,NA,"{""product_choice"":""A""}",choice,tc,binary,repulsion,2,washing machines,null,null,null,null,null,null,1,30,40,null,100,90,null,Average lifespan,Energy savings,NA,NA
NA,NA,NA,NA,NA,choice_trial_setup,html-keyboard-response,46,224769,0.0-4.0-0.21,149,1,2025-05-03T21:52:36Z,b60275e29fe2361ab97ac0ac217840d7,"Mozilla/5.0 (Windows NT 10.0; Win64; x64) AppleWebKit/537.36 (KHTML, like Gecko) Chrome/135.0.0.0 Safari/537.36 Edg/135.0.0.0",WebKit,Edge,135.0.0.0,Windows,10,https://5puzkbbxv1.cognition.run/?sona_id=57588,"en-US,en;q=0.9",8vac8g8gmh4qf3e,18,"[""White""]",No,Male,NA,Yes,591517.3999999985,NA,null,<p></p>,null,choice,ct,binary,attraction,NA,televisions,null,null,null,null,null,null,1,NA,NA,NA,NA,NA,NA,NA,NA,NA,NA
NA,NA,NA,NA,NA,choice_trial,survey-html-form,47,229793,0.0-4.0-1.21,149,1,2025-05-03T21:52:36Z,b60275e29fe2361ab97ac0ac217840d7,"Mozilla/5.0 (Windows NT 10.0; Win64; x64) AppleWebKit/537.36 (KHTML, like Gecko) Chrome/135.0.0.0 Safari/537.36 Edg/135.0.0.0",WebKit,Edge,135.0.0.0,Windows,10,https://5puzkbbxv1.cognition.run/?sona_id=57588,"en-US,en;q=0.9",8vac8g8gmh4qf3e,18,"[""White""]",No,Male,NA,Yes,591517.3999999985,NA,5020,NA,"{""product_choice"":""A""}",choice,ct,binary,attraction,NA,televisions,null,null,null,null,null,null,1,60,50,null,50,60,null,Screen size,Average lifespan,NA,NA
NA,NA,NA,NA,NA,choice_trial_setup,html-keyboard-response,48,230108,0.0-4.0-0.22,149,1,2025-05-03T21:52:36Z,b60275e29fe2361ab97ac0ac217840d7,"Mozilla/5.0 (Windows NT 10.0; Win64; x64) AppleWebKit/537.36 (KHTML, like Gecko) Chrome/135.0.0.0 Safari/537.36 Edg/135.0.0.0",WebKit,Edge,135.0.0.0,Windows,10,https://5puzkbbxv1.cognition.run/?sona_id=57588,"en-US,en;q=0.9",8vac8g8gmh4qf3e,18,"[""White""]",No,Male,NA,Yes,591517.3999999985,NA,null,<p></p>,null,choice,wbw,trinary,catch,null,laptops,85,80,50,25,10,10,2,NA,NA,NA,NA,NA,NA,NA,NA,NA,NA
NA,NA,NA,NA,NA,choice_trial,survey-html-form,49,245132,0.0-4.0-1.22,149,1,2025-05-03T21:52:36Z,b60275e29fe2361ab97ac0ac217840d7,"Mozilla/5.0 (Windows NT 10.0; Win64; x64) AppleWebKit/537.36 (KHTML, like Gecko) Chrome/135.0.0.0 Safari/537.36 Edg/135.0.0.0",WebKit,Edge,135.0.0.0,Windows,10,https://5puzkbbxv1.cognition.run/?sona_id=57588,"en-US,en;q=0.9",8vac8g8gmh4qf3e,18,"[""White""]",No,Male,NA,Yes,591517.3999999985,NA,15018,NA,"{""product_choice"":""B""}",choice,wbw,trinary,catch,null,laptops,85,80,50,25,10,10,2,null,null,null,null,null,null,Processing speed,Memory (RAM),NA,NA
NA,NA,NA,NA,NA,choice_trial_setup,html-keyboard-response,50,245437,0.0-4.0-0.23,149,1,2025-05-03T21:52:36Z,b60275e29fe2361ab97ac0ac217840d7,"Mozilla/5.0 (Windows NT 10.0; Win64; x64) AppleWebKit/537.36 (KHTML, like Gecko) Chrome/135.0.0.0 Safari/537.36 Edg/135.0.0.0",WebKit,Edge,135.0.0.0,Windows,10,https://5puzkbbxv1.cognition.run/?sona_id=57588,"en-US,en;q=0.9",8vac8g8gmh4qf3e,18,"[""White""]",No,Male,NA,Yes,591517.3999999985,NA,null,<p></p>,null,choice,cdt,trinary,repulsion_A,2,microwave ovens,null,null,null,null,null,null,2,NA,NA,NA,NA,NA,NA,NA,NA,NA,NA
NA,NA,NA,NA,NA,choice_trial,survey-html-form,51,252656,0.0-4.0-1.23,149,1,2025-05-03T21:52:36Z,b60275e29fe2361ab97ac0ac217840d7,"Mozilla/5.0 (Windows NT 10.0; Win64; x64) AppleWebKit/537.36 (KHTML, like Gecko) Chrome/135.0.0.0 Safari/537.36 Edg/135.0.0.0",WebKit,Edge,135.0.0.0,Windows,10,https://5puzkbbxv1.cognition.run/?sona_id=57588,"en-US,en;q=0.9",8vac8g8gmh4qf3e,18,"[""White""]",No,Male,NA,Yes,591517.3999999985,NA,7215,NA,"{""product_choice"":""A""}",choice,cdt,trinary,repulsion_A,2,microwave ovens,null,null,null,null,null,null,2,30,40,20,100,90,100,Warranty,Cooking power,NA,NA
NA,NA,NA,NA,NA,choice_trial_setup,html-keyboard-response,52,252971,0.0-4.0-0.24,149,1,2025-05-03T21:52:36Z,b60275e29fe2361ab97ac0ac217840d7,"Mozilla/5.0 (Windows NT 10.0; Win64; x64) AppleWebKit/537.36 (KHTML, like Gecko) Chrome/135.0.0.0 Safari/537.36 Edg/135.0.0.0",WebKit,Edge,135.0.0.0,Windows,10,https://5puzkbbxv1.cognition.run/?sona_id=57588,"en-US,en;q=0.9",8vac8g8gmh4qf3e,18,"[""White""]",No,Male,NA,Yes,591517.3999999985,NA,null,<p></p>,null,choice,cdt,trinary,attraction,1,televisions,null,null,null,null,null,null,1,NA,NA,NA,NA,NA,NA,NA,NA,NA,NA
NA,NA,NA,NA,NA,choice_trial,survey-html-form,53,257016,0.0-4.0-1.24,149,1,2025-05-03T21:52:36Z,b60275e29fe2361ab97ac0ac217840d7,"Mozilla/5.0 (Windows NT 10.0; Win64; x64) AppleWebKit/537.36 (KHTML, like Gecko) Chrome/135.0.0.0 Safari/537.36 Edg/135.0.0.0",WebKit,Edge,135.0.0.0,Windows,10,https://5puzkbbxv1.cognition.run/?sona_id=57588,"en-US,en;q=0.9",8vac8g8gmh4qf3e,18,"[""White""]",No,Male,NA,Yes,591517.3999999985,NA,4040,NA,"{""product_choice"":""A""}",choice,cdt,trinary,attraction,1,televisions,null,null,null,null,null,null,1,60,50,60,50,60,40,Screen size,Average lifespan,NA,NA
NA,NA,NA,NA,NA,choice_trial_setup,html-keyboard-response,54,257325,0.0-4.0-0.25,149,1,2025-05-03T21:52:36Z,b60275e29fe2361ab97ac0ac217840d7,"Mozilla/5.0 (Windows NT 10.0; Win64; x64) AppleWebKit/537.36 (KHTML, like Gecko) Chrome/135.0.0.0 Safari/537.36 Edg/135.0.0.0",WebKit,Edge,135.0.0.0,Windows,10,https://5puzkbbxv1.cognition.run/?sona_id=57588,"en-US,en;q=0.9",8vac8g8gmh4qf3e,18,"[""White""]",No,Male,NA,Yes,591517.3999999985,NA,null,<p></p>,null,choice,wb,binary,catch,null,microwave ovens,55,50,50,50,null,null,2,NA,NA,NA,NA,NA,NA,NA,NA,NA,NA
NA,NA,NA,NA,NA,choice_trial,survey-html-form,55,271374,0.0-4.0-1.25,149,1,2025-05-03T21:52:36Z,b60275e29fe2361ab97ac0ac217840d7,"Mozilla/5.0 (Windows NT 10.0; Win64; x64) AppleWebKit/537.36 (KHTML, like Gecko) Chrome/135.0.0.0 Safari/537.36 Edg/135.0.0.0",WebKit,Edge,135.0.0.0,Windows,10,https://5puzkbbxv1.cognition.run/?sona_id=57588,"en-US,en;q=0.9",8vac8g8gmh4qf3e,18,"[""White""]",No,Male,NA,Yes,591517.3999999985,NA,14045,NA,"{""product_choice"":""B""}",choice,wb,binary,catch,null,microwave ovens,55,50,50,50,null,null,2,null,null,null,null,null,null,Warranty,Cooking power,NA,NA
NA,NA,NA,NA,NA,choice_trial_setup,html-keyboard-response,56,271687,0.0-4.0-0.26,149,1,2025-05-03T21:52:36Z,b60275e29fe2361ab97ac0ac217840d7,"Mozilla/5.0 (Windows NT 10.0; Win64; x64) AppleWebKit/537.36 (KHTML, like Gecko) Chrome/135.0.0.0 Safari/537.36 Edg/135.0.0.0",WebKit,Edge,135.0.0.0,Windows,10,https://5puzkbbxv1.cognition.run/?sona_id=57588,"en-US,en;q=0.9",8vac8g8gmh4qf3e,18,"[""White""]",No,Male,NA,Yes,591517.3999999985,NA,null,<p></p>,null,choice,tdc,trinary,repulsion_B,2,laptops,null,null,null,null,null,null,1,NA,NA,NA,NA,NA,NA,NA,NA,NA,NA
NA,NA,NA,NA,NA,choice_trial,survey-html-form,57,274891,0.0-4.0-1.26,149,1,2025-05-03T21:52:36Z,b60275e29fe2361ab97ac0ac217840d7,"Mozilla/5.0 (Windows NT 10.0; Win64; x64) AppleWebKit/537.36 (KHTML, like Gecko) Chrome/135.0.0.0 Safari/537.36 Edg/135.0.0.0",WebKit,Edge,135.0.0.0,Windows,10,https://5puzkbbxv1.cognition.run/?sona_id=57588,"en-US,en;q=0.9",8vac8g8gmh4qf3e,18,"[""White""]",No,Male,NA,Yes,591517.3999999985,NA,3200,NA,"{""product_choice"":""A""}",choice,tdc,trinary,repulsion_B,2,laptops,null,null,null,null,null,null,1,40,30,40,90,100,80,Processing speed,Memory (RAM),NA,NA
NA,NA,NA,NA,NA,choice_trial_setup,html-keyboard-response,58,275193,0.0-4.0-0.27,149,1,2025-05-03T21:52:36Z,b60275e29fe2361ab97ac0ac217840d7,"Mozilla/5.0 (Windows NT 10.0; Win64; x64) AppleWebKit/537.36 (KHTML, like Gecko) Chrome/135.0.0.0 Safari/537.36 Edg/135.0.0.0",WebKit,Edge,135.0.0.0,Windows,10,https://5puzkbbxv1.cognition.run/?sona_id=57588,"en-US,en;q=0.9",8vac8g8gmh4qf3e,18,"[""White""]",No,Male,NA,Yes,591517.3999999985,NA,null,<p></p>,null,choice,tc,binary,attraction,NA,washing machines,null,null,null,null,null,null,2,NA,NA,NA,NA,NA,NA,NA,NA,NA,NA
NA,NA,NA,NA,NA,choice_trial,survey-html-form,59,276806,0.0-4.0-1.27,149,1,2025-05-03T21:52:36Z,b60275e29fe2361ab97ac0ac217840d7,"Mozilla/5.0 (Windows NT 10.0; Win64; x64) AppleWebKit/537.36 (KHTML, like Gecko) Chrome/135.0.0.0 Safari/537.36 Edg/135.0.0.0",WebKit,Edge,135.0.0.0,Windows,10,https://5puzkbbxv1.cognition.run/?sona_id=57588,"en-US,en;q=0.9",8vac8g8gmh4qf3e,18,"[""White""]",No,Male,NA,Yes,591517.3999999985,NA,1608,NA,"{""product_choice"":""A""}",choice,tc,binary,attraction,NA,washing machines,null,null,null,null,null,null,2,60,50,null,50,60,null,Average lifespan,Energy savings,NA,NA
NA,NA,NA,NA,NA,choice_trial_setup,html-keyboard-response,60,277108,0.0-4.0-0.28,149,1,2025-05-03T21:52:36Z,b60275e29fe2361ab97ac0ac217840d7,"Mozilla/5.0 (Windows NT 10.0; Win64; x64) AppleWebKit/537.36 (KHTML, like Gecko) Chrome/135.0.0.0 Safari/537.36 Edg/135.0.0.0",WebKit,Edge,135.0.0.0,Windows,10,https://5puzkbbxv1.cognition.run/?sona_id=57588,"en-US,en;q=0.9",8vac8g8gmh4qf3e,18,"[""White""]",No,Male,NA,Yes,591517.3999999985,NA,null,<p></p>,null,choice,tcd,trinary,repulsion_B,2,washing machines,null,null,null,null,null,null,2,NA,NA,NA,NA,NA,NA,NA,NA,NA,NA
NA,NA,NA,NA,NA,choice_trial,survey-html-form,61,288154,0.0-4.0-1.28,149,1,2025-05-03T21:52:36Z,b60275e29fe2361ab97ac0ac217840d7,"Mozilla/5.0 (Windows NT 10.0; Win64; x64) AppleWebKit/537.36 (KHTML, like Gecko) Chrome/135.0.0.0 Safari/537.36 Edg/135.0.0.0",WebKit,Edge,135.0.0.0,Windows,10,https://5puzkbbxv1.cognition.run/?sona_id=57588,"en-US,en;q=0.9",8vac8g8gmh4qf3e,18,"[""White""]",No,Male,NA,Yes,591517.3999999985,NA,11042,NA,"{""product_choice"":""B""}",choice,tcd,trinary,repulsion_B,2,washing machines,null,null,null,null,null,null,2,40,30,40,90,100,80,Average lifespan,Energy savings,NA,NA
NA,NA,NA,NA,NA,choice_trial_setup,html-keyboard-response,62,288459,0.0-4.0-0.29,149,1,2025-05-03T21:52:36Z,b60275e29fe2361ab97ac0ac217840d7,"Mozilla/5.0 (Windows NT 10.0; Win64; x64) AppleWebKit/537.36 (KHTML, like Gecko) Chrome/135.0.0.0 Safari/537.36 Edg/135.0.0.0",WebKit,Edge,135.0.0.0,Windows,10,https://5puzkbbxv1.cognition.run/?sona_id=57588,"en-US,en;q=0.9",8vac8g8gmh4qf3e,18,"[""White""]",No,Male,NA,Yes,591517.3999999985,NA,null,<p></p>,null,choice,ctd,trinary,repulsion_B,2,televisions,null,null,null,null,null,null,1,NA,NA,NA,NA,NA,NA,NA,NA,NA,NA
NA,NA,NA,NA,NA,choice_trial,survey-html-form,63,290737,0.0-4.0-1.29,149,1,2025-05-03T21:52:36Z,b60275e29fe2361ab97ac0ac217840d7,"Mozilla/5.0 (Windows NT 10.0; Win64; x64) AppleWebKit/537.36 (KHTML, like Gecko) Chrome/135.0.0.0 Safari/537.36 Edg/135.0.0.0",WebKit,Edge,135.0.0.0,Windows,10,https://5puzkbbxv1.cognition.run/?sona_id=57588,"en-US,en;q=0.9",8vac8g8gmh4qf3e,18,"[""White""]",No,Male,NA,Yes,591517.3999999985,NA,2273,NA,"{""product_choice"":""B""}",choice,ctd,trinary,repulsion_B,2,televisions,null,null,null,null,null,null,1,40,30,40,90,100,80,Screen size,Average lifespan,NA,NA
NA,NA,NA,NA,NA,choice_trial_setup,html-keyboard-response,64,291044,0.0-4.0-0.30,149,1,2025-05-03T21:52:36Z,b60275e29fe2361ab97ac0ac217840d7,"Mozilla/5.0 (Windows NT 10.0; Win64; x64) AppleWebKit/537.36 (KHTML, like Gecko) Chrome/135.0.0.0 Safari/537.36 Edg/135.0.0.0",WebKit,Edge,135.0.0.0,Windows,10,https://5puzkbbxv1.cognition.run/?sona_id=57588,"en-US,en;q=0.9",8vac8g8gmh4qf3e,18,"[""White""]",No,Male,NA,Yes,591517.3999999985,NA,null,<p></p>,null,choice,wb,binary,catch,null,washing machines,55,50,30,20,null,null,2,NA,NA,NA,NA,NA,NA,NA,NA,NA,NA
NA,NA,NA,NA,NA,choice_trial,survey-html-form,65,304581,0.0-4.0-1.30,149,1,2025-05-03T21:52:36Z,b60275e29fe2361ab97ac0ac217840d7,"Mozilla/5.0 (Windows NT 10.0; Win64; x64) AppleWebKit/537.36 (KHTML, like Gecko) Chrome/135.0.0.0 Safari/537.36 Edg/135.0.0.0",WebKit,Edge,135.0.0.0,Windows,10,https://5puzkbbxv1.cognition.run/?sona_id=57588,"en-US,en;q=0.9",8vac8g8gmh4qf3e,18,"[""White""]",No,Male,NA,Yes,591517.3999999985,NA,13532,NA,"{""product_choice"":""B""}",choice,wb,binary,catch,null,washing machines,55,50,30,20,null,null,2,null,null,null,null,null,null,Average lifespan,Energy savings,NA,NA
NA,NA,NA,NA,NA,choice_trial_setup,html-keyboard-response,66,304890,0.0-4.0-0.31,149,1,2025-05-03T21:52:36Z,b60275e29fe2361ab97ac0ac217840d7,"Mozilla/5.0 (Windows NT 10.0; Win64; x64) AppleWebKit/537.36 (KHTML, like Gecko) Chrome/135.0.0.0 Safari/537.36 Edg/135.0.0.0",WebKit,Edge,135.0.0.0,Windows,10,https://5puzkbbxv1.cognition.run/?sona_id=57588,"en-US,en;q=0.9",8vac8g8gmh4qf3e,18,"[""White""]",No,Male,NA,Yes,591517.3999999985,NA,null,<p></p>,null,choice,tcd,trinary,repulsion_B,1,microwave ovens,null,null,null,null,null,null,1,NA,NA,NA,NA,NA,NA,NA,NA,NA,NA
NA,NA,NA,NA,NA,choice_trial,survey-html-form,67,308337,0.0-4.0-1.31,149,1,2025-05-03T21:52:36Z,b60275e29fe2361ab97ac0ac217840d7,"Mozilla/5.0 (Windows NT 10.0; Win64; x64) AppleWebKit/537.36 (KHTML, like Gecko) Chrome/135.0.0.0 Safari/537.36 Edg/135.0.0.0",WebKit,Edge,135.0.0.0,Windows,10,https://5puzkbbxv1.cognition.run/?sona_id=57588,"en-US,en;q=0.9",8vac8g8gmh4qf3e,18,"[""White""]",No,Male,NA,Yes,591517.3999999985,NA,3442,NA,"{""product_choice"":""A""}",choice,tcd,trinary,repulsion_B,1,microwave ovens,null,null,null,null,null,null,1,90,100,80,40,30,40,Warranty,Cooking power,NA,NA
NA,NA,NA,NA,NA,choice_trial_setup,html-keyboard-response,68,308651,0.0-4.0-0.32,149,1,2025-05-03T21:52:36Z,b60275e29fe2361ab97ac0ac217840d7,"Mozilla/5.0 (Windows NT 10.0; Win64; x64) AppleWebKit/537.36 (KHTML, like Gecko) Chrome/135.0.0.0 Safari/537.36 Edg/135.0.0.0",WebKit,Edge,135.0.0.0,Windows,10,https://5puzkbbxv1.cognition.run/?sona_id=57588,"en-US,en;q=0.9",8vac8g8gmh4qf3e,18,"[""White""]",No,Male,NA,Yes,591517.3999999985,NA,null,<p></p>,null,choice,ct,binary,repulsion,1,washing machines,null,null,null,null,null,null,2,NA,NA,NA,NA,NA,NA,NA,NA,NA,NA
NA,NA,NA,NA,NA,choice_trial,survey-html-form,69,313791,0.0-4.0-1.32,149,1,2025-05-03T21:52:36Z,b60275e29fe2361ab97ac0ac217840d7,"Mozilla/5.0 (Windows NT 10.0; Win64; x64) AppleWebKit/537.36 (KHTML, like Gecko) Chrome/135.0.0.0 Safari/537.36 Edg/135.0.0.0",WebKit,Edge,135.0.0.0,Windows,10,https://5puzkbbxv1.cognition.run/?sona_id=57588,"en-US,en;q=0.9",8vac8g8gmh4qf3e,18,"[""White""]",No,Male,NA,Yes,591517.3999999985,NA,5134,NA,"{""product_choice"":""A""}",choice,ct,binary,repulsion,1,washing machines,null,null,null,null,null,null,2,100,90,null,30,40,null,Average lifespan,Energy savings,NA,NA
NA,NA,NA,NA,NA,choice_trial_setup,html-keyboard-response,70,314102,0.0-4.0-0.33,149,1,2025-05-03T21:52:36Z,b60275e29fe2361ab97ac0ac217840d7,"Mozilla/5.0 (Windows NT 10.0; Win64; x64) AppleWebKit/537.36 (KHTML, like Gecko) Chrome/135.0.0.0 Safari/537.36 Edg/135.0.0.0",WebKit,Edge,135.0.0.0,Windows,10,https://5puzkbbxv1.cognition.run/?sona_id=57588,"en-US,en;q=0.9",8vac8g8gmh4qf3e,18,"[""White""]",No,Male,NA,Yes,591517.3999999985,NA,null,<p></p>,null,choice,ctd,trinary,repulsion_A,1,microwave ovens,null,null,null,null,null,null,2,NA,NA,NA,NA,NA,NA,NA,NA,NA,NA
NA,NA,NA,NA,NA,choice_trial,survey-html-form,71,316102,0.0-4.0-1.33,149,1,2025-05-03T21:52:36Z,b60275e29fe2361ab97ac0ac217840d7,"Mozilla/5.0 (Windows NT 10.0; Win64; x64) AppleWebKit/537.36 (KHTML, like Gecko) Chrome/135.0.0.0 Safari/537.36 Edg/135.0.0.0",WebKit,Edge,135.0.0.0,Windows,10,https://5puzkbbxv1.cognition.run/?sona_id=57588,"en-US,en;q=0.9",8vac8g8gmh4qf3e,18,"[""White""]",No,Male,NA,Yes,591517.3999999985,NA,1997,NA,"{""product_choice"":""B""}",choice,ctd,trinary,repulsion_A,1,microwave ovens,null,null,null,null,null,null,2,100,90,100,30,40,20,Warranty,Cooking power,NA,NA
NA,NA,NA,NA,NA,choice_trial_setup,html-keyboard-response,72,316408,0.0-4.0-0.34,149,1,2025-05-03T21:52:36Z,b60275e29fe2361ab97ac0ac217840d7,"Mozilla/5.0 (Windows NT 10.0; Win64; x64) AppleWebKit/537.36 (KHTML, like Gecko) Chrome/135.0.0.0 Safari/537.36 Edg/135.0.0.0",WebKit,Edge,135.0.0.0,Windows,10,https://5puzkbbxv1.cognition.run/?sona_id=57588,"en-US,en;q=0.9",8vac8g8gmh4qf3e,18,"[""White""]",No,Male,NA,Yes,591517.3999999985,NA,null,<p></p>,null,choice,ct,binary,attraction,NA,microwave ovens,null,null,null,null,null,null,2,NA,NA,NA,NA,NA,NA,NA,NA,NA,NA
NA,NA,NA,NA,NA,choice_trial,survey-html-form,73,319341,0.0-4.0-1.34,149,1,2025-05-03T21:52:36Z,b60275e29fe2361ab97ac0ac217840d7,"Mozilla/5.0 (Windows NT 10.0; Win64; x64) AppleWebKit/537.36 (KHTML, like Gecko) Chrome/135.0.0.0 Safari/537.36 Edg/135.0.0.0",WebKit,Edge,135.0.0.0,Windows,10,https://5puzkbbxv1.cognition.run/?sona_id=57588,"en-US,en;q=0.9",8vac8g8gmh4qf3e,18,"[""White""]",No,Male,NA,Yes,591517.3999999985,NA,2932,NA,"{""product_choice"":""A""}",choice,ct,binary,attraction,NA,microwave ovens,null,null,null,null,null,null,2,60,50,null,50,60,null,Warranty,Cooking power,NA,NA
NA,NA,NA,NA,NA,choice_trial_setup,html-keyboard-response,74,319652,0.0-4.0-0.35,149,1,2025-05-03T21:52:36Z,b60275e29fe2361ab97ac0ac217840d7,"Mozilla/5.0 (Windows NT 10.0; Win64; x64) AppleWebKit/537.36 (KHTML, like Gecko) Chrome/135.0.0.0 Safari/537.36 Edg/135.0.0.0",WebKit,Edge,135.0.0.0,Windows,10,https://5puzkbbxv1.cognition.run/?sona_id=57588,"en-US,en;q=0.9",8vac8g8gmh4qf3e,18,"[""White""]",No,Male,NA,Yes,591517.3999999985,NA,null,<p></p>,null,choice,tcd,trinary,repulsion_B,1,washing machines,null,null,null,null,null,null,1,NA,NA,NA,NA,NA,NA,NA,NA,NA,NA
NA,NA,NA,NA,NA,choice_trial,survey-html-form,75,321889,0.0-4.0-1.35,149,1,2025-05-03T21:52:36Z,b60275e29fe2361ab97ac0ac217840d7,"Mozilla/5.0 (Windows NT 10.0; Win64; x64) AppleWebKit/537.36 (KHTML, like Gecko) Chrome/135.0.0.0 Safari/537.36 Edg/135.0.0.0",WebKit,Edge,135.0.0.0,Windows,10,https://5puzkbbxv1.cognition.run/?sona_id=57588,"en-US,en;q=0.9",8vac8g8gmh4qf3e,18,"[""White""]",No,Male,NA,Yes,591517.3999999985,NA,2234,NA,"{""product_choice"":""B""}",choice,tcd,trinary,repulsion_B,1,washing machines,null,null,null,null,null,null,1,90,100,80,40,30,40,Average lifespan,Energy savings,NA,NA
NA,NA,NA,NA,NA,choice_trial_setup,html-keyboard-response,76,322202,0.0-4.0-0.36,149,1,2025-05-03T21:52:36Z,b60275e29fe2361ab97ac0ac217840d7,"Mozilla/5.0 (Windows NT 10.0; Win64; x64) AppleWebKit/537.36 (KHTML, like Gecko) Chrome/135.0.0.0 Safari/537.36 Edg/135.0.0.0",WebKit,Edge,135.0.0.0,Windows,10,https://5puzkbbxv1.cognition.run/?sona_id=57588,"en-US,en;q=0.9",8vac8g8gmh4qf3e,18,"[""White""]",No,Male,NA,Yes,591517.3999999985,NA,null,<p></p>,null,choice,dct,trinary,repulsion_B,2,microwave ovens,null,null,null,null,null,null,2,NA,NA,NA,NA,NA,NA,NA,NA,NA,NA
NA,NA,NA,NA,NA,choice_trial,survey-html-form,77,326979,0.0-4.0-1.36,149,1,2025-05-03T21:52:36Z,b60275e29fe2361ab97ac0ac217840d7,"Mozilla/5.0 (Windows NT 10.0; Win64; x64) AppleWebKit/537.36 (KHTML, like Gecko) Chrome/135.0.0.0 Safari/537.36 Edg/135.0.0.0",WebKit,Edge,135.0.0.0,Windows,10,https://5puzkbbxv1.cognition.run/?sona_id=57588,"en-US,en;q=0.9",8vac8g8gmh4qf3e,18,"[""White""]",No,Male,NA,Yes,591517.3999999985,NA,4772,NA,"{""product_choice"":""C""}",choice,dct,trinary,repulsion_B,2,microwave ovens,null,null,null,null,null,null,2,40,30,40,90,100,80,Warranty,Cooking power,NA,NA
NA,NA,NA,NA,NA,choice_trial_setup,html-keyboard-response,78,327287,0.0-4.0-0.37,149,1,2025-05-03T21:52:36Z,b60275e29fe2361ab97ac0ac217840d7,"Mozilla/5.0 (Windows NT 10.0; Win64; x64) AppleWebKit/537.36 (KHTML, like Gecko) Chrome/135.0.0.0 Safari/537.36 Edg/135.0.0.0",WebKit,Edge,135.0.0.0,Windows,10,https://5puzkbbxv1.cognition.run/?sona_id=57588,"en-US,en;q=0.9",8vac8g8gmh4qf3e,18,"[""White""]",No,Male,NA,Yes,591517.3999999985,NA,null,<p></p>,null,choice,tc,binary,repulsion,1,microwave ovens,null,null,null,null,null,null,2,NA,NA,NA,NA,NA,NA,NA,NA,NA,NA
NA,NA,NA,NA,NA,choice_trial,survey-html-form,79,329734,0.0-4.0-1.37,149,1,2025-05-03T21:52:36Z,b60275e29fe2361ab97ac0ac217840d7,"Mozilla/5.0 (Windows NT 10.0; Win64; x64) AppleWebKit/537.36 (KHTML, like Gecko) Chrome/135.0.0.0 Safari/537.36 Edg/135.0.0.0",WebKit,Edge,135.0.0.0,Windows,10,https://5puzkbbxv1.cognition.run/?sona_id=57588,"en-US,en;q=0.9",8vac8g8gmh4qf3e,18,"[""White""]",No,Male,NA,Yes,591517.3999999985,NA,2441,NA,"{""product_choice"":""B""}",choice,tc,binary,repulsion,1,microwave ovens,null,null,null,null,null,null,2,100,90,null,30,40,null,Warranty,Cooking power,NA,NA
NA,NA,NA,NA,NA,choice_trial_setup,html-keyboard-response,80,330036,0.0-4.0-0.38,149,1,2025-05-03T21:52:36Z,b60275e29fe2361ab97ac0ac217840d7,"Mozilla/5.0 (Windows NT 10.0; Win64; x64) AppleWebKit/537.36 (KHTML, like Gecko) Chrome/135.0.0.0 Safari/537.36 Edg/135.0.0.0",WebKit,Edge,135.0.0.0,Windows,10,https://5puzkbbxv1.cognition.run/?sona_id=57588,"en-US,en;q=0.9",8vac8g8gmh4qf3e,18,"[""White""]",No,Male,NA,Yes,591517.3999999985,NA,null,<p></p>,null,choice,dct,trinary,repulsion_A,1,washing machines,null,null,null,null,null,null,2,NA,NA,NA,NA,NA,NA,NA,NA,NA,NA
NA,NA,NA,NA,NA,choice_trial,survey-html-form,81,332861,0.0-4.0-1.38,149,1,2025-05-03T21:52:36Z,b60275e29fe2361ab97ac0ac217840d7,"Mozilla/5.0 (Windows NT 10.0; Win64; x64) AppleWebKit/537.36 (KHTML, like Gecko) Chrome/135.0.0.0 Safari/537.36 Edg/135.0.0.0",WebKit,Edge,135.0.0.0,Windows,10,https://5puzkbbxv1.cognition.run/?sona_id=57588,"en-US,en;q=0.9",8vac8g8gmh4qf3e,18,"[""White""]",No,Male,NA,Yes,591517.3999999985,NA,2819,NA,"{""product_choice"":""B""}",choice,dct,trinary,repulsion_A,1,washing machines,null,null,null,null,null,null,2,100,90,100,30,40,20,Average lifespan,Energy savings,NA,NA
NA,NA,NA,NA,NA,choice_trial_setup,html-keyboard-response,82,333167,0.0-4.0-0.39,149,1,2025-05-03T21:52:36Z,b60275e29fe2361ab97ac0ac217840d7,"Mozilla/5.0 (Windows NT 10.0; Win64; x64) AppleWebKit/537.36 (KHTML, like Gecko) Chrome/135.0.0.0 Safari/537.36 Edg/135.0.0.0",WebKit,Edge,135.0.0.0,Windows,10,https://5puzkbbxv1.cognition.run/?sona_id=57588,"en-US,en;q=0.9",8vac8g8gmh4qf3e,18,"[""White""]",No,Male,NA,Yes,591517.3999999985,NA,null,<p></p>,null,choice,tcd,trinary,repulsion_A,2,washing machines,null,null,null,null,null,null,2,NA,NA,NA,NA,NA,NA,NA,NA,NA,NA
NA,NA,NA,NA,NA,choice_trial,survey-html-form,83,337929,0.0-4.0-1.39,149,1,2025-05-03T21:52:36Z,b60275e29fe2361ab97ac0ac217840d7,"Mozilla/5.0 (Windows NT 10.0; Win64; x64) AppleWebKit/537.36 (KHTML, like Gecko) Chrome/135.0.0.0 Safari/537.36 Edg/135.0.0.0",WebKit,Edge,135.0.0.0,Windows,10,https://5puzkbbxv1.cognition.run/?sona_id=57588,"en-US,en;q=0.9",8vac8g8gmh4qf3e,18,"[""White""]",No,Male,NA,Yes,591517.3999999985,NA,4757,NA,"{""product_choice"":""B""}",choice,tcd,trinary,repulsion_A,2,washing machines,null,null,null,null,null,null,2,30,40,20,100,90,100,Average lifespan,Energy savings,NA,NA
NA,NA,NA,NA,NA,choice_trial_setup,html-keyboard-response,84,338234,0.0-4.0-0.40,149,1,2025-05-03T21:52:36Z,b60275e29fe2361ab97ac0ac217840d7,"Mozilla/5.0 (Windows NT 10.0; Win64; x64) AppleWebKit/537.36 (KHTML, like Gecko) Chrome/135.0.0.0 Safari/537.36 Edg/135.0.0.0",WebKit,Edge,135.0.0.0,Windows,10,https://5puzkbbxv1.cognition.run/?sona_id=57588,"en-US,en;q=0.9",8vac8g8gmh4qf3e,18,"[""White""]",No,Male,NA,Yes,591517.3999999985,NA,null,<p></p>,null,choice,cdt,trinary,attraction,1,laptops,null,null,null,null,null,null,2,NA,NA,NA,NA,NA,NA,NA,NA,NA,NA
NA,NA,NA,NA,NA,choice_trial,survey-html-form,85,341227,0.0-4.0-1.40,149,1,2025-05-03T21:52:36Z,b60275e29fe2361ab97ac0ac217840d7,"Mozilla/5.0 (Windows NT 10.0; Win64; x64) AppleWebKit/537.36 (KHTML, like Gecko) Chrome/135.0.0.0 Safari/537.36 Edg/135.0.0.0",WebKit,Edge,135.0.0.0,Windows,10,https://5puzkbbxv1.cognition.run/?sona_id=57588,"en-US,en;q=0.9",8vac8g8gmh4qf3e,18,"[""White""]",No,Male,NA,Yes,591517.3999999985,NA,2987,NA,"{""product_choice"":""C""}",choice,cdt,trinary,attraction,1,laptops,null,null,null,null,null,null,2,60,50,60,50,60,40,Processing speed,Memory (RAM),NA,NA
NA,NA,NA,NA,NA,choice_trial_setup,html-keyboard-response,86,341539,0.0-4.0-0.41,149,1,2025-05-03T21:52:36Z,b60275e29fe2361ab97ac0ac217840d7,"Mozilla/5.0 (Windows NT 10.0; Win64; x64) AppleWebKit/537.36 (KHTML, like Gecko) Chrome/135.0.0.0 Safari/537.36 Edg/135.0.0.0",WebKit,Edge,135.0.0.0,Windows,10,https://5puzkbbxv1.cognition.run/?sona_id=57588,"en-US,en;q=0.9",8vac8g8gmh4qf3e,18,"[""White""]",No,Male,NA,Yes,591517.3999999985,NA,null,<p></p>,null,choice,bw,binary,catch,null,laptops,85,90,35,50,null,null,1,NA,NA,NA,NA,NA,NA,NA,NA,NA,NA
NA,NA,NA,NA,NA,choice_trial,survey-html-form,87,352484,0.0-4.0-1.41,149,1,2025-05-03T21:52:36Z,b60275e29fe2361ab97ac0ac217840d7,"Mozilla/5.0 (Windows NT 10.0; Win64; x64) AppleWebKit/537.36 (KHTML, like Gecko) Chrome/135.0.0.0 Safari/537.36 Edg/135.0.0.0",WebKit,Edge,135.0.0.0,Windows,10,https://5puzkbbxv1.cognition.run/?sona_id=57588,"en-US,en;q=0.9",8vac8g8gmh4qf3e,18,"[""White""]",No,Male,NA,Yes,591517.3999999985,NA,10939,NA,"{""product_choice"":""A""}",choice,bw,binary,catch,null,laptops,85,90,35,50,null,null,1,null,null,null,null,null,null,Processing speed,Memory (RAM),NA,NA
NA,NA,NA,NA,NA,choice_trial_setup,html-keyboard-response,88,352801,0.0-4.0-0.42,149,1,2025-05-03T21:52:36Z,b60275e29fe2361ab97ac0ac217840d7,"Mozilla/5.0 (Windows NT 10.0; Win64; x64) AppleWebKit/537.36 (KHTML, like Gecko) Chrome/135.0.0.0 Safari/537.36 Edg/135.0.0.0",WebKit,Edge,135.0.0.0,Windows,10,https://5puzkbbxv1.cognition.run/?sona_id=57588,"en-US,en;q=0.9",8vac8g8gmh4qf3e,18,"[""White""]",No,Male,NA,Yes,591517.3999999985,NA,null,<p></p>,null,choice,dtc,trinary,attraction,2,washing machines,null,null,null,null,null,null,2,NA,NA,NA,NA,NA,NA,NA,NA,NA,NA
NA,NA,NA,NA,NA,choice_trial,survey-html-form,89,356315,0.0-4.0-1.42,149,1,2025-05-03T21:52:36Z,b60275e29fe2361ab97ac0ac217840d7,"Mozilla/5.0 (Windows NT 10.0; Win64; x64) AppleWebKit/537.36 (KHTML, like Gecko) Chrome/135.0.0.0 Safari/537.36 Edg/135.0.0.0",WebKit,Edge,135.0.0.0,Windows,10,https://5puzkbbxv1.cognition.run/?sona_id=57588,"en-US,en;q=0.9",8vac8g8gmh4qf3e,18,"[""White""]",No,Male,NA,Yes,591517.3999999985,NA,3508,NA,"{""product_choice"":""C""}",choice,dtc,trinary,attraction,2,washing machines,null,null,null,null,null,null,2,50,60,40,60,50,60,Average lifespan,Energy savings,NA,NA
NA,NA,NA,NA,NA,choice_trial_setup,html-keyboard-response,90,356618,0.0-4.0-0.43,149,1,2025-05-03T21:52:36Z,b60275e29fe2361ab97ac0ac217840d7,"Mozilla/5.0 (Windows NT 10.0; Win64; x64) AppleWebKit/537.36 (KHTML, like Gecko) Chrome/135.0.0.0 Safari/537.36 Edg/135.0.0.0",WebKit,Edge,135.0.0.0,Windows,10,https://5puzkbbxv1.cognition.run/?sona_id=57588,"en-US,en;q=0.9",8vac8g8gmh4qf3e,18,"[""White""]",No,Male,NA,Yes,591517.3999999985,NA,null,<p></p>,null,choice,tdc,trinary,repulsion_B,1,laptops,null,null,null,null,null,null,2,NA,NA,NA,NA,NA,NA,NA,NA,NA,NA
NA,NA,NA,NA,NA,choice_trial,survey-html-form,91,360047,0.0-4.0-1.43,149,1,2025-05-03T21:52:36Z,b60275e29fe2361ab97ac0ac217840d7,"Mozilla/5.0 (Windows NT 10.0; Win64; x64) AppleWebKit/537.36 (KHTML, like Gecko) Chrome/135.0.0.0 Safari/537.36 Edg/135.0.0.0",WebKit,Edge,135.0.0.0,Windows,10,https://5puzkbbxv1.cognition.run/?sona_id=57588,"en-US,en;q=0.9",8vac8g8gmh4qf3e,18,"[""White""]",No,Male,NA,Yes,591517.3999999985,NA,3423,NA,"{""product_choice"":""A""}",choice,tdc,trinary,repulsion_B,1,laptops,null,null,null,null,null,null,2,90,100,80,40,30,40,Processing speed,Memory (RAM),NA,NA
NA,NA,NA,NA,NA,post_trials_message,html-button-response,92,362413,0.0-5.0,149,1,2025-05-03T21:52:36Z,b60275e29fe2361ab97ac0ac217840d7,"Mozilla/5.0 (Windows NT 10.0; Win64; x64) AppleWebKit/537.36 (KHTML, like Gecko) Chrome/135.0.0.0 Safari/537.36 Edg/135.0.0.0",WebKit,Edge,135.0.0.0,Windows,10,https://5puzkbbxv1.cognition.run/?sona_id=57588,"en-US,en;q=0.9",8vac8g8gmh4qf3e,18,"[""White""]",No,Male,NA,Yes,591517.3999999985,NA,2356,<p> <b>Thank you for your patience!</b></p><p>  The study will be done after completing a brief form. </p>,0,NA,NA,NA,NA,NA,NA,NA,NA,NA,NA,NA,NA,NA,NA,NA,NA,NA,NA,NA,NA,NA,NA,NA
NA,NA,NA,NA,NA,survey_message,survey-text,93,555960,0.0-6.0,149,1,2025-05-03T21:52:36Z,b60275e29fe2361ab97ac0ac217840d7,"Mozilla/5.0 (Windows NT 10.0; Win64; x64) AppleWebKit/537.36 (KHTML, like Gecko) Chrome/135.0.0.0 Safari/537.36 Edg/135.0.0.0",WebKit,Edge,135.0.0.0,Windows,10,https://5puzkbbxv1.cognition.run/?sona_id=57588,"en-US,en;q=0.9",8vac8g8gmh4qf3e,18,"[""White""]",No,Male,NA,Yes,591517.3999999985,NA,193542,NA,"{""Q0"":""I sacrificed a rating of 10 for the more important characteristic. For example, if screen size was a 30 vs 40, but that 30 had a second detail had 10 higher then the second product I'd choose the first. Screen size isn't that important compared to ram or memory of a laptop. ""}",NA,NA,NA,NA,NA,NA,NA,NA,NA,NA,NA,NA,NA,NA,NA,NA,NA,NA,NA,NA,NA,"I sacrificed a rating of 10 for the more important characteristic. For example, if screen size was a 30 vs 40, but that 30 had a second detail had 10 higher then the second product I'd choose the first. Screen size isn't that important compared to ram or memory of a laptop.",NA
NA,NA,NA,NA,NA,demo_age,survey-text,94,557907,0.0-7.0,149,1,2025-05-03T21:52:36Z,b60275e29fe2361ab97ac0ac217840d7,"Mozilla/5.0 (Windows NT 10.0; Win64; x64) AppleWebKit/537.36 (KHTML, like Gecko) Chrome/135.0.0.0 Safari/537.36 Edg/135.0.0.0",WebKit,Edge,135.0.0.0,Windows,10,https://5puzkbbxv1.cognition.run/?sona_id=57588,"en-US,en;q=0.9",8vac8g8gmh4qf3e,18,"[""White""]",No,Male,NA,Yes,591517.3999999985,NA,1942,NA,"{""Q0"":""18""}",NA,NA,NA,NA,NA,NA,NA,NA,NA,NA,NA,NA,NA,NA,NA,NA,NA,NA,NA,NA,NA,NA,NA
NA,NA,NA,NA,NA,demo_race,survey-multi-select,95,559841,0.0-8.0,149,1,2025-05-03T21:52:36Z,b60275e29fe2361ab97ac0ac217840d7,"Mozilla/5.0 (Windows NT 10.0; Win64; x64) AppleWebKit/537.36 (KHTML, like Gecko) Chrome/135.0.0.0 Safari/537.36 Edg/135.0.0.0",WebKit,Edge,135.0.0.0,Windows,10,https://5puzkbbxv1.cognition.run/?sona_id=57588,"en-US,en;q=0.9",8vac8g8gmh4qf3e,18,"[""White""]",No,Male,NA,Yes,591517.3999999985,NA,1923,NA,"{""Q0"":[""White""]}",NA,NA,NA,NA,NA,NA,NA,NA,NA,NA,NA,NA,NA,NA,NA,NA,NA,NA,NA,NA,NA,NA,[0]
NA,NA,NA,NA,NA,demo_ethnicity_gender,survey-multi-choice,96,563799,0.0-9.0,149,1,2025-05-03T21:52:36Z,b60275e29fe2361ab97ac0ac217840d7,"Mozilla/5.0 (Windows NT 10.0; Win64; x64) AppleWebKit/537.36 (KHTML, like Gecko) Chrome/135.0.0.0 Safari/537.36 Edg/135.0.0.0",WebKit,Edge,135.0.0.0,Windows,10,https://5puzkbbxv1.cognition.run/?sona_id=57588,"en-US,en;q=0.9",8vac8g8gmh4qf3e,18,"[""White""]",No,Male,NA,Yes,591517.3999999985,NA,3954,NA,"{""Q0"":""No"",""Q1"":""Male""}",NA,NA,NA,NA,NA,NA,NA,NA,NA,NA,NA,NA,NA,NA,NA,NA,NA,NA,NA,NA,NA,NA,"[0,1]"
NA,NA,NA,NA,NA,demo_countries,survey-text,97,571246,0.0-10.0,149,1,2025-05-03T21:52:36Z,b60275e29fe2361ab97ac0ac217840d7,"Mozilla/5.0 (Windows NT 10.0; Win64; x64) AppleWebKit/537.36 (KHTML, like Gecko) Chrome/135.0.0.0 Safari/537.36 Edg/135.0.0.0",WebKit,Edge,135.0.0.0,Windows,10,https://5puzkbbxv1.cognition.run/?sona_id=57588,"en-US,en;q=0.9",8vac8g8gmh4qf3e,18,"[""White""]",No,Male,NA,Yes,591517.3999999985,NA,7442,NA,"{""Q0"":""NA""}",NA,NA,NA,NA,NA,NA,NA,NA,NA,NA,NA,NA,NA,NA,NA,NA,NA,NA,NA,NA,NA,NA,NA
NA,NA,NA,NA,NA,demo_prev_study,survey-multi-choice,98,575705,0.0-11.0,149,1,2025-05-03T21:52:36Z,b60275e29fe2361ab97ac0ac217840d7,"Mozilla/5.0 (Windows NT 10.0; Win64; x64) AppleWebKit/537.36 (KHTML, like Gecko) Chrome/135.0.0.0 Safari/537.36 Edg/135.0.0.0",WebKit,Edge,135.0.0.0,Windows,10,https://5puzkbbxv1.cognition.run/?sona_id=57588,"en-US,en;q=0.9",8vac8g8gmh4qf3e,18,"[""White""]",No,Male,NA,Yes,591517.3999999985,NA,4456,NA,"{""Q0"":""Yes""}",NA,NA,NA,NA,NA,NA,NA,NA,NA,NA,NA,NA,NA,NA,NA,NA,NA,NA,NA,NA,NA,NA,[0]
NA,NA,NA,NA,NA,post_survey_message,html-keyboard-response,99,580172,0.0-12.0,149,1,2025-05-03T21:52:36Z,b60275e29fe2361ab97ac0ac217840d7,"Mozilla/5.0 (Windows NT 10.0; Win64; x64) AppleWebKit/537.36 (KHTML, like Gecko) Chrome/135.0.0.0 Safari/537.36 Edg/135.0.0.0",WebKit,Edge,135.0.0.0,Windows,10,https://5puzkbbxv1.cognition.run/?sona_id=57588,"en-US,en;q=0.9",8vac8g8gmh4qf3e,18,"[""White""]",No,Male,NA,Yes,591517.3999999985,NA,4462,NA,j,NA,NA,NA,NA,NA,NA,NA,NA,NA,NA,NA,NA,NA,NA,NA,NA,NA,NA,NA,NA,NA,NA,NA
NA,NA,NA,NA,NA,debrief,image-keyboard-response,100,591514,0.0-13.0,149,1,2025-05-03T21:52:36Z,b60275e29fe2361ab97ac0ac217840d7,"Mozilla/5.0 (Windows NT 10.0; Win64; x64) AppleWebKit/537.36 (KHTML, like Gecko) Chrome/135.0.0.0 Safari/537.36 Edg/135.0.0.0",WebKit,Edge,135.0.0.0,Windows,10,https://5puzkbbxv1.cognition.run/?sona_id=57588,"en-US,en;q=0.9",8vac8g8gmh4qf3e,18,"[""White""]",No,Male,NA,Yes,591517.3999999985,NA,11333,Judg_choice_debrief.png,p,NA,NA,NA,NA,NA,NA,NA,NA,NA,NA,NA,NA,NA,NA,NA,NA,NA,NA,NA,NA,NA,NA,NA
