success,timeout,failed_images,failed_audio,failed_video,screen_id,trial_type,trial_index,time_elapsed,internal_node_id,run_id,condition,recorded_at,source_code_version,user_agent,device,browser,browser_version,platform,platform_version,referer,accept_language,ppt_id,age,race,ethnicity,gender,other_countries,prev_study,exp_duration,view_history,rt,stimulus,response,phase,order,set,effect,t_high,category,d1_best,d2_best,d1_worst1,d2_worst1,d1_worst2,d2_worst2,first_dim,d1_t,d1_c,d1_d,d2_t,d2_c,d2_d,d1_name,d2_name,strategy_response,question_order
TRUE,FALSE,[],[],[],img preload,preload,0,116,0.0-0.0,151,1,2025-05-04T01:36:09Z,b60275e29fe2361ab97ac0ac217840d7,"Mozilla/5.0 (Macintosh; Intel Mac OS X 10_15_7) AppleWebKit/537.36 (KHTML, like Gecko) Chrome/133.0.0.0 Safari/537.36",Macintosh,Chrome,133.0.0.0,OS X,10_15_7,https://5puzkbbxv1.cognition.run/?sona_id=53175,"en-US,en;q=0.9",z6uauq2osesw89a,20,"[""White""]",No,Female,NA,I'm not sure,380448.90000009537,NA,NA,NA,NA,NA,NA,NA,NA,NA,NA,NA,NA,NA,NA,NA,NA,NA,NA,NA,NA,NA,NA,NA,NA,NA,NA,NA
NA,NA,NA,NA,NA,computer_message,instructions,1,1293,0.0-1.0,151,1,2025-05-04T01:36:09Z,b60275e29fe2361ab97ac0ac217840d7,"Mozilla/5.0 (Macintosh; Intel Mac OS X 10_15_7) AppleWebKit/537.36 (KHTML, like Gecko) Chrome/133.0.0.0 Safari/537.36",Macintosh,Chrome,133.0.0.0,OS X,10_15_7,https://5puzkbbxv1.cognition.run/?sona_id=53175,"en-US,en;q=0.9",z6uauq2osesw89a,20,"[""White""]",No,Female,NA,I'm not sure,380448.90000009537,"[{""page_index"":0,""viewing_time"":1176}]",1176,NA,NA,NA,NA,NA,NA,NA,NA,NA,NA,NA,NA,NA,NA,NA,NA,NA,NA,NA,NA,NA,NA,NA,NA,NA
TRUE,NA,NA,NA,NA,NA,fullscreen,2,3312,0.0-2.0,151,1,2025-05-04T01:36:09Z,b60275e29fe2361ab97ac0ac217840d7,"Mozilla/5.0 (Macintosh; Intel Mac OS X 10_15_7) AppleWebKit/537.36 (KHTML, like Gecko) Chrome/133.0.0.0 Safari/537.36",Macintosh,Chrome,133.0.0.0,OS X,10_15_7,https://5puzkbbxv1.cognition.run/?sona_id=53175,"en-US,en;q=0.9",z6uauq2osesw89a,20,"[""White""]",No,Female,NA,I'm not sure,380448.90000009537,NA,1015,NA,NA,NA,NA,NA,NA,NA,NA,NA,NA,NA,NA,NA,NA,NA,NA,NA,NA,NA,NA,NA,NA,NA,NA,NA
NA,NA,NA,NA,NA,choice_instructions,instructions,3,36891,0.0-3.0,151,1,2025-05-04T01:36:09Z,b60275e29fe2361ab97ac0ac217840d7,"Mozilla/5.0 (Macintosh; Intel Mac OS X 10_15_7) AppleWebKit/537.36 (KHTML, like Gecko) Chrome/133.0.0.0 Safari/537.36",Macintosh,Chrome,133.0.0.0,OS X,10_15_7,https://5puzkbbxv1.cognition.run/?sona_id=53175,"en-US,en;q=0.9",z6uauq2osesw89a,20,"[""White""]",No,Female,NA,I'm not sure,380448.90000009537,"[{""page_index"":0,""viewing_time"":1463},{""page_index"":1,""viewing_time"":3383},{""page_index"":2,""viewing_time"":4767},{""page_index"":3,""viewing_time"":5834},{""page_index"":4,""viewing_time"":2650},{""page_index"":5,""viewing_time"":11366},{""page_index"":6,""viewing_time"":4116}]",33580,NA,NA,NA,NA,NA,NA,NA,NA,NA,NA,NA,NA,NA,NA,NA,NA,NA,NA,NA,NA,NA,NA,NA,NA,NA
NA,NA,NA,NA,NA,choice_trial_setup,html-keyboard-response,4,37195,0.0-4.0-0.0,151,1,2025-05-04T01:36:09Z,b60275e29fe2361ab97ac0ac217840d7,"Mozilla/5.0 (Macintosh; Intel Mac OS X 10_15_7) AppleWebKit/537.36 (KHTML, like Gecko) Chrome/133.0.0.0 Safari/537.36",Macintosh,Chrome,133.0.0.0,OS X,10_15_7,https://5puzkbbxv1.cognition.run/?sona_id=53175,"en-US,en;q=0.9",z6uauq2osesw89a,20,"[""White""]",No,Female,NA,I'm not sure,380448.90000009537,NA,null,<p></p>,null,choice,tc,binary,attraction,NA,laptops,null,null,null,null,null,null,1,NA,NA,NA,NA,NA,NA,NA,NA,NA,NA
NA,NA,NA,NA,NA,choice_trial,survey-html-form,5,44458,0.0-4.0-1.0,151,1,2025-05-04T01:36:09Z,b60275e29fe2361ab97ac0ac217840d7,"Mozilla/5.0 (Macintosh; Intel Mac OS X 10_15_7) AppleWebKit/537.36 (KHTML, like Gecko) Chrome/133.0.0.0 Safari/537.36",Macintosh,Chrome,133.0.0.0,OS X,10_15_7,https://5puzkbbxv1.cognition.run/?sona_id=53175,"en-US,en;q=0.9",z6uauq2osesw89a,20,"[""White""]",No,Female,NA,I'm not sure,380448.90000009537,NA,7258,NA,"{""product_choice"":""A""}",choice,tc,binary,attraction,NA,laptops,null,null,null,null,null,null,1,60,50,null,50,60,null,Processing speed,Memory (RAM),NA,NA
NA,NA,NA,NA,NA,choice_trial_setup,html-keyboard-response,6,44761,0.0-4.0-0.1,151,1,2025-05-04T01:36:09Z,b60275e29fe2361ab97ac0ac217840d7,"Mozilla/5.0 (Macintosh; Intel Mac OS X 10_15_7) AppleWebKit/537.36 (KHTML, like Gecko) Chrome/133.0.0.0 Safari/537.36",Macintosh,Chrome,133.0.0.0,OS X,10_15_7,https://5puzkbbxv1.cognition.run/?sona_id=53175,"en-US,en;q=0.9",z6uauq2osesw89a,20,"[""White""]",No,Female,NA,I'm not sure,380448.90000009537,NA,null,<p></p>,null,choice,ct,binary,repulsion,2,washing machines,null,null,null,null,null,null,1,NA,NA,NA,NA,NA,NA,NA,NA,NA,NA
NA,NA,NA,NA,NA,choice_trial,survey-html-form,7,51491,0.0-4.0-1.1,151,1,2025-05-04T01:36:09Z,b60275e29fe2361ab97ac0ac217840d7,"Mozilla/5.0 (Macintosh; Intel Mac OS X 10_15_7) AppleWebKit/537.36 (KHTML, like Gecko) Chrome/133.0.0.0 Safari/537.36",Macintosh,Chrome,133.0.0.0,OS X,10_15_7,https://5puzkbbxv1.cognition.run/?sona_id=53175,"en-US,en;q=0.9",z6uauq2osesw89a,20,"[""White""]",No,Female,NA,I'm not sure,380448.90000009537,NA,6728,NA,"{""product_choice"":""A""}",choice,ct,binary,repulsion,2,washing machines,null,null,null,null,null,null,1,30,40,null,100,90,null,Average lifespan,Energy savings,NA,NA
NA,NA,NA,NA,NA,choice_trial_setup,html-keyboard-response,8,51795,0.0-4.0-0.2,151,1,2025-05-04T01:36:09Z,b60275e29fe2361ab97ac0ac217840d7,"Mozilla/5.0 (Macintosh; Intel Mac OS X 10_15_7) AppleWebKit/537.36 (KHTML, like Gecko) Chrome/133.0.0.0 Safari/537.36",Macintosh,Chrome,133.0.0.0,OS X,10_15_7,https://5puzkbbxv1.cognition.run/?sona_id=53175,"en-US,en;q=0.9",z6uauq2osesw89a,20,"[""White""]",No,Female,NA,I'm not sure,380448.90000009537,NA,null,<p></p>,null,choice,wb,binary,catch,null,washing machines,55,70,25,5,null,null,1,NA,NA,NA,NA,NA,NA,NA,NA,NA,NA
NA,NA,NA,NA,NA,choice_trial,survey-html-form,9,55507,0.0-4.0-1.2,151,1,2025-05-04T01:36:09Z,b60275e29fe2361ab97ac0ac217840d7,"Mozilla/5.0 (Macintosh; Intel Mac OS X 10_15_7) AppleWebKit/537.36 (KHTML, like Gecko) Chrome/133.0.0.0 Safari/537.36",Macintosh,Chrome,133.0.0.0,OS X,10_15_7,https://5puzkbbxv1.cognition.run/?sona_id=53175,"en-US,en;q=0.9",z6uauq2osesw89a,20,"[""White""]",No,Female,NA,I'm not sure,380448.90000009537,NA,3709,NA,"{""product_choice"":""B""}",choice,wb,binary,catch,null,washing machines,55,70,25,5,null,null,1,null,null,null,null,null,null,Average lifespan,Energy savings,NA,NA
NA,NA,NA,NA,NA,choice_trial_setup,html-keyboard-response,10,55809,0.0-4.0-0.3,151,1,2025-05-04T01:36:09Z,b60275e29fe2361ab97ac0ac217840d7,"Mozilla/5.0 (Macintosh; Intel Mac OS X 10_15_7) AppleWebKit/537.36 (KHTML, like Gecko) Chrome/133.0.0.0 Safari/537.36",Macintosh,Chrome,133.0.0.0,OS X,10_15_7,https://5puzkbbxv1.cognition.run/?sona_id=53175,"en-US,en;q=0.9",z6uauq2osesw89a,20,"[""White""]",No,Female,NA,I'm not sure,380448.90000009537,NA,null,<p></p>,null,choice,cdt,trinary,attraction,1,washing machines,null,null,null,null,null,null,2,NA,NA,NA,NA,NA,NA,NA,NA,NA,NA
NA,NA,NA,NA,NA,choice_trial,survey-html-form,11,63673,0.0-4.0-1.3,151,1,2025-05-04T01:36:09Z,b60275e29fe2361ab97ac0ac217840d7,"Mozilla/5.0 (Macintosh; Intel Mac OS X 10_15_7) AppleWebKit/537.36 (KHTML, like Gecko) Chrome/133.0.0.0 Safari/537.36",Macintosh,Chrome,133.0.0.0,OS X,10_15_7,https://5puzkbbxv1.cognition.run/?sona_id=53175,"en-US,en;q=0.9",z6uauq2osesw89a,20,"[""White""]",No,Female,NA,I'm not sure,380448.90000009537,NA,7862,NA,"{""product_choice"":""C""}",choice,cdt,trinary,attraction,1,washing machines,null,null,null,null,null,null,2,60,50,60,50,60,40,Average lifespan,Energy savings,NA,NA
NA,NA,NA,NA,NA,choice_trial_setup,html-keyboard-response,12,63976,0.0-4.0-0.4,151,1,2025-05-04T01:36:09Z,b60275e29fe2361ab97ac0ac217840d7,"Mozilla/5.0 (Macintosh; Intel Mac OS X 10_15_7) AppleWebKit/537.36 (KHTML, like Gecko) Chrome/133.0.0.0 Safari/537.36",Macintosh,Chrome,133.0.0.0,OS X,10_15_7,https://5puzkbbxv1.cognition.run/?sona_id=53175,"en-US,en;q=0.9",z6uauq2osesw89a,20,"[""White""]",No,Female,NA,I'm not sure,380448.90000009537,NA,null,<p></p>,null,choice,wwb,trinary,catch,null,laptops,80,55,25,10,40,30,2,NA,NA,NA,NA,NA,NA,NA,NA,NA,NA
NA,NA,NA,NA,NA,choice_trial,survey-html-form,13,70206,0.0-4.0-1.4,151,1,2025-05-04T01:36:09Z,b60275e29fe2361ab97ac0ac217840d7,"Mozilla/5.0 (Macintosh; Intel Mac OS X 10_15_7) AppleWebKit/537.36 (KHTML, like Gecko) Chrome/133.0.0.0 Safari/537.36",Macintosh,Chrome,133.0.0.0,OS X,10_15_7,https://5puzkbbxv1.cognition.run/?sona_id=53175,"en-US,en;q=0.9",z6uauq2osesw89a,20,"[""White""]",No,Female,NA,I'm not sure,380448.90000009537,NA,6228,NA,"{""product_choice"":""C""}",choice,wwb,trinary,catch,null,laptops,80,55,25,10,40,30,2,null,null,null,null,null,null,Processing speed,Memory (RAM),NA,NA
NA,NA,NA,NA,NA,choice_trial_setup,html-keyboard-response,14,70509,0.0-4.0-0.5,151,1,2025-05-04T01:36:09Z,b60275e29fe2361ab97ac0ac217840d7,"Mozilla/5.0 (Macintosh; Intel Mac OS X 10_15_7) AppleWebKit/537.36 (KHTML, like Gecko) Chrome/133.0.0.0 Safari/537.36",Macintosh,Chrome,133.0.0.0,OS X,10_15_7,https://5puzkbbxv1.cognition.run/?sona_id=53175,"en-US,en;q=0.9",z6uauq2osesw89a,20,"[""White""]",No,Female,NA,I'm not sure,380448.90000009537,NA,null,<p></p>,null,choice,ct,binary,repulsion,2,televisions,null,null,null,null,null,null,2,NA,NA,NA,NA,NA,NA,NA,NA,NA,NA
NA,NA,NA,NA,NA,choice_trial,survey-html-form,15,74926,0.0-4.0-1.5,151,1,2025-05-04T01:36:09Z,b60275e29fe2361ab97ac0ac217840d7,"Mozilla/5.0 (Macintosh; Intel Mac OS X 10_15_7) AppleWebKit/537.36 (KHTML, like Gecko) Chrome/133.0.0.0 Safari/537.36",Macintosh,Chrome,133.0.0.0,OS X,10_15_7,https://5puzkbbxv1.cognition.run/?sona_id=53175,"en-US,en;q=0.9",z6uauq2osesw89a,20,"[""White""]",No,Female,NA,I'm not sure,380448.90000009537,NA,4415,NA,"{""product_choice"":""B""}",choice,ct,binary,repulsion,2,televisions,null,null,null,null,null,null,2,30,40,null,100,90,null,Screen size,Average lifespan,NA,NA
NA,NA,NA,NA,NA,choice_trial_setup,html-keyboard-response,16,75230,0.0-4.0-0.6,151,1,2025-05-04T01:36:09Z,b60275e29fe2361ab97ac0ac217840d7,"Mozilla/5.0 (Macintosh; Intel Mac OS X 10_15_7) AppleWebKit/537.36 (KHTML, like Gecko) Chrome/133.0.0.0 Safari/537.36",Macintosh,Chrome,133.0.0.0,OS X,10_15_7,https://5puzkbbxv1.cognition.run/?sona_id=53175,"en-US,en;q=0.9",z6uauq2osesw89a,20,"[""White""]",No,Female,NA,I'm not sure,380448.90000009537,NA,null,<p></p>,null,choice,dct,trinary,repulsion_A,2,televisions,null,null,null,null,null,null,1,NA,NA,NA,NA,NA,NA,NA,NA,NA,NA
NA,NA,NA,NA,NA,choice_trial,survey-html-form,17,85754,0.0-4.0-1.6,151,1,2025-05-04T01:36:09Z,b60275e29fe2361ab97ac0ac217840d7,"Mozilla/5.0 (Macintosh; Intel Mac OS X 10_15_7) AppleWebKit/537.36 (KHTML, like Gecko) Chrome/133.0.0.0 Safari/537.36",Macintosh,Chrome,133.0.0.0,OS X,10_15_7,https://5puzkbbxv1.cognition.run/?sona_id=53175,"en-US,en;q=0.9",z6uauq2osesw89a,20,"[""White""]",No,Female,NA,I'm not sure,380448.90000009537,NA,10522,NA,"{""product_choice"":""C""}",choice,dct,trinary,repulsion_A,2,televisions,null,null,null,null,null,null,1,30,40,20,100,90,100,Screen size,Average lifespan,NA,NA
NA,NA,NA,NA,NA,choice_trial_setup,html-keyboard-response,18,86057,0.0-4.0-0.7,151,1,2025-05-04T01:36:09Z,b60275e29fe2361ab97ac0ac217840d7,"Mozilla/5.0 (Macintosh; Intel Mac OS X 10_15_7) AppleWebKit/537.36 (KHTML, like Gecko) Chrome/133.0.0.0 Safari/537.36",Macintosh,Chrome,133.0.0.0,OS X,10_15_7,https://5puzkbbxv1.cognition.run/?sona_id=53175,"en-US,en;q=0.9",z6uauq2osesw89a,20,"[""White""]",No,Female,NA,I'm not sure,380448.90000009537,NA,null,<p></p>,null,choice,cdt,trinary,repulsion_A,2,laptops,null,null,null,null,null,null,2,NA,NA,NA,NA,NA,NA,NA,NA,NA,NA
NA,NA,NA,NA,NA,choice_trial,survey-html-form,19,92238,0.0-4.0-1.7,151,1,2025-05-04T01:36:09Z,b60275e29fe2361ab97ac0ac217840d7,"Mozilla/5.0 (Macintosh; Intel Mac OS X 10_15_7) AppleWebKit/537.36 (KHTML, like Gecko) Chrome/133.0.0.0 Safari/537.36",Macintosh,Chrome,133.0.0.0,OS X,10_15_7,https://5puzkbbxv1.cognition.run/?sona_id=53175,"en-US,en;q=0.9",z6uauq2osesw89a,20,"[""White""]",No,Female,NA,I'm not sure,380448.90000009537,NA,6178,NA,"{""product_choice"":""A""}",choice,cdt,trinary,repulsion_A,2,laptops,null,null,null,null,null,null,2,30,40,20,100,90,100,Processing speed,Memory (RAM),NA,NA
NA,NA,NA,NA,NA,choice_trial_setup,html-keyboard-response,20,92541,0.0-4.0-0.8,151,1,2025-05-04T01:36:09Z,b60275e29fe2361ab97ac0ac217840d7,"Mozilla/5.0 (Macintosh; Intel Mac OS X 10_15_7) AppleWebKit/537.36 (KHTML, like Gecko) Chrome/133.0.0.0 Safari/537.36",Macintosh,Chrome,133.0.0.0,OS X,10_15_7,https://5puzkbbxv1.cognition.run/?sona_id=53175,"en-US,en;q=0.9",z6uauq2osesw89a,20,"[""White""]",No,Female,NA,I'm not sure,380448.90000009537,NA,null,<p></p>,null,choice,wb,binary,catch,null,laptops,90,95,5,20,null,null,1,NA,NA,NA,NA,NA,NA,NA,NA,NA,NA
NA,NA,NA,NA,NA,choice_trial,survey-html-form,21,96137,0.0-4.0-1.8,151,1,2025-05-04T01:36:09Z,b60275e29fe2361ab97ac0ac217840d7,"Mozilla/5.0 (Macintosh; Intel Mac OS X 10_15_7) AppleWebKit/537.36 (KHTML, like Gecko) Chrome/133.0.0.0 Safari/537.36",Macintosh,Chrome,133.0.0.0,OS X,10_15_7,https://5puzkbbxv1.cognition.run/?sona_id=53175,"en-US,en;q=0.9",z6uauq2osesw89a,20,"[""White""]",No,Female,NA,I'm not sure,380448.90000009537,NA,3593,NA,"{""product_choice"":""B""}",choice,wb,binary,catch,null,laptops,90,95,5,20,null,null,1,null,null,null,null,null,null,Processing speed,Memory (RAM),NA,NA
NA,NA,NA,NA,NA,choice_trial_setup,html-keyboard-response,22,96441,0.0-4.0-0.9,151,1,2025-05-04T01:36:09Z,b60275e29fe2361ab97ac0ac217840d7,"Mozilla/5.0 (Macintosh; Intel Mac OS X 10_15_7) AppleWebKit/537.36 (KHTML, like Gecko) Chrome/133.0.0.0 Safari/537.36",Macintosh,Chrome,133.0.0.0,OS X,10_15_7,https://5puzkbbxv1.cognition.run/?sona_id=53175,"en-US,en;q=0.9",z6uauq2osesw89a,20,"[""White""]",No,Female,NA,I'm not sure,380448.90000009537,NA,null,<p></p>,null,choice,cdt,trinary,repulsion_B,1,microwave ovens,null,null,null,null,null,null,1,NA,NA,NA,NA,NA,NA,NA,NA,NA,NA
NA,NA,NA,NA,NA,choice_trial,survey-html-form,23,102470,0.0-4.0-1.9,151,1,2025-05-04T01:36:09Z,b60275e29fe2361ab97ac0ac217840d7,"Mozilla/5.0 (Macintosh; Intel Mac OS X 10_15_7) AppleWebKit/537.36 (KHTML, like Gecko) Chrome/133.0.0.0 Safari/537.36",Macintosh,Chrome,133.0.0.0,OS X,10_15_7,https://5puzkbbxv1.cognition.run/?sona_id=53175,"en-US,en;q=0.9",z6uauq2osesw89a,20,"[""White""]",No,Female,NA,I'm not sure,380448.90000009537,NA,6026,NA,"{""product_choice"":""C""}",choice,cdt,trinary,repulsion_B,1,microwave ovens,null,null,null,null,null,null,1,90,100,80,40,30,40,Warranty,Cooking power,NA,NA
NA,NA,NA,NA,NA,choice_trial_setup,html-keyboard-response,24,102773,0.0-4.0-0.10,151,1,2025-05-04T01:36:09Z,b60275e29fe2361ab97ac0ac217840d7,"Mozilla/5.0 (Macintosh; Intel Mac OS X 10_15_7) AppleWebKit/537.36 (KHTML, like Gecko) Chrome/133.0.0.0 Safari/537.36",Macintosh,Chrome,133.0.0.0,OS X,10_15_7,https://5puzkbbxv1.cognition.run/?sona_id=53175,"en-US,en;q=0.9",z6uauq2osesw89a,20,"[""White""]",No,Female,NA,I'm not sure,380448.90000009537,NA,null,<p></p>,null,choice,tcd,trinary,repulsion_B,2,microwave ovens,null,null,null,null,null,null,1,NA,NA,NA,NA,NA,NA,NA,NA,NA,NA
NA,NA,NA,NA,NA,choice_trial,survey-html-form,25,109969,0.0-4.0-1.10,151,1,2025-05-04T01:36:09Z,b60275e29fe2361ab97ac0ac217840d7,"Mozilla/5.0 (Macintosh; Intel Mac OS X 10_15_7) AppleWebKit/537.36 (KHTML, like Gecko) Chrome/133.0.0.0 Safari/537.36",Macintosh,Chrome,133.0.0.0,OS X,10_15_7,https://5puzkbbxv1.cognition.run/?sona_id=53175,"en-US,en;q=0.9",z6uauq2osesw89a,20,"[""White""]",No,Female,NA,I'm not sure,380448.90000009537,NA,7194,NA,"{""product_choice"":""A""}",choice,tcd,trinary,repulsion_B,2,microwave ovens,null,null,null,null,null,null,1,40,30,40,90,100,80,Warranty,Cooking power,NA,NA
NA,NA,NA,NA,NA,choice_trial_setup,html-keyboard-response,26,110272,0.0-4.0-0.11,151,1,2025-05-04T01:36:09Z,b60275e29fe2361ab97ac0ac217840d7,"Mozilla/5.0 (Macintosh; Intel Mac OS X 10_15_7) AppleWebKit/537.36 (KHTML, like Gecko) Chrome/133.0.0.0 Safari/537.36",Macintosh,Chrome,133.0.0.0,OS X,10_15_7,https://5puzkbbxv1.cognition.run/?sona_id=53175,"en-US,en;q=0.9",z6uauq2osesw89a,20,"[""White""]",No,Female,NA,I'm not sure,380448.90000009537,NA,null,<p></p>,null,choice,tc,binary,repulsion,2,laptops,null,null,null,null,null,null,2,NA,NA,NA,NA,NA,NA,NA,NA,NA,NA
NA,NA,NA,NA,NA,choice_trial,survey-html-form,27,113453,0.0-4.0-1.11,151,1,2025-05-04T01:36:09Z,b60275e29fe2361ab97ac0ac217840d7,"Mozilla/5.0 (Macintosh; Intel Mac OS X 10_15_7) AppleWebKit/537.36 (KHTML, like Gecko) Chrome/133.0.0.0 Safari/537.36",Macintosh,Chrome,133.0.0.0,OS X,10_15_7,https://5puzkbbxv1.cognition.run/?sona_id=53175,"en-US,en;q=0.9",z6uauq2osesw89a,20,"[""White""]",No,Female,NA,I'm not sure,380448.90000009537,NA,3177,NA,"{""product_choice"":""B""}",choice,tc,binary,repulsion,2,laptops,null,null,null,null,null,null,2,30,40,null,100,90,null,Processing speed,Memory (RAM),NA,NA
NA,NA,NA,NA,NA,choice_trial_setup,html-keyboard-response,28,113755,0.0-4.0-0.12,151,1,2025-05-04T01:36:09Z,b60275e29fe2361ab97ac0ac217840d7,"Mozilla/5.0 (Macintosh; Intel Mac OS X 10_15_7) AppleWebKit/537.36 (KHTML, like Gecko) Chrome/133.0.0.0 Safari/537.36",Macintosh,Chrome,133.0.0.0,OS X,10_15_7,https://5puzkbbxv1.cognition.run/?sona_id=53175,"en-US,en;q=0.9",z6uauq2osesw89a,20,"[""White""]",No,Female,NA,I'm not sure,380448.90000009537,NA,null,<p></p>,null,choice,tdc,trinary,attraction,2,televisions,null,null,null,null,null,null,2,NA,NA,NA,NA,NA,NA,NA,NA,NA,NA
NA,NA,NA,NA,NA,choice_trial,survey-html-form,29,120969,0.0-4.0-1.12,151,1,2025-05-04T01:36:09Z,b60275e29fe2361ab97ac0ac217840d7,"Mozilla/5.0 (Macintosh; Intel Mac OS X 10_15_7) AppleWebKit/537.36 (KHTML, like Gecko) Chrome/133.0.0.0 Safari/537.36",Macintosh,Chrome,133.0.0.0,OS X,10_15_7,https://5puzkbbxv1.cognition.run/?sona_id=53175,"en-US,en;q=0.9",z6uauq2osesw89a,20,"[""White""]",No,Female,NA,I'm not sure,380448.90000009537,NA,7211,NA,"{""product_choice"":""A""}",choice,tdc,trinary,attraction,2,televisions,null,null,null,null,null,null,2,50,60,40,60,50,60,Screen size,Average lifespan,NA,NA
NA,NA,NA,NA,NA,choice_trial_setup,html-keyboard-response,30,121272,0.0-4.0-0.13,151,1,2025-05-04T01:36:09Z,b60275e29fe2361ab97ac0ac217840d7,"Mozilla/5.0 (Macintosh; Intel Mac OS X 10_15_7) AppleWebKit/537.36 (KHTML, like Gecko) Chrome/133.0.0.0 Safari/537.36",Macintosh,Chrome,133.0.0.0,OS X,10_15_7,https://5puzkbbxv1.cognition.run/?sona_id=53175,"en-US,en;q=0.9",z6uauq2osesw89a,20,"[""White""]",No,Female,NA,I'm not sure,380448.90000009537,NA,null,<p></p>,null,choice,tcd,trinary,attraction,2,microwave ovens,null,null,null,null,null,null,2,NA,NA,NA,NA,NA,NA,NA,NA,NA,NA
NA,NA,NA,NA,NA,choice_trial,survey-html-form,31,129818,0.0-4.0-1.13,151,1,2025-05-04T01:36:09Z,b60275e29fe2361ab97ac0ac217840d7,"Mozilla/5.0 (Macintosh; Intel Mac OS X 10_15_7) AppleWebKit/537.36 (KHTML, like Gecko) Chrome/133.0.0.0 Safari/537.36",Macintosh,Chrome,133.0.0.0,OS X,10_15_7,https://5puzkbbxv1.cognition.run/?sona_id=53175,"en-US,en;q=0.9",z6uauq2osesw89a,20,"[""White""]",No,Female,NA,I'm not sure,380448.90000009537,NA,8543,NA,"{""product_choice"":""A""}",choice,tcd,trinary,attraction,2,microwave ovens,null,null,null,null,null,null,2,50,60,40,60,50,60,Warranty,Cooking power,NA,NA
NA,NA,NA,NA,NA,choice_trial_setup,html-keyboard-response,32,130121,0.0-4.0-0.14,151,1,2025-05-04T01:36:09Z,b60275e29fe2361ab97ac0ac217840d7,"Mozilla/5.0 (Macintosh; Intel Mac OS X 10_15_7) AppleWebKit/537.36 (KHTML, like Gecko) Chrome/133.0.0.0 Safari/537.36",Macintosh,Chrome,133.0.0.0,OS X,10_15_7,https://5puzkbbxv1.cognition.run/?sona_id=53175,"en-US,en;q=0.9",z6uauq2osesw89a,20,"[""White""]",No,Female,NA,I'm not sure,380448.90000009537,NA,null,<p></p>,null,choice,dct,trinary,repulsion_B,2,washing machines,null,null,null,null,null,null,1,NA,NA,NA,NA,NA,NA,NA,NA,NA,NA
NA,NA,NA,NA,NA,choice_trial,survey-html-form,33,136584,0.0-4.0-1.14,151,1,2025-05-04T01:36:09Z,b60275e29fe2361ab97ac0ac217840d7,"Mozilla/5.0 (Macintosh; Intel Mac OS X 10_15_7) AppleWebKit/537.36 (KHTML, like Gecko) Chrome/133.0.0.0 Safari/537.36",Macintosh,Chrome,133.0.0.0,OS X,10_15_7,https://5puzkbbxv1.cognition.run/?sona_id=53175,"en-US,en;q=0.9",z6uauq2osesw89a,20,"[""White""]",No,Female,NA,I'm not sure,380448.90000009537,NA,6460,NA,"{""product_choice"":""C""}",choice,dct,trinary,repulsion_B,2,washing machines,null,null,null,null,null,null,1,40,30,40,90,100,80,Average lifespan,Energy savings,NA,NA
NA,NA,NA,NA,NA,choice_trial_setup,html-keyboard-response,34,136887,0.0-4.0-0.15,151,1,2025-05-04T01:36:09Z,b60275e29fe2361ab97ac0ac217840d7,"Mozilla/5.0 (Macintosh; Intel Mac OS X 10_15_7) AppleWebKit/537.36 (KHTML, like Gecko) Chrome/133.0.0.0 Safari/537.36",Macintosh,Chrome,133.0.0.0,OS X,10_15_7,https://5puzkbbxv1.cognition.run/?sona_id=53175,"en-US,en;q=0.9",z6uauq2osesw89a,20,"[""White""]",No,Female,NA,I'm not sure,380448.90000009537,NA,null,<p></p>,null,choice,wwb,trinary,catch,null,washing machines,75,60,50,50,25,30,2,NA,NA,NA,NA,NA,NA,NA,NA,NA,NA
NA,NA,NA,NA,NA,choice_trial,survey-html-form,35,142700,0.0-4.0-1.15,151,1,2025-05-04T01:36:09Z,b60275e29fe2361ab97ac0ac217840d7,"Mozilla/5.0 (Macintosh; Intel Mac OS X 10_15_7) AppleWebKit/537.36 (KHTML, like Gecko) Chrome/133.0.0.0 Safari/537.36",Macintosh,Chrome,133.0.0.0,OS X,10_15_7,https://5puzkbbxv1.cognition.run/?sona_id=53175,"en-US,en;q=0.9",z6uauq2osesw89a,20,"[""White""]",No,Female,NA,I'm not sure,380448.90000009537,NA,5811,NA,"{""product_choice"":""C""}",choice,wwb,trinary,catch,null,washing machines,75,60,50,50,25,30,2,null,null,null,null,null,null,Average lifespan,Energy savings,NA,NA
NA,NA,NA,NA,NA,choice_trial_setup,html-keyboard-response,36,143002,0.0-4.0-0.16,151,1,2025-05-04T01:36:09Z,b60275e29fe2361ab97ac0ac217840d7,"Mozilla/5.0 (Macintosh; Intel Mac OS X 10_15_7) AppleWebKit/537.36 (KHTML, like Gecko) Chrome/133.0.0.0 Safari/537.36",Macintosh,Chrome,133.0.0.0,OS X,10_15_7,https://5puzkbbxv1.cognition.run/?sona_id=53175,"en-US,en;q=0.9",z6uauq2osesw89a,20,"[""White""]",No,Female,NA,I'm not sure,380448.90000009537,NA,null,<p></p>,null,choice,wwb,trinary,catch,null,televisions,50,60,5,10,40,45,1,NA,NA,NA,NA,NA,NA,NA,NA,NA,NA
NA,NA,NA,NA,NA,choice_trial,survey-html-form,37,146316,0.0-4.0-1.16,151,1,2025-05-04T01:36:09Z,b60275e29fe2361ab97ac0ac217840d7,"Mozilla/5.0 (Macintosh; Intel Mac OS X 10_15_7) AppleWebKit/537.36 (KHTML, like Gecko) Chrome/133.0.0.0 Safari/537.36",Macintosh,Chrome,133.0.0.0,OS X,10_15_7,https://5puzkbbxv1.cognition.run/?sona_id=53175,"en-US,en;q=0.9",z6uauq2osesw89a,20,"[""White""]",No,Female,NA,I'm not sure,380448.90000009537,NA,3313,NA,"{""product_choice"":""C""}",choice,wwb,trinary,catch,null,televisions,50,60,5,10,40,45,1,null,null,null,null,null,null,Screen size,Average lifespan,NA,NA
NA,NA,NA,NA,NA,choice_trial_setup,html-keyboard-response,38,146619,0.0-4.0-0.17,151,1,2025-05-04T01:36:09Z,b60275e29fe2361ab97ac0ac217840d7,"Mozilla/5.0 (Macintosh; Intel Mac OS X 10_15_7) AppleWebKit/537.36 (KHTML, like Gecko) Chrome/133.0.0.0 Safari/537.36",Macintosh,Chrome,133.0.0.0,OS X,10_15_7,https://5puzkbbxv1.cognition.run/?sona_id=53175,"en-US,en;q=0.9",z6uauq2osesw89a,20,"[""White""]",No,Female,NA,I'm not sure,380448.90000009537,NA,null,<p></p>,null,choice,dtc,trinary,attraction,1,laptops,null,null,null,null,null,null,2,NA,NA,NA,NA,NA,NA,NA,NA,NA,NA
NA,NA,NA,NA,NA,choice_trial,survey-html-form,39,152750,0.0-4.0-1.17,151,1,2025-05-04T01:36:09Z,b60275e29fe2361ab97ac0ac217840d7,"Mozilla/5.0 (Macintosh; Intel Mac OS X 10_15_7) AppleWebKit/537.36 (KHTML, like Gecko) Chrome/133.0.0.0 Safari/537.36",Macintosh,Chrome,133.0.0.0,OS X,10_15_7,https://5puzkbbxv1.cognition.run/?sona_id=53175,"en-US,en;q=0.9",z6uauq2osesw89a,20,"[""White""]",No,Female,NA,I'm not sure,380448.90000009537,NA,6130,NA,"{""product_choice"":""B""}",choice,dtc,trinary,attraction,1,laptops,null,null,null,null,null,null,2,60,50,60,50,60,40,Processing speed,Memory (RAM),NA,NA
NA,NA,NA,NA,NA,choice_trial_setup,html-keyboard-response,40,153053,0.0-4.0-0.18,151,1,2025-05-04T01:36:09Z,b60275e29fe2361ab97ac0ac217840d7,"Mozilla/5.0 (Macintosh; Intel Mac OS X 10_15_7) AppleWebKit/537.36 (KHTML, like Gecko) Chrome/133.0.0.0 Safari/537.36",Macintosh,Chrome,133.0.0.0,OS X,10_15_7,https://5puzkbbxv1.cognition.run/?sona_id=53175,"en-US,en;q=0.9",z6uauq2osesw89a,20,"[""White""]",No,Female,NA,I'm not sure,380448.90000009537,NA,null,<p></p>,null,choice,cdt,trinary,repulsion_B,1,washing machines,null,null,null,null,null,null,2,NA,NA,NA,NA,NA,NA,NA,NA,NA,NA
NA,NA,NA,NA,NA,choice_trial,survey-html-form,41,159099,0.0-4.0-1.18,151,1,2025-05-04T01:36:09Z,b60275e29fe2361ab97ac0ac217840d7,"Mozilla/5.0 (Macintosh; Intel Mac OS X 10_15_7) AppleWebKit/537.36 (KHTML, like Gecko) Chrome/133.0.0.0 Safari/537.36",Macintosh,Chrome,133.0.0.0,OS X,10_15_7,https://5puzkbbxv1.cognition.run/?sona_id=53175,"en-US,en;q=0.9",z6uauq2osesw89a,20,"[""White""]",No,Female,NA,I'm not sure,380448.90000009537,NA,6043,NA,"{""product_choice"":""A""}",choice,cdt,trinary,repulsion_B,1,washing machines,null,null,null,null,null,null,2,90,100,80,40,30,40,Average lifespan,Energy savings,NA,NA
NA,NA,NA,NA,NA,choice_trial_setup,html-keyboard-response,42,159403,0.0-4.0-0.19,151,1,2025-05-04T01:36:09Z,b60275e29fe2361ab97ac0ac217840d7,"Mozilla/5.0 (Macintosh; Intel Mac OS X 10_15_7) AppleWebKit/537.36 (KHTML, like Gecko) Chrome/133.0.0.0 Safari/537.36",Macintosh,Chrome,133.0.0.0,OS X,10_15_7,https://5puzkbbxv1.cognition.run/?sona_id=53175,"en-US,en;q=0.9",z6uauq2osesw89a,20,"[""White""]",No,Female,NA,I'm not sure,380448.90000009537,NA,null,<p></p>,null,choice,cdt,trinary,repulsion_A,1,microwave ovens,null,null,null,null,null,null,1,NA,NA,NA,NA,NA,NA,NA,NA,NA,NA
NA,NA,NA,NA,NA,choice_trial,survey-html-form,43,165382,0.0-4.0-1.19,151,1,2025-05-04T01:36:09Z,b60275e29fe2361ab97ac0ac217840d7,"Mozilla/5.0 (Macintosh; Intel Mac OS X 10_15_7) AppleWebKit/537.36 (KHTML, like Gecko) Chrome/133.0.0.0 Safari/537.36",Macintosh,Chrome,133.0.0.0,OS X,10_15_7,https://5puzkbbxv1.cognition.run/?sona_id=53175,"en-US,en;q=0.9",z6uauq2osesw89a,20,"[""White""]",No,Female,NA,I'm not sure,380448.90000009537,NA,5975,NA,"{""product_choice"":""A""}",choice,cdt,trinary,repulsion_A,1,microwave ovens,null,null,null,null,null,null,1,100,90,100,30,40,20,Warranty,Cooking power,NA,NA
NA,NA,NA,NA,NA,choice_trial_setup,html-keyboard-response,44,165686,0.0-4.0-0.20,151,1,2025-05-04T01:36:09Z,b60275e29fe2361ab97ac0ac217840d7,"Mozilla/5.0 (Macintosh; Intel Mac OS X 10_15_7) AppleWebKit/537.36 (KHTML, like Gecko) Chrome/133.0.0.0 Safari/537.36",Macintosh,Chrome,133.0.0.0,OS X,10_15_7,https://5puzkbbxv1.cognition.run/?sona_id=53175,"en-US,en;q=0.9",z6uauq2osesw89a,20,"[""White""]",No,Female,NA,I'm not sure,380448.90000009537,NA,null,<p></p>,null,choice,dtc,trinary,repulsion_B,1,laptops,null,null,null,null,null,null,1,NA,NA,NA,NA,NA,NA,NA,NA,NA,NA
NA,NA,NA,NA,NA,choice_trial,survey-html-form,45,173565,0.0-4.0-1.20,151,1,2025-05-04T01:36:09Z,b60275e29fe2361ab97ac0ac217840d7,"Mozilla/5.0 (Macintosh; Intel Mac OS X 10_15_7) AppleWebKit/537.36 (KHTML, like Gecko) Chrome/133.0.0.0 Safari/537.36",Macintosh,Chrome,133.0.0.0,OS X,10_15_7,https://5puzkbbxv1.cognition.run/?sona_id=53175,"en-US,en;q=0.9",z6uauq2osesw89a,20,"[""White""]",No,Female,NA,I'm not sure,380448.90000009537,NA,7876,NA,"{""product_choice"":""C""}",choice,dtc,trinary,repulsion_B,1,laptops,null,null,null,null,null,null,1,90,100,80,40,30,40,Processing speed,Memory (RAM),NA,NA
NA,NA,NA,NA,NA,choice_trial_setup,html-keyboard-response,46,173869,0.0-4.0-0.21,151,1,2025-05-04T01:36:09Z,b60275e29fe2361ab97ac0ac217840d7,"Mozilla/5.0 (Macintosh; Intel Mac OS X 10_15_7) AppleWebKit/537.36 (KHTML, like Gecko) Chrome/133.0.0.0 Safari/537.36",Macintosh,Chrome,133.0.0.0,OS X,10_15_7,https://5puzkbbxv1.cognition.run/?sona_id=53175,"en-US,en;q=0.9",z6uauq2osesw89a,20,"[""White""]",No,Female,NA,I'm not sure,380448.90000009537,NA,null,<p></p>,null,choice,ct,binary,repulsion,1,washing machines,null,null,null,null,null,null,2,NA,NA,NA,NA,NA,NA,NA,NA,NA,NA
NA,NA,NA,NA,NA,choice_trial,survey-html-form,47,179165,0.0-4.0-1.21,151,1,2025-05-04T01:36:09Z,b60275e29fe2361ab97ac0ac217840d7,"Mozilla/5.0 (Macintosh; Intel Mac OS X 10_15_7) AppleWebKit/537.36 (KHTML, like Gecko) Chrome/133.0.0.0 Safari/537.36",Macintosh,Chrome,133.0.0.0,OS X,10_15_7,https://5puzkbbxv1.cognition.run/?sona_id=53175,"en-US,en;q=0.9",z6uauq2osesw89a,20,"[""White""]",No,Female,NA,I'm not sure,380448.90000009537,NA,5292,NA,"{""product_choice"":""B""}",choice,ct,binary,repulsion,1,washing machines,null,null,null,null,null,null,2,100,90,null,30,40,null,Average lifespan,Energy savings,NA,NA
NA,NA,NA,NA,NA,choice_trial_setup,html-keyboard-response,48,179469,0.0-4.0-0.22,151,1,2025-05-04T01:36:09Z,b60275e29fe2361ab97ac0ac217840d7,"Mozilla/5.0 (Macintosh; Intel Mac OS X 10_15_7) AppleWebKit/537.36 (KHTML, like Gecko) Chrome/133.0.0.0 Safari/537.36",Macintosh,Chrome,133.0.0.0,OS X,10_15_7,https://5puzkbbxv1.cognition.run/?sona_id=53175,"en-US,en;q=0.9",z6uauq2osesw89a,20,"[""White""]",No,Female,NA,I'm not sure,380448.90000009537,NA,null,<p></p>,null,choice,tc,binary,repulsion,2,microwave ovens,null,null,null,null,null,null,2,NA,NA,NA,NA,NA,NA,NA,NA,NA,NA
NA,NA,NA,NA,NA,choice_trial,survey-html-form,49,184097,0.0-4.0-1.22,151,1,2025-05-04T01:36:09Z,b60275e29fe2361ab97ac0ac217840d7,"Mozilla/5.0 (Macintosh; Intel Mac OS X 10_15_7) AppleWebKit/537.36 (KHTML, like Gecko) Chrome/133.0.0.0 Safari/537.36",Macintosh,Chrome,133.0.0.0,OS X,10_15_7,https://5puzkbbxv1.cognition.run/?sona_id=53175,"en-US,en;q=0.9",z6uauq2osesw89a,20,"[""White""]",No,Female,NA,I'm not sure,380448.90000009537,NA,4624,NA,"{""product_choice"":""A""}",choice,tc,binary,repulsion,2,microwave ovens,null,null,null,null,null,null,2,30,40,null,100,90,null,Warranty,Cooking power,NA,NA
NA,NA,NA,NA,NA,choice_trial_setup,html-keyboard-response,50,184401,0.0-4.0-0.23,151,1,2025-05-04T01:36:09Z,b60275e29fe2361ab97ac0ac217840d7,"Mozilla/5.0 (Macintosh; Intel Mac OS X 10_15_7) AppleWebKit/537.36 (KHTML, like Gecko) Chrome/133.0.0.0 Safari/537.36",Macintosh,Chrome,133.0.0.0,OS X,10_15_7,https://5puzkbbxv1.cognition.run/?sona_id=53175,"en-US,en;q=0.9",z6uauq2osesw89a,20,"[""White""]",No,Female,NA,I'm not sure,380448.90000009537,NA,null,<p></p>,null,choice,ctd,trinary,repulsion_A,2,microwave ovens,null,null,null,null,null,null,1,NA,NA,NA,NA,NA,NA,NA,NA,NA,NA
NA,NA,NA,NA,NA,choice_trial,survey-html-form,51,191546,0.0-4.0-1.23,151,1,2025-05-04T01:36:09Z,b60275e29fe2361ab97ac0ac217840d7,"Mozilla/5.0 (Macintosh; Intel Mac OS X 10_15_7) AppleWebKit/537.36 (KHTML, like Gecko) Chrome/133.0.0.0 Safari/537.36",Macintosh,Chrome,133.0.0.0,OS X,10_15_7,https://5puzkbbxv1.cognition.run/?sona_id=53175,"en-US,en;q=0.9",z6uauq2osesw89a,20,"[""White""]",No,Female,NA,I'm not sure,380448.90000009537,NA,7142,NA,"{""product_choice"":""B""}",choice,ctd,trinary,repulsion_A,2,microwave ovens,null,null,null,null,null,null,1,30,40,20,100,90,100,Warranty,Cooking power,NA,NA
NA,NA,NA,NA,NA,choice_trial_setup,html-keyboard-response,52,191849,0.0-4.0-0.24,151,1,2025-05-04T01:36:09Z,b60275e29fe2361ab97ac0ac217840d7,"Mozilla/5.0 (Macintosh; Intel Mac OS X 10_15_7) AppleWebKit/537.36 (KHTML, like Gecko) Chrome/133.0.0.0 Safari/537.36",Macintosh,Chrome,133.0.0.0,OS X,10_15_7,https://5puzkbbxv1.cognition.run/?sona_id=53175,"en-US,en;q=0.9",z6uauq2osesw89a,20,"[""White""]",No,Female,NA,I'm not sure,380448.90000009537,NA,null,<p></p>,null,choice,tdc,trinary,attraction,2,washing machines,null,null,null,null,null,null,2,NA,NA,NA,NA,NA,NA,NA,NA,NA,NA
NA,NA,NA,NA,NA,choice_trial,survey-html-form,53,199046,0.0-4.0-1.24,151,1,2025-05-04T01:36:09Z,b60275e29fe2361ab97ac0ac217840d7,"Mozilla/5.0 (Macintosh; Intel Mac OS X 10_15_7) AppleWebKit/537.36 (KHTML, like Gecko) Chrome/133.0.0.0 Safari/537.36",Macintosh,Chrome,133.0.0.0,OS X,10_15_7,https://5puzkbbxv1.cognition.run/?sona_id=53175,"en-US,en;q=0.9",z6uauq2osesw89a,20,"[""White""]",No,Female,NA,I'm not sure,380448.90000009537,NA,7194,NA,"{""product_choice"":""C""}",choice,tdc,trinary,attraction,2,washing machines,null,null,null,null,null,null,2,50,60,40,60,50,60,Average lifespan,Energy savings,NA,NA
NA,NA,NA,NA,NA,choice_trial_setup,html-keyboard-response,54,199351,0.0-4.0-0.25,151,1,2025-05-04T01:36:09Z,b60275e29fe2361ab97ac0ac217840d7,"Mozilla/5.0 (Macintosh; Intel Mac OS X 10_15_7) AppleWebKit/537.36 (KHTML, like Gecko) Chrome/133.0.0.0 Safari/537.36",Macintosh,Chrome,133.0.0.0,OS X,10_15_7,https://5puzkbbxv1.cognition.run/?sona_id=53175,"en-US,en;q=0.9",z6uauq2osesw89a,20,"[""White""]",No,Female,NA,I'm not sure,380448.90000009537,NA,null,<p></p>,null,choice,tc,binary,repulsion,1,televisions,null,null,null,null,null,null,2,NA,NA,NA,NA,NA,NA,NA,NA,NA,NA
NA,NA,NA,NA,NA,choice_trial,survey-html-form,55,203778,0.0-4.0-1.25,151,1,2025-05-04T01:36:09Z,b60275e29fe2361ab97ac0ac217840d7,"Mozilla/5.0 (Macintosh; Intel Mac OS X 10_15_7) AppleWebKit/537.36 (KHTML, like Gecko) Chrome/133.0.0.0 Safari/537.36",Macintosh,Chrome,133.0.0.0,OS X,10_15_7,https://5puzkbbxv1.cognition.run/?sona_id=53175,"en-US,en;q=0.9",z6uauq2osesw89a,20,"[""White""]",No,Female,NA,I'm not sure,380448.90000009537,NA,4424,NA,"{""product_choice"":""B""}",choice,tc,binary,repulsion,1,televisions,null,null,null,null,null,null,2,100,90,null,30,40,null,Screen size,Average lifespan,NA,NA
NA,NA,NA,NA,NA,choice_trial_setup,html-keyboard-response,56,204082,0.0-4.0-0.26,151,1,2025-05-04T01:36:09Z,b60275e29fe2361ab97ac0ac217840d7,"Mozilla/5.0 (Macintosh; Intel Mac OS X 10_15_7) AppleWebKit/537.36 (KHTML, like Gecko) Chrome/133.0.0.0 Safari/537.36",Macintosh,Chrome,133.0.0.0,OS X,10_15_7,https://5puzkbbxv1.cognition.run/?sona_id=53175,"en-US,en;q=0.9",z6uauq2osesw89a,20,"[""White""]",No,Female,NA,I'm not sure,380448.90000009537,NA,null,<p></p>,null,choice,ctd,trinary,repulsion_A,2,washing machines,null,null,null,null,null,null,2,NA,NA,NA,NA,NA,NA,NA,NA,NA,NA
NA,NA,NA,NA,NA,choice_trial,survey-html-form,57,208861,0.0-4.0-1.26,151,1,2025-05-04T01:36:09Z,b60275e29fe2361ab97ac0ac217840d7,"Mozilla/5.0 (Macintosh; Intel Mac OS X 10_15_7) AppleWebKit/537.36 (KHTML, like Gecko) Chrome/133.0.0.0 Safari/537.36",Macintosh,Chrome,133.0.0.0,OS X,10_15_7,https://5puzkbbxv1.cognition.run/?sona_id=53175,"en-US,en;q=0.9",z6uauq2osesw89a,20,"[""White""]",No,Female,NA,I'm not sure,380448.90000009537,NA,4776,NA,"{""product_choice"":""A""}",choice,ctd,trinary,repulsion_A,2,washing machines,null,null,null,null,null,null,2,30,40,20,100,90,100,Average lifespan,Energy savings,NA,NA
NA,NA,NA,NA,NA,choice_trial_setup,html-keyboard-response,58,209164,0.0-4.0-0.27,151,1,2025-05-04T01:36:09Z,b60275e29fe2361ab97ac0ac217840d7,"Mozilla/5.0 (Macintosh; Intel Mac OS X 10_15_7) AppleWebKit/537.36 (KHTML, like Gecko) Chrome/133.0.0.0 Safari/537.36",Macintosh,Chrome,133.0.0.0,OS X,10_15_7,https://5puzkbbxv1.cognition.run/?sona_id=53175,"en-US,en;q=0.9",z6uauq2osesw89a,20,"[""White""]",No,Female,NA,I'm not sure,380448.90000009537,NA,null,<p></p>,null,choice,dct,trinary,repulsion_B,2,laptops,null,null,null,null,null,null,2,NA,NA,NA,NA,NA,NA,NA,NA,NA,NA
NA,NA,NA,NA,NA,choice_trial,survey-html-form,59,215112,0.0-4.0-1.27,151,1,2025-05-04T01:36:09Z,b60275e29fe2361ab97ac0ac217840d7,"Mozilla/5.0 (Macintosh; Intel Mac OS X 10_15_7) AppleWebKit/537.36 (KHTML, like Gecko) Chrome/133.0.0.0 Safari/537.36",Macintosh,Chrome,133.0.0.0,OS X,10_15_7,https://5puzkbbxv1.cognition.run/?sona_id=53175,"en-US,en;q=0.9",z6uauq2osesw89a,20,"[""White""]",No,Female,NA,I'm not sure,380448.90000009537,NA,5945,NA,"{""product_choice"":""C""}",choice,dct,trinary,repulsion_B,2,laptops,null,null,null,null,null,null,2,40,30,40,90,100,80,Processing speed,Memory (RAM),NA,NA
NA,NA,NA,NA,NA,choice_trial_setup,html-keyboard-response,60,215416,0.0-4.0-0.28,151,1,2025-05-04T01:36:09Z,b60275e29fe2361ab97ac0ac217840d7,"Mozilla/5.0 (Macintosh; Intel Mac OS X 10_15_7) AppleWebKit/537.36 (KHTML, like Gecko) Chrome/133.0.0.0 Safari/537.36",Macintosh,Chrome,133.0.0.0,OS X,10_15_7,https://5puzkbbxv1.cognition.run/?sona_id=53175,"en-US,en;q=0.9",z6uauq2osesw89a,20,"[""White""]",No,Female,NA,I'm not sure,380448.90000009537,NA,null,<p></p>,null,choice,tc,binary,attraction,NA,washing machines,null,null,null,null,null,null,2,NA,NA,NA,NA,NA,NA,NA,NA,NA,NA
NA,NA,NA,NA,NA,choice_trial,survey-html-form,61,220212,0.0-4.0-1.28,151,1,2025-05-04T01:36:09Z,b60275e29fe2361ab97ac0ac217840d7,"Mozilla/5.0 (Macintosh; Intel Mac OS X 10_15_7) AppleWebKit/537.36 (KHTML, like Gecko) Chrome/133.0.0.0 Safari/537.36",Macintosh,Chrome,133.0.0.0,OS X,10_15_7,https://5puzkbbxv1.cognition.run/?sona_id=53175,"en-US,en;q=0.9",z6uauq2osesw89a,20,"[""White""]",No,Female,NA,I'm not sure,380448.90000009537,NA,4793,NA,"{""product_choice"":""A""}",choice,tc,binary,attraction,NA,washing machines,null,null,null,null,null,null,2,60,50,null,50,60,null,Average lifespan,Energy savings,NA,NA
NA,NA,NA,NA,NA,choice_trial_setup,html-keyboard-response,62,220516,0.0-4.0-0.29,151,1,2025-05-04T01:36:09Z,b60275e29fe2361ab97ac0ac217840d7,"Mozilla/5.0 (Macintosh; Intel Mac OS X 10_15_7) AppleWebKit/537.36 (KHTML, like Gecko) Chrome/133.0.0.0 Safari/537.36",Macintosh,Chrome,133.0.0.0,OS X,10_15_7,https://5puzkbbxv1.cognition.run/?sona_id=53175,"en-US,en;q=0.9",z6uauq2osesw89a,20,"[""White""]",No,Female,NA,I'm not sure,380448.90000009537,NA,null,<p></p>,null,choice,dct,trinary,repulsion_A,1,washing machines,null,null,null,null,null,null,2,NA,NA,NA,NA,NA,NA,NA,NA,NA,NA
NA,NA,NA,NA,NA,choice_trial,survey-html-form,63,224595,0.0-4.0-1.29,151,1,2025-05-04T01:36:09Z,b60275e29fe2361ab97ac0ac217840d7,"Mozilla/5.0 (Macintosh; Intel Mac OS X 10_15_7) AppleWebKit/537.36 (KHTML, like Gecko) Chrome/133.0.0.0 Safari/537.36",Macintosh,Chrome,133.0.0.0,OS X,10_15_7,https://5puzkbbxv1.cognition.run/?sona_id=53175,"en-US,en;q=0.9",z6uauq2osesw89a,20,"[""White""]",No,Female,NA,I'm not sure,380448.90000009537,NA,4074,NA,"{""product_choice"":""C""}",choice,dct,trinary,repulsion_A,1,washing machines,null,null,null,null,null,null,2,100,90,100,30,40,20,Average lifespan,Energy savings,NA,NA
NA,NA,NA,NA,NA,choice_trial_setup,html-keyboard-response,64,224899,0.0-4.0-0.30,151,1,2025-05-04T01:36:09Z,b60275e29fe2361ab97ac0ac217840d7,"Mozilla/5.0 (Macintosh; Intel Mac OS X 10_15_7) AppleWebKit/537.36 (KHTML, like Gecko) Chrome/133.0.0.0 Safari/537.36",Macintosh,Chrome,133.0.0.0,OS X,10_15_7,https://5puzkbbxv1.cognition.run/?sona_id=53175,"en-US,en;q=0.9",z6uauq2osesw89a,20,"[""White""]",No,Female,NA,I'm not sure,380448.90000009537,NA,null,<p></p>,null,choice,cdt,trinary,attraction,1,microwave ovens,null,null,null,null,null,null,2,NA,NA,NA,NA,NA,NA,NA,NA,NA,NA
NA,NA,NA,NA,NA,choice_trial,survey-html-form,65,229061,0.0-4.0-1.30,151,1,2025-05-04T01:36:09Z,b60275e29fe2361ab97ac0ac217840d7,"Mozilla/5.0 (Macintosh; Intel Mac OS X 10_15_7) AppleWebKit/537.36 (KHTML, like Gecko) Chrome/133.0.0.0 Safari/537.36",Macintosh,Chrome,133.0.0.0,OS X,10_15_7,https://5puzkbbxv1.cognition.run/?sona_id=53175,"en-US,en;q=0.9",z6uauq2osesw89a,20,"[""White""]",No,Female,NA,I'm not sure,380448.90000009537,NA,4158,NA,"{""product_choice"":""C""}",choice,cdt,trinary,attraction,1,microwave ovens,null,null,null,null,null,null,2,60,50,60,50,60,40,Warranty,Cooking power,NA,NA
NA,NA,NA,NA,NA,choice_trial_setup,html-keyboard-response,66,229364,0.0-4.0-0.31,151,1,2025-05-04T01:36:09Z,b60275e29fe2361ab97ac0ac217840d7,"Mozilla/5.0 (Macintosh; Intel Mac OS X 10_15_7) AppleWebKit/537.36 (KHTML, like Gecko) Chrome/133.0.0.0 Safari/537.36",Macintosh,Chrome,133.0.0.0,OS X,10_15_7,https://5puzkbbxv1.cognition.run/?sona_id=53175,"en-US,en;q=0.9",z6uauq2osesw89a,20,"[""White""]",No,Female,NA,I'm not sure,380448.90000009537,NA,null,<p></p>,null,choice,tcd,trinary,repulsion_A,1,televisions,null,null,null,null,null,null,1,NA,NA,NA,NA,NA,NA,NA,NA,NA,NA
NA,NA,NA,NA,NA,choice_trial,survey-html-form,67,234178,0.0-4.0-1.31,151,1,2025-05-04T01:36:09Z,b60275e29fe2361ab97ac0ac217840d7,"Mozilla/5.0 (Macintosh; Intel Mac OS X 10_15_7) AppleWebKit/537.36 (KHTML, like Gecko) Chrome/133.0.0.0 Safari/537.36",Macintosh,Chrome,133.0.0.0,OS X,10_15_7,https://5puzkbbxv1.cognition.run/?sona_id=53175,"en-US,en;q=0.9",z6uauq2osesw89a,20,"[""White""]",No,Female,NA,I'm not sure,380448.90000009537,NA,4811,NA,"{""product_choice"":""B""}",choice,tcd,trinary,repulsion_A,1,televisions,null,null,null,null,null,null,1,100,90,100,30,40,20,Screen size,Average lifespan,NA,NA
NA,NA,NA,NA,NA,choice_trial_setup,html-keyboard-response,68,234482,0.0-4.0-0.32,151,1,2025-05-04T01:36:09Z,b60275e29fe2361ab97ac0ac217840d7,"Mozilla/5.0 (Macintosh; Intel Mac OS X 10_15_7) AppleWebKit/537.36 (KHTML, like Gecko) Chrome/133.0.0.0 Safari/537.36",Macintosh,Chrome,133.0.0.0,OS X,10_15_7,https://5puzkbbxv1.cognition.run/?sona_id=53175,"en-US,en;q=0.9",z6uauq2osesw89a,20,"[""White""]",No,Female,NA,I'm not sure,380448.90000009537,NA,null,<p></p>,null,choice,dtc,trinary,attraction,1,televisions,null,null,null,null,null,null,2,NA,NA,NA,NA,NA,NA,NA,NA,NA,NA
NA,NA,NA,NA,NA,choice_trial,survey-html-form,69,238778,0.0-4.0-1.32,151,1,2025-05-04T01:36:09Z,b60275e29fe2361ab97ac0ac217840d7,"Mozilla/5.0 (Macintosh; Intel Mac OS X 10_15_7) AppleWebKit/537.36 (KHTML, like Gecko) Chrome/133.0.0.0 Safari/537.36",Macintosh,Chrome,133.0.0.0,OS X,10_15_7,https://5puzkbbxv1.cognition.run/?sona_id=53175,"en-US,en;q=0.9",z6uauq2osesw89a,20,"[""White""]",No,Female,NA,I'm not sure,380448.90000009537,NA,4294,NA,"{""product_choice"":""C""}",choice,dtc,trinary,attraction,1,televisions,null,null,null,null,null,null,2,60,50,60,50,60,40,Screen size,Average lifespan,NA,NA
NA,NA,NA,NA,NA,choice_trial_setup,html-keyboard-response,70,239082,0.0-4.0-0.33,151,1,2025-05-04T01:36:09Z,b60275e29fe2361ab97ac0ac217840d7,"Mozilla/5.0 (Macintosh; Intel Mac OS X 10_15_7) AppleWebKit/537.36 (KHTML, like Gecko) Chrome/133.0.0.0 Safari/537.36",Macintosh,Chrome,133.0.0.0,OS X,10_15_7,https://5puzkbbxv1.cognition.run/?sona_id=53175,"en-US,en;q=0.9",z6uauq2osesw89a,20,"[""White""]",No,Female,NA,I'm not sure,380448.90000009537,NA,null,<p></p>,null,choice,cdt,trinary,repulsion_A,1,laptops,null,null,null,null,null,null,2,NA,NA,NA,NA,NA,NA,NA,NA,NA,NA
NA,NA,NA,NA,NA,choice_trial,survey-html-form,71,242776,0.0-4.0-1.33,151,1,2025-05-04T01:36:09Z,b60275e29fe2361ab97ac0ac217840d7,"Mozilla/5.0 (Macintosh; Intel Mac OS X 10_15_7) AppleWebKit/537.36 (KHTML, like Gecko) Chrome/133.0.0.0 Safari/537.36",Macintosh,Chrome,133.0.0.0,OS X,10_15_7,https://5puzkbbxv1.cognition.run/?sona_id=53175,"en-US,en;q=0.9",z6uauq2osesw89a,20,"[""White""]",No,Female,NA,I'm not sure,380448.90000009537,NA,3689,NA,"{""product_choice"":""C""}",choice,cdt,trinary,repulsion_A,1,laptops,null,null,null,null,null,null,2,100,90,100,30,40,20,Processing speed,Memory (RAM),NA,NA
NA,NA,NA,NA,NA,choice_trial_setup,html-keyboard-response,72,243079,0.0-4.0-0.34,151,1,2025-05-04T01:36:09Z,b60275e29fe2361ab97ac0ac217840d7,"Mozilla/5.0 (Macintosh; Intel Mac OS X 10_15_7) AppleWebKit/537.36 (KHTML, like Gecko) Chrome/133.0.0.0 Safari/537.36",Macintosh,Chrome,133.0.0.0,OS X,10_15_7,https://5puzkbbxv1.cognition.run/?sona_id=53175,"en-US,en;q=0.9",z6uauq2osesw89a,20,"[""White""]",No,Female,NA,I'm not sure,380448.90000009537,NA,null,<p></p>,null,choice,ct,binary,attraction,NA,microwave ovens,null,null,null,null,null,null,1,NA,NA,NA,NA,NA,NA,NA,NA,NA,NA
NA,NA,NA,NA,NA,choice_trial,survey-html-form,73,252343,0.0-4.0-1.34,151,1,2025-05-04T01:36:09Z,b60275e29fe2361ab97ac0ac217840d7,"Mozilla/5.0 (Macintosh; Intel Mac OS X 10_15_7) AppleWebKit/537.36 (KHTML, like Gecko) Chrome/133.0.0.0 Safari/537.36",Macintosh,Chrome,133.0.0.0,OS X,10_15_7,https://5puzkbbxv1.cognition.run/?sona_id=53175,"en-US,en;q=0.9",z6uauq2osesw89a,20,"[""White""]",No,Female,NA,I'm not sure,380448.90000009537,NA,9262,NA,"{""product_choice"":""A""}",choice,ct,binary,attraction,NA,microwave ovens,null,null,null,null,null,null,1,60,50,null,50,60,null,Warranty,Cooking power,NA,NA
NA,NA,NA,NA,NA,choice_trial_setup,html-keyboard-response,74,252647,0.0-4.0-0.35,151,1,2025-05-04T01:36:09Z,b60275e29fe2361ab97ac0ac217840d7,"Mozilla/5.0 (Macintosh; Intel Mac OS X 10_15_7) AppleWebKit/537.36 (KHTML, like Gecko) Chrome/133.0.0.0 Safari/537.36",Macintosh,Chrome,133.0.0.0,OS X,10_15_7,https://5puzkbbxv1.cognition.run/?sona_id=53175,"en-US,en;q=0.9",z6uauq2osesw89a,20,"[""White""]",No,Female,NA,I'm not sure,380448.90000009537,NA,null,<p></p>,null,choice,tcd,trinary,repulsion_B,2,televisions,null,null,null,null,null,null,1,NA,NA,NA,NA,NA,NA,NA,NA,NA,NA
NA,NA,NA,NA,NA,choice_trial,survey-html-form,75,257442,0.0-4.0-1.35,151,1,2025-05-04T01:36:09Z,b60275e29fe2361ab97ac0ac217840d7,"Mozilla/5.0 (Macintosh; Intel Mac OS X 10_15_7) AppleWebKit/537.36 (KHTML, like Gecko) Chrome/133.0.0.0 Safari/537.36",Macintosh,Chrome,133.0.0.0,OS X,10_15_7,https://5puzkbbxv1.cognition.run/?sona_id=53175,"en-US,en;q=0.9",z6uauq2osesw89a,20,"[""White""]",No,Female,NA,I'm not sure,380448.90000009537,NA,4791,NA,"{""product_choice"":""B""}",choice,tcd,trinary,repulsion_B,2,televisions,null,null,null,null,null,null,1,40,30,40,90,100,80,Screen size,Average lifespan,NA,NA
NA,NA,NA,NA,NA,choice_trial_setup,html-keyboard-response,76,257746,0.0-4.0-0.36,151,1,2025-05-04T01:36:09Z,b60275e29fe2361ab97ac0ac217840d7,"Mozilla/5.0 (Macintosh; Intel Mac OS X 10_15_7) AppleWebKit/537.36 (KHTML, like Gecko) Chrome/133.0.0.0 Safari/537.36",Macintosh,Chrome,133.0.0.0,OS X,10_15_7,https://5puzkbbxv1.cognition.run/?sona_id=53175,"en-US,en;q=0.9",z6uauq2osesw89a,20,"[""White""]",No,Female,NA,I'm not sure,380448.90000009537,NA,null,<p></p>,null,choice,tc,binary,repulsion,1,laptops,null,null,null,null,null,null,1,NA,NA,NA,NA,NA,NA,NA,NA,NA,NA
NA,NA,NA,NA,NA,choice_trial,survey-html-form,77,260342,0.0-4.0-1.36,151,1,2025-05-04T01:36:09Z,b60275e29fe2361ab97ac0ac217840d7,"Mozilla/5.0 (Macintosh; Intel Mac OS X 10_15_7) AppleWebKit/537.36 (KHTML, like Gecko) Chrome/133.0.0.0 Safari/537.36",Macintosh,Chrome,133.0.0.0,OS X,10_15_7,https://5puzkbbxv1.cognition.run/?sona_id=53175,"en-US,en;q=0.9",z6uauq2osesw89a,20,"[""White""]",No,Female,NA,I'm not sure,380448.90000009537,NA,2593,NA,"{""product_choice"":""A""}",choice,tc,binary,repulsion,1,laptops,null,null,null,null,null,null,1,100,90,null,30,40,null,Processing speed,Memory (RAM),NA,NA
NA,NA,NA,NA,NA,choice_trial_setup,html-keyboard-response,78,260647,0.0-4.0-0.37,151,1,2025-05-04T01:36:09Z,b60275e29fe2361ab97ac0ac217840d7,"Mozilla/5.0 (Macintosh; Intel Mac OS X 10_15_7) AppleWebKit/537.36 (KHTML, like Gecko) Chrome/133.0.0.0 Safari/537.36",Macintosh,Chrome,133.0.0.0,OS X,10_15_7,https://5puzkbbxv1.cognition.run/?sona_id=53175,"en-US,en;q=0.9",z6uauq2osesw89a,20,"[""White""]",No,Female,NA,I'm not sure,380448.90000009537,NA,null,<p></p>,null,choice,wb,binary,catch,null,microwave ovens,50,80,50,25,null,null,1,NA,NA,NA,NA,NA,NA,NA,NA,NA,NA
NA,NA,NA,NA,NA,choice_trial,survey-html-form,79,264409,0.0-4.0-1.37,151,1,2025-05-04T01:36:09Z,b60275e29fe2361ab97ac0ac217840d7,"Mozilla/5.0 (Macintosh; Intel Mac OS X 10_15_7) AppleWebKit/537.36 (KHTML, like Gecko) Chrome/133.0.0.0 Safari/537.36",Macintosh,Chrome,133.0.0.0,OS X,10_15_7,https://5puzkbbxv1.cognition.run/?sona_id=53175,"en-US,en;q=0.9",z6uauq2osesw89a,20,"[""White""]",No,Female,NA,I'm not sure,380448.90000009537,NA,3757,NA,"{""product_choice"":""B""}",choice,wb,binary,catch,null,microwave ovens,50,80,50,25,null,null,1,null,null,null,null,null,null,Warranty,Cooking power,NA,NA
NA,NA,NA,NA,NA,choice_trial_setup,html-keyboard-response,80,264713,0.0-4.0-0.38,151,1,2025-05-04T01:36:09Z,b60275e29fe2361ab97ac0ac217840d7,"Mozilla/5.0 (Macintosh; Intel Mac OS X 10_15_7) AppleWebKit/537.36 (KHTML, like Gecko) Chrome/133.0.0.0 Safari/537.36",Macintosh,Chrome,133.0.0.0,OS X,10_15_7,https://5puzkbbxv1.cognition.run/?sona_id=53175,"en-US,en;q=0.9",z6uauq2osesw89a,20,"[""White""]",No,Female,NA,I'm not sure,380448.90000009537,NA,null,<p></p>,null,choice,ct,binary,repulsion,1,microwave ovens,null,null,null,null,null,null,2,NA,NA,NA,NA,NA,NA,NA,NA,NA,NA
NA,NA,NA,NA,NA,choice_trial,survey-html-form,81,270256,0.0-4.0-1.38,151,1,2025-05-04T01:36:09Z,b60275e29fe2361ab97ac0ac217840d7,"Mozilla/5.0 (Macintosh; Intel Mac OS X 10_15_7) AppleWebKit/537.36 (KHTML, like Gecko) Chrome/133.0.0.0 Safari/537.36",Macintosh,Chrome,133.0.0.0,OS X,10_15_7,https://5puzkbbxv1.cognition.run/?sona_id=53175,"en-US,en;q=0.9",z6uauq2osesw89a,20,"[""White""]",No,Female,NA,I'm not sure,380448.90000009537,NA,5540,NA,"{""product_choice"":""A""}",choice,ct,binary,repulsion,1,microwave ovens,null,null,null,null,null,null,2,100,90,null,30,40,null,Warranty,Cooking power,NA,NA
NA,NA,NA,NA,NA,choice_trial_setup,html-keyboard-response,82,270560,0.0-4.0-0.39,151,1,2025-05-04T01:36:09Z,b60275e29fe2361ab97ac0ac217840d7,"Mozilla/5.0 (Macintosh; Intel Mac OS X 10_15_7) AppleWebKit/537.36 (KHTML, like Gecko) Chrome/133.0.0.0 Safari/537.36",Macintosh,Chrome,133.0.0.0,OS X,10_15_7,https://5puzkbbxv1.cognition.run/?sona_id=53175,"en-US,en;q=0.9",z6uauq2osesw89a,20,"[""White""]",No,Female,NA,I'm not sure,380448.90000009537,NA,null,<p></p>,null,choice,bw,binary,catch,null,televisions,85,65,15,25,null,null,2,NA,NA,NA,NA,NA,NA,NA,NA,NA,NA
NA,NA,NA,NA,NA,choice_trial,survey-html-form,83,273574,0.0-4.0-1.39,151,1,2025-05-04T01:36:09Z,b60275e29fe2361ab97ac0ac217840d7,"Mozilla/5.0 (Macintosh; Intel Mac OS X 10_15_7) AppleWebKit/537.36 (KHTML, like Gecko) Chrome/133.0.0.0 Safari/537.36",Macintosh,Chrome,133.0.0.0,OS X,10_15_7,https://5puzkbbxv1.cognition.run/?sona_id=53175,"en-US,en;q=0.9",z6uauq2osesw89a,20,"[""White""]",No,Female,NA,I'm not sure,380448.90000009537,NA,3009,NA,"{""product_choice"":""A""}",choice,bw,binary,catch,null,televisions,85,65,15,25,null,null,2,null,null,null,null,null,null,Screen size,Average lifespan,NA,NA
NA,NA,NA,NA,NA,choice_trial_setup,html-keyboard-response,84,273879,0.0-4.0-0.40,151,1,2025-05-04T01:36:09Z,b60275e29fe2361ab97ac0ac217840d7,"Mozilla/5.0 (Macintosh; Intel Mac OS X 10_15_7) AppleWebKit/537.36 (KHTML, like Gecko) Chrome/133.0.0.0 Safari/537.36",Macintosh,Chrome,133.0.0.0,OS X,10_15_7,https://5puzkbbxv1.cognition.run/?sona_id=53175,"en-US,en;q=0.9",z6uauq2osesw89a,20,"[""White""]",No,Female,NA,I'm not sure,380448.90000009537,NA,null,<p></p>,null,choice,ct,binary,attraction,NA,televisions,null,null,null,null,null,null,1,NA,NA,NA,NA,NA,NA,NA,NA,NA,NA
NA,NA,NA,NA,NA,choice_trial,survey-html-form,85,276674,0.0-4.0-1.40,151,1,2025-05-04T01:36:09Z,b60275e29fe2361ab97ac0ac217840d7,"Mozilla/5.0 (Macintosh; Intel Mac OS X 10_15_7) AppleWebKit/537.36 (KHTML, like Gecko) Chrome/133.0.0.0 Safari/537.36",Macintosh,Chrome,133.0.0.0,OS X,10_15_7,https://5puzkbbxv1.cognition.run/?sona_id=53175,"en-US,en;q=0.9",z6uauq2osesw89a,20,"[""White""]",No,Female,NA,I'm not sure,380448.90000009537,NA,2790,NA,"{""product_choice"":""A""}",choice,ct,binary,attraction,NA,televisions,null,null,null,null,null,null,1,60,50,null,50,60,null,Screen size,Average lifespan,NA,NA
NA,NA,NA,NA,NA,choice_trial_setup,html-keyboard-response,86,276979,0.0-4.0-0.41,151,1,2025-05-04T01:36:09Z,b60275e29fe2361ab97ac0ac217840d7,"Mozilla/5.0 (Macintosh; Intel Mac OS X 10_15_7) AppleWebKit/537.36 (KHTML, like Gecko) Chrome/133.0.0.0 Safari/537.36",Macintosh,Chrome,133.0.0.0,OS X,10_15_7,https://5puzkbbxv1.cognition.run/?sona_id=53175,"en-US,en;q=0.9",z6uauq2osesw89a,20,"[""White""]",No,Female,NA,I'm not sure,380448.90000009537,NA,null,<p></p>,null,choice,bww,trinary,catch,null,microwave ovens,55,70,20,15,30,40,1,NA,NA,NA,NA,NA,NA,NA,NA,NA,NA
NA,NA,NA,NA,NA,choice_trial,survey-html-form,87,281056,0.0-4.0-1.41,151,1,2025-05-04T01:36:09Z,b60275e29fe2361ab97ac0ac217840d7,"Mozilla/5.0 (Macintosh; Intel Mac OS X 10_15_7) AppleWebKit/537.36 (KHTML, like Gecko) Chrome/133.0.0.0 Safari/537.36",Macintosh,Chrome,133.0.0.0,OS X,10_15_7,https://5puzkbbxv1.cognition.run/?sona_id=53175,"en-US,en;q=0.9",z6uauq2osesw89a,20,"[""White""]",No,Female,NA,I'm not sure,380448.90000009537,NA,4072,NA,"{""product_choice"":""A""}",choice,bww,trinary,catch,null,microwave ovens,55,70,20,15,30,40,1,null,null,null,null,null,null,Warranty,Cooking power,NA,NA
NA,NA,NA,NA,NA,choice_trial_setup,html-keyboard-response,88,281359,0.0-4.0-0.42,151,1,2025-05-04T01:36:09Z,b60275e29fe2361ab97ac0ac217840d7,"Mozilla/5.0 (Macintosh; Intel Mac OS X 10_15_7) AppleWebKit/537.36 (KHTML, like Gecko) Chrome/133.0.0.0 Safari/537.36",Macintosh,Chrome,133.0.0.0,OS X,10_15_7,https://5puzkbbxv1.cognition.run/?sona_id=53175,"en-US,en;q=0.9",z6uauq2osesw89a,20,"[""White""]",No,Female,NA,I'm not sure,380448.90000009537,NA,null,<p></p>,null,choice,dtc,trinary,repulsion_B,1,televisions,null,null,null,null,null,null,1,NA,NA,NA,NA,NA,NA,NA,NA,NA,NA
NA,NA,NA,NA,NA,choice_trial,survey-html-form,89,285240,0.0-4.0-1.42,151,1,2025-05-04T01:36:09Z,b60275e29fe2361ab97ac0ac217840d7,"Mozilla/5.0 (Macintosh; Intel Mac OS X 10_15_7) AppleWebKit/537.36 (KHTML, like Gecko) Chrome/133.0.0.0 Safari/537.36",Macintosh,Chrome,133.0.0.0,OS X,10_15_7,https://5puzkbbxv1.cognition.run/?sona_id=53175,"en-US,en;q=0.9",z6uauq2osesw89a,20,"[""White""]",No,Female,NA,I'm not sure,380448.90000009537,NA,3875,NA,"{""product_choice"":""B""}",choice,dtc,trinary,repulsion_B,1,televisions,null,null,null,null,null,null,1,90,100,80,40,30,40,Screen size,Average lifespan,NA,NA
NA,NA,NA,NA,NA,choice_trial_setup,html-keyboard-response,90,285545,0.0-4.0-0.43,151,1,2025-05-04T01:36:09Z,b60275e29fe2361ab97ac0ac217840d7,"Mozilla/5.0 (Macintosh; Intel Mac OS X 10_15_7) AppleWebKit/537.36 (KHTML, like Gecko) Chrome/133.0.0.0 Safari/537.36",Macintosh,Chrome,133.0.0.0,OS X,10_15_7,https://5puzkbbxv1.cognition.run/?sona_id=53175,"en-US,en;q=0.9",z6uauq2osesw89a,20,"[""White""]",No,Female,NA,I'm not sure,380448.90000009537,NA,null,<p></p>,null,choice,tcd,trinary,attraction,2,laptops,null,null,null,null,null,null,2,NA,NA,NA,NA,NA,NA,NA,NA,NA,NA
NA,NA,NA,NA,NA,choice_trial,survey-html-form,91,289340,0.0-4.0-1.43,151,1,2025-05-04T01:36:09Z,b60275e29fe2361ab97ac0ac217840d7,"Mozilla/5.0 (Macintosh; Intel Mac OS X 10_15_7) AppleWebKit/537.36 (KHTML, like Gecko) Chrome/133.0.0.0 Safari/537.36",Macintosh,Chrome,133.0.0.0,OS X,10_15_7,https://5puzkbbxv1.cognition.run/?sona_id=53175,"en-US,en;q=0.9",z6uauq2osesw89a,20,"[""White""]",No,Female,NA,I'm not sure,380448.90000009537,NA,3789,NA,"{""product_choice"":""B""}",choice,tcd,trinary,attraction,2,laptops,null,null,null,null,null,null,2,50,60,40,60,50,60,Processing speed,Memory (RAM),NA,NA
NA,NA,NA,NA,NA,post_trials_message,html-button-response,92,291507,0.0-5.0,151,1,2025-05-04T01:36:09Z,b60275e29fe2361ab97ac0ac217840d7,"Mozilla/5.0 (Macintosh; Intel Mac OS X 10_15_7) AppleWebKit/537.36 (KHTML, like Gecko) Chrome/133.0.0.0 Safari/537.36",Macintosh,Chrome,133.0.0.0,OS X,10_15_7,https://5puzkbbxv1.cognition.run/?sona_id=53175,"en-US,en;q=0.9",z6uauq2osesw89a,20,"[""White""]",No,Female,NA,I'm not sure,380448.90000009537,NA,2162,<p> <b>Thank you for your patience!</b></p><p>  The study will be done after completing a brief form. </p>,0,NA,NA,NA,NA,NA,NA,NA,NA,NA,NA,NA,NA,NA,NA,NA,NA,NA,NA,NA,NA,NA,NA,NA
NA,NA,NA,NA,NA,survey_message,survey-text,93,344337,0.0-6.0,151,1,2025-05-04T01:36:09Z,b60275e29fe2361ab97ac0ac217840d7,"Mozilla/5.0 (Macintosh; Intel Mac OS X 10_15_7) AppleWebKit/537.36 (KHTML, like Gecko) Chrome/133.0.0.0 Safari/537.36",Macintosh,Chrome,133.0.0.0,OS X,10_15_7,https://5puzkbbxv1.cognition.run/?sona_id=53175,"en-US,en;q=0.9",z6uauq2osesw89a,20,"[""White""]",No,Female,NA,I'm not sure,380448.90000009537,NA,52826,NA,"{""Q0"":""I looked at the best options for the things I cared about and selected those and if I did not have a preference I went with the higher rating.  ""}",NA,NA,NA,NA,NA,NA,NA,NA,NA,NA,NA,NA,NA,NA,NA,NA,NA,NA,NA,NA,NA,I looked at the best options for the things I cared about and selected those and if I did not have a preference I went with the higher rating.,NA
NA,NA,NA,NA,NA,demo_age,survey-text,94,349171,0.0-7.0,151,1,2025-05-04T01:36:09Z,b60275e29fe2361ab97ac0ac217840d7,"Mozilla/5.0 (Macintosh; Intel Mac OS X 10_15_7) AppleWebKit/537.36 (KHTML, like Gecko) Chrome/133.0.0.0 Safari/537.36",Macintosh,Chrome,133.0.0.0,OS X,10_15_7,https://5puzkbbxv1.cognition.run/?sona_id=53175,"en-US,en;q=0.9",z6uauq2osesw89a,20,"[""White""]",No,Female,NA,I'm not sure,380448.90000009537,NA,4829,NA,"{""Q0"":""20""}",NA,NA,NA,NA,NA,NA,NA,NA,NA,NA,NA,NA,NA,NA,NA,NA,NA,NA,NA,NA,NA,NA,NA
NA,NA,NA,NA,NA,demo_race,survey-multi-select,95,351953,0.0-8.0,151,1,2025-05-04T01:36:09Z,b60275e29fe2361ab97ac0ac217840d7,"Mozilla/5.0 (Macintosh; Intel Mac OS X 10_15_7) AppleWebKit/537.36 (KHTML, like Gecko) Chrome/133.0.0.0 Safari/537.36",Macintosh,Chrome,133.0.0.0,OS X,10_15_7,https://5puzkbbxv1.cognition.run/?sona_id=53175,"en-US,en;q=0.9",z6uauq2osesw89a,20,"[""White""]",No,Female,NA,I'm not sure,380448.90000009537,NA,2776,NA,"{""Q0"":[""White""]}",NA,NA,NA,NA,NA,NA,NA,NA,NA,NA,NA,NA,NA,NA,NA,NA,NA,NA,NA,NA,NA,NA,[0]
NA,NA,NA,NA,NA,demo_ethnicity_gender,survey-multi-choice,96,355853,0.0-9.0,151,1,2025-05-04T01:36:09Z,b60275e29fe2361ab97ac0ac217840d7,"Mozilla/5.0 (Macintosh; Intel Mac OS X 10_15_7) AppleWebKit/537.36 (KHTML, like Gecko) Chrome/133.0.0.0 Safari/537.36",Macintosh,Chrome,133.0.0.0,OS X,10_15_7,https://5puzkbbxv1.cognition.run/?sona_id=53175,"en-US,en;q=0.9",z6uauq2osesw89a,20,"[""White""]",No,Female,NA,I'm not sure,380448.90000009537,NA,3895,NA,"{""Q0"":""No"",""Q1"":""Female""}",NA,NA,NA,NA,NA,NA,NA,NA,NA,NA,NA,NA,NA,NA,NA,NA,NA,NA,NA,NA,NA,NA,"[0,1]"
NA,NA,NA,NA,NA,demo_countries,survey-text,97,362937,0.0-10.0,151,1,2025-05-04T01:36:09Z,b60275e29fe2361ab97ac0ac217840d7,"Mozilla/5.0 (Macintosh; Intel Mac OS X 10_15_7) AppleWebKit/537.36 (KHTML, like Gecko) Chrome/133.0.0.0 Safari/537.36",Macintosh,Chrome,133.0.0.0,OS X,10_15_7,https://5puzkbbxv1.cognition.run/?sona_id=53175,"en-US,en;q=0.9",z6uauq2osesw89a,20,"[""White""]",No,Female,NA,I'm not sure,380448.90000009537,NA,7070,NA,"{""Q0"":""NA""}",NA,NA,NA,NA,NA,NA,NA,NA,NA,NA,NA,NA,NA,NA,NA,NA,NA,NA,NA,NA,NA,NA,NA
NA,NA,NA,NA,NA,demo_prev_study,survey-multi-choice,98,371818,0.0-11.0,151,1,2025-05-04T01:36:09Z,b60275e29fe2361ab97ac0ac217840d7,"Mozilla/5.0 (Macintosh; Intel Mac OS X 10_15_7) AppleWebKit/537.36 (KHTML, like Gecko) Chrome/133.0.0.0 Safari/537.36",Macintosh,Chrome,133.0.0.0,OS X,10_15_7,https://5puzkbbxv1.cognition.run/?sona_id=53175,"en-US,en;q=0.9",z6uauq2osesw89a,20,"[""White""]",No,Female,NA,I'm not sure,380448.90000009537,NA,8877,NA,"{""Q0"":""I'm not sure""}",NA,NA,NA,NA,NA,NA,NA,NA,NA,NA,NA,NA,NA,NA,NA,NA,NA,NA,NA,NA,NA,NA,[0]
NA,NA,NA,NA,NA,post_survey_message,html-keyboard-response,99,376744,0.0-12.0,151,1,2025-05-04T01:36:09Z,b60275e29fe2361ab97ac0ac217840d7,"Mozilla/5.0 (Macintosh; Intel Mac OS X 10_15_7) AppleWebKit/537.36 (KHTML, like Gecko) Chrome/133.0.0.0 Safari/537.36",Macintosh,Chrome,133.0.0.0,OS X,10_15_7,https://5puzkbbxv1.cognition.run/?sona_id=53175,"en-US,en;q=0.9",z6uauq2osesw89a,20,"[""White""]",No,Female,NA,I'm not sure,380448.90000009537,NA,4921,NA,j,NA,NA,NA,NA,NA,NA,NA,NA,NA,NA,NA,NA,NA,NA,NA,NA,NA,NA,NA,NA,NA,NA,NA
NA,NA,NA,NA,NA,debrief,image-keyboard-response,100,380425,0.0-13.0,151,1,2025-05-04T01:36:09Z,b60275e29fe2361ab97ac0ac217840d7,"Mozilla/5.0 (Macintosh; Intel Mac OS X 10_15_7) AppleWebKit/537.36 (KHTML, like Gecko) Chrome/133.0.0.0 Safari/537.36",Macintosh,Chrome,133.0.0.0,OS X,10_15_7,https://5puzkbbxv1.cognition.run/?sona_id=53175,"en-US,en;q=0.9",z6uauq2osesw89a,20,"[""White""]",No,Female,NA,I'm not sure,380448.90000009537,NA,3673,Judg_choice_debrief.png,p,NA,NA,NA,NA,NA,NA,NA,NA,NA,NA,NA,NA,NA,NA,NA,NA,NA,NA,NA,NA,NA,NA,NA
