success,timeout,failed_images,failed_audio,failed_video,screen_id,trial_type,trial_index,time_elapsed,internal_node_id,run_id,condition,recorded_at,source_code_version,user_agent,device,browser,browser_version,platform,platform_version,referer,accept_language,ppt_id,age,race,ethnicity,gender,other_countries,prev_study,exp_duration,view_history,rt,stimulus,response,phase,order,set,effect,t_high,category,d1_best,d2_best,d1_worst1,d2_worst1,d1_worst2,d2_worst2,first_dim,d1_t,d1_c,d1_d,d2_t,d2_c,d2_d,d1_name,d2_name,strategy_response,question_order
TRUE,FALSE,[],[],[],img preload,preload,0,193,0.0-0.0,152,1,2025-05-04T04:44:22Z,b60275e29fe2361ab97ac0ac217840d7,"Mozilla/5.0 (Macintosh; Intel Mac OS X 10_15_7) AppleWebKit/605.1.15 (KHTML, like Gecko) Version/17.1.2 Safari/605.1.15",Macintosh,Safari,17.1.2,OS X,10_15_7,https://5puzkbbxv1.cognition.run/?sona_id=53421,"en-US,en;q=0.9",a7ypsr8vlwu65k4,20,"[""White""]",No,Prefer not to say,NA,No,274251,NA,NA,NA,NA,NA,NA,NA,NA,NA,NA,NA,NA,NA,NA,NA,NA,NA,NA,NA,NA,NA,NA,NA,NA,NA,NA,NA
NA,NA,NA,NA,NA,computer_message,instructions,1,1985,0.0-1.0,152,1,2025-05-04T04:44:22Z,b60275e29fe2361ab97ac0ac217840d7,"Mozilla/5.0 (Macintosh; Intel Mac OS X 10_15_7) AppleWebKit/605.1.15 (KHTML, like Gecko) Version/17.1.2 Safari/605.1.15",Macintosh,Safari,17.1.2,OS X,10_15_7,https://5puzkbbxv1.cognition.run/?sona_id=53421,"en-US,en;q=0.9",a7ypsr8vlwu65k4,20,"[""White""]",No,Prefer not to say,NA,No,274251,"[{""page_index"":0,""viewing_time"":1790}]",1790,NA,NA,NA,NA,NA,NA,NA,NA,NA,NA,NA,NA,NA,NA,NA,NA,NA,NA,NA,NA,NA,NA,NA,NA,NA
TRUE,NA,NA,NA,NA,NA,fullscreen,2,4180,0.0-2.0,152,1,2025-05-04T04:44:22Z,b60275e29fe2361ab97ac0ac217840d7,"Mozilla/5.0 (Macintosh; Intel Mac OS X 10_15_7) AppleWebKit/605.1.15 (KHTML, like Gecko) Version/17.1.2 Safari/605.1.15",Macintosh,Safari,17.1.2,OS X,10_15_7,https://5puzkbbxv1.cognition.run/?sona_id=53421,"en-US,en;q=0.9",a7ypsr8vlwu65k4,20,"[""White""]",No,Prefer not to say,NA,No,274251,NA,1193,NA,NA,NA,NA,NA,NA,NA,NA,NA,NA,NA,NA,NA,NA,NA,NA,NA,NA,NA,NA,NA,NA,NA,NA,NA
NA,NA,NA,NA,NA,choice_instructions,instructions,3,28263,0.0-3.0,152,1,2025-05-04T04:44:22Z,b60275e29fe2361ab97ac0ac217840d7,"Mozilla/5.0 (Macintosh; Intel Mac OS X 10_15_7) AppleWebKit/605.1.15 (KHTML, like Gecko) Version/17.1.2 Safari/605.1.15",Macintosh,Safari,17.1.2,OS X,10_15_7,https://5puzkbbxv1.cognition.run/?sona_id=53421,"en-US,en;q=0.9",a7ypsr8vlwu65k4,20,"[""White""]",No,Prefer not to say,NA,No,274251,"[{""page_index"":0,""viewing_time"":2091},{""page_index"":1,""viewing_time"":1952},{""page_index"":2,""viewing_time"":3217},{""page_index"":3,""viewing_time"":2302},{""page_index"":4,""viewing_time"":1293},{""page_index"":5,""viewing_time"":10372},{""page_index"":6,""viewing_time"":2856}]",24083,NA,NA,NA,NA,NA,NA,NA,NA,NA,NA,NA,NA,NA,NA,NA,NA,NA,NA,NA,NA,NA,NA,NA,NA,NA
NA,NA,NA,NA,NA,choice_trial_setup,html-keyboard-response,4,28569,0.0-4.0-0.0,152,1,2025-05-04T04:44:22Z,b60275e29fe2361ab97ac0ac217840d7,"Mozilla/5.0 (Macintosh; Intel Mac OS X 10_15_7) AppleWebKit/605.1.15 (KHTML, like Gecko) Version/17.1.2 Safari/605.1.15",Macintosh,Safari,17.1.2,OS X,10_15_7,https://5puzkbbxv1.cognition.run/?sona_id=53421,"en-US,en;q=0.9",a7ypsr8vlwu65k4,20,"[""White""]",No,Prefer not to say,NA,No,274251,NA,null,<p></p>,null,choice,cdt,trinary,repulsion_A,2,televisions,null,null,null,null,null,null,1,NA,NA,NA,NA,NA,NA,NA,NA,NA,NA
NA,NA,NA,NA,NA,choice_trial,survey-html-form,5,39259,0.0-4.0-1.0,152,1,2025-05-04T04:44:22Z,b60275e29fe2361ab97ac0ac217840d7,"Mozilla/5.0 (Macintosh; Intel Mac OS X 10_15_7) AppleWebKit/605.1.15 (KHTML, like Gecko) Version/17.1.2 Safari/605.1.15",Macintosh,Safari,17.1.2,OS X,10_15_7,https://5puzkbbxv1.cognition.run/?sona_id=53421,"en-US,en;q=0.9",a7ypsr8vlwu65k4,20,"[""White""]",No,Prefer not to say,NA,No,274251,NA,10684,NA,"{""product_choice"":""C""}",choice,cdt,trinary,repulsion_A,2,televisions,null,null,null,null,null,null,1,30,40,20,100,90,100,Screen size,Average lifespan,NA,NA
NA,NA,NA,NA,NA,choice_trial_setup,html-keyboard-response,6,39562,0.0-4.0-0.1,152,1,2025-05-04T04:44:22Z,b60275e29fe2361ab97ac0ac217840d7,"Mozilla/5.0 (Macintosh; Intel Mac OS X 10_15_7) AppleWebKit/605.1.15 (KHTML, like Gecko) Version/17.1.2 Safari/605.1.15",Macintosh,Safari,17.1.2,OS X,10_15_7,https://5puzkbbxv1.cognition.run/?sona_id=53421,"en-US,en;q=0.9",a7ypsr8vlwu65k4,20,"[""White""]",No,Prefer not to say,NA,No,274251,NA,null,<p></p>,null,choice,tc,binary,attraction,NA,televisions,null,null,null,null,null,null,2,NA,NA,NA,NA,NA,NA,NA,NA,NA,NA
NA,NA,NA,NA,NA,choice_trial,survey-html-form,7,45512,0.0-4.0-1.1,152,1,2025-05-04T04:44:22Z,b60275e29fe2361ab97ac0ac217840d7,"Mozilla/5.0 (Macintosh; Intel Mac OS X 10_15_7) AppleWebKit/605.1.15 (KHTML, like Gecko) Version/17.1.2 Safari/605.1.15",Macintosh,Safari,17.1.2,OS X,10_15_7,https://5puzkbbxv1.cognition.run/?sona_id=53421,"en-US,en;q=0.9",a7ypsr8vlwu65k4,20,"[""White""]",No,Prefer not to say,NA,No,274251,NA,5947,NA,"{""product_choice"":""B""}",choice,tc,binary,attraction,NA,televisions,null,null,null,null,null,null,2,60,50,null,50,60,null,Screen size,Average lifespan,NA,NA
NA,NA,NA,NA,NA,choice_trial_setup,html-keyboard-response,8,45814,0.0-4.0-0.2,152,1,2025-05-04T04:44:22Z,b60275e29fe2361ab97ac0ac217840d7,"Mozilla/5.0 (Macintosh; Intel Mac OS X 10_15_7) AppleWebKit/605.1.15 (KHTML, like Gecko) Version/17.1.2 Safari/605.1.15",Macintosh,Safari,17.1.2,OS X,10_15_7,https://5puzkbbxv1.cognition.run/?sona_id=53421,"en-US,en;q=0.9",a7ypsr8vlwu65k4,20,"[""White""]",No,Prefer not to say,NA,No,274251,NA,null,<p></p>,null,choice,tdc,trinary,repulsion_A,2,microwave ovens,null,null,null,null,null,null,1,NA,NA,NA,NA,NA,NA,NA,NA,NA,NA
NA,NA,NA,NA,NA,choice_trial,survey-html-form,9,52749,0.0-4.0-1.2,152,1,2025-05-04T04:44:22Z,b60275e29fe2361ab97ac0ac217840d7,"Mozilla/5.0 (Macintosh; Intel Mac OS X 10_15_7) AppleWebKit/605.1.15 (KHTML, like Gecko) Version/17.1.2 Safari/605.1.15",Macintosh,Safari,17.1.2,OS X,10_15_7,https://5puzkbbxv1.cognition.run/?sona_id=53421,"en-US,en;q=0.9",a7ypsr8vlwu65k4,20,"[""White""]",No,Prefer not to say,NA,No,274251,NA,6931,NA,"{""product_choice"":""A""}",choice,tdc,trinary,repulsion_A,2,microwave ovens,null,null,null,null,null,null,1,30,40,20,100,90,100,Warranty,Cooking power,NA,NA
NA,NA,NA,NA,NA,choice_trial_setup,html-keyboard-response,10,53051,0.0-4.0-0.3,152,1,2025-05-04T04:44:22Z,b60275e29fe2361ab97ac0ac217840d7,"Mozilla/5.0 (Macintosh; Intel Mac OS X 10_15_7) AppleWebKit/605.1.15 (KHTML, like Gecko) Version/17.1.2 Safari/605.1.15",Macintosh,Safari,17.1.2,OS X,10_15_7,https://5puzkbbxv1.cognition.run/?sona_id=53421,"en-US,en;q=0.9",a7ypsr8vlwu65k4,20,"[""White""]",No,Prefer not to say,NA,No,274251,NA,null,<p></p>,null,choice,dtc,trinary,attraction,2,washing machines,null,null,null,null,null,null,2,NA,NA,NA,NA,NA,NA,NA,NA,NA,NA
NA,NA,NA,NA,NA,choice_trial,survey-html-form,11,58699,0.0-4.0-1.3,152,1,2025-05-04T04:44:22Z,b60275e29fe2361ab97ac0ac217840d7,"Mozilla/5.0 (Macintosh; Intel Mac OS X 10_15_7) AppleWebKit/605.1.15 (KHTML, like Gecko) Version/17.1.2 Safari/605.1.15",Macintosh,Safari,17.1.2,OS X,10_15_7,https://5puzkbbxv1.cognition.run/?sona_id=53421,"en-US,en;q=0.9",a7ypsr8vlwu65k4,20,"[""White""]",No,Prefer not to say,NA,No,274251,NA,5645,NA,"{""product_choice"":""B""}",choice,dtc,trinary,attraction,2,washing machines,null,null,null,null,null,null,2,50,60,40,60,50,60,Average lifespan,Energy savings,NA,NA
NA,NA,NA,NA,NA,choice_trial_setup,html-keyboard-response,12,59001,0.0-4.0-0.4,152,1,2025-05-04T04:44:22Z,b60275e29fe2361ab97ac0ac217840d7,"Mozilla/5.0 (Macintosh; Intel Mac OS X 10_15_7) AppleWebKit/605.1.15 (KHTML, like Gecko) Version/17.1.2 Safari/605.1.15",Macintosh,Safari,17.1.2,OS X,10_15_7,https://5puzkbbxv1.cognition.run/?sona_id=53421,"en-US,en;q=0.9",a7ypsr8vlwu65k4,20,"[""White""]",No,Prefer not to say,NA,No,274251,NA,null,<p></p>,null,choice,ct,binary,attraction,NA,washing machines,null,null,null,null,null,null,2,NA,NA,NA,NA,NA,NA,NA,NA,NA,NA
NA,NA,NA,NA,NA,choice_trial,survey-html-form,13,66065,0.0-4.0-1.4,152,1,2025-05-04T04:44:22Z,b60275e29fe2361ab97ac0ac217840d7,"Mozilla/5.0 (Macintosh; Intel Mac OS X 10_15_7) AppleWebKit/605.1.15 (KHTML, like Gecko) Version/17.1.2 Safari/605.1.15",Macintosh,Safari,17.1.2,OS X,10_15_7,https://5puzkbbxv1.cognition.run/?sona_id=53421,"en-US,en;q=0.9",a7ypsr8vlwu65k4,20,"[""White""]",No,Prefer not to say,NA,No,274251,NA,7059,NA,"{""product_choice"":""A""}",choice,ct,binary,attraction,NA,washing machines,null,null,null,null,null,null,2,60,50,null,50,60,null,Average lifespan,Energy savings,NA,NA
NA,NA,NA,NA,NA,choice_trial_setup,html-keyboard-response,14,66368,0.0-4.0-0.5,152,1,2025-05-04T04:44:22Z,b60275e29fe2361ab97ac0ac217840d7,"Mozilla/5.0 (Macintosh; Intel Mac OS X 10_15_7) AppleWebKit/605.1.15 (KHTML, like Gecko) Version/17.1.2 Safari/605.1.15",Macintosh,Safari,17.1.2,OS X,10_15_7,https://5puzkbbxv1.cognition.run/?sona_id=53421,"en-US,en;q=0.9",a7ypsr8vlwu65k4,20,"[""White""]",No,Prefer not to say,NA,No,274251,NA,null,<p></p>,null,choice,ctd,trinary,attraction,1,televisions,null,null,null,null,null,null,1,NA,NA,NA,NA,NA,NA,NA,NA,NA,NA
NA,NA,NA,NA,NA,choice_trial,survey-html-form,15,69678,0.0-4.0-1.5,152,1,2025-05-04T04:44:22Z,b60275e29fe2361ab97ac0ac217840d7,"Mozilla/5.0 (Macintosh; Intel Mac OS X 10_15_7) AppleWebKit/605.1.15 (KHTML, like Gecko) Version/17.1.2 Safari/605.1.15",Macintosh,Safari,17.1.2,OS X,10_15_7,https://5puzkbbxv1.cognition.run/?sona_id=53421,"en-US,en;q=0.9",a7ypsr8vlwu65k4,20,"[""White""]",No,Prefer not to say,NA,No,274251,NA,3305,NA,"{""product_choice"":""A""}",choice,ctd,trinary,attraction,1,televisions,null,null,null,null,null,null,1,60,50,60,50,60,40,Screen size,Average lifespan,NA,NA
NA,NA,NA,NA,NA,choice_trial_setup,html-keyboard-response,16,69979,0.0-4.0-0.6,152,1,2025-05-04T04:44:22Z,b60275e29fe2361ab97ac0ac217840d7,"Mozilla/5.0 (Macintosh; Intel Mac OS X 10_15_7) AppleWebKit/605.1.15 (KHTML, like Gecko) Version/17.1.2 Safari/605.1.15",Macintosh,Safari,17.1.2,OS X,10_15_7,https://5puzkbbxv1.cognition.run/?sona_id=53421,"en-US,en;q=0.9",a7ypsr8vlwu65k4,20,"[""White""]",No,Prefer not to say,NA,No,274251,NA,null,<p></p>,null,choice,ctd,trinary,attraction,2,televisions,null,null,null,null,null,null,2,NA,NA,NA,NA,NA,NA,NA,NA,NA,NA
NA,NA,NA,NA,NA,choice_trial,survey-html-form,17,73664,0.0-4.0-1.6,152,1,2025-05-04T04:44:22Z,b60275e29fe2361ab97ac0ac217840d7,"Mozilla/5.0 (Macintosh; Intel Mac OS X 10_15_7) AppleWebKit/605.1.15 (KHTML, like Gecko) Version/17.1.2 Safari/605.1.15",Macintosh,Safari,17.1.2,OS X,10_15_7,https://5puzkbbxv1.cognition.run/?sona_id=53421,"en-US,en;q=0.9",a7ypsr8vlwu65k4,20,"[""White""]",No,Prefer not to say,NA,No,274251,NA,3681,NA,"{""product_choice"":""B""}",choice,ctd,trinary,attraction,2,televisions,null,null,null,null,null,null,2,50,60,40,60,50,60,Screen size,Average lifespan,NA,NA
NA,NA,NA,NA,NA,choice_trial_setup,html-keyboard-response,18,73967,0.0-4.0-0.7,152,1,2025-05-04T04:44:22Z,b60275e29fe2361ab97ac0ac217840d7,"Mozilla/5.0 (Macintosh; Intel Mac OS X 10_15_7) AppleWebKit/605.1.15 (KHTML, like Gecko) Version/17.1.2 Safari/605.1.15",Macintosh,Safari,17.1.2,OS X,10_15_7,https://5puzkbbxv1.cognition.run/?sona_id=53421,"en-US,en;q=0.9",a7ypsr8vlwu65k4,20,"[""White""]",No,Prefer not to say,NA,No,274251,NA,null,<p></p>,null,choice,ct,binary,attraction,NA,microwave ovens,null,null,null,null,null,null,2,NA,NA,NA,NA,NA,NA,NA,NA,NA,NA
NA,NA,NA,NA,NA,choice_trial,survey-html-form,19,77443,0.0-4.0-1.7,152,1,2025-05-04T04:44:22Z,b60275e29fe2361ab97ac0ac217840d7,"Mozilla/5.0 (Macintosh; Intel Mac OS X 10_15_7) AppleWebKit/605.1.15 (KHTML, like Gecko) Version/17.1.2 Safari/605.1.15",Macintosh,Safari,17.1.2,OS X,10_15_7,https://5puzkbbxv1.cognition.run/?sona_id=53421,"en-US,en;q=0.9",a7ypsr8vlwu65k4,20,"[""White""]",No,Prefer not to say,NA,No,274251,NA,3472,NA,"{""product_choice"":""A""}",choice,ct,binary,attraction,NA,microwave ovens,null,null,null,null,null,null,2,60,50,null,50,60,null,Warranty,Cooking power,NA,NA
NA,NA,NA,NA,NA,choice_trial_setup,html-keyboard-response,20,77746,0.0-4.0-0.8,152,1,2025-05-04T04:44:22Z,b60275e29fe2361ab97ac0ac217840d7,"Mozilla/5.0 (Macintosh; Intel Mac OS X 10_15_7) AppleWebKit/605.1.15 (KHTML, like Gecko) Version/17.1.2 Safari/605.1.15",Macintosh,Safari,17.1.2,OS X,10_15_7,https://5puzkbbxv1.cognition.run/?sona_id=53421,"en-US,en;q=0.9",a7ypsr8vlwu65k4,20,"[""White""]",No,Prefer not to say,NA,No,274251,NA,null,<p></p>,null,choice,tdc,trinary,repulsion_B,2,televisions,null,null,null,null,null,null,1,NA,NA,NA,NA,NA,NA,NA,NA,NA,NA
NA,NA,NA,NA,NA,choice_trial,survey-html-form,21,81831,0.0-4.0-1.8,152,1,2025-05-04T04:44:22Z,b60275e29fe2361ab97ac0ac217840d7,"Mozilla/5.0 (Macintosh; Intel Mac OS X 10_15_7) AppleWebKit/605.1.15 (KHTML, like Gecko) Version/17.1.2 Safari/605.1.15",Macintosh,Safari,17.1.2,OS X,10_15_7,https://5puzkbbxv1.cognition.run/?sona_id=53421,"en-US,en;q=0.9",a7ypsr8vlwu65k4,20,"[""White""]",No,Prefer not to say,NA,No,274251,NA,4080,NA,"{""product_choice"":""C""}",choice,tdc,trinary,repulsion_B,2,televisions,null,null,null,null,null,null,1,40,30,40,90,100,80,Screen size,Average lifespan,NA,NA
NA,NA,NA,NA,NA,choice_trial_setup,html-keyboard-response,22,82133,0.0-4.0-0.9,152,1,2025-05-04T04:44:22Z,b60275e29fe2361ab97ac0ac217840d7,"Mozilla/5.0 (Macintosh; Intel Mac OS X 10_15_7) AppleWebKit/605.1.15 (KHTML, like Gecko) Version/17.1.2 Safari/605.1.15",Macintosh,Safari,17.1.2,OS X,10_15_7,https://5puzkbbxv1.cognition.run/?sona_id=53421,"en-US,en;q=0.9",a7ypsr8vlwu65k4,20,"[""White""]",No,Prefer not to say,NA,No,274251,NA,null,<p></p>,null,choice,tdc,trinary,attraction,1,microwave ovens,null,null,null,null,null,null,1,NA,NA,NA,NA,NA,NA,NA,NA,NA,NA
NA,NA,NA,NA,NA,choice_trial,survey-html-form,23,86159,0.0-4.0-1.9,152,1,2025-05-04T04:44:22Z,b60275e29fe2361ab97ac0ac217840d7,"Mozilla/5.0 (Macintosh; Intel Mac OS X 10_15_7) AppleWebKit/605.1.15 (KHTML, like Gecko) Version/17.1.2 Safari/605.1.15",Macintosh,Safari,17.1.2,OS X,10_15_7,https://5puzkbbxv1.cognition.run/?sona_id=53421,"en-US,en;q=0.9",a7ypsr8vlwu65k4,20,"[""White""]",No,Prefer not to say,NA,No,274251,NA,4022,NA,"{""product_choice"":""C""}",choice,tdc,trinary,attraction,1,microwave ovens,null,null,null,null,null,null,1,60,50,60,50,60,40,Warranty,Cooking power,NA,NA
NA,NA,NA,NA,NA,choice_trial_setup,html-keyboard-response,24,86461,0.0-4.0-0.10,152,1,2025-05-04T04:44:22Z,b60275e29fe2361ab97ac0ac217840d7,"Mozilla/5.0 (Macintosh; Intel Mac OS X 10_15_7) AppleWebKit/605.1.15 (KHTML, like Gecko) Version/17.1.2 Safari/605.1.15",Macintosh,Safari,17.1.2,OS X,10_15_7,https://5puzkbbxv1.cognition.run/?sona_id=53421,"en-US,en;q=0.9",a7ypsr8vlwu65k4,20,"[""White""]",No,Prefer not to say,NA,No,274251,NA,null,<p></p>,null,choice,ctd,trinary,repulsion_A,1,laptops,null,null,null,null,null,null,2,NA,NA,NA,NA,NA,NA,NA,NA,NA,NA
NA,NA,NA,NA,NA,choice_trial,survey-html-form,25,94935,0.0-4.0-1.10,152,1,2025-05-04T04:44:22Z,b60275e29fe2361ab97ac0ac217840d7,"Mozilla/5.0 (Macintosh; Intel Mac OS X 10_15_7) AppleWebKit/605.1.15 (KHTML, like Gecko) Version/17.1.2 Safari/605.1.15",Macintosh,Safari,17.1.2,OS X,10_15_7,https://5puzkbbxv1.cognition.run/?sona_id=53421,"en-US,en;q=0.9",a7ypsr8vlwu65k4,20,"[""White""]",No,Prefer not to say,NA,No,274251,NA,8470,NA,"{""product_choice"":""A""}",choice,ctd,trinary,repulsion_A,1,laptops,null,null,null,null,null,null,2,100,90,100,30,40,20,Processing speed,Memory (RAM),NA,NA
NA,NA,NA,NA,NA,choice_trial_setup,html-keyboard-response,26,95237,0.0-4.0-0.11,152,1,2025-05-04T04:44:22Z,b60275e29fe2361ab97ac0ac217840d7,"Mozilla/5.0 (Macintosh; Intel Mac OS X 10_15_7) AppleWebKit/605.1.15 (KHTML, like Gecko) Version/17.1.2 Safari/605.1.15",Macintosh,Safari,17.1.2,OS X,10_15_7,https://5puzkbbxv1.cognition.run/?sona_id=53421,"en-US,en;q=0.9",a7ypsr8vlwu65k4,20,"[""White""]",No,Prefer not to say,NA,No,274251,NA,null,<p></p>,null,choice,tdc,trinary,repulsion_B,1,washing machines,null,null,null,null,null,null,1,NA,NA,NA,NA,NA,NA,NA,NA,NA,NA
NA,NA,NA,NA,NA,choice_trial,survey-html-form,27,101791,0.0-4.0-1.11,152,1,2025-05-04T04:44:22Z,b60275e29fe2361ab97ac0ac217840d7,"Mozilla/5.0 (Macintosh; Intel Mac OS X 10_15_7) AppleWebKit/605.1.15 (KHTML, like Gecko) Version/17.1.2 Safari/605.1.15",Macintosh,Safari,17.1.2,OS X,10_15_7,https://5puzkbbxv1.cognition.run/?sona_id=53421,"en-US,en;q=0.9",a7ypsr8vlwu65k4,20,"[""White""]",No,Prefer not to say,NA,No,274251,NA,6549,NA,"{""product_choice"":""C""}",choice,tdc,trinary,repulsion_B,1,washing machines,null,null,null,null,null,null,1,90,100,80,40,30,40,Average lifespan,Energy savings,NA,NA
NA,NA,NA,NA,NA,choice_trial_setup,html-keyboard-response,28,102093,0.0-4.0-0.12,152,1,2025-05-04T04:44:22Z,b60275e29fe2361ab97ac0ac217840d7,"Mozilla/5.0 (Macintosh; Intel Mac OS X 10_15_7) AppleWebKit/605.1.15 (KHTML, like Gecko) Version/17.1.2 Safari/605.1.15",Macintosh,Safari,17.1.2,OS X,10_15_7,https://5puzkbbxv1.cognition.run/?sona_id=53421,"en-US,en;q=0.9",a7ypsr8vlwu65k4,20,"[""White""]",No,Prefer not to say,NA,No,274251,NA,null,<p></p>,null,choice,ct,binary,repulsion,1,microwave ovens,null,null,null,null,null,null,1,NA,NA,NA,NA,NA,NA,NA,NA,NA,NA
NA,NA,NA,NA,NA,choice_trial,survey-html-form,29,110249,0.0-4.0-1.12,152,1,2025-05-04T04:44:22Z,b60275e29fe2361ab97ac0ac217840d7,"Mozilla/5.0 (Macintosh; Intel Mac OS X 10_15_7) AppleWebKit/605.1.15 (KHTML, like Gecko) Version/17.1.2 Safari/605.1.15",Macintosh,Safari,17.1.2,OS X,10_15_7,https://5puzkbbxv1.cognition.run/?sona_id=53421,"en-US,en;q=0.9",a7ypsr8vlwu65k4,20,"[""White""]",No,Prefer not to say,NA,No,274251,NA,8152,NA,"{""product_choice"":""A""}",choice,ct,binary,repulsion,1,microwave ovens,null,null,null,null,null,null,1,100,90,null,30,40,null,Warranty,Cooking power,NA,NA
NA,NA,NA,NA,NA,choice_trial_setup,html-keyboard-response,30,110551,0.0-4.0-0.13,152,1,2025-05-04T04:44:22Z,b60275e29fe2361ab97ac0ac217840d7,"Mozilla/5.0 (Macintosh; Intel Mac OS X 10_15_7) AppleWebKit/605.1.15 (KHTML, like Gecko) Version/17.1.2 Safari/605.1.15",Macintosh,Safari,17.1.2,OS X,10_15_7,https://5puzkbbxv1.cognition.run/?sona_id=53421,"en-US,en;q=0.9",a7ypsr8vlwu65k4,20,"[""White""]",No,Prefer not to say,NA,No,274251,NA,null,<p></p>,null,choice,ctd,trinary,repulsion_B,2,laptops,null,null,null,null,null,null,1,NA,NA,NA,NA,NA,NA,NA,NA,NA,NA
NA,NA,NA,NA,NA,choice_trial,survey-html-form,31,113556,0.0-4.0-1.13,152,1,2025-05-04T04:44:22Z,b60275e29fe2361ab97ac0ac217840d7,"Mozilla/5.0 (Macintosh; Intel Mac OS X 10_15_7) AppleWebKit/605.1.15 (KHTML, like Gecko) Version/17.1.2 Safari/605.1.15",Macintosh,Safari,17.1.2,OS X,10_15_7,https://5puzkbbxv1.cognition.run/?sona_id=53421,"en-US,en;q=0.9",a7ypsr8vlwu65k4,20,"[""White""]",No,Prefer not to say,NA,No,274251,NA,3001,NA,"{""product_choice"":""B""}",choice,ctd,trinary,repulsion_B,2,laptops,null,null,null,null,null,null,1,40,30,40,90,100,80,Processing speed,Memory (RAM),NA,NA
NA,NA,NA,NA,NA,choice_trial_setup,html-keyboard-response,32,113858,0.0-4.0-0.14,152,1,2025-05-04T04:44:22Z,b60275e29fe2361ab97ac0ac217840d7,"Mozilla/5.0 (Macintosh; Intel Mac OS X 10_15_7) AppleWebKit/605.1.15 (KHTML, like Gecko) Version/17.1.2 Safari/605.1.15",Macintosh,Safari,17.1.2,OS X,10_15_7,https://5puzkbbxv1.cognition.run/?sona_id=53421,"en-US,en;q=0.9",a7ypsr8vlwu65k4,20,"[""White""]",No,Prefer not to say,NA,No,274251,NA,null,<p></p>,null,choice,cdt,trinary,repulsion_B,1,laptops,null,null,null,null,null,null,1,NA,NA,NA,NA,NA,NA,NA,NA,NA,NA
NA,NA,NA,NA,NA,choice_trial,survey-html-form,33,118373,0.0-4.0-1.14,152,1,2025-05-04T04:44:22Z,b60275e29fe2361ab97ac0ac217840d7,"Mozilla/5.0 (Macintosh; Intel Mac OS X 10_15_7) AppleWebKit/605.1.15 (KHTML, like Gecko) Version/17.1.2 Safari/605.1.15",Macintosh,Safari,17.1.2,OS X,10_15_7,https://5puzkbbxv1.cognition.run/?sona_id=53421,"en-US,en;q=0.9",a7ypsr8vlwu65k4,20,"[""White""]",No,Prefer not to say,NA,No,274251,NA,4510,NA,"{""product_choice"":""C""}",choice,cdt,trinary,repulsion_B,1,laptops,null,null,null,null,null,null,1,90,100,80,40,30,40,Processing speed,Memory (RAM),NA,NA
NA,NA,NA,NA,NA,choice_trial_setup,html-keyboard-response,34,118675,0.0-4.0-0.15,152,1,2025-05-04T04:44:22Z,b60275e29fe2361ab97ac0ac217840d7,"Mozilla/5.0 (Macintosh; Intel Mac OS X 10_15_7) AppleWebKit/605.1.15 (KHTML, like Gecko) Version/17.1.2 Safari/605.1.15",Macintosh,Safari,17.1.2,OS X,10_15_7,https://5puzkbbxv1.cognition.run/?sona_id=53421,"en-US,en;q=0.9",a7ypsr8vlwu65k4,20,"[""White""]",No,Prefer not to say,NA,No,274251,NA,null,<p></p>,null,choice,ctd,trinary,attraction,1,laptops,null,null,null,null,null,null,1,NA,NA,NA,NA,NA,NA,NA,NA,NA,NA
NA,NA,NA,NA,NA,choice_trial,survey-html-form,35,122357,0.0-4.0-1.15,152,1,2025-05-04T04:44:22Z,b60275e29fe2361ab97ac0ac217840d7,"Mozilla/5.0 (Macintosh; Intel Mac OS X 10_15_7) AppleWebKit/605.1.15 (KHTML, like Gecko) Version/17.1.2 Safari/605.1.15",Macintosh,Safari,17.1.2,OS X,10_15_7,https://5puzkbbxv1.cognition.run/?sona_id=53421,"en-US,en;q=0.9",a7ypsr8vlwu65k4,20,"[""White""]",No,Prefer not to say,NA,No,274251,NA,3679,NA,"{""product_choice"":""A""}",choice,ctd,trinary,attraction,1,laptops,null,null,null,null,null,null,1,60,50,60,50,60,40,Processing speed,Memory (RAM),NA,NA
NA,NA,NA,NA,NA,choice_trial_setup,html-keyboard-response,36,122660,0.0-4.0-0.16,152,1,2025-05-04T04:44:22Z,b60275e29fe2361ab97ac0ac217840d7,"Mozilla/5.0 (Macintosh; Intel Mac OS X 10_15_7) AppleWebKit/605.1.15 (KHTML, like Gecko) Version/17.1.2 Safari/605.1.15",Macintosh,Safari,17.1.2,OS X,10_15_7,https://5puzkbbxv1.cognition.run/?sona_id=53421,"en-US,en;q=0.9",a7ypsr8vlwu65k4,20,"[""White""]",No,Prefer not to say,NA,No,274251,NA,null,<p></p>,null,choice,ct,binary,repulsion,2,microwave ovens,null,null,null,null,null,null,1,NA,NA,NA,NA,NA,NA,NA,NA,NA,NA
NA,NA,NA,NA,NA,choice_trial,survey-html-form,37,125138,0.0-4.0-1.16,152,1,2025-05-04T04:44:22Z,b60275e29fe2361ab97ac0ac217840d7,"Mozilla/5.0 (Macintosh; Intel Mac OS X 10_15_7) AppleWebKit/605.1.15 (KHTML, like Gecko) Version/17.1.2 Safari/605.1.15",Macintosh,Safari,17.1.2,OS X,10_15_7,https://5puzkbbxv1.cognition.run/?sona_id=53421,"en-US,en;q=0.9",a7ypsr8vlwu65k4,20,"[""White""]",No,Prefer not to say,NA,No,274251,NA,2474,NA,"{""product_choice"":""B""}",choice,ct,binary,repulsion,2,microwave ovens,null,null,null,null,null,null,1,30,40,null,100,90,null,Warranty,Cooking power,NA,NA
NA,NA,NA,NA,NA,choice_trial_setup,html-keyboard-response,38,125440,0.0-4.0-0.17,152,1,2025-05-04T04:44:22Z,b60275e29fe2361ab97ac0ac217840d7,"Mozilla/5.0 (Macintosh; Intel Mac OS X 10_15_7) AppleWebKit/605.1.15 (KHTML, like Gecko) Version/17.1.2 Safari/605.1.15",Macintosh,Safari,17.1.2,OS X,10_15_7,https://5puzkbbxv1.cognition.run/?sona_id=53421,"en-US,en;q=0.9",a7ypsr8vlwu65k4,20,"[""White""]",No,Prefer not to say,NA,No,274251,NA,null,<p></p>,null,choice,bw,binary,catch,null,microwave ovens,75,55,40,10,null,null,2,NA,NA,NA,NA,NA,NA,NA,NA,NA,NA
NA,NA,NA,NA,NA,choice_trial,survey-html-form,39,130965,0.0-4.0-1.17,152,1,2025-05-04T04:44:22Z,b60275e29fe2361ab97ac0ac217840d7,"Mozilla/5.0 (Macintosh; Intel Mac OS X 10_15_7) AppleWebKit/605.1.15 (KHTML, like Gecko) Version/17.1.2 Safari/605.1.15",Macintosh,Safari,17.1.2,OS X,10_15_7,https://5puzkbbxv1.cognition.run/?sona_id=53421,"en-US,en;q=0.9",a7ypsr8vlwu65k4,20,"[""White""]",No,Prefer not to say,NA,No,274251,NA,5521,NA,"{""product_choice"":""A""}",choice,bw,binary,catch,null,microwave ovens,75,55,40,10,null,null,2,null,null,null,null,null,null,Warranty,Cooking power,NA,NA
NA,NA,NA,NA,NA,choice_trial_setup,html-keyboard-response,40,131268,0.0-4.0-0.18,152,1,2025-05-04T04:44:22Z,b60275e29fe2361ab97ac0ac217840d7,"Mozilla/5.0 (Macintosh; Intel Mac OS X 10_15_7) AppleWebKit/605.1.15 (KHTML, like Gecko) Version/17.1.2 Safari/605.1.15",Macintosh,Safari,17.1.2,OS X,10_15_7,https://5puzkbbxv1.cognition.run/?sona_id=53421,"en-US,en;q=0.9",a7ypsr8vlwu65k4,20,"[""White""]",No,Prefer not to say,NA,No,274251,NA,null,<p></p>,null,choice,dtc,trinary,repulsion_B,2,microwave ovens,null,null,null,null,null,null,1,NA,NA,NA,NA,NA,NA,NA,NA,NA,NA
NA,NA,NA,NA,NA,choice_trial,survey-html-form,41,136277,0.0-4.0-1.18,152,1,2025-05-04T04:44:22Z,b60275e29fe2361ab97ac0ac217840d7,"Mozilla/5.0 (Macintosh; Intel Mac OS X 10_15_7) AppleWebKit/605.1.15 (KHTML, like Gecko) Version/17.1.2 Safari/605.1.15",Macintosh,Safari,17.1.2,OS X,10_15_7,https://5puzkbbxv1.cognition.run/?sona_id=53421,"en-US,en;q=0.9",a7ypsr8vlwu65k4,20,"[""White""]",No,Prefer not to say,NA,No,274251,NA,5005,NA,"{""product_choice"":""C""}",choice,dtc,trinary,repulsion_B,2,microwave ovens,null,null,null,null,null,null,1,40,30,40,90,100,80,Warranty,Cooking power,NA,NA
NA,NA,NA,NA,NA,choice_trial_setup,html-keyboard-response,42,136580,0.0-4.0-0.19,152,1,2025-05-04T04:44:22Z,b60275e29fe2361ab97ac0ac217840d7,"Mozilla/5.0 (Macintosh; Intel Mac OS X 10_15_7) AppleWebKit/605.1.15 (KHTML, like Gecko) Version/17.1.2 Safari/605.1.15",Macintosh,Safari,17.1.2,OS X,10_15_7,https://5puzkbbxv1.cognition.run/?sona_id=53421,"en-US,en;q=0.9",a7ypsr8vlwu65k4,20,"[""White""]",No,Prefer not to say,NA,No,274251,NA,null,<p></p>,null,choice,ctd,trinary,repulsion_A,2,laptops,null,null,null,null,null,null,2,NA,NA,NA,NA,NA,NA,NA,NA,NA,NA
NA,NA,NA,NA,NA,choice_trial,survey-html-form,43,140218,0.0-4.0-1.19,152,1,2025-05-04T04:44:22Z,b60275e29fe2361ab97ac0ac217840d7,"Mozilla/5.0 (Macintosh; Intel Mac OS X 10_15_7) AppleWebKit/605.1.15 (KHTML, like Gecko) Version/17.1.2 Safari/605.1.15",Macintosh,Safari,17.1.2,OS X,10_15_7,https://5puzkbbxv1.cognition.run/?sona_id=53421,"en-US,en;q=0.9",a7ypsr8vlwu65k4,20,"[""White""]",No,Prefer not to say,NA,No,274251,NA,3636,NA,"{""product_choice"":""B""}",choice,ctd,trinary,repulsion_A,2,laptops,null,null,null,null,null,null,2,30,40,20,100,90,100,Processing speed,Memory (RAM),NA,NA
NA,NA,NA,NA,NA,choice_trial_setup,html-keyboard-response,44,140521,0.0-4.0-0.20,152,1,2025-05-04T04:44:22Z,b60275e29fe2361ab97ac0ac217840d7,"Mozilla/5.0 (Macintosh; Intel Mac OS X 10_15_7) AppleWebKit/605.1.15 (KHTML, like Gecko) Version/17.1.2 Safari/605.1.15",Macintosh,Safari,17.1.2,OS X,10_15_7,https://5puzkbbxv1.cognition.run/?sona_id=53421,"en-US,en;q=0.9",a7ypsr8vlwu65k4,20,"[""White""]",No,Prefer not to say,NA,No,274251,NA,null,<p></p>,null,choice,tc,binary,attraction,NA,laptops,null,null,null,null,null,null,2,NA,NA,NA,NA,NA,NA,NA,NA,NA,NA
NA,NA,NA,NA,NA,choice_trial,survey-html-form,45,144113,0.0-4.0-1.20,152,1,2025-05-04T04:44:22Z,b60275e29fe2361ab97ac0ac217840d7,"Mozilla/5.0 (Macintosh; Intel Mac OS X 10_15_7) AppleWebKit/605.1.15 (KHTML, like Gecko) Version/17.1.2 Safari/605.1.15",Macintosh,Safari,17.1.2,OS X,10_15_7,https://5puzkbbxv1.cognition.run/?sona_id=53421,"en-US,en;q=0.9",a7ypsr8vlwu65k4,20,"[""White""]",No,Prefer not to say,NA,No,274251,NA,3588,NA,"{""product_choice"":""B""}",choice,tc,binary,attraction,NA,laptops,null,null,null,null,null,null,2,60,50,null,50,60,null,Processing speed,Memory (RAM),NA,NA
NA,NA,NA,NA,NA,choice_trial_setup,html-keyboard-response,46,144415,0.0-4.0-0.21,152,1,2025-05-04T04:44:22Z,b60275e29fe2361ab97ac0ac217840d7,"Mozilla/5.0 (Macintosh; Intel Mac OS X 10_15_7) AppleWebKit/605.1.15 (KHTML, like Gecko) Version/17.1.2 Safari/605.1.15",Macintosh,Safari,17.1.2,OS X,10_15_7,https://5puzkbbxv1.cognition.run/?sona_id=53421,"en-US,en;q=0.9",a7ypsr8vlwu65k4,20,"[""White""]",No,Prefer not to say,NA,No,274251,NA,null,<p></p>,null,choice,ctd,trinary,repulsion_B,1,microwave ovens,null,null,null,null,null,null,2,NA,NA,NA,NA,NA,NA,NA,NA,NA,NA
NA,NA,NA,NA,NA,choice_trial,survey-html-form,47,150338,0.0-4.0-1.21,152,1,2025-05-04T04:44:22Z,b60275e29fe2361ab97ac0ac217840d7,"Mozilla/5.0 (Macintosh; Intel Mac OS X 10_15_7) AppleWebKit/605.1.15 (KHTML, like Gecko) Version/17.1.2 Safari/605.1.15",Macintosh,Safari,17.1.2,OS X,10_15_7,https://5puzkbbxv1.cognition.run/?sona_id=53421,"en-US,en;q=0.9",a7ypsr8vlwu65k4,20,"[""White""]",No,Prefer not to say,NA,No,274251,NA,5921,NA,"{""product_choice"":""B""}",choice,ctd,trinary,repulsion_B,1,microwave ovens,null,null,null,null,null,null,2,90,100,80,40,30,40,Warranty,Cooking power,NA,NA
NA,NA,NA,NA,NA,choice_trial_setup,html-keyboard-response,48,150645,0.0-4.0-0.22,152,1,2025-05-04T04:44:22Z,b60275e29fe2361ab97ac0ac217840d7,"Mozilla/5.0 (Macintosh; Intel Mac OS X 10_15_7) AppleWebKit/605.1.15 (KHTML, like Gecko) Version/17.1.2 Safari/605.1.15",Macintosh,Safari,17.1.2,OS X,10_15_7,https://5puzkbbxv1.cognition.run/?sona_id=53421,"en-US,en;q=0.9",a7ypsr8vlwu65k4,20,"[""White""]",No,Prefer not to say,NA,No,274251,NA,null,<p></p>,null,choice,ct,binary,repulsion,1,televisions,null,null,null,null,null,null,2,NA,NA,NA,NA,NA,NA,NA,NA,NA,NA
NA,NA,NA,NA,NA,choice_trial,survey-html-form,49,154415,0.0-4.0-1.22,152,1,2025-05-04T04:44:22Z,b60275e29fe2361ab97ac0ac217840d7,"Mozilla/5.0 (Macintosh; Intel Mac OS X 10_15_7) AppleWebKit/605.1.15 (KHTML, like Gecko) Version/17.1.2 Safari/605.1.15",Macintosh,Safari,17.1.2,OS X,10_15_7,https://5puzkbbxv1.cognition.run/?sona_id=53421,"en-US,en;q=0.9",a7ypsr8vlwu65k4,20,"[""White""]",No,Prefer not to say,NA,No,274251,NA,3765,NA,"{""product_choice"":""A""}",choice,ct,binary,repulsion,1,televisions,null,null,null,null,null,null,2,100,90,null,30,40,null,Screen size,Average lifespan,NA,NA
NA,NA,NA,NA,NA,choice_trial_setup,html-keyboard-response,50,154718,0.0-4.0-0.23,152,1,2025-05-04T04:44:22Z,b60275e29fe2361ab97ac0ac217840d7,"Mozilla/5.0 (Macintosh; Intel Mac OS X 10_15_7) AppleWebKit/605.1.15 (KHTML, like Gecko) Version/17.1.2 Safari/605.1.15",Macintosh,Safari,17.1.2,OS X,10_15_7,https://5puzkbbxv1.cognition.run/?sona_id=53421,"en-US,en;q=0.9",a7ypsr8vlwu65k4,20,"[""White""]",No,Prefer not to say,NA,No,274251,NA,null,<p></p>,null,choice,tdc,trinary,attraction,1,washing machines,null,null,null,null,null,null,1,NA,NA,NA,NA,NA,NA,NA,NA,NA,NA
NA,NA,NA,NA,NA,choice_trial,survey-html-form,51,159023,0.0-4.0-1.23,152,1,2025-05-04T04:44:22Z,b60275e29fe2361ab97ac0ac217840d7,"Mozilla/5.0 (Macintosh; Intel Mac OS X 10_15_7) AppleWebKit/605.1.15 (KHTML, like Gecko) Version/17.1.2 Safari/605.1.15",Macintosh,Safari,17.1.2,OS X,10_15_7,https://5puzkbbxv1.cognition.run/?sona_id=53421,"en-US,en;q=0.9",a7ypsr8vlwu65k4,20,"[""White""]",No,Prefer not to say,NA,No,274251,NA,4302,NA,"{""product_choice"":""A""}",choice,tdc,trinary,attraction,1,washing machines,null,null,null,null,null,null,1,60,50,60,50,60,40,Average lifespan,Energy savings,NA,NA
NA,NA,NA,NA,NA,choice_trial_setup,html-keyboard-response,52,159325,0.0-4.0-0.24,152,1,2025-05-04T04:44:22Z,b60275e29fe2361ab97ac0ac217840d7,"Mozilla/5.0 (Macintosh; Intel Mac OS X 10_15_7) AppleWebKit/605.1.15 (KHTML, like Gecko) Version/17.1.2 Safari/605.1.15",Macintosh,Safari,17.1.2,OS X,10_15_7,https://5puzkbbxv1.cognition.run/?sona_id=53421,"en-US,en;q=0.9",a7ypsr8vlwu65k4,20,"[""White""]",No,Prefer not to say,NA,No,274251,NA,null,<p></p>,null,choice,bw,binary,catch,null,televisions,60,85,40,35,null,null,1,NA,NA,NA,NA,NA,NA,NA,NA,NA,NA
NA,NA,NA,NA,NA,choice_trial,survey-html-form,53,163984,0.0-4.0-1.24,152,1,2025-05-04T04:44:22Z,b60275e29fe2361ab97ac0ac217840d7,"Mozilla/5.0 (Macintosh; Intel Mac OS X 10_15_7) AppleWebKit/605.1.15 (KHTML, like Gecko) Version/17.1.2 Safari/605.1.15",Macintosh,Safari,17.1.2,OS X,10_15_7,https://5puzkbbxv1.cognition.run/?sona_id=53421,"en-US,en;q=0.9",a7ypsr8vlwu65k4,20,"[""White""]",No,Prefer not to say,NA,No,274251,NA,4654,NA,"{""product_choice"":""A""}",choice,bw,binary,catch,null,televisions,60,85,40,35,null,null,1,null,null,null,null,null,null,Screen size,Average lifespan,NA,NA
NA,NA,NA,NA,NA,choice_trial_setup,html-keyboard-response,54,164286,0.0-4.0-0.25,152,1,2025-05-04T04:44:22Z,b60275e29fe2361ab97ac0ac217840d7,"Mozilla/5.0 (Macintosh; Intel Mac OS X 10_15_7) AppleWebKit/605.1.15 (KHTML, like Gecko) Version/17.1.2 Safari/605.1.15",Macintosh,Safari,17.1.2,OS X,10_15_7,https://5puzkbbxv1.cognition.run/?sona_id=53421,"en-US,en;q=0.9",a7ypsr8vlwu65k4,20,"[""White""]",No,Prefer not to say,NA,No,274251,NA,null,<p></p>,null,choice,tcd,trinary,repulsion_A,1,washing machines,null,null,null,null,null,null,2,NA,NA,NA,NA,NA,NA,NA,NA,NA,NA
NA,NA,NA,NA,NA,choice_trial,survey-html-form,55,167525,0.0-4.0-1.25,152,1,2025-05-04T04:44:22Z,b60275e29fe2361ab97ac0ac217840d7,"Mozilla/5.0 (Macintosh; Intel Mac OS X 10_15_7) AppleWebKit/605.1.15 (KHTML, like Gecko) Version/17.1.2 Safari/605.1.15",Macintosh,Safari,17.1.2,OS X,10_15_7,https://5puzkbbxv1.cognition.run/?sona_id=53421,"en-US,en;q=0.9",a7ypsr8vlwu65k4,20,"[""White""]",No,Prefer not to say,NA,No,274251,NA,3234,NA,"{""product_choice"":""A""}",choice,tcd,trinary,repulsion_A,1,washing machines,null,null,null,null,null,null,2,100,90,100,30,40,20,Average lifespan,Energy savings,NA,NA
NA,NA,NA,NA,NA,choice_trial_setup,html-keyboard-response,56,167828,0.0-4.0-0.26,152,1,2025-05-04T04:44:22Z,b60275e29fe2361ab97ac0ac217840d7,"Mozilla/5.0 (Macintosh; Intel Mac OS X 10_15_7) AppleWebKit/605.1.15 (KHTML, like Gecko) Version/17.1.2 Safari/605.1.15",Macintosh,Safari,17.1.2,OS X,10_15_7,https://5puzkbbxv1.cognition.run/?sona_id=53421,"en-US,en;q=0.9",a7ypsr8vlwu65k4,20,"[""White""]",No,Prefer not to say,NA,No,274251,NA,null,<p></p>,null,choice,bww,trinary,catch,null,televisions,95,50,50,40,20,5,2,NA,NA,NA,NA,NA,NA,NA,NA,NA,NA
NA,NA,NA,NA,NA,choice_trial,survey-html-form,57,170830,0.0-4.0-1.26,152,1,2025-05-04T04:44:22Z,b60275e29fe2361ab97ac0ac217840d7,"Mozilla/5.0 (Macintosh; Intel Mac OS X 10_15_7) AppleWebKit/605.1.15 (KHTML, like Gecko) Version/17.1.2 Safari/605.1.15",Macintosh,Safari,17.1.2,OS X,10_15_7,https://5puzkbbxv1.cognition.run/?sona_id=53421,"en-US,en;q=0.9",a7ypsr8vlwu65k4,20,"[""White""]",No,Prefer not to say,NA,No,274251,NA,2998,NA,"{""product_choice"":""A""}",choice,bww,trinary,catch,null,televisions,95,50,50,40,20,5,2,null,null,null,null,null,null,Screen size,Average lifespan,NA,NA
NA,NA,NA,NA,NA,choice_trial_setup,html-keyboard-response,58,171133,0.0-4.0-0.27,152,1,2025-05-04T04:44:22Z,b60275e29fe2361ab97ac0ac217840d7,"Mozilla/5.0 (Macintosh; Intel Mac OS X 10_15_7) AppleWebKit/605.1.15 (KHTML, like Gecko) Version/17.1.2 Safari/605.1.15",Macintosh,Safari,17.1.2,OS X,10_15_7,https://5puzkbbxv1.cognition.run/?sona_id=53421,"en-US,en;q=0.9",a7ypsr8vlwu65k4,20,"[""White""]",No,Prefer not to say,NA,No,274251,NA,null,<p></p>,null,choice,ctd,trinary,repulsion_A,1,televisions,null,null,null,null,null,null,1,NA,NA,NA,NA,NA,NA,NA,NA,NA,NA
NA,NA,NA,NA,NA,choice_trial,survey-html-form,59,173997,0.0-4.0-1.27,152,1,2025-05-04T04:44:22Z,b60275e29fe2361ab97ac0ac217840d7,"Mozilla/5.0 (Macintosh; Intel Mac OS X 10_15_7) AppleWebKit/605.1.15 (KHTML, like Gecko) Version/17.1.2 Safari/605.1.15",Macintosh,Safari,17.1.2,OS X,10_15_7,https://5puzkbbxv1.cognition.run/?sona_id=53421,"en-US,en;q=0.9",a7ypsr8vlwu65k4,20,"[""White""]",No,Prefer not to say,NA,No,274251,NA,2858,NA,"{""product_choice"":""A""}",choice,ctd,trinary,repulsion_A,1,televisions,null,null,null,null,null,null,1,100,90,100,30,40,20,Screen size,Average lifespan,NA,NA
NA,NA,NA,NA,NA,choice_trial_setup,html-keyboard-response,60,174299,0.0-4.0-0.28,152,1,2025-05-04T04:44:22Z,b60275e29fe2361ab97ac0ac217840d7,"Mozilla/5.0 (Macintosh; Intel Mac OS X 10_15_7) AppleWebKit/605.1.15 (KHTML, like Gecko) Version/17.1.2 Safari/605.1.15",Macintosh,Safari,17.1.2,OS X,10_15_7,https://5puzkbbxv1.cognition.run/?sona_id=53421,"en-US,en;q=0.9",a7ypsr8vlwu65k4,20,"[""White""]",No,Prefer not to say,NA,No,274251,NA,null,<p></p>,null,choice,cdt,trinary,repulsion_A,1,microwave ovens,null,null,null,null,null,null,2,NA,NA,NA,NA,NA,NA,NA,NA,NA,NA
NA,NA,NA,NA,NA,choice_trial,survey-html-form,61,177505,0.0-4.0-1.28,152,1,2025-05-04T04:44:22Z,b60275e29fe2361ab97ac0ac217840d7,"Mozilla/5.0 (Macintosh; Intel Mac OS X 10_15_7) AppleWebKit/605.1.15 (KHTML, like Gecko) Version/17.1.2 Safari/605.1.15",Macintosh,Safari,17.1.2,OS X,10_15_7,https://5puzkbbxv1.cognition.run/?sona_id=53421,"en-US,en;q=0.9",a7ypsr8vlwu65k4,20,"[""White""]",No,Prefer not to say,NA,No,274251,NA,3200,NA,"{""product_choice"":""A""}",choice,cdt,trinary,repulsion_A,1,microwave ovens,null,null,null,null,null,null,2,100,90,100,30,40,20,Warranty,Cooking power,NA,NA
NA,NA,NA,NA,NA,choice_trial_setup,html-keyboard-response,62,177807,0.0-4.0-0.29,152,1,2025-05-04T04:44:22Z,b60275e29fe2361ab97ac0ac217840d7,"Mozilla/5.0 (Macintosh; Intel Mac OS X 10_15_7) AppleWebKit/605.1.15 (KHTML, like Gecko) Version/17.1.2 Safari/605.1.15",Macintosh,Safari,17.1.2,OS X,10_15_7,https://5puzkbbxv1.cognition.run/?sona_id=53421,"en-US,en;q=0.9",a7ypsr8vlwu65k4,20,"[""White""]",No,Prefer not to say,NA,No,274251,NA,null,<p></p>,null,choice,ct,binary,repulsion,2,laptops,null,null,null,null,null,null,2,NA,NA,NA,NA,NA,NA,NA,NA,NA,NA
NA,NA,NA,NA,NA,choice_trial,survey-html-form,63,181363,0.0-4.0-1.29,152,1,2025-05-04T04:44:22Z,b60275e29fe2361ab97ac0ac217840d7,"Mozilla/5.0 (Macintosh; Intel Mac OS X 10_15_7) AppleWebKit/605.1.15 (KHTML, like Gecko) Version/17.1.2 Safari/605.1.15",Macintosh,Safari,17.1.2,OS X,10_15_7,https://5puzkbbxv1.cognition.run/?sona_id=53421,"en-US,en;q=0.9",a7ypsr8vlwu65k4,20,"[""White""]",No,Prefer not to say,NA,No,274251,NA,3552,NA,"{""product_choice"":""B""}",choice,ct,binary,repulsion,2,laptops,null,null,null,null,null,null,2,30,40,null,100,90,null,Processing speed,Memory (RAM),NA,NA
NA,NA,NA,NA,NA,choice_trial_setup,html-keyboard-response,64,181666,0.0-4.0-0.30,152,1,2025-05-04T04:44:22Z,b60275e29fe2361ab97ac0ac217840d7,"Mozilla/5.0 (Macintosh; Intel Mac OS X 10_15_7) AppleWebKit/605.1.15 (KHTML, like Gecko) Version/17.1.2 Safari/605.1.15",Macintosh,Safari,17.1.2,OS X,10_15_7,https://5puzkbbxv1.cognition.run/?sona_id=53421,"en-US,en;q=0.9",a7ypsr8vlwu65k4,20,"[""White""]",No,Prefer not to say,NA,No,274251,NA,null,<p></p>,null,choice,ct,binary,repulsion,2,televisions,null,null,null,null,null,null,2,NA,NA,NA,NA,NA,NA,NA,NA,NA,NA
NA,NA,NA,NA,NA,choice_trial,survey-html-form,65,185014,0.0-4.0-1.30,152,1,2025-05-04T04:44:22Z,b60275e29fe2361ab97ac0ac217840d7,"Mozilla/5.0 (Macintosh; Intel Mac OS X 10_15_7) AppleWebKit/605.1.15 (KHTML, like Gecko) Version/17.1.2 Safari/605.1.15",Macintosh,Safari,17.1.2,OS X,10_15_7,https://5puzkbbxv1.cognition.run/?sona_id=53421,"en-US,en;q=0.9",a7ypsr8vlwu65k4,20,"[""White""]",No,Prefer not to say,NA,No,274251,NA,3344,NA,"{""product_choice"":""B""}",choice,ct,binary,repulsion,2,televisions,null,null,null,null,null,null,2,30,40,null,100,90,null,Screen size,Average lifespan,NA,NA
NA,NA,NA,NA,NA,choice_trial_setup,html-keyboard-response,66,185317,0.0-4.0-0.31,152,1,2025-05-04T04:44:22Z,b60275e29fe2361ab97ac0ac217840d7,"Mozilla/5.0 (Macintosh; Intel Mac OS X 10_15_7) AppleWebKit/605.1.15 (KHTML, like Gecko) Version/17.1.2 Safari/605.1.15",Macintosh,Safari,17.1.2,OS X,10_15_7,https://5puzkbbxv1.cognition.run/?sona_id=53421,"en-US,en;q=0.9",a7ypsr8vlwu65k4,20,"[""White""]",No,Prefer not to say,NA,No,274251,NA,null,<p></p>,null,choice,tc,binary,repulsion,1,laptops,null,null,null,null,null,null,2,NA,NA,NA,NA,NA,NA,NA,NA,NA,NA
NA,NA,NA,NA,NA,choice_trial,survey-html-form,67,188126,0.0-4.0-1.31,152,1,2025-05-04T04:44:22Z,b60275e29fe2361ab97ac0ac217840d7,"Mozilla/5.0 (Macintosh; Intel Mac OS X 10_15_7) AppleWebKit/605.1.15 (KHTML, like Gecko) Version/17.1.2 Safari/605.1.15",Macintosh,Safari,17.1.2,OS X,10_15_7,https://5puzkbbxv1.cognition.run/?sona_id=53421,"en-US,en;q=0.9",a7ypsr8vlwu65k4,20,"[""White""]",No,Prefer not to say,NA,No,274251,NA,2805,NA,"{""product_choice"":""B""}",choice,tc,binary,repulsion,1,laptops,null,null,null,null,null,null,2,100,90,null,30,40,null,Processing speed,Memory (RAM),NA,NA
NA,NA,NA,NA,NA,choice_trial_setup,html-keyboard-response,68,188428,0.0-4.0-0.32,152,1,2025-05-04T04:44:22Z,b60275e29fe2361ab97ac0ac217840d7,"Mozilla/5.0 (Macintosh; Intel Mac OS X 10_15_7) AppleWebKit/605.1.15 (KHTML, like Gecko) Version/17.1.2 Safari/605.1.15",Macintosh,Safari,17.1.2,OS X,10_15_7,https://5puzkbbxv1.cognition.run/?sona_id=53421,"en-US,en;q=0.9",a7ypsr8vlwu65k4,20,"[""White""]",No,Prefer not to say,NA,No,274251,NA,null,<p></p>,null,choice,dct,trinary,attraction,2,microwave ovens,null,null,null,null,null,null,2,NA,NA,NA,NA,NA,NA,NA,NA,NA,NA
NA,NA,NA,NA,NA,choice_trial,survey-html-form,69,191792,0.0-4.0-1.32,152,1,2025-05-04T04:44:22Z,b60275e29fe2361ab97ac0ac217840d7,"Mozilla/5.0 (Macintosh; Intel Mac OS X 10_15_7) AppleWebKit/605.1.15 (KHTML, like Gecko) Version/17.1.2 Safari/605.1.15",Macintosh,Safari,17.1.2,OS X,10_15_7,https://5puzkbbxv1.cognition.run/?sona_id=53421,"en-US,en;q=0.9",a7ypsr8vlwu65k4,20,"[""White""]",No,Prefer not to say,NA,No,274251,NA,3359,NA,"{""product_choice"":""C""}",choice,dct,trinary,attraction,2,microwave ovens,null,null,null,null,null,null,2,50,60,40,60,50,60,Warranty,Cooking power,NA,NA
NA,NA,NA,NA,NA,choice_trial_setup,html-keyboard-response,70,192094,0.0-4.0-0.33,152,1,2025-05-04T04:44:22Z,b60275e29fe2361ab97ac0ac217840d7,"Mozilla/5.0 (Macintosh; Intel Mac OS X 10_15_7) AppleWebKit/605.1.15 (KHTML, like Gecko) Version/17.1.2 Safari/605.1.15",Macintosh,Safari,17.1.2,OS X,10_15_7,https://5puzkbbxv1.cognition.run/?sona_id=53421,"en-US,en;q=0.9",a7ypsr8vlwu65k4,20,"[""White""]",No,Prefer not to say,NA,No,274251,NA,null,<p></p>,null,choice,tdc,trinary,attraction,2,laptops,null,null,null,null,null,null,1,NA,NA,NA,NA,NA,NA,NA,NA,NA,NA
NA,NA,NA,NA,NA,choice_trial,survey-html-form,71,195958,0.0-4.0-1.33,152,1,2025-05-04T04:44:22Z,b60275e29fe2361ab97ac0ac217840d7,"Mozilla/5.0 (Macintosh; Intel Mac OS X 10_15_7) AppleWebKit/605.1.15 (KHTML, like Gecko) Version/17.1.2 Safari/605.1.15",Macintosh,Safari,17.1.2,OS X,10_15_7,https://5puzkbbxv1.cognition.run/?sona_id=53421,"en-US,en;q=0.9",a7ypsr8vlwu65k4,20,"[""White""]",No,Prefer not to say,NA,No,274251,NA,3859,NA,"{""product_choice"":""A""}",choice,tdc,trinary,attraction,2,laptops,null,null,null,null,null,null,1,50,60,40,60,50,60,Processing speed,Memory (RAM),NA,NA
NA,NA,NA,NA,NA,choice_trial_setup,html-keyboard-response,72,196261,0.0-4.0-0.34,152,1,2025-05-04T04:44:22Z,b60275e29fe2361ab97ac0ac217840d7,"Mozilla/5.0 (Macintosh; Intel Mac OS X 10_15_7) AppleWebKit/605.1.15 (KHTML, like Gecko) Version/17.1.2 Safari/605.1.15",Macintosh,Safari,17.1.2,OS X,10_15_7,https://5puzkbbxv1.cognition.run/?sona_id=53421,"en-US,en;q=0.9",a7ypsr8vlwu65k4,20,"[""White""]",No,Prefer not to say,NA,No,274251,NA,null,<p></p>,null,choice,wb,binary,catch,null,washing machines,75,95,20,30,null,null,1,NA,NA,NA,NA,NA,NA,NA,NA,NA,NA
NA,NA,NA,NA,NA,choice_trial,survey-html-form,73,199747,0.0-4.0-1.34,152,1,2025-05-04T04:44:22Z,b60275e29fe2361ab97ac0ac217840d7,"Mozilla/5.0 (Macintosh; Intel Mac OS X 10_15_7) AppleWebKit/605.1.15 (KHTML, like Gecko) Version/17.1.2 Safari/605.1.15",Macintosh,Safari,17.1.2,OS X,10_15_7,https://5puzkbbxv1.cognition.run/?sona_id=53421,"en-US,en;q=0.9",a7ypsr8vlwu65k4,20,"[""White""]",No,Prefer not to say,NA,No,274251,NA,3482,NA,"{""product_choice"":""B""}",choice,wb,binary,catch,null,washing machines,75,95,20,30,null,null,1,null,null,null,null,null,null,Average lifespan,Energy savings,NA,NA
NA,NA,NA,NA,NA,choice_trial_setup,html-keyboard-response,74,200049,0.0-4.0-0.35,152,1,2025-05-04T04:44:22Z,b60275e29fe2361ab97ac0ac217840d7,"Mozilla/5.0 (Macintosh; Intel Mac OS X 10_15_7) AppleWebKit/605.1.15 (KHTML, like Gecko) Version/17.1.2 Safari/605.1.15",Macintosh,Safari,17.1.2,OS X,10_15_7,https://5puzkbbxv1.cognition.run/?sona_id=53421,"en-US,en;q=0.9",a7ypsr8vlwu65k4,20,"[""White""]",No,Prefer not to say,NA,No,274251,NA,null,<p></p>,null,choice,wbw,trinary,catch,null,microwave ovens,95,75,50,5,45,30,1,NA,NA,NA,NA,NA,NA,NA,NA,NA,NA
NA,NA,NA,NA,NA,choice_trial,survey-html-form,75,203247,0.0-4.0-1.35,152,1,2025-05-04T04:44:22Z,b60275e29fe2361ab97ac0ac217840d7,"Mozilla/5.0 (Macintosh; Intel Mac OS X 10_15_7) AppleWebKit/605.1.15 (KHTML, like Gecko) Version/17.1.2 Safari/605.1.15",Macintosh,Safari,17.1.2,OS X,10_15_7,https://5puzkbbxv1.cognition.run/?sona_id=53421,"en-US,en;q=0.9",a7ypsr8vlwu65k4,20,"[""White""]",No,Prefer not to say,NA,No,274251,NA,3193,NA,"{""product_choice"":""B""}",choice,wbw,trinary,catch,null,microwave ovens,95,75,50,5,45,30,1,null,null,null,null,null,null,Warranty,Cooking power,NA,NA
NA,NA,NA,NA,NA,choice_trial_setup,html-keyboard-response,76,203551,0.0-4.0-0.36,152,1,2025-05-04T04:44:22Z,b60275e29fe2361ab97ac0ac217840d7,"Mozilla/5.0 (Macintosh; Intel Mac OS X 10_15_7) AppleWebKit/605.1.15 (KHTML, like Gecko) Version/17.1.2 Safari/605.1.15",Macintosh,Safari,17.1.2,OS X,10_15_7,https://5puzkbbxv1.cognition.run/?sona_id=53421,"en-US,en;q=0.9",a7ypsr8vlwu65k4,20,"[""White""]",No,Prefer not to say,NA,No,274251,NA,null,<p></p>,null,choice,tcd,trinary,repulsion_A,2,washing machines,null,null,null,null,null,null,2,NA,NA,NA,NA,NA,NA,NA,NA,NA,NA
NA,NA,NA,NA,NA,choice_trial,survey-html-form,77,206980,0.0-4.0-1.36,152,1,2025-05-04T04:44:22Z,b60275e29fe2361ab97ac0ac217840d7,"Mozilla/5.0 (Macintosh; Intel Mac OS X 10_15_7) AppleWebKit/605.1.15 (KHTML, like Gecko) Version/17.1.2 Safari/605.1.15",Macintosh,Safari,17.1.2,OS X,10_15_7,https://5puzkbbxv1.cognition.run/?sona_id=53421,"en-US,en;q=0.9",a7ypsr8vlwu65k4,20,"[""White""]",No,Prefer not to say,NA,No,274251,NA,3424,NA,"{""product_choice"":""B""}",choice,tcd,trinary,repulsion_A,2,washing machines,null,null,null,null,null,null,2,30,40,20,100,90,100,Average lifespan,Energy savings,NA,NA
NA,NA,NA,NA,NA,choice_trial_setup,html-keyboard-response,78,207283,0.0-4.0-0.37,152,1,2025-05-04T04:44:22Z,b60275e29fe2361ab97ac0ac217840d7,"Mozilla/5.0 (Macintosh; Intel Mac OS X 10_15_7) AppleWebKit/605.1.15 (KHTML, like Gecko) Version/17.1.2 Safari/605.1.15",Macintosh,Safari,17.1.2,OS X,10_15_7,https://5puzkbbxv1.cognition.run/?sona_id=53421,"en-US,en;q=0.9",a7ypsr8vlwu65k4,20,"[""White""]",No,Prefer not to say,NA,No,274251,NA,null,<p></p>,null,choice,ctd,trinary,repulsion_B,1,televisions,null,null,null,null,null,null,2,NA,NA,NA,NA,NA,NA,NA,NA,NA,NA
NA,NA,NA,NA,NA,choice_trial,survey-html-form,79,210138,0.0-4.0-1.37,152,1,2025-05-04T04:44:22Z,b60275e29fe2361ab97ac0ac217840d7,"Mozilla/5.0 (Macintosh; Intel Mac OS X 10_15_7) AppleWebKit/605.1.15 (KHTML, like Gecko) Version/17.1.2 Safari/605.1.15",Macintosh,Safari,17.1.2,OS X,10_15_7,https://5puzkbbxv1.cognition.run/?sona_id=53421,"en-US,en;q=0.9",a7ypsr8vlwu65k4,20,"[""White""]",No,Prefer not to say,NA,No,274251,NA,2849,NA,"{""product_choice"":""B""}",choice,ctd,trinary,repulsion_B,1,televisions,null,null,null,null,null,null,2,90,100,80,40,30,40,Screen size,Average lifespan,NA,NA
NA,NA,NA,NA,NA,choice_trial_setup,html-keyboard-response,80,210441,0.0-4.0-0.38,152,1,2025-05-04T04:44:22Z,b60275e29fe2361ab97ac0ac217840d7,"Mozilla/5.0 (Macintosh; Intel Mac OS X 10_15_7) AppleWebKit/605.1.15 (KHTML, like Gecko) Version/17.1.2 Safari/605.1.15",Macintosh,Safari,17.1.2,OS X,10_15_7,https://5puzkbbxv1.cognition.run/?sona_id=53421,"en-US,en;q=0.9",a7ypsr8vlwu65k4,20,"[""White""]",No,Prefer not to say,NA,No,274251,NA,null,<p></p>,null,choice,wbw,trinary,catch,null,laptops,70,85,25,45,25,25,2,NA,NA,NA,NA,NA,NA,NA,NA,NA,NA
NA,NA,NA,NA,NA,choice_trial,survey-html-form,81,212541,0.0-4.0-1.38,152,1,2025-05-04T04:44:22Z,b60275e29fe2361ab97ac0ac217840d7,"Mozilla/5.0 (Macintosh; Intel Mac OS X 10_15_7) AppleWebKit/605.1.15 (KHTML, like Gecko) Version/17.1.2 Safari/605.1.15",Macintosh,Safari,17.1.2,OS X,10_15_7,https://5puzkbbxv1.cognition.run/?sona_id=53421,"en-US,en;q=0.9",a7ypsr8vlwu65k4,20,"[""White""]",No,Prefer not to say,NA,No,274251,NA,2096,NA,"{""product_choice"":""B""}",choice,wbw,trinary,catch,null,laptops,70,85,25,45,25,25,2,null,null,null,null,null,null,Processing speed,Memory (RAM),NA,NA
NA,NA,NA,NA,NA,choice_trial_setup,html-keyboard-response,82,212843,0.0-4.0-0.39,152,1,2025-05-04T04:44:22Z,b60275e29fe2361ab97ac0ac217840d7,"Mozilla/5.0 (Macintosh; Intel Mac OS X 10_15_7) AppleWebKit/605.1.15 (KHTML, like Gecko) Version/17.1.2 Safari/605.1.15",Macintosh,Safari,17.1.2,OS X,10_15_7,https://5puzkbbxv1.cognition.run/?sona_id=53421,"en-US,en;q=0.9",a7ypsr8vlwu65k4,20,"[""White""]",No,Prefer not to say,NA,No,274251,NA,null,<p></p>,null,choice,ctd,trinary,repulsion_B,2,washing machines,null,null,null,null,null,null,2,NA,NA,NA,NA,NA,NA,NA,NA,NA,NA
NA,NA,NA,NA,NA,choice_trial,survey-html-form,83,215657,0.0-4.0-1.39,152,1,2025-05-04T04:44:22Z,b60275e29fe2361ab97ac0ac217840d7,"Mozilla/5.0 (Macintosh; Intel Mac OS X 10_15_7) AppleWebKit/605.1.15 (KHTML, like Gecko) Version/17.1.2 Safari/605.1.15",Macintosh,Safari,17.1.2,OS X,10_15_7,https://5puzkbbxv1.cognition.run/?sona_id=53421,"en-US,en;q=0.9",a7ypsr8vlwu65k4,20,"[""White""]",No,Prefer not to say,NA,No,274251,NA,2809,NA,"{""product_choice"":""B""}",choice,ctd,trinary,repulsion_B,2,washing machines,null,null,null,null,null,null,2,40,30,40,90,100,80,Average lifespan,Energy savings,NA,NA
NA,NA,NA,NA,NA,choice_trial_setup,html-keyboard-response,84,215960,0.0-4.0-0.40,152,1,2025-05-04T04:44:22Z,b60275e29fe2361ab97ac0ac217840d7,"Mozilla/5.0 (Macintosh; Intel Mac OS X 10_15_7) AppleWebKit/605.1.15 (KHTML, like Gecko) Version/17.1.2 Safari/605.1.15",Macintosh,Safari,17.1.2,OS X,10_15_7,https://5puzkbbxv1.cognition.run/?sona_id=53421,"en-US,en;q=0.9",a7ypsr8vlwu65k4,20,"[""White""]",No,Prefer not to say,NA,No,274251,NA,null,<p></p>,null,choice,tc,binary,repulsion,2,washing machines,null,null,null,null,null,null,2,NA,NA,NA,NA,NA,NA,NA,NA,NA,NA
NA,NA,NA,NA,NA,choice_trial,survey-html-form,85,220104,0.0-4.0-1.40,152,1,2025-05-04T04:44:22Z,b60275e29fe2361ab97ac0ac217840d7,"Mozilla/5.0 (Macintosh; Intel Mac OS X 10_15_7) AppleWebKit/605.1.15 (KHTML, like Gecko) Version/17.1.2 Safari/605.1.15",Macintosh,Safari,17.1.2,OS X,10_15_7,https://5puzkbbxv1.cognition.run/?sona_id=53421,"en-US,en;q=0.9",a7ypsr8vlwu65k4,20,"[""White""]",No,Prefer not to say,NA,No,274251,NA,4139,NA,"{""product_choice"":""B""}",choice,tc,binary,repulsion,2,washing machines,null,null,null,null,null,null,2,30,40,null,100,90,null,Average lifespan,Energy savings,NA,NA
NA,NA,NA,NA,NA,choice_trial_setup,html-keyboard-response,86,220406,0.0-4.0-0.41,152,1,2025-05-04T04:44:22Z,b60275e29fe2361ab97ac0ac217840d7,"Mozilla/5.0 (Macintosh; Intel Mac OS X 10_15_7) AppleWebKit/605.1.15 (KHTML, like Gecko) Version/17.1.2 Safari/605.1.15",Macintosh,Safari,17.1.2,OS X,10_15_7,https://5puzkbbxv1.cognition.run/?sona_id=53421,"en-US,en;q=0.9",a7ypsr8vlwu65k4,20,"[""White""]",No,Prefer not to say,NA,No,274251,NA,null,<p></p>,null,choice,tc,binary,repulsion,1,washing machines,null,null,null,null,null,null,2,NA,NA,NA,NA,NA,NA,NA,NA,NA,NA
NA,NA,NA,NA,NA,choice_trial,survey-html-form,87,222307,0.0-4.0-1.41,152,1,2025-05-04T04:44:22Z,b60275e29fe2361ab97ac0ac217840d7,"Mozilla/5.0 (Macintosh; Intel Mac OS X 10_15_7) AppleWebKit/605.1.15 (KHTML, like Gecko) Version/17.1.2 Safari/605.1.15",Macintosh,Safari,17.1.2,OS X,10_15_7,https://5puzkbbxv1.cognition.run/?sona_id=53421,"en-US,en;q=0.9",a7ypsr8vlwu65k4,20,"[""White""]",No,Prefer not to say,NA,No,274251,NA,1896,NA,"{""product_choice"":""A""}",choice,tc,binary,repulsion,1,washing machines,null,null,null,null,null,null,2,100,90,null,30,40,null,Average lifespan,Energy savings,NA,NA
NA,NA,NA,NA,NA,choice_trial_setup,html-keyboard-response,88,222610,0.0-4.0-0.42,152,1,2025-05-04T04:44:22Z,b60275e29fe2361ab97ac0ac217840d7,"Mozilla/5.0 (Macintosh; Intel Mac OS X 10_15_7) AppleWebKit/605.1.15 (KHTML, like Gecko) Version/17.1.2 Safari/605.1.15",Macintosh,Safari,17.1.2,OS X,10_15_7,https://5puzkbbxv1.cognition.run/?sona_id=53421,"en-US,en;q=0.9",a7ypsr8vlwu65k4,20,"[""White""]",No,Prefer not to say,NA,No,274251,NA,null,<p></p>,null,choice,wb,binary,catch,null,laptops,95,55,35,45,null,null,1,NA,NA,NA,NA,NA,NA,NA,NA,NA,NA
NA,NA,NA,NA,NA,choice_trial,survey-html-form,89,226179,0.0-4.0-1.42,152,1,2025-05-04T04:44:22Z,b60275e29fe2361ab97ac0ac217840d7,"Mozilla/5.0 (Macintosh; Intel Mac OS X 10_15_7) AppleWebKit/605.1.15 (KHTML, like Gecko) Version/17.1.2 Safari/605.1.15",Macintosh,Safari,17.1.2,OS X,10_15_7,https://5puzkbbxv1.cognition.run/?sona_id=53421,"en-US,en;q=0.9",a7ypsr8vlwu65k4,20,"[""White""]",No,Prefer not to say,NA,No,274251,NA,3565,NA,"{""product_choice"":""B""}",choice,wb,binary,catch,null,laptops,95,55,35,45,null,null,1,null,null,null,null,null,null,Processing speed,Memory (RAM),NA,NA
NA,NA,NA,NA,NA,choice_trial_setup,html-keyboard-response,90,226482,0.0-4.0-0.43,152,1,2025-05-04T04:44:22Z,b60275e29fe2361ab97ac0ac217840d7,"Mozilla/5.0 (Macintosh; Intel Mac OS X 10_15_7) AppleWebKit/605.1.15 (KHTML, like Gecko) Version/17.1.2 Safari/605.1.15",Macintosh,Safari,17.1.2,OS X,10_15_7,https://5puzkbbxv1.cognition.run/?sona_id=53421,"en-US,en;q=0.9",a7ypsr8vlwu65k4,20,"[""White""]",No,Prefer not to say,NA,No,274251,NA,null,<p></p>,null,choice,bww,trinary,catch,null,washing machines,50,85,5,20,35,50,2,NA,NA,NA,NA,NA,NA,NA,NA,NA,NA
NA,NA,NA,NA,NA,choice_trial,survey-html-form,91,230620,0.0-4.0-1.43,152,1,2025-05-04T04:44:22Z,b60275e29fe2361ab97ac0ac217840d7,"Mozilla/5.0 (Macintosh; Intel Mac OS X 10_15_7) AppleWebKit/605.1.15 (KHTML, like Gecko) Version/17.1.2 Safari/605.1.15",Macintosh,Safari,17.1.2,OS X,10_15_7,https://5puzkbbxv1.cognition.run/?sona_id=53421,"en-US,en;q=0.9",a7ypsr8vlwu65k4,20,"[""White""]",No,Prefer not to say,NA,No,274251,NA,4134,NA,"{""product_choice"":""A""}",choice,bww,trinary,catch,null,washing machines,50,85,5,20,35,50,2,null,null,null,null,null,null,Average lifespan,Energy savings,NA,NA
NA,NA,NA,NA,NA,post_trials_message,html-button-response,92,231774,0.0-5.0,152,1,2025-05-04T04:44:22Z,b60275e29fe2361ab97ac0ac217840d7,"Mozilla/5.0 (Macintosh; Intel Mac OS X 10_15_7) AppleWebKit/605.1.15 (KHTML, like Gecko) Version/17.1.2 Safari/605.1.15",Macintosh,Safari,17.1.2,OS X,10_15_7,https://5puzkbbxv1.cognition.run/?sona_id=53421,"en-US,en;q=0.9",a7ypsr8vlwu65k4,20,"[""White""]",No,Prefer not to say,NA,No,274251,NA,1150,<p> <b>Thank you for your patience!</b></p><p>  The study will be done after completing a brief form. </p>,0,NA,NA,NA,NA,NA,NA,NA,NA,NA,NA,NA,NA,NA,NA,NA,NA,NA,NA,NA,NA,NA,NA,NA
NA,NA,NA,NA,NA,survey_message,survey-text,93,247712,0.0-6.0,152,1,2025-05-04T04:44:22Z,b60275e29fe2361ab97ac0ac217840d7,"Mozilla/5.0 (Macintosh; Intel Mac OS X 10_15_7) AppleWebKit/605.1.15 (KHTML, like Gecko) Version/17.1.2 Safari/605.1.15",Macintosh,Safari,17.1.2,OS X,10_15_7,https://5puzkbbxv1.cognition.run/?sona_id=53421,"en-US,en;q=0.9",a7ypsr8vlwu65k4,20,"[""White""]",No,Prefer not to say,NA,No,274251,NA,15927,NA,"{""Q0"":""I picked the one that seemed the most optimal among the categories.""}",NA,NA,NA,NA,NA,NA,NA,NA,NA,NA,NA,NA,NA,NA,NA,NA,NA,NA,NA,NA,NA,I picked the one that seemed the most optimal among the categories.,NA
NA,NA,NA,NA,NA,demo_age,survey-text,94,250292,0.0-7.0,152,1,2025-05-04T04:44:22Z,b60275e29fe2361ab97ac0ac217840d7,"Mozilla/5.0 (Macintosh; Intel Mac OS X 10_15_7) AppleWebKit/605.1.15 (KHTML, like Gecko) Version/17.1.2 Safari/605.1.15",Macintosh,Safari,17.1.2,OS X,10_15_7,https://5puzkbbxv1.cognition.run/?sona_id=53421,"en-US,en;q=0.9",a7ypsr8vlwu65k4,20,"[""White""]",No,Prefer not to say,NA,No,274251,NA,2574,NA,"{""Q0"":""20""}",NA,NA,NA,NA,NA,NA,NA,NA,NA,NA,NA,NA,NA,NA,NA,NA,NA,NA,NA,NA,NA,NA,NA
NA,NA,NA,NA,NA,demo_race,survey-multi-select,95,252739,0.0-8.0,152,1,2025-05-04T04:44:22Z,b60275e29fe2361ab97ac0ac217840d7,"Mozilla/5.0 (Macintosh; Intel Mac OS X 10_15_7) AppleWebKit/605.1.15 (KHTML, like Gecko) Version/17.1.2 Safari/605.1.15",Macintosh,Safari,17.1.2,OS X,10_15_7,https://5puzkbbxv1.cognition.run/?sona_id=53421,"en-US,en;q=0.9",a7ypsr8vlwu65k4,20,"[""White""]",No,Prefer not to say,NA,No,274251,NA,2443,NA,"{""Q0"":[""White""]}",NA,NA,NA,NA,NA,NA,NA,NA,NA,NA,NA,NA,NA,NA,NA,NA,NA,NA,NA,NA,NA,NA,[0]
NA,NA,NA,NA,NA,demo_ethnicity_gender,survey-multi-choice,96,256362,0.0-9.0,152,1,2025-05-04T04:44:22Z,b60275e29fe2361ab97ac0ac217840d7,"Mozilla/5.0 (Macintosh; Intel Mac OS X 10_15_7) AppleWebKit/605.1.15 (KHTML, like Gecko) Version/17.1.2 Safari/605.1.15",Macintosh,Safari,17.1.2,OS X,10_15_7,https://5puzkbbxv1.cognition.run/?sona_id=53421,"en-US,en;q=0.9",a7ypsr8vlwu65k4,20,"[""White""]",No,Prefer not to say,NA,No,274251,NA,3620,NA,"{""Q0"":""No"",""Q1"":""Prefer not to say""}",NA,NA,NA,NA,NA,NA,NA,NA,NA,NA,NA,NA,NA,NA,NA,NA,NA,NA,NA,NA,NA,NA,"[0,1]"
NA,NA,NA,NA,NA,demo_countries,survey-text,97,259354,0.0-10.0,152,1,2025-05-04T04:44:22Z,b60275e29fe2361ab97ac0ac217840d7,"Mozilla/5.0 (Macintosh; Intel Mac OS X 10_15_7) AppleWebKit/605.1.15 (KHTML, like Gecko) Version/17.1.2 Safari/605.1.15",Macintosh,Safari,17.1.2,OS X,10_15_7,https://5puzkbbxv1.cognition.run/?sona_id=53421,"en-US,en;q=0.9",a7ypsr8vlwu65k4,20,"[""White""]",No,Prefer not to say,NA,No,274251,NA,2989,NA,"{""Q0"":""NA""}",NA,NA,NA,NA,NA,NA,NA,NA,NA,NA,NA,NA,NA,NA,NA,NA,NA,NA,NA,NA,NA,NA,NA
NA,NA,NA,NA,NA,demo_prev_study,survey-multi-choice,98,266590,0.0-11.0,152,1,2025-05-04T04:44:22Z,b60275e29fe2361ab97ac0ac217840d7,"Mozilla/5.0 (Macintosh; Intel Mac OS X 10_15_7) AppleWebKit/605.1.15 (KHTML, like Gecko) Version/17.1.2 Safari/605.1.15",Macintosh,Safari,17.1.2,OS X,10_15_7,https://5puzkbbxv1.cognition.run/?sona_id=53421,"en-US,en;q=0.9",a7ypsr8vlwu65k4,20,"[""White""]",No,Prefer not to say,NA,No,274251,NA,7233,NA,"{""Q0"":""No""}",NA,NA,NA,NA,NA,NA,NA,NA,NA,NA,NA,NA,NA,NA,NA,NA,NA,NA,NA,NA,NA,NA,[0]
NA,NA,NA,NA,NA,post_survey_message,html-keyboard-response,99,271067,0.0-12.0,152,1,2025-05-04T04:44:22Z,b60275e29fe2361ab97ac0ac217840d7,"Mozilla/5.0 (Macintosh; Intel Mac OS X 10_15_7) AppleWebKit/605.1.15 (KHTML, like Gecko) Version/17.1.2 Safari/605.1.15",Macintosh,Safari,17.1.2,OS X,10_15_7,https://5puzkbbxv1.cognition.run/?sona_id=53421,"en-US,en;q=0.9",a7ypsr8vlwu65k4,20,"[""White""]",No,Prefer not to say,NA,No,274251,NA,4473,NA,j,NA,NA,NA,NA,NA,NA,NA,NA,NA,NA,NA,NA,NA,NA,NA,NA,NA,NA,NA,NA,NA,NA,NA
NA,NA,NA,NA,NA,debrief,image-keyboard-response,100,274244,0.0-13.0,152,1,2025-05-04T04:44:22Z,b60275e29fe2361ab97ac0ac217840d7,"Mozilla/5.0 (Macintosh; Intel Mac OS X 10_15_7) AppleWebKit/605.1.15 (KHTML, like Gecko) Version/17.1.2 Safari/605.1.15",Macintosh,Safari,17.1.2,OS X,10_15_7,https://5puzkbbxv1.cognition.run/?sona_id=53421,"en-US,en;q=0.9",a7ypsr8vlwu65k4,20,"[""White""]",No,Prefer not to say,NA,No,274251,NA,3159,Judg_choice_debrief.png,p,NA,NA,NA,NA,NA,NA,NA,NA,NA,NA,NA,NA,NA,NA,NA,NA,NA,NA,NA,NA,NA,NA,NA
