success,timeout,failed_images,failed_audio,failed_video,screen_id,trial_type,trial_index,time_elapsed,internal_node_id,run_id,condition,recorded_at,source_code_version,user_agent,device,browser,browser_version,platform,platform_version,referer,accept_language,ppt_id,age,race,ethnicity,gender,other_countries,prev_study,exp_duration,view_history,rt,stimulus,response,phase,order,set,effect,t_high,category,d1_best,d2_best,d1_worst1,d2_worst1,d1_worst2,d2_worst2,first_dim,d1_t,d1_c,d1_d,d2_t,d2_c,d2_d,d1_name,d2_name,strategy_response,question_order
TRUE,FALSE,[],[],[],img preload,preload,0,454,0.0-0.0,154,1,2025-05-04T16:19:36Z,b60275e29fe2361ab97ac0ac217840d7,"Mozilla/5.0 (Macintosh; Intel Mac OS X 10_15_7) AppleWebKit/605.1.15 (KHTML, like Gecko) Version/18.4 Safari/605.1.15",Macintosh,Safari,18.4,OS X,10_15_7,https://5puzkbbxv1.cognition.run/?sona_id=54907,"en-US,en;q=0.9",vxqfytz1j9rosnu,20,"[""White""]",No,Female,NA,No,455787,NA,NA,NA,NA,NA,NA,NA,NA,NA,NA,NA,NA,NA,NA,NA,NA,NA,NA,NA,NA,NA,NA,NA,NA,NA,NA,NA
NA,NA,NA,NA,NA,computer_message,instructions,1,2960,0.0-1.0,154,1,2025-05-04T16:19:36Z,b60275e29fe2361ab97ac0ac217840d7,"Mozilla/5.0 (Macintosh; Intel Mac OS X 10_15_7) AppleWebKit/605.1.15 (KHTML, like Gecko) Version/18.4 Safari/605.1.15",Macintosh,Safari,18.4,OS X,10_15_7,https://5puzkbbxv1.cognition.run/?sona_id=54907,"en-US,en;q=0.9",vxqfytz1j9rosnu,20,"[""White""]",No,Female,NA,No,455787,"[{""page_index"":0,""viewing_time"":2504}]",2504,NA,NA,NA,NA,NA,NA,NA,NA,NA,NA,NA,NA,NA,NA,NA,NA,NA,NA,NA,NA,NA,NA,NA,NA,NA
TRUE,NA,NA,NA,NA,NA,fullscreen,2,5278,0.0-2.0,154,1,2025-05-04T16:19:36Z,b60275e29fe2361ab97ac0ac217840d7,"Mozilla/5.0 (Macintosh; Intel Mac OS X 10_15_7) AppleWebKit/605.1.15 (KHTML, like Gecko) Version/18.4 Safari/605.1.15",Macintosh,Safari,18.4,OS X,10_15_7,https://5puzkbbxv1.cognition.run/?sona_id=54907,"en-US,en;q=0.9",vxqfytz1j9rosnu,20,"[""White""]",No,Female,NA,No,455787,NA,1315,NA,NA,NA,NA,NA,NA,NA,NA,NA,NA,NA,NA,NA,NA,NA,NA,NA,NA,NA,NA,NA,NA,NA,NA,NA
NA,NA,NA,NA,NA,choice_instructions,instructions,3,44977,0.0-3.0,154,1,2025-05-04T16:19:36Z,b60275e29fe2361ab97ac0ac217840d7,"Mozilla/5.0 (Macintosh; Intel Mac OS X 10_15_7) AppleWebKit/605.1.15 (KHTML, like Gecko) Version/18.4 Safari/605.1.15",Macintosh,Safari,18.4,OS X,10_15_7,https://5puzkbbxv1.cognition.run/?sona_id=54907,"en-US,en;q=0.9",vxqfytz1j9rosnu,20,"[""White""]",No,Female,NA,No,455787,"[{""page_index"":0,""viewing_time"":1248},{""page_index"":1,""viewing_time"":4949},{""page_index"":2,""viewing_time"":3984},{""page_index"":3,""viewing_time"":6799},{""page_index"":4,""viewing_time"":3419},{""page_index"":5,""viewing_time"":12816},{""page_index"":6,""viewing_time"":6484}]",39699,NA,NA,NA,NA,NA,NA,NA,NA,NA,NA,NA,NA,NA,NA,NA,NA,NA,NA,NA,NA,NA,NA,NA,NA,NA
NA,NA,NA,NA,NA,choice_trial_setup,html-keyboard-response,4,45280,0.0-4.0-0.0,154,1,2025-05-04T16:19:36Z,b60275e29fe2361ab97ac0ac217840d7,"Mozilla/5.0 (Macintosh; Intel Mac OS X 10_15_7) AppleWebKit/605.1.15 (KHTML, like Gecko) Version/18.4 Safari/605.1.15",Macintosh,Safari,18.4,OS X,10_15_7,https://5puzkbbxv1.cognition.run/?sona_id=54907,"en-US,en;q=0.9",vxqfytz1j9rosnu,20,"[""White""]",No,Female,NA,No,455787,NA,null,<p></p>,null,choice,tcd,trinary,attraction,1,televisions,null,null,null,null,null,null,2,NA,NA,NA,NA,NA,NA,NA,NA,NA,NA
NA,NA,NA,NA,NA,choice_trial,survey-html-form,5,53931,0.0-4.0-1.0,154,1,2025-05-04T16:19:36Z,b60275e29fe2361ab97ac0ac217840d7,"Mozilla/5.0 (Macintosh; Intel Mac OS X 10_15_7) AppleWebKit/605.1.15 (KHTML, like Gecko) Version/18.4 Safari/605.1.15",Macintosh,Safari,18.4,OS X,10_15_7,https://5puzkbbxv1.cognition.run/?sona_id=54907,"en-US,en;q=0.9",vxqfytz1j9rosnu,20,"[""White""]",No,Female,NA,No,455787,NA,8646,NA,"{""product_choice"":""B""}",choice,tcd,trinary,attraction,1,televisions,null,null,null,null,null,null,2,60,50,60,50,60,40,Screen size,Average lifespan,NA,NA
NA,NA,NA,NA,NA,choice_trial_setup,html-keyboard-response,6,54233,0.0-4.0-0.1,154,1,2025-05-04T16:19:36Z,b60275e29fe2361ab97ac0ac217840d7,"Mozilla/5.0 (Macintosh; Intel Mac OS X 10_15_7) AppleWebKit/605.1.15 (KHTML, like Gecko) Version/18.4 Safari/605.1.15",Macintosh,Safari,18.4,OS X,10_15_7,https://5puzkbbxv1.cognition.run/?sona_id=54907,"en-US,en;q=0.9",vxqfytz1j9rosnu,20,"[""White""]",No,Female,NA,No,455787,NA,null,<p></p>,null,choice,ct,binary,repulsion,2,laptops,null,null,null,null,null,null,1,NA,NA,NA,NA,NA,NA,NA,NA,NA,NA
NA,NA,NA,NA,NA,choice_trial,survey-html-form,7,69196,0.0-4.0-1.1,154,1,2025-05-04T16:19:36Z,b60275e29fe2361ab97ac0ac217840d7,"Mozilla/5.0 (Macintosh; Intel Mac OS X 10_15_7) AppleWebKit/605.1.15 (KHTML, like Gecko) Version/18.4 Safari/605.1.15",Macintosh,Safari,18.4,OS X,10_15_7,https://5puzkbbxv1.cognition.run/?sona_id=54907,"en-US,en;q=0.9",vxqfytz1j9rosnu,20,"[""White""]",No,Female,NA,No,455787,NA,14960,NA,"{""product_choice"":""A""}",choice,ct,binary,repulsion,2,laptops,null,null,null,null,null,null,1,30,40,null,100,90,null,Processing speed,Memory (RAM),NA,NA
NA,NA,NA,NA,NA,choice_trial_setup,html-keyboard-response,8,69499,0.0-4.0-0.2,154,1,2025-05-04T16:19:36Z,b60275e29fe2361ab97ac0ac217840d7,"Mozilla/5.0 (Macintosh; Intel Mac OS X 10_15_7) AppleWebKit/605.1.15 (KHTML, like Gecko) Version/18.4 Safari/605.1.15",Macintosh,Safari,18.4,OS X,10_15_7,https://5puzkbbxv1.cognition.run/?sona_id=54907,"en-US,en;q=0.9",vxqfytz1j9rosnu,20,"[""White""]",No,Female,NA,No,455787,NA,null,<p></p>,null,choice,dtc,trinary,attraction,1,laptops,null,null,null,null,null,null,1,NA,NA,NA,NA,NA,NA,NA,NA,NA,NA
NA,NA,NA,NA,NA,choice_trial,survey-html-form,9,90045,0.0-4.0-1.2,154,1,2025-05-04T16:19:36Z,b60275e29fe2361ab97ac0ac217840d7,"Mozilla/5.0 (Macintosh; Intel Mac OS X 10_15_7) AppleWebKit/605.1.15 (KHTML, like Gecko) Version/18.4 Safari/605.1.15",Macintosh,Safari,18.4,OS X,10_15_7,https://5puzkbbxv1.cognition.run/?sona_id=54907,"en-US,en;q=0.9",vxqfytz1j9rosnu,20,"[""White""]",No,Female,NA,No,455787,NA,20543,NA,"{""product_choice"":""C""}",choice,dtc,trinary,attraction,1,laptops,null,null,null,null,null,null,1,60,50,60,50,60,40,Processing speed,Memory (RAM),NA,NA
NA,NA,NA,NA,NA,choice_trial_setup,html-keyboard-response,10,90348,0.0-4.0-0.3,154,1,2025-05-04T16:19:36Z,b60275e29fe2361ab97ac0ac217840d7,"Mozilla/5.0 (Macintosh; Intel Mac OS X 10_15_7) AppleWebKit/605.1.15 (KHTML, like Gecko) Version/18.4 Safari/605.1.15",Macintosh,Safari,18.4,OS X,10_15_7,https://5puzkbbxv1.cognition.run/?sona_id=54907,"en-US,en;q=0.9",vxqfytz1j9rosnu,20,"[""White""]",No,Female,NA,No,455787,NA,null,<p></p>,null,choice,wbw,trinary,catch,null,laptops,50,55,10,35,10,10,1,NA,NA,NA,NA,NA,NA,NA,NA,NA,NA
NA,NA,NA,NA,NA,choice_trial,survey-html-form,11,98865,0.0-4.0-1.3,154,1,2025-05-04T16:19:36Z,b60275e29fe2361ab97ac0ac217840d7,"Mozilla/5.0 (Macintosh; Intel Mac OS X 10_15_7) AppleWebKit/605.1.15 (KHTML, like Gecko) Version/18.4 Safari/605.1.15",Macintosh,Safari,18.4,OS X,10_15_7,https://5puzkbbxv1.cognition.run/?sona_id=54907,"en-US,en;q=0.9",vxqfytz1j9rosnu,20,"[""White""]",No,Female,NA,No,455787,NA,8513,NA,"{""product_choice"":""B""}",choice,wbw,trinary,catch,null,laptops,50,55,10,35,10,10,1,null,null,null,null,null,null,Processing speed,Memory (RAM),NA,NA
NA,NA,NA,NA,NA,choice_trial_setup,html-keyboard-response,12,99168,0.0-4.0-0.4,154,1,2025-05-04T16:19:36Z,b60275e29fe2361ab97ac0ac217840d7,"Mozilla/5.0 (Macintosh; Intel Mac OS X 10_15_7) AppleWebKit/605.1.15 (KHTML, like Gecko) Version/18.4 Safari/605.1.15",Macintosh,Safari,18.4,OS X,10_15_7,https://5puzkbbxv1.cognition.run/?sona_id=54907,"en-US,en;q=0.9",vxqfytz1j9rosnu,20,"[""White""]",No,Female,NA,No,455787,NA,null,<p></p>,null,choice,dtc,trinary,repulsion_B,1,laptops,null,null,null,null,null,null,1,NA,NA,NA,NA,NA,NA,NA,NA,NA,NA
NA,NA,NA,NA,NA,choice_trial,survey-html-form,13,114595,0.0-4.0-1.4,154,1,2025-05-04T16:19:36Z,b60275e29fe2361ab97ac0ac217840d7,"Mozilla/5.0 (Macintosh; Intel Mac OS X 10_15_7) AppleWebKit/605.1.15 (KHTML, like Gecko) Version/18.4 Safari/605.1.15",Macintosh,Safari,18.4,OS X,10_15_7,https://5puzkbbxv1.cognition.run/?sona_id=54907,"en-US,en;q=0.9",vxqfytz1j9rosnu,20,"[""White""]",No,Female,NA,No,455787,NA,15423,NA,"{""product_choice"":""B""}",choice,dtc,trinary,repulsion_B,1,laptops,null,null,null,null,null,null,1,90,100,80,40,30,40,Processing speed,Memory (RAM),NA,NA
NA,NA,NA,NA,NA,choice_trial_setup,html-keyboard-response,14,114898,0.0-4.0-0.5,154,1,2025-05-04T16:19:36Z,b60275e29fe2361ab97ac0ac217840d7,"Mozilla/5.0 (Macintosh; Intel Mac OS X 10_15_7) AppleWebKit/605.1.15 (KHTML, like Gecko) Version/18.4 Safari/605.1.15",Macintosh,Safari,18.4,OS X,10_15_7,https://5puzkbbxv1.cognition.run/?sona_id=54907,"en-US,en;q=0.9",vxqfytz1j9rosnu,20,"[""White""]",No,Female,NA,No,455787,NA,null,<p></p>,null,choice,tc,binary,repulsion,1,laptops,null,null,null,null,null,null,1,NA,NA,NA,NA,NA,NA,NA,NA,NA,NA
NA,NA,NA,NA,NA,choice_trial,survey-html-form,15,125944,0.0-4.0-1.5,154,1,2025-05-04T16:19:36Z,b60275e29fe2361ab97ac0ac217840d7,"Mozilla/5.0 (Macintosh; Intel Mac OS X 10_15_7) AppleWebKit/605.1.15 (KHTML, like Gecko) Version/18.4 Safari/605.1.15",Macintosh,Safari,18.4,OS X,10_15_7,https://5puzkbbxv1.cognition.run/?sona_id=54907,"en-US,en;q=0.9",vxqfytz1j9rosnu,20,"[""White""]",No,Female,NA,No,455787,NA,11044,NA,"{""product_choice"":""B""}",choice,tc,binary,repulsion,1,laptops,null,null,null,null,null,null,1,100,90,null,30,40,null,Processing speed,Memory (RAM),NA,NA
NA,NA,NA,NA,NA,choice_trial_setup,html-keyboard-response,16,126247,0.0-4.0-0.6,154,1,2025-05-04T16:19:36Z,b60275e29fe2361ab97ac0ac217840d7,"Mozilla/5.0 (Macintosh; Intel Mac OS X 10_15_7) AppleWebKit/605.1.15 (KHTML, like Gecko) Version/18.4 Safari/605.1.15",Macintosh,Safari,18.4,OS X,10_15_7,https://5puzkbbxv1.cognition.run/?sona_id=54907,"en-US,en;q=0.9",vxqfytz1j9rosnu,20,"[""White""]",No,Female,NA,No,455787,NA,null,<p></p>,null,choice,ctd,trinary,repulsion_A,1,microwave ovens,null,null,null,null,null,null,1,NA,NA,NA,NA,NA,NA,NA,NA,NA,NA
NA,NA,NA,NA,NA,choice_trial,survey-html-form,17,131893,0.0-4.0-1.6,154,1,2025-05-04T16:19:36Z,b60275e29fe2361ab97ac0ac217840d7,"Mozilla/5.0 (Macintosh; Intel Mac OS X 10_15_7) AppleWebKit/605.1.15 (KHTML, like Gecko) Version/18.4 Safari/605.1.15",Macintosh,Safari,18.4,OS X,10_15_7,https://5puzkbbxv1.cognition.run/?sona_id=54907,"en-US,en;q=0.9",vxqfytz1j9rosnu,20,"[""White""]",No,Female,NA,No,455787,NA,5644,NA,"{""product_choice"":""A""}",choice,ctd,trinary,repulsion_A,1,microwave ovens,null,null,null,null,null,null,1,100,90,100,30,40,20,Warranty,Cooking power,NA,NA
NA,NA,NA,NA,NA,choice_trial_setup,html-keyboard-response,18,132196,0.0-4.0-0.7,154,1,2025-05-04T16:19:36Z,b60275e29fe2361ab97ac0ac217840d7,"Mozilla/5.0 (Macintosh; Intel Mac OS X 10_15_7) AppleWebKit/605.1.15 (KHTML, like Gecko) Version/18.4 Safari/605.1.15",Macintosh,Safari,18.4,OS X,10_15_7,https://5puzkbbxv1.cognition.run/?sona_id=54907,"en-US,en;q=0.9",vxqfytz1j9rosnu,20,"[""White""]",No,Female,NA,No,455787,NA,null,<p></p>,null,choice,ctd,trinary,attraction,2,washing machines,null,null,null,null,null,null,1,NA,NA,NA,NA,NA,NA,NA,NA,NA,NA
NA,NA,NA,NA,NA,choice_trial,survey-html-form,19,139160,0.0-4.0-1.7,154,1,2025-05-04T16:19:36Z,b60275e29fe2361ab97ac0ac217840d7,"Mozilla/5.0 (Macintosh; Intel Mac OS X 10_15_7) AppleWebKit/605.1.15 (KHTML, like Gecko) Version/18.4 Safari/605.1.15",Macintosh,Safari,18.4,OS X,10_15_7,https://5puzkbbxv1.cognition.run/?sona_id=54907,"en-US,en;q=0.9",vxqfytz1j9rosnu,20,"[""White""]",No,Female,NA,No,455787,NA,6963,NA,"{""product_choice"":""A""}",choice,ctd,trinary,attraction,2,washing machines,null,null,null,null,null,null,1,50,60,40,60,50,60,Average lifespan,Energy savings,NA,NA
NA,NA,NA,NA,NA,choice_trial_setup,html-keyboard-response,20,139462,0.0-4.0-0.8,154,1,2025-05-04T16:19:36Z,b60275e29fe2361ab97ac0ac217840d7,"Mozilla/5.0 (Macintosh; Intel Mac OS X 10_15_7) AppleWebKit/605.1.15 (KHTML, like Gecko) Version/18.4 Safari/605.1.15",Macintosh,Safari,18.4,OS X,10_15_7,https://5puzkbbxv1.cognition.run/?sona_id=54907,"en-US,en;q=0.9",vxqfytz1j9rosnu,20,"[""White""]",No,Female,NA,No,455787,NA,null,<p></p>,null,choice,tc,binary,attraction,NA,washing machines,null,null,null,null,null,null,1,NA,NA,NA,NA,NA,NA,NA,NA,NA,NA
NA,NA,NA,NA,NA,choice_trial,survey-html-form,21,143477,0.0-4.0-1.8,154,1,2025-05-04T16:19:36Z,b60275e29fe2361ab97ac0ac217840d7,"Mozilla/5.0 (Macintosh; Intel Mac OS X 10_15_7) AppleWebKit/605.1.15 (KHTML, like Gecko) Version/18.4 Safari/605.1.15",Macintosh,Safari,18.4,OS X,10_15_7,https://5puzkbbxv1.cognition.run/?sona_id=54907,"en-US,en;q=0.9",vxqfytz1j9rosnu,20,"[""White""]",No,Female,NA,No,455787,NA,4012,NA,"{""product_choice"":""A""}",choice,tc,binary,attraction,NA,washing machines,null,null,null,null,null,null,1,60,50,null,50,60,null,Average lifespan,Energy savings,NA,NA
NA,NA,NA,NA,NA,choice_trial_setup,html-keyboard-response,22,143779,0.0-4.0-0.9,154,1,2025-05-04T16:19:36Z,b60275e29fe2361ab97ac0ac217840d7,"Mozilla/5.0 (Macintosh; Intel Mac OS X 10_15_7) AppleWebKit/605.1.15 (KHTML, like Gecko) Version/18.4 Safari/605.1.15",Macintosh,Safari,18.4,OS X,10_15_7,https://5puzkbbxv1.cognition.run/?sona_id=54907,"en-US,en;q=0.9",vxqfytz1j9rosnu,20,"[""White""]",No,Female,NA,No,455787,NA,null,<p></p>,null,choice,dtc,trinary,repulsion_B,2,laptops,null,null,null,null,null,null,1,NA,NA,NA,NA,NA,NA,NA,NA,NA,NA
NA,NA,NA,NA,NA,choice_trial,survey-html-form,23,155165,0.0-4.0-1.9,154,1,2025-05-04T16:19:36Z,b60275e29fe2361ab97ac0ac217840d7,"Mozilla/5.0 (Macintosh; Intel Mac OS X 10_15_7) AppleWebKit/605.1.15 (KHTML, like Gecko) Version/18.4 Safari/605.1.15",Macintosh,Safari,18.4,OS X,10_15_7,https://5puzkbbxv1.cognition.run/?sona_id=54907,"en-US,en;q=0.9",vxqfytz1j9rosnu,20,"[""White""]",No,Female,NA,No,455787,NA,11382,NA,"{""product_choice"":""B""}",choice,dtc,trinary,repulsion_B,2,laptops,null,null,null,null,null,null,1,40,30,40,90,100,80,Processing speed,Memory (RAM),NA,NA
NA,NA,NA,NA,NA,choice_trial_setup,html-keyboard-response,24,155468,0.0-4.0-0.10,154,1,2025-05-04T16:19:36Z,b60275e29fe2361ab97ac0ac217840d7,"Mozilla/5.0 (Macintosh; Intel Mac OS X 10_15_7) AppleWebKit/605.1.15 (KHTML, like Gecko) Version/18.4 Safari/605.1.15",Macintosh,Safari,18.4,OS X,10_15_7,https://5puzkbbxv1.cognition.run/?sona_id=54907,"en-US,en;q=0.9",vxqfytz1j9rosnu,20,"[""White""]",No,Female,NA,No,455787,NA,null,<p></p>,null,choice,dtc,trinary,repulsion_B,1,microwave ovens,null,null,null,null,null,null,2,NA,NA,NA,NA,NA,NA,NA,NA,NA,NA
NA,NA,NA,NA,NA,choice_trial,survey-html-form,25,161645,0.0-4.0-1.10,154,1,2025-05-04T16:19:36Z,b60275e29fe2361ab97ac0ac217840d7,"Mozilla/5.0 (Macintosh; Intel Mac OS X 10_15_7) AppleWebKit/605.1.15 (KHTML, like Gecko) Version/18.4 Safari/605.1.15",Macintosh,Safari,18.4,OS X,10_15_7,https://5puzkbbxv1.cognition.run/?sona_id=54907,"en-US,en;q=0.9",vxqfytz1j9rosnu,20,"[""White""]",No,Female,NA,No,455787,NA,6172,NA,"{""product_choice"":""B""}",choice,dtc,trinary,repulsion_B,1,microwave ovens,null,null,null,null,null,null,2,90,100,80,40,30,40,Warranty,Cooking power,NA,NA
NA,NA,NA,NA,NA,choice_trial_setup,html-keyboard-response,26,161949,0.0-4.0-0.11,154,1,2025-05-04T16:19:36Z,b60275e29fe2361ab97ac0ac217840d7,"Mozilla/5.0 (Macintosh; Intel Mac OS X 10_15_7) AppleWebKit/605.1.15 (KHTML, like Gecko) Version/18.4 Safari/605.1.15",Macintosh,Safari,18.4,OS X,10_15_7,https://5puzkbbxv1.cognition.run/?sona_id=54907,"en-US,en;q=0.9",vxqfytz1j9rosnu,20,"[""White""]",No,Female,NA,No,455787,NA,null,<p></p>,null,choice,cdt,trinary,repulsion_A,2,laptops,null,null,null,null,null,null,1,NA,NA,NA,NA,NA,NA,NA,NA,NA,NA
NA,NA,NA,NA,NA,choice_trial,survey-html-form,27,170079,0.0-4.0-1.11,154,1,2025-05-04T16:19:36Z,b60275e29fe2361ab97ac0ac217840d7,"Mozilla/5.0 (Macintosh; Intel Mac OS X 10_15_7) AppleWebKit/605.1.15 (KHTML, like Gecko) Version/18.4 Safari/605.1.15",Macintosh,Safari,18.4,OS X,10_15_7,https://5puzkbbxv1.cognition.run/?sona_id=54907,"en-US,en;q=0.9",vxqfytz1j9rosnu,20,"[""White""]",No,Female,NA,No,455787,NA,8125,NA,"{""product_choice"":""A""}",choice,cdt,trinary,repulsion_A,2,laptops,null,null,null,null,null,null,1,30,40,20,100,90,100,Processing speed,Memory (RAM),NA,NA
NA,NA,NA,NA,NA,choice_trial_setup,html-keyboard-response,28,170382,0.0-4.0-0.12,154,1,2025-05-04T16:19:36Z,b60275e29fe2361ab97ac0ac217840d7,"Mozilla/5.0 (Macintosh; Intel Mac OS X 10_15_7) AppleWebKit/605.1.15 (KHTML, like Gecko) Version/18.4 Safari/605.1.15",Macintosh,Safari,18.4,OS X,10_15_7,https://5puzkbbxv1.cognition.run/?sona_id=54907,"en-US,en;q=0.9",vxqfytz1j9rosnu,20,"[""White""]",No,Female,NA,No,455787,NA,null,<p></p>,null,choice,wwb,trinary,catch,null,washing machines,70,60,20,35,50,10,1,NA,NA,NA,NA,NA,NA,NA,NA,NA,NA
NA,NA,NA,NA,NA,choice_trial,survey-html-form,29,174495,0.0-4.0-1.12,154,1,2025-05-04T16:19:36Z,b60275e29fe2361ab97ac0ac217840d7,"Mozilla/5.0 (Macintosh; Intel Mac OS X 10_15_7) AppleWebKit/605.1.15 (KHTML, like Gecko) Version/18.4 Safari/605.1.15",Macintosh,Safari,18.4,OS X,10_15_7,https://5puzkbbxv1.cognition.run/?sona_id=54907,"en-US,en;q=0.9",vxqfytz1j9rosnu,20,"[""White""]",No,Female,NA,No,455787,NA,4108,NA,"{""product_choice"":""C""}",choice,wwb,trinary,catch,null,washing machines,70,60,20,35,50,10,1,null,null,null,null,null,null,Average lifespan,Energy savings,NA,NA
NA,NA,NA,NA,NA,choice_trial_setup,html-keyboard-response,30,174798,0.0-4.0-0.13,154,1,2025-05-04T16:19:36Z,b60275e29fe2361ab97ac0ac217840d7,"Mozilla/5.0 (Macintosh; Intel Mac OS X 10_15_7) AppleWebKit/605.1.15 (KHTML, like Gecko) Version/18.4 Safari/605.1.15",Macintosh,Safari,18.4,OS X,10_15_7,https://5puzkbbxv1.cognition.run/?sona_id=54907,"en-US,en;q=0.9",vxqfytz1j9rosnu,20,"[""White""]",No,Female,NA,No,455787,NA,null,<p></p>,null,choice,bw,binary,catch,null,televisions,60,55,40,50,null,null,2,NA,NA,NA,NA,NA,NA,NA,NA,NA,NA
NA,NA,NA,NA,NA,choice_trial,survey-html-form,31,181279,0.0-4.0-1.13,154,1,2025-05-04T16:19:36Z,b60275e29fe2361ab97ac0ac217840d7,"Mozilla/5.0 (Macintosh; Intel Mac OS X 10_15_7) AppleWebKit/605.1.15 (KHTML, like Gecko) Version/18.4 Safari/605.1.15",Macintosh,Safari,18.4,OS X,10_15_7,https://5puzkbbxv1.cognition.run/?sona_id=54907,"en-US,en;q=0.9",vxqfytz1j9rosnu,20,"[""White""]",No,Female,NA,No,455787,NA,6477,NA,"{""product_choice"":""A""}",choice,bw,binary,catch,null,televisions,60,55,40,50,null,null,2,null,null,null,null,null,null,Screen size,Average lifespan,NA,NA
NA,NA,NA,NA,NA,choice_trial_setup,html-keyboard-response,32,181583,0.0-4.0-0.14,154,1,2025-05-04T16:19:36Z,b60275e29fe2361ab97ac0ac217840d7,"Mozilla/5.0 (Macintosh; Intel Mac OS X 10_15_7) AppleWebKit/605.1.15 (KHTML, like Gecko) Version/18.4 Safari/605.1.15",Macintosh,Safari,18.4,OS X,10_15_7,https://5puzkbbxv1.cognition.run/?sona_id=54907,"en-US,en;q=0.9",vxqfytz1j9rosnu,20,"[""White""]",No,Female,NA,No,455787,NA,null,<p></p>,null,choice,ctd,trinary,repulsion_B,1,washing machines,null,null,null,null,null,null,1,NA,NA,NA,NA,NA,NA,NA,NA,NA,NA
NA,NA,NA,NA,NA,choice_trial,survey-html-form,33,187678,0.0-4.0-1.14,154,1,2025-05-04T16:19:36Z,b60275e29fe2361ab97ac0ac217840d7,"Mozilla/5.0 (Macintosh; Intel Mac OS X 10_15_7) AppleWebKit/605.1.15 (KHTML, like Gecko) Version/18.4 Safari/605.1.15",Macintosh,Safari,18.4,OS X,10_15_7,https://5puzkbbxv1.cognition.run/?sona_id=54907,"en-US,en;q=0.9",vxqfytz1j9rosnu,20,"[""White""]",No,Female,NA,No,455787,NA,6091,NA,"{""product_choice"":""A""}",choice,ctd,trinary,repulsion_B,1,washing machines,null,null,null,null,null,null,1,90,100,80,40,30,40,Average lifespan,Energy savings,NA,NA
NA,NA,NA,NA,NA,choice_trial_setup,html-keyboard-response,34,187982,0.0-4.0-0.15,154,1,2025-05-04T16:19:36Z,b60275e29fe2361ab97ac0ac217840d7,"Mozilla/5.0 (Macintosh; Intel Mac OS X 10_15_7) AppleWebKit/605.1.15 (KHTML, like Gecko) Version/18.4 Safari/605.1.15",Macintosh,Safari,18.4,OS X,10_15_7,https://5puzkbbxv1.cognition.run/?sona_id=54907,"en-US,en;q=0.9",vxqfytz1j9rosnu,20,"[""White""]",No,Female,NA,No,455787,NA,null,<p></p>,null,choice,tcd,trinary,attraction,2,televisions,null,null,null,null,null,null,1,NA,NA,NA,NA,NA,NA,NA,NA,NA,NA
NA,NA,NA,NA,NA,choice_trial,survey-html-form,35,192927,0.0-4.0-1.15,154,1,2025-05-04T16:19:36Z,b60275e29fe2361ab97ac0ac217840d7,"Mozilla/5.0 (Macintosh; Intel Mac OS X 10_15_7) AppleWebKit/605.1.15 (KHTML, like Gecko) Version/18.4 Safari/605.1.15",Macintosh,Safari,18.4,OS X,10_15_7,https://5puzkbbxv1.cognition.run/?sona_id=54907,"en-US,en;q=0.9",vxqfytz1j9rosnu,20,"[""White""]",No,Female,NA,No,455787,NA,4941,NA,"{""product_choice"":""A""}",choice,tcd,trinary,attraction,2,televisions,null,null,null,null,null,null,1,50,60,40,60,50,60,Screen size,Average lifespan,NA,NA
NA,NA,NA,NA,NA,choice_trial_setup,html-keyboard-response,36,193231,0.0-4.0-0.16,154,1,2025-05-04T16:19:36Z,b60275e29fe2361ab97ac0ac217840d7,"Mozilla/5.0 (Macintosh; Intel Mac OS X 10_15_7) AppleWebKit/605.1.15 (KHTML, like Gecko) Version/18.4 Safari/605.1.15",Macintosh,Safari,18.4,OS X,10_15_7,https://5puzkbbxv1.cognition.run/?sona_id=54907,"en-US,en;q=0.9",vxqfytz1j9rosnu,20,"[""White""]",No,Female,NA,No,455787,NA,null,<p></p>,null,choice,tc,binary,repulsion,2,washing machines,null,null,null,null,null,null,2,NA,NA,NA,NA,NA,NA,NA,NA,NA,NA
NA,NA,NA,NA,NA,choice_trial,survey-html-form,37,203145,0.0-4.0-1.16,154,1,2025-05-04T16:19:36Z,b60275e29fe2361ab97ac0ac217840d7,"Mozilla/5.0 (Macintosh; Intel Mac OS X 10_15_7) AppleWebKit/605.1.15 (KHTML, like Gecko) Version/18.4 Safari/605.1.15",Macintosh,Safari,18.4,OS X,10_15_7,https://5puzkbbxv1.cognition.run/?sona_id=54907,"en-US,en;q=0.9",vxqfytz1j9rosnu,20,"[""White""]",No,Female,NA,No,455787,NA,9909,NA,"{""product_choice"":""B""}",choice,tc,binary,repulsion,2,washing machines,null,null,null,null,null,null,2,30,40,null,100,90,null,Average lifespan,Energy savings,NA,NA
NA,NA,NA,NA,NA,choice_trial_setup,html-keyboard-response,38,203449,0.0-4.0-0.17,154,1,2025-05-04T16:19:36Z,b60275e29fe2361ab97ac0ac217840d7,"Mozilla/5.0 (Macintosh; Intel Mac OS X 10_15_7) AppleWebKit/605.1.15 (KHTML, like Gecko) Version/18.4 Safari/605.1.15",Macintosh,Safari,18.4,OS X,10_15_7,https://5puzkbbxv1.cognition.run/?sona_id=54907,"en-US,en;q=0.9",vxqfytz1j9rosnu,20,"[""White""]",No,Female,NA,No,455787,NA,null,<p></p>,null,choice,ct,binary,attraction,NA,laptops,null,null,null,null,null,null,1,NA,NA,NA,NA,NA,NA,NA,NA,NA,NA
NA,NA,NA,NA,NA,choice_trial,survey-html-form,39,211394,0.0-4.0-1.17,154,1,2025-05-04T16:19:36Z,b60275e29fe2361ab97ac0ac217840d7,"Mozilla/5.0 (Macintosh; Intel Mac OS X 10_15_7) AppleWebKit/605.1.15 (KHTML, like Gecko) Version/18.4 Safari/605.1.15",Macintosh,Safari,18.4,OS X,10_15_7,https://5puzkbbxv1.cognition.run/?sona_id=54907,"en-US,en;q=0.9",vxqfytz1j9rosnu,20,"[""White""]",No,Female,NA,No,455787,NA,7941,NA,"{""product_choice"":""B""}",choice,ct,binary,attraction,NA,laptops,null,null,null,null,null,null,1,60,50,null,50,60,null,Processing speed,Memory (RAM),NA,NA
NA,NA,NA,NA,NA,choice_trial_setup,html-keyboard-response,40,211698,0.0-4.0-0.18,154,1,2025-05-04T16:19:36Z,b60275e29fe2361ab97ac0ac217840d7,"Mozilla/5.0 (Macintosh; Intel Mac OS X 10_15_7) AppleWebKit/605.1.15 (KHTML, like Gecko) Version/18.4 Safari/605.1.15",Macintosh,Safari,18.4,OS X,10_15_7,https://5puzkbbxv1.cognition.run/?sona_id=54907,"en-US,en;q=0.9",vxqfytz1j9rosnu,20,"[""White""]",No,Female,NA,No,455787,NA,null,<p></p>,null,choice,tc,binary,repulsion,2,televisions,null,null,null,null,null,null,2,NA,NA,NA,NA,NA,NA,NA,NA,NA,NA
NA,NA,NA,NA,NA,choice_trial,survey-html-form,41,217077,0.0-4.0-1.18,154,1,2025-05-04T16:19:36Z,b60275e29fe2361ab97ac0ac217840d7,"Mozilla/5.0 (Macintosh; Intel Mac OS X 10_15_7) AppleWebKit/605.1.15 (KHTML, like Gecko) Version/18.4 Safari/605.1.15",Macintosh,Safari,18.4,OS X,10_15_7,https://5puzkbbxv1.cognition.run/?sona_id=54907,"en-US,en;q=0.9",vxqfytz1j9rosnu,20,"[""White""]",No,Female,NA,No,455787,NA,5374,NA,"{""product_choice"":""A""}",choice,tc,binary,repulsion,2,televisions,null,null,null,null,null,null,2,30,40,null,100,90,null,Screen size,Average lifespan,NA,NA
NA,NA,NA,NA,NA,choice_trial_setup,html-keyboard-response,42,217380,0.0-4.0-0.19,154,1,2025-05-04T16:19:36Z,b60275e29fe2361ab97ac0ac217840d7,"Mozilla/5.0 (Macintosh; Intel Mac OS X 10_15_7) AppleWebKit/605.1.15 (KHTML, like Gecko) Version/18.4 Safari/605.1.15",Macintosh,Safari,18.4,OS X,10_15_7,https://5puzkbbxv1.cognition.run/?sona_id=54907,"en-US,en;q=0.9",vxqfytz1j9rosnu,20,"[""White""]",No,Female,NA,No,455787,NA,null,<p></p>,null,choice,cdt,trinary,repulsion_A,1,laptops,null,null,null,null,null,null,1,NA,NA,NA,NA,NA,NA,NA,NA,NA,NA
NA,NA,NA,NA,NA,choice_trial,survey-html-form,43,223093,0.0-4.0-1.19,154,1,2025-05-04T16:19:36Z,b60275e29fe2361ab97ac0ac217840d7,"Mozilla/5.0 (Macintosh; Intel Mac OS X 10_15_7) AppleWebKit/605.1.15 (KHTML, like Gecko) Version/18.4 Safari/605.1.15",Macintosh,Safari,18.4,OS X,10_15_7,https://5puzkbbxv1.cognition.run/?sona_id=54907,"en-US,en;q=0.9",vxqfytz1j9rosnu,20,"[""White""]",No,Female,NA,No,455787,NA,5708,NA,"{""product_choice"":""C""}",choice,cdt,trinary,repulsion_A,1,laptops,null,null,null,null,null,null,1,100,90,100,30,40,20,Processing speed,Memory (RAM),NA,NA
NA,NA,NA,NA,NA,choice_trial_setup,html-keyboard-response,44,223397,0.0-4.0-0.20,154,1,2025-05-04T16:19:36Z,b60275e29fe2361ab97ac0ac217840d7,"Mozilla/5.0 (Macintosh; Intel Mac OS X 10_15_7) AppleWebKit/605.1.15 (KHTML, like Gecko) Version/18.4 Safari/605.1.15",Macintosh,Safari,18.4,OS X,10_15_7,https://5puzkbbxv1.cognition.run/?sona_id=54907,"en-US,en;q=0.9",vxqfytz1j9rosnu,20,"[""White""]",No,Female,NA,No,455787,NA,null,<p></p>,null,choice,tc,binary,repulsion,1,washing machines,null,null,null,null,null,null,1,NA,NA,NA,NA,NA,NA,NA,NA,NA,NA
NA,NA,NA,NA,NA,choice_trial,survey-html-form,45,226426,0.0-4.0-1.20,154,1,2025-05-04T16:19:36Z,b60275e29fe2361ab97ac0ac217840d7,"Mozilla/5.0 (Macintosh; Intel Mac OS X 10_15_7) AppleWebKit/605.1.15 (KHTML, like Gecko) Version/18.4 Safari/605.1.15",Macintosh,Safari,18.4,OS X,10_15_7,https://5puzkbbxv1.cognition.run/?sona_id=54907,"en-US,en;q=0.9",vxqfytz1j9rosnu,20,"[""White""]",No,Female,NA,No,455787,NA,3024,NA,"{""product_choice"":""A""}",choice,tc,binary,repulsion,1,washing machines,null,null,null,null,null,null,1,100,90,null,30,40,null,Average lifespan,Energy savings,NA,NA
NA,NA,NA,NA,NA,choice_trial_setup,html-keyboard-response,46,226731,0.0-4.0-0.21,154,1,2025-05-04T16:19:36Z,b60275e29fe2361ab97ac0ac217840d7,"Mozilla/5.0 (Macintosh; Intel Mac OS X 10_15_7) AppleWebKit/605.1.15 (KHTML, like Gecko) Version/18.4 Safari/605.1.15",Macintosh,Safari,18.4,OS X,10_15_7,https://5puzkbbxv1.cognition.run/?sona_id=54907,"en-US,en;q=0.9",vxqfytz1j9rosnu,20,"[""White""]",No,Female,NA,No,455787,NA,null,<p></p>,null,choice,ct,binary,attraction,NA,televisions,null,null,null,null,null,null,2,NA,NA,NA,NA,NA,NA,NA,NA,NA,NA
NA,NA,NA,NA,NA,choice_trial,survey-html-form,47,230646,0.0-4.0-1.21,154,1,2025-05-04T16:19:36Z,b60275e29fe2361ab97ac0ac217840d7,"Mozilla/5.0 (Macintosh; Intel Mac OS X 10_15_7) AppleWebKit/605.1.15 (KHTML, like Gecko) Version/18.4 Safari/605.1.15",Macintosh,Safari,18.4,OS X,10_15_7,https://5puzkbbxv1.cognition.run/?sona_id=54907,"en-US,en;q=0.9",vxqfytz1j9rosnu,20,"[""White""]",No,Female,NA,No,455787,NA,3910,NA,"{""product_choice"":""A""}",choice,ct,binary,attraction,NA,televisions,null,null,null,null,null,null,2,60,50,null,50,60,null,Screen size,Average lifespan,NA,NA
NA,NA,NA,NA,NA,choice_trial_setup,html-keyboard-response,48,230950,0.0-4.0-0.22,154,1,2025-05-04T16:19:36Z,b60275e29fe2361ab97ac0ac217840d7,"Mozilla/5.0 (Macintosh; Intel Mac OS X 10_15_7) AppleWebKit/605.1.15 (KHTML, like Gecko) Version/18.4 Safari/605.1.15",Macintosh,Safari,18.4,OS X,10_15_7,https://5puzkbbxv1.cognition.run/?sona_id=54907,"en-US,en;q=0.9",vxqfytz1j9rosnu,20,"[""White""]",No,Female,NA,No,455787,NA,null,<p></p>,null,choice,wb,binary,catch,null,microwave ovens,90,85,40,10,null,null,1,NA,NA,NA,NA,NA,NA,NA,NA,NA,NA
NA,NA,NA,NA,NA,choice_trial,survey-html-form,49,234243,0.0-4.0-1.22,154,1,2025-05-04T16:19:36Z,b60275e29fe2361ab97ac0ac217840d7,"Mozilla/5.0 (Macintosh; Intel Mac OS X 10_15_7) AppleWebKit/605.1.15 (KHTML, like Gecko) Version/18.4 Safari/605.1.15",Macintosh,Safari,18.4,OS X,10_15_7,https://5puzkbbxv1.cognition.run/?sona_id=54907,"en-US,en;q=0.9",vxqfytz1j9rosnu,20,"[""White""]",No,Female,NA,No,455787,NA,3288,NA,"{""product_choice"":""B""}",choice,wb,binary,catch,null,microwave ovens,90,85,40,10,null,null,1,null,null,null,null,null,null,Warranty,Cooking power,NA,NA
NA,NA,NA,NA,NA,choice_trial_setup,html-keyboard-response,50,234547,0.0-4.0-0.23,154,1,2025-05-04T16:19:36Z,b60275e29fe2361ab97ac0ac217840d7,"Mozilla/5.0 (Macintosh; Intel Mac OS X 10_15_7) AppleWebKit/605.1.15 (KHTML, like Gecko) Version/18.4 Safari/605.1.15",Macintosh,Safari,18.4,OS X,10_15_7,https://5puzkbbxv1.cognition.run/?sona_id=54907,"en-US,en;q=0.9",vxqfytz1j9rosnu,20,"[""White""]",No,Female,NA,No,455787,NA,null,<p></p>,null,choice,tdc,trinary,attraction,2,laptops,null,null,null,null,null,null,2,NA,NA,NA,NA,NA,NA,NA,NA,NA,NA
NA,NA,NA,NA,NA,choice_trial,survey-html-form,51,240311,0.0-4.0-1.23,154,1,2025-05-04T16:19:36Z,b60275e29fe2361ab97ac0ac217840d7,"Mozilla/5.0 (Macintosh; Intel Mac OS X 10_15_7) AppleWebKit/605.1.15 (KHTML, like Gecko) Version/18.4 Safari/605.1.15",Macintosh,Safari,18.4,OS X,10_15_7,https://5puzkbbxv1.cognition.run/?sona_id=54907,"en-US,en;q=0.9",vxqfytz1j9rosnu,20,"[""White""]",No,Female,NA,No,455787,NA,5760,NA,"{""product_choice"":""C""}",choice,tdc,trinary,attraction,2,laptops,null,null,null,null,null,null,2,50,60,40,60,50,60,Processing speed,Memory (RAM),NA,NA
NA,NA,NA,NA,NA,choice_trial_setup,html-keyboard-response,52,240615,0.0-4.0-0.24,154,1,2025-05-04T16:19:36Z,b60275e29fe2361ab97ac0ac217840d7,"Mozilla/5.0 (Macintosh; Intel Mac OS X 10_15_7) AppleWebKit/605.1.15 (KHTML, like Gecko) Version/18.4 Safari/605.1.15",Macintosh,Safari,18.4,OS X,10_15_7,https://5puzkbbxv1.cognition.run/?sona_id=54907,"en-US,en;q=0.9",vxqfytz1j9rosnu,20,"[""White""]",No,Female,NA,No,455787,NA,null,<p></p>,null,choice,ctd,trinary,repulsion_B,2,microwave ovens,null,null,null,null,null,null,1,NA,NA,NA,NA,NA,NA,NA,NA,NA,NA
NA,NA,NA,NA,NA,choice_trial,survey-html-form,53,243859,0.0-4.0-1.24,154,1,2025-05-04T16:19:36Z,b60275e29fe2361ab97ac0ac217840d7,"Mozilla/5.0 (Macintosh; Intel Mac OS X 10_15_7) AppleWebKit/605.1.15 (KHTML, like Gecko) Version/18.4 Safari/605.1.15",Macintosh,Safari,18.4,OS X,10_15_7,https://5puzkbbxv1.cognition.run/?sona_id=54907,"en-US,en;q=0.9",vxqfytz1j9rosnu,20,"[""White""]",No,Female,NA,No,455787,NA,3239,NA,"{""product_choice"":""A""}",choice,ctd,trinary,repulsion_B,2,microwave ovens,null,null,null,null,null,null,1,40,30,40,90,100,80,Warranty,Cooking power,NA,NA
NA,NA,NA,NA,NA,choice_trial_setup,html-keyboard-response,54,244163,0.0-4.0-0.25,154,1,2025-05-04T16:19:36Z,b60275e29fe2361ab97ac0ac217840d7,"Mozilla/5.0 (Macintosh; Intel Mac OS X 10_15_7) AppleWebKit/605.1.15 (KHTML, like Gecko) Version/18.4 Safari/605.1.15",Macintosh,Safari,18.4,OS X,10_15_7,https://5puzkbbxv1.cognition.run/?sona_id=54907,"en-US,en;q=0.9",vxqfytz1j9rosnu,20,"[""White""]",No,Female,NA,No,455787,NA,null,<p></p>,null,choice,tcd,trinary,repulsion_A,1,washing machines,null,null,null,null,null,null,1,NA,NA,NA,NA,NA,NA,NA,NA,NA,NA
NA,NA,NA,NA,NA,choice_trial,survey-html-form,55,248260,0.0-4.0-1.25,154,1,2025-05-04T16:19:36Z,b60275e29fe2361ab97ac0ac217840d7,"Mozilla/5.0 (Macintosh; Intel Mac OS X 10_15_7) AppleWebKit/605.1.15 (KHTML, like Gecko) Version/18.4 Safari/605.1.15",Macintosh,Safari,18.4,OS X,10_15_7,https://5puzkbbxv1.cognition.run/?sona_id=54907,"en-US,en;q=0.9",vxqfytz1j9rosnu,20,"[""White""]",No,Female,NA,No,455787,NA,4092,NA,"{""product_choice"":""A""}",choice,tcd,trinary,repulsion_A,1,washing machines,null,null,null,null,null,null,1,100,90,100,30,40,20,Average lifespan,Energy savings,NA,NA
NA,NA,NA,NA,NA,choice_trial_setup,html-keyboard-response,56,248564,0.0-4.0-0.26,154,1,2025-05-04T16:19:36Z,b60275e29fe2361ab97ac0ac217840d7,"Mozilla/5.0 (Macintosh; Intel Mac OS X 10_15_7) AppleWebKit/605.1.15 (KHTML, like Gecko) Version/18.4 Safari/605.1.15",Macintosh,Safari,18.4,OS X,10_15_7,https://5puzkbbxv1.cognition.run/?sona_id=54907,"en-US,en;q=0.9",vxqfytz1j9rosnu,20,"[""White""]",No,Female,NA,No,455787,NA,null,<p></p>,null,choice,bw,binary,catch,null,washing machines,95,90,30,15,null,null,2,NA,NA,NA,NA,NA,NA,NA,NA,NA,NA
NA,NA,NA,NA,NA,choice_trial,survey-html-form,57,252646,0.0-4.0-1.26,154,1,2025-05-04T16:19:36Z,b60275e29fe2361ab97ac0ac217840d7,"Mozilla/5.0 (Macintosh; Intel Mac OS X 10_15_7) AppleWebKit/605.1.15 (KHTML, like Gecko) Version/18.4 Safari/605.1.15",Macintosh,Safari,18.4,OS X,10_15_7,https://5puzkbbxv1.cognition.run/?sona_id=54907,"en-US,en;q=0.9",vxqfytz1j9rosnu,20,"[""White""]",No,Female,NA,No,455787,NA,4077,NA,"{""product_choice"":""A""}",choice,bw,binary,catch,null,washing machines,95,90,30,15,null,null,2,null,null,null,null,null,null,Average lifespan,Energy savings,NA,NA
NA,NA,NA,NA,NA,choice_trial_setup,html-keyboard-response,58,252950,0.0-4.0-0.27,154,1,2025-05-04T16:19:36Z,b60275e29fe2361ab97ac0ac217840d7,"Mozilla/5.0 (Macintosh; Intel Mac OS X 10_15_7) AppleWebKit/605.1.15 (KHTML, like Gecko) Version/18.4 Safari/605.1.15",Macintosh,Safari,18.4,OS X,10_15_7,https://5puzkbbxv1.cognition.run/?sona_id=54907,"en-US,en;q=0.9",vxqfytz1j9rosnu,20,"[""White""]",No,Female,NA,No,455787,NA,null,<p></p>,null,choice,tc,binary,repulsion,2,microwave ovens,null,null,null,null,null,null,2,NA,NA,NA,NA,NA,NA,NA,NA,NA,NA
NA,NA,NA,NA,NA,choice_trial,survey-html-form,59,257862,0.0-4.0-1.27,154,1,2025-05-04T16:19:36Z,b60275e29fe2361ab97ac0ac217840d7,"Mozilla/5.0 (Macintosh; Intel Mac OS X 10_15_7) AppleWebKit/605.1.15 (KHTML, like Gecko) Version/18.4 Safari/605.1.15",Macintosh,Safari,18.4,OS X,10_15_7,https://5puzkbbxv1.cognition.run/?sona_id=54907,"en-US,en;q=0.9",vxqfytz1j9rosnu,20,"[""White""]",No,Female,NA,No,455787,NA,4907,NA,"{""product_choice"":""A""}",choice,tc,binary,repulsion,2,microwave ovens,null,null,null,null,null,null,2,30,40,null,100,90,null,Warranty,Cooking power,NA,NA
NA,NA,NA,NA,NA,choice_trial_setup,html-keyboard-response,60,258166,0.0-4.0-0.28,154,1,2025-05-04T16:19:36Z,b60275e29fe2361ab97ac0ac217840d7,"Mozilla/5.0 (Macintosh; Intel Mac OS X 10_15_7) AppleWebKit/605.1.15 (KHTML, like Gecko) Version/18.4 Safari/605.1.15",Macintosh,Safari,18.4,OS X,10_15_7,https://5puzkbbxv1.cognition.run/?sona_id=54907,"en-US,en;q=0.9",vxqfytz1j9rosnu,20,"[""White""]",No,Female,NA,No,455787,NA,null,<p></p>,null,choice,cdt,trinary,repulsion_B,2,washing machines,null,null,null,null,null,null,1,NA,NA,NA,NA,NA,NA,NA,NA,NA,NA
NA,NA,NA,NA,NA,choice_trial,survey-html-form,61,270063,0.0-4.0-1.28,154,1,2025-05-04T16:19:36Z,b60275e29fe2361ab97ac0ac217840d7,"Mozilla/5.0 (Macintosh; Intel Mac OS X 10_15_7) AppleWebKit/605.1.15 (KHTML, like Gecko) Version/18.4 Safari/605.1.15",Macintosh,Safari,18.4,OS X,10_15_7,https://5puzkbbxv1.cognition.run/?sona_id=54907,"en-US,en;q=0.9",vxqfytz1j9rosnu,20,"[""White""]",No,Female,NA,No,455787,NA,11891,NA,"{""product_choice"":""C""}",choice,cdt,trinary,repulsion_B,2,washing machines,null,null,null,null,null,null,1,40,30,40,90,100,80,Average lifespan,Energy savings,NA,NA
NA,NA,NA,NA,NA,choice_trial_setup,html-keyboard-response,62,270368,0.0-4.0-0.29,154,1,2025-05-04T16:19:36Z,b60275e29fe2361ab97ac0ac217840d7,"Mozilla/5.0 (Macintosh; Intel Mac OS X 10_15_7) AppleWebKit/605.1.15 (KHTML, like Gecko) Version/18.4 Safari/605.1.15",Macintosh,Safari,18.4,OS X,10_15_7,https://5puzkbbxv1.cognition.run/?sona_id=54907,"en-US,en;q=0.9",vxqfytz1j9rosnu,20,"[""White""]",No,Female,NA,No,455787,NA,null,<p></p>,null,choice,tc,binary,repulsion,1,microwave ovens,null,null,null,null,null,null,1,NA,NA,NA,NA,NA,NA,NA,NA,NA,NA
NA,NA,NA,NA,NA,choice_trial,survey-html-form,63,275111,0.0-4.0-1.29,154,1,2025-05-04T16:19:36Z,b60275e29fe2361ab97ac0ac217840d7,"Mozilla/5.0 (Macintosh; Intel Mac OS X 10_15_7) AppleWebKit/605.1.15 (KHTML, like Gecko) Version/18.4 Safari/605.1.15",Macintosh,Safari,18.4,OS X,10_15_7,https://5puzkbbxv1.cognition.run/?sona_id=54907,"en-US,en;q=0.9",vxqfytz1j9rosnu,20,"[""White""]",No,Female,NA,No,455787,NA,4737,NA,"{""product_choice"":""B""}",choice,tc,binary,repulsion,1,microwave ovens,null,null,null,null,null,null,1,100,90,null,30,40,null,Warranty,Cooking power,NA,NA
NA,NA,NA,NA,NA,choice_trial_setup,html-keyboard-response,64,275415,0.0-4.0-0.30,154,1,2025-05-04T16:19:36Z,b60275e29fe2361ab97ac0ac217840d7,"Mozilla/5.0 (Macintosh; Intel Mac OS X 10_15_7) AppleWebKit/605.1.15 (KHTML, like Gecko) Version/18.4 Safari/605.1.15",Macintosh,Safari,18.4,OS X,10_15_7,https://5puzkbbxv1.cognition.run/?sona_id=54907,"en-US,en;q=0.9",vxqfytz1j9rosnu,20,"[""White""]",No,Female,NA,No,455787,NA,null,<p></p>,null,choice,dtc,trinary,repulsion_B,2,televisions,null,null,null,null,null,null,1,NA,NA,NA,NA,NA,NA,NA,NA,NA,NA
NA,NA,NA,NA,NA,choice_trial,survey-html-form,65,281693,0.0-4.0-1.30,154,1,2025-05-04T16:19:36Z,b60275e29fe2361ab97ac0ac217840d7,"Mozilla/5.0 (Macintosh; Intel Mac OS X 10_15_7) AppleWebKit/605.1.15 (KHTML, like Gecko) Version/18.4 Safari/605.1.15",Macintosh,Safari,18.4,OS X,10_15_7,https://5puzkbbxv1.cognition.run/?sona_id=54907,"en-US,en;q=0.9",vxqfytz1j9rosnu,20,"[""White""]",No,Female,NA,No,455787,NA,6272,NA,"{""product_choice"":""C""}",choice,dtc,trinary,repulsion_B,2,televisions,null,null,null,null,null,null,1,40,30,40,90,100,80,Screen size,Average lifespan,NA,NA
NA,NA,NA,NA,NA,choice_trial_setup,html-keyboard-response,66,281997,0.0-4.0-0.31,154,1,2025-05-04T16:19:36Z,b60275e29fe2361ab97ac0ac217840d7,"Mozilla/5.0 (Macintosh; Intel Mac OS X 10_15_7) AppleWebKit/605.1.15 (KHTML, like Gecko) Version/18.4 Safari/605.1.15",Macintosh,Safari,18.4,OS X,10_15_7,https://5puzkbbxv1.cognition.run/?sona_id=54907,"en-US,en;q=0.9",vxqfytz1j9rosnu,20,"[""White""]",No,Female,NA,No,455787,NA,null,<p></p>,null,choice,ct,binary,attraction,NA,microwave ovens,null,null,null,null,null,null,1,NA,NA,NA,NA,NA,NA,NA,NA,NA,NA
NA,NA,NA,NA,NA,choice_trial,survey-html-form,67,285476,0.0-4.0-1.31,154,1,2025-05-04T16:19:36Z,b60275e29fe2361ab97ac0ac217840d7,"Mozilla/5.0 (Macintosh; Intel Mac OS X 10_15_7) AppleWebKit/605.1.15 (KHTML, like Gecko) Version/18.4 Safari/605.1.15",Macintosh,Safari,18.4,OS X,10_15_7,https://5puzkbbxv1.cognition.run/?sona_id=54907,"en-US,en;q=0.9",vxqfytz1j9rosnu,20,"[""White""]",No,Female,NA,No,455787,NA,3472,NA,"{""product_choice"":""A""}",choice,ct,binary,attraction,NA,microwave ovens,null,null,null,null,null,null,1,60,50,null,50,60,null,Warranty,Cooking power,NA,NA
NA,NA,NA,NA,NA,choice_trial_setup,html-keyboard-response,68,285780,0.0-4.0-0.32,154,1,2025-05-04T16:19:36Z,b60275e29fe2361ab97ac0ac217840d7,"Mozilla/5.0 (Macintosh; Intel Mac OS X 10_15_7) AppleWebKit/605.1.15 (KHTML, like Gecko) Version/18.4 Safari/605.1.15",Macintosh,Safari,18.4,OS X,10_15_7,https://5puzkbbxv1.cognition.run/?sona_id=54907,"en-US,en;q=0.9",vxqfytz1j9rosnu,20,"[""White""]",No,Female,NA,No,455787,NA,null,<p></p>,null,choice,bww,trinary,catch,null,televisions,65,80,35,15,10,10,2,NA,NA,NA,NA,NA,NA,NA,NA,NA,NA
NA,NA,NA,NA,NA,choice_trial,survey-html-form,69,289559,0.0-4.0-1.32,154,1,2025-05-04T16:19:36Z,b60275e29fe2361ab97ac0ac217840d7,"Mozilla/5.0 (Macintosh; Intel Mac OS X 10_15_7) AppleWebKit/605.1.15 (KHTML, like Gecko) Version/18.4 Safari/605.1.15",Macintosh,Safari,18.4,OS X,10_15_7,https://5puzkbbxv1.cognition.run/?sona_id=54907,"en-US,en;q=0.9",vxqfytz1j9rosnu,20,"[""White""]",No,Female,NA,No,455787,NA,3774,NA,"{""product_choice"":""A""}",choice,bww,trinary,catch,null,televisions,65,80,35,15,10,10,2,null,null,null,null,null,null,Screen size,Average lifespan,NA,NA
NA,NA,NA,NA,NA,choice_trial_setup,html-keyboard-response,70,289864,0.0-4.0-0.33,154,1,2025-05-04T16:19:36Z,b60275e29fe2361ab97ac0ac217840d7,"Mozilla/5.0 (Macintosh; Intel Mac OS X 10_15_7) AppleWebKit/605.1.15 (KHTML, like Gecko) Version/18.4 Safari/605.1.15",Macintosh,Safari,18.4,OS X,10_15_7,https://5puzkbbxv1.cognition.run/?sona_id=54907,"en-US,en;q=0.9",vxqfytz1j9rosnu,20,"[""White""]",No,Female,NA,No,455787,NA,null,<p></p>,null,choice,dtc,trinary,repulsion_A,2,televisions,null,null,null,null,null,null,1,NA,NA,NA,NA,NA,NA,NA,NA,NA,NA
NA,NA,NA,NA,NA,choice_trial,survey-html-form,71,293812,0.0-4.0-1.33,154,1,2025-05-04T16:19:36Z,b60275e29fe2361ab97ac0ac217840d7,"Mozilla/5.0 (Macintosh; Intel Mac OS X 10_15_7) AppleWebKit/605.1.15 (KHTML, like Gecko) Version/18.4 Safari/605.1.15",Macintosh,Safari,18.4,OS X,10_15_7,https://5puzkbbxv1.cognition.run/?sona_id=54907,"en-US,en;q=0.9",vxqfytz1j9rosnu,20,"[""White""]",No,Female,NA,No,455787,NA,3943,NA,"{""product_choice"":""B""}",choice,dtc,trinary,repulsion_A,2,televisions,null,null,null,null,null,null,1,30,40,20,100,90,100,Screen size,Average lifespan,NA,NA
NA,NA,NA,NA,NA,choice_trial_setup,html-keyboard-response,72,294117,0.0-4.0-0.34,154,1,2025-05-04T16:19:36Z,b60275e29fe2361ab97ac0ac217840d7,"Mozilla/5.0 (Macintosh; Intel Mac OS X 10_15_7) AppleWebKit/605.1.15 (KHTML, like Gecko) Version/18.4 Safari/605.1.15",Macintosh,Safari,18.4,OS X,10_15_7,https://5puzkbbxv1.cognition.run/?sona_id=54907,"en-US,en;q=0.9",vxqfytz1j9rosnu,20,"[""White""]",No,Female,NA,No,455787,NA,null,<p></p>,null,choice,wwb,trinary,catch,null,microwave ovens,85,60,40,30,50,30,2,NA,NA,NA,NA,NA,NA,NA,NA,NA,NA
NA,NA,NA,NA,NA,choice_trial,survey-html-form,73,297109,0.0-4.0-1.34,154,1,2025-05-04T16:19:36Z,b60275e29fe2361ab97ac0ac217840d7,"Mozilla/5.0 (Macintosh; Intel Mac OS X 10_15_7) AppleWebKit/605.1.15 (KHTML, like Gecko) Version/18.4 Safari/605.1.15",Macintosh,Safari,18.4,OS X,10_15_7,https://5puzkbbxv1.cognition.run/?sona_id=54907,"en-US,en;q=0.9",vxqfytz1j9rosnu,20,"[""White""]",No,Female,NA,No,455787,NA,2986,NA,"{""product_choice"":""C""}",choice,wwb,trinary,catch,null,microwave ovens,85,60,40,30,50,30,2,null,null,null,null,null,null,Warranty,Cooking power,NA,NA
NA,NA,NA,NA,NA,choice_trial_setup,html-keyboard-response,74,297414,0.0-4.0-0.35,154,1,2025-05-04T16:19:36Z,b60275e29fe2361ab97ac0ac217840d7,"Mozilla/5.0 (Macintosh; Intel Mac OS X 10_15_7) AppleWebKit/605.1.15 (KHTML, like Gecko) Version/18.4 Safari/605.1.15",Macintosh,Safari,18.4,OS X,10_15_7,https://5puzkbbxv1.cognition.run/?sona_id=54907,"en-US,en;q=0.9",vxqfytz1j9rosnu,20,"[""White""]",No,Female,NA,No,455787,NA,null,<p></p>,null,choice,tdc,trinary,attraction,1,washing machines,null,null,null,null,null,null,2,NA,NA,NA,NA,NA,NA,NA,NA,NA,NA
NA,NA,NA,NA,NA,choice_trial,survey-html-form,75,302927,0.0-4.0-1.35,154,1,2025-05-04T16:19:36Z,b60275e29fe2361ab97ac0ac217840d7,"Mozilla/5.0 (Macintosh; Intel Mac OS X 10_15_7) AppleWebKit/605.1.15 (KHTML, like Gecko) Version/18.4 Safari/605.1.15",Macintosh,Safari,18.4,OS X,10_15_7,https://5puzkbbxv1.cognition.run/?sona_id=54907,"en-US,en;q=0.9",vxqfytz1j9rosnu,20,"[""White""]",No,Female,NA,No,455787,NA,5508,NA,"{""product_choice"":""A""}",choice,tdc,trinary,attraction,1,washing machines,null,null,null,null,null,null,2,60,50,60,50,60,40,Average lifespan,Energy savings,NA,NA
NA,NA,NA,NA,NA,choice_trial_setup,html-keyboard-response,76,303231,0.0-4.0-0.36,154,1,2025-05-04T16:19:36Z,b60275e29fe2361ab97ac0ac217840d7,"Mozilla/5.0 (Macintosh; Intel Mac OS X 10_15_7) AppleWebKit/605.1.15 (KHTML, like Gecko) Version/18.4 Safari/605.1.15",Macintosh,Safari,18.4,OS X,10_15_7,https://5puzkbbxv1.cognition.run/?sona_id=54907,"en-US,en;q=0.9",vxqfytz1j9rosnu,20,"[""White""]",No,Female,NA,No,455787,NA,null,<p></p>,null,choice,dct,trinary,attraction,1,microwave ovens,null,null,null,null,null,null,1,NA,NA,NA,NA,NA,NA,NA,NA,NA,NA
NA,NA,NA,NA,NA,choice_trial,survey-html-form,77,306742,0.0-4.0-1.36,154,1,2025-05-04T16:19:36Z,b60275e29fe2361ab97ac0ac217840d7,"Mozilla/5.0 (Macintosh; Intel Mac OS X 10_15_7) AppleWebKit/605.1.15 (KHTML, like Gecko) Version/18.4 Safari/605.1.15",Macintosh,Safari,18.4,OS X,10_15_7,https://5puzkbbxv1.cognition.run/?sona_id=54907,"en-US,en;q=0.9",vxqfytz1j9rosnu,20,"[""White""]",No,Female,NA,No,455787,NA,3506,NA,"{""product_choice"":""B""}",choice,dct,trinary,attraction,1,microwave ovens,null,null,null,null,null,null,1,60,50,60,50,60,40,Warranty,Cooking power,NA,NA
NA,NA,NA,NA,NA,choice_trial_setup,html-keyboard-response,78,307046,0.0-4.0-0.37,154,1,2025-05-04T16:19:36Z,b60275e29fe2361ab97ac0ac217840d7,"Mozilla/5.0 (Macintosh; Intel Mac OS X 10_15_7) AppleWebKit/605.1.15 (KHTML, like Gecko) Version/18.4 Safari/605.1.15",Macintosh,Safari,18.4,OS X,10_15_7,https://5puzkbbxv1.cognition.run/?sona_id=54907,"en-US,en;q=0.9",vxqfytz1j9rosnu,20,"[""White""]",No,Female,NA,No,455787,NA,null,<p></p>,null,choice,tc,binary,repulsion,1,televisions,null,null,null,null,null,null,2,NA,NA,NA,NA,NA,NA,NA,NA,NA,NA
NA,NA,NA,NA,NA,choice_trial,survey-html-form,79,310759,0.0-4.0-1.37,154,1,2025-05-04T16:19:36Z,b60275e29fe2361ab97ac0ac217840d7,"Mozilla/5.0 (Macintosh; Intel Mac OS X 10_15_7) AppleWebKit/605.1.15 (KHTML, like Gecko) Version/18.4 Safari/605.1.15",Macintosh,Safari,18.4,OS X,10_15_7,https://5puzkbbxv1.cognition.run/?sona_id=54907,"en-US,en;q=0.9",vxqfytz1j9rosnu,20,"[""White""]",No,Female,NA,No,455787,NA,3707,NA,"{""product_choice"":""B""}",choice,tc,binary,repulsion,1,televisions,null,null,null,null,null,null,2,100,90,null,30,40,null,Screen size,Average lifespan,NA,NA
NA,NA,NA,NA,NA,choice_trial_setup,html-keyboard-response,80,311063,0.0-4.0-0.38,154,1,2025-05-04T16:19:36Z,b60275e29fe2361ab97ac0ac217840d7,"Mozilla/5.0 (Macintosh; Intel Mac OS X 10_15_7) AppleWebKit/605.1.15 (KHTML, like Gecko) Version/18.4 Safari/605.1.15",Macintosh,Safari,18.4,OS X,10_15_7,https://5puzkbbxv1.cognition.run/?sona_id=54907,"en-US,en;q=0.9",vxqfytz1j9rosnu,20,"[""White""]",No,Female,NA,No,455787,NA,null,<p></p>,null,choice,tcd,trinary,attraction,2,microwave ovens,null,null,null,null,null,null,2,NA,NA,NA,NA,NA,NA,NA,NA,NA,NA
NA,NA,NA,NA,NA,choice_trial,survey-html-form,81,315325,0.0-4.0-1.38,154,1,2025-05-04T16:19:36Z,b60275e29fe2361ab97ac0ac217840d7,"Mozilla/5.0 (Macintosh; Intel Mac OS X 10_15_7) AppleWebKit/605.1.15 (KHTML, like Gecko) Version/18.4 Safari/605.1.15",Macintosh,Safari,18.4,OS X,10_15_7,https://5puzkbbxv1.cognition.run/?sona_id=54907,"en-US,en;q=0.9",vxqfytz1j9rosnu,20,"[""White""]",No,Female,NA,No,455787,NA,4259,NA,"{""product_choice"":""A""}",choice,tcd,trinary,attraction,2,microwave ovens,null,null,null,null,null,null,2,50,60,40,60,50,60,Warranty,Cooking power,NA,NA
NA,NA,NA,NA,NA,choice_trial_setup,html-keyboard-response,82,315629,0.0-4.0-0.39,154,1,2025-05-04T16:19:36Z,b60275e29fe2361ab97ac0ac217840d7,"Mozilla/5.0 (Macintosh; Intel Mac OS X 10_15_7) AppleWebKit/605.1.15 (KHTML, like Gecko) Version/18.4 Safari/605.1.15",Macintosh,Safari,18.4,OS X,10_15_7,https://5puzkbbxv1.cognition.run/?sona_id=54907,"en-US,en;q=0.9",vxqfytz1j9rosnu,20,"[""White""]",No,Female,NA,No,455787,NA,null,<p></p>,null,choice,wb,binary,catch,null,laptops,50,55,30,35,null,null,1,NA,NA,NA,NA,NA,NA,NA,NA,NA,NA
NA,NA,NA,NA,NA,choice_trial,survey-html-form,83,319595,0.0-4.0-1.39,154,1,2025-05-04T16:19:36Z,b60275e29fe2361ab97ac0ac217840d7,"Mozilla/5.0 (Macintosh; Intel Mac OS X 10_15_7) AppleWebKit/605.1.15 (KHTML, like Gecko) Version/18.4 Safari/605.1.15",Macintosh,Safari,18.4,OS X,10_15_7,https://5puzkbbxv1.cognition.run/?sona_id=54907,"en-US,en;q=0.9",vxqfytz1j9rosnu,20,"[""White""]",No,Female,NA,No,455787,NA,3960,NA,"{""product_choice"":""B""}",choice,wb,binary,catch,null,laptops,50,55,30,35,null,null,1,null,null,null,null,null,null,Processing speed,Memory (RAM),NA,NA
NA,NA,NA,NA,NA,choice_trial_setup,html-keyboard-response,84,319899,0.0-4.0-0.40,154,1,2025-05-04T16:19:36Z,b60275e29fe2361ab97ac0ac217840d7,"Mozilla/5.0 (Macintosh; Intel Mac OS X 10_15_7) AppleWebKit/605.1.15 (KHTML, like Gecko) Version/18.4 Safari/605.1.15",Macintosh,Safari,18.4,OS X,10_15_7,https://5puzkbbxv1.cognition.run/?sona_id=54907,"en-US,en;q=0.9",vxqfytz1j9rosnu,20,"[""White""]",No,Female,NA,No,455787,NA,null,<p></p>,null,choice,tcd,trinary,repulsion_A,2,washing machines,null,null,null,null,null,null,2,NA,NA,NA,NA,NA,NA,NA,NA,NA,NA
NA,NA,NA,NA,NA,choice_trial,survey-html-form,85,325409,0.0-4.0-1.40,154,1,2025-05-04T16:19:36Z,b60275e29fe2361ab97ac0ac217840d7,"Mozilla/5.0 (Macintosh; Intel Mac OS X 10_15_7) AppleWebKit/605.1.15 (KHTML, like Gecko) Version/18.4 Safari/605.1.15",Macintosh,Safari,18.4,OS X,10_15_7,https://5puzkbbxv1.cognition.run/?sona_id=54907,"en-US,en;q=0.9",vxqfytz1j9rosnu,20,"[""White""]",No,Female,NA,No,455787,NA,5503,NA,"{""product_choice"":""B""}",choice,tcd,trinary,repulsion_A,2,washing machines,null,null,null,null,null,null,2,30,40,20,100,90,100,Average lifespan,Energy savings,NA,NA
NA,NA,NA,NA,NA,choice_trial_setup,html-keyboard-response,86,325712,0.0-4.0-0.41,154,1,2025-05-04T16:19:36Z,b60275e29fe2361ab97ac0ac217840d7,"Mozilla/5.0 (Macintosh; Intel Mac OS X 10_15_7) AppleWebKit/605.1.15 (KHTML, like Gecko) Version/18.4 Safari/605.1.15",Macintosh,Safari,18.4,OS X,10_15_7,https://5puzkbbxv1.cognition.run/?sona_id=54907,"en-US,en;q=0.9",vxqfytz1j9rosnu,20,"[""White""]",No,Female,NA,No,455787,NA,null,<p></p>,null,choice,tcd,trinary,repulsion_A,1,televisions,null,null,null,null,null,null,2,NA,NA,NA,NA,NA,NA,NA,NA,NA,NA
NA,NA,NA,NA,NA,choice_trial,survey-html-form,87,330908,0.0-4.0-1.41,154,1,2025-05-04T16:19:36Z,b60275e29fe2361ab97ac0ac217840d7,"Mozilla/5.0 (Macintosh; Intel Mac OS X 10_15_7) AppleWebKit/605.1.15 (KHTML, like Gecko) Version/18.4 Safari/605.1.15",Macintosh,Safari,18.4,OS X,10_15_7,https://5puzkbbxv1.cognition.run/?sona_id=54907,"en-US,en;q=0.9",vxqfytz1j9rosnu,20,"[""White""]",No,Female,NA,No,455787,NA,5190,NA,"{""product_choice"":""B""}",choice,tcd,trinary,repulsion_A,1,televisions,null,null,null,null,null,null,2,100,90,100,30,40,20,Screen size,Average lifespan,NA,NA
NA,NA,NA,NA,NA,choice_trial_setup,html-keyboard-response,88,331213,0.0-4.0-0.42,154,1,2025-05-04T16:19:36Z,b60275e29fe2361ab97ac0ac217840d7,"Mozilla/5.0 (Macintosh; Intel Mac OS X 10_15_7) AppleWebKit/605.1.15 (KHTML, like Gecko) Version/18.4 Safari/605.1.15",Macintosh,Safari,18.4,OS X,10_15_7,https://5puzkbbxv1.cognition.run/?sona_id=54907,"en-US,en;q=0.9",vxqfytz1j9rosnu,20,"[""White""]",No,Female,NA,No,455787,NA,null,<p></p>,null,choice,dtc,trinary,repulsion_B,1,televisions,null,null,null,null,null,null,2,NA,NA,NA,NA,NA,NA,NA,NA,NA,NA
NA,NA,NA,NA,NA,choice_trial,survey-html-form,89,334758,0.0-4.0-1.42,154,1,2025-05-04T16:19:36Z,b60275e29fe2361ab97ac0ac217840d7,"Mozilla/5.0 (Macintosh; Intel Mac OS X 10_15_7) AppleWebKit/605.1.15 (KHTML, like Gecko) Version/18.4 Safari/605.1.15",Macintosh,Safari,18.4,OS X,10_15_7,https://5puzkbbxv1.cognition.run/?sona_id=54907,"en-US,en;q=0.9",vxqfytz1j9rosnu,20,"[""White""]",No,Female,NA,No,455787,NA,3539,NA,"{""product_choice"":""B""}",choice,dtc,trinary,repulsion_B,1,televisions,null,null,null,null,null,null,2,90,100,80,40,30,40,Screen size,Average lifespan,NA,NA
NA,NA,NA,NA,NA,choice_trial_setup,html-keyboard-response,90,335068,0.0-4.0-0.43,154,1,2025-05-04T16:19:36Z,b60275e29fe2361ab97ac0ac217840d7,"Mozilla/5.0 (Macintosh; Intel Mac OS X 10_15_7) AppleWebKit/605.1.15 (KHTML, like Gecko) Version/18.4 Safari/605.1.15",Macintosh,Safari,18.4,OS X,10_15_7,https://5puzkbbxv1.cognition.run/?sona_id=54907,"en-US,en;q=0.9",vxqfytz1j9rosnu,20,"[""White""]",No,Female,NA,No,455787,NA,null,<p></p>,null,choice,dtc,trinary,repulsion_A,2,microwave ovens,null,null,null,null,null,null,1,NA,NA,NA,NA,NA,NA,NA,NA,NA,NA
NA,NA,NA,NA,NA,choice_trial,survey-html-form,91,338494,0.0-4.0-1.43,154,1,2025-05-04T16:19:36Z,b60275e29fe2361ab97ac0ac217840d7,"Mozilla/5.0 (Macintosh; Intel Mac OS X 10_15_7) AppleWebKit/605.1.15 (KHTML, like Gecko) Version/18.4 Safari/605.1.15",Macintosh,Safari,18.4,OS X,10_15_7,https://5puzkbbxv1.cognition.run/?sona_id=54907,"en-US,en;q=0.9",vxqfytz1j9rosnu,20,"[""White""]",No,Female,NA,No,455787,NA,3417,NA,"{""product_choice"":""B""}",choice,dtc,trinary,repulsion_A,2,microwave ovens,null,null,null,null,null,null,1,30,40,20,100,90,100,Warranty,Cooking power,NA,NA
NA,NA,NA,NA,NA,post_trials_message,html-button-response,92,340043,0.0-5.0,154,1,2025-05-04T16:19:36Z,b60275e29fe2361ab97ac0ac217840d7,"Mozilla/5.0 (Macintosh; Intel Mac OS X 10_15_7) AppleWebKit/605.1.15 (KHTML, like Gecko) Version/18.4 Safari/605.1.15",Macintosh,Safari,18.4,OS X,10_15_7,https://5puzkbbxv1.cognition.run/?sona_id=54907,"en-US,en;q=0.9",vxqfytz1j9rosnu,20,"[""White""]",No,Female,NA,No,455787,NA,1544,<p> <b>Thank you for your patience!</b></p><p>  The study will be done after completing a brief form. </p>,0,NA,NA,NA,NA,NA,NA,NA,NA,NA,NA,NA,NA,NA,NA,NA,NA,NA,NA,NA,NA,NA,NA,NA
NA,NA,NA,NA,NA,survey_message,survey-text,93,394143,0.0-6.0,154,1,2025-05-04T16:19:36Z,b60275e29fe2361ab97ac0ac217840d7,"Mozilla/5.0 (Macintosh; Intel Mac OS X 10_15_7) AppleWebKit/605.1.15 (KHTML, like Gecko) Version/18.4 Safari/605.1.15",Macintosh,Safari,18.4,OS X,10_15_7,https://5puzkbbxv1.cognition.run/?sona_id=54907,"en-US,en;q=0.9",vxqfytz1j9rosnu,20,"[""White""]",No,Female,NA,No,455787,NA,54086,NA,"{""Q0"":""I chose which category was of more importance, for example I valued life span as more important than warranty. Sometimes when both categories had similar numbers, I chose the best ratio. ""}",NA,NA,NA,NA,NA,NA,NA,NA,NA,NA,NA,NA,NA,NA,NA,NA,NA,NA,NA,NA,NA,"I chose which category was of more importance, for example I valued life span as more important than warranty. Sometimes when both categories had similar numbers, I chose the best ratio.",NA
NA,NA,NA,NA,NA,demo_age,survey-text,94,397242,0.0-7.0,154,1,2025-05-04T16:19:36Z,b60275e29fe2361ab97ac0ac217840d7,"Mozilla/5.0 (Macintosh; Intel Mac OS X 10_15_7) AppleWebKit/605.1.15 (KHTML, like Gecko) Version/18.4 Safari/605.1.15",Macintosh,Safari,18.4,OS X,10_15_7,https://5puzkbbxv1.cognition.run/?sona_id=54907,"en-US,en;q=0.9",vxqfytz1j9rosnu,20,"[""White""]",No,Female,NA,No,455787,NA,3091,NA,"{""Q0"":""20""}",NA,NA,NA,NA,NA,NA,NA,NA,NA,NA,NA,NA,NA,NA,NA,NA,NA,NA,NA,NA,NA,NA,NA
NA,NA,NA,NA,NA,demo_race,survey-multi-select,95,399509,0.0-8.0,154,1,2025-05-04T16:19:36Z,b60275e29fe2361ab97ac0ac217840d7,"Mozilla/5.0 (Macintosh; Intel Mac OS X 10_15_7) AppleWebKit/605.1.15 (KHTML, like Gecko) Version/18.4 Safari/605.1.15",Macintosh,Safari,18.4,OS X,10_15_7,https://5puzkbbxv1.cognition.run/?sona_id=54907,"en-US,en;q=0.9",vxqfytz1j9rosnu,20,"[""White""]",No,Female,NA,No,455787,NA,2262,NA,"{""Q0"":[""White""]}",NA,NA,NA,NA,NA,NA,NA,NA,NA,NA,NA,NA,NA,NA,NA,NA,NA,NA,NA,NA,NA,NA,[0]
NA,NA,NA,NA,NA,demo_ethnicity_gender,survey-multi-choice,96,403127,0.0-9.0,154,1,2025-05-04T16:19:36Z,b60275e29fe2361ab97ac0ac217840d7,"Mozilla/5.0 (Macintosh; Intel Mac OS X 10_15_7) AppleWebKit/605.1.15 (KHTML, like Gecko) Version/18.4 Safari/605.1.15",Macintosh,Safari,18.4,OS X,10_15_7,https://5puzkbbxv1.cognition.run/?sona_id=54907,"en-US,en;q=0.9",vxqfytz1j9rosnu,20,"[""White""]",No,Female,NA,No,455787,NA,3613,NA,"{""Q0"":""No"",""Q1"":""Female""}",NA,NA,NA,NA,NA,NA,NA,NA,NA,NA,NA,NA,NA,NA,NA,NA,NA,NA,NA,NA,NA,NA,"[0,1]"
NA,NA,NA,NA,NA,demo_countries,survey-text,97,407680,0.0-10.0,154,1,2025-05-04T16:19:36Z,b60275e29fe2361ab97ac0ac217840d7,"Mozilla/5.0 (Macintosh; Intel Mac OS X 10_15_7) AppleWebKit/605.1.15 (KHTML, like Gecko) Version/18.4 Safari/605.1.15",Macintosh,Safari,18.4,OS X,10_15_7,https://5puzkbbxv1.cognition.run/?sona_id=54907,"en-US,en;q=0.9",vxqfytz1j9rosnu,20,"[""White""]",No,Female,NA,No,455787,NA,4549,NA,"{""Q0"":""NA""}",NA,NA,NA,NA,NA,NA,NA,NA,NA,NA,NA,NA,NA,NA,NA,NA,NA,NA,NA,NA,NA,NA,NA
NA,NA,NA,NA,NA,demo_prev_study,survey-multi-choice,98,418309,0.0-11.0,154,1,2025-05-04T16:19:36Z,b60275e29fe2361ab97ac0ac217840d7,"Mozilla/5.0 (Macintosh; Intel Mac OS X 10_15_7) AppleWebKit/605.1.15 (KHTML, like Gecko) Version/18.4 Safari/605.1.15",Macintosh,Safari,18.4,OS X,10_15_7,https://5puzkbbxv1.cognition.run/?sona_id=54907,"en-US,en;q=0.9",vxqfytz1j9rosnu,20,"[""White""]",No,Female,NA,No,455787,NA,10625,NA,"{""Q0"":""No""}",NA,NA,NA,NA,NA,NA,NA,NA,NA,NA,NA,NA,NA,NA,NA,NA,NA,NA,NA,NA,NA,NA,[0]
NA,NA,NA,NA,NA,post_survey_message,html-keyboard-response,99,422619,0.0-12.0,154,1,2025-05-04T16:19:36Z,b60275e29fe2361ab97ac0ac217840d7,"Mozilla/5.0 (Macintosh; Intel Mac OS X 10_15_7) AppleWebKit/605.1.15 (KHTML, like Gecko) Version/18.4 Safari/605.1.15",Macintosh,Safari,18.4,OS X,10_15_7,https://5puzkbbxv1.cognition.run/?sona_id=54907,"en-US,en;q=0.9",vxqfytz1j9rosnu,20,"[""White""]",No,Female,NA,No,455787,NA,4305,NA,j,NA,NA,NA,NA,NA,NA,NA,NA,NA,NA,NA,NA,NA,NA,NA,NA,NA,NA,NA,NA,NA,NA,NA
NA,NA,NA,NA,NA,debrief,image-keyboard-response,100,455765,0.0-13.0,154,1,2025-05-04T16:19:36Z,b60275e29fe2361ab97ac0ac217840d7,"Mozilla/5.0 (Macintosh; Intel Mac OS X 10_15_7) AppleWebKit/605.1.15 (KHTML, like Gecko) Version/18.4 Safari/605.1.15",Macintosh,Safari,18.4,OS X,10_15_7,https://5puzkbbxv1.cognition.run/?sona_id=54907,"en-US,en;q=0.9",vxqfytz1j9rosnu,20,"[""White""]",No,Female,NA,No,455787,NA,33117,Judg_choice_debrief.png,p,NA,NA,NA,NA,NA,NA,NA,NA,NA,NA,NA,NA,NA,NA,NA,NA,NA,NA,NA,NA,NA,NA,NA
