success,timeout,failed_images,failed_audio,failed_video,screen_id,trial_type,trial_index,time_elapsed,internal_node_id,run_id,condition,recorded_at,source_code_version,user_agent,device,browser,browser_version,platform,platform_version,referer,accept_language,ppt_id,age,race,ethnicity,gender,other_countries,prev_study,view_history,rt,stimulus,response,phase,order,set,effect,t_high,category,d1_best,d2_best,d1_worst1,d2_worst1,d1_worst2,d2_worst2,first_dim,d1_t,d1_c,d1_d,d2_t,d2_c,d2_d,d1_name,d2_name,strategy_response,question_order
TRUE,FALSE,[],[],[],img preload,preload,0,223,0.0-0.0,155,1,2025-05-04T16:37:30Z,b60275e29fe2361ab97ac0ac217840d7,"Mozilla/5.0 (Macintosh; Intel Mac OS X 10_15_7) AppleWebKit/605.1.15 (KHTML, like Gecko) Version/16.3 Safari/605.1.15",Macintosh,Safari,16.3,OS X,10_15_7,https://5puzkbbxv1.cognition.run/?sona_id=58033,"en-US,en;q=0.9",x436nq15n5a7p7f,19,"[""White""]",No,Female,NA,No,NA,NA,NA,NA,NA,NA,NA,NA,NA,NA,NA,NA,NA,NA,NA,NA,NA,NA,NA,NA,NA,NA,NA,NA,NA,NA,NA
NA,NA,NA,NA,NA,computer_message,instructions,1,97267,0.0-1.0,155,1,2025-05-04T16:37:30Z,b60275e29fe2361ab97ac0ac217840d7,"Mozilla/5.0 (Macintosh; Intel Mac OS X 10_15_7) AppleWebKit/605.1.15 (KHTML, like Gecko) Version/16.3 Safari/605.1.15",Macintosh,Safari,16.3,OS X,10_15_7,https://5puzkbbxv1.cognition.run/?sona_id=58033,"en-US,en;q=0.9",x436nq15n5a7p7f,19,"[""White""]",No,Female,NA,No,"[{""page_index"":0,""viewing_time"":97041}]",97042,NA,NA,NA,NA,NA,NA,NA,NA,NA,NA,NA,NA,NA,NA,NA,NA,NA,NA,NA,NA,NA,NA,NA,NA,NA
TRUE,NA,NA,NA,NA,NA,fullscreen,2,100226,0.0-2.0,155,1,2025-05-04T16:37:30Z,b60275e29fe2361ab97ac0ac217840d7,"Mozilla/5.0 (Macintosh; Intel Mac OS X 10_15_7) AppleWebKit/605.1.15 (KHTML, like Gecko) Version/16.3 Safari/605.1.15",Macintosh,Safari,16.3,OS X,10_15_7,https://5puzkbbxv1.cognition.run/?sona_id=58033,"en-US,en;q=0.9",x436nq15n5a7p7f,19,"[""White""]",No,Female,NA,No,NA,1955,NA,NA,NA,NA,NA,NA,NA,NA,NA,NA,NA,NA,NA,NA,NA,NA,NA,NA,NA,NA,NA,NA,NA,NA,NA
NA,NA,NA,NA,NA,choice_instructions,instructions,3,150582,0.0-3.0,155,1,2025-05-04T16:37:30Z,b60275e29fe2361ab97ac0ac217840d7,"Mozilla/5.0 (Macintosh; Intel Mac OS X 10_15_7) AppleWebKit/605.1.15 (KHTML, like Gecko) Version/16.3 Safari/605.1.15",Macintosh,Safari,16.3,OS X,10_15_7,https://5puzkbbxv1.cognition.run/?sona_id=58033,"en-US,en;q=0.9",x436nq15n5a7p7f,19,"[""White""]",No,Female,NA,No,"[{""page_index"":0,""viewing_time"":6930},{""page_index"":1,""viewing_time"":2835},{""page_index"":2,""viewing_time"":6304},{""page_index"":3,""viewing_time"":2485},{""page_index"":4,""viewing_time"":2971},{""page_index"":5,""viewing_time"":19168},{""page_index"":6,""viewing_time"":9660}]",50354,NA,NA,NA,NA,NA,NA,NA,NA,NA,NA,NA,NA,NA,NA,NA,NA,NA,NA,NA,NA,NA,NA,NA,NA,NA
NA,NA,NA,NA,NA,choice_trial_setup,html-keyboard-response,4,150887,0.0-4.0-0.0,155,1,2025-05-04T16:37:30Z,b60275e29fe2361ab97ac0ac217840d7,"Mozilla/5.0 (Macintosh; Intel Mac OS X 10_15_7) AppleWebKit/605.1.15 (KHTML, like Gecko) Version/16.3 Safari/605.1.15",Macintosh,Safari,16.3,OS X,10_15_7,https://5puzkbbxv1.cognition.run/?sona_id=58033,"en-US,en;q=0.9",x436nq15n5a7p7f,19,"[""White""]",No,Female,NA,No,NA,null,<p></p>,null,choice,tc,binary,attraction,NA,washing machines,null,null,null,null,null,null,2,NA,NA,NA,NA,NA,NA,NA,NA,NA,NA
NA,NA,NA,NA,NA,choice_trial,survey-html-form,5,159484,0.0-4.0-1.0,155,1,2025-05-04T16:37:30Z,b60275e29fe2361ab97ac0ac217840d7,"Mozilla/5.0 (Macintosh; Intel Mac OS X 10_15_7) AppleWebKit/605.1.15 (KHTML, like Gecko) Version/16.3 Safari/605.1.15",Macintosh,Safari,16.3,OS X,10_15_7,https://5puzkbbxv1.cognition.run/?sona_id=58033,"en-US,en;q=0.9",x436nq15n5a7p7f,19,"[""White""]",No,Female,NA,No,NA,8592,NA,"{""product_choice"":""B""}",choice,tc,binary,attraction,NA,washing machines,null,null,null,null,null,null,2,60,50,null,50,60,null,Average lifespan,Energy savings,NA,NA
NA,NA,NA,NA,NA,choice_trial_setup,html-keyboard-response,6,159786,0.0-4.0-0.1,155,1,2025-05-04T16:37:30Z,b60275e29fe2361ab97ac0ac217840d7,"Mozilla/5.0 (Macintosh; Intel Mac OS X 10_15_7) AppleWebKit/605.1.15 (KHTML, like Gecko) Version/16.3 Safari/605.1.15",Macintosh,Safari,16.3,OS X,10_15_7,https://5puzkbbxv1.cognition.run/?sona_id=58033,"en-US,en;q=0.9",x436nq15n5a7p7f,19,"[""White""]",No,Female,NA,No,NA,null,<p></p>,null,choice,tdc,trinary,repulsion_A,2,microwave ovens,null,null,null,null,null,null,1,NA,NA,NA,NA,NA,NA,NA,NA,NA,NA
NA,NA,NA,NA,NA,choice_trial,survey-html-form,7,168369,0.0-4.0-1.1,155,1,2025-05-04T16:37:30Z,b60275e29fe2361ab97ac0ac217840d7,"Mozilla/5.0 (Macintosh; Intel Mac OS X 10_15_7) AppleWebKit/605.1.15 (KHTML, like Gecko) Version/16.3 Safari/605.1.15",Macintosh,Safari,16.3,OS X,10_15_7,https://5puzkbbxv1.cognition.run/?sona_id=58033,"en-US,en;q=0.9",x436nq15n5a7p7f,19,"[""White""]",No,Female,NA,No,NA,8579,NA,"{""product_choice"":""C""}",choice,tdc,trinary,repulsion_A,2,microwave ovens,null,null,null,null,null,null,1,30,40,20,100,90,100,Warranty,Cooking power,NA,NA
NA,NA,NA,NA,NA,choice_trial_setup,html-keyboard-response,8,168672,0.0-4.0-0.2,155,1,2025-05-04T16:37:30Z,b60275e29fe2361ab97ac0ac217840d7,"Mozilla/5.0 (Macintosh; Intel Mac OS X 10_15_7) AppleWebKit/605.1.15 (KHTML, like Gecko) Version/16.3 Safari/605.1.15",Macintosh,Safari,16.3,OS X,10_15_7,https://5puzkbbxv1.cognition.run/?sona_id=58033,"en-US,en;q=0.9",x436nq15n5a7p7f,19,"[""White""]",No,Female,NA,No,NA,null,<p></p>,null,choice,ct,binary,attraction,NA,microwave ovens,null,null,null,null,null,null,1,NA,NA,NA,NA,NA,NA,NA,NA,NA,NA
NA,NA,NA,NA,NA,choice_trial,survey-html-form,9,178189,0.0-4.0-1.2,155,1,2025-05-04T16:37:30Z,b60275e29fe2361ab97ac0ac217840d7,"Mozilla/5.0 (Macintosh; Intel Mac OS X 10_15_7) AppleWebKit/605.1.15 (KHTML, like Gecko) Version/16.3 Safari/605.1.15",Macintosh,Safari,16.3,OS X,10_15_7,https://5puzkbbxv1.cognition.run/?sona_id=58033,"en-US,en;q=0.9",x436nq15n5a7p7f,19,"[""White""]",No,Female,NA,No,NA,9513,NA,"{""product_choice"":""A""}",choice,ct,binary,attraction,NA,microwave ovens,null,null,null,null,null,null,1,60,50,null,50,60,null,Warranty,Cooking power,NA,NA
NA,NA,NA,NA,NA,choice_trial_setup,html-keyboard-response,10,178492,0.0-4.0-0.3,155,1,2025-05-04T16:37:30Z,b60275e29fe2361ab97ac0ac217840d7,"Mozilla/5.0 (Macintosh; Intel Mac OS X 10_15_7) AppleWebKit/605.1.15 (KHTML, like Gecko) Version/16.3 Safari/605.1.15",Macintosh,Safari,16.3,OS X,10_15_7,https://5puzkbbxv1.cognition.run/?sona_id=58033,"en-US,en;q=0.9",x436nq15n5a7p7f,19,"[""White""]",No,Female,NA,No,NA,null,<p></p>,null,choice,wbw,trinary,catch,null,washing machines,70,95,50,35,30,20,2,NA,NA,NA,NA,NA,NA,NA,NA,NA,NA
NA,NA,NA,NA,NA,choice_trial,survey-html-form,11,183286,0.0-4.0-1.3,155,1,2025-05-04T16:37:30Z,b60275e29fe2361ab97ac0ac217840d7,"Mozilla/5.0 (Macintosh; Intel Mac OS X 10_15_7) AppleWebKit/605.1.15 (KHTML, like Gecko) Version/16.3 Safari/605.1.15",Macintosh,Safari,16.3,OS X,10_15_7,https://5puzkbbxv1.cognition.run/?sona_id=58033,"en-US,en;q=0.9",x436nq15n5a7p7f,19,"[""White""]",No,Female,NA,No,NA,4790,NA,"{""product_choice"":""B""}",choice,wbw,trinary,catch,null,washing machines,70,95,50,35,30,20,2,null,null,null,null,null,null,Average lifespan,Energy savings,NA,NA
NA,NA,NA,NA,NA,choice_trial_setup,html-keyboard-response,12,183589,0.0-4.0-0.4,155,1,2025-05-04T16:37:30Z,b60275e29fe2361ab97ac0ac217840d7,"Mozilla/5.0 (Macintosh; Intel Mac OS X 10_15_7) AppleWebKit/605.1.15 (KHTML, like Gecko) Version/16.3 Safari/605.1.15",Macintosh,Safari,16.3,OS X,10_15_7,https://5puzkbbxv1.cognition.run/?sona_id=58033,"en-US,en;q=0.9",x436nq15n5a7p7f,19,"[""White""]",No,Female,NA,No,NA,null,<p></p>,null,choice,ctd,trinary,repulsion_A,1,washing machines,null,null,null,null,null,null,2,NA,NA,NA,NA,NA,NA,NA,NA,NA,NA
NA,NA,NA,NA,NA,choice_trial,survey-html-form,13,191235,0.0-4.0-1.4,155,1,2025-05-04T16:37:30Z,b60275e29fe2361ab97ac0ac217840d7,"Mozilla/5.0 (Macintosh; Intel Mac OS X 10_15_7) AppleWebKit/605.1.15 (KHTML, like Gecko) Version/16.3 Safari/605.1.15",Macintosh,Safari,16.3,OS X,10_15_7,https://5puzkbbxv1.cognition.run/?sona_id=58033,"en-US,en;q=0.9",x436nq15n5a7p7f,19,"[""White""]",No,Female,NA,No,NA,7643,NA,"{""product_choice"":""A""}",choice,ctd,trinary,repulsion_A,1,washing machines,null,null,null,null,null,null,2,100,90,100,30,40,20,Average lifespan,Energy savings,NA,NA
NA,NA,NA,NA,NA,choice_trial_setup,html-keyboard-response,14,191538,0.0-4.0-0.5,155,1,2025-05-04T16:37:30Z,b60275e29fe2361ab97ac0ac217840d7,"Mozilla/5.0 (Macintosh; Intel Mac OS X 10_15_7) AppleWebKit/605.1.15 (KHTML, like Gecko) Version/16.3 Safari/605.1.15",Macintosh,Safari,16.3,OS X,10_15_7,https://5puzkbbxv1.cognition.run/?sona_id=58033,"en-US,en;q=0.9",x436nq15n5a7p7f,19,"[""White""]",No,Female,NA,No,NA,null,<p></p>,null,choice,ct,binary,repulsion,2,laptops,null,null,null,null,null,null,1,NA,NA,NA,NA,NA,NA,NA,NA,NA,NA
NA,NA,NA,NA,NA,choice_trial,survey-html-form,15,204497,0.0-4.0-1.5,155,1,2025-05-04T16:37:30Z,b60275e29fe2361ab97ac0ac217840d7,"Mozilla/5.0 (Macintosh; Intel Mac OS X 10_15_7) AppleWebKit/605.1.15 (KHTML, like Gecko) Version/16.3 Safari/605.1.15",Macintosh,Safari,16.3,OS X,10_15_7,https://5puzkbbxv1.cognition.run/?sona_id=58033,"en-US,en;q=0.9",x436nq15n5a7p7f,19,"[""White""]",No,Female,NA,No,NA,12956,NA,"{""product_choice"":""A""}",choice,ct,binary,repulsion,2,laptops,null,null,null,null,null,null,1,30,40,null,100,90,null,Processing speed,Memory (RAM),NA,NA
NA,NA,NA,NA,NA,choice_trial_setup,html-keyboard-response,16,204800,0.0-4.0-0.6,155,1,2025-05-04T16:37:30Z,b60275e29fe2361ab97ac0ac217840d7,"Mozilla/5.0 (Macintosh; Intel Mac OS X 10_15_7) AppleWebKit/605.1.15 (KHTML, like Gecko) Version/16.3 Safari/605.1.15",Macintosh,Safari,16.3,OS X,10_15_7,https://5puzkbbxv1.cognition.run/?sona_id=58033,"en-US,en;q=0.9",x436nq15n5a7p7f,19,"[""White""]",No,Female,NA,No,NA,null,<p></p>,null,choice,tc,binary,repulsion,2,televisions,null,null,null,null,null,null,1,NA,NA,NA,NA,NA,NA,NA,NA,NA,NA
NA,NA,NA,NA,NA,choice_trial,survey-html-form,17,213208,0.0-4.0-1.6,155,1,2025-05-04T16:37:30Z,b60275e29fe2361ab97ac0ac217840d7,"Mozilla/5.0 (Macintosh; Intel Mac OS X 10_15_7) AppleWebKit/605.1.15 (KHTML, like Gecko) Version/16.3 Safari/605.1.15",Macintosh,Safari,16.3,OS X,10_15_7,https://5puzkbbxv1.cognition.run/?sona_id=58033,"en-US,en;q=0.9",x436nq15n5a7p7f,19,"[""White""]",No,Female,NA,No,NA,8405,NA,"{""product_choice"":""A""}",choice,tc,binary,repulsion,2,televisions,null,null,null,null,null,null,1,30,40,null,100,90,null,Screen size,Average lifespan,NA,NA
NA,NA,NA,NA,NA,choice_trial_setup,html-keyboard-response,18,213512,0.0-4.0-0.7,155,1,2025-05-04T16:37:30Z,b60275e29fe2361ab97ac0ac217840d7,"Mozilla/5.0 (Macintosh; Intel Mac OS X 10_15_7) AppleWebKit/605.1.15 (KHTML, like Gecko) Version/16.3 Safari/605.1.15",Macintosh,Safari,16.3,OS X,10_15_7,https://5puzkbbxv1.cognition.run/?sona_id=58033,"en-US,en;q=0.9",x436nq15n5a7p7f,19,"[""White""]",No,Female,NA,No,NA,null,<p></p>,null,choice,tdc,trinary,repulsion_B,2,washing machines,null,null,null,null,null,null,2,NA,NA,NA,NA,NA,NA,NA,NA,NA,NA
NA,NA,NA,NA,NA,choice_trial,survey-html-form,19,224530,0.0-4.0-1.7,155,1,2025-05-04T16:37:30Z,b60275e29fe2361ab97ac0ac217840d7,"Mozilla/5.0 (Macintosh; Intel Mac OS X 10_15_7) AppleWebKit/605.1.15 (KHTML, like Gecko) Version/16.3 Safari/605.1.15",Macintosh,Safari,16.3,OS X,10_15_7,https://5puzkbbxv1.cognition.run/?sona_id=58033,"en-US,en;q=0.9",x436nq15n5a7p7f,19,"[""White""]",No,Female,NA,No,NA,11014,NA,"{""product_choice"":""A""}",choice,tdc,trinary,repulsion_B,2,washing machines,null,null,null,null,null,null,2,40,30,40,90,100,80,Average lifespan,Energy savings,NA,NA
NA,NA,NA,NA,NA,choice_trial_setup,html-keyboard-response,20,224832,0.0-4.0-0.8,155,1,2025-05-04T16:37:30Z,b60275e29fe2361ab97ac0ac217840d7,"Mozilla/5.0 (Macintosh; Intel Mac OS X 10_15_7) AppleWebKit/605.1.15 (KHTML, like Gecko) Version/16.3 Safari/605.1.15",Macintosh,Safari,16.3,OS X,10_15_7,https://5puzkbbxv1.cognition.run/?sona_id=58033,"en-US,en;q=0.9",x436nq15n5a7p7f,19,"[""White""]",No,Female,NA,No,NA,null,<p></p>,null,choice,tc,binary,repulsion,2,washing machines,null,null,null,null,null,null,2,NA,NA,NA,NA,NA,NA,NA,NA,NA,NA
NA,NA,NA,NA,NA,choice_trial,survey-html-form,21,236829,0.0-4.0-1.8,155,1,2025-05-04T16:37:30Z,b60275e29fe2361ab97ac0ac217840d7,"Mozilla/5.0 (Macintosh; Intel Mac OS X 10_15_7) AppleWebKit/605.1.15 (KHTML, like Gecko) Version/16.3 Safari/605.1.15",Macintosh,Safari,16.3,OS X,10_15_7,https://5puzkbbxv1.cognition.run/?sona_id=58033,"en-US,en;q=0.9",x436nq15n5a7p7f,19,"[""White""]",No,Female,NA,No,NA,11993,NA,"{""product_choice"":""A""}",choice,tc,binary,repulsion,2,washing machines,null,null,null,null,null,null,2,30,40,null,100,90,null,Average lifespan,Energy savings,NA,NA
NA,NA,NA,NA,NA,choice_trial_setup,html-keyboard-response,22,237132,0.0-4.0-0.9,155,1,2025-05-04T16:37:30Z,b60275e29fe2361ab97ac0ac217840d7,"Mozilla/5.0 (Macintosh; Intel Mac OS X 10_15_7) AppleWebKit/605.1.15 (KHTML, like Gecko) Version/16.3 Safari/605.1.15",Macintosh,Safari,16.3,OS X,10_15_7,https://5puzkbbxv1.cognition.run/?sona_id=58033,"en-US,en;q=0.9",x436nq15n5a7p7f,19,"[""White""]",No,Female,NA,No,NA,null,<p></p>,null,choice,dct,trinary,attraction,2,microwave ovens,null,null,null,null,null,null,2,NA,NA,NA,NA,NA,NA,NA,NA,NA,NA
NA,NA,NA,NA,NA,choice_trial,survey-html-form,23,246459,0.0-4.0-1.9,155,1,2025-05-04T16:37:30Z,b60275e29fe2361ab97ac0ac217840d7,"Mozilla/5.0 (Macintosh; Intel Mac OS X 10_15_7) AppleWebKit/605.1.15 (KHTML, like Gecko) Version/16.3 Safari/605.1.15",Macintosh,Safari,16.3,OS X,10_15_7,https://5puzkbbxv1.cognition.run/?sona_id=58033,"en-US,en;q=0.9",x436nq15n5a7p7f,19,"[""White""]",No,Female,NA,No,NA,9323,NA,"{""product_choice"":""C""}",choice,dct,trinary,attraction,2,microwave ovens,null,null,null,null,null,null,2,50,60,40,60,50,60,Warranty,Cooking power,NA,NA
NA,NA,NA,NA,NA,choice_trial_setup,html-keyboard-response,24,246762,0.0-4.0-0.10,155,1,2025-05-04T16:37:30Z,b60275e29fe2361ab97ac0ac217840d7,"Mozilla/5.0 (Macintosh; Intel Mac OS X 10_15_7) AppleWebKit/605.1.15 (KHTML, like Gecko) Version/16.3 Safari/605.1.15",Macintosh,Safari,16.3,OS X,10_15_7,https://5puzkbbxv1.cognition.run/?sona_id=58033,"en-US,en;q=0.9",x436nq15n5a7p7f,19,"[""White""]",No,Female,NA,No,NA,null,<p></p>,null,choice,tc,binary,attraction,NA,televisions,null,null,null,null,null,null,1,NA,NA,NA,NA,NA,NA,NA,NA,NA,NA
NA,NA,NA,NA,NA,choice_trial,survey-html-form,25,253904,0.0-4.0-1.10,155,1,2025-05-04T16:37:30Z,b60275e29fe2361ab97ac0ac217840d7,"Mozilla/5.0 (Macintosh; Intel Mac OS X 10_15_7) AppleWebKit/605.1.15 (KHTML, like Gecko) Version/16.3 Safari/605.1.15",Macintosh,Safari,16.3,OS X,10_15_7,https://5puzkbbxv1.cognition.run/?sona_id=58033,"en-US,en;q=0.9",x436nq15n5a7p7f,19,"[""White""]",No,Female,NA,No,NA,7138,NA,"{""product_choice"":""B""}",choice,tc,binary,attraction,NA,televisions,null,null,null,null,null,null,1,60,50,null,50,60,null,Screen size,Average lifespan,NA,NA
NA,NA,NA,NA,NA,choice_trial_setup,html-keyboard-response,26,254206,0.0-4.0-0.11,155,1,2025-05-04T16:37:30Z,b60275e29fe2361ab97ac0ac217840d7,"Mozilla/5.0 (Macintosh; Intel Mac OS X 10_15_7) AppleWebKit/605.1.15 (KHTML, like Gecko) Version/16.3 Safari/605.1.15",Macintosh,Safari,16.3,OS X,10_15_7,https://5puzkbbxv1.cognition.run/?sona_id=58033,"en-US,en;q=0.9",x436nq15n5a7p7f,19,"[""White""]",No,Female,NA,No,NA,null,<p></p>,null,choice,wbw,trinary,catch,null,televisions,90,65,5,20,35,45,2,NA,NA,NA,NA,NA,NA,NA,NA,NA,NA
NA,NA,NA,NA,NA,choice_trial,survey-html-form,27,261845,0.0-4.0-1.11,155,1,2025-05-04T16:37:30Z,b60275e29fe2361ab97ac0ac217840d7,"Mozilla/5.0 (Macintosh; Intel Mac OS X 10_15_7) AppleWebKit/605.1.15 (KHTML, like Gecko) Version/16.3 Safari/605.1.15",Macintosh,Safari,16.3,OS X,10_15_7,https://5puzkbbxv1.cognition.run/?sona_id=58033,"en-US,en;q=0.9",x436nq15n5a7p7f,19,"[""White""]",No,Female,NA,No,NA,7635,NA,"{""product_choice"":""B""}",choice,wbw,trinary,catch,null,televisions,90,65,5,20,35,45,2,null,null,null,null,null,null,Screen size,Average lifespan,NA,NA
NA,NA,NA,NA,NA,choice_trial_setup,html-keyboard-response,28,262148,0.0-4.0-0.12,155,1,2025-05-04T16:37:30Z,b60275e29fe2361ab97ac0ac217840d7,"Mozilla/5.0 (Macintosh; Intel Mac OS X 10_15_7) AppleWebKit/605.1.15 (KHTML, like Gecko) Version/16.3 Safari/605.1.15",Macintosh,Safari,16.3,OS X,10_15_7,https://5puzkbbxv1.cognition.run/?sona_id=58033,"en-US,en;q=0.9",x436nq15n5a7p7f,19,"[""White""]",No,Female,NA,No,NA,null,<p></p>,null,choice,tc,binary,repulsion,1,laptops,null,null,null,null,null,null,2,NA,NA,NA,NA,NA,NA,NA,NA,NA,NA
NA,NA,NA,NA,NA,choice_trial,survey-html-form,29,268993,0.0-4.0-1.12,155,1,2025-05-04T16:37:30Z,b60275e29fe2361ab97ac0ac217840d7,"Mozilla/5.0 (Macintosh; Intel Mac OS X 10_15_7) AppleWebKit/605.1.15 (KHTML, like Gecko) Version/16.3 Safari/605.1.15",Macintosh,Safari,16.3,OS X,10_15_7,https://5puzkbbxv1.cognition.run/?sona_id=58033,"en-US,en;q=0.9",x436nq15n5a7p7f,19,"[""White""]",No,Female,NA,No,NA,6841,NA,"{""product_choice"":""B""}",choice,tc,binary,repulsion,1,laptops,null,null,null,null,null,null,2,100,90,null,30,40,null,Processing speed,Memory (RAM),NA,NA
NA,NA,NA,NA,NA,choice_trial_setup,html-keyboard-response,30,269295,0.0-4.0-0.13,155,1,2025-05-04T16:37:30Z,b60275e29fe2361ab97ac0ac217840d7,"Mozilla/5.0 (Macintosh; Intel Mac OS X 10_15_7) AppleWebKit/605.1.15 (KHTML, like Gecko) Version/16.3 Safari/605.1.15",Macintosh,Safari,16.3,OS X,10_15_7,https://5puzkbbxv1.cognition.run/?sona_id=58033,"en-US,en;q=0.9",x436nq15n5a7p7f,19,"[""White""]",No,Female,NA,No,NA,null,<p></p>,null,choice,bw,binary,catch,null,televisions,65,85,15,10,null,null,2,NA,NA,NA,NA,NA,NA,NA,NA,NA,NA
NA,NA,NA,NA,NA,choice_trial,survey-html-form,31,275734,0.0-4.0-1.13,155,1,2025-05-04T16:37:30Z,b60275e29fe2361ab97ac0ac217840d7,"Mozilla/5.0 (Macintosh; Intel Mac OS X 10_15_7) AppleWebKit/605.1.15 (KHTML, like Gecko) Version/16.3 Safari/605.1.15",Macintosh,Safari,16.3,OS X,10_15_7,https://5puzkbbxv1.cognition.run/?sona_id=58033,"en-US,en;q=0.9",x436nq15n5a7p7f,19,"[""White""]",No,Female,NA,No,NA,6435,NA,"{""product_choice"":""A""}",choice,bw,binary,catch,null,televisions,65,85,15,10,null,null,2,null,null,null,null,null,null,Screen size,Average lifespan,NA,NA
NA,NA,NA,NA,NA,choice_trial_setup,html-keyboard-response,32,276040,0.0-4.0-0.14,155,1,2025-05-04T16:37:30Z,b60275e29fe2361ab97ac0ac217840d7,"Mozilla/5.0 (Macintosh; Intel Mac OS X 10_15_7) AppleWebKit/605.1.15 (KHTML, like Gecko) Version/16.3 Safari/605.1.15",Macintosh,Safari,16.3,OS X,10_15_7,https://5puzkbbxv1.cognition.run/?sona_id=58033,"en-US,en;q=0.9",x436nq15n5a7p7f,19,"[""White""]",No,Female,NA,No,NA,null,<p></p>,null,choice,tdc,trinary,repulsion_A,1,microwave ovens,null,null,null,null,null,null,1,NA,NA,NA,NA,NA,NA,NA,NA,NA,NA
NA,NA,NA,NA,NA,choice_trial,survey-html-form,33,280562,0.0-4.0-1.14,155,1,2025-05-04T16:37:30Z,b60275e29fe2361ab97ac0ac217840d7,"Mozilla/5.0 (Macintosh; Intel Mac OS X 10_15_7) AppleWebKit/605.1.15 (KHTML, like Gecko) Version/16.3 Safari/605.1.15",Macintosh,Safari,16.3,OS X,10_15_7,https://5puzkbbxv1.cognition.run/?sona_id=58033,"en-US,en;q=0.9",x436nq15n5a7p7f,19,"[""White""]",No,Female,NA,No,NA,4517,NA,"{""product_choice"":""A""}",choice,tdc,trinary,repulsion_A,1,microwave ovens,null,null,null,null,null,null,1,100,90,100,30,40,20,Warranty,Cooking power,NA,NA
NA,NA,NA,NA,NA,choice_trial_setup,html-keyboard-response,34,280865,0.0-4.0-0.15,155,1,2025-05-04T16:37:30Z,b60275e29fe2361ab97ac0ac217840d7,"Mozilla/5.0 (Macintosh; Intel Mac OS X 10_15_7) AppleWebKit/605.1.15 (KHTML, like Gecko) Version/16.3 Safari/605.1.15",Macintosh,Safari,16.3,OS X,10_15_7,https://5puzkbbxv1.cognition.run/?sona_id=58033,"en-US,en;q=0.9",x436nq15n5a7p7f,19,"[""White""]",No,Female,NA,No,NA,null,<p></p>,null,choice,ct,binary,attraction,NA,laptops,null,null,null,null,null,null,2,NA,NA,NA,NA,NA,NA,NA,NA,NA,NA
NA,NA,NA,NA,NA,choice_trial,survey-html-form,35,287804,0.0-4.0-1.15,155,1,2025-05-04T16:37:30Z,b60275e29fe2361ab97ac0ac217840d7,"Mozilla/5.0 (Macintosh; Intel Mac OS X 10_15_7) AppleWebKit/605.1.15 (KHTML, like Gecko) Version/16.3 Safari/605.1.15",Macintosh,Safari,16.3,OS X,10_15_7,https://5puzkbbxv1.cognition.run/?sona_id=58033,"en-US,en;q=0.9",x436nq15n5a7p7f,19,"[""White""]",No,Female,NA,No,NA,6934,NA,"{""product_choice"":""B""}",choice,ct,binary,attraction,NA,laptops,null,null,null,null,null,null,2,60,50,null,50,60,null,Processing speed,Memory (RAM),NA,NA
NA,NA,NA,NA,NA,choice_trial_setup,html-keyboard-response,36,288107,0.0-4.0-0.16,155,1,2025-05-04T16:37:30Z,b60275e29fe2361ab97ac0ac217840d7,"Mozilla/5.0 (Macintosh; Intel Mac OS X 10_15_7) AppleWebKit/605.1.15 (KHTML, like Gecko) Version/16.3 Safari/605.1.15",Macintosh,Safari,16.3,OS X,10_15_7,https://5puzkbbxv1.cognition.run/?sona_id=58033,"en-US,en;q=0.9",x436nq15n5a7p7f,19,"[""White""]",No,Female,NA,No,NA,null,<p></p>,null,choice,cdt,trinary,attraction,1,microwave ovens,null,null,null,null,null,null,1,NA,NA,NA,NA,NA,NA,NA,NA,NA,NA
NA,NA,NA,NA,NA,choice_trial,survey-html-form,37,299271,0.0-4.0-1.16,155,1,2025-05-04T16:37:30Z,b60275e29fe2361ab97ac0ac217840d7,"Mozilla/5.0 (Macintosh; Intel Mac OS X 10_15_7) AppleWebKit/605.1.15 (KHTML, like Gecko) Version/16.3 Safari/605.1.15",Macintosh,Safari,16.3,OS X,10_15_7,https://5puzkbbxv1.cognition.run/?sona_id=58033,"en-US,en;q=0.9",x436nq15n5a7p7f,19,"[""White""]",No,Female,NA,No,NA,11160,NA,"{""product_choice"":""A""}",choice,cdt,trinary,attraction,1,microwave ovens,null,null,null,null,null,null,1,60,50,60,50,60,40,Warranty,Cooking power,NA,NA
NA,NA,NA,NA,NA,choice_trial_setup,html-keyboard-response,38,299574,0.0-4.0-0.17,155,1,2025-05-04T16:37:30Z,b60275e29fe2361ab97ac0ac217840d7,"Mozilla/5.0 (Macintosh; Intel Mac OS X 10_15_7) AppleWebKit/605.1.15 (KHTML, like Gecko) Version/16.3 Safari/605.1.15",Macintosh,Safari,16.3,OS X,10_15_7,https://5puzkbbxv1.cognition.run/?sona_id=58033,"en-US,en;q=0.9",x436nq15n5a7p7f,19,"[""White""]",No,Female,NA,No,NA,null,<p></p>,null,choice,tdc,trinary,attraction,1,washing machines,null,null,null,null,null,null,2,NA,NA,NA,NA,NA,NA,NA,NA,NA,NA
NA,NA,NA,NA,NA,choice_trial,survey-html-form,39,318530,0.0-4.0-1.17,155,1,2025-05-04T16:37:30Z,b60275e29fe2361ab97ac0ac217840d7,"Mozilla/5.0 (Macintosh; Intel Mac OS X 10_15_7) AppleWebKit/605.1.15 (KHTML, like Gecko) Version/16.3 Safari/605.1.15",Macintosh,Safari,16.3,OS X,10_15_7,https://5puzkbbxv1.cognition.run/?sona_id=58033,"en-US,en;q=0.9",x436nq15n5a7p7f,19,"[""White""]",No,Female,NA,No,NA,18951,NA,"{""product_choice"":""A""}",choice,tdc,trinary,attraction,1,washing machines,null,null,null,null,null,null,2,60,50,60,50,60,40,Average lifespan,Energy savings,NA,NA
NA,NA,NA,NA,NA,choice_trial_setup,html-keyboard-response,40,318833,0.0-4.0-0.18,155,1,2025-05-04T16:37:30Z,b60275e29fe2361ab97ac0ac217840d7,"Mozilla/5.0 (Macintosh; Intel Mac OS X 10_15_7) AppleWebKit/605.1.15 (KHTML, like Gecko) Version/16.3 Safari/605.1.15",Macintosh,Safari,16.3,OS X,10_15_7,https://5puzkbbxv1.cognition.run/?sona_id=58033,"en-US,en;q=0.9",x436nq15n5a7p7f,19,"[""White""]",No,Female,NA,No,NA,null,<p></p>,null,choice,bw,binary,catch,null,washing machines,80,95,40,20,null,null,1,NA,NA,NA,NA,NA,NA,NA,NA,NA,NA
NA,NA,NA,NA,NA,choice_trial,survey-html-form,41,324511,0.0-4.0-1.18,155,1,2025-05-04T16:37:30Z,b60275e29fe2361ab97ac0ac217840d7,"Mozilla/5.0 (Macintosh; Intel Mac OS X 10_15_7) AppleWebKit/605.1.15 (KHTML, like Gecko) Version/16.3 Safari/605.1.15",Macintosh,Safari,16.3,OS X,10_15_7,https://5puzkbbxv1.cognition.run/?sona_id=58033,"en-US,en;q=0.9",x436nq15n5a7p7f,19,"[""White""]",No,Female,NA,No,NA,5674,NA,"{""product_choice"":""A""}",choice,bw,binary,catch,null,washing machines,80,95,40,20,null,null,1,null,null,null,null,null,null,Average lifespan,Energy savings,NA,NA
NA,NA,NA,NA,NA,choice_trial_setup,html-keyboard-response,42,324815,0.0-4.0-0.19,155,1,2025-05-04T16:37:30Z,b60275e29fe2361ab97ac0ac217840d7,"Mozilla/5.0 (Macintosh; Intel Mac OS X 10_15_7) AppleWebKit/605.1.15 (KHTML, like Gecko) Version/16.3 Safari/605.1.15",Macintosh,Safari,16.3,OS X,10_15_7,https://5puzkbbxv1.cognition.run/?sona_id=58033,"en-US,en;q=0.9",x436nq15n5a7p7f,19,"[""White""]",No,Female,NA,No,NA,null,<p></p>,null,choice,wwb,trinary,catch,null,laptops,90,75,50,35,10,45,2,NA,NA,NA,NA,NA,NA,NA,NA,NA,NA
NA,NA,NA,NA,NA,choice_trial,survey-html-form,43,329026,0.0-4.0-1.19,155,1,2025-05-04T16:37:30Z,b60275e29fe2361ab97ac0ac217840d7,"Mozilla/5.0 (Macintosh; Intel Mac OS X 10_15_7) AppleWebKit/605.1.15 (KHTML, like Gecko) Version/16.3 Safari/605.1.15",Macintosh,Safari,16.3,OS X,10_15_7,https://5puzkbbxv1.cognition.run/?sona_id=58033,"en-US,en;q=0.9",x436nq15n5a7p7f,19,"[""White""]",No,Female,NA,No,NA,4207,NA,"{""product_choice"":""C""}",choice,wwb,trinary,catch,null,laptops,90,75,50,35,10,45,2,null,null,null,null,null,null,Processing speed,Memory (RAM),NA,NA
NA,NA,NA,NA,NA,choice_trial_setup,html-keyboard-response,44,329329,0.0-4.0-0.20,155,1,2025-05-04T16:37:30Z,b60275e29fe2361ab97ac0ac217840d7,"Mozilla/5.0 (Macintosh; Intel Mac OS X 10_15_7) AppleWebKit/605.1.15 (KHTML, like Gecko) Version/16.3 Safari/605.1.15",Macintosh,Safari,16.3,OS X,10_15_7,https://5puzkbbxv1.cognition.run/?sona_id=58033,"en-US,en;q=0.9",x436nq15n5a7p7f,19,"[""White""]",No,Female,NA,No,NA,null,<p></p>,null,choice,dct,trinary,repulsion_A,1,laptops,null,null,null,null,null,null,1,NA,NA,NA,NA,NA,NA,NA,NA,NA,NA
NA,NA,NA,NA,NA,choice_trial,survey-html-form,45,347481,0.0-4.0-1.20,155,1,2025-05-04T16:37:30Z,b60275e29fe2361ab97ac0ac217840d7,"Mozilla/5.0 (Macintosh; Intel Mac OS X 10_15_7) AppleWebKit/605.1.15 (KHTML, like Gecko) Version/16.3 Safari/605.1.15",Macintosh,Safari,16.3,OS X,10_15_7,https://5puzkbbxv1.cognition.run/?sona_id=58033,"en-US,en;q=0.9",x436nq15n5a7p7f,19,"[""White""]",No,Female,NA,No,NA,18148,NA,"{""product_choice"":""B""}",choice,dct,trinary,repulsion_A,1,laptops,null,null,null,null,null,null,1,100,90,100,30,40,20,Processing speed,Memory (RAM),NA,NA
NA,NA,NA,NA,NA,choice_trial_setup,html-keyboard-response,46,347784,0.0-4.0-0.21,155,1,2025-05-04T16:37:30Z,b60275e29fe2361ab97ac0ac217840d7,"Mozilla/5.0 (Macintosh; Intel Mac OS X 10_15_7) AppleWebKit/605.1.15 (KHTML, like Gecko) Version/16.3 Safari/605.1.15",Macintosh,Safari,16.3,OS X,10_15_7,https://5puzkbbxv1.cognition.run/?sona_id=58033,"en-US,en;q=0.9",x436nq15n5a7p7f,19,"[""White""]",No,Female,NA,No,NA,null,<p></p>,null,choice,cdt,trinary,repulsion_B,1,laptops,null,null,null,null,null,null,1,NA,NA,NA,NA,NA,NA,NA,NA,NA,NA
NA,NA,NA,NA,NA,choice_trial,survey-html-form,47,353759,0.0-4.0-1.21,155,1,2025-05-04T16:37:30Z,b60275e29fe2361ab97ac0ac217840d7,"Mozilla/5.0 (Macintosh; Intel Mac OS X 10_15_7) AppleWebKit/605.1.15 (KHTML, like Gecko) Version/16.3 Safari/605.1.15",Macintosh,Safari,16.3,OS X,10_15_7,https://5puzkbbxv1.cognition.run/?sona_id=58033,"en-US,en;q=0.9",x436nq15n5a7p7f,19,"[""White""]",No,Female,NA,No,NA,5971,NA,"{""product_choice"":""C""}",choice,cdt,trinary,repulsion_B,1,laptops,null,null,null,null,null,null,1,90,100,80,40,30,40,Processing speed,Memory (RAM),NA,NA
NA,NA,NA,NA,NA,choice_trial_setup,html-keyboard-response,48,354062,0.0-4.0-0.22,155,1,2025-05-04T16:37:30Z,b60275e29fe2361ab97ac0ac217840d7,"Mozilla/5.0 (Macintosh; Intel Mac OS X 10_15_7) AppleWebKit/605.1.15 (KHTML, like Gecko) Version/16.3 Safari/605.1.15",Macintosh,Safari,16.3,OS X,10_15_7,https://5puzkbbxv1.cognition.run/?sona_id=58033,"en-US,en;q=0.9",x436nq15n5a7p7f,19,"[""White""]",No,Female,NA,No,NA,null,<p></p>,null,choice,tdc,trinary,repulsion_A,2,televisions,null,null,null,null,null,null,2,NA,NA,NA,NA,NA,NA,NA,NA,NA,NA
NA,NA,NA,NA,NA,choice_trial,survey-html-form,49,360472,0.0-4.0-1.22,155,1,2025-05-04T16:37:30Z,b60275e29fe2361ab97ac0ac217840d7,"Mozilla/5.0 (Macintosh; Intel Mac OS X 10_15_7) AppleWebKit/605.1.15 (KHTML, like Gecko) Version/16.3 Safari/605.1.15",Macintosh,Safari,16.3,OS X,10_15_7,https://5puzkbbxv1.cognition.run/?sona_id=58033,"en-US,en;q=0.9",x436nq15n5a7p7f,19,"[""White""]",No,Female,NA,No,NA,6406,NA,"{""product_choice"":""A""}",choice,tdc,trinary,repulsion_A,2,televisions,null,null,null,null,null,null,2,30,40,20,100,90,100,Screen size,Average lifespan,NA,NA
NA,NA,NA,NA,NA,choice_trial_setup,html-keyboard-response,50,360776,0.0-4.0-0.23,155,1,2025-05-04T16:37:30Z,b60275e29fe2361ab97ac0ac217840d7,"Mozilla/5.0 (Macintosh; Intel Mac OS X 10_15_7) AppleWebKit/605.1.15 (KHTML, like Gecko) Version/16.3 Safari/605.1.15",Macintosh,Safari,16.3,OS X,10_15_7,https://5puzkbbxv1.cognition.run/?sona_id=58033,"en-US,en;q=0.9",x436nq15n5a7p7f,19,"[""White""]",No,Female,NA,No,NA,null,<p></p>,null,choice,ctd,trinary,repulsion_B,1,washing machines,null,null,null,null,null,null,1,NA,NA,NA,NA,NA,NA,NA,NA,NA,NA
NA,NA,NA,NA,NA,choice_trial,survey-html-form,51,372459,0.0-4.0-1.23,155,1,2025-05-04T16:37:30Z,b60275e29fe2361ab97ac0ac217840d7,"Mozilla/5.0 (Macintosh; Intel Mac OS X 10_15_7) AppleWebKit/605.1.15 (KHTML, like Gecko) Version/16.3 Safari/605.1.15",Macintosh,Safari,16.3,OS X,10_15_7,https://5puzkbbxv1.cognition.run/?sona_id=58033,"en-US,en;q=0.9",x436nq15n5a7p7f,19,"[""White""]",No,Female,NA,No,NA,11679,NA,"{""product_choice"":""B""}",choice,ctd,trinary,repulsion_B,1,washing machines,null,null,null,null,null,null,1,90,100,80,40,30,40,Average lifespan,Energy savings,NA,NA
NA,NA,NA,NA,NA,choice_trial_setup,html-keyboard-response,52,372763,0.0-4.0-0.24,155,1,2025-05-04T16:37:30Z,b60275e29fe2361ab97ac0ac217840d7,"Mozilla/5.0 (Macintosh; Intel Mac OS X 10_15_7) AppleWebKit/605.1.15 (KHTML, like Gecko) Version/16.3 Safari/605.1.15",Macintosh,Safari,16.3,OS X,10_15_7,https://5puzkbbxv1.cognition.run/?sona_id=58033,"en-US,en;q=0.9",x436nq15n5a7p7f,19,"[""White""]",No,Female,NA,No,NA,null,<p></p>,null,choice,tdc,trinary,repulsion_A,2,washing machines,null,null,null,null,null,null,2,NA,NA,NA,NA,NA,NA,NA,NA,NA,NA
NA,NA,NA,NA,NA,choice_trial,survey-html-form,53,377100,0.0-4.0-1.24,155,1,2025-05-04T16:37:30Z,b60275e29fe2361ab97ac0ac217840d7,"Mozilla/5.0 (Macintosh; Intel Mac OS X 10_15_7) AppleWebKit/605.1.15 (KHTML, like Gecko) Version/16.3 Safari/605.1.15",Macintosh,Safari,16.3,OS X,10_15_7,https://5puzkbbxv1.cognition.run/?sona_id=58033,"en-US,en;q=0.9",x436nq15n5a7p7f,19,"[""White""]",No,Female,NA,No,NA,4333,NA,"{""product_choice"":""A""}",choice,tdc,trinary,repulsion_A,2,washing machines,null,null,null,null,null,null,2,30,40,20,100,90,100,Average lifespan,Energy savings,NA,NA
NA,NA,NA,NA,NA,choice_trial_setup,html-keyboard-response,54,377404,0.0-4.0-0.25,155,1,2025-05-04T16:37:30Z,b60275e29fe2361ab97ac0ac217840d7,"Mozilla/5.0 (Macintosh; Intel Mac OS X 10_15_7) AppleWebKit/605.1.15 (KHTML, like Gecko) Version/16.3 Safari/605.1.15",Macintosh,Safari,16.3,OS X,10_15_7,https://5puzkbbxv1.cognition.run/?sona_id=58033,"en-US,en;q=0.9",x436nq15n5a7p7f,19,"[""White""]",No,Female,NA,No,NA,null,<p></p>,null,choice,wb,binary,catch,null,microwave ovens,80,70,5,30,null,null,2,NA,NA,NA,NA,NA,NA,NA,NA,NA,NA
NA,NA,NA,NA,NA,choice_trial,survey-html-form,55,380379,0.0-4.0-1.25,155,1,2025-05-04T16:37:30Z,b60275e29fe2361ab97ac0ac217840d7,"Mozilla/5.0 (Macintosh; Intel Mac OS X 10_15_7) AppleWebKit/605.1.15 (KHTML, like Gecko) Version/16.3 Safari/605.1.15",Macintosh,Safari,16.3,OS X,10_15_7,https://5puzkbbxv1.cognition.run/?sona_id=58033,"en-US,en;q=0.9",x436nq15n5a7p7f,19,"[""White""]",No,Female,NA,No,NA,2971,NA,"{""product_choice"":""B""}",choice,wb,binary,catch,null,microwave ovens,80,70,5,30,null,null,2,null,null,null,null,null,null,Warranty,Cooking power,NA,NA
NA,NA,NA,NA,NA,choice_trial_setup,html-keyboard-response,56,380682,0.0-4.0-0.26,155,1,2025-05-04T16:37:30Z,b60275e29fe2361ab97ac0ac217840d7,"Mozilla/5.0 (Macintosh; Intel Mac OS X 10_15_7) AppleWebKit/605.1.15 (KHTML, like Gecko) Version/16.3 Safari/605.1.15",Macintosh,Safari,16.3,OS X,10_15_7,https://5puzkbbxv1.cognition.run/?sona_id=58033,"en-US,en;q=0.9",x436nq15n5a7p7f,19,"[""White""]",No,Female,NA,No,NA,null,<p></p>,null,choice,dct,trinary,repulsion_B,1,microwave ovens,null,null,null,null,null,null,2,NA,NA,NA,NA,NA,NA,NA,NA,NA,NA
NA,NA,NA,NA,NA,choice_trial,survey-html-form,57,385659,0.0-4.0-1.26,155,1,2025-05-04T16:37:30Z,b60275e29fe2361ab97ac0ac217840d7,"Mozilla/5.0 (Macintosh; Intel Mac OS X 10_15_7) AppleWebKit/605.1.15 (KHTML, like Gecko) Version/16.3 Safari/605.1.15",Macintosh,Safari,16.3,OS X,10_15_7,https://5puzkbbxv1.cognition.run/?sona_id=58033,"en-US,en;q=0.9",x436nq15n5a7p7f,19,"[""White""]",No,Female,NA,No,NA,4972,NA,"{""product_choice"":""C""}",choice,dct,trinary,repulsion_B,1,microwave ovens,null,null,null,null,null,null,2,90,100,80,40,30,40,Warranty,Cooking power,NA,NA
NA,NA,NA,NA,NA,choice_trial_setup,html-keyboard-response,58,385963,0.0-4.0-0.27,155,1,2025-05-04T16:37:30Z,b60275e29fe2361ab97ac0ac217840d7,"Mozilla/5.0 (Macintosh; Intel Mac OS X 10_15_7) AppleWebKit/605.1.15 (KHTML, like Gecko) Version/16.3 Safari/605.1.15",Macintosh,Safari,16.3,OS X,10_15_7,https://5puzkbbxv1.cognition.run/?sona_id=58033,"en-US,en;q=0.9",x436nq15n5a7p7f,19,"[""White""]",No,Female,NA,No,NA,null,<p></p>,null,choice,tcd,trinary,repulsion_A,1,televisions,null,null,null,null,null,null,2,NA,NA,NA,NA,NA,NA,NA,NA,NA,NA
NA,NA,NA,NA,NA,choice_trial,survey-html-form,59,389693,0.0-4.0-1.27,155,1,2025-05-04T16:37:30Z,b60275e29fe2361ab97ac0ac217840d7,"Mozilla/5.0 (Macintosh; Intel Mac OS X 10_15_7) AppleWebKit/605.1.15 (KHTML, like Gecko) Version/16.3 Safari/605.1.15",Macintosh,Safari,16.3,OS X,10_15_7,https://5puzkbbxv1.cognition.run/?sona_id=58033,"en-US,en;q=0.9",x436nq15n5a7p7f,19,"[""White""]",No,Female,NA,No,NA,3726,NA,"{""product_choice"":""B""}",choice,tcd,trinary,repulsion_A,1,televisions,null,null,null,null,null,null,2,100,90,100,30,40,20,Screen size,Average lifespan,NA,NA
NA,NA,NA,NA,NA,choice_trial_setup,html-keyboard-response,60,389998,0.0-4.0-0.28,155,1,2025-05-04T16:37:30Z,b60275e29fe2361ab97ac0ac217840d7,"Mozilla/5.0 (Macintosh; Intel Mac OS X 10_15_7) AppleWebKit/605.1.15 (KHTML, like Gecko) Version/16.3 Safari/605.1.15",Macintosh,Safari,16.3,OS X,10_15_7,https://5puzkbbxv1.cognition.run/?sona_id=58033,"en-US,en;q=0.9",x436nq15n5a7p7f,19,"[""White""]",No,Female,NA,No,NA,null,<p></p>,null,choice,wbw,trinary,catch,null,microwave ovens,80,50,45,45,30,5,1,NA,NA,NA,NA,NA,NA,NA,NA,NA,NA
NA,NA,NA,NA,NA,choice_trial,survey-html-form,61,396498,0.0-4.0-1.28,155,1,2025-05-04T16:37:30Z,b60275e29fe2361ab97ac0ac217840d7,"Mozilla/5.0 (Macintosh; Intel Mac OS X 10_15_7) AppleWebKit/605.1.15 (KHTML, like Gecko) Version/16.3 Safari/605.1.15",Macintosh,Safari,16.3,OS X,10_15_7,https://5puzkbbxv1.cognition.run/?sona_id=58033,"en-US,en;q=0.9",x436nq15n5a7p7f,19,"[""White""]",No,Female,NA,No,NA,6495,NA,"{""product_choice"":""B""}",choice,wbw,trinary,catch,null,microwave ovens,80,50,45,45,30,5,1,null,null,null,null,null,null,Warranty,Cooking power,NA,NA
NA,NA,NA,NA,NA,choice_trial_setup,html-keyboard-response,62,396803,0.0-4.0-0.29,155,1,2025-05-04T16:37:30Z,b60275e29fe2361ab97ac0ac217840d7,"Mozilla/5.0 (Macintosh; Intel Mac OS X 10_15_7) AppleWebKit/605.1.15 (KHTML, like Gecko) Version/16.3 Safari/605.1.15",Macintosh,Safari,16.3,OS X,10_15_7,https://5puzkbbxv1.cognition.run/?sona_id=58033,"en-US,en;q=0.9",x436nq15n5a7p7f,19,"[""White""]",No,Female,NA,No,NA,null,<p></p>,null,choice,ctd,trinary,repulsion_A,2,laptops,null,null,null,null,null,null,1,NA,NA,NA,NA,NA,NA,NA,NA,NA,NA
NA,NA,NA,NA,NA,choice_trial,survey-html-form,63,407636,0.0-4.0-1.29,155,1,2025-05-04T16:37:30Z,b60275e29fe2361ab97ac0ac217840d7,"Mozilla/5.0 (Macintosh; Intel Mac OS X 10_15_7) AppleWebKit/605.1.15 (KHTML, like Gecko) Version/16.3 Safari/605.1.15",Macintosh,Safari,16.3,OS X,10_15_7,https://5puzkbbxv1.cognition.run/?sona_id=58033,"en-US,en;q=0.9",x436nq15n5a7p7f,19,"[""White""]",No,Female,NA,No,NA,10828,NA,"{""product_choice"":""A""}",choice,ctd,trinary,repulsion_A,2,laptops,null,null,null,null,null,null,1,30,40,20,100,90,100,Processing speed,Memory (RAM),NA,NA
NA,NA,NA,NA,NA,choice_trial_setup,html-keyboard-response,64,407940,0.0-4.0-0.30,155,1,2025-05-04T16:37:30Z,b60275e29fe2361ab97ac0ac217840d7,"Mozilla/5.0 (Macintosh; Intel Mac OS X 10_15_7) AppleWebKit/605.1.15 (KHTML, like Gecko) Version/16.3 Safari/605.1.15",Macintosh,Safari,16.3,OS X,10_15_7,https://5puzkbbxv1.cognition.run/?sona_id=58033,"en-US,en;q=0.9",x436nq15n5a7p7f,19,"[""White""]",No,Female,NA,No,NA,null,<p></p>,null,choice,tcd,trinary,attraction,2,televisions,null,null,null,null,null,null,1,NA,NA,NA,NA,NA,NA,NA,NA,NA,NA
NA,NA,NA,NA,NA,choice_trial,survey-html-form,65,415617,0.0-4.0-1.30,155,1,2025-05-04T16:37:30Z,b60275e29fe2361ab97ac0ac217840d7,"Mozilla/5.0 (Macintosh; Intel Mac OS X 10_15_7) AppleWebKit/605.1.15 (KHTML, like Gecko) Version/16.3 Safari/605.1.15",Macintosh,Safari,16.3,OS X,10_15_7,https://5puzkbbxv1.cognition.run/?sona_id=58033,"en-US,en;q=0.9",x436nq15n5a7p7f,19,"[""White""]",No,Female,NA,No,NA,7671,NA,"{""product_choice"":""A""}",choice,tcd,trinary,attraction,2,televisions,null,null,null,null,null,null,1,50,60,40,60,50,60,Screen size,Average lifespan,NA,NA
NA,NA,NA,NA,NA,choice_trial_setup,html-keyboard-response,66,415921,0.0-4.0-0.31,155,1,2025-05-04T16:37:30Z,b60275e29fe2361ab97ac0ac217840d7,"Mozilla/5.0 (Macintosh; Intel Mac OS X 10_15_7) AppleWebKit/605.1.15 (KHTML, like Gecko) Version/16.3 Safari/605.1.15",Macintosh,Safari,16.3,OS X,10_15_7,https://5puzkbbxv1.cognition.run/?sona_id=58033,"en-US,en;q=0.9",x436nq15n5a7p7f,19,"[""White""]",No,Female,NA,No,NA,null,<p></p>,null,choice,cdt,trinary,attraction,1,laptops,null,null,null,null,null,null,1,NA,NA,NA,NA,NA,NA,NA,NA,NA,NA
NA,NA,NA,NA,NA,choice_trial,survey-html-form,67,422947,0.0-4.0-1.31,155,1,2025-05-04T16:37:30Z,b60275e29fe2361ab97ac0ac217840d7,"Mozilla/5.0 (Macintosh; Intel Mac OS X 10_15_7) AppleWebKit/605.1.15 (KHTML, like Gecko) Version/16.3 Safari/605.1.15",Macintosh,Safari,16.3,OS X,10_15_7,https://5puzkbbxv1.cognition.run/?sona_id=58033,"en-US,en;q=0.9",x436nq15n5a7p7f,19,"[""White""]",No,Female,NA,No,NA,7022,NA,"{""product_choice"":""A""}",choice,cdt,trinary,attraction,1,laptops,null,null,null,null,null,null,1,60,50,60,50,60,40,Processing speed,Memory (RAM),NA,NA
NA,NA,NA,NA,NA,choice_trial_setup,html-keyboard-response,68,423251,0.0-4.0-0.32,155,1,2025-05-04T16:37:30Z,b60275e29fe2361ab97ac0ac217840d7,"Mozilla/5.0 (Macintosh; Intel Mac OS X 10_15_7) AppleWebKit/605.1.15 (KHTML, like Gecko) Version/16.3 Safari/605.1.15",Macintosh,Safari,16.3,OS X,10_15_7,https://5puzkbbxv1.cognition.run/?sona_id=58033,"en-US,en;q=0.9",x436nq15n5a7p7f,19,"[""White""]",No,Female,NA,No,NA,null,<p></p>,null,choice,dtc,trinary,repulsion_B,2,microwave ovens,null,null,null,null,null,null,2,NA,NA,NA,NA,NA,NA,NA,NA,NA,NA
NA,NA,NA,NA,NA,choice_trial,survey-html-form,69,432268,0.0-4.0-1.32,155,1,2025-05-04T16:37:30Z,b60275e29fe2361ab97ac0ac217840d7,"Mozilla/5.0 (Macintosh; Intel Mac OS X 10_15_7) AppleWebKit/605.1.15 (KHTML, like Gecko) Version/16.3 Safari/605.1.15",Macintosh,Safari,16.3,OS X,10_15_7,https://5puzkbbxv1.cognition.run/?sona_id=58033,"en-US,en;q=0.9",x436nq15n5a7p7f,19,"[""White""]",No,Female,NA,No,NA,9012,NA,"{""product_choice"":""B""}",choice,dtc,trinary,repulsion_B,2,microwave ovens,null,null,null,null,null,null,2,40,30,40,90,100,80,Warranty,Cooking power,NA,NA
NA,NA,NA,NA,NA,choice_trial_setup,html-keyboard-response,70,432572,0.0-4.0-0.33,155,1,2025-05-04T16:37:30Z,b60275e29fe2361ab97ac0ac217840d7,"Mozilla/5.0 (Macintosh; Intel Mac OS X 10_15_7) AppleWebKit/605.1.15 (KHTML, like Gecko) Version/16.3 Safari/605.1.15",Macintosh,Safari,16.3,OS X,10_15_7,https://5puzkbbxv1.cognition.run/?sona_id=58033,"en-US,en;q=0.9",x436nq15n5a7p7f,19,"[""White""]",No,Female,NA,No,NA,null,<p></p>,null,choice,dct,trinary,repulsion_B,2,televisions,null,null,null,null,null,null,1,NA,NA,NA,NA,NA,NA,NA,NA,NA,NA
NA,NA,NA,NA,NA,choice_trial,survey-html-form,71,438488,0.0-4.0-1.33,155,1,2025-05-04T16:37:30Z,b60275e29fe2361ab97ac0ac217840d7,"Mozilla/5.0 (Macintosh; Intel Mac OS X 10_15_7) AppleWebKit/605.1.15 (KHTML, like Gecko) Version/16.3 Safari/605.1.15",Macintosh,Safari,16.3,OS X,10_15_7,https://5puzkbbxv1.cognition.run/?sona_id=58033,"en-US,en;q=0.9",x436nq15n5a7p7f,19,"[""White""]",No,Female,NA,No,NA,5910,NA,"{""product_choice"":""C""}",choice,dct,trinary,repulsion_B,2,televisions,null,null,null,null,null,null,1,40,30,40,90,100,80,Screen size,Average lifespan,NA,NA
NA,NA,NA,NA,NA,choice_trial_setup,html-keyboard-response,72,438792,0.0-4.0-0.34,155,1,2025-05-04T16:37:30Z,b60275e29fe2361ab97ac0ac217840d7,"Mozilla/5.0 (Macintosh; Intel Mac OS X 10_15_7) AppleWebKit/605.1.15 (KHTML, like Gecko) Version/16.3 Safari/605.1.15",Macintosh,Safari,16.3,OS X,10_15_7,https://5puzkbbxv1.cognition.run/?sona_id=58033,"en-US,en;q=0.9",x436nq15n5a7p7f,19,"[""White""]",No,Female,NA,No,NA,null,<p></p>,null,choice,dct,trinary,attraction,2,washing machines,null,null,null,null,null,null,1,NA,NA,NA,NA,NA,NA,NA,NA,NA,NA
NA,NA,NA,NA,NA,choice_trial,survey-html-form,73,446732,0.0-4.0-1.34,155,1,2025-05-04T16:37:30Z,b60275e29fe2361ab97ac0ac217840d7,"Mozilla/5.0 (Macintosh; Intel Mac OS X 10_15_7) AppleWebKit/605.1.15 (KHTML, like Gecko) Version/16.3 Safari/605.1.15",Macintosh,Safari,16.3,OS X,10_15_7,https://5puzkbbxv1.cognition.run/?sona_id=58033,"en-US,en;q=0.9",x436nq15n5a7p7f,19,"[""White""]",No,Female,NA,No,NA,7934,NA,"{""product_choice"":""C""}",choice,dct,trinary,attraction,2,washing machines,null,null,null,null,null,null,1,50,60,40,60,50,60,Average lifespan,Energy savings,NA,NA
NA,NA,NA,NA,NA,choice_trial_setup,html-keyboard-response,74,447036,0.0-4.0-0.35,155,1,2025-05-04T16:37:30Z,b60275e29fe2361ab97ac0ac217840d7,"Mozilla/5.0 (Macintosh; Intel Mac OS X 10_15_7) AppleWebKit/605.1.15 (KHTML, like Gecko) Version/16.3 Safari/605.1.15",Macintosh,Safari,16.3,OS X,10_15_7,https://5puzkbbxv1.cognition.run/?sona_id=58033,"en-US,en;q=0.9",x436nq15n5a7p7f,19,"[""White""]",No,Female,NA,No,NA,null,<p></p>,null,choice,tc,binary,repulsion,1,microwave ovens,null,null,null,null,null,null,1,NA,NA,NA,NA,NA,NA,NA,NA,NA,NA
NA,NA,NA,NA,NA,choice_trial,survey-html-form,75,478055,0.0-4.0-1.35,155,1,2025-05-04T16:37:30Z,b60275e29fe2361ab97ac0ac217840d7,"Mozilla/5.0 (Macintosh; Intel Mac OS X 10_15_7) AppleWebKit/605.1.15 (KHTML, like Gecko) Version/16.3 Safari/605.1.15",Macintosh,Safari,16.3,OS X,10_15_7,https://5puzkbbxv1.cognition.run/?sona_id=58033,"en-US,en;q=0.9",x436nq15n5a7p7f,19,"[""White""]",No,Female,NA,No,NA,31014,NA,"{""product_choice"":""B""}",choice,tc,binary,repulsion,1,microwave ovens,null,null,null,null,null,null,1,100,90,null,30,40,null,Warranty,Cooking power,NA,NA
NA,NA,NA,NA,NA,choice_trial_setup,html-keyboard-response,76,478361,0.0-4.0-0.36,155,1,2025-05-04T16:37:30Z,b60275e29fe2361ab97ac0ac217840d7,"Mozilla/5.0 (Macintosh; Intel Mac OS X 10_15_7) AppleWebKit/605.1.15 (KHTML, like Gecko) Version/16.3 Safari/605.1.15",Macintosh,Safari,16.3,OS X,10_15_7,https://5puzkbbxv1.cognition.run/?sona_id=58033,"en-US,en;q=0.9",x436nq15n5a7p7f,19,"[""White""]",No,Female,NA,No,NA,null,<p></p>,null,choice,ctd,trinary,repulsion_B,1,televisions,null,null,null,null,null,null,1,NA,NA,NA,NA,NA,NA,NA,NA,NA,NA
NA,NA,NA,NA,NA,choice_trial,survey-html-form,77,483263,0.0-4.0-1.36,155,1,2025-05-04T16:37:30Z,b60275e29fe2361ab97ac0ac217840d7,"Mozilla/5.0 (Macintosh; Intel Mac OS X 10_15_7) AppleWebKit/605.1.15 (KHTML, like Gecko) Version/16.3 Safari/605.1.15",Macintosh,Safari,16.3,OS X,10_15_7,https://5puzkbbxv1.cognition.run/?sona_id=58033,"en-US,en;q=0.9",x436nq15n5a7p7f,19,"[""White""]",No,Female,NA,No,NA,4896,NA,"{""product_choice"":""B""}",choice,ctd,trinary,repulsion_B,1,televisions,null,null,null,null,null,null,1,90,100,80,40,30,40,Screen size,Average lifespan,NA,NA
NA,NA,NA,NA,NA,choice_trial_setup,html-keyboard-response,78,483567,0.0-4.0-0.37,155,1,2025-05-04T16:37:30Z,b60275e29fe2361ab97ac0ac217840d7,"Mozilla/5.0 (Macintosh; Intel Mac OS X 10_15_7) AppleWebKit/605.1.15 (KHTML, like Gecko) Version/16.3 Safari/605.1.15",Macintosh,Safari,16.3,OS X,10_15_7,https://5puzkbbxv1.cognition.run/?sona_id=58033,"en-US,en;q=0.9",x436nq15n5a7p7f,19,"[""White""]",No,Female,NA,No,NA,null,<p></p>,null,choice,ctd,trinary,attraction,2,laptops,null,null,null,null,null,null,2,NA,NA,NA,NA,NA,NA,NA,NA,NA,NA
NA,NA,NA,NA,NA,choice_trial,survey-html-form,79,490441,0.0-4.0-1.37,155,1,2025-05-04T16:37:30Z,b60275e29fe2361ab97ac0ac217840d7,"Mozilla/5.0 (Macintosh; Intel Mac OS X 10_15_7) AppleWebKit/605.1.15 (KHTML, like Gecko) Version/16.3 Safari/605.1.15",Macintosh,Safari,16.3,OS X,10_15_7,https://5puzkbbxv1.cognition.run/?sona_id=58033,"en-US,en;q=0.9",x436nq15n5a7p7f,19,"[""White""]",No,Female,NA,No,NA,6868,NA,"{""product_choice"":""A""}",choice,ctd,trinary,attraction,2,laptops,null,null,null,null,null,null,2,50,60,40,60,50,60,Processing speed,Memory (RAM),NA,NA
NA,NA,NA,NA,NA,choice_trial_setup,html-keyboard-response,80,490745,0.0-4.0-0.38,155,1,2025-05-04T16:37:30Z,b60275e29fe2361ab97ac0ac217840d7,"Mozilla/5.0 (Macintosh; Intel Mac OS X 10_15_7) AppleWebKit/605.1.15 (KHTML, like Gecko) Version/16.3 Safari/605.1.15",Macintosh,Safari,16.3,OS X,10_15_7,https://5puzkbbxv1.cognition.run/?sona_id=58033,"en-US,en;q=0.9",x436nq15n5a7p7f,19,"[""White""]",No,Female,NA,No,NA,null,<p></p>,null,choice,dtc,trinary,repulsion_B,2,laptops,null,null,null,null,null,null,1,NA,NA,NA,NA,NA,NA,NA,NA,NA,NA
NA,NA,NA,NA,NA,choice_trial,survey-html-form,81,498632,0.0-4.0-1.38,155,1,2025-05-04T16:37:30Z,b60275e29fe2361ab97ac0ac217840d7,"Mozilla/5.0 (Macintosh; Intel Mac OS X 10_15_7) AppleWebKit/605.1.15 (KHTML, like Gecko) Version/16.3 Safari/605.1.15",Macintosh,Safari,16.3,OS X,10_15_7,https://5puzkbbxv1.cognition.run/?sona_id=58033,"en-US,en;q=0.9",x436nq15n5a7p7f,19,"[""White""]",No,Female,NA,No,NA,7881,NA,"{""product_choice"":""B""}",choice,dtc,trinary,repulsion_B,2,laptops,null,null,null,null,null,null,1,40,30,40,90,100,80,Processing speed,Memory (RAM),NA,NA
NA,NA,NA,NA,NA,choice_trial_setup,html-keyboard-response,82,498936,0.0-4.0-0.39,155,1,2025-05-04T16:37:30Z,b60275e29fe2361ab97ac0ac217840d7,"Mozilla/5.0 (Macintosh; Intel Mac OS X 10_15_7) AppleWebKit/605.1.15 (KHTML, like Gecko) Version/16.3 Safari/605.1.15",Macintosh,Safari,16.3,OS X,10_15_7,https://5puzkbbxv1.cognition.run/?sona_id=58033,"en-US,en;q=0.9",x436nq15n5a7p7f,19,"[""White""]",No,Female,NA,No,NA,null,<p></p>,null,choice,wb,binary,catch,null,laptops,50,80,10,15,null,null,1,NA,NA,NA,NA,NA,NA,NA,NA,NA,NA
NA,NA,NA,NA,NA,choice_trial,survey-html-form,83,502145,0.0-4.0-1.39,155,1,2025-05-04T16:37:30Z,b60275e29fe2361ab97ac0ac217840d7,"Mozilla/5.0 (Macintosh; Intel Mac OS X 10_15_7) AppleWebKit/605.1.15 (KHTML, like Gecko) Version/16.3 Safari/605.1.15",Macintosh,Safari,16.3,OS X,10_15_7,https://5puzkbbxv1.cognition.run/?sona_id=58033,"en-US,en;q=0.9",x436nq15n5a7p7f,19,"[""White""]",No,Female,NA,No,NA,3203,NA,"{""product_choice"":""B""}",choice,wb,binary,catch,null,laptops,50,80,10,15,null,null,1,null,null,null,null,null,null,Processing speed,Memory (RAM),NA,NA
NA,NA,NA,NA,NA,choice_trial_setup,html-keyboard-response,84,502449,0.0-4.0-0.40,155,1,2025-05-04T16:37:30Z,b60275e29fe2361ab97ac0ac217840d7,"Mozilla/5.0 (Macintosh; Intel Mac OS X 10_15_7) AppleWebKit/605.1.15 (KHTML, like Gecko) Version/16.3 Safari/605.1.15",Macintosh,Safari,16.3,OS X,10_15_7,https://5puzkbbxv1.cognition.run/?sona_id=58033,"en-US,en;q=0.9",x436nq15n5a7p7f,19,"[""White""]",No,Female,NA,No,NA,null,<p></p>,null,choice,ct,binary,repulsion,2,microwave ovens,null,null,null,null,null,null,1,NA,NA,NA,NA,NA,NA,NA,NA,NA,NA
NA,NA,NA,NA,NA,choice_trial,survey-html-form,85,510474,0.0-4.0-1.40,155,1,2025-05-04T16:37:30Z,b60275e29fe2361ab97ac0ac217840d7,"Mozilla/5.0 (Macintosh; Intel Mac OS X 10_15_7) AppleWebKit/605.1.15 (KHTML, like Gecko) Version/16.3 Safari/605.1.15",Macintosh,Safari,16.3,OS X,10_15_7,https://5puzkbbxv1.cognition.run/?sona_id=58033,"en-US,en;q=0.9",x436nq15n5a7p7f,19,"[""White""]",No,Female,NA,No,NA,8018,NA,"{""product_choice"":""B""}",choice,ct,binary,repulsion,2,microwave ovens,null,null,null,null,null,null,1,30,40,null,100,90,null,Warranty,Cooking power,NA,NA
NA,NA,NA,NA,NA,choice_trial_setup,html-keyboard-response,86,510777,0.0-4.0-0.41,155,1,2025-05-04T16:37:30Z,b60275e29fe2361ab97ac0ac217840d7,"Mozilla/5.0 (Macintosh; Intel Mac OS X 10_15_7) AppleWebKit/605.1.15 (KHTML, like Gecko) Version/16.3 Safari/605.1.15",Macintosh,Safari,16.3,OS X,10_15_7,https://5puzkbbxv1.cognition.run/?sona_id=58033,"en-US,en;q=0.9",x436nq15n5a7p7f,19,"[""White""]",No,Female,NA,No,NA,null,<p></p>,null,choice,ct,binary,repulsion,1,televisions,null,null,null,null,null,null,1,NA,NA,NA,NA,NA,NA,NA,NA,NA,NA
NA,NA,NA,NA,NA,choice_trial,survey-html-form,87,515319,0.0-4.0-1.41,155,1,2025-05-04T16:37:30Z,b60275e29fe2361ab97ac0ac217840d7,"Mozilla/5.0 (Macintosh; Intel Mac OS X 10_15_7) AppleWebKit/605.1.15 (KHTML, like Gecko) Version/16.3 Safari/605.1.15",Macintosh,Safari,16.3,OS X,10_15_7,https://5puzkbbxv1.cognition.run/?sona_id=58033,"en-US,en;q=0.9",x436nq15n5a7p7f,19,"[""White""]",No,Female,NA,No,NA,4536,NA,"{""product_choice"":""A""}",choice,ct,binary,repulsion,1,televisions,null,null,null,null,null,null,1,100,90,null,30,40,null,Screen size,Average lifespan,NA,NA
NA,NA,NA,NA,NA,choice_trial_setup,html-keyboard-response,88,515627,0.0-4.0-0.42,155,1,2025-05-04T16:37:30Z,b60275e29fe2361ab97ac0ac217840d7,"Mozilla/5.0 (Macintosh; Intel Mac OS X 10_15_7) AppleWebKit/605.1.15 (KHTML, like Gecko) Version/16.3 Safari/605.1.15",Macintosh,Safari,16.3,OS X,10_15_7,https://5puzkbbxv1.cognition.run/?sona_id=58033,"en-US,en;q=0.9",x436nq15n5a7p7f,19,"[""White""]",No,Female,NA,No,NA,null,<p></p>,null,choice,ct,binary,repulsion,1,washing machines,null,null,null,null,null,null,1,NA,NA,NA,NA,NA,NA,NA,NA,NA,NA
NA,NA,NA,NA,NA,choice_trial,survey-html-form,89,522855,0.0-4.0-1.42,155,1,2025-05-04T16:37:30Z,b60275e29fe2361ab97ac0ac217840d7,"Mozilla/5.0 (Macintosh; Intel Mac OS X 10_15_7) AppleWebKit/605.1.15 (KHTML, like Gecko) Version/16.3 Safari/605.1.15",Macintosh,Safari,16.3,OS X,10_15_7,https://5puzkbbxv1.cognition.run/?sona_id=58033,"en-US,en;q=0.9",x436nq15n5a7p7f,19,"[""White""]",No,Female,NA,No,NA,7221,NA,"{""product_choice"":""A""}",choice,ct,binary,repulsion,1,washing machines,null,null,null,null,null,null,1,100,90,null,30,40,null,Average lifespan,Energy savings,NA,NA
NA,NA,NA,NA,NA,choice_trial_setup,html-keyboard-response,90,523160,0.0-4.0-0.43,155,1,2025-05-04T16:37:30Z,b60275e29fe2361ab97ac0ac217840d7,"Mozilla/5.0 (Macintosh; Intel Mac OS X 10_15_7) AppleWebKit/605.1.15 (KHTML, like Gecko) Version/16.3 Safari/605.1.15",Macintosh,Safari,16.3,OS X,10_15_7,https://5puzkbbxv1.cognition.run/?sona_id=58033,"en-US,en;q=0.9",x436nq15n5a7p7f,19,"[""White""]",No,Female,NA,No,NA,null,<p></p>,null,choice,tcd,trinary,attraction,1,televisions,null,null,null,null,null,null,1,NA,NA,NA,NA,NA,NA,NA,NA,NA,NA
NA,NA,NA,NA,NA,choice_trial,survey-html-form,91,532106,0.0-4.0-1.43,155,1,2025-05-04T16:37:30Z,b60275e29fe2361ab97ac0ac217840d7,"Mozilla/5.0 (Macintosh; Intel Mac OS X 10_15_7) AppleWebKit/605.1.15 (KHTML, like Gecko) Version/16.3 Safari/605.1.15",Macintosh,Safari,16.3,OS X,10_15_7,https://5puzkbbxv1.cognition.run/?sona_id=58033,"en-US,en;q=0.9",x436nq15n5a7p7f,19,"[""White""]",No,Female,NA,No,NA,8941,NA,"{""product_choice"":""B""}",choice,tcd,trinary,attraction,1,televisions,null,null,null,null,null,null,1,60,50,60,50,60,40,Screen size,Average lifespan,NA,NA
NA,NA,NA,NA,NA,post_trials_message,html-button-response,92,533485,0.0-5.0,155,1,2025-05-04T16:37:30Z,b60275e29fe2361ab97ac0ac217840d7,"Mozilla/5.0 (Macintosh; Intel Mac OS X 10_15_7) AppleWebKit/605.1.15 (KHTML, like Gecko) Version/16.3 Safari/605.1.15",Macintosh,Safari,16.3,OS X,10_15_7,https://5puzkbbxv1.cognition.run/?sona_id=58033,"en-US,en;q=0.9",x436nq15n5a7p7f,19,"[""White""]",No,Female,NA,No,NA,1375,<p> <b>Thank you for your patience!</b></p><p>  The study will be done after completing a brief form. </p>,0,NA,NA,NA,NA,NA,NA,NA,NA,NA,NA,NA,NA,NA,NA,NA,NA,NA,NA,NA,NA,NA,NA,NA
NA,NA,NA,NA,NA,survey_message,survey-text,93,575326,0.0-6.0,155,1,2025-05-04T16:37:30Z,b60275e29fe2361ab97ac0ac217840d7,"Mozilla/5.0 (Macintosh; Intel Mac OS X 10_15_7) AppleWebKit/605.1.15 (KHTML, like Gecko) Version/16.3 Safari/605.1.15",Macintosh,Safari,16.3,OS X,10_15_7,https://5puzkbbxv1.cognition.run/?sona_id=58033,"en-US,en;q=0.9",x436nq15n5a7p7f,19,"[""White""]",No,Female,NA,No,NA,41826,NA,"{""Q0"":""Energy savings were most important to be higher. In general, I just tried to pick the best overall option of the choices.""}",NA,NA,NA,NA,NA,NA,NA,NA,NA,NA,NA,NA,NA,NA,NA,NA,NA,NA,NA,NA,NA,"Energy savings were most important to be higher. In general, I just tried to pick the best overall option of the choices.",NA
NA,NA,NA,NA,NA,demo_age,survey-text,94,577937,0.0-7.0,155,1,2025-05-04T16:37:30Z,b60275e29fe2361ab97ac0ac217840d7,"Mozilla/5.0 (Macintosh; Intel Mac OS X 10_15_7) AppleWebKit/605.1.15 (KHTML, like Gecko) Version/16.3 Safari/605.1.15",Macintosh,Safari,16.3,OS X,10_15_7,https://5puzkbbxv1.cognition.run/?sona_id=58033,"en-US,en;q=0.9",x436nq15n5a7p7f,19,"[""White""]",No,Female,NA,No,NA,2604,NA,"{""Q0"":""19""}",NA,NA,NA,NA,NA,NA,NA,NA,NA,NA,NA,NA,NA,NA,NA,NA,NA,NA,NA,NA,NA,NA,NA
NA,NA,NA,NA,NA,demo_race,survey-multi-select,95,581095,0.0-8.0,155,1,2025-05-04T16:37:30Z,b60275e29fe2361ab97ac0ac217840d7,"Mozilla/5.0 (Macintosh; Intel Mac OS X 10_15_7) AppleWebKit/605.1.15 (KHTML, like Gecko) Version/16.3 Safari/605.1.15",Macintosh,Safari,16.3,OS X,10_15_7,https://5puzkbbxv1.cognition.run/?sona_id=58033,"en-US,en;q=0.9",x436nq15n5a7p7f,19,"[""White""]",No,Female,NA,No,NA,3153,NA,"{""Q0"":[""White""]}",NA,NA,NA,NA,NA,NA,NA,NA,NA,NA,NA,NA,NA,NA,NA,NA,NA,NA,NA,NA,NA,NA,[0]
NA,NA,NA,NA,NA,demo_ethnicity_gender,survey-multi-choice,96,585951,0.0-9.0,155,1,2025-05-04T16:37:30Z,b60275e29fe2361ab97ac0ac217840d7,"Mozilla/5.0 (Macintosh; Intel Mac OS X 10_15_7) AppleWebKit/605.1.15 (KHTML, like Gecko) Version/16.3 Safari/605.1.15",Macintosh,Safari,16.3,OS X,10_15_7,https://5puzkbbxv1.cognition.run/?sona_id=58033,"en-US,en;q=0.9",x436nq15n5a7p7f,19,"[""White""]",No,Female,NA,No,NA,4845,NA,"{""Q0"":""No"",""Q1"":""Female""}",NA,NA,NA,NA,NA,NA,NA,NA,NA,NA,NA,NA,NA,NA,NA,NA,NA,NA,NA,NA,NA,NA,"[0,1]"
NA,NA,NA,NA,NA,demo_countries,survey-text,97,591424,0.0-10.0,155,1,2025-05-04T16:37:30Z,b60275e29fe2361ab97ac0ac217840d7,"Mozilla/5.0 (Macintosh; Intel Mac OS X 10_15_7) AppleWebKit/605.1.15 (KHTML, like Gecko) Version/16.3 Safari/605.1.15",Macintosh,Safari,16.3,OS X,10_15_7,https://5puzkbbxv1.cognition.run/?sona_id=58033,"en-US,en;q=0.9",x436nq15n5a7p7f,19,"[""White""]",No,Female,NA,No,NA,5468,NA,"{""Q0"":""NA""}",NA,NA,NA,NA,NA,NA,NA,NA,NA,NA,NA,NA,NA,NA,NA,NA,NA,NA,NA,NA,NA,NA,NA
NA,NA,NA,NA,NA,demo_prev_study,survey-multi-choice,98,600641,0.0-11.0,155,1,2025-05-04T16:37:30Z,b60275e29fe2361ab97ac0ac217840d7,"Mozilla/5.0 (Macintosh; Intel Mac OS X 10_15_7) AppleWebKit/605.1.15 (KHTML, like Gecko) Version/16.3 Safari/605.1.15",Macintosh,Safari,16.3,OS X,10_15_7,https://5puzkbbxv1.cognition.run/?sona_id=58033,"en-US,en;q=0.9",x436nq15n5a7p7f,19,"[""White""]",No,Female,NA,No,NA,9212,NA,"{""Q0"":""No""}",NA,NA,NA,NA,NA,NA,NA,NA,NA,NA,NA,NA,NA,NA,NA,NA,NA,NA,NA,NA,NA,NA,[0]
NA,NA,NA,NA,NA,post_survey_message,html-keyboard-response,99,606427,0.0-12.0,155,1,2025-05-04T16:37:30Z,b60275e29fe2361ab97ac0ac217840d7,"Mozilla/5.0 (Macintosh; Intel Mac OS X 10_15_7) AppleWebKit/605.1.15 (KHTML, like Gecko) Version/16.3 Safari/605.1.15",Macintosh,Safari,16.3,OS X,10_15_7,https://5puzkbbxv1.cognition.run/?sona_id=58033,"en-US,en;q=0.9",x436nq15n5a7p7f,19,"[""White""]",No,Female,NA,No,NA,5781,NA,j,NA,NA,NA,NA,NA,NA,NA,NA,NA,NA,NA,NA,NA,NA,NA,NA,NA,NA,NA,NA,NA,NA,NA
