success,timeout,failed_images,failed_audio,failed_video,screen_id,trial_type,trial_index,time_elapsed,internal_node_id,run_id,condition,recorded_at,source_code_version,user_agent,device,browser,browser_version,platform,platform_version,referer,accept_language,ppt_id,age,race,ethnicity,gender,other_countries,prev_study,exp_duration,view_history,rt,stimulus,response,phase,order,set,effect,t_high,category,d1_best,d2_best,d1_worst1,d2_worst1,d1_worst2,d2_worst2,first_dim,d1_t,d1_c,d1_d,d2_t,d2_c,d2_d,d1_name,d2_name,strategy_response,question_order
TRUE,FALSE,[],[],[],img preload,preload,0,130,0.0-0.0,156,1,2025-05-04T17:31:26Z,b60275e29fe2361ab97ac0ac217840d7,"Mozilla/5.0 (Windows NT 10.0; Win64; x64) AppleWebKit/537.36 (KHTML, like Gecko) Chrome/135.0.0.0 Safari/537.36 Edg/135.0.0.0",WebKit,Edge,135.0.0.0,Windows,10,https://5puzkbbxv1.cognition.run/?sona_id=56193,"en-US,en;q=0.9",zpm5gxwo7mbc3zk,19,"[""White""]",No,Female,NA,No,387976.0999999941,NA,NA,NA,NA,NA,NA,NA,NA,NA,NA,NA,NA,NA,NA,NA,NA,NA,NA,NA,NA,NA,NA,NA,NA,NA,NA,NA
NA,NA,NA,NA,NA,computer_message,instructions,1,1815,0.0-1.0,156,1,2025-05-04T17:31:26Z,b60275e29fe2361ab97ac0ac217840d7,"Mozilla/5.0 (Windows NT 10.0; Win64; x64) AppleWebKit/537.36 (KHTML, like Gecko) Chrome/135.0.0.0 Safari/537.36 Edg/135.0.0.0",WebKit,Edge,135.0.0.0,Windows,10,https://5puzkbbxv1.cognition.run/?sona_id=56193,"en-US,en;q=0.9",zpm5gxwo7mbc3zk,19,"[""White""]",No,Female,NA,No,387976.0999999941,"[{""page_index"":0,""viewing_time"":1684}]",1684,NA,NA,NA,NA,NA,NA,NA,NA,NA,NA,NA,NA,NA,NA,NA,NA,NA,NA,NA,NA,NA,NA,NA,NA,NA
TRUE,NA,NA,NA,NA,NA,fullscreen,2,4389,0.0-2.0,156,1,2025-05-04T17:31:26Z,b60275e29fe2361ab97ac0ac217840d7,"Mozilla/5.0 (Windows NT 10.0; Win64; x64) AppleWebKit/537.36 (KHTML, like Gecko) Chrome/135.0.0.0 Safari/537.36 Edg/135.0.0.0",WebKit,Edge,135.0.0.0,Windows,10,https://5puzkbbxv1.cognition.run/?sona_id=56193,"en-US,en;q=0.9",zpm5gxwo7mbc3zk,19,"[""White""]",No,Female,NA,No,387976.0999999941,NA,1571,NA,NA,NA,NA,NA,NA,NA,NA,NA,NA,NA,NA,NA,NA,NA,NA,NA,NA,NA,NA,NA,NA,NA,NA,NA
NA,NA,NA,NA,NA,choice_instructions,instructions,3,47330,0.0-3.0,156,1,2025-05-04T17:31:26Z,b60275e29fe2361ab97ac0ac217840d7,"Mozilla/5.0 (Windows NT 10.0; Win64; x64) AppleWebKit/537.36 (KHTML, like Gecko) Chrome/135.0.0.0 Safari/537.36 Edg/135.0.0.0",WebKit,Edge,135.0.0.0,Windows,10,https://5puzkbbxv1.cognition.run/?sona_id=56193,"en-US,en;q=0.9",zpm5gxwo7mbc3zk,19,"[""White""]",No,Female,NA,No,387976.0999999941,"[{""page_index"":0,""viewing_time"":1959},{""page_index"":1,""viewing_time"":1778},{""page_index"":2,""viewing_time"":1776},{""page_index"":3,""viewing_time"":2385},{""page_index"":4,""viewing_time"":949},{""page_index"":5,""viewing_time"":33185},{""page_index"":6,""viewing_time"":907}]",42940,NA,NA,NA,NA,NA,NA,NA,NA,NA,NA,NA,NA,NA,NA,NA,NA,NA,NA,NA,NA,NA,NA,NA,NA,NA
NA,NA,NA,NA,NA,choice_trial_setup,html-keyboard-response,4,47633,0.0-4.0-0.0,156,1,2025-05-04T17:31:26Z,b60275e29fe2361ab97ac0ac217840d7,"Mozilla/5.0 (Windows NT 10.0; Win64; x64) AppleWebKit/537.36 (KHTML, like Gecko) Chrome/135.0.0.0 Safari/537.36 Edg/135.0.0.0",WebKit,Edge,135.0.0.0,Windows,10,https://5puzkbbxv1.cognition.run/?sona_id=56193,"en-US,en;q=0.9",zpm5gxwo7mbc3zk,19,"[""White""]",No,Female,NA,No,387976.0999999941,NA,null,<p></p>,null,choice,dct,trinary,repulsion_B,1,microwave ovens,null,null,null,null,null,null,1,NA,NA,NA,NA,NA,NA,NA,NA,NA,NA
NA,NA,NA,NA,NA,choice_trial,survey-html-form,5,52300,0.0-4.0-1.0,156,1,2025-05-04T17:31:26Z,b60275e29fe2361ab97ac0ac217840d7,"Mozilla/5.0 (Windows NT 10.0; Win64; x64) AppleWebKit/537.36 (KHTML, like Gecko) Chrome/135.0.0.0 Safari/537.36 Edg/135.0.0.0",WebKit,Edge,135.0.0.0,Windows,10,https://5puzkbbxv1.cognition.run/?sona_id=56193,"en-US,en;q=0.9",zpm5gxwo7mbc3zk,19,"[""White""]",No,Female,NA,No,387976.0999999941,NA,4664,NA,"{""product_choice"":""A""}",choice,dct,trinary,repulsion_B,1,microwave ovens,null,null,null,null,null,null,1,90,100,80,40,30,40,Warranty,Cooking power,NA,NA
NA,NA,NA,NA,NA,choice_trial_setup,html-keyboard-response,6,52612,0.0-4.0-0.1,156,1,2025-05-04T17:31:26Z,b60275e29fe2361ab97ac0ac217840d7,"Mozilla/5.0 (Windows NT 10.0; Win64; x64) AppleWebKit/537.36 (KHTML, like Gecko) Chrome/135.0.0.0 Safari/537.36 Edg/135.0.0.0",WebKit,Edge,135.0.0.0,Windows,10,https://5puzkbbxv1.cognition.run/?sona_id=56193,"en-US,en;q=0.9",zpm5gxwo7mbc3zk,19,"[""White""]",No,Female,NA,No,387976.0999999941,NA,null,<p></p>,null,choice,wb,binary,catch,null,washing machines,60,65,50,25,null,null,2,NA,NA,NA,NA,NA,NA,NA,NA,NA,NA
NA,NA,NA,NA,NA,choice_trial,survey-html-form,7,55830,0.0-4.0-1.1,156,1,2025-05-04T17:31:26Z,b60275e29fe2361ab97ac0ac217840d7,"Mozilla/5.0 (Windows NT 10.0; Win64; x64) AppleWebKit/537.36 (KHTML, like Gecko) Chrome/135.0.0.0 Safari/537.36 Edg/135.0.0.0",WebKit,Edge,135.0.0.0,Windows,10,https://5puzkbbxv1.cognition.run/?sona_id=56193,"en-US,en;q=0.9",zpm5gxwo7mbc3zk,19,"[""White""]",No,Female,NA,No,387976.0999999941,NA,3215,NA,"{""product_choice"":""B""}",choice,wb,binary,catch,null,washing machines,60,65,50,25,null,null,2,null,null,null,null,null,null,Average lifespan,Energy savings,NA,NA
NA,NA,NA,NA,NA,choice_trial_setup,html-keyboard-response,8,56148,0.0-4.0-0.2,156,1,2025-05-04T17:31:26Z,b60275e29fe2361ab97ac0ac217840d7,"Mozilla/5.0 (Windows NT 10.0; Win64; x64) AppleWebKit/537.36 (KHTML, like Gecko) Chrome/135.0.0.0 Safari/537.36 Edg/135.0.0.0",WebKit,Edge,135.0.0.0,Windows,10,https://5puzkbbxv1.cognition.run/?sona_id=56193,"en-US,en;q=0.9",zpm5gxwo7mbc3zk,19,"[""White""]",No,Female,NA,No,387976.0999999941,NA,null,<p></p>,null,choice,ct,binary,repulsion,2,televisions,null,null,null,null,null,null,2,NA,NA,NA,NA,NA,NA,NA,NA,NA,NA
NA,NA,NA,NA,NA,choice_trial,survey-html-form,9,58240,0.0-4.0-1.2,156,1,2025-05-04T17:31:26Z,b60275e29fe2361ab97ac0ac217840d7,"Mozilla/5.0 (Windows NT 10.0; Win64; x64) AppleWebKit/537.36 (KHTML, like Gecko) Chrome/135.0.0.0 Safari/537.36 Edg/135.0.0.0",WebKit,Edge,135.0.0.0,Windows,10,https://5puzkbbxv1.cognition.run/?sona_id=56193,"en-US,en;q=0.9",zpm5gxwo7mbc3zk,19,"[""White""]",No,Female,NA,No,387976.0999999941,NA,2090,NA,"{""product_choice"":""A""}",choice,ct,binary,repulsion,2,televisions,null,null,null,null,null,null,2,30,40,null,100,90,null,Screen size,Average lifespan,NA,NA
NA,NA,NA,NA,NA,choice_trial_setup,html-keyboard-response,10,58544,0.0-4.0-0.3,156,1,2025-05-04T17:31:26Z,b60275e29fe2361ab97ac0ac217840d7,"Mozilla/5.0 (Windows NT 10.0; Win64; x64) AppleWebKit/537.36 (KHTML, like Gecko) Chrome/135.0.0.0 Safari/537.36 Edg/135.0.0.0",WebKit,Edge,135.0.0.0,Windows,10,https://5puzkbbxv1.cognition.run/?sona_id=56193,"en-US,en;q=0.9",zpm5gxwo7mbc3zk,19,"[""White""]",No,Female,NA,No,387976.0999999941,NA,null,<p></p>,null,choice,bw,binary,catch,null,microwave ovens,55,75,5,10,null,null,1,NA,NA,NA,NA,NA,NA,NA,NA,NA,NA
NA,NA,NA,NA,NA,choice_trial,survey-html-form,11,61355,0.0-4.0-1.3,156,1,2025-05-04T17:31:26Z,b60275e29fe2361ab97ac0ac217840d7,"Mozilla/5.0 (Windows NT 10.0; Win64; x64) AppleWebKit/537.36 (KHTML, like Gecko) Chrome/135.0.0.0 Safari/537.36 Edg/135.0.0.0",WebKit,Edge,135.0.0.0,Windows,10,https://5puzkbbxv1.cognition.run/?sona_id=56193,"en-US,en;q=0.9",zpm5gxwo7mbc3zk,19,"[""White""]",No,Female,NA,No,387976.0999999941,NA,2809,NA,"{""product_choice"":""A""}",choice,bw,binary,catch,null,microwave ovens,55,75,5,10,null,null,1,null,null,null,null,null,null,Warranty,Cooking power,NA,NA
NA,NA,NA,NA,NA,choice_trial_setup,html-keyboard-response,12,61671,0.0-4.0-0.4,156,1,2025-05-04T17:31:26Z,b60275e29fe2361ab97ac0ac217840d7,"Mozilla/5.0 (Windows NT 10.0; Win64; x64) AppleWebKit/537.36 (KHTML, like Gecko) Chrome/135.0.0.0 Safari/537.36 Edg/135.0.0.0",WebKit,Edge,135.0.0.0,Windows,10,https://5puzkbbxv1.cognition.run/?sona_id=56193,"en-US,en;q=0.9",zpm5gxwo7mbc3zk,19,"[""White""]",No,Female,NA,No,387976.0999999941,NA,null,<p></p>,null,choice,ct,binary,repulsion,2,microwave ovens,null,null,null,null,null,null,1,NA,NA,NA,NA,NA,NA,NA,NA,NA,NA
NA,NA,NA,NA,NA,choice_trial,survey-html-form,13,64962,0.0-4.0-1.4,156,1,2025-05-04T17:31:26Z,b60275e29fe2361ab97ac0ac217840d7,"Mozilla/5.0 (Windows NT 10.0; Win64; x64) AppleWebKit/537.36 (KHTML, like Gecko) Chrome/135.0.0.0 Safari/537.36 Edg/135.0.0.0",WebKit,Edge,135.0.0.0,Windows,10,https://5puzkbbxv1.cognition.run/?sona_id=56193,"en-US,en;q=0.9",zpm5gxwo7mbc3zk,19,"[""White""]",No,Female,NA,No,387976.0999999941,NA,3289,NA,"{""product_choice"":""A""}",choice,ct,binary,repulsion,2,microwave ovens,null,null,null,null,null,null,1,30,40,null,100,90,null,Warranty,Cooking power,NA,NA
NA,NA,NA,NA,NA,choice_trial_setup,html-keyboard-response,14,65275,0.0-4.0-0.5,156,1,2025-05-04T17:31:26Z,b60275e29fe2361ab97ac0ac217840d7,"Mozilla/5.0 (Windows NT 10.0; Win64; x64) AppleWebKit/537.36 (KHTML, like Gecko) Chrome/135.0.0.0 Safari/537.36 Edg/135.0.0.0",WebKit,Edge,135.0.0.0,Windows,10,https://5puzkbbxv1.cognition.run/?sona_id=56193,"en-US,en;q=0.9",zpm5gxwo7mbc3zk,19,"[""White""]",No,Female,NA,No,387976.0999999941,NA,null,<p></p>,null,choice,tdc,trinary,repulsion_A,1,televisions,null,null,null,null,null,null,1,NA,NA,NA,NA,NA,NA,NA,NA,NA,NA
NA,NA,NA,NA,NA,choice_trial,survey-html-form,15,67908,0.0-4.0-1.5,156,1,2025-05-04T17:31:26Z,b60275e29fe2361ab97ac0ac217840d7,"Mozilla/5.0 (Windows NT 10.0; Win64; x64) AppleWebKit/537.36 (KHTML, like Gecko) Chrome/135.0.0.0 Safari/537.36 Edg/135.0.0.0",WebKit,Edge,135.0.0.0,Windows,10,https://5puzkbbxv1.cognition.run/?sona_id=56193,"en-US,en;q=0.9",zpm5gxwo7mbc3zk,19,"[""White""]",No,Female,NA,No,387976.0999999941,NA,2631,NA,"{""product_choice"":""A""}",choice,tdc,trinary,repulsion_A,1,televisions,null,null,null,null,null,null,1,100,90,100,30,40,20,Screen size,Average lifespan,NA,NA
NA,NA,NA,NA,NA,choice_trial_setup,html-keyboard-response,16,68225,0.0-4.0-0.6,156,1,2025-05-04T17:31:26Z,b60275e29fe2361ab97ac0ac217840d7,"Mozilla/5.0 (Windows NT 10.0; Win64; x64) AppleWebKit/537.36 (KHTML, like Gecko) Chrome/135.0.0.0 Safari/537.36 Edg/135.0.0.0",WebKit,Edge,135.0.0.0,Windows,10,https://5puzkbbxv1.cognition.run/?sona_id=56193,"en-US,en;q=0.9",zpm5gxwo7mbc3zk,19,"[""White""]",No,Female,NA,No,387976.0999999941,NA,null,<p></p>,null,choice,dtc,trinary,attraction,1,microwave ovens,null,null,null,null,null,null,2,NA,NA,NA,NA,NA,NA,NA,NA,NA,NA
NA,NA,NA,NA,NA,choice_trial,survey-html-form,17,70839,0.0-4.0-1.6,156,1,2025-05-04T17:31:26Z,b60275e29fe2361ab97ac0ac217840d7,"Mozilla/5.0 (Windows NT 10.0; Win64; x64) AppleWebKit/537.36 (KHTML, like Gecko) Chrome/135.0.0.0 Safari/537.36 Edg/135.0.0.0",WebKit,Edge,135.0.0.0,Windows,10,https://5puzkbbxv1.cognition.run/?sona_id=56193,"en-US,en;q=0.9",zpm5gxwo7mbc3zk,19,"[""White""]",No,Female,NA,No,387976.0999999941,NA,2611,NA,"{""product_choice"":""B""}",choice,dtc,trinary,attraction,1,microwave ovens,null,null,null,null,null,null,2,60,50,60,50,60,40,Warranty,Cooking power,NA,NA
NA,NA,NA,NA,NA,choice_trial_setup,html-keyboard-response,18,71154,0.0-4.0-0.7,156,1,2025-05-04T17:31:26Z,b60275e29fe2361ab97ac0ac217840d7,"Mozilla/5.0 (Windows NT 10.0; Win64; x64) AppleWebKit/537.36 (KHTML, like Gecko) Chrome/135.0.0.0 Safari/537.36 Edg/135.0.0.0",WebKit,Edge,135.0.0.0,Windows,10,https://5puzkbbxv1.cognition.run/?sona_id=56193,"en-US,en;q=0.9",zpm5gxwo7mbc3zk,19,"[""White""]",No,Female,NA,No,387976.0999999941,NA,null,<p></p>,null,choice,dct,trinary,attraction,2,microwave ovens,null,null,null,null,null,null,1,NA,NA,NA,NA,NA,NA,NA,NA,NA,NA
NA,NA,NA,NA,NA,choice_trial,survey-html-form,19,73660,0.0-4.0-1.7,156,1,2025-05-04T17:31:26Z,b60275e29fe2361ab97ac0ac217840d7,"Mozilla/5.0 (Windows NT 10.0; Win64; x64) AppleWebKit/537.36 (KHTML, like Gecko) Chrome/135.0.0.0 Safari/537.36 Edg/135.0.0.0",WebKit,Edge,135.0.0.0,Windows,10,https://5puzkbbxv1.cognition.run/?sona_id=56193,"en-US,en;q=0.9",zpm5gxwo7mbc3zk,19,"[""White""]",No,Female,NA,No,387976.0999999941,NA,2503,NA,"{""product_choice"":""B""}",choice,dct,trinary,attraction,2,microwave ovens,null,null,null,null,null,null,1,50,60,40,60,50,60,Warranty,Cooking power,NA,NA
NA,NA,NA,NA,NA,choice_trial_setup,html-keyboard-response,20,73970,0.0-4.0-0.8,156,1,2025-05-04T17:31:26Z,b60275e29fe2361ab97ac0ac217840d7,"Mozilla/5.0 (Windows NT 10.0; Win64; x64) AppleWebKit/537.36 (KHTML, like Gecko) Chrome/135.0.0.0 Safari/537.36 Edg/135.0.0.0",WebKit,Edge,135.0.0.0,Windows,10,https://5puzkbbxv1.cognition.run/?sona_id=56193,"en-US,en;q=0.9",zpm5gxwo7mbc3zk,19,"[""White""]",No,Female,NA,No,387976.0999999941,NA,null,<p></p>,null,choice,ctd,trinary,repulsion_A,2,televisions,null,null,null,null,null,null,1,NA,NA,NA,NA,NA,NA,NA,NA,NA,NA
NA,NA,NA,NA,NA,choice_trial,survey-html-form,21,78184,0.0-4.0-1.8,156,1,2025-05-04T17:31:26Z,b60275e29fe2361ab97ac0ac217840d7,"Mozilla/5.0 (Windows NT 10.0; Win64; x64) AppleWebKit/537.36 (KHTML, like Gecko) Chrome/135.0.0.0 Safari/537.36 Edg/135.0.0.0",WebKit,Edge,135.0.0.0,Windows,10,https://5puzkbbxv1.cognition.run/?sona_id=56193,"en-US,en;q=0.9",zpm5gxwo7mbc3zk,19,"[""White""]",No,Female,NA,No,387976.0999999941,NA,4212,NA,"{""product_choice"":""A""}",choice,ctd,trinary,repulsion_A,2,televisions,null,null,null,null,null,null,1,30,40,20,100,90,100,Screen size,Average lifespan,NA,NA
NA,NA,NA,NA,NA,choice_trial_setup,html-keyboard-response,22,78500,0.0-4.0-0.9,156,1,2025-05-04T17:31:26Z,b60275e29fe2361ab97ac0ac217840d7,"Mozilla/5.0 (Windows NT 10.0; Win64; x64) AppleWebKit/537.36 (KHTML, like Gecko) Chrome/135.0.0.0 Safari/537.36 Edg/135.0.0.0",WebKit,Edge,135.0.0.0,Windows,10,https://5puzkbbxv1.cognition.run/?sona_id=56193,"en-US,en;q=0.9",zpm5gxwo7mbc3zk,19,"[""White""]",No,Female,NA,No,387976.0999999941,NA,null,<p></p>,null,choice,ct,binary,repulsion,1,laptops,null,null,null,null,null,null,1,NA,NA,NA,NA,NA,NA,NA,NA,NA,NA
NA,NA,NA,NA,NA,choice_trial,survey-html-form,23,82745,0.0-4.0-1.9,156,1,2025-05-04T17:31:26Z,b60275e29fe2361ab97ac0ac217840d7,"Mozilla/5.0 (Windows NT 10.0; Win64; x64) AppleWebKit/537.36 (KHTML, like Gecko) Chrome/135.0.0.0 Safari/537.36 Edg/135.0.0.0",WebKit,Edge,135.0.0.0,Windows,10,https://5puzkbbxv1.cognition.run/?sona_id=56193,"en-US,en;q=0.9",zpm5gxwo7mbc3zk,19,"[""White""]",No,Female,NA,No,387976.0999999941,NA,4242,NA,"{""product_choice"":""A""}",choice,ct,binary,repulsion,1,laptops,null,null,null,null,null,null,1,100,90,null,30,40,null,Processing speed,Memory (RAM),NA,NA
NA,NA,NA,NA,NA,choice_trial_setup,html-keyboard-response,24,83051,0.0-4.0-0.10,156,1,2025-05-04T17:31:26Z,b60275e29fe2361ab97ac0ac217840d7,"Mozilla/5.0 (Windows NT 10.0; Win64; x64) AppleWebKit/537.36 (KHTML, like Gecko) Chrome/135.0.0.0 Safari/537.36 Edg/135.0.0.0",WebKit,Edge,135.0.0.0,Windows,10,https://5puzkbbxv1.cognition.run/?sona_id=56193,"en-US,en;q=0.9",zpm5gxwo7mbc3zk,19,"[""White""]",No,Female,NA,No,387976.0999999941,NA,null,<p></p>,null,choice,cdt,trinary,attraction,1,televisions,null,null,null,null,null,null,1,NA,NA,NA,NA,NA,NA,NA,NA,NA,NA
NA,NA,NA,NA,NA,choice_trial,survey-html-form,25,85749,0.0-4.0-1.10,156,1,2025-05-04T17:31:26Z,b60275e29fe2361ab97ac0ac217840d7,"Mozilla/5.0 (Windows NT 10.0; Win64; x64) AppleWebKit/537.36 (KHTML, like Gecko) Chrome/135.0.0.0 Safari/537.36 Edg/135.0.0.0",WebKit,Edge,135.0.0.0,Windows,10,https://5puzkbbxv1.cognition.run/?sona_id=56193,"en-US,en;q=0.9",zpm5gxwo7mbc3zk,19,"[""White""]",No,Female,NA,No,387976.0999999941,NA,2695,NA,"{""product_choice"":""A""}",choice,cdt,trinary,attraction,1,televisions,null,null,null,null,null,null,1,60,50,60,50,60,40,Screen size,Average lifespan,NA,NA
NA,NA,NA,NA,NA,choice_trial_setup,html-keyboard-response,26,86059,0.0-4.0-0.11,156,1,2025-05-04T17:31:26Z,b60275e29fe2361ab97ac0ac217840d7,"Mozilla/5.0 (Windows NT 10.0; Win64; x64) AppleWebKit/537.36 (KHTML, like Gecko) Chrome/135.0.0.0 Safari/537.36 Edg/135.0.0.0",WebKit,Edge,135.0.0.0,Windows,10,https://5puzkbbxv1.cognition.run/?sona_id=56193,"en-US,en;q=0.9",zpm5gxwo7mbc3zk,19,"[""White""]",No,Female,NA,No,387976.0999999941,NA,null,<p></p>,null,choice,ct,binary,attraction,NA,laptops,null,null,null,null,null,null,1,NA,NA,NA,NA,NA,NA,NA,NA,NA,NA
NA,NA,NA,NA,NA,choice_trial,survey-html-form,27,88143,0.0-4.0-1.11,156,1,2025-05-04T17:31:26Z,b60275e29fe2361ab97ac0ac217840d7,"Mozilla/5.0 (Windows NT 10.0; Win64; x64) AppleWebKit/537.36 (KHTML, like Gecko) Chrome/135.0.0.0 Safari/537.36 Edg/135.0.0.0",WebKit,Edge,135.0.0.0,Windows,10,https://5puzkbbxv1.cognition.run/?sona_id=56193,"en-US,en;q=0.9",zpm5gxwo7mbc3zk,19,"[""White""]",No,Female,NA,No,387976.0999999941,NA,2082,NA,"{""product_choice"":""A""}",choice,ct,binary,attraction,NA,laptops,null,null,null,null,null,null,1,60,50,null,50,60,null,Processing speed,Memory (RAM),NA,NA
NA,NA,NA,NA,NA,choice_trial_setup,html-keyboard-response,28,88454,0.0-4.0-0.12,156,1,2025-05-04T17:31:26Z,b60275e29fe2361ab97ac0ac217840d7,"Mozilla/5.0 (Windows NT 10.0; Win64; x64) AppleWebKit/537.36 (KHTML, like Gecko) Chrome/135.0.0.0 Safari/537.36 Edg/135.0.0.0",WebKit,Edge,135.0.0.0,Windows,10,https://5puzkbbxv1.cognition.run/?sona_id=56193,"en-US,en;q=0.9",zpm5gxwo7mbc3zk,19,"[""White""]",No,Female,NA,No,387976.0999999941,NA,null,<p></p>,null,choice,dct,trinary,repulsion_A,2,microwave ovens,null,null,null,null,null,null,2,NA,NA,NA,NA,NA,NA,NA,NA,NA,NA
NA,NA,NA,NA,NA,choice_trial,survey-html-form,29,90913,0.0-4.0-1.12,156,1,2025-05-04T17:31:26Z,b60275e29fe2361ab97ac0ac217840d7,"Mozilla/5.0 (Windows NT 10.0; Win64; x64) AppleWebKit/537.36 (KHTML, like Gecko) Chrome/135.0.0.0 Safari/537.36 Edg/135.0.0.0",WebKit,Edge,135.0.0.0,Windows,10,https://5puzkbbxv1.cognition.run/?sona_id=56193,"en-US,en;q=0.9",zpm5gxwo7mbc3zk,19,"[""White""]",No,Female,NA,No,387976.0999999941,NA,2456,NA,"{""product_choice"":""B""}",choice,dct,trinary,repulsion_A,2,microwave ovens,null,null,null,null,null,null,2,30,40,20,100,90,100,Warranty,Cooking power,NA,NA
NA,NA,NA,NA,NA,choice_trial_setup,html-keyboard-response,30,91218,0.0-4.0-0.13,156,1,2025-05-04T17:31:26Z,b60275e29fe2361ab97ac0ac217840d7,"Mozilla/5.0 (Windows NT 10.0; Win64; x64) AppleWebKit/537.36 (KHTML, like Gecko) Chrome/135.0.0.0 Safari/537.36 Edg/135.0.0.0",WebKit,Edge,135.0.0.0,Windows,10,https://5puzkbbxv1.cognition.run/?sona_id=56193,"en-US,en;q=0.9",zpm5gxwo7mbc3zk,19,"[""White""]",No,Female,NA,No,387976.0999999941,NA,null,<p></p>,null,choice,cdt,trinary,repulsion_B,1,washing machines,null,null,null,null,null,null,1,NA,NA,NA,NA,NA,NA,NA,NA,NA,NA
NA,NA,NA,NA,NA,choice_trial,survey-html-form,31,93045,0.0-4.0-1.13,156,1,2025-05-04T17:31:26Z,b60275e29fe2361ab97ac0ac217840d7,"Mozilla/5.0 (Windows NT 10.0; Win64; x64) AppleWebKit/537.36 (KHTML, like Gecko) Chrome/135.0.0.0 Safari/537.36 Edg/135.0.0.0",WebKit,Edge,135.0.0.0,Windows,10,https://5puzkbbxv1.cognition.run/?sona_id=56193,"en-US,en;q=0.9",zpm5gxwo7mbc3zk,19,"[""White""]",No,Female,NA,No,387976.0999999941,NA,1823,NA,"{""product_choice"":""B""}",choice,cdt,trinary,repulsion_B,1,washing machines,null,null,null,null,null,null,1,90,100,80,40,30,40,Average lifespan,Energy savings,NA,NA
NA,NA,NA,NA,NA,choice_trial_setup,html-keyboard-response,32,93349,0.0-4.0-0.14,156,1,2025-05-04T17:31:26Z,b60275e29fe2361ab97ac0ac217840d7,"Mozilla/5.0 (Windows NT 10.0; Win64; x64) AppleWebKit/537.36 (KHTML, like Gecko) Chrome/135.0.0.0 Safari/537.36 Edg/135.0.0.0",WebKit,Edge,135.0.0.0,Windows,10,https://5puzkbbxv1.cognition.run/?sona_id=56193,"en-US,en;q=0.9",zpm5gxwo7mbc3zk,19,"[""White""]",No,Female,NA,No,387976.0999999941,NA,null,<p></p>,null,choice,wwb,trinary,catch,null,televisions,95,90,40,40,5,10,2,NA,NA,NA,NA,NA,NA,NA,NA,NA,NA
NA,NA,NA,NA,NA,choice_trial,survey-html-form,33,96283,0.0-4.0-1.14,156,1,2025-05-04T17:31:26Z,b60275e29fe2361ab97ac0ac217840d7,"Mozilla/5.0 (Windows NT 10.0; Win64; x64) AppleWebKit/537.36 (KHTML, like Gecko) Chrome/135.0.0.0 Safari/537.36 Edg/135.0.0.0",WebKit,Edge,135.0.0.0,Windows,10,https://5puzkbbxv1.cognition.run/?sona_id=56193,"en-US,en;q=0.9",zpm5gxwo7mbc3zk,19,"[""White""]",No,Female,NA,No,387976.0999999941,NA,2931,NA,"{""product_choice"":""C""}",choice,wwb,trinary,catch,null,televisions,95,90,40,40,5,10,2,null,null,null,null,null,null,Screen size,Average lifespan,NA,NA
NA,NA,NA,NA,NA,choice_trial_setup,html-keyboard-response,34,96587,0.0-4.0-0.15,156,1,2025-05-04T17:31:26Z,b60275e29fe2361ab97ac0ac217840d7,"Mozilla/5.0 (Windows NT 10.0; Win64; x64) AppleWebKit/537.36 (KHTML, like Gecko) Chrome/135.0.0.0 Safari/537.36 Edg/135.0.0.0",WebKit,Edge,135.0.0.0,Windows,10,https://5puzkbbxv1.cognition.run/?sona_id=56193,"en-US,en;q=0.9",zpm5gxwo7mbc3zk,19,"[""White""]",No,Female,NA,No,387976.0999999941,NA,null,<p></p>,null,choice,ct,binary,repulsion,1,televisions,null,null,null,null,null,null,2,NA,NA,NA,NA,NA,NA,NA,NA,NA,NA
NA,NA,NA,NA,NA,choice_trial,survey-html-form,35,99953,0.0-4.0-1.15,156,1,2025-05-04T17:31:26Z,b60275e29fe2361ab97ac0ac217840d7,"Mozilla/5.0 (Windows NT 10.0; Win64; x64) AppleWebKit/537.36 (KHTML, like Gecko) Chrome/135.0.0.0 Safari/537.36 Edg/135.0.0.0",WebKit,Edge,135.0.0.0,Windows,10,https://5puzkbbxv1.cognition.run/?sona_id=56193,"en-US,en;q=0.9",zpm5gxwo7mbc3zk,19,"[""White""]",No,Female,NA,No,387976.0999999941,NA,3363,NA,"{""product_choice"":""A""}",choice,ct,binary,repulsion,1,televisions,null,null,null,null,null,null,2,100,90,null,30,40,null,Screen size,Average lifespan,NA,NA
NA,NA,NA,NA,NA,choice_trial_setup,html-keyboard-response,36,100262,0.0-4.0-0.16,156,1,2025-05-04T17:31:26Z,b60275e29fe2361ab97ac0ac217840d7,"Mozilla/5.0 (Windows NT 10.0; Win64; x64) AppleWebKit/537.36 (KHTML, like Gecko) Chrome/135.0.0.0 Safari/537.36 Edg/135.0.0.0",WebKit,Edge,135.0.0.0,Windows,10,https://5puzkbbxv1.cognition.run/?sona_id=56193,"en-US,en;q=0.9",zpm5gxwo7mbc3zk,19,"[""White""]",No,Female,NA,No,387976.0999999941,NA,null,<p></p>,null,choice,tc,binary,repulsion,1,microwave ovens,null,null,null,null,null,null,2,NA,NA,NA,NA,NA,NA,NA,NA,NA,NA
NA,NA,NA,NA,NA,choice_trial,survey-html-form,37,113129,0.0-4.0-1.16,156,1,2025-05-04T17:31:26Z,b60275e29fe2361ab97ac0ac217840d7,"Mozilla/5.0 (Windows NT 10.0; Win64; x64) AppleWebKit/537.36 (KHTML, like Gecko) Chrome/135.0.0.0 Safari/537.36 Edg/135.0.0.0",WebKit,Edge,135.0.0.0,Windows,10,https://5puzkbbxv1.cognition.run/?sona_id=56193,"en-US,en;q=0.9",zpm5gxwo7mbc3zk,19,"[""White""]",No,Female,NA,No,387976.0999999941,NA,12864,NA,"{""product_choice"":""B""}",choice,tc,binary,repulsion,1,microwave ovens,null,null,null,null,null,null,2,100,90,null,30,40,null,Warranty,Cooking power,NA,NA
NA,NA,NA,NA,NA,choice_trial_setup,html-keyboard-response,38,113436,0.0-4.0-0.17,156,1,2025-05-04T17:31:26Z,b60275e29fe2361ab97ac0ac217840d7,"Mozilla/5.0 (Windows NT 10.0; Win64; x64) AppleWebKit/537.36 (KHTML, like Gecko) Chrome/135.0.0.0 Safari/537.36 Edg/135.0.0.0",WebKit,Edge,135.0.0.0,Windows,10,https://5puzkbbxv1.cognition.run/?sona_id=56193,"en-US,en;q=0.9",zpm5gxwo7mbc3zk,19,"[""White""]",No,Female,NA,No,387976.0999999941,NA,null,<p></p>,null,choice,ct,binary,repulsion,1,washing machines,null,null,null,null,null,null,2,NA,NA,NA,NA,NA,NA,NA,NA,NA,NA
NA,NA,NA,NA,NA,choice_trial,survey-html-form,39,117612,0.0-4.0-1.17,156,1,2025-05-04T17:31:26Z,b60275e29fe2361ab97ac0ac217840d7,"Mozilla/5.0 (Windows NT 10.0; Win64; x64) AppleWebKit/537.36 (KHTML, like Gecko) Chrome/135.0.0.0 Safari/537.36 Edg/135.0.0.0",WebKit,Edge,135.0.0.0,Windows,10,https://5puzkbbxv1.cognition.run/?sona_id=56193,"en-US,en;q=0.9",zpm5gxwo7mbc3zk,19,"[""White""]",No,Female,NA,No,387976.0999999941,NA,4173,NA,"{""product_choice"":""A""}",choice,ct,binary,repulsion,1,washing machines,null,null,null,null,null,null,2,100,90,null,30,40,null,Average lifespan,Energy savings,NA,NA
NA,NA,NA,NA,NA,choice_trial_setup,html-keyboard-response,40,117931,0.0-4.0-0.18,156,1,2025-05-04T17:31:26Z,b60275e29fe2361ab97ac0ac217840d7,"Mozilla/5.0 (Windows NT 10.0; Win64; x64) AppleWebKit/537.36 (KHTML, like Gecko) Chrome/135.0.0.0 Safari/537.36 Edg/135.0.0.0",WebKit,Edge,135.0.0.0,Windows,10,https://5puzkbbxv1.cognition.run/?sona_id=56193,"en-US,en;q=0.9",zpm5gxwo7mbc3zk,19,"[""White""]",No,Female,NA,No,387976.0999999941,NA,null,<p></p>,null,choice,ctd,trinary,repulsion_B,2,televisions,null,null,null,null,null,null,2,NA,NA,NA,NA,NA,NA,NA,NA,NA,NA
NA,NA,NA,NA,NA,choice_trial,survey-html-form,41,122297,0.0-4.0-1.18,156,1,2025-05-04T17:31:26Z,b60275e29fe2361ab97ac0ac217840d7,"Mozilla/5.0 (Windows NT 10.0; Win64; x64) AppleWebKit/537.36 (KHTML, like Gecko) Chrome/135.0.0.0 Safari/537.36 Edg/135.0.0.0",WebKit,Edge,135.0.0.0,Windows,10,https://5puzkbbxv1.cognition.run/?sona_id=56193,"en-US,en;q=0.9",zpm5gxwo7mbc3zk,19,"[""White""]",No,Female,NA,No,387976.0999999941,NA,4363,NA,"{""product_choice"":""B""}",choice,ctd,trinary,repulsion_B,2,televisions,null,null,null,null,null,null,2,40,30,40,90,100,80,Screen size,Average lifespan,NA,NA
NA,NA,NA,NA,NA,choice_trial_setup,html-keyboard-response,42,122614,0.0-4.0-0.19,156,1,2025-05-04T17:31:26Z,b60275e29fe2361ab97ac0ac217840d7,"Mozilla/5.0 (Windows NT 10.0; Win64; x64) AppleWebKit/537.36 (KHTML, like Gecko) Chrome/135.0.0.0 Safari/537.36 Edg/135.0.0.0",WebKit,Edge,135.0.0.0,Windows,10,https://5puzkbbxv1.cognition.run/?sona_id=56193,"en-US,en;q=0.9",zpm5gxwo7mbc3zk,19,"[""White""]",No,Female,NA,No,387976.0999999941,NA,null,<p></p>,null,choice,bww,trinary,catch,null,washing machines,60,55,10,15,25,40,1,NA,NA,NA,NA,NA,NA,NA,NA,NA,NA
NA,NA,NA,NA,NA,choice_trial,survey-html-form,43,127013,0.0-4.0-1.19,156,1,2025-05-04T17:31:26Z,b60275e29fe2361ab97ac0ac217840d7,"Mozilla/5.0 (Windows NT 10.0; Win64; x64) AppleWebKit/537.36 (KHTML, like Gecko) Chrome/135.0.0.0 Safari/537.36 Edg/135.0.0.0",WebKit,Edge,135.0.0.0,Windows,10,https://5puzkbbxv1.cognition.run/?sona_id=56193,"en-US,en;q=0.9",zpm5gxwo7mbc3zk,19,"[""White""]",No,Female,NA,No,387976.0999999941,NA,4397,NA,"{""product_choice"":""A""}",choice,bww,trinary,catch,null,washing machines,60,55,10,15,25,40,1,null,null,null,null,null,null,Average lifespan,Energy savings,NA,NA
NA,NA,NA,NA,NA,choice_trial_setup,html-keyboard-response,44,127316,0.0-4.0-0.20,156,1,2025-05-04T17:31:26Z,b60275e29fe2361ab97ac0ac217840d7,"Mozilla/5.0 (Windows NT 10.0; Win64; x64) AppleWebKit/537.36 (KHTML, like Gecko) Chrome/135.0.0.0 Safari/537.36 Edg/135.0.0.0",WebKit,Edge,135.0.0.0,Windows,10,https://5puzkbbxv1.cognition.run/?sona_id=56193,"en-US,en;q=0.9",zpm5gxwo7mbc3zk,19,"[""White""]",No,Female,NA,No,387976.0999999941,NA,null,<p></p>,null,choice,tdc,trinary,repulsion_B,1,televisions,null,null,null,null,null,null,1,NA,NA,NA,NA,NA,NA,NA,NA,NA,NA
NA,NA,NA,NA,NA,choice_trial,survey-html-form,45,131545,0.0-4.0-1.20,156,1,2025-05-04T17:31:26Z,b60275e29fe2361ab97ac0ac217840d7,"Mozilla/5.0 (Windows NT 10.0; Win64; x64) AppleWebKit/537.36 (KHTML, like Gecko) Chrome/135.0.0.0 Safari/537.36 Edg/135.0.0.0",WebKit,Edge,135.0.0.0,Windows,10,https://5puzkbbxv1.cognition.run/?sona_id=56193,"en-US,en;q=0.9",zpm5gxwo7mbc3zk,19,"[""White""]",No,Female,NA,No,387976.0999999941,NA,4226,NA,"{""product_choice"":""A""}",choice,tdc,trinary,repulsion_B,1,televisions,null,null,null,null,null,null,1,90,100,80,40,30,40,Screen size,Average lifespan,NA,NA
NA,NA,NA,NA,NA,choice_trial_setup,html-keyboard-response,46,131851,0.0-4.0-0.21,156,1,2025-05-04T17:31:26Z,b60275e29fe2361ab97ac0ac217840d7,"Mozilla/5.0 (Windows NT 10.0; Win64; x64) AppleWebKit/537.36 (KHTML, like Gecko) Chrome/135.0.0.0 Safari/537.36 Edg/135.0.0.0",WebKit,Edge,135.0.0.0,Windows,10,https://5puzkbbxv1.cognition.run/?sona_id=56193,"en-US,en;q=0.9",zpm5gxwo7mbc3zk,19,"[""White""]",No,Female,NA,No,387976.0999999941,NA,null,<p></p>,null,choice,tcd,trinary,repulsion_B,1,laptops,null,null,null,null,null,null,2,NA,NA,NA,NA,NA,NA,NA,NA,NA,NA
NA,NA,NA,NA,NA,choice_trial,survey-html-form,47,139238,0.0-4.0-1.21,156,1,2025-05-04T17:31:26Z,b60275e29fe2361ab97ac0ac217840d7,"Mozilla/5.0 (Windows NT 10.0; Win64; x64) AppleWebKit/537.36 (KHTML, like Gecko) Chrome/135.0.0.0 Safari/537.36 Edg/135.0.0.0",WebKit,Edge,135.0.0.0,Windows,10,https://5puzkbbxv1.cognition.run/?sona_id=56193,"en-US,en;q=0.9",zpm5gxwo7mbc3zk,19,"[""White""]",No,Female,NA,No,387976.0999999941,NA,7384,NA,"{""product_choice"":""A""}",choice,tcd,trinary,repulsion_B,1,laptops,null,null,null,null,null,null,2,90,100,80,40,30,40,Processing speed,Memory (RAM),NA,NA
NA,NA,NA,NA,NA,choice_trial_setup,html-keyboard-response,48,139548,0.0-4.0-0.22,156,1,2025-05-04T17:31:26Z,b60275e29fe2361ab97ac0ac217840d7,"Mozilla/5.0 (Windows NT 10.0; Win64; x64) AppleWebKit/537.36 (KHTML, like Gecko) Chrome/135.0.0.0 Safari/537.36 Edg/135.0.0.0",WebKit,Edge,135.0.0.0,Windows,10,https://5puzkbbxv1.cognition.run/?sona_id=56193,"en-US,en;q=0.9",zpm5gxwo7mbc3zk,19,"[""White""]",No,Female,NA,No,387976.0999999941,NA,null,<p></p>,null,choice,ctd,trinary,attraction,1,laptops,null,null,null,null,null,null,2,NA,NA,NA,NA,NA,NA,NA,NA,NA,NA
NA,NA,NA,NA,NA,choice_trial,survey-html-form,49,157512,0.0-4.0-1.22,156,1,2025-05-04T17:31:26Z,b60275e29fe2361ab97ac0ac217840d7,"Mozilla/5.0 (Windows NT 10.0; Win64; x64) AppleWebKit/537.36 (KHTML, like Gecko) Chrome/135.0.0.0 Safari/537.36 Edg/135.0.0.0",WebKit,Edge,135.0.0.0,Windows,10,https://5puzkbbxv1.cognition.run/?sona_id=56193,"en-US,en;q=0.9",zpm5gxwo7mbc3zk,19,"[""White""]",No,Female,NA,No,387976.0999999941,NA,17961,NA,"{""product_choice"":""A""}",choice,ctd,trinary,attraction,1,laptops,null,null,null,null,null,null,2,60,50,60,50,60,40,Processing speed,Memory (RAM),NA,NA
NA,NA,NA,NA,NA,choice_trial_setup,html-keyboard-response,50,157821,0.0-4.0-0.23,156,1,2025-05-04T17:31:26Z,b60275e29fe2361ab97ac0ac217840d7,"Mozilla/5.0 (Windows NT 10.0; Win64; x64) AppleWebKit/537.36 (KHTML, like Gecko) Chrome/135.0.0.0 Safari/537.36 Edg/135.0.0.0",WebKit,Edge,135.0.0.0,Windows,10,https://5puzkbbxv1.cognition.run/?sona_id=56193,"en-US,en;q=0.9",zpm5gxwo7mbc3zk,19,"[""White""]",No,Female,NA,No,387976.0999999941,NA,null,<p></p>,null,choice,wbw,trinary,catch,null,microwave ovens,75,95,20,25,30,35,2,NA,NA,NA,NA,NA,NA,NA,NA,NA,NA
NA,NA,NA,NA,NA,choice_trial,survey-html-form,51,160289,0.0-4.0-1.23,156,1,2025-05-04T17:31:26Z,b60275e29fe2361ab97ac0ac217840d7,"Mozilla/5.0 (Windows NT 10.0; Win64; x64) AppleWebKit/537.36 (KHTML, like Gecko) Chrome/135.0.0.0 Safari/537.36 Edg/135.0.0.0",WebKit,Edge,135.0.0.0,Windows,10,https://5puzkbbxv1.cognition.run/?sona_id=56193,"en-US,en;q=0.9",zpm5gxwo7mbc3zk,19,"[""White""]",No,Female,NA,No,387976.0999999941,NA,2465,NA,"{""product_choice"":""B""}",choice,wbw,trinary,catch,null,microwave ovens,75,95,20,25,30,35,2,null,null,null,null,null,null,Warranty,Cooking power,NA,NA
NA,NA,NA,NA,NA,choice_trial_setup,html-keyboard-response,52,160604,0.0-4.0-0.24,156,1,2025-05-04T17:31:26Z,b60275e29fe2361ab97ac0ac217840d7,"Mozilla/5.0 (Windows NT 10.0; Win64; x64) AppleWebKit/537.36 (KHTML, like Gecko) Chrome/135.0.0.0 Safari/537.36 Edg/135.0.0.0",WebKit,Edge,135.0.0.0,Windows,10,https://5puzkbbxv1.cognition.run/?sona_id=56193,"en-US,en;q=0.9",zpm5gxwo7mbc3zk,19,"[""White""]",No,Female,NA,No,387976.0999999941,NA,null,<p></p>,null,choice,ctd,trinary,repulsion_A,2,laptops,null,null,null,null,null,null,2,NA,NA,NA,NA,NA,NA,NA,NA,NA,NA
NA,NA,NA,NA,NA,choice_trial,survey-html-form,53,165226,0.0-4.0-1.24,156,1,2025-05-04T17:31:26Z,b60275e29fe2361ab97ac0ac217840d7,"Mozilla/5.0 (Windows NT 10.0; Win64; x64) AppleWebKit/537.36 (KHTML, like Gecko) Chrome/135.0.0.0 Safari/537.36 Edg/135.0.0.0",WebKit,Edge,135.0.0.0,Windows,10,https://5puzkbbxv1.cognition.run/?sona_id=56193,"en-US,en;q=0.9",zpm5gxwo7mbc3zk,19,"[""White""]",No,Female,NA,No,387976.0999999941,NA,4619,NA,"{""product_choice"":""A""}",choice,ctd,trinary,repulsion_A,2,laptops,null,null,null,null,null,null,2,30,40,20,100,90,100,Processing speed,Memory (RAM),NA,NA
NA,NA,NA,NA,NA,choice_trial_setup,html-keyboard-response,54,165529,0.0-4.0-0.25,156,1,2025-05-04T17:31:26Z,b60275e29fe2361ab97ac0ac217840d7,"Mozilla/5.0 (Windows NT 10.0; Win64; x64) AppleWebKit/537.36 (KHTML, like Gecko) Chrome/135.0.0.0 Safari/537.36 Edg/135.0.0.0",WebKit,Edge,135.0.0.0,Windows,10,https://5puzkbbxv1.cognition.run/?sona_id=56193,"en-US,en;q=0.9",zpm5gxwo7mbc3zk,19,"[""White""]",No,Female,NA,No,387976.0999999941,NA,null,<p></p>,null,choice,dct,trinary,repulsion_B,2,laptops,null,null,null,null,null,null,1,NA,NA,NA,NA,NA,NA,NA,NA,NA,NA
NA,NA,NA,NA,NA,choice_trial,survey-html-form,55,168487,0.0-4.0-1.25,156,1,2025-05-04T17:31:26Z,b60275e29fe2361ab97ac0ac217840d7,"Mozilla/5.0 (Windows NT 10.0; Win64; x64) AppleWebKit/537.36 (KHTML, like Gecko) Chrome/135.0.0.0 Safari/537.36 Edg/135.0.0.0",WebKit,Edge,135.0.0.0,Windows,10,https://5puzkbbxv1.cognition.run/?sona_id=56193,"en-US,en;q=0.9",zpm5gxwo7mbc3zk,19,"[""White""]",No,Female,NA,No,387976.0999999941,NA,2955,NA,"{""product_choice"":""A""}",choice,dct,trinary,repulsion_B,2,laptops,null,null,null,null,null,null,1,40,30,40,90,100,80,Processing speed,Memory (RAM),NA,NA
NA,NA,NA,NA,NA,choice_trial_setup,html-keyboard-response,56,168793,0.0-4.0-0.26,156,1,2025-05-04T17:31:26Z,b60275e29fe2361ab97ac0ac217840d7,"Mozilla/5.0 (Windows NT 10.0; Win64; x64) AppleWebKit/537.36 (KHTML, like Gecko) Chrome/135.0.0.0 Safari/537.36 Edg/135.0.0.0",WebKit,Edge,135.0.0.0,Windows,10,https://5puzkbbxv1.cognition.run/?sona_id=56193,"en-US,en;q=0.9",zpm5gxwo7mbc3zk,19,"[""White""]",No,Female,NA,No,387976.0999999941,NA,null,<p></p>,null,choice,ct,binary,attraction,NA,televisions,null,null,null,null,null,null,1,NA,NA,NA,NA,NA,NA,NA,NA,NA,NA
NA,NA,NA,NA,NA,choice_trial,survey-html-form,57,170904,0.0-4.0-1.26,156,1,2025-05-04T17:31:26Z,b60275e29fe2361ab97ac0ac217840d7,"Mozilla/5.0 (Windows NT 10.0; Win64; x64) AppleWebKit/537.36 (KHTML, like Gecko) Chrome/135.0.0.0 Safari/537.36 Edg/135.0.0.0",WebKit,Edge,135.0.0.0,Windows,10,https://5puzkbbxv1.cognition.run/?sona_id=56193,"en-US,en;q=0.9",zpm5gxwo7mbc3zk,19,"[""White""]",No,Female,NA,No,387976.0999999941,NA,2108,NA,"{""product_choice"":""A""}",choice,ct,binary,attraction,NA,televisions,null,null,null,null,null,null,1,60,50,null,50,60,null,Screen size,Average lifespan,NA,NA
NA,NA,NA,NA,NA,choice_trial_setup,html-keyboard-response,58,171220,0.0-4.0-0.27,156,1,2025-05-04T17:31:26Z,b60275e29fe2361ab97ac0ac217840d7,"Mozilla/5.0 (Windows NT 10.0; Win64; x64) AppleWebKit/537.36 (KHTML, like Gecko) Chrome/135.0.0.0 Safari/537.36 Edg/135.0.0.0",WebKit,Edge,135.0.0.0,Windows,10,https://5puzkbbxv1.cognition.run/?sona_id=56193,"en-US,en;q=0.9",zpm5gxwo7mbc3zk,19,"[""White""]",No,Female,NA,No,387976.0999999941,NA,null,<p></p>,null,choice,ctd,trinary,repulsion_B,2,washing machines,null,null,null,null,null,null,1,NA,NA,NA,NA,NA,NA,NA,NA,NA,NA
NA,NA,NA,NA,NA,choice_trial,survey-html-form,59,174277,0.0-4.0-1.27,156,1,2025-05-04T17:31:26Z,b60275e29fe2361ab97ac0ac217840d7,"Mozilla/5.0 (Windows NT 10.0; Win64; x64) AppleWebKit/537.36 (KHTML, like Gecko) Chrome/135.0.0.0 Safari/537.36 Edg/135.0.0.0",WebKit,Edge,135.0.0.0,Windows,10,https://5puzkbbxv1.cognition.run/?sona_id=56193,"en-US,en;q=0.9",zpm5gxwo7mbc3zk,19,"[""White""]",No,Female,NA,No,387976.0999999941,NA,3052,NA,"{""product_choice"":""B""}",choice,ctd,trinary,repulsion_B,2,washing machines,null,null,null,null,null,null,1,40,30,40,90,100,80,Average lifespan,Energy savings,NA,NA
NA,NA,NA,NA,NA,choice_trial_setup,html-keyboard-response,60,174588,0.0-4.0-0.28,156,1,2025-05-04T17:31:26Z,b60275e29fe2361ab97ac0ac217840d7,"Mozilla/5.0 (Windows NT 10.0; Win64; x64) AppleWebKit/537.36 (KHTML, like Gecko) Chrome/135.0.0.0 Safari/537.36 Edg/135.0.0.0",WebKit,Edge,135.0.0.0,Windows,10,https://5puzkbbxv1.cognition.run/?sona_id=56193,"en-US,en;q=0.9",zpm5gxwo7mbc3zk,19,"[""White""]",No,Female,NA,No,387976.0999999941,NA,null,<p></p>,null,choice,cdt,trinary,attraction,1,washing machines,null,null,null,null,null,null,2,NA,NA,NA,NA,NA,NA,NA,NA,NA,NA
NA,NA,NA,NA,NA,choice_trial,survey-html-form,61,177821,0.0-4.0-1.28,156,1,2025-05-04T17:31:26Z,b60275e29fe2361ab97ac0ac217840d7,"Mozilla/5.0 (Windows NT 10.0; Win64; x64) AppleWebKit/537.36 (KHTML, like Gecko) Chrome/135.0.0.0 Safari/537.36 Edg/135.0.0.0",WebKit,Edge,135.0.0.0,Windows,10,https://5puzkbbxv1.cognition.run/?sona_id=56193,"en-US,en;q=0.9",zpm5gxwo7mbc3zk,19,"[""White""]",No,Female,NA,No,387976.0999999941,NA,3230,NA,"{""product_choice"":""B""}",choice,cdt,trinary,attraction,1,washing machines,null,null,null,null,null,null,2,60,50,60,50,60,40,Average lifespan,Energy savings,NA,NA
NA,NA,NA,NA,NA,choice_trial_setup,html-keyboard-response,62,178131,0.0-4.0-0.29,156,1,2025-05-04T17:31:26Z,b60275e29fe2361ab97ac0ac217840d7,"Mozilla/5.0 (Windows NT 10.0; Win64; x64) AppleWebKit/537.36 (KHTML, like Gecko) Chrome/135.0.0.0 Safari/537.36 Edg/135.0.0.0",WebKit,Edge,135.0.0.0,Windows,10,https://5puzkbbxv1.cognition.run/?sona_id=56193,"en-US,en;q=0.9",zpm5gxwo7mbc3zk,19,"[""White""]",No,Female,NA,No,387976.0999999941,NA,null,<p></p>,null,choice,ct,binary,repulsion,2,laptops,null,null,null,null,null,null,2,NA,NA,NA,NA,NA,NA,NA,NA,NA,NA
NA,NA,NA,NA,NA,choice_trial,survey-html-form,63,182109,0.0-4.0-1.29,156,1,2025-05-04T17:31:26Z,b60275e29fe2361ab97ac0ac217840d7,"Mozilla/5.0 (Windows NT 10.0; Win64; x64) AppleWebKit/537.36 (KHTML, like Gecko) Chrome/135.0.0.0 Safari/537.36 Edg/135.0.0.0",WebKit,Edge,135.0.0.0,Windows,10,https://5puzkbbxv1.cognition.run/?sona_id=56193,"en-US,en;q=0.9",zpm5gxwo7mbc3zk,19,"[""White""]",No,Female,NA,No,387976.0999999941,NA,3976,NA,"{""product_choice"":""A""}",choice,ct,binary,repulsion,2,laptops,null,null,null,null,null,null,2,30,40,null,100,90,null,Processing speed,Memory (RAM),NA,NA
NA,NA,NA,NA,NA,choice_trial_setup,html-keyboard-response,64,182425,0.0-4.0-0.30,156,1,2025-05-04T17:31:26Z,b60275e29fe2361ab97ac0ac217840d7,"Mozilla/5.0 (Windows NT 10.0; Win64; x64) AppleWebKit/537.36 (KHTML, like Gecko) Chrome/135.0.0.0 Safari/537.36 Edg/135.0.0.0",WebKit,Edge,135.0.0.0,Windows,10,https://5puzkbbxv1.cognition.run/?sona_id=56193,"en-US,en;q=0.9",zpm5gxwo7mbc3zk,19,"[""White""]",No,Female,NA,No,387976.0999999941,NA,null,<p></p>,null,choice,ct,binary,repulsion,2,washing machines,null,null,null,null,null,null,2,NA,NA,NA,NA,NA,NA,NA,NA,NA,NA
NA,NA,NA,NA,NA,choice_trial,survey-html-form,65,185001,0.0-4.0-1.30,156,1,2025-05-04T17:31:26Z,b60275e29fe2361ab97ac0ac217840d7,"Mozilla/5.0 (Windows NT 10.0; Win64; x64) AppleWebKit/537.36 (KHTML, like Gecko) Chrome/135.0.0.0 Safari/537.36 Edg/135.0.0.0",WebKit,Edge,135.0.0.0,Windows,10,https://5puzkbbxv1.cognition.run/?sona_id=56193,"en-US,en;q=0.9",zpm5gxwo7mbc3zk,19,"[""White""]",No,Female,NA,No,387976.0999999941,NA,2571,NA,"{""product_choice"":""A""}",choice,ct,binary,repulsion,2,washing machines,null,null,null,null,null,null,2,30,40,null,100,90,null,Average lifespan,Energy savings,NA,NA
NA,NA,NA,NA,NA,choice_trial_setup,html-keyboard-response,66,185306,0.0-4.0-0.31,156,1,2025-05-04T17:31:26Z,b60275e29fe2361ab97ac0ac217840d7,"Mozilla/5.0 (Windows NT 10.0; Win64; x64) AppleWebKit/537.36 (KHTML, like Gecko) Chrome/135.0.0.0 Safari/537.36 Edg/135.0.0.0",WebKit,Edge,135.0.0.0,Windows,10,https://5puzkbbxv1.cognition.run/?sona_id=56193,"en-US,en;q=0.9",zpm5gxwo7mbc3zk,19,"[""White""]",No,Female,NA,No,387976.0999999941,NA,null,<p></p>,null,choice,tdc,trinary,repulsion_A,1,laptops,null,null,null,null,null,null,1,NA,NA,NA,NA,NA,NA,NA,NA,NA,NA
NA,NA,NA,NA,NA,choice_trial,survey-html-form,67,188798,0.0-4.0-1.31,156,1,2025-05-04T17:31:26Z,b60275e29fe2361ab97ac0ac217840d7,"Mozilla/5.0 (Windows NT 10.0; Win64; x64) AppleWebKit/537.36 (KHTML, like Gecko) Chrome/135.0.0.0 Safari/537.36 Edg/135.0.0.0",WebKit,Edge,135.0.0.0,Windows,10,https://5puzkbbxv1.cognition.run/?sona_id=56193,"en-US,en;q=0.9",zpm5gxwo7mbc3zk,19,"[""White""]",No,Female,NA,No,387976.0999999941,NA,3489,NA,"{""product_choice"":""C""}",choice,tdc,trinary,repulsion_A,1,laptops,null,null,null,null,null,null,1,100,90,100,30,40,20,Processing speed,Memory (RAM),NA,NA
NA,NA,NA,NA,NA,choice_trial_setup,html-keyboard-response,68,189103,0.0-4.0-0.32,156,1,2025-05-04T17:31:26Z,b60275e29fe2361ab97ac0ac217840d7,"Mozilla/5.0 (Windows NT 10.0; Win64; x64) AppleWebKit/537.36 (KHTML, like Gecko) Chrome/135.0.0.0 Safari/537.36 Edg/135.0.0.0",WebKit,Edge,135.0.0.0,Windows,10,https://5puzkbbxv1.cognition.run/?sona_id=56193,"en-US,en;q=0.9",zpm5gxwo7mbc3zk,19,"[""White""]",No,Female,NA,No,387976.0999999941,NA,null,<p></p>,null,choice,cdt,trinary,attraction,2,laptops,null,null,null,null,null,null,1,NA,NA,NA,NA,NA,NA,NA,NA,NA,NA
NA,NA,NA,NA,NA,choice_trial,survey-html-form,69,207392,0.0-4.0-1.32,156,1,2025-05-04T17:31:26Z,b60275e29fe2361ab97ac0ac217840d7,"Mozilla/5.0 (Windows NT 10.0; Win64; x64) AppleWebKit/537.36 (KHTML, like Gecko) Chrome/135.0.0.0 Safari/537.36 Edg/135.0.0.0",WebKit,Edge,135.0.0.0,Windows,10,https://5puzkbbxv1.cognition.run/?sona_id=56193,"en-US,en;q=0.9",zpm5gxwo7mbc3zk,19,"[""White""]",No,Female,NA,No,387976.0999999941,NA,18286,NA,"{""product_choice"":""A""}",choice,cdt,trinary,attraction,2,laptops,null,null,null,null,null,null,1,50,60,40,60,50,60,Processing speed,Memory (RAM),NA,NA
NA,NA,NA,NA,NA,choice_trial_setup,html-keyboard-response,70,207703,0.0-4.0-0.33,156,1,2025-05-04T17:31:26Z,b60275e29fe2361ab97ac0ac217840d7,"Mozilla/5.0 (Windows NT 10.0; Win64; x64) AppleWebKit/537.36 (KHTML, like Gecko) Chrome/135.0.0.0 Safari/537.36 Edg/135.0.0.0",WebKit,Edge,135.0.0.0,Windows,10,https://5puzkbbxv1.cognition.run/?sona_id=56193,"en-US,en;q=0.9",zpm5gxwo7mbc3zk,19,"[""White""]",No,Female,NA,No,387976.0999999941,NA,null,<p></p>,null,choice,dtc,trinary,repulsion_A,2,washing machines,null,null,null,null,null,null,1,NA,NA,NA,NA,NA,NA,NA,NA,NA,NA
NA,NA,NA,NA,NA,choice_trial,survey-html-form,71,219789,0.0-4.0-1.33,156,1,2025-05-04T17:31:26Z,b60275e29fe2361ab97ac0ac217840d7,"Mozilla/5.0 (Windows NT 10.0; Win64; x64) AppleWebKit/537.36 (KHTML, like Gecko) Chrome/135.0.0.0 Safari/537.36 Edg/135.0.0.0",WebKit,Edge,135.0.0.0,Windows,10,https://5puzkbbxv1.cognition.run/?sona_id=56193,"en-US,en;q=0.9",zpm5gxwo7mbc3zk,19,"[""White""]",No,Female,NA,No,387976.0999999941,NA,12083,NA,"{""product_choice"":""C""}",choice,dtc,trinary,repulsion_A,2,washing machines,null,null,null,null,null,null,1,30,40,20,100,90,100,Average lifespan,Energy savings,NA,NA
NA,NA,NA,NA,NA,choice_trial_setup,html-keyboard-response,72,220104,0.0-4.0-0.34,156,1,2025-05-04T17:31:26Z,b60275e29fe2361ab97ac0ac217840d7,"Mozilla/5.0 (Windows NT 10.0; Win64; x64) AppleWebKit/537.36 (KHTML, like Gecko) Chrome/135.0.0.0 Safari/537.36 Edg/135.0.0.0",WebKit,Edge,135.0.0.0,Windows,10,https://5puzkbbxv1.cognition.run/?sona_id=56193,"en-US,en;q=0.9",zpm5gxwo7mbc3zk,19,"[""White""]",No,Female,NA,No,387976.0999999941,NA,null,<p></p>,null,choice,tc,binary,attraction,NA,microwave ovens,null,null,null,null,null,null,2,NA,NA,NA,NA,NA,NA,NA,NA,NA,NA
NA,NA,NA,NA,NA,choice_trial,survey-html-form,73,222909,0.0-4.0-1.34,156,1,2025-05-04T17:31:26Z,b60275e29fe2361ab97ac0ac217840d7,"Mozilla/5.0 (Windows NT 10.0; Win64; x64) AppleWebKit/537.36 (KHTML, like Gecko) Chrome/135.0.0.0 Safari/537.36 Edg/135.0.0.0",WebKit,Edge,135.0.0.0,Windows,10,https://5puzkbbxv1.cognition.run/?sona_id=56193,"en-US,en;q=0.9",zpm5gxwo7mbc3zk,19,"[""White""]",No,Female,NA,No,387976.0999999941,NA,2802,NA,"{""product_choice"":""A""}",choice,tc,binary,attraction,NA,microwave ovens,null,null,null,null,null,null,2,60,50,null,50,60,null,Warranty,Cooking power,NA,NA
NA,NA,NA,NA,NA,choice_trial_setup,html-keyboard-response,74,223213,0.0-4.0-0.35,156,1,2025-05-04T17:31:26Z,b60275e29fe2361ab97ac0ac217840d7,"Mozilla/5.0 (Windows NT 10.0; Win64; x64) AppleWebKit/537.36 (KHTML, like Gecko) Chrome/135.0.0.0 Safari/537.36 Edg/135.0.0.0",WebKit,Edge,135.0.0.0,Windows,10,https://5puzkbbxv1.cognition.run/?sona_id=56193,"en-US,en;q=0.9",zpm5gxwo7mbc3zk,19,"[""White""]",No,Female,NA,No,387976.0999999941,NA,null,<p></p>,null,choice,ctd,trinary,repulsion_A,1,washing machines,null,null,null,null,null,null,2,NA,NA,NA,NA,NA,NA,NA,NA,NA,NA
NA,NA,NA,NA,NA,choice_trial,survey-html-form,75,225992,0.0-4.0-1.35,156,1,2025-05-04T17:31:26Z,b60275e29fe2361ab97ac0ac217840d7,"Mozilla/5.0 (Windows NT 10.0; Win64; x64) AppleWebKit/537.36 (KHTML, like Gecko) Chrome/135.0.0.0 Safari/537.36 Edg/135.0.0.0",WebKit,Edge,135.0.0.0,Windows,10,https://5puzkbbxv1.cognition.run/?sona_id=56193,"en-US,en;q=0.9",zpm5gxwo7mbc3zk,19,"[""White""]",No,Female,NA,No,387976.0999999941,NA,2774,NA,"{""product_choice"":""A""}",choice,ctd,trinary,repulsion_A,1,washing machines,null,null,null,null,null,null,2,100,90,100,30,40,20,Average lifespan,Energy savings,NA,NA
NA,NA,NA,NA,NA,choice_trial_setup,html-keyboard-response,76,226306,0.0-4.0-0.36,156,1,2025-05-04T17:31:26Z,b60275e29fe2361ab97ac0ac217840d7,"Mozilla/5.0 (Windows NT 10.0; Win64; x64) AppleWebKit/537.36 (KHTML, like Gecko) Chrome/135.0.0.0 Safari/537.36 Edg/135.0.0.0",WebKit,Edge,135.0.0.0,Windows,10,https://5puzkbbxv1.cognition.run/?sona_id=56193,"en-US,en;q=0.9",zpm5gxwo7mbc3zk,19,"[""White""]",No,Female,NA,No,387976.0999999941,NA,null,<p></p>,null,choice,tc,binary,attraction,NA,washing machines,null,null,null,null,null,null,2,NA,NA,NA,NA,NA,NA,NA,NA,NA,NA
NA,NA,NA,NA,NA,choice_trial,survey-html-form,77,229138,0.0-4.0-1.36,156,1,2025-05-04T17:31:26Z,b60275e29fe2361ab97ac0ac217840d7,"Mozilla/5.0 (Windows NT 10.0; Win64; x64) AppleWebKit/537.36 (KHTML, like Gecko) Chrome/135.0.0.0 Safari/537.36 Edg/135.0.0.0",WebKit,Edge,135.0.0.0,Windows,10,https://5puzkbbxv1.cognition.run/?sona_id=56193,"en-US,en;q=0.9",zpm5gxwo7mbc3zk,19,"[""White""]",No,Female,NA,No,387976.0999999941,NA,2828,NA,"{""product_choice"":""A""}",choice,tc,binary,attraction,NA,washing machines,null,null,null,null,null,null,2,60,50,null,50,60,null,Average lifespan,Energy savings,NA,NA
NA,NA,NA,NA,NA,choice_trial_setup,html-keyboard-response,78,229449,0.0-4.0-0.37,156,1,2025-05-04T17:31:26Z,b60275e29fe2361ab97ac0ac217840d7,"Mozilla/5.0 (Windows NT 10.0; Win64; x64) AppleWebKit/537.36 (KHTML, like Gecko) Chrome/135.0.0.0 Safari/537.36 Edg/135.0.0.0",WebKit,Edge,135.0.0.0,Windows,10,https://5puzkbbxv1.cognition.run/?sona_id=56193,"en-US,en;q=0.9",zpm5gxwo7mbc3zk,19,"[""White""]",No,Female,NA,No,387976.0999999941,NA,null,<p></p>,null,choice,ctd,trinary,attraction,2,washing machines,null,null,null,null,null,null,2,NA,NA,NA,NA,NA,NA,NA,NA,NA,NA
NA,NA,NA,NA,NA,choice_trial,survey-html-form,79,260516,0.0-4.0-1.37,156,1,2025-05-04T17:31:26Z,b60275e29fe2361ab97ac0ac217840d7,"Mozilla/5.0 (Windows NT 10.0; Win64; x64) AppleWebKit/537.36 (KHTML, like Gecko) Chrome/135.0.0.0 Safari/537.36 Edg/135.0.0.0",WebKit,Edge,135.0.0.0,Windows,10,https://5puzkbbxv1.cognition.run/?sona_id=56193,"en-US,en;q=0.9",zpm5gxwo7mbc3zk,19,"[""White""]",No,Female,NA,No,387976.0999999941,NA,31064,NA,"{""product_choice"":""A""}",choice,ctd,trinary,attraction,2,washing machines,null,null,null,null,null,null,2,50,60,40,60,50,60,Average lifespan,Energy savings,NA,NA
NA,NA,NA,NA,NA,choice_trial_setup,html-keyboard-response,80,260834,0.0-4.0-0.38,156,1,2025-05-04T17:31:26Z,b60275e29fe2361ab97ac0ac217840d7,"Mozilla/5.0 (Windows NT 10.0; Win64; x64) AppleWebKit/537.36 (KHTML, like Gecko) Chrome/135.0.0.0 Safari/537.36 Edg/135.0.0.0",WebKit,Edge,135.0.0.0,Windows,10,https://5puzkbbxv1.cognition.run/?sona_id=56193,"en-US,en;q=0.9",zpm5gxwo7mbc3zk,19,"[""White""]",No,Female,NA,No,387976.0999999941,NA,null,<p></p>,null,choice,dct,trinary,attraction,2,televisions,null,null,null,null,null,null,2,NA,NA,NA,NA,NA,NA,NA,NA,NA,NA
NA,NA,NA,NA,NA,choice_trial,survey-html-form,81,317973,0.0-4.0-1.38,156,1,2025-05-04T17:31:26Z,b60275e29fe2361ab97ac0ac217840d7,"Mozilla/5.0 (Windows NT 10.0; Win64; x64) AppleWebKit/537.36 (KHTML, like Gecko) Chrome/135.0.0.0 Safari/537.36 Edg/135.0.0.0",WebKit,Edge,135.0.0.0,Windows,10,https://5puzkbbxv1.cognition.run/?sona_id=56193,"en-US,en;q=0.9",zpm5gxwo7mbc3zk,19,"[""White""]",No,Female,NA,No,387976.0999999941,NA,57136,NA,"{""product_choice"":""A""}",choice,dct,trinary,attraction,2,televisions,null,null,null,null,null,null,2,50,60,40,60,50,60,Screen size,Average lifespan,NA,NA
NA,NA,NA,NA,NA,choice_trial_setup,html-keyboard-response,82,318280,0.0-4.0-0.39,156,1,2025-05-04T17:31:26Z,b60275e29fe2361ab97ac0ac217840d7,"Mozilla/5.0 (Windows NT 10.0; Win64; x64) AppleWebKit/537.36 (KHTML, like Gecko) Chrome/135.0.0.0 Safari/537.36 Edg/135.0.0.0",WebKit,Edge,135.0.0.0,Windows,10,https://5puzkbbxv1.cognition.run/?sona_id=56193,"en-US,en;q=0.9",zpm5gxwo7mbc3zk,19,"[""White""]",No,Female,NA,No,387976.0999999941,NA,null,<p></p>,null,choice,tcd,trinary,repulsion_B,2,microwave ovens,null,null,null,null,null,null,1,NA,NA,NA,NA,NA,NA,NA,NA,NA,NA
NA,NA,NA,NA,NA,choice_trial,survey-html-form,83,320096,0.0-4.0-1.39,156,1,2025-05-04T17:31:26Z,b60275e29fe2361ab97ac0ac217840d7,"Mozilla/5.0 (Windows NT 10.0; Win64; x64) AppleWebKit/537.36 (KHTML, like Gecko) Chrome/135.0.0.0 Safari/537.36 Edg/135.0.0.0",WebKit,Edge,135.0.0.0,Windows,10,https://5puzkbbxv1.cognition.run/?sona_id=56193,"en-US,en;q=0.9",zpm5gxwo7mbc3zk,19,"[""White""]",No,Female,NA,No,387976.0999999941,NA,1813,NA,"{""product_choice"":""A""}",choice,tcd,trinary,repulsion_B,2,microwave ovens,null,null,null,null,null,null,1,40,30,40,90,100,80,Warranty,Cooking power,NA,NA
NA,NA,NA,NA,NA,choice_trial_setup,html-keyboard-response,84,320398,0.0-4.0-0.40,156,1,2025-05-04T17:31:26Z,b60275e29fe2361ab97ac0ac217840d7,"Mozilla/5.0 (Windows NT 10.0; Win64; x64) AppleWebKit/537.36 (KHTML, like Gecko) Chrome/135.0.0.0 Safari/537.36 Edg/135.0.0.0",WebKit,Edge,135.0.0.0,Windows,10,https://5puzkbbxv1.cognition.run/?sona_id=56193,"en-US,en;q=0.9",zpm5gxwo7mbc3zk,19,"[""White""]",No,Female,NA,No,387976.0999999941,NA,null,<p></p>,null,choice,tcd,trinary,repulsion_A,1,microwave ovens,null,null,null,null,null,null,1,NA,NA,NA,NA,NA,NA,NA,NA,NA,NA
NA,NA,NA,NA,NA,choice_trial,survey-html-form,85,322612,0.0-4.0-1.40,156,1,2025-05-04T17:31:26Z,b60275e29fe2361ab97ac0ac217840d7,"Mozilla/5.0 (Windows NT 10.0; Win64; x64) AppleWebKit/537.36 (KHTML, like Gecko) Chrome/135.0.0.0 Safari/537.36 Edg/135.0.0.0",WebKit,Edge,135.0.0.0,Windows,10,https://5puzkbbxv1.cognition.run/?sona_id=56193,"en-US,en;q=0.9",zpm5gxwo7mbc3zk,19,"[""White""]",No,Female,NA,No,387976.0999999941,NA,2207,NA,"{""product_choice"":""B""}",choice,tcd,trinary,repulsion_A,1,microwave ovens,null,null,null,null,null,null,1,100,90,100,30,40,20,Warranty,Cooking power,NA,NA
NA,NA,NA,NA,NA,choice_trial_setup,html-keyboard-response,86,322918,0.0-4.0-0.41,156,1,2025-05-04T17:31:26Z,b60275e29fe2361ab97ac0ac217840d7,"Mozilla/5.0 (Windows NT 10.0; Win64; x64) AppleWebKit/537.36 (KHTML, like Gecko) Chrome/135.0.0.0 Safari/537.36 Edg/135.0.0.0",WebKit,Edge,135.0.0.0,Windows,10,https://5puzkbbxv1.cognition.run/?sona_id=56193,"en-US,en;q=0.9",zpm5gxwo7mbc3zk,19,"[""White""]",No,Female,NA,No,387976.0999999941,NA,null,<p></p>,null,choice,wbw,trinary,catch,null,laptops,90,70,15,10,20,45,1,NA,NA,NA,NA,NA,NA,NA,NA,NA,NA
NA,NA,NA,NA,NA,choice_trial,survey-html-form,87,325256,0.0-4.0-1.41,156,1,2025-05-04T17:31:26Z,b60275e29fe2361ab97ac0ac217840d7,"Mozilla/5.0 (Windows NT 10.0; Win64; x64) AppleWebKit/537.36 (KHTML, like Gecko) Chrome/135.0.0.0 Safari/537.36 Edg/135.0.0.0",WebKit,Edge,135.0.0.0,Windows,10,https://5puzkbbxv1.cognition.run/?sona_id=56193,"en-US,en;q=0.9",zpm5gxwo7mbc3zk,19,"[""White""]",No,Female,NA,No,387976.0999999941,NA,2334,NA,"{""product_choice"":""B""}",choice,wbw,trinary,catch,null,laptops,90,70,15,10,20,45,1,null,null,null,null,null,null,Processing speed,Memory (RAM),NA,NA
NA,NA,NA,NA,NA,choice_trial_setup,html-keyboard-response,88,325563,0.0-4.0-0.42,156,1,2025-05-04T17:31:26Z,b60275e29fe2361ab97ac0ac217840d7,"Mozilla/5.0 (Windows NT 10.0; Win64; x64) AppleWebKit/537.36 (KHTML, like Gecko) Chrome/135.0.0.0 Safari/537.36 Edg/135.0.0.0",WebKit,Edge,135.0.0.0,Windows,10,https://5puzkbbxv1.cognition.run/?sona_id=56193,"en-US,en;q=0.9",zpm5gxwo7mbc3zk,19,"[""White""]",No,Female,NA,No,387976.0999999941,NA,null,<p></p>,null,choice,wb,binary,catch,null,laptops,55,85,20,35,null,null,1,NA,NA,NA,NA,NA,NA,NA,NA,NA,NA
NA,NA,NA,NA,NA,choice_trial,survey-html-form,89,328328,0.0-4.0-1.42,156,1,2025-05-04T17:31:26Z,b60275e29fe2361ab97ac0ac217840d7,"Mozilla/5.0 (Windows NT 10.0; Win64; x64) AppleWebKit/537.36 (KHTML, like Gecko) Chrome/135.0.0.0 Safari/537.36 Edg/135.0.0.0",WebKit,Edge,135.0.0.0,Windows,10,https://5puzkbbxv1.cognition.run/?sona_id=56193,"en-US,en;q=0.9",zpm5gxwo7mbc3zk,19,"[""White""]",No,Female,NA,No,387976.0999999941,NA,2760,NA,"{""product_choice"":""B""}",choice,wb,binary,catch,null,laptops,55,85,20,35,null,null,1,null,null,null,null,null,null,Processing speed,Memory (RAM),NA,NA
NA,NA,NA,NA,NA,choice_trial_setup,html-keyboard-response,90,328642,0.0-4.0-0.43,156,1,2025-05-04T17:31:26Z,b60275e29fe2361ab97ac0ac217840d7,"Mozilla/5.0 (Windows NT 10.0; Win64; x64) AppleWebKit/537.36 (KHTML, like Gecko) Chrome/135.0.0.0 Safari/537.36 Edg/135.0.0.0",WebKit,Edge,135.0.0.0,Windows,10,https://5puzkbbxv1.cognition.run/?sona_id=56193,"en-US,en;q=0.9",zpm5gxwo7mbc3zk,19,"[""White""]",No,Female,NA,No,387976.0999999941,NA,null,<p></p>,null,choice,wb,binary,catch,null,televisions,65,65,35,25,null,null,2,NA,NA,NA,NA,NA,NA,NA,NA,NA,NA
NA,NA,NA,NA,NA,choice_trial,survey-html-form,91,330920,0.0-4.0-1.43,156,1,2025-05-04T17:31:26Z,b60275e29fe2361ab97ac0ac217840d7,"Mozilla/5.0 (Windows NT 10.0; Win64; x64) AppleWebKit/537.36 (KHTML, like Gecko) Chrome/135.0.0.0 Safari/537.36 Edg/135.0.0.0",WebKit,Edge,135.0.0.0,Windows,10,https://5puzkbbxv1.cognition.run/?sona_id=56193,"en-US,en;q=0.9",zpm5gxwo7mbc3zk,19,"[""White""]",No,Female,NA,No,387976.0999999941,NA,2274,NA,"{""product_choice"":""B""}",choice,wb,binary,catch,null,televisions,65,65,35,25,null,null,2,null,null,null,null,null,null,Screen size,Average lifespan,NA,NA
NA,NA,NA,NA,NA,post_trials_message,html-button-response,92,333534,0.0-5.0,156,1,2025-05-04T17:31:26Z,b60275e29fe2361ab97ac0ac217840d7,"Mozilla/5.0 (Windows NT 10.0; Win64; x64) AppleWebKit/537.36 (KHTML, like Gecko) Chrome/135.0.0.0 Safari/537.36 Edg/135.0.0.0",WebKit,Edge,135.0.0.0,Windows,10,https://5puzkbbxv1.cognition.run/?sona_id=56193,"en-US,en;q=0.9",zpm5gxwo7mbc3zk,19,"[""White""]",No,Female,NA,No,387976.0999999941,NA,2610,<p> <b>Thank you for your patience!</b></p><p>  The study will be done after completing a brief form. </p>,0,NA,NA,NA,NA,NA,NA,NA,NA,NA,NA,NA,NA,NA,NA,NA,NA,NA,NA,NA,NA,NA,NA,NA
NA,NA,NA,NA,NA,survey_message,survey-text,93,363296,0.0-6.0,156,1,2025-05-04T17:31:26Z,b60275e29fe2361ab97ac0ac217840d7,"Mozilla/5.0 (Windows NT 10.0; Win64; x64) AppleWebKit/537.36 (KHTML, like Gecko) Chrome/135.0.0.0 Safari/537.36 Edg/135.0.0.0",WebKit,Edge,135.0.0.0,Windows,10,https://5puzkbbxv1.cognition.run/?sona_id=56193,"en-US,en;q=0.9",zpm5gxwo7mbc3zk,19,"[""White""]",No,Female,NA,No,387976.0999999941,NA,29759,NA,"{""Q0"":""I tried to pick the options that both had decently high numbers for each category, so that it would be the best option.""}",NA,NA,NA,NA,NA,NA,NA,NA,NA,NA,NA,NA,NA,NA,NA,NA,NA,NA,NA,NA,NA,"I tried to pick the options that both had decently high numbers for each category, so that it would be the best option.",NA
NA,NA,NA,NA,NA,demo_age,survey-text,94,367149,0.0-7.0,156,1,2025-05-04T17:31:26Z,b60275e29fe2361ab97ac0ac217840d7,"Mozilla/5.0 (Windows NT 10.0; Win64; x64) AppleWebKit/537.36 (KHTML, like Gecko) Chrome/135.0.0.0 Safari/537.36 Edg/135.0.0.0",WebKit,Edge,135.0.0.0,Windows,10,https://5puzkbbxv1.cognition.run/?sona_id=56193,"en-US,en;q=0.9",zpm5gxwo7mbc3zk,19,"[""White""]",No,Female,NA,No,387976.0999999941,NA,3847,NA,"{""Q0"":""19""}",NA,NA,NA,NA,NA,NA,NA,NA,NA,NA,NA,NA,NA,NA,NA,NA,NA,NA,NA,NA,NA,NA,NA
NA,NA,NA,NA,NA,demo_race,survey-multi-select,95,369232,0.0-8.0,156,1,2025-05-04T17:31:26Z,b60275e29fe2361ab97ac0ac217840d7,"Mozilla/5.0 (Windows NT 10.0; Win64; x64) AppleWebKit/537.36 (KHTML, like Gecko) Chrome/135.0.0.0 Safari/537.36 Edg/135.0.0.0",WebKit,Edge,135.0.0.0,Windows,10,https://5puzkbbxv1.cognition.run/?sona_id=56193,"en-US,en;q=0.9",zpm5gxwo7mbc3zk,19,"[""White""]",No,Female,NA,No,387976.0999999941,NA,2078,NA,"{""Q0"":[""White""]}",NA,NA,NA,NA,NA,NA,NA,NA,NA,NA,NA,NA,NA,NA,NA,NA,NA,NA,NA,NA,NA,NA,[0]
NA,NA,NA,NA,NA,demo_ethnicity_gender,survey-multi-choice,96,372965,0.0-9.0,156,1,2025-05-04T17:31:26Z,b60275e29fe2361ab97ac0ac217840d7,"Mozilla/5.0 (Windows NT 10.0; Win64; x64) AppleWebKit/537.36 (KHTML, like Gecko) Chrome/135.0.0.0 Safari/537.36 Edg/135.0.0.0",WebKit,Edge,135.0.0.0,Windows,10,https://5puzkbbxv1.cognition.run/?sona_id=56193,"en-US,en;q=0.9",zpm5gxwo7mbc3zk,19,"[""White""]",No,Female,NA,No,387976.0999999941,NA,3730,NA,"{""Q0"":""No"",""Q1"":""Female""}",NA,NA,NA,NA,NA,NA,NA,NA,NA,NA,NA,NA,NA,NA,NA,NA,NA,NA,NA,NA,NA,NA,"[0,1]"
NA,NA,NA,NA,NA,demo_countries,survey-text,97,377386,0.0-10.0,156,1,2025-05-04T17:31:26Z,b60275e29fe2361ab97ac0ac217840d7,"Mozilla/5.0 (Windows NT 10.0; Win64; x64) AppleWebKit/537.36 (KHTML, like Gecko) Chrome/135.0.0.0 Safari/537.36 Edg/135.0.0.0",WebKit,Edge,135.0.0.0,Windows,10,https://5puzkbbxv1.cognition.run/?sona_id=56193,"en-US,en;q=0.9",zpm5gxwo7mbc3zk,19,"[""White""]",No,Female,NA,No,387976.0999999941,NA,4413,NA,"{""Q0"":""NA""}",NA,NA,NA,NA,NA,NA,NA,NA,NA,NA,NA,NA,NA,NA,NA,NA,NA,NA,NA,NA,NA,NA,NA
NA,NA,NA,NA,NA,demo_prev_study,survey-multi-choice,98,381312,0.0-11.0,156,1,2025-05-04T17:31:26Z,b60275e29fe2361ab97ac0ac217840d7,"Mozilla/5.0 (Windows NT 10.0; Win64; x64) AppleWebKit/537.36 (KHTML, like Gecko) Chrome/135.0.0.0 Safari/537.36 Edg/135.0.0.0",WebKit,Edge,135.0.0.0,Windows,10,https://5puzkbbxv1.cognition.run/?sona_id=56193,"en-US,en;q=0.9",zpm5gxwo7mbc3zk,19,"[""White""]",No,Female,NA,No,387976.0999999941,NA,3922,NA,"{""Q0"":""No""}",NA,NA,NA,NA,NA,NA,NA,NA,NA,NA,NA,NA,NA,NA,NA,NA,NA,NA,NA,NA,NA,NA,[0]
NA,NA,NA,NA,NA,post_survey_message,html-keyboard-response,99,385848,0.0-12.0,156,1,2025-05-04T17:31:26Z,b60275e29fe2361ab97ac0ac217840d7,"Mozilla/5.0 (Windows NT 10.0; Win64; x64) AppleWebKit/537.36 (KHTML, like Gecko) Chrome/135.0.0.0 Safari/537.36 Edg/135.0.0.0",WebKit,Edge,135.0.0.0,Windows,10,https://5puzkbbxv1.cognition.run/?sona_id=56193,"en-US,en;q=0.9",zpm5gxwo7mbc3zk,19,"[""White""]",No,Female,NA,No,387976.0999999941,NA,4533,NA,j,NA,NA,NA,NA,NA,NA,NA,NA,NA,NA,NA,NA,NA,NA,NA,NA,NA,NA,NA,NA,NA,NA,NA
NA,NA,NA,NA,NA,debrief,image-keyboard-response,100,387975,0.0-13.0,156,1,2025-05-04T17:31:26Z,b60275e29fe2361ab97ac0ac217840d7,"Mozilla/5.0 (Windows NT 10.0; Win64; x64) AppleWebKit/537.36 (KHTML, like Gecko) Chrome/135.0.0.0 Safari/537.36 Edg/135.0.0.0",WebKit,Edge,135.0.0.0,Windows,10,https://5puzkbbxv1.cognition.run/?sona_id=56193,"en-US,en;q=0.9",zpm5gxwo7mbc3zk,19,"[""White""]",No,Female,NA,No,387976.0999999941,NA,2121,Judg_choice_debrief.png,p,NA,NA,NA,NA,NA,NA,NA,NA,NA,NA,NA,NA,NA,NA,NA,NA,NA,NA,NA,NA,NA,NA,NA
