success,timeout,failed_images,failed_audio,failed_video,screen_id,trial_type,trial_index,time_elapsed,internal_node_id,run_id,condition,recorded_at,source_code_version,user_agent,device,browser,browser_version,platform,platform_version,referer,accept_language,ppt_id,age,race,ethnicity,gender,other_countries,prev_study,exp_duration,view_history,rt,stimulus,response,phase,order,set,effect,t_high,category,d1_best,d2_best,d1_worst1,d2_worst1,d1_worst2,d2_worst2,first_dim,d1_t,d1_c,d1_d,d2_t,d2_c,d2_d,d1_name,d2_name,strategy_response,question_order
TRUE,FALSE,[],[],[],img preload,preload,0,242,0.0-0.0,157,1,2025-05-04T17:37:50Z,b60275e29fe2361ab97ac0ac217840d7,Mozilla/5.0 (Windows NT 10.0; Win64; x64; rv:138.0) Gecko/20100101 Firefox/138.0,NA,Firefox,138,Windows,10,https://5puzkbbxv1.cognition.run/?sona_id=54559,"en-US,en;q=0.5",8ya29pzsp4tcdzo,21,"[""Asian"",""White""]",No,Male,NA,No,467676,NA,NA,NA,NA,NA,NA,NA,NA,NA,NA,NA,NA,NA,NA,NA,NA,NA,NA,NA,NA,NA,NA,NA,NA,NA,NA,NA
NA,NA,NA,NA,NA,computer_message,instructions,1,3060,0.0-1.0,157,1,2025-05-04T17:37:50Z,b60275e29fe2361ab97ac0ac217840d7,Mozilla/5.0 (Windows NT 10.0; Win64; x64; rv:138.0) Gecko/20100101 Firefox/138.0,NA,Firefox,138,Windows,10,https://5puzkbbxv1.cognition.run/?sona_id=54559,"en-US,en;q=0.5",8ya29pzsp4tcdzo,21,"[""Asian"",""White""]",No,Male,NA,No,467676,"[{""page_index"":0,""viewing_time"":2817}]",2817,NA,NA,NA,NA,NA,NA,NA,NA,NA,NA,NA,NA,NA,NA,NA,NA,NA,NA,NA,NA,NA,NA,NA,NA,NA
TRUE,NA,NA,NA,NA,NA,fullscreen,2,5695,0.0-2.0,157,1,2025-05-04T17:37:50Z,b60275e29fe2361ab97ac0ac217840d7,Mozilla/5.0 (Windows NT 10.0; Win64; x64; rv:138.0) Gecko/20100101 Firefox/138.0,NA,Firefox,138,Windows,10,https://5puzkbbxv1.cognition.run/?sona_id=54559,"en-US,en;q=0.5",8ya29pzsp4tcdzo,21,"[""Asian"",""White""]",No,Male,NA,No,467676,NA,1556,NA,NA,NA,NA,NA,NA,NA,NA,NA,NA,NA,NA,NA,NA,NA,NA,NA,NA,NA,NA,NA,NA,NA,NA,NA
NA,NA,NA,NA,NA,choice_instructions,instructions,3,31783,0.0-3.0,157,1,2025-05-04T17:37:50Z,b60275e29fe2361ab97ac0ac217840d7,Mozilla/5.0 (Windows NT 10.0; Win64; x64; rv:138.0) Gecko/20100101 Firefox/138.0,NA,Firefox,138,Windows,10,https://5puzkbbxv1.cognition.run/?sona_id=54559,"en-US,en;q=0.5",8ya29pzsp4tcdzo,21,"[""Asian"",""White""]",No,Male,NA,No,467676,"[{""page_index"":0,""viewing_time"":1173},{""page_index"":1,""viewing_time"":2080},{""page_index"":2,""viewing_time"":5023},{""page_index"":3,""viewing_time"":2596},{""page_index"":4,""viewing_time"":1629},{""page_index"":5,""viewing_time"":9231},{""page_index"":6,""viewing_time"":4354}]",26087,NA,NA,NA,NA,NA,NA,NA,NA,NA,NA,NA,NA,NA,NA,NA,NA,NA,NA,NA,NA,NA,NA,NA,NA,NA
NA,NA,NA,NA,NA,choice_trial_setup,html-keyboard-response,4,32099,0.0-4.0-0.0,157,1,2025-05-04T17:37:50Z,b60275e29fe2361ab97ac0ac217840d7,Mozilla/5.0 (Windows NT 10.0; Win64; x64; rv:138.0) Gecko/20100101 Firefox/138.0,NA,Firefox,138,Windows,10,https://5puzkbbxv1.cognition.run/?sona_id=54559,"en-US,en;q=0.5",8ya29pzsp4tcdzo,21,"[""Asian"",""White""]",No,Male,NA,No,467676,NA,null,<p></p>,null,choice,dtc,trinary,attraction,2,laptops,null,null,null,null,null,null,2,NA,NA,NA,NA,NA,NA,NA,NA,NA,NA
NA,NA,NA,NA,NA,choice_trial,survey-html-form,5,42162,0.0-4.0-1.0,157,1,2025-05-04T17:37:50Z,b60275e29fe2361ab97ac0ac217840d7,Mozilla/5.0 (Windows NT 10.0; Win64; x64; rv:138.0) Gecko/20100101 Firefox/138.0,NA,Firefox,138,Windows,10,https://5puzkbbxv1.cognition.run/?sona_id=54559,"en-US,en;q=0.5",8ya29pzsp4tcdzo,21,"[""Asian"",""White""]",No,Male,NA,No,467676,NA,10061,NA,"{""product_choice"":""C""}",choice,dtc,trinary,attraction,2,laptops,null,null,null,null,null,null,2,50,60,40,60,50,60,Processing speed,Memory (RAM),NA,NA
NA,NA,NA,NA,NA,choice_trial_setup,html-keyboard-response,6,42472,0.0-4.0-0.1,157,1,2025-05-04T17:37:50Z,b60275e29fe2361ab97ac0ac217840d7,Mozilla/5.0 (Windows NT 10.0; Win64; x64; rv:138.0) Gecko/20100101 Firefox/138.0,NA,Firefox,138,Windows,10,https://5puzkbbxv1.cognition.run/?sona_id=54559,"en-US,en;q=0.5",8ya29pzsp4tcdzo,21,"[""Asian"",""White""]",No,Male,NA,No,467676,NA,null,<p></p>,null,choice,tc,binary,repulsion,2,washing machines,null,null,null,null,null,null,1,NA,NA,NA,NA,NA,NA,NA,NA,NA,NA
NA,NA,NA,NA,NA,choice_trial,survey-html-form,7,47775,0.0-4.0-1.1,157,1,2025-05-04T17:37:50Z,b60275e29fe2361ab97ac0ac217840d7,Mozilla/5.0 (Windows NT 10.0; Win64; x64; rv:138.0) Gecko/20100101 Firefox/138.0,NA,Firefox,138,Windows,10,https://5puzkbbxv1.cognition.run/?sona_id=54559,"en-US,en;q=0.5",8ya29pzsp4tcdzo,21,"[""Asian"",""White""]",No,Male,NA,No,467676,NA,5301,NA,"{""product_choice"":""B""}",choice,tc,binary,repulsion,2,washing machines,null,null,null,null,null,null,1,30,40,null,100,90,null,Average lifespan,Energy savings,NA,NA
NA,NA,NA,NA,NA,choice_trial_setup,html-keyboard-response,8,48078,0.0-4.0-0.2,157,1,2025-05-04T17:37:50Z,b60275e29fe2361ab97ac0ac217840d7,Mozilla/5.0 (Windows NT 10.0; Win64; x64; rv:138.0) Gecko/20100101 Firefox/138.0,NA,Firefox,138,Windows,10,https://5puzkbbxv1.cognition.run/?sona_id=54559,"en-US,en;q=0.5",8ya29pzsp4tcdzo,21,"[""Asian"",""White""]",No,Male,NA,No,467676,NA,null,<p></p>,null,choice,bww,trinary,catch,null,televisions,60,85,50,15,20,50,1,NA,NA,NA,NA,NA,NA,NA,NA,NA,NA
NA,NA,NA,NA,NA,choice_trial,survey-html-form,9,56232,0.0-4.0-1.2,157,1,2025-05-04T17:37:50Z,b60275e29fe2361ab97ac0ac217840d7,Mozilla/5.0 (Windows NT 10.0; Win64; x64; rv:138.0) Gecko/20100101 Firefox/138.0,NA,Firefox,138,Windows,10,https://5puzkbbxv1.cognition.run/?sona_id=54559,"en-US,en;q=0.5",8ya29pzsp4tcdzo,21,"[""Asian"",""White""]",No,Male,NA,No,467676,NA,8153,NA,"{""product_choice"":""A""}",choice,bww,trinary,catch,null,televisions,60,85,50,15,20,50,1,null,null,null,null,null,null,Screen size,Average lifespan,NA,NA
NA,NA,NA,NA,NA,choice_trial_setup,html-keyboard-response,10,56535,0.0-4.0-0.3,157,1,2025-05-04T17:37:50Z,b60275e29fe2361ab97ac0ac217840d7,Mozilla/5.0 (Windows NT 10.0; Win64; x64; rv:138.0) Gecko/20100101 Firefox/138.0,NA,Firefox,138,Windows,10,https://5puzkbbxv1.cognition.run/?sona_id=54559,"en-US,en;q=0.5",8ya29pzsp4tcdzo,21,"[""Asian"",""White""]",No,Male,NA,No,467676,NA,null,<p></p>,null,choice,dct,trinary,repulsion_B,1,washing machines,null,null,null,null,null,null,2,NA,NA,NA,NA,NA,NA,NA,NA,NA,NA
NA,NA,NA,NA,NA,choice_trial,survey-html-form,11,63327,0.0-4.0-1.3,157,1,2025-05-04T17:37:50Z,b60275e29fe2361ab97ac0ac217840d7,Mozilla/5.0 (Windows NT 10.0; Win64; x64; rv:138.0) Gecko/20100101 Firefox/138.0,NA,Firefox,138,Windows,10,https://5puzkbbxv1.cognition.run/?sona_id=54559,"en-US,en;q=0.5",8ya29pzsp4tcdzo,21,"[""Asian"",""White""]",No,Male,NA,No,467676,NA,6790,NA,"{""product_choice"":""B""}",choice,dct,trinary,repulsion_B,1,washing machines,null,null,null,null,null,null,2,90,100,80,40,30,40,Average lifespan,Energy savings,NA,NA
NA,NA,NA,NA,NA,choice_trial_setup,html-keyboard-response,12,63636,0.0-4.0-0.4,157,1,2025-05-04T17:37:50Z,b60275e29fe2361ab97ac0ac217840d7,Mozilla/5.0 (Windows NT 10.0; Win64; x64; rv:138.0) Gecko/20100101 Firefox/138.0,NA,Firefox,138,Windows,10,https://5puzkbbxv1.cognition.run/?sona_id=54559,"en-US,en;q=0.5",8ya29pzsp4tcdzo,21,"[""Asian"",""White""]",No,Male,NA,No,467676,NA,null,<p></p>,null,choice,ctd,trinary,repulsion_B,2,televisions,null,null,null,null,null,null,2,NA,NA,NA,NA,NA,NA,NA,NA,NA,NA
NA,NA,NA,NA,NA,choice_trial,survey-html-form,13,73626,0.0-4.0-1.4,157,1,2025-05-04T17:37:50Z,b60275e29fe2361ab97ac0ac217840d7,Mozilla/5.0 (Windows NT 10.0; Win64; x64; rv:138.0) Gecko/20100101 Firefox/138.0,NA,Firefox,138,Windows,10,https://5puzkbbxv1.cognition.run/?sona_id=54559,"en-US,en;q=0.5",8ya29pzsp4tcdzo,21,"[""Asian"",""White""]",No,Male,NA,No,467676,NA,9988,NA,"{""product_choice"":""B""}",choice,ctd,trinary,repulsion_B,2,televisions,null,null,null,null,null,null,2,40,30,40,90,100,80,Screen size,Average lifespan,NA,NA
NA,NA,NA,NA,NA,choice_trial_setup,html-keyboard-response,14,73930,0.0-4.0-0.5,157,1,2025-05-04T17:37:50Z,b60275e29fe2361ab97ac0ac217840d7,Mozilla/5.0 (Windows NT 10.0; Win64; x64; rv:138.0) Gecko/20100101 Firefox/138.0,NA,Firefox,138,Windows,10,https://5puzkbbxv1.cognition.run/?sona_id=54559,"en-US,en;q=0.5",8ya29pzsp4tcdzo,21,"[""Asian"",""White""]",No,Male,NA,No,467676,NA,null,<p></p>,null,choice,cdt,trinary,repulsion_B,2,microwave ovens,null,null,null,null,null,null,2,NA,NA,NA,NA,NA,NA,NA,NA,NA,NA
NA,NA,NA,NA,NA,choice_trial,survey-html-form,15,82710,0.0-4.0-1.5,157,1,2025-05-04T17:37:50Z,b60275e29fe2361ab97ac0ac217840d7,Mozilla/5.0 (Windows NT 10.0; Win64; x64; rv:138.0) Gecko/20100101 Firefox/138.0,NA,Firefox,138,Windows,10,https://5puzkbbxv1.cognition.run/?sona_id=54559,"en-US,en;q=0.5",8ya29pzsp4tcdzo,21,"[""Asian"",""White""]",No,Male,NA,No,467676,NA,8779,NA,"{""product_choice"":""C""}",choice,cdt,trinary,repulsion_B,2,microwave ovens,null,null,null,null,null,null,2,40,30,40,90,100,80,Warranty,Cooking power,NA,NA
NA,NA,NA,NA,NA,choice_trial_setup,html-keyboard-response,16,83025,0.0-4.0-0.6,157,1,2025-05-04T17:37:50Z,b60275e29fe2361ab97ac0ac217840d7,Mozilla/5.0 (Windows NT 10.0; Win64; x64; rv:138.0) Gecko/20100101 Firefox/138.0,NA,Firefox,138,Windows,10,https://5puzkbbxv1.cognition.run/?sona_id=54559,"en-US,en;q=0.5",8ya29pzsp4tcdzo,21,"[""Asian"",""White""]",No,Male,NA,No,467676,NA,null,<p></p>,null,choice,tdc,trinary,repulsion_A,1,microwave ovens,null,null,null,null,null,null,2,NA,NA,NA,NA,NA,NA,NA,NA,NA,NA
NA,NA,NA,NA,NA,choice_trial,survey-html-form,17,93353,0.0-4.0-1.6,157,1,2025-05-04T17:37:50Z,b60275e29fe2361ab97ac0ac217840d7,Mozilla/5.0 (Windows NT 10.0; Win64; x64; rv:138.0) Gecko/20100101 Firefox/138.0,NA,Firefox,138,Windows,10,https://5puzkbbxv1.cognition.run/?sona_id=54559,"en-US,en;q=0.5",8ya29pzsp4tcdzo,21,"[""Asian"",""White""]",No,Male,NA,No,467676,NA,10326,NA,"{""product_choice"":""A""}",choice,tdc,trinary,repulsion_A,1,microwave ovens,null,null,null,null,null,null,2,100,90,100,30,40,20,Warranty,Cooking power,NA,NA
NA,NA,NA,NA,NA,choice_trial_setup,html-keyboard-response,18,93666,0.0-4.0-0.7,157,1,2025-05-04T17:37:50Z,b60275e29fe2361ab97ac0ac217840d7,Mozilla/5.0 (Windows NT 10.0; Win64; x64; rv:138.0) Gecko/20100101 Firefox/138.0,NA,Firefox,138,Windows,10,https://5puzkbbxv1.cognition.run/?sona_id=54559,"en-US,en;q=0.5",8ya29pzsp4tcdzo,21,"[""Asian"",""White""]",No,Male,NA,No,467676,NA,null,<p></p>,null,choice,tcd,trinary,repulsion_B,2,laptops,null,null,null,null,null,null,2,NA,NA,NA,NA,NA,NA,NA,NA,NA,NA
NA,NA,NA,NA,NA,choice_trial,survey-html-form,19,99583,0.0-4.0-1.7,157,1,2025-05-04T17:37:50Z,b60275e29fe2361ab97ac0ac217840d7,Mozilla/5.0 (Windows NT 10.0; Win64; x64; rv:138.0) Gecko/20100101 Firefox/138.0,NA,Firefox,138,Windows,10,https://5puzkbbxv1.cognition.run/?sona_id=54559,"en-US,en;q=0.5",8ya29pzsp4tcdzo,21,"[""Asian"",""White""]",No,Male,NA,No,467676,NA,5917,NA,"{""product_choice"":""A""}",choice,tcd,trinary,repulsion_B,2,laptops,null,null,null,null,null,null,2,40,30,40,90,100,80,Processing speed,Memory (RAM),NA,NA
NA,NA,NA,NA,NA,choice_trial_setup,html-keyboard-response,20,99895,0.0-4.0-0.8,157,1,2025-05-04T17:37:50Z,b60275e29fe2361ab97ac0ac217840d7,Mozilla/5.0 (Windows NT 10.0; Win64; x64; rv:138.0) Gecko/20100101 Firefox/138.0,NA,Firefox,138,Windows,10,https://5puzkbbxv1.cognition.run/?sona_id=54559,"en-US,en;q=0.5",8ya29pzsp4tcdzo,21,"[""Asian"",""White""]",No,Male,NA,No,467676,NA,null,<p></p>,null,choice,tcd,trinary,repulsion_B,1,laptops,null,null,null,null,null,null,2,NA,NA,NA,NA,NA,NA,NA,NA,NA,NA
NA,NA,NA,NA,NA,choice_trial,survey-html-form,21,113727,0.0-4.0-1.8,157,1,2025-05-04T17:37:50Z,b60275e29fe2361ab97ac0ac217840d7,Mozilla/5.0 (Windows NT 10.0; Win64; x64; rv:138.0) Gecko/20100101 Firefox/138.0,NA,Firefox,138,Windows,10,https://5puzkbbxv1.cognition.run/?sona_id=54559,"en-US,en;q=0.5",8ya29pzsp4tcdzo,21,"[""Asian"",""White""]",No,Male,NA,No,467676,NA,13831,NA,"{""product_choice"":""A""}",choice,tcd,trinary,repulsion_B,1,laptops,null,null,null,null,null,null,2,90,100,80,40,30,40,Processing speed,Memory (RAM),NA,NA
NA,NA,NA,NA,NA,choice_trial_setup,html-keyboard-response,22,114040,0.0-4.0-0.9,157,1,2025-05-04T17:37:50Z,b60275e29fe2361ab97ac0ac217840d7,Mozilla/5.0 (Windows NT 10.0; Win64; x64; rv:138.0) Gecko/20100101 Firefox/138.0,NA,Firefox,138,Windows,10,https://5puzkbbxv1.cognition.run/?sona_id=54559,"en-US,en;q=0.5",8ya29pzsp4tcdzo,21,"[""Asian"",""White""]",No,Male,NA,No,467676,NA,null,<p></p>,null,choice,dtc,trinary,repulsion_B,2,washing machines,null,null,null,null,null,null,1,NA,NA,NA,NA,NA,NA,NA,NA,NA,NA
NA,NA,NA,NA,NA,choice_trial,survey-html-form,23,124226,0.0-4.0-1.9,157,1,2025-05-04T17:37:50Z,b60275e29fe2361ab97ac0ac217840d7,Mozilla/5.0 (Windows NT 10.0; Win64; x64; rv:138.0) Gecko/20100101 Firefox/138.0,NA,Firefox,138,Windows,10,https://5puzkbbxv1.cognition.run/?sona_id=54559,"en-US,en;q=0.5",8ya29pzsp4tcdzo,21,"[""Asian"",""White""]",No,Male,NA,No,467676,NA,10185,NA,"{""product_choice"":""B""}",choice,dtc,trinary,repulsion_B,2,washing machines,null,null,null,null,null,null,1,40,30,40,90,100,80,Average lifespan,Energy savings,NA,NA
NA,NA,NA,NA,NA,choice_trial_setup,html-keyboard-response,24,124540,0.0-4.0-0.10,157,1,2025-05-04T17:37:50Z,b60275e29fe2361ab97ac0ac217840d7,Mozilla/5.0 (Windows NT 10.0; Win64; x64; rv:138.0) Gecko/20100101 Firefox/138.0,NA,Firefox,138,Windows,10,https://5puzkbbxv1.cognition.run/?sona_id=54559,"en-US,en;q=0.5",8ya29pzsp4tcdzo,21,"[""Asian"",""White""]",No,Male,NA,No,467676,NA,null,<p></p>,null,choice,ct,binary,attraction,NA,laptops,null,null,null,null,null,null,2,NA,NA,NA,NA,NA,NA,NA,NA,NA,NA
NA,NA,NA,NA,NA,choice_trial,survey-html-form,25,129122,0.0-4.0-1.10,157,1,2025-05-04T17:37:50Z,b60275e29fe2361ab97ac0ac217840d7,Mozilla/5.0 (Windows NT 10.0; Win64; x64; rv:138.0) Gecko/20100101 Firefox/138.0,NA,Firefox,138,Windows,10,https://5puzkbbxv1.cognition.run/?sona_id=54559,"en-US,en;q=0.5",8ya29pzsp4tcdzo,21,"[""Asian"",""White""]",No,Male,NA,No,467676,NA,4580,NA,"{""product_choice"":""B""}",choice,ct,binary,attraction,NA,laptops,null,null,null,null,null,null,2,60,50,null,50,60,null,Processing speed,Memory (RAM),NA,NA
NA,NA,NA,NA,NA,choice_trial_setup,html-keyboard-response,26,129436,0.0-4.0-0.11,157,1,2025-05-04T17:37:50Z,b60275e29fe2361ab97ac0ac217840d7,Mozilla/5.0 (Windows NT 10.0; Win64; x64; rv:138.0) Gecko/20100101 Firefox/138.0,NA,Firefox,138,Windows,10,https://5puzkbbxv1.cognition.run/?sona_id=54559,"en-US,en;q=0.5",8ya29pzsp4tcdzo,21,"[""Asian"",""White""]",No,Male,NA,No,467676,NA,null,<p></p>,null,choice,wwb,trinary,catch,null,laptops,55,60,35,20,5,5,2,NA,NA,NA,NA,NA,NA,NA,NA,NA,NA
NA,NA,NA,NA,NA,choice_trial,survey-html-form,27,133184,0.0-4.0-1.11,157,1,2025-05-04T17:37:50Z,b60275e29fe2361ab97ac0ac217840d7,Mozilla/5.0 (Windows NT 10.0; Win64; x64; rv:138.0) Gecko/20100101 Firefox/138.0,NA,Firefox,138,Windows,10,https://5puzkbbxv1.cognition.run/?sona_id=54559,"en-US,en;q=0.5",8ya29pzsp4tcdzo,21,"[""Asian"",""White""]",No,Male,NA,No,467676,NA,3746,NA,"{""product_choice"":""C""}",choice,wwb,trinary,catch,null,laptops,55,60,35,20,5,5,2,null,null,null,null,null,null,Processing speed,Memory (RAM),NA,NA
NA,NA,NA,NA,NA,choice_trial_setup,html-keyboard-response,28,133497,0.0-4.0-0.12,157,1,2025-05-04T17:37:50Z,b60275e29fe2361ab97ac0ac217840d7,Mozilla/5.0 (Windows NT 10.0; Win64; x64; rv:138.0) Gecko/20100101 Firefox/138.0,NA,Firefox,138,Windows,10,https://5puzkbbxv1.cognition.run/?sona_id=54559,"en-US,en;q=0.5",8ya29pzsp4tcdzo,21,"[""Asian"",""White""]",No,Male,NA,No,467676,NA,null,<p></p>,null,choice,tcd,trinary,attraction,2,microwave ovens,null,null,null,null,null,null,1,NA,NA,NA,NA,NA,NA,NA,NA,NA,NA
NA,NA,NA,NA,NA,choice_trial,survey-html-form,29,140866,0.0-4.0-1.12,157,1,2025-05-04T17:37:50Z,b60275e29fe2361ab97ac0ac217840d7,Mozilla/5.0 (Windows NT 10.0; Win64; x64; rv:138.0) Gecko/20100101 Firefox/138.0,NA,Firefox,138,Windows,10,https://5puzkbbxv1.cognition.run/?sona_id=54559,"en-US,en;q=0.5",8ya29pzsp4tcdzo,21,"[""Asian"",""White""]",No,Male,NA,No,467676,NA,7366,NA,"{""product_choice"":""A""}",choice,tcd,trinary,attraction,2,microwave ovens,null,null,null,null,null,null,1,50,60,40,60,50,60,Warranty,Cooking power,NA,NA
NA,NA,NA,NA,NA,choice_trial_setup,html-keyboard-response,30,141170,0.0-4.0-0.13,157,1,2025-05-04T17:37:50Z,b60275e29fe2361ab97ac0ac217840d7,Mozilla/5.0 (Windows NT 10.0; Win64; x64; rv:138.0) Gecko/20100101 Firefox/138.0,NA,Firefox,138,Windows,10,https://5puzkbbxv1.cognition.run/?sona_id=54559,"en-US,en;q=0.5",8ya29pzsp4tcdzo,21,"[""Asian"",""White""]",No,Male,NA,No,467676,NA,null,<p></p>,null,choice,tcd,trinary,repulsion_B,1,televisions,null,null,null,null,null,null,1,NA,NA,NA,NA,NA,NA,NA,NA,NA,NA
NA,NA,NA,NA,NA,choice_trial,survey-html-form,31,150795,0.0-4.0-1.13,157,1,2025-05-04T17:37:50Z,b60275e29fe2361ab97ac0ac217840d7,Mozilla/5.0 (Windows NT 10.0; Win64; x64; rv:138.0) Gecko/20100101 Firefox/138.0,NA,Firefox,138,Windows,10,https://5puzkbbxv1.cognition.run/?sona_id=54559,"en-US,en;q=0.5",8ya29pzsp4tcdzo,21,"[""Asian"",""White""]",No,Male,NA,No,467676,NA,9623,NA,"{""product_choice"":""A""}",choice,tcd,trinary,repulsion_B,1,televisions,null,null,null,null,null,null,1,90,100,80,40,30,40,Screen size,Average lifespan,NA,NA
NA,NA,NA,NA,NA,choice_trial_setup,html-keyboard-response,32,151097,0.0-4.0-0.14,157,1,2025-05-04T17:37:50Z,b60275e29fe2361ab97ac0ac217840d7,Mozilla/5.0 (Windows NT 10.0; Win64; x64; rv:138.0) Gecko/20100101 Firefox/138.0,NA,Firefox,138,Windows,10,https://5puzkbbxv1.cognition.run/?sona_id=54559,"en-US,en;q=0.5",8ya29pzsp4tcdzo,21,"[""Asian"",""White""]",No,Male,NA,No,467676,NA,null,<p></p>,null,choice,bw,binary,catch,null,washing machines,60,75,35,40,null,null,2,NA,NA,NA,NA,NA,NA,NA,NA,NA,NA
NA,NA,NA,NA,NA,choice_trial,survey-html-form,33,156267,0.0-4.0-1.14,157,1,2025-05-04T17:37:50Z,b60275e29fe2361ab97ac0ac217840d7,Mozilla/5.0 (Windows NT 10.0; Win64; x64; rv:138.0) Gecko/20100101 Firefox/138.0,NA,Firefox,138,Windows,10,https://5puzkbbxv1.cognition.run/?sona_id=54559,"en-US,en;q=0.5",8ya29pzsp4tcdzo,21,"[""Asian"",""White""]",No,Male,NA,No,467676,NA,5169,NA,"{""product_choice"":""A""}",choice,bw,binary,catch,null,washing machines,60,75,35,40,null,null,2,null,null,null,null,null,null,Average lifespan,Energy savings,NA,NA
NA,NA,NA,NA,NA,choice_trial_setup,html-keyboard-response,34,156580,0.0-4.0-0.15,157,1,2025-05-04T17:37:50Z,b60275e29fe2361ab97ac0ac217840d7,Mozilla/5.0 (Windows NT 10.0; Win64; x64; rv:138.0) Gecko/20100101 Firefox/138.0,NA,Firefox,138,Windows,10,https://5puzkbbxv1.cognition.run/?sona_id=54559,"en-US,en;q=0.5",8ya29pzsp4tcdzo,21,"[""Asian"",""White""]",No,Male,NA,No,467676,NA,null,<p></p>,null,choice,tc,binary,attraction,NA,microwave ovens,null,null,null,null,null,null,1,NA,NA,NA,NA,NA,NA,NA,NA,NA,NA
NA,NA,NA,NA,NA,choice_trial,survey-html-form,35,166453,0.0-4.0-1.15,157,1,2025-05-04T17:37:50Z,b60275e29fe2361ab97ac0ac217840d7,Mozilla/5.0 (Windows NT 10.0; Win64; x64; rv:138.0) Gecko/20100101 Firefox/138.0,NA,Firefox,138,Windows,10,https://5puzkbbxv1.cognition.run/?sona_id=54559,"en-US,en;q=0.5",8ya29pzsp4tcdzo,21,"[""Asian"",""White""]",No,Male,NA,No,467676,NA,9871,NA,"{""product_choice"":""B""}",choice,tc,binary,attraction,NA,microwave ovens,null,null,null,null,null,null,1,60,50,null,50,60,null,Warranty,Cooking power,NA,NA
NA,NA,NA,NA,NA,choice_trial_setup,html-keyboard-response,36,166784,0.0-4.0-0.16,157,1,2025-05-04T17:37:50Z,b60275e29fe2361ab97ac0ac217840d7,Mozilla/5.0 (Windows NT 10.0; Win64; x64; rv:138.0) Gecko/20100101 Firefox/138.0,NA,Firefox,138,Windows,10,https://5puzkbbxv1.cognition.run/?sona_id=54559,"en-US,en;q=0.5",8ya29pzsp4tcdzo,21,"[""Asian"",""White""]",No,Male,NA,No,467676,NA,null,<p></p>,null,choice,dct,trinary,repulsion_A,1,televisions,null,null,null,null,null,null,2,NA,NA,NA,NA,NA,NA,NA,NA,NA,NA
NA,NA,NA,NA,NA,choice_trial,survey-html-form,37,171559,0.0-4.0-1.16,157,1,2025-05-04T17:37:50Z,b60275e29fe2361ab97ac0ac217840d7,Mozilla/5.0 (Windows NT 10.0; Win64; x64; rv:138.0) Gecko/20100101 Firefox/138.0,NA,Firefox,138,Windows,10,https://5puzkbbxv1.cognition.run/?sona_id=54559,"en-US,en;q=0.5",8ya29pzsp4tcdzo,21,"[""Asian"",""White""]",No,Male,NA,No,467676,NA,4772,NA,"{""product_choice"":""B""}",choice,dct,trinary,repulsion_A,1,televisions,null,null,null,null,null,null,2,100,90,100,30,40,20,Screen size,Average lifespan,NA,NA
NA,NA,NA,NA,NA,choice_trial_setup,html-keyboard-response,38,171874,0.0-4.0-0.17,157,1,2025-05-04T17:37:50Z,b60275e29fe2361ab97ac0ac217840d7,Mozilla/5.0 (Windows NT 10.0; Win64; x64; rv:138.0) Gecko/20100101 Firefox/138.0,NA,Firefox,138,Windows,10,https://5puzkbbxv1.cognition.run/?sona_id=54559,"en-US,en;q=0.5",8ya29pzsp4tcdzo,21,"[""Asian"",""White""]",No,Male,NA,No,467676,NA,null,<p></p>,null,choice,ct,binary,repulsion,1,washing machines,null,null,null,null,null,null,2,NA,NA,NA,NA,NA,NA,NA,NA,NA,NA
NA,NA,NA,NA,NA,choice_trial,survey-html-form,39,176504,0.0-4.0-1.17,157,1,2025-05-04T17:37:50Z,b60275e29fe2361ab97ac0ac217840d7,Mozilla/5.0 (Windows NT 10.0; Win64; x64; rv:138.0) Gecko/20100101 Firefox/138.0,NA,Firefox,138,Windows,10,https://5puzkbbxv1.cognition.run/?sona_id=54559,"en-US,en;q=0.5",8ya29pzsp4tcdzo,21,"[""Asian"",""White""]",No,Male,NA,No,467676,NA,4628,NA,"{""product_choice"":""B""}",choice,ct,binary,repulsion,1,washing machines,null,null,null,null,null,null,2,100,90,null,30,40,null,Average lifespan,Energy savings,NA,NA
NA,NA,NA,NA,NA,choice_trial_setup,html-keyboard-response,40,176818,0.0-4.0-0.18,157,1,2025-05-04T17:37:50Z,b60275e29fe2361ab97ac0ac217840d7,Mozilla/5.0 (Windows NT 10.0; Win64; x64; rv:138.0) Gecko/20100101 Firefox/138.0,NA,Firefox,138,Windows,10,https://5puzkbbxv1.cognition.run/?sona_id=54559,"en-US,en;q=0.5",8ya29pzsp4tcdzo,21,"[""Asian"",""White""]",No,Male,NA,No,467676,NA,null,<p></p>,null,choice,bw,binary,catch,null,microwave ovens,50,95,25,15,null,null,2,NA,NA,NA,NA,NA,NA,NA,NA,NA,NA
NA,NA,NA,NA,NA,choice_trial,survey-html-form,41,180017,0.0-4.0-1.18,157,1,2025-05-04T17:37:50Z,b60275e29fe2361ab97ac0ac217840d7,Mozilla/5.0 (Windows NT 10.0; Win64; x64; rv:138.0) Gecko/20100101 Firefox/138.0,NA,Firefox,138,Windows,10,https://5puzkbbxv1.cognition.run/?sona_id=54559,"en-US,en;q=0.5",8ya29pzsp4tcdzo,21,"[""Asian"",""White""]",No,Male,NA,No,467676,NA,3197,NA,"{""product_choice"":""A""}",choice,bw,binary,catch,null,microwave ovens,50,95,25,15,null,null,2,null,null,null,null,null,null,Warranty,Cooking power,NA,NA
NA,NA,NA,NA,NA,choice_trial_setup,html-keyboard-response,42,180333,0.0-4.0-0.19,157,1,2025-05-04T17:37:50Z,b60275e29fe2361ab97ac0ac217840d7,Mozilla/5.0 (Windows NT 10.0; Win64; x64; rv:138.0) Gecko/20100101 Firefox/138.0,NA,Firefox,138,Windows,10,https://5puzkbbxv1.cognition.run/?sona_id=54559,"en-US,en;q=0.5",8ya29pzsp4tcdzo,21,"[""Asian"",""White""]",No,Male,NA,No,467676,NA,null,<p></p>,null,choice,dct,trinary,attraction,1,washing machines,null,null,null,null,null,null,2,NA,NA,NA,NA,NA,NA,NA,NA,NA,NA
NA,NA,NA,NA,NA,choice_trial,survey-html-form,43,186083,0.0-4.0-1.19,157,1,2025-05-04T17:37:50Z,b60275e29fe2361ab97ac0ac217840d7,Mozilla/5.0 (Windows NT 10.0; Win64; x64; rv:138.0) Gecko/20100101 Firefox/138.0,NA,Firefox,138,Windows,10,https://5puzkbbxv1.cognition.run/?sona_id=54559,"en-US,en;q=0.5",8ya29pzsp4tcdzo,21,"[""Asian"",""White""]",No,Male,NA,No,467676,NA,5749,NA,"{""product_choice"":""C""}",choice,dct,trinary,attraction,1,washing machines,null,null,null,null,null,null,2,60,50,60,50,60,40,Average lifespan,Energy savings,NA,NA
NA,NA,NA,NA,NA,choice_trial_setup,html-keyboard-response,44,186389,0.0-4.0-0.20,157,1,2025-05-04T17:37:50Z,b60275e29fe2361ab97ac0ac217840d7,Mozilla/5.0 (Windows NT 10.0; Win64; x64; rv:138.0) Gecko/20100101 Firefox/138.0,NA,Firefox,138,Windows,10,https://5puzkbbxv1.cognition.run/?sona_id=54559,"en-US,en;q=0.5",8ya29pzsp4tcdzo,21,"[""Asian"",""White""]",No,Male,NA,No,467676,NA,null,<p></p>,null,choice,tcd,trinary,attraction,2,washing machines,null,null,null,null,null,null,2,NA,NA,NA,NA,NA,NA,NA,NA,NA,NA
NA,NA,NA,NA,NA,choice_trial,survey-html-form,45,190062,0.0-4.0-1.20,157,1,2025-05-04T17:37:50Z,b60275e29fe2361ab97ac0ac217840d7,Mozilla/5.0 (Windows NT 10.0; Win64; x64; rv:138.0) Gecko/20100101 Firefox/138.0,NA,Firefox,138,Windows,10,https://5puzkbbxv1.cognition.run/?sona_id=54559,"en-US,en;q=0.5",8ya29pzsp4tcdzo,21,"[""Asian"",""White""]",No,Male,NA,No,467676,NA,3670,NA,"{""product_choice"":""B""}",choice,tcd,trinary,attraction,2,washing machines,null,null,null,null,null,null,2,50,60,40,60,50,60,Average lifespan,Energy savings,NA,NA
NA,NA,NA,NA,NA,choice_trial_setup,html-keyboard-response,46,190375,0.0-4.0-0.21,157,1,2025-05-04T17:37:50Z,b60275e29fe2361ab97ac0ac217840d7,Mozilla/5.0 (Windows NT 10.0; Win64; x64; rv:138.0) Gecko/20100101 Firefox/138.0,NA,Firefox,138,Windows,10,https://5puzkbbxv1.cognition.run/?sona_id=54559,"en-US,en;q=0.5",8ya29pzsp4tcdzo,21,"[""Asian"",""White""]",No,Male,NA,No,467676,NA,null,<p></p>,null,choice,ct,binary,attraction,NA,washing machines,null,null,null,null,null,null,1,NA,NA,NA,NA,NA,NA,NA,NA,NA,NA
NA,NA,NA,NA,NA,choice_trial,survey-html-form,47,194399,0.0-4.0-1.21,157,1,2025-05-04T17:37:50Z,b60275e29fe2361ab97ac0ac217840d7,Mozilla/5.0 (Windows NT 10.0; Win64; x64; rv:138.0) Gecko/20100101 Firefox/138.0,NA,Firefox,138,Windows,10,https://5puzkbbxv1.cognition.run/?sona_id=54559,"en-US,en;q=0.5",8ya29pzsp4tcdzo,21,"[""Asian"",""White""]",No,Male,NA,No,467676,NA,4023,NA,"{""product_choice"":""B""}",choice,ct,binary,attraction,NA,washing machines,null,null,null,null,null,null,1,60,50,null,50,60,null,Average lifespan,Energy savings,NA,NA
NA,NA,NA,NA,NA,choice_trial_setup,html-keyboard-response,48,194705,0.0-4.0-0.22,157,1,2025-05-04T17:37:50Z,b60275e29fe2361ab97ac0ac217840d7,Mozilla/5.0 (Windows NT 10.0; Win64; x64; rv:138.0) Gecko/20100101 Firefox/138.0,NA,Firefox,138,Windows,10,https://5puzkbbxv1.cognition.run/?sona_id=54559,"en-US,en;q=0.5",8ya29pzsp4tcdzo,21,"[""Asian"",""White""]",No,Male,NA,No,467676,NA,null,<p></p>,null,choice,dtc,trinary,attraction,1,laptops,null,null,null,null,null,null,1,NA,NA,NA,NA,NA,NA,NA,NA,NA,NA
NA,NA,NA,NA,NA,choice_trial,survey-html-form,49,200053,0.0-4.0-1.22,157,1,2025-05-04T17:37:50Z,b60275e29fe2361ab97ac0ac217840d7,Mozilla/5.0 (Windows NT 10.0; Win64; x64; rv:138.0) Gecko/20100101 Firefox/138.0,NA,Firefox,138,Windows,10,https://5puzkbbxv1.cognition.run/?sona_id=54559,"en-US,en;q=0.5",8ya29pzsp4tcdzo,21,"[""Asian"",""White""]",No,Male,NA,No,467676,NA,5346,NA,"{""product_choice"":""B""}",choice,dtc,trinary,attraction,1,laptops,null,null,null,null,null,null,1,60,50,60,50,60,40,Processing speed,Memory (RAM),NA,NA
NA,NA,NA,NA,NA,choice_trial_setup,html-keyboard-response,50,200367,0.0-4.0-0.23,157,1,2025-05-04T17:37:50Z,b60275e29fe2361ab97ac0ac217840d7,Mozilla/5.0 (Windows NT 10.0; Win64; x64; rv:138.0) Gecko/20100101 Firefox/138.0,NA,Firefox,138,Windows,10,https://5puzkbbxv1.cognition.run/?sona_id=54559,"en-US,en;q=0.5",8ya29pzsp4tcdzo,21,"[""Asian"",""White""]",No,Male,NA,No,467676,NA,null,<p></p>,null,choice,wwb,trinary,catch,null,microwave ovens,85,75,20,50,20,5,2,NA,NA,NA,NA,NA,NA,NA,NA,NA,NA
NA,NA,NA,NA,NA,choice_trial,survey-html-form,51,203669,0.0-4.0-1.23,157,1,2025-05-04T17:37:50Z,b60275e29fe2361ab97ac0ac217840d7,Mozilla/5.0 (Windows NT 10.0; Win64; x64; rv:138.0) Gecko/20100101 Firefox/138.0,NA,Firefox,138,Windows,10,https://5puzkbbxv1.cognition.run/?sona_id=54559,"en-US,en;q=0.5",8ya29pzsp4tcdzo,21,"[""Asian"",""White""]",No,Male,NA,No,467676,NA,3300,NA,"{""product_choice"":""C""}",choice,wwb,trinary,catch,null,microwave ovens,85,75,20,50,20,5,2,null,null,null,null,null,null,Warranty,Cooking power,NA,NA
NA,NA,NA,NA,NA,choice_trial_setup,html-keyboard-response,52,203981,0.0-4.0-0.24,157,1,2025-05-04T17:37:50Z,b60275e29fe2361ab97ac0ac217840d7,Mozilla/5.0 (Windows NT 10.0; Win64; x64; rv:138.0) Gecko/20100101 Firefox/138.0,NA,Firefox,138,Windows,10,https://5puzkbbxv1.cognition.run/?sona_id=54559,"en-US,en;q=0.5",8ya29pzsp4tcdzo,21,"[""Asian"",""White""]",No,Male,NA,No,467676,NA,null,<p></p>,null,choice,tdc,trinary,repulsion_A,1,washing machines,null,null,null,null,null,null,2,NA,NA,NA,NA,NA,NA,NA,NA,NA,NA
NA,NA,NA,NA,NA,choice_trial,survey-html-form,53,209542,0.0-4.0-1.24,157,1,2025-05-04T17:37:50Z,b60275e29fe2361ab97ac0ac217840d7,Mozilla/5.0 (Windows NT 10.0; Win64; x64; rv:138.0) Gecko/20100101 Firefox/138.0,NA,Firefox,138,Windows,10,https://5puzkbbxv1.cognition.run/?sona_id=54559,"en-US,en;q=0.5",8ya29pzsp4tcdzo,21,"[""Asian"",""White""]",No,Male,NA,No,467676,NA,5558,NA,"{""product_choice"":""A""}",choice,tdc,trinary,repulsion_A,1,washing machines,null,null,null,null,null,null,2,100,90,100,30,40,20,Average lifespan,Energy savings,NA,NA
NA,NA,NA,NA,NA,choice_trial_setup,html-keyboard-response,54,209844,0.0-4.0-0.25,157,1,2025-05-04T17:37:50Z,b60275e29fe2361ab97ac0ac217840d7,Mozilla/5.0 (Windows NT 10.0; Win64; x64; rv:138.0) Gecko/20100101 Firefox/138.0,NA,Firefox,138,Windows,10,https://5puzkbbxv1.cognition.run/?sona_id=54559,"en-US,en;q=0.5",8ya29pzsp4tcdzo,21,"[""Asian"",""White""]",No,Male,NA,No,467676,NA,null,<p></p>,null,choice,dct,trinary,attraction,1,televisions,null,null,null,null,null,null,2,NA,NA,NA,NA,NA,NA,NA,NA,NA,NA
NA,NA,NA,NA,NA,choice_trial,survey-html-form,55,216699,0.0-4.0-1.25,157,1,2025-05-04T17:37:50Z,b60275e29fe2361ab97ac0ac217840d7,Mozilla/5.0 (Windows NT 10.0; Win64; x64; rv:138.0) Gecko/20100101 Firefox/138.0,NA,Firefox,138,Windows,10,https://5puzkbbxv1.cognition.run/?sona_id=54559,"en-US,en;q=0.5",8ya29pzsp4tcdzo,21,"[""Asian"",""White""]",No,Male,NA,No,467676,NA,6853,NA,"{""product_choice"":""B""}",choice,dct,trinary,attraction,1,televisions,null,null,null,null,null,null,2,60,50,60,50,60,40,Screen size,Average lifespan,NA,NA
NA,NA,NA,NA,NA,choice_trial_setup,html-keyboard-response,56,217010,0.0-4.0-0.26,157,1,2025-05-04T17:37:50Z,b60275e29fe2361ab97ac0ac217840d7,Mozilla/5.0 (Windows NT 10.0; Win64; x64; rv:138.0) Gecko/20100101 Firefox/138.0,NA,Firefox,138,Windows,10,https://5puzkbbxv1.cognition.run/?sona_id=54559,"en-US,en;q=0.5",8ya29pzsp4tcdzo,21,"[""Asian"",""White""]",No,Male,NA,No,467676,NA,null,<p></p>,null,choice,dct,trinary,repulsion_A,2,televisions,null,null,null,null,null,null,1,NA,NA,NA,NA,NA,NA,NA,NA,NA,NA
NA,NA,NA,NA,NA,choice_trial,survey-html-form,57,220572,0.0-4.0-1.26,157,1,2025-05-04T17:37:50Z,b60275e29fe2361ab97ac0ac217840d7,Mozilla/5.0 (Windows NT 10.0; Win64; x64; rv:138.0) Gecko/20100101 Firefox/138.0,NA,Firefox,138,Windows,10,https://5puzkbbxv1.cognition.run/?sona_id=54559,"en-US,en;q=0.5",8ya29pzsp4tcdzo,21,"[""Asian"",""White""]",No,Male,NA,No,467676,NA,3560,NA,"{""product_choice"":""C""}",choice,dct,trinary,repulsion_A,2,televisions,null,null,null,null,null,null,1,30,40,20,100,90,100,Screen size,Average lifespan,NA,NA
NA,NA,NA,NA,NA,choice_trial_setup,html-keyboard-response,58,220879,0.0-4.0-0.27,157,1,2025-05-04T17:37:50Z,b60275e29fe2361ab97ac0ac217840d7,Mozilla/5.0 (Windows NT 10.0; Win64; x64; rv:138.0) Gecko/20100101 Firefox/138.0,NA,Firefox,138,Windows,10,https://5puzkbbxv1.cognition.run/?sona_id=54559,"en-US,en;q=0.5",8ya29pzsp4tcdzo,21,"[""Asian"",""White""]",No,Male,NA,No,467676,NA,null,<p></p>,null,choice,dtc,trinary,repulsion_A,2,washing machines,null,null,null,null,null,null,1,NA,NA,NA,NA,NA,NA,NA,NA,NA,NA
NA,NA,NA,NA,NA,choice_trial,survey-html-form,59,232477,0.0-4.0-1.27,157,1,2025-05-04T17:37:50Z,b60275e29fe2361ab97ac0ac217840d7,Mozilla/5.0 (Windows NT 10.0; Win64; x64; rv:138.0) Gecko/20100101 Firefox/138.0,NA,Firefox,138,Windows,10,https://5puzkbbxv1.cognition.run/?sona_id=54559,"en-US,en;q=0.5",8ya29pzsp4tcdzo,21,"[""Asian"",""White""]",No,Male,NA,No,467676,NA,11598,NA,"{""product_choice"":""C""}",choice,dtc,trinary,repulsion_A,2,washing machines,null,null,null,null,null,null,1,30,40,20,100,90,100,Average lifespan,Energy savings,NA,NA
NA,NA,NA,NA,NA,choice_trial_setup,html-keyboard-response,60,232794,0.0-4.0-0.28,157,1,2025-05-04T17:37:50Z,b60275e29fe2361ab97ac0ac217840d7,Mozilla/5.0 (Windows NT 10.0; Win64; x64; rv:138.0) Gecko/20100101 Firefox/138.0,NA,Firefox,138,Windows,10,https://5puzkbbxv1.cognition.run/?sona_id=54559,"en-US,en;q=0.5",8ya29pzsp4tcdzo,21,"[""Asian"",""White""]",No,Male,NA,No,467676,NA,null,<p></p>,null,choice,ctd,trinary,repulsion_B,1,microwave ovens,null,null,null,null,null,null,2,NA,NA,NA,NA,NA,NA,NA,NA,NA,NA
NA,NA,NA,NA,NA,choice_trial,survey-html-form,61,238640,0.0-4.0-1.28,157,1,2025-05-04T17:37:50Z,b60275e29fe2361ab97ac0ac217840d7,Mozilla/5.0 (Windows NT 10.0; Win64; x64; rv:138.0) Gecko/20100101 Firefox/138.0,NA,Firefox,138,Windows,10,https://5puzkbbxv1.cognition.run/?sona_id=54559,"en-US,en;q=0.5",8ya29pzsp4tcdzo,21,"[""Asian"",""White""]",No,Male,NA,No,467676,NA,5844,NA,"{""product_choice"":""B""}",choice,ctd,trinary,repulsion_B,1,microwave ovens,null,null,null,null,null,null,2,90,100,80,40,30,40,Warranty,Cooking power,NA,NA
NA,NA,NA,NA,NA,choice_trial_setup,html-keyboard-response,62,238949,0.0-4.0-0.29,157,1,2025-05-04T17:37:50Z,b60275e29fe2361ab97ac0ac217840d7,Mozilla/5.0 (Windows NT 10.0; Win64; x64; rv:138.0) Gecko/20100101 Firefox/138.0,NA,Firefox,138,Windows,10,https://5puzkbbxv1.cognition.run/?sona_id=54559,"en-US,en;q=0.5",8ya29pzsp4tcdzo,21,"[""Asian"",""White""]",No,Male,NA,No,467676,NA,null,<p></p>,null,choice,tdc,trinary,attraction,2,televisions,null,null,null,null,null,null,2,NA,NA,NA,NA,NA,NA,NA,NA,NA,NA
NA,NA,NA,NA,NA,choice_trial,survey-html-form,63,244535,0.0-4.0-1.29,157,1,2025-05-04T17:37:50Z,b60275e29fe2361ab97ac0ac217840d7,Mozilla/5.0 (Windows NT 10.0; Win64; x64; rv:138.0) Gecko/20100101 Firefox/138.0,NA,Firefox,138,Windows,10,https://5puzkbbxv1.cognition.run/?sona_id=54559,"en-US,en;q=0.5",8ya29pzsp4tcdzo,21,"[""Asian"",""White""]",No,Male,NA,No,467676,NA,5582,NA,"{""product_choice"":""A""}",choice,tdc,trinary,attraction,2,televisions,null,null,null,null,null,null,2,50,60,40,60,50,60,Screen size,Average lifespan,NA,NA
NA,NA,NA,NA,NA,choice_trial_setup,html-keyboard-response,64,244844,0.0-4.0-0.30,157,1,2025-05-04T17:37:50Z,b60275e29fe2361ab97ac0ac217840d7,Mozilla/5.0 (Windows NT 10.0; Win64; x64; rv:138.0) Gecko/20100101 Firefox/138.0,NA,Firefox,138,Windows,10,https://5puzkbbxv1.cognition.run/?sona_id=54559,"en-US,en;q=0.5",8ya29pzsp4tcdzo,21,"[""Asian"",""White""]",No,Male,NA,No,467676,NA,null,<p></p>,null,choice,bww,trinary,catch,null,washing machines,75,65,50,50,30,30,1,NA,NA,NA,NA,NA,NA,NA,NA,NA,NA
NA,NA,NA,NA,NA,choice_trial,survey-html-form,65,248354,0.0-4.0-1.30,157,1,2025-05-04T17:37:50Z,b60275e29fe2361ab97ac0ac217840d7,Mozilla/5.0 (Windows NT 10.0; Win64; x64; rv:138.0) Gecko/20100101 Firefox/138.0,NA,Firefox,138,Windows,10,https://5puzkbbxv1.cognition.run/?sona_id=54559,"en-US,en;q=0.5",8ya29pzsp4tcdzo,21,"[""Asian"",""White""]",No,Male,NA,No,467676,NA,3509,NA,"{""product_choice"":""A""}",choice,bww,trinary,catch,null,washing machines,75,65,50,50,30,30,1,null,null,null,null,null,null,Average lifespan,Energy savings,NA,NA
NA,NA,NA,NA,NA,choice_trial_setup,html-keyboard-response,66,248658,0.0-4.0-0.31,157,1,2025-05-04T17:37:50Z,b60275e29fe2361ab97ac0ac217840d7,Mozilla/5.0 (Windows NT 10.0; Win64; x64; rv:138.0) Gecko/20100101 Firefox/138.0,NA,Firefox,138,Windows,10,https://5puzkbbxv1.cognition.run/?sona_id=54559,"en-US,en;q=0.5",8ya29pzsp4tcdzo,21,"[""Asian"",""White""]",No,Male,NA,No,467676,NA,null,<p></p>,null,choice,tc,binary,repulsion,1,microwave ovens,null,null,null,null,null,null,1,NA,NA,NA,NA,NA,NA,NA,NA,NA,NA
NA,NA,NA,NA,NA,choice_trial,survey-html-form,67,251809,0.0-4.0-1.31,157,1,2025-05-04T17:37:50Z,b60275e29fe2361ab97ac0ac217840d7,Mozilla/5.0 (Windows NT 10.0; Win64; x64; rv:138.0) Gecko/20100101 Firefox/138.0,NA,Firefox,138,Windows,10,https://5puzkbbxv1.cognition.run/?sona_id=54559,"en-US,en;q=0.5",8ya29pzsp4tcdzo,21,"[""Asian"",""White""]",No,Male,NA,No,467676,NA,3149,NA,"{""product_choice"":""B""}",choice,tc,binary,repulsion,1,microwave ovens,null,null,null,null,null,null,1,100,90,null,30,40,null,Warranty,Cooking power,NA,NA
NA,NA,NA,NA,NA,choice_trial_setup,html-keyboard-response,68,252125,0.0-4.0-0.32,157,1,2025-05-04T17:37:50Z,b60275e29fe2361ab97ac0ac217840d7,Mozilla/5.0 (Windows NT 10.0; Win64; x64; rv:138.0) Gecko/20100101 Firefox/138.0,NA,Firefox,138,Windows,10,https://5puzkbbxv1.cognition.run/?sona_id=54559,"en-US,en;q=0.5",8ya29pzsp4tcdzo,21,"[""Asian"",""White""]",No,Male,NA,No,467676,NA,null,<p></p>,null,choice,tc,binary,repulsion,2,televisions,null,null,null,null,null,null,1,NA,NA,NA,NA,NA,NA,NA,NA,NA,NA
NA,NA,NA,NA,NA,choice_trial,survey-html-form,69,254963,0.0-4.0-1.32,157,1,2025-05-04T17:37:50Z,b60275e29fe2361ab97ac0ac217840d7,Mozilla/5.0 (Windows NT 10.0; Win64; x64; rv:138.0) Gecko/20100101 Firefox/138.0,NA,Firefox,138,Windows,10,https://5puzkbbxv1.cognition.run/?sona_id=54559,"en-US,en;q=0.5",8ya29pzsp4tcdzo,21,"[""Asian"",""White""]",No,Male,NA,No,467676,NA,2835,NA,"{""product_choice"":""A""}",choice,tc,binary,repulsion,2,televisions,null,null,null,null,null,null,1,30,40,null,100,90,null,Screen size,Average lifespan,NA,NA
NA,NA,NA,NA,NA,choice_trial_setup,html-keyboard-response,70,255279,0.0-4.0-0.33,157,1,2025-05-04T17:37:50Z,b60275e29fe2361ab97ac0ac217840d7,Mozilla/5.0 (Windows NT 10.0; Win64; x64; rv:138.0) Gecko/20100101 Firefox/138.0,NA,Firefox,138,Windows,10,https://5puzkbbxv1.cognition.run/?sona_id=54559,"en-US,en;q=0.5",8ya29pzsp4tcdzo,21,"[""Asian"",""White""]",No,Male,NA,No,467676,NA,null,<p></p>,null,choice,tcd,trinary,repulsion_A,2,microwave ovens,null,null,null,null,null,null,2,NA,NA,NA,NA,NA,NA,NA,NA,NA,NA
NA,NA,NA,NA,NA,choice_trial,survey-html-form,71,263265,0.0-4.0-1.33,157,1,2025-05-04T17:37:50Z,b60275e29fe2361ab97ac0ac217840d7,Mozilla/5.0 (Windows NT 10.0; Win64; x64; rv:138.0) Gecko/20100101 Firefox/138.0,NA,Firefox,138,Windows,10,https://5puzkbbxv1.cognition.run/?sona_id=54559,"en-US,en;q=0.5",8ya29pzsp4tcdzo,21,"[""Asian"",""White""]",No,Male,NA,No,467676,NA,7984,NA,"{""product_choice"":""A""}",choice,tcd,trinary,repulsion_A,2,microwave ovens,null,null,null,null,null,null,2,30,40,20,100,90,100,Warranty,Cooking power,NA,NA
NA,NA,NA,NA,NA,choice_trial_setup,html-keyboard-response,72,263584,0.0-4.0-0.34,157,1,2025-05-04T17:37:50Z,b60275e29fe2361ab97ac0ac217840d7,Mozilla/5.0 (Windows NT 10.0; Win64; x64; rv:138.0) Gecko/20100101 Firefox/138.0,NA,Firefox,138,Windows,10,https://5puzkbbxv1.cognition.run/?sona_id=54559,"en-US,en;q=0.5",8ya29pzsp4tcdzo,21,"[""Asian"",""White""]",No,Male,NA,No,467676,NA,null,<p></p>,null,choice,tc,binary,repulsion,1,televisions,null,null,null,null,null,null,2,NA,NA,NA,NA,NA,NA,NA,NA,NA,NA
NA,NA,NA,NA,NA,choice_trial,survey-html-form,73,266555,0.0-4.0-1.34,157,1,2025-05-04T17:37:50Z,b60275e29fe2361ab97ac0ac217840d7,Mozilla/5.0 (Windows NT 10.0; Win64; x64; rv:138.0) Gecko/20100101 Firefox/138.0,NA,Firefox,138,Windows,10,https://5puzkbbxv1.cognition.run/?sona_id=54559,"en-US,en;q=0.5",8ya29pzsp4tcdzo,21,"[""Asian"",""White""]",No,Male,NA,No,467676,NA,2968,NA,"{""product_choice"":""B""}",choice,tc,binary,repulsion,1,televisions,null,null,null,null,null,null,2,100,90,null,30,40,null,Screen size,Average lifespan,NA,NA
NA,NA,NA,NA,NA,choice_trial_setup,html-keyboard-response,74,266860,0.0-4.0-0.35,157,1,2025-05-04T17:37:50Z,b60275e29fe2361ab97ac0ac217840d7,Mozilla/5.0 (Windows NT 10.0; Win64; x64; rv:138.0) Gecko/20100101 Firefox/138.0,NA,Firefox,138,Windows,10,https://5puzkbbxv1.cognition.run/?sona_id=54559,"en-US,en;q=0.5",8ya29pzsp4tcdzo,21,"[""Asian"",""White""]",No,Male,NA,No,467676,NA,null,<p></p>,null,choice,tc,binary,repulsion,2,laptops,null,null,null,null,null,null,1,NA,NA,NA,NA,NA,NA,NA,NA,NA,NA
NA,NA,NA,NA,NA,choice_trial,survey-html-form,75,270888,0.0-4.0-1.35,157,1,2025-05-04T17:37:50Z,b60275e29fe2361ab97ac0ac217840d7,Mozilla/5.0 (Windows NT 10.0; Win64; x64; rv:138.0) Gecko/20100101 Firefox/138.0,NA,Firefox,138,Windows,10,https://5puzkbbxv1.cognition.run/?sona_id=54559,"en-US,en;q=0.5",8ya29pzsp4tcdzo,21,"[""Asian"",""White""]",No,Male,NA,No,467676,NA,4026,NA,"{""product_choice"":""B""}",choice,tc,binary,repulsion,2,laptops,null,null,null,null,null,null,1,30,40,null,100,90,null,Processing speed,Memory (RAM),NA,NA
NA,NA,NA,NA,NA,choice_trial_setup,html-keyboard-response,76,271190,0.0-4.0-0.36,157,1,2025-05-04T17:37:50Z,b60275e29fe2361ab97ac0ac217840d7,Mozilla/5.0 (Windows NT 10.0; Win64; x64; rv:138.0) Gecko/20100101 Firefox/138.0,NA,Firefox,138,Windows,10,https://5puzkbbxv1.cognition.run/?sona_id=54559,"en-US,en;q=0.5",8ya29pzsp4tcdzo,21,"[""Asian"",""White""]",No,Male,NA,No,467676,NA,null,<p></p>,null,choice,tc,binary,repulsion,1,laptops,null,null,null,null,null,null,2,NA,NA,NA,NA,NA,NA,NA,NA,NA,NA
NA,NA,NA,NA,NA,choice_trial,survey-html-form,77,279517,0.0-4.0-1.36,157,1,2025-05-04T17:37:50Z,b60275e29fe2361ab97ac0ac217840d7,Mozilla/5.0 (Windows NT 10.0; Win64; x64; rv:138.0) Gecko/20100101 Firefox/138.0,NA,Firefox,138,Windows,10,https://5puzkbbxv1.cognition.run/?sona_id=54559,"en-US,en;q=0.5",8ya29pzsp4tcdzo,21,"[""Asian"",""White""]",No,Male,NA,No,467676,NA,8325,NA,"{""product_choice"":""B""}",choice,tc,binary,repulsion,1,laptops,null,null,null,null,null,null,2,100,90,null,30,40,null,Processing speed,Memory (RAM),NA,NA
NA,NA,NA,NA,NA,choice_trial_setup,html-keyboard-response,78,279830,0.0-4.0-0.37,157,1,2025-05-04T17:37:50Z,b60275e29fe2361ab97ac0ac217840d7,Mozilla/5.0 (Windows NT 10.0; Win64; x64; rv:138.0) Gecko/20100101 Firefox/138.0,NA,Firefox,138,Windows,10,https://5puzkbbxv1.cognition.run/?sona_id=54559,"en-US,en;q=0.5",8ya29pzsp4tcdzo,21,"[""Asian"",""White""]",No,Male,NA,No,467676,NA,null,<p></p>,null,choice,tc,binary,attraction,NA,televisions,null,null,null,null,null,null,1,NA,NA,NA,NA,NA,NA,NA,NA,NA,NA
NA,NA,NA,NA,NA,choice_trial,survey-html-form,79,283650,0.0-4.0-1.37,157,1,2025-05-04T17:37:50Z,b60275e29fe2361ab97ac0ac217840d7,Mozilla/5.0 (Windows NT 10.0; Win64; x64; rv:138.0) Gecko/20100101 Firefox/138.0,NA,Firefox,138,Windows,10,https://5puzkbbxv1.cognition.run/?sona_id=54559,"en-US,en;q=0.5",8ya29pzsp4tcdzo,21,"[""Asian"",""White""]",No,Male,NA,No,467676,NA,3817,NA,"{""product_choice"":""B""}",choice,tc,binary,attraction,NA,televisions,null,null,null,null,null,null,1,60,50,null,50,60,null,Screen size,Average lifespan,NA,NA
NA,NA,NA,NA,NA,choice_trial_setup,html-keyboard-response,80,283952,0.0-4.0-0.38,157,1,2025-05-04T17:37:50Z,b60275e29fe2361ab97ac0ac217840d7,Mozilla/5.0 (Windows NT 10.0; Win64; x64; rv:138.0) Gecko/20100101 Firefox/138.0,NA,Firefox,138,Windows,10,https://5puzkbbxv1.cognition.run/?sona_id=54559,"en-US,en;q=0.5",8ya29pzsp4tcdzo,21,"[""Asian"",""White""]",No,Male,NA,No,467676,NA,null,<p></p>,null,choice,ctd,trinary,attraction,1,microwave ovens,null,null,null,null,null,null,2,NA,NA,NA,NA,NA,NA,NA,NA,NA,NA
NA,NA,NA,NA,NA,choice_trial,survey-html-form,81,287403,0.0-4.0-1.38,157,1,2025-05-04T17:37:50Z,b60275e29fe2361ab97ac0ac217840d7,Mozilla/5.0 (Windows NT 10.0; Win64; x64; rv:138.0) Gecko/20100101 Firefox/138.0,NA,Firefox,138,Windows,10,https://5puzkbbxv1.cognition.run/?sona_id=54559,"en-US,en;q=0.5",8ya29pzsp4tcdzo,21,"[""Asian"",""White""]",No,Male,NA,No,467676,NA,3447,NA,"{""product_choice"":""A""}",choice,ctd,trinary,attraction,1,microwave ovens,null,null,null,null,null,null,2,60,50,60,50,60,40,Warranty,Cooking power,NA,NA
NA,NA,NA,NA,NA,choice_trial_setup,html-keyboard-response,82,287706,0.0-4.0-0.39,157,1,2025-05-04T17:37:50Z,b60275e29fe2361ab97ac0ac217840d7,Mozilla/5.0 (Windows NT 10.0; Win64; x64; rv:138.0) Gecko/20100101 Firefox/138.0,NA,Firefox,138,Windows,10,https://5puzkbbxv1.cognition.run/?sona_id=54559,"en-US,en;q=0.5",8ya29pzsp4tcdzo,21,"[""Asian"",""White""]",No,Male,NA,No,467676,NA,null,<p></p>,null,choice,bw,binary,catch,null,televisions,55,50,40,45,null,null,2,NA,NA,NA,NA,NA,NA,NA,NA,NA,NA
NA,NA,NA,NA,NA,choice_trial,survey-html-form,83,292088,0.0-4.0-1.39,157,1,2025-05-04T17:37:50Z,b60275e29fe2361ab97ac0ac217840d7,Mozilla/5.0 (Windows NT 10.0; Win64; x64; rv:138.0) Gecko/20100101 Firefox/138.0,NA,Firefox,138,Windows,10,https://5puzkbbxv1.cognition.run/?sona_id=54559,"en-US,en;q=0.5",8ya29pzsp4tcdzo,21,"[""Asian"",""White""]",No,Male,NA,No,467676,NA,4380,NA,"{""product_choice"":""A""}",choice,bw,binary,catch,null,televisions,55,50,40,45,null,null,2,null,null,null,null,null,null,Screen size,Average lifespan,NA,NA
NA,NA,NA,NA,NA,choice_trial_setup,html-keyboard-response,84,292402,0.0-4.0-0.40,157,1,2025-05-04T17:37:50Z,b60275e29fe2361ab97ac0ac217840d7,Mozilla/5.0 (Windows NT 10.0; Win64; x64; rv:138.0) Gecko/20100101 Firefox/138.0,NA,Firefox,138,Windows,10,https://5puzkbbxv1.cognition.run/?sona_id=54559,"en-US,en;q=0.5",8ya29pzsp4tcdzo,21,"[""Asian"",""White""]",No,Male,NA,No,467676,NA,null,<p></p>,null,choice,wb,binary,catch,null,laptops,95,85,10,45,null,null,1,NA,NA,NA,NA,NA,NA,NA,NA,NA,NA
NA,NA,NA,NA,NA,choice_trial,survey-html-form,85,295379,0.0-4.0-1.40,157,1,2025-05-04T17:37:50Z,b60275e29fe2361ab97ac0ac217840d7,Mozilla/5.0 (Windows NT 10.0; Win64; x64; rv:138.0) Gecko/20100101 Firefox/138.0,NA,Firefox,138,Windows,10,https://5puzkbbxv1.cognition.run/?sona_id=54559,"en-US,en;q=0.5",8ya29pzsp4tcdzo,21,"[""Asian"",""White""]",No,Male,NA,No,467676,NA,2973,NA,"{""product_choice"":""B""}",choice,wb,binary,catch,null,laptops,95,85,10,45,null,null,1,null,null,null,null,null,null,Processing speed,Memory (RAM),NA,NA
NA,NA,NA,NA,NA,choice_trial_setup,html-keyboard-response,86,295683,0.0-4.0-0.41,157,1,2025-05-04T17:37:50Z,b60275e29fe2361ab97ac0ac217840d7,Mozilla/5.0 (Windows NT 10.0; Win64; x64; rv:138.0) Gecko/20100101 Firefox/138.0,NA,Firefox,138,Windows,10,https://5puzkbbxv1.cognition.run/?sona_id=54559,"en-US,en;q=0.5",8ya29pzsp4tcdzo,21,"[""Asian"",""White""]",No,Male,NA,No,467676,NA,null,<p></p>,null,choice,tc,binary,repulsion,2,microwave ovens,null,null,null,null,null,null,1,NA,NA,NA,NA,NA,NA,NA,NA,NA,NA
NA,NA,NA,NA,NA,choice_trial,survey-html-form,87,299950,0.0-4.0-1.41,157,1,2025-05-04T17:37:50Z,b60275e29fe2361ab97ac0ac217840d7,Mozilla/5.0 (Windows NT 10.0; Win64; x64; rv:138.0) Gecko/20100101 Firefox/138.0,NA,Firefox,138,Windows,10,https://5puzkbbxv1.cognition.run/?sona_id=54559,"en-US,en;q=0.5",8ya29pzsp4tcdzo,21,"[""Asian"",""White""]",No,Male,NA,No,467676,NA,4265,NA,"{""product_choice"":""A""}",choice,tc,binary,repulsion,2,microwave ovens,null,null,null,null,null,null,1,30,40,null,100,90,null,Warranty,Cooking power,NA,NA
NA,NA,NA,NA,NA,choice_trial_setup,html-keyboard-response,88,300258,0.0-4.0-0.42,157,1,2025-05-04T17:37:50Z,b60275e29fe2361ab97ac0ac217840d7,Mozilla/5.0 (Windows NT 10.0; Win64; x64; rv:138.0) Gecko/20100101 Firefox/138.0,NA,Firefox,138,Windows,10,https://5puzkbbxv1.cognition.run/?sona_id=54559,"en-US,en;q=0.5",8ya29pzsp4tcdzo,21,"[""Asian"",""White""]",No,Male,NA,No,467676,NA,null,<p></p>,null,choice,tcd,trinary,repulsion_A,2,laptops,null,null,null,null,null,null,2,NA,NA,NA,NA,NA,NA,NA,NA,NA,NA
NA,NA,NA,NA,NA,choice_trial,survey-html-form,89,305196,0.0-4.0-1.42,157,1,2025-05-04T17:37:50Z,b60275e29fe2361ab97ac0ac217840d7,Mozilla/5.0 (Windows NT 10.0; Win64; x64; rv:138.0) Gecko/20100101 Firefox/138.0,NA,Firefox,138,Windows,10,https://5puzkbbxv1.cognition.run/?sona_id=54559,"en-US,en;q=0.5",8ya29pzsp4tcdzo,21,"[""Asian"",""White""]",No,Male,NA,No,467676,NA,4935,NA,"{""product_choice"":""B""}",choice,tcd,trinary,repulsion_A,2,laptops,null,null,null,null,null,null,2,30,40,20,100,90,100,Processing speed,Memory (RAM),NA,NA
NA,NA,NA,NA,NA,choice_trial_setup,html-keyboard-response,90,305507,0.0-4.0-0.43,157,1,2025-05-04T17:37:50Z,b60275e29fe2361ab97ac0ac217840d7,Mozilla/5.0 (Windows NT 10.0; Win64; x64; rv:138.0) Gecko/20100101 Firefox/138.0,NA,Firefox,138,Windows,10,https://5puzkbbxv1.cognition.run/?sona_id=54559,"en-US,en;q=0.5",8ya29pzsp4tcdzo,21,"[""Asian"",""White""]",No,Male,NA,No,467676,NA,null,<p></p>,null,choice,cdt,trinary,repulsion_A,1,laptops,null,null,null,null,null,null,1,NA,NA,NA,NA,NA,NA,NA,NA,NA,NA
NA,NA,NA,NA,NA,choice_trial,survey-html-form,91,310546,0.0-4.0-1.43,157,1,2025-05-04T17:37:50Z,b60275e29fe2361ab97ac0ac217840d7,Mozilla/5.0 (Windows NT 10.0; Win64; x64; rv:138.0) Gecko/20100101 Firefox/138.0,NA,Firefox,138,Windows,10,https://5puzkbbxv1.cognition.run/?sona_id=54559,"en-US,en;q=0.5",8ya29pzsp4tcdzo,21,"[""Asian"",""White""]",No,Male,NA,No,467676,NA,5037,NA,"{""product_choice"":""A""}",choice,cdt,trinary,repulsion_A,1,laptops,null,null,null,null,null,null,1,100,90,100,30,40,20,Processing speed,Memory (RAM),NA,NA
NA,NA,NA,NA,NA,post_trials_message,html-button-response,92,311830,0.0-5.0,157,1,2025-05-04T17:37:50Z,b60275e29fe2361ab97ac0ac217840d7,Mozilla/5.0 (Windows NT 10.0; Win64; x64; rv:138.0) Gecko/20100101 Firefox/138.0,NA,Firefox,138,Windows,10,https://5puzkbbxv1.cognition.run/?sona_id=54559,"en-US,en;q=0.5",8ya29pzsp4tcdzo,21,"[""Asian"",""White""]",No,Male,NA,No,467676,NA,1282,<p> <b>Thank you for your patience!</b></p><p>  The study will be done after completing a brief form. </p>,0,NA,NA,NA,NA,NA,NA,NA,NA,NA,NA,NA,NA,NA,NA,NA,NA,NA,NA,NA,NA,NA,NA,NA
NA,NA,NA,NA,NA,survey_message,survey-text,93,422831,0.0-6.0,157,1,2025-05-04T17:37:50Z,b60275e29fe2361ab97ac0ac217840d7,Mozilla/5.0 (Windows NT 10.0; Win64; x64; rv:138.0) Gecko/20100101 Firefox/138.0,NA,Firefox,138,Windows,10,https://5puzkbbxv1.cognition.run/?sona_id=54559,"en-US,en;q=0.5",8ya29pzsp4tcdzo,21,"[""Asian"",""White""]",No,Male,NA,No,467676,NA,110973,NA,"{""Q0"":""Generally there were some categories I prioritized more and figured more people would desire, such as average lifespan of a product. In many of the cases, it was a choice between better lifespan or better something else at the same proportion(like screen size), in which case I went with the one with better lifespan. Additionally, for some I went with the more well rounded choice, such as with processing speed/memory, as I felt that people would rather have a well rounded device rather than a laptop with insanely high memory but almost no processing speed. ""}",NA,NA,NA,NA,NA,NA,NA,NA,NA,NA,NA,NA,NA,NA,NA,NA,NA,NA,NA,NA,NA,"Generally there were some categories I prioritized more and figured more people would desire, such as average lifespan of a product. In many of the cases, it was a choice between better lifespan or better something else at the same proportion(like screen size), in which case I went with the one with better lifespan. Additionally, for some I went with the more well rounded choice, such as with processing speed/memory, as I felt that people would rather have a well rounded device rather than a laptop with insanely high memory but almost no processing speed.",NA
NA,NA,NA,NA,NA,demo_age,survey-text,94,425415,0.0-7.0,157,1,2025-05-04T17:37:50Z,b60275e29fe2361ab97ac0ac217840d7,Mozilla/5.0 (Windows NT 10.0; Win64; x64; rv:138.0) Gecko/20100101 Firefox/138.0,NA,Firefox,138,Windows,10,https://5puzkbbxv1.cognition.run/?sona_id=54559,"en-US,en;q=0.5",8ya29pzsp4tcdzo,21,"[""Asian"",""White""]",No,Male,NA,No,467676,NA,2577,NA,"{""Q0"":""21""}",NA,NA,NA,NA,NA,NA,NA,NA,NA,NA,NA,NA,NA,NA,NA,NA,NA,NA,NA,NA,NA,NA,NA
NA,NA,NA,NA,NA,demo_race,survey-multi-select,95,428593,0.0-8.0,157,1,2025-05-04T17:37:50Z,b60275e29fe2361ab97ac0ac217840d7,Mozilla/5.0 (Windows NT 10.0; Win64; x64; rv:138.0) Gecko/20100101 Firefox/138.0,NA,Firefox,138,Windows,10,https://5puzkbbxv1.cognition.run/?sona_id=54559,"en-US,en;q=0.5",8ya29pzsp4tcdzo,21,"[""Asian"",""White""]",No,Male,NA,No,467676,NA,3174,NA,"{""Q0"":[""Asian"",""White""]}",NA,NA,NA,NA,NA,NA,NA,NA,NA,NA,NA,NA,NA,NA,NA,NA,NA,NA,NA,NA,NA,NA,[0]
NA,NA,NA,NA,NA,demo_ethnicity_gender,survey-multi-choice,96,431556,0.0-9.0,157,1,2025-05-04T17:37:50Z,b60275e29fe2361ab97ac0ac217840d7,Mozilla/5.0 (Windows NT 10.0; Win64; x64; rv:138.0) Gecko/20100101 Firefox/138.0,NA,Firefox,138,Windows,10,https://5puzkbbxv1.cognition.run/?sona_id=54559,"en-US,en;q=0.5",8ya29pzsp4tcdzo,21,"[""Asian"",""White""]",No,Male,NA,No,467676,NA,2960,NA,"{""Q0"":""No"",""Q1"":""Male""}",NA,NA,NA,NA,NA,NA,NA,NA,NA,NA,NA,NA,NA,NA,NA,NA,NA,NA,NA,NA,NA,NA,"[0,1]"
NA,NA,NA,NA,NA,demo_countries,survey-text,97,436943,0.0-10.0,157,1,2025-05-04T17:37:50Z,b60275e29fe2361ab97ac0ac217840d7,Mozilla/5.0 (Windows NT 10.0; Win64; x64; rv:138.0) Gecko/20100101 Firefox/138.0,NA,Firefox,138,Windows,10,https://5puzkbbxv1.cognition.run/?sona_id=54559,"en-US,en;q=0.5",8ya29pzsp4tcdzo,21,"[""Asian"",""White""]",No,Male,NA,No,467676,NA,5381,NA,"{""Q0"":""NA""}",NA,NA,NA,NA,NA,NA,NA,NA,NA,NA,NA,NA,NA,NA,NA,NA,NA,NA,NA,NA,NA,NA,NA
NA,NA,NA,NA,NA,demo_prev_study,survey-multi-choice,98,451216,0.0-11.0,157,1,2025-05-04T17:37:50Z,b60275e29fe2361ab97ac0ac217840d7,Mozilla/5.0 (Windows NT 10.0; Win64; x64; rv:138.0) Gecko/20100101 Firefox/138.0,NA,Firefox,138,Windows,10,https://5puzkbbxv1.cognition.run/?sona_id=54559,"en-US,en;q=0.5",8ya29pzsp4tcdzo,21,"[""Asian"",""White""]",No,Male,NA,No,467676,NA,14271,NA,"{""Q0"":""No""}",NA,NA,NA,NA,NA,NA,NA,NA,NA,NA,NA,NA,NA,NA,NA,NA,NA,NA,NA,NA,NA,NA,[0]
NA,NA,NA,NA,NA,post_survey_message,html-keyboard-response,99,457711,0.0-12.0,157,1,2025-05-04T17:37:50Z,b60275e29fe2361ab97ac0ac217840d7,Mozilla/5.0 (Windows NT 10.0; Win64; x64; rv:138.0) Gecko/20100101 Firefox/138.0,NA,Firefox,138,Windows,10,https://5puzkbbxv1.cognition.run/?sona_id=54559,"en-US,en;q=0.5",8ya29pzsp4tcdzo,21,"[""Asian"",""White""]",No,Male,NA,No,467676,NA,6492,NA,j,NA,NA,NA,NA,NA,NA,NA,NA,NA,NA,NA,NA,NA,NA,NA,NA,NA,NA,NA,NA,NA,NA,NA
NA,NA,NA,NA,NA,debrief,image-keyboard-response,100,467674,0.0-13.0,157,1,2025-05-04T17:37:50Z,b60275e29fe2361ab97ac0ac217840d7,Mozilla/5.0 (Windows NT 10.0; Win64; x64; rv:138.0) Gecko/20100101 Firefox/138.0,NA,Firefox,138,Windows,10,https://5puzkbbxv1.cognition.run/?sona_id=54559,"en-US,en;q=0.5",8ya29pzsp4tcdzo,21,"[""Asian"",""White""]",No,Male,NA,No,467676,NA,9945,Judg_choice_debrief.png,p,NA,NA,NA,NA,NA,NA,NA,NA,NA,NA,NA,NA,NA,NA,NA,NA,NA,NA,NA,NA,NA,NA,NA
