success,timeout,failed_images,failed_audio,failed_video,screen_id,trial_type,trial_index,time_elapsed,internal_node_id,run_id,condition,recorded_at,source_code_version,user_agent,device,browser,browser_version,platform,platform_version,referer,accept_language,ppt_id,age,race,ethnicity,gender,other_countries,prev_study,exp_duration,view_history,rt,stimulus,response,phase,order,set,effect,t_high,category,d1_best,d2_best,d1_worst1,d2_worst1,d1_worst2,d2_worst2,first_dim,d1_t,d1_c,d1_d,d2_t,d2_c,d2_d,d1_name,d2_name,strategy_response,question_order
TRUE,FALSE,[],[],[],img preload,preload,0,117,0.0-0.0,159,1,2025-05-04T17:43:38Z,b60275e29fe2361ab97ac0ac217840d7,"Mozilla/5.0 (Macintosh; Intel Mac OS X 10_15_7) AppleWebKit/537.36 (KHTML, like Gecko) Chrome/136.0.0.0 Safari/537.36",Macintosh,Chrome,136.0.0.0,OS X,10_15_7,https://5puzkbbxv1.cognition.run/?sona_id=52956,"en-US,en;q=0.9",8zyz0f760h65hux,20,"[""White""]",No,Female,NA,No,346648.69999999925,NA,NA,NA,NA,NA,NA,NA,NA,NA,NA,NA,NA,NA,NA,NA,NA,NA,NA,NA,NA,NA,NA,NA,NA,NA,NA,NA
NA,NA,NA,NA,NA,computer_message,instructions,1,3224,0.0-1.0,159,1,2025-05-04T17:43:38Z,b60275e29fe2361ab97ac0ac217840d7,"Mozilla/5.0 (Macintosh; Intel Mac OS X 10_15_7) AppleWebKit/537.36 (KHTML, like Gecko) Chrome/136.0.0.0 Safari/537.36",Macintosh,Chrome,136.0.0.0,OS X,10_15_7,https://5puzkbbxv1.cognition.run/?sona_id=52956,"en-US,en;q=0.9",8zyz0f760h65hux,20,"[""White""]",No,Female,NA,No,346648.69999999925,"[{""page_index"":0,""viewing_time"":3106}]",3107,NA,NA,NA,NA,NA,NA,NA,NA,NA,NA,NA,NA,NA,NA,NA,NA,NA,NA,NA,NA,NA,NA,NA,NA,NA
TRUE,NA,NA,NA,NA,NA,fullscreen,2,5674,0.0-2.0,159,1,2025-05-04T17:43:38Z,b60275e29fe2361ab97ac0ac217840d7,"Mozilla/5.0 (Macintosh; Intel Mac OS X 10_15_7) AppleWebKit/537.36 (KHTML, like Gecko) Chrome/136.0.0.0 Safari/537.36",Macintosh,Chrome,136.0.0.0,OS X,10_15_7,https://5puzkbbxv1.cognition.run/?sona_id=52956,"en-US,en;q=0.9",8zyz0f760h65hux,20,"[""White""]",No,Female,NA,No,346648.69999999925,NA,1445,NA,NA,NA,NA,NA,NA,NA,NA,NA,NA,NA,NA,NA,NA,NA,NA,NA,NA,NA,NA,NA,NA,NA,NA,NA
NA,NA,NA,NA,NA,choice_instructions,instructions,3,41858,0.0-3.0,159,1,2025-05-04T17:43:38Z,b60275e29fe2361ab97ac0ac217840d7,"Mozilla/5.0 (Macintosh; Intel Mac OS X 10_15_7) AppleWebKit/537.36 (KHTML, like Gecko) Chrome/136.0.0.0 Safari/537.36",Macintosh,Chrome,136.0.0.0,OS X,10_15_7,https://5puzkbbxv1.cognition.run/?sona_id=52956,"en-US,en;q=0.9",8zyz0f760h65hux,20,"[""White""]",No,Female,NA,No,346648.69999999925,"[{""page_index"":0,""viewing_time"":1428},{""page_index"":1,""viewing_time"":2368},{""page_index"":2,""viewing_time"":2231},{""page_index"":3,""viewing_time"":5495},{""page_index"":4,""viewing_time"":7340},{""page_index"":5,""viewing_time"":15317},{""page_index"":6,""viewing_time"":2005}]",36183,NA,NA,NA,NA,NA,NA,NA,NA,NA,NA,NA,NA,NA,NA,NA,NA,NA,NA,NA,NA,NA,NA,NA,NA,NA
NA,NA,NA,NA,NA,choice_trial_setup,html-keyboard-response,4,42162,0.0-4.0-0.0,159,1,2025-05-04T17:43:38Z,b60275e29fe2361ab97ac0ac217840d7,"Mozilla/5.0 (Macintosh; Intel Mac OS X 10_15_7) AppleWebKit/537.36 (KHTML, like Gecko) Chrome/136.0.0.0 Safari/537.36",Macintosh,Chrome,136.0.0.0,OS X,10_15_7,https://5puzkbbxv1.cognition.run/?sona_id=52956,"en-US,en;q=0.9",8zyz0f760h65hux,20,"[""White""]",No,Female,NA,No,346648.69999999925,NA,null,<p></p>,null,choice,bw,binary,catch,null,televisions,85,85,40,40,null,null,2,NA,NA,NA,NA,NA,NA,NA,NA,NA,NA
NA,NA,NA,NA,NA,choice_trial,survey-html-form,5,47194,0.0-4.0-1.0,159,1,2025-05-04T17:43:38Z,b60275e29fe2361ab97ac0ac217840d7,"Mozilla/5.0 (Macintosh; Intel Mac OS X 10_15_7) AppleWebKit/537.36 (KHTML, like Gecko) Chrome/136.0.0.0 Safari/537.36",Macintosh,Chrome,136.0.0.0,OS X,10_15_7,https://5puzkbbxv1.cognition.run/?sona_id=52956,"en-US,en;q=0.9",8zyz0f760h65hux,20,"[""White""]",No,Female,NA,No,346648.69999999925,NA,5028,NA,"{""product_choice"":""A""}",choice,bw,binary,catch,null,televisions,85,85,40,40,null,null,2,null,null,null,null,null,null,Screen size,Average lifespan,NA,NA
NA,NA,NA,NA,NA,choice_trial_setup,html-keyboard-response,6,47497,0.0-4.0-0.1,159,1,2025-05-04T17:43:38Z,b60275e29fe2361ab97ac0ac217840d7,"Mozilla/5.0 (Macintosh; Intel Mac OS X 10_15_7) AppleWebKit/537.36 (KHTML, like Gecko) Chrome/136.0.0.0 Safari/537.36",Macintosh,Chrome,136.0.0.0,OS X,10_15_7,https://5puzkbbxv1.cognition.run/?sona_id=52956,"en-US,en;q=0.9",8zyz0f760h65hux,20,"[""White""]",No,Female,NA,No,346648.69999999925,NA,null,<p></p>,null,choice,tc,binary,repulsion,1,microwave ovens,null,null,null,null,null,null,1,NA,NA,NA,NA,NA,NA,NA,NA,NA,NA
NA,NA,NA,NA,NA,choice_trial,survey-html-form,7,53189,0.0-4.0-1.1,159,1,2025-05-04T17:43:38Z,b60275e29fe2361ab97ac0ac217840d7,"Mozilla/5.0 (Macintosh; Intel Mac OS X 10_15_7) AppleWebKit/537.36 (KHTML, like Gecko) Chrome/136.0.0.0 Safari/537.36",Macintosh,Chrome,136.0.0.0,OS X,10_15_7,https://5puzkbbxv1.cognition.run/?sona_id=52956,"en-US,en;q=0.9",8zyz0f760h65hux,20,"[""White""]",No,Female,NA,No,346648.69999999925,NA,5689,NA,"{""product_choice"":""A""}",choice,tc,binary,repulsion,1,microwave ovens,null,null,null,null,null,null,1,100,90,null,30,40,null,Warranty,Cooking power,NA,NA
NA,NA,NA,NA,NA,choice_trial_setup,html-keyboard-response,8,53492,0.0-4.0-0.2,159,1,2025-05-04T17:43:38Z,b60275e29fe2361ab97ac0ac217840d7,"Mozilla/5.0 (Macintosh; Intel Mac OS X 10_15_7) AppleWebKit/537.36 (KHTML, like Gecko) Chrome/136.0.0.0 Safari/537.36",Macintosh,Chrome,136.0.0.0,OS X,10_15_7,https://5puzkbbxv1.cognition.run/?sona_id=52956,"en-US,en;q=0.9",8zyz0f760h65hux,20,"[""White""]",No,Female,NA,No,346648.69999999925,NA,null,<p></p>,null,choice,wbw,trinary,catch,null,microwave ovens,75,60,35,35,25,40,1,NA,NA,NA,NA,NA,NA,NA,NA,NA,NA
NA,NA,NA,NA,NA,choice_trial,survey-html-form,9,59097,0.0-4.0-1.2,159,1,2025-05-04T17:43:38Z,b60275e29fe2361ab97ac0ac217840d7,"Mozilla/5.0 (Macintosh; Intel Mac OS X 10_15_7) AppleWebKit/537.36 (KHTML, like Gecko) Chrome/136.0.0.0 Safari/537.36",Macintosh,Chrome,136.0.0.0,OS X,10_15_7,https://5puzkbbxv1.cognition.run/?sona_id=52956,"en-US,en;q=0.9",8zyz0f760h65hux,20,"[""White""]",No,Female,NA,No,346648.69999999925,NA,5602,NA,"{""product_choice"":""B""}",choice,wbw,trinary,catch,null,microwave ovens,75,60,35,35,25,40,1,null,null,null,null,null,null,Warranty,Cooking power,NA,NA
NA,NA,NA,NA,NA,choice_trial_setup,html-keyboard-response,10,59400,0.0-4.0-0.3,159,1,2025-05-04T17:43:38Z,b60275e29fe2361ab97ac0ac217840d7,"Mozilla/5.0 (Macintosh; Intel Mac OS X 10_15_7) AppleWebKit/537.36 (KHTML, like Gecko) Chrome/136.0.0.0 Safari/537.36",Macintosh,Chrome,136.0.0.0,OS X,10_15_7,https://5puzkbbxv1.cognition.run/?sona_id=52956,"en-US,en;q=0.9",8zyz0f760h65hux,20,"[""White""]",No,Female,NA,No,346648.69999999925,NA,null,<p></p>,null,choice,tcd,trinary,repulsion_B,2,laptops,null,null,null,null,null,null,2,NA,NA,NA,NA,NA,NA,NA,NA,NA,NA
NA,NA,NA,NA,NA,choice_trial,survey-html-form,11,65369,0.0-4.0-1.3,159,1,2025-05-04T17:43:38Z,b60275e29fe2361ab97ac0ac217840d7,"Mozilla/5.0 (Macintosh; Intel Mac OS X 10_15_7) AppleWebKit/537.36 (KHTML, like Gecko) Chrome/136.0.0.0 Safari/537.36",Macintosh,Chrome,136.0.0.0,OS X,10_15_7,https://5puzkbbxv1.cognition.run/?sona_id=52956,"en-US,en;q=0.9",8zyz0f760h65hux,20,"[""White""]",No,Female,NA,No,346648.69999999925,NA,5966,NA,"{""product_choice"":""A""}",choice,tcd,trinary,repulsion_B,2,laptops,null,null,null,null,null,null,2,40,30,40,90,100,80,Processing speed,Memory (RAM),NA,NA
NA,NA,NA,NA,NA,choice_trial_setup,html-keyboard-response,12,65672,0.0-4.0-0.4,159,1,2025-05-04T17:43:38Z,b60275e29fe2361ab97ac0ac217840d7,"Mozilla/5.0 (Macintosh; Intel Mac OS X 10_15_7) AppleWebKit/537.36 (KHTML, like Gecko) Chrome/136.0.0.0 Safari/537.36",Macintosh,Chrome,136.0.0.0,OS X,10_15_7,https://5puzkbbxv1.cognition.run/?sona_id=52956,"en-US,en;q=0.9",8zyz0f760h65hux,20,"[""White""]",No,Female,NA,No,346648.69999999925,NA,null,<p></p>,null,choice,ct,binary,attraction,NA,laptops,null,null,null,null,null,null,2,NA,NA,NA,NA,NA,NA,NA,NA,NA,NA
NA,NA,NA,NA,NA,choice_trial,survey-html-form,13,71681,0.0-4.0-1.4,159,1,2025-05-04T17:43:38Z,b60275e29fe2361ab97ac0ac217840d7,"Mozilla/5.0 (Macintosh; Intel Mac OS X 10_15_7) AppleWebKit/537.36 (KHTML, like Gecko) Chrome/136.0.0.0 Safari/537.36",Macintosh,Chrome,136.0.0.0,OS X,10_15_7,https://5puzkbbxv1.cognition.run/?sona_id=52956,"en-US,en;q=0.9",8zyz0f760h65hux,20,"[""White""]",No,Female,NA,No,346648.69999999925,NA,6007,NA,"{""product_choice"":""A""}",choice,ct,binary,attraction,NA,laptops,null,null,null,null,null,null,2,60,50,null,50,60,null,Processing speed,Memory (RAM),NA,NA
NA,NA,NA,NA,NA,choice_trial_setup,html-keyboard-response,14,71985,0.0-4.0-0.5,159,1,2025-05-04T17:43:38Z,b60275e29fe2361ab97ac0ac217840d7,"Mozilla/5.0 (Macintosh; Intel Mac OS X 10_15_7) AppleWebKit/537.36 (KHTML, like Gecko) Chrome/136.0.0.0 Safari/537.36",Macintosh,Chrome,136.0.0.0,OS X,10_15_7,https://5puzkbbxv1.cognition.run/?sona_id=52956,"en-US,en;q=0.9",8zyz0f760h65hux,20,"[""White""]",No,Female,NA,No,346648.69999999925,NA,null,<p></p>,null,choice,tc,binary,repulsion,1,washing machines,null,null,null,null,null,null,1,NA,NA,NA,NA,NA,NA,NA,NA,NA,NA
NA,NA,NA,NA,NA,choice_trial,survey-html-form,15,81914,0.0-4.0-1.5,159,1,2025-05-04T17:43:38Z,b60275e29fe2361ab97ac0ac217840d7,"Mozilla/5.0 (Macintosh; Intel Mac OS X 10_15_7) AppleWebKit/537.36 (KHTML, like Gecko) Chrome/136.0.0.0 Safari/537.36",Macintosh,Chrome,136.0.0.0,OS X,10_15_7,https://5puzkbbxv1.cognition.run/?sona_id=52956,"en-US,en;q=0.9",8zyz0f760h65hux,20,"[""White""]",No,Female,NA,No,346648.69999999925,NA,9926,NA,"{""product_choice"":""B""}",choice,tc,binary,repulsion,1,washing machines,null,null,null,null,null,null,1,100,90,null,30,40,null,Average lifespan,Energy savings,NA,NA
NA,NA,NA,NA,NA,choice_trial_setup,html-keyboard-response,16,82217,0.0-4.0-0.6,159,1,2025-05-04T17:43:38Z,b60275e29fe2361ab97ac0ac217840d7,"Mozilla/5.0 (Macintosh; Intel Mac OS X 10_15_7) AppleWebKit/537.36 (KHTML, like Gecko) Chrome/136.0.0.0 Safari/537.36",Macintosh,Chrome,136.0.0.0,OS X,10_15_7,https://5puzkbbxv1.cognition.run/?sona_id=52956,"en-US,en;q=0.9",8zyz0f760h65hux,20,"[""White""]",No,Female,NA,No,346648.69999999925,NA,null,<p></p>,null,choice,ctd,trinary,attraction,1,laptops,null,null,null,null,null,null,2,NA,NA,NA,NA,NA,NA,NA,NA,NA,NA
NA,NA,NA,NA,NA,choice_trial,survey-html-form,17,88095,0.0-4.0-1.6,159,1,2025-05-04T17:43:38Z,b60275e29fe2361ab97ac0ac217840d7,"Mozilla/5.0 (Macintosh; Intel Mac OS X 10_15_7) AppleWebKit/537.36 (KHTML, like Gecko) Chrome/136.0.0.0 Safari/537.36",Macintosh,Chrome,136.0.0.0,OS X,10_15_7,https://5puzkbbxv1.cognition.run/?sona_id=52956,"en-US,en;q=0.9",8zyz0f760h65hux,20,"[""White""]",No,Female,NA,No,346648.69999999925,NA,5875,NA,"{""product_choice"":""A""}",choice,ctd,trinary,attraction,1,laptops,null,null,null,null,null,null,2,60,50,60,50,60,40,Processing speed,Memory (RAM),NA,NA
NA,NA,NA,NA,NA,choice_trial_setup,html-keyboard-response,18,88398,0.0-4.0-0.7,159,1,2025-05-04T17:43:38Z,b60275e29fe2361ab97ac0ac217840d7,"Mozilla/5.0 (Macintosh; Intel Mac OS X 10_15_7) AppleWebKit/537.36 (KHTML, like Gecko) Chrome/136.0.0.0 Safari/537.36",Macintosh,Chrome,136.0.0.0,OS X,10_15_7,https://5puzkbbxv1.cognition.run/?sona_id=52956,"en-US,en;q=0.9",8zyz0f760h65hux,20,"[""White""]",No,Female,NA,No,346648.69999999925,NA,null,<p></p>,null,choice,ct,binary,repulsion,1,televisions,null,null,null,null,null,null,1,NA,NA,NA,NA,NA,NA,NA,NA,NA,NA
NA,NA,NA,NA,NA,choice_trial,survey-html-form,19,94682,0.0-4.0-1.7,159,1,2025-05-04T17:43:38Z,b60275e29fe2361ab97ac0ac217840d7,"Mozilla/5.0 (Macintosh; Intel Mac OS X 10_15_7) AppleWebKit/537.36 (KHTML, like Gecko) Chrome/136.0.0.0 Safari/537.36",Macintosh,Chrome,136.0.0.0,OS X,10_15_7,https://5puzkbbxv1.cognition.run/?sona_id=52956,"en-US,en;q=0.9",8zyz0f760h65hux,20,"[""White""]",No,Female,NA,No,346648.69999999925,NA,6281,NA,"{""product_choice"":""A""}",choice,ct,binary,repulsion,1,televisions,null,null,null,null,null,null,1,100,90,null,30,40,null,Screen size,Average lifespan,NA,NA
NA,NA,NA,NA,NA,choice_trial_setup,html-keyboard-response,20,94985,0.0-4.0-0.8,159,1,2025-05-04T17:43:38Z,b60275e29fe2361ab97ac0ac217840d7,"Mozilla/5.0 (Macintosh; Intel Mac OS X 10_15_7) AppleWebKit/537.36 (KHTML, like Gecko) Chrome/136.0.0.0 Safari/537.36",Macintosh,Chrome,136.0.0.0,OS X,10_15_7,https://5puzkbbxv1.cognition.run/?sona_id=52956,"en-US,en;q=0.9",8zyz0f760h65hux,20,"[""White""]",No,Female,NA,No,346648.69999999925,NA,null,<p></p>,null,choice,dtc,trinary,attraction,1,washing machines,null,null,null,null,null,null,2,NA,NA,NA,NA,NA,NA,NA,NA,NA,NA
NA,NA,NA,NA,NA,choice_trial,survey-html-form,21,108515,0.0-4.0-1.8,159,1,2025-05-04T17:43:38Z,b60275e29fe2361ab97ac0ac217840d7,"Mozilla/5.0 (Macintosh; Intel Mac OS X 10_15_7) AppleWebKit/537.36 (KHTML, like Gecko) Chrome/136.0.0.0 Safari/537.36",Macintosh,Chrome,136.0.0.0,OS X,10_15_7,https://5puzkbbxv1.cognition.run/?sona_id=52956,"en-US,en;q=0.9",8zyz0f760h65hux,20,"[""White""]",No,Female,NA,No,346648.69999999925,NA,13527,NA,"{""product_choice"":""C""}",choice,dtc,trinary,attraction,1,washing machines,null,null,null,null,null,null,2,60,50,60,50,60,40,Average lifespan,Energy savings,NA,NA
NA,NA,NA,NA,NA,choice_trial_setup,html-keyboard-response,22,108819,0.0-4.0-0.9,159,1,2025-05-04T17:43:38Z,b60275e29fe2361ab97ac0ac217840d7,"Mozilla/5.0 (Macintosh; Intel Mac OS X 10_15_7) AppleWebKit/537.36 (KHTML, like Gecko) Chrome/136.0.0.0 Safari/537.36",Macintosh,Chrome,136.0.0.0,OS X,10_15_7,https://5puzkbbxv1.cognition.run/?sona_id=52956,"en-US,en;q=0.9",8zyz0f760h65hux,20,"[""White""]",No,Female,NA,No,346648.69999999925,NA,null,<p></p>,null,choice,dtc,trinary,repulsion_A,1,microwave ovens,null,null,null,null,null,null,1,NA,NA,NA,NA,NA,NA,NA,NA,NA,NA
NA,NA,NA,NA,NA,choice_trial,survey-html-form,23,139629,0.0-4.0-1.9,159,1,2025-05-04T17:43:38Z,b60275e29fe2361ab97ac0ac217840d7,"Mozilla/5.0 (Macintosh; Intel Mac OS X 10_15_7) AppleWebKit/537.36 (KHTML, like Gecko) Chrome/136.0.0.0 Safari/537.36",Macintosh,Chrome,136.0.0.0,OS X,10_15_7,https://5puzkbbxv1.cognition.run/?sona_id=52956,"en-US,en;q=0.9",8zyz0f760h65hux,20,"[""White""]",No,Female,NA,No,346648.69999999925,NA,30807,NA,"{""product_choice"":""C""}",choice,dtc,trinary,repulsion_A,1,microwave ovens,null,null,null,null,null,null,1,100,90,100,30,40,20,Warranty,Cooking power,NA,NA
NA,NA,NA,NA,NA,choice_trial_setup,html-keyboard-response,24,139932,0.0-4.0-0.10,159,1,2025-05-04T17:43:38Z,b60275e29fe2361ab97ac0ac217840d7,"Mozilla/5.0 (Macintosh; Intel Mac OS X 10_15_7) AppleWebKit/537.36 (KHTML, like Gecko) Chrome/136.0.0.0 Safari/537.36",Macintosh,Chrome,136.0.0.0,OS X,10_15_7,https://5puzkbbxv1.cognition.run/?sona_id=52956,"en-US,en;q=0.9",8zyz0f760h65hux,20,"[""White""]",No,Female,NA,No,346648.69999999925,NA,null,<p></p>,null,choice,wb,binary,catch,null,microwave ovens,85,65,35,5,null,null,2,NA,NA,NA,NA,NA,NA,NA,NA,NA,NA
NA,NA,NA,NA,NA,choice_trial,survey-html-form,25,144559,0.0-4.0-1.10,159,1,2025-05-04T17:43:38Z,b60275e29fe2361ab97ac0ac217840d7,"Mozilla/5.0 (Macintosh; Intel Mac OS X 10_15_7) AppleWebKit/537.36 (KHTML, like Gecko) Chrome/136.0.0.0 Safari/537.36",Macintosh,Chrome,136.0.0.0,OS X,10_15_7,https://5puzkbbxv1.cognition.run/?sona_id=52956,"en-US,en;q=0.9",8zyz0f760h65hux,20,"[""White""]",No,Female,NA,No,346648.69999999925,NA,4624,NA,"{""product_choice"":""B""}",choice,wb,binary,catch,null,microwave ovens,85,65,35,5,null,null,2,null,null,null,null,null,null,Warranty,Cooking power,NA,NA
NA,NA,NA,NA,NA,choice_trial_setup,html-keyboard-response,26,144862,0.0-4.0-0.11,159,1,2025-05-04T17:43:38Z,b60275e29fe2361ab97ac0ac217840d7,"Mozilla/5.0 (Macintosh; Intel Mac OS X 10_15_7) AppleWebKit/537.36 (KHTML, like Gecko) Chrome/136.0.0.0 Safari/537.36",Macintosh,Chrome,136.0.0.0,OS X,10_15_7,https://5puzkbbxv1.cognition.run/?sona_id=52956,"en-US,en;q=0.9",8zyz0f760h65hux,20,"[""White""]",No,Female,NA,No,346648.69999999925,NA,null,<p></p>,null,choice,ct,binary,attraction,NA,washing machines,null,null,null,null,null,null,2,NA,NA,NA,NA,NA,NA,NA,NA,NA,NA
NA,NA,NA,NA,NA,choice_trial,survey-html-form,27,147695,0.0-4.0-1.11,159,1,2025-05-04T17:43:38Z,b60275e29fe2361ab97ac0ac217840d7,"Mozilla/5.0 (Macintosh; Intel Mac OS X 10_15_7) AppleWebKit/537.36 (KHTML, like Gecko) Chrome/136.0.0.0 Safari/537.36",Macintosh,Chrome,136.0.0.0,OS X,10_15_7,https://5puzkbbxv1.cognition.run/?sona_id=52956,"en-US,en;q=0.9",8zyz0f760h65hux,20,"[""White""]",No,Female,NA,No,346648.69999999925,NA,2830,NA,"{""product_choice"":""A""}",choice,ct,binary,attraction,NA,washing machines,null,null,null,null,null,null,2,60,50,null,50,60,null,Average lifespan,Energy savings,NA,NA
NA,NA,NA,NA,NA,choice_trial_setup,html-keyboard-response,28,147998,0.0-4.0-0.12,159,1,2025-05-04T17:43:38Z,b60275e29fe2361ab97ac0ac217840d7,"Mozilla/5.0 (Macintosh; Intel Mac OS X 10_15_7) AppleWebKit/537.36 (KHTML, like Gecko) Chrome/136.0.0.0 Safari/537.36",Macintosh,Chrome,136.0.0.0,OS X,10_15_7,https://5puzkbbxv1.cognition.run/?sona_id=52956,"en-US,en;q=0.9",8zyz0f760h65hux,20,"[""White""]",No,Female,NA,No,346648.69999999925,NA,null,<p></p>,null,choice,bww,trinary,catch,null,washing machines,90,70,20,15,25,15,1,NA,NA,NA,NA,NA,NA,NA,NA,NA,NA
NA,NA,NA,NA,NA,choice_trial,survey-html-form,29,151971,0.0-4.0-1.12,159,1,2025-05-04T17:43:38Z,b60275e29fe2361ab97ac0ac217840d7,"Mozilla/5.0 (Macintosh; Intel Mac OS X 10_15_7) AppleWebKit/537.36 (KHTML, like Gecko) Chrome/136.0.0.0 Safari/537.36",Macintosh,Chrome,136.0.0.0,OS X,10_15_7,https://5puzkbbxv1.cognition.run/?sona_id=52956,"en-US,en;q=0.9",8zyz0f760h65hux,20,"[""White""]",No,Female,NA,No,346648.69999999925,NA,3970,NA,"{""product_choice"":""A""}",choice,bww,trinary,catch,null,washing machines,90,70,20,15,25,15,1,null,null,null,null,null,null,Average lifespan,Energy savings,NA,NA
NA,NA,NA,NA,NA,choice_trial_setup,html-keyboard-response,30,152275,0.0-4.0-0.13,159,1,2025-05-04T17:43:38Z,b60275e29fe2361ab97ac0ac217840d7,"Mozilla/5.0 (Macintosh; Intel Mac OS X 10_15_7) AppleWebKit/537.36 (KHTML, like Gecko) Chrome/136.0.0.0 Safari/537.36",Macintosh,Chrome,136.0.0.0,OS X,10_15_7,https://5puzkbbxv1.cognition.run/?sona_id=52956,"en-US,en;q=0.9",8zyz0f760h65hux,20,"[""White""]",No,Female,NA,No,346648.69999999925,NA,null,<p></p>,null,choice,bww,trinary,catch,null,laptops,65,95,10,40,30,5,2,NA,NA,NA,NA,NA,NA,NA,NA,NA,NA
NA,NA,NA,NA,NA,choice_trial,survey-html-form,31,156717,0.0-4.0-1.13,159,1,2025-05-04T17:43:38Z,b60275e29fe2361ab97ac0ac217840d7,"Mozilla/5.0 (Macintosh; Intel Mac OS X 10_15_7) AppleWebKit/537.36 (KHTML, like Gecko) Chrome/136.0.0.0 Safari/537.36",Macintosh,Chrome,136.0.0.0,OS X,10_15_7,https://5puzkbbxv1.cognition.run/?sona_id=52956,"en-US,en;q=0.9",8zyz0f760h65hux,20,"[""White""]",No,Female,NA,No,346648.69999999925,NA,4438,NA,"{""product_choice"":""A""}",choice,bww,trinary,catch,null,laptops,65,95,10,40,30,5,2,null,null,null,null,null,null,Processing speed,Memory (RAM),NA,NA
NA,NA,NA,NA,NA,choice_trial_setup,html-keyboard-response,32,157021,0.0-4.0-0.14,159,1,2025-05-04T17:43:38Z,b60275e29fe2361ab97ac0ac217840d7,"Mozilla/5.0 (Macintosh; Intel Mac OS X 10_15_7) AppleWebKit/537.36 (KHTML, like Gecko) Chrome/136.0.0.0 Safari/537.36",Macintosh,Chrome,136.0.0.0,OS X,10_15_7,https://5puzkbbxv1.cognition.run/?sona_id=52956,"en-US,en;q=0.9",8zyz0f760h65hux,20,"[""White""]",No,Female,NA,No,346648.69999999925,NA,null,<p></p>,null,choice,ctd,trinary,repulsion_B,1,microwave ovens,null,null,null,null,null,null,2,NA,NA,NA,NA,NA,NA,NA,NA,NA,NA
NA,NA,NA,NA,NA,choice_trial,survey-html-form,33,161154,0.0-4.0-1.14,159,1,2025-05-04T17:43:38Z,b60275e29fe2361ab97ac0ac217840d7,"Mozilla/5.0 (Macintosh; Intel Mac OS X 10_15_7) AppleWebKit/537.36 (KHTML, like Gecko) Chrome/136.0.0.0 Safari/537.36",Macintosh,Chrome,136.0.0.0,OS X,10_15_7,https://5puzkbbxv1.cognition.run/?sona_id=52956,"en-US,en;q=0.9",8zyz0f760h65hux,20,"[""White""]",No,Female,NA,No,346648.69999999925,NA,4129,NA,"{""product_choice"":""B""}",choice,ctd,trinary,repulsion_B,1,microwave ovens,null,null,null,null,null,null,2,90,100,80,40,30,40,Warranty,Cooking power,NA,NA
NA,NA,NA,NA,NA,choice_trial_setup,html-keyboard-response,34,161458,0.0-4.0-0.15,159,1,2025-05-04T17:43:38Z,b60275e29fe2361ab97ac0ac217840d7,"Mozilla/5.0 (Macintosh; Intel Mac OS X 10_15_7) AppleWebKit/537.36 (KHTML, like Gecko) Chrome/136.0.0.0 Safari/537.36",Macintosh,Chrome,136.0.0.0,OS X,10_15_7,https://5puzkbbxv1.cognition.run/?sona_id=52956,"en-US,en;q=0.9",8zyz0f760h65hux,20,"[""White""]",No,Female,NA,No,346648.69999999925,NA,null,<p></p>,null,choice,dtc,trinary,attraction,2,washing machines,null,null,null,null,null,null,2,NA,NA,NA,NA,NA,NA,NA,NA,NA,NA
NA,NA,NA,NA,NA,choice_trial,survey-html-form,35,164895,0.0-4.0-1.15,159,1,2025-05-04T17:43:38Z,b60275e29fe2361ab97ac0ac217840d7,"Mozilla/5.0 (Macintosh; Intel Mac OS X 10_15_7) AppleWebKit/537.36 (KHTML, like Gecko) Chrome/136.0.0.0 Safari/537.36",Macintosh,Chrome,136.0.0.0,OS X,10_15_7,https://5puzkbbxv1.cognition.run/?sona_id=52956,"en-US,en;q=0.9",8zyz0f760h65hux,20,"[""White""]",No,Female,NA,No,346648.69999999925,NA,3434,NA,"{""product_choice"":""B""}",choice,dtc,trinary,attraction,2,washing machines,null,null,null,null,null,null,2,50,60,40,60,50,60,Average lifespan,Energy savings,NA,NA
NA,NA,NA,NA,NA,choice_trial_setup,html-keyboard-response,36,165199,0.0-4.0-0.16,159,1,2025-05-04T17:43:38Z,b60275e29fe2361ab97ac0ac217840d7,"Mozilla/5.0 (Macintosh; Intel Mac OS X 10_15_7) AppleWebKit/537.36 (KHTML, like Gecko) Chrome/136.0.0.0 Safari/537.36",Macintosh,Chrome,136.0.0.0,OS X,10_15_7,https://5puzkbbxv1.cognition.run/?sona_id=52956,"en-US,en;q=0.9",8zyz0f760h65hux,20,"[""White""]",No,Female,NA,No,346648.69999999925,NA,null,<p></p>,null,choice,dct,trinary,attraction,2,microwave ovens,null,null,null,null,null,null,2,NA,NA,NA,NA,NA,NA,NA,NA,NA,NA
NA,NA,NA,NA,NA,choice_trial,survey-html-form,37,171617,0.0-4.0-1.16,159,1,2025-05-04T17:43:38Z,b60275e29fe2361ab97ac0ac217840d7,"Mozilla/5.0 (Macintosh; Intel Mac OS X 10_15_7) AppleWebKit/537.36 (KHTML, like Gecko) Chrome/136.0.0.0 Safari/537.36",Macintosh,Chrome,136.0.0.0,OS X,10_15_7,https://5puzkbbxv1.cognition.run/?sona_id=52956,"en-US,en;q=0.9",8zyz0f760h65hux,20,"[""White""]",No,Female,NA,No,346648.69999999925,NA,6413,NA,"{""product_choice"":""C""}",choice,dct,trinary,attraction,2,microwave ovens,null,null,null,null,null,null,2,50,60,40,60,50,60,Warranty,Cooking power,NA,NA
NA,NA,NA,NA,NA,choice_trial_setup,html-keyboard-response,38,171920,0.0-4.0-0.17,159,1,2025-05-04T17:43:38Z,b60275e29fe2361ab97ac0ac217840d7,"Mozilla/5.0 (Macintosh; Intel Mac OS X 10_15_7) AppleWebKit/537.36 (KHTML, like Gecko) Chrome/136.0.0.0 Safari/537.36",Macintosh,Chrome,136.0.0.0,OS X,10_15_7,https://5puzkbbxv1.cognition.run/?sona_id=52956,"en-US,en;q=0.9",8zyz0f760h65hux,20,"[""White""]",No,Female,NA,No,346648.69999999925,NA,null,<p></p>,null,choice,ctd,trinary,attraction,1,microwave ovens,null,null,null,null,null,null,2,NA,NA,NA,NA,NA,NA,NA,NA,NA,NA
NA,NA,NA,NA,NA,choice_trial,survey-html-form,39,179275,0.0-4.0-1.17,159,1,2025-05-04T17:43:38Z,b60275e29fe2361ab97ac0ac217840d7,"Mozilla/5.0 (Macintosh; Intel Mac OS X 10_15_7) AppleWebKit/537.36 (KHTML, like Gecko) Chrome/136.0.0.0 Safari/537.36",Macintosh,Chrome,136.0.0.0,OS X,10_15_7,https://5puzkbbxv1.cognition.run/?sona_id=52956,"en-US,en;q=0.9",8zyz0f760h65hux,20,"[""White""]",No,Female,NA,No,346648.69999999925,NA,7351,NA,"{""product_choice"":""A""}",choice,ctd,trinary,attraction,1,microwave ovens,null,null,null,null,null,null,2,60,50,60,50,60,40,Warranty,Cooking power,NA,NA
NA,NA,NA,NA,NA,choice_trial_setup,html-keyboard-response,40,179578,0.0-4.0-0.18,159,1,2025-05-04T17:43:38Z,b60275e29fe2361ab97ac0ac217840d7,"Mozilla/5.0 (Macintosh; Intel Mac OS X 10_15_7) AppleWebKit/537.36 (KHTML, like Gecko) Chrome/136.0.0.0 Safari/537.36",Macintosh,Chrome,136.0.0.0,OS X,10_15_7,https://5puzkbbxv1.cognition.run/?sona_id=52956,"en-US,en;q=0.9",8zyz0f760h65hux,20,"[""White""]",No,Female,NA,No,346648.69999999925,NA,null,<p></p>,null,choice,bw,binary,catch,null,laptops,55,65,30,5,null,null,2,NA,NA,NA,NA,NA,NA,NA,NA,NA,NA
NA,NA,NA,NA,NA,choice_trial,survey-html-form,41,183396,0.0-4.0-1.18,159,1,2025-05-04T17:43:38Z,b60275e29fe2361ab97ac0ac217840d7,"Mozilla/5.0 (Macintosh; Intel Mac OS X 10_15_7) AppleWebKit/537.36 (KHTML, like Gecko) Chrome/136.0.0.0 Safari/537.36",Macintosh,Chrome,136.0.0.0,OS X,10_15_7,https://5puzkbbxv1.cognition.run/?sona_id=52956,"en-US,en;q=0.9",8zyz0f760h65hux,20,"[""White""]",No,Female,NA,No,346648.69999999925,NA,3815,NA,"{""product_choice"":""A""}",choice,bw,binary,catch,null,laptops,55,65,30,5,null,null,2,null,null,null,null,null,null,Processing speed,Memory (RAM),NA,NA
NA,NA,NA,NA,NA,choice_trial_setup,html-keyboard-response,42,183700,0.0-4.0-0.19,159,1,2025-05-04T17:43:38Z,b60275e29fe2361ab97ac0ac217840d7,"Mozilla/5.0 (Macintosh; Intel Mac OS X 10_15_7) AppleWebKit/537.36 (KHTML, like Gecko) Chrome/136.0.0.0 Safari/537.36",Macintosh,Chrome,136.0.0.0,OS X,10_15_7,https://5puzkbbxv1.cognition.run/?sona_id=52956,"en-US,en;q=0.9",8zyz0f760h65hux,20,"[""White""]",No,Female,NA,No,346648.69999999925,NA,null,<p></p>,null,choice,tdc,trinary,repulsion_A,1,televisions,null,null,null,null,null,null,1,NA,NA,NA,NA,NA,NA,NA,NA,NA,NA
NA,NA,NA,NA,NA,choice_trial,survey-html-form,43,188043,0.0-4.0-1.19,159,1,2025-05-04T17:43:38Z,b60275e29fe2361ab97ac0ac217840d7,"Mozilla/5.0 (Macintosh; Intel Mac OS X 10_15_7) AppleWebKit/537.36 (KHTML, like Gecko) Chrome/136.0.0.0 Safari/537.36",Macintosh,Chrome,136.0.0.0,OS X,10_15_7,https://5puzkbbxv1.cognition.run/?sona_id=52956,"en-US,en;q=0.9",8zyz0f760h65hux,20,"[""White""]",No,Female,NA,No,346648.69999999925,NA,4340,NA,"{""product_choice"":""C""}",choice,tdc,trinary,repulsion_A,1,televisions,null,null,null,null,null,null,1,100,90,100,30,40,20,Screen size,Average lifespan,NA,NA
NA,NA,NA,NA,NA,choice_trial_setup,html-keyboard-response,44,188345,0.0-4.0-0.20,159,1,2025-05-04T17:43:38Z,b60275e29fe2361ab97ac0ac217840d7,"Mozilla/5.0 (Macintosh; Intel Mac OS X 10_15_7) AppleWebKit/537.36 (KHTML, like Gecko) Chrome/136.0.0.0 Safari/537.36",Macintosh,Chrome,136.0.0.0,OS X,10_15_7,https://5puzkbbxv1.cognition.run/?sona_id=52956,"en-US,en;q=0.9",8zyz0f760h65hux,20,"[""White""]",No,Female,NA,No,346648.69999999925,NA,null,<p></p>,null,choice,tc,binary,repulsion,2,televisions,null,null,null,null,null,null,1,NA,NA,NA,NA,NA,NA,NA,NA,NA,NA
NA,NA,NA,NA,NA,choice_trial,survey-html-form,45,190541,0.0-4.0-1.20,159,1,2025-05-04T17:43:38Z,b60275e29fe2361ab97ac0ac217840d7,"Mozilla/5.0 (Macintosh; Intel Mac OS X 10_15_7) AppleWebKit/537.36 (KHTML, like Gecko) Chrome/136.0.0.0 Safari/537.36",Macintosh,Chrome,136.0.0.0,OS X,10_15_7,https://5puzkbbxv1.cognition.run/?sona_id=52956,"en-US,en;q=0.9",8zyz0f760h65hux,20,"[""White""]",No,Female,NA,No,346648.69999999925,NA,2192,NA,"{""product_choice"":""A""}",choice,tc,binary,repulsion,2,televisions,null,null,null,null,null,null,1,30,40,null,100,90,null,Screen size,Average lifespan,NA,NA
NA,NA,NA,NA,NA,choice_trial_setup,html-keyboard-response,46,190844,0.0-4.0-0.21,159,1,2025-05-04T17:43:38Z,b60275e29fe2361ab97ac0ac217840d7,"Mozilla/5.0 (Macintosh; Intel Mac OS X 10_15_7) AppleWebKit/537.36 (KHTML, like Gecko) Chrome/136.0.0.0 Safari/537.36",Macintosh,Chrome,136.0.0.0,OS X,10_15_7,https://5puzkbbxv1.cognition.run/?sona_id=52956,"en-US,en;q=0.9",8zyz0f760h65hux,20,"[""White""]",No,Female,NA,No,346648.69999999925,NA,null,<p></p>,null,choice,cdt,trinary,repulsion_A,2,televisions,null,null,null,null,null,null,1,NA,NA,NA,NA,NA,NA,NA,NA,NA,NA
NA,NA,NA,NA,NA,choice_trial,survey-html-form,47,196270,0.0-4.0-1.21,159,1,2025-05-04T17:43:38Z,b60275e29fe2361ab97ac0ac217840d7,"Mozilla/5.0 (Macintosh; Intel Mac OS X 10_15_7) AppleWebKit/537.36 (KHTML, like Gecko) Chrome/136.0.0.0 Safari/537.36",Macintosh,Chrome,136.0.0.0,OS X,10_15_7,https://5puzkbbxv1.cognition.run/?sona_id=52956,"en-US,en;q=0.9",8zyz0f760h65hux,20,"[""White""]",No,Female,NA,No,346648.69999999925,NA,5422,NA,"{""product_choice"":""A""}",choice,cdt,trinary,repulsion_A,2,televisions,null,null,null,null,null,null,1,30,40,20,100,90,100,Screen size,Average lifespan,NA,NA
NA,NA,NA,NA,NA,choice_trial_setup,html-keyboard-response,48,196575,0.0-4.0-0.22,159,1,2025-05-04T17:43:38Z,b60275e29fe2361ab97ac0ac217840d7,"Mozilla/5.0 (Macintosh; Intel Mac OS X 10_15_7) AppleWebKit/537.36 (KHTML, like Gecko) Chrome/136.0.0.0 Safari/537.36",Macintosh,Chrome,136.0.0.0,OS X,10_15_7,https://5puzkbbxv1.cognition.run/?sona_id=52956,"en-US,en;q=0.9",8zyz0f760h65hux,20,"[""White""]",No,Female,NA,No,346648.69999999925,NA,null,<p></p>,null,choice,dct,trinary,repulsion_B,1,laptops,null,null,null,null,null,null,1,NA,NA,NA,NA,NA,NA,NA,NA,NA,NA
NA,NA,NA,NA,NA,choice_trial,survey-html-form,49,199802,0.0-4.0-1.22,159,1,2025-05-04T17:43:38Z,b60275e29fe2361ab97ac0ac217840d7,"Mozilla/5.0 (Macintosh; Intel Mac OS X 10_15_7) AppleWebKit/537.36 (KHTML, like Gecko) Chrome/136.0.0.0 Safari/537.36",Macintosh,Chrome,136.0.0.0,OS X,10_15_7,https://5puzkbbxv1.cognition.run/?sona_id=52956,"en-US,en;q=0.9",8zyz0f760h65hux,20,"[""White""]",No,Female,NA,No,346648.69999999925,NA,3223,NA,"{""product_choice"":""B""}",choice,dct,trinary,repulsion_B,1,laptops,null,null,null,null,null,null,1,90,100,80,40,30,40,Processing speed,Memory (RAM),NA,NA
NA,NA,NA,NA,NA,choice_trial_setup,html-keyboard-response,50,200106,0.0-4.0-0.23,159,1,2025-05-04T17:43:38Z,b60275e29fe2361ab97ac0ac217840d7,"Mozilla/5.0 (Macintosh; Intel Mac OS X 10_15_7) AppleWebKit/537.36 (KHTML, like Gecko) Chrome/136.0.0.0 Safari/537.36",Macintosh,Chrome,136.0.0.0,OS X,10_15_7,https://5puzkbbxv1.cognition.run/?sona_id=52956,"en-US,en;q=0.9",8zyz0f760h65hux,20,"[""White""]",No,Female,NA,No,346648.69999999925,NA,null,<p></p>,null,choice,dtc,trinary,repulsion_B,1,washing machines,null,null,null,null,null,null,1,NA,NA,NA,NA,NA,NA,NA,NA,NA,NA
NA,NA,NA,NA,NA,choice_trial,survey-html-form,51,202735,0.0-4.0-1.23,159,1,2025-05-04T17:43:38Z,b60275e29fe2361ab97ac0ac217840d7,"Mozilla/5.0 (Macintosh; Intel Mac OS X 10_15_7) AppleWebKit/537.36 (KHTML, like Gecko) Chrome/136.0.0.0 Safari/537.36",Macintosh,Chrome,136.0.0.0,OS X,10_15_7,https://5puzkbbxv1.cognition.run/?sona_id=52956,"en-US,en;q=0.9",8zyz0f760h65hux,20,"[""White""]",No,Female,NA,No,346648.69999999925,NA,2625,NA,"{""product_choice"":""C""}",choice,dtc,trinary,repulsion_B,1,washing machines,null,null,null,null,null,null,1,90,100,80,40,30,40,Average lifespan,Energy savings,NA,NA
NA,NA,NA,NA,NA,choice_trial_setup,html-keyboard-response,52,203040,0.0-4.0-0.24,159,1,2025-05-04T17:43:38Z,b60275e29fe2361ab97ac0ac217840d7,"Mozilla/5.0 (Macintosh; Intel Mac OS X 10_15_7) AppleWebKit/537.36 (KHTML, like Gecko) Chrome/136.0.0.0 Safari/537.36",Macintosh,Chrome,136.0.0.0,OS X,10_15_7,https://5puzkbbxv1.cognition.run/?sona_id=52956,"en-US,en;q=0.9",8zyz0f760h65hux,20,"[""White""]",No,Female,NA,No,346648.69999999925,NA,null,<p></p>,null,choice,ct,binary,attraction,NA,microwave ovens,null,null,null,null,null,null,2,NA,NA,NA,NA,NA,NA,NA,NA,NA,NA
NA,NA,NA,NA,NA,choice_trial,survey-html-form,53,207112,0.0-4.0-1.24,159,1,2025-05-04T17:43:38Z,b60275e29fe2361ab97ac0ac217840d7,"Mozilla/5.0 (Macintosh; Intel Mac OS X 10_15_7) AppleWebKit/537.36 (KHTML, like Gecko) Chrome/136.0.0.0 Safari/537.36",Macintosh,Chrome,136.0.0.0,OS X,10_15_7,https://5puzkbbxv1.cognition.run/?sona_id=52956,"en-US,en;q=0.9",8zyz0f760h65hux,20,"[""White""]",No,Female,NA,No,346648.69999999925,NA,4069,NA,"{""product_choice"":""A""}",choice,ct,binary,attraction,NA,microwave ovens,null,null,null,null,null,null,2,60,50,null,50,60,null,Warranty,Cooking power,NA,NA
NA,NA,NA,NA,NA,choice_trial_setup,html-keyboard-response,54,207417,0.0-4.0-0.25,159,1,2025-05-04T17:43:38Z,b60275e29fe2361ab97ac0ac217840d7,"Mozilla/5.0 (Macintosh; Intel Mac OS X 10_15_7) AppleWebKit/537.36 (KHTML, like Gecko) Chrome/136.0.0.0 Safari/537.36",Macintosh,Chrome,136.0.0.0,OS X,10_15_7,https://5puzkbbxv1.cognition.run/?sona_id=52956,"en-US,en;q=0.9",8zyz0f760h65hux,20,"[""White""]",No,Female,NA,No,346648.69999999925,NA,null,<p></p>,null,choice,tc,binary,repulsion,1,laptops,null,null,null,null,null,null,2,NA,NA,NA,NA,NA,NA,NA,NA,NA,NA
NA,NA,NA,NA,NA,choice_trial,survey-html-form,55,210190,0.0-4.0-1.25,159,1,2025-05-04T17:43:38Z,b60275e29fe2361ab97ac0ac217840d7,"Mozilla/5.0 (Macintosh; Intel Mac OS X 10_15_7) AppleWebKit/537.36 (KHTML, like Gecko) Chrome/136.0.0.0 Safari/537.36",Macintosh,Chrome,136.0.0.0,OS X,10_15_7,https://5puzkbbxv1.cognition.run/?sona_id=52956,"en-US,en;q=0.9",8zyz0f760h65hux,20,"[""White""]",No,Female,NA,No,346648.69999999925,NA,2770,NA,"{""product_choice"":""B""}",choice,tc,binary,repulsion,1,laptops,null,null,null,null,null,null,2,100,90,null,30,40,null,Processing speed,Memory (RAM),NA,NA
NA,NA,NA,NA,NA,choice_trial_setup,html-keyboard-response,56,210496,0.0-4.0-0.26,159,1,2025-05-04T17:43:38Z,b60275e29fe2361ab97ac0ac217840d7,"Mozilla/5.0 (Macintosh; Intel Mac OS X 10_15_7) AppleWebKit/537.36 (KHTML, like Gecko) Chrome/136.0.0.0 Safari/537.36",Macintosh,Chrome,136.0.0.0,OS X,10_15_7,https://5puzkbbxv1.cognition.run/?sona_id=52956,"en-US,en;q=0.9",8zyz0f760h65hux,20,"[""White""]",No,Female,NA,No,346648.69999999925,NA,null,<p></p>,null,choice,tc,binary,attraction,NA,televisions,null,null,null,null,null,null,2,NA,NA,NA,NA,NA,NA,NA,NA,NA,NA
NA,NA,NA,NA,NA,choice_trial,survey-html-form,57,213465,0.0-4.0-1.26,159,1,2025-05-04T17:43:38Z,b60275e29fe2361ab97ac0ac217840d7,"Mozilla/5.0 (Macintosh; Intel Mac OS X 10_15_7) AppleWebKit/537.36 (KHTML, like Gecko) Chrome/136.0.0.0 Safari/537.36",Macintosh,Chrome,136.0.0.0,OS X,10_15_7,https://5puzkbbxv1.cognition.run/?sona_id=52956,"en-US,en;q=0.9",8zyz0f760h65hux,20,"[""White""]",No,Female,NA,No,346648.69999999925,NA,2965,NA,"{""product_choice"":""B""}",choice,tc,binary,attraction,NA,televisions,null,null,null,null,null,null,2,60,50,null,50,60,null,Screen size,Average lifespan,NA,NA
NA,NA,NA,NA,NA,choice_trial_setup,html-keyboard-response,58,213769,0.0-4.0-0.27,159,1,2025-05-04T17:43:38Z,b60275e29fe2361ab97ac0ac217840d7,"Mozilla/5.0 (Macintosh; Intel Mac OS X 10_15_7) AppleWebKit/537.36 (KHTML, like Gecko) Chrome/136.0.0.0 Safari/537.36",Macintosh,Chrome,136.0.0.0,OS X,10_15_7,https://5puzkbbxv1.cognition.run/?sona_id=52956,"en-US,en;q=0.9",8zyz0f760h65hux,20,"[""White""]",No,Female,NA,No,346648.69999999925,NA,null,<p></p>,null,choice,ct,binary,repulsion,2,laptops,null,null,null,null,null,null,2,NA,NA,NA,NA,NA,NA,NA,NA,NA,NA
NA,NA,NA,NA,NA,choice_trial,survey-html-form,59,216786,0.0-4.0-1.27,159,1,2025-05-04T17:43:38Z,b60275e29fe2361ab97ac0ac217840d7,"Mozilla/5.0 (Macintosh; Intel Mac OS X 10_15_7) AppleWebKit/537.36 (KHTML, like Gecko) Chrome/136.0.0.0 Safari/537.36",Macintosh,Chrome,136.0.0.0,OS X,10_15_7,https://5puzkbbxv1.cognition.run/?sona_id=52956,"en-US,en;q=0.9",8zyz0f760h65hux,20,"[""White""]",No,Female,NA,No,346648.69999999925,NA,3012,NA,"{""product_choice"":""A""}",choice,ct,binary,repulsion,2,laptops,null,null,null,null,null,null,2,30,40,null,100,90,null,Processing speed,Memory (RAM),NA,NA
NA,NA,NA,NA,NA,choice_trial_setup,html-keyboard-response,60,217091,0.0-4.0-0.28,159,1,2025-05-04T17:43:38Z,b60275e29fe2361ab97ac0ac217840d7,"Mozilla/5.0 (Macintosh; Intel Mac OS X 10_15_7) AppleWebKit/537.36 (KHTML, like Gecko) Chrome/136.0.0.0 Safari/537.36",Macintosh,Chrome,136.0.0.0,OS X,10_15_7,https://5puzkbbxv1.cognition.run/?sona_id=52956,"en-US,en;q=0.9",8zyz0f760h65hux,20,"[""White""]",No,Female,NA,No,346648.69999999925,NA,null,<p></p>,null,choice,ct,binary,repulsion,2,microwave ovens,null,null,null,null,null,null,1,NA,NA,NA,NA,NA,NA,NA,NA,NA,NA
NA,NA,NA,NA,NA,choice_trial,survey-html-form,61,219897,0.0-4.0-1.28,159,1,2025-05-04T17:43:38Z,b60275e29fe2361ab97ac0ac217840d7,"Mozilla/5.0 (Macintosh; Intel Mac OS X 10_15_7) AppleWebKit/537.36 (KHTML, like Gecko) Chrome/136.0.0.0 Safari/537.36",Macintosh,Chrome,136.0.0.0,OS X,10_15_7,https://5puzkbbxv1.cognition.run/?sona_id=52956,"en-US,en;q=0.9",8zyz0f760h65hux,20,"[""White""]",No,Female,NA,No,346648.69999999925,NA,2802,NA,"{""product_choice"":""A""}",choice,ct,binary,repulsion,2,microwave ovens,null,null,null,null,null,null,1,30,40,null,100,90,null,Warranty,Cooking power,NA,NA
NA,NA,NA,NA,NA,choice_trial_setup,html-keyboard-response,62,220201,0.0-4.0-0.29,159,1,2025-05-04T17:43:38Z,b60275e29fe2361ab97ac0ac217840d7,"Mozilla/5.0 (Macintosh; Intel Mac OS X 10_15_7) AppleWebKit/537.36 (KHTML, like Gecko) Chrome/136.0.0.0 Safari/537.36",Macintosh,Chrome,136.0.0.0,OS X,10_15_7,https://5puzkbbxv1.cognition.run/?sona_id=52956,"en-US,en;q=0.9",8zyz0f760h65hux,20,"[""White""]",No,Female,NA,No,346648.69999999925,NA,null,<p></p>,null,choice,dct,trinary,attraction,2,televisions,null,null,null,null,null,null,1,NA,NA,NA,NA,NA,NA,NA,NA,NA,NA
NA,NA,NA,NA,NA,choice_trial,survey-html-form,63,223615,0.0-4.0-1.29,159,1,2025-05-04T17:43:38Z,b60275e29fe2361ab97ac0ac217840d7,"Mozilla/5.0 (Macintosh; Intel Mac OS X 10_15_7) AppleWebKit/537.36 (KHTML, like Gecko) Chrome/136.0.0.0 Safari/537.36",Macintosh,Chrome,136.0.0.0,OS X,10_15_7,https://5puzkbbxv1.cognition.run/?sona_id=52956,"en-US,en;q=0.9",8zyz0f760h65hux,20,"[""White""]",No,Female,NA,No,346648.69999999925,NA,3408,NA,"{""product_choice"":""B""}",choice,dct,trinary,attraction,2,televisions,null,null,null,null,null,null,1,50,60,40,60,50,60,Screen size,Average lifespan,NA,NA
NA,NA,NA,NA,NA,choice_trial_setup,html-keyboard-response,64,223918,0.0-4.0-0.30,159,1,2025-05-04T17:43:38Z,b60275e29fe2361ab97ac0ac217840d7,"Mozilla/5.0 (Macintosh; Intel Mac OS X 10_15_7) AppleWebKit/537.36 (KHTML, like Gecko) Chrome/136.0.0.0 Safari/537.36",Macintosh,Chrome,136.0.0.0,OS X,10_15_7,https://5puzkbbxv1.cognition.run/?sona_id=52956,"en-US,en;q=0.9",8zyz0f760h65hux,20,"[""White""]",No,Female,NA,No,346648.69999999925,NA,null,<p></p>,null,choice,dtc,trinary,repulsion_A,2,microwave ovens,null,null,null,null,null,null,2,NA,NA,NA,NA,NA,NA,NA,NA,NA,NA
NA,NA,NA,NA,NA,choice_trial,survey-html-form,65,227590,0.0-4.0-1.30,159,1,2025-05-04T17:43:38Z,b60275e29fe2361ab97ac0ac217840d7,"Mozilla/5.0 (Macintosh; Intel Mac OS X 10_15_7) AppleWebKit/537.36 (KHTML, like Gecko) Chrome/136.0.0.0 Safari/537.36",Macintosh,Chrome,136.0.0.0,OS X,10_15_7,https://5puzkbbxv1.cognition.run/?sona_id=52956,"en-US,en;q=0.9",8zyz0f760h65hux,20,"[""White""]",No,Female,NA,No,346648.69999999925,NA,3667,NA,"{""product_choice"":""C""}",choice,dtc,trinary,repulsion_A,2,microwave ovens,null,null,null,null,null,null,2,30,40,20,100,90,100,Warranty,Cooking power,NA,NA
NA,NA,NA,NA,NA,choice_trial_setup,html-keyboard-response,66,227895,0.0-4.0-0.31,159,1,2025-05-04T17:43:38Z,b60275e29fe2361ab97ac0ac217840d7,"Mozilla/5.0 (Macintosh; Intel Mac OS X 10_15_7) AppleWebKit/537.36 (KHTML, like Gecko) Chrome/136.0.0.0 Safari/537.36",Macintosh,Chrome,136.0.0.0,OS X,10_15_7,https://5puzkbbxv1.cognition.run/?sona_id=52956,"en-US,en;q=0.9",8zyz0f760h65hux,20,"[""White""]",No,Female,NA,No,346648.69999999925,NA,null,<p></p>,null,choice,wwb,trinary,catch,null,televisions,60,90,15,50,15,20,2,NA,NA,NA,NA,NA,NA,NA,NA,NA,NA
NA,NA,NA,NA,NA,choice_trial,survey-html-form,67,230524,0.0-4.0-1.31,159,1,2025-05-04T17:43:38Z,b60275e29fe2361ab97ac0ac217840d7,"Mozilla/5.0 (Macintosh; Intel Mac OS X 10_15_7) AppleWebKit/537.36 (KHTML, like Gecko) Chrome/136.0.0.0 Safari/537.36",Macintosh,Chrome,136.0.0.0,OS X,10_15_7,https://5puzkbbxv1.cognition.run/?sona_id=52956,"en-US,en;q=0.9",8zyz0f760h65hux,20,"[""White""]",No,Female,NA,No,346648.69999999925,NA,2625,NA,"{""product_choice"":""C""}",choice,wwb,trinary,catch,null,televisions,60,90,15,50,15,20,2,null,null,null,null,null,null,Screen size,Average lifespan,NA,NA
NA,NA,NA,NA,NA,choice_trial_setup,html-keyboard-response,68,230828,0.0-4.0-0.32,159,1,2025-05-04T17:43:38Z,b60275e29fe2361ab97ac0ac217840d7,"Mozilla/5.0 (Macintosh; Intel Mac OS X 10_15_7) AppleWebKit/537.36 (KHTML, like Gecko) Chrome/136.0.0.0 Safari/537.36",Macintosh,Chrome,136.0.0.0,OS X,10_15_7,https://5puzkbbxv1.cognition.run/?sona_id=52956,"en-US,en;q=0.9",8zyz0f760h65hux,20,"[""White""]",No,Female,NA,No,346648.69999999925,NA,null,<p></p>,null,choice,tdc,trinary,repulsion_A,1,washing machines,null,null,null,null,null,null,1,NA,NA,NA,NA,NA,NA,NA,NA,NA,NA
NA,NA,NA,NA,NA,choice_trial,survey-html-form,69,234055,0.0-4.0-1.32,159,1,2025-05-04T17:43:38Z,b60275e29fe2361ab97ac0ac217840d7,"Mozilla/5.0 (Macintosh; Intel Mac OS X 10_15_7) AppleWebKit/537.36 (KHTML, like Gecko) Chrome/136.0.0.0 Safari/537.36",Macintosh,Chrome,136.0.0.0,OS X,10_15_7,https://5puzkbbxv1.cognition.run/?sona_id=52956,"en-US,en;q=0.9",8zyz0f760h65hux,20,"[""White""]",No,Female,NA,No,346648.69999999925,NA,3223,NA,"{""product_choice"":""C""}",choice,tdc,trinary,repulsion_A,1,washing machines,null,null,null,null,null,null,1,100,90,100,30,40,20,Average lifespan,Energy savings,NA,NA
NA,NA,NA,NA,NA,choice_trial_setup,html-keyboard-response,70,234359,0.0-4.0-0.33,159,1,2025-05-04T17:43:38Z,b60275e29fe2361ab97ac0ac217840d7,"Mozilla/5.0 (Macintosh; Intel Mac OS X 10_15_7) AppleWebKit/537.36 (KHTML, like Gecko) Chrome/136.0.0.0 Safari/537.36",Macintosh,Chrome,136.0.0.0,OS X,10_15_7,https://5puzkbbxv1.cognition.run/?sona_id=52956,"en-US,en;q=0.9",8zyz0f760h65hux,20,"[""White""]",No,Female,NA,No,346648.69999999925,NA,null,<p></p>,null,choice,ct,binary,repulsion,2,washing machines,null,null,null,null,null,null,2,NA,NA,NA,NA,NA,NA,NA,NA,NA,NA
NA,NA,NA,NA,NA,choice_trial,survey-html-form,71,237207,0.0-4.0-1.33,159,1,2025-05-04T17:43:38Z,b60275e29fe2361ab97ac0ac217840d7,"Mozilla/5.0 (Macintosh; Intel Mac OS X 10_15_7) AppleWebKit/537.36 (KHTML, like Gecko) Chrome/136.0.0.0 Safari/537.36",Macintosh,Chrome,136.0.0.0,OS X,10_15_7,https://5puzkbbxv1.cognition.run/?sona_id=52956,"en-US,en;q=0.9",8zyz0f760h65hux,20,"[""White""]",No,Female,NA,No,346648.69999999925,NA,2843,NA,"{""product_choice"":""A""}",choice,ct,binary,repulsion,2,washing machines,null,null,null,null,null,null,2,30,40,null,100,90,null,Average lifespan,Energy savings,NA,NA
NA,NA,NA,NA,NA,choice_trial_setup,html-keyboard-response,72,237512,0.0-4.0-0.34,159,1,2025-05-04T17:43:38Z,b60275e29fe2361ab97ac0ac217840d7,"Mozilla/5.0 (Macintosh; Intel Mac OS X 10_15_7) AppleWebKit/537.36 (KHTML, like Gecko) Chrome/136.0.0.0 Safari/537.36",Macintosh,Chrome,136.0.0.0,OS X,10_15_7,https://5puzkbbxv1.cognition.run/?sona_id=52956,"en-US,en;q=0.9",8zyz0f760h65hux,20,"[""White""]",No,Female,NA,No,346648.69999999925,NA,null,<p></p>,null,choice,tdc,trinary,repulsion_B,1,televisions,null,null,null,null,null,null,2,NA,NA,NA,NA,NA,NA,NA,NA,NA,NA
NA,NA,NA,NA,NA,choice_trial,survey-html-form,73,240383,0.0-4.0-1.34,159,1,2025-05-04T17:43:38Z,b60275e29fe2361ab97ac0ac217840d7,"Mozilla/5.0 (Macintosh; Intel Mac OS X 10_15_7) AppleWebKit/537.36 (KHTML, like Gecko) Chrome/136.0.0.0 Safari/537.36",Macintosh,Chrome,136.0.0.0,OS X,10_15_7,https://5puzkbbxv1.cognition.run/?sona_id=52956,"en-US,en;q=0.9",8zyz0f760h65hux,20,"[""White""]",No,Female,NA,No,346648.69999999925,NA,2866,NA,"{""product_choice"":""A""}",choice,tdc,trinary,repulsion_B,1,televisions,null,null,null,null,null,null,2,90,100,80,40,30,40,Screen size,Average lifespan,NA,NA
NA,NA,NA,NA,NA,choice_trial_setup,html-keyboard-response,74,240688,0.0-4.0-0.35,159,1,2025-05-04T17:43:38Z,b60275e29fe2361ab97ac0ac217840d7,"Mozilla/5.0 (Macintosh; Intel Mac OS X 10_15_7) AppleWebKit/537.36 (KHTML, like Gecko) Chrome/136.0.0.0 Safari/537.36",Macintosh,Chrome,136.0.0.0,OS X,10_15_7,https://5puzkbbxv1.cognition.run/?sona_id=52956,"en-US,en;q=0.9",8zyz0f760h65hux,20,"[""White""]",No,Female,NA,No,346648.69999999925,NA,null,<p></p>,null,choice,tdc,trinary,attraction,2,laptops,null,null,null,null,null,null,2,NA,NA,NA,NA,NA,NA,NA,NA,NA,NA
NA,NA,NA,NA,NA,choice_trial,survey-html-form,75,243422,0.0-4.0-1.35,159,1,2025-05-04T17:43:38Z,b60275e29fe2361ab97ac0ac217840d7,"Mozilla/5.0 (Macintosh; Intel Mac OS X 10_15_7) AppleWebKit/537.36 (KHTML, like Gecko) Chrome/136.0.0.0 Safari/537.36",Macintosh,Chrome,136.0.0.0,OS X,10_15_7,https://5puzkbbxv1.cognition.run/?sona_id=52956,"en-US,en;q=0.9",8zyz0f760h65hux,20,"[""White""]",No,Female,NA,No,346648.69999999925,NA,2729,NA,"{""product_choice"":""A""}",choice,tdc,trinary,attraction,2,laptops,null,null,null,null,null,null,2,50,60,40,60,50,60,Processing speed,Memory (RAM),NA,NA
NA,NA,NA,NA,NA,choice_trial_setup,html-keyboard-response,76,243725,0.0-4.0-0.36,159,1,2025-05-04T17:43:38Z,b60275e29fe2361ab97ac0ac217840d7,"Mozilla/5.0 (Macintosh; Intel Mac OS X 10_15_7) AppleWebKit/537.36 (KHTML, like Gecko) Chrome/136.0.0.0 Safari/537.36",Macintosh,Chrome,136.0.0.0,OS X,10_15_7,https://5puzkbbxv1.cognition.run/?sona_id=52956,"en-US,en;q=0.9",8zyz0f760h65hux,20,"[""White""]",No,Female,NA,No,346648.69999999925,NA,null,<p></p>,null,choice,ctd,trinary,repulsion_A,2,laptops,null,null,null,null,null,null,1,NA,NA,NA,NA,NA,NA,NA,NA,NA,NA
NA,NA,NA,NA,NA,choice_trial,survey-html-form,77,247502,0.0-4.0-1.36,159,1,2025-05-04T17:43:38Z,b60275e29fe2361ab97ac0ac217840d7,"Mozilla/5.0 (Macintosh; Intel Mac OS X 10_15_7) AppleWebKit/537.36 (KHTML, like Gecko) Chrome/136.0.0.0 Safari/537.36",Macintosh,Chrome,136.0.0.0,OS X,10_15_7,https://5puzkbbxv1.cognition.run/?sona_id=52956,"en-US,en;q=0.9",8zyz0f760h65hux,20,"[""White""]",No,Female,NA,No,346648.69999999925,NA,3772,NA,"{""product_choice"":""A""}",choice,ctd,trinary,repulsion_A,2,laptops,null,null,null,null,null,null,1,30,40,20,100,90,100,Processing speed,Memory (RAM),NA,NA
NA,NA,NA,NA,NA,choice_trial_setup,html-keyboard-response,78,247806,0.0-4.0-0.37,159,1,2025-05-04T17:43:38Z,b60275e29fe2361ab97ac0ac217840d7,"Mozilla/5.0 (Macintosh; Intel Mac OS X 10_15_7) AppleWebKit/537.36 (KHTML, like Gecko) Chrome/136.0.0.0 Safari/537.36",Macintosh,Chrome,136.0.0.0,OS X,10_15_7,https://5puzkbbxv1.cognition.run/?sona_id=52956,"en-US,en;q=0.9",8zyz0f760h65hux,20,"[""White""]",No,Female,NA,No,346648.69999999925,NA,null,<p></p>,null,choice,wb,binary,catch,null,washing machines,95,95,20,50,null,null,1,NA,NA,NA,NA,NA,NA,NA,NA,NA,NA
NA,NA,NA,NA,NA,choice_trial,survey-html-form,79,251515,0.0-4.0-1.37,159,1,2025-05-04T17:43:38Z,b60275e29fe2361ab97ac0ac217840d7,"Mozilla/5.0 (Macintosh; Intel Mac OS X 10_15_7) AppleWebKit/537.36 (KHTML, like Gecko) Chrome/136.0.0.0 Safari/537.36",Macintosh,Chrome,136.0.0.0,OS X,10_15_7,https://5puzkbbxv1.cognition.run/?sona_id=52956,"en-US,en;q=0.9",8zyz0f760h65hux,20,"[""White""]",No,Female,NA,No,346648.69999999925,NA,3704,NA,"{""product_choice"":""B""}",choice,wb,binary,catch,null,washing machines,95,95,20,50,null,null,1,null,null,null,null,null,null,Average lifespan,Energy savings,NA,NA
NA,NA,NA,NA,NA,choice_trial_setup,html-keyboard-response,80,251819,0.0-4.0-0.38,159,1,2025-05-04T17:43:38Z,b60275e29fe2361ab97ac0ac217840d7,"Mozilla/5.0 (Macintosh; Intel Mac OS X 10_15_7) AppleWebKit/537.36 (KHTML, like Gecko) Chrome/136.0.0.0 Safari/537.36",Macintosh,Chrome,136.0.0.0,OS X,10_15_7,https://5puzkbbxv1.cognition.run/?sona_id=52956,"en-US,en;q=0.9",8zyz0f760h65hux,20,"[""White""]",No,Female,NA,No,346648.69999999925,NA,null,<p></p>,null,choice,ctd,trinary,repulsion_A,1,laptops,null,null,null,null,null,null,2,NA,NA,NA,NA,NA,NA,NA,NA,NA,NA
NA,NA,NA,NA,NA,choice_trial,survey-html-form,81,255256,0.0-4.0-1.38,159,1,2025-05-04T17:43:38Z,b60275e29fe2361ab97ac0ac217840d7,"Mozilla/5.0 (Macintosh; Intel Mac OS X 10_15_7) AppleWebKit/537.36 (KHTML, like Gecko) Chrome/136.0.0.0 Safari/537.36",Macintosh,Chrome,136.0.0.0,OS X,10_15_7,https://5puzkbbxv1.cognition.run/?sona_id=52956,"en-US,en;q=0.9",8zyz0f760h65hux,20,"[""White""]",No,Female,NA,No,346648.69999999925,NA,3432,NA,"{""product_choice"":""A""}",choice,ctd,trinary,repulsion_A,1,laptops,null,null,null,null,null,null,2,100,90,100,30,40,20,Processing speed,Memory (RAM),NA,NA
NA,NA,NA,NA,NA,choice_trial_setup,html-keyboard-response,82,255561,0.0-4.0-0.39,159,1,2025-05-04T17:43:38Z,b60275e29fe2361ab97ac0ac217840d7,"Mozilla/5.0 (Macintosh; Intel Mac OS X 10_15_7) AppleWebKit/537.36 (KHTML, like Gecko) Chrome/136.0.0.0 Safari/537.36",Macintosh,Chrome,136.0.0.0,OS X,10_15_7,https://5puzkbbxv1.cognition.run/?sona_id=52956,"en-US,en;q=0.9",8zyz0f760h65hux,20,"[""White""]",No,Female,NA,No,346648.69999999925,NA,null,<p></p>,null,choice,ctd,trinary,repulsion_B,2,televisions,null,null,null,null,null,null,2,NA,NA,NA,NA,NA,NA,NA,NA,NA,NA
NA,NA,NA,NA,NA,choice_trial,survey-html-form,83,258812,0.0-4.0-1.39,159,1,2025-05-04T17:43:38Z,b60275e29fe2361ab97ac0ac217840d7,"Mozilla/5.0 (Macintosh; Intel Mac OS X 10_15_7) AppleWebKit/537.36 (KHTML, like Gecko) Chrome/136.0.0.0 Safari/537.36",Macintosh,Chrome,136.0.0.0,OS X,10_15_7,https://5puzkbbxv1.cognition.run/?sona_id=52956,"en-US,en;q=0.9",8zyz0f760h65hux,20,"[""White""]",No,Female,NA,No,346648.69999999925,NA,3246,NA,"{""product_choice"":""B""}",choice,ctd,trinary,repulsion_B,2,televisions,null,null,null,null,null,null,2,40,30,40,90,100,80,Screen size,Average lifespan,NA,NA
NA,NA,NA,NA,NA,choice_trial_setup,html-keyboard-response,84,259117,0.0-4.0-0.40,159,1,2025-05-04T17:43:38Z,b60275e29fe2361ab97ac0ac217840d7,"Mozilla/5.0 (Macintosh; Intel Mac OS X 10_15_7) AppleWebKit/537.36 (KHTML, like Gecko) Chrome/136.0.0.0 Safari/537.36",Macintosh,Chrome,136.0.0.0,OS X,10_15_7,https://5puzkbbxv1.cognition.run/?sona_id=52956,"en-US,en;q=0.9",8zyz0f760h65hux,20,"[""White""]",No,Female,NA,No,346648.69999999925,NA,null,<p></p>,null,choice,tdc,trinary,repulsion_B,2,washing machines,null,null,null,null,null,null,1,NA,NA,NA,NA,NA,NA,NA,NA,NA,NA
NA,NA,NA,NA,NA,choice_trial,survey-html-form,85,265422,0.0-4.0-1.40,159,1,2025-05-04T17:43:38Z,b60275e29fe2361ab97ac0ac217840d7,"Mozilla/5.0 (Macintosh; Intel Mac OS X 10_15_7) AppleWebKit/537.36 (KHTML, like Gecko) Chrome/136.0.0.0 Safari/537.36",Macintosh,Chrome,136.0.0.0,OS X,10_15_7,https://5puzkbbxv1.cognition.run/?sona_id=52956,"en-US,en;q=0.9",8zyz0f760h65hux,20,"[""White""]",No,Female,NA,No,346648.69999999925,NA,6299,NA,"{""product_choice"":""C""}",choice,tdc,trinary,repulsion_B,2,washing machines,null,null,null,null,null,null,1,40,30,40,90,100,80,Average lifespan,Energy savings,NA,NA
NA,NA,NA,NA,NA,choice_trial_setup,html-keyboard-response,86,265728,0.0-4.0-0.41,159,1,2025-05-04T17:43:38Z,b60275e29fe2361ab97ac0ac217840d7,"Mozilla/5.0 (Macintosh; Intel Mac OS X 10_15_7) AppleWebKit/537.36 (KHTML, like Gecko) Chrome/136.0.0.0 Safari/537.36",Macintosh,Chrome,136.0.0.0,OS X,10_15_7,https://5puzkbbxv1.cognition.run/?sona_id=52956,"en-US,en;q=0.9",8zyz0f760h65hux,20,"[""White""]",No,Female,NA,No,346648.69999999925,NA,null,<p></p>,null,choice,ctd,trinary,attraction,1,televisions,null,null,null,null,null,null,2,NA,NA,NA,NA,NA,NA,NA,NA,NA,NA
NA,NA,NA,NA,NA,choice_trial,survey-html-form,87,269681,0.0-4.0-1.41,159,1,2025-05-04T17:43:38Z,b60275e29fe2361ab97ac0ac217840d7,"Mozilla/5.0 (Macintosh; Intel Mac OS X 10_15_7) AppleWebKit/537.36 (KHTML, like Gecko) Chrome/136.0.0.0 Safari/537.36",Macintosh,Chrome,136.0.0.0,OS X,10_15_7,https://5puzkbbxv1.cognition.run/?sona_id=52956,"en-US,en;q=0.9",8zyz0f760h65hux,20,"[""White""]",No,Female,NA,No,346648.69999999925,NA,3948,NA,"{""product_choice"":""A""}",choice,ctd,trinary,attraction,1,televisions,null,null,null,null,null,null,2,60,50,60,50,60,40,Screen size,Average lifespan,NA,NA
NA,NA,NA,NA,NA,choice_trial_setup,html-keyboard-response,88,269986,0.0-4.0-0.42,159,1,2025-05-04T17:43:38Z,b60275e29fe2361ab97ac0ac217840d7,"Mozilla/5.0 (Macintosh; Intel Mac OS X 10_15_7) AppleWebKit/537.36 (KHTML, like Gecko) Chrome/136.0.0.0 Safari/537.36",Macintosh,Chrome,136.0.0.0,OS X,10_15_7,https://5puzkbbxv1.cognition.run/?sona_id=52956,"en-US,en;q=0.9",8zyz0f760h65hux,20,"[""White""]",No,Female,NA,No,346648.69999999925,NA,null,<p></p>,null,choice,dct,trinary,repulsion_A,2,washing machines,null,null,null,null,null,null,1,NA,NA,NA,NA,NA,NA,NA,NA,NA,NA
NA,NA,NA,NA,NA,choice_trial,survey-html-form,89,273334,0.0-4.0-1.42,159,1,2025-05-04T17:43:38Z,b60275e29fe2361ab97ac0ac217840d7,"Mozilla/5.0 (Macintosh; Intel Mac OS X 10_15_7) AppleWebKit/537.36 (KHTML, like Gecko) Chrome/136.0.0.0 Safari/537.36",Macintosh,Chrome,136.0.0.0,OS X,10_15_7,https://5puzkbbxv1.cognition.run/?sona_id=52956,"en-US,en;q=0.9",8zyz0f760h65hux,20,"[""White""]",No,Female,NA,No,346648.69999999925,NA,3343,NA,"{""product_choice"":""B""}",choice,dct,trinary,repulsion_A,2,washing machines,null,null,null,null,null,null,1,30,40,20,100,90,100,Average lifespan,Energy savings,NA,NA
NA,NA,NA,NA,NA,choice_trial_setup,html-keyboard-response,90,273639,0.0-4.0-0.43,159,1,2025-05-04T17:43:38Z,b60275e29fe2361ab97ac0ac217840d7,"Mozilla/5.0 (Macintosh; Intel Mac OS X 10_15_7) AppleWebKit/537.36 (KHTML, like Gecko) Chrome/136.0.0.0 Safari/537.36",Macintosh,Chrome,136.0.0.0,OS X,10_15_7,https://5puzkbbxv1.cognition.run/?sona_id=52956,"en-US,en;q=0.9",8zyz0f760h65hux,20,"[""White""]",No,Female,NA,No,346648.69999999925,NA,null,<p></p>,null,choice,dtc,trinary,repulsion_B,2,microwave ovens,null,null,null,null,null,null,2,NA,NA,NA,NA,NA,NA,NA,NA,NA,NA
NA,NA,NA,NA,NA,choice_trial,survey-html-form,91,276687,0.0-4.0-1.43,159,1,2025-05-04T17:43:38Z,b60275e29fe2361ab97ac0ac217840d7,"Mozilla/5.0 (Macintosh; Intel Mac OS X 10_15_7) AppleWebKit/537.36 (KHTML, like Gecko) Chrome/136.0.0.0 Safari/537.36",Macintosh,Chrome,136.0.0.0,OS X,10_15_7,https://5puzkbbxv1.cognition.run/?sona_id=52956,"en-US,en;q=0.9",8zyz0f760h65hux,20,"[""White""]",No,Female,NA,No,346648.69999999925,NA,3042,NA,"{""product_choice"":""B""}",choice,dtc,trinary,repulsion_B,2,microwave ovens,null,null,null,null,null,null,2,40,30,40,90,100,80,Warranty,Cooking power,NA,NA
NA,NA,NA,NA,NA,post_trials_message,html-button-response,92,278263,0.0-5.0,159,1,2025-05-04T17:43:38Z,b60275e29fe2361ab97ac0ac217840d7,"Mozilla/5.0 (Macintosh; Intel Mac OS X 10_15_7) AppleWebKit/537.36 (KHTML, like Gecko) Chrome/136.0.0.0 Safari/537.36",Macintosh,Chrome,136.0.0.0,OS X,10_15_7,https://5puzkbbxv1.cognition.run/?sona_id=52956,"en-US,en;q=0.9",8zyz0f760h65hux,20,"[""White""]",No,Female,NA,No,346648.69999999925,NA,1571,<p> <b>Thank you for your patience!</b></p><p>  The study will be done after completing a brief form. </p>,0,NA,NA,NA,NA,NA,NA,NA,NA,NA,NA,NA,NA,NA,NA,NA,NA,NA,NA,NA,NA,NA,NA,NA
NA,NA,NA,NA,NA,survey_message,survey-text,93,320441,0.0-6.0,159,1,2025-05-04T17:43:38Z,b60275e29fe2361ab97ac0ac217840d7,"Mozilla/5.0 (Macintosh; Intel Mac OS X 10_15_7) AppleWebKit/537.36 (KHTML, like Gecko) Chrome/136.0.0.0 Safari/537.36",Macintosh,Chrome,136.0.0.0,OS X,10_15_7,https://5puzkbbxv1.cognition.run/?sona_id=52956,"en-US,en;q=0.9",8zyz0f760h65hux,20,"[""White""]",No,Female,NA,No,346648.69999999925,NA,42170,NA,"{""Q0"":""I wanted to be able to have the best warranty or power without sacrificing too much of the other factor.""}",NA,NA,NA,NA,NA,NA,NA,NA,NA,NA,NA,NA,NA,NA,NA,NA,NA,NA,NA,NA,NA,I wanted to be able to have the best warranty or power without sacrificing too much of the other factor.,NA
NA,NA,NA,NA,NA,demo_age,survey-text,94,322520,0.0-7.0,159,1,2025-05-04T17:43:38Z,b60275e29fe2361ab97ac0ac217840d7,"Mozilla/5.0 (Macintosh; Intel Mac OS X 10_15_7) AppleWebKit/537.36 (KHTML, like Gecko) Chrome/136.0.0.0 Safari/537.36",Macintosh,Chrome,136.0.0.0,OS X,10_15_7,https://5puzkbbxv1.cognition.run/?sona_id=52956,"en-US,en;q=0.9",8zyz0f760h65hux,20,"[""White""]",No,Female,NA,No,346648.69999999925,NA,2073,NA,"{""Q0"":""20""}",NA,NA,NA,NA,NA,NA,NA,NA,NA,NA,NA,NA,NA,NA,NA,NA,NA,NA,NA,NA,NA,NA,NA
NA,NA,NA,NA,NA,demo_race,survey-multi-select,95,324716,0.0-8.0,159,1,2025-05-04T17:43:38Z,b60275e29fe2361ab97ac0ac217840d7,"Mozilla/5.0 (Macintosh; Intel Mac OS X 10_15_7) AppleWebKit/537.36 (KHTML, like Gecko) Chrome/136.0.0.0 Safari/537.36",Macintosh,Chrome,136.0.0.0,OS X,10_15_7,https://5puzkbbxv1.cognition.run/?sona_id=52956,"en-US,en;q=0.9",8zyz0f760h65hux,20,"[""White""]",No,Female,NA,No,346648.69999999925,NA,2190,NA,"{""Q0"":[""White""]}",NA,NA,NA,NA,NA,NA,NA,NA,NA,NA,NA,NA,NA,NA,NA,NA,NA,NA,NA,NA,NA,NA,[0]
NA,NA,NA,NA,NA,demo_ethnicity_gender,survey-multi-choice,96,328110,0.0-9.0,159,1,2025-05-04T17:43:38Z,b60275e29fe2361ab97ac0ac217840d7,"Mozilla/5.0 (Macintosh; Intel Mac OS X 10_15_7) AppleWebKit/537.36 (KHTML, like Gecko) Chrome/136.0.0.0 Safari/537.36",Macintosh,Chrome,136.0.0.0,OS X,10_15_7,https://5puzkbbxv1.cognition.run/?sona_id=52956,"en-US,en;q=0.9",8zyz0f760h65hux,20,"[""White""]",No,Female,NA,No,346648.69999999925,NA,3388,NA,"{""Q0"":""No"",""Q1"":""Female""}",NA,NA,NA,NA,NA,NA,NA,NA,NA,NA,NA,NA,NA,NA,NA,NA,NA,NA,NA,NA,NA,NA,"[0,1]"
NA,NA,NA,NA,NA,demo_countries,survey-text,97,332797,0.0-10.0,159,1,2025-05-04T17:43:38Z,b60275e29fe2361ab97ac0ac217840d7,"Mozilla/5.0 (Macintosh; Intel Mac OS X 10_15_7) AppleWebKit/537.36 (KHTML, like Gecko) Chrome/136.0.0.0 Safari/537.36",Macintosh,Chrome,136.0.0.0,OS X,10_15_7,https://5puzkbbxv1.cognition.run/?sona_id=52956,"en-US,en;q=0.9",8zyz0f760h65hux,20,"[""White""]",No,Female,NA,No,346648.69999999925,NA,4673,NA,"{""Q0"":""NA""}",NA,NA,NA,NA,NA,NA,NA,NA,NA,NA,NA,NA,NA,NA,NA,NA,NA,NA,NA,NA,NA,NA,NA
NA,NA,NA,NA,NA,demo_prev_study,survey-multi-choice,98,339027,0.0-11.0,159,1,2025-05-04T17:43:38Z,b60275e29fe2361ab97ac0ac217840d7,"Mozilla/5.0 (Macintosh; Intel Mac OS X 10_15_7) AppleWebKit/537.36 (KHTML, like Gecko) Chrome/136.0.0.0 Safari/537.36",Macintosh,Chrome,136.0.0.0,OS X,10_15_7,https://5puzkbbxv1.cognition.run/?sona_id=52956,"en-US,en;q=0.9",8zyz0f760h65hux,20,"[""White""]",No,Female,NA,No,346648.69999999925,NA,6225,NA,"{""Q0"":""No""}",NA,NA,NA,NA,NA,NA,NA,NA,NA,NA,NA,NA,NA,NA,NA,NA,NA,NA,NA,NA,NA,NA,[0]
NA,NA,NA,NA,NA,post_survey_message,html-keyboard-response,99,342785,0.0-12.0,159,1,2025-05-04T17:43:38Z,b60275e29fe2361ab97ac0ac217840d7,"Mozilla/5.0 (Macintosh; Intel Mac OS X 10_15_7) AppleWebKit/537.36 (KHTML, like Gecko) Chrome/136.0.0.0 Safari/537.36",Macintosh,Chrome,136.0.0.0,OS X,10_15_7,https://5puzkbbxv1.cognition.run/?sona_id=52956,"en-US,en;q=0.9",8zyz0f760h65hux,20,"[""White""]",No,Female,NA,No,346648.69999999925,NA,3753,NA,j,NA,NA,NA,NA,NA,NA,NA,NA,NA,NA,NA,NA,NA,NA,NA,NA,NA,NA,NA,NA,NA,NA,NA
NA,NA,NA,NA,NA,debrief,image-keyboard-response,100,346648,0.0-13.0,159,1,2025-05-04T17:43:38Z,b60275e29fe2361ab97ac0ac217840d7,"Mozilla/5.0 (Macintosh; Intel Mac OS X 10_15_7) AppleWebKit/537.36 (KHTML, like Gecko) Chrome/136.0.0.0 Safari/537.36",Macintosh,Chrome,136.0.0.0,OS X,10_15_7,https://5puzkbbxv1.cognition.run/?sona_id=52956,"en-US,en;q=0.9",8zyz0f760h65hux,20,"[""White""]",No,Female,NA,No,346648.69999999925,NA,3852,Judg_choice_debrief.png,p,NA,NA,NA,NA,NA,NA,NA,NA,NA,NA,NA,NA,NA,NA,NA,NA,NA,NA,NA,NA,NA,NA,NA
