success,timeout,failed_images,failed_audio,failed_video,screen_id,trial_type,trial_index,time_elapsed,internal_node_id,run_id,condition,recorded_at,source_code_version,user_agent,device,browser,browser_version,platform,platform_version,referer,accept_language,ppt_id,age,race,ethnicity,gender,other_countries,prev_study,exp_duration,view_history,rt,stimulus,response,phase,order,set,effect,t_high,category,d1_best,d2_best,d1_worst1,d2_worst1,d1_worst2,d2_worst2,first_dim,d1_t,d1_c,d1_d,d2_t,d2_c,d2_d,d1_name,d2_name,strategy_response,question_order
TRUE,FALSE,[],[],[],img preload,preload,0,277,0.0-0.0,160,1,2025-05-04T18:56:58Z,b60275e29fe2361ab97ac0ac217840d7,"Mozilla/5.0 (Macintosh; Intel Mac OS X 10_15_7) AppleWebKit/537.36 (KHTML, like Gecko) Chrome/134.0.0.0 Safari/537.36",Macintosh,Chrome,134.0.0.0,OS X,10_15_7,https://5puzkbbxv1.cognition.run/?sona_id=53927,"en-US,en;q=0.9",m251esu325p3b56,22,"[""White""]",No,Male,NA,No,498693.89999997616,NA,NA,NA,NA,NA,NA,NA,NA,NA,NA,NA,NA,NA,NA,NA,NA,NA,NA,NA,NA,NA,NA,NA,NA,NA,NA,NA
NA,NA,NA,NA,NA,computer_message,instructions,1,2219,0.0-1.0,160,1,2025-05-04T18:56:58Z,b60275e29fe2361ab97ac0ac217840d7,"Mozilla/5.0 (Macintosh; Intel Mac OS X 10_15_7) AppleWebKit/537.36 (KHTML, like Gecko) Chrome/134.0.0.0 Safari/537.36",Macintosh,Chrome,134.0.0.0,OS X,10_15_7,https://5puzkbbxv1.cognition.run/?sona_id=53927,"en-US,en;q=0.9",m251esu325p3b56,22,"[""White""]",No,Male,NA,No,498693.89999997616,"[{""page_index"":0,""viewing_time"":1941}]",1941,NA,NA,NA,NA,NA,NA,NA,NA,NA,NA,NA,NA,NA,NA,NA,NA,NA,NA,NA,NA,NA,NA,NA,NA,NA
TRUE,NA,NA,NA,NA,NA,fullscreen,2,4266,0.0-2.0,160,1,2025-05-04T18:56:58Z,b60275e29fe2361ab97ac0ac217840d7,"Mozilla/5.0 (Macintosh; Intel Mac OS X 10_15_7) AppleWebKit/537.36 (KHTML, like Gecko) Chrome/134.0.0.0 Safari/537.36",Macintosh,Chrome,134.0.0.0,OS X,10_15_7,https://5puzkbbxv1.cognition.run/?sona_id=53927,"en-US,en;q=0.9",m251esu325p3b56,22,"[""White""]",No,Male,NA,No,498693.89999997616,NA,1044,NA,NA,NA,NA,NA,NA,NA,NA,NA,NA,NA,NA,NA,NA,NA,NA,NA,NA,NA,NA,NA,NA,NA,NA,NA
NA,NA,NA,NA,NA,choice_instructions,instructions,3,23078,0.0-3.0,160,1,2025-05-04T18:56:58Z,b60275e29fe2361ab97ac0ac217840d7,"Mozilla/5.0 (Macintosh; Intel Mac OS X 10_15_7) AppleWebKit/537.36 (KHTML, like Gecko) Chrome/134.0.0.0 Safari/537.36",Macintosh,Chrome,134.0.0.0,OS X,10_15_7,https://5puzkbbxv1.cognition.run/?sona_id=53927,"en-US,en;q=0.9",m251esu325p3b56,22,"[""White""]",No,Male,NA,No,498693.89999997616,"[{""page_index"":0,""viewing_time"":1103},{""page_index"":1,""viewing_time"":1923},{""page_index"":2,""viewing_time"":1484},{""page_index"":3,""viewing_time"":1070},{""page_index"":4,""viewing_time"":950},{""page_index"":5,""viewing_time"":7660},{""page_index"":6,""viewing_time"":4621}]",18810,NA,NA,NA,NA,NA,NA,NA,NA,NA,NA,NA,NA,NA,NA,NA,NA,NA,NA,NA,NA,NA,NA,NA,NA,NA
NA,NA,NA,NA,NA,choice_trial_setup,html-keyboard-response,4,23383,0.0-4.0-0.0,160,1,2025-05-04T18:56:58Z,b60275e29fe2361ab97ac0ac217840d7,"Mozilla/5.0 (Macintosh; Intel Mac OS X 10_15_7) AppleWebKit/537.36 (KHTML, like Gecko) Chrome/134.0.0.0 Safari/537.36",Macintosh,Chrome,134.0.0.0,OS X,10_15_7,https://5puzkbbxv1.cognition.run/?sona_id=53927,"en-US,en;q=0.9",m251esu325p3b56,22,"[""White""]",No,Male,NA,No,498693.89999997616,NA,null,<p></p>,null,choice,dct,trinary,repulsion_B,2,laptops,null,null,null,null,null,null,2,NA,NA,NA,NA,NA,NA,NA,NA,NA,NA
NA,NA,NA,NA,NA,choice_trial,survey-html-form,5,44618,0.0-4.0-1.0,160,1,2025-05-04T18:56:58Z,b60275e29fe2361ab97ac0ac217840d7,"Mozilla/5.0 (Macintosh; Intel Mac OS X 10_15_7) AppleWebKit/537.36 (KHTML, like Gecko) Chrome/134.0.0.0 Safari/537.36",Macintosh,Chrome,134.0.0.0,OS X,10_15_7,https://5puzkbbxv1.cognition.run/?sona_id=53927,"en-US,en;q=0.9",m251esu325p3b56,22,"[""White""]",No,Male,NA,No,498693.89999997616,NA,21230,NA,"{""product_choice"":""C""}",choice,dct,trinary,repulsion_B,2,laptops,null,null,null,null,null,null,2,40,30,40,90,100,80,Processing speed,Memory (RAM),NA,NA
NA,NA,NA,NA,NA,choice_trial_setup,html-keyboard-response,6,44921,0.0-4.0-0.1,160,1,2025-05-04T18:56:58Z,b60275e29fe2361ab97ac0ac217840d7,"Mozilla/5.0 (Macintosh; Intel Mac OS X 10_15_7) AppleWebKit/537.36 (KHTML, like Gecko) Chrome/134.0.0.0 Safari/537.36",Macintosh,Chrome,134.0.0.0,OS X,10_15_7,https://5puzkbbxv1.cognition.run/?sona_id=53927,"en-US,en;q=0.9",m251esu325p3b56,22,"[""White""]",No,Male,NA,No,498693.89999997616,NA,null,<p></p>,null,choice,cdt,trinary,attraction,2,televisions,null,null,null,null,null,null,1,NA,NA,NA,NA,NA,NA,NA,NA,NA,NA
NA,NA,NA,NA,NA,choice_trial,survey-html-form,7,57071,0.0-4.0-1.1,160,1,2025-05-04T18:56:58Z,b60275e29fe2361ab97ac0ac217840d7,"Mozilla/5.0 (Macintosh; Intel Mac OS X 10_15_7) AppleWebKit/537.36 (KHTML, like Gecko) Chrome/134.0.0.0 Safari/537.36",Macintosh,Chrome,134.0.0.0,OS X,10_15_7,https://5puzkbbxv1.cognition.run/?sona_id=53927,"en-US,en;q=0.9",m251esu325p3b56,22,"[""White""]",No,Male,NA,No,498693.89999997616,NA,12148,NA,"{""product_choice"":""C""}",choice,cdt,trinary,attraction,2,televisions,null,null,null,null,null,null,1,50,60,40,60,50,60,Screen size,Average lifespan,NA,NA
NA,NA,NA,NA,NA,choice_trial_setup,html-keyboard-response,8,57375,0.0-4.0-0.2,160,1,2025-05-04T18:56:58Z,b60275e29fe2361ab97ac0ac217840d7,"Mozilla/5.0 (Macintosh; Intel Mac OS X 10_15_7) AppleWebKit/537.36 (KHTML, like Gecko) Chrome/134.0.0.0 Safari/537.36",Macintosh,Chrome,134.0.0.0,OS X,10_15_7,https://5puzkbbxv1.cognition.run/?sona_id=53927,"en-US,en;q=0.9",m251esu325p3b56,22,"[""White""]",No,Male,NA,No,498693.89999997616,NA,null,<p></p>,null,choice,wwb,trinary,catch,null,televisions,95,70,20,20,5,30,1,NA,NA,NA,NA,NA,NA,NA,NA,NA,NA
NA,NA,NA,NA,NA,choice_trial,survey-html-form,9,65881,0.0-4.0-1.2,160,1,2025-05-04T18:56:58Z,b60275e29fe2361ab97ac0ac217840d7,"Mozilla/5.0 (Macintosh; Intel Mac OS X 10_15_7) AppleWebKit/537.36 (KHTML, like Gecko) Chrome/134.0.0.0 Safari/537.36",Macintosh,Chrome,134.0.0.0,OS X,10_15_7,https://5puzkbbxv1.cognition.run/?sona_id=53927,"en-US,en;q=0.9",m251esu325p3b56,22,"[""White""]",No,Male,NA,No,498693.89999997616,NA,8502,NA,"{""product_choice"":""C""}",choice,wwb,trinary,catch,null,televisions,95,70,20,20,5,30,1,null,null,null,null,null,null,Screen size,Average lifespan,NA,NA
NA,NA,NA,NA,NA,choice_trial_setup,html-keyboard-response,10,66184,0.0-4.0-0.3,160,1,2025-05-04T18:56:58Z,b60275e29fe2361ab97ac0ac217840d7,"Mozilla/5.0 (Macintosh; Intel Mac OS X 10_15_7) AppleWebKit/537.36 (KHTML, like Gecko) Chrome/134.0.0.0 Safari/537.36",Macintosh,Chrome,134.0.0.0,OS X,10_15_7,https://5puzkbbxv1.cognition.run/?sona_id=53927,"en-US,en;q=0.9",m251esu325p3b56,22,"[""White""]",No,Male,NA,No,498693.89999997616,NA,null,<p></p>,null,choice,tdc,trinary,attraction,2,washing machines,null,null,null,null,null,null,1,NA,NA,NA,NA,NA,NA,NA,NA,NA,NA
NA,NA,NA,NA,NA,choice_trial,survey-html-form,11,78109,0.0-4.0-1.3,160,1,2025-05-04T18:56:58Z,b60275e29fe2361ab97ac0ac217840d7,"Mozilla/5.0 (Macintosh; Intel Mac OS X 10_15_7) AppleWebKit/537.36 (KHTML, like Gecko) Chrome/134.0.0.0 Safari/537.36",Macintosh,Chrome,134.0.0.0,OS X,10_15_7,https://5puzkbbxv1.cognition.run/?sona_id=53927,"en-US,en;q=0.9",m251esu325p3b56,22,"[""White""]",No,Male,NA,No,498693.89999997616,NA,11921,NA,"{""product_choice"":""C""}",choice,tdc,trinary,attraction,2,washing machines,null,null,null,null,null,null,1,50,60,40,60,50,60,Average lifespan,Energy savings,NA,NA
NA,NA,NA,NA,NA,choice_trial_setup,html-keyboard-response,12,78412,0.0-4.0-0.4,160,1,2025-05-04T18:56:58Z,b60275e29fe2361ab97ac0ac217840d7,"Mozilla/5.0 (Macintosh; Intel Mac OS X 10_15_7) AppleWebKit/537.36 (KHTML, like Gecko) Chrome/134.0.0.0 Safari/537.36",Macintosh,Chrome,134.0.0.0,OS X,10_15_7,https://5puzkbbxv1.cognition.run/?sona_id=53927,"en-US,en;q=0.9",m251esu325p3b56,22,"[""White""]",No,Male,NA,No,498693.89999997616,NA,null,<p></p>,null,choice,ct,binary,repulsion,2,microwave ovens,null,null,null,null,null,null,1,NA,NA,NA,NA,NA,NA,NA,NA,NA,NA
NA,NA,NA,NA,NA,choice_trial,survey-html-form,13,85643,0.0-4.0-1.4,160,1,2025-05-04T18:56:58Z,b60275e29fe2361ab97ac0ac217840d7,"Mozilla/5.0 (Macintosh; Intel Mac OS X 10_15_7) AppleWebKit/537.36 (KHTML, like Gecko) Chrome/134.0.0.0 Safari/537.36",Macintosh,Chrome,134.0.0.0,OS X,10_15_7,https://5puzkbbxv1.cognition.run/?sona_id=53927,"en-US,en;q=0.9",m251esu325p3b56,22,"[""White""]",No,Male,NA,No,498693.89999997616,NA,7228,NA,"{""product_choice"":""A""}",choice,ct,binary,repulsion,2,microwave ovens,null,null,null,null,null,null,1,30,40,null,100,90,null,Warranty,Cooking power,NA,NA
NA,NA,NA,NA,NA,choice_trial_setup,html-keyboard-response,14,85947,0.0-4.0-0.5,160,1,2025-05-04T18:56:58Z,b60275e29fe2361ab97ac0ac217840d7,"Mozilla/5.0 (Macintosh; Intel Mac OS X 10_15_7) AppleWebKit/537.36 (KHTML, like Gecko) Chrome/134.0.0.0 Safari/537.36",Macintosh,Chrome,134.0.0.0,OS X,10_15_7,https://5puzkbbxv1.cognition.run/?sona_id=53927,"en-US,en;q=0.9",m251esu325p3b56,22,"[""White""]",No,Male,NA,No,498693.89999997616,NA,null,<p></p>,null,choice,bw,binary,catch,null,washing machines,50,60,15,50,null,null,2,NA,NA,NA,NA,NA,NA,NA,NA,NA,NA
NA,NA,NA,NA,NA,choice_trial,survey-html-form,15,89895,0.0-4.0-1.5,160,1,2025-05-04T18:56:58Z,b60275e29fe2361ab97ac0ac217840d7,"Mozilla/5.0 (Macintosh; Intel Mac OS X 10_15_7) AppleWebKit/537.36 (KHTML, like Gecko) Chrome/134.0.0.0 Safari/537.36",Macintosh,Chrome,134.0.0.0,OS X,10_15_7,https://5puzkbbxv1.cognition.run/?sona_id=53927,"en-US,en;q=0.9",m251esu325p3b56,22,"[""White""]",No,Male,NA,No,498693.89999997616,NA,3945,NA,"{""product_choice"":""A""}",choice,bw,binary,catch,null,washing machines,50,60,15,50,null,null,2,null,null,null,null,null,null,Average lifespan,Energy savings,NA,NA
NA,NA,NA,NA,NA,choice_trial_setup,html-keyboard-response,16,90199,0.0-4.0-0.6,160,1,2025-05-04T18:56:58Z,b60275e29fe2361ab97ac0ac217840d7,"Mozilla/5.0 (Macintosh; Intel Mac OS X 10_15_7) AppleWebKit/537.36 (KHTML, like Gecko) Chrome/134.0.0.0 Safari/537.36",Macintosh,Chrome,134.0.0.0,OS X,10_15_7,https://5puzkbbxv1.cognition.run/?sona_id=53927,"en-US,en;q=0.9",m251esu325p3b56,22,"[""White""]",No,Male,NA,No,498693.89999997616,NA,null,<p></p>,null,choice,tcd,trinary,attraction,2,laptops,null,null,null,null,null,null,2,NA,NA,NA,NA,NA,NA,NA,NA,NA,NA
NA,NA,NA,NA,NA,choice_trial,survey-html-form,17,99375,0.0-4.0-1.6,160,1,2025-05-04T18:56:58Z,b60275e29fe2361ab97ac0ac217840d7,"Mozilla/5.0 (Macintosh; Intel Mac OS X 10_15_7) AppleWebKit/537.36 (KHTML, like Gecko) Chrome/134.0.0.0 Safari/537.36",Macintosh,Chrome,134.0.0.0,OS X,10_15_7,https://5puzkbbxv1.cognition.run/?sona_id=53927,"en-US,en;q=0.9",m251esu325p3b56,22,"[""White""]",No,Male,NA,No,498693.89999997616,NA,9172,NA,"{""product_choice"":""B""}",choice,tcd,trinary,attraction,2,laptops,null,null,null,null,null,null,2,50,60,40,60,50,60,Processing speed,Memory (RAM),NA,NA
NA,NA,NA,NA,NA,choice_trial_setup,html-keyboard-response,18,99679,0.0-4.0-0.7,160,1,2025-05-04T18:56:58Z,b60275e29fe2361ab97ac0ac217840d7,"Mozilla/5.0 (Macintosh; Intel Mac OS X 10_15_7) AppleWebKit/537.36 (KHTML, like Gecko) Chrome/134.0.0.0 Safari/537.36",Macintosh,Chrome,134.0.0.0,OS X,10_15_7,https://5puzkbbxv1.cognition.run/?sona_id=53927,"en-US,en;q=0.9",m251esu325p3b56,22,"[""White""]",No,Male,NA,No,498693.89999997616,NA,null,<p></p>,null,choice,tc,binary,attraction,NA,laptops,null,null,null,null,null,null,2,NA,NA,NA,NA,NA,NA,NA,NA,NA,NA
NA,NA,NA,NA,NA,choice_trial,survey-html-form,19,106643,0.0-4.0-1.7,160,1,2025-05-04T18:56:58Z,b60275e29fe2361ab97ac0ac217840d7,"Mozilla/5.0 (Macintosh; Intel Mac OS X 10_15_7) AppleWebKit/537.36 (KHTML, like Gecko) Chrome/134.0.0.0 Safari/537.36",Macintosh,Chrome,134.0.0.0,OS X,10_15_7,https://5puzkbbxv1.cognition.run/?sona_id=53927,"en-US,en;q=0.9",m251esu325p3b56,22,"[""White""]",No,Male,NA,No,498693.89999997616,NA,6960,NA,"{""product_choice"":""A""}",choice,tc,binary,attraction,NA,laptops,null,null,null,null,null,null,2,60,50,null,50,60,null,Processing speed,Memory (RAM),NA,NA
NA,NA,NA,NA,NA,choice_trial_setup,html-keyboard-response,20,106946,0.0-4.0-0.8,160,1,2025-05-04T18:56:58Z,b60275e29fe2361ab97ac0ac217840d7,"Mozilla/5.0 (Macintosh; Intel Mac OS X 10_15_7) AppleWebKit/537.36 (KHTML, like Gecko) Chrome/134.0.0.0 Safari/537.36",Macintosh,Chrome,134.0.0.0,OS X,10_15_7,https://5puzkbbxv1.cognition.run/?sona_id=53927,"en-US,en;q=0.9",m251esu325p3b56,22,"[""White""]",No,Male,NA,No,498693.89999997616,NA,null,<p></p>,null,choice,tc,binary,repulsion,1,microwave ovens,null,null,null,null,null,null,2,NA,NA,NA,NA,NA,NA,NA,NA,NA,NA
NA,NA,NA,NA,NA,choice_trial,survey-html-form,21,211058,0.0-4.0-1.8,160,1,2025-05-04T18:56:58Z,b60275e29fe2361ab97ac0ac217840d7,"Mozilla/5.0 (Macintosh; Intel Mac OS X 10_15_7) AppleWebKit/537.36 (KHTML, like Gecko) Chrome/134.0.0.0 Safari/537.36",Macintosh,Chrome,134.0.0.0,OS X,10_15_7,https://5puzkbbxv1.cognition.run/?sona_id=53927,"en-US,en;q=0.9",m251esu325p3b56,22,"[""White""]",No,Male,NA,No,498693.89999997616,NA,104108,NA,"{""product_choice"":""B""}",choice,tc,binary,repulsion,1,microwave ovens,null,null,null,null,null,null,2,100,90,null,30,40,null,Warranty,Cooking power,NA,NA
NA,NA,NA,NA,NA,choice_trial_setup,html-keyboard-response,22,211363,0.0-4.0-0.9,160,1,2025-05-04T18:56:58Z,b60275e29fe2361ab97ac0ac217840d7,"Mozilla/5.0 (Macintosh; Intel Mac OS X 10_15_7) AppleWebKit/537.36 (KHTML, like Gecko) Chrome/134.0.0.0 Safari/537.36",Macintosh,Chrome,134.0.0.0,OS X,10_15_7,https://5puzkbbxv1.cognition.run/?sona_id=53927,"en-US,en;q=0.9",m251esu325p3b56,22,"[""White""]",No,Male,NA,No,498693.89999997616,NA,null,<p></p>,null,choice,bw,binary,catch,null,laptops,60,85,5,20,null,null,2,NA,NA,NA,NA,NA,NA,NA,NA,NA,NA
NA,NA,NA,NA,NA,choice_trial,survey-html-form,23,213644,0.0-4.0-1.9,160,1,2025-05-04T18:56:58Z,b60275e29fe2361ab97ac0ac217840d7,"Mozilla/5.0 (Macintosh; Intel Mac OS X 10_15_7) AppleWebKit/537.36 (KHTML, like Gecko) Chrome/134.0.0.0 Safari/537.36",Macintosh,Chrome,134.0.0.0,OS X,10_15_7,https://5puzkbbxv1.cognition.run/?sona_id=53927,"en-US,en;q=0.9",m251esu325p3b56,22,"[""White""]",No,Male,NA,No,498693.89999997616,NA,2277,NA,"{""product_choice"":""A""}",choice,bw,binary,catch,null,laptops,60,85,5,20,null,null,2,null,null,null,null,null,null,Processing speed,Memory (RAM),NA,NA
NA,NA,NA,NA,NA,choice_trial_setup,html-keyboard-response,24,213949,0.0-4.0-0.10,160,1,2025-05-04T18:56:58Z,b60275e29fe2361ab97ac0ac217840d7,"Mozilla/5.0 (Macintosh; Intel Mac OS X 10_15_7) AppleWebKit/537.36 (KHTML, like Gecko) Chrome/134.0.0.0 Safari/537.36",Macintosh,Chrome,134.0.0.0,OS X,10_15_7,https://5puzkbbxv1.cognition.run/?sona_id=53927,"en-US,en;q=0.9",m251esu325p3b56,22,"[""White""]",No,Male,NA,No,498693.89999997616,NA,null,<p></p>,null,choice,dtc,trinary,repulsion_B,1,laptops,null,null,null,null,null,null,1,NA,NA,NA,NA,NA,NA,NA,NA,NA,NA
NA,NA,NA,NA,NA,choice_trial,survey-html-form,25,216854,0.0-4.0-1.10,160,1,2025-05-04T18:56:58Z,b60275e29fe2361ab97ac0ac217840d7,"Mozilla/5.0 (Macintosh; Intel Mac OS X 10_15_7) AppleWebKit/537.36 (KHTML, like Gecko) Chrome/134.0.0.0 Safari/537.36",Macintosh,Chrome,134.0.0.0,OS X,10_15_7,https://5puzkbbxv1.cognition.run/?sona_id=53927,"en-US,en;q=0.9",m251esu325p3b56,22,"[""White""]",No,Male,NA,No,498693.89999997616,NA,2900,NA,"{""product_choice"":""B""}",choice,dtc,trinary,repulsion_B,1,laptops,null,null,null,null,null,null,1,90,100,80,40,30,40,Processing speed,Memory (RAM),NA,NA
NA,NA,NA,NA,NA,choice_trial_setup,html-keyboard-response,26,217158,0.0-4.0-0.11,160,1,2025-05-04T18:56:58Z,b60275e29fe2361ab97ac0ac217840d7,"Mozilla/5.0 (Macintosh; Intel Mac OS X 10_15_7) AppleWebKit/537.36 (KHTML, like Gecko) Chrome/134.0.0.0 Safari/537.36",Macintosh,Chrome,134.0.0.0,OS X,10_15_7,https://5puzkbbxv1.cognition.run/?sona_id=53927,"en-US,en;q=0.9",m251esu325p3b56,22,"[""White""]",No,Male,NA,No,498693.89999997616,NA,null,<p></p>,null,choice,wb,binary,catch,null,microwave ovens,65,85,10,50,null,null,1,NA,NA,NA,NA,NA,NA,NA,NA,NA,NA
NA,NA,NA,NA,NA,choice_trial,survey-html-form,27,220391,0.0-4.0-1.11,160,1,2025-05-04T18:56:58Z,b60275e29fe2361ab97ac0ac217840d7,"Mozilla/5.0 (Macintosh; Intel Mac OS X 10_15_7) AppleWebKit/537.36 (KHTML, like Gecko) Chrome/134.0.0.0 Safari/537.36",Macintosh,Chrome,134.0.0.0,OS X,10_15_7,https://5puzkbbxv1.cognition.run/?sona_id=53927,"en-US,en;q=0.9",m251esu325p3b56,22,"[""White""]",No,Male,NA,No,498693.89999997616,NA,3227,NA,"{""product_choice"":""B""}",choice,wb,binary,catch,null,microwave ovens,65,85,10,50,null,null,1,null,null,null,null,null,null,Warranty,Cooking power,NA,NA
NA,NA,NA,NA,NA,choice_trial_setup,html-keyboard-response,28,220695,0.0-4.0-0.12,160,1,2025-05-04T18:56:58Z,b60275e29fe2361ab97ac0ac217840d7,"Mozilla/5.0 (Macintosh; Intel Mac OS X 10_15_7) AppleWebKit/537.36 (KHTML, like Gecko) Chrome/134.0.0.0 Safari/537.36",Macintosh,Chrome,134.0.0.0,OS X,10_15_7,https://5puzkbbxv1.cognition.run/?sona_id=53927,"en-US,en;q=0.9",m251esu325p3b56,22,"[""White""]",No,Male,NA,No,498693.89999997616,NA,null,<p></p>,null,choice,ct,binary,repulsion,2,washing machines,null,null,null,null,null,null,2,NA,NA,NA,NA,NA,NA,NA,NA,NA,NA
NA,NA,NA,NA,NA,choice_trial,survey-html-form,29,223655,0.0-4.0-1.12,160,1,2025-05-04T18:56:58Z,b60275e29fe2361ab97ac0ac217840d7,"Mozilla/5.0 (Macintosh; Intel Mac OS X 10_15_7) AppleWebKit/537.36 (KHTML, like Gecko) Chrome/134.0.0.0 Safari/537.36",Macintosh,Chrome,134.0.0.0,OS X,10_15_7,https://5puzkbbxv1.cognition.run/?sona_id=53927,"en-US,en;q=0.9",m251esu325p3b56,22,"[""White""]",No,Male,NA,No,498693.89999997616,NA,2955,NA,"{""product_choice"":""A""}",choice,ct,binary,repulsion,2,washing machines,null,null,null,null,null,null,2,30,40,null,100,90,null,Average lifespan,Energy savings,NA,NA
NA,NA,NA,NA,NA,choice_trial_setup,html-keyboard-response,30,223959,0.0-4.0-0.13,160,1,2025-05-04T18:56:58Z,b60275e29fe2361ab97ac0ac217840d7,"Mozilla/5.0 (Macintosh; Intel Mac OS X 10_15_7) AppleWebKit/537.36 (KHTML, like Gecko) Chrome/134.0.0.0 Safari/537.36",Macintosh,Chrome,134.0.0.0,OS X,10_15_7,https://5puzkbbxv1.cognition.run/?sona_id=53927,"en-US,en;q=0.9",m251esu325p3b56,22,"[""White""]",No,Male,NA,No,498693.89999997616,NA,null,<p></p>,null,choice,tcd,trinary,attraction,1,washing machines,null,null,null,null,null,null,2,NA,NA,NA,NA,NA,NA,NA,NA,NA,NA
NA,NA,NA,NA,NA,choice_trial,survey-html-form,31,226759,0.0-4.0-1.13,160,1,2025-05-04T18:56:58Z,b60275e29fe2361ab97ac0ac217840d7,"Mozilla/5.0 (Macintosh; Intel Mac OS X 10_15_7) AppleWebKit/537.36 (KHTML, like Gecko) Chrome/134.0.0.0 Safari/537.36",Macintosh,Chrome,134.0.0.0,OS X,10_15_7,https://5puzkbbxv1.cognition.run/?sona_id=53927,"en-US,en;q=0.9",m251esu325p3b56,22,"[""White""]",No,Male,NA,No,498693.89999997616,NA,2795,NA,"{""product_choice"":""A""}",choice,tcd,trinary,attraction,1,washing machines,null,null,null,null,null,null,2,60,50,60,50,60,40,Average lifespan,Energy savings,NA,NA
NA,NA,NA,NA,NA,choice_trial_setup,html-keyboard-response,32,227064,0.0-4.0-0.14,160,1,2025-05-04T18:56:58Z,b60275e29fe2361ab97ac0ac217840d7,"Mozilla/5.0 (Macintosh; Intel Mac OS X 10_15_7) AppleWebKit/537.36 (KHTML, like Gecko) Chrome/134.0.0.0 Safari/537.36",Macintosh,Chrome,134.0.0.0,OS X,10_15_7,https://5puzkbbxv1.cognition.run/?sona_id=53927,"en-US,en;q=0.9",m251esu325p3b56,22,"[""White""]",No,Male,NA,No,498693.89999997616,NA,null,<p></p>,null,choice,dtc,trinary,attraction,1,televisions,null,null,null,null,null,null,2,NA,NA,NA,NA,NA,NA,NA,NA,NA,NA
NA,NA,NA,NA,NA,choice_trial,survey-html-form,33,229537,0.0-4.0-1.14,160,1,2025-05-04T18:56:58Z,b60275e29fe2361ab97ac0ac217840d7,"Mozilla/5.0 (Macintosh; Intel Mac OS X 10_15_7) AppleWebKit/537.36 (KHTML, like Gecko) Chrome/134.0.0.0 Safari/537.36",Macintosh,Chrome,134.0.0.0,OS X,10_15_7,https://5puzkbbxv1.cognition.run/?sona_id=53927,"en-US,en;q=0.9",m251esu325p3b56,22,"[""White""]",No,Male,NA,No,498693.89999997616,NA,2466,NA,"{""product_choice"":""B""}",choice,dtc,trinary,attraction,1,televisions,null,null,null,null,null,null,2,60,50,60,50,60,40,Screen size,Average lifespan,NA,NA
NA,NA,NA,NA,NA,choice_trial_setup,html-keyboard-response,34,229843,0.0-4.0-0.15,160,1,2025-05-04T18:56:58Z,b60275e29fe2361ab97ac0ac217840d7,"Mozilla/5.0 (Macintosh; Intel Mac OS X 10_15_7) AppleWebKit/537.36 (KHTML, like Gecko) Chrome/134.0.0.0 Safari/537.36",Macintosh,Chrome,134.0.0.0,OS X,10_15_7,https://5puzkbbxv1.cognition.run/?sona_id=53927,"en-US,en;q=0.9",m251esu325p3b56,22,"[""White""]",No,Male,NA,No,498693.89999997616,NA,null,<p></p>,null,choice,ct,binary,repulsion,2,televisions,null,null,null,null,null,null,1,NA,NA,NA,NA,NA,NA,NA,NA,NA,NA
NA,NA,NA,NA,NA,choice_trial,survey-html-form,35,234014,0.0-4.0-1.15,160,1,2025-05-04T18:56:58Z,b60275e29fe2361ab97ac0ac217840d7,"Mozilla/5.0 (Macintosh; Intel Mac OS X 10_15_7) AppleWebKit/537.36 (KHTML, like Gecko) Chrome/134.0.0.0 Safari/537.36",Macintosh,Chrome,134.0.0.0,OS X,10_15_7,https://5puzkbbxv1.cognition.run/?sona_id=53927,"en-US,en;q=0.9",m251esu325p3b56,22,"[""White""]",No,Male,NA,No,498693.89999997616,NA,4165,NA,"{""product_choice"":""B""}",choice,ct,binary,repulsion,2,televisions,null,null,null,null,null,null,1,30,40,null,100,90,null,Screen size,Average lifespan,NA,NA
NA,NA,NA,NA,NA,choice_trial_setup,html-keyboard-response,36,234319,0.0-4.0-0.16,160,1,2025-05-04T18:56:58Z,b60275e29fe2361ab97ac0ac217840d7,"Mozilla/5.0 (Macintosh; Intel Mac OS X 10_15_7) AppleWebKit/537.36 (KHTML, like Gecko) Chrome/134.0.0.0 Safari/537.36",Macintosh,Chrome,134.0.0.0,OS X,10_15_7,https://5puzkbbxv1.cognition.run/?sona_id=53927,"en-US,en;q=0.9",m251esu325p3b56,22,"[""White""]",No,Male,NA,No,498693.89999997616,NA,null,<p></p>,null,choice,dct,trinary,repulsion_A,1,televisions,null,null,null,null,null,null,2,NA,NA,NA,NA,NA,NA,NA,NA,NA,NA
NA,NA,NA,NA,NA,choice_trial,survey-html-form,37,237982,0.0-4.0-1.16,160,1,2025-05-04T18:56:58Z,b60275e29fe2361ab97ac0ac217840d7,"Mozilla/5.0 (Macintosh; Intel Mac OS X 10_15_7) AppleWebKit/537.36 (KHTML, like Gecko) Chrome/134.0.0.0 Safari/537.36",Macintosh,Chrome,134.0.0.0,OS X,10_15_7,https://5puzkbbxv1.cognition.run/?sona_id=53927,"en-US,en;q=0.9",m251esu325p3b56,22,"[""White""]",No,Male,NA,No,498693.89999997616,NA,3656,NA,"{""product_choice"":""B""}",choice,dct,trinary,repulsion_A,1,televisions,null,null,null,null,null,null,2,100,90,100,30,40,20,Screen size,Average lifespan,NA,NA
NA,NA,NA,NA,NA,choice_trial_setup,html-keyboard-response,38,238287,0.0-4.0-0.17,160,1,2025-05-04T18:56:58Z,b60275e29fe2361ab97ac0ac217840d7,"Mozilla/5.0 (Macintosh; Intel Mac OS X 10_15_7) AppleWebKit/537.36 (KHTML, like Gecko) Chrome/134.0.0.0 Safari/537.36",Macintosh,Chrome,134.0.0.0,OS X,10_15_7,https://5puzkbbxv1.cognition.run/?sona_id=53927,"en-US,en;q=0.9",m251esu325p3b56,22,"[""White""]",No,Male,NA,No,498693.89999997616,NA,null,<p></p>,null,choice,cdt,trinary,repulsion_B,1,televisions,null,null,null,null,null,null,1,NA,NA,NA,NA,NA,NA,NA,NA,NA,NA
NA,NA,NA,NA,NA,choice_trial,survey-html-form,39,241508,0.0-4.0-1.17,160,1,2025-05-04T18:56:58Z,b60275e29fe2361ab97ac0ac217840d7,"Mozilla/5.0 (Macintosh; Intel Mac OS X 10_15_7) AppleWebKit/537.36 (KHTML, like Gecko) Chrome/134.0.0.0 Safari/537.36",Macintosh,Chrome,134.0.0.0,OS X,10_15_7,https://5puzkbbxv1.cognition.run/?sona_id=53927,"en-US,en;q=0.9",m251esu325p3b56,22,"[""White""]",No,Male,NA,No,498693.89999997616,NA,3215,NA,"{""product_choice"":""C""}",choice,cdt,trinary,repulsion_B,1,televisions,null,null,null,null,null,null,1,90,100,80,40,30,40,Screen size,Average lifespan,NA,NA
NA,NA,NA,NA,NA,choice_trial_setup,html-keyboard-response,40,241814,0.0-4.0-0.18,160,1,2025-05-04T18:56:58Z,b60275e29fe2361ab97ac0ac217840d7,"Mozilla/5.0 (Macintosh; Intel Mac OS X 10_15_7) AppleWebKit/537.36 (KHTML, like Gecko) Chrome/134.0.0.0 Safari/537.36",Macintosh,Chrome,134.0.0.0,OS X,10_15_7,https://5puzkbbxv1.cognition.run/?sona_id=53927,"en-US,en;q=0.9",m251esu325p3b56,22,"[""White""]",No,Male,NA,No,498693.89999997616,NA,null,<p></p>,null,choice,tc,binary,attraction,NA,televisions,null,null,null,null,null,null,1,NA,NA,NA,NA,NA,NA,NA,NA,NA,NA
NA,NA,NA,NA,NA,choice_trial,survey-html-form,41,243639,0.0-4.0-1.18,160,1,2025-05-04T18:56:58Z,b60275e29fe2361ab97ac0ac217840d7,"Mozilla/5.0 (Macintosh; Intel Mac OS X 10_15_7) AppleWebKit/537.36 (KHTML, like Gecko) Chrome/134.0.0.0 Safari/537.36",Macintosh,Chrome,134.0.0.0,OS X,10_15_7,https://5puzkbbxv1.cognition.run/?sona_id=53927,"en-US,en;q=0.9",m251esu325p3b56,22,"[""White""]",No,Male,NA,No,498693.89999997616,NA,1818,NA,"{""product_choice"":""A""}",choice,tc,binary,attraction,NA,televisions,null,null,null,null,null,null,1,60,50,null,50,60,null,Screen size,Average lifespan,NA,NA
NA,NA,NA,NA,NA,choice_trial_setup,html-keyboard-response,42,243946,0.0-4.0-0.19,160,1,2025-05-04T18:56:58Z,b60275e29fe2361ab97ac0ac217840d7,"Mozilla/5.0 (Macintosh; Intel Mac OS X 10_15_7) AppleWebKit/537.36 (KHTML, like Gecko) Chrome/134.0.0.0 Safari/537.36",Macintosh,Chrome,134.0.0.0,OS X,10_15_7,https://5puzkbbxv1.cognition.run/?sona_id=53927,"en-US,en;q=0.9",m251esu325p3b56,22,"[""White""]",No,Male,NA,No,498693.89999997616,NA,null,<p></p>,null,choice,cdt,trinary,attraction,1,laptops,null,null,null,null,null,null,1,NA,NA,NA,NA,NA,NA,NA,NA,NA,NA
NA,NA,NA,NA,NA,choice_trial,survey-html-form,43,245850,0.0-4.0-1.19,160,1,2025-05-04T18:56:58Z,b60275e29fe2361ab97ac0ac217840d7,"Mozilla/5.0 (Macintosh; Intel Mac OS X 10_15_7) AppleWebKit/537.36 (KHTML, like Gecko) Chrome/134.0.0.0 Safari/537.36",Macintosh,Chrome,134.0.0.0,OS X,10_15_7,https://5puzkbbxv1.cognition.run/?sona_id=53927,"en-US,en;q=0.9",m251esu325p3b56,22,"[""White""]",No,Male,NA,No,498693.89999997616,NA,1898,NA,"{""product_choice"":""A""}",choice,cdt,trinary,attraction,1,laptops,null,null,null,null,null,null,1,60,50,60,50,60,40,Processing speed,Memory (RAM),NA,NA
NA,NA,NA,NA,NA,choice_trial_setup,html-keyboard-response,44,246157,0.0-4.0-0.20,160,1,2025-05-04T18:56:58Z,b60275e29fe2361ab97ac0ac217840d7,"Mozilla/5.0 (Macintosh; Intel Mac OS X 10_15_7) AppleWebKit/537.36 (KHTML, like Gecko) Chrome/134.0.0.0 Safari/537.36",Macintosh,Chrome,134.0.0.0,OS X,10_15_7,https://5puzkbbxv1.cognition.run/?sona_id=53927,"en-US,en;q=0.9",m251esu325p3b56,22,"[""White""]",No,Male,NA,No,498693.89999997616,NA,null,<p></p>,null,choice,wwb,trinary,catch,null,microwave ovens,70,50,45,50,50,40,2,NA,NA,NA,NA,NA,NA,NA,NA,NA,NA
NA,NA,NA,NA,NA,choice_trial,survey-html-form,45,248500,0.0-4.0-1.20,160,1,2025-05-04T18:56:58Z,b60275e29fe2361ab97ac0ac217840d7,"Mozilla/5.0 (Macintosh; Intel Mac OS X 10_15_7) AppleWebKit/537.36 (KHTML, like Gecko) Chrome/134.0.0.0 Safari/537.36",Macintosh,Chrome,134.0.0.0,OS X,10_15_7,https://5puzkbbxv1.cognition.run/?sona_id=53927,"en-US,en;q=0.9",m251esu325p3b56,22,"[""White""]",No,Male,NA,No,498693.89999997616,NA,2337,NA,"{""product_choice"":""C""}",choice,wwb,trinary,catch,null,microwave ovens,70,50,45,50,50,40,2,null,null,null,null,null,null,Warranty,Cooking power,NA,NA
NA,NA,NA,NA,NA,choice_trial_setup,html-keyboard-response,46,248807,0.0-4.0-0.21,160,1,2025-05-04T18:56:58Z,b60275e29fe2361ab97ac0ac217840d7,"Mozilla/5.0 (Macintosh; Intel Mac OS X 10_15_7) AppleWebKit/537.36 (KHTML, like Gecko) Chrome/134.0.0.0 Safari/537.36",Macintosh,Chrome,134.0.0.0,OS X,10_15_7,https://5puzkbbxv1.cognition.run/?sona_id=53927,"en-US,en;q=0.9",m251esu325p3b56,22,"[""White""]",No,Male,NA,No,498693.89999997616,NA,null,<p></p>,null,choice,tdc,trinary,repulsion_A,2,microwave ovens,null,null,null,null,null,null,1,NA,NA,NA,NA,NA,NA,NA,NA,NA,NA
NA,NA,NA,NA,NA,choice_trial,survey-html-form,47,251293,0.0-4.0-1.21,160,1,2025-05-04T18:56:58Z,b60275e29fe2361ab97ac0ac217840d7,"Mozilla/5.0 (Macintosh; Intel Mac OS X 10_15_7) AppleWebKit/537.36 (KHTML, like Gecko) Chrome/134.0.0.0 Safari/537.36",Macintosh,Chrome,134.0.0.0,OS X,10_15_7,https://5puzkbbxv1.cognition.run/?sona_id=53927,"en-US,en;q=0.9",m251esu325p3b56,22,"[""White""]",No,Male,NA,No,498693.89999997616,NA,2479,NA,"{""product_choice"":""A""}",choice,tdc,trinary,repulsion_A,2,microwave ovens,null,null,null,null,null,null,1,30,40,20,100,90,100,Warranty,Cooking power,NA,NA
NA,NA,NA,NA,NA,choice_trial_setup,html-keyboard-response,48,251599,0.0-4.0-0.22,160,1,2025-05-04T18:56:58Z,b60275e29fe2361ab97ac0ac217840d7,"Mozilla/5.0 (Macintosh; Intel Mac OS X 10_15_7) AppleWebKit/537.36 (KHTML, like Gecko) Chrome/134.0.0.0 Safari/537.36",Macintosh,Chrome,134.0.0.0,OS X,10_15_7,https://5puzkbbxv1.cognition.run/?sona_id=53927,"en-US,en;q=0.9",m251esu325p3b56,22,"[""White""]",No,Male,NA,No,498693.89999997616,NA,null,<p></p>,null,choice,cdt,trinary,repulsion_A,1,laptops,null,null,null,null,null,null,2,NA,NA,NA,NA,NA,NA,NA,NA,NA,NA
NA,NA,NA,NA,NA,choice_trial,survey-html-form,49,345167,0.0-4.0-1.22,160,1,2025-05-04T18:56:58Z,b60275e29fe2361ab97ac0ac217840d7,"Mozilla/5.0 (Macintosh; Intel Mac OS X 10_15_7) AppleWebKit/537.36 (KHTML, like Gecko) Chrome/134.0.0.0 Safari/537.36",Macintosh,Chrome,134.0.0.0,OS X,10_15_7,https://5puzkbbxv1.cognition.run/?sona_id=53927,"en-US,en;q=0.9",m251esu325p3b56,22,"[""White""]",No,Male,NA,No,498693.89999997616,NA,93563,NA,"{""product_choice"":""A""}",choice,cdt,trinary,repulsion_A,1,laptops,null,null,null,null,null,null,2,100,90,100,30,40,20,Processing speed,Memory (RAM),NA,NA
NA,NA,NA,NA,NA,choice_trial_setup,html-keyboard-response,50,345472,0.0-4.0-0.23,160,1,2025-05-04T18:56:58Z,b60275e29fe2361ab97ac0ac217840d7,"Mozilla/5.0 (Macintosh; Intel Mac OS X 10_15_7) AppleWebKit/537.36 (KHTML, like Gecko) Chrome/134.0.0.0 Safari/537.36",Macintosh,Chrome,134.0.0.0,OS X,10_15_7,https://5puzkbbxv1.cognition.run/?sona_id=53927,"en-US,en;q=0.9",m251esu325p3b56,22,"[""White""]",No,Male,NA,No,498693.89999997616,NA,null,<p></p>,null,choice,dtc,trinary,repulsion_A,1,washing machines,null,null,null,null,null,null,2,NA,NA,NA,NA,NA,NA,NA,NA,NA,NA
NA,NA,NA,NA,NA,choice_trial,survey-html-form,51,349736,0.0-4.0-1.23,160,1,2025-05-04T18:56:58Z,b60275e29fe2361ab97ac0ac217840d7,"Mozilla/5.0 (Macintosh; Intel Mac OS X 10_15_7) AppleWebKit/537.36 (KHTML, like Gecko) Chrome/134.0.0.0 Safari/537.36",Macintosh,Chrome,134.0.0.0,OS X,10_15_7,https://5puzkbbxv1.cognition.run/?sona_id=53927,"en-US,en;q=0.9",m251esu325p3b56,22,"[""White""]",No,Male,NA,No,498693.89999997616,NA,4257,NA,"{""product_choice"":""B""}",choice,dtc,trinary,repulsion_A,1,washing machines,null,null,null,null,null,null,2,100,90,100,30,40,20,Average lifespan,Energy savings,NA,NA
NA,NA,NA,NA,NA,choice_trial_setup,html-keyboard-response,52,350043,0.0-4.0-0.24,160,1,2025-05-04T18:56:58Z,b60275e29fe2361ab97ac0ac217840d7,"Mozilla/5.0 (Macintosh; Intel Mac OS X 10_15_7) AppleWebKit/537.36 (KHTML, like Gecko) Chrome/134.0.0.0 Safari/537.36",Macintosh,Chrome,134.0.0.0,OS X,10_15_7,https://5puzkbbxv1.cognition.run/?sona_id=53927,"en-US,en;q=0.9",m251esu325p3b56,22,"[""White""]",No,Male,NA,No,498693.89999997616,NA,null,<p></p>,null,choice,dct,trinary,repulsion_A,2,laptops,null,null,null,null,null,null,2,NA,NA,NA,NA,NA,NA,NA,NA,NA,NA
NA,NA,NA,NA,NA,choice_trial,survey-html-form,53,354702,0.0-4.0-1.24,160,1,2025-05-04T18:56:58Z,b60275e29fe2361ab97ac0ac217840d7,"Mozilla/5.0 (Macintosh; Intel Mac OS X 10_15_7) AppleWebKit/537.36 (KHTML, like Gecko) Chrome/134.0.0.0 Safari/537.36",Macintosh,Chrome,134.0.0.0,OS X,10_15_7,https://5puzkbbxv1.cognition.run/?sona_id=53927,"en-US,en;q=0.9",m251esu325p3b56,22,"[""White""]",No,Male,NA,No,498693.89999997616,NA,4653,NA,"{""product_choice"":""B""}",choice,dct,trinary,repulsion_A,2,laptops,null,null,null,null,null,null,2,30,40,20,100,90,100,Processing speed,Memory (RAM),NA,NA
NA,NA,NA,NA,NA,choice_trial_setup,html-keyboard-response,54,355009,0.0-4.0-0.25,160,1,2025-05-04T18:56:58Z,b60275e29fe2361ab97ac0ac217840d7,"Mozilla/5.0 (Macintosh; Intel Mac OS X 10_15_7) AppleWebKit/537.36 (KHTML, like Gecko) Chrome/134.0.0.0 Safari/537.36",Macintosh,Chrome,134.0.0.0,OS X,10_15_7,https://5puzkbbxv1.cognition.run/?sona_id=53927,"en-US,en;q=0.9",m251esu325p3b56,22,"[""White""]",No,Male,NA,No,498693.89999997616,NA,null,<p></p>,null,choice,tc,binary,repulsion,1,laptops,null,null,null,null,null,null,1,NA,NA,NA,NA,NA,NA,NA,NA,NA,NA
NA,NA,NA,NA,NA,choice_trial,survey-html-form,55,357001,0.0-4.0-1.25,160,1,2025-05-04T18:56:58Z,b60275e29fe2361ab97ac0ac217840d7,"Mozilla/5.0 (Macintosh; Intel Mac OS X 10_15_7) AppleWebKit/537.36 (KHTML, like Gecko) Chrome/134.0.0.0 Safari/537.36",Macintosh,Chrome,134.0.0.0,OS X,10_15_7,https://5puzkbbxv1.cognition.run/?sona_id=53927,"en-US,en;q=0.9",m251esu325p3b56,22,"[""White""]",No,Male,NA,No,498693.89999997616,NA,1985,NA,"{""product_choice"":""A""}",choice,tc,binary,repulsion,1,laptops,null,null,null,null,null,null,1,100,90,null,30,40,null,Processing speed,Memory (RAM),NA,NA
NA,NA,NA,NA,NA,choice_trial_setup,html-keyboard-response,56,357308,0.0-4.0-0.26,160,1,2025-05-04T18:56:58Z,b60275e29fe2361ab97ac0ac217840d7,"Mozilla/5.0 (Macintosh; Intel Mac OS X 10_15_7) AppleWebKit/537.36 (KHTML, like Gecko) Chrome/134.0.0.0 Safari/537.36",Macintosh,Chrome,134.0.0.0,OS X,10_15_7,https://5puzkbbxv1.cognition.run/?sona_id=53927,"en-US,en;q=0.9",m251esu325p3b56,22,"[""White""]",No,Male,NA,No,498693.89999997616,NA,null,<p></p>,null,choice,dtc,trinary,repulsion_A,1,microwave ovens,null,null,null,null,null,null,2,NA,NA,NA,NA,NA,NA,NA,NA,NA,NA
NA,NA,NA,NA,NA,choice_trial,survey-html-form,57,359500,0.0-4.0-1.26,160,1,2025-05-04T18:56:58Z,b60275e29fe2361ab97ac0ac217840d7,"Mozilla/5.0 (Macintosh; Intel Mac OS X 10_15_7) AppleWebKit/537.36 (KHTML, like Gecko) Chrome/134.0.0.0 Safari/537.36",Macintosh,Chrome,134.0.0.0,OS X,10_15_7,https://5puzkbbxv1.cognition.run/?sona_id=53927,"en-US,en;q=0.9",m251esu325p3b56,22,"[""White""]",No,Male,NA,No,498693.89999997616,NA,2185,NA,"{""product_choice"":""B""}",choice,dtc,trinary,repulsion_A,1,microwave ovens,null,null,null,null,null,null,2,100,90,100,30,40,20,Warranty,Cooking power,NA,NA
NA,NA,NA,NA,NA,choice_trial_setup,html-keyboard-response,58,359807,0.0-4.0-0.27,160,1,2025-05-04T18:56:58Z,b60275e29fe2361ab97ac0ac217840d7,"Mozilla/5.0 (Macintosh; Intel Mac OS X 10_15_7) AppleWebKit/537.36 (KHTML, like Gecko) Chrome/134.0.0.0 Safari/537.36",Macintosh,Chrome,134.0.0.0,OS X,10_15_7,https://5puzkbbxv1.cognition.run/?sona_id=53927,"en-US,en;q=0.9",m251esu325p3b56,22,"[""White""]",No,Male,NA,No,498693.89999997616,NA,null,<p></p>,null,choice,cdt,trinary,repulsion_B,1,microwave ovens,null,null,null,null,null,null,1,NA,NA,NA,NA,NA,NA,NA,NA,NA,NA
NA,NA,NA,NA,NA,choice_trial,survey-html-form,59,363812,0.0-4.0-1.27,160,1,2025-05-04T18:56:58Z,b60275e29fe2361ab97ac0ac217840d7,"Mozilla/5.0 (Macintosh; Intel Mac OS X 10_15_7) AppleWebKit/537.36 (KHTML, like Gecko) Chrome/134.0.0.0 Safari/537.36",Macintosh,Chrome,134.0.0.0,OS X,10_15_7,https://5puzkbbxv1.cognition.run/?sona_id=53927,"en-US,en;q=0.9",m251esu325p3b56,22,"[""White""]",No,Male,NA,No,498693.89999997616,NA,3998,NA,"{""product_choice"":""B""}",choice,cdt,trinary,repulsion_B,1,microwave ovens,null,null,null,null,null,null,1,90,100,80,40,30,40,Warranty,Cooking power,NA,NA
NA,NA,NA,NA,NA,choice_trial_setup,html-keyboard-response,60,364119,0.0-4.0-0.28,160,1,2025-05-04T18:56:58Z,b60275e29fe2361ab97ac0ac217840d7,"Mozilla/5.0 (Macintosh; Intel Mac OS X 10_15_7) AppleWebKit/537.36 (KHTML, like Gecko) Chrome/134.0.0.0 Safari/537.36",Macintosh,Chrome,134.0.0.0,OS X,10_15_7,https://5puzkbbxv1.cognition.run/?sona_id=53927,"en-US,en;q=0.9",m251esu325p3b56,22,"[""White""]",No,Male,NA,No,498693.89999997616,NA,null,<p></p>,null,choice,tcd,trinary,repulsion_B,2,microwave ovens,null,null,null,null,null,null,2,NA,NA,NA,NA,NA,NA,NA,NA,NA,NA
NA,NA,NA,NA,NA,choice_trial,survey-html-form,61,366598,0.0-4.0-1.28,160,1,2025-05-04T18:56:58Z,b60275e29fe2361ab97ac0ac217840d7,"Mozilla/5.0 (Macintosh; Intel Mac OS X 10_15_7) AppleWebKit/537.36 (KHTML, like Gecko) Chrome/134.0.0.0 Safari/537.36",Macintosh,Chrome,134.0.0.0,OS X,10_15_7,https://5puzkbbxv1.cognition.run/?sona_id=53927,"en-US,en;q=0.9",m251esu325p3b56,22,"[""White""]",No,Male,NA,No,498693.89999997616,NA,2470,NA,"{""product_choice"":""C""}",choice,tcd,trinary,repulsion_B,2,microwave ovens,null,null,null,null,null,null,2,40,30,40,90,100,80,Warranty,Cooking power,NA,NA
NA,NA,NA,NA,NA,choice_trial_setup,html-keyboard-response,62,366905,0.0-4.0-0.29,160,1,2025-05-04T18:56:58Z,b60275e29fe2361ab97ac0ac217840d7,"Mozilla/5.0 (Macintosh; Intel Mac OS X 10_15_7) AppleWebKit/537.36 (KHTML, like Gecko) Chrome/134.0.0.0 Safari/537.36",Macintosh,Chrome,134.0.0.0,OS X,10_15_7,https://5puzkbbxv1.cognition.run/?sona_id=53927,"en-US,en;q=0.9",m251esu325p3b56,22,"[""White""]",No,Male,NA,No,498693.89999997616,NA,null,<p></p>,null,choice,dtc,trinary,repulsion_B,1,washing machines,null,null,null,null,null,null,2,NA,NA,NA,NA,NA,NA,NA,NA,NA,NA
NA,NA,NA,NA,NA,choice_trial,survey-html-form,63,369064,0.0-4.0-1.29,160,1,2025-05-04T18:56:58Z,b60275e29fe2361ab97ac0ac217840d7,"Mozilla/5.0 (Macintosh; Intel Mac OS X 10_15_7) AppleWebKit/537.36 (KHTML, like Gecko) Chrome/134.0.0.0 Safari/537.36",Macintosh,Chrome,134.0.0.0,OS X,10_15_7,https://5puzkbbxv1.cognition.run/?sona_id=53927,"en-US,en;q=0.9",m251esu325p3b56,22,"[""White""]",No,Male,NA,No,498693.89999997616,NA,2152,NA,"{""product_choice"":""B""}",choice,dtc,trinary,repulsion_B,1,washing machines,null,null,null,null,null,null,2,90,100,80,40,30,40,Average lifespan,Energy savings,NA,NA
NA,NA,NA,NA,NA,choice_trial_setup,html-keyboard-response,64,369371,0.0-4.0-0.30,160,1,2025-05-04T18:56:58Z,b60275e29fe2361ab97ac0ac217840d7,"Mozilla/5.0 (Macintosh; Intel Mac OS X 10_15_7) AppleWebKit/537.36 (KHTML, like Gecko) Chrome/134.0.0.0 Safari/537.36",Macintosh,Chrome,134.0.0.0,OS X,10_15_7,https://5puzkbbxv1.cognition.run/?sona_id=53927,"en-US,en;q=0.9",m251esu325p3b56,22,"[""White""]",No,Male,NA,No,498693.89999997616,NA,null,<p></p>,null,choice,bww,trinary,catch,null,washing machines,60,75,40,20,30,25,2,NA,NA,NA,NA,NA,NA,NA,NA,NA,NA
NA,NA,NA,NA,NA,choice_trial,survey-html-form,65,371084,0.0-4.0-1.30,160,1,2025-05-04T18:56:58Z,b60275e29fe2361ab97ac0ac217840d7,"Mozilla/5.0 (Macintosh; Intel Mac OS X 10_15_7) AppleWebKit/537.36 (KHTML, like Gecko) Chrome/134.0.0.0 Safari/537.36",Macintosh,Chrome,134.0.0.0,OS X,10_15_7,https://5puzkbbxv1.cognition.run/?sona_id=53927,"en-US,en;q=0.9",m251esu325p3b56,22,"[""White""]",No,Male,NA,No,498693.89999997616,NA,1705,NA,"{""product_choice"":""A""}",choice,bww,trinary,catch,null,washing machines,60,75,40,20,30,25,2,null,null,null,null,null,null,Average lifespan,Energy savings,NA,NA
NA,NA,NA,NA,NA,choice_trial_setup,html-keyboard-response,66,371391,0.0-4.0-0.31,160,1,2025-05-04T18:56:58Z,b60275e29fe2361ab97ac0ac217840d7,"Mozilla/5.0 (Macintosh; Intel Mac OS X 10_15_7) AppleWebKit/537.36 (KHTML, like Gecko) Chrome/134.0.0.0 Safari/537.36",Macintosh,Chrome,134.0.0.0,OS X,10_15_7,https://5puzkbbxv1.cognition.run/?sona_id=53927,"en-US,en;q=0.9",m251esu325p3b56,22,"[""White""]",No,Male,NA,No,498693.89999997616,NA,null,<p></p>,null,choice,tc,binary,attraction,NA,microwave ovens,null,null,null,null,null,null,2,NA,NA,NA,NA,NA,NA,NA,NA,NA,NA
NA,NA,NA,NA,NA,choice_trial,survey-html-form,67,373222,0.0-4.0-1.31,160,1,2025-05-04T18:56:58Z,b60275e29fe2361ab97ac0ac217840d7,"Mozilla/5.0 (Macintosh; Intel Mac OS X 10_15_7) AppleWebKit/537.36 (KHTML, like Gecko) Chrome/134.0.0.0 Safari/537.36",Macintosh,Chrome,134.0.0.0,OS X,10_15_7,https://5puzkbbxv1.cognition.run/?sona_id=53927,"en-US,en;q=0.9",m251esu325p3b56,22,"[""White""]",No,Male,NA,No,498693.89999997616,NA,1824,NA,"{""product_choice"":""B""}",choice,tc,binary,attraction,NA,microwave ovens,null,null,null,null,null,null,2,60,50,null,50,60,null,Warranty,Cooking power,NA,NA
NA,NA,NA,NA,NA,choice_trial_setup,html-keyboard-response,68,373530,0.0-4.0-0.32,160,1,2025-05-04T18:56:58Z,b60275e29fe2361ab97ac0ac217840d7,"Mozilla/5.0 (Macintosh; Intel Mac OS X 10_15_7) AppleWebKit/537.36 (KHTML, like Gecko) Chrome/134.0.0.0 Safari/537.36",Macintosh,Chrome,134.0.0.0,OS X,10_15_7,https://5puzkbbxv1.cognition.run/?sona_id=53927,"en-US,en;q=0.9",m251esu325p3b56,22,"[""White""]",No,Male,NA,No,498693.89999997616,NA,null,<p></p>,null,choice,ct,binary,attraction,NA,washing machines,null,null,null,null,null,null,2,NA,NA,NA,NA,NA,NA,NA,NA,NA,NA
NA,NA,NA,NA,NA,choice_trial,survey-html-form,69,375960,0.0-4.0-1.32,160,1,2025-05-04T18:56:58Z,b60275e29fe2361ab97ac0ac217840d7,"Mozilla/5.0 (Macintosh; Intel Mac OS X 10_15_7) AppleWebKit/537.36 (KHTML, like Gecko) Chrome/134.0.0.0 Safari/537.36",Macintosh,Chrome,134.0.0.0,OS X,10_15_7,https://5puzkbbxv1.cognition.run/?sona_id=53927,"en-US,en;q=0.9",m251esu325p3b56,22,"[""White""]",No,Male,NA,No,498693.89999997616,NA,2423,NA,"{""product_choice"":""A""}",choice,ct,binary,attraction,NA,washing machines,null,null,null,null,null,null,2,60,50,null,50,60,null,Average lifespan,Energy savings,NA,NA
NA,NA,NA,NA,NA,choice_trial_setup,html-keyboard-response,70,376268,0.0-4.0-0.33,160,1,2025-05-04T18:56:58Z,b60275e29fe2361ab97ac0ac217840d7,"Mozilla/5.0 (Macintosh; Intel Mac OS X 10_15_7) AppleWebKit/537.36 (KHTML, like Gecko) Chrome/134.0.0.0 Safari/537.36",Macintosh,Chrome,134.0.0.0,OS X,10_15_7,https://5puzkbbxv1.cognition.run/?sona_id=53927,"en-US,en;q=0.9",m251esu325p3b56,22,"[""White""]",No,Male,NA,No,498693.89999997616,NA,null,<p></p>,null,choice,bw,binary,catch,null,televisions,80,95,25,15,null,null,1,NA,NA,NA,NA,NA,NA,NA,NA,NA,NA
NA,NA,NA,NA,NA,choice_trial,survey-html-form,71,378442,0.0-4.0-1.33,160,1,2025-05-04T18:56:58Z,b60275e29fe2361ab97ac0ac217840d7,"Mozilla/5.0 (Macintosh; Intel Mac OS X 10_15_7) AppleWebKit/537.36 (KHTML, like Gecko) Chrome/134.0.0.0 Safari/537.36",Macintosh,Chrome,134.0.0.0,OS X,10_15_7,https://5puzkbbxv1.cognition.run/?sona_id=53927,"en-US,en;q=0.9",m251esu325p3b56,22,"[""White""]",No,Male,NA,No,498693.89999997616,NA,2166,NA,"{""product_choice"":""A""}",choice,bw,binary,catch,null,televisions,80,95,25,15,null,null,1,null,null,null,null,null,null,Screen size,Average lifespan,NA,NA
NA,NA,NA,NA,NA,choice_trial_setup,html-keyboard-response,72,378750,0.0-4.0-0.34,160,1,2025-05-04T18:56:58Z,b60275e29fe2361ab97ac0ac217840d7,"Mozilla/5.0 (Macintosh; Intel Mac OS X 10_15_7) AppleWebKit/537.36 (KHTML, like Gecko) Chrome/134.0.0.0 Safari/537.36",Macintosh,Chrome,134.0.0.0,OS X,10_15_7,https://5puzkbbxv1.cognition.run/?sona_id=53927,"en-US,en;q=0.9",m251esu325p3b56,22,"[""White""]",No,Male,NA,No,498693.89999997616,NA,null,<p></p>,null,choice,tc,binary,repulsion,2,laptops,null,null,null,null,null,null,2,NA,NA,NA,NA,NA,NA,NA,NA,NA,NA
NA,NA,NA,NA,NA,choice_trial,survey-html-form,73,380334,0.0-4.0-1.34,160,1,2025-05-04T18:56:58Z,b60275e29fe2361ab97ac0ac217840d7,"Mozilla/5.0 (Macintosh; Intel Mac OS X 10_15_7) AppleWebKit/537.36 (KHTML, like Gecko) Chrome/134.0.0.0 Safari/537.36",Macintosh,Chrome,134.0.0.0,OS X,10_15_7,https://5puzkbbxv1.cognition.run/?sona_id=53927,"en-US,en;q=0.9",m251esu325p3b56,22,"[""White""]",No,Male,NA,No,498693.89999997616,NA,1577,NA,"{""product_choice"":""B""}",choice,tc,binary,repulsion,2,laptops,null,null,null,null,null,null,2,30,40,null,100,90,null,Processing speed,Memory (RAM),NA,NA
NA,NA,NA,NA,NA,choice_trial_setup,html-keyboard-response,74,380642,0.0-4.0-0.35,160,1,2025-05-04T18:56:58Z,b60275e29fe2361ab97ac0ac217840d7,"Mozilla/5.0 (Macintosh; Intel Mac OS X 10_15_7) AppleWebKit/537.36 (KHTML, like Gecko) Chrome/134.0.0.0 Safari/537.36",Macintosh,Chrome,134.0.0.0,OS X,10_15_7,https://5puzkbbxv1.cognition.run/?sona_id=53927,"en-US,en;q=0.9",m251esu325p3b56,22,"[""White""]",No,Male,NA,No,498693.89999997616,NA,null,<p></p>,null,choice,ctd,trinary,repulsion_B,2,televisions,null,null,null,null,null,null,1,NA,NA,NA,NA,NA,NA,NA,NA,NA,NA
NA,NA,NA,NA,NA,choice_trial,survey-html-form,75,382114,0.0-4.0-1.35,160,1,2025-05-04T18:56:58Z,b60275e29fe2361ab97ac0ac217840d7,"Mozilla/5.0 (Macintosh; Intel Mac OS X 10_15_7) AppleWebKit/537.36 (KHTML, like Gecko) Chrome/134.0.0.0 Safari/537.36",Macintosh,Chrome,134.0.0.0,OS X,10_15_7,https://5puzkbbxv1.cognition.run/?sona_id=53927,"en-US,en;q=0.9",m251esu325p3b56,22,"[""White""]",No,Male,NA,No,498693.89999997616,NA,1464,NA,"{""product_choice"":""B""}",choice,ctd,trinary,repulsion_B,2,televisions,null,null,null,null,null,null,1,40,30,40,90,100,80,Screen size,Average lifespan,NA,NA
NA,NA,NA,NA,NA,choice_trial_setup,html-keyboard-response,76,382421,0.0-4.0-0.36,160,1,2025-05-04T18:56:58Z,b60275e29fe2361ab97ac0ac217840d7,"Mozilla/5.0 (Macintosh; Intel Mac OS X 10_15_7) AppleWebKit/537.36 (KHTML, like Gecko) Chrome/134.0.0.0 Safari/537.36",Macintosh,Chrome,134.0.0.0,OS X,10_15_7,https://5puzkbbxv1.cognition.run/?sona_id=53927,"en-US,en;q=0.9",m251esu325p3b56,22,"[""White""]",No,Male,NA,No,498693.89999997616,NA,null,<p></p>,null,choice,ctd,trinary,repulsion_B,2,washing machines,null,null,null,null,null,null,1,NA,NA,NA,NA,NA,NA,NA,NA,NA,NA
NA,NA,NA,NA,NA,choice_trial,survey-html-form,77,383990,0.0-4.0-1.36,160,1,2025-05-04T18:56:58Z,b60275e29fe2361ab97ac0ac217840d7,"Mozilla/5.0 (Macintosh; Intel Mac OS X 10_15_7) AppleWebKit/537.36 (KHTML, like Gecko) Chrome/134.0.0.0 Safari/537.36",Macintosh,Chrome,134.0.0.0,OS X,10_15_7,https://5puzkbbxv1.cognition.run/?sona_id=53927,"en-US,en;q=0.9",m251esu325p3b56,22,"[""White""]",No,Male,NA,No,498693.89999997616,NA,1560,NA,"{""product_choice"":""A""}",choice,ctd,trinary,repulsion_B,2,washing machines,null,null,null,null,null,null,1,40,30,40,90,100,80,Average lifespan,Energy savings,NA,NA
NA,NA,NA,NA,NA,choice_trial_setup,html-keyboard-response,78,384298,0.0-4.0-0.37,160,1,2025-05-04T18:56:58Z,b60275e29fe2361ab97ac0ac217840d7,"Mozilla/5.0 (Macintosh; Intel Mac OS X 10_15_7) AppleWebKit/537.36 (KHTML, like Gecko) Chrome/134.0.0.0 Safari/537.36",Macintosh,Chrome,134.0.0.0,OS X,10_15_7,https://5puzkbbxv1.cognition.run/?sona_id=53927,"en-US,en;q=0.9",m251esu325p3b56,22,"[""White""]",No,Male,NA,No,498693.89999997616,NA,null,<p></p>,null,choice,tc,binary,repulsion,1,washing machines,null,null,null,null,null,null,2,NA,NA,NA,NA,NA,NA,NA,NA,NA,NA
NA,NA,NA,NA,NA,choice_trial,survey-html-form,79,387612,0.0-4.0-1.37,160,1,2025-05-04T18:56:58Z,b60275e29fe2361ab97ac0ac217840d7,"Mozilla/5.0 (Macintosh; Intel Mac OS X 10_15_7) AppleWebKit/537.36 (KHTML, like Gecko) Chrome/134.0.0.0 Safari/537.36",Macintosh,Chrome,134.0.0.0,OS X,10_15_7,https://5puzkbbxv1.cognition.run/?sona_id=53927,"en-US,en;q=0.9",m251esu325p3b56,22,"[""White""]",No,Male,NA,No,498693.89999997616,NA,3307,NA,"{""product_choice"":""B""}",choice,tc,binary,repulsion,1,washing machines,null,null,null,null,null,null,2,100,90,null,30,40,null,Average lifespan,Energy savings,NA,NA
NA,NA,NA,NA,NA,choice_trial_setup,html-keyboard-response,80,387921,0.0-4.0-0.38,160,1,2025-05-04T18:56:58Z,b60275e29fe2361ab97ac0ac217840d7,"Mozilla/5.0 (Macintosh; Intel Mac OS X 10_15_7) AppleWebKit/537.36 (KHTML, like Gecko) Chrome/134.0.0.0 Safari/537.36",Macintosh,Chrome,134.0.0.0,OS X,10_15_7,https://5puzkbbxv1.cognition.run/?sona_id=53927,"en-US,en;q=0.9",m251esu325p3b56,22,"[""White""]",No,Male,NA,No,498693.89999997616,NA,null,<p></p>,null,choice,dct,trinary,attraction,1,microwave ovens,null,null,null,null,null,null,2,NA,NA,NA,NA,NA,NA,NA,NA,NA,NA
NA,NA,NA,NA,NA,choice_trial,survey-html-form,81,389846,0.0-4.0-1.38,160,1,2025-05-04T18:56:58Z,b60275e29fe2361ab97ac0ac217840d7,"Mozilla/5.0 (Macintosh; Intel Mac OS X 10_15_7) AppleWebKit/537.36 (KHTML, like Gecko) Chrome/134.0.0.0 Safari/537.36",Macintosh,Chrome,134.0.0.0,OS X,10_15_7,https://5puzkbbxv1.cognition.run/?sona_id=53927,"en-US,en;q=0.9",m251esu325p3b56,22,"[""White""]",No,Male,NA,No,498693.89999997616,NA,1918,NA,"{""product_choice"":""B""}",choice,dct,trinary,attraction,1,microwave ovens,null,null,null,null,null,null,2,60,50,60,50,60,40,Warranty,Cooking power,NA,NA
NA,NA,NA,NA,NA,choice_trial_setup,html-keyboard-response,82,390156,0.0-4.0-0.39,160,1,2025-05-04T18:56:58Z,b60275e29fe2361ab97ac0ac217840d7,"Mozilla/5.0 (Macintosh; Intel Mac OS X 10_15_7) AppleWebKit/537.36 (KHTML, like Gecko) Chrome/134.0.0.0 Safari/537.36",Macintosh,Chrome,134.0.0.0,OS X,10_15_7,https://5puzkbbxv1.cognition.run/?sona_id=53927,"en-US,en;q=0.9",m251esu325p3b56,22,"[""White""]",No,Male,NA,No,498693.89999997616,NA,null,<p></p>,null,choice,wwb,trinary,catch,null,laptops,80,70,35,5,20,25,1,NA,NA,NA,NA,NA,NA,NA,NA,NA,NA
NA,NA,NA,NA,NA,choice_trial,survey-html-form,83,392720,0.0-4.0-1.39,160,1,2025-05-04T18:56:58Z,b60275e29fe2361ab97ac0ac217840d7,"Mozilla/5.0 (Macintosh; Intel Mac OS X 10_15_7) AppleWebKit/537.36 (KHTML, like Gecko) Chrome/134.0.0.0 Safari/537.36",Macintosh,Chrome,134.0.0.0,OS X,10_15_7,https://5puzkbbxv1.cognition.run/?sona_id=53927,"en-US,en;q=0.9",m251esu325p3b56,22,"[""White""]",No,Male,NA,No,498693.89999997616,NA,2558,NA,"{""product_choice"":""C""}",choice,wwb,trinary,catch,null,laptops,80,70,35,5,20,25,1,null,null,null,null,null,null,Processing speed,Memory (RAM),NA,NA
NA,NA,NA,NA,NA,choice_trial_setup,html-keyboard-response,84,393028,0.0-4.0-0.40,160,1,2025-05-04T18:56:58Z,b60275e29fe2361ab97ac0ac217840d7,"Mozilla/5.0 (Macintosh; Intel Mac OS X 10_15_7) AppleWebKit/537.36 (KHTML, like Gecko) Chrome/134.0.0.0 Safari/537.36",Macintosh,Chrome,134.0.0.0,OS X,10_15_7,https://5puzkbbxv1.cognition.run/?sona_id=53927,"en-US,en;q=0.9",m251esu325p3b56,22,"[""White""]",No,Male,NA,No,498693.89999997616,NA,null,<p></p>,null,choice,tdc,trinary,repulsion_A,2,washing machines,null,null,null,null,null,null,2,NA,NA,NA,NA,NA,NA,NA,NA,NA,NA
NA,NA,NA,NA,NA,choice_trial,survey-html-form,85,394883,0.0-4.0-1.40,160,1,2025-05-04T18:56:58Z,b60275e29fe2361ab97ac0ac217840d7,"Mozilla/5.0 (Macintosh; Intel Mac OS X 10_15_7) AppleWebKit/537.36 (KHTML, like Gecko) Chrome/134.0.0.0 Safari/537.36",Macintosh,Chrome,134.0.0.0,OS X,10_15_7,https://5puzkbbxv1.cognition.run/?sona_id=53927,"en-US,en;q=0.9",m251esu325p3b56,22,"[""White""]",No,Male,NA,No,498693.89999997616,NA,1844,NA,"{""product_choice"":""C""}",choice,tdc,trinary,repulsion_A,2,washing machines,null,null,null,null,null,null,2,30,40,20,100,90,100,Average lifespan,Energy savings,NA,NA
NA,NA,NA,NA,NA,choice_trial_setup,html-keyboard-response,86,395192,0.0-4.0-0.41,160,1,2025-05-04T18:56:58Z,b60275e29fe2361ab97ac0ac217840d7,"Mozilla/5.0 (Macintosh; Intel Mac OS X 10_15_7) AppleWebKit/537.36 (KHTML, like Gecko) Chrome/134.0.0.0 Safari/537.36",Macintosh,Chrome,134.0.0.0,OS X,10_15_7,https://5puzkbbxv1.cognition.run/?sona_id=53927,"en-US,en;q=0.9",m251esu325p3b56,22,"[""White""]",No,Male,NA,No,498693.89999997616,NA,null,<p></p>,null,choice,tcd,trinary,attraction,2,microwave ovens,null,null,null,null,null,null,2,NA,NA,NA,NA,NA,NA,NA,NA,NA,NA
NA,NA,NA,NA,NA,choice_trial,survey-html-form,87,397277,0.0-4.0-1.41,160,1,2025-05-04T18:56:58Z,b60275e29fe2361ab97ac0ac217840d7,"Mozilla/5.0 (Macintosh; Intel Mac OS X 10_15_7) AppleWebKit/537.36 (KHTML, like Gecko) Chrome/134.0.0.0 Safari/537.36",Macintosh,Chrome,134.0.0.0,OS X,10_15_7,https://5puzkbbxv1.cognition.run/?sona_id=53927,"en-US,en;q=0.9",m251esu325p3b56,22,"[""White""]",No,Male,NA,No,498693.89999997616,NA,2076,NA,"{""product_choice"":""B""}",choice,tcd,trinary,attraction,2,microwave ovens,null,null,null,null,null,null,2,50,60,40,60,50,60,Warranty,Cooking power,NA,NA
NA,NA,NA,NA,NA,choice_trial_setup,html-keyboard-response,88,397586,0.0-4.0-0.42,160,1,2025-05-04T18:56:58Z,b60275e29fe2361ab97ac0ac217840d7,"Mozilla/5.0 (Macintosh; Intel Mac OS X 10_15_7) AppleWebKit/537.36 (KHTML, like Gecko) Chrome/134.0.0.0 Safari/537.36",Macintosh,Chrome,134.0.0.0,OS X,10_15_7,https://5puzkbbxv1.cognition.run/?sona_id=53927,"en-US,en;q=0.9",m251esu325p3b56,22,"[""White""]",No,Male,NA,No,498693.89999997616,NA,null,<p></p>,null,choice,ct,binary,repulsion,1,televisions,null,null,null,null,null,null,2,NA,NA,NA,NA,NA,NA,NA,NA,NA,NA
NA,NA,NA,NA,NA,choice_trial,survey-html-form,89,399734,0.0-4.0-1.42,160,1,2025-05-04T18:56:58Z,b60275e29fe2361ab97ac0ac217840d7,"Mozilla/5.0 (Macintosh; Intel Mac OS X 10_15_7) AppleWebKit/537.36 (KHTML, like Gecko) Chrome/134.0.0.0 Safari/537.36",Macintosh,Chrome,134.0.0.0,OS X,10_15_7,https://5puzkbbxv1.cognition.run/?sona_id=53927,"en-US,en;q=0.9",m251esu325p3b56,22,"[""White""]",No,Male,NA,No,498693.89999997616,NA,2140,NA,"{""product_choice"":""B""}",choice,ct,binary,repulsion,1,televisions,null,null,null,null,null,null,2,100,90,null,30,40,null,Screen size,Average lifespan,NA,NA
NA,NA,NA,NA,NA,choice_trial_setup,html-keyboard-response,90,400043,0.0-4.0-0.43,160,1,2025-05-04T18:56:58Z,b60275e29fe2361ab97ac0ac217840d7,"Mozilla/5.0 (Macintosh; Intel Mac OS X 10_15_7) AppleWebKit/537.36 (KHTML, like Gecko) Chrome/134.0.0.0 Safari/537.36",Macintosh,Chrome,134.0.0.0,OS X,10_15_7,https://5puzkbbxv1.cognition.run/?sona_id=53927,"en-US,en;q=0.9",m251esu325p3b56,22,"[""White""]",No,Male,NA,No,498693.89999997616,NA,null,<p></p>,null,choice,tcd,trinary,repulsion_A,2,televisions,null,null,null,null,null,null,1,NA,NA,NA,NA,NA,NA,NA,NA,NA,NA
NA,NA,NA,NA,NA,choice_trial,survey-html-form,91,402392,0.0-4.0-1.43,160,1,2025-05-04T18:56:58Z,b60275e29fe2361ab97ac0ac217840d7,"Mozilla/5.0 (Macintosh; Intel Mac OS X 10_15_7) AppleWebKit/537.36 (KHTML, like Gecko) Chrome/134.0.0.0 Safari/537.36",Macintosh,Chrome,134.0.0.0,OS X,10_15_7,https://5puzkbbxv1.cognition.run/?sona_id=53927,"en-US,en;q=0.9",m251esu325p3b56,22,"[""White""]",No,Male,NA,No,498693.89999997616,NA,2340,NA,"{""product_choice"":""B""}",choice,tcd,trinary,repulsion_A,2,televisions,null,null,null,null,null,null,1,30,40,20,100,90,100,Screen size,Average lifespan,NA,NA
NA,NA,NA,NA,NA,post_trials_message,html-button-response,92,405648,0.0-5.0,160,1,2025-05-04T18:56:58Z,b60275e29fe2361ab97ac0ac217840d7,"Mozilla/5.0 (Macintosh; Intel Mac OS X 10_15_7) AppleWebKit/537.36 (KHTML, like Gecko) Chrome/134.0.0.0 Safari/537.36",Macintosh,Chrome,134.0.0.0,OS X,10_15_7,https://5puzkbbxv1.cognition.run/?sona_id=53927,"en-US,en;q=0.9",m251esu325p3b56,22,"[""White""]",No,Male,NA,No,498693.89999997616,NA,3247,<p> <b>Thank you for your patience!</b></p><p>  The study will be done after completing a brief form. </p>,0,NA,NA,NA,NA,NA,NA,NA,NA,NA,NA,NA,NA,NA,NA,NA,NA,NA,NA,NA,NA,NA,NA,NA
NA,NA,NA,NA,NA,survey_message,survey-text,93,436089,0.0-6.0,160,1,2025-05-04T18:56:58Z,b60275e29fe2361ab97ac0ac217840d7,"Mozilla/5.0 (Macintosh; Intel Mac OS X 10_15_7) AppleWebKit/537.36 (KHTML, like Gecko) Chrome/134.0.0.0 Safari/537.36",Macintosh,Chrome,134.0.0.0,OS X,10_15_7,https://5puzkbbxv1.cognition.run/?sona_id=53927,"en-US,en;q=0.9",m251esu325p3b56,22,"[""White""]",No,Male,NA,No,498693.89999997616,NA,30434,NA,"{""Q0"":""Choose options that werent too much of one thing but instead were more balanced on both aspects""}",NA,NA,NA,NA,NA,NA,NA,NA,NA,NA,NA,NA,NA,NA,NA,NA,NA,NA,NA,NA,NA,Choose options that werent too much of one thing but instead were more balanced on both aspects,NA
NA,NA,NA,NA,NA,demo_age,survey-text,94,438532,0.0-7.0,160,1,2025-05-04T18:56:58Z,b60275e29fe2361ab97ac0ac217840d7,"Mozilla/5.0 (Macintosh; Intel Mac OS X 10_15_7) AppleWebKit/537.36 (KHTML, like Gecko) Chrome/134.0.0.0 Safari/537.36",Macintosh,Chrome,134.0.0.0,OS X,10_15_7,https://5puzkbbxv1.cognition.run/?sona_id=53927,"en-US,en;q=0.9",m251esu325p3b56,22,"[""White""]",No,Male,NA,No,498693.89999997616,NA,2440,NA,"{""Q0"":""22""}",NA,NA,NA,NA,NA,NA,NA,NA,NA,NA,NA,NA,NA,NA,NA,NA,NA,NA,NA,NA,NA,NA,NA
NA,NA,NA,NA,NA,demo_race,survey-multi-select,95,454000,0.0-8.0,160,1,2025-05-04T18:56:58Z,b60275e29fe2361ab97ac0ac217840d7,"Mozilla/5.0 (Macintosh; Intel Mac OS X 10_15_7) AppleWebKit/537.36 (KHTML, like Gecko) Chrome/134.0.0.0 Safari/537.36",Macintosh,Chrome,134.0.0.0,OS X,10_15_7,https://5puzkbbxv1.cognition.run/?sona_id=53927,"en-US,en;q=0.9",m251esu325p3b56,22,"[""White""]",No,Male,NA,No,498693.89999997616,NA,15464,NA,"{""Q0"":[""White""]}",NA,NA,NA,NA,NA,NA,NA,NA,NA,NA,NA,NA,NA,NA,NA,NA,NA,NA,NA,NA,NA,NA,[0]
NA,NA,NA,NA,NA,demo_ethnicity_gender,survey-multi-choice,96,473505,0.0-9.0,160,1,2025-05-04T18:56:58Z,b60275e29fe2361ab97ac0ac217840d7,"Mozilla/5.0 (Macintosh; Intel Mac OS X 10_15_7) AppleWebKit/537.36 (KHTML, like Gecko) Chrome/134.0.0.0 Safari/537.36",Macintosh,Chrome,134.0.0.0,OS X,10_15_7,https://5puzkbbxv1.cognition.run/?sona_id=53927,"en-US,en;q=0.9",m251esu325p3b56,22,"[""White""]",No,Male,NA,No,498693.89999997616,NA,19495,NA,"{""Q0"":""No"",""Q1"":""Male""}",NA,NA,NA,NA,NA,NA,NA,NA,NA,NA,NA,NA,NA,NA,NA,NA,NA,NA,NA,NA,NA,NA,"[0,1]"
NA,NA,NA,NA,NA,demo_countries,survey-text,97,479371,0.0-10.0,160,1,2025-05-04T18:56:58Z,b60275e29fe2361ab97ac0ac217840d7,"Mozilla/5.0 (Macintosh; Intel Mac OS X 10_15_7) AppleWebKit/537.36 (KHTML, like Gecko) Chrome/134.0.0.0 Safari/537.36",Macintosh,Chrome,134.0.0.0,OS X,10_15_7,https://5puzkbbxv1.cognition.run/?sona_id=53927,"en-US,en;q=0.9",m251esu325p3b56,22,"[""White""]",No,Male,NA,No,498693.89999997616,NA,5851,NA,"{""Q0"":""NA""}",NA,NA,NA,NA,NA,NA,NA,NA,NA,NA,NA,NA,NA,NA,NA,NA,NA,NA,NA,NA,NA,NA,NA
NA,NA,NA,NA,NA,demo_prev_study,survey-multi-choice,98,484663,0.0-11.0,160,1,2025-05-04T18:56:58Z,b60275e29fe2361ab97ac0ac217840d7,"Mozilla/5.0 (Macintosh; Intel Mac OS X 10_15_7) AppleWebKit/537.36 (KHTML, like Gecko) Chrome/134.0.0.0 Safari/537.36",Macintosh,Chrome,134.0.0.0,OS X,10_15_7,https://5puzkbbxv1.cognition.run/?sona_id=53927,"en-US,en;q=0.9",m251esu325p3b56,22,"[""White""]",No,Male,NA,No,498693.89999997616,NA,5289,NA,"{""Q0"":""No""}",NA,NA,NA,NA,NA,NA,NA,NA,NA,NA,NA,NA,NA,NA,NA,NA,NA,NA,NA,NA,NA,NA,[0]
NA,NA,NA,NA,NA,post_survey_message,html-keyboard-response,99,488789,0.0-12.0,160,1,2025-05-04T18:56:58Z,b60275e29fe2361ab97ac0ac217840d7,"Mozilla/5.0 (Macintosh; Intel Mac OS X 10_15_7) AppleWebKit/537.36 (KHTML, like Gecko) Chrome/134.0.0.0 Safari/537.36",Macintosh,Chrome,134.0.0.0,OS X,10_15_7,https://5puzkbbxv1.cognition.run/?sona_id=53927,"en-US,en;q=0.9",m251esu325p3b56,22,"[""White""]",No,Male,NA,No,498693.89999997616,NA,4117,NA,j,NA,NA,NA,NA,NA,NA,NA,NA,NA,NA,NA,NA,NA,NA,NA,NA,NA,NA,NA,NA,NA,NA,NA
NA,NA,NA,NA,NA,debrief,image-keyboard-response,100,498691,0.0-13.0,160,1,2025-05-04T18:56:58Z,b60275e29fe2361ab97ac0ac217840d7,"Mozilla/5.0 (Macintosh; Intel Mac OS X 10_15_7) AppleWebKit/537.36 (KHTML, like Gecko) Chrome/134.0.0.0 Safari/537.36",Macintosh,Chrome,134.0.0.0,OS X,10_15_7,https://5puzkbbxv1.cognition.run/?sona_id=53927,"en-US,en;q=0.9",m251esu325p3b56,22,"[""White""]",No,Male,NA,No,498693.89999997616,NA,9892,Judg_choice_debrief.png,p,NA,NA,NA,NA,NA,NA,NA,NA,NA,NA,NA,NA,NA,NA,NA,NA,NA,NA,NA,NA,NA,NA,NA
