success,timeout,failed_images,failed_audio,failed_video,screen_id,trial_type,trial_index,time_elapsed,internal_node_id,run_id,condition,recorded_at,source_code_version,user_agent,device,browser,browser_version,platform,platform_version,referer,accept_language,ppt_id,age,race,ethnicity,gender,other_countries,prev_study,exp_duration,view_history,rt,stimulus,response,phase,order,set,effect,t_high,category,d1_best,d2_best,d1_worst1,d2_worst1,d1_worst2,d2_worst2,first_dim,d1_t,d1_c,d1_d,d2_t,d2_c,d2_d,d1_name,d2_name,strategy_response,question_order
TRUE,FALSE,[],[],[],img preload,preload,0,1790,0.0-0.0,162,1,2025-05-04T20:14:24Z,b60275e29fe2361ab97ac0ac217840d7,"Mozilla/5.0 (Macintosh; Intel Mac OS X 10_15_7) AppleWebKit/537.36 (KHTML, like Gecko) Chrome/135.0.0.0 Safari/537.36",Macintosh,Chrome,135.0.0.0,OS X,10_15_7,https://5puzkbbxv1.cognition.run/?sona_id=56849,"it-IT,it;q=0.9,en-GB;q=0.8,en;q=0.7,ca-IT;q=0.6,ca;q=0.5,en-US;q=0.4",st1yqrrx0ltdad1,20,"[""White""]",No,Female,Italy 19 years.,I'm not sure,856256.5,NA,NA,NA,NA,NA,NA,NA,NA,NA,NA,NA,NA,NA,NA,NA,NA,NA,NA,NA,NA,NA,NA,NA,NA,NA,NA,NA
NA,NA,NA,NA,NA,computer_message,instructions,1,22937,0.0-1.0,162,1,2025-05-04T20:14:24Z,b60275e29fe2361ab97ac0ac217840d7,"Mozilla/5.0 (Macintosh; Intel Mac OS X 10_15_7) AppleWebKit/537.36 (KHTML, like Gecko) Chrome/135.0.0.0 Safari/537.36",Macintosh,Chrome,135.0.0.0,OS X,10_15_7,https://5puzkbbxv1.cognition.run/?sona_id=56849,"it-IT,it;q=0.9,en-GB;q=0.8,en;q=0.7,ca-IT;q=0.6,ca;q=0.5,en-US;q=0.4",st1yqrrx0ltdad1,20,"[""White""]",No,Female,Italy 19 years.,I'm not sure,856256.5,"[{""page_index"":0,""viewing_time"":21146}]",21146,NA,NA,NA,NA,NA,NA,NA,NA,NA,NA,NA,NA,NA,NA,NA,NA,NA,NA,NA,NA,NA,NA,NA,NA,NA
TRUE,NA,NA,NA,NA,NA,fullscreen,2,29519,0.0-2.0,162,1,2025-05-04T20:14:24Z,b60275e29fe2361ab97ac0ac217840d7,"Mozilla/5.0 (Macintosh; Intel Mac OS X 10_15_7) AppleWebKit/537.36 (KHTML, like Gecko) Chrome/135.0.0.0 Safari/537.36",Macintosh,Chrome,135.0.0.0,OS X,10_15_7,https://5puzkbbxv1.cognition.run/?sona_id=56849,"it-IT,it;q=0.9,en-GB;q=0.8,en;q=0.7,ca-IT;q=0.6,ca;q=0.5,en-US;q=0.4",st1yqrrx0ltdad1,20,"[""White""]",No,Female,Italy 19 years.,I'm not sure,856256.5,NA,5579,NA,NA,NA,NA,NA,NA,NA,NA,NA,NA,NA,NA,NA,NA,NA,NA,NA,NA,NA,NA,NA,NA,NA,NA,NA
NA,NA,NA,NA,NA,choice_instructions,instructions,3,69237,0.0-3.0,162,1,2025-05-04T20:14:24Z,b60275e29fe2361ab97ac0ac217840d7,"Mozilla/5.0 (Macintosh; Intel Mac OS X 10_15_7) AppleWebKit/537.36 (KHTML, like Gecko) Chrome/135.0.0.0 Safari/537.36",Macintosh,Chrome,135.0.0.0,OS X,10_15_7,https://5puzkbbxv1.cognition.run/?sona_id=56849,"it-IT,it;q=0.9,en-GB;q=0.8,en;q=0.7,ca-IT;q=0.6,ca;q=0.5,en-US;q=0.4",st1yqrrx0ltdad1,20,"[""White""]",No,Female,Italy 19 years.,I'm not sure,856256.5,"[{""page_index"":0,""viewing_time"":2285},{""page_index"":1,""viewing_time"":3161},{""page_index"":2,""viewing_time"":15923},{""page_index"":3,""viewing_time"":3552},{""page_index"":4,""viewing_time"":2769},{""page_index"":5,""viewing_time"":5934},{""page_index"":6,""viewing_time"":6093}]",39716,NA,NA,NA,NA,NA,NA,NA,NA,NA,NA,NA,NA,NA,NA,NA,NA,NA,NA,NA,NA,NA,NA,NA,NA,NA
NA,NA,NA,NA,NA,choice_trial_setup,html-keyboard-response,4,69540,0.0-4.0-0.0,162,1,2025-05-04T20:14:24Z,b60275e29fe2361ab97ac0ac217840d7,"Mozilla/5.0 (Macintosh; Intel Mac OS X 10_15_7) AppleWebKit/537.36 (KHTML, like Gecko) Chrome/135.0.0.0 Safari/537.36",Macintosh,Chrome,135.0.0.0,OS X,10_15_7,https://5puzkbbxv1.cognition.run/?sona_id=56849,"it-IT,it;q=0.9,en-GB;q=0.8,en;q=0.7,ca-IT;q=0.6,ca;q=0.5,en-US;q=0.4",st1yqrrx0ltdad1,20,"[""White""]",No,Female,Italy 19 years.,I'm not sure,856256.5,NA,null,<p></p>,null,choice,wwb,trinary,catch,null,washing machines,50,70,45,5,15,50,2,NA,NA,NA,NA,NA,NA,NA,NA,NA,NA
NA,NA,NA,NA,NA,choice_trial,survey-html-form,5,94744,0.0-4.0-1.0,162,1,2025-05-04T20:14:24Z,b60275e29fe2361ab97ac0ac217840d7,"Mozilla/5.0 (Macintosh; Intel Mac OS X 10_15_7) AppleWebKit/537.36 (KHTML, like Gecko) Chrome/135.0.0.0 Safari/537.36",Macintosh,Chrome,135.0.0.0,OS X,10_15_7,https://5puzkbbxv1.cognition.run/?sona_id=56849,"it-IT,it;q=0.9,en-GB;q=0.8,en;q=0.7,ca-IT;q=0.6,ca;q=0.5,en-US;q=0.4",st1yqrrx0ltdad1,20,"[""White""]",No,Female,Italy 19 years.,I'm not sure,856256.5,NA,25199,NA,"{""product_choice"":""C""}",choice,wwb,trinary,catch,null,washing machines,50,70,45,5,15,50,2,null,null,null,null,null,null,Average lifespan,Energy savings,NA,NA
NA,NA,NA,NA,NA,choice_trial_setup,html-keyboard-response,6,95046,0.0-4.0-0.1,162,1,2025-05-04T20:14:24Z,b60275e29fe2361ab97ac0ac217840d7,"Mozilla/5.0 (Macintosh; Intel Mac OS X 10_15_7) AppleWebKit/537.36 (KHTML, like Gecko) Chrome/135.0.0.0 Safari/537.36",Macintosh,Chrome,135.0.0.0,OS X,10_15_7,https://5puzkbbxv1.cognition.run/?sona_id=56849,"it-IT,it;q=0.9,en-GB;q=0.8,en;q=0.7,ca-IT;q=0.6,ca;q=0.5,en-US;q=0.4",st1yqrrx0ltdad1,20,"[""White""]",No,Female,Italy 19 years.,I'm not sure,856256.5,NA,null,<p></p>,null,choice,ct,binary,attraction,NA,laptops,null,null,null,null,null,null,1,NA,NA,NA,NA,NA,NA,NA,NA,NA,NA
NA,NA,NA,NA,NA,choice_trial,survey-html-form,7,106276,0.0-4.0-1.1,162,1,2025-05-04T20:14:24Z,b60275e29fe2361ab97ac0ac217840d7,"Mozilla/5.0 (Macintosh; Intel Mac OS X 10_15_7) AppleWebKit/537.36 (KHTML, like Gecko) Chrome/135.0.0.0 Safari/537.36",Macintosh,Chrome,135.0.0.0,OS X,10_15_7,https://5puzkbbxv1.cognition.run/?sona_id=56849,"it-IT,it;q=0.9,en-GB;q=0.8,en;q=0.7,ca-IT;q=0.6,ca;q=0.5,en-US;q=0.4",st1yqrrx0ltdad1,20,"[""White""]",No,Female,Italy 19 years.,I'm not sure,856256.5,NA,11228,NA,"{""product_choice"":""B""}",choice,ct,binary,attraction,NA,laptops,null,null,null,null,null,null,1,60,50,null,50,60,null,Processing speed,Memory (RAM),NA,NA
NA,NA,NA,NA,NA,choice_trial_setup,html-keyboard-response,8,106579,0.0-4.0-0.2,162,1,2025-05-04T20:14:24Z,b60275e29fe2361ab97ac0ac217840d7,"Mozilla/5.0 (Macintosh; Intel Mac OS X 10_15_7) AppleWebKit/537.36 (KHTML, like Gecko) Chrome/135.0.0.0 Safari/537.36",Macintosh,Chrome,135.0.0.0,OS X,10_15_7,https://5puzkbbxv1.cognition.run/?sona_id=56849,"it-IT,it;q=0.9,en-GB;q=0.8,en;q=0.7,ca-IT;q=0.6,ca;q=0.5,en-US;q=0.4",st1yqrrx0ltdad1,20,"[""White""]",No,Female,Italy 19 years.,I'm not sure,856256.5,NA,null,<p></p>,null,choice,ct,binary,attraction,NA,televisions,null,null,null,null,null,null,2,NA,NA,NA,NA,NA,NA,NA,NA,NA,NA
NA,NA,NA,NA,NA,choice_trial,survey-html-form,9,117410,0.0-4.0-1.2,162,1,2025-05-04T20:14:24Z,b60275e29fe2361ab97ac0ac217840d7,"Mozilla/5.0 (Macintosh; Intel Mac OS X 10_15_7) AppleWebKit/537.36 (KHTML, like Gecko) Chrome/135.0.0.0 Safari/537.36",Macintosh,Chrome,135.0.0.0,OS X,10_15_7,https://5puzkbbxv1.cognition.run/?sona_id=56849,"it-IT,it;q=0.9,en-GB;q=0.8,en;q=0.7,ca-IT;q=0.6,ca;q=0.5,en-US;q=0.4",st1yqrrx0ltdad1,20,"[""White""]",No,Female,Italy 19 years.,I'm not sure,856256.5,NA,10830,NA,"{""product_choice"":""A""}",choice,ct,binary,attraction,NA,televisions,null,null,null,null,null,null,2,60,50,null,50,60,null,Screen size,Average lifespan,NA,NA
NA,NA,NA,NA,NA,choice_trial_setup,html-keyboard-response,10,117713,0.0-4.0-0.3,162,1,2025-05-04T20:14:24Z,b60275e29fe2361ab97ac0ac217840d7,"Mozilla/5.0 (Macintosh; Intel Mac OS X 10_15_7) AppleWebKit/537.36 (KHTML, like Gecko) Chrome/135.0.0.0 Safari/537.36",Macintosh,Chrome,135.0.0.0,OS X,10_15_7,https://5puzkbbxv1.cognition.run/?sona_id=56849,"it-IT,it;q=0.9,en-GB;q=0.8,en;q=0.7,ca-IT;q=0.6,ca;q=0.5,en-US;q=0.4",st1yqrrx0ltdad1,20,"[""White""]",No,Female,Italy 19 years.,I'm not sure,856256.5,NA,null,<p></p>,null,choice,ct,binary,repulsion,2,washing machines,null,null,null,null,null,null,2,NA,NA,NA,NA,NA,NA,NA,NA,NA,NA
NA,NA,NA,NA,NA,choice_trial,survey-html-form,11,139206,0.0-4.0-1.3,162,1,2025-05-04T20:14:24Z,b60275e29fe2361ab97ac0ac217840d7,"Mozilla/5.0 (Macintosh; Intel Mac OS X 10_15_7) AppleWebKit/537.36 (KHTML, like Gecko) Chrome/135.0.0.0 Safari/537.36",Macintosh,Chrome,135.0.0.0,OS X,10_15_7,https://5puzkbbxv1.cognition.run/?sona_id=56849,"it-IT,it;q=0.9,en-GB;q=0.8,en;q=0.7,ca-IT;q=0.6,ca;q=0.5,en-US;q=0.4",st1yqrrx0ltdad1,20,"[""White""]",No,Female,Italy 19 years.,I'm not sure,856256.5,NA,21491,NA,"{""product_choice"":""A""}",choice,ct,binary,repulsion,2,washing machines,null,null,null,null,null,null,2,30,40,null,100,90,null,Average lifespan,Energy savings,NA,NA
NA,NA,NA,NA,NA,choice_trial_setup,html-keyboard-response,12,139509,0.0-4.0-0.4,162,1,2025-05-04T20:14:24Z,b60275e29fe2361ab97ac0ac217840d7,"Mozilla/5.0 (Macintosh; Intel Mac OS X 10_15_7) AppleWebKit/537.36 (KHTML, like Gecko) Chrome/135.0.0.0 Safari/537.36",Macintosh,Chrome,135.0.0.0,OS X,10_15_7,https://5puzkbbxv1.cognition.run/?sona_id=56849,"it-IT,it;q=0.9,en-GB;q=0.8,en;q=0.7,ca-IT;q=0.6,ca;q=0.5,en-US;q=0.4",st1yqrrx0ltdad1,20,"[""White""]",No,Female,Italy 19 years.,I'm not sure,856256.5,NA,null,<p></p>,null,choice,cdt,trinary,repulsion_A,1,washing machines,null,null,null,null,null,null,1,NA,NA,NA,NA,NA,NA,NA,NA,NA,NA
NA,NA,NA,NA,NA,choice_trial,survey-html-form,13,156553,0.0-4.0-1.4,162,1,2025-05-04T20:14:24Z,b60275e29fe2361ab97ac0ac217840d7,"Mozilla/5.0 (Macintosh; Intel Mac OS X 10_15_7) AppleWebKit/537.36 (KHTML, like Gecko) Chrome/135.0.0.0 Safari/537.36",Macintosh,Chrome,135.0.0.0,OS X,10_15_7,https://5puzkbbxv1.cognition.run/?sona_id=56849,"it-IT,it;q=0.9,en-GB;q=0.8,en;q=0.7,ca-IT;q=0.6,ca;q=0.5,en-US;q=0.4",st1yqrrx0ltdad1,20,"[""White""]",No,Female,Italy 19 years.,I'm not sure,856256.5,NA,17041,NA,"{""product_choice"":""A""}",choice,cdt,trinary,repulsion_A,1,washing machines,null,null,null,null,null,null,1,100,90,100,30,40,20,Average lifespan,Energy savings,NA,NA
NA,NA,NA,NA,NA,choice_trial_setup,html-keyboard-response,14,156856,0.0-4.0-0.5,162,1,2025-05-04T20:14:24Z,b60275e29fe2361ab97ac0ac217840d7,"Mozilla/5.0 (Macintosh; Intel Mac OS X 10_15_7) AppleWebKit/537.36 (KHTML, like Gecko) Chrome/135.0.0.0 Safari/537.36",Macintosh,Chrome,135.0.0.0,OS X,10_15_7,https://5puzkbbxv1.cognition.run/?sona_id=56849,"it-IT,it;q=0.9,en-GB;q=0.8,en;q=0.7,ca-IT;q=0.6,ca;q=0.5,en-US;q=0.4",st1yqrrx0ltdad1,20,"[""White""]",No,Female,Italy 19 years.,I'm not sure,856256.5,NA,null,<p></p>,null,choice,tdc,trinary,repulsion_A,2,televisions,null,null,null,null,null,null,1,NA,NA,NA,NA,NA,NA,NA,NA,NA,NA
NA,NA,NA,NA,NA,choice_trial,survey-html-form,15,193988,0.0-4.0-1.5,162,1,2025-05-04T20:14:24Z,b60275e29fe2361ab97ac0ac217840d7,"Mozilla/5.0 (Macintosh; Intel Mac OS X 10_15_7) AppleWebKit/537.36 (KHTML, like Gecko) Chrome/135.0.0.0 Safari/537.36",Macintosh,Chrome,135.0.0.0,OS X,10_15_7,https://5puzkbbxv1.cognition.run/?sona_id=56849,"it-IT,it;q=0.9,en-GB;q=0.8,en;q=0.7,ca-IT;q=0.6,ca;q=0.5,en-US;q=0.4",st1yqrrx0ltdad1,20,"[""White""]",No,Female,Italy 19 years.,I'm not sure,856256.5,NA,37129,NA,"{""product_choice"":""A""}",choice,tdc,trinary,repulsion_A,2,televisions,null,null,null,null,null,null,1,30,40,20,100,90,100,Screen size,Average lifespan,NA,NA
NA,NA,NA,NA,NA,choice_trial_setup,html-keyboard-response,16,194290,0.0-4.0-0.6,162,1,2025-05-04T20:14:24Z,b60275e29fe2361ab97ac0ac217840d7,"Mozilla/5.0 (Macintosh; Intel Mac OS X 10_15_7) AppleWebKit/537.36 (KHTML, like Gecko) Chrome/135.0.0.0 Safari/537.36",Macintosh,Chrome,135.0.0.0,OS X,10_15_7,https://5puzkbbxv1.cognition.run/?sona_id=56849,"it-IT,it;q=0.9,en-GB;q=0.8,en;q=0.7,ca-IT;q=0.6,ca;q=0.5,en-US;q=0.4",st1yqrrx0ltdad1,20,"[""White""]",No,Female,Italy 19 years.,I'm not sure,856256.5,NA,null,<p></p>,null,choice,tc,binary,repulsion,1,televisions,null,null,null,null,null,null,2,NA,NA,NA,NA,NA,NA,NA,NA,NA,NA
NA,NA,NA,NA,NA,choice_trial,survey-html-form,17,202186,0.0-4.0-1.6,162,1,2025-05-04T20:14:24Z,b60275e29fe2361ab97ac0ac217840d7,"Mozilla/5.0 (Macintosh; Intel Mac OS X 10_15_7) AppleWebKit/537.36 (KHTML, like Gecko) Chrome/135.0.0.0 Safari/537.36",Macintosh,Chrome,135.0.0.0,OS X,10_15_7,https://5puzkbbxv1.cognition.run/?sona_id=56849,"it-IT,it;q=0.9,en-GB;q=0.8,en;q=0.7,ca-IT;q=0.6,ca;q=0.5,en-US;q=0.4",st1yqrrx0ltdad1,20,"[""White""]",No,Female,Italy 19 years.,I'm not sure,856256.5,NA,7894,NA,"{""product_choice"":""B""}",choice,tc,binary,repulsion,1,televisions,null,null,null,null,null,null,2,100,90,null,30,40,null,Screen size,Average lifespan,NA,NA
NA,NA,NA,NA,NA,choice_trial_setup,html-keyboard-response,18,202489,0.0-4.0-0.7,162,1,2025-05-04T20:14:24Z,b60275e29fe2361ab97ac0ac217840d7,"Mozilla/5.0 (Macintosh; Intel Mac OS X 10_15_7) AppleWebKit/537.36 (KHTML, like Gecko) Chrome/135.0.0.0 Safari/537.36",Macintosh,Chrome,135.0.0.0,OS X,10_15_7,https://5puzkbbxv1.cognition.run/?sona_id=56849,"it-IT,it;q=0.9,en-GB;q=0.8,en;q=0.7,ca-IT;q=0.6,ca;q=0.5,en-US;q=0.4",st1yqrrx0ltdad1,20,"[""White""]",No,Female,Italy 19 years.,I'm not sure,856256.5,NA,null,<p></p>,null,choice,ctd,trinary,attraction,2,microwave ovens,null,null,null,null,null,null,2,NA,NA,NA,NA,NA,NA,NA,NA,NA,NA
NA,NA,NA,NA,NA,choice_trial,survey-html-form,19,213027,0.0-4.0-1.7,162,1,2025-05-04T20:14:24Z,b60275e29fe2361ab97ac0ac217840d7,"Mozilla/5.0 (Macintosh; Intel Mac OS X 10_15_7) AppleWebKit/537.36 (KHTML, like Gecko) Chrome/135.0.0.0 Safari/537.36",Macintosh,Chrome,135.0.0.0,OS X,10_15_7,https://5puzkbbxv1.cognition.run/?sona_id=56849,"it-IT,it;q=0.9,en-GB;q=0.8,en;q=0.7,ca-IT;q=0.6,ca;q=0.5,en-US;q=0.4",st1yqrrx0ltdad1,20,"[""White""]",No,Female,Italy 19 years.,I'm not sure,856256.5,NA,10536,NA,"{""product_choice"":""A""}",choice,ctd,trinary,attraction,2,microwave ovens,null,null,null,null,null,null,2,50,60,40,60,50,60,Warranty,Cooking power,NA,NA
NA,NA,NA,NA,NA,choice_trial_setup,html-keyboard-response,20,213329,0.0-4.0-0.8,162,1,2025-05-04T20:14:24Z,b60275e29fe2361ab97ac0ac217840d7,"Mozilla/5.0 (Macintosh; Intel Mac OS X 10_15_7) AppleWebKit/537.36 (KHTML, like Gecko) Chrome/135.0.0.0 Safari/537.36",Macintosh,Chrome,135.0.0.0,OS X,10_15_7,https://5puzkbbxv1.cognition.run/?sona_id=56849,"it-IT,it;q=0.9,en-GB;q=0.8,en;q=0.7,ca-IT;q=0.6,ca;q=0.5,en-US;q=0.4",st1yqrrx0ltdad1,20,"[""White""]",No,Female,Italy 19 years.,I'm not sure,856256.5,NA,null,<p></p>,null,choice,ct,binary,repulsion,2,microwave ovens,null,null,null,null,null,null,1,NA,NA,NA,NA,NA,NA,NA,NA,NA,NA
NA,NA,NA,NA,NA,choice_trial,survey-html-form,21,342141,0.0-4.0-1.8,162,1,2025-05-04T20:14:24Z,b60275e29fe2361ab97ac0ac217840d7,"Mozilla/5.0 (Macintosh; Intel Mac OS X 10_15_7) AppleWebKit/537.36 (KHTML, like Gecko) Chrome/135.0.0.0 Safari/537.36",Macintosh,Chrome,135.0.0.0,OS X,10_15_7,https://5puzkbbxv1.cognition.run/?sona_id=56849,"it-IT,it;q=0.9,en-GB;q=0.8,en;q=0.7,ca-IT;q=0.6,ca;q=0.5,en-US;q=0.4",st1yqrrx0ltdad1,20,"[""White""]",No,Female,Italy 19 years.,I'm not sure,856256.5,NA,128806,NA,"{""product_choice"":""A""}",choice,ct,binary,repulsion,2,microwave ovens,null,null,null,null,null,null,1,30,40,null,100,90,null,Warranty,Cooking power,NA,NA
NA,NA,NA,NA,NA,choice_trial_setup,html-keyboard-response,22,342444,0.0-4.0-0.9,162,1,2025-05-04T20:14:24Z,b60275e29fe2361ab97ac0ac217840d7,"Mozilla/5.0 (Macintosh; Intel Mac OS X 10_15_7) AppleWebKit/537.36 (KHTML, like Gecko) Chrome/135.0.0.0 Safari/537.36",Macintosh,Chrome,135.0.0.0,OS X,10_15_7,https://5puzkbbxv1.cognition.run/?sona_id=56849,"it-IT,it;q=0.9,en-GB;q=0.8,en;q=0.7,ca-IT;q=0.6,ca;q=0.5,en-US;q=0.4",st1yqrrx0ltdad1,20,"[""White""]",No,Female,Italy 19 years.,I'm not sure,856256.5,NA,null,<p></p>,null,choice,tcd,trinary,attraction,1,washing machines,null,null,null,null,null,null,2,NA,NA,NA,NA,NA,NA,NA,NA,NA,NA
NA,NA,NA,NA,NA,choice_trial,survey-html-form,23,365494,0.0-4.0-1.9,162,1,2025-05-04T20:14:24Z,b60275e29fe2361ab97ac0ac217840d7,"Mozilla/5.0 (Macintosh; Intel Mac OS X 10_15_7) AppleWebKit/537.36 (KHTML, like Gecko) Chrome/135.0.0.0 Safari/537.36",Macintosh,Chrome,135.0.0.0,OS X,10_15_7,https://5puzkbbxv1.cognition.run/?sona_id=56849,"it-IT,it;q=0.9,en-GB;q=0.8,en;q=0.7,ca-IT;q=0.6,ca;q=0.5,en-US;q=0.4",st1yqrrx0ltdad1,20,"[""White""]",No,Female,Italy 19 years.,I'm not sure,856256.5,NA,23047,NA,"{""product_choice"":""A""}",choice,tcd,trinary,attraction,1,washing machines,null,null,null,null,null,null,2,60,50,60,50,60,40,Average lifespan,Energy savings,NA,NA
NA,NA,NA,NA,NA,choice_trial_setup,html-keyboard-response,24,365797,0.0-4.0-0.10,162,1,2025-05-04T20:14:24Z,b60275e29fe2361ab97ac0ac217840d7,"Mozilla/5.0 (Macintosh; Intel Mac OS X 10_15_7) AppleWebKit/537.36 (KHTML, like Gecko) Chrome/135.0.0.0 Safari/537.36",Macintosh,Chrome,135.0.0.0,OS X,10_15_7,https://5puzkbbxv1.cognition.run/?sona_id=56849,"it-IT,it;q=0.9,en-GB;q=0.8,en;q=0.7,ca-IT;q=0.6,ca;q=0.5,en-US;q=0.4",st1yqrrx0ltdad1,20,"[""White""]",No,Female,Italy 19 years.,I'm not sure,856256.5,NA,null,<p></p>,null,choice,ctd,trinary,repulsion_B,1,televisions,null,null,null,null,null,null,2,NA,NA,NA,NA,NA,NA,NA,NA,NA,NA
NA,NA,NA,NA,NA,choice_trial,survey-html-form,25,379460,0.0-4.0-1.10,162,1,2025-05-04T20:14:24Z,b60275e29fe2361ab97ac0ac217840d7,"Mozilla/5.0 (Macintosh; Intel Mac OS X 10_15_7) AppleWebKit/537.36 (KHTML, like Gecko) Chrome/135.0.0.0 Safari/537.36",Macintosh,Chrome,135.0.0.0,OS X,10_15_7,https://5puzkbbxv1.cognition.run/?sona_id=56849,"it-IT,it;q=0.9,en-GB;q=0.8,en;q=0.7,ca-IT;q=0.6,ca;q=0.5,en-US;q=0.4",st1yqrrx0ltdad1,20,"[""White""]",No,Female,Italy 19 years.,I'm not sure,856256.5,NA,13661,NA,"{""product_choice"":""B""}",choice,ctd,trinary,repulsion_B,1,televisions,null,null,null,null,null,null,2,90,100,80,40,30,40,Screen size,Average lifespan,NA,NA
NA,NA,NA,NA,NA,choice_trial_setup,html-keyboard-response,26,379763,0.0-4.0-0.11,162,1,2025-05-04T20:14:24Z,b60275e29fe2361ab97ac0ac217840d7,"Mozilla/5.0 (Macintosh; Intel Mac OS X 10_15_7) AppleWebKit/537.36 (KHTML, like Gecko) Chrome/135.0.0.0 Safari/537.36",Macintosh,Chrome,135.0.0.0,OS X,10_15_7,https://5puzkbbxv1.cognition.run/?sona_id=56849,"it-IT,it;q=0.9,en-GB;q=0.8,en;q=0.7,ca-IT;q=0.6,ca;q=0.5,en-US;q=0.4",st1yqrrx0ltdad1,20,"[""White""]",No,Female,Italy 19 years.,I'm not sure,856256.5,NA,null,<p></p>,null,choice,dct,trinary,repulsion_A,1,laptops,null,null,null,null,null,null,2,NA,NA,NA,NA,NA,NA,NA,NA,NA,NA
NA,NA,NA,NA,NA,choice_trial,survey-html-form,27,389177,0.0-4.0-1.11,162,1,2025-05-04T20:14:24Z,b60275e29fe2361ab97ac0ac217840d7,"Mozilla/5.0 (Macintosh; Intel Mac OS X 10_15_7) AppleWebKit/537.36 (KHTML, like Gecko) Chrome/135.0.0.0 Safari/537.36",Macintosh,Chrome,135.0.0.0,OS X,10_15_7,https://5puzkbbxv1.cognition.run/?sona_id=56849,"it-IT,it;q=0.9,en-GB;q=0.8,en;q=0.7,ca-IT;q=0.6,ca;q=0.5,en-US;q=0.4",st1yqrrx0ltdad1,20,"[""White""]",No,Female,Italy 19 years.,I'm not sure,856256.5,NA,9412,NA,"{""product_choice"":""B""}",choice,dct,trinary,repulsion_A,1,laptops,null,null,null,null,null,null,2,100,90,100,30,40,20,Processing speed,Memory (RAM),NA,NA
NA,NA,NA,NA,NA,choice_trial_setup,html-keyboard-response,28,389480,0.0-4.0-0.12,162,1,2025-05-04T20:14:24Z,b60275e29fe2361ab97ac0ac217840d7,"Mozilla/5.0 (Macintosh; Intel Mac OS X 10_15_7) AppleWebKit/537.36 (KHTML, like Gecko) Chrome/135.0.0.0 Safari/537.36",Macintosh,Chrome,135.0.0.0,OS X,10_15_7,https://5puzkbbxv1.cognition.run/?sona_id=56849,"it-IT,it;q=0.9,en-GB;q=0.8,en;q=0.7,ca-IT;q=0.6,ca;q=0.5,en-US;q=0.4",st1yqrrx0ltdad1,20,"[""White""]",No,Female,Italy 19 years.,I'm not sure,856256.5,NA,null,<p></p>,null,choice,ct,binary,repulsion,2,televisions,null,null,null,null,null,null,1,NA,NA,NA,NA,NA,NA,NA,NA,NA,NA
NA,NA,NA,NA,NA,choice_trial,survey-html-form,29,461078,0.0-4.0-1.12,162,1,2025-05-04T20:14:24Z,b60275e29fe2361ab97ac0ac217840d7,"Mozilla/5.0 (Macintosh; Intel Mac OS X 10_15_7) AppleWebKit/537.36 (KHTML, like Gecko) Chrome/135.0.0.0 Safari/537.36",Macintosh,Chrome,135.0.0.0,OS X,10_15_7,https://5puzkbbxv1.cognition.run/?sona_id=56849,"it-IT,it;q=0.9,en-GB;q=0.8,en;q=0.7,ca-IT;q=0.6,ca;q=0.5,en-US;q=0.4",st1yqrrx0ltdad1,20,"[""White""]",No,Female,Italy 19 years.,I'm not sure,856256.5,NA,71593,NA,"{""product_choice"":""B""}",choice,ct,binary,repulsion,2,televisions,null,null,null,null,null,null,1,30,40,null,100,90,null,Screen size,Average lifespan,NA,NA
NA,NA,NA,NA,NA,choice_trial_setup,html-keyboard-response,30,461381,0.0-4.0-0.13,162,1,2025-05-04T20:14:24Z,b60275e29fe2361ab97ac0ac217840d7,"Mozilla/5.0 (Macintosh; Intel Mac OS X 10_15_7) AppleWebKit/537.36 (KHTML, like Gecko) Chrome/135.0.0.0 Safari/537.36",Macintosh,Chrome,135.0.0.0,OS X,10_15_7,https://5puzkbbxv1.cognition.run/?sona_id=56849,"it-IT,it;q=0.9,en-GB;q=0.8,en;q=0.7,ca-IT;q=0.6,ca;q=0.5,en-US;q=0.4",st1yqrrx0ltdad1,20,"[""White""]",No,Female,Italy 19 years.,I'm not sure,856256.5,NA,null,<p></p>,null,choice,ctd,trinary,repulsion_A,2,laptops,null,null,null,null,null,null,2,NA,NA,NA,NA,NA,NA,NA,NA,NA,NA
NA,NA,NA,NA,NA,choice_trial,survey-html-form,31,582732,0.0-4.0-1.13,162,1,2025-05-04T20:14:24Z,b60275e29fe2361ab97ac0ac217840d7,"Mozilla/5.0 (Macintosh; Intel Mac OS X 10_15_7) AppleWebKit/537.36 (KHTML, like Gecko) Chrome/135.0.0.0 Safari/537.36",Macintosh,Chrome,135.0.0.0,OS X,10_15_7,https://5puzkbbxv1.cognition.run/?sona_id=56849,"it-IT,it;q=0.9,en-GB;q=0.8,en;q=0.7,ca-IT;q=0.6,ca;q=0.5,en-US;q=0.4",st1yqrrx0ltdad1,20,"[""White""]",No,Female,Italy 19 years.,I'm not sure,856256.5,NA,121346,NA,"{""product_choice"":""A""}",choice,ctd,trinary,repulsion_A,2,laptops,null,null,null,null,null,null,2,30,40,20,100,90,100,Processing speed,Memory (RAM),NA,NA
NA,NA,NA,NA,NA,choice_trial_setup,html-keyboard-response,32,583035,0.0-4.0-0.14,162,1,2025-05-04T20:14:24Z,b60275e29fe2361ab97ac0ac217840d7,"Mozilla/5.0 (Macintosh; Intel Mac OS X 10_15_7) AppleWebKit/537.36 (KHTML, like Gecko) Chrome/135.0.0.0 Safari/537.36",Macintosh,Chrome,135.0.0.0,OS X,10_15_7,https://5puzkbbxv1.cognition.run/?sona_id=56849,"it-IT,it;q=0.9,en-GB;q=0.8,en;q=0.7,ca-IT;q=0.6,ca;q=0.5,en-US;q=0.4",st1yqrrx0ltdad1,20,"[""White""]",No,Female,Italy 19 years.,I'm not sure,856256.5,NA,null,<p></p>,null,choice,tcd,trinary,attraction,2,televisions,null,null,null,null,null,null,1,NA,NA,NA,NA,NA,NA,NA,NA,NA,NA
NA,NA,NA,NA,NA,choice_trial,survey-html-form,33,588866,0.0-4.0-1.14,162,1,2025-05-04T20:14:24Z,b60275e29fe2361ab97ac0ac217840d7,"Mozilla/5.0 (Macintosh; Intel Mac OS X 10_15_7) AppleWebKit/537.36 (KHTML, like Gecko) Chrome/135.0.0.0 Safari/537.36",Macintosh,Chrome,135.0.0.0,OS X,10_15_7,https://5puzkbbxv1.cognition.run/?sona_id=56849,"it-IT,it;q=0.9,en-GB;q=0.8,en;q=0.7,ca-IT;q=0.6,ca;q=0.5,en-US;q=0.4",st1yqrrx0ltdad1,20,"[""White""]",No,Female,Italy 19 years.,I'm not sure,856256.5,NA,5828,NA,"{""product_choice"":""A""}",choice,tcd,trinary,attraction,2,televisions,null,null,null,null,null,null,1,50,60,40,60,50,60,Screen size,Average lifespan,NA,NA
NA,NA,NA,NA,NA,choice_trial_setup,html-keyboard-response,34,589170,0.0-4.0-0.15,162,1,2025-05-04T20:14:24Z,b60275e29fe2361ab97ac0ac217840d7,"Mozilla/5.0 (Macintosh; Intel Mac OS X 10_15_7) AppleWebKit/537.36 (KHTML, like Gecko) Chrome/135.0.0.0 Safari/537.36",Macintosh,Chrome,135.0.0.0,OS X,10_15_7,https://5puzkbbxv1.cognition.run/?sona_id=56849,"it-IT,it;q=0.9,en-GB;q=0.8,en;q=0.7,ca-IT;q=0.6,ca;q=0.5,en-US;q=0.4",st1yqrrx0ltdad1,20,"[""White""]",No,Female,Italy 19 years.,I'm not sure,856256.5,NA,null,<p></p>,null,choice,dtc,trinary,repulsion_B,1,washing machines,null,null,null,null,null,null,2,NA,NA,NA,NA,NA,NA,NA,NA,NA,NA
NA,NA,NA,NA,NA,choice_trial,survey-html-form,35,595141,0.0-4.0-1.15,162,1,2025-05-04T20:14:24Z,b60275e29fe2361ab97ac0ac217840d7,"Mozilla/5.0 (Macintosh; Intel Mac OS X 10_15_7) AppleWebKit/537.36 (KHTML, like Gecko) Chrome/135.0.0.0 Safari/537.36",Macintosh,Chrome,135.0.0.0,OS X,10_15_7,https://5puzkbbxv1.cognition.run/?sona_id=56849,"it-IT,it;q=0.9,en-GB;q=0.8,en;q=0.7,ca-IT;q=0.6,ca;q=0.5,en-US;q=0.4",st1yqrrx0ltdad1,20,"[""White""]",No,Female,Italy 19 years.,I'm not sure,856256.5,NA,5968,NA,"{""product_choice"":""C""}",choice,dtc,trinary,repulsion_B,1,washing machines,null,null,null,null,null,null,2,90,100,80,40,30,40,Average lifespan,Energy savings,NA,NA
NA,NA,NA,NA,NA,choice_trial_setup,html-keyboard-response,36,595445,0.0-4.0-0.16,162,1,2025-05-04T20:14:24Z,b60275e29fe2361ab97ac0ac217840d7,"Mozilla/5.0 (Macintosh; Intel Mac OS X 10_15_7) AppleWebKit/537.36 (KHTML, like Gecko) Chrome/135.0.0.0 Safari/537.36",Macintosh,Chrome,135.0.0.0,OS X,10_15_7,https://5puzkbbxv1.cognition.run/?sona_id=56849,"it-IT,it;q=0.9,en-GB;q=0.8,en;q=0.7,ca-IT;q=0.6,ca;q=0.5,en-US;q=0.4",st1yqrrx0ltdad1,20,"[""White""]",No,Female,Italy 19 years.,I'm not sure,856256.5,NA,null,<p></p>,null,choice,bw,binary,catch,null,laptops,50,85,40,30,null,null,2,NA,NA,NA,NA,NA,NA,NA,NA,NA,NA
NA,NA,NA,NA,NA,choice_trial,survey-html-form,37,602345,0.0-4.0-1.16,162,1,2025-05-04T20:14:24Z,b60275e29fe2361ab97ac0ac217840d7,"Mozilla/5.0 (Macintosh; Intel Mac OS X 10_15_7) AppleWebKit/537.36 (KHTML, like Gecko) Chrome/135.0.0.0 Safari/537.36",Macintosh,Chrome,135.0.0.0,OS X,10_15_7,https://5puzkbbxv1.cognition.run/?sona_id=56849,"it-IT,it;q=0.9,en-GB;q=0.8,en;q=0.7,ca-IT;q=0.6,ca;q=0.5,en-US;q=0.4",st1yqrrx0ltdad1,20,"[""White""]",No,Female,Italy 19 years.,I'm not sure,856256.5,NA,6897,NA,"{""product_choice"":""A""}",choice,bw,binary,catch,null,laptops,50,85,40,30,null,null,2,null,null,null,null,null,null,Processing speed,Memory (RAM),NA,NA
NA,NA,NA,NA,NA,choice_trial_setup,html-keyboard-response,38,602649,0.0-4.0-0.17,162,1,2025-05-04T20:14:24Z,b60275e29fe2361ab97ac0ac217840d7,"Mozilla/5.0 (Macintosh; Intel Mac OS X 10_15_7) AppleWebKit/537.36 (KHTML, like Gecko) Chrome/135.0.0.0 Safari/537.36",Macintosh,Chrome,135.0.0.0,OS X,10_15_7,https://5puzkbbxv1.cognition.run/?sona_id=56849,"it-IT,it;q=0.9,en-GB;q=0.8,en;q=0.7,ca-IT;q=0.6,ca;q=0.5,en-US;q=0.4",st1yqrrx0ltdad1,20,"[""White""]",No,Female,Italy 19 years.,I'm not sure,856256.5,NA,null,<p></p>,null,choice,ctd,trinary,attraction,2,laptops,null,null,null,null,null,null,2,NA,NA,NA,NA,NA,NA,NA,NA,NA,NA
NA,NA,NA,NA,NA,choice_trial,survey-html-form,39,608299,0.0-4.0-1.17,162,1,2025-05-04T20:14:24Z,b60275e29fe2361ab97ac0ac217840d7,"Mozilla/5.0 (Macintosh; Intel Mac OS X 10_15_7) AppleWebKit/537.36 (KHTML, like Gecko) Chrome/135.0.0.0 Safari/537.36",Macintosh,Chrome,135.0.0.0,OS X,10_15_7,https://5puzkbbxv1.cognition.run/?sona_id=56849,"it-IT,it;q=0.9,en-GB;q=0.8,en;q=0.7,ca-IT;q=0.6,ca;q=0.5,en-US;q=0.4",st1yqrrx0ltdad1,20,"[""White""]",No,Female,Italy 19 years.,I'm not sure,856256.5,NA,5648,NA,"{""product_choice"":""A""}",choice,ctd,trinary,attraction,2,laptops,null,null,null,null,null,null,2,50,60,40,60,50,60,Processing speed,Memory (RAM),NA,NA
NA,NA,NA,NA,NA,choice_trial_setup,html-keyboard-response,40,608602,0.0-4.0-0.18,162,1,2025-05-04T20:14:24Z,b60275e29fe2361ab97ac0ac217840d7,"Mozilla/5.0 (Macintosh; Intel Mac OS X 10_15_7) AppleWebKit/537.36 (KHTML, like Gecko) Chrome/135.0.0.0 Safari/537.36",Macintosh,Chrome,135.0.0.0,OS X,10_15_7,https://5puzkbbxv1.cognition.run/?sona_id=56849,"it-IT,it;q=0.9,en-GB;q=0.8,en;q=0.7,ca-IT;q=0.6,ca;q=0.5,en-US;q=0.4",st1yqrrx0ltdad1,20,"[""White""]",No,Female,Italy 19 years.,I'm not sure,856256.5,NA,null,<p></p>,null,choice,tcd,trinary,repulsion_B,2,washing machines,null,null,null,null,null,null,1,NA,NA,NA,NA,NA,NA,NA,NA,NA,NA
NA,NA,NA,NA,NA,choice_trial,survey-html-form,41,613817,0.0-4.0-1.18,162,1,2025-05-04T20:14:24Z,b60275e29fe2361ab97ac0ac217840d7,"Mozilla/5.0 (Macintosh; Intel Mac OS X 10_15_7) AppleWebKit/537.36 (KHTML, like Gecko) Chrome/135.0.0.0 Safari/537.36",Macintosh,Chrome,135.0.0.0,OS X,10_15_7,https://5puzkbbxv1.cognition.run/?sona_id=56849,"it-IT,it;q=0.9,en-GB;q=0.8,en;q=0.7,ca-IT;q=0.6,ca;q=0.5,en-US;q=0.4",st1yqrrx0ltdad1,20,"[""White""]",No,Female,Italy 19 years.,I'm not sure,856256.5,NA,5212,NA,"{""product_choice"":""B""}",choice,tcd,trinary,repulsion_B,2,washing machines,null,null,null,null,null,null,1,40,30,40,90,100,80,Average lifespan,Energy savings,NA,NA
NA,NA,NA,NA,NA,choice_trial_setup,html-keyboard-response,42,614119,0.0-4.0-0.19,162,1,2025-05-04T20:14:24Z,b60275e29fe2361ab97ac0ac217840d7,"Mozilla/5.0 (Macintosh; Intel Mac OS X 10_15_7) AppleWebKit/537.36 (KHTML, like Gecko) Chrome/135.0.0.0 Safari/537.36",Macintosh,Chrome,135.0.0.0,OS X,10_15_7,https://5puzkbbxv1.cognition.run/?sona_id=56849,"it-IT,it;q=0.9,en-GB;q=0.8,en;q=0.7,ca-IT;q=0.6,ca;q=0.5,en-US;q=0.4",st1yqrrx0ltdad1,20,"[""White""]",No,Female,Italy 19 years.,I'm not sure,856256.5,NA,null,<p></p>,null,choice,dtc,trinary,repulsion_A,1,microwave ovens,null,null,null,null,null,null,1,NA,NA,NA,NA,NA,NA,NA,NA,NA,NA
NA,NA,NA,NA,NA,choice_trial,survey-html-form,43,626251,0.0-4.0-1.19,162,1,2025-05-04T20:14:24Z,b60275e29fe2361ab97ac0ac217840d7,"Mozilla/5.0 (Macintosh; Intel Mac OS X 10_15_7) AppleWebKit/537.36 (KHTML, like Gecko) Chrome/135.0.0.0 Safari/537.36",Macintosh,Chrome,135.0.0.0,OS X,10_15_7,https://5puzkbbxv1.cognition.run/?sona_id=56849,"it-IT,it;q=0.9,en-GB;q=0.8,en;q=0.7,ca-IT;q=0.6,ca;q=0.5,en-US;q=0.4",st1yqrrx0ltdad1,20,"[""White""]",No,Female,Italy 19 years.,I'm not sure,856256.5,NA,12128,NA,"{""product_choice"":""B""}",choice,dtc,trinary,repulsion_A,1,microwave ovens,null,null,null,null,null,null,1,100,90,100,30,40,20,Warranty,Cooking power,NA,NA
NA,NA,NA,NA,NA,choice_trial_setup,html-keyboard-response,44,626554,0.0-4.0-0.20,162,1,2025-05-04T20:14:24Z,b60275e29fe2361ab97ac0ac217840d7,"Mozilla/5.0 (Macintosh; Intel Mac OS X 10_15_7) AppleWebKit/537.36 (KHTML, like Gecko) Chrome/135.0.0.0 Safari/537.36",Macintosh,Chrome,135.0.0.0,OS X,10_15_7,https://5puzkbbxv1.cognition.run/?sona_id=56849,"it-IT,it;q=0.9,en-GB;q=0.8,en;q=0.7,ca-IT;q=0.6,ca;q=0.5,en-US;q=0.4",st1yqrrx0ltdad1,20,"[""White""]",No,Female,Italy 19 years.,I'm not sure,856256.5,NA,null,<p></p>,null,choice,ct,binary,attraction,NA,microwave ovens,null,null,null,null,null,null,2,NA,NA,NA,NA,NA,NA,NA,NA,NA,NA
NA,NA,NA,NA,NA,choice_trial,survey-html-form,45,630736,0.0-4.0-1.20,162,1,2025-05-04T20:14:24Z,b60275e29fe2361ab97ac0ac217840d7,"Mozilla/5.0 (Macintosh; Intel Mac OS X 10_15_7) AppleWebKit/537.36 (KHTML, like Gecko) Chrome/135.0.0.0 Safari/537.36",Macintosh,Chrome,135.0.0.0,OS X,10_15_7,https://5puzkbbxv1.cognition.run/?sona_id=56849,"it-IT,it;q=0.9,en-GB;q=0.8,en;q=0.7,ca-IT;q=0.6,ca;q=0.5,en-US;q=0.4",st1yqrrx0ltdad1,20,"[""White""]",No,Female,Italy 19 years.,I'm not sure,856256.5,NA,4179,NA,"{""product_choice"":""A""}",choice,ct,binary,attraction,NA,microwave ovens,null,null,null,null,null,null,2,60,50,null,50,60,null,Warranty,Cooking power,NA,NA
NA,NA,NA,NA,NA,choice_trial_setup,html-keyboard-response,46,631039,0.0-4.0-0.21,162,1,2025-05-04T20:14:24Z,b60275e29fe2361ab97ac0ac217840d7,"Mozilla/5.0 (Macintosh; Intel Mac OS X 10_15_7) AppleWebKit/537.36 (KHTML, like Gecko) Chrome/135.0.0.0 Safari/537.36",Macintosh,Chrome,135.0.0.0,OS X,10_15_7,https://5puzkbbxv1.cognition.run/?sona_id=56849,"it-IT,it;q=0.9,en-GB;q=0.8,en;q=0.7,ca-IT;q=0.6,ca;q=0.5,en-US;q=0.4",st1yqrrx0ltdad1,20,"[""White""]",No,Female,Italy 19 years.,I'm not sure,856256.5,NA,null,<p></p>,null,choice,wwb,trinary,catch,null,laptops,70,65,30,50,5,15,1,NA,NA,NA,NA,NA,NA,NA,NA,NA,NA
NA,NA,NA,NA,NA,choice_trial,survey-html-form,47,637188,0.0-4.0-1.21,162,1,2025-05-04T20:14:24Z,b60275e29fe2361ab97ac0ac217840d7,"Mozilla/5.0 (Macintosh; Intel Mac OS X 10_15_7) AppleWebKit/537.36 (KHTML, like Gecko) Chrome/135.0.0.0 Safari/537.36",Macintosh,Chrome,135.0.0.0,OS X,10_15_7,https://5puzkbbxv1.cognition.run/?sona_id=56849,"it-IT,it;q=0.9,en-GB;q=0.8,en;q=0.7,ca-IT;q=0.6,ca;q=0.5,en-US;q=0.4",st1yqrrx0ltdad1,20,"[""White""]",No,Female,Italy 19 years.,I'm not sure,856256.5,NA,6145,NA,"{""product_choice"":""C""}",choice,wwb,trinary,catch,null,laptops,70,65,30,50,5,15,1,null,null,null,null,null,null,Processing speed,Memory (RAM),NA,NA
NA,NA,NA,NA,NA,choice_trial_setup,html-keyboard-response,48,637490,0.0-4.0-0.22,162,1,2025-05-04T20:14:24Z,b60275e29fe2361ab97ac0ac217840d7,"Mozilla/5.0 (Macintosh; Intel Mac OS X 10_15_7) AppleWebKit/537.36 (KHTML, like Gecko) Chrome/135.0.0.0 Safari/537.36",Macintosh,Chrome,135.0.0.0,OS X,10_15_7,https://5puzkbbxv1.cognition.run/?sona_id=56849,"it-IT,it;q=0.9,en-GB;q=0.8,en;q=0.7,ca-IT;q=0.6,ca;q=0.5,en-US;q=0.4",st1yqrrx0ltdad1,20,"[""White""]",No,Female,Italy 19 years.,I'm not sure,856256.5,NA,null,<p></p>,null,choice,tcd,trinary,attraction,2,washing machines,null,null,null,null,null,null,2,NA,NA,NA,NA,NA,NA,NA,NA,NA,NA
NA,NA,NA,NA,NA,choice_trial,survey-html-form,49,639684,0.0-4.0-1.22,162,1,2025-05-04T20:14:24Z,b60275e29fe2361ab97ac0ac217840d7,"Mozilla/5.0 (Macintosh; Intel Mac OS X 10_15_7) AppleWebKit/537.36 (KHTML, like Gecko) Chrome/135.0.0.0 Safari/537.36",Macintosh,Chrome,135.0.0.0,OS X,10_15_7,https://5puzkbbxv1.cognition.run/?sona_id=56849,"it-IT,it;q=0.9,en-GB;q=0.8,en;q=0.7,ca-IT;q=0.6,ca;q=0.5,en-US;q=0.4",st1yqrrx0ltdad1,20,"[""White""]",No,Female,Italy 19 years.,I'm not sure,856256.5,NA,2191,NA,"{""product_choice"":""C""}",choice,tcd,trinary,attraction,2,washing machines,null,null,null,null,null,null,2,50,60,40,60,50,60,Average lifespan,Energy savings,NA,NA
NA,NA,NA,NA,NA,choice_trial_setup,html-keyboard-response,50,639987,0.0-4.0-0.23,162,1,2025-05-04T20:14:24Z,b60275e29fe2361ab97ac0ac217840d7,"Mozilla/5.0 (Macintosh; Intel Mac OS X 10_15_7) AppleWebKit/537.36 (KHTML, like Gecko) Chrome/135.0.0.0 Safari/537.36",Macintosh,Chrome,135.0.0.0,OS X,10_15_7,https://5puzkbbxv1.cognition.run/?sona_id=56849,"it-IT,it;q=0.9,en-GB;q=0.8,en;q=0.7,ca-IT;q=0.6,ca;q=0.5,en-US;q=0.4",st1yqrrx0ltdad1,20,"[""White""]",No,Female,Italy 19 years.,I'm not sure,856256.5,NA,null,<p></p>,null,choice,tdc,trinary,repulsion_A,2,washing machines,null,null,null,null,null,null,2,NA,NA,NA,NA,NA,NA,NA,NA,NA,NA
NA,NA,NA,NA,NA,choice_trial,survey-html-form,51,642446,0.0-4.0-1.23,162,1,2025-05-04T20:14:24Z,b60275e29fe2361ab97ac0ac217840d7,"Mozilla/5.0 (Macintosh; Intel Mac OS X 10_15_7) AppleWebKit/537.36 (KHTML, like Gecko) Chrome/135.0.0.0 Safari/537.36",Macintosh,Chrome,135.0.0.0,OS X,10_15_7,https://5puzkbbxv1.cognition.run/?sona_id=56849,"it-IT,it;q=0.9,en-GB;q=0.8,en;q=0.7,ca-IT;q=0.6,ca;q=0.5,en-US;q=0.4",st1yqrrx0ltdad1,20,"[""White""]",No,Female,Italy 19 years.,I'm not sure,856256.5,NA,2456,NA,"{""product_choice"":""A""}",choice,tdc,trinary,repulsion_A,2,washing machines,null,null,null,null,null,null,2,30,40,20,100,90,100,Average lifespan,Energy savings,NA,NA
NA,NA,NA,NA,NA,choice_trial_setup,html-keyboard-response,52,642749,0.0-4.0-0.24,162,1,2025-05-04T20:14:24Z,b60275e29fe2361ab97ac0ac217840d7,"Mozilla/5.0 (Macintosh; Intel Mac OS X 10_15_7) AppleWebKit/537.36 (KHTML, like Gecko) Chrome/135.0.0.0 Safari/537.36",Macintosh,Chrome,135.0.0.0,OS X,10_15_7,https://5puzkbbxv1.cognition.run/?sona_id=56849,"it-IT,it;q=0.9,en-GB;q=0.8,en;q=0.7,ca-IT;q=0.6,ca;q=0.5,en-US;q=0.4",st1yqrrx0ltdad1,20,"[""White""]",No,Female,Italy 19 years.,I'm not sure,856256.5,NA,null,<p></p>,null,choice,ctd,trinary,repulsion_B,1,laptops,null,null,null,null,null,null,1,NA,NA,NA,NA,NA,NA,NA,NA,NA,NA
NA,NA,NA,NA,NA,choice_trial,survey-html-form,53,647914,0.0-4.0-1.24,162,1,2025-05-04T20:14:24Z,b60275e29fe2361ab97ac0ac217840d7,"Mozilla/5.0 (Macintosh; Intel Mac OS X 10_15_7) AppleWebKit/537.36 (KHTML, like Gecko) Chrome/135.0.0.0 Safari/537.36",Macintosh,Chrome,135.0.0.0,OS X,10_15_7,https://5puzkbbxv1.cognition.run/?sona_id=56849,"it-IT,it;q=0.9,en-GB;q=0.8,en;q=0.7,ca-IT;q=0.6,ca;q=0.5,en-US;q=0.4",st1yqrrx0ltdad1,20,"[""White""]",No,Female,Italy 19 years.,I'm not sure,856256.5,NA,5162,NA,"{""product_choice"":""A""}",choice,ctd,trinary,repulsion_B,1,laptops,null,null,null,null,null,null,1,90,100,80,40,30,40,Processing speed,Memory (RAM),NA,NA
NA,NA,NA,NA,NA,choice_trial_setup,html-keyboard-response,54,648217,0.0-4.0-0.25,162,1,2025-05-04T20:14:24Z,b60275e29fe2361ab97ac0ac217840d7,"Mozilla/5.0 (Macintosh; Intel Mac OS X 10_15_7) AppleWebKit/537.36 (KHTML, like Gecko) Chrome/135.0.0.0 Safari/537.36",Macintosh,Chrome,135.0.0.0,OS X,10_15_7,https://5puzkbbxv1.cognition.run/?sona_id=56849,"it-IT,it;q=0.9,en-GB;q=0.8,en;q=0.7,ca-IT;q=0.6,ca;q=0.5,en-US;q=0.4",st1yqrrx0ltdad1,20,"[""White""]",No,Female,Italy 19 years.,I'm not sure,856256.5,NA,null,<p></p>,null,choice,dct,trinary,attraction,1,televisions,null,null,null,null,null,null,2,NA,NA,NA,NA,NA,NA,NA,NA,NA,NA
NA,NA,NA,NA,NA,choice_trial,survey-html-form,55,651532,0.0-4.0-1.25,162,1,2025-05-04T20:14:24Z,b60275e29fe2361ab97ac0ac217840d7,"Mozilla/5.0 (Macintosh; Intel Mac OS X 10_15_7) AppleWebKit/537.36 (KHTML, like Gecko) Chrome/135.0.0.0 Safari/537.36",Macintosh,Chrome,135.0.0.0,OS X,10_15_7,https://5puzkbbxv1.cognition.run/?sona_id=56849,"it-IT,it;q=0.9,en-GB;q=0.8,en;q=0.7,ca-IT;q=0.6,ca;q=0.5,en-US;q=0.4",st1yqrrx0ltdad1,20,"[""White""]",No,Female,Italy 19 years.,I'm not sure,856256.5,NA,3311,NA,"{""product_choice"":""B""}",choice,dct,trinary,attraction,1,televisions,null,null,null,null,null,null,2,60,50,60,50,60,40,Screen size,Average lifespan,NA,NA
NA,NA,NA,NA,NA,choice_trial_setup,html-keyboard-response,56,651835,0.0-4.0-0.26,162,1,2025-05-04T20:14:24Z,b60275e29fe2361ab97ac0ac217840d7,"Mozilla/5.0 (Macintosh; Intel Mac OS X 10_15_7) AppleWebKit/537.36 (KHTML, like Gecko) Chrome/135.0.0.0 Safari/537.36",Macintosh,Chrome,135.0.0.0,OS X,10_15_7,https://5puzkbbxv1.cognition.run/?sona_id=56849,"it-IT,it;q=0.9,en-GB;q=0.8,en;q=0.7,ca-IT;q=0.6,ca;q=0.5,en-US;q=0.4",st1yqrrx0ltdad1,20,"[""White""]",No,Female,Italy 19 years.,I'm not sure,856256.5,NA,null,<p></p>,null,choice,bw,binary,catch,null,televisions,70,70,50,25,null,null,1,NA,NA,NA,NA,NA,NA,NA,NA,NA,NA
NA,NA,NA,NA,NA,choice_trial,survey-html-form,57,653800,0.0-4.0-1.26,162,1,2025-05-04T20:14:24Z,b60275e29fe2361ab97ac0ac217840d7,"Mozilla/5.0 (Macintosh; Intel Mac OS X 10_15_7) AppleWebKit/537.36 (KHTML, like Gecko) Chrome/135.0.0.0 Safari/537.36",Macintosh,Chrome,135.0.0.0,OS X,10_15_7,https://5puzkbbxv1.cognition.run/?sona_id=56849,"it-IT,it;q=0.9,en-GB;q=0.8,en;q=0.7,ca-IT;q=0.6,ca;q=0.5,en-US;q=0.4",st1yqrrx0ltdad1,20,"[""White""]",No,Female,Italy 19 years.,I'm not sure,856256.5,NA,1960,NA,"{""product_choice"":""A""}",choice,bw,binary,catch,null,televisions,70,70,50,25,null,null,1,null,null,null,null,null,null,Screen size,Average lifespan,NA,NA
NA,NA,NA,NA,NA,choice_trial_setup,html-keyboard-response,58,654103,0.0-4.0-0.27,162,1,2025-05-04T20:14:24Z,b60275e29fe2361ab97ac0ac217840d7,"Mozilla/5.0 (Macintosh; Intel Mac OS X 10_15_7) AppleWebKit/537.36 (KHTML, like Gecko) Chrome/135.0.0.0 Safari/537.36",Macintosh,Chrome,135.0.0.0,OS X,10_15_7,https://5puzkbbxv1.cognition.run/?sona_id=56849,"it-IT,it;q=0.9,en-GB;q=0.8,en;q=0.7,ca-IT;q=0.6,ca;q=0.5,en-US;q=0.4",st1yqrrx0ltdad1,20,"[""White""]",No,Female,Italy 19 years.,I'm not sure,856256.5,NA,null,<p></p>,null,choice,tcd,trinary,repulsion_A,2,microwave ovens,null,null,null,null,null,null,2,NA,NA,NA,NA,NA,NA,NA,NA,NA,NA
NA,NA,NA,NA,NA,choice_trial,survey-html-form,59,657938,0.0-4.0-1.27,162,1,2025-05-04T20:14:24Z,b60275e29fe2361ab97ac0ac217840d7,"Mozilla/5.0 (Macintosh; Intel Mac OS X 10_15_7) AppleWebKit/537.36 (KHTML, like Gecko) Chrome/135.0.0.0 Safari/537.36",Macintosh,Chrome,135.0.0.0,OS X,10_15_7,https://5puzkbbxv1.cognition.run/?sona_id=56849,"it-IT,it;q=0.9,en-GB;q=0.8,en;q=0.7,ca-IT;q=0.6,ca;q=0.5,en-US;q=0.4",st1yqrrx0ltdad1,20,"[""White""]",No,Female,Italy 19 years.,I'm not sure,856256.5,NA,3831,NA,"{""product_choice"":""A""}",choice,tcd,trinary,repulsion_A,2,microwave ovens,null,null,null,null,null,null,2,30,40,20,100,90,100,Warranty,Cooking power,NA,NA
NA,NA,NA,NA,NA,choice_trial_setup,html-keyboard-response,60,658243,0.0-4.0-0.28,162,1,2025-05-04T20:14:24Z,b60275e29fe2361ab97ac0ac217840d7,"Mozilla/5.0 (Macintosh; Intel Mac OS X 10_15_7) AppleWebKit/537.36 (KHTML, like Gecko) Chrome/135.0.0.0 Safari/537.36",Macintosh,Chrome,135.0.0.0,OS X,10_15_7,https://5puzkbbxv1.cognition.run/?sona_id=56849,"it-IT,it;q=0.9,en-GB;q=0.8,en;q=0.7,ca-IT;q=0.6,ca;q=0.5,en-US;q=0.4",st1yqrrx0ltdad1,20,"[""White""]",No,Female,Italy 19 years.,I'm not sure,856256.5,NA,null,<p></p>,null,choice,tdc,trinary,attraction,1,microwave ovens,null,null,null,null,null,null,2,NA,NA,NA,NA,NA,NA,NA,NA,NA,NA
NA,NA,NA,NA,NA,choice_trial,survey-html-form,61,661853,0.0-4.0-1.28,162,1,2025-05-04T20:14:24Z,b60275e29fe2361ab97ac0ac217840d7,"Mozilla/5.0 (Macintosh; Intel Mac OS X 10_15_7) AppleWebKit/537.36 (KHTML, like Gecko) Chrome/135.0.0.0 Safari/537.36",Macintosh,Chrome,135.0.0.0,OS X,10_15_7,https://5puzkbbxv1.cognition.run/?sona_id=56849,"it-IT,it;q=0.9,en-GB;q=0.8,en;q=0.7,ca-IT;q=0.6,ca;q=0.5,en-US;q=0.4",st1yqrrx0ltdad1,20,"[""White""]",No,Female,Italy 19 years.,I'm not sure,856256.5,NA,3605,NA,"{""product_choice"":""C""}",choice,tdc,trinary,attraction,1,microwave ovens,null,null,null,null,null,null,2,60,50,60,50,60,40,Warranty,Cooking power,NA,NA
NA,NA,NA,NA,NA,choice_trial_setup,html-keyboard-response,62,662156,0.0-4.0-0.29,162,1,2025-05-04T20:14:24Z,b60275e29fe2361ab97ac0ac217840d7,"Mozilla/5.0 (Macintosh; Intel Mac OS X 10_15_7) AppleWebKit/537.36 (KHTML, like Gecko) Chrome/135.0.0.0 Safari/537.36",Macintosh,Chrome,135.0.0.0,OS X,10_15_7,https://5puzkbbxv1.cognition.run/?sona_id=56849,"it-IT,it;q=0.9,en-GB;q=0.8,en;q=0.7,ca-IT;q=0.6,ca;q=0.5,en-US;q=0.4",st1yqrrx0ltdad1,20,"[""White""]",No,Female,Italy 19 years.,I'm not sure,856256.5,NA,null,<p></p>,null,choice,tdc,trinary,repulsion_A,1,televisions,null,null,null,null,null,null,2,NA,NA,NA,NA,NA,NA,NA,NA,NA,NA
NA,NA,NA,NA,NA,choice_trial,survey-html-form,63,668321,0.0-4.0-1.29,162,1,2025-05-04T20:14:24Z,b60275e29fe2361ab97ac0ac217840d7,"Mozilla/5.0 (Macintosh; Intel Mac OS X 10_15_7) AppleWebKit/537.36 (KHTML, like Gecko) Chrome/135.0.0.0 Safari/537.36",Macintosh,Chrome,135.0.0.0,OS X,10_15_7,https://5puzkbbxv1.cognition.run/?sona_id=56849,"it-IT,it;q=0.9,en-GB;q=0.8,en;q=0.7,ca-IT;q=0.6,ca;q=0.5,en-US;q=0.4",st1yqrrx0ltdad1,20,"[""White""]",No,Female,Italy 19 years.,I'm not sure,856256.5,NA,6160,NA,"{""product_choice"":""C""}",choice,tdc,trinary,repulsion_A,1,televisions,null,null,null,null,null,null,2,100,90,100,30,40,20,Screen size,Average lifespan,NA,NA
NA,NA,NA,NA,NA,choice_trial_setup,html-keyboard-response,64,668624,0.0-4.0-0.30,162,1,2025-05-04T20:14:24Z,b60275e29fe2361ab97ac0ac217840d7,"Mozilla/5.0 (Macintosh; Intel Mac OS X 10_15_7) AppleWebKit/537.36 (KHTML, like Gecko) Chrome/135.0.0.0 Safari/537.36",Macintosh,Chrome,135.0.0.0,OS X,10_15_7,https://5puzkbbxv1.cognition.run/?sona_id=56849,"it-IT,it;q=0.9,en-GB;q=0.8,en;q=0.7,ca-IT;q=0.6,ca;q=0.5,en-US;q=0.4",st1yqrrx0ltdad1,20,"[""White""]",No,Female,Italy 19 years.,I'm not sure,856256.5,NA,null,<p></p>,null,choice,ct,binary,repulsion,2,laptops,null,null,null,null,null,null,1,NA,NA,NA,NA,NA,NA,NA,NA,NA,NA
NA,NA,NA,NA,NA,choice_trial,survey-html-form,65,671389,0.0-4.0-1.30,162,1,2025-05-04T20:14:24Z,b60275e29fe2361ab97ac0ac217840d7,"Mozilla/5.0 (Macintosh; Intel Mac OS X 10_15_7) AppleWebKit/537.36 (KHTML, like Gecko) Chrome/135.0.0.0 Safari/537.36",Macintosh,Chrome,135.0.0.0,OS X,10_15_7,https://5puzkbbxv1.cognition.run/?sona_id=56849,"it-IT,it;q=0.9,en-GB;q=0.8,en;q=0.7,ca-IT;q=0.6,ca;q=0.5,en-US;q=0.4",st1yqrrx0ltdad1,20,"[""White""]",No,Female,Italy 19 years.,I'm not sure,856256.5,NA,2761,NA,"{""product_choice"":""A""}",choice,ct,binary,repulsion,2,laptops,null,null,null,null,null,null,1,30,40,null,100,90,null,Processing speed,Memory (RAM),NA,NA
NA,NA,NA,NA,NA,choice_trial_setup,html-keyboard-response,66,671692,0.0-4.0-0.31,162,1,2025-05-04T20:14:24Z,b60275e29fe2361ab97ac0ac217840d7,"Mozilla/5.0 (Macintosh; Intel Mac OS X 10_15_7) AppleWebKit/537.36 (KHTML, like Gecko) Chrome/135.0.0.0 Safari/537.36",Macintosh,Chrome,135.0.0.0,OS X,10_15_7,https://5puzkbbxv1.cognition.run/?sona_id=56849,"it-IT,it;q=0.9,en-GB;q=0.8,en;q=0.7,ca-IT;q=0.6,ca;q=0.5,en-US;q=0.4",st1yqrrx0ltdad1,20,"[""White""]",No,Female,Italy 19 years.,I'm not sure,856256.5,NA,null,<p></p>,null,choice,ctd,trinary,repulsion_B,2,laptops,null,null,null,null,null,null,1,NA,NA,NA,NA,NA,NA,NA,NA,NA,NA
NA,NA,NA,NA,NA,choice_trial,survey-html-form,67,677542,0.0-4.0-1.31,162,1,2025-05-04T20:14:24Z,b60275e29fe2361ab97ac0ac217840d7,"Mozilla/5.0 (Macintosh; Intel Mac OS X 10_15_7) AppleWebKit/537.36 (KHTML, like Gecko) Chrome/135.0.0.0 Safari/537.36",Macintosh,Chrome,135.0.0.0,OS X,10_15_7,https://5puzkbbxv1.cognition.run/?sona_id=56849,"it-IT,it;q=0.9,en-GB;q=0.8,en;q=0.7,ca-IT;q=0.6,ca;q=0.5,en-US;q=0.4",st1yqrrx0ltdad1,20,"[""White""]",No,Female,Italy 19 years.,I'm not sure,856256.5,NA,5845,NA,"{""product_choice"":""B""}",choice,ctd,trinary,repulsion_B,2,laptops,null,null,null,null,null,null,1,40,30,40,90,100,80,Processing speed,Memory (RAM),NA,NA
NA,NA,NA,NA,NA,choice_trial_setup,html-keyboard-response,68,677846,0.0-4.0-0.32,162,1,2025-05-04T20:14:24Z,b60275e29fe2361ab97ac0ac217840d7,"Mozilla/5.0 (Macintosh; Intel Mac OS X 10_15_7) AppleWebKit/537.36 (KHTML, like Gecko) Chrome/135.0.0.0 Safari/537.36",Macintosh,Chrome,135.0.0.0,OS X,10_15_7,https://5puzkbbxv1.cognition.run/?sona_id=56849,"it-IT,it;q=0.9,en-GB;q=0.8,en;q=0.7,ca-IT;q=0.6,ca;q=0.5,en-US;q=0.4",st1yqrrx0ltdad1,20,"[""White""]",No,Female,Italy 19 years.,I'm not sure,856256.5,NA,null,<p></p>,null,choice,tdc,trinary,repulsion_B,2,televisions,null,null,null,null,null,null,2,NA,NA,NA,NA,NA,NA,NA,NA,NA,NA
NA,NA,NA,NA,NA,choice_trial,survey-html-form,69,681170,0.0-4.0-1.32,162,1,2025-05-04T20:14:24Z,b60275e29fe2361ab97ac0ac217840d7,"Mozilla/5.0 (Macintosh; Intel Mac OS X 10_15_7) AppleWebKit/537.36 (KHTML, like Gecko) Chrome/135.0.0.0 Safari/537.36",Macintosh,Chrome,135.0.0.0,OS X,10_15_7,https://5puzkbbxv1.cognition.run/?sona_id=56849,"it-IT,it;q=0.9,en-GB;q=0.8,en;q=0.7,ca-IT;q=0.6,ca;q=0.5,en-US;q=0.4",st1yqrrx0ltdad1,20,"[""White""]",No,Female,Italy 19 years.,I'm not sure,856256.5,NA,3320,NA,"{""product_choice"":""A""}",choice,tdc,trinary,repulsion_B,2,televisions,null,null,null,null,null,null,2,40,30,40,90,100,80,Screen size,Average lifespan,NA,NA
NA,NA,NA,NA,NA,choice_trial_setup,html-keyboard-response,70,681473,0.0-4.0-0.33,162,1,2025-05-04T20:14:24Z,b60275e29fe2361ab97ac0ac217840d7,"Mozilla/5.0 (Macintosh; Intel Mac OS X 10_15_7) AppleWebKit/537.36 (KHTML, like Gecko) Chrome/135.0.0.0 Safari/537.36",Macintosh,Chrome,135.0.0.0,OS X,10_15_7,https://5puzkbbxv1.cognition.run/?sona_id=56849,"it-IT,it;q=0.9,en-GB;q=0.8,en;q=0.7,ca-IT;q=0.6,ca;q=0.5,en-US;q=0.4",st1yqrrx0ltdad1,20,"[""White""]",No,Female,Italy 19 years.,I'm not sure,856256.5,NA,null,<p></p>,null,choice,tc,binary,attraction,NA,washing machines,null,null,null,null,null,null,2,NA,NA,NA,NA,NA,NA,NA,NA,NA,NA
NA,NA,NA,NA,NA,choice_trial,survey-html-form,71,685099,0.0-4.0-1.33,162,1,2025-05-04T20:14:24Z,b60275e29fe2361ab97ac0ac217840d7,"Mozilla/5.0 (Macintosh; Intel Mac OS X 10_15_7) AppleWebKit/537.36 (KHTML, like Gecko) Chrome/135.0.0.0 Safari/537.36",Macintosh,Chrome,135.0.0.0,OS X,10_15_7,https://5puzkbbxv1.cognition.run/?sona_id=56849,"it-IT,it;q=0.9,en-GB;q=0.8,en;q=0.7,ca-IT;q=0.6,ca;q=0.5,en-US;q=0.4",st1yqrrx0ltdad1,20,"[""White""]",No,Female,Italy 19 years.,I'm not sure,856256.5,NA,3622,NA,"{""product_choice"":""A""}",choice,tc,binary,attraction,NA,washing machines,null,null,null,null,null,null,2,60,50,null,50,60,null,Average lifespan,Energy savings,NA,NA
NA,NA,NA,NA,NA,choice_trial_setup,html-keyboard-response,72,685403,0.0-4.0-0.34,162,1,2025-05-04T20:14:24Z,b60275e29fe2361ab97ac0ac217840d7,"Mozilla/5.0 (Macintosh; Intel Mac OS X 10_15_7) AppleWebKit/537.36 (KHTML, like Gecko) Chrome/135.0.0.0 Safari/537.36",Macintosh,Chrome,135.0.0.0,OS X,10_15_7,https://5puzkbbxv1.cognition.run/?sona_id=56849,"it-IT,it;q=0.9,en-GB;q=0.8,en;q=0.7,ca-IT;q=0.6,ca;q=0.5,en-US;q=0.4",st1yqrrx0ltdad1,20,"[""White""]",No,Female,Italy 19 years.,I'm not sure,856256.5,NA,null,<p></p>,null,choice,tcd,trinary,repulsion_B,2,microwave ovens,null,null,null,null,null,null,2,NA,NA,NA,NA,NA,NA,NA,NA,NA,NA
NA,NA,NA,NA,NA,choice_trial,survey-html-form,73,690255,0.0-4.0-1.34,162,1,2025-05-04T20:14:24Z,b60275e29fe2361ab97ac0ac217840d7,"Mozilla/5.0 (Macintosh; Intel Mac OS X 10_15_7) AppleWebKit/537.36 (KHTML, like Gecko) Chrome/135.0.0.0 Safari/537.36",Macintosh,Chrome,135.0.0.0,OS X,10_15_7,https://5puzkbbxv1.cognition.run/?sona_id=56849,"it-IT,it;q=0.9,en-GB;q=0.8,en;q=0.7,ca-IT;q=0.6,ca;q=0.5,en-US;q=0.4",st1yqrrx0ltdad1,20,"[""White""]",No,Female,Italy 19 years.,I'm not sure,856256.5,NA,4848,NA,"{""product_choice"":""A""}",choice,tcd,trinary,repulsion_B,2,microwave ovens,null,null,null,null,null,null,2,40,30,40,90,100,80,Warranty,Cooking power,NA,NA
NA,NA,NA,NA,NA,choice_trial_setup,html-keyboard-response,74,690559,0.0-4.0-0.35,162,1,2025-05-04T20:14:24Z,b60275e29fe2361ab97ac0ac217840d7,"Mozilla/5.0 (Macintosh; Intel Mac OS X 10_15_7) AppleWebKit/537.36 (KHTML, like Gecko) Chrome/135.0.0.0 Safari/537.36",Macintosh,Chrome,135.0.0.0,OS X,10_15_7,https://5puzkbbxv1.cognition.run/?sona_id=56849,"it-IT,it;q=0.9,en-GB;q=0.8,en;q=0.7,ca-IT;q=0.6,ca;q=0.5,en-US;q=0.4",st1yqrrx0ltdad1,20,"[""White""]",No,Female,Italy 19 years.,I'm not sure,856256.5,NA,null,<p></p>,null,choice,bw,binary,catch,null,washing machines,95,50,30,5,null,null,1,NA,NA,NA,NA,NA,NA,NA,NA,NA,NA
NA,NA,NA,NA,NA,choice_trial,survey-html-form,75,693869,0.0-4.0-1.35,162,1,2025-05-04T20:14:24Z,b60275e29fe2361ab97ac0ac217840d7,"Mozilla/5.0 (Macintosh; Intel Mac OS X 10_15_7) AppleWebKit/537.36 (KHTML, like Gecko) Chrome/135.0.0.0 Safari/537.36",Macintosh,Chrome,135.0.0.0,OS X,10_15_7,https://5puzkbbxv1.cognition.run/?sona_id=56849,"it-IT,it;q=0.9,en-GB;q=0.8,en;q=0.7,ca-IT;q=0.6,ca;q=0.5,en-US;q=0.4",st1yqrrx0ltdad1,20,"[""White""]",No,Female,Italy 19 years.,I'm not sure,856256.5,NA,3306,NA,"{""product_choice"":""A""}",choice,bw,binary,catch,null,washing machines,95,50,30,5,null,null,1,null,null,null,null,null,null,Average lifespan,Energy savings,NA,NA
NA,NA,NA,NA,NA,choice_trial_setup,html-keyboard-response,76,694173,0.0-4.0-0.36,162,1,2025-05-04T20:14:24Z,b60275e29fe2361ab97ac0ac217840d7,"Mozilla/5.0 (Macintosh; Intel Mac OS X 10_15_7) AppleWebKit/537.36 (KHTML, like Gecko) Chrome/135.0.0.0 Safari/537.36",Macintosh,Chrome,135.0.0.0,OS X,10_15_7,https://5puzkbbxv1.cognition.run/?sona_id=56849,"it-IT,it;q=0.9,en-GB;q=0.8,en;q=0.7,ca-IT;q=0.6,ca;q=0.5,en-US;q=0.4",st1yqrrx0ltdad1,20,"[""White""]",No,Female,Italy 19 years.,I'm not sure,856256.5,NA,null,<p></p>,null,choice,wbw,trinary,catch,null,microwave ovens,60,65,10,5,10,5,1,NA,NA,NA,NA,NA,NA,NA,NA,NA,NA
NA,NA,NA,NA,NA,choice_trial,survey-html-form,77,696663,0.0-4.0-1.36,162,1,2025-05-04T20:14:24Z,b60275e29fe2361ab97ac0ac217840d7,"Mozilla/5.0 (Macintosh; Intel Mac OS X 10_15_7) AppleWebKit/537.36 (KHTML, like Gecko) Chrome/135.0.0.0 Safari/537.36",Macintosh,Chrome,135.0.0.0,OS X,10_15_7,https://5puzkbbxv1.cognition.run/?sona_id=56849,"it-IT,it;q=0.9,en-GB;q=0.8,en;q=0.7,ca-IT;q=0.6,ca;q=0.5,en-US;q=0.4",st1yqrrx0ltdad1,20,"[""White""]",No,Female,Italy 19 years.,I'm not sure,856256.5,NA,2487,NA,"{""product_choice"":""B""}",choice,wbw,trinary,catch,null,microwave ovens,60,65,10,5,10,5,1,null,null,null,null,null,null,Warranty,Cooking power,NA,NA
NA,NA,NA,NA,NA,choice_trial_setup,html-keyboard-response,78,696967,0.0-4.0-0.37,162,1,2025-05-04T20:14:24Z,b60275e29fe2361ab97ac0ac217840d7,"Mozilla/5.0 (Macintosh; Intel Mac OS X 10_15_7) AppleWebKit/537.36 (KHTML, like Gecko) Chrome/135.0.0.0 Safari/537.36",Macintosh,Chrome,135.0.0.0,OS X,10_15_7,https://5puzkbbxv1.cognition.run/?sona_id=56849,"it-IT,it;q=0.9,en-GB;q=0.8,en;q=0.7,ca-IT;q=0.6,ca;q=0.5,en-US;q=0.4",st1yqrrx0ltdad1,20,"[""White""]",No,Female,Italy 19 years.,I'm not sure,856256.5,NA,null,<p></p>,null,choice,dtc,trinary,repulsion_B,1,microwave ovens,null,null,null,null,null,null,1,NA,NA,NA,NA,NA,NA,NA,NA,NA,NA
NA,NA,NA,NA,NA,choice_trial,survey-html-form,79,703355,0.0-4.0-1.37,162,1,2025-05-04T20:14:24Z,b60275e29fe2361ab97ac0ac217840d7,"Mozilla/5.0 (Macintosh; Intel Mac OS X 10_15_7) AppleWebKit/537.36 (KHTML, like Gecko) Chrome/135.0.0.0 Safari/537.36",Macintosh,Chrome,135.0.0.0,OS X,10_15_7,https://5puzkbbxv1.cognition.run/?sona_id=56849,"it-IT,it;q=0.9,en-GB;q=0.8,en;q=0.7,ca-IT;q=0.6,ca;q=0.5,en-US;q=0.4",st1yqrrx0ltdad1,20,"[""White""]",No,Female,Italy 19 years.,I'm not sure,856256.5,NA,6384,NA,"{""product_choice"":""B""}",choice,dtc,trinary,repulsion_B,1,microwave ovens,null,null,null,null,null,null,1,90,100,80,40,30,40,Warranty,Cooking power,NA,NA
NA,NA,NA,NA,NA,choice_trial_setup,html-keyboard-response,80,703659,0.0-4.0-0.38,162,1,2025-05-04T20:14:24Z,b60275e29fe2361ab97ac0ac217840d7,"Mozilla/5.0 (Macintosh; Intel Mac OS X 10_15_7) AppleWebKit/537.36 (KHTML, like Gecko) Chrome/135.0.0.0 Safari/537.36",Macintosh,Chrome,135.0.0.0,OS X,10_15_7,https://5puzkbbxv1.cognition.run/?sona_id=56849,"it-IT,it;q=0.9,en-GB;q=0.8,en;q=0.7,ca-IT;q=0.6,ca;q=0.5,en-US;q=0.4",st1yqrrx0ltdad1,20,"[""White""]",No,Female,Italy 19 years.,I'm not sure,856256.5,NA,null,<p></p>,null,choice,dct,trinary,attraction,1,laptops,null,null,null,null,null,null,1,NA,NA,NA,NA,NA,NA,NA,NA,NA,NA
NA,NA,NA,NA,NA,choice_trial,survey-html-form,81,711441,0.0-4.0-1.38,162,1,2025-05-04T20:14:24Z,b60275e29fe2361ab97ac0ac217840d7,"Mozilla/5.0 (Macintosh; Intel Mac OS X 10_15_7) AppleWebKit/537.36 (KHTML, like Gecko) Chrome/135.0.0.0 Safari/537.36",Macintosh,Chrome,135.0.0.0,OS X,10_15_7,https://5puzkbbxv1.cognition.run/?sona_id=56849,"it-IT,it;q=0.9,en-GB;q=0.8,en;q=0.7,ca-IT;q=0.6,ca;q=0.5,en-US;q=0.4",st1yqrrx0ltdad1,20,"[""White""]",No,Female,Italy 19 years.,I'm not sure,856256.5,NA,7778,NA,"{""product_choice"":""C""}",choice,dct,trinary,attraction,1,laptops,null,null,null,null,null,null,1,60,50,60,50,60,40,Processing speed,Memory (RAM),NA,NA
NA,NA,NA,NA,NA,choice_trial_setup,html-keyboard-response,82,711745,0.0-4.0-0.39,162,1,2025-05-04T20:14:24Z,b60275e29fe2361ab97ac0ac217840d7,"Mozilla/5.0 (Macintosh; Intel Mac OS X 10_15_7) AppleWebKit/537.36 (KHTML, like Gecko) Chrome/135.0.0.0 Safari/537.36",Macintosh,Chrome,135.0.0.0,OS X,10_15_7,https://5puzkbbxv1.cognition.run/?sona_id=56849,"it-IT,it;q=0.9,en-GB;q=0.8,en;q=0.7,ca-IT;q=0.6,ca;q=0.5,en-US;q=0.4",st1yqrrx0ltdad1,20,"[""White""]",No,Female,Italy 19 years.,I'm not sure,856256.5,NA,null,<p></p>,null,choice,tc,binary,repulsion,1,washing machines,null,null,null,null,null,null,2,NA,NA,NA,NA,NA,NA,NA,NA,NA,NA
NA,NA,NA,NA,NA,choice_trial,survey-html-form,83,717040,0.0-4.0-1.39,162,1,2025-05-04T20:14:24Z,b60275e29fe2361ab97ac0ac217840d7,"Mozilla/5.0 (Macintosh; Intel Mac OS X 10_15_7) AppleWebKit/537.36 (KHTML, like Gecko) Chrome/135.0.0.0 Safari/537.36",Macintosh,Chrome,135.0.0.0,OS X,10_15_7,https://5puzkbbxv1.cognition.run/?sona_id=56849,"it-IT,it;q=0.9,en-GB;q=0.8,en;q=0.7,ca-IT;q=0.6,ca;q=0.5,en-US;q=0.4",st1yqrrx0ltdad1,20,"[""White""]",No,Female,Italy 19 years.,I'm not sure,856256.5,NA,5290,NA,"{""product_choice"":""B""}",choice,tc,binary,repulsion,1,washing machines,null,null,null,null,null,null,2,100,90,null,30,40,null,Average lifespan,Energy savings,NA,NA
NA,NA,NA,NA,NA,choice_trial_setup,html-keyboard-response,84,717343,0.0-4.0-0.40,162,1,2025-05-04T20:14:24Z,b60275e29fe2361ab97ac0ac217840d7,"Mozilla/5.0 (Macintosh; Intel Mac OS X 10_15_7) AppleWebKit/537.36 (KHTML, like Gecko) Chrome/135.0.0.0 Safari/537.36",Macintosh,Chrome,135.0.0.0,OS X,10_15_7,https://5puzkbbxv1.cognition.run/?sona_id=56849,"it-IT,it;q=0.9,en-GB;q=0.8,en;q=0.7,ca-IT;q=0.6,ca;q=0.5,en-US;q=0.4",st1yqrrx0ltdad1,20,"[""White""]",No,Female,Italy 19 years.,I'm not sure,856256.5,NA,null,<p></p>,null,choice,ct,binary,repulsion,1,laptops,null,null,null,null,null,null,1,NA,NA,NA,NA,NA,NA,NA,NA,NA,NA
NA,NA,NA,NA,NA,choice_trial,survey-html-form,85,719341,0.0-4.0-1.40,162,1,2025-05-04T20:14:24Z,b60275e29fe2361ab97ac0ac217840d7,"Mozilla/5.0 (Macintosh; Intel Mac OS X 10_15_7) AppleWebKit/537.36 (KHTML, like Gecko) Chrome/135.0.0.0 Safari/537.36",Macintosh,Chrome,135.0.0.0,OS X,10_15_7,https://5puzkbbxv1.cognition.run/?sona_id=56849,"it-IT,it;q=0.9,en-GB;q=0.8,en;q=0.7,ca-IT;q=0.6,ca;q=0.5,en-US;q=0.4",st1yqrrx0ltdad1,20,"[""White""]",No,Female,Italy 19 years.,I'm not sure,856256.5,NA,1993,NA,"{""product_choice"":""B""}",choice,ct,binary,repulsion,1,laptops,null,null,null,null,null,null,1,100,90,null,30,40,null,Processing speed,Memory (RAM),NA,NA
NA,NA,NA,NA,NA,choice_trial_setup,html-keyboard-response,86,719646,0.0-4.0-0.41,162,1,2025-05-04T20:14:24Z,b60275e29fe2361ab97ac0ac217840d7,"Mozilla/5.0 (Macintosh; Intel Mac OS X 10_15_7) AppleWebKit/537.36 (KHTML, like Gecko) Chrome/135.0.0.0 Safari/537.36",Macintosh,Chrome,135.0.0.0,OS X,10_15_7,https://5puzkbbxv1.cognition.run/?sona_id=56849,"it-IT,it;q=0.9,en-GB;q=0.8,en;q=0.7,ca-IT;q=0.6,ca;q=0.5,en-US;q=0.4",st1yqrrx0ltdad1,20,"[""White""]",No,Female,Italy 19 years.,I'm not sure,856256.5,NA,null,<p></p>,null,choice,ct,binary,repulsion,1,microwave ovens,null,null,null,null,null,null,2,NA,NA,NA,NA,NA,NA,NA,NA,NA,NA
NA,NA,NA,NA,NA,choice_trial,survey-html-form,87,724862,0.0-4.0-1.41,162,1,2025-05-04T20:14:24Z,b60275e29fe2361ab97ac0ac217840d7,"Mozilla/5.0 (Macintosh; Intel Mac OS X 10_15_7) AppleWebKit/537.36 (KHTML, like Gecko) Chrome/135.0.0.0 Safari/537.36",Macintosh,Chrome,135.0.0.0,OS X,10_15_7,https://5puzkbbxv1.cognition.run/?sona_id=56849,"it-IT,it;q=0.9,en-GB;q=0.8,en;q=0.7,ca-IT;q=0.6,ca;q=0.5,en-US;q=0.4",st1yqrrx0ltdad1,20,"[""White""]",No,Female,Italy 19 years.,I'm not sure,856256.5,NA,5210,NA,"{""product_choice"":""A""}",choice,ct,binary,repulsion,1,microwave ovens,null,null,null,null,null,null,2,100,90,null,30,40,null,Warranty,Cooking power,NA,NA
NA,NA,NA,NA,NA,choice_trial_setup,html-keyboard-response,88,725165,0.0-4.0-0.42,162,1,2025-05-04T20:14:24Z,b60275e29fe2361ab97ac0ac217840d7,"Mozilla/5.0 (Macintosh; Intel Mac OS X 10_15_7) AppleWebKit/537.36 (KHTML, like Gecko) Chrome/135.0.0.0 Safari/537.36",Macintosh,Chrome,135.0.0.0,OS X,10_15_7,https://5puzkbbxv1.cognition.run/?sona_id=56849,"it-IT,it;q=0.9,en-GB;q=0.8,en;q=0.7,ca-IT;q=0.6,ca;q=0.5,en-US;q=0.4",st1yqrrx0ltdad1,20,"[""White""]",No,Female,Italy 19 years.,I'm not sure,856256.5,NA,null,<p></p>,null,choice,bw,binary,catch,null,microwave ovens,90,80,10,50,null,null,1,NA,NA,NA,NA,NA,NA,NA,NA,NA,NA
NA,NA,NA,NA,NA,choice_trial,survey-html-form,89,728048,0.0-4.0-1.42,162,1,2025-05-04T20:14:24Z,b60275e29fe2361ab97ac0ac217840d7,"Mozilla/5.0 (Macintosh; Intel Mac OS X 10_15_7) AppleWebKit/537.36 (KHTML, like Gecko) Chrome/135.0.0.0 Safari/537.36",Macintosh,Chrome,135.0.0.0,OS X,10_15_7,https://5puzkbbxv1.cognition.run/?sona_id=56849,"it-IT,it;q=0.9,en-GB;q=0.8,en;q=0.7,ca-IT;q=0.6,ca;q=0.5,en-US;q=0.4",st1yqrrx0ltdad1,20,"[""White""]",No,Female,Italy 19 years.,I'm not sure,856256.5,NA,2877,NA,"{""product_choice"":""A""}",choice,bw,binary,catch,null,microwave ovens,90,80,10,50,null,null,1,null,null,null,null,null,null,Warranty,Cooking power,NA,NA
NA,NA,NA,NA,NA,choice_trial_setup,html-keyboard-response,90,728352,0.0-4.0-0.43,162,1,2025-05-04T20:14:24Z,b60275e29fe2361ab97ac0ac217840d7,"Mozilla/5.0 (Macintosh; Intel Mac OS X 10_15_7) AppleWebKit/537.36 (KHTML, like Gecko) Chrome/135.0.0.0 Safari/537.36",Macintosh,Chrome,135.0.0.0,OS X,10_15_7,https://5puzkbbxv1.cognition.run/?sona_id=56849,"it-IT,it;q=0.9,en-GB;q=0.8,en;q=0.7,ca-IT;q=0.6,ca;q=0.5,en-US;q=0.4",st1yqrrx0ltdad1,20,"[""White""]",No,Female,Italy 19 years.,I'm not sure,856256.5,NA,null,<p></p>,null,choice,wwb,trinary,catch,null,televisions,80,95,45,10,30,25,1,NA,NA,NA,NA,NA,NA,NA,NA,NA,NA
NA,NA,NA,NA,NA,choice_trial,survey-html-form,91,731814,0.0-4.0-1.43,162,1,2025-05-04T20:14:24Z,b60275e29fe2361ab97ac0ac217840d7,"Mozilla/5.0 (Macintosh; Intel Mac OS X 10_15_7) AppleWebKit/537.36 (KHTML, like Gecko) Chrome/135.0.0.0 Safari/537.36",Macintosh,Chrome,135.0.0.0,OS X,10_15_7,https://5puzkbbxv1.cognition.run/?sona_id=56849,"it-IT,it;q=0.9,en-GB;q=0.8,en;q=0.7,ca-IT;q=0.6,ca;q=0.5,en-US;q=0.4",st1yqrrx0ltdad1,20,"[""White""]",No,Female,Italy 19 years.,I'm not sure,856256.5,NA,3457,NA,"{""product_choice"":""C""}",choice,wwb,trinary,catch,null,televisions,80,95,45,10,30,25,1,null,null,null,null,null,null,Screen size,Average lifespan,NA,NA
NA,NA,NA,NA,NA,post_trials_message,html-button-response,92,735960,0.0-5.0,162,1,2025-05-04T20:14:24Z,b60275e29fe2361ab97ac0ac217840d7,"Mozilla/5.0 (Macintosh; Intel Mac OS X 10_15_7) AppleWebKit/537.36 (KHTML, like Gecko) Chrome/135.0.0.0 Safari/537.36",Macintosh,Chrome,135.0.0.0,OS X,10_15_7,https://5puzkbbxv1.cognition.run/?sona_id=56849,"it-IT,it;q=0.9,en-GB;q=0.8,en;q=0.7,ca-IT;q=0.6,ca;q=0.5,en-US;q=0.4",st1yqrrx0ltdad1,20,"[""White""]",No,Female,Italy 19 years.,I'm not sure,856256.5,NA,4143,<p> <b>Thank you for your patience!</b></p><p>  The study will be done after completing a brief form. </p>,0,NA,NA,NA,NA,NA,NA,NA,NA,NA,NA,NA,NA,NA,NA,NA,NA,NA,NA,NA,NA,NA,NA,NA
NA,NA,NA,NA,NA,survey_message,survey-text,93,778792,0.0-6.0,162,1,2025-05-04T20:14:24Z,b60275e29fe2361ab97ac0ac217840d7,"Mozilla/5.0 (Macintosh; Intel Mac OS X 10_15_7) AppleWebKit/537.36 (KHTML, like Gecko) Chrome/135.0.0.0 Safari/537.36",Macintosh,Chrome,135.0.0.0,OS X,10_15_7,https://5puzkbbxv1.cognition.run/?sona_id=56849,"it-IT,it;q=0.9,en-GB;q=0.8,en;q=0.7,ca-IT;q=0.6,ca;q=0.5,en-US;q=0.4",st1yqrrx0ltdad1,20,"[""White""]",No,Female,Italy 19 years.,I'm not sure,856256.5,NA,42824,NA,"{""Q0"":""I tried to consider the best deal looking at proportions between data""}",NA,NA,NA,NA,NA,NA,NA,NA,NA,NA,NA,NA,NA,NA,NA,NA,NA,NA,NA,NA,NA,I tried to consider the best deal looking at proportions between data,NA
NA,NA,NA,NA,NA,demo_age,survey-text,94,783182,0.0-7.0,162,1,2025-05-04T20:14:24Z,b60275e29fe2361ab97ac0ac217840d7,"Mozilla/5.0 (Macintosh; Intel Mac OS X 10_15_7) AppleWebKit/537.36 (KHTML, like Gecko) Chrome/135.0.0.0 Safari/537.36",Macintosh,Chrome,135.0.0.0,OS X,10_15_7,https://5puzkbbxv1.cognition.run/?sona_id=56849,"it-IT,it;q=0.9,en-GB;q=0.8,en;q=0.7,ca-IT;q=0.6,ca;q=0.5,en-US;q=0.4",st1yqrrx0ltdad1,20,"[""White""]",No,Female,Italy 19 years.,I'm not sure,856256.5,NA,4385,NA,"{""Q0"":""20""}",NA,NA,NA,NA,NA,NA,NA,NA,NA,NA,NA,NA,NA,NA,NA,NA,NA,NA,NA,NA,NA,NA,NA
NA,NA,NA,NA,NA,demo_race,survey-multi-select,95,795350,0.0-8.0,162,1,2025-05-04T20:14:24Z,b60275e29fe2361ab97ac0ac217840d7,"Mozilla/5.0 (Macintosh; Intel Mac OS X 10_15_7) AppleWebKit/537.36 (KHTML, like Gecko) Chrome/135.0.0.0 Safari/537.36",Macintosh,Chrome,135.0.0.0,OS X,10_15_7,https://5puzkbbxv1.cognition.run/?sona_id=56849,"it-IT,it;q=0.9,en-GB;q=0.8,en;q=0.7,ca-IT;q=0.6,ca;q=0.5,en-US;q=0.4",st1yqrrx0ltdad1,20,"[""White""]",No,Female,Italy 19 years.,I'm not sure,856256.5,NA,12162,NA,"{""Q0"":[""White""]}",NA,NA,NA,NA,NA,NA,NA,NA,NA,NA,NA,NA,NA,NA,NA,NA,NA,NA,NA,NA,NA,NA,[0]
NA,NA,NA,NA,NA,demo_ethnicity_gender,survey-multi-choice,96,802974,0.0-9.0,162,1,2025-05-04T20:14:24Z,b60275e29fe2361ab97ac0ac217840d7,"Mozilla/5.0 (Macintosh; Intel Mac OS X 10_15_7) AppleWebKit/537.36 (KHTML, like Gecko) Chrome/135.0.0.0 Safari/537.36",Macintosh,Chrome,135.0.0.0,OS X,10_15_7,https://5puzkbbxv1.cognition.run/?sona_id=56849,"it-IT,it;q=0.9,en-GB;q=0.8,en;q=0.7,ca-IT;q=0.6,ca;q=0.5,en-US;q=0.4",st1yqrrx0ltdad1,20,"[""White""]",No,Female,Italy 19 years.,I'm not sure,856256.5,NA,7620,NA,"{""Q0"":""No"",""Q1"":""Female""}",NA,NA,NA,NA,NA,NA,NA,NA,NA,NA,NA,NA,NA,NA,NA,NA,NA,NA,NA,NA,NA,NA,"[0,1]"
NA,NA,NA,NA,NA,demo_countries,survey-text,97,825680,0.0-10.0,162,1,2025-05-04T20:14:24Z,b60275e29fe2361ab97ac0ac217840d7,"Mozilla/5.0 (Macintosh; Intel Mac OS X 10_15_7) AppleWebKit/537.36 (KHTML, like Gecko) Chrome/135.0.0.0 Safari/537.36",Macintosh,Chrome,135.0.0.0,OS X,10_15_7,https://5puzkbbxv1.cognition.run/?sona_id=56849,"it-IT,it;q=0.9,en-GB;q=0.8,en;q=0.7,ca-IT;q=0.6,ca;q=0.5,en-US;q=0.4",st1yqrrx0ltdad1,20,"[""White""]",No,Female,Italy 19 years.,I'm not sure,856256.5,NA,22641,NA,"{""Q0"":""Italy 19 years.""}",NA,NA,NA,NA,NA,NA,NA,NA,NA,NA,NA,NA,NA,NA,NA,NA,NA,NA,NA,NA,NA,NA,NA
NA,NA,NA,NA,NA,demo_prev_study,survey-multi-choice,98,837914,0.0-11.0,162,1,2025-05-04T20:14:24Z,b60275e29fe2361ab97ac0ac217840d7,"Mozilla/5.0 (Macintosh; Intel Mac OS X 10_15_7) AppleWebKit/537.36 (KHTML, like Gecko) Chrome/135.0.0.0 Safari/537.36",Macintosh,Chrome,135.0.0.0,OS X,10_15_7,https://5puzkbbxv1.cognition.run/?sona_id=56849,"it-IT,it;q=0.9,en-GB;q=0.8,en;q=0.7,ca-IT;q=0.6,ca;q=0.5,en-US;q=0.4",st1yqrrx0ltdad1,20,"[""White""]",No,Female,Italy 19 years.,I'm not sure,856256.5,NA,12230,NA,"{""Q0"":""I'm not sure""}",NA,NA,NA,NA,NA,NA,NA,NA,NA,NA,NA,NA,NA,NA,NA,NA,NA,NA,NA,NA,NA,NA,[0]
NA,NA,NA,NA,NA,post_survey_message,html-keyboard-response,99,848460,0.0-12.0,162,1,2025-05-04T20:14:24Z,b60275e29fe2361ab97ac0ac217840d7,"Mozilla/5.0 (Macintosh; Intel Mac OS X 10_15_7) AppleWebKit/537.36 (KHTML, like Gecko) Chrome/135.0.0.0 Safari/537.36",Macintosh,Chrome,135.0.0.0,OS X,10_15_7,https://5puzkbbxv1.cognition.run/?sona_id=56849,"it-IT,it;q=0.9,en-GB;q=0.8,en;q=0.7,ca-IT;q=0.6,ca;q=0.5,en-US;q=0.4",st1yqrrx0ltdad1,20,"[""White""]",No,Female,Italy 19 years.,I'm not sure,856256.5,NA,10542,NA,j,NA,NA,NA,NA,NA,NA,NA,NA,NA,NA,NA,NA,NA,NA,NA,NA,NA,NA,NA,NA,NA,NA,NA
NA,NA,NA,NA,NA,debrief,image-keyboard-response,100,856331,0.0-13.0,162,1,2025-05-04T20:14:24Z,b60275e29fe2361ab97ac0ac217840d7,"Mozilla/5.0 (Macintosh; Intel Mac OS X 10_15_7) AppleWebKit/537.36 (KHTML, like Gecko) Chrome/135.0.0.0 Safari/537.36",Macintosh,Chrome,135.0.0.0,OS X,10_15_7,https://5puzkbbxv1.cognition.run/?sona_id=56849,"it-IT,it;q=0.9,en-GB;q=0.8,en;q=0.7,ca-IT;q=0.6,ca;q=0.5,en-US;q=0.4",st1yqrrx0ltdad1,20,"[""White""]",No,Female,Italy 19 years.,I'm not sure,856256.5,NA,7865,Judg_choice_debrief.png,p,NA,NA,NA,NA,NA,NA,NA,NA,NA,NA,NA,NA,NA,NA,NA,NA,NA,NA,NA,NA,NA,NA,NA
