success,timeout,failed_images,failed_audio,failed_video,screen_id,trial_type,trial_index,time_elapsed,internal_node_id,run_id,condition,recorded_at,source_code_version,user_agent,device,browser,browser_version,platform,platform_version,referer,accept_language,ppt_id,age,race,ethnicity,gender,other_countries,prev_study,exp_duration,view_history,rt,stimulus,response,phase,order,set,effect,t_high,category,d1_best,d2_best,d1_worst1,d2_worst1,d1_worst2,d2_worst2,first_dim,d1_t,d1_c,d1_d,d2_t,d2_c,d2_d,d1_name,d2_name,strategy_response,question_order
TRUE,FALSE,[],[],[],img preload,preload,0,428,0.0-0.0,164,1,2025-05-04T20:18:19Z,b60275e29fe2361ab97ac0ac217840d7,"Mozilla/5.0 (Windows NT 10.0; Win64; x64) AppleWebKit/537.36 (KHTML, like Gecko) Chrome/136.0.0.0 Safari/537.36 Edg/136.0.0.0",WebKit,Edge,136.0.0.0,Windows,10,https://5puzkbbxv1.cognition.run/?sona_id=58023,"en-US,en;q=0.9",79a4w5zfsd3vahv,19,"[""White""]",No,Male,N/A,No,566720.3000000007,NA,NA,NA,NA,NA,NA,NA,NA,NA,NA,NA,NA,NA,NA,NA,NA,NA,NA,NA,NA,NA,NA,NA,NA,NA,NA,NA
NA,NA,NA,NA,NA,computer_message,instructions,1,2779,0.0-1.0,164,1,2025-05-04T20:18:19Z,b60275e29fe2361ab97ac0ac217840d7,"Mozilla/5.0 (Windows NT 10.0; Win64; x64) AppleWebKit/537.36 (KHTML, like Gecko) Chrome/136.0.0.0 Safari/537.36 Edg/136.0.0.0",WebKit,Edge,136.0.0.0,Windows,10,https://5puzkbbxv1.cognition.run/?sona_id=58023,"en-US,en;q=0.9",79a4w5zfsd3vahv,19,"[""White""]",No,Male,N/A,No,566720.3000000007,"[{""page_index"":0,""viewing_time"":2350}]",2350,NA,NA,NA,NA,NA,NA,NA,NA,NA,NA,NA,NA,NA,NA,NA,NA,NA,NA,NA,NA,NA,NA,NA,NA,NA
TRUE,NA,NA,NA,NA,NA,fullscreen,2,5197,0.0-2.0,164,1,2025-05-04T20:18:19Z,b60275e29fe2361ab97ac0ac217840d7,"Mozilla/5.0 (Windows NT 10.0; Win64; x64) AppleWebKit/537.36 (KHTML, like Gecko) Chrome/136.0.0.0 Safari/537.36 Edg/136.0.0.0",WebKit,Edge,136.0.0.0,Windows,10,https://5puzkbbxv1.cognition.run/?sona_id=58023,"en-US,en;q=0.9",79a4w5zfsd3vahv,19,"[""White""]",No,Male,N/A,No,566720.3000000007,NA,1415,NA,NA,NA,NA,NA,NA,NA,NA,NA,NA,NA,NA,NA,NA,NA,NA,NA,NA,NA,NA,NA,NA,NA,NA,NA
NA,NA,NA,NA,NA,choice_instructions,instructions,3,36023,0.0-3.0,164,1,2025-05-04T20:18:19Z,b60275e29fe2361ab97ac0ac217840d7,"Mozilla/5.0 (Windows NT 10.0; Win64; x64) AppleWebKit/537.36 (KHTML, like Gecko) Chrome/136.0.0.0 Safari/537.36 Edg/136.0.0.0",WebKit,Edge,136.0.0.0,Windows,10,https://5puzkbbxv1.cognition.run/?sona_id=58023,"en-US,en;q=0.9",79a4w5zfsd3vahv,19,"[""White""]",No,Male,N/A,No,566720.3000000007,"[{""page_index"":0,""viewing_time"":1247},{""page_index"":1,""viewing_time"":2560},{""page_index"":2,""viewing_time"":7501},{""page_index"":3,""viewing_time"":3580},{""page_index"":4,""viewing_time"":1870},{""page_index"":5,""viewing_time"":10004},{""page_index"":6,""viewing_time"":4063}]",30825,NA,NA,NA,NA,NA,NA,NA,NA,NA,NA,NA,NA,NA,NA,NA,NA,NA,NA,NA,NA,NA,NA,NA,NA,NA
NA,NA,NA,NA,NA,choice_trial_setup,html-keyboard-response,4,36325,0.0-4.0-0.0,164,1,2025-05-04T20:18:19Z,b60275e29fe2361ab97ac0ac217840d7,"Mozilla/5.0 (Windows NT 10.0; Win64; x64) AppleWebKit/537.36 (KHTML, like Gecko) Chrome/136.0.0.0 Safari/537.36 Edg/136.0.0.0",WebKit,Edge,136.0.0.0,Windows,10,https://5puzkbbxv1.cognition.run/?sona_id=58023,"en-US,en;q=0.9",79a4w5zfsd3vahv,19,"[""White""]",No,Male,N/A,No,566720.3000000007,NA,null,<p></p>,null,choice,tc,binary,repulsion,2,televisions,null,null,null,null,null,null,2,NA,NA,NA,NA,NA,NA,NA,NA,NA,NA
NA,NA,NA,NA,NA,choice_trial,survey-html-form,5,44380,0.0-4.0-1.0,164,1,2025-05-04T20:18:19Z,b60275e29fe2361ab97ac0ac217840d7,"Mozilla/5.0 (Windows NT 10.0; Win64; x64) AppleWebKit/537.36 (KHTML, like Gecko) Chrome/136.0.0.0 Safari/537.36 Edg/136.0.0.0",WebKit,Edge,136.0.0.0,Windows,10,https://5puzkbbxv1.cognition.run/?sona_id=58023,"en-US,en;q=0.9",79a4w5zfsd3vahv,19,"[""White""]",No,Male,N/A,No,566720.3000000007,NA,8053,NA,"{""product_choice"":""B""}",choice,tc,binary,repulsion,2,televisions,null,null,null,null,null,null,2,30,40,null,100,90,null,Screen size,Average lifespan,NA,NA
NA,NA,NA,NA,NA,choice_trial_setup,html-keyboard-response,6,44682,0.0-4.0-0.1,164,1,2025-05-04T20:18:19Z,b60275e29fe2361ab97ac0ac217840d7,"Mozilla/5.0 (Windows NT 10.0; Win64; x64) AppleWebKit/537.36 (KHTML, like Gecko) Chrome/136.0.0.0 Safari/537.36 Edg/136.0.0.0",WebKit,Edge,136.0.0.0,Windows,10,https://5puzkbbxv1.cognition.run/?sona_id=58023,"en-US,en;q=0.9",79a4w5zfsd3vahv,19,"[""White""]",No,Male,N/A,No,566720.3000000007,NA,null,<p></p>,null,choice,dtc,trinary,attraction,1,washing machines,null,null,null,null,null,null,1,NA,NA,NA,NA,NA,NA,NA,NA,NA,NA
NA,NA,NA,NA,NA,choice_trial,survey-html-form,7,60855,0.0-4.0-1.1,164,1,2025-05-04T20:18:19Z,b60275e29fe2361ab97ac0ac217840d7,"Mozilla/5.0 (Windows NT 10.0; Win64; x64) AppleWebKit/537.36 (KHTML, like Gecko) Chrome/136.0.0.0 Safari/537.36 Edg/136.0.0.0",WebKit,Edge,136.0.0.0,Windows,10,https://5puzkbbxv1.cognition.run/?sona_id=58023,"en-US,en;q=0.9",79a4w5zfsd3vahv,19,"[""White""]",No,Male,N/A,No,566720.3000000007,NA,16172,NA,"{""product_choice"":""C""}",choice,dtc,trinary,attraction,1,washing machines,null,null,null,null,null,null,1,60,50,60,50,60,40,Average lifespan,Energy savings,NA,NA
NA,NA,NA,NA,NA,choice_trial_setup,html-keyboard-response,8,61156,0.0-4.0-0.2,164,1,2025-05-04T20:18:19Z,b60275e29fe2361ab97ac0ac217840d7,"Mozilla/5.0 (Windows NT 10.0; Win64; x64) AppleWebKit/537.36 (KHTML, like Gecko) Chrome/136.0.0.0 Safari/537.36 Edg/136.0.0.0",WebKit,Edge,136.0.0.0,Windows,10,https://5puzkbbxv1.cognition.run/?sona_id=58023,"en-US,en;q=0.9",79a4w5zfsd3vahv,19,"[""White""]",No,Male,N/A,No,566720.3000000007,NA,null,<p></p>,null,choice,dct,trinary,attraction,1,microwave ovens,null,null,null,null,null,null,2,NA,NA,NA,NA,NA,NA,NA,NA,NA,NA
NA,NA,NA,NA,NA,choice_trial,survey-html-form,9,70242,0.0-4.0-1.2,164,1,2025-05-04T20:18:19Z,b60275e29fe2361ab97ac0ac217840d7,"Mozilla/5.0 (Windows NT 10.0; Win64; x64) AppleWebKit/537.36 (KHTML, like Gecko) Chrome/136.0.0.0 Safari/537.36 Edg/136.0.0.0",WebKit,Edge,136.0.0.0,Windows,10,https://5puzkbbxv1.cognition.run/?sona_id=58023,"en-US,en;q=0.9",79a4w5zfsd3vahv,19,"[""White""]",No,Male,N/A,No,566720.3000000007,NA,9084,NA,"{""product_choice"":""B""}",choice,dct,trinary,attraction,1,microwave ovens,null,null,null,null,null,null,2,60,50,60,50,60,40,Warranty,Cooking power,NA,NA
NA,NA,NA,NA,NA,choice_trial_setup,html-keyboard-response,10,70543,0.0-4.0-0.3,164,1,2025-05-04T20:18:19Z,b60275e29fe2361ab97ac0ac217840d7,"Mozilla/5.0 (Windows NT 10.0; Win64; x64) AppleWebKit/537.36 (KHTML, like Gecko) Chrome/136.0.0.0 Safari/537.36 Edg/136.0.0.0",WebKit,Edge,136.0.0.0,Windows,10,https://5puzkbbxv1.cognition.run/?sona_id=58023,"en-US,en;q=0.9",79a4w5zfsd3vahv,19,"[""White""]",No,Male,N/A,No,566720.3000000007,NA,null,<p></p>,null,choice,bw,binary,catch,null,televisions,75,70,20,25,null,null,2,NA,NA,NA,NA,NA,NA,NA,NA,NA,NA
NA,NA,NA,NA,NA,choice_trial,survey-html-form,11,79452,0.0-4.0-1.3,164,1,2025-05-04T20:18:19Z,b60275e29fe2361ab97ac0ac217840d7,"Mozilla/5.0 (Windows NT 10.0; Win64; x64) AppleWebKit/537.36 (KHTML, like Gecko) Chrome/136.0.0.0 Safari/537.36 Edg/136.0.0.0",WebKit,Edge,136.0.0.0,Windows,10,https://5puzkbbxv1.cognition.run/?sona_id=58023,"en-US,en;q=0.9",79a4w5zfsd3vahv,19,"[""White""]",No,Male,N/A,No,566720.3000000007,NA,8907,NA,"{""product_choice"":""A""}",choice,bw,binary,catch,null,televisions,75,70,20,25,null,null,2,null,null,null,null,null,null,Screen size,Average lifespan,NA,NA
NA,NA,NA,NA,NA,choice_trial_setup,html-keyboard-response,12,79753,0.0-4.0-0.4,164,1,2025-05-04T20:18:19Z,b60275e29fe2361ab97ac0ac217840d7,"Mozilla/5.0 (Windows NT 10.0; Win64; x64) AppleWebKit/537.36 (KHTML, like Gecko) Chrome/136.0.0.0 Safari/537.36 Edg/136.0.0.0",WebKit,Edge,136.0.0.0,Windows,10,https://5puzkbbxv1.cognition.run/?sona_id=58023,"en-US,en;q=0.9",79a4w5zfsd3vahv,19,"[""White""]",No,Male,N/A,No,566720.3000000007,NA,null,<p></p>,null,choice,dct,trinary,attraction,1,laptops,null,null,null,null,null,null,2,NA,NA,NA,NA,NA,NA,NA,NA,NA,NA
NA,NA,NA,NA,NA,choice_trial,survey-html-form,13,98671,0.0-4.0-1.4,164,1,2025-05-04T20:18:19Z,b60275e29fe2361ab97ac0ac217840d7,"Mozilla/5.0 (Windows NT 10.0; Win64; x64) AppleWebKit/537.36 (KHTML, like Gecko) Chrome/136.0.0.0 Safari/537.36 Edg/136.0.0.0",WebKit,Edge,136.0.0.0,Windows,10,https://5puzkbbxv1.cognition.run/?sona_id=58023,"en-US,en;q=0.9",79a4w5zfsd3vahv,19,"[""White""]",No,Male,N/A,No,566720.3000000007,NA,18916,NA,"{""product_choice"":""C""}",choice,dct,trinary,attraction,1,laptops,null,null,null,null,null,null,2,60,50,60,50,60,40,Processing speed,Memory (RAM),NA,NA
NA,NA,NA,NA,NA,choice_trial_setup,html-keyboard-response,14,98974,0.0-4.0-0.5,164,1,2025-05-04T20:18:19Z,b60275e29fe2361ab97ac0ac217840d7,"Mozilla/5.0 (Windows NT 10.0; Win64; x64) AppleWebKit/537.36 (KHTML, like Gecko) Chrome/136.0.0.0 Safari/537.36 Edg/136.0.0.0",WebKit,Edge,136.0.0.0,Windows,10,https://5puzkbbxv1.cognition.run/?sona_id=58023,"en-US,en;q=0.9",79a4w5zfsd3vahv,19,"[""White""]",No,Male,N/A,No,566720.3000000007,NA,null,<p></p>,null,choice,ctd,trinary,repulsion_A,2,microwave ovens,null,null,null,null,null,null,2,NA,NA,NA,NA,NA,NA,NA,NA,NA,NA
NA,NA,NA,NA,NA,choice_trial,survey-html-form,15,112925,0.0-4.0-1.5,164,1,2025-05-04T20:18:19Z,b60275e29fe2361ab97ac0ac217840d7,"Mozilla/5.0 (Windows NT 10.0; Win64; x64) AppleWebKit/537.36 (KHTML, like Gecko) Chrome/136.0.0.0 Safari/537.36 Edg/136.0.0.0",WebKit,Edge,136.0.0.0,Windows,10,https://5puzkbbxv1.cognition.run/?sona_id=58023,"en-US,en;q=0.9",79a4w5zfsd3vahv,19,"[""White""]",No,Male,N/A,No,566720.3000000007,NA,13950,NA,"{""product_choice"":""A""}",choice,ctd,trinary,repulsion_A,2,microwave ovens,null,null,null,null,null,null,2,30,40,20,100,90,100,Warranty,Cooking power,NA,NA
NA,NA,NA,NA,NA,choice_trial_setup,html-keyboard-response,16,113227,0.0-4.0-0.6,164,1,2025-05-04T20:18:19Z,b60275e29fe2361ab97ac0ac217840d7,"Mozilla/5.0 (Windows NT 10.0; Win64; x64) AppleWebKit/537.36 (KHTML, like Gecko) Chrome/136.0.0.0 Safari/537.36 Edg/136.0.0.0",WebKit,Edge,136.0.0.0,Windows,10,https://5puzkbbxv1.cognition.run/?sona_id=58023,"en-US,en;q=0.9",79a4w5zfsd3vahv,19,"[""White""]",No,Male,N/A,No,566720.3000000007,NA,null,<p></p>,null,choice,wbw,trinary,catch,null,washing machines,85,55,10,25,50,45,2,NA,NA,NA,NA,NA,NA,NA,NA,NA,NA
NA,NA,NA,NA,NA,choice_trial,survey-html-form,17,121321,0.0-4.0-1.6,164,1,2025-05-04T20:18:19Z,b60275e29fe2361ab97ac0ac217840d7,"Mozilla/5.0 (Windows NT 10.0; Win64; x64) AppleWebKit/537.36 (KHTML, like Gecko) Chrome/136.0.0.0 Safari/537.36 Edg/136.0.0.0",WebKit,Edge,136.0.0.0,Windows,10,https://5puzkbbxv1.cognition.run/?sona_id=58023,"en-US,en;q=0.9",79a4w5zfsd3vahv,19,"[""White""]",No,Male,N/A,No,566720.3000000007,NA,8093,NA,"{""product_choice"":""B""}",choice,wbw,trinary,catch,null,washing machines,85,55,10,25,50,45,2,null,null,null,null,null,null,Average lifespan,Energy savings,NA,NA
NA,NA,NA,NA,NA,choice_trial_setup,html-keyboard-response,18,121622,0.0-4.0-0.7,164,1,2025-05-04T20:18:19Z,b60275e29fe2361ab97ac0ac217840d7,"Mozilla/5.0 (Windows NT 10.0; Win64; x64) AppleWebKit/537.36 (KHTML, like Gecko) Chrome/136.0.0.0 Safari/537.36 Edg/136.0.0.0",WebKit,Edge,136.0.0.0,Windows,10,https://5puzkbbxv1.cognition.run/?sona_id=58023,"en-US,en;q=0.9",79a4w5zfsd3vahv,19,"[""White""]",No,Male,N/A,No,566720.3000000007,NA,null,<p></p>,null,choice,bw,binary,catch,null,laptops,60,90,25,50,null,null,2,NA,NA,NA,NA,NA,NA,NA,NA,NA,NA
NA,NA,NA,NA,NA,choice_trial,survey-html-form,19,125104,0.0-4.0-1.7,164,1,2025-05-04T20:18:19Z,b60275e29fe2361ab97ac0ac217840d7,"Mozilla/5.0 (Windows NT 10.0; Win64; x64) AppleWebKit/537.36 (KHTML, like Gecko) Chrome/136.0.0.0 Safari/537.36 Edg/136.0.0.0",WebKit,Edge,136.0.0.0,Windows,10,https://5puzkbbxv1.cognition.run/?sona_id=58023,"en-US,en;q=0.9",79a4w5zfsd3vahv,19,"[""White""]",No,Male,N/A,No,566720.3000000007,NA,3480,NA,"{""product_choice"":""A""}",choice,bw,binary,catch,null,laptops,60,90,25,50,null,null,2,null,null,null,null,null,null,Processing speed,Memory (RAM),NA,NA
NA,NA,NA,NA,NA,choice_trial_setup,html-keyboard-response,20,125405,0.0-4.0-0.8,164,1,2025-05-04T20:18:19Z,b60275e29fe2361ab97ac0ac217840d7,"Mozilla/5.0 (Windows NT 10.0; Win64; x64) AppleWebKit/537.36 (KHTML, like Gecko) Chrome/136.0.0.0 Safari/537.36 Edg/136.0.0.0",WebKit,Edge,136.0.0.0,Windows,10,https://5puzkbbxv1.cognition.run/?sona_id=58023,"en-US,en;q=0.9",79a4w5zfsd3vahv,19,"[""White""]",No,Male,N/A,No,566720.3000000007,NA,null,<p></p>,null,choice,tc,binary,repulsion,2,microwave ovens,null,null,null,null,null,null,1,NA,NA,NA,NA,NA,NA,NA,NA,NA,NA
NA,NA,NA,NA,NA,choice_trial,survey-html-form,21,133982,0.0-4.0-1.8,164,1,2025-05-04T20:18:19Z,b60275e29fe2361ab97ac0ac217840d7,"Mozilla/5.0 (Windows NT 10.0; Win64; x64) AppleWebKit/537.36 (KHTML, like Gecko) Chrome/136.0.0.0 Safari/537.36 Edg/136.0.0.0",WebKit,Edge,136.0.0.0,Windows,10,https://5puzkbbxv1.cognition.run/?sona_id=58023,"en-US,en;q=0.9",79a4w5zfsd3vahv,19,"[""White""]",No,Male,N/A,No,566720.3000000007,NA,8575,NA,"{""product_choice"":""A""}",choice,tc,binary,repulsion,2,microwave ovens,null,null,null,null,null,null,1,30,40,null,100,90,null,Warranty,Cooking power,NA,NA
NA,NA,NA,NA,NA,choice_trial_setup,html-keyboard-response,22,134283,0.0-4.0-0.9,164,1,2025-05-04T20:18:19Z,b60275e29fe2361ab97ac0ac217840d7,"Mozilla/5.0 (Windows NT 10.0; Win64; x64) AppleWebKit/537.36 (KHTML, like Gecko) Chrome/136.0.0.0 Safari/537.36 Edg/136.0.0.0",WebKit,Edge,136.0.0.0,Windows,10,https://5puzkbbxv1.cognition.run/?sona_id=58023,"en-US,en;q=0.9",79a4w5zfsd3vahv,19,"[""White""]",No,Male,N/A,No,566720.3000000007,NA,null,<p></p>,null,choice,dct,trinary,repulsion_B,1,microwave ovens,null,null,null,null,null,null,2,NA,NA,NA,NA,NA,NA,NA,NA,NA,NA
NA,NA,NA,NA,NA,choice_trial,survey-html-form,23,141320,0.0-4.0-1.9,164,1,2025-05-04T20:18:19Z,b60275e29fe2361ab97ac0ac217840d7,"Mozilla/5.0 (Windows NT 10.0; Win64; x64) AppleWebKit/537.36 (KHTML, like Gecko) Chrome/136.0.0.0 Safari/537.36 Edg/136.0.0.0",WebKit,Edge,136.0.0.0,Windows,10,https://5puzkbbxv1.cognition.run/?sona_id=58023,"en-US,en;q=0.9",79a4w5zfsd3vahv,19,"[""White""]",No,Male,N/A,No,566720.3000000007,NA,7036,NA,"{""product_choice"":""C""}",choice,dct,trinary,repulsion_B,1,microwave ovens,null,null,null,null,null,null,2,90,100,80,40,30,40,Warranty,Cooking power,NA,NA
NA,NA,NA,NA,NA,choice_trial_setup,html-keyboard-response,24,141621,0.0-4.0-0.10,164,1,2025-05-04T20:18:19Z,b60275e29fe2361ab97ac0ac217840d7,"Mozilla/5.0 (Windows NT 10.0; Win64; x64) AppleWebKit/537.36 (KHTML, like Gecko) Chrome/136.0.0.0 Safari/537.36 Edg/136.0.0.0",WebKit,Edge,136.0.0.0,Windows,10,https://5puzkbbxv1.cognition.run/?sona_id=58023,"en-US,en;q=0.9",79a4w5zfsd3vahv,19,"[""White""]",No,Male,N/A,No,566720.3000000007,NA,null,<p></p>,null,choice,tc,binary,repulsion,1,microwave ovens,null,null,null,null,null,null,2,NA,NA,NA,NA,NA,NA,NA,NA,NA,NA
NA,NA,NA,NA,NA,choice_trial,survey-html-form,25,147730,0.0-4.0-1.10,164,1,2025-05-04T20:18:19Z,b60275e29fe2361ab97ac0ac217840d7,"Mozilla/5.0 (Windows NT 10.0; Win64; x64) AppleWebKit/537.36 (KHTML, like Gecko) Chrome/136.0.0.0 Safari/537.36 Edg/136.0.0.0",WebKit,Edge,136.0.0.0,Windows,10,https://5puzkbbxv1.cognition.run/?sona_id=58023,"en-US,en;q=0.9",79a4w5zfsd3vahv,19,"[""White""]",No,Male,N/A,No,566720.3000000007,NA,6107,NA,"{""product_choice"":""B""}",choice,tc,binary,repulsion,1,microwave ovens,null,null,null,null,null,null,2,100,90,null,30,40,null,Warranty,Cooking power,NA,NA
NA,NA,NA,NA,NA,choice_trial_setup,html-keyboard-response,26,148031,0.0-4.0-0.11,164,1,2025-05-04T20:18:19Z,b60275e29fe2361ab97ac0ac217840d7,"Mozilla/5.0 (Windows NT 10.0; Win64; x64) AppleWebKit/537.36 (KHTML, like Gecko) Chrome/136.0.0.0 Safari/537.36 Edg/136.0.0.0",WebKit,Edge,136.0.0.0,Windows,10,https://5puzkbbxv1.cognition.run/?sona_id=58023,"en-US,en;q=0.9",79a4w5zfsd3vahv,19,"[""White""]",No,Male,N/A,No,566720.3000000007,NA,null,<p></p>,null,choice,wbw,trinary,catch,null,laptops,70,50,25,25,40,20,1,NA,NA,NA,NA,NA,NA,NA,NA,NA,NA
NA,NA,NA,NA,NA,choice_trial,survey-html-form,27,153502,0.0-4.0-1.11,164,1,2025-05-04T20:18:19Z,b60275e29fe2361ab97ac0ac217840d7,"Mozilla/5.0 (Windows NT 10.0; Win64; x64) AppleWebKit/537.36 (KHTML, like Gecko) Chrome/136.0.0.0 Safari/537.36 Edg/136.0.0.0",WebKit,Edge,136.0.0.0,Windows,10,https://5puzkbbxv1.cognition.run/?sona_id=58023,"en-US,en;q=0.9",79a4w5zfsd3vahv,19,"[""White""]",No,Male,N/A,No,566720.3000000007,NA,5470,NA,"{""product_choice"":""B""}",choice,wbw,trinary,catch,null,laptops,70,50,25,25,40,20,1,null,null,null,null,null,null,Processing speed,Memory (RAM),NA,NA
NA,NA,NA,NA,NA,choice_trial_setup,html-keyboard-response,28,153804,0.0-4.0-0.12,164,1,2025-05-04T20:18:19Z,b60275e29fe2361ab97ac0ac217840d7,"Mozilla/5.0 (Windows NT 10.0; Win64; x64) AppleWebKit/537.36 (KHTML, like Gecko) Chrome/136.0.0.0 Safari/537.36 Edg/136.0.0.0",WebKit,Edge,136.0.0.0,Windows,10,https://5puzkbbxv1.cognition.run/?sona_id=58023,"en-US,en;q=0.9",79a4w5zfsd3vahv,19,"[""White""]",No,Male,N/A,No,566720.3000000007,NA,null,<p></p>,null,choice,dtc,trinary,attraction,2,washing machines,null,null,null,null,null,null,2,NA,NA,NA,NA,NA,NA,NA,NA,NA,NA
NA,NA,NA,NA,NA,choice_trial,survey-html-form,29,158338,0.0-4.0-1.12,164,1,2025-05-04T20:18:19Z,b60275e29fe2361ab97ac0ac217840d7,"Mozilla/5.0 (Windows NT 10.0; Win64; x64) AppleWebKit/537.36 (KHTML, like Gecko) Chrome/136.0.0.0 Safari/537.36 Edg/136.0.0.0",WebKit,Edge,136.0.0.0,Windows,10,https://5puzkbbxv1.cognition.run/?sona_id=58023,"en-US,en;q=0.9",79a4w5zfsd3vahv,19,"[""White""]",No,Male,N/A,No,566720.3000000007,NA,4532,NA,"{""product_choice"":""B""}",choice,dtc,trinary,attraction,2,washing machines,null,null,null,null,null,null,2,50,60,40,60,50,60,Average lifespan,Energy savings,NA,NA
NA,NA,NA,NA,NA,choice_trial_setup,html-keyboard-response,30,158639,0.0-4.0-0.13,164,1,2025-05-04T20:18:19Z,b60275e29fe2361ab97ac0ac217840d7,"Mozilla/5.0 (Windows NT 10.0; Win64; x64) AppleWebKit/537.36 (KHTML, like Gecko) Chrome/136.0.0.0 Safari/537.36 Edg/136.0.0.0",WebKit,Edge,136.0.0.0,Windows,10,https://5puzkbbxv1.cognition.run/?sona_id=58023,"en-US,en;q=0.9",79a4w5zfsd3vahv,19,"[""White""]",No,Male,N/A,No,566720.3000000007,NA,null,<p></p>,null,choice,tc,binary,attraction,NA,microwave ovens,null,null,null,null,null,null,1,NA,NA,NA,NA,NA,NA,NA,NA,NA,NA
NA,NA,NA,NA,NA,choice_trial,survey-html-form,31,161746,0.0-4.0-1.13,164,1,2025-05-04T20:18:19Z,b60275e29fe2361ab97ac0ac217840d7,"Mozilla/5.0 (Windows NT 10.0; Win64; x64) AppleWebKit/537.36 (KHTML, like Gecko) Chrome/136.0.0.0 Safari/537.36 Edg/136.0.0.0",WebKit,Edge,136.0.0.0,Windows,10,https://5puzkbbxv1.cognition.run/?sona_id=58023,"en-US,en;q=0.9",79a4w5zfsd3vahv,19,"[""White""]",No,Male,N/A,No,566720.3000000007,NA,3106,NA,"{""product_choice"":""B""}",choice,tc,binary,attraction,NA,microwave ovens,null,null,null,null,null,null,1,60,50,null,50,60,null,Warranty,Cooking power,NA,NA
NA,NA,NA,NA,NA,choice_trial_setup,html-keyboard-response,32,162049,0.0-4.0-0.14,164,1,2025-05-04T20:18:19Z,b60275e29fe2361ab97ac0ac217840d7,"Mozilla/5.0 (Windows NT 10.0; Win64; x64) AppleWebKit/537.36 (KHTML, like Gecko) Chrome/136.0.0.0 Safari/537.36 Edg/136.0.0.0",WebKit,Edge,136.0.0.0,Windows,10,https://5puzkbbxv1.cognition.run/?sona_id=58023,"en-US,en;q=0.9",79a4w5zfsd3vahv,19,"[""White""]",No,Male,N/A,No,566720.3000000007,NA,null,<p></p>,null,choice,ct,binary,repulsion,1,washing machines,null,null,null,null,null,null,2,NA,NA,NA,NA,NA,NA,NA,NA,NA,NA
NA,NA,NA,NA,NA,choice_trial,survey-html-form,33,166829,0.0-4.0-1.14,164,1,2025-05-04T20:18:19Z,b60275e29fe2361ab97ac0ac217840d7,"Mozilla/5.0 (Windows NT 10.0; Win64; x64) AppleWebKit/537.36 (KHTML, like Gecko) Chrome/136.0.0.0 Safari/537.36 Edg/136.0.0.0",WebKit,Edge,136.0.0.0,Windows,10,https://5puzkbbxv1.cognition.run/?sona_id=58023,"en-US,en;q=0.9",79a4w5zfsd3vahv,19,"[""White""]",No,Male,N/A,No,566720.3000000007,NA,4778,NA,"{""product_choice"":""A""}",choice,ct,binary,repulsion,1,washing machines,null,null,null,null,null,null,2,100,90,null,30,40,null,Average lifespan,Energy savings,NA,NA
NA,NA,NA,NA,NA,choice_trial_setup,html-keyboard-response,34,167131,0.0-4.0-0.15,164,1,2025-05-04T20:18:19Z,b60275e29fe2361ab97ac0ac217840d7,"Mozilla/5.0 (Windows NT 10.0; Win64; x64) AppleWebKit/537.36 (KHTML, like Gecko) Chrome/136.0.0.0 Safari/537.36 Edg/136.0.0.0",WebKit,Edge,136.0.0.0,Windows,10,https://5puzkbbxv1.cognition.run/?sona_id=58023,"en-US,en;q=0.9",79a4w5zfsd3vahv,19,"[""White""]",No,Male,N/A,No,566720.3000000007,NA,null,<p></p>,null,choice,tdc,trinary,repulsion_B,2,washing machines,null,null,null,null,null,null,1,NA,NA,NA,NA,NA,NA,NA,NA,NA,NA
NA,NA,NA,NA,NA,choice_trial,survey-html-form,35,179156,0.0-4.0-1.15,164,1,2025-05-04T20:18:19Z,b60275e29fe2361ab97ac0ac217840d7,"Mozilla/5.0 (Windows NT 10.0; Win64; x64) AppleWebKit/537.36 (KHTML, like Gecko) Chrome/136.0.0.0 Safari/537.36 Edg/136.0.0.0",WebKit,Edge,136.0.0.0,Windows,10,https://5puzkbbxv1.cognition.run/?sona_id=58023,"en-US,en;q=0.9",79a4w5zfsd3vahv,19,"[""White""]",No,Male,N/A,No,566720.3000000007,NA,12023,NA,"{""product_choice"":""B""}",choice,tdc,trinary,repulsion_B,2,washing machines,null,null,null,null,null,null,1,40,30,40,90,100,80,Average lifespan,Energy savings,NA,NA
NA,NA,NA,NA,NA,choice_trial_setup,html-keyboard-response,36,179458,0.0-4.0-0.16,164,1,2025-05-04T20:18:19Z,b60275e29fe2361ab97ac0ac217840d7,"Mozilla/5.0 (Windows NT 10.0; Win64; x64) AppleWebKit/537.36 (KHTML, like Gecko) Chrome/136.0.0.0 Safari/537.36 Edg/136.0.0.0",WebKit,Edge,136.0.0.0,Windows,10,https://5puzkbbxv1.cognition.run/?sona_id=58023,"en-US,en;q=0.9",79a4w5zfsd3vahv,19,"[""White""]",No,Male,N/A,No,566720.3000000007,NA,null,<p></p>,null,choice,ct,binary,repulsion,2,laptops,null,null,null,null,null,null,2,NA,NA,NA,NA,NA,NA,NA,NA,NA,NA
NA,NA,NA,NA,NA,choice_trial,survey-html-form,37,185776,0.0-4.0-1.16,164,1,2025-05-04T20:18:19Z,b60275e29fe2361ab97ac0ac217840d7,"Mozilla/5.0 (Windows NT 10.0; Win64; x64) AppleWebKit/537.36 (KHTML, like Gecko) Chrome/136.0.0.0 Safari/537.36 Edg/136.0.0.0",WebKit,Edge,136.0.0.0,Windows,10,https://5puzkbbxv1.cognition.run/?sona_id=58023,"en-US,en;q=0.9",79a4w5zfsd3vahv,19,"[""White""]",No,Male,N/A,No,566720.3000000007,NA,6316,NA,"{""product_choice"":""A""}",choice,ct,binary,repulsion,2,laptops,null,null,null,null,null,null,2,30,40,null,100,90,null,Processing speed,Memory (RAM),NA,NA
NA,NA,NA,NA,NA,choice_trial_setup,html-keyboard-response,38,186077,0.0-4.0-0.17,164,1,2025-05-04T20:18:19Z,b60275e29fe2361ab97ac0ac217840d7,"Mozilla/5.0 (Windows NT 10.0; Win64; x64) AppleWebKit/537.36 (KHTML, like Gecko) Chrome/136.0.0.0 Safari/537.36 Edg/136.0.0.0",WebKit,Edge,136.0.0.0,Windows,10,https://5puzkbbxv1.cognition.run/?sona_id=58023,"en-US,en;q=0.9",79a4w5zfsd3vahv,19,"[""White""]",No,Male,N/A,No,566720.3000000007,NA,null,<p></p>,null,choice,ct,binary,attraction,NA,televisions,null,null,null,null,null,null,2,NA,NA,NA,NA,NA,NA,NA,NA,NA,NA
NA,NA,NA,NA,NA,choice_trial,survey-html-form,39,192228,0.0-4.0-1.17,164,1,2025-05-04T20:18:19Z,b60275e29fe2361ab97ac0ac217840d7,"Mozilla/5.0 (Windows NT 10.0; Win64; x64) AppleWebKit/537.36 (KHTML, like Gecko) Chrome/136.0.0.0 Safari/537.36 Edg/136.0.0.0",WebKit,Edge,136.0.0.0,Windows,10,https://5puzkbbxv1.cognition.run/?sona_id=58023,"en-US,en;q=0.9",79a4w5zfsd3vahv,19,"[""White""]",No,Male,N/A,No,566720.3000000007,NA,6149,NA,"{""product_choice"":""B""}",choice,ct,binary,attraction,NA,televisions,null,null,null,null,null,null,2,60,50,null,50,60,null,Screen size,Average lifespan,NA,NA
NA,NA,NA,NA,NA,choice_trial_setup,html-keyboard-response,40,192529,0.0-4.0-0.18,164,1,2025-05-04T20:18:19Z,b60275e29fe2361ab97ac0ac217840d7,"Mozilla/5.0 (Windows NT 10.0; Win64; x64) AppleWebKit/537.36 (KHTML, like Gecko) Chrome/136.0.0.0 Safari/537.36 Edg/136.0.0.0",WebKit,Edge,136.0.0.0,Windows,10,https://5puzkbbxv1.cognition.run/?sona_id=58023,"en-US,en;q=0.9",79a4w5zfsd3vahv,19,"[""White""]",No,Male,N/A,No,566720.3000000007,NA,null,<p></p>,null,choice,tcd,trinary,repulsion_B,2,laptops,null,null,null,null,null,null,1,NA,NA,NA,NA,NA,NA,NA,NA,NA,NA
NA,NA,NA,NA,NA,choice_trial,survey-html-form,41,200831,0.0-4.0-1.18,164,1,2025-05-04T20:18:19Z,b60275e29fe2361ab97ac0ac217840d7,"Mozilla/5.0 (Windows NT 10.0; Win64; x64) AppleWebKit/537.36 (KHTML, like Gecko) Chrome/136.0.0.0 Safari/537.36 Edg/136.0.0.0",WebKit,Edge,136.0.0.0,Windows,10,https://5puzkbbxv1.cognition.run/?sona_id=58023,"en-US,en;q=0.9",79a4w5zfsd3vahv,19,"[""White""]",No,Male,N/A,No,566720.3000000007,NA,8300,NA,"{""product_choice"":""A""}",choice,tcd,trinary,repulsion_B,2,laptops,null,null,null,null,null,null,1,40,30,40,90,100,80,Processing speed,Memory (RAM),NA,NA
NA,NA,NA,NA,NA,choice_trial_setup,html-keyboard-response,42,201132,0.0-4.0-0.19,164,1,2025-05-04T20:18:19Z,b60275e29fe2361ab97ac0ac217840d7,"Mozilla/5.0 (Windows NT 10.0; Win64; x64) AppleWebKit/537.36 (KHTML, like Gecko) Chrome/136.0.0.0 Safari/537.36 Edg/136.0.0.0",WebKit,Edge,136.0.0.0,Windows,10,https://5puzkbbxv1.cognition.run/?sona_id=58023,"en-US,en;q=0.9",79a4w5zfsd3vahv,19,"[""White""]",No,Male,N/A,No,566720.3000000007,NA,null,<p></p>,null,choice,cdt,trinary,repulsion_A,1,microwave ovens,null,null,null,null,null,null,1,NA,NA,NA,NA,NA,NA,NA,NA,NA,NA
NA,NA,NA,NA,NA,choice_trial,survey-html-form,43,206656,0.0-4.0-1.19,164,1,2025-05-04T20:18:19Z,b60275e29fe2361ab97ac0ac217840d7,"Mozilla/5.0 (Windows NT 10.0; Win64; x64) AppleWebKit/537.36 (KHTML, like Gecko) Chrome/136.0.0.0 Safari/537.36 Edg/136.0.0.0",WebKit,Edge,136.0.0.0,Windows,10,https://5puzkbbxv1.cognition.run/?sona_id=58023,"en-US,en;q=0.9",79a4w5zfsd3vahv,19,"[""White""]",No,Male,N/A,No,566720.3000000007,NA,5522,NA,"{""product_choice"":""A""}",choice,cdt,trinary,repulsion_A,1,microwave ovens,null,null,null,null,null,null,1,100,90,100,30,40,20,Warranty,Cooking power,NA,NA
NA,NA,NA,NA,NA,choice_trial_setup,html-keyboard-response,44,206959,0.0-4.0-0.20,164,1,2025-05-04T20:18:19Z,b60275e29fe2361ab97ac0ac217840d7,"Mozilla/5.0 (Windows NT 10.0; Win64; x64) AppleWebKit/537.36 (KHTML, like Gecko) Chrome/136.0.0.0 Safari/537.36 Edg/136.0.0.0",WebKit,Edge,136.0.0.0,Windows,10,https://5puzkbbxv1.cognition.run/?sona_id=58023,"en-US,en;q=0.9",79a4w5zfsd3vahv,19,"[""White""]",No,Male,N/A,No,566720.3000000007,NA,null,<p></p>,null,choice,tcd,trinary,repulsion_A,2,televisions,null,null,null,null,null,null,1,NA,NA,NA,NA,NA,NA,NA,NA,NA,NA
NA,NA,NA,NA,NA,choice_trial,survey-html-form,45,214502,0.0-4.0-1.20,164,1,2025-05-04T20:18:19Z,b60275e29fe2361ab97ac0ac217840d7,"Mozilla/5.0 (Windows NT 10.0; Win64; x64) AppleWebKit/537.36 (KHTML, like Gecko) Chrome/136.0.0.0 Safari/537.36 Edg/136.0.0.0",WebKit,Edge,136.0.0.0,Windows,10,https://5puzkbbxv1.cognition.run/?sona_id=58023,"en-US,en;q=0.9",79a4w5zfsd3vahv,19,"[""White""]",No,Male,N/A,No,566720.3000000007,NA,7541,NA,"{""product_choice"":""B""}",choice,tcd,trinary,repulsion_A,2,televisions,null,null,null,null,null,null,1,30,40,20,100,90,100,Screen size,Average lifespan,NA,NA
NA,NA,NA,NA,NA,choice_trial_setup,html-keyboard-response,46,214804,0.0-4.0-0.21,164,1,2025-05-04T20:18:19Z,b60275e29fe2361ab97ac0ac217840d7,"Mozilla/5.0 (Windows NT 10.0; Win64; x64) AppleWebKit/537.36 (KHTML, like Gecko) Chrome/136.0.0.0 Safari/537.36 Edg/136.0.0.0",WebKit,Edge,136.0.0.0,Windows,10,https://5puzkbbxv1.cognition.run/?sona_id=58023,"en-US,en;q=0.9",79a4w5zfsd3vahv,19,"[""White""]",No,Male,N/A,No,566720.3000000007,NA,null,<p></p>,null,choice,wbw,trinary,catch,null,televisions,70,95,40,20,50,35,2,NA,NA,NA,NA,NA,NA,NA,NA,NA,NA
NA,NA,NA,NA,NA,choice_trial,survey-html-form,47,219200,0.0-4.0-1.21,164,1,2025-05-04T20:18:19Z,b60275e29fe2361ab97ac0ac217840d7,"Mozilla/5.0 (Windows NT 10.0; Win64; x64) AppleWebKit/537.36 (KHTML, like Gecko) Chrome/136.0.0.0 Safari/537.36 Edg/136.0.0.0",WebKit,Edge,136.0.0.0,Windows,10,https://5puzkbbxv1.cognition.run/?sona_id=58023,"en-US,en;q=0.9",79a4w5zfsd3vahv,19,"[""White""]",No,Male,N/A,No,566720.3000000007,NA,4394,NA,"{""product_choice"":""B""}",choice,wbw,trinary,catch,null,televisions,70,95,40,20,50,35,2,null,null,null,null,null,null,Screen size,Average lifespan,NA,NA
NA,NA,NA,NA,NA,choice_trial_setup,html-keyboard-response,48,219502,0.0-4.0-0.22,164,1,2025-05-04T20:18:19Z,b60275e29fe2361ab97ac0ac217840d7,"Mozilla/5.0 (Windows NT 10.0; Win64; x64) AppleWebKit/537.36 (KHTML, like Gecko) Chrome/136.0.0.0 Safari/537.36 Edg/136.0.0.0",WebKit,Edge,136.0.0.0,Windows,10,https://5puzkbbxv1.cognition.run/?sona_id=58023,"en-US,en;q=0.9",79a4w5zfsd3vahv,19,"[""White""]",No,Male,N/A,No,566720.3000000007,NA,null,<p></p>,null,choice,tcd,trinary,repulsion_A,2,washing machines,null,null,null,null,null,null,1,NA,NA,NA,NA,NA,NA,NA,NA,NA,NA
NA,NA,NA,NA,NA,choice_trial,survey-html-form,49,229903,0.0-4.0-1.22,164,1,2025-05-04T20:18:19Z,b60275e29fe2361ab97ac0ac217840d7,"Mozilla/5.0 (Windows NT 10.0; Win64; x64) AppleWebKit/537.36 (KHTML, like Gecko) Chrome/136.0.0.0 Safari/537.36 Edg/136.0.0.0",WebKit,Edge,136.0.0.0,Windows,10,https://5puzkbbxv1.cognition.run/?sona_id=58023,"en-US,en;q=0.9",79a4w5zfsd3vahv,19,"[""White""]",No,Male,N/A,No,566720.3000000007,NA,10400,NA,"{""product_choice"":""B""}",choice,tcd,trinary,repulsion_A,2,washing machines,null,null,null,null,null,null,1,30,40,20,100,90,100,Average lifespan,Energy savings,NA,NA
NA,NA,NA,NA,NA,choice_trial_setup,html-keyboard-response,50,230205,0.0-4.0-0.23,164,1,2025-05-04T20:18:19Z,b60275e29fe2361ab97ac0ac217840d7,"Mozilla/5.0 (Windows NT 10.0; Win64; x64) AppleWebKit/537.36 (KHTML, like Gecko) Chrome/136.0.0.0 Safari/537.36 Edg/136.0.0.0",WebKit,Edge,136.0.0.0,Windows,10,https://5puzkbbxv1.cognition.run/?sona_id=58023,"en-US,en;q=0.9",79a4w5zfsd3vahv,19,"[""White""]",No,Male,N/A,No,566720.3000000007,NA,null,<p></p>,null,choice,ctd,trinary,repulsion_B,2,microwave ovens,null,null,null,null,null,null,1,NA,NA,NA,NA,NA,NA,NA,NA,NA,NA
NA,NA,NA,NA,NA,choice_trial,survey-html-form,51,261424,0.0-4.0-1.23,164,1,2025-05-04T20:18:19Z,b60275e29fe2361ab97ac0ac217840d7,"Mozilla/5.0 (Windows NT 10.0; Win64; x64) AppleWebKit/537.36 (KHTML, like Gecko) Chrome/136.0.0.0 Safari/537.36 Edg/136.0.0.0",WebKit,Edge,136.0.0.0,Windows,10,https://5puzkbbxv1.cognition.run/?sona_id=58023,"en-US,en;q=0.9",79a4w5zfsd3vahv,19,"[""White""]",No,Male,N/A,No,566720.3000000007,NA,31217,NA,"{""product_choice"":""A""}",choice,ctd,trinary,repulsion_B,2,microwave ovens,null,null,null,null,null,null,1,40,30,40,90,100,80,Warranty,Cooking power,NA,NA
NA,NA,NA,NA,NA,choice_trial_setup,html-keyboard-response,52,261726,0.0-4.0-0.24,164,1,2025-05-04T20:18:19Z,b60275e29fe2361ab97ac0ac217840d7,"Mozilla/5.0 (Windows NT 10.0; Win64; x64) AppleWebKit/537.36 (KHTML, like Gecko) Chrome/136.0.0.0 Safari/537.36 Edg/136.0.0.0",WebKit,Edge,136.0.0.0,Windows,10,https://5puzkbbxv1.cognition.run/?sona_id=58023,"en-US,en;q=0.9",79a4w5zfsd3vahv,19,"[""White""]",No,Male,N/A,No,566720.3000000007,NA,null,<p></p>,null,choice,dct,trinary,repulsion_B,1,televisions,null,null,null,null,null,null,2,NA,NA,NA,NA,NA,NA,NA,NA,NA,NA
NA,NA,NA,NA,NA,choice_trial,survey-html-form,53,268112,0.0-4.0-1.24,164,1,2025-05-04T20:18:19Z,b60275e29fe2361ab97ac0ac217840d7,"Mozilla/5.0 (Windows NT 10.0; Win64; x64) AppleWebKit/537.36 (KHTML, like Gecko) Chrome/136.0.0.0 Safari/537.36 Edg/136.0.0.0",WebKit,Edge,136.0.0.0,Windows,10,https://5puzkbbxv1.cognition.run/?sona_id=58023,"en-US,en;q=0.9",79a4w5zfsd3vahv,19,"[""White""]",No,Male,N/A,No,566720.3000000007,NA,6384,NA,"{""product_choice"":""C""}",choice,dct,trinary,repulsion_B,1,televisions,null,null,null,null,null,null,2,90,100,80,40,30,40,Screen size,Average lifespan,NA,NA
NA,NA,NA,NA,NA,choice_trial_setup,html-keyboard-response,54,268414,0.0-4.0-0.25,164,1,2025-05-04T20:18:19Z,b60275e29fe2361ab97ac0ac217840d7,"Mozilla/5.0 (Windows NT 10.0; Win64; x64) AppleWebKit/537.36 (KHTML, like Gecko) Chrome/136.0.0.0 Safari/537.36 Edg/136.0.0.0",WebKit,Edge,136.0.0.0,Windows,10,https://5puzkbbxv1.cognition.run/?sona_id=58023,"en-US,en;q=0.9",79a4w5zfsd3vahv,19,"[""White""]",No,Male,N/A,No,566720.3000000007,NA,null,<p></p>,null,choice,wbw,trinary,catch,null,microwave ovens,50,90,40,35,40,35,2,NA,NA,NA,NA,NA,NA,NA,NA,NA,NA
NA,NA,NA,NA,NA,choice_trial,survey-html-form,55,291132,0.0-4.0-1.25,164,1,2025-05-04T20:18:19Z,b60275e29fe2361ab97ac0ac217840d7,"Mozilla/5.0 (Windows NT 10.0; Win64; x64) AppleWebKit/537.36 (KHTML, like Gecko) Chrome/136.0.0.0 Safari/537.36 Edg/136.0.0.0",WebKit,Edge,136.0.0.0,Windows,10,https://5puzkbbxv1.cognition.run/?sona_id=58023,"en-US,en;q=0.9",79a4w5zfsd3vahv,19,"[""White""]",No,Male,N/A,No,566720.3000000007,NA,22716,NA,"{""product_choice"":""B""}",choice,wbw,trinary,catch,null,microwave ovens,50,90,40,35,40,35,2,null,null,null,null,null,null,Warranty,Cooking power,NA,NA
NA,NA,NA,NA,NA,choice_trial_setup,html-keyboard-response,56,291435,0.0-4.0-0.26,164,1,2025-05-04T20:18:19Z,b60275e29fe2361ab97ac0ac217840d7,"Mozilla/5.0 (Windows NT 10.0; Win64; x64) AppleWebKit/537.36 (KHTML, like Gecko) Chrome/136.0.0.0 Safari/537.36 Edg/136.0.0.0",WebKit,Edge,136.0.0.0,Windows,10,https://5puzkbbxv1.cognition.run/?sona_id=58023,"en-US,en;q=0.9",79a4w5zfsd3vahv,19,"[""White""]",No,Male,N/A,No,566720.3000000007,NA,null,<p></p>,null,choice,dct,trinary,attraction,1,televisions,null,null,null,null,null,null,2,NA,NA,NA,NA,NA,NA,NA,NA,NA,NA
NA,NA,NA,NA,NA,choice_trial,survey-html-form,57,299122,0.0-4.0-1.26,164,1,2025-05-04T20:18:19Z,b60275e29fe2361ab97ac0ac217840d7,"Mozilla/5.0 (Windows NT 10.0; Win64; x64) AppleWebKit/537.36 (KHTML, like Gecko) Chrome/136.0.0.0 Safari/537.36 Edg/136.0.0.0",WebKit,Edge,136.0.0.0,Windows,10,https://5puzkbbxv1.cognition.run/?sona_id=58023,"en-US,en;q=0.9",79a4w5zfsd3vahv,19,"[""White""]",No,Male,N/A,No,566720.3000000007,NA,7685,NA,"{""product_choice"":""C""}",choice,dct,trinary,attraction,1,televisions,null,null,null,null,null,null,2,60,50,60,50,60,40,Screen size,Average lifespan,NA,NA
NA,NA,NA,NA,NA,choice_trial_setup,html-keyboard-response,58,299426,0.0-4.0-0.27,164,1,2025-05-04T20:18:19Z,b60275e29fe2361ab97ac0ac217840d7,"Mozilla/5.0 (Windows NT 10.0; Win64; x64) AppleWebKit/537.36 (KHTML, like Gecko) Chrome/136.0.0.0 Safari/537.36 Edg/136.0.0.0",WebKit,Edge,136.0.0.0,Windows,10,https://5puzkbbxv1.cognition.run/?sona_id=58023,"en-US,en;q=0.9",79a4w5zfsd3vahv,19,"[""White""]",No,Male,N/A,No,566720.3000000007,NA,null,<p></p>,null,choice,wb,binary,catch,null,washing machines,80,70,15,10,null,null,2,NA,NA,NA,NA,NA,NA,NA,NA,NA,NA
NA,NA,NA,NA,NA,choice_trial,survey-html-form,59,308003,0.0-4.0-1.27,164,1,2025-05-04T20:18:19Z,b60275e29fe2361ab97ac0ac217840d7,"Mozilla/5.0 (Windows NT 10.0; Win64; x64) AppleWebKit/537.36 (KHTML, like Gecko) Chrome/136.0.0.0 Safari/537.36 Edg/136.0.0.0",WebKit,Edge,136.0.0.0,Windows,10,https://5puzkbbxv1.cognition.run/?sona_id=58023,"en-US,en;q=0.9",79a4w5zfsd3vahv,19,"[""White""]",No,Male,N/A,No,566720.3000000007,NA,8575,NA,"{""product_choice"":""B""}",choice,wb,binary,catch,null,washing machines,80,70,15,10,null,null,2,null,null,null,null,null,null,Average lifespan,Energy savings,NA,NA
NA,NA,NA,NA,NA,choice_trial_setup,html-keyboard-response,60,308305,0.0-4.0-0.28,164,1,2025-05-04T20:18:19Z,b60275e29fe2361ab97ac0ac217840d7,"Mozilla/5.0 (Windows NT 10.0; Win64; x64) AppleWebKit/537.36 (KHTML, like Gecko) Chrome/136.0.0.0 Safari/537.36 Edg/136.0.0.0",WebKit,Edge,136.0.0.0,Windows,10,https://5puzkbbxv1.cognition.run/?sona_id=58023,"en-US,en;q=0.9",79a4w5zfsd3vahv,19,"[""White""]",No,Male,N/A,No,566720.3000000007,NA,null,<p></p>,null,choice,cdt,trinary,repulsion_B,1,washing machines,null,null,null,null,null,null,1,NA,NA,NA,NA,NA,NA,NA,NA,NA,NA
NA,NA,NA,NA,NA,choice_trial,survey-html-form,61,316368,0.0-4.0-1.28,164,1,2025-05-04T20:18:19Z,b60275e29fe2361ab97ac0ac217840d7,"Mozilla/5.0 (Windows NT 10.0; Win64; x64) AppleWebKit/537.36 (KHTML, like Gecko) Chrome/136.0.0.0 Safari/537.36 Edg/136.0.0.0",WebKit,Edge,136.0.0.0,Windows,10,https://5puzkbbxv1.cognition.run/?sona_id=58023,"en-US,en;q=0.9",79a4w5zfsd3vahv,19,"[""White""]",No,Male,N/A,No,566720.3000000007,NA,8061,NA,"{""product_choice"":""C""}",choice,cdt,trinary,repulsion_B,1,washing machines,null,null,null,null,null,null,1,90,100,80,40,30,40,Average lifespan,Energy savings,NA,NA
NA,NA,NA,NA,NA,choice_trial_setup,html-keyboard-response,62,316671,0.0-4.0-0.29,164,1,2025-05-04T20:18:19Z,b60275e29fe2361ab97ac0ac217840d7,"Mozilla/5.0 (Windows NT 10.0; Win64; x64) AppleWebKit/537.36 (KHTML, like Gecko) Chrome/136.0.0.0 Safari/537.36 Edg/136.0.0.0",WebKit,Edge,136.0.0.0,Windows,10,https://5puzkbbxv1.cognition.run/?sona_id=58023,"en-US,en;q=0.9",79a4w5zfsd3vahv,19,"[""White""]",No,Male,N/A,No,566720.3000000007,NA,null,<p></p>,null,choice,ctd,trinary,repulsion_B,2,televisions,null,null,null,null,null,null,1,NA,NA,NA,NA,NA,NA,NA,NA,NA,NA
NA,NA,NA,NA,NA,choice_trial,survey-html-form,63,327864,0.0-4.0-1.29,164,1,2025-05-04T20:18:19Z,b60275e29fe2361ab97ac0ac217840d7,"Mozilla/5.0 (Windows NT 10.0; Win64; x64) AppleWebKit/537.36 (KHTML, like Gecko) Chrome/136.0.0.0 Safari/537.36 Edg/136.0.0.0",WebKit,Edge,136.0.0.0,Windows,10,https://5puzkbbxv1.cognition.run/?sona_id=58023,"en-US,en;q=0.9",79a4w5zfsd3vahv,19,"[""White""]",No,Male,N/A,No,566720.3000000007,NA,11191,NA,"{""product_choice"":""B""}",choice,ctd,trinary,repulsion_B,2,televisions,null,null,null,null,null,null,1,40,30,40,90,100,80,Screen size,Average lifespan,NA,NA
NA,NA,NA,NA,NA,choice_trial_setup,html-keyboard-response,64,328166,0.0-4.0-0.30,164,1,2025-05-04T20:18:19Z,b60275e29fe2361ab97ac0ac217840d7,"Mozilla/5.0 (Windows NT 10.0; Win64; x64) AppleWebKit/537.36 (KHTML, like Gecko) Chrome/136.0.0.0 Safari/537.36 Edg/136.0.0.0",WebKit,Edge,136.0.0.0,Windows,10,https://5puzkbbxv1.cognition.run/?sona_id=58023,"en-US,en;q=0.9",79a4w5zfsd3vahv,19,"[""White""]",No,Male,N/A,No,566720.3000000007,NA,null,<p></p>,null,choice,dtc,trinary,repulsion_A,1,televisions,null,null,null,null,null,null,1,NA,NA,NA,NA,NA,NA,NA,NA,NA,NA
NA,NA,NA,NA,NA,choice_trial,survey-html-form,65,337351,0.0-4.0-1.30,164,1,2025-05-04T20:18:19Z,b60275e29fe2361ab97ac0ac217840d7,"Mozilla/5.0 (Windows NT 10.0; Win64; x64) AppleWebKit/537.36 (KHTML, like Gecko) Chrome/136.0.0.0 Safari/537.36 Edg/136.0.0.0",WebKit,Edge,136.0.0.0,Windows,10,https://5puzkbbxv1.cognition.run/?sona_id=58023,"en-US,en;q=0.9",79a4w5zfsd3vahv,19,"[""White""]",No,Male,N/A,No,566720.3000000007,NA,9183,NA,"{""product_choice"":""B""}",choice,dtc,trinary,repulsion_A,1,televisions,null,null,null,null,null,null,1,100,90,100,30,40,20,Screen size,Average lifespan,NA,NA
NA,NA,NA,NA,NA,choice_trial_setup,html-keyboard-response,66,337653,0.0-4.0-0.31,164,1,2025-05-04T20:18:19Z,b60275e29fe2361ab97ac0ac217840d7,"Mozilla/5.0 (Windows NT 10.0; Win64; x64) AppleWebKit/537.36 (KHTML, like Gecko) Chrome/136.0.0.0 Safari/537.36 Edg/136.0.0.0",WebKit,Edge,136.0.0.0,Windows,10,https://5puzkbbxv1.cognition.run/?sona_id=58023,"en-US,en;q=0.9",79a4w5zfsd3vahv,19,"[""White""]",No,Male,N/A,No,566720.3000000007,NA,null,<p></p>,null,choice,tc,binary,repulsion,2,washing machines,null,null,null,null,null,null,1,NA,NA,NA,NA,NA,NA,NA,NA,NA,NA
NA,NA,NA,NA,NA,choice_trial,survey-html-form,67,341228,0.0-4.0-1.31,164,1,2025-05-04T20:18:19Z,b60275e29fe2361ab97ac0ac217840d7,"Mozilla/5.0 (Windows NT 10.0; Win64; x64) AppleWebKit/537.36 (KHTML, like Gecko) Chrome/136.0.0.0 Safari/537.36 Edg/136.0.0.0",WebKit,Edge,136.0.0.0,Windows,10,https://5puzkbbxv1.cognition.run/?sona_id=58023,"en-US,en;q=0.9",79a4w5zfsd3vahv,19,"[""White""]",No,Male,N/A,No,566720.3000000007,NA,3573,NA,"{""product_choice"":""A""}",choice,tc,binary,repulsion,2,washing machines,null,null,null,null,null,null,1,30,40,null,100,90,null,Average lifespan,Energy savings,NA,NA
NA,NA,NA,NA,NA,choice_trial_setup,html-keyboard-response,68,341531,0.0-4.0-0.32,164,1,2025-05-04T20:18:19Z,b60275e29fe2361ab97ac0ac217840d7,"Mozilla/5.0 (Windows NT 10.0; Win64; x64) AppleWebKit/537.36 (KHTML, like Gecko) Chrome/136.0.0.0 Safari/537.36 Edg/136.0.0.0",WebKit,Edge,136.0.0.0,Windows,10,https://5puzkbbxv1.cognition.run/?sona_id=58023,"en-US,en;q=0.9",79a4w5zfsd3vahv,19,"[""White""]",No,Male,N/A,No,566720.3000000007,NA,null,<p></p>,null,choice,tc,binary,attraction,NA,washing machines,null,null,null,null,null,null,2,NA,NA,NA,NA,NA,NA,NA,NA,NA,NA
NA,NA,NA,NA,NA,choice_trial,survey-html-form,69,352735,0.0-4.0-1.32,164,1,2025-05-04T20:18:19Z,b60275e29fe2361ab97ac0ac217840d7,"Mozilla/5.0 (Windows NT 10.0; Win64; x64) AppleWebKit/537.36 (KHTML, like Gecko) Chrome/136.0.0.0 Safari/537.36 Edg/136.0.0.0",WebKit,Edge,136.0.0.0,Windows,10,https://5puzkbbxv1.cognition.run/?sona_id=58023,"en-US,en;q=0.9",79a4w5zfsd3vahv,19,"[""White""]",No,Male,N/A,No,566720.3000000007,NA,11202,NA,"{""product_choice"":""B""}",choice,tc,binary,attraction,NA,washing machines,null,null,null,null,null,null,2,60,50,null,50,60,null,Average lifespan,Energy savings,NA,NA
NA,NA,NA,NA,NA,choice_trial_setup,html-keyboard-response,70,353037,0.0-4.0-0.33,164,1,2025-05-04T20:18:19Z,b60275e29fe2361ab97ac0ac217840d7,"Mozilla/5.0 (Windows NT 10.0; Win64; x64) AppleWebKit/537.36 (KHTML, like Gecko) Chrome/136.0.0.0 Safari/537.36 Edg/136.0.0.0",WebKit,Edge,136.0.0.0,Windows,10,https://5puzkbbxv1.cognition.run/?sona_id=58023,"en-US,en;q=0.9",79a4w5zfsd3vahv,19,"[""White""]",No,Male,N/A,No,566720.3000000007,NA,null,<p></p>,null,choice,tdc,trinary,attraction,2,microwave ovens,null,null,null,null,null,null,2,NA,NA,NA,NA,NA,NA,NA,NA,NA,NA
NA,NA,NA,NA,NA,choice_trial,survey-html-form,71,359982,0.0-4.0-1.33,164,1,2025-05-04T20:18:19Z,b60275e29fe2361ab97ac0ac217840d7,"Mozilla/5.0 (Windows NT 10.0; Win64; x64) AppleWebKit/537.36 (KHTML, like Gecko) Chrome/136.0.0.0 Safari/537.36 Edg/136.0.0.0",WebKit,Edge,136.0.0.0,Windows,10,https://5puzkbbxv1.cognition.run/?sona_id=58023,"en-US,en;q=0.9",79a4w5zfsd3vahv,19,"[""White""]",No,Male,N/A,No,566720.3000000007,NA,6943,NA,"{""product_choice"":""A""}",choice,tdc,trinary,attraction,2,microwave ovens,null,null,null,null,null,null,2,50,60,40,60,50,60,Warranty,Cooking power,NA,NA
NA,NA,NA,NA,NA,choice_trial_setup,html-keyboard-response,72,360283,0.0-4.0-0.34,164,1,2025-05-04T20:18:19Z,b60275e29fe2361ab97ac0ac217840d7,"Mozilla/5.0 (Windows NT 10.0; Win64; x64) AppleWebKit/537.36 (KHTML, like Gecko) Chrome/136.0.0.0 Safari/537.36 Edg/136.0.0.0",WebKit,Edge,136.0.0.0,Windows,10,https://5puzkbbxv1.cognition.run/?sona_id=58023,"en-US,en;q=0.9",79a4w5zfsd3vahv,19,"[""White""]",No,Male,N/A,No,566720.3000000007,NA,null,<p></p>,null,choice,ct,binary,attraction,NA,laptops,null,null,null,null,null,null,2,NA,NA,NA,NA,NA,NA,NA,NA,NA,NA
NA,NA,NA,NA,NA,choice_trial,survey-html-form,73,365550,0.0-4.0-1.34,164,1,2025-05-04T20:18:19Z,b60275e29fe2361ab97ac0ac217840d7,"Mozilla/5.0 (Windows NT 10.0; Win64; x64) AppleWebKit/537.36 (KHTML, like Gecko) Chrome/136.0.0.0 Safari/537.36 Edg/136.0.0.0",WebKit,Edge,136.0.0.0,Windows,10,https://5puzkbbxv1.cognition.run/?sona_id=58023,"en-US,en;q=0.9",79a4w5zfsd3vahv,19,"[""White""]",No,Male,N/A,No,566720.3000000007,NA,5264,NA,"{""product_choice"":""B""}",choice,ct,binary,attraction,NA,laptops,null,null,null,null,null,null,2,60,50,null,50,60,null,Processing speed,Memory (RAM),NA,NA
NA,NA,NA,NA,NA,choice_trial_setup,html-keyboard-response,74,365852,0.0-4.0-0.35,164,1,2025-05-04T20:18:19Z,b60275e29fe2361ab97ac0ac217840d7,"Mozilla/5.0 (Windows NT 10.0; Win64; x64) AppleWebKit/537.36 (KHTML, like Gecko) Chrome/136.0.0.0 Safari/537.36 Edg/136.0.0.0",WebKit,Edge,136.0.0.0,Windows,10,https://5puzkbbxv1.cognition.run/?sona_id=58023,"en-US,en;q=0.9",79a4w5zfsd3vahv,19,"[""White""]",No,Male,N/A,No,566720.3000000007,NA,null,<p></p>,null,choice,cdt,trinary,attraction,2,laptops,null,null,null,null,null,null,1,NA,NA,NA,NA,NA,NA,NA,NA,NA,NA
NA,NA,NA,NA,NA,choice_trial,survey-html-form,75,371894,0.0-4.0-1.35,164,1,2025-05-04T20:18:19Z,b60275e29fe2361ab97ac0ac217840d7,"Mozilla/5.0 (Windows NT 10.0; Win64; x64) AppleWebKit/537.36 (KHTML, like Gecko) Chrome/136.0.0.0 Safari/537.36 Edg/136.0.0.0",WebKit,Edge,136.0.0.0,Windows,10,https://5puzkbbxv1.cognition.run/?sona_id=58023,"en-US,en;q=0.9",79a4w5zfsd3vahv,19,"[""White""]",No,Male,N/A,No,566720.3000000007,NA,6039,NA,"{""product_choice"":""A""}",choice,cdt,trinary,attraction,2,laptops,null,null,null,null,null,null,1,50,60,40,60,50,60,Processing speed,Memory (RAM),NA,NA
NA,NA,NA,NA,NA,choice_trial_setup,html-keyboard-response,76,372196,0.0-4.0-0.36,164,1,2025-05-04T20:18:19Z,b60275e29fe2361ab97ac0ac217840d7,"Mozilla/5.0 (Windows NT 10.0; Win64; x64) AppleWebKit/537.36 (KHTML, like Gecko) Chrome/136.0.0.0 Safari/537.36 Edg/136.0.0.0",WebKit,Edge,136.0.0.0,Windows,10,https://5puzkbbxv1.cognition.run/?sona_id=58023,"en-US,en;q=0.9",79a4w5zfsd3vahv,19,"[""White""]",No,Male,N/A,No,566720.3000000007,NA,null,<p></p>,null,choice,ct,binary,repulsion,1,laptops,null,null,null,null,null,null,2,NA,NA,NA,NA,NA,NA,NA,NA,NA,NA
NA,NA,NA,NA,NA,choice_trial,survey-html-form,77,378913,0.0-4.0-1.36,164,1,2025-05-04T20:18:19Z,b60275e29fe2361ab97ac0ac217840d7,"Mozilla/5.0 (Windows NT 10.0; Win64; x64) AppleWebKit/537.36 (KHTML, like Gecko) Chrome/136.0.0.0 Safari/537.36 Edg/136.0.0.0",WebKit,Edge,136.0.0.0,Windows,10,https://5puzkbbxv1.cognition.run/?sona_id=58023,"en-US,en;q=0.9",79a4w5zfsd3vahv,19,"[""White""]",No,Male,N/A,No,566720.3000000007,NA,6715,NA,"{""product_choice"":""A""}",choice,ct,binary,repulsion,1,laptops,null,null,null,null,null,null,2,100,90,null,30,40,null,Processing speed,Memory (RAM),NA,NA
NA,NA,NA,NA,NA,choice_trial_setup,html-keyboard-response,78,379216,0.0-4.0-0.37,164,1,2025-05-04T20:18:19Z,b60275e29fe2361ab97ac0ac217840d7,"Mozilla/5.0 (Windows NT 10.0; Win64; x64) AppleWebKit/537.36 (KHTML, like Gecko) Chrome/136.0.0.0 Safari/537.36 Edg/136.0.0.0",WebKit,Edge,136.0.0.0,Windows,10,https://5puzkbbxv1.cognition.run/?sona_id=58023,"en-US,en;q=0.9",79a4w5zfsd3vahv,19,"[""White""]",No,Male,N/A,No,566720.3000000007,NA,null,<p></p>,null,choice,tdc,trinary,attraction,2,televisions,null,null,null,null,null,null,2,NA,NA,NA,NA,NA,NA,NA,NA,NA,NA
NA,NA,NA,NA,NA,choice_trial,survey-html-form,79,386993,0.0-4.0-1.37,164,1,2025-05-04T20:18:19Z,b60275e29fe2361ab97ac0ac217840d7,"Mozilla/5.0 (Windows NT 10.0; Win64; x64) AppleWebKit/537.36 (KHTML, like Gecko) Chrome/136.0.0.0 Safari/537.36 Edg/136.0.0.0",WebKit,Edge,136.0.0.0,Windows,10,https://5puzkbbxv1.cognition.run/?sona_id=58023,"en-US,en;q=0.9",79a4w5zfsd3vahv,19,"[""White""]",No,Male,N/A,No,566720.3000000007,NA,7774,NA,"{""product_choice"":""C""}",choice,tdc,trinary,attraction,2,televisions,null,null,null,null,null,null,2,50,60,40,60,50,60,Screen size,Average lifespan,NA,NA
NA,NA,NA,NA,NA,choice_trial_setup,html-keyboard-response,80,387296,0.0-4.0-0.38,164,1,2025-05-04T20:18:19Z,b60275e29fe2361ab97ac0ac217840d7,"Mozilla/5.0 (Windows NT 10.0; Win64; x64) AppleWebKit/537.36 (KHTML, like Gecko) Chrome/136.0.0.0 Safari/537.36 Edg/136.0.0.0",WebKit,Edge,136.0.0.0,Windows,10,https://5puzkbbxv1.cognition.run/?sona_id=58023,"en-US,en;q=0.9",79a4w5zfsd3vahv,19,"[""White""]",No,Male,N/A,No,566720.3000000007,NA,null,<p></p>,null,choice,wb,binary,catch,null,microwave ovens,90,70,25,15,null,null,2,NA,NA,NA,NA,NA,NA,NA,NA,NA,NA
NA,NA,NA,NA,NA,choice_trial,survey-html-form,81,392058,0.0-4.0-1.38,164,1,2025-05-04T20:18:19Z,b60275e29fe2361ab97ac0ac217840d7,"Mozilla/5.0 (Windows NT 10.0; Win64; x64) AppleWebKit/537.36 (KHTML, like Gecko) Chrome/136.0.0.0 Safari/537.36 Edg/136.0.0.0",WebKit,Edge,136.0.0.0,Windows,10,https://5puzkbbxv1.cognition.run/?sona_id=58023,"en-US,en;q=0.9",79a4w5zfsd3vahv,19,"[""White""]",No,Male,N/A,No,566720.3000000007,NA,4759,NA,"{""product_choice"":""B""}",choice,wb,binary,catch,null,microwave ovens,90,70,25,15,null,null,2,null,null,null,null,null,null,Warranty,Cooking power,NA,NA
NA,NA,NA,NA,NA,choice_trial_setup,html-keyboard-response,82,392360,0.0-4.0-0.39,164,1,2025-05-04T20:18:19Z,b60275e29fe2361ab97ac0ac217840d7,"Mozilla/5.0 (Windows NT 10.0; Win64; x64) AppleWebKit/537.36 (KHTML, like Gecko) Chrome/136.0.0.0 Safari/537.36 Edg/136.0.0.0",WebKit,Edge,136.0.0.0,Windows,10,https://5puzkbbxv1.cognition.run/?sona_id=58023,"en-US,en;q=0.9",79a4w5zfsd3vahv,19,"[""White""]",No,Male,N/A,No,566720.3000000007,NA,null,<p></p>,null,choice,tdc,trinary,repulsion_A,1,washing machines,null,null,null,null,null,null,1,NA,NA,NA,NA,NA,NA,NA,NA,NA,NA
NA,NA,NA,NA,NA,choice_trial,survey-html-form,83,397179,0.0-4.0-1.39,164,1,2025-05-04T20:18:19Z,b60275e29fe2361ab97ac0ac217840d7,"Mozilla/5.0 (Windows NT 10.0; Win64; x64) AppleWebKit/537.36 (KHTML, like Gecko) Chrome/136.0.0.0 Safari/537.36 Edg/136.0.0.0",WebKit,Edge,136.0.0.0,Windows,10,https://5puzkbbxv1.cognition.run/?sona_id=58023,"en-US,en;q=0.9",79a4w5zfsd3vahv,19,"[""White""]",No,Male,N/A,No,566720.3000000007,NA,4817,NA,"{""product_choice"":""C""}",choice,tdc,trinary,repulsion_A,1,washing machines,null,null,null,null,null,null,1,100,90,100,30,40,20,Average lifespan,Energy savings,NA,NA
NA,NA,NA,NA,NA,choice_trial_setup,html-keyboard-response,84,397482,0.0-4.0-0.40,164,1,2025-05-04T20:18:19Z,b60275e29fe2361ab97ac0ac217840d7,"Mozilla/5.0 (Windows NT 10.0; Win64; x64) AppleWebKit/537.36 (KHTML, like Gecko) Chrome/136.0.0.0 Safari/537.36 Edg/136.0.0.0",WebKit,Edge,136.0.0.0,Windows,10,https://5puzkbbxv1.cognition.run/?sona_id=58023,"en-US,en;q=0.9",79a4w5zfsd3vahv,19,"[""White""]",No,Male,N/A,No,566720.3000000007,NA,null,<p></p>,null,choice,dtc,trinary,repulsion_A,1,laptops,null,null,null,null,null,null,1,NA,NA,NA,NA,NA,NA,NA,NA,NA,NA
NA,NA,NA,NA,NA,choice_trial,survey-html-form,85,403176,0.0-4.0-1.40,164,1,2025-05-04T20:18:19Z,b60275e29fe2361ab97ac0ac217840d7,"Mozilla/5.0 (Windows NT 10.0; Win64; x64) AppleWebKit/537.36 (KHTML, like Gecko) Chrome/136.0.0.0 Safari/537.36 Edg/136.0.0.0",WebKit,Edge,136.0.0.0,Windows,10,https://5puzkbbxv1.cognition.run/?sona_id=58023,"en-US,en;q=0.9",79a4w5zfsd3vahv,19,"[""White""]",No,Male,N/A,No,566720.3000000007,NA,5692,NA,"{""product_choice"":""C""}",choice,dtc,trinary,repulsion_A,1,laptops,null,null,null,null,null,null,1,100,90,100,30,40,20,Processing speed,Memory (RAM),NA,NA
NA,NA,NA,NA,NA,choice_trial_setup,html-keyboard-response,86,403480,0.0-4.0-0.41,164,1,2025-05-04T20:18:19Z,b60275e29fe2361ab97ac0ac217840d7,"Mozilla/5.0 (Windows NT 10.0; Win64; x64) AppleWebKit/537.36 (KHTML, like Gecko) Chrome/136.0.0.0 Safari/537.36 Edg/136.0.0.0",WebKit,Edge,136.0.0.0,Windows,10,https://5puzkbbxv1.cognition.run/?sona_id=58023,"en-US,en;q=0.9",79a4w5zfsd3vahv,19,"[""White""]",No,Male,N/A,No,566720.3000000007,NA,null,<p></p>,null,choice,tcd,trinary,repulsion_B,1,laptops,null,null,null,null,null,null,1,NA,NA,NA,NA,NA,NA,NA,NA,NA,NA
NA,NA,NA,NA,NA,choice_trial,survey-html-form,87,407872,0.0-4.0-1.41,164,1,2025-05-04T20:18:19Z,b60275e29fe2361ab97ac0ac217840d7,"Mozilla/5.0 (Windows NT 10.0; Win64; x64) AppleWebKit/537.36 (KHTML, like Gecko) Chrome/136.0.0.0 Safari/537.36 Edg/136.0.0.0",WebKit,Edge,136.0.0.0,Windows,10,https://5puzkbbxv1.cognition.run/?sona_id=58023,"en-US,en;q=0.9",79a4w5zfsd3vahv,19,"[""White""]",No,Male,N/A,No,566720.3000000007,NA,4390,NA,"{""product_choice"":""A""}",choice,tcd,trinary,repulsion_B,1,laptops,null,null,null,null,null,null,1,90,100,80,40,30,40,Processing speed,Memory (RAM),NA,NA
NA,NA,NA,NA,NA,choice_trial_setup,html-keyboard-response,88,408176,0.0-4.0-0.42,164,1,2025-05-04T20:18:19Z,b60275e29fe2361ab97ac0ac217840d7,"Mozilla/5.0 (Windows NT 10.0; Win64; x64) AppleWebKit/537.36 (KHTML, like Gecko) Chrome/136.0.0.0 Safari/537.36 Edg/136.0.0.0",WebKit,Edge,136.0.0.0,Windows,10,https://5puzkbbxv1.cognition.run/?sona_id=58023,"en-US,en;q=0.9",79a4w5zfsd3vahv,19,"[""White""]",No,Male,N/A,No,566720.3000000007,NA,null,<p></p>,null,choice,ct,binary,repulsion,1,televisions,null,null,null,null,null,null,2,NA,NA,NA,NA,NA,NA,NA,NA,NA,NA
NA,NA,NA,NA,NA,choice_trial,survey-html-form,89,414759,0.0-4.0-1.42,164,1,2025-05-04T20:18:19Z,b60275e29fe2361ab97ac0ac217840d7,"Mozilla/5.0 (Windows NT 10.0; Win64; x64) AppleWebKit/537.36 (KHTML, like Gecko) Chrome/136.0.0.0 Safari/537.36 Edg/136.0.0.0",WebKit,Edge,136.0.0.0,Windows,10,https://5puzkbbxv1.cognition.run/?sona_id=58023,"en-US,en;q=0.9",79a4w5zfsd3vahv,19,"[""White""]",No,Male,N/A,No,566720.3000000007,NA,6580,NA,"{""product_choice"":""B""}",choice,ct,binary,repulsion,1,televisions,null,null,null,null,null,null,2,100,90,null,30,40,null,Screen size,Average lifespan,NA,NA
NA,NA,NA,NA,NA,choice_trial_setup,html-keyboard-response,90,415062,0.0-4.0-0.43,164,1,2025-05-04T20:18:19Z,b60275e29fe2361ab97ac0ac217840d7,"Mozilla/5.0 (Windows NT 10.0; Win64; x64) AppleWebKit/537.36 (KHTML, like Gecko) Chrome/136.0.0.0 Safari/537.36 Edg/136.0.0.0",WebKit,Edge,136.0.0.0,Windows,10,https://5puzkbbxv1.cognition.run/?sona_id=58023,"en-US,en;q=0.9",79a4w5zfsd3vahv,19,"[""White""]",No,Male,N/A,No,566720.3000000007,NA,null,<p></p>,null,choice,dtc,trinary,repulsion_A,2,laptops,null,null,null,null,null,null,2,NA,NA,NA,NA,NA,NA,NA,NA,NA,NA
NA,NA,NA,NA,NA,choice_trial,survey-html-form,91,425474,0.0-4.0-1.43,164,1,2025-05-04T20:18:19Z,b60275e29fe2361ab97ac0ac217840d7,"Mozilla/5.0 (Windows NT 10.0; Win64; x64) AppleWebKit/537.36 (KHTML, like Gecko) Chrome/136.0.0.0 Safari/537.36 Edg/136.0.0.0",WebKit,Edge,136.0.0.0,Windows,10,https://5puzkbbxv1.cognition.run/?sona_id=58023,"en-US,en;q=0.9",79a4w5zfsd3vahv,19,"[""White""]",No,Male,N/A,No,566720.3000000007,NA,10410,NA,"{""product_choice"":""C""}",choice,dtc,trinary,repulsion_A,2,laptops,null,null,null,null,null,null,2,30,40,20,100,90,100,Processing speed,Memory (RAM),NA,NA
NA,NA,NA,NA,NA,post_trials_message,html-button-response,92,426702,0.0-5.0,164,1,2025-05-04T20:18:19Z,b60275e29fe2361ab97ac0ac217840d7,"Mozilla/5.0 (Windows NT 10.0; Win64; x64) AppleWebKit/537.36 (KHTML, like Gecko) Chrome/136.0.0.0 Safari/537.36 Edg/136.0.0.0",WebKit,Edge,136.0.0.0,Windows,10,https://5puzkbbxv1.cognition.run/?sona_id=58023,"en-US,en;q=0.9",79a4w5zfsd3vahv,19,"[""White""]",No,Male,N/A,No,566720.3000000007,NA,1225,<p> <b>Thank you for your patience!</b></p><p>  The study will be done after completing a brief form. </p>,0,NA,NA,NA,NA,NA,NA,NA,NA,NA,NA,NA,NA,NA,NA,NA,NA,NA,NA,NA,NA,NA,NA,NA
NA,NA,NA,NA,NA,survey_message,survey-text,93,522908,0.0-6.0,164,1,2025-05-04T20:18:19Z,b60275e29fe2361ab97ac0ac217840d7,"Mozilla/5.0 (Windows NT 10.0; Win64; x64) AppleWebKit/537.36 (KHTML, like Gecko) Chrome/136.0.0.0 Safari/537.36 Edg/136.0.0.0",WebKit,Edge,136.0.0.0,Windows,10,https://5puzkbbxv1.cognition.run/?sona_id=58023,"en-US,en;q=0.9",79a4w5zfsd3vahv,19,"[""White""]",No,Male,N/A,No,566720.3000000007,NA,96203,NA,"{""Q0"":""There are certain aspects of each appliance that I value more and I tried to make my choice somewhat specialized in that aspect but not solely based on that one aspect. ""}",NA,NA,NA,NA,NA,NA,NA,NA,NA,NA,NA,NA,NA,NA,NA,NA,NA,NA,NA,NA,NA,There are certain aspects of each appliance that I value more and I tried to make my choice somewhat specialized in that aspect but not solely based on that one aspect.,NA
NA,NA,NA,NA,NA,demo_age,survey-text,94,525636,0.0-7.0,164,1,2025-05-04T20:18:19Z,b60275e29fe2361ab97ac0ac217840d7,"Mozilla/5.0 (Windows NT 10.0; Win64; x64) AppleWebKit/537.36 (KHTML, like Gecko) Chrome/136.0.0.0 Safari/537.36 Edg/136.0.0.0",WebKit,Edge,136.0.0.0,Windows,10,https://5puzkbbxv1.cognition.run/?sona_id=58023,"en-US,en;q=0.9",79a4w5zfsd3vahv,19,"[""White""]",No,Male,N/A,No,566720.3000000007,NA,2725,NA,"{""Q0"":""19""}",NA,NA,NA,NA,NA,NA,NA,NA,NA,NA,NA,NA,NA,NA,NA,NA,NA,NA,NA,NA,NA,NA,NA
NA,NA,NA,NA,NA,demo_race,survey-multi-select,95,529552,0.0-8.0,164,1,2025-05-04T20:18:19Z,b60275e29fe2361ab97ac0ac217840d7,"Mozilla/5.0 (Windows NT 10.0; Win64; x64) AppleWebKit/537.36 (KHTML, like Gecko) Chrome/136.0.0.0 Safari/537.36 Edg/136.0.0.0",WebKit,Edge,136.0.0.0,Windows,10,https://5puzkbbxv1.cognition.run/?sona_id=58023,"en-US,en;q=0.9",79a4w5zfsd3vahv,19,"[""White""]",No,Male,N/A,No,566720.3000000007,NA,3913,NA,"{""Q0"":[""White""]}",NA,NA,NA,NA,NA,NA,NA,NA,NA,NA,NA,NA,NA,NA,NA,NA,NA,NA,NA,NA,NA,NA,[0]
NA,NA,NA,NA,NA,demo_ethnicity_gender,survey-multi-choice,96,533196,0.0-9.0,164,1,2025-05-04T20:18:19Z,b60275e29fe2361ab97ac0ac217840d7,"Mozilla/5.0 (Windows NT 10.0; Win64; x64) AppleWebKit/537.36 (KHTML, like Gecko) Chrome/136.0.0.0 Safari/537.36 Edg/136.0.0.0",WebKit,Edge,136.0.0.0,Windows,10,https://5puzkbbxv1.cognition.run/?sona_id=58023,"en-US,en;q=0.9",79a4w5zfsd3vahv,19,"[""White""]",No,Male,N/A,No,566720.3000000007,NA,3641,NA,"{""Q0"":""No"",""Q1"":""Male""}",NA,NA,NA,NA,NA,NA,NA,NA,NA,NA,NA,NA,NA,NA,NA,NA,NA,NA,NA,NA,NA,NA,"[0,1]"
NA,NA,NA,NA,NA,demo_countries,survey-text,97,543446,0.0-10.0,164,1,2025-05-04T20:18:19Z,b60275e29fe2361ab97ac0ac217840d7,"Mozilla/5.0 (Windows NT 10.0; Win64; x64) AppleWebKit/537.36 (KHTML, like Gecko) Chrome/136.0.0.0 Safari/537.36 Edg/136.0.0.0",WebKit,Edge,136.0.0.0,Windows,10,https://5puzkbbxv1.cognition.run/?sona_id=58023,"en-US,en;q=0.9",79a4w5zfsd3vahv,19,"[""White""]",No,Male,N/A,No,566720.3000000007,NA,10245,NA,"{""Q0"":""N/A""}",NA,NA,NA,NA,NA,NA,NA,NA,NA,NA,NA,NA,NA,NA,NA,NA,NA,NA,NA,NA,NA,NA,NA
NA,NA,NA,NA,NA,demo_prev_study,survey-multi-choice,98,552273,0.0-11.0,164,1,2025-05-04T20:18:19Z,b60275e29fe2361ab97ac0ac217840d7,"Mozilla/5.0 (Windows NT 10.0; Win64; x64) AppleWebKit/537.36 (KHTML, like Gecko) Chrome/136.0.0.0 Safari/537.36 Edg/136.0.0.0",WebKit,Edge,136.0.0.0,Windows,10,https://5puzkbbxv1.cognition.run/?sona_id=58023,"en-US,en;q=0.9",79a4w5zfsd3vahv,19,"[""White""]",No,Male,N/A,No,566720.3000000007,NA,8824,NA,"{""Q0"":""No""}",NA,NA,NA,NA,NA,NA,NA,NA,NA,NA,NA,NA,NA,NA,NA,NA,NA,NA,NA,NA,NA,NA,[0]
NA,NA,NA,NA,NA,post_survey_message,html-keyboard-response,99,558119,0.0-12.0,164,1,2025-05-04T20:18:19Z,b60275e29fe2361ab97ac0ac217840d7,"Mozilla/5.0 (Windows NT 10.0; Win64; x64) AppleWebKit/537.36 (KHTML, like Gecko) Chrome/136.0.0.0 Safari/537.36 Edg/136.0.0.0",WebKit,Edge,136.0.0.0,Windows,10,https://5puzkbbxv1.cognition.run/?sona_id=58023,"en-US,en;q=0.9",79a4w5zfsd3vahv,19,"[""White""]",No,Male,N/A,No,566720.3000000007,NA,5844,NA,j,NA,NA,NA,NA,NA,NA,NA,NA,NA,NA,NA,NA,NA,NA,NA,NA,NA,NA,NA,NA,NA,NA,NA
NA,NA,NA,NA,NA,debrief,image-keyboard-response,100,566720,0.0-13.0,164,1,2025-05-04T20:18:19Z,b60275e29fe2361ab97ac0ac217840d7,"Mozilla/5.0 (Windows NT 10.0; Win64; x64) AppleWebKit/537.36 (KHTML, like Gecko) Chrome/136.0.0.0 Safari/537.36 Edg/136.0.0.0",WebKit,Edge,136.0.0.0,Windows,10,https://5puzkbbxv1.cognition.run/?sona_id=58023,"en-US,en;q=0.9",79a4w5zfsd3vahv,19,"[""White""]",No,Male,N/A,No,566720.3000000007,NA,8599,Judg_choice_debrief.png,p,NA,NA,NA,NA,NA,NA,NA,NA,NA,NA,NA,NA,NA,NA,NA,NA,NA,NA,NA,NA,NA,NA,NA
