success,timeout,failed_images,failed_audio,failed_video,screen_id,trial_type,trial_index,time_elapsed,internal_node_id,run_id,condition,recorded_at,source_code_version,user_agent,device,browser,browser_version,platform,platform_version,referer,accept_language,ppt_id,age,race,ethnicity,gender,other_countries,prev_study,exp_duration,view_history,rt,stimulus,response,phase,order,set,effect,t_high,category,d1_best,d2_best,d1_worst1,d2_worst1,d1_worst2,d2_worst2,first_dim,d1_t,d1_c,d1_d,d2_t,d2_c,d2_d,d1_name,d2_name,strategy_response,question_order
TRUE,FALSE,[],[],[],img preload,preload,0,775,0.0-0.0,165,1,2025-05-04T20:26:19Z,b60275e29fe2361ab97ac0ac217840d7,"Mozilla/5.0 (Windows NT 10.0; Win64; x64) AppleWebKit/537.36 (KHTML, like Gecko) Chrome/135.0.0.0 Safari/537.36",WebKit,Chrome,135.0.0.0,Windows,10,https://5puzkbbxv1.cognition.run/?sona_id=49327,"en-US,en;q=0.5",u8f9tq2lojs5rsx,21,"[""Other""]",Yes,Male,"Brazil, Chile, USA",No,478306.19999980927,NA,NA,NA,NA,NA,NA,NA,NA,NA,NA,NA,NA,NA,NA,NA,NA,NA,NA,NA,NA,NA,NA,NA,NA,NA,NA,NA
NA,NA,NA,NA,NA,computer_message,instructions,1,4711,0.0-1.0,165,1,2025-05-04T20:26:19Z,b60275e29fe2361ab97ac0ac217840d7,"Mozilla/5.0 (Windows NT 10.0; Win64; x64) AppleWebKit/537.36 (KHTML, like Gecko) Chrome/135.0.0.0 Safari/537.36",WebKit,Chrome,135.0.0.0,Windows,10,https://5puzkbbxv1.cognition.run/?sona_id=49327,"en-US,en;q=0.5",u8f9tq2lojs5rsx,21,"[""Other""]",Yes,Male,"Brazil, Chile, USA",No,478306.19999980927,"[{""page_index"":0,""viewing_time"":3934}]",3934,NA,NA,NA,NA,NA,NA,NA,NA,NA,NA,NA,NA,NA,NA,NA,NA,NA,NA,NA,NA,NA,NA,NA,NA,NA
TRUE,NA,NA,NA,NA,NA,fullscreen,2,10217,0.0-2.0,165,1,2025-05-04T20:26:19Z,b60275e29fe2361ab97ac0ac217840d7,"Mozilla/5.0 (Windows NT 10.0; Win64; x64) AppleWebKit/537.36 (KHTML, like Gecko) Chrome/135.0.0.0 Safari/537.36",WebKit,Chrome,135.0.0.0,Windows,10,https://5puzkbbxv1.cognition.run/?sona_id=49327,"en-US,en;q=0.5",u8f9tq2lojs5rsx,21,"[""Other""]",Yes,Male,"Brazil, Chile, USA",No,478306.19999980927,NA,4500,NA,NA,NA,NA,NA,NA,NA,NA,NA,NA,NA,NA,NA,NA,NA,NA,NA,NA,NA,NA,NA,NA,NA,NA,NA
NA,NA,NA,NA,NA,choice_instructions,instructions,3,80608,0.0-3.0,165,1,2025-05-04T20:26:19Z,b60275e29fe2361ab97ac0ac217840d7,"Mozilla/5.0 (Windows NT 10.0; Win64; x64) AppleWebKit/537.36 (KHTML, like Gecko) Chrome/135.0.0.0 Safari/537.36",WebKit,Chrome,135.0.0.0,Windows,10,https://5puzkbbxv1.cognition.run/?sona_id=49327,"en-US,en;q=0.5",u8f9tq2lojs5rsx,21,"[""Other""]",Yes,Male,"Brazil, Chile, USA",No,478306.19999980927,"[{""page_index"":0,""viewing_time"":6899},{""page_index"":1,""viewing_time"":3423},{""page_index"":2,""viewing_time"":2741},{""page_index"":1,""viewing_time"":20160},{""page_index"":2,""viewing_time"":6846},{""page_index"":3,""viewing_time"":6235},{""page_index"":4,""viewing_time"":2899},{""page_index"":5,""viewing_time"":18126},{""page_index"":6,""viewing_time"":3062}]",70390,NA,NA,NA,NA,NA,NA,NA,NA,NA,NA,NA,NA,NA,NA,NA,NA,NA,NA,NA,NA,NA,NA,NA,NA,NA
NA,NA,NA,NA,NA,choice_trial_setup,html-keyboard-response,4,80910,0.0-4.0-0.0,165,1,2025-05-04T20:26:19Z,b60275e29fe2361ab97ac0ac217840d7,"Mozilla/5.0 (Windows NT 10.0; Win64; x64) AppleWebKit/537.36 (KHTML, like Gecko) Chrome/135.0.0.0 Safari/537.36",WebKit,Chrome,135.0.0.0,Windows,10,https://5puzkbbxv1.cognition.run/?sona_id=49327,"en-US,en;q=0.5",u8f9tq2lojs5rsx,21,"[""Other""]",Yes,Male,"Brazil, Chile, USA",No,478306.19999980927,NA,null,<p></p>,null,choice,ct,binary,repulsion,2,laptops,null,null,null,null,null,null,1,NA,NA,NA,NA,NA,NA,NA,NA,NA,NA
NA,NA,NA,NA,NA,choice_trial,survey-html-form,5,101144,0.0-4.0-1.0,165,1,2025-05-04T20:26:19Z,b60275e29fe2361ab97ac0ac217840d7,"Mozilla/5.0 (Windows NT 10.0; Win64; x64) AppleWebKit/537.36 (KHTML, like Gecko) Chrome/135.0.0.0 Safari/537.36",WebKit,Chrome,135.0.0.0,Windows,10,https://5puzkbbxv1.cognition.run/?sona_id=49327,"en-US,en;q=0.5",u8f9tq2lojs5rsx,21,"[""Other""]",Yes,Male,"Brazil, Chile, USA",No,478306.19999980927,NA,20230,NA,"{""product_choice"":""B""}",choice,ct,binary,repulsion,2,laptops,null,null,null,null,null,null,1,30,40,null,100,90,null,Processing speed,Memory (RAM),NA,NA
NA,NA,NA,NA,NA,choice_trial_setup,html-keyboard-response,6,101447,0.0-4.0-0.1,165,1,2025-05-04T20:26:19Z,b60275e29fe2361ab97ac0ac217840d7,"Mozilla/5.0 (Windows NT 10.0; Win64; x64) AppleWebKit/537.36 (KHTML, like Gecko) Chrome/135.0.0.0 Safari/537.36",WebKit,Chrome,135.0.0.0,Windows,10,https://5puzkbbxv1.cognition.run/?sona_id=49327,"en-US,en;q=0.5",u8f9tq2lojs5rsx,21,"[""Other""]",Yes,Male,"Brazil, Chile, USA",No,478306.19999980927,NA,null,<p></p>,null,choice,ctd,trinary,attraction,1,washing machines,null,null,null,null,null,null,2,NA,NA,NA,NA,NA,NA,NA,NA,NA,NA
NA,NA,NA,NA,NA,choice_trial,survey-html-form,7,125634,0.0-4.0-1.1,165,1,2025-05-04T20:26:19Z,b60275e29fe2361ab97ac0ac217840d7,"Mozilla/5.0 (Windows NT 10.0; Win64; x64) AppleWebKit/537.36 (KHTML, like Gecko) Chrome/135.0.0.0 Safari/537.36",WebKit,Chrome,135.0.0.0,Windows,10,https://5puzkbbxv1.cognition.run/?sona_id=49327,"en-US,en;q=0.5",u8f9tq2lojs5rsx,21,"[""Other""]",Yes,Male,"Brazil, Chile, USA",No,478306.19999980927,NA,24186,NA,"{""product_choice"":""B""}",choice,ctd,trinary,attraction,1,washing machines,null,null,null,null,null,null,2,60,50,60,50,60,40,Average lifespan,Energy savings,NA,NA
NA,NA,NA,NA,NA,choice_trial_setup,html-keyboard-response,8,125937,0.0-4.0-0.2,165,1,2025-05-04T20:26:19Z,b60275e29fe2361ab97ac0ac217840d7,"Mozilla/5.0 (Windows NT 10.0; Win64; x64) AppleWebKit/537.36 (KHTML, like Gecko) Chrome/135.0.0.0 Safari/537.36",WebKit,Chrome,135.0.0.0,Windows,10,https://5puzkbbxv1.cognition.run/?sona_id=49327,"en-US,en;q=0.5",u8f9tq2lojs5rsx,21,"[""Other""]",Yes,Male,"Brazil, Chile, USA",No,478306.19999980927,NA,null,<p></p>,null,choice,tdc,trinary,repulsion_B,2,microwave ovens,null,null,null,null,null,null,1,NA,NA,NA,NA,NA,NA,NA,NA,NA,NA
NA,NA,NA,NA,NA,choice_trial,survey-html-form,9,133336,0.0-4.0-1.2,165,1,2025-05-04T20:26:19Z,b60275e29fe2361ab97ac0ac217840d7,"Mozilla/5.0 (Windows NT 10.0; Win64; x64) AppleWebKit/537.36 (KHTML, like Gecko) Chrome/135.0.0.0 Safari/537.36",WebKit,Chrome,135.0.0.0,Windows,10,https://5puzkbbxv1.cognition.run/?sona_id=49327,"en-US,en;q=0.5",u8f9tq2lojs5rsx,21,"[""Other""]",Yes,Male,"Brazil, Chile, USA",No,478306.19999980927,NA,7398,NA,"{""product_choice"":""B""}",choice,tdc,trinary,repulsion_B,2,microwave ovens,null,null,null,null,null,null,1,40,30,40,90,100,80,Warranty,Cooking power,NA,NA
NA,NA,NA,NA,NA,choice_trial_setup,html-keyboard-response,10,133637,0.0-4.0-0.3,165,1,2025-05-04T20:26:19Z,b60275e29fe2361ab97ac0ac217840d7,"Mozilla/5.0 (Windows NT 10.0; Win64; x64) AppleWebKit/537.36 (KHTML, like Gecko) Chrome/135.0.0.0 Safari/537.36",WebKit,Chrome,135.0.0.0,Windows,10,https://5puzkbbxv1.cognition.run/?sona_id=49327,"en-US,en;q=0.5",u8f9tq2lojs5rsx,21,"[""Other""]",Yes,Male,"Brazil, Chile, USA",No,478306.19999980927,NA,null,<p></p>,null,choice,ctd,trinary,repulsion_B,2,televisions,null,null,null,null,null,null,1,NA,NA,NA,NA,NA,NA,NA,NA,NA,NA
NA,NA,NA,NA,NA,choice_trial,survey-html-form,11,140087,0.0-4.0-1.3,165,1,2025-05-04T20:26:19Z,b60275e29fe2361ab97ac0ac217840d7,"Mozilla/5.0 (Windows NT 10.0; Win64; x64) AppleWebKit/537.36 (KHTML, like Gecko) Chrome/135.0.0.0 Safari/537.36",WebKit,Chrome,135.0.0.0,Windows,10,https://5puzkbbxv1.cognition.run/?sona_id=49327,"en-US,en;q=0.5",u8f9tq2lojs5rsx,21,"[""Other""]",Yes,Male,"Brazil, Chile, USA",No,478306.19999980927,NA,6449,NA,"{""product_choice"":""B""}",choice,ctd,trinary,repulsion_B,2,televisions,null,null,null,null,null,null,1,40,30,40,90,100,80,Screen size,Average lifespan,NA,NA
NA,NA,NA,NA,NA,choice_trial_setup,html-keyboard-response,12,140389,0.0-4.0-0.4,165,1,2025-05-04T20:26:19Z,b60275e29fe2361ab97ac0ac217840d7,"Mozilla/5.0 (Windows NT 10.0; Win64; x64) AppleWebKit/537.36 (KHTML, like Gecko) Chrome/135.0.0.0 Safari/537.36",WebKit,Chrome,135.0.0.0,Windows,10,https://5puzkbbxv1.cognition.run/?sona_id=49327,"en-US,en;q=0.5",u8f9tq2lojs5rsx,21,"[""Other""]",Yes,Male,"Brazil, Chile, USA",No,478306.19999980927,NA,null,<p></p>,null,choice,cdt,trinary,repulsion_A,1,washing machines,null,null,null,null,null,null,1,NA,NA,NA,NA,NA,NA,NA,NA,NA,NA
NA,NA,NA,NA,NA,choice_trial,survey-html-form,13,159634,0.0-4.0-1.4,165,1,2025-05-04T20:26:19Z,b60275e29fe2361ab97ac0ac217840d7,"Mozilla/5.0 (Windows NT 10.0; Win64; x64) AppleWebKit/537.36 (KHTML, like Gecko) Chrome/135.0.0.0 Safari/537.36",WebKit,Chrome,135.0.0.0,Windows,10,https://5puzkbbxv1.cognition.run/?sona_id=49327,"en-US,en;q=0.5",u8f9tq2lojs5rsx,21,"[""Other""]",Yes,Male,"Brazil, Chile, USA",No,478306.19999980927,NA,19243,NA,"{""product_choice"":""C""}",choice,cdt,trinary,repulsion_A,1,washing machines,null,null,null,null,null,null,1,100,90,100,30,40,20,Average lifespan,Energy savings,NA,NA
NA,NA,NA,NA,NA,choice_trial_setup,html-keyboard-response,14,159937,0.0-4.0-0.5,165,1,2025-05-04T20:26:19Z,b60275e29fe2361ab97ac0ac217840d7,"Mozilla/5.0 (Windows NT 10.0; Win64; x64) AppleWebKit/537.36 (KHTML, like Gecko) Chrome/135.0.0.0 Safari/537.36",WebKit,Chrome,135.0.0.0,Windows,10,https://5puzkbbxv1.cognition.run/?sona_id=49327,"en-US,en;q=0.5",u8f9tq2lojs5rsx,21,"[""Other""]",Yes,Male,"Brazil, Chile, USA",No,478306.19999980927,NA,null,<p></p>,null,choice,tc,binary,repulsion,2,microwave ovens,null,null,null,null,null,null,1,NA,NA,NA,NA,NA,NA,NA,NA,NA,NA
NA,NA,NA,NA,NA,choice_trial,survey-html-form,15,166111,0.0-4.0-1.5,165,1,2025-05-04T20:26:19Z,b60275e29fe2361ab97ac0ac217840d7,"Mozilla/5.0 (Windows NT 10.0; Win64; x64) AppleWebKit/537.36 (KHTML, like Gecko) Chrome/135.0.0.0 Safari/537.36",WebKit,Chrome,135.0.0.0,Windows,10,https://5puzkbbxv1.cognition.run/?sona_id=49327,"en-US,en;q=0.5",u8f9tq2lojs5rsx,21,"[""Other""]",Yes,Male,"Brazil, Chile, USA",No,478306.19999980927,NA,6170,NA,"{""product_choice"":""A""}",choice,tc,binary,repulsion,2,microwave ovens,null,null,null,null,null,null,1,30,40,null,100,90,null,Warranty,Cooking power,NA,NA
NA,NA,NA,NA,NA,choice_trial_setup,html-keyboard-response,16,166415,0.0-4.0-0.6,165,1,2025-05-04T20:26:19Z,b60275e29fe2361ab97ac0ac217840d7,"Mozilla/5.0 (Windows NT 10.0; Win64; x64) AppleWebKit/537.36 (KHTML, like Gecko) Chrome/135.0.0.0 Safari/537.36",WebKit,Chrome,135.0.0.0,Windows,10,https://5puzkbbxv1.cognition.run/?sona_id=49327,"en-US,en;q=0.5",u8f9tq2lojs5rsx,21,"[""Other""]",Yes,Male,"Brazil, Chile, USA",No,478306.19999980927,NA,null,<p></p>,null,choice,ct,binary,repulsion,1,washing machines,null,null,null,null,null,null,2,NA,NA,NA,NA,NA,NA,NA,NA,NA,NA
NA,NA,NA,NA,NA,choice_trial,survey-html-form,17,173183,0.0-4.0-1.6,165,1,2025-05-04T20:26:19Z,b60275e29fe2361ab97ac0ac217840d7,"Mozilla/5.0 (Windows NT 10.0; Win64; x64) AppleWebKit/537.36 (KHTML, like Gecko) Chrome/135.0.0.0 Safari/537.36",WebKit,Chrome,135.0.0.0,Windows,10,https://5puzkbbxv1.cognition.run/?sona_id=49327,"en-US,en;q=0.5",u8f9tq2lojs5rsx,21,"[""Other""]",Yes,Male,"Brazil, Chile, USA",No,478306.19999980927,NA,6764,NA,"{""product_choice"":""B""}",choice,ct,binary,repulsion,1,washing machines,null,null,null,null,null,null,2,100,90,null,30,40,null,Average lifespan,Energy savings,NA,NA
NA,NA,NA,NA,NA,choice_trial_setup,html-keyboard-response,18,173488,0.0-4.0-0.7,165,1,2025-05-04T20:26:19Z,b60275e29fe2361ab97ac0ac217840d7,"Mozilla/5.0 (Windows NT 10.0; Win64; x64) AppleWebKit/537.36 (KHTML, like Gecko) Chrome/135.0.0.0 Safari/537.36",WebKit,Chrome,135.0.0.0,Windows,10,https://5puzkbbxv1.cognition.run/?sona_id=49327,"en-US,en;q=0.5",u8f9tq2lojs5rsx,21,"[""Other""]",Yes,Male,"Brazil, Chile, USA",No,478306.19999980927,NA,null,<p></p>,null,choice,cdt,trinary,repulsion_B,2,laptops,null,null,null,null,null,null,1,NA,NA,NA,NA,NA,NA,NA,NA,NA,NA
NA,NA,NA,NA,NA,choice_trial,survey-html-form,19,178332,0.0-4.0-1.7,165,1,2025-05-04T20:26:19Z,b60275e29fe2361ab97ac0ac217840d7,"Mozilla/5.0 (Windows NT 10.0; Win64; x64) AppleWebKit/537.36 (KHTML, like Gecko) Chrome/135.0.0.0 Safari/537.36",WebKit,Chrome,135.0.0.0,Windows,10,https://5puzkbbxv1.cognition.run/?sona_id=49327,"en-US,en;q=0.5",u8f9tq2lojs5rsx,21,"[""Other""]",Yes,Male,"Brazil, Chile, USA",No,478306.19999980927,NA,4840,NA,"{""product_choice"":""C""}",choice,cdt,trinary,repulsion_B,2,laptops,null,null,null,null,null,null,1,40,30,40,90,100,80,Processing speed,Memory (RAM),NA,NA
NA,NA,NA,NA,NA,choice_trial_setup,html-keyboard-response,20,178634,0.0-4.0-0.8,165,1,2025-05-04T20:26:19Z,b60275e29fe2361ab97ac0ac217840d7,"Mozilla/5.0 (Windows NT 10.0; Win64; x64) AppleWebKit/537.36 (KHTML, like Gecko) Chrome/135.0.0.0 Safari/537.36",WebKit,Chrome,135.0.0.0,Windows,10,https://5puzkbbxv1.cognition.run/?sona_id=49327,"en-US,en;q=0.5",u8f9tq2lojs5rsx,21,"[""Other""]",Yes,Male,"Brazil, Chile, USA",No,478306.19999980927,NA,null,<p></p>,null,choice,ctd,trinary,repulsion_A,1,laptops,null,null,null,null,null,null,2,NA,NA,NA,NA,NA,NA,NA,NA,NA,NA
NA,NA,NA,NA,NA,choice_trial,survey-html-form,21,182873,0.0-4.0-1.8,165,1,2025-05-04T20:26:19Z,b60275e29fe2361ab97ac0ac217840d7,"Mozilla/5.0 (Windows NT 10.0; Win64; x64) AppleWebKit/537.36 (KHTML, like Gecko) Chrome/135.0.0.0 Safari/537.36",WebKit,Chrome,135.0.0.0,Windows,10,https://5puzkbbxv1.cognition.run/?sona_id=49327,"en-US,en;q=0.5",u8f9tq2lojs5rsx,21,"[""Other""]",Yes,Male,"Brazil, Chile, USA",No,478306.19999980927,NA,4234,NA,"{""product_choice"":""A""}",choice,ctd,trinary,repulsion_A,1,laptops,null,null,null,null,null,null,2,100,90,100,30,40,20,Processing speed,Memory (RAM),NA,NA
NA,NA,NA,NA,NA,choice_trial_setup,html-keyboard-response,22,183178,0.0-4.0-0.9,165,1,2025-05-04T20:26:19Z,b60275e29fe2361ab97ac0ac217840d7,"Mozilla/5.0 (Windows NT 10.0; Win64; x64) AppleWebKit/537.36 (KHTML, like Gecko) Chrome/135.0.0.0 Safari/537.36",WebKit,Chrome,135.0.0.0,Windows,10,https://5puzkbbxv1.cognition.run/?sona_id=49327,"en-US,en;q=0.5",u8f9tq2lojs5rsx,21,"[""Other""]",Yes,Male,"Brazil, Chile, USA",No,478306.19999980927,NA,null,<p></p>,null,choice,wwb,trinary,catch,null,washing machines,70,55,35,30,20,5,2,NA,NA,NA,NA,NA,NA,NA,NA,NA,NA
NA,NA,NA,NA,NA,choice_trial,survey-html-form,23,187785,0.0-4.0-1.9,165,1,2025-05-04T20:26:19Z,b60275e29fe2361ab97ac0ac217840d7,"Mozilla/5.0 (Windows NT 10.0; Win64; x64) AppleWebKit/537.36 (KHTML, like Gecko) Chrome/135.0.0.0 Safari/537.36",WebKit,Chrome,135.0.0.0,Windows,10,https://5puzkbbxv1.cognition.run/?sona_id=49327,"en-US,en;q=0.5",u8f9tq2lojs5rsx,21,"[""Other""]",Yes,Male,"Brazil, Chile, USA",No,478306.19999980927,NA,4601,NA,"{""product_choice"":""C""}",choice,wwb,trinary,catch,null,washing machines,70,55,35,30,20,5,2,null,null,null,null,null,null,Average lifespan,Energy savings,NA,NA
NA,NA,NA,NA,NA,choice_trial_setup,html-keyboard-response,24,188090,0.0-4.0-0.10,165,1,2025-05-04T20:26:19Z,b60275e29fe2361ab97ac0ac217840d7,"Mozilla/5.0 (Windows NT 10.0; Win64; x64) AppleWebKit/537.36 (KHTML, like Gecko) Chrome/135.0.0.0 Safari/537.36",WebKit,Chrome,135.0.0.0,Windows,10,https://5puzkbbxv1.cognition.run/?sona_id=49327,"en-US,en;q=0.5",u8f9tq2lojs5rsx,21,"[""Other""]",Yes,Male,"Brazil, Chile, USA",No,478306.19999980927,NA,null,<p></p>,null,choice,bww,trinary,catch,null,televisions,90,55,45,25,15,45,1,NA,NA,NA,NA,NA,NA,NA,NA,NA,NA
NA,NA,NA,NA,NA,choice_trial,survey-html-form,25,192261,0.0-4.0-1.10,165,1,2025-05-04T20:26:19Z,b60275e29fe2361ab97ac0ac217840d7,"Mozilla/5.0 (Windows NT 10.0; Win64; x64) AppleWebKit/537.36 (KHTML, like Gecko) Chrome/135.0.0.0 Safari/537.36",WebKit,Chrome,135.0.0.0,Windows,10,https://5puzkbbxv1.cognition.run/?sona_id=49327,"en-US,en;q=0.5",u8f9tq2lojs5rsx,21,"[""Other""]",Yes,Male,"Brazil, Chile, USA",No,478306.19999980927,NA,4166,NA,"{""product_choice"":""A""}",choice,bww,trinary,catch,null,televisions,90,55,45,25,15,45,1,null,null,null,null,null,null,Screen size,Average lifespan,NA,NA
NA,NA,NA,NA,NA,choice_trial_setup,html-keyboard-response,26,192564,0.0-4.0-0.11,165,1,2025-05-04T20:26:19Z,b60275e29fe2361ab97ac0ac217840d7,"Mozilla/5.0 (Windows NT 10.0; Win64; x64) AppleWebKit/537.36 (KHTML, like Gecko) Chrome/135.0.0.0 Safari/537.36",WebKit,Chrome,135.0.0.0,Windows,10,https://5puzkbbxv1.cognition.run/?sona_id=49327,"en-US,en;q=0.5",u8f9tq2lojs5rsx,21,"[""Other""]",Yes,Male,"Brazil, Chile, USA",No,478306.19999980927,NA,null,<p></p>,null,choice,bw,binary,catch,null,televisions,55,60,40,20,null,null,1,NA,NA,NA,NA,NA,NA,NA,NA,NA,NA
NA,NA,NA,NA,NA,choice_trial,survey-html-form,27,195507,0.0-4.0-1.11,165,1,2025-05-04T20:26:19Z,b60275e29fe2361ab97ac0ac217840d7,"Mozilla/5.0 (Windows NT 10.0; Win64; x64) AppleWebKit/537.36 (KHTML, like Gecko) Chrome/135.0.0.0 Safari/537.36",WebKit,Chrome,135.0.0.0,Windows,10,https://5puzkbbxv1.cognition.run/?sona_id=49327,"en-US,en;q=0.5",u8f9tq2lojs5rsx,21,"[""Other""]",Yes,Male,"Brazil, Chile, USA",No,478306.19999980927,NA,2939,NA,"{""product_choice"":""A""}",choice,bw,binary,catch,null,televisions,55,60,40,20,null,null,1,null,null,null,null,null,null,Screen size,Average lifespan,NA,NA
NA,NA,NA,NA,NA,choice_trial_setup,html-keyboard-response,28,195812,0.0-4.0-0.12,165,1,2025-05-04T20:26:19Z,b60275e29fe2361ab97ac0ac217840d7,"Mozilla/5.0 (Windows NT 10.0; Win64; x64) AppleWebKit/537.36 (KHTML, like Gecko) Chrome/135.0.0.0 Safari/537.36",WebKit,Chrome,135.0.0.0,Windows,10,https://5puzkbbxv1.cognition.run/?sona_id=49327,"en-US,en;q=0.5",u8f9tq2lojs5rsx,21,"[""Other""]",Yes,Male,"Brazil, Chile, USA",No,478306.19999980927,NA,null,<p></p>,null,choice,tdc,trinary,attraction,1,televisions,null,null,null,null,null,null,1,NA,NA,NA,NA,NA,NA,NA,NA,NA,NA
NA,NA,NA,NA,NA,choice_trial,survey-html-form,29,198800,0.0-4.0-1.12,165,1,2025-05-04T20:26:19Z,b60275e29fe2361ab97ac0ac217840d7,"Mozilla/5.0 (Windows NT 10.0; Win64; x64) AppleWebKit/537.36 (KHTML, like Gecko) Chrome/135.0.0.0 Safari/537.36",WebKit,Chrome,135.0.0.0,Windows,10,https://5puzkbbxv1.cognition.run/?sona_id=49327,"en-US,en;q=0.5",u8f9tq2lojs5rsx,21,"[""Other""]",Yes,Male,"Brazil, Chile, USA",No,478306.19999980927,NA,2983,NA,"{""product_choice"":""A""}",choice,tdc,trinary,attraction,1,televisions,null,null,null,null,null,null,1,60,50,60,50,60,40,Screen size,Average lifespan,NA,NA
NA,NA,NA,NA,NA,choice_trial_setup,html-keyboard-response,30,199104,0.0-4.0-0.13,165,1,2025-05-04T20:26:19Z,b60275e29fe2361ab97ac0ac217840d7,"Mozilla/5.0 (Windows NT 10.0; Win64; x64) AppleWebKit/537.36 (KHTML, like Gecko) Chrome/135.0.0.0 Safari/537.36",WebKit,Chrome,135.0.0.0,Windows,10,https://5puzkbbxv1.cognition.run/?sona_id=49327,"en-US,en;q=0.5",u8f9tq2lojs5rsx,21,"[""Other""]",Yes,Male,"Brazil, Chile, USA",No,478306.19999980927,NA,null,<p></p>,null,choice,bw,binary,catch,null,microwave ovens,90,60,40,30,null,null,2,NA,NA,NA,NA,NA,NA,NA,NA,NA,NA
NA,NA,NA,NA,NA,choice_trial,survey-html-form,31,203153,0.0-4.0-1.13,165,1,2025-05-04T20:26:19Z,b60275e29fe2361ab97ac0ac217840d7,"Mozilla/5.0 (Windows NT 10.0; Win64; x64) AppleWebKit/537.36 (KHTML, like Gecko) Chrome/135.0.0.0 Safari/537.36",WebKit,Chrome,135.0.0.0,Windows,10,https://5puzkbbxv1.cognition.run/?sona_id=49327,"en-US,en;q=0.5",u8f9tq2lojs5rsx,21,"[""Other""]",Yes,Male,"Brazil, Chile, USA",No,478306.19999980927,NA,4046,NA,"{""product_choice"":""A""}",choice,bw,binary,catch,null,microwave ovens,90,60,40,30,null,null,2,null,null,null,null,null,null,Warranty,Cooking power,NA,NA
NA,NA,NA,NA,NA,choice_trial_setup,html-keyboard-response,32,203457,0.0-4.0-0.14,165,1,2025-05-04T20:26:19Z,b60275e29fe2361ab97ac0ac217840d7,"Mozilla/5.0 (Windows NT 10.0; Win64; x64) AppleWebKit/537.36 (KHTML, like Gecko) Chrome/135.0.0.0 Safari/537.36",WebKit,Chrome,135.0.0.0,Windows,10,https://5puzkbbxv1.cognition.run/?sona_id=49327,"en-US,en;q=0.5",u8f9tq2lojs5rsx,21,"[""Other""]",Yes,Male,"Brazil, Chile, USA",No,478306.19999980927,NA,null,<p></p>,null,choice,cdt,trinary,repulsion_B,1,washing machines,null,null,null,null,null,null,1,NA,NA,NA,NA,NA,NA,NA,NA,NA,NA
NA,NA,NA,NA,NA,choice_trial,survey-html-form,33,208449,0.0-4.0-1.14,165,1,2025-05-04T20:26:19Z,b60275e29fe2361ab97ac0ac217840d7,"Mozilla/5.0 (Windows NT 10.0; Win64; x64) AppleWebKit/537.36 (KHTML, like Gecko) Chrome/135.0.0.0 Safari/537.36",WebKit,Chrome,135.0.0.0,Windows,10,https://5puzkbbxv1.cognition.run/?sona_id=49327,"en-US,en;q=0.5",u8f9tq2lojs5rsx,21,"[""Other""]",Yes,Male,"Brazil, Chile, USA",No,478306.19999980927,NA,4988,NA,"{""product_choice"":""C""}",choice,cdt,trinary,repulsion_B,1,washing machines,null,null,null,null,null,null,1,90,100,80,40,30,40,Average lifespan,Energy savings,NA,NA
NA,NA,NA,NA,NA,choice_trial_setup,html-keyboard-response,34,208757,0.0-4.0-0.15,165,1,2025-05-04T20:26:19Z,b60275e29fe2361ab97ac0ac217840d7,"Mozilla/5.0 (Windows NT 10.0; Win64; x64) AppleWebKit/537.36 (KHTML, like Gecko) Chrome/135.0.0.0 Safari/537.36",WebKit,Chrome,135.0.0.0,Windows,10,https://5puzkbbxv1.cognition.run/?sona_id=49327,"en-US,en;q=0.5",u8f9tq2lojs5rsx,21,"[""Other""]",Yes,Male,"Brazil, Chile, USA",No,478306.19999980927,NA,null,<p></p>,null,choice,ctd,trinary,attraction,1,microwave ovens,null,null,null,null,null,null,1,NA,NA,NA,NA,NA,NA,NA,NA,NA,NA
NA,NA,NA,NA,NA,choice_trial,survey-html-form,35,214372,0.0-4.0-1.15,165,1,2025-05-04T20:26:19Z,b60275e29fe2361ab97ac0ac217840d7,"Mozilla/5.0 (Windows NT 10.0; Win64; x64) AppleWebKit/537.36 (KHTML, like Gecko) Chrome/135.0.0.0 Safari/537.36",WebKit,Chrome,135.0.0.0,Windows,10,https://5puzkbbxv1.cognition.run/?sona_id=49327,"en-US,en;q=0.5",u8f9tq2lojs5rsx,21,"[""Other""]",Yes,Male,"Brazil, Chile, USA",No,478306.19999980927,NA,5609,NA,"{""product_choice"":""B""}",choice,ctd,trinary,attraction,1,microwave ovens,null,null,null,null,null,null,1,60,50,60,50,60,40,Warranty,Cooking power,NA,NA
NA,NA,NA,NA,NA,choice_trial_setup,html-keyboard-response,36,214676,0.0-4.0-0.16,165,1,2025-05-04T20:26:19Z,b60275e29fe2361ab97ac0ac217840d7,"Mozilla/5.0 (Windows NT 10.0; Win64; x64) AppleWebKit/537.36 (KHTML, like Gecko) Chrome/135.0.0.0 Safari/537.36",WebKit,Chrome,135.0.0.0,Windows,10,https://5puzkbbxv1.cognition.run/?sona_id=49327,"en-US,en;q=0.5",u8f9tq2lojs5rsx,21,"[""Other""]",Yes,Male,"Brazil, Chile, USA",No,478306.19999980927,NA,null,<p></p>,null,choice,ct,binary,repulsion,1,laptops,null,null,null,null,null,null,2,NA,NA,NA,NA,NA,NA,NA,NA,NA,NA
NA,NA,NA,NA,NA,choice_trial,survey-html-form,37,217969,0.0-4.0-1.16,165,1,2025-05-04T20:26:19Z,b60275e29fe2361ab97ac0ac217840d7,"Mozilla/5.0 (Windows NT 10.0; Win64; x64) AppleWebKit/537.36 (KHTML, like Gecko) Chrome/135.0.0.0 Safari/537.36",WebKit,Chrome,135.0.0.0,Windows,10,https://5puzkbbxv1.cognition.run/?sona_id=49327,"en-US,en;q=0.5",u8f9tq2lojs5rsx,21,"[""Other""]",Yes,Male,"Brazil, Chile, USA",No,478306.19999980927,NA,3290,NA,"{""product_choice"":""A""}",choice,ct,binary,repulsion,1,laptops,null,null,null,null,null,null,2,100,90,null,30,40,null,Processing speed,Memory (RAM),NA,NA
NA,NA,NA,NA,NA,choice_trial_setup,html-keyboard-response,38,218273,0.0-4.0-0.17,165,1,2025-05-04T20:26:19Z,b60275e29fe2361ab97ac0ac217840d7,"Mozilla/5.0 (Windows NT 10.0; Win64; x64) AppleWebKit/537.36 (KHTML, like Gecko) Chrome/135.0.0.0 Safari/537.36",WebKit,Chrome,135.0.0.0,Windows,10,https://5puzkbbxv1.cognition.run/?sona_id=49327,"en-US,en;q=0.5",u8f9tq2lojs5rsx,21,"[""Other""]",Yes,Male,"Brazil, Chile, USA",No,478306.19999980927,NA,null,<p></p>,null,choice,ct,binary,repulsion,2,televisions,null,null,null,null,null,null,2,NA,NA,NA,NA,NA,NA,NA,NA,NA,NA
NA,NA,NA,NA,NA,choice_trial,survey-html-form,39,220847,0.0-4.0-1.17,165,1,2025-05-04T20:26:19Z,b60275e29fe2361ab97ac0ac217840d7,"Mozilla/5.0 (Windows NT 10.0; Win64; x64) AppleWebKit/537.36 (KHTML, like Gecko) Chrome/135.0.0.0 Safari/537.36",WebKit,Chrome,135.0.0.0,Windows,10,https://5puzkbbxv1.cognition.run/?sona_id=49327,"en-US,en;q=0.5",u8f9tq2lojs5rsx,21,"[""Other""]",Yes,Male,"Brazil, Chile, USA",No,478306.19999980927,NA,2573,NA,"{""product_choice"":""A""}",choice,ct,binary,repulsion,2,televisions,null,null,null,null,null,null,2,30,40,null,100,90,null,Screen size,Average lifespan,NA,NA
NA,NA,NA,NA,NA,choice_trial_setup,html-keyboard-response,40,221150,0.0-4.0-0.18,165,1,2025-05-04T20:26:19Z,b60275e29fe2361ab97ac0ac217840d7,"Mozilla/5.0 (Windows NT 10.0; Win64; x64) AppleWebKit/537.36 (KHTML, like Gecko) Chrome/135.0.0.0 Safari/537.36",WebKit,Chrome,135.0.0.0,Windows,10,https://5puzkbbxv1.cognition.run/?sona_id=49327,"en-US,en;q=0.5",u8f9tq2lojs5rsx,21,"[""Other""]",Yes,Male,"Brazil, Chile, USA",No,478306.19999980927,NA,null,<p></p>,null,choice,tc,binary,attraction,NA,washing machines,null,null,null,null,null,null,1,NA,NA,NA,NA,NA,NA,NA,NA,NA,NA
NA,NA,NA,NA,NA,choice_trial,survey-html-form,41,224820,0.0-4.0-1.18,165,1,2025-05-04T20:26:19Z,b60275e29fe2361ab97ac0ac217840d7,"Mozilla/5.0 (Windows NT 10.0; Win64; x64) AppleWebKit/537.36 (KHTML, like Gecko) Chrome/135.0.0.0 Safari/537.36",WebKit,Chrome,135.0.0.0,Windows,10,https://5puzkbbxv1.cognition.run/?sona_id=49327,"en-US,en;q=0.5",u8f9tq2lojs5rsx,21,"[""Other""]",Yes,Male,"Brazil, Chile, USA",No,478306.19999980927,NA,3668,NA,"{""product_choice"":""A""}",choice,tc,binary,attraction,NA,washing machines,null,null,null,null,null,null,1,60,50,null,50,60,null,Average lifespan,Energy savings,NA,NA
NA,NA,NA,NA,NA,choice_trial_setup,html-keyboard-response,42,225125,0.0-4.0-0.19,165,1,2025-05-04T20:26:19Z,b60275e29fe2361ab97ac0ac217840d7,"Mozilla/5.0 (Windows NT 10.0; Win64; x64) AppleWebKit/537.36 (KHTML, like Gecko) Chrome/135.0.0.0 Safari/537.36",WebKit,Chrome,135.0.0.0,Windows,10,https://5puzkbbxv1.cognition.run/?sona_id=49327,"en-US,en;q=0.5",u8f9tq2lojs5rsx,21,"[""Other""]",Yes,Male,"Brazil, Chile, USA",No,478306.19999980927,NA,null,<p></p>,null,choice,wb,binary,catch,null,washing machines,50,55,45,15,null,null,2,NA,NA,NA,NA,NA,NA,NA,NA,NA,NA
NA,NA,NA,NA,NA,choice_trial,survey-html-form,43,227919,0.0-4.0-1.19,165,1,2025-05-04T20:26:19Z,b60275e29fe2361ab97ac0ac217840d7,"Mozilla/5.0 (Windows NT 10.0; Win64; x64) AppleWebKit/537.36 (KHTML, like Gecko) Chrome/135.0.0.0 Safari/537.36",WebKit,Chrome,135.0.0.0,Windows,10,https://5puzkbbxv1.cognition.run/?sona_id=49327,"en-US,en;q=0.5",u8f9tq2lojs5rsx,21,"[""Other""]",Yes,Male,"Brazil, Chile, USA",No,478306.19999980927,NA,2788,NA,"{""product_choice"":""B""}",choice,wb,binary,catch,null,washing machines,50,55,45,15,null,null,2,null,null,null,null,null,null,Average lifespan,Energy savings,NA,NA
NA,NA,NA,NA,NA,choice_trial_setup,html-keyboard-response,44,228223,0.0-4.0-0.20,165,1,2025-05-04T20:26:19Z,b60275e29fe2361ab97ac0ac217840d7,"Mozilla/5.0 (Windows NT 10.0; Win64; x64) AppleWebKit/537.36 (KHTML, like Gecko) Chrome/135.0.0.0 Safari/537.36",WebKit,Chrome,135.0.0.0,Windows,10,https://5puzkbbxv1.cognition.run/?sona_id=49327,"en-US,en;q=0.5",u8f9tq2lojs5rsx,21,"[""Other""]",Yes,Male,"Brazil, Chile, USA",No,478306.19999980927,NA,null,<p></p>,null,choice,tcd,trinary,attraction,2,microwave ovens,null,null,null,null,null,null,1,NA,NA,NA,NA,NA,NA,NA,NA,NA,NA
NA,NA,NA,NA,NA,choice_trial,survey-html-form,45,230372,0.0-4.0-1.20,165,1,2025-05-04T20:26:19Z,b60275e29fe2361ab97ac0ac217840d7,"Mozilla/5.0 (Windows NT 10.0; Win64; x64) AppleWebKit/537.36 (KHTML, like Gecko) Chrome/135.0.0.0 Safari/537.36",WebKit,Chrome,135.0.0.0,Windows,10,https://5puzkbbxv1.cognition.run/?sona_id=49327,"en-US,en;q=0.5",u8f9tq2lojs5rsx,21,"[""Other""]",Yes,Male,"Brazil, Chile, USA",No,478306.19999980927,NA,2144,NA,"{""product_choice"":""A""}",choice,tcd,trinary,attraction,2,microwave ovens,null,null,null,null,null,null,1,50,60,40,60,50,60,Warranty,Cooking power,NA,NA
NA,NA,NA,NA,NA,choice_trial_setup,html-keyboard-response,46,230676,0.0-4.0-0.21,165,1,2025-05-04T20:26:19Z,b60275e29fe2361ab97ac0ac217840d7,"Mozilla/5.0 (Windows NT 10.0; Win64; x64) AppleWebKit/537.36 (KHTML, like Gecko) Chrome/135.0.0.0 Safari/537.36",WebKit,Chrome,135.0.0.0,Windows,10,https://5puzkbbxv1.cognition.run/?sona_id=49327,"en-US,en;q=0.5",u8f9tq2lojs5rsx,21,"[""Other""]",Yes,Male,"Brazil, Chile, USA",No,478306.19999980927,NA,null,<p></p>,null,choice,cdt,trinary,repulsion_A,2,microwave ovens,null,null,null,null,null,null,1,NA,NA,NA,NA,NA,NA,NA,NA,NA,NA
NA,NA,NA,NA,NA,choice_trial,survey-html-form,47,235716,0.0-4.0-1.21,165,1,2025-05-04T20:26:19Z,b60275e29fe2361ab97ac0ac217840d7,"Mozilla/5.0 (Windows NT 10.0; Win64; x64) AppleWebKit/537.36 (KHTML, like Gecko) Chrome/135.0.0.0 Safari/537.36",WebKit,Chrome,135.0.0.0,Windows,10,https://5puzkbbxv1.cognition.run/?sona_id=49327,"en-US,en;q=0.5",u8f9tq2lojs5rsx,21,"[""Other""]",Yes,Male,"Brazil, Chile, USA",No,478306.19999980927,NA,5035,NA,"{""product_choice"":""A""}",choice,cdt,trinary,repulsion_A,2,microwave ovens,null,null,null,null,null,null,1,30,40,20,100,90,100,Warranty,Cooking power,NA,NA
NA,NA,NA,NA,NA,choice_trial_setup,html-keyboard-response,48,236021,0.0-4.0-0.22,165,1,2025-05-04T20:26:19Z,b60275e29fe2361ab97ac0ac217840d7,"Mozilla/5.0 (Windows NT 10.0; Win64; x64) AppleWebKit/537.36 (KHTML, like Gecko) Chrome/135.0.0.0 Safari/537.36",WebKit,Chrome,135.0.0.0,Windows,10,https://5puzkbbxv1.cognition.run/?sona_id=49327,"en-US,en;q=0.5",u8f9tq2lojs5rsx,21,"[""Other""]",Yes,Male,"Brazil, Chile, USA",No,478306.19999980927,NA,null,<p></p>,null,choice,tc,binary,repulsion,2,washing machines,null,null,null,null,null,null,1,NA,NA,NA,NA,NA,NA,NA,NA,NA,NA
NA,NA,NA,NA,NA,choice_trial,survey-html-form,49,239517,0.0-4.0-1.22,165,1,2025-05-04T20:26:19Z,b60275e29fe2361ab97ac0ac217840d7,"Mozilla/5.0 (Windows NT 10.0; Win64; x64) AppleWebKit/537.36 (KHTML, like Gecko) Chrome/135.0.0.0 Safari/537.36",WebKit,Chrome,135.0.0.0,Windows,10,https://5puzkbbxv1.cognition.run/?sona_id=49327,"en-US,en;q=0.5",u8f9tq2lojs5rsx,21,"[""Other""]",Yes,Male,"Brazil, Chile, USA",No,478306.19999980927,NA,3491,NA,"{""product_choice"":""B""}",choice,tc,binary,repulsion,2,washing machines,null,null,null,null,null,null,1,30,40,null,100,90,null,Average lifespan,Energy savings,NA,NA
NA,NA,NA,NA,NA,choice_trial_setup,html-keyboard-response,50,239819,0.0-4.0-0.23,165,1,2025-05-04T20:26:19Z,b60275e29fe2361ab97ac0ac217840d7,"Mozilla/5.0 (Windows NT 10.0; Win64; x64) AppleWebKit/537.36 (KHTML, like Gecko) Chrome/135.0.0.0 Safari/537.36",WebKit,Chrome,135.0.0.0,Windows,10,https://5puzkbbxv1.cognition.run/?sona_id=49327,"en-US,en;q=0.5",u8f9tq2lojs5rsx,21,"[""Other""]",Yes,Male,"Brazil, Chile, USA",No,478306.19999980927,NA,null,<p></p>,null,choice,tdc,trinary,repulsion_B,1,televisions,null,null,null,null,null,null,1,NA,NA,NA,NA,NA,NA,NA,NA,NA,NA
NA,NA,NA,NA,NA,choice_trial,survey-html-form,51,243350,0.0-4.0-1.23,165,1,2025-05-04T20:26:19Z,b60275e29fe2361ab97ac0ac217840d7,"Mozilla/5.0 (Windows NT 10.0; Win64; x64) AppleWebKit/537.36 (KHTML, like Gecko) Chrome/135.0.0.0 Safari/537.36",WebKit,Chrome,135.0.0.0,Windows,10,https://5puzkbbxv1.cognition.run/?sona_id=49327,"en-US,en;q=0.5",u8f9tq2lojs5rsx,21,"[""Other""]",Yes,Male,"Brazil, Chile, USA",No,478306.19999980927,NA,3529,NA,"{""product_choice"":""A""}",choice,tdc,trinary,repulsion_B,1,televisions,null,null,null,null,null,null,1,90,100,80,40,30,40,Screen size,Average lifespan,NA,NA
NA,NA,NA,NA,NA,choice_trial_setup,html-keyboard-response,52,243655,0.0-4.0-0.24,165,1,2025-05-04T20:26:19Z,b60275e29fe2361ab97ac0ac217840d7,"Mozilla/5.0 (Windows NT 10.0; Win64; x64) AppleWebKit/537.36 (KHTML, like Gecko) Chrome/135.0.0.0 Safari/537.36",WebKit,Chrome,135.0.0.0,Windows,10,https://5puzkbbxv1.cognition.run/?sona_id=49327,"en-US,en;q=0.5",u8f9tq2lojs5rsx,21,"[""Other""]",Yes,Male,"Brazil, Chile, USA",No,478306.19999980927,NA,null,<p></p>,null,choice,bww,trinary,catch,null,microwave ovens,65,75,30,35,20,50,2,NA,NA,NA,NA,NA,NA,NA,NA,NA,NA
NA,NA,NA,NA,NA,choice_trial,survey-html-form,53,247247,0.0-4.0-1.24,165,1,2025-05-04T20:26:19Z,b60275e29fe2361ab97ac0ac217840d7,"Mozilla/5.0 (Windows NT 10.0; Win64; x64) AppleWebKit/537.36 (KHTML, like Gecko) Chrome/135.0.0.0 Safari/537.36",WebKit,Chrome,135.0.0.0,Windows,10,https://5puzkbbxv1.cognition.run/?sona_id=49327,"en-US,en;q=0.5",u8f9tq2lojs5rsx,21,"[""Other""]",Yes,Male,"Brazil, Chile, USA",No,478306.19999980927,NA,3587,NA,"{""product_choice"":""A""}",choice,bww,trinary,catch,null,microwave ovens,65,75,30,35,20,50,2,null,null,null,null,null,null,Warranty,Cooking power,NA,NA
NA,NA,NA,NA,NA,choice_trial_setup,html-keyboard-response,54,247553,0.0-4.0-0.25,165,1,2025-05-04T20:26:19Z,b60275e29fe2361ab97ac0ac217840d7,"Mozilla/5.0 (Windows NT 10.0; Win64; x64) AppleWebKit/537.36 (KHTML, like Gecko) Chrome/135.0.0.0 Safari/537.36",WebKit,Chrome,135.0.0.0,Windows,10,https://5puzkbbxv1.cognition.run/?sona_id=49327,"en-US,en;q=0.5",u8f9tq2lojs5rsx,21,"[""Other""]",Yes,Male,"Brazil, Chile, USA",No,478306.19999980927,NA,null,<p></p>,null,choice,bw,binary,catch,null,laptops,85,65,5,20,null,null,1,NA,NA,NA,NA,NA,NA,NA,NA,NA,NA
NA,NA,NA,NA,NA,choice_trial,survey-html-form,55,249607,0.0-4.0-1.25,165,1,2025-05-04T20:26:19Z,b60275e29fe2361ab97ac0ac217840d7,"Mozilla/5.0 (Windows NT 10.0; Win64; x64) AppleWebKit/537.36 (KHTML, like Gecko) Chrome/135.0.0.0 Safari/537.36",WebKit,Chrome,135.0.0.0,Windows,10,https://5puzkbbxv1.cognition.run/?sona_id=49327,"en-US,en;q=0.5",u8f9tq2lojs5rsx,21,"[""Other""]",Yes,Male,"Brazil, Chile, USA",No,478306.19999980927,NA,2049,NA,"{""product_choice"":""A""}",choice,bw,binary,catch,null,laptops,85,65,5,20,null,null,1,null,null,null,null,null,null,Processing speed,Memory (RAM),NA,NA
NA,NA,NA,NA,NA,choice_trial_setup,html-keyboard-response,56,249916,0.0-4.0-0.26,165,1,2025-05-04T20:26:19Z,b60275e29fe2361ab97ac0ac217840d7,"Mozilla/5.0 (Windows NT 10.0; Win64; x64) AppleWebKit/537.36 (KHTML, like Gecko) Chrome/135.0.0.0 Safari/537.36",WebKit,Chrome,135.0.0.0,Windows,10,https://5puzkbbxv1.cognition.run/?sona_id=49327,"en-US,en;q=0.5",u8f9tq2lojs5rsx,21,"[""Other""]",Yes,Male,"Brazil, Chile, USA",No,478306.19999980927,NA,null,<p></p>,null,choice,ctd,trinary,repulsion_A,2,televisions,null,null,null,null,null,null,2,NA,NA,NA,NA,NA,NA,NA,NA,NA,NA
NA,NA,NA,NA,NA,choice_trial,survey-html-form,57,253192,0.0-4.0-1.26,165,1,2025-05-04T20:26:19Z,b60275e29fe2361ab97ac0ac217840d7,"Mozilla/5.0 (Windows NT 10.0; Win64; x64) AppleWebKit/537.36 (KHTML, like Gecko) Chrome/135.0.0.0 Safari/537.36",WebKit,Chrome,135.0.0.0,Windows,10,https://5puzkbbxv1.cognition.run/?sona_id=49327,"en-US,en;q=0.5",u8f9tq2lojs5rsx,21,"[""Other""]",Yes,Male,"Brazil, Chile, USA",No,478306.19999980927,NA,3270,NA,"{""product_choice"":""A""}",choice,ctd,trinary,repulsion_A,2,televisions,null,null,null,null,null,null,2,30,40,20,100,90,100,Screen size,Average lifespan,NA,NA
NA,NA,NA,NA,NA,choice_trial_setup,html-keyboard-response,58,253498,0.0-4.0-0.27,165,1,2025-05-04T20:26:19Z,b60275e29fe2361ab97ac0ac217840d7,"Mozilla/5.0 (Windows NT 10.0; Win64; x64) AppleWebKit/537.36 (KHTML, like Gecko) Chrome/135.0.0.0 Safari/537.36",WebKit,Chrome,135.0.0.0,Windows,10,https://5puzkbbxv1.cognition.run/?sona_id=49327,"en-US,en;q=0.5",u8f9tq2lojs5rsx,21,"[""Other""]",Yes,Male,"Brazil, Chile, USA",No,478306.19999980927,NA,null,<p></p>,null,choice,ct,binary,repulsion,1,microwave ovens,null,null,null,null,null,null,2,NA,NA,NA,NA,NA,NA,NA,NA,NA,NA
NA,NA,NA,NA,NA,choice_trial,survey-html-form,59,256060,0.0-4.0-1.27,165,1,2025-05-04T20:26:19Z,b60275e29fe2361ab97ac0ac217840d7,"Mozilla/5.0 (Windows NT 10.0; Win64; x64) AppleWebKit/537.36 (KHTML, like Gecko) Chrome/135.0.0.0 Safari/537.36",WebKit,Chrome,135.0.0.0,Windows,10,https://5puzkbbxv1.cognition.run/?sona_id=49327,"en-US,en;q=0.5",u8f9tq2lojs5rsx,21,"[""Other""]",Yes,Male,"Brazil, Chile, USA",No,478306.19999980927,NA,2557,NA,"{""product_choice"":""A""}",choice,ct,binary,repulsion,1,microwave ovens,null,null,null,null,null,null,2,100,90,null,30,40,null,Warranty,Cooking power,NA,NA
NA,NA,NA,NA,NA,choice_trial_setup,html-keyboard-response,60,256364,0.0-4.0-0.28,165,1,2025-05-04T20:26:19Z,b60275e29fe2361ab97ac0ac217840d7,"Mozilla/5.0 (Windows NT 10.0; Win64; x64) AppleWebKit/537.36 (KHTML, like Gecko) Chrome/135.0.0.0 Safari/537.36",WebKit,Chrome,135.0.0.0,Windows,10,https://5puzkbbxv1.cognition.run/?sona_id=49327,"en-US,en;q=0.5",u8f9tq2lojs5rsx,21,"[""Other""]",Yes,Male,"Brazil, Chile, USA",No,478306.19999980927,NA,null,<p></p>,null,choice,dtc,trinary,repulsion_B,1,laptops,null,null,null,null,null,null,2,NA,NA,NA,NA,NA,NA,NA,NA,NA,NA
NA,NA,NA,NA,NA,choice_trial,survey-html-form,61,259017,0.0-4.0-1.28,165,1,2025-05-04T20:26:19Z,b60275e29fe2361ab97ac0ac217840d7,"Mozilla/5.0 (Windows NT 10.0; Win64; x64) AppleWebKit/537.36 (KHTML, like Gecko) Chrome/135.0.0.0 Safari/537.36",WebKit,Chrome,135.0.0.0,Windows,10,https://5puzkbbxv1.cognition.run/?sona_id=49327,"en-US,en;q=0.5",u8f9tq2lojs5rsx,21,"[""Other""]",Yes,Male,"Brazil, Chile, USA",No,478306.19999980927,NA,2647,NA,"{""product_choice"":""B""}",choice,dtc,trinary,repulsion_B,1,laptops,null,null,null,null,null,null,2,90,100,80,40,30,40,Processing speed,Memory (RAM),NA,NA
NA,NA,NA,NA,NA,choice_trial_setup,html-keyboard-response,62,259322,0.0-4.0-0.29,165,1,2025-05-04T20:26:19Z,b60275e29fe2361ab97ac0ac217840d7,"Mozilla/5.0 (Windows NT 10.0; Win64; x64) AppleWebKit/537.36 (KHTML, like Gecko) Chrome/135.0.0.0 Safari/537.36",WebKit,Chrome,135.0.0.0,Windows,10,https://5puzkbbxv1.cognition.run/?sona_id=49327,"en-US,en;q=0.5",u8f9tq2lojs5rsx,21,"[""Other""]",Yes,Male,"Brazil, Chile, USA",No,478306.19999980927,NA,null,<p></p>,null,choice,wwb,trinary,catch,null,laptops,50,75,10,25,50,30,2,NA,NA,NA,NA,NA,NA,NA,NA,NA,NA
NA,NA,NA,NA,NA,choice_trial,survey-html-form,63,262264,0.0-4.0-1.29,165,1,2025-05-04T20:26:19Z,b60275e29fe2361ab97ac0ac217840d7,"Mozilla/5.0 (Windows NT 10.0; Win64; x64) AppleWebKit/537.36 (KHTML, like Gecko) Chrome/135.0.0.0 Safari/537.36",WebKit,Chrome,135.0.0.0,Windows,10,https://5puzkbbxv1.cognition.run/?sona_id=49327,"en-US,en;q=0.5",u8f9tq2lojs5rsx,21,"[""Other""]",Yes,Male,"Brazil, Chile, USA",No,478306.19999980927,NA,2934,NA,"{""product_choice"":""C""}",choice,wwb,trinary,catch,null,laptops,50,75,10,25,50,30,2,null,null,null,null,null,null,Processing speed,Memory (RAM),NA,NA
NA,NA,NA,NA,NA,choice_trial_setup,html-keyboard-response,64,262569,0.0-4.0-0.30,165,1,2025-05-04T20:26:19Z,b60275e29fe2361ab97ac0ac217840d7,"Mozilla/5.0 (Windows NT 10.0; Win64; x64) AppleWebKit/537.36 (KHTML, like Gecko) Chrome/135.0.0.0 Safari/537.36",WebKit,Chrome,135.0.0.0,Windows,10,https://5puzkbbxv1.cognition.run/?sona_id=49327,"en-US,en;q=0.5",u8f9tq2lojs5rsx,21,"[""Other""]",Yes,Male,"Brazil, Chile, USA",No,478306.19999980927,NA,null,<p></p>,null,choice,ctd,trinary,repulsion_B,2,washing machines,null,null,null,null,null,null,2,NA,NA,NA,NA,NA,NA,NA,NA,NA,NA
NA,NA,NA,NA,NA,choice_trial,survey-html-form,65,266660,0.0-4.0-1.30,165,1,2025-05-04T20:26:19Z,b60275e29fe2361ab97ac0ac217840d7,"Mozilla/5.0 (Windows NT 10.0; Win64; x64) AppleWebKit/537.36 (KHTML, like Gecko) Chrome/135.0.0.0 Safari/537.36",WebKit,Chrome,135.0.0.0,Windows,10,https://5puzkbbxv1.cognition.run/?sona_id=49327,"en-US,en;q=0.5",u8f9tq2lojs5rsx,21,"[""Other""]",Yes,Male,"Brazil, Chile, USA",No,478306.19999980927,NA,4083,NA,"{""product_choice"":""B""}",choice,ctd,trinary,repulsion_B,2,washing machines,null,null,null,null,null,null,2,40,30,40,90,100,80,Average lifespan,Energy savings,NA,NA
NA,NA,NA,NA,NA,choice_trial_setup,html-keyboard-response,66,266966,0.0-4.0-0.31,165,1,2025-05-04T20:26:19Z,b60275e29fe2361ab97ac0ac217840d7,"Mozilla/5.0 (Windows NT 10.0; Win64; x64) AppleWebKit/537.36 (KHTML, like Gecko) Chrome/135.0.0.0 Safari/537.36",WebKit,Chrome,135.0.0.0,Windows,10,https://5puzkbbxv1.cognition.run/?sona_id=49327,"en-US,en;q=0.5",u8f9tq2lojs5rsx,21,"[""Other""]",Yes,Male,"Brazil, Chile, USA",No,478306.19999980927,NA,null,<p></p>,null,choice,ct,binary,attraction,NA,laptops,null,null,null,null,null,null,1,NA,NA,NA,NA,NA,NA,NA,NA,NA,NA
NA,NA,NA,NA,NA,choice_trial,survey-html-form,67,269095,0.0-4.0-1.31,165,1,2025-05-04T20:26:19Z,b60275e29fe2361ab97ac0ac217840d7,"Mozilla/5.0 (Windows NT 10.0; Win64; x64) AppleWebKit/537.36 (KHTML, like Gecko) Chrome/135.0.0.0 Safari/537.36",WebKit,Chrome,135.0.0.0,Windows,10,https://5puzkbbxv1.cognition.run/?sona_id=49327,"en-US,en;q=0.5",u8f9tq2lojs5rsx,21,"[""Other""]",Yes,Male,"Brazil, Chile, USA",No,478306.19999980927,NA,2122,NA,"{""product_choice"":""B""}",choice,ct,binary,attraction,NA,laptops,null,null,null,null,null,null,1,60,50,null,50,60,null,Processing speed,Memory (RAM),NA,NA
NA,NA,NA,NA,NA,choice_trial_setup,html-keyboard-response,68,269401,0.0-4.0-0.32,165,1,2025-05-04T20:26:19Z,b60275e29fe2361ab97ac0ac217840d7,"Mozilla/5.0 (Windows NT 10.0; Win64; x64) AppleWebKit/537.36 (KHTML, like Gecko) Chrome/135.0.0.0 Safari/537.36",WebKit,Chrome,135.0.0.0,Windows,10,https://5puzkbbxv1.cognition.run/?sona_id=49327,"en-US,en;q=0.5",u8f9tq2lojs5rsx,21,"[""Other""]",Yes,Male,"Brazil, Chile, USA",No,478306.19999980927,NA,null,<p></p>,null,choice,tcd,trinary,attraction,1,laptops,null,null,null,null,null,null,1,NA,NA,NA,NA,NA,NA,NA,NA,NA,NA
NA,NA,NA,NA,NA,choice_trial,survey-html-form,69,274691,0.0-4.0-1.32,165,1,2025-05-04T20:26:19Z,b60275e29fe2361ab97ac0ac217840d7,"Mozilla/5.0 (Windows NT 10.0; Win64; x64) AppleWebKit/537.36 (KHTML, like Gecko) Chrome/135.0.0.0 Safari/537.36",WebKit,Chrome,135.0.0.0,Windows,10,https://5puzkbbxv1.cognition.run/?sona_id=49327,"en-US,en;q=0.5",u8f9tq2lojs5rsx,21,"[""Other""]",Yes,Male,"Brazil, Chile, USA",No,478306.19999980927,NA,5285,NA,"{""product_choice"":""A""}",choice,tcd,trinary,attraction,1,laptops,null,null,null,null,null,null,1,60,50,60,50,60,40,Processing speed,Memory (RAM),NA,NA
NA,NA,NA,NA,NA,choice_trial_setup,html-keyboard-response,70,274996,0.0-4.0-0.33,165,1,2025-05-04T20:26:19Z,b60275e29fe2361ab97ac0ac217840d7,"Mozilla/5.0 (Windows NT 10.0; Win64; x64) AppleWebKit/537.36 (KHTML, like Gecko) Chrome/135.0.0.0 Safari/537.36",WebKit,Chrome,135.0.0.0,Windows,10,https://5puzkbbxv1.cognition.run/?sona_id=49327,"en-US,en;q=0.5",u8f9tq2lojs5rsx,21,"[""Other""]",Yes,Male,"Brazil, Chile, USA",No,478306.19999980927,NA,null,<p></p>,null,choice,dtc,trinary,repulsion_B,1,microwave ovens,null,null,null,null,null,null,1,NA,NA,NA,NA,NA,NA,NA,NA,NA,NA
NA,NA,NA,NA,NA,choice_trial,survey-html-form,71,279538,0.0-4.0-1.33,165,1,2025-05-04T20:26:19Z,b60275e29fe2361ab97ac0ac217840d7,"Mozilla/5.0 (Windows NT 10.0; Win64; x64) AppleWebKit/537.36 (KHTML, like Gecko) Chrome/135.0.0.0 Safari/537.36",WebKit,Chrome,135.0.0.0,Windows,10,https://5puzkbbxv1.cognition.run/?sona_id=49327,"en-US,en;q=0.5",u8f9tq2lojs5rsx,21,"[""Other""]",Yes,Male,"Brazil, Chile, USA",No,478306.19999980927,NA,4536,NA,"{""product_choice"":""B""}",choice,dtc,trinary,repulsion_B,1,microwave ovens,null,null,null,null,null,null,1,90,100,80,40,30,40,Warranty,Cooking power,NA,NA
NA,NA,NA,NA,NA,choice_trial_setup,html-keyboard-response,72,279843,0.0-4.0-0.34,165,1,2025-05-04T20:26:19Z,b60275e29fe2361ab97ac0ac217840d7,"Mozilla/5.0 (Windows NT 10.0; Win64; x64) AppleWebKit/537.36 (KHTML, like Gecko) Chrome/135.0.0.0 Safari/537.36",WebKit,Chrome,135.0.0.0,Windows,10,https://5puzkbbxv1.cognition.run/?sona_id=49327,"en-US,en;q=0.5",u8f9tq2lojs5rsx,21,"[""Other""]",Yes,Male,"Brazil, Chile, USA",No,478306.19999980927,NA,null,<p></p>,null,choice,dct,trinary,repulsion_A,2,washing machines,null,null,null,null,null,null,2,NA,NA,NA,NA,NA,NA,NA,NA,NA,NA
NA,NA,NA,NA,NA,choice_trial,survey-html-form,73,283689,0.0-4.0-1.34,165,1,2025-05-04T20:26:19Z,b60275e29fe2361ab97ac0ac217840d7,"Mozilla/5.0 (Windows NT 10.0; Win64; x64) AppleWebKit/537.36 (KHTML, like Gecko) Chrome/135.0.0.0 Safari/537.36",WebKit,Chrome,135.0.0.0,Windows,10,https://5puzkbbxv1.cognition.run/?sona_id=49327,"en-US,en;q=0.5",u8f9tq2lojs5rsx,21,"[""Other""]",Yes,Male,"Brazil, Chile, USA",No,478306.19999980927,NA,3843,NA,"{""product_choice"":""C""}",choice,dct,trinary,repulsion_A,2,washing machines,null,null,null,null,null,null,2,30,40,20,100,90,100,Average lifespan,Energy savings,NA,NA
NA,NA,NA,NA,NA,choice_trial_setup,html-keyboard-response,74,283992,0.0-4.0-0.35,165,1,2025-05-04T20:26:19Z,b60275e29fe2361ab97ac0ac217840d7,"Mozilla/5.0 (Windows NT 10.0; Win64; x64) AppleWebKit/537.36 (KHTML, like Gecko) Chrome/135.0.0.0 Safari/537.36",WebKit,Chrome,135.0.0.0,Windows,10,https://5puzkbbxv1.cognition.run/?sona_id=49327,"en-US,en;q=0.5",u8f9tq2lojs5rsx,21,"[""Other""]",Yes,Male,"Brazil, Chile, USA",No,478306.19999980927,NA,null,<p></p>,null,choice,cdt,trinary,repulsion_A,2,laptops,null,null,null,null,null,null,2,NA,NA,NA,NA,NA,NA,NA,NA,NA,NA
NA,NA,NA,NA,NA,choice_trial,survey-html-form,75,286700,0.0-4.0-1.35,165,1,2025-05-04T20:26:19Z,b60275e29fe2361ab97ac0ac217840d7,"Mozilla/5.0 (Windows NT 10.0; Win64; x64) AppleWebKit/537.36 (KHTML, like Gecko) Chrome/135.0.0.0 Safari/537.36",WebKit,Chrome,135.0.0.0,Windows,10,https://5puzkbbxv1.cognition.run/?sona_id=49327,"en-US,en;q=0.5",u8f9tq2lojs5rsx,21,"[""Other""]",Yes,Male,"Brazil, Chile, USA",No,478306.19999980927,NA,2705,NA,"{""product_choice"":""C""}",choice,cdt,trinary,repulsion_A,2,laptops,null,null,null,null,null,null,2,30,40,20,100,90,100,Processing speed,Memory (RAM),NA,NA
NA,NA,NA,NA,NA,choice_trial_setup,html-keyboard-response,76,287014,0.0-4.0-0.36,165,1,2025-05-04T20:26:19Z,b60275e29fe2361ab97ac0ac217840d7,"Mozilla/5.0 (Windows NT 10.0; Win64; x64) AppleWebKit/537.36 (KHTML, like Gecko) Chrome/135.0.0.0 Safari/537.36",WebKit,Chrome,135.0.0.0,Windows,10,https://5puzkbbxv1.cognition.run/?sona_id=49327,"en-US,en;q=0.5",u8f9tq2lojs5rsx,21,"[""Other""]",Yes,Male,"Brazil, Chile, USA",No,478306.19999980927,NA,null,<p></p>,null,choice,tcd,trinary,attraction,2,washing machines,null,null,null,null,null,null,2,NA,NA,NA,NA,NA,NA,NA,NA,NA,NA
NA,NA,NA,NA,NA,choice_trial,survey-html-form,77,294533,0.0-4.0-1.36,165,1,2025-05-04T20:26:19Z,b60275e29fe2361ab97ac0ac217840d7,"Mozilla/5.0 (Windows NT 10.0; Win64; x64) AppleWebKit/537.36 (KHTML, like Gecko) Chrome/135.0.0.0 Safari/537.36",WebKit,Chrome,135.0.0.0,Windows,10,https://5puzkbbxv1.cognition.run/?sona_id=49327,"en-US,en;q=0.5",u8f9tq2lojs5rsx,21,"[""Other""]",Yes,Male,"Brazil, Chile, USA",No,478306.19999980927,NA,7516,NA,"{""product_choice"":""A""}",choice,tcd,trinary,attraction,2,washing machines,null,null,null,null,null,null,2,50,60,40,60,50,60,Average lifespan,Energy savings,NA,NA
NA,NA,NA,NA,NA,choice_trial_setup,html-keyboard-response,78,294838,0.0-4.0-0.37,165,1,2025-05-04T20:26:19Z,b60275e29fe2361ab97ac0ac217840d7,"Mozilla/5.0 (Windows NT 10.0; Win64; x64) AppleWebKit/537.36 (KHTML, like Gecko) Chrome/135.0.0.0 Safari/537.36",WebKit,Chrome,135.0.0.0,Windows,10,https://5puzkbbxv1.cognition.run/?sona_id=49327,"en-US,en;q=0.5",u8f9tq2lojs5rsx,21,"[""Other""]",Yes,Male,"Brazil, Chile, USA",No,478306.19999980927,NA,null,<p></p>,null,choice,ct,binary,attraction,NA,televisions,null,null,null,null,null,null,1,NA,NA,NA,NA,NA,NA,NA,NA,NA,NA
NA,NA,NA,NA,NA,choice_trial,survey-html-form,79,297279,0.0-4.0-1.37,165,1,2025-05-04T20:26:19Z,b60275e29fe2361ab97ac0ac217840d7,"Mozilla/5.0 (Windows NT 10.0; Win64; x64) AppleWebKit/537.36 (KHTML, like Gecko) Chrome/135.0.0.0 Safari/537.36",WebKit,Chrome,135.0.0.0,Windows,10,https://5puzkbbxv1.cognition.run/?sona_id=49327,"en-US,en;q=0.5",u8f9tq2lojs5rsx,21,"[""Other""]",Yes,Male,"Brazil, Chile, USA",No,478306.19999980927,NA,2435,NA,"{""product_choice"":""B""}",choice,ct,binary,attraction,NA,televisions,null,null,null,null,null,null,1,60,50,null,50,60,null,Screen size,Average lifespan,NA,NA
NA,NA,NA,NA,NA,choice_trial_setup,html-keyboard-response,80,297583,0.0-4.0-0.38,165,1,2025-05-04T20:26:19Z,b60275e29fe2361ab97ac0ac217840d7,"Mozilla/5.0 (Windows NT 10.0; Win64; x64) AppleWebKit/537.36 (KHTML, like Gecko) Chrome/135.0.0.0 Safari/537.36",WebKit,Chrome,135.0.0.0,Windows,10,https://5puzkbbxv1.cognition.run/?sona_id=49327,"en-US,en;q=0.5",u8f9tq2lojs5rsx,21,"[""Other""]",Yes,Male,"Brazil, Chile, USA",No,478306.19999980927,NA,null,<p></p>,null,choice,cdt,trinary,attraction,2,laptops,null,null,null,null,null,null,2,NA,NA,NA,NA,NA,NA,NA,NA,NA,NA
NA,NA,NA,NA,NA,choice_trial,survey-html-form,81,300080,0.0-4.0-1.38,165,1,2025-05-04T20:26:19Z,b60275e29fe2361ab97ac0ac217840d7,"Mozilla/5.0 (Windows NT 10.0; Win64; x64) AppleWebKit/537.36 (KHTML, like Gecko) Chrome/135.0.0.0 Safari/537.36",WebKit,Chrome,135.0.0.0,Windows,10,https://5puzkbbxv1.cognition.run/?sona_id=49327,"en-US,en;q=0.5",u8f9tq2lojs5rsx,21,"[""Other""]",Yes,Male,"Brazil, Chile, USA",No,478306.19999980927,NA,2490,NA,"{""product_choice"":""C""}",choice,cdt,trinary,attraction,2,laptops,null,null,null,null,null,null,2,50,60,40,60,50,60,Processing speed,Memory (RAM),NA,NA
NA,NA,NA,NA,NA,choice_trial_setup,html-keyboard-response,82,300387,0.0-4.0-0.39,165,1,2025-05-04T20:26:19Z,b60275e29fe2361ab97ac0ac217840d7,"Mozilla/5.0 (Windows NT 10.0; Win64; x64) AppleWebKit/537.36 (KHTML, like Gecko) Chrome/135.0.0.0 Safari/537.36",WebKit,Chrome,135.0.0.0,Windows,10,https://5puzkbbxv1.cognition.run/?sona_id=49327,"en-US,en;q=0.5",u8f9tq2lojs5rsx,21,"[""Other""]",Yes,Male,"Brazil, Chile, USA",No,478306.19999980927,NA,null,<p></p>,null,choice,tc,binary,attraction,NA,microwave ovens,null,null,null,null,null,null,2,NA,NA,NA,NA,NA,NA,NA,NA,NA,NA
NA,NA,NA,NA,NA,choice_trial,survey-html-form,83,302093,0.0-4.0-1.39,165,1,2025-05-04T20:26:19Z,b60275e29fe2361ab97ac0ac217840d7,"Mozilla/5.0 (Windows NT 10.0; Win64; x64) AppleWebKit/537.36 (KHTML, like Gecko) Chrome/135.0.0.0 Safari/537.36",WebKit,Chrome,135.0.0.0,Windows,10,https://5puzkbbxv1.cognition.run/?sona_id=49327,"en-US,en;q=0.5",u8f9tq2lojs5rsx,21,"[""Other""]",Yes,Male,"Brazil, Chile, USA",No,478306.19999980927,NA,1701,NA,"{""product_choice"":""B""}",choice,tc,binary,attraction,NA,microwave ovens,null,null,null,null,null,null,2,60,50,null,50,60,null,Warranty,Cooking power,NA,NA
NA,NA,NA,NA,NA,choice_trial_setup,html-keyboard-response,84,302399,0.0-4.0-0.40,165,1,2025-05-04T20:26:19Z,b60275e29fe2361ab97ac0ac217840d7,"Mozilla/5.0 (Windows NT 10.0; Win64; x64) AppleWebKit/537.36 (KHTML, like Gecko) Chrome/135.0.0.0 Safari/537.36",WebKit,Chrome,135.0.0.0,Windows,10,https://5puzkbbxv1.cognition.run/?sona_id=49327,"en-US,en;q=0.5",u8f9tq2lojs5rsx,21,"[""Other""]",Yes,Male,"Brazil, Chile, USA",No,478306.19999980927,NA,null,<p></p>,null,choice,tc,binary,repulsion,1,televisions,null,null,null,null,null,null,1,NA,NA,NA,NA,NA,NA,NA,NA,NA,NA
NA,NA,NA,NA,NA,choice_trial,survey-html-form,85,304185,0.0-4.0-1.40,165,1,2025-05-04T20:26:19Z,b60275e29fe2361ab97ac0ac217840d7,"Mozilla/5.0 (Windows NT 10.0; Win64; x64) AppleWebKit/537.36 (KHTML, like Gecko) Chrome/135.0.0.0 Safari/537.36",WebKit,Chrome,135.0.0.0,Windows,10,https://5puzkbbxv1.cognition.run/?sona_id=49327,"en-US,en;q=0.5",u8f9tq2lojs5rsx,21,"[""Other""]",Yes,Male,"Brazil, Chile, USA",No,478306.19999980927,NA,1779,NA,"{""product_choice"":""A""}",choice,tc,binary,repulsion,1,televisions,null,null,null,null,null,null,1,100,90,null,30,40,null,Screen size,Average lifespan,NA,NA
NA,NA,NA,NA,NA,choice_trial_setup,html-keyboard-response,86,304490,0.0-4.0-0.41,165,1,2025-05-04T20:26:19Z,b60275e29fe2361ab97ac0ac217840d7,"Mozilla/5.0 (Windows NT 10.0; Win64; x64) AppleWebKit/537.36 (KHTML, like Gecko) Chrome/135.0.0.0 Safari/537.36",WebKit,Chrome,135.0.0.0,Windows,10,https://5puzkbbxv1.cognition.run/?sona_id=49327,"en-US,en;q=0.5",u8f9tq2lojs5rsx,21,"[""Other""]",Yes,Male,"Brazil, Chile, USA",No,478306.19999980927,NA,null,<p></p>,null,choice,tdc,trinary,repulsion_A,1,televisions,null,null,null,null,null,null,2,NA,NA,NA,NA,NA,NA,NA,NA,NA,NA
NA,NA,NA,NA,NA,choice_trial,survey-html-form,87,308269,0.0-4.0-1.41,165,1,2025-05-04T20:26:19Z,b60275e29fe2361ab97ac0ac217840d7,"Mozilla/5.0 (Windows NT 10.0; Win64; x64) AppleWebKit/537.36 (KHTML, like Gecko) Chrome/135.0.0.0 Safari/537.36",WebKit,Chrome,135.0.0.0,Windows,10,https://5puzkbbxv1.cognition.run/?sona_id=49327,"en-US,en;q=0.5",u8f9tq2lojs5rsx,21,"[""Other""]",Yes,Male,"Brazil, Chile, USA",No,478306.19999980927,NA,3771,NA,"{""product_choice"":""C""}",choice,tdc,trinary,repulsion_A,1,televisions,null,null,null,null,null,null,2,100,90,100,30,40,20,Screen size,Average lifespan,NA,NA
NA,NA,NA,NA,NA,choice_trial_setup,html-keyboard-response,88,308575,0.0-4.0-0.42,165,1,2025-05-04T20:26:19Z,b60275e29fe2361ab97ac0ac217840d7,"Mozilla/5.0 (Windows NT 10.0; Win64; x64) AppleWebKit/537.36 (KHTML, like Gecko) Chrome/135.0.0.0 Safari/537.36",WebKit,Chrome,135.0.0.0,Windows,10,https://5puzkbbxv1.cognition.run/?sona_id=49327,"en-US,en;q=0.5",u8f9tq2lojs5rsx,21,"[""Other""]",Yes,Male,"Brazil, Chile, USA",No,478306.19999980927,NA,null,<p></p>,null,choice,cdt,trinary,repulsion_A,1,microwave ovens,null,null,null,null,null,null,2,NA,NA,NA,NA,NA,NA,NA,NA,NA,NA
NA,NA,NA,NA,NA,choice_trial,survey-html-form,89,312046,0.0-4.0-1.42,165,1,2025-05-04T20:26:19Z,b60275e29fe2361ab97ac0ac217840d7,"Mozilla/5.0 (Windows NT 10.0; Win64; x64) AppleWebKit/537.36 (KHTML, like Gecko) Chrome/135.0.0.0 Safari/537.36",WebKit,Chrome,135.0.0.0,Windows,10,https://5puzkbbxv1.cognition.run/?sona_id=49327,"en-US,en;q=0.5",u8f9tq2lojs5rsx,21,"[""Other""]",Yes,Male,"Brazil, Chile, USA",No,478306.19999980927,NA,3464,NA,"{""product_choice"":""A""}",choice,cdt,trinary,repulsion_A,1,microwave ovens,null,null,null,null,null,null,2,100,90,100,30,40,20,Warranty,Cooking power,NA,NA
NA,NA,NA,NA,NA,choice_trial_setup,html-keyboard-response,90,312350,0.0-4.0-0.43,165,1,2025-05-04T20:26:19Z,b60275e29fe2361ab97ac0ac217840d7,"Mozilla/5.0 (Windows NT 10.0; Win64; x64) AppleWebKit/537.36 (KHTML, like Gecko) Chrome/135.0.0.0 Safari/537.36",WebKit,Chrome,135.0.0.0,Windows,10,https://5puzkbbxv1.cognition.run/?sona_id=49327,"en-US,en;q=0.5",u8f9tq2lojs5rsx,21,"[""Other""]",Yes,Male,"Brazil, Chile, USA",No,478306.19999980927,NA,null,<p></p>,null,choice,cdt,trinary,attraction,2,televisions,null,null,null,null,null,null,1,NA,NA,NA,NA,NA,NA,NA,NA,NA,NA
NA,NA,NA,NA,NA,choice_trial,survey-html-form,91,318941,0.0-4.0-1.43,165,1,2025-05-04T20:26:19Z,b60275e29fe2361ab97ac0ac217840d7,"Mozilla/5.0 (Windows NT 10.0; Win64; x64) AppleWebKit/537.36 (KHTML, like Gecko) Chrome/135.0.0.0 Safari/537.36",WebKit,Chrome,135.0.0.0,Windows,10,https://5puzkbbxv1.cognition.run/?sona_id=49327,"en-US,en;q=0.5",u8f9tq2lojs5rsx,21,"[""Other""]",Yes,Male,"Brazil, Chile, USA",No,478306.19999980927,NA,6583,NA,"{""product_choice"":""A""}",choice,cdt,trinary,attraction,2,televisions,null,null,null,null,null,null,1,50,60,40,60,50,60,Screen size,Average lifespan,NA,NA
NA,NA,NA,NA,NA,post_trials_message,html-button-response,92,322128,0.0-5.0,165,1,2025-05-04T20:26:19Z,b60275e29fe2361ab97ac0ac217840d7,"Mozilla/5.0 (Windows NT 10.0; Win64; x64) AppleWebKit/537.36 (KHTML, like Gecko) Chrome/135.0.0.0 Safari/537.36",WebKit,Chrome,135.0.0.0,Windows,10,https://5puzkbbxv1.cognition.run/?sona_id=49327,"en-US,en;q=0.5",u8f9tq2lojs5rsx,21,"[""Other""]",Yes,Male,"Brazil, Chile, USA",No,478306.19999980927,NA,3182,<p> <b>Thank you for your patience!</b></p><p>  The study will be done after completing a brief form. </p>,0,NA,NA,NA,NA,NA,NA,NA,NA,NA,NA,NA,NA,NA,NA,NA,NA,NA,NA,NA,NA,NA,NA,NA
NA,NA,NA,NA,NA,survey_message,survey-text,93,412406,0.0-6.0,165,1,2025-05-04T20:26:19Z,b60275e29fe2361ab97ac0ac217840d7,"Mozilla/5.0 (Windows NT 10.0; Win64; x64) AppleWebKit/537.36 (KHTML, like Gecko) Chrome/135.0.0.0 Safari/537.36",WebKit,Chrome,135.0.0.0,Windows,10,https://5puzkbbxv1.cognition.run/?sona_id=49327,"en-US,en;q=0.5",u8f9tq2lojs5rsx,21,"[""Other""]",Yes,Male,"Brazil, Chile, USA",No,478306.19999980927,NA,90271,NA,"{""Q0"":""its about balance the closest to 100 wins in both sides. also sometimes I would literally just choose whichever first box has a higher grade""}",NA,NA,NA,NA,NA,NA,NA,NA,NA,NA,NA,NA,NA,NA,NA,NA,NA,NA,NA,NA,NA,its about balance the closest to 100 wins in both sides. also sometimes I would literally just choose whichever first box has a higher grade,NA
NA,NA,NA,NA,NA,demo_age,survey-text,94,414223,0.0-7.0,165,1,2025-05-04T20:26:19Z,b60275e29fe2361ab97ac0ac217840d7,"Mozilla/5.0 (Windows NT 10.0; Win64; x64) AppleWebKit/537.36 (KHTML, like Gecko) Chrome/135.0.0.0 Safari/537.36",WebKit,Chrome,135.0.0.0,Windows,10,https://5puzkbbxv1.cognition.run/?sona_id=49327,"en-US,en;q=0.5",u8f9tq2lojs5rsx,21,"[""Other""]",Yes,Male,"Brazil, Chile, USA",No,478306.19999980927,NA,1811,NA,"{""Q0"":""21""}",NA,NA,NA,NA,NA,NA,NA,NA,NA,NA,NA,NA,NA,NA,NA,NA,NA,NA,NA,NA,NA,NA,NA
NA,NA,NA,NA,NA,demo_race,survey-multi-select,95,420317,0.0-8.0,165,1,2025-05-04T20:26:19Z,b60275e29fe2361ab97ac0ac217840d7,"Mozilla/5.0 (Windows NT 10.0; Win64; x64) AppleWebKit/537.36 (KHTML, like Gecko) Chrome/135.0.0.0 Safari/537.36",WebKit,Chrome,135.0.0.0,Windows,10,https://5puzkbbxv1.cognition.run/?sona_id=49327,"en-US,en;q=0.5",u8f9tq2lojs5rsx,21,"[""Other""]",Yes,Male,"Brazil, Chile, USA",No,478306.19999980927,NA,6089,NA,"{""Q0"":[""Other""]}",NA,NA,NA,NA,NA,NA,NA,NA,NA,NA,NA,NA,NA,NA,NA,NA,NA,NA,NA,NA,NA,NA,[0]
NA,NA,NA,NA,NA,demo_ethnicity_gender,survey-multi-choice,96,429226,0.0-9.0,165,1,2025-05-04T20:26:19Z,b60275e29fe2361ab97ac0ac217840d7,"Mozilla/5.0 (Windows NT 10.0; Win64; x64) AppleWebKit/537.36 (KHTML, like Gecko) Chrome/135.0.0.0 Safari/537.36",WebKit,Chrome,135.0.0.0,Windows,10,https://5puzkbbxv1.cognition.run/?sona_id=49327,"en-US,en;q=0.5",u8f9tq2lojs5rsx,21,"[""Other""]",Yes,Male,"Brazil, Chile, USA",No,478306.19999980927,NA,8902,NA,"{""Q0"":""Yes"",""Q1"":""Male""}",NA,NA,NA,NA,NA,NA,NA,NA,NA,NA,NA,NA,NA,NA,NA,NA,NA,NA,NA,NA,NA,NA,"[0,1]"
NA,NA,NA,NA,NA,demo_countries,survey-text,97,446392,0.0-10.0,165,1,2025-05-04T20:26:19Z,b60275e29fe2361ab97ac0ac217840d7,"Mozilla/5.0 (Windows NT 10.0; Win64; x64) AppleWebKit/537.36 (KHTML, like Gecko) Chrome/135.0.0.0 Safari/537.36",WebKit,Chrome,135.0.0.0,Windows,10,https://5puzkbbxv1.cognition.run/?sona_id=49327,"en-US,en;q=0.5",u8f9tq2lojs5rsx,21,"[""Other""]",Yes,Male,"Brazil, Chile, USA",No,478306.19999980927,NA,17150,NA,"{""Q0"":""Brazil, Chile, USA""}",NA,NA,NA,NA,NA,NA,NA,NA,NA,NA,NA,NA,NA,NA,NA,NA,NA,NA,NA,NA,NA,NA,NA
NA,NA,NA,NA,NA,demo_prev_study,survey-multi-choice,98,451883,0.0-11.0,165,1,2025-05-04T20:26:19Z,b60275e29fe2361ab97ac0ac217840d7,"Mozilla/5.0 (Windows NT 10.0; Win64; x64) AppleWebKit/537.36 (KHTML, like Gecko) Chrome/135.0.0.0 Safari/537.36",WebKit,Chrome,135.0.0.0,Windows,10,https://5puzkbbxv1.cognition.run/?sona_id=49327,"en-US,en;q=0.5",u8f9tq2lojs5rsx,21,"[""Other""]",Yes,Male,"Brazil, Chile, USA",No,478306.19999980927,NA,5483,NA,"{""Q0"":""No""}",NA,NA,NA,NA,NA,NA,NA,NA,NA,NA,NA,NA,NA,NA,NA,NA,NA,NA,NA,NA,NA,NA,[0]
NA,NA,NA,NA,NA,post_survey_message,html-keyboard-response,99,456979,0.0-12.0,165,1,2025-05-04T20:26:19Z,b60275e29fe2361ab97ac0ac217840d7,"Mozilla/5.0 (Windows NT 10.0; Win64; x64) AppleWebKit/537.36 (KHTML, like Gecko) Chrome/135.0.0.0 Safari/537.36",WebKit,Chrome,135.0.0.0,Windows,10,https://5puzkbbxv1.cognition.run/?sona_id=49327,"en-US,en;q=0.5",u8f9tq2lojs5rsx,21,"[""Other""]",Yes,Male,"Brazil, Chile, USA",No,478306.19999980927,NA,5093,NA,j,NA,NA,NA,NA,NA,NA,NA,NA,NA,NA,NA,NA,NA,NA,NA,NA,NA,NA,NA,NA,NA,NA,NA
NA,NA,NA,NA,NA,debrief,image-keyboard-response,100,478305,0.0-13.0,165,1,2025-05-04T20:26:19Z,b60275e29fe2361ab97ac0ac217840d7,"Mozilla/5.0 (Windows NT 10.0; Win64; x64) AppleWebKit/537.36 (KHTML, like Gecko) Chrome/135.0.0.0 Safari/537.36",WebKit,Chrome,135.0.0.0,Windows,10,https://5puzkbbxv1.cognition.run/?sona_id=49327,"en-US,en;q=0.5",u8f9tq2lojs5rsx,21,"[""Other""]",Yes,Male,"Brazil, Chile, USA",No,478306.19999980927,NA,21315,Judg_choice_debrief.png,p,NA,NA,NA,NA,NA,NA,NA,NA,NA,NA,NA,NA,NA,NA,NA,NA,NA,NA,NA,NA,NA,NA,NA
