success,timeout,failed_images,failed_audio,failed_video,screen_id,trial_type,trial_index,time_elapsed,internal_node_id,run_id,condition,recorded_at,source_code_version,user_agent,device,browser,browser_version,platform,platform_version,referer,accept_language,ppt_id,age,race,ethnicity,gender,other_countries,prev_study,exp_duration,view_history,rt,stimulus,response,phase,order,set,effect,t_high,category,d1_best,d2_best,d1_worst1,d2_worst1,d1_worst2,d2_worst2,first_dim,d1_t,d1_c,d1_d,d2_t,d2_c,d2_d,d1_name,d2_name,strategy_response,question_order
TRUE,FALSE,[],[],[],img preload,preload,0,221,0.0-0.0,169,1,2025-05-04T23:45:22Z,b60275e29fe2361ab97ac0ac217840d7,Mozilla/5.0 (Windows NT 10.0; Win64; x64; rv:138.0) Gecko/20100101 Firefox/138.0,NA,Firefox,138,Windows,10,https://5puzkbbxv1.cognition.run/?sona_id=56937,"en-US,en;q=0.5",8xlfdwno941fj6c,20,"[""Other""]",Yes,Male,NA,No,684101,NA,NA,NA,NA,NA,NA,NA,NA,NA,NA,NA,NA,NA,NA,NA,NA,NA,NA,NA,NA,NA,NA,NA,NA,NA,NA,NA
NA,NA,NA,NA,NA,computer_message,instructions,1,3118,0.0-1.0,169,1,2025-05-04T23:45:22Z,b60275e29fe2361ab97ac0ac217840d7,Mozilla/5.0 (Windows NT 10.0; Win64; x64; rv:138.0) Gecko/20100101 Firefox/138.0,NA,Firefox,138,Windows,10,https://5puzkbbxv1.cognition.run/?sona_id=56937,"en-US,en;q=0.5",8xlfdwno941fj6c,20,"[""Other""]",Yes,Male,NA,No,684101,"[{""page_index"":0,""viewing_time"":2896}]",2896,NA,NA,NA,NA,NA,NA,NA,NA,NA,NA,NA,NA,NA,NA,NA,NA,NA,NA,NA,NA,NA,NA,NA,NA,NA
TRUE,NA,NA,NA,NA,NA,fullscreen,2,6044,0.0-2.0,169,1,2025-05-04T23:45:22Z,b60275e29fe2361ab97ac0ac217840d7,Mozilla/5.0 (Windows NT 10.0; Win64; x64; rv:138.0) Gecko/20100101 Firefox/138.0,NA,Firefox,138,Windows,10,https://5puzkbbxv1.cognition.run/?sona_id=56937,"en-US,en;q=0.5",8xlfdwno941fj6c,20,"[""Other""]",Yes,Male,NA,No,684101,NA,1908,NA,NA,NA,NA,NA,NA,NA,NA,NA,NA,NA,NA,NA,NA,NA,NA,NA,NA,NA,NA,NA,NA,NA,NA,NA
NA,NA,NA,NA,NA,choice_instructions,instructions,3,47197,0.0-3.0,169,1,2025-05-04T23:45:22Z,b60275e29fe2361ab97ac0ac217840d7,Mozilla/5.0 (Windows NT 10.0; Win64; x64; rv:138.0) Gecko/20100101 Firefox/138.0,NA,Firefox,138,Windows,10,https://5puzkbbxv1.cognition.run/?sona_id=56937,"en-US,en;q=0.5",8xlfdwno941fj6c,20,"[""Other""]",Yes,Male,NA,No,684101,"[{""page_index"":0,""viewing_time"":1618},{""page_index"":1,""viewing_time"":3606},{""page_index"":2,""viewing_time"":6028},{""page_index"":3,""viewing_time"":4421},{""page_index"":4,""viewing_time"":3461},{""page_index"":5,""viewing_time"":17746},{""page_index"":6,""viewing_time"":4269}]",41149,NA,NA,NA,NA,NA,NA,NA,NA,NA,NA,NA,NA,NA,NA,NA,NA,NA,NA,NA,NA,NA,NA,NA,NA,NA
NA,NA,NA,NA,NA,choice_trial_setup,html-keyboard-response,4,47512,0.0-4.0-0.0,169,1,2025-05-04T23:45:22Z,b60275e29fe2361ab97ac0ac217840d7,Mozilla/5.0 (Windows NT 10.0; Win64; x64; rv:138.0) Gecko/20100101 Firefox/138.0,NA,Firefox,138,Windows,10,https://5puzkbbxv1.cognition.run/?sona_id=56937,"en-US,en;q=0.5",8xlfdwno941fj6c,20,"[""Other""]",Yes,Male,NA,No,684101,NA,null,<p></p>,null,choice,ct,binary,repulsion,2,laptops,null,null,null,null,null,null,1,NA,NA,NA,NA,NA,NA,NA,NA,NA,NA
NA,NA,NA,NA,NA,choice_trial,survey-html-form,5,80409,0.0-4.0-1.0,169,1,2025-05-04T23:45:22Z,b60275e29fe2361ab97ac0ac217840d7,Mozilla/5.0 (Windows NT 10.0; Win64; x64; rv:138.0) Gecko/20100101 Firefox/138.0,NA,Firefox,138,Windows,10,https://5puzkbbxv1.cognition.run/?sona_id=56937,"en-US,en;q=0.5",8xlfdwno941fj6c,20,"[""Other""]",Yes,Male,NA,No,684101,NA,32895,NA,"{""product_choice"":""A""}",choice,ct,binary,repulsion,2,laptops,null,null,null,null,null,null,1,30,40,null,100,90,null,Processing speed,Memory (RAM),NA,NA
NA,NA,NA,NA,NA,choice_trial_setup,html-keyboard-response,6,80723,0.0-4.0-0.1,169,1,2025-05-04T23:45:22Z,b60275e29fe2361ab97ac0ac217840d7,Mozilla/5.0 (Windows NT 10.0; Win64; x64; rv:138.0) Gecko/20100101 Firefox/138.0,NA,Firefox,138,Windows,10,https://5puzkbbxv1.cognition.run/?sona_id=56937,"en-US,en;q=0.5",8xlfdwno941fj6c,20,"[""Other""]",Yes,Male,NA,No,684101,NA,null,<p></p>,null,choice,ct,binary,attraction,NA,microwave ovens,null,null,null,null,null,null,1,NA,NA,NA,NA,NA,NA,NA,NA,NA,NA
NA,NA,NA,NA,NA,choice_trial,survey-html-form,7,88424,0.0-4.0-1.1,169,1,2025-05-04T23:45:22Z,b60275e29fe2361ab97ac0ac217840d7,Mozilla/5.0 (Windows NT 10.0; Win64; x64; rv:138.0) Gecko/20100101 Firefox/138.0,NA,Firefox,138,Windows,10,https://5puzkbbxv1.cognition.run/?sona_id=56937,"en-US,en;q=0.5",8xlfdwno941fj6c,20,"[""Other""]",Yes,Male,NA,No,684101,NA,7698,NA,"{""product_choice"":""A""}",choice,ct,binary,attraction,NA,microwave ovens,null,null,null,null,null,null,1,60,50,null,50,60,null,Warranty,Cooking power,NA,NA
NA,NA,NA,NA,NA,choice_trial_setup,html-keyboard-response,8,88742,0.0-4.0-0.2,169,1,2025-05-04T23:45:22Z,b60275e29fe2361ab97ac0ac217840d7,Mozilla/5.0 (Windows NT 10.0; Win64; x64; rv:138.0) Gecko/20100101 Firefox/138.0,NA,Firefox,138,Windows,10,https://5puzkbbxv1.cognition.run/?sona_id=56937,"en-US,en;q=0.5",8xlfdwno941fj6c,20,"[""Other""]",Yes,Male,NA,No,684101,NA,null,<p></p>,null,choice,dtc,trinary,attraction,2,washing machines,null,null,null,null,null,null,1,NA,NA,NA,NA,NA,NA,NA,NA,NA,NA
NA,NA,NA,NA,NA,choice_trial,survey-html-form,9,101812,0.0-4.0-1.2,169,1,2025-05-04T23:45:22Z,b60275e29fe2361ab97ac0ac217840d7,Mozilla/5.0 (Windows NT 10.0; Win64; x64; rv:138.0) Gecko/20100101 Firefox/138.0,NA,Firefox,138,Windows,10,https://5puzkbbxv1.cognition.run/?sona_id=56937,"en-US,en;q=0.5",8xlfdwno941fj6c,20,"[""Other""]",Yes,Male,NA,No,684101,NA,13068,NA,"{""product_choice"":""B""}",choice,dtc,trinary,attraction,2,washing machines,null,null,null,null,null,null,1,50,60,40,60,50,60,Average lifespan,Energy savings,NA,NA
NA,NA,NA,NA,NA,choice_trial_setup,html-keyboard-response,10,102117,0.0-4.0-0.3,169,1,2025-05-04T23:45:22Z,b60275e29fe2361ab97ac0ac217840d7,Mozilla/5.0 (Windows NT 10.0; Win64; x64; rv:138.0) Gecko/20100101 Firefox/138.0,NA,Firefox,138,Windows,10,https://5puzkbbxv1.cognition.run/?sona_id=56937,"en-US,en;q=0.5",8xlfdwno941fj6c,20,"[""Other""]",Yes,Male,NA,No,684101,NA,null,<p></p>,null,choice,cdt,trinary,attraction,1,televisions,null,null,null,null,null,null,2,NA,NA,NA,NA,NA,NA,NA,NA,NA,NA
NA,NA,NA,NA,NA,choice_trial,survey-html-form,11,120232,0.0-4.0-1.3,169,1,2025-05-04T23:45:22Z,b60275e29fe2361ab97ac0ac217840d7,Mozilla/5.0 (Windows NT 10.0; Win64; x64; rv:138.0) Gecko/20100101 Firefox/138.0,NA,Firefox,138,Windows,10,https://5puzkbbxv1.cognition.run/?sona_id=56937,"en-US,en;q=0.5",8xlfdwno941fj6c,20,"[""Other""]",Yes,Male,NA,No,684101,NA,18112,NA,"{""product_choice"":""C""}",choice,cdt,trinary,attraction,1,televisions,null,null,null,null,null,null,2,60,50,60,50,60,40,Screen size,Average lifespan,NA,NA
NA,NA,NA,NA,NA,choice_trial_setup,html-keyboard-response,12,120538,0.0-4.0-0.4,169,1,2025-05-04T23:45:22Z,b60275e29fe2361ab97ac0ac217840d7,Mozilla/5.0 (Windows NT 10.0; Win64; x64; rv:138.0) Gecko/20100101 Firefox/138.0,NA,Firefox,138,Windows,10,https://5puzkbbxv1.cognition.run/?sona_id=56937,"en-US,en;q=0.5",8xlfdwno941fj6c,20,"[""Other""]",Yes,Male,NA,No,684101,NA,null,<p></p>,null,choice,dtc,trinary,repulsion_B,2,microwave ovens,null,null,null,null,null,null,2,NA,NA,NA,NA,NA,NA,NA,NA,NA,NA
NA,NA,NA,NA,NA,choice_trial,survey-html-form,13,131882,0.0-4.0-1.4,169,1,2025-05-04T23:45:22Z,b60275e29fe2361ab97ac0ac217840d7,Mozilla/5.0 (Windows NT 10.0; Win64; x64; rv:138.0) Gecko/20100101 Firefox/138.0,NA,Firefox,138,Windows,10,https://5puzkbbxv1.cognition.run/?sona_id=56937,"en-US,en;q=0.5",8xlfdwno941fj6c,20,"[""Other""]",Yes,Male,NA,No,684101,NA,11343,NA,"{""product_choice"":""C""}",choice,dtc,trinary,repulsion_B,2,microwave ovens,null,null,null,null,null,null,2,40,30,40,90,100,80,Warranty,Cooking power,NA,NA
NA,NA,NA,NA,NA,choice_trial_setup,html-keyboard-response,14,132192,0.0-4.0-0.5,169,1,2025-05-04T23:45:22Z,b60275e29fe2361ab97ac0ac217840d7,Mozilla/5.0 (Windows NT 10.0; Win64; x64; rv:138.0) Gecko/20100101 Firefox/138.0,NA,Firefox,138,Windows,10,https://5puzkbbxv1.cognition.run/?sona_id=56937,"en-US,en;q=0.5",8xlfdwno941fj6c,20,"[""Other""]",Yes,Male,NA,No,684101,NA,null,<p></p>,null,choice,dct,trinary,repulsion_A,2,microwave ovens,null,null,null,null,null,null,2,NA,NA,NA,NA,NA,NA,NA,NA,NA,NA
NA,NA,NA,NA,NA,choice_trial,survey-html-form,15,141185,0.0-4.0-1.5,169,1,2025-05-04T23:45:22Z,b60275e29fe2361ab97ac0ac217840d7,Mozilla/5.0 (Windows NT 10.0; Win64; x64; rv:138.0) Gecko/20100101 Firefox/138.0,NA,Firefox,138,Windows,10,https://5puzkbbxv1.cognition.run/?sona_id=56937,"en-US,en;q=0.5",8xlfdwno941fj6c,20,"[""Other""]",Yes,Male,NA,No,684101,NA,8990,NA,"{""product_choice"":""C""}",choice,dct,trinary,repulsion_A,2,microwave ovens,null,null,null,null,null,null,2,30,40,20,100,90,100,Warranty,Cooking power,NA,NA
NA,NA,NA,NA,NA,choice_trial_setup,html-keyboard-response,16,141502,0.0-4.0-0.6,169,1,2025-05-04T23:45:22Z,b60275e29fe2361ab97ac0ac217840d7,Mozilla/5.0 (Windows NT 10.0; Win64; x64; rv:138.0) Gecko/20100101 Firefox/138.0,NA,Firefox,138,Windows,10,https://5puzkbbxv1.cognition.run/?sona_id=56937,"en-US,en;q=0.5",8xlfdwno941fj6c,20,"[""Other""]",Yes,Male,NA,No,684101,NA,null,<p></p>,null,choice,ctd,trinary,repulsion_B,1,televisions,null,null,null,null,null,null,1,NA,NA,NA,NA,NA,NA,NA,NA,NA,NA
NA,NA,NA,NA,NA,choice_trial,survey-html-form,17,147279,0.0-4.0-1.6,169,1,2025-05-04T23:45:22Z,b60275e29fe2361ab97ac0ac217840d7,Mozilla/5.0 (Windows NT 10.0; Win64; x64; rv:138.0) Gecko/20100101 Firefox/138.0,NA,Firefox,138,Windows,10,https://5puzkbbxv1.cognition.run/?sona_id=56937,"en-US,en;q=0.5",8xlfdwno941fj6c,20,"[""Other""]",Yes,Male,NA,No,684101,NA,5775,NA,"{""product_choice"":""B""}",choice,ctd,trinary,repulsion_B,1,televisions,null,null,null,null,null,null,1,90,100,80,40,30,40,Screen size,Average lifespan,NA,NA
NA,NA,NA,NA,NA,choice_trial_setup,html-keyboard-response,18,147583,0.0-4.0-0.7,169,1,2025-05-04T23:45:22Z,b60275e29fe2361ab97ac0ac217840d7,Mozilla/5.0 (Windows NT 10.0; Win64; x64; rv:138.0) Gecko/20100101 Firefox/138.0,NA,Firefox,138,Windows,10,https://5puzkbbxv1.cognition.run/?sona_id=56937,"en-US,en;q=0.5",8xlfdwno941fj6c,20,"[""Other""]",Yes,Male,NA,No,684101,NA,null,<p></p>,null,choice,ct,binary,repulsion,2,washing machines,null,null,null,null,null,null,2,NA,NA,NA,NA,NA,NA,NA,NA,NA,NA
NA,NA,NA,NA,NA,choice_trial,survey-html-form,19,154690,0.0-4.0-1.7,169,1,2025-05-04T23:45:22Z,b60275e29fe2361ab97ac0ac217840d7,Mozilla/5.0 (Windows NT 10.0; Win64; x64; rv:138.0) Gecko/20100101 Firefox/138.0,NA,Firefox,138,Windows,10,https://5puzkbbxv1.cognition.run/?sona_id=56937,"en-US,en;q=0.5",8xlfdwno941fj6c,20,"[""Other""]",Yes,Male,NA,No,684101,NA,7106,NA,"{""product_choice"":""B""}",choice,ct,binary,repulsion,2,washing machines,null,null,null,null,null,null,2,30,40,null,100,90,null,Average lifespan,Energy savings,NA,NA
NA,NA,NA,NA,NA,choice_trial_setup,html-keyboard-response,20,154997,0.0-4.0-0.8,169,1,2025-05-04T23:45:22Z,b60275e29fe2361ab97ac0ac217840d7,Mozilla/5.0 (Windows NT 10.0; Win64; x64; rv:138.0) Gecko/20100101 Firefox/138.0,NA,Firefox,138,Windows,10,https://5puzkbbxv1.cognition.run/?sona_id=56937,"en-US,en;q=0.5",8xlfdwno941fj6c,20,"[""Other""]",Yes,Male,NA,No,684101,NA,null,<p></p>,null,choice,wb,binary,catch,null,laptops,95,55,5,15,null,null,2,NA,NA,NA,NA,NA,NA,NA,NA,NA,NA
NA,NA,NA,NA,NA,choice_trial,survey-html-form,21,169116,0.0-4.0-1.8,169,1,2025-05-04T23:45:22Z,b60275e29fe2361ab97ac0ac217840d7,Mozilla/5.0 (Windows NT 10.0; Win64; x64; rv:138.0) Gecko/20100101 Firefox/138.0,NA,Firefox,138,Windows,10,https://5puzkbbxv1.cognition.run/?sona_id=56937,"en-US,en;q=0.5",8xlfdwno941fj6c,20,"[""Other""]",Yes,Male,NA,No,684101,NA,14117,NA,"{""product_choice"":""B""}",choice,wb,binary,catch,null,laptops,95,55,5,15,null,null,2,null,null,null,null,null,null,Processing speed,Memory (RAM),NA,NA
NA,NA,NA,NA,NA,choice_trial_setup,html-keyboard-response,22,169432,0.0-4.0-0.9,169,1,2025-05-04T23:45:22Z,b60275e29fe2361ab97ac0ac217840d7,Mozilla/5.0 (Windows NT 10.0; Win64; x64; rv:138.0) Gecko/20100101 Firefox/138.0,NA,Firefox,138,Windows,10,https://5puzkbbxv1.cognition.run/?sona_id=56937,"en-US,en;q=0.5",8xlfdwno941fj6c,20,"[""Other""]",Yes,Male,NA,No,684101,NA,null,<p></p>,null,choice,tcd,trinary,repulsion_B,1,laptops,null,null,null,null,null,null,1,NA,NA,NA,NA,NA,NA,NA,NA,NA,NA
NA,NA,NA,NA,NA,choice_trial,survey-html-form,23,177180,0.0-4.0-1.9,169,1,2025-05-04T23:45:22Z,b60275e29fe2361ab97ac0ac217840d7,Mozilla/5.0 (Windows NT 10.0; Win64; x64; rv:138.0) Gecko/20100101 Firefox/138.0,NA,Firefox,138,Windows,10,https://5puzkbbxv1.cognition.run/?sona_id=56937,"en-US,en;q=0.5",8xlfdwno941fj6c,20,"[""Other""]",Yes,Male,NA,No,684101,NA,7746,NA,"{""product_choice"":""B""}",choice,tcd,trinary,repulsion_B,1,laptops,null,null,null,null,null,null,1,90,100,80,40,30,40,Processing speed,Memory (RAM),NA,NA
NA,NA,NA,NA,NA,choice_trial_setup,html-keyboard-response,24,177483,0.0-4.0-0.10,169,1,2025-05-04T23:45:22Z,b60275e29fe2361ab97ac0ac217840d7,Mozilla/5.0 (Windows NT 10.0; Win64; x64; rv:138.0) Gecko/20100101 Firefox/138.0,NA,Firefox,138,Windows,10,https://5puzkbbxv1.cognition.run/?sona_id=56937,"en-US,en;q=0.5",8xlfdwno941fj6c,20,"[""Other""]",Yes,Male,NA,No,684101,NA,null,<p></p>,null,choice,bw,binary,catch,null,televisions,95,90,50,25,null,null,1,NA,NA,NA,NA,NA,NA,NA,NA,NA,NA
NA,NA,NA,NA,NA,choice_trial,survey-html-form,25,189299,0.0-4.0-1.10,169,1,2025-05-04T23:45:22Z,b60275e29fe2361ab97ac0ac217840d7,Mozilla/5.0 (Windows NT 10.0; Win64; x64; rv:138.0) Gecko/20100101 Firefox/138.0,NA,Firefox,138,Windows,10,https://5puzkbbxv1.cognition.run/?sona_id=56937,"en-US,en;q=0.5",8xlfdwno941fj6c,20,"[""Other""]",Yes,Male,NA,No,684101,NA,11815,NA,"{""product_choice"":""A""}",choice,bw,binary,catch,null,televisions,95,90,50,25,null,null,1,null,null,null,null,null,null,Screen size,Average lifespan,NA,NA
NA,NA,NA,NA,NA,choice_trial_setup,html-keyboard-response,26,189604,0.0-4.0-0.11,169,1,2025-05-04T23:45:22Z,b60275e29fe2361ab97ac0ac217840d7,Mozilla/5.0 (Windows NT 10.0; Win64; x64; rv:138.0) Gecko/20100101 Firefox/138.0,NA,Firefox,138,Windows,10,https://5puzkbbxv1.cognition.run/?sona_id=56937,"en-US,en;q=0.5",8xlfdwno941fj6c,20,"[""Other""]",Yes,Male,NA,No,684101,NA,null,<p></p>,null,choice,bww,trinary,catch,null,washing machines,80,55,35,35,50,15,2,NA,NA,NA,NA,NA,NA,NA,NA,NA,NA
NA,NA,NA,NA,NA,choice_trial,survey-html-form,27,207218,0.0-4.0-1.11,169,1,2025-05-04T23:45:22Z,b60275e29fe2361ab97ac0ac217840d7,Mozilla/5.0 (Windows NT 10.0; Win64; x64; rv:138.0) Gecko/20100101 Firefox/138.0,NA,Firefox,138,Windows,10,https://5puzkbbxv1.cognition.run/?sona_id=56937,"en-US,en;q=0.5",8xlfdwno941fj6c,20,"[""Other""]",Yes,Male,NA,No,684101,NA,17612,NA,"{""product_choice"":""A""}",choice,bww,trinary,catch,null,washing machines,80,55,35,35,50,15,2,null,null,null,null,null,null,Average lifespan,Energy savings,NA,NA
NA,NA,NA,NA,NA,choice_trial_setup,html-keyboard-response,28,207538,0.0-4.0-0.12,169,1,2025-05-04T23:45:22Z,b60275e29fe2361ab97ac0ac217840d7,Mozilla/5.0 (Windows NT 10.0; Win64; x64; rv:138.0) Gecko/20100101 Firefox/138.0,NA,Firefox,138,Windows,10,https://5puzkbbxv1.cognition.run/?sona_id=56937,"en-US,en;q=0.5",8xlfdwno941fj6c,20,"[""Other""]",Yes,Male,NA,No,684101,NA,null,<p></p>,null,choice,wb,binary,catch,null,microwave ovens,90,55,10,30,null,null,2,NA,NA,NA,NA,NA,NA,NA,NA,NA,NA
NA,NA,NA,NA,NA,choice_trial,survey-html-form,29,214057,0.0-4.0-1.12,169,1,2025-05-04T23:45:22Z,b60275e29fe2361ab97ac0ac217840d7,Mozilla/5.0 (Windows NT 10.0; Win64; x64; rv:138.0) Gecko/20100101 Firefox/138.0,NA,Firefox,138,Windows,10,https://5puzkbbxv1.cognition.run/?sona_id=56937,"en-US,en;q=0.5",8xlfdwno941fj6c,20,"[""Other""]",Yes,Male,NA,No,684101,NA,6517,NA,"{""product_choice"":""B""}",choice,wb,binary,catch,null,microwave ovens,90,55,10,30,null,null,2,null,null,null,null,null,null,Warranty,Cooking power,NA,NA
NA,NA,NA,NA,NA,choice_trial_setup,html-keyboard-response,30,214362,0.0-4.0-0.13,169,1,2025-05-04T23:45:22Z,b60275e29fe2361ab97ac0ac217840d7,Mozilla/5.0 (Windows NT 10.0; Win64; x64; rv:138.0) Gecko/20100101 Firefox/138.0,NA,Firefox,138,Windows,10,https://5puzkbbxv1.cognition.run/?sona_id=56937,"en-US,en;q=0.5",8xlfdwno941fj6c,20,"[""Other""]",Yes,Male,NA,No,684101,NA,null,<p></p>,null,choice,tdc,trinary,repulsion_A,1,televisions,null,null,null,null,null,null,1,NA,NA,NA,NA,NA,NA,NA,NA,NA,NA
NA,NA,NA,NA,NA,choice_trial,survey-html-form,31,224261,0.0-4.0-1.13,169,1,2025-05-04T23:45:22Z,b60275e29fe2361ab97ac0ac217840d7,Mozilla/5.0 (Windows NT 10.0; Win64; x64; rv:138.0) Gecko/20100101 Firefox/138.0,NA,Firefox,138,Windows,10,https://5puzkbbxv1.cognition.run/?sona_id=56937,"en-US,en;q=0.5",8xlfdwno941fj6c,20,"[""Other""]",Yes,Male,NA,No,684101,NA,9896,NA,"{""product_choice"":""A""}",choice,tdc,trinary,repulsion_A,1,televisions,null,null,null,null,null,null,1,100,90,100,30,40,20,Screen size,Average lifespan,NA,NA
NA,NA,NA,NA,NA,choice_trial_setup,html-keyboard-response,32,224574,0.0-4.0-0.14,169,1,2025-05-04T23:45:22Z,b60275e29fe2361ab97ac0ac217840d7,Mozilla/5.0 (Windows NT 10.0; Win64; x64; rv:138.0) Gecko/20100101 Firefox/138.0,NA,Firefox,138,Windows,10,https://5puzkbbxv1.cognition.run/?sona_id=56937,"en-US,en;q=0.5",8xlfdwno941fj6c,20,"[""Other""]",Yes,Male,NA,No,684101,NA,null,<p></p>,null,choice,wbw,trinary,catch,null,televisions,80,65,25,35,15,15,2,NA,NA,NA,NA,NA,NA,NA,NA,NA,NA
NA,NA,NA,NA,NA,choice_trial,survey-html-form,33,234014,0.0-4.0-1.14,169,1,2025-05-04T23:45:22Z,b60275e29fe2361ab97ac0ac217840d7,Mozilla/5.0 (Windows NT 10.0; Win64; x64; rv:138.0) Gecko/20100101 Firefox/138.0,NA,Firefox,138,Windows,10,https://5puzkbbxv1.cognition.run/?sona_id=56937,"en-US,en;q=0.5",8xlfdwno941fj6c,20,"[""Other""]",Yes,Male,NA,No,684101,NA,9437,NA,"{""product_choice"":""B""}",choice,wbw,trinary,catch,null,televisions,80,65,25,35,15,15,2,null,null,null,null,null,null,Screen size,Average lifespan,NA,NA
NA,NA,NA,NA,NA,choice_trial_setup,html-keyboard-response,34,234330,0.0-4.0-0.15,169,1,2025-05-04T23:45:22Z,b60275e29fe2361ab97ac0ac217840d7,Mozilla/5.0 (Windows NT 10.0; Win64; x64; rv:138.0) Gecko/20100101 Firefox/138.0,NA,Firefox,138,Windows,10,https://5puzkbbxv1.cognition.run/?sona_id=56937,"en-US,en;q=0.5",8xlfdwno941fj6c,20,"[""Other""]",Yes,Male,NA,No,684101,NA,null,<p></p>,null,choice,tcd,trinary,repulsion_A,1,laptops,null,null,null,null,null,null,2,NA,NA,NA,NA,NA,NA,NA,NA,NA,NA
NA,NA,NA,NA,NA,choice_trial,survey-html-form,35,240445,0.0-4.0-1.15,169,1,2025-05-04T23:45:22Z,b60275e29fe2361ab97ac0ac217840d7,Mozilla/5.0 (Windows NT 10.0; Win64; x64; rv:138.0) Gecko/20100101 Firefox/138.0,NA,Firefox,138,Windows,10,https://5puzkbbxv1.cognition.run/?sona_id=56937,"en-US,en;q=0.5",8xlfdwno941fj6c,20,"[""Other""]",Yes,Male,NA,No,684101,NA,6111,NA,"{""product_choice"":""A""}",choice,tcd,trinary,repulsion_A,1,laptops,null,null,null,null,null,null,2,100,90,100,30,40,20,Processing speed,Memory (RAM),NA,NA
NA,NA,NA,NA,NA,choice_trial_setup,html-keyboard-response,36,240748,0.0-4.0-0.16,169,1,2025-05-04T23:45:22Z,b60275e29fe2361ab97ac0ac217840d7,Mozilla/5.0 (Windows NT 10.0; Win64; x64; rv:138.0) Gecko/20100101 Firefox/138.0,NA,Firefox,138,Windows,10,https://5puzkbbxv1.cognition.run/?sona_id=56937,"en-US,en;q=0.5",8xlfdwno941fj6c,20,"[""Other""]",Yes,Male,NA,No,684101,NA,null,<p></p>,null,choice,tdc,trinary,repulsion_B,2,laptops,null,null,null,null,null,null,1,NA,NA,NA,NA,NA,NA,NA,NA,NA,NA
NA,NA,NA,NA,NA,choice_trial,survey-html-form,37,255858,0.0-4.0-1.16,169,1,2025-05-04T23:45:22Z,b60275e29fe2361ab97ac0ac217840d7,Mozilla/5.0 (Windows NT 10.0; Win64; x64; rv:138.0) Gecko/20100101 Firefox/138.0,NA,Firefox,138,Windows,10,https://5puzkbbxv1.cognition.run/?sona_id=56937,"en-US,en;q=0.5",8xlfdwno941fj6c,20,"[""Other""]",Yes,Male,NA,No,684101,NA,15107,NA,"{""product_choice"":""C""}",choice,tdc,trinary,repulsion_B,2,laptops,null,null,null,null,null,null,1,40,30,40,90,100,80,Processing speed,Memory (RAM),NA,NA
NA,NA,NA,NA,NA,choice_trial_setup,html-keyboard-response,38,256177,0.0-4.0-0.17,169,1,2025-05-04T23:45:22Z,b60275e29fe2361ab97ac0ac217840d7,Mozilla/5.0 (Windows NT 10.0; Win64; x64; rv:138.0) Gecko/20100101 Firefox/138.0,NA,Firefox,138,Windows,10,https://5puzkbbxv1.cognition.run/?sona_id=56937,"en-US,en;q=0.5",8xlfdwno941fj6c,20,"[""Other""]",Yes,Male,NA,No,684101,NA,null,<p></p>,null,choice,bw,binary,catch,null,washing machines,65,65,10,15,null,null,1,NA,NA,NA,NA,NA,NA,NA,NA,NA,NA
NA,NA,NA,NA,NA,choice_trial,survey-html-form,39,263715,0.0-4.0-1.17,169,1,2025-05-04T23:45:22Z,b60275e29fe2361ab97ac0ac217840d7,Mozilla/5.0 (Windows NT 10.0; Win64; x64; rv:138.0) Gecko/20100101 Firefox/138.0,NA,Firefox,138,Windows,10,https://5puzkbbxv1.cognition.run/?sona_id=56937,"en-US,en;q=0.5",8xlfdwno941fj6c,20,"[""Other""]",Yes,Male,NA,No,684101,NA,7534,NA,"{""product_choice"":""A""}",choice,bw,binary,catch,null,washing machines,65,65,10,15,null,null,1,null,null,null,null,null,null,Average lifespan,Energy savings,NA,NA
NA,NA,NA,NA,NA,choice_trial_setup,html-keyboard-response,40,264031,0.0-4.0-0.18,169,1,2025-05-04T23:45:22Z,b60275e29fe2361ab97ac0ac217840d7,Mozilla/5.0 (Windows NT 10.0; Win64; x64; rv:138.0) Gecko/20100101 Firefox/138.0,NA,Firefox,138,Windows,10,https://5puzkbbxv1.cognition.run/?sona_id=56937,"en-US,en;q=0.5",8xlfdwno941fj6c,20,"[""Other""]",Yes,Male,NA,No,684101,NA,null,<p></p>,null,choice,ct,binary,attraction,NA,washing machines,null,null,null,null,null,null,1,NA,NA,NA,NA,NA,NA,NA,NA,NA,NA
NA,NA,NA,NA,NA,choice_trial,survey-html-form,41,280066,0.0-4.0-1.18,169,1,2025-05-04T23:45:22Z,b60275e29fe2361ab97ac0ac217840d7,Mozilla/5.0 (Windows NT 10.0; Win64; x64; rv:138.0) Gecko/20100101 Firefox/138.0,NA,Firefox,138,Windows,10,https://5puzkbbxv1.cognition.run/?sona_id=56937,"en-US,en;q=0.5",8xlfdwno941fj6c,20,"[""Other""]",Yes,Male,NA,No,684101,NA,16031,NA,"{""product_choice"":""A""}",choice,ct,binary,attraction,NA,washing machines,null,null,null,null,null,null,1,60,50,null,50,60,null,Average lifespan,Energy savings,NA,NA
NA,NA,NA,NA,NA,choice_trial_setup,html-keyboard-response,42,280374,0.0-4.0-0.19,169,1,2025-05-04T23:45:22Z,b60275e29fe2361ab97ac0ac217840d7,Mozilla/5.0 (Windows NT 10.0; Win64; x64; rv:138.0) Gecko/20100101 Firefox/138.0,NA,Firefox,138,Windows,10,https://5puzkbbxv1.cognition.run/?sona_id=56937,"en-US,en;q=0.5",8xlfdwno941fj6c,20,"[""Other""]",Yes,Male,NA,No,684101,NA,null,<p></p>,null,choice,ct,binary,repulsion,1,washing machines,null,null,null,null,null,null,2,NA,NA,NA,NA,NA,NA,NA,NA,NA,NA
NA,NA,NA,NA,NA,choice_trial,survey-html-form,43,283709,0.0-4.0-1.19,169,1,2025-05-04T23:45:22Z,b60275e29fe2361ab97ac0ac217840d7,Mozilla/5.0 (Windows NT 10.0; Win64; x64; rv:138.0) Gecko/20100101 Firefox/138.0,NA,Firefox,138,Windows,10,https://5puzkbbxv1.cognition.run/?sona_id=56937,"en-US,en;q=0.5",8xlfdwno941fj6c,20,"[""Other""]",Yes,Male,NA,No,684101,NA,3332,NA,"{""product_choice"":""B""}",choice,ct,binary,repulsion,1,washing machines,null,null,null,null,null,null,2,100,90,null,30,40,null,Average lifespan,Energy savings,NA,NA
NA,NA,NA,NA,NA,choice_trial_setup,html-keyboard-response,44,284023,0.0-4.0-0.20,169,1,2025-05-04T23:45:22Z,b60275e29fe2361ab97ac0ac217840d7,Mozilla/5.0 (Windows NT 10.0; Win64; x64; rv:138.0) Gecko/20100101 Firefox/138.0,NA,Firefox,138,Windows,10,https://5puzkbbxv1.cognition.run/?sona_id=56937,"en-US,en;q=0.5",8xlfdwno941fj6c,20,"[""Other""]",Yes,Male,NA,No,684101,NA,null,<p></p>,null,choice,dtc,trinary,repulsion_A,2,televisions,null,null,null,null,null,null,2,NA,NA,NA,NA,NA,NA,NA,NA,NA,NA
NA,NA,NA,NA,NA,choice_trial,survey-html-form,45,291913,0.0-4.0-1.20,169,1,2025-05-04T23:45:22Z,b60275e29fe2361ab97ac0ac217840d7,Mozilla/5.0 (Windows NT 10.0; Win64; x64; rv:138.0) Gecko/20100101 Firefox/138.0,NA,Firefox,138,Windows,10,https://5puzkbbxv1.cognition.run/?sona_id=56937,"en-US,en;q=0.5",8xlfdwno941fj6c,20,"[""Other""]",Yes,Male,NA,No,684101,NA,7888,NA,"{""product_choice"":""B""}",choice,dtc,trinary,repulsion_A,2,televisions,null,null,null,null,null,null,2,30,40,20,100,90,100,Screen size,Average lifespan,NA,NA
NA,NA,NA,NA,NA,choice_trial_setup,html-keyboard-response,46,292226,0.0-4.0-0.21,169,1,2025-05-04T23:45:22Z,b60275e29fe2361ab97ac0ac217840d7,Mozilla/5.0 (Windows NT 10.0; Win64; x64; rv:138.0) Gecko/20100101 Firefox/138.0,NA,Firefox,138,Windows,10,https://5puzkbbxv1.cognition.run/?sona_id=56937,"en-US,en;q=0.5",8xlfdwno941fj6c,20,"[""Other""]",Yes,Male,NA,No,684101,NA,null,<p></p>,null,choice,ctd,trinary,repulsion_A,2,washing machines,null,null,null,null,null,null,1,NA,NA,NA,NA,NA,NA,NA,NA,NA,NA
NA,NA,NA,NA,NA,choice_trial,survey-html-form,47,297428,0.0-4.0-1.21,169,1,2025-05-04T23:45:22Z,b60275e29fe2361ab97ac0ac217840d7,Mozilla/5.0 (Windows NT 10.0; Win64; x64; rv:138.0) Gecko/20100101 Firefox/138.0,NA,Firefox,138,Windows,10,https://5puzkbbxv1.cognition.run/?sona_id=56937,"en-US,en;q=0.5",8xlfdwno941fj6c,20,"[""Other""]",Yes,Male,NA,No,684101,NA,5199,NA,"{""product_choice"":""B""}",choice,ctd,trinary,repulsion_A,2,washing machines,null,null,null,null,null,null,1,30,40,20,100,90,100,Average lifespan,Energy savings,NA,NA
NA,NA,NA,NA,NA,choice_trial_setup,html-keyboard-response,48,297737,0.0-4.0-0.22,169,1,2025-05-04T23:45:22Z,b60275e29fe2361ab97ac0ac217840d7,Mozilla/5.0 (Windows NT 10.0; Win64; x64; rv:138.0) Gecko/20100101 Firefox/138.0,NA,Firefox,138,Windows,10,https://5puzkbbxv1.cognition.run/?sona_id=56937,"en-US,en;q=0.5",8xlfdwno941fj6c,20,"[""Other""]",Yes,Male,NA,No,684101,NA,null,<p></p>,null,choice,dct,trinary,repulsion_A,1,microwave ovens,null,null,null,null,null,null,2,NA,NA,NA,NA,NA,NA,NA,NA,NA,NA
NA,NA,NA,NA,NA,choice_trial,survey-html-form,49,300799,0.0-4.0-1.22,169,1,2025-05-04T23:45:22Z,b60275e29fe2361ab97ac0ac217840d7,Mozilla/5.0 (Windows NT 10.0; Win64; x64; rv:138.0) Gecko/20100101 Firefox/138.0,NA,Firefox,138,Windows,10,https://5puzkbbxv1.cognition.run/?sona_id=56937,"en-US,en;q=0.5",8xlfdwno941fj6c,20,"[""Other""]",Yes,Male,NA,No,684101,NA,3057,NA,"{""product_choice"":""C""}",choice,dct,trinary,repulsion_A,1,microwave ovens,null,null,null,null,null,null,2,100,90,100,30,40,20,Warranty,Cooking power,NA,NA
NA,NA,NA,NA,NA,choice_trial_setup,html-keyboard-response,50,301109,0.0-4.0-0.23,169,1,2025-05-04T23:45:22Z,b60275e29fe2361ab97ac0ac217840d7,Mozilla/5.0 (Windows NT 10.0; Win64; x64; rv:138.0) Gecko/20100101 Firefox/138.0,NA,Firefox,138,Windows,10,https://5puzkbbxv1.cognition.run/?sona_id=56937,"en-US,en;q=0.5",8xlfdwno941fj6c,20,"[""Other""]",Yes,Male,NA,No,684101,NA,null,<p></p>,null,choice,dct,trinary,repulsion_B,2,televisions,null,null,null,null,null,null,2,NA,NA,NA,NA,NA,NA,NA,NA,NA,NA
NA,NA,NA,NA,NA,choice_trial,survey-html-form,51,309620,0.0-4.0-1.23,169,1,2025-05-04T23:45:22Z,b60275e29fe2361ab97ac0ac217840d7,Mozilla/5.0 (Windows NT 10.0; Win64; x64; rv:138.0) Gecko/20100101 Firefox/138.0,NA,Firefox,138,Windows,10,https://5puzkbbxv1.cognition.run/?sona_id=56937,"en-US,en;q=0.5",8xlfdwno941fj6c,20,"[""Other""]",Yes,Male,NA,No,684101,NA,8508,NA,"{""product_choice"":""C""}",choice,dct,trinary,repulsion_B,2,televisions,null,null,null,null,null,null,2,40,30,40,90,100,80,Screen size,Average lifespan,NA,NA
NA,NA,NA,NA,NA,choice_trial_setup,html-keyboard-response,52,309927,0.0-4.0-0.24,169,1,2025-05-04T23:45:22Z,b60275e29fe2361ab97ac0ac217840d7,Mozilla/5.0 (Windows NT 10.0; Win64; x64; rv:138.0) Gecko/20100101 Firefox/138.0,NA,Firefox,138,Windows,10,https://5puzkbbxv1.cognition.run/?sona_id=56937,"en-US,en;q=0.5",8xlfdwno941fj6c,20,"[""Other""]",Yes,Male,NA,No,684101,NA,null,<p></p>,null,choice,cdt,trinary,attraction,1,laptops,null,null,null,null,null,null,2,NA,NA,NA,NA,NA,NA,NA,NA,NA,NA
NA,NA,NA,NA,NA,choice_trial,survey-html-form,53,323605,0.0-4.0-1.24,169,1,2025-05-04T23:45:22Z,b60275e29fe2361ab97ac0ac217840d7,Mozilla/5.0 (Windows NT 10.0; Win64; x64; rv:138.0) Gecko/20100101 Firefox/138.0,NA,Firefox,138,Windows,10,https://5puzkbbxv1.cognition.run/?sona_id=56937,"en-US,en;q=0.5",8xlfdwno941fj6c,20,"[""Other""]",Yes,Male,NA,No,684101,NA,13676,NA,"{""product_choice"":""C""}",choice,cdt,trinary,attraction,1,laptops,null,null,null,null,null,null,2,60,50,60,50,60,40,Processing speed,Memory (RAM),NA,NA
NA,NA,NA,NA,NA,choice_trial_setup,html-keyboard-response,54,323913,0.0-4.0-0.25,169,1,2025-05-04T23:45:22Z,b60275e29fe2361ab97ac0ac217840d7,Mozilla/5.0 (Windows NT 10.0; Win64; x64; rv:138.0) Gecko/20100101 Firefox/138.0,NA,Firefox,138,Windows,10,https://5puzkbbxv1.cognition.run/?sona_id=56937,"en-US,en;q=0.5",8xlfdwno941fj6c,20,"[""Other""]",Yes,Male,NA,No,684101,NA,null,<p></p>,null,choice,dtc,trinary,repulsion_A,1,washing machines,null,null,null,null,null,null,1,NA,NA,NA,NA,NA,NA,NA,NA,NA,NA
NA,NA,NA,NA,NA,choice_trial,survey-html-form,55,331472,0.0-4.0-1.25,169,1,2025-05-04T23:45:22Z,b60275e29fe2361ab97ac0ac217840d7,Mozilla/5.0 (Windows NT 10.0; Win64; x64; rv:138.0) Gecko/20100101 Firefox/138.0,NA,Firefox,138,Windows,10,https://5puzkbbxv1.cognition.run/?sona_id=56937,"en-US,en;q=0.5",8xlfdwno941fj6c,20,"[""Other""]",Yes,Male,NA,No,684101,NA,7554,NA,"{""product_choice"":""B""}",choice,dtc,trinary,repulsion_A,1,washing machines,null,null,null,null,null,null,1,100,90,100,30,40,20,Average lifespan,Energy savings,NA,NA
NA,NA,NA,NA,NA,choice_trial_setup,html-keyboard-response,56,331784,0.0-4.0-0.26,169,1,2025-05-04T23:45:22Z,b60275e29fe2361ab97ac0ac217840d7,Mozilla/5.0 (Windows NT 10.0; Win64; x64; rv:138.0) Gecko/20100101 Firefox/138.0,NA,Firefox,138,Windows,10,https://5puzkbbxv1.cognition.run/?sona_id=56937,"en-US,en;q=0.5",8xlfdwno941fj6c,20,"[""Other""]",Yes,Male,NA,No,684101,NA,null,<p></p>,null,choice,dct,trinary,attraction,1,washing machines,null,null,null,null,null,null,1,NA,NA,NA,NA,NA,NA,NA,NA,NA,NA
NA,NA,NA,NA,NA,choice_trial,survey-html-form,57,337624,0.0-4.0-1.26,169,1,2025-05-04T23:45:22Z,b60275e29fe2361ab97ac0ac217840d7,Mozilla/5.0 (Windows NT 10.0; Win64; x64; rv:138.0) Gecko/20100101 Firefox/138.0,NA,Firefox,138,Windows,10,https://5puzkbbxv1.cognition.run/?sona_id=56937,"en-US,en;q=0.5",8xlfdwno941fj6c,20,"[""Other""]",Yes,Male,NA,No,684101,NA,5835,NA,"{""product_choice"":""B""}",choice,dct,trinary,attraction,1,washing machines,null,null,null,null,null,null,1,60,50,60,50,60,40,Average lifespan,Energy savings,NA,NA
NA,NA,NA,NA,NA,choice_trial_setup,html-keyboard-response,58,337944,0.0-4.0-0.27,169,1,2025-05-04T23:45:22Z,b60275e29fe2361ab97ac0ac217840d7,Mozilla/5.0 (Windows NT 10.0; Win64; x64; rv:138.0) Gecko/20100101 Firefox/138.0,NA,Firefox,138,Windows,10,https://5puzkbbxv1.cognition.run/?sona_id=56937,"en-US,en;q=0.5",8xlfdwno941fj6c,20,"[""Other""]",Yes,Male,NA,No,684101,NA,null,<p></p>,null,choice,dct,trinary,repulsion_B,1,washing machines,null,null,null,null,null,null,1,NA,NA,NA,NA,NA,NA,NA,NA,NA,NA
NA,NA,NA,NA,NA,choice_trial,survey-html-form,59,346663,0.0-4.0-1.27,169,1,2025-05-04T23:45:22Z,b60275e29fe2361ab97ac0ac217840d7,Mozilla/5.0 (Windows NT 10.0; Win64; x64; rv:138.0) Gecko/20100101 Firefox/138.0,NA,Firefox,138,Windows,10,https://5puzkbbxv1.cognition.run/?sona_id=56937,"en-US,en;q=0.5",8xlfdwno941fj6c,20,"[""Other""]",Yes,Male,NA,No,684101,NA,8716,NA,"{""product_choice"":""C""}",choice,dct,trinary,repulsion_B,1,washing machines,null,null,null,null,null,null,1,90,100,80,40,30,40,Average lifespan,Energy savings,NA,NA
NA,NA,NA,NA,NA,choice_trial_setup,html-keyboard-response,60,346983,0.0-4.0-0.28,169,1,2025-05-04T23:45:22Z,b60275e29fe2361ab97ac0ac217840d7,Mozilla/5.0 (Windows NT 10.0; Win64; x64; rv:138.0) Gecko/20100101 Firefox/138.0,NA,Firefox,138,Windows,10,https://5puzkbbxv1.cognition.run/?sona_id=56937,"en-US,en;q=0.5",8xlfdwno941fj6c,20,"[""Other""]",Yes,Male,NA,No,684101,NA,null,<p></p>,null,choice,cdt,trinary,attraction,2,microwave ovens,null,null,null,null,null,null,1,NA,NA,NA,NA,NA,NA,NA,NA,NA,NA
NA,NA,NA,NA,NA,choice_trial,survey-html-form,61,353171,0.0-4.0-1.28,169,1,2025-05-04T23:45:22Z,b60275e29fe2361ab97ac0ac217840d7,Mozilla/5.0 (Windows NT 10.0; Win64; x64; rv:138.0) Gecko/20100101 Firefox/138.0,NA,Firefox,138,Windows,10,https://5puzkbbxv1.cognition.run/?sona_id=56937,"en-US,en;q=0.5",8xlfdwno941fj6c,20,"[""Other""]",Yes,Male,NA,No,684101,NA,6185,NA,"{""product_choice"":""C""}",choice,cdt,trinary,attraction,2,microwave ovens,null,null,null,null,null,null,1,50,60,40,60,50,60,Warranty,Cooking power,NA,NA
NA,NA,NA,NA,NA,choice_trial_setup,html-keyboard-response,62,353489,0.0-4.0-0.29,169,1,2025-05-04T23:45:22Z,b60275e29fe2361ab97ac0ac217840d7,Mozilla/5.0 (Windows NT 10.0; Win64; x64; rv:138.0) Gecko/20100101 Firefox/138.0,NA,Firefox,138,Windows,10,https://5puzkbbxv1.cognition.run/?sona_id=56937,"en-US,en;q=0.5",8xlfdwno941fj6c,20,"[""Other""]",Yes,Male,NA,No,684101,NA,null,<p></p>,null,choice,ct,binary,attraction,NA,laptops,null,null,null,null,null,null,1,NA,NA,NA,NA,NA,NA,NA,NA,NA,NA
NA,NA,NA,NA,NA,choice_trial,survey-html-form,63,360719,0.0-4.0-1.29,169,1,2025-05-04T23:45:22Z,b60275e29fe2361ab97ac0ac217840d7,Mozilla/5.0 (Windows NT 10.0; Win64; x64; rv:138.0) Gecko/20100101 Firefox/138.0,NA,Firefox,138,Windows,10,https://5puzkbbxv1.cognition.run/?sona_id=56937,"en-US,en;q=0.5",8xlfdwno941fj6c,20,"[""Other""]",Yes,Male,NA,No,684101,NA,7227,NA,"{""product_choice"":""B""}",choice,ct,binary,attraction,NA,laptops,null,null,null,null,null,null,1,60,50,null,50,60,null,Processing speed,Memory (RAM),NA,NA
NA,NA,NA,NA,NA,choice_trial_setup,html-keyboard-response,64,361025,0.0-4.0-0.30,169,1,2025-05-04T23:45:22Z,b60275e29fe2361ab97ac0ac217840d7,Mozilla/5.0 (Windows NT 10.0; Win64; x64; rv:138.0) Gecko/20100101 Firefox/138.0,NA,Firefox,138,Windows,10,https://5puzkbbxv1.cognition.run/?sona_id=56937,"en-US,en;q=0.5",8xlfdwno941fj6c,20,"[""Other""]",Yes,Male,NA,No,684101,NA,null,<p></p>,null,choice,dtc,trinary,attraction,2,televisions,null,null,null,null,null,null,2,NA,NA,NA,NA,NA,NA,NA,NA,NA,NA
NA,NA,NA,NA,NA,choice_trial,survey-html-form,65,373677,0.0-4.0-1.30,169,1,2025-05-04T23:45:22Z,b60275e29fe2361ab97ac0ac217840d7,Mozilla/5.0 (Windows NT 10.0; Win64; x64; rv:138.0) Gecko/20100101 Firefox/138.0,NA,Firefox,138,Windows,10,https://5puzkbbxv1.cognition.run/?sona_id=56937,"en-US,en;q=0.5",8xlfdwno941fj6c,20,"[""Other""]",Yes,Male,NA,No,684101,NA,12649,NA,"{""product_choice"":""B""}",choice,dtc,trinary,attraction,2,televisions,null,null,null,null,null,null,2,50,60,40,60,50,60,Screen size,Average lifespan,NA,NA
NA,NA,NA,NA,NA,choice_trial_setup,html-keyboard-response,66,373994,0.0-4.0-0.31,169,1,2025-05-04T23:45:22Z,b60275e29fe2361ab97ac0ac217840d7,Mozilla/5.0 (Windows NT 10.0; Win64; x64; rv:138.0) Gecko/20100101 Firefox/138.0,NA,Firefox,138,Windows,10,https://5puzkbbxv1.cognition.run/?sona_id=56937,"en-US,en;q=0.5",8xlfdwno941fj6c,20,"[""Other""]",Yes,Male,NA,No,684101,NA,null,<p></p>,null,choice,wbw,trinary,catch,null,microwave ovens,85,70,5,25,30,10,1,NA,NA,NA,NA,NA,NA,NA,NA,NA,NA
NA,NA,NA,NA,NA,choice_trial,survey-html-form,67,386994,0.0-4.0-1.31,169,1,2025-05-04T23:45:22Z,b60275e29fe2361ab97ac0ac217840d7,Mozilla/5.0 (Windows NT 10.0; Win64; x64; rv:138.0) Gecko/20100101 Firefox/138.0,NA,Firefox,138,Windows,10,https://5puzkbbxv1.cognition.run/?sona_id=56937,"en-US,en;q=0.5",8xlfdwno941fj6c,20,"[""Other""]",Yes,Male,NA,No,684101,NA,12997,NA,"{""product_choice"":""B""}",choice,wbw,trinary,catch,null,microwave ovens,85,70,5,25,30,10,1,null,null,null,null,null,null,Warranty,Cooking power,NA,NA
NA,NA,NA,NA,NA,choice_trial_setup,html-keyboard-response,68,387301,0.0-4.0-0.32,169,1,2025-05-04T23:45:22Z,b60275e29fe2361ab97ac0ac217840d7,Mozilla/5.0 (Windows NT 10.0; Win64; x64; rv:138.0) Gecko/20100101 Firefox/138.0,NA,Firefox,138,Windows,10,https://5puzkbbxv1.cognition.run/?sona_id=56937,"en-US,en;q=0.5",8xlfdwno941fj6c,20,"[""Other""]",Yes,Male,NA,No,684101,NA,null,<p></p>,null,choice,tc,binary,repulsion,2,televisions,null,null,null,null,null,null,1,NA,NA,NA,NA,NA,NA,NA,NA,NA,NA
NA,NA,NA,NA,NA,choice_trial,survey-html-form,69,395890,0.0-4.0-1.32,169,1,2025-05-04T23:45:22Z,b60275e29fe2361ab97ac0ac217840d7,Mozilla/5.0 (Windows NT 10.0; Win64; x64; rv:138.0) Gecko/20100101 Firefox/138.0,NA,Firefox,138,Windows,10,https://5puzkbbxv1.cognition.run/?sona_id=56937,"en-US,en;q=0.5",8xlfdwno941fj6c,20,"[""Other""]",Yes,Male,NA,No,684101,NA,8585,NA,"{""product_choice"":""B""}",choice,tc,binary,repulsion,2,televisions,null,null,null,null,null,null,1,30,40,null,100,90,null,Screen size,Average lifespan,NA,NA
NA,NA,NA,NA,NA,choice_trial_setup,html-keyboard-response,70,396202,0.0-4.0-0.33,169,1,2025-05-04T23:45:22Z,b60275e29fe2361ab97ac0ac217840d7,Mozilla/5.0 (Windows NT 10.0; Win64; x64; rv:138.0) Gecko/20100101 Firefox/138.0,NA,Firefox,138,Windows,10,https://5puzkbbxv1.cognition.run/?sona_id=56937,"en-US,en;q=0.5",8xlfdwno941fj6c,20,"[""Other""]",Yes,Male,NA,No,684101,NA,null,<p></p>,null,choice,tc,binary,repulsion,1,televisions,null,null,null,null,null,null,1,NA,NA,NA,NA,NA,NA,NA,NA,NA,NA
NA,NA,NA,NA,NA,choice_trial,survey-html-form,71,405316,0.0-4.0-1.33,169,1,2025-05-04T23:45:22Z,b60275e29fe2361ab97ac0ac217840d7,Mozilla/5.0 (Windows NT 10.0; Win64; x64; rv:138.0) Gecko/20100101 Firefox/138.0,NA,Firefox,138,Windows,10,https://5puzkbbxv1.cognition.run/?sona_id=56937,"en-US,en;q=0.5",8xlfdwno941fj6c,20,"[""Other""]",Yes,Male,NA,No,684101,NA,9108,NA,"{""product_choice"":""A""}",choice,tc,binary,repulsion,1,televisions,null,null,null,null,null,null,1,100,90,null,30,40,null,Screen size,Average lifespan,NA,NA
NA,NA,NA,NA,NA,choice_trial_setup,html-keyboard-response,72,405632,0.0-4.0-0.34,169,1,2025-05-04T23:45:22Z,b60275e29fe2361ab97ac0ac217840d7,Mozilla/5.0 (Windows NT 10.0; Win64; x64; rv:138.0) Gecko/20100101 Firefox/138.0,NA,Firefox,138,Windows,10,https://5puzkbbxv1.cognition.run/?sona_id=56937,"en-US,en;q=0.5",8xlfdwno941fj6c,20,"[""Other""]",Yes,Male,NA,No,684101,NA,null,<p></p>,null,choice,ctd,trinary,attraction,2,laptops,null,null,null,null,null,null,2,NA,NA,NA,NA,NA,NA,NA,NA,NA,NA
NA,NA,NA,NA,NA,choice_trial,survey-html-form,73,411862,0.0-4.0-1.34,169,1,2025-05-04T23:45:22Z,b60275e29fe2361ab97ac0ac217840d7,Mozilla/5.0 (Windows NT 10.0; Win64; x64; rv:138.0) Gecko/20100101 Firefox/138.0,NA,Firefox,138,Windows,10,https://5puzkbbxv1.cognition.run/?sona_id=56937,"en-US,en;q=0.5",8xlfdwno941fj6c,20,"[""Other""]",Yes,Male,NA,No,684101,NA,6227,NA,"{""product_choice"":""A""}",choice,ctd,trinary,attraction,2,laptops,null,null,null,null,null,null,2,50,60,40,60,50,60,Processing speed,Memory (RAM),NA,NA
NA,NA,NA,NA,NA,choice_trial_setup,html-keyboard-response,74,412168,0.0-4.0-0.35,169,1,2025-05-04T23:45:22Z,b60275e29fe2361ab97ac0ac217840d7,Mozilla/5.0 (Windows NT 10.0; Win64; x64; rv:138.0) Gecko/20100101 Firefox/138.0,NA,Firefox,138,Windows,10,https://5puzkbbxv1.cognition.run/?sona_id=56937,"en-US,en;q=0.5",8xlfdwno941fj6c,20,"[""Other""]",Yes,Male,NA,No,684101,NA,null,<p></p>,null,choice,tc,binary,repulsion,2,microwave ovens,null,null,null,null,null,null,1,NA,NA,NA,NA,NA,NA,NA,NA,NA,NA
NA,NA,NA,NA,NA,choice_trial,survey-html-form,75,415658,0.0-4.0-1.35,169,1,2025-05-04T23:45:22Z,b60275e29fe2361ab97ac0ac217840d7,Mozilla/5.0 (Windows NT 10.0; Win64; x64; rv:138.0) Gecko/20100101 Firefox/138.0,NA,Firefox,138,Windows,10,https://5puzkbbxv1.cognition.run/?sona_id=56937,"en-US,en;q=0.5",8xlfdwno941fj6c,20,"[""Other""]",Yes,Male,NA,No,684101,NA,3487,NA,"{""product_choice"":""B""}",choice,tc,binary,repulsion,2,microwave ovens,null,null,null,null,null,null,1,30,40,null,100,90,null,Warranty,Cooking power,NA,NA
NA,NA,NA,NA,NA,choice_trial_setup,html-keyboard-response,76,415973,0.0-4.0-0.36,169,1,2025-05-04T23:45:22Z,b60275e29fe2361ab97ac0ac217840d7,Mozilla/5.0 (Windows NT 10.0; Win64; x64; rv:138.0) Gecko/20100101 Firefox/138.0,NA,Firefox,138,Windows,10,https://5puzkbbxv1.cognition.run/?sona_id=56937,"en-US,en;q=0.5",8xlfdwno941fj6c,20,"[""Other""]",Yes,Male,NA,No,684101,NA,null,<p></p>,null,choice,dtc,trinary,repulsion_B,2,washing machines,null,null,null,null,null,null,2,NA,NA,NA,NA,NA,NA,NA,NA,NA,NA
NA,NA,NA,NA,NA,choice_trial,survey-html-form,77,443489,0.0-4.0-1.36,169,1,2025-05-04T23:45:22Z,b60275e29fe2361ab97ac0ac217840d7,Mozilla/5.0 (Windows NT 10.0; Win64; x64; rv:138.0) Gecko/20100101 Firefox/138.0,NA,Firefox,138,Windows,10,https://5puzkbbxv1.cognition.run/?sona_id=56937,"en-US,en;q=0.5",8xlfdwno941fj6c,20,"[""Other""]",Yes,Male,NA,No,684101,NA,27511,NA,"{""product_choice"":""C""}",choice,dtc,trinary,repulsion_B,2,washing machines,null,null,null,null,null,null,2,40,30,40,90,100,80,Average lifespan,Energy savings,NA,NA
NA,NA,NA,NA,NA,choice_trial_setup,html-keyboard-response,78,443797,0.0-4.0-0.37,169,1,2025-05-04T23:45:22Z,b60275e29fe2361ab97ac0ac217840d7,Mozilla/5.0 (Windows NT 10.0; Win64; x64; rv:138.0) Gecko/20100101 Firefox/138.0,NA,Firefox,138,Windows,10,https://5puzkbbxv1.cognition.run/?sona_id=56937,"en-US,en;q=0.5",8xlfdwno941fj6c,20,"[""Other""]",Yes,Male,NA,No,684101,NA,null,<p></p>,null,choice,tdc,trinary,repulsion_A,2,laptops,null,null,null,null,null,null,2,NA,NA,NA,NA,NA,NA,NA,NA,NA,NA
NA,NA,NA,NA,NA,choice_trial,survey-html-form,79,454062,0.0-4.0-1.37,169,1,2025-05-04T23:45:22Z,b60275e29fe2361ab97ac0ac217840d7,Mozilla/5.0 (Windows NT 10.0; Win64; x64; rv:138.0) Gecko/20100101 Firefox/138.0,NA,Firefox,138,Windows,10,https://5puzkbbxv1.cognition.run/?sona_id=56937,"en-US,en;q=0.5",8xlfdwno941fj6c,20,"[""Other""]",Yes,Male,NA,No,684101,NA,10261,NA,"{""product_choice"":""C""}",choice,tdc,trinary,repulsion_A,2,laptops,null,null,null,null,null,null,2,30,40,20,100,90,100,Processing speed,Memory (RAM),NA,NA
NA,NA,NA,NA,NA,choice_trial_setup,html-keyboard-response,80,454377,0.0-4.0-0.38,169,1,2025-05-04T23:45:22Z,b60275e29fe2361ab97ac0ac217840d7,Mozilla/5.0 (Windows NT 10.0; Win64; x64; rv:138.0) Gecko/20100101 Firefox/138.0,NA,Firefox,138,Windows,10,https://5puzkbbxv1.cognition.run/?sona_id=56937,"en-US,en;q=0.5",8xlfdwno941fj6c,20,"[""Other""]",Yes,Male,NA,No,684101,NA,null,<p></p>,null,choice,ct,binary,repulsion,1,laptops,null,null,null,null,null,null,2,NA,NA,NA,NA,NA,NA,NA,NA,NA,NA
NA,NA,NA,NA,NA,choice_trial,survey-html-form,81,462764,0.0-4.0-1.38,169,1,2025-05-04T23:45:22Z,b60275e29fe2361ab97ac0ac217840d7,Mozilla/5.0 (Windows NT 10.0; Win64; x64; rv:138.0) Gecko/20100101 Firefox/138.0,NA,Firefox,138,Windows,10,https://5puzkbbxv1.cognition.run/?sona_id=56937,"en-US,en;q=0.5",8xlfdwno941fj6c,20,"[""Other""]",Yes,Male,NA,No,684101,NA,8382,NA,"{""product_choice"":""B""}",choice,ct,binary,repulsion,1,laptops,null,null,null,null,null,null,2,100,90,null,30,40,null,Processing speed,Memory (RAM),NA,NA
NA,NA,NA,NA,NA,choice_trial_setup,html-keyboard-response,82,463086,0.0-4.0-0.39,169,1,2025-05-04T23:45:22Z,b60275e29fe2361ab97ac0ac217840d7,Mozilla/5.0 (Windows NT 10.0; Win64; x64; rv:138.0) Gecko/20100101 Firefox/138.0,NA,Firefox,138,Windows,10,https://5puzkbbxv1.cognition.run/?sona_id=56937,"en-US,en;q=0.5",8xlfdwno941fj6c,20,"[""Other""]",Yes,Male,NA,No,684101,NA,null,<p></p>,null,choice,ct,binary,attraction,NA,televisions,null,null,null,null,null,null,2,NA,NA,NA,NA,NA,NA,NA,NA,NA,NA
NA,NA,NA,NA,NA,choice_trial,survey-html-form,83,473506,0.0-4.0-1.39,169,1,2025-05-04T23:45:22Z,b60275e29fe2361ab97ac0ac217840d7,Mozilla/5.0 (Windows NT 10.0; Win64; x64; rv:138.0) Gecko/20100101 Firefox/138.0,NA,Firefox,138,Windows,10,https://5puzkbbxv1.cognition.run/?sona_id=56937,"en-US,en;q=0.5",8xlfdwno941fj6c,20,"[""Other""]",Yes,Male,NA,No,684101,NA,10415,NA,"{""product_choice"":""B""}",choice,ct,binary,attraction,NA,televisions,null,null,null,null,null,null,2,60,50,null,50,60,null,Screen size,Average lifespan,NA,NA
NA,NA,NA,NA,NA,choice_trial_setup,html-keyboard-response,84,473818,0.0-4.0-0.40,169,1,2025-05-04T23:45:22Z,b60275e29fe2361ab97ac0ac217840d7,Mozilla/5.0 (Windows NT 10.0; Win64; x64; rv:138.0) Gecko/20100101 Firefox/138.0,NA,Firefox,138,Windows,10,https://5puzkbbxv1.cognition.run/?sona_id=56937,"en-US,en;q=0.5",8xlfdwno941fj6c,20,"[""Other""]",Yes,Male,NA,No,684101,NA,null,<p></p>,null,choice,wbw,trinary,catch,null,laptops,90,95,45,15,10,15,1,NA,NA,NA,NA,NA,NA,NA,NA,NA,NA
NA,NA,NA,NA,NA,choice_trial,survey-html-form,85,482255,0.0-4.0-1.40,169,1,2025-05-04T23:45:22Z,b60275e29fe2361ab97ac0ac217840d7,Mozilla/5.0 (Windows NT 10.0; Win64; x64; rv:138.0) Gecko/20100101 Firefox/138.0,NA,Firefox,138,Windows,10,https://5puzkbbxv1.cognition.run/?sona_id=56937,"en-US,en;q=0.5",8xlfdwno941fj6c,20,"[""Other""]",Yes,Male,NA,No,684101,NA,8431,NA,"{""product_choice"":""B""}",choice,wbw,trinary,catch,null,laptops,90,95,45,15,10,15,1,null,null,null,null,null,null,Processing speed,Memory (RAM),NA,NA
NA,NA,NA,NA,NA,choice_trial_setup,html-keyboard-response,86,482576,0.0-4.0-0.41,169,1,2025-05-04T23:45:22Z,b60275e29fe2361ab97ac0ac217840d7,Mozilla/5.0 (Windows NT 10.0; Win64; x64; rv:138.0) Gecko/20100101 Firefox/138.0,NA,Firefox,138,Windows,10,https://5puzkbbxv1.cognition.run/?sona_id=56937,"en-US,en;q=0.5",8xlfdwno941fj6c,20,"[""Other""]",Yes,Male,NA,No,684101,NA,null,<p></p>,null,choice,tcd,trinary,attraction,1,microwave ovens,null,null,null,null,null,null,1,NA,NA,NA,NA,NA,NA,NA,NA,NA,NA
NA,NA,NA,NA,NA,choice_trial,survey-html-form,87,493071,0.0-4.0-1.41,169,1,2025-05-04T23:45:22Z,b60275e29fe2361ab97ac0ac217840d7,Mozilla/5.0 (Windows NT 10.0; Win64; x64; rv:138.0) Gecko/20100101 Firefox/138.0,NA,Firefox,138,Windows,10,https://5puzkbbxv1.cognition.run/?sona_id=56937,"en-US,en;q=0.5",8xlfdwno941fj6c,20,"[""Other""]",Yes,Male,NA,No,684101,NA,10492,NA,"{""product_choice"":""B""}",choice,tcd,trinary,attraction,1,microwave ovens,null,null,null,null,null,null,1,60,50,60,50,60,40,Warranty,Cooking power,NA,NA
NA,NA,NA,NA,NA,choice_trial_setup,html-keyboard-response,88,493378,0.0-4.0-0.42,169,1,2025-05-04T23:45:22Z,b60275e29fe2361ab97ac0ac217840d7,Mozilla/5.0 (Windows NT 10.0; Win64; x64; rv:138.0) Gecko/20100101 Firefox/138.0,NA,Firefox,138,Windows,10,https://5puzkbbxv1.cognition.run/?sona_id=56937,"en-US,en;q=0.5",8xlfdwno941fj6c,20,"[""Other""]",Yes,Male,NA,No,684101,NA,null,<p></p>,null,choice,tc,binary,repulsion,1,microwave ovens,null,null,null,null,null,null,2,NA,NA,NA,NA,NA,NA,NA,NA,NA,NA
NA,NA,NA,NA,NA,choice_trial,survey-html-form,89,498800,0.0-4.0-1.42,169,1,2025-05-04T23:45:22Z,b60275e29fe2361ab97ac0ac217840d7,Mozilla/5.0 (Windows NT 10.0; Win64; x64; rv:138.0) Gecko/20100101 Firefox/138.0,NA,Firefox,138,Windows,10,https://5puzkbbxv1.cognition.run/?sona_id=56937,"en-US,en;q=0.5",8xlfdwno941fj6c,20,"[""Other""]",Yes,Male,NA,No,684101,NA,5417,NA,"{""product_choice"":""B""}",choice,tc,binary,repulsion,1,microwave ovens,null,null,null,null,null,null,2,100,90,null,30,40,null,Warranty,Cooking power,NA,NA
NA,NA,NA,NA,NA,choice_trial_setup,html-keyboard-response,90,499108,0.0-4.0-0.43,169,1,2025-05-04T23:45:22Z,b60275e29fe2361ab97ac0ac217840d7,Mozilla/5.0 (Windows NT 10.0; Win64; x64; rv:138.0) Gecko/20100101 Firefox/138.0,NA,Firefox,138,Windows,10,https://5puzkbbxv1.cognition.run/?sona_id=56937,"en-US,en;q=0.5",8xlfdwno941fj6c,20,"[""Other""]",Yes,Male,NA,No,684101,NA,null,<p></p>,null,choice,ctd,trinary,repulsion_B,1,microwave ovens,null,null,null,null,null,null,2,NA,NA,NA,NA,NA,NA,NA,NA,NA,NA
NA,NA,NA,NA,NA,choice_trial,survey-html-form,91,511090,0.0-4.0-1.43,169,1,2025-05-04T23:45:22Z,b60275e29fe2361ab97ac0ac217840d7,Mozilla/5.0 (Windows NT 10.0; Win64; x64; rv:138.0) Gecko/20100101 Firefox/138.0,NA,Firefox,138,Windows,10,https://5puzkbbxv1.cognition.run/?sona_id=56937,"en-US,en;q=0.5",8xlfdwno941fj6c,20,"[""Other""]",Yes,Male,NA,No,684101,NA,11979,NA,"{""product_choice"":""B""}",choice,ctd,trinary,repulsion_B,1,microwave ovens,null,null,null,null,null,null,2,90,100,80,40,30,40,Warranty,Cooking power,NA,NA
NA,NA,NA,NA,NA,post_trials_message,html-button-response,92,514393,0.0-5.0,169,1,2025-05-04T23:45:22Z,b60275e29fe2361ab97ac0ac217840d7,Mozilla/5.0 (Windows NT 10.0; Win64; x64; rv:138.0) Gecko/20100101 Firefox/138.0,NA,Firefox,138,Windows,10,https://5puzkbbxv1.cognition.run/?sona_id=56937,"en-US,en;q=0.5",8xlfdwno941fj6c,20,"[""Other""]",Yes,Male,NA,No,684101,NA,3298,<p> <b>Thank you for your patience!</b></p><p>  The study will be done after completing a brief form. </p>,0,NA,NA,NA,NA,NA,NA,NA,NA,NA,NA,NA,NA,NA,NA,NA,NA,NA,NA,NA,NA,NA,NA,NA
NA,NA,NA,NA,NA,survey_message,survey-text,93,578631,0.0-6.0,169,1,2025-05-04T23:45:22Z,b60275e29fe2361ab97ac0ac217840d7,Mozilla/5.0 (Windows NT 10.0; Win64; x64; rv:138.0) Gecko/20100101 Firefox/138.0,NA,Firefox,138,Windows,10,https://5puzkbbxv1.cognition.run/?sona_id=56937,"en-US,en;q=0.5",8xlfdwno941fj6c,20,"[""Other""]",Yes,Male,NA,No,684101,NA,64175,NA,"{""Q0"":""I generally speaking emphasized quality of product (processing speed etc) over warranty.""}",NA,NA,NA,NA,NA,NA,NA,NA,NA,NA,NA,NA,NA,NA,NA,NA,NA,NA,NA,NA,NA,I generally speaking emphasized quality of product (processing speed etc) over warranty.,NA
NA,NA,NA,NA,NA,demo_age,survey-text,94,586689,0.0-7.0,169,1,2025-05-04T23:45:22Z,b60275e29fe2361ab97ac0ac217840d7,Mozilla/5.0 (Windows NT 10.0; Win64; x64; rv:138.0) Gecko/20100101 Firefox/138.0,NA,Firefox,138,Windows,10,https://5puzkbbxv1.cognition.run/?sona_id=56937,"en-US,en;q=0.5",8xlfdwno941fj6c,20,"[""Other""]",Yes,Male,NA,No,684101,NA,8044,NA,"{""Q0"":""20""}",NA,NA,NA,NA,NA,NA,NA,NA,NA,NA,NA,NA,NA,NA,NA,NA,NA,NA,NA,NA,NA,NA,NA
NA,NA,NA,NA,NA,demo_race,survey-multi-select,95,605308,0.0-8.0,169,1,2025-05-04T23:45:22Z,b60275e29fe2361ab97ac0ac217840d7,Mozilla/5.0 (Windows NT 10.0; Win64; x64; rv:138.0) Gecko/20100101 Firefox/138.0,NA,Firefox,138,Windows,10,https://5puzkbbxv1.cognition.run/?sona_id=56937,"en-US,en;q=0.5",8xlfdwno941fj6c,20,"[""Other""]",Yes,Male,NA,No,684101,NA,18609,NA,"{""Q0"":[""Other""]}",NA,NA,NA,NA,NA,NA,NA,NA,NA,NA,NA,NA,NA,NA,NA,NA,NA,NA,NA,NA,NA,NA,[0]
NA,NA,NA,NA,NA,demo_ethnicity_gender,survey-multi-choice,96,616209,0.0-9.0,169,1,2025-05-04T23:45:22Z,b60275e29fe2361ab97ac0ac217840d7,Mozilla/5.0 (Windows NT 10.0; Win64; x64; rv:138.0) Gecko/20100101 Firefox/138.0,NA,Firefox,138,Windows,10,https://5puzkbbxv1.cognition.run/?sona_id=56937,"en-US,en;q=0.5",8xlfdwno941fj6c,20,"[""Other""]",Yes,Male,NA,No,684101,NA,10891,NA,"{""Q0"":""Yes"",""Q1"":""Male""}",NA,NA,NA,NA,NA,NA,NA,NA,NA,NA,NA,NA,NA,NA,NA,NA,NA,NA,NA,NA,NA,NA,"[0,1]"
NA,NA,NA,NA,NA,demo_countries,survey-text,97,624977,0.0-10.0,169,1,2025-05-04T23:45:22Z,b60275e29fe2361ab97ac0ac217840d7,Mozilla/5.0 (Windows NT 10.0; Win64; x64; rv:138.0) Gecko/20100101 Firefox/138.0,NA,Firefox,138,Windows,10,https://5puzkbbxv1.cognition.run/?sona_id=56937,"en-US,en;q=0.5",8xlfdwno941fj6c,20,"[""Other""]",Yes,Male,NA,No,684101,NA,8755,NA,"{""Q0"":""NA""}",NA,NA,NA,NA,NA,NA,NA,NA,NA,NA,NA,NA,NA,NA,NA,NA,NA,NA,NA,NA,NA,NA,NA
NA,NA,NA,NA,NA,demo_prev_study,survey-multi-choice,98,630568,0.0-11.0,169,1,2025-05-04T23:45:22Z,b60275e29fe2361ab97ac0ac217840d7,Mozilla/5.0 (Windows NT 10.0; Win64; x64; rv:138.0) Gecko/20100101 Firefox/138.0,NA,Firefox,138,Windows,10,https://5puzkbbxv1.cognition.run/?sona_id=56937,"en-US,en;q=0.5",8xlfdwno941fj6c,20,"[""Other""]",Yes,Male,NA,No,684101,NA,5586,NA,"{""Q0"":""No""}",NA,NA,NA,NA,NA,NA,NA,NA,NA,NA,NA,NA,NA,NA,NA,NA,NA,NA,NA,NA,NA,NA,[0]
NA,NA,NA,NA,NA,post_survey_message,html-keyboard-response,99,637926,0.0-12.0,169,1,2025-05-04T23:45:22Z,b60275e29fe2361ab97ac0ac217840d7,Mozilla/5.0 (Windows NT 10.0; Win64; x64; rv:138.0) Gecko/20100101 Firefox/138.0,NA,Firefox,138,Windows,10,https://5puzkbbxv1.cognition.run/?sona_id=56937,"en-US,en;q=0.5",8xlfdwno941fj6c,20,"[""Other""]",Yes,Male,NA,No,684101,NA,7352,NA,j,NA,NA,NA,NA,NA,NA,NA,NA,NA,NA,NA,NA,NA,NA,NA,NA,NA,NA,NA,NA,NA,NA,NA
NA,NA,NA,NA,NA,debrief,image-keyboard-response,100,684099,0.0-13.0,169,1,2025-05-04T23:45:22Z,b60275e29fe2361ab97ac0ac217840d7,Mozilla/5.0 (Windows NT 10.0; Win64; x64; rv:138.0) Gecko/20100101 Firefox/138.0,NA,Firefox,138,Windows,10,https://5puzkbbxv1.cognition.run/?sona_id=56937,"en-US,en;q=0.5",8xlfdwno941fj6c,20,"[""Other""]",Yes,Male,NA,No,684101,NA,46143,Judg_choice_debrief.png,p,NA,NA,NA,NA,NA,NA,NA,NA,NA,NA,NA,NA,NA,NA,NA,NA,NA,NA,NA,NA,NA,NA,NA
