success,timeout,failed_images,failed_audio,failed_video,screen_id,trial_type,trial_index,time_elapsed,internal_node_id,run_id,condition,recorded_at,source_code_version,user_agent,device,browser,browser_version,platform,platform_version,referer,accept_language,ppt_id,age,race,ethnicity,gender,other_countries,prev_study,exp_duration,view_history,rt,stimulus,response,phase,order,set,effect,t_high,category,d1_best,d2_best,d1_worst1,d2_worst1,d1_worst2,d2_worst2,first_dim,d1_t,d1_c,d1_d,d2_t,d2_c,d2_d,d1_name,d2_name,strategy_response,question_order
TRUE,FALSE,[],[],[],img preload,preload,0,226,0.0-0.0,170,1,2025-05-04T23:57:15Z,b60275e29fe2361ab97ac0ac217840d7,"Mozilla/5.0 (Windows NT 10.0; Win64; x64) AppleWebKit/537.36 (KHTML, like Gecko) Chrome/136.0.0.0 Safari/537.36",WebKit,Chrome,136.0.0.0,Windows,10,https://5puzkbbxv1.cognition.run/?sona_id=56970,"en-US,en;q=0.9",keqz7ozuyw0n26a,19,"[""White""]",No,Female,na,No,607597.1999998093,NA,NA,NA,NA,NA,NA,NA,NA,NA,NA,NA,NA,NA,NA,NA,NA,NA,NA,NA,NA,NA,NA,NA,NA,NA,NA,NA
NA,NA,NA,NA,NA,computer_message,instructions,1,5608,0.0-1.0,170,1,2025-05-04T23:57:15Z,b60275e29fe2361ab97ac0ac217840d7,"Mozilla/5.0 (Windows NT 10.0; Win64; x64) AppleWebKit/537.36 (KHTML, like Gecko) Chrome/136.0.0.0 Safari/537.36",WebKit,Chrome,136.0.0.0,Windows,10,https://5puzkbbxv1.cognition.run/?sona_id=56970,"en-US,en;q=0.9",keqz7ozuyw0n26a,19,"[""White""]",No,Female,na,No,607597.1999998093,"[{""page_index"":0,""viewing_time"":5380}]",5380,NA,NA,NA,NA,NA,NA,NA,NA,NA,NA,NA,NA,NA,NA,NA,NA,NA,NA,NA,NA,NA,NA,NA,NA,NA
TRUE,NA,NA,NA,NA,NA,fullscreen,2,9667,0.0-2.0,170,1,2025-05-04T23:57:15Z,b60275e29fe2361ab97ac0ac217840d7,"Mozilla/5.0 (Windows NT 10.0; Win64; x64) AppleWebKit/537.36 (KHTML, like Gecko) Chrome/136.0.0.0 Safari/537.36",WebKit,Chrome,136.0.0.0,Windows,10,https://5puzkbbxv1.cognition.run/?sona_id=56970,"en-US,en;q=0.9",keqz7ozuyw0n26a,19,"[""White""]",No,Female,na,No,607597.1999998093,NA,3052,NA,NA,NA,NA,NA,NA,NA,NA,NA,NA,NA,NA,NA,NA,NA,NA,NA,NA,NA,NA,NA,NA,NA,NA,NA
NA,NA,NA,NA,NA,choice_instructions,instructions,3,62048,0.0-3.0,170,1,2025-05-04T23:57:15Z,b60275e29fe2361ab97ac0ac217840d7,"Mozilla/5.0 (Windows NT 10.0; Win64; x64) AppleWebKit/537.36 (KHTML, like Gecko) Chrome/136.0.0.0 Safari/537.36",WebKit,Chrome,136.0.0.0,Windows,10,https://5puzkbbxv1.cognition.run/?sona_id=56970,"en-US,en;q=0.9",keqz7ozuyw0n26a,19,"[""White""]",No,Female,na,No,607597.1999998093,"[{""page_index"":0,""viewing_time"":1562},{""page_index"":1,""viewing_time"":4986},{""page_index"":2,""viewing_time"":7882},{""page_index"":3,""viewing_time"":3818},{""page_index"":4,""viewing_time"":2762},{""page_index"":5,""viewing_time"":21977},{""page_index"":6,""viewing_time"":9391}]",52379,NA,NA,NA,NA,NA,NA,NA,NA,NA,NA,NA,NA,NA,NA,NA,NA,NA,NA,NA,NA,NA,NA,NA,NA,NA
NA,NA,NA,NA,NA,choice_trial_setup,html-keyboard-response,4,62351,0.0-4.0-0.0,170,1,2025-05-04T23:57:15Z,b60275e29fe2361ab97ac0ac217840d7,"Mozilla/5.0 (Windows NT 10.0; Win64; x64) AppleWebKit/537.36 (KHTML, like Gecko) Chrome/136.0.0.0 Safari/537.36",WebKit,Chrome,136.0.0.0,Windows,10,https://5puzkbbxv1.cognition.run/?sona_id=56970,"en-US,en;q=0.9",keqz7ozuyw0n26a,19,"[""White""]",No,Female,na,No,607597.1999998093,NA,null,<p></p>,null,choice,tc,binary,attraction,NA,microwave ovens,null,null,null,null,null,null,1,NA,NA,NA,NA,NA,NA,NA,NA,NA,NA
NA,NA,NA,NA,NA,choice_trial,survey-html-form,5,82105,0.0-4.0-1.0,170,1,2025-05-04T23:57:15Z,b60275e29fe2361ab97ac0ac217840d7,"Mozilla/5.0 (Windows NT 10.0; Win64; x64) AppleWebKit/537.36 (KHTML, like Gecko) Chrome/136.0.0.0 Safari/537.36",WebKit,Chrome,136.0.0.0,Windows,10,https://5puzkbbxv1.cognition.run/?sona_id=56970,"en-US,en;q=0.9",keqz7ozuyw0n26a,19,"[""White""]",No,Female,na,No,607597.1999998093,NA,19749,NA,"{""product_choice"":""B""}",choice,tc,binary,attraction,NA,microwave ovens,null,null,null,null,null,null,1,60,50,null,50,60,null,Warranty,Cooking power,NA,NA
NA,NA,NA,NA,NA,choice_trial_setup,html-keyboard-response,6,82408,0.0-4.0-0.1,170,1,2025-05-04T23:57:15Z,b60275e29fe2361ab97ac0ac217840d7,"Mozilla/5.0 (Windows NT 10.0; Win64; x64) AppleWebKit/537.36 (KHTML, like Gecko) Chrome/136.0.0.0 Safari/537.36",WebKit,Chrome,136.0.0.0,Windows,10,https://5puzkbbxv1.cognition.run/?sona_id=56970,"en-US,en;q=0.9",keqz7ozuyw0n26a,19,"[""White""]",No,Female,na,No,607597.1999998093,NA,null,<p></p>,null,choice,tcd,trinary,repulsion_A,1,televisions,null,null,null,null,null,null,1,NA,NA,NA,NA,NA,NA,NA,NA,NA,NA
NA,NA,NA,NA,NA,choice_trial,survey-html-form,7,94181,0.0-4.0-1.1,170,1,2025-05-04T23:57:15Z,b60275e29fe2361ab97ac0ac217840d7,"Mozilla/5.0 (Windows NT 10.0; Win64; x64) AppleWebKit/537.36 (KHTML, like Gecko) Chrome/136.0.0.0 Safari/537.36",WebKit,Chrome,136.0.0.0,Windows,10,https://5puzkbbxv1.cognition.run/?sona_id=56970,"en-US,en;q=0.9",keqz7ozuyw0n26a,19,"[""White""]",No,Female,na,No,607597.1999998093,NA,11769,NA,"{""product_choice"":""B""}",choice,tcd,trinary,repulsion_A,1,televisions,null,null,null,null,null,null,1,100,90,100,30,40,20,Screen size,Average lifespan,NA,NA
NA,NA,NA,NA,NA,choice_trial_setup,html-keyboard-response,8,94484,0.0-4.0-0.2,170,1,2025-05-04T23:57:15Z,b60275e29fe2361ab97ac0ac217840d7,"Mozilla/5.0 (Windows NT 10.0; Win64; x64) AppleWebKit/537.36 (KHTML, like Gecko) Chrome/136.0.0.0 Safari/537.36",WebKit,Chrome,136.0.0.0,Windows,10,https://5puzkbbxv1.cognition.run/?sona_id=56970,"en-US,en;q=0.9",keqz7ozuyw0n26a,19,"[""White""]",No,Female,na,No,607597.1999998093,NA,null,<p></p>,null,choice,tc,binary,repulsion,2,washing machines,null,null,null,null,null,null,2,NA,NA,NA,NA,NA,NA,NA,NA,NA,NA
NA,NA,NA,NA,NA,choice_trial,survey-html-form,9,103818,0.0-4.0-1.2,170,1,2025-05-04T23:57:15Z,b60275e29fe2361ab97ac0ac217840d7,"Mozilla/5.0 (Windows NT 10.0; Win64; x64) AppleWebKit/537.36 (KHTML, like Gecko) Chrome/136.0.0.0 Safari/537.36",WebKit,Chrome,136.0.0.0,Windows,10,https://5puzkbbxv1.cognition.run/?sona_id=56970,"en-US,en;q=0.9",keqz7ozuyw0n26a,19,"[""White""]",No,Female,na,No,607597.1999998093,NA,9331,NA,"{""product_choice"":""B""}",choice,tc,binary,repulsion,2,washing machines,null,null,null,null,null,null,2,30,40,null,100,90,null,Average lifespan,Energy savings,NA,NA
NA,NA,NA,NA,NA,choice_trial_setup,html-keyboard-response,10,104120,0.0-4.0-0.3,170,1,2025-05-04T23:57:15Z,b60275e29fe2361ab97ac0ac217840d7,"Mozilla/5.0 (Windows NT 10.0; Win64; x64) AppleWebKit/537.36 (KHTML, like Gecko) Chrome/136.0.0.0 Safari/537.36",WebKit,Chrome,136.0.0.0,Windows,10,https://5puzkbbxv1.cognition.run/?sona_id=56970,"en-US,en;q=0.9",keqz7ozuyw0n26a,19,"[""White""]",No,Female,na,No,607597.1999998093,NA,null,<p></p>,null,choice,dct,trinary,attraction,1,televisions,null,null,null,null,null,null,1,NA,NA,NA,NA,NA,NA,NA,NA,NA,NA
NA,NA,NA,NA,NA,choice_trial,survey-html-form,11,116903,0.0-4.0-1.3,170,1,2025-05-04T23:57:15Z,b60275e29fe2361ab97ac0ac217840d7,"Mozilla/5.0 (Windows NT 10.0; Win64; x64) AppleWebKit/537.36 (KHTML, like Gecko) Chrome/136.0.0.0 Safari/537.36",WebKit,Chrome,136.0.0.0,Windows,10,https://5puzkbbxv1.cognition.run/?sona_id=56970,"en-US,en;q=0.9",keqz7ozuyw0n26a,19,"[""White""]",No,Female,na,No,607597.1999998093,NA,12779,NA,"{""product_choice"":""B""}",choice,dct,trinary,attraction,1,televisions,null,null,null,null,null,null,1,60,50,60,50,60,40,Screen size,Average lifespan,NA,NA
NA,NA,NA,NA,NA,choice_trial_setup,html-keyboard-response,12,117206,0.0-4.0-0.4,170,1,2025-05-04T23:57:15Z,b60275e29fe2361ab97ac0ac217840d7,"Mozilla/5.0 (Windows NT 10.0; Win64; x64) AppleWebKit/537.36 (KHTML, like Gecko) Chrome/136.0.0.0 Safari/537.36",WebKit,Chrome,136.0.0.0,Windows,10,https://5puzkbbxv1.cognition.run/?sona_id=56970,"en-US,en;q=0.9",keqz7ozuyw0n26a,19,"[""White""]",No,Female,na,No,607597.1999998093,NA,null,<p></p>,null,choice,wb,binary,catch,null,microwave ovens,60,95,10,5,null,null,1,NA,NA,NA,NA,NA,NA,NA,NA,NA,NA
NA,NA,NA,NA,NA,choice_trial,survey-html-form,13,122601,0.0-4.0-1.4,170,1,2025-05-04T23:57:15Z,b60275e29fe2361ab97ac0ac217840d7,"Mozilla/5.0 (Windows NT 10.0; Win64; x64) AppleWebKit/537.36 (KHTML, like Gecko) Chrome/136.0.0.0 Safari/537.36",WebKit,Chrome,136.0.0.0,Windows,10,https://5puzkbbxv1.cognition.run/?sona_id=56970,"en-US,en;q=0.9",keqz7ozuyw0n26a,19,"[""White""]",No,Female,na,No,607597.1999998093,NA,5391,NA,"{""product_choice"":""B""}",choice,wb,binary,catch,null,microwave ovens,60,95,10,5,null,null,1,null,null,null,null,null,null,Warranty,Cooking power,NA,NA
NA,NA,NA,NA,NA,choice_trial_setup,html-keyboard-response,14,122904,0.0-4.0-0.5,170,1,2025-05-04T23:57:15Z,b60275e29fe2361ab97ac0ac217840d7,"Mozilla/5.0 (Windows NT 10.0; Win64; x64) AppleWebKit/537.36 (KHTML, like Gecko) Chrome/136.0.0.0 Safari/537.36",WebKit,Chrome,136.0.0.0,Windows,10,https://5puzkbbxv1.cognition.run/?sona_id=56970,"en-US,en;q=0.9",keqz7ozuyw0n26a,19,"[""White""]",No,Female,na,No,607597.1999998093,NA,null,<p></p>,null,choice,dtc,trinary,repulsion_A,1,washing machines,null,null,null,null,null,null,1,NA,NA,NA,NA,NA,NA,NA,NA,NA,NA
NA,NA,NA,NA,NA,choice_trial,survey-html-form,15,137185,0.0-4.0-1.5,170,1,2025-05-04T23:57:15Z,b60275e29fe2361ab97ac0ac217840d7,"Mozilla/5.0 (Windows NT 10.0; Win64; x64) AppleWebKit/537.36 (KHTML, like Gecko) Chrome/136.0.0.0 Safari/537.36",WebKit,Chrome,136.0.0.0,Windows,10,https://5puzkbbxv1.cognition.run/?sona_id=56970,"en-US,en;q=0.9",keqz7ozuyw0n26a,19,"[""White""]",No,Female,na,No,607597.1999998093,NA,14280,NA,"{""product_choice"":""C""}",choice,dtc,trinary,repulsion_A,1,washing machines,null,null,null,null,null,null,1,100,90,100,30,40,20,Average lifespan,Energy savings,NA,NA
NA,NA,NA,NA,NA,choice_trial_setup,html-keyboard-response,16,137487,0.0-4.0-0.6,170,1,2025-05-04T23:57:15Z,b60275e29fe2361ab97ac0ac217840d7,"Mozilla/5.0 (Windows NT 10.0; Win64; x64) AppleWebKit/537.36 (KHTML, like Gecko) Chrome/136.0.0.0 Safari/537.36",WebKit,Chrome,136.0.0.0,Windows,10,https://5puzkbbxv1.cognition.run/?sona_id=56970,"en-US,en;q=0.9",keqz7ozuyw0n26a,19,"[""White""]",No,Female,na,No,607597.1999998093,NA,null,<p></p>,null,choice,ct,binary,repulsion,1,washing machines,null,null,null,null,null,null,2,NA,NA,NA,NA,NA,NA,NA,NA,NA,NA
NA,NA,NA,NA,NA,choice_trial,survey-html-form,17,144489,0.0-4.0-1.6,170,1,2025-05-04T23:57:15Z,b60275e29fe2361ab97ac0ac217840d7,"Mozilla/5.0 (Windows NT 10.0; Win64; x64) AppleWebKit/537.36 (KHTML, like Gecko) Chrome/136.0.0.0 Safari/537.36",WebKit,Chrome,136.0.0.0,Windows,10,https://5puzkbbxv1.cognition.run/?sona_id=56970,"en-US,en;q=0.9",keqz7ozuyw0n26a,19,"[""White""]",No,Female,na,No,607597.1999998093,NA,6998,NA,"{""product_choice"":""A""}",choice,ct,binary,repulsion,1,washing machines,null,null,null,null,null,null,2,100,90,null,30,40,null,Average lifespan,Energy savings,NA,NA
NA,NA,NA,NA,NA,choice_trial_setup,html-keyboard-response,18,144791,0.0-4.0-0.7,170,1,2025-05-04T23:57:15Z,b60275e29fe2361ab97ac0ac217840d7,"Mozilla/5.0 (Windows NT 10.0; Win64; x64) AppleWebKit/537.36 (KHTML, like Gecko) Chrome/136.0.0.0 Safari/537.36",WebKit,Chrome,136.0.0.0,Windows,10,https://5puzkbbxv1.cognition.run/?sona_id=56970,"en-US,en;q=0.9",keqz7ozuyw0n26a,19,"[""White""]",No,Female,na,No,607597.1999998093,NA,null,<p></p>,null,choice,cdt,trinary,repulsion_B,2,washing machines,null,null,null,null,null,null,1,NA,NA,NA,NA,NA,NA,NA,NA,NA,NA
NA,NA,NA,NA,NA,choice_trial,survey-html-form,19,158065,0.0-4.0-1.7,170,1,2025-05-04T23:57:15Z,b60275e29fe2361ab97ac0ac217840d7,"Mozilla/5.0 (Windows NT 10.0; Win64; x64) AppleWebKit/537.36 (KHTML, like Gecko) Chrome/136.0.0.0 Safari/537.36",WebKit,Chrome,136.0.0.0,Windows,10,https://5puzkbbxv1.cognition.run/?sona_id=56970,"en-US,en;q=0.9",keqz7ozuyw0n26a,19,"[""White""]",No,Female,na,No,607597.1999998093,NA,13270,NA,"{""product_choice"":""C""}",choice,cdt,trinary,repulsion_B,2,washing machines,null,null,null,null,null,null,1,40,30,40,90,100,80,Average lifespan,Energy savings,NA,NA
NA,NA,NA,NA,NA,choice_trial_setup,html-keyboard-response,20,158368,0.0-4.0-0.8,170,1,2025-05-04T23:57:15Z,b60275e29fe2361ab97ac0ac217840d7,"Mozilla/5.0 (Windows NT 10.0; Win64; x64) AppleWebKit/537.36 (KHTML, like Gecko) Chrome/136.0.0.0 Safari/537.36",WebKit,Chrome,136.0.0.0,Windows,10,https://5puzkbbxv1.cognition.run/?sona_id=56970,"en-US,en;q=0.9",keqz7ozuyw0n26a,19,"[""White""]",No,Female,na,No,607597.1999998093,NA,null,<p></p>,null,choice,bww,trinary,catch,null,televisions,60,75,15,50,25,5,2,NA,NA,NA,NA,NA,NA,NA,NA,NA,NA
NA,NA,NA,NA,NA,choice_trial,survey-html-form,21,166675,0.0-4.0-1.8,170,1,2025-05-04T23:57:15Z,b60275e29fe2361ab97ac0ac217840d7,"Mozilla/5.0 (Windows NT 10.0; Win64; x64) AppleWebKit/537.36 (KHTML, like Gecko) Chrome/136.0.0.0 Safari/537.36",WebKit,Chrome,136.0.0.0,Windows,10,https://5puzkbbxv1.cognition.run/?sona_id=56970,"en-US,en;q=0.9",keqz7ozuyw0n26a,19,"[""White""]",No,Female,na,No,607597.1999998093,NA,8303,NA,"{""product_choice"":""A""}",choice,bww,trinary,catch,null,televisions,60,75,15,50,25,5,2,null,null,null,null,null,null,Screen size,Average lifespan,NA,NA
NA,NA,NA,NA,NA,choice_trial_setup,html-keyboard-response,22,166978,0.0-4.0-0.9,170,1,2025-05-04T23:57:15Z,b60275e29fe2361ab97ac0ac217840d7,"Mozilla/5.0 (Windows NT 10.0; Win64; x64) AppleWebKit/537.36 (KHTML, like Gecko) Chrome/136.0.0.0 Safari/537.36",WebKit,Chrome,136.0.0.0,Windows,10,https://5puzkbbxv1.cognition.run/?sona_id=56970,"en-US,en;q=0.9",keqz7ozuyw0n26a,19,"[""White""]",No,Female,na,No,607597.1999998093,NA,null,<p></p>,null,choice,dct,trinary,attraction,2,televisions,null,null,null,null,null,null,2,NA,NA,NA,NA,NA,NA,NA,NA,NA,NA
NA,NA,NA,NA,NA,choice_trial,survey-html-form,23,182104,0.0-4.0-1.9,170,1,2025-05-04T23:57:15Z,b60275e29fe2361ab97ac0ac217840d7,"Mozilla/5.0 (Windows NT 10.0; Win64; x64) AppleWebKit/537.36 (KHTML, like Gecko) Chrome/136.0.0.0 Safari/537.36",WebKit,Chrome,136.0.0.0,Windows,10,https://5puzkbbxv1.cognition.run/?sona_id=56970,"en-US,en;q=0.9",keqz7ozuyw0n26a,19,"[""White""]",No,Female,na,No,607597.1999998093,NA,15122,NA,"{""product_choice"":""C""}",choice,dct,trinary,attraction,2,televisions,null,null,null,null,null,null,2,50,60,40,60,50,60,Screen size,Average lifespan,NA,NA
NA,NA,NA,NA,NA,choice_trial_setup,html-keyboard-response,24,182406,0.0-4.0-0.10,170,1,2025-05-04T23:57:15Z,b60275e29fe2361ab97ac0ac217840d7,"Mozilla/5.0 (Windows NT 10.0; Win64; x64) AppleWebKit/537.36 (KHTML, like Gecko) Chrome/136.0.0.0 Safari/537.36",WebKit,Chrome,136.0.0.0,Windows,10,https://5puzkbbxv1.cognition.run/?sona_id=56970,"en-US,en;q=0.9",keqz7ozuyw0n26a,19,"[""White""]",No,Female,na,No,607597.1999998093,NA,null,<p></p>,null,choice,tc,binary,repulsion,1,microwave ovens,null,null,null,null,null,null,1,NA,NA,NA,NA,NA,NA,NA,NA,NA,NA
NA,NA,NA,NA,NA,choice_trial,survey-html-form,25,191011,0.0-4.0-1.10,170,1,2025-05-04T23:57:15Z,b60275e29fe2361ab97ac0ac217840d7,"Mozilla/5.0 (Windows NT 10.0; Win64; x64) AppleWebKit/537.36 (KHTML, like Gecko) Chrome/136.0.0.0 Safari/537.36",WebKit,Chrome,136.0.0.0,Windows,10,https://5puzkbbxv1.cognition.run/?sona_id=56970,"en-US,en;q=0.9",keqz7ozuyw0n26a,19,"[""White""]",No,Female,na,No,607597.1999998093,NA,8601,NA,"{""product_choice"":""B""}",choice,tc,binary,repulsion,1,microwave ovens,null,null,null,null,null,null,1,100,90,null,30,40,null,Warranty,Cooking power,NA,NA
NA,NA,NA,NA,NA,choice_trial_setup,html-keyboard-response,26,191314,0.0-4.0-0.11,170,1,2025-05-04T23:57:15Z,b60275e29fe2361ab97ac0ac217840d7,"Mozilla/5.0 (Windows NT 10.0; Win64; x64) AppleWebKit/537.36 (KHTML, like Gecko) Chrome/136.0.0.0 Safari/537.36",WebKit,Chrome,136.0.0.0,Windows,10,https://5puzkbbxv1.cognition.run/?sona_id=56970,"en-US,en;q=0.9",keqz7ozuyw0n26a,19,"[""White""]",No,Female,na,No,607597.1999998093,NA,null,<p></p>,null,choice,dct,trinary,repulsion_A,2,televisions,null,null,null,null,null,null,1,NA,NA,NA,NA,NA,NA,NA,NA,NA,NA
NA,NA,NA,NA,NA,choice_trial,survey-html-form,27,201507,0.0-4.0-1.11,170,1,2025-05-04T23:57:15Z,b60275e29fe2361ab97ac0ac217840d7,"Mozilla/5.0 (Windows NT 10.0; Win64; x64) AppleWebKit/537.36 (KHTML, like Gecko) Chrome/136.0.0.0 Safari/537.36",WebKit,Chrome,136.0.0.0,Windows,10,https://5puzkbbxv1.cognition.run/?sona_id=56970,"en-US,en;q=0.9",keqz7ozuyw0n26a,19,"[""White""]",No,Female,na,No,607597.1999998093,NA,10190,NA,"{""product_choice"":""B""}",choice,dct,trinary,repulsion_A,2,televisions,null,null,null,null,null,null,1,30,40,20,100,90,100,Screen size,Average lifespan,NA,NA
NA,NA,NA,NA,NA,choice_trial_setup,html-keyboard-response,28,201810,0.0-4.0-0.12,170,1,2025-05-04T23:57:15Z,b60275e29fe2361ab97ac0ac217840d7,"Mozilla/5.0 (Windows NT 10.0; Win64; x64) AppleWebKit/537.36 (KHTML, like Gecko) Chrome/136.0.0.0 Safari/537.36",WebKit,Chrome,136.0.0.0,Windows,10,https://5puzkbbxv1.cognition.run/?sona_id=56970,"en-US,en;q=0.9",keqz7ozuyw0n26a,19,"[""White""]",No,Female,na,No,607597.1999998093,NA,null,<p></p>,null,choice,tc,binary,attraction,NA,televisions,null,null,null,null,null,null,2,NA,NA,NA,NA,NA,NA,NA,NA,NA,NA
NA,NA,NA,NA,NA,choice_trial,survey-html-form,29,210855,0.0-4.0-1.12,170,1,2025-05-04T23:57:15Z,b60275e29fe2361ab97ac0ac217840d7,"Mozilla/5.0 (Windows NT 10.0; Win64; x64) AppleWebKit/537.36 (KHTML, like Gecko) Chrome/136.0.0.0 Safari/537.36",WebKit,Chrome,136.0.0.0,Windows,10,https://5puzkbbxv1.cognition.run/?sona_id=56970,"en-US,en;q=0.9",keqz7ozuyw0n26a,19,"[""White""]",No,Female,na,No,607597.1999998093,NA,9043,NA,"{""product_choice"":""B""}",choice,tc,binary,attraction,NA,televisions,null,null,null,null,null,null,2,60,50,null,50,60,null,Screen size,Average lifespan,NA,NA
NA,NA,NA,NA,NA,choice_trial_setup,html-keyboard-response,30,211158,0.0-4.0-0.13,170,1,2025-05-04T23:57:15Z,b60275e29fe2361ab97ac0ac217840d7,"Mozilla/5.0 (Windows NT 10.0; Win64; x64) AppleWebKit/537.36 (KHTML, like Gecko) Chrome/136.0.0.0 Safari/537.36",WebKit,Chrome,136.0.0.0,Windows,10,https://5puzkbbxv1.cognition.run/?sona_id=56970,"en-US,en;q=0.9",keqz7ozuyw0n26a,19,"[""White""]",No,Female,na,No,607597.1999998093,NA,null,<p></p>,null,choice,wb,binary,catch,null,televisions,50,65,30,5,null,null,1,NA,NA,NA,NA,NA,NA,NA,NA,NA,NA
NA,NA,NA,NA,NA,choice_trial,survey-html-form,31,219940,0.0-4.0-1.13,170,1,2025-05-04T23:57:15Z,b60275e29fe2361ab97ac0ac217840d7,"Mozilla/5.0 (Windows NT 10.0; Win64; x64) AppleWebKit/537.36 (KHTML, like Gecko) Chrome/136.0.0.0 Safari/537.36",WebKit,Chrome,136.0.0.0,Windows,10,https://5puzkbbxv1.cognition.run/?sona_id=56970,"en-US,en;q=0.9",keqz7ozuyw0n26a,19,"[""White""]",No,Female,na,No,607597.1999998093,NA,8777,NA,"{""product_choice"":""B""}",choice,wb,binary,catch,null,televisions,50,65,30,5,null,null,1,null,null,null,null,null,null,Screen size,Average lifespan,NA,NA
NA,NA,NA,NA,NA,choice_trial_setup,html-keyboard-response,32,220243,0.0-4.0-0.14,170,1,2025-05-04T23:57:15Z,b60275e29fe2361ab97ac0ac217840d7,"Mozilla/5.0 (Windows NT 10.0; Win64; x64) AppleWebKit/537.36 (KHTML, like Gecko) Chrome/136.0.0.0 Safari/537.36",WebKit,Chrome,136.0.0.0,Windows,10,https://5puzkbbxv1.cognition.run/?sona_id=56970,"en-US,en;q=0.9",keqz7ozuyw0n26a,19,"[""White""]",No,Female,na,No,607597.1999998093,NA,null,<p></p>,null,choice,ctd,trinary,repulsion_A,2,washing machines,null,null,null,null,null,null,1,NA,NA,NA,NA,NA,NA,NA,NA,NA,NA
NA,NA,NA,NA,NA,choice_trial,survey-html-form,33,226086,0.0-4.0-1.14,170,1,2025-05-04T23:57:15Z,b60275e29fe2361ab97ac0ac217840d7,"Mozilla/5.0 (Windows NT 10.0; Win64; x64) AppleWebKit/537.36 (KHTML, like Gecko) Chrome/136.0.0.0 Safari/537.36",WebKit,Chrome,136.0.0.0,Windows,10,https://5puzkbbxv1.cognition.run/?sona_id=56970,"en-US,en;q=0.9",keqz7ozuyw0n26a,19,"[""White""]",No,Female,na,No,607597.1999998093,NA,5838,NA,"{""product_choice"":""A""}",choice,ctd,trinary,repulsion_A,2,washing machines,null,null,null,null,null,null,1,30,40,20,100,90,100,Average lifespan,Energy savings,NA,NA
NA,NA,NA,NA,NA,choice_trial_setup,html-keyboard-response,34,226389,0.0-4.0-0.15,170,1,2025-05-04T23:57:15Z,b60275e29fe2361ab97ac0ac217840d7,"Mozilla/5.0 (Windows NT 10.0; Win64; x64) AppleWebKit/537.36 (KHTML, like Gecko) Chrome/136.0.0.0 Safari/537.36",WebKit,Chrome,136.0.0.0,Windows,10,https://5puzkbbxv1.cognition.run/?sona_id=56970,"en-US,en;q=0.9",keqz7ozuyw0n26a,19,"[""White""]",No,Female,na,No,607597.1999998093,NA,null,<p></p>,null,choice,dct,trinary,repulsion_A,1,laptops,null,null,null,null,null,null,2,NA,NA,NA,NA,NA,NA,NA,NA,NA,NA
NA,NA,NA,NA,NA,choice_trial,survey-html-form,35,235463,0.0-4.0-1.15,170,1,2025-05-04T23:57:15Z,b60275e29fe2361ab97ac0ac217840d7,"Mozilla/5.0 (Windows NT 10.0; Win64; x64) AppleWebKit/537.36 (KHTML, like Gecko) Chrome/136.0.0.0 Safari/537.36",WebKit,Chrome,136.0.0.0,Windows,10,https://5puzkbbxv1.cognition.run/?sona_id=56970,"en-US,en;q=0.9",keqz7ozuyw0n26a,19,"[""White""]",No,Female,na,No,607597.1999998093,NA,9071,NA,"{""product_choice"":""B""}",choice,dct,trinary,repulsion_A,1,laptops,null,null,null,null,null,null,2,100,90,100,30,40,20,Processing speed,Memory (RAM),NA,NA
NA,NA,NA,NA,NA,choice_trial_setup,html-keyboard-response,36,235767,0.0-4.0-0.16,170,1,2025-05-04T23:57:15Z,b60275e29fe2361ab97ac0ac217840d7,"Mozilla/5.0 (Windows NT 10.0; Win64; x64) AppleWebKit/537.36 (KHTML, like Gecko) Chrome/136.0.0.0 Safari/537.36",WebKit,Chrome,136.0.0.0,Windows,10,https://5puzkbbxv1.cognition.run/?sona_id=56970,"en-US,en;q=0.9",keqz7ozuyw0n26a,19,"[""White""]",No,Female,na,No,607597.1999998093,NA,null,<p></p>,null,choice,ct,binary,repulsion,1,laptops,null,null,null,null,null,null,2,NA,NA,NA,NA,NA,NA,NA,NA,NA,NA
NA,NA,NA,NA,NA,choice_trial,survey-html-form,37,239717,0.0-4.0-1.16,170,1,2025-05-04T23:57:15Z,b60275e29fe2361ab97ac0ac217840d7,"Mozilla/5.0 (Windows NT 10.0; Win64; x64) AppleWebKit/537.36 (KHTML, like Gecko) Chrome/136.0.0.0 Safari/537.36",WebKit,Chrome,136.0.0.0,Windows,10,https://5puzkbbxv1.cognition.run/?sona_id=56970,"en-US,en;q=0.9",keqz7ozuyw0n26a,19,"[""White""]",No,Female,na,No,607597.1999998093,NA,3947,NA,"{""product_choice"":""A""}",choice,ct,binary,repulsion,1,laptops,null,null,null,null,null,null,2,100,90,null,30,40,null,Processing speed,Memory (RAM),NA,NA
NA,NA,NA,NA,NA,choice_trial_setup,html-keyboard-response,38,240020,0.0-4.0-0.17,170,1,2025-05-04T23:57:15Z,b60275e29fe2361ab97ac0ac217840d7,"Mozilla/5.0 (Windows NT 10.0; Win64; x64) AppleWebKit/537.36 (KHTML, like Gecko) Chrome/136.0.0.0 Safari/537.36",WebKit,Chrome,136.0.0.0,Windows,10,https://5puzkbbxv1.cognition.run/?sona_id=56970,"en-US,en;q=0.9",keqz7ozuyw0n26a,19,"[""White""]",No,Female,na,No,607597.1999998093,NA,null,<p></p>,null,choice,dct,trinary,repulsion_B,2,televisions,null,null,null,null,null,null,2,NA,NA,NA,NA,NA,NA,NA,NA,NA,NA
NA,NA,NA,NA,NA,choice_trial,survey-html-form,39,254446,0.0-4.0-1.17,170,1,2025-05-04T23:57:15Z,b60275e29fe2361ab97ac0ac217840d7,"Mozilla/5.0 (Windows NT 10.0; Win64; x64) AppleWebKit/537.36 (KHTML, like Gecko) Chrome/136.0.0.0 Safari/537.36",WebKit,Chrome,136.0.0.0,Windows,10,https://5puzkbbxv1.cognition.run/?sona_id=56970,"en-US,en;q=0.9",keqz7ozuyw0n26a,19,"[""White""]",No,Female,na,No,607597.1999998093,NA,14422,NA,"{""product_choice"":""C""}",choice,dct,trinary,repulsion_B,2,televisions,null,null,null,null,null,null,2,40,30,40,90,100,80,Screen size,Average lifespan,NA,NA
NA,NA,NA,NA,NA,choice_trial_setup,html-keyboard-response,40,254749,0.0-4.0-0.18,170,1,2025-05-04T23:57:15Z,b60275e29fe2361ab97ac0ac217840d7,"Mozilla/5.0 (Windows NT 10.0; Win64; x64) AppleWebKit/537.36 (KHTML, like Gecko) Chrome/136.0.0.0 Safari/537.36",WebKit,Chrome,136.0.0.0,Windows,10,https://5puzkbbxv1.cognition.run/?sona_id=56970,"en-US,en;q=0.9",keqz7ozuyw0n26a,19,"[""White""]",No,Female,na,No,607597.1999998093,NA,null,<p></p>,null,choice,ctd,trinary,repulsion_B,1,washing machines,null,null,null,null,null,null,2,NA,NA,NA,NA,NA,NA,NA,NA,NA,NA
NA,NA,NA,NA,NA,choice_trial,survey-html-form,41,265139,0.0-4.0-1.18,170,1,2025-05-04T23:57:15Z,b60275e29fe2361ab97ac0ac217840d7,"Mozilla/5.0 (Windows NT 10.0; Win64; x64) AppleWebKit/537.36 (KHTML, like Gecko) Chrome/136.0.0.0 Safari/537.36",WebKit,Chrome,136.0.0.0,Windows,10,https://5puzkbbxv1.cognition.run/?sona_id=56970,"en-US,en;q=0.9",keqz7ozuyw0n26a,19,"[""White""]",No,Female,na,No,607597.1999998093,NA,10386,NA,"{""product_choice"":""B""}",choice,ctd,trinary,repulsion_B,1,washing machines,null,null,null,null,null,null,2,90,100,80,40,30,40,Average lifespan,Energy savings,NA,NA
NA,NA,NA,NA,NA,choice_trial_setup,html-keyboard-response,42,265441,0.0-4.0-0.19,170,1,2025-05-04T23:57:15Z,b60275e29fe2361ab97ac0ac217840d7,"Mozilla/5.0 (Windows NT 10.0; Win64; x64) AppleWebKit/537.36 (KHTML, like Gecko) Chrome/136.0.0.0 Safari/537.36",WebKit,Chrome,136.0.0.0,Windows,10,https://5puzkbbxv1.cognition.run/?sona_id=56970,"en-US,en;q=0.9",keqz7ozuyw0n26a,19,"[""White""]",No,Female,na,No,607597.1999998093,NA,null,<p></p>,null,choice,ctd,trinary,repulsion_B,2,laptops,null,null,null,null,null,null,2,NA,NA,NA,NA,NA,NA,NA,NA,NA,NA
NA,NA,NA,NA,NA,choice_trial,survey-html-form,43,273497,0.0-4.0-1.19,170,1,2025-05-04T23:57:15Z,b60275e29fe2361ab97ac0ac217840d7,"Mozilla/5.0 (Windows NT 10.0; Win64; x64) AppleWebKit/537.36 (KHTML, like Gecko) Chrome/136.0.0.0 Safari/537.36",WebKit,Chrome,136.0.0.0,Windows,10,https://5puzkbbxv1.cognition.run/?sona_id=56970,"en-US,en;q=0.9",keqz7ozuyw0n26a,19,"[""White""]",No,Female,na,No,607597.1999998093,NA,8051,NA,"{""product_choice"":""C""}",choice,ctd,trinary,repulsion_B,2,laptops,null,null,null,null,null,null,2,40,30,40,90,100,80,Processing speed,Memory (RAM),NA,NA
NA,NA,NA,NA,NA,choice_trial_setup,html-keyboard-response,44,273800,0.0-4.0-0.20,170,1,2025-05-04T23:57:15Z,b60275e29fe2361ab97ac0ac217840d7,"Mozilla/5.0 (Windows NT 10.0; Win64; x64) AppleWebKit/537.36 (KHTML, like Gecko) Chrome/136.0.0.0 Safari/537.36",WebKit,Chrome,136.0.0.0,Windows,10,https://5puzkbbxv1.cognition.run/?sona_id=56970,"en-US,en;q=0.9",keqz7ozuyw0n26a,19,"[""White""]",No,Female,na,No,607597.1999998093,NA,null,<p></p>,null,choice,dct,trinary,attraction,2,laptops,null,null,null,null,null,null,1,NA,NA,NA,NA,NA,NA,NA,NA,NA,NA
NA,NA,NA,NA,NA,choice_trial,survey-html-form,45,283472,0.0-4.0-1.20,170,1,2025-05-04T23:57:15Z,b60275e29fe2361ab97ac0ac217840d7,"Mozilla/5.0 (Windows NT 10.0; Win64; x64) AppleWebKit/537.36 (KHTML, like Gecko) Chrome/136.0.0.0 Safari/537.36",WebKit,Chrome,136.0.0.0,Windows,10,https://5puzkbbxv1.cognition.run/?sona_id=56970,"en-US,en;q=0.9",keqz7ozuyw0n26a,19,"[""White""]",No,Female,na,No,607597.1999998093,NA,9668,NA,"{""product_choice"":""C""}",choice,dct,trinary,attraction,2,laptops,null,null,null,null,null,null,1,50,60,40,60,50,60,Processing speed,Memory (RAM),NA,NA
NA,NA,NA,NA,NA,choice_trial_setup,html-keyboard-response,46,283775,0.0-4.0-0.21,170,1,2025-05-04T23:57:15Z,b60275e29fe2361ab97ac0ac217840d7,"Mozilla/5.0 (Windows NT 10.0; Win64; x64) AppleWebKit/537.36 (KHTML, like Gecko) Chrome/136.0.0.0 Safari/537.36",WebKit,Chrome,136.0.0.0,Windows,10,https://5puzkbbxv1.cognition.run/?sona_id=56970,"en-US,en;q=0.9",keqz7ozuyw0n26a,19,"[""White""]",No,Female,na,No,607597.1999998093,NA,null,<p></p>,null,choice,dct,trinary,repulsion_A,2,laptops,null,null,null,null,null,null,1,NA,NA,NA,NA,NA,NA,NA,NA,NA,NA
NA,NA,NA,NA,NA,choice_trial,survey-html-form,47,293848,0.0-4.0-1.21,170,1,2025-05-04T23:57:15Z,b60275e29fe2361ab97ac0ac217840d7,"Mozilla/5.0 (Windows NT 10.0; Win64; x64) AppleWebKit/537.36 (KHTML, like Gecko) Chrome/136.0.0.0 Safari/537.36",WebKit,Chrome,136.0.0.0,Windows,10,https://5puzkbbxv1.cognition.run/?sona_id=56970,"en-US,en;q=0.9",keqz7ozuyw0n26a,19,"[""White""]",No,Female,na,No,607597.1999998093,NA,10068,NA,"{""product_choice"":""B""}",choice,dct,trinary,repulsion_A,2,laptops,null,null,null,null,null,null,1,30,40,20,100,90,100,Processing speed,Memory (RAM),NA,NA
NA,NA,NA,NA,NA,choice_trial_setup,html-keyboard-response,48,294152,0.0-4.0-0.22,170,1,2025-05-04T23:57:15Z,b60275e29fe2361ab97ac0ac217840d7,"Mozilla/5.0 (Windows NT 10.0; Win64; x64) AppleWebKit/537.36 (KHTML, like Gecko) Chrome/136.0.0.0 Safari/537.36",WebKit,Chrome,136.0.0.0,Windows,10,https://5puzkbbxv1.cognition.run/?sona_id=56970,"en-US,en;q=0.9",keqz7ozuyw0n26a,19,"[""White""]",No,Female,na,No,607597.1999998093,NA,null,<p></p>,null,choice,wbw,trinary,catch,null,laptops,70,60,30,5,10,35,1,NA,NA,NA,NA,NA,NA,NA,NA,NA,NA
NA,NA,NA,NA,NA,choice_trial,survey-html-form,49,299518,0.0-4.0-1.22,170,1,2025-05-04T23:57:15Z,b60275e29fe2361ab97ac0ac217840d7,"Mozilla/5.0 (Windows NT 10.0; Win64; x64) AppleWebKit/537.36 (KHTML, like Gecko) Chrome/136.0.0.0 Safari/537.36",WebKit,Chrome,136.0.0.0,Windows,10,https://5puzkbbxv1.cognition.run/?sona_id=56970,"en-US,en;q=0.9",keqz7ozuyw0n26a,19,"[""White""]",No,Female,na,No,607597.1999998093,NA,5361,NA,"{""product_choice"":""B""}",choice,wbw,trinary,catch,null,laptops,70,60,30,5,10,35,1,null,null,null,null,null,null,Processing speed,Memory (RAM),NA,NA
NA,NA,NA,NA,NA,choice_trial_setup,html-keyboard-response,50,299822,0.0-4.0-0.23,170,1,2025-05-04T23:57:15Z,b60275e29fe2361ab97ac0ac217840d7,"Mozilla/5.0 (Windows NT 10.0; Win64; x64) AppleWebKit/537.36 (KHTML, like Gecko) Chrome/136.0.0.0 Safari/537.36",WebKit,Chrome,136.0.0.0,Windows,10,https://5puzkbbxv1.cognition.run/?sona_id=56970,"en-US,en;q=0.9",keqz7ozuyw0n26a,19,"[""White""]",No,Female,na,No,607597.1999998093,NA,null,<p></p>,null,choice,dtc,trinary,attraction,1,microwave ovens,null,null,null,null,null,null,1,NA,NA,NA,NA,NA,NA,NA,NA,NA,NA
NA,NA,NA,NA,NA,choice_trial,survey-html-form,51,328396,0.0-4.0-1.23,170,1,2025-05-04T23:57:15Z,b60275e29fe2361ab97ac0ac217840d7,"Mozilla/5.0 (Windows NT 10.0; Win64; x64) AppleWebKit/537.36 (KHTML, like Gecko) Chrome/136.0.0.0 Safari/537.36",WebKit,Chrome,136.0.0.0,Windows,10,https://5puzkbbxv1.cognition.run/?sona_id=56970,"en-US,en;q=0.9",keqz7ozuyw0n26a,19,"[""White""]",No,Female,na,No,607597.1999998093,NA,28569,NA,"{""product_choice"":""C""}",choice,dtc,trinary,attraction,1,microwave ovens,null,null,null,null,null,null,1,60,50,60,50,60,40,Warranty,Cooking power,NA,NA
NA,NA,NA,NA,NA,choice_trial_setup,html-keyboard-response,52,328701,0.0-4.0-0.24,170,1,2025-05-04T23:57:15Z,b60275e29fe2361ab97ac0ac217840d7,"Mozilla/5.0 (Windows NT 10.0; Win64; x64) AppleWebKit/537.36 (KHTML, like Gecko) Chrome/136.0.0.0 Safari/537.36",WebKit,Chrome,136.0.0.0,Windows,10,https://5puzkbbxv1.cognition.run/?sona_id=56970,"en-US,en;q=0.9",keqz7ozuyw0n26a,19,"[""White""]",No,Female,na,No,607597.1999998093,NA,null,<p></p>,null,choice,ct,binary,repulsion,2,televisions,null,null,null,null,null,null,2,NA,NA,NA,NA,NA,NA,NA,NA,NA,NA
NA,NA,NA,NA,NA,choice_trial,survey-html-form,53,334168,0.0-4.0-1.24,170,1,2025-05-04T23:57:15Z,b60275e29fe2361ab97ac0ac217840d7,"Mozilla/5.0 (Windows NT 10.0; Win64; x64) AppleWebKit/537.36 (KHTML, like Gecko) Chrome/136.0.0.0 Safari/537.36",WebKit,Chrome,136.0.0.0,Windows,10,https://5puzkbbxv1.cognition.run/?sona_id=56970,"en-US,en;q=0.9",keqz7ozuyw0n26a,19,"[""White""]",No,Female,na,No,607597.1999998093,NA,5462,NA,"{""product_choice"":""A""}",choice,ct,binary,repulsion,2,televisions,null,null,null,null,null,null,2,30,40,null,100,90,null,Screen size,Average lifespan,NA,NA
NA,NA,NA,NA,NA,choice_trial_setup,html-keyboard-response,54,334470,0.0-4.0-0.25,170,1,2025-05-04T23:57:15Z,b60275e29fe2361ab97ac0ac217840d7,"Mozilla/5.0 (Windows NT 10.0; Win64; x64) AppleWebKit/537.36 (KHTML, like Gecko) Chrome/136.0.0.0 Safari/537.36",WebKit,Chrome,136.0.0.0,Windows,10,https://5puzkbbxv1.cognition.run/?sona_id=56970,"en-US,en;q=0.9",keqz7ozuyw0n26a,19,"[""White""]",No,Female,na,No,607597.1999998093,NA,null,<p></p>,null,choice,ct,binary,attraction,NA,washing machines,null,null,null,null,null,null,1,NA,NA,NA,NA,NA,NA,NA,NA,NA,NA
NA,NA,NA,NA,NA,choice_trial,survey-html-form,55,345004,0.0-4.0-1.25,170,1,2025-05-04T23:57:15Z,b60275e29fe2361ab97ac0ac217840d7,"Mozilla/5.0 (Windows NT 10.0; Win64; x64) AppleWebKit/537.36 (KHTML, like Gecko) Chrome/136.0.0.0 Safari/537.36",WebKit,Chrome,136.0.0.0,Windows,10,https://5puzkbbxv1.cognition.run/?sona_id=56970,"en-US,en;q=0.9",keqz7ozuyw0n26a,19,"[""White""]",No,Female,na,No,607597.1999998093,NA,10529,NA,"{""product_choice"":""B""}",choice,ct,binary,attraction,NA,washing machines,null,null,null,null,null,null,1,60,50,null,50,60,null,Average lifespan,Energy savings,NA,NA
NA,NA,NA,NA,NA,choice_trial_setup,html-keyboard-response,56,345307,0.0-4.0-0.26,170,1,2025-05-04T23:57:15Z,b60275e29fe2361ab97ac0ac217840d7,"Mozilla/5.0 (Windows NT 10.0; Win64; x64) AppleWebKit/537.36 (KHTML, like Gecko) Chrome/136.0.0.0 Safari/537.36",WebKit,Chrome,136.0.0.0,Windows,10,https://5puzkbbxv1.cognition.run/?sona_id=56970,"en-US,en;q=0.9",keqz7ozuyw0n26a,19,"[""White""]",No,Female,na,No,607597.1999998093,NA,null,<p></p>,null,choice,bw,binary,catch,null,laptops,70,50,5,45,null,null,1,NA,NA,NA,NA,NA,NA,NA,NA,NA,NA
NA,NA,NA,NA,NA,choice_trial,survey-html-form,57,349978,0.0-4.0-1.26,170,1,2025-05-04T23:57:15Z,b60275e29fe2361ab97ac0ac217840d7,"Mozilla/5.0 (Windows NT 10.0; Win64; x64) AppleWebKit/537.36 (KHTML, like Gecko) Chrome/136.0.0.0 Safari/537.36",WebKit,Chrome,136.0.0.0,Windows,10,https://5puzkbbxv1.cognition.run/?sona_id=56970,"en-US,en;q=0.9",keqz7ozuyw0n26a,19,"[""White""]",No,Female,na,No,607597.1999998093,NA,4666,NA,"{""product_choice"":""A""}",choice,bw,binary,catch,null,laptops,70,50,5,45,null,null,1,null,null,null,null,null,null,Processing speed,Memory (RAM),NA,NA
NA,NA,NA,NA,NA,choice_trial_setup,html-keyboard-response,58,350281,0.0-4.0-0.27,170,1,2025-05-04T23:57:15Z,b60275e29fe2361ab97ac0ac217840d7,"Mozilla/5.0 (Windows NT 10.0; Win64; x64) AppleWebKit/537.36 (KHTML, like Gecko) Chrome/136.0.0.0 Safari/537.36",WebKit,Chrome,136.0.0.0,Windows,10,https://5puzkbbxv1.cognition.run/?sona_id=56970,"en-US,en;q=0.9",keqz7ozuyw0n26a,19,"[""White""]",No,Female,na,No,607597.1999998093,NA,null,<p></p>,null,choice,wb,binary,catch,null,washing machines,95,95,35,50,null,null,2,NA,NA,NA,NA,NA,NA,NA,NA,NA,NA
NA,NA,NA,NA,NA,choice_trial,survey-html-form,59,358357,0.0-4.0-1.27,170,1,2025-05-04T23:57:15Z,b60275e29fe2361ab97ac0ac217840d7,"Mozilla/5.0 (Windows NT 10.0; Win64; x64) AppleWebKit/537.36 (KHTML, like Gecko) Chrome/136.0.0.0 Safari/537.36",WebKit,Chrome,136.0.0.0,Windows,10,https://5puzkbbxv1.cognition.run/?sona_id=56970,"en-US,en;q=0.9",keqz7ozuyw0n26a,19,"[""White""]",No,Female,na,No,607597.1999998093,NA,8071,NA,"{""product_choice"":""B""}",choice,wb,binary,catch,null,washing machines,95,95,35,50,null,null,2,null,null,null,null,null,null,Average lifespan,Energy savings,NA,NA
NA,NA,NA,NA,NA,choice_trial_setup,html-keyboard-response,60,358660,0.0-4.0-0.28,170,1,2025-05-04T23:57:15Z,b60275e29fe2361ab97ac0ac217840d7,"Mozilla/5.0 (Windows NT 10.0; Win64; x64) AppleWebKit/537.36 (KHTML, like Gecko) Chrome/136.0.0.0 Safari/537.36",WebKit,Chrome,136.0.0.0,Windows,10,https://5puzkbbxv1.cognition.run/?sona_id=56970,"en-US,en;q=0.9",keqz7ozuyw0n26a,19,"[""White""]",No,Female,na,No,607597.1999998093,NA,null,<p></p>,null,choice,tdc,trinary,repulsion_B,1,microwave ovens,null,null,null,null,null,null,1,NA,NA,NA,NA,NA,NA,NA,NA,NA,NA
NA,NA,NA,NA,NA,choice_trial,survey-html-form,61,371108,0.0-4.0-1.28,170,1,2025-05-04T23:57:15Z,b60275e29fe2361ab97ac0ac217840d7,"Mozilla/5.0 (Windows NT 10.0; Win64; x64) AppleWebKit/537.36 (KHTML, like Gecko) Chrome/136.0.0.0 Safari/537.36",WebKit,Chrome,136.0.0.0,Windows,10,https://5puzkbbxv1.cognition.run/?sona_id=56970,"en-US,en;q=0.9",keqz7ozuyw0n26a,19,"[""White""]",No,Female,na,No,607597.1999998093,NA,12443,NA,"{""product_choice"":""A""}",choice,tdc,trinary,repulsion_B,1,microwave ovens,null,null,null,null,null,null,1,90,100,80,40,30,40,Warranty,Cooking power,NA,NA
NA,NA,NA,NA,NA,choice_trial_setup,html-keyboard-response,62,371413,0.0-4.0-0.29,170,1,2025-05-04T23:57:15Z,b60275e29fe2361ab97ac0ac217840d7,"Mozilla/5.0 (Windows NT 10.0; Win64; x64) AppleWebKit/537.36 (KHTML, like Gecko) Chrome/136.0.0.0 Safari/537.36",WebKit,Chrome,136.0.0.0,Windows,10,https://5puzkbbxv1.cognition.run/?sona_id=56970,"en-US,en;q=0.9",keqz7ozuyw0n26a,19,"[""White""]",No,Female,na,No,607597.1999998093,NA,null,<p></p>,null,choice,ct,binary,repulsion,1,televisions,null,null,null,null,null,null,2,NA,NA,NA,NA,NA,NA,NA,NA,NA,NA
NA,NA,NA,NA,NA,choice_trial,survey-html-form,63,375788,0.0-4.0-1.29,170,1,2025-05-04T23:57:15Z,b60275e29fe2361ab97ac0ac217840d7,"Mozilla/5.0 (Windows NT 10.0; Win64; x64) AppleWebKit/537.36 (KHTML, like Gecko) Chrome/136.0.0.0 Safari/537.36",WebKit,Chrome,136.0.0.0,Windows,10,https://5puzkbbxv1.cognition.run/?sona_id=56970,"en-US,en;q=0.9",keqz7ozuyw0n26a,19,"[""White""]",No,Female,na,No,607597.1999998093,NA,4370,NA,"{""product_choice"":""A""}",choice,ct,binary,repulsion,1,televisions,null,null,null,null,null,null,2,100,90,null,30,40,null,Screen size,Average lifespan,NA,NA
NA,NA,NA,NA,NA,choice_trial_setup,html-keyboard-response,64,376092,0.0-4.0-0.30,170,1,2025-05-04T23:57:15Z,b60275e29fe2361ab97ac0ac217840d7,"Mozilla/5.0 (Windows NT 10.0; Win64; x64) AppleWebKit/537.36 (KHTML, like Gecko) Chrome/136.0.0.0 Safari/537.36",WebKit,Chrome,136.0.0.0,Windows,10,https://5puzkbbxv1.cognition.run/?sona_id=56970,"en-US,en;q=0.9",keqz7ozuyw0n26a,19,"[""White""]",No,Female,na,No,607597.1999998093,NA,null,<p></p>,null,choice,wwb,trinary,catch,null,microwave ovens,60,80,20,5,20,5,2,NA,NA,NA,NA,NA,NA,NA,NA,NA,NA
NA,NA,NA,NA,NA,choice_trial,survey-html-form,65,383078,0.0-4.0-1.30,170,1,2025-05-04T23:57:15Z,b60275e29fe2361ab97ac0ac217840d7,"Mozilla/5.0 (Windows NT 10.0; Win64; x64) AppleWebKit/537.36 (KHTML, like Gecko) Chrome/136.0.0.0 Safari/537.36",WebKit,Chrome,136.0.0.0,Windows,10,https://5puzkbbxv1.cognition.run/?sona_id=56970,"en-US,en;q=0.9",keqz7ozuyw0n26a,19,"[""White""]",No,Female,na,No,607597.1999998093,NA,6981,NA,"{""product_choice"":""C""}",choice,wwb,trinary,catch,null,microwave ovens,60,80,20,5,20,5,2,null,null,null,null,null,null,Warranty,Cooking power,NA,NA
NA,NA,NA,NA,NA,choice_trial_setup,html-keyboard-response,66,383382,0.0-4.0-0.31,170,1,2025-05-04T23:57:15Z,b60275e29fe2361ab97ac0ac217840d7,"Mozilla/5.0 (Windows NT 10.0; Win64; x64) AppleWebKit/537.36 (KHTML, like Gecko) Chrome/136.0.0.0 Safari/537.36",WebKit,Chrome,136.0.0.0,Windows,10,https://5puzkbbxv1.cognition.run/?sona_id=56970,"en-US,en;q=0.9",keqz7ozuyw0n26a,19,"[""White""]",No,Female,na,No,607597.1999998093,NA,null,<p></p>,null,choice,tcd,trinary,repulsion_B,1,laptops,null,null,null,null,null,null,1,NA,NA,NA,NA,NA,NA,NA,NA,NA,NA
NA,NA,NA,NA,NA,choice_trial,survey-html-form,67,402240,0.0-4.0-1.31,170,1,2025-05-04T23:57:15Z,b60275e29fe2361ab97ac0ac217840d7,"Mozilla/5.0 (Windows NT 10.0; Win64; x64) AppleWebKit/537.36 (KHTML, like Gecko) Chrome/136.0.0.0 Safari/537.36",WebKit,Chrome,136.0.0.0,Windows,10,https://5puzkbbxv1.cognition.run/?sona_id=56970,"en-US,en;q=0.9",keqz7ozuyw0n26a,19,"[""White""]",No,Female,na,No,607597.1999998093,NA,18854,NA,"{""product_choice"":""A""}",choice,tcd,trinary,repulsion_B,1,laptops,null,null,null,null,null,null,1,90,100,80,40,30,40,Processing speed,Memory (RAM),NA,NA
NA,NA,NA,NA,NA,choice_trial_setup,html-keyboard-response,68,402544,0.0-4.0-0.32,170,1,2025-05-04T23:57:15Z,b60275e29fe2361ab97ac0ac217840d7,"Mozilla/5.0 (Windows NT 10.0; Win64; x64) AppleWebKit/537.36 (KHTML, like Gecko) Chrome/136.0.0.0 Safari/537.36",WebKit,Chrome,136.0.0.0,Windows,10,https://5puzkbbxv1.cognition.run/?sona_id=56970,"en-US,en;q=0.9",keqz7ozuyw0n26a,19,"[""White""]",No,Female,na,No,607597.1999998093,NA,null,<p></p>,null,choice,ctd,trinary,attraction,2,microwave ovens,null,null,null,null,null,null,1,NA,NA,NA,NA,NA,NA,NA,NA,NA,NA
NA,NA,NA,NA,NA,choice_trial,survey-html-form,69,410541,0.0-4.0-1.32,170,1,2025-05-04T23:57:15Z,b60275e29fe2361ab97ac0ac217840d7,"Mozilla/5.0 (Windows NT 10.0; Win64; x64) AppleWebKit/537.36 (KHTML, like Gecko) Chrome/136.0.0.0 Safari/537.36",WebKit,Chrome,136.0.0.0,Windows,10,https://5puzkbbxv1.cognition.run/?sona_id=56970,"en-US,en;q=0.9",keqz7ozuyw0n26a,19,"[""White""]",No,Female,na,No,607597.1999998093,NA,7992,NA,"{""product_choice"":""B""}",choice,ctd,trinary,attraction,2,microwave ovens,null,null,null,null,null,null,1,50,60,40,60,50,60,Warranty,Cooking power,NA,NA
NA,NA,NA,NA,NA,choice_trial_setup,html-keyboard-response,70,410845,0.0-4.0-0.33,170,1,2025-05-04T23:57:15Z,b60275e29fe2361ab97ac0ac217840d7,"Mozilla/5.0 (Windows NT 10.0; Win64; x64) AppleWebKit/537.36 (KHTML, like Gecko) Chrome/136.0.0.0 Safari/537.36",WebKit,Chrome,136.0.0.0,Windows,10,https://5puzkbbxv1.cognition.run/?sona_id=56970,"en-US,en;q=0.9",keqz7ozuyw0n26a,19,"[""White""]",No,Female,na,No,607597.1999998093,NA,null,<p></p>,null,choice,tdc,trinary,repulsion_B,1,televisions,null,null,null,null,null,null,2,NA,NA,NA,NA,NA,NA,NA,NA,NA,NA
NA,NA,NA,NA,NA,choice_trial,survey-html-form,71,419543,0.0-4.0-1.33,170,1,2025-05-04T23:57:15Z,b60275e29fe2361ab97ac0ac217840d7,"Mozilla/5.0 (Windows NT 10.0; Win64; x64) AppleWebKit/537.36 (KHTML, like Gecko) Chrome/136.0.0.0 Safari/537.36",WebKit,Chrome,136.0.0.0,Windows,10,https://5puzkbbxv1.cognition.run/?sona_id=56970,"en-US,en;q=0.9",keqz7ozuyw0n26a,19,"[""White""]",No,Female,na,No,607597.1999998093,NA,8694,NA,"{""product_choice"":""A""}",choice,tdc,trinary,repulsion_B,1,televisions,null,null,null,null,null,null,2,90,100,80,40,30,40,Screen size,Average lifespan,NA,NA
NA,NA,NA,NA,NA,choice_trial_setup,html-keyboard-response,72,419847,0.0-4.0-0.34,170,1,2025-05-04T23:57:15Z,b60275e29fe2361ab97ac0ac217840d7,"Mozilla/5.0 (Windows NT 10.0; Win64; x64) AppleWebKit/537.36 (KHTML, like Gecko) Chrome/136.0.0.0 Safari/537.36",WebKit,Chrome,136.0.0.0,Windows,10,https://5puzkbbxv1.cognition.run/?sona_id=56970,"en-US,en;q=0.9",keqz7ozuyw0n26a,19,"[""White""]",No,Female,na,No,607597.1999998093,NA,null,<p></p>,null,choice,tc,binary,repulsion,2,laptops,null,null,null,null,null,null,2,NA,NA,NA,NA,NA,NA,NA,NA,NA,NA
NA,NA,NA,NA,NA,choice_trial,survey-html-form,73,423827,0.0-4.0-1.34,170,1,2025-05-04T23:57:15Z,b60275e29fe2361ab97ac0ac217840d7,"Mozilla/5.0 (Windows NT 10.0; Win64; x64) AppleWebKit/537.36 (KHTML, like Gecko) Chrome/136.0.0.0 Safari/537.36",WebKit,Chrome,136.0.0.0,Windows,10,https://5puzkbbxv1.cognition.run/?sona_id=56970,"en-US,en;q=0.9",keqz7ozuyw0n26a,19,"[""White""]",No,Female,na,No,607597.1999998093,NA,3976,NA,"{""product_choice"":""B""}",choice,tc,binary,repulsion,2,laptops,null,null,null,null,null,null,2,30,40,null,100,90,null,Processing speed,Memory (RAM),NA,NA
NA,NA,NA,NA,NA,choice_trial_setup,html-keyboard-response,74,424132,0.0-4.0-0.35,170,1,2025-05-04T23:57:15Z,b60275e29fe2361ab97ac0ac217840d7,"Mozilla/5.0 (Windows NT 10.0; Win64; x64) AppleWebKit/537.36 (KHTML, like Gecko) Chrome/136.0.0.0 Safari/537.36",WebKit,Chrome,136.0.0.0,Windows,10,https://5puzkbbxv1.cognition.run/?sona_id=56970,"en-US,en;q=0.9",keqz7ozuyw0n26a,19,"[""White""]",No,Female,na,No,607597.1999998093,NA,null,<p></p>,null,choice,cdt,trinary,attraction,1,laptops,null,null,null,null,null,null,2,NA,NA,NA,NA,NA,NA,NA,NA,NA,NA
NA,NA,NA,NA,NA,choice_trial,survey-html-form,75,429950,0.0-4.0-1.35,170,1,2025-05-04T23:57:15Z,b60275e29fe2361ab97ac0ac217840d7,"Mozilla/5.0 (Windows NT 10.0; Win64; x64) AppleWebKit/537.36 (KHTML, like Gecko) Chrome/136.0.0.0 Safari/537.36",WebKit,Chrome,136.0.0.0,Windows,10,https://5puzkbbxv1.cognition.run/?sona_id=56970,"en-US,en;q=0.9",keqz7ozuyw0n26a,19,"[""White""]",No,Female,na,No,607597.1999998093,NA,5814,NA,"{""product_choice"":""A""}",choice,cdt,trinary,attraction,1,laptops,null,null,null,null,null,null,2,60,50,60,50,60,40,Processing speed,Memory (RAM),NA,NA
NA,NA,NA,NA,NA,choice_trial_setup,html-keyboard-response,76,430254,0.0-4.0-0.36,170,1,2025-05-04T23:57:15Z,b60275e29fe2361ab97ac0ac217840d7,"Mozilla/5.0 (Windows NT 10.0; Win64; x64) AppleWebKit/537.36 (KHTML, like Gecko) Chrome/136.0.0.0 Safari/537.36",WebKit,Chrome,136.0.0.0,Windows,10,https://5puzkbbxv1.cognition.run/?sona_id=56970,"en-US,en;q=0.9",keqz7ozuyw0n26a,19,"[""White""]",No,Female,na,No,607597.1999998093,NA,null,<p></p>,null,choice,dct,trinary,attraction,2,washing machines,null,null,null,null,null,null,1,NA,NA,NA,NA,NA,NA,NA,NA,NA,NA
NA,NA,NA,NA,NA,choice_trial,survey-html-form,77,453047,0.0-4.0-1.36,170,1,2025-05-04T23:57:15Z,b60275e29fe2361ab97ac0ac217840d7,"Mozilla/5.0 (Windows NT 10.0; Win64; x64) AppleWebKit/537.36 (KHTML, like Gecko) Chrome/136.0.0.0 Safari/537.36",WebKit,Chrome,136.0.0.0,Windows,10,https://5puzkbbxv1.cognition.run/?sona_id=56970,"en-US,en;q=0.9",keqz7ozuyw0n26a,19,"[""White""]",No,Female,na,No,607597.1999998093,NA,22788,NA,"{""product_choice"":""B""}",choice,dct,trinary,attraction,2,washing machines,null,null,null,null,null,null,1,50,60,40,60,50,60,Average lifespan,Energy savings,NA,NA
NA,NA,NA,NA,NA,choice_trial_setup,html-keyboard-response,78,453353,0.0-4.0-0.37,170,1,2025-05-04T23:57:15Z,b60275e29fe2361ab97ac0ac217840d7,"Mozilla/5.0 (Windows NT 10.0; Win64; x64) AppleWebKit/537.36 (KHTML, like Gecko) Chrome/136.0.0.0 Safari/537.36",WebKit,Chrome,136.0.0.0,Windows,10,https://5puzkbbxv1.cognition.run/?sona_id=56970,"en-US,en;q=0.9",keqz7ozuyw0n26a,19,"[""White""]",No,Female,na,No,607597.1999998093,NA,null,<p></p>,null,choice,tdc,trinary,attraction,1,washing machines,null,null,null,null,null,null,1,NA,NA,NA,NA,NA,NA,NA,NA,NA,NA
NA,NA,NA,NA,NA,choice_trial,survey-html-form,79,459302,0.0-4.0-1.37,170,1,2025-05-04T23:57:15Z,b60275e29fe2361ab97ac0ac217840d7,"Mozilla/5.0 (Windows NT 10.0; Win64; x64) AppleWebKit/537.36 (KHTML, like Gecko) Chrome/136.0.0.0 Safari/537.36",WebKit,Chrome,136.0.0.0,Windows,10,https://5puzkbbxv1.cognition.run/?sona_id=56970,"en-US,en;q=0.9",keqz7ozuyw0n26a,19,"[""White""]",No,Female,na,No,607597.1999998093,NA,5944,NA,"{""product_choice"":""A""}",choice,tdc,trinary,attraction,1,washing machines,null,null,null,null,null,null,1,60,50,60,50,60,40,Average lifespan,Energy savings,NA,NA
NA,NA,NA,NA,NA,choice_trial_setup,html-keyboard-response,80,459606,0.0-4.0-0.38,170,1,2025-05-04T23:57:15Z,b60275e29fe2361ab97ac0ac217840d7,"Mozilla/5.0 (Windows NT 10.0; Win64; x64) AppleWebKit/537.36 (KHTML, like Gecko) Chrome/136.0.0.0 Safari/537.36",WebKit,Chrome,136.0.0.0,Windows,10,https://5puzkbbxv1.cognition.run/?sona_id=56970,"en-US,en;q=0.9",keqz7ozuyw0n26a,19,"[""White""]",No,Female,na,No,607597.1999998093,NA,null,<p></p>,null,choice,tc,binary,attraction,NA,laptops,null,null,null,null,null,null,2,NA,NA,NA,NA,NA,NA,NA,NA,NA,NA
NA,NA,NA,NA,NA,choice_trial,survey-html-form,81,463094,0.0-4.0-1.38,170,1,2025-05-04T23:57:15Z,b60275e29fe2361ab97ac0ac217840d7,"Mozilla/5.0 (Windows NT 10.0; Win64; x64) AppleWebKit/537.36 (KHTML, like Gecko) Chrome/136.0.0.0 Safari/537.36",WebKit,Chrome,136.0.0.0,Windows,10,https://5puzkbbxv1.cognition.run/?sona_id=56970,"en-US,en;q=0.9",keqz7ozuyw0n26a,19,"[""White""]",No,Female,na,No,607597.1999998093,NA,3484,NA,"{""product_choice"":""B""}",choice,tc,binary,attraction,NA,laptops,null,null,null,null,null,null,2,60,50,null,50,60,null,Processing speed,Memory (RAM),NA,NA
NA,NA,NA,NA,NA,choice_trial_setup,html-keyboard-response,82,463399,0.0-4.0-0.39,170,1,2025-05-04T23:57:15Z,b60275e29fe2361ab97ac0ac217840d7,"Mozilla/5.0 (Windows NT 10.0; Win64; x64) AppleWebKit/537.36 (KHTML, like Gecko) Chrome/136.0.0.0 Safari/537.36",WebKit,Chrome,136.0.0.0,Windows,10,https://5puzkbbxv1.cognition.run/?sona_id=56970,"en-US,en;q=0.9",keqz7ozuyw0n26a,19,"[""White""]",No,Female,na,No,607597.1999998093,NA,null,<p></p>,null,choice,wbw,trinary,catch,null,washing machines,55,55,40,45,40,15,2,NA,NA,NA,NA,NA,NA,NA,NA,NA,NA
NA,NA,NA,NA,NA,choice_trial,survey-html-form,83,466037,0.0-4.0-1.39,170,1,2025-05-04T23:57:15Z,b60275e29fe2361ab97ac0ac217840d7,"Mozilla/5.0 (Windows NT 10.0; Win64; x64) AppleWebKit/537.36 (KHTML, like Gecko) Chrome/136.0.0.0 Safari/537.36",WebKit,Chrome,136.0.0.0,Windows,10,https://5puzkbbxv1.cognition.run/?sona_id=56970,"en-US,en;q=0.9",keqz7ozuyw0n26a,19,"[""White""]",No,Female,na,No,607597.1999998093,NA,2633,NA,"{""product_choice"":""B""}",choice,wbw,trinary,catch,null,washing machines,55,55,40,45,40,15,2,null,null,null,null,null,null,Average lifespan,Energy savings,NA,NA
NA,NA,NA,NA,NA,choice_trial_setup,html-keyboard-response,84,466341,0.0-4.0-0.40,170,1,2025-05-04T23:57:15Z,b60275e29fe2361ab97ac0ac217840d7,"Mozilla/5.0 (Windows NT 10.0; Win64; x64) AppleWebKit/537.36 (KHTML, like Gecko) Chrome/136.0.0.0 Safari/537.36",WebKit,Chrome,136.0.0.0,Windows,10,https://5puzkbbxv1.cognition.run/?sona_id=56970,"en-US,en;q=0.9",keqz7ozuyw0n26a,19,"[""White""]",No,Female,na,No,607597.1999998093,NA,null,<p></p>,null,choice,ct,binary,repulsion,2,microwave ovens,null,null,null,null,null,null,2,NA,NA,NA,NA,NA,NA,NA,NA,NA,NA
NA,NA,NA,NA,NA,choice_trial,survey-html-form,85,469706,0.0-4.0-1.40,170,1,2025-05-04T23:57:15Z,b60275e29fe2361ab97ac0ac217840d7,"Mozilla/5.0 (Windows NT 10.0; Win64; x64) AppleWebKit/537.36 (KHTML, like Gecko) Chrome/136.0.0.0 Safari/537.36",WebKit,Chrome,136.0.0.0,Windows,10,https://5puzkbbxv1.cognition.run/?sona_id=56970,"en-US,en;q=0.9",keqz7ozuyw0n26a,19,"[""White""]",No,Female,na,No,607597.1999998093,NA,3359,NA,"{""product_choice"":""A""}",choice,ct,binary,repulsion,2,microwave ovens,null,null,null,null,null,null,2,30,40,null,100,90,null,Warranty,Cooking power,NA,NA
NA,NA,NA,NA,NA,choice_trial_setup,html-keyboard-response,86,470010,0.0-4.0-0.41,170,1,2025-05-04T23:57:15Z,b60275e29fe2361ab97ac0ac217840d7,"Mozilla/5.0 (Windows NT 10.0; Win64; x64) AppleWebKit/537.36 (KHTML, like Gecko) Chrome/136.0.0.0 Safari/537.36",WebKit,Chrome,136.0.0.0,Windows,10,https://5puzkbbxv1.cognition.run/?sona_id=56970,"en-US,en;q=0.9",keqz7ozuyw0n26a,19,"[""White""]",No,Female,na,No,607597.1999998093,NA,null,<p></p>,null,choice,tdc,trinary,repulsion_A,2,microwave ovens,null,null,null,null,null,null,2,NA,NA,NA,NA,NA,NA,NA,NA,NA,NA
NA,NA,NA,NA,NA,choice_trial,survey-html-form,87,474323,0.0-4.0-1.41,170,1,2025-05-04T23:57:15Z,b60275e29fe2361ab97ac0ac217840d7,"Mozilla/5.0 (Windows NT 10.0; Win64; x64) AppleWebKit/537.36 (KHTML, like Gecko) Chrome/136.0.0.0 Safari/537.36",WebKit,Chrome,136.0.0.0,Windows,10,https://5puzkbbxv1.cognition.run/?sona_id=56970,"en-US,en;q=0.9",keqz7ozuyw0n26a,19,"[""White""]",No,Female,na,No,607597.1999998093,NA,4308,NA,"{""product_choice"":""C""}",choice,tdc,trinary,repulsion_A,2,microwave ovens,null,null,null,null,null,null,2,30,40,20,100,90,100,Warranty,Cooking power,NA,NA
NA,NA,NA,NA,NA,choice_trial_setup,html-keyboard-response,88,474628,0.0-4.0-0.42,170,1,2025-05-04T23:57:15Z,b60275e29fe2361ab97ac0ac217840d7,"Mozilla/5.0 (Windows NT 10.0; Win64; x64) AppleWebKit/537.36 (KHTML, like Gecko) Chrome/136.0.0.0 Safari/537.36",WebKit,Chrome,136.0.0.0,Windows,10,https://5puzkbbxv1.cognition.run/?sona_id=56970,"en-US,en;q=0.9",keqz7ozuyw0n26a,19,"[""White""]",No,Female,na,No,607597.1999998093,NA,null,<p></p>,null,choice,dct,trinary,repulsion_B,2,microwave ovens,null,null,null,null,null,null,1,NA,NA,NA,NA,NA,NA,NA,NA,NA,NA
NA,NA,NA,NA,NA,choice_trial,survey-html-form,89,481936,0.0-4.0-1.42,170,1,2025-05-04T23:57:15Z,b60275e29fe2361ab97ac0ac217840d7,"Mozilla/5.0 (Windows NT 10.0; Win64; x64) AppleWebKit/537.36 (KHTML, like Gecko) Chrome/136.0.0.0 Safari/537.36",WebKit,Chrome,136.0.0.0,Windows,10,https://5puzkbbxv1.cognition.run/?sona_id=56970,"en-US,en;q=0.9",keqz7ozuyw0n26a,19,"[""White""]",No,Female,na,No,607597.1999998093,NA,7303,NA,"{""product_choice"":""C""}",choice,dct,trinary,repulsion_B,2,microwave ovens,null,null,null,null,null,null,1,40,30,40,90,100,80,Warranty,Cooking power,NA,NA
NA,NA,NA,NA,NA,choice_trial_setup,html-keyboard-response,90,482240,0.0-4.0-0.43,170,1,2025-05-04T23:57:15Z,b60275e29fe2361ab97ac0ac217840d7,"Mozilla/5.0 (Windows NT 10.0; Win64; x64) AppleWebKit/537.36 (KHTML, like Gecko) Chrome/136.0.0.0 Safari/537.36",WebKit,Chrome,136.0.0.0,Windows,10,https://5puzkbbxv1.cognition.run/?sona_id=56970,"en-US,en;q=0.9",keqz7ozuyw0n26a,19,"[""White""]",No,Female,na,No,607597.1999998093,NA,null,<p></p>,null,choice,ctd,trinary,repulsion_A,1,microwave ovens,null,null,null,null,null,null,1,NA,NA,NA,NA,NA,NA,NA,NA,NA,NA
NA,NA,NA,NA,NA,choice_trial,survey-html-form,91,485829,0.0-4.0-1.43,170,1,2025-05-04T23:57:15Z,b60275e29fe2361ab97ac0ac217840d7,"Mozilla/5.0 (Windows NT 10.0; Win64; x64) AppleWebKit/537.36 (KHTML, like Gecko) Chrome/136.0.0.0 Safari/537.36",WebKit,Chrome,136.0.0.0,Windows,10,https://5puzkbbxv1.cognition.run/?sona_id=56970,"en-US,en;q=0.9",keqz7ozuyw0n26a,19,"[""White""]",No,Female,na,No,607597.1999998093,NA,3584,NA,"{""product_choice"":""A""}",choice,ctd,trinary,repulsion_A,1,microwave ovens,null,null,null,null,null,null,1,100,90,100,30,40,20,Warranty,Cooking power,NA,NA
NA,NA,NA,NA,NA,post_trials_message,html-button-response,92,486927,0.0-5.0,170,1,2025-05-04T23:57:15Z,b60275e29fe2361ab97ac0ac217840d7,"Mozilla/5.0 (Windows NT 10.0; Win64; x64) AppleWebKit/537.36 (KHTML, like Gecko) Chrome/136.0.0.0 Safari/537.36",WebKit,Chrome,136.0.0.0,Windows,10,https://5puzkbbxv1.cognition.run/?sona_id=56970,"en-US,en;q=0.9",keqz7ozuyw0n26a,19,"[""White""]",No,Female,na,No,607597.1999998093,NA,1094,<p> <b>Thank you for your patience!</b></p><p>  The study will be done after completing a brief form. </p>,0,NA,NA,NA,NA,NA,NA,NA,NA,NA,NA,NA,NA,NA,NA,NA,NA,NA,NA,NA,NA,NA,NA,NA
NA,NA,NA,NA,NA,survey_message,survey-text,93,554368,0.0-6.0,170,1,2025-05-04T23:57:15Z,b60275e29fe2361ab97ac0ac217840d7,"Mozilla/5.0 (Windows NT 10.0; Win64; x64) AppleWebKit/537.36 (KHTML, like Gecko) Chrome/136.0.0.0 Safari/537.36",WebKit,Chrome,136.0.0.0,Windows,10,https://5puzkbbxv1.cognition.run/?sona_id=56970,"en-US,en;q=0.9",keqz7ozuyw0n26a,19,"[""White""]",No,Female,na,No,607597.1999998093,NA,67437,NA,"{""Q0"":""Comparing the ratios and considering priorities. Asking myself \""what would be more beneficial?\"" and \""what would I look for as a customer?\""""}",NA,NA,NA,NA,NA,NA,NA,NA,NA,NA,NA,NA,NA,NA,NA,NA,NA,NA,NA,NA,NA,"Comparing the ratios and considering priorities. Asking myself ""what would be more beneficial?"" and ""what would I look for as a customer?""",NA
NA,NA,NA,NA,NA,demo_age,survey-text,94,557358,0.0-7.0,170,1,2025-05-04T23:57:15Z,b60275e29fe2361ab97ac0ac217840d7,"Mozilla/5.0 (Windows NT 10.0; Win64; x64) AppleWebKit/537.36 (KHTML, like Gecko) Chrome/136.0.0.0 Safari/537.36",WebKit,Chrome,136.0.0.0,Windows,10,https://5puzkbbxv1.cognition.run/?sona_id=56970,"en-US,en;q=0.9",keqz7ozuyw0n26a,19,"[""White""]",No,Female,na,No,607597.1999998093,NA,2983,NA,"{""Q0"":""19""}",NA,NA,NA,NA,NA,NA,NA,NA,NA,NA,NA,NA,NA,NA,NA,NA,NA,NA,NA,NA,NA,NA,NA
NA,NA,NA,NA,NA,demo_race,survey-multi-select,95,559723,0.0-8.0,170,1,2025-05-04T23:57:15Z,b60275e29fe2361ab97ac0ac217840d7,"Mozilla/5.0 (Windows NT 10.0; Win64; x64) AppleWebKit/537.36 (KHTML, like Gecko) Chrome/136.0.0.0 Safari/537.36",WebKit,Chrome,136.0.0.0,Windows,10,https://5puzkbbxv1.cognition.run/?sona_id=56970,"en-US,en;q=0.9",keqz7ozuyw0n26a,19,"[""White""]",No,Female,na,No,607597.1999998093,NA,2357,NA,"{""Q0"":[""White""]}",NA,NA,NA,NA,NA,NA,NA,NA,NA,NA,NA,NA,NA,NA,NA,NA,NA,NA,NA,NA,NA,NA,[0]
NA,NA,NA,NA,NA,demo_ethnicity_gender,survey-multi-choice,96,564842,0.0-9.0,170,1,2025-05-04T23:57:15Z,b60275e29fe2361ab97ac0ac217840d7,"Mozilla/5.0 (Windows NT 10.0; Win64; x64) AppleWebKit/537.36 (KHTML, like Gecko) Chrome/136.0.0.0 Safari/537.36",WebKit,Chrome,136.0.0.0,Windows,10,https://5puzkbbxv1.cognition.run/?sona_id=56970,"en-US,en;q=0.9",keqz7ozuyw0n26a,19,"[""White""]",No,Female,na,No,607597.1999998093,NA,5113,NA,"{""Q0"":""No"",""Q1"":""Female""}",NA,NA,NA,NA,NA,NA,NA,NA,NA,NA,NA,NA,NA,NA,NA,NA,NA,NA,NA,NA,NA,NA,"[0,1]"
NA,NA,NA,NA,NA,demo_countries,survey-text,97,569913,0.0-10.0,170,1,2025-05-04T23:57:15Z,b60275e29fe2361ab97ac0ac217840d7,"Mozilla/5.0 (Windows NT 10.0; Win64; x64) AppleWebKit/537.36 (KHTML, like Gecko) Chrome/136.0.0.0 Safari/537.36",WebKit,Chrome,136.0.0.0,Windows,10,https://5puzkbbxv1.cognition.run/?sona_id=56970,"en-US,en;q=0.9",keqz7ozuyw0n26a,19,"[""White""]",No,Female,na,No,607597.1999998093,NA,5048,NA,"{""Q0"":""na""}",NA,NA,NA,NA,NA,NA,NA,NA,NA,NA,NA,NA,NA,NA,NA,NA,NA,NA,NA,NA,NA,NA,NA
NA,NA,NA,NA,NA,demo_prev_study,survey-multi-choice,98,575848,0.0-11.0,170,1,2025-05-04T23:57:15Z,b60275e29fe2361ab97ac0ac217840d7,"Mozilla/5.0 (Windows NT 10.0; Win64; x64) AppleWebKit/537.36 (KHTML, like Gecko) Chrome/136.0.0.0 Safari/537.36",WebKit,Chrome,136.0.0.0,Windows,10,https://5puzkbbxv1.cognition.run/?sona_id=56970,"en-US,en;q=0.9",keqz7ozuyw0n26a,19,"[""White""]",No,Female,na,No,607597.1999998093,NA,5929,NA,"{""Q0"":""No""}",NA,NA,NA,NA,NA,NA,NA,NA,NA,NA,NA,NA,NA,NA,NA,NA,NA,NA,NA,NA,NA,NA,[0]
NA,NA,NA,NA,NA,post_survey_message,html-keyboard-response,99,580299,0.0-12.0,170,1,2025-05-04T23:57:15Z,b60275e29fe2361ab97ac0ac217840d7,"Mozilla/5.0 (Windows NT 10.0; Win64; x64) AppleWebKit/537.36 (KHTML, like Gecko) Chrome/136.0.0.0 Safari/537.36",WebKit,Chrome,136.0.0.0,Windows,10,https://5puzkbbxv1.cognition.run/?sona_id=56970,"en-US,en;q=0.9",keqz7ozuyw0n26a,19,"[""White""]",No,Female,na,No,607597.1999998093,NA,4446,NA,j,NA,NA,NA,NA,NA,NA,NA,NA,NA,NA,NA,NA,NA,NA,NA,NA,NA,NA,NA,NA,NA,NA,NA
NA,NA,NA,NA,NA,debrief,image-keyboard-response,100,607596,0.0-13.0,170,1,2025-05-04T23:57:15Z,b60275e29fe2361ab97ac0ac217840d7,"Mozilla/5.0 (Windows NT 10.0; Win64; x64) AppleWebKit/537.36 (KHTML, like Gecko) Chrome/136.0.0.0 Safari/537.36",WebKit,Chrome,136.0.0.0,Windows,10,https://5puzkbbxv1.cognition.run/?sona_id=56970,"en-US,en;q=0.9",keqz7ozuyw0n26a,19,"[""White""]",No,Female,na,No,607597.1999998093,NA,27290,Judg_choice_debrief.png,p,NA,NA,NA,NA,NA,NA,NA,NA,NA,NA,NA,NA,NA,NA,NA,NA,NA,NA,NA,NA,NA,NA,NA
