success,timeout,failed_images,failed_audio,failed_video,screen_id,trial_type,trial_index,time_elapsed,internal_node_id,run_id,condition,recorded_at,source_code_version,user_agent,device,browser,browser_version,platform,platform_version,referer,accept_language,ppt_id,age,race,ethnicity,gender,other_countries,prev_study,exp_duration,view_history,rt,stimulus,response,phase,order,set,effect,t_high,category,d1_best,d2_best,d1_worst1,d2_worst1,d1_worst2,d2_worst2,first_dim,d1_t,d1_c,d1_d,d2_t,d2_c,d2_d,d1_name,d2_name,strategy_response,question_order
TRUE,FALSE,[],[],[],img preload,preload,0,459,0.0-0.0,172,1,2025-05-05T01:40:03Z,b60275e29fe2361ab97ac0ac217840d7,"Mozilla/5.0 (Macintosh; Intel Mac OS X 10_15_7) AppleWebKit/537.36 (KHTML, like Gecko) Chrome/135.0.0.0 Safari/537.36",Macintosh,Chrome,135.0.0.0,OS X,10_15_7,https://5puzkbbxv1.cognition.run/?sona_id=56619,"en-US,en;q=0.9",j1wp6s3jl5z8zjg,20,"[""White""]",No,Female,NA,No,286434.8000000119,NA,NA,NA,NA,NA,NA,NA,NA,NA,NA,NA,NA,NA,NA,NA,NA,NA,NA,NA,NA,NA,NA,NA,NA,NA,NA,NA
NA,NA,NA,NA,NA,computer_message,instructions,1,1413,0.0-1.0,172,1,2025-05-05T01:40:03Z,b60275e29fe2361ab97ac0ac217840d7,"Mozilla/5.0 (Macintosh; Intel Mac OS X 10_15_7) AppleWebKit/537.36 (KHTML, like Gecko) Chrome/135.0.0.0 Safari/537.36",Macintosh,Chrome,135.0.0.0,OS X,10_15_7,https://5puzkbbxv1.cognition.run/?sona_id=56619,"en-US,en;q=0.9",j1wp6s3jl5z8zjg,20,"[""White""]",No,Female,NA,No,286434.8000000119,"[{""page_index"":0,""viewing_time"":952}]",952,NA,NA,NA,NA,NA,NA,NA,NA,NA,NA,NA,NA,NA,NA,NA,NA,NA,NA,NA,NA,NA,NA,NA,NA,NA
TRUE,NA,NA,NA,NA,NA,fullscreen,2,3262,0.0-2.0,172,1,2025-05-05T01:40:03Z,b60275e29fe2361ab97ac0ac217840d7,"Mozilla/5.0 (Macintosh; Intel Mac OS X 10_15_7) AppleWebKit/537.36 (KHTML, like Gecko) Chrome/135.0.0.0 Safari/537.36",Macintosh,Chrome,135.0.0.0,OS X,10_15_7,https://5puzkbbxv1.cognition.run/?sona_id=56619,"en-US,en;q=0.9",j1wp6s3jl5z8zjg,20,"[""White""]",No,Female,NA,No,286434.8000000119,NA,846,NA,NA,NA,NA,NA,NA,NA,NA,NA,NA,NA,NA,NA,NA,NA,NA,NA,NA,NA,NA,NA,NA,NA,NA,NA
NA,NA,NA,NA,NA,choice_instructions,instructions,3,14412,0.0-3.0,172,1,2025-05-05T01:40:03Z,b60275e29fe2361ab97ac0ac217840d7,"Mozilla/5.0 (Macintosh; Intel Mac OS X 10_15_7) AppleWebKit/537.36 (KHTML, like Gecko) Chrome/135.0.0.0 Safari/537.36",Macintosh,Chrome,135.0.0.0,OS X,10_15_7,https://5puzkbbxv1.cognition.run/?sona_id=56619,"en-US,en;q=0.9",j1wp6s3jl5z8zjg,20,"[""White""]",No,Female,NA,No,286434.8000000119,"[{""page_index"":0,""viewing_time"":865},{""page_index"":1,""viewing_time"":1566},{""page_index"":2,""viewing_time"":651},{""page_index"":3,""viewing_time"":684},{""page_index"":4,""viewing_time"":584},{""page_index"":5,""viewing_time"":5717},{""page_index"":6,""viewing_time"":1083}]",11149,NA,NA,NA,NA,NA,NA,NA,NA,NA,NA,NA,NA,NA,NA,NA,NA,NA,NA,NA,NA,NA,NA,NA,NA,NA
NA,NA,NA,NA,NA,choice_trial_setup,html-keyboard-response,4,14716,0.0-4.0-0.0,172,1,2025-05-05T01:40:03Z,b60275e29fe2361ab97ac0ac217840d7,"Mozilla/5.0 (Macintosh; Intel Mac OS X 10_15_7) AppleWebKit/537.36 (KHTML, like Gecko) Chrome/135.0.0.0 Safari/537.36",Macintosh,Chrome,135.0.0.0,OS X,10_15_7,https://5puzkbbxv1.cognition.run/?sona_id=56619,"en-US,en;q=0.9",j1wp6s3jl5z8zjg,20,"[""White""]",No,Female,NA,No,286434.8000000119,NA,null,<p></p>,null,choice,bww,trinary,catch,null,microwave ovens,80,80,40,5,5,40,2,NA,NA,NA,NA,NA,NA,NA,NA,NA,NA
NA,NA,NA,NA,NA,choice_trial,survey-html-form,5,23147,0.0-4.0-1.0,172,1,2025-05-05T01:40:03Z,b60275e29fe2361ab97ac0ac217840d7,"Mozilla/5.0 (Macintosh; Intel Mac OS X 10_15_7) AppleWebKit/537.36 (KHTML, like Gecko) Chrome/135.0.0.0 Safari/537.36",Macintosh,Chrome,135.0.0.0,OS X,10_15_7,https://5puzkbbxv1.cognition.run/?sona_id=56619,"en-US,en;q=0.9",j1wp6s3jl5z8zjg,20,"[""White""]",No,Female,NA,No,286434.8000000119,NA,8425,NA,"{""product_choice"":""A""}",choice,bww,trinary,catch,null,microwave ovens,80,80,40,5,5,40,2,null,null,null,null,null,null,Warranty,Cooking power,NA,NA
NA,NA,NA,NA,NA,choice_trial_setup,html-keyboard-response,6,23449,0.0-4.0-0.1,172,1,2025-05-05T01:40:03Z,b60275e29fe2361ab97ac0ac217840d7,"Mozilla/5.0 (Macintosh; Intel Mac OS X 10_15_7) AppleWebKit/537.36 (KHTML, like Gecko) Chrome/135.0.0.0 Safari/537.36",Macintosh,Chrome,135.0.0.0,OS X,10_15_7,https://5puzkbbxv1.cognition.run/?sona_id=56619,"en-US,en;q=0.9",j1wp6s3jl5z8zjg,20,"[""White""]",No,Female,NA,No,286434.8000000119,NA,null,<p></p>,null,choice,ctd,trinary,attraction,2,televisions,null,null,null,null,null,null,1,NA,NA,NA,NA,NA,NA,NA,NA,NA,NA
NA,NA,NA,NA,NA,choice_trial,survey-html-form,7,33296,0.0-4.0-1.1,172,1,2025-05-05T01:40:03Z,b60275e29fe2361ab97ac0ac217840d7,"Mozilla/5.0 (Macintosh; Intel Mac OS X 10_15_7) AppleWebKit/537.36 (KHTML, like Gecko) Chrome/135.0.0.0 Safari/537.36",Macintosh,Chrome,135.0.0.0,OS X,10_15_7,https://5puzkbbxv1.cognition.run/?sona_id=56619,"en-US,en;q=0.9",j1wp6s3jl5z8zjg,20,"[""White""]",No,Female,NA,No,286434.8000000119,NA,9845,NA,"{""product_choice"":""B""}",choice,ctd,trinary,attraction,2,televisions,null,null,null,null,null,null,1,50,60,40,60,50,60,Screen size,Average lifespan,NA,NA
NA,NA,NA,NA,NA,choice_trial_setup,html-keyboard-response,8,33599,0.0-4.0-0.2,172,1,2025-05-05T01:40:03Z,b60275e29fe2361ab97ac0ac217840d7,"Mozilla/5.0 (Macintosh; Intel Mac OS X 10_15_7) AppleWebKit/537.36 (KHTML, like Gecko) Chrome/135.0.0.0 Safari/537.36",Macintosh,Chrome,135.0.0.0,OS X,10_15_7,https://5puzkbbxv1.cognition.run/?sona_id=56619,"en-US,en;q=0.9",j1wp6s3jl5z8zjg,20,"[""White""]",No,Female,NA,No,286434.8000000119,NA,null,<p></p>,null,choice,bww,trinary,catch,null,laptops,85,50,30,5,15,40,2,NA,NA,NA,NA,NA,NA,NA,NA,NA,NA
NA,NA,NA,NA,NA,choice_trial,survey-html-form,9,38913,0.0-4.0-1.2,172,1,2025-05-05T01:40:03Z,b60275e29fe2361ab97ac0ac217840d7,"Mozilla/5.0 (Macintosh; Intel Mac OS X 10_15_7) AppleWebKit/537.36 (KHTML, like Gecko) Chrome/135.0.0.0 Safari/537.36",Macintosh,Chrome,135.0.0.0,OS X,10_15_7,https://5puzkbbxv1.cognition.run/?sona_id=56619,"en-US,en;q=0.9",j1wp6s3jl5z8zjg,20,"[""White""]",No,Female,NA,No,286434.8000000119,NA,5311,NA,"{""product_choice"":""A""}",choice,bww,trinary,catch,null,laptops,85,50,30,5,15,40,2,null,null,null,null,null,null,Processing speed,Memory (RAM),NA,NA
NA,NA,NA,NA,NA,choice_trial_setup,html-keyboard-response,10,39216,0.0-4.0-0.3,172,1,2025-05-05T01:40:03Z,b60275e29fe2361ab97ac0ac217840d7,"Mozilla/5.0 (Macintosh; Intel Mac OS X 10_15_7) AppleWebKit/537.36 (KHTML, like Gecko) Chrome/135.0.0.0 Safari/537.36",Macintosh,Chrome,135.0.0.0,OS X,10_15_7,https://5puzkbbxv1.cognition.run/?sona_id=56619,"en-US,en;q=0.9",j1wp6s3jl5z8zjg,20,"[""White""]",No,Female,NA,No,286434.8000000119,NA,null,<p></p>,null,choice,tcd,trinary,attraction,2,microwave ovens,null,null,null,null,null,null,2,NA,NA,NA,NA,NA,NA,NA,NA,NA,NA
NA,NA,NA,NA,NA,choice_trial,survey-html-form,11,45613,0.0-4.0-1.3,172,1,2025-05-05T01:40:03Z,b60275e29fe2361ab97ac0ac217840d7,"Mozilla/5.0 (Macintosh; Intel Mac OS X 10_15_7) AppleWebKit/537.36 (KHTML, like Gecko) Chrome/135.0.0.0 Safari/537.36",Macintosh,Chrome,135.0.0.0,OS X,10_15_7,https://5puzkbbxv1.cognition.run/?sona_id=56619,"en-US,en;q=0.9",j1wp6s3jl5z8zjg,20,"[""White""]",No,Female,NA,No,286434.8000000119,NA,6394,NA,"{""product_choice"":""B""}",choice,tcd,trinary,attraction,2,microwave ovens,null,null,null,null,null,null,2,50,60,40,60,50,60,Warranty,Cooking power,NA,NA
NA,NA,NA,NA,NA,choice_trial_setup,html-keyboard-response,12,45916,0.0-4.0-0.4,172,1,2025-05-05T01:40:03Z,b60275e29fe2361ab97ac0ac217840d7,"Mozilla/5.0 (Macintosh; Intel Mac OS X 10_15_7) AppleWebKit/537.36 (KHTML, like Gecko) Chrome/135.0.0.0 Safari/537.36",Macintosh,Chrome,135.0.0.0,OS X,10_15_7,https://5puzkbbxv1.cognition.run/?sona_id=56619,"en-US,en;q=0.9",j1wp6s3jl5z8zjg,20,"[""White""]",No,Female,NA,No,286434.8000000119,NA,null,<p></p>,null,choice,tcd,trinary,repulsion_B,2,televisions,null,null,null,null,null,null,1,NA,NA,NA,NA,NA,NA,NA,NA,NA,NA
NA,NA,NA,NA,NA,choice_trial,survey-html-form,13,52480,0.0-4.0-1.4,172,1,2025-05-05T01:40:03Z,b60275e29fe2361ab97ac0ac217840d7,"Mozilla/5.0 (Macintosh; Intel Mac OS X 10_15_7) AppleWebKit/537.36 (KHTML, like Gecko) Chrome/135.0.0.0 Safari/537.36",Macintosh,Chrome,135.0.0.0,OS X,10_15_7,https://5puzkbbxv1.cognition.run/?sona_id=56619,"en-US,en;q=0.9",j1wp6s3jl5z8zjg,20,"[""White""]",No,Female,NA,No,286434.8000000119,NA,6562,NA,"{""product_choice"":""A""}",choice,tcd,trinary,repulsion_B,2,televisions,null,null,null,null,null,null,1,40,30,40,90,100,80,Screen size,Average lifespan,NA,NA
NA,NA,NA,NA,NA,choice_trial_setup,html-keyboard-response,14,52784,0.0-4.0-0.5,172,1,2025-05-05T01:40:03Z,b60275e29fe2361ab97ac0ac217840d7,"Mozilla/5.0 (Macintosh; Intel Mac OS X 10_15_7) AppleWebKit/537.36 (KHTML, like Gecko) Chrome/135.0.0.0 Safari/537.36",Macintosh,Chrome,135.0.0.0,OS X,10_15_7,https://5puzkbbxv1.cognition.run/?sona_id=56619,"en-US,en;q=0.9",j1wp6s3jl5z8zjg,20,"[""White""]",No,Female,NA,No,286434.8000000119,NA,null,<p></p>,null,choice,wb,binary,catch,null,laptops,70,70,30,35,null,null,2,NA,NA,NA,NA,NA,NA,NA,NA,NA,NA
NA,NA,NA,NA,NA,choice_trial,survey-html-form,15,57979,0.0-4.0-1.5,172,1,2025-05-05T01:40:03Z,b60275e29fe2361ab97ac0ac217840d7,"Mozilla/5.0 (Macintosh; Intel Mac OS X 10_15_7) AppleWebKit/537.36 (KHTML, like Gecko) Chrome/135.0.0.0 Safari/537.36",Macintosh,Chrome,135.0.0.0,OS X,10_15_7,https://5puzkbbxv1.cognition.run/?sona_id=56619,"en-US,en;q=0.9",j1wp6s3jl5z8zjg,20,"[""White""]",No,Female,NA,No,286434.8000000119,NA,5194,NA,"{""product_choice"":""B""}",choice,wb,binary,catch,null,laptops,70,70,30,35,null,null,2,null,null,null,null,null,null,Processing speed,Memory (RAM),NA,NA
NA,NA,NA,NA,NA,choice_trial_setup,html-keyboard-response,16,58283,0.0-4.0-0.6,172,1,2025-05-05T01:40:03Z,b60275e29fe2361ab97ac0ac217840d7,"Mozilla/5.0 (Macintosh; Intel Mac OS X 10_15_7) AppleWebKit/537.36 (KHTML, like Gecko) Chrome/135.0.0.0 Safari/537.36",Macintosh,Chrome,135.0.0.0,OS X,10_15_7,https://5puzkbbxv1.cognition.run/?sona_id=56619,"en-US,en;q=0.9",j1wp6s3jl5z8zjg,20,"[""White""]",No,Female,NA,No,286434.8000000119,NA,null,<p></p>,null,choice,ctd,trinary,attraction,1,laptops,null,null,null,null,null,null,2,NA,NA,NA,NA,NA,NA,NA,NA,NA,NA
NA,NA,NA,NA,NA,choice_trial,survey-html-form,17,64346,0.0-4.0-1.6,172,1,2025-05-05T01:40:03Z,b60275e29fe2361ab97ac0ac217840d7,"Mozilla/5.0 (Macintosh; Intel Mac OS X 10_15_7) AppleWebKit/537.36 (KHTML, like Gecko) Chrome/135.0.0.0 Safari/537.36",Macintosh,Chrome,135.0.0.0,OS X,10_15_7,https://5puzkbbxv1.cognition.run/?sona_id=56619,"en-US,en;q=0.9",j1wp6s3jl5z8zjg,20,"[""White""]",No,Female,NA,No,286434.8000000119,NA,6060,NA,"{""product_choice"":""B""}",choice,ctd,trinary,attraction,1,laptops,null,null,null,null,null,null,2,60,50,60,50,60,40,Processing speed,Memory (RAM),NA,NA
NA,NA,NA,NA,NA,choice_trial_setup,html-keyboard-response,18,64650,0.0-4.0-0.7,172,1,2025-05-05T01:40:03Z,b60275e29fe2361ab97ac0ac217840d7,"Mozilla/5.0 (Macintosh; Intel Mac OS X 10_15_7) AppleWebKit/537.36 (KHTML, like Gecko) Chrome/135.0.0.0 Safari/537.36",Macintosh,Chrome,135.0.0.0,OS X,10_15_7,https://5puzkbbxv1.cognition.run/?sona_id=56619,"en-US,en;q=0.9",j1wp6s3jl5z8zjg,20,"[""White""]",No,Female,NA,No,286434.8000000119,NA,null,<p></p>,null,choice,tc,binary,repulsion,2,televisions,null,null,null,null,null,null,2,NA,NA,NA,NA,NA,NA,NA,NA,NA,NA
NA,NA,NA,NA,NA,choice_trial,survey-html-form,19,71596,0.0-4.0-1.7,172,1,2025-05-05T01:40:03Z,b60275e29fe2361ab97ac0ac217840d7,"Mozilla/5.0 (Macintosh; Intel Mac OS X 10_15_7) AppleWebKit/537.36 (KHTML, like Gecko) Chrome/135.0.0.0 Safari/537.36",Macintosh,Chrome,135.0.0.0,OS X,10_15_7,https://5puzkbbxv1.cognition.run/?sona_id=56619,"en-US,en;q=0.9",j1wp6s3jl5z8zjg,20,"[""White""]",No,Female,NA,No,286434.8000000119,NA,6943,NA,"{""product_choice"":""B""}",choice,tc,binary,repulsion,2,televisions,null,null,null,null,null,null,2,30,40,null,100,90,null,Screen size,Average lifespan,NA,NA
NA,NA,NA,NA,NA,choice_trial_setup,html-keyboard-response,20,71899,0.0-4.0-0.8,172,1,2025-05-05T01:40:03Z,b60275e29fe2361ab97ac0ac217840d7,"Mozilla/5.0 (Macintosh; Intel Mac OS X 10_15_7) AppleWebKit/537.36 (KHTML, like Gecko) Chrome/135.0.0.0 Safari/537.36",Macintosh,Chrome,135.0.0.0,OS X,10_15_7,https://5puzkbbxv1.cognition.run/?sona_id=56619,"en-US,en;q=0.9",j1wp6s3jl5z8zjg,20,"[""White""]",No,Female,NA,No,286434.8000000119,NA,null,<p></p>,null,choice,ctd,trinary,repulsion_B,1,microwave ovens,null,null,null,null,null,null,1,NA,NA,NA,NA,NA,NA,NA,NA,NA,NA
NA,NA,NA,NA,NA,choice_trial,survey-html-form,21,77563,0.0-4.0-1.8,172,1,2025-05-05T01:40:03Z,b60275e29fe2361ab97ac0ac217840d7,"Mozilla/5.0 (Macintosh; Intel Mac OS X 10_15_7) AppleWebKit/537.36 (KHTML, like Gecko) Chrome/135.0.0.0 Safari/537.36",Macintosh,Chrome,135.0.0.0,OS X,10_15_7,https://5puzkbbxv1.cognition.run/?sona_id=56619,"en-US,en;q=0.9",j1wp6s3jl5z8zjg,20,"[""White""]",No,Female,NA,No,286434.8000000119,NA,5659,NA,"{""product_choice"":""B""}",choice,ctd,trinary,repulsion_B,1,microwave ovens,null,null,null,null,null,null,1,90,100,80,40,30,40,Warranty,Cooking power,NA,NA
NA,NA,NA,NA,NA,choice_trial_setup,html-keyboard-response,22,77866,0.0-4.0-0.9,172,1,2025-05-05T01:40:03Z,b60275e29fe2361ab97ac0ac217840d7,"Mozilla/5.0 (Macintosh; Intel Mac OS X 10_15_7) AppleWebKit/537.36 (KHTML, like Gecko) Chrome/135.0.0.0 Safari/537.36",Macintosh,Chrome,135.0.0.0,OS X,10_15_7,https://5puzkbbxv1.cognition.run/?sona_id=56619,"en-US,en;q=0.9",j1wp6s3jl5z8zjg,20,"[""White""]",No,Female,NA,No,286434.8000000119,NA,null,<p></p>,null,choice,tc,binary,attraction,NA,washing machines,null,null,null,null,null,null,2,NA,NA,NA,NA,NA,NA,NA,NA,NA,NA
NA,NA,NA,NA,NA,choice_trial,survey-html-form,23,85178,0.0-4.0-1.9,172,1,2025-05-05T01:40:03Z,b60275e29fe2361ab97ac0ac217840d7,"Mozilla/5.0 (Macintosh; Intel Mac OS X 10_15_7) AppleWebKit/537.36 (KHTML, like Gecko) Chrome/135.0.0.0 Safari/537.36",Macintosh,Chrome,135.0.0.0,OS X,10_15_7,https://5puzkbbxv1.cognition.run/?sona_id=56619,"en-US,en;q=0.9",j1wp6s3jl5z8zjg,20,"[""White""]",No,Female,NA,No,286434.8000000119,NA,7310,NA,"{""product_choice"":""A""}",choice,tc,binary,attraction,NA,washing machines,null,null,null,null,null,null,2,60,50,null,50,60,null,Average lifespan,Energy savings,NA,NA
NA,NA,NA,NA,NA,choice_trial_setup,html-keyboard-response,24,85482,0.0-4.0-0.10,172,1,2025-05-05T01:40:03Z,b60275e29fe2361ab97ac0ac217840d7,"Mozilla/5.0 (Macintosh; Intel Mac OS X 10_15_7) AppleWebKit/537.36 (KHTML, like Gecko) Chrome/135.0.0.0 Safari/537.36",Macintosh,Chrome,135.0.0.0,OS X,10_15_7,https://5puzkbbxv1.cognition.run/?sona_id=56619,"en-US,en;q=0.9",j1wp6s3jl5z8zjg,20,"[""White""]",No,Female,NA,No,286434.8000000119,NA,null,<p></p>,null,choice,ct,binary,repulsion,1,washing machines,null,null,null,null,null,null,2,NA,NA,NA,NA,NA,NA,NA,NA,NA,NA
NA,NA,NA,NA,NA,choice_trial,survey-html-form,25,90496,0.0-4.0-1.10,172,1,2025-05-05T01:40:03Z,b60275e29fe2361ab97ac0ac217840d7,"Mozilla/5.0 (Macintosh; Intel Mac OS X 10_15_7) AppleWebKit/537.36 (KHTML, like Gecko) Chrome/135.0.0.0 Safari/537.36",Macintosh,Chrome,135.0.0.0,OS X,10_15_7,https://5puzkbbxv1.cognition.run/?sona_id=56619,"en-US,en;q=0.9",j1wp6s3jl5z8zjg,20,"[""White""]",No,Female,NA,No,286434.8000000119,NA,5010,NA,"{""product_choice"":""B""}",choice,ct,binary,repulsion,1,washing machines,null,null,null,null,null,null,2,100,90,null,30,40,null,Average lifespan,Energy savings,NA,NA
NA,NA,NA,NA,NA,choice_trial_setup,html-keyboard-response,26,90800,0.0-4.0-0.11,172,1,2025-05-05T01:40:03Z,b60275e29fe2361ab97ac0ac217840d7,"Mozilla/5.0 (Macintosh; Intel Mac OS X 10_15_7) AppleWebKit/537.36 (KHTML, like Gecko) Chrome/135.0.0.0 Safari/537.36",Macintosh,Chrome,135.0.0.0,OS X,10_15_7,https://5puzkbbxv1.cognition.run/?sona_id=56619,"en-US,en;q=0.9",j1wp6s3jl5z8zjg,20,"[""White""]",No,Female,NA,No,286434.8000000119,NA,null,<p></p>,null,choice,tc,binary,repulsion,1,microwave ovens,null,null,null,null,null,null,2,NA,NA,NA,NA,NA,NA,NA,NA,NA,NA
NA,NA,NA,NA,NA,choice_trial,survey-html-form,27,94563,0.0-4.0-1.11,172,1,2025-05-05T01:40:03Z,b60275e29fe2361ab97ac0ac217840d7,"Mozilla/5.0 (Macintosh; Intel Mac OS X 10_15_7) AppleWebKit/537.36 (KHTML, like Gecko) Chrome/135.0.0.0 Safari/537.36",Macintosh,Chrome,135.0.0.0,OS X,10_15_7,https://5puzkbbxv1.cognition.run/?sona_id=56619,"en-US,en;q=0.9",j1wp6s3jl5z8zjg,20,"[""White""]",No,Female,NA,No,286434.8000000119,NA,3760,NA,"{""product_choice"":""A""}",choice,tc,binary,repulsion,1,microwave ovens,null,null,null,null,null,null,2,100,90,null,30,40,null,Warranty,Cooking power,NA,NA
NA,NA,NA,NA,NA,choice_trial_setup,html-keyboard-response,28,94867,0.0-4.0-0.12,172,1,2025-05-05T01:40:03Z,b60275e29fe2361ab97ac0ac217840d7,"Mozilla/5.0 (Macintosh; Intel Mac OS X 10_15_7) AppleWebKit/537.36 (KHTML, like Gecko) Chrome/135.0.0.0 Safari/537.36",Macintosh,Chrome,135.0.0.0,OS X,10_15_7,https://5puzkbbxv1.cognition.run/?sona_id=56619,"en-US,en;q=0.9",j1wp6s3jl5z8zjg,20,"[""White""]",No,Female,NA,No,286434.8000000119,NA,null,<p></p>,null,choice,tcd,trinary,repulsion_A,1,microwave ovens,null,null,null,null,null,null,2,NA,NA,NA,NA,NA,NA,NA,NA,NA,NA
NA,NA,NA,NA,NA,choice_trial,survey-html-form,29,104511,0.0-4.0-1.12,172,1,2025-05-05T01:40:03Z,b60275e29fe2361ab97ac0ac217840d7,"Mozilla/5.0 (Macintosh; Intel Mac OS X 10_15_7) AppleWebKit/537.36 (KHTML, like Gecko) Chrome/135.0.0.0 Safari/537.36",Macintosh,Chrome,135.0.0.0,OS X,10_15_7,https://5puzkbbxv1.cognition.run/?sona_id=56619,"en-US,en;q=0.9",j1wp6s3jl5z8zjg,20,"[""White""]",No,Female,NA,No,286434.8000000119,NA,9641,NA,"{""product_choice"":""B""}",choice,tcd,trinary,repulsion_A,1,microwave ovens,null,null,null,null,null,null,2,100,90,100,30,40,20,Warranty,Cooking power,NA,NA
NA,NA,NA,NA,NA,choice_trial_setup,html-keyboard-response,30,104814,0.0-4.0-0.13,172,1,2025-05-05T01:40:03Z,b60275e29fe2361ab97ac0ac217840d7,"Mozilla/5.0 (Macintosh; Intel Mac OS X 10_15_7) AppleWebKit/537.36 (KHTML, like Gecko) Chrome/135.0.0.0 Safari/537.36",Macintosh,Chrome,135.0.0.0,OS X,10_15_7,https://5puzkbbxv1.cognition.run/?sona_id=56619,"en-US,en;q=0.9",j1wp6s3jl5z8zjg,20,"[""White""]",No,Female,NA,No,286434.8000000119,NA,null,<p></p>,null,choice,ct,binary,attraction,NA,microwave ovens,null,null,null,null,null,null,2,NA,NA,NA,NA,NA,NA,NA,NA,NA,NA
NA,NA,NA,NA,NA,choice_trial,survey-html-form,31,110995,0.0-4.0-1.13,172,1,2025-05-05T01:40:03Z,b60275e29fe2361ab97ac0ac217840d7,"Mozilla/5.0 (Macintosh; Intel Mac OS X 10_15_7) AppleWebKit/537.36 (KHTML, like Gecko) Chrome/135.0.0.0 Safari/537.36",Macintosh,Chrome,135.0.0.0,OS X,10_15_7,https://5puzkbbxv1.cognition.run/?sona_id=56619,"en-US,en;q=0.9",j1wp6s3jl5z8zjg,20,"[""White""]",No,Female,NA,No,286434.8000000119,NA,6176,NA,"{""product_choice"":""A""}",choice,ct,binary,attraction,NA,microwave ovens,null,null,null,null,null,null,2,60,50,null,50,60,null,Warranty,Cooking power,NA,NA
NA,NA,NA,NA,NA,choice_trial_setup,html-keyboard-response,32,111298,0.0-4.0-0.14,172,1,2025-05-05T01:40:03Z,b60275e29fe2361ab97ac0ac217840d7,"Mozilla/5.0 (Macintosh; Intel Mac OS X 10_15_7) AppleWebKit/537.36 (KHTML, like Gecko) Chrome/135.0.0.0 Safari/537.36",Macintosh,Chrome,135.0.0.0,OS X,10_15_7,https://5puzkbbxv1.cognition.run/?sona_id=56619,"en-US,en;q=0.9",j1wp6s3jl5z8zjg,20,"[""White""]",No,Female,NA,No,286434.8000000119,NA,null,<p></p>,null,choice,tc,binary,repulsion,1,laptops,null,null,null,null,null,null,1,NA,NA,NA,NA,NA,NA,NA,NA,NA,NA
NA,NA,NA,NA,NA,choice_trial,survey-html-form,33,115279,0.0-4.0-1.14,172,1,2025-05-05T01:40:03Z,b60275e29fe2361ab97ac0ac217840d7,"Mozilla/5.0 (Macintosh; Intel Mac OS X 10_15_7) AppleWebKit/537.36 (KHTML, like Gecko) Chrome/135.0.0.0 Safari/537.36",Macintosh,Chrome,135.0.0.0,OS X,10_15_7,https://5puzkbbxv1.cognition.run/?sona_id=56619,"en-US,en;q=0.9",j1wp6s3jl5z8zjg,20,"[""White""]",No,Female,NA,No,286434.8000000119,NA,3979,NA,"{""product_choice"":""B""}",choice,tc,binary,repulsion,1,laptops,null,null,null,null,null,null,1,100,90,null,30,40,null,Processing speed,Memory (RAM),NA,NA
NA,NA,NA,NA,NA,choice_trial_setup,html-keyboard-response,34,115583,0.0-4.0-0.15,172,1,2025-05-05T01:40:03Z,b60275e29fe2361ab97ac0ac217840d7,"Mozilla/5.0 (Macintosh; Intel Mac OS X 10_15_7) AppleWebKit/537.36 (KHTML, like Gecko) Chrome/135.0.0.0 Safari/537.36",Macintosh,Chrome,135.0.0.0,OS X,10_15_7,https://5puzkbbxv1.cognition.run/?sona_id=56619,"en-US,en;q=0.9",j1wp6s3jl5z8zjg,20,"[""White""]",No,Female,NA,No,286434.8000000119,NA,null,<p></p>,null,choice,tdc,trinary,repulsion_B,1,televisions,null,null,null,null,null,null,2,NA,NA,NA,NA,NA,NA,NA,NA,NA,NA
NA,NA,NA,NA,NA,choice_trial,survey-html-form,35,120195,0.0-4.0-1.15,172,1,2025-05-05T01:40:03Z,b60275e29fe2361ab97ac0ac217840d7,"Mozilla/5.0 (Macintosh; Intel Mac OS X 10_15_7) AppleWebKit/537.36 (KHTML, like Gecko) Chrome/135.0.0.0 Safari/537.36",Macintosh,Chrome,135.0.0.0,OS X,10_15_7,https://5puzkbbxv1.cognition.run/?sona_id=56619,"en-US,en;q=0.9",j1wp6s3jl5z8zjg,20,"[""White""]",No,Female,NA,No,286434.8000000119,NA,4609,NA,"{""product_choice"":""A""}",choice,tdc,trinary,repulsion_B,1,televisions,null,null,null,null,null,null,2,90,100,80,40,30,40,Screen size,Average lifespan,NA,NA
NA,NA,NA,NA,NA,choice_trial_setup,html-keyboard-response,36,120498,0.0-4.0-0.16,172,1,2025-05-05T01:40:03Z,b60275e29fe2361ab97ac0ac217840d7,"Mozilla/5.0 (Macintosh; Intel Mac OS X 10_15_7) AppleWebKit/537.36 (KHTML, like Gecko) Chrome/135.0.0.0 Safari/537.36",Macintosh,Chrome,135.0.0.0,OS X,10_15_7,https://5puzkbbxv1.cognition.run/?sona_id=56619,"en-US,en;q=0.9",j1wp6s3jl5z8zjg,20,"[""White""]",No,Female,NA,No,286434.8000000119,NA,null,<p></p>,null,choice,tdc,trinary,repulsion_A,1,laptops,null,null,null,null,null,null,2,NA,NA,NA,NA,NA,NA,NA,NA,NA,NA
NA,NA,NA,NA,NA,choice_trial,survey-html-form,37,124479,0.0-4.0-1.16,172,1,2025-05-05T01:40:03Z,b60275e29fe2361ab97ac0ac217840d7,"Mozilla/5.0 (Macintosh; Intel Mac OS X 10_15_7) AppleWebKit/537.36 (KHTML, like Gecko) Chrome/135.0.0.0 Safari/537.36",Macintosh,Chrome,135.0.0.0,OS X,10_15_7,https://5puzkbbxv1.cognition.run/?sona_id=56619,"en-US,en;q=0.9",j1wp6s3jl5z8zjg,20,"[""White""]",No,Female,NA,No,286434.8000000119,NA,3978,NA,"{""product_choice"":""C""}",choice,tdc,trinary,repulsion_A,1,laptops,null,null,null,null,null,null,2,100,90,100,30,40,20,Processing speed,Memory (RAM),NA,NA
NA,NA,NA,NA,NA,choice_trial_setup,html-keyboard-response,38,124782,0.0-4.0-0.17,172,1,2025-05-05T01:40:03Z,b60275e29fe2361ab97ac0ac217840d7,"Mozilla/5.0 (Macintosh; Intel Mac OS X 10_15_7) AppleWebKit/537.36 (KHTML, like Gecko) Chrome/135.0.0.0 Safari/537.36",Macintosh,Chrome,135.0.0.0,OS X,10_15_7,https://5puzkbbxv1.cognition.run/?sona_id=56619,"en-US,en;q=0.9",j1wp6s3jl5z8zjg,20,"[""White""]",No,Female,NA,No,286434.8000000119,NA,null,<p></p>,null,choice,tdc,trinary,attraction,1,washing machines,null,null,null,null,null,null,2,NA,NA,NA,NA,NA,NA,NA,NA,NA,NA
NA,NA,NA,NA,NA,choice_trial,survey-html-form,39,129396,0.0-4.0-1.17,172,1,2025-05-05T01:40:03Z,b60275e29fe2361ab97ac0ac217840d7,"Mozilla/5.0 (Macintosh; Intel Mac OS X 10_15_7) AppleWebKit/537.36 (KHTML, like Gecko) Chrome/135.0.0.0 Safari/537.36",Macintosh,Chrome,135.0.0.0,OS X,10_15_7,https://5puzkbbxv1.cognition.run/?sona_id=56619,"en-US,en;q=0.9",j1wp6s3jl5z8zjg,20,"[""White""]",No,Female,NA,No,286434.8000000119,NA,4610,NA,"{""product_choice"":""A""}",choice,tdc,trinary,attraction,1,washing machines,null,null,null,null,null,null,2,60,50,60,50,60,40,Average lifespan,Energy savings,NA,NA
NA,NA,NA,NA,NA,choice_trial_setup,html-keyboard-response,40,129698,0.0-4.0-0.18,172,1,2025-05-05T01:40:03Z,b60275e29fe2361ab97ac0ac217840d7,"Mozilla/5.0 (Macintosh; Intel Mac OS X 10_15_7) AppleWebKit/537.36 (KHTML, like Gecko) Chrome/135.0.0.0 Safari/537.36",Macintosh,Chrome,135.0.0.0,OS X,10_15_7,https://5puzkbbxv1.cognition.run/?sona_id=56619,"en-US,en;q=0.9",j1wp6s3jl5z8zjg,20,"[""White""]",No,Female,NA,No,286434.8000000119,NA,null,<p></p>,null,choice,dtc,trinary,repulsion_A,2,microwave ovens,null,null,null,null,null,null,1,NA,NA,NA,NA,NA,NA,NA,NA,NA,NA
NA,NA,NA,NA,NA,choice_trial,survey-html-form,41,137845,0.0-4.0-1.18,172,1,2025-05-05T01:40:03Z,b60275e29fe2361ab97ac0ac217840d7,"Mozilla/5.0 (Macintosh; Intel Mac OS X 10_15_7) AppleWebKit/537.36 (KHTML, like Gecko) Chrome/135.0.0.0 Safari/537.36",Macintosh,Chrome,135.0.0.0,OS X,10_15_7,https://5puzkbbxv1.cognition.run/?sona_id=56619,"en-US,en;q=0.9",j1wp6s3jl5z8zjg,20,"[""White""]",No,Female,NA,No,286434.8000000119,NA,8143,NA,"{""product_choice"":""B""}",choice,dtc,trinary,repulsion_A,2,microwave ovens,null,null,null,null,null,null,1,30,40,20,100,90,100,Warranty,Cooking power,NA,NA
NA,NA,NA,NA,NA,choice_trial_setup,html-keyboard-response,42,138149,0.0-4.0-0.19,172,1,2025-05-05T01:40:03Z,b60275e29fe2361ab97ac0ac217840d7,"Mozilla/5.0 (Macintosh; Intel Mac OS X 10_15_7) AppleWebKit/537.36 (KHTML, like Gecko) Chrome/135.0.0.0 Safari/537.36",Macintosh,Chrome,135.0.0.0,OS X,10_15_7,https://5puzkbbxv1.cognition.run/?sona_id=56619,"en-US,en;q=0.9",j1wp6s3jl5z8zjg,20,"[""White""]",No,Female,NA,No,286434.8000000119,NA,null,<p></p>,null,choice,dtc,trinary,repulsion_A,2,televisions,null,null,null,null,null,null,2,NA,NA,NA,NA,NA,NA,NA,NA,NA,NA
NA,NA,NA,NA,NA,choice_trial,survey-html-form,43,141662,0.0-4.0-1.19,172,1,2025-05-05T01:40:03Z,b60275e29fe2361ab97ac0ac217840d7,"Mozilla/5.0 (Macintosh; Intel Mac OS X 10_15_7) AppleWebKit/537.36 (KHTML, like Gecko) Chrome/135.0.0.0 Safari/537.36",Macintosh,Chrome,135.0.0.0,OS X,10_15_7,https://5puzkbbxv1.cognition.run/?sona_id=56619,"en-US,en;q=0.9",j1wp6s3jl5z8zjg,20,"[""White""]",No,Female,NA,No,286434.8000000119,NA,3508,NA,"{""product_choice"":""B""}",choice,dtc,trinary,repulsion_A,2,televisions,null,null,null,null,null,null,2,30,40,20,100,90,100,Screen size,Average lifespan,NA,NA
NA,NA,NA,NA,NA,choice_trial_setup,html-keyboard-response,44,141965,0.0-4.0-0.20,172,1,2025-05-05T01:40:03Z,b60275e29fe2361ab97ac0ac217840d7,"Mozilla/5.0 (Macintosh; Intel Mac OS X 10_15_7) AppleWebKit/537.36 (KHTML, like Gecko) Chrome/135.0.0.0 Safari/537.36",Macintosh,Chrome,135.0.0.0,OS X,10_15_7,https://5puzkbbxv1.cognition.run/?sona_id=56619,"en-US,en;q=0.9",j1wp6s3jl5z8zjg,20,"[""White""]",No,Female,NA,No,286434.8000000119,NA,null,<p></p>,null,choice,tdc,trinary,repulsion_A,1,washing machines,null,null,null,null,null,null,1,NA,NA,NA,NA,NA,NA,NA,NA,NA,NA
NA,NA,NA,NA,NA,choice_trial,survey-html-form,45,144778,0.0-4.0-1.20,172,1,2025-05-05T01:40:03Z,b60275e29fe2361ab97ac0ac217840d7,"Mozilla/5.0 (Macintosh; Intel Mac OS X 10_15_7) AppleWebKit/537.36 (KHTML, like Gecko) Chrome/135.0.0.0 Safari/537.36",Macintosh,Chrome,135.0.0.0,OS X,10_15_7,https://5puzkbbxv1.cognition.run/?sona_id=56619,"en-US,en;q=0.9",j1wp6s3jl5z8zjg,20,"[""White""]",No,Female,NA,No,286434.8000000119,NA,2808,NA,"{""product_choice"":""A""}",choice,tdc,trinary,repulsion_A,1,washing machines,null,null,null,null,null,null,1,100,90,100,30,40,20,Average lifespan,Energy savings,NA,NA
NA,NA,NA,NA,NA,choice_trial_setup,html-keyboard-response,46,145083,0.0-4.0-0.21,172,1,2025-05-05T01:40:03Z,b60275e29fe2361ab97ac0ac217840d7,"Mozilla/5.0 (Macintosh; Intel Mac OS X 10_15_7) AppleWebKit/537.36 (KHTML, like Gecko) Chrome/135.0.0.0 Safari/537.36",Macintosh,Chrome,135.0.0.0,OS X,10_15_7,https://5puzkbbxv1.cognition.run/?sona_id=56619,"en-US,en;q=0.9",j1wp6s3jl5z8zjg,20,"[""White""]",No,Female,NA,No,286434.8000000119,NA,null,<p></p>,null,choice,wb,binary,catch,null,washing machines,60,50,5,10,null,null,2,NA,NA,NA,NA,NA,NA,NA,NA,NA,NA
NA,NA,NA,NA,NA,choice_trial,survey-html-form,47,148946,0.0-4.0-1.21,172,1,2025-05-05T01:40:03Z,b60275e29fe2361ab97ac0ac217840d7,"Mozilla/5.0 (Macintosh; Intel Mac OS X 10_15_7) AppleWebKit/537.36 (KHTML, like Gecko) Chrome/135.0.0.0 Safari/537.36",Macintosh,Chrome,135.0.0.0,OS X,10_15_7,https://5puzkbbxv1.cognition.run/?sona_id=56619,"en-US,en;q=0.9",j1wp6s3jl5z8zjg,20,"[""White""]",No,Female,NA,No,286434.8000000119,NA,3858,NA,"{""product_choice"":""B""}",choice,wb,binary,catch,null,washing machines,60,50,5,10,null,null,2,null,null,null,null,null,null,Average lifespan,Energy savings,NA,NA
NA,NA,NA,NA,NA,choice_trial_setup,html-keyboard-response,48,149250,0.0-4.0-0.22,172,1,2025-05-05T01:40:03Z,b60275e29fe2361ab97ac0ac217840d7,"Mozilla/5.0 (Macintosh; Intel Mac OS X 10_15_7) AppleWebKit/537.36 (KHTML, like Gecko) Chrome/135.0.0.0 Safari/537.36",Macintosh,Chrome,135.0.0.0,OS X,10_15_7,https://5puzkbbxv1.cognition.run/?sona_id=56619,"en-US,en;q=0.9",j1wp6s3jl5z8zjg,20,"[""White""]",No,Female,NA,No,286434.8000000119,NA,null,<p></p>,null,choice,tdc,trinary,repulsion_A,2,washing machines,null,null,null,null,null,null,2,NA,NA,NA,NA,NA,NA,NA,NA,NA,NA
NA,NA,NA,NA,NA,choice_trial,survey-html-form,49,153213,0.0-4.0-1.22,172,1,2025-05-05T01:40:03Z,b60275e29fe2361ab97ac0ac217840d7,"Mozilla/5.0 (Macintosh; Intel Mac OS X 10_15_7) AppleWebKit/537.36 (KHTML, like Gecko) Chrome/135.0.0.0 Safari/537.36",Macintosh,Chrome,135.0.0.0,OS X,10_15_7,https://5puzkbbxv1.cognition.run/?sona_id=56619,"en-US,en;q=0.9",j1wp6s3jl5z8zjg,20,"[""White""]",No,Female,NA,No,286434.8000000119,NA,3958,NA,"{""product_choice"":""A""}",choice,tdc,trinary,repulsion_A,2,washing machines,null,null,null,null,null,null,2,30,40,20,100,90,100,Average lifespan,Energy savings,NA,NA
NA,NA,NA,NA,NA,choice_trial_setup,html-keyboard-response,50,153517,0.0-4.0-0.23,172,1,2025-05-05T01:40:03Z,b60275e29fe2361ab97ac0ac217840d7,"Mozilla/5.0 (Macintosh; Intel Mac OS X 10_15_7) AppleWebKit/537.36 (KHTML, like Gecko) Chrome/135.0.0.0 Safari/537.36",Macintosh,Chrome,135.0.0.0,OS X,10_15_7,https://5puzkbbxv1.cognition.run/?sona_id=56619,"en-US,en;q=0.9",j1wp6s3jl5z8zjg,20,"[""White""]",No,Female,NA,No,286434.8000000119,NA,null,<p></p>,null,choice,tcd,trinary,attraction,2,laptops,null,null,null,null,null,null,1,NA,NA,NA,NA,NA,NA,NA,NA,NA,NA
NA,NA,NA,NA,NA,choice_trial,survey-html-form,51,157845,0.0-4.0-1.23,172,1,2025-05-05T01:40:03Z,b60275e29fe2361ab97ac0ac217840d7,"Mozilla/5.0 (Macintosh; Intel Mac OS X 10_15_7) AppleWebKit/537.36 (KHTML, like Gecko) Chrome/135.0.0.0 Safari/537.36",Macintosh,Chrome,135.0.0.0,OS X,10_15_7,https://5puzkbbxv1.cognition.run/?sona_id=56619,"en-US,en;q=0.9",j1wp6s3jl5z8zjg,20,"[""White""]",No,Female,NA,No,286434.8000000119,NA,4323,NA,"{""product_choice"":""B""}",choice,tcd,trinary,attraction,2,laptops,null,null,null,null,null,null,1,50,60,40,60,50,60,Processing speed,Memory (RAM),NA,NA
NA,NA,NA,NA,NA,choice_trial_setup,html-keyboard-response,52,158150,0.0-4.0-0.24,172,1,2025-05-05T01:40:03Z,b60275e29fe2361ab97ac0ac217840d7,"Mozilla/5.0 (Macintosh; Intel Mac OS X 10_15_7) AppleWebKit/537.36 (KHTML, like Gecko) Chrome/135.0.0.0 Safari/537.36",Macintosh,Chrome,135.0.0.0,OS X,10_15_7,https://5puzkbbxv1.cognition.run/?sona_id=56619,"en-US,en;q=0.9",j1wp6s3jl5z8zjg,20,"[""White""]",No,Female,NA,No,286434.8000000119,NA,null,<p></p>,null,choice,dct,trinary,attraction,1,televisions,null,null,null,null,null,null,1,NA,NA,NA,NA,NA,NA,NA,NA,NA,NA
NA,NA,NA,NA,NA,choice_trial,survey-html-form,53,162779,0.0-4.0-1.24,172,1,2025-05-05T01:40:03Z,b60275e29fe2361ab97ac0ac217840d7,"Mozilla/5.0 (Macintosh; Intel Mac OS X 10_15_7) AppleWebKit/537.36 (KHTML, like Gecko) Chrome/135.0.0.0 Safari/537.36",Macintosh,Chrome,135.0.0.0,OS X,10_15_7,https://5puzkbbxv1.cognition.run/?sona_id=56619,"en-US,en;q=0.9",j1wp6s3jl5z8zjg,20,"[""White""]",No,Female,NA,No,286434.8000000119,NA,4624,NA,"{""product_choice"":""B""}",choice,dct,trinary,attraction,1,televisions,null,null,null,null,null,null,1,60,50,60,50,60,40,Screen size,Average lifespan,NA,NA
NA,NA,NA,NA,NA,choice_trial_setup,html-keyboard-response,54,163084,0.0-4.0-0.25,172,1,2025-05-05T01:40:03Z,b60275e29fe2361ab97ac0ac217840d7,"Mozilla/5.0 (Macintosh; Intel Mac OS X 10_15_7) AppleWebKit/537.36 (KHTML, like Gecko) Chrome/135.0.0.0 Safari/537.36",Macintosh,Chrome,135.0.0.0,OS X,10_15_7,https://5puzkbbxv1.cognition.run/?sona_id=56619,"en-US,en;q=0.9",j1wp6s3jl5z8zjg,20,"[""White""]",No,Female,NA,No,286434.8000000119,NA,null,<p></p>,null,choice,dct,trinary,repulsion_B,2,washing machines,null,null,null,null,null,null,2,NA,NA,NA,NA,NA,NA,NA,NA,NA,NA
NA,NA,NA,NA,NA,choice_trial,survey-html-form,55,167444,0.0-4.0-1.25,172,1,2025-05-05T01:40:03Z,b60275e29fe2361ab97ac0ac217840d7,"Mozilla/5.0 (Macintosh; Intel Mac OS X 10_15_7) AppleWebKit/537.36 (KHTML, like Gecko) Chrome/135.0.0.0 Safari/537.36",Macintosh,Chrome,135.0.0.0,OS X,10_15_7,https://5puzkbbxv1.cognition.run/?sona_id=56619,"en-US,en;q=0.9",j1wp6s3jl5z8zjg,20,"[""White""]",No,Female,NA,No,286434.8000000119,NA,4356,NA,"{""product_choice"":""C""}",choice,dct,trinary,repulsion_B,2,washing machines,null,null,null,null,null,null,2,40,30,40,90,100,80,Average lifespan,Energy savings,NA,NA
NA,NA,NA,NA,NA,choice_trial_setup,html-keyboard-response,56,167748,0.0-4.0-0.26,172,1,2025-05-05T01:40:03Z,b60275e29fe2361ab97ac0ac217840d7,"Mozilla/5.0 (Macintosh; Intel Mac OS X 10_15_7) AppleWebKit/537.36 (KHTML, like Gecko) Chrome/135.0.0.0 Safari/537.36",Macintosh,Chrome,135.0.0.0,OS X,10_15_7,https://5puzkbbxv1.cognition.run/?sona_id=56619,"en-US,en;q=0.9",j1wp6s3jl5z8zjg,20,"[""White""]",No,Female,NA,No,286434.8000000119,NA,null,<p></p>,null,choice,cdt,trinary,repulsion_B,1,washing machines,null,null,null,null,null,null,1,NA,NA,NA,NA,NA,NA,NA,NA,NA,NA
NA,NA,NA,NA,NA,choice_trial,survey-html-form,57,171528,0.0-4.0-1.26,172,1,2025-05-05T01:40:03Z,b60275e29fe2361ab97ac0ac217840d7,"Mozilla/5.0 (Macintosh; Intel Mac OS X 10_15_7) AppleWebKit/537.36 (KHTML, like Gecko) Chrome/135.0.0.0 Safari/537.36",Macintosh,Chrome,135.0.0.0,OS X,10_15_7,https://5puzkbbxv1.cognition.run/?sona_id=56619,"en-US,en;q=0.9",j1wp6s3jl5z8zjg,20,"[""White""]",No,Female,NA,No,286434.8000000119,NA,3777,NA,"{""product_choice"":""C""}",choice,cdt,trinary,repulsion_B,1,washing machines,null,null,null,null,null,null,1,90,100,80,40,30,40,Average lifespan,Energy savings,NA,NA
NA,NA,NA,NA,NA,choice_trial_setup,html-keyboard-response,58,171834,0.0-4.0-0.27,172,1,2025-05-05T01:40:03Z,b60275e29fe2361ab97ac0ac217840d7,"Mozilla/5.0 (Macintosh; Intel Mac OS X 10_15_7) AppleWebKit/537.36 (KHTML, like Gecko) Chrome/135.0.0.0 Safari/537.36",Macintosh,Chrome,135.0.0.0,OS X,10_15_7,https://5puzkbbxv1.cognition.run/?sona_id=56619,"en-US,en;q=0.9",j1wp6s3jl5z8zjg,20,"[""White""]",No,Female,NA,No,286434.8000000119,NA,null,<p></p>,null,choice,ct,binary,attraction,NA,laptops,null,null,null,null,null,null,2,NA,NA,NA,NA,NA,NA,NA,NA,NA,NA
NA,NA,NA,NA,NA,choice_trial,survey-html-form,59,177229,0.0-4.0-1.27,172,1,2025-05-05T01:40:03Z,b60275e29fe2361ab97ac0ac217840d7,"Mozilla/5.0 (Macintosh; Intel Mac OS X 10_15_7) AppleWebKit/537.36 (KHTML, like Gecko) Chrome/135.0.0.0 Safari/537.36",Macintosh,Chrome,135.0.0.0,OS X,10_15_7,https://5puzkbbxv1.cognition.run/?sona_id=56619,"en-US,en;q=0.9",j1wp6s3jl5z8zjg,20,"[""White""]",No,Female,NA,No,286434.8000000119,NA,5390,NA,"{""product_choice"":""A""}",choice,ct,binary,attraction,NA,laptops,null,null,null,null,null,null,2,60,50,null,50,60,null,Processing speed,Memory (RAM),NA,NA
NA,NA,NA,NA,NA,choice_trial_setup,html-keyboard-response,60,177534,0.0-4.0-0.28,172,1,2025-05-05T01:40:03Z,b60275e29fe2361ab97ac0ac217840d7,"Mozilla/5.0 (Macintosh; Intel Mac OS X 10_15_7) AppleWebKit/537.36 (KHTML, like Gecko) Chrome/135.0.0.0 Safari/537.36",Macintosh,Chrome,135.0.0.0,OS X,10_15_7,https://5puzkbbxv1.cognition.run/?sona_id=56619,"en-US,en;q=0.9",j1wp6s3jl5z8zjg,20,"[""White""]",No,Female,NA,No,286434.8000000119,NA,null,<p></p>,null,choice,tcd,trinary,repulsion_B,2,microwave ovens,null,null,null,null,null,null,1,NA,NA,NA,NA,NA,NA,NA,NA,NA,NA
NA,NA,NA,NA,NA,choice_trial,survey-html-form,61,182028,0.0-4.0-1.28,172,1,2025-05-05T01:40:03Z,b60275e29fe2361ab97ac0ac217840d7,"Mozilla/5.0 (Macintosh; Intel Mac OS X 10_15_7) AppleWebKit/537.36 (KHTML, like Gecko) Chrome/135.0.0.0 Safari/537.36",Macintosh,Chrome,135.0.0.0,OS X,10_15_7,https://5puzkbbxv1.cognition.run/?sona_id=56619,"en-US,en;q=0.9",j1wp6s3jl5z8zjg,20,"[""White""]",No,Female,NA,No,286434.8000000119,NA,4491,NA,"{""product_choice"":""A""}",choice,tcd,trinary,repulsion_B,2,microwave ovens,null,null,null,null,null,null,1,40,30,40,90,100,80,Warranty,Cooking power,NA,NA
NA,NA,NA,NA,NA,choice_trial_setup,html-keyboard-response,62,182334,0.0-4.0-0.29,172,1,2025-05-05T01:40:03Z,b60275e29fe2361ab97ac0ac217840d7,"Mozilla/5.0 (Macintosh; Intel Mac OS X 10_15_7) AppleWebKit/537.36 (KHTML, like Gecko) Chrome/135.0.0.0 Safari/537.36",Macintosh,Chrome,135.0.0.0,OS X,10_15_7,https://5puzkbbxv1.cognition.run/?sona_id=56619,"en-US,en;q=0.9",j1wp6s3jl5z8zjg,20,"[""White""]",No,Female,NA,No,286434.8000000119,NA,null,<p></p>,null,choice,dtc,trinary,attraction,1,microwave ovens,null,null,null,null,null,null,2,NA,NA,NA,NA,NA,NA,NA,NA,NA,NA
NA,NA,NA,NA,NA,choice_trial,survey-html-form,63,188811,0.0-4.0-1.29,172,1,2025-05-05T01:40:03Z,b60275e29fe2361ab97ac0ac217840d7,"Mozilla/5.0 (Macintosh; Intel Mac OS X 10_15_7) AppleWebKit/537.36 (KHTML, like Gecko) Chrome/135.0.0.0 Safari/537.36",Macintosh,Chrome,135.0.0.0,OS X,10_15_7,https://5puzkbbxv1.cognition.run/?sona_id=56619,"en-US,en;q=0.9",j1wp6s3jl5z8zjg,20,"[""White""]",No,Female,NA,No,286434.8000000119,NA,6473,NA,"{""product_choice"":""B""}",choice,dtc,trinary,attraction,1,microwave ovens,null,null,null,null,null,null,2,60,50,60,50,60,40,Warranty,Cooking power,NA,NA
NA,NA,NA,NA,NA,choice_trial_setup,html-keyboard-response,64,189116,0.0-4.0-0.30,172,1,2025-05-05T01:40:03Z,b60275e29fe2361ab97ac0ac217840d7,"Mozilla/5.0 (Macintosh; Intel Mac OS X 10_15_7) AppleWebKit/537.36 (KHTML, like Gecko) Chrome/135.0.0.0 Safari/537.36",Macintosh,Chrome,135.0.0.0,OS X,10_15_7,https://5puzkbbxv1.cognition.run/?sona_id=56619,"en-US,en;q=0.9",j1wp6s3jl5z8zjg,20,"[""White""]",No,Female,NA,No,286434.8000000119,NA,null,<p></p>,null,choice,bw,binary,catch,null,televisions,55,55,20,10,null,null,2,NA,NA,NA,NA,NA,NA,NA,NA,NA,NA
NA,NA,NA,NA,NA,choice_trial,survey-html-form,65,193295,0.0-4.0-1.30,172,1,2025-05-05T01:40:03Z,b60275e29fe2361ab97ac0ac217840d7,"Mozilla/5.0 (Macintosh; Intel Mac OS X 10_15_7) AppleWebKit/537.36 (KHTML, like Gecko) Chrome/135.0.0.0 Safari/537.36",Macintosh,Chrome,135.0.0.0,OS X,10_15_7,https://5puzkbbxv1.cognition.run/?sona_id=56619,"en-US,en;q=0.9",j1wp6s3jl5z8zjg,20,"[""White""]",No,Female,NA,No,286434.8000000119,NA,4173,NA,"{""product_choice"":""A""}",choice,bw,binary,catch,null,televisions,55,55,20,10,null,null,2,null,null,null,null,null,null,Screen size,Average lifespan,NA,NA
NA,NA,NA,NA,NA,choice_trial_setup,html-keyboard-response,66,193601,0.0-4.0-0.31,172,1,2025-05-05T01:40:03Z,b60275e29fe2361ab97ac0ac217840d7,"Mozilla/5.0 (Macintosh; Intel Mac OS X 10_15_7) AppleWebKit/537.36 (KHTML, like Gecko) Chrome/135.0.0.0 Safari/537.36",Macintosh,Chrome,135.0.0.0,OS X,10_15_7,https://5puzkbbxv1.cognition.run/?sona_id=56619,"en-US,en;q=0.9",j1wp6s3jl5z8zjg,20,"[""White""]",No,Female,NA,No,286434.8000000119,NA,null,<p></p>,null,choice,tc,binary,repulsion,2,microwave ovens,null,null,null,null,null,null,1,NA,NA,NA,NA,NA,NA,NA,NA,NA,NA
NA,NA,NA,NA,NA,choice_trial,survey-html-form,67,196728,0.0-4.0-1.31,172,1,2025-05-05T01:40:03Z,b60275e29fe2361ab97ac0ac217840d7,"Mozilla/5.0 (Macintosh; Intel Mac OS X 10_15_7) AppleWebKit/537.36 (KHTML, like Gecko) Chrome/135.0.0.0 Safari/537.36",Macintosh,Chrome,135.0.0.0,OS X,10_15_7,https://5puzkbbxv1.cognition.run/?sona_id=56619,"en-US,en;q=0.9",j1wp6s3jl5z8zjg,20,"[""White""]",No,Female,NA,No,286434.8000000119,NA,3121,NA,"{""product_choice"":""A""}",choice,tc,binary,repulsion,2,microwave ovens,null,null,null,null,null,null,1,30,40,null,100,90,null,Warranty,Cooking power,NA,NA
NA,NA,NA,NA,NA,choice_trial_setup,html-keyboard-response,68,197033,0.0-4.0-0.32,172,1,2025-05-05T01:40:03Z,b60275e29fe2361ab97ac0ac217840d7,"Mozilla/5.0 (Macintosh; Intel Mac OS X 10_15_7) AppleWebKit/537.36 (KHTML, like Gecko) Chrome/135.0.0.0 Safari/537.36",Macintosh,Chrome,135.0.0.0,OS X,10_15_7,https://5puzkbbxv1.cognition.run/?sona_id=56619,"en-US,en;q=0.9",j1wp6s3jl5z8zjg,20,"[""White""]",No,Female,NA,No,286434.8000000119,NA,null,<p></p>,null,choice,ct,binary,attraction,NA,televisions,null,null,null,null,null,null,1,NA,NA,NA,NA,NA,NA,NA,NA,NA,NA
NA,NA,NA,NA,NA,choice_trial,survey-html-form,69,198362,0.0-4.0-1.32,172,1,2025-05-05T01:40:03Z,b60275e29fe2361ab97ac0ac217840d7,"Mozilla/5.0 (Macintosh; Intel Mac OS X 10_15_7) AppleWebKit/537.36 (KHTML, like Gecko) Chrome/135.0.0.0 Safari/537.36",Macintosh,Chrome,135.0.0.0,OS X,10_15_7,https://5puzkbbxv1.cognition.run/?sona_id=56619,"en-US,en;q=0.9",j1wp6s3jl5z8zjg,20,"[""White""]",No,Female,NA,No,286434.8000000119,NA,1324,NA,"{""product_choice"":""A""}",choice,ct,binary,attraction,NA,televisions,null,null,null,null,null,null,1,60,50,null,50,60,null,Screen size,Average lifespan,NA,NA
NA,NA,NA,NA,NA,choice_trial_setup,html-keyboard-response,70,198667,0.0-4.0-0.33,172,1,2025-05-05T01:40:03Z,b60275e29fe2361ab97ac0ac217840d7,"Mozilla/5.0 (Macintosh; Intel Mac OS X 10_15_7) AppleWebKit/537.36 (KHTML, like Gecko) Chrome/135.0.0.0 Safari/537.36",Macintosh,Chrome,135.0.0.0,OS X,10_15_7,https://5puzkbbxv1.cognition.run/?sona_id=56619,"en-US,en;q=0.9",j1wp6s3jl5z8zjg,20,"[""White""]",No,Female,NA,No,286434.8000000119,NA,null,<p></p>,null,choice,cdt,trinary,repulsion_A,1,televisions,null,null,null,null,null,null,1,NA,NA,NA,NA,NA,NA,NA,NA,NA,NA
NA,NA,NA,NA,NA,choice_trial,survey-html-form,71,199963,0.0-4.0-1.33,172,1,2025-05-05T01:40:03Z,b60275e29fe2361ab97ac0ac217840d7,"Mozilla/5.0 (Macintosh; Intel Mac OS X 10_15_7) AppleWebKit/537.36 (KHTML, like Gecko) Chrome/135.0.0.0 Safari/537.36",Macintosh,Chrome,135.0.0.0,OS X,10_15_7,https://5puzkbbxv1.cognition.run/?sona_id=56619,"en-US,en;q=0.9",j1wp6s3jl5z8zjg,20,"[""White""]",No,Female,NA,No,286434.8000000119,NA,1291,NA,"{""product_choice"":""B""}",choice,cdt,trinary,repulsion_A,1,televisions,null,null,null,null,null,null,1,100,90,100,30,40,20,Screen size,Average lifespan,NA,NA
NA,NA,NA,NA,NA,choice_trial_setup,html-keyboard-response,72,200267,0.0-4.0-0.34,172,1,2025-05-05T01:40:03Z,b60275e29fe2361ab97ac0ac217840d7,"Mozilla/5.0 (Macintosh; Intel Mac OS X 10_15_7) AppleWebKit/537.36 (KHTML, like Gecko) Chrome/135.0.0.0 Safari/537.36",Macintosh,Chrome,135.0.0.0,OS X,10_15_7,https://5puzkbbxv1.cognition.run/?sona_id=56619,"en-US,en;q=0.9",j1wp6s3jl5z8zjg,20,"[""White""]",No,Female,NA,No,286434.8000000119,NA,null,<p></p>,null,choice,ctd,trinary,repulsion_B,2,laptops,null,null,null,null,null,null,1,NA,NA,NA,NA,NA,NA,NA,NA,NA,NA
NA,NA,NA,NA,NA,choice_trial,survey-html-form,73,201395,0.0-4.0-1.34,172,1,2025-05-05T01:40:03Z,b60275e29fe2361ab97ac0ac217840d7,"Mozilla/5.0 (Macintosh; Intel Mac OS X 10_15_7) AppleWebKit/537.36 (KHTML, like Gecko) Chrome/135.0.0.0 Safari/537.36",Macintosh,Chrome,135.0.0.0,OS X,10_15_7,https://5puzkbbxv1.cognition.run/?sona_id=56619,"en-US,en;q=0.9",j1wp6s3jl5z8zjg,20,"[""White""]",No,Female,NA,No,286434.8000000119,NA,1123,NA,"{""product_choice"":""A""}",choice,ctd,trinary,repulsion_B,2,laptops,null,null,null,null,null,null,1,40,30,40,90,100,80,Processing speed,Memory (RAM),NA,NA
NA,NA,NA,NA,NA,choice_trial_setup,html-keyboard-response,74,201701,0.0-4.0-0.35,172,1,2025-05-05T01:40:03Z,b60275e29fe2361ab97ac0ac217840d7,"Mozilla/5.0 (Macintosh; Intel Mac OS X 10_15_7) AppleWebKit/537.36 (KHTML, like Gecko) Chrome/135.0.0.0 Safari/537.36",Macintosh,Chrome,135.0.0.0,OS X,10_15_7,https://5puzkbbxv1.cognition.run/?sona_id=56619,"en-US,en;q=0.9",j1wp6s3jl5z8zjg,20,"[""White""]",No,Female,NA,No,286434.8000000119,NA,null,<p></p>,null,choice,ct,binary,repulsion,2,washing machines,null,null,null,null,null,null,1,NA,NA,NA,NA,NA,NA,NA,NA,NA,NA
NA,NA,NA,NA,NA,choice_trial,survey-html-form,75,203862,0.0-4.0-1.35,172,1,2025-05-05T01:40:03Z,b60275e29fe2361ab97ac0ac217840d7,"Mozilla/5.0 (Macintosh; Intel Mac OS X 10_15_7) AppleWebKit/537.36 (KHTML, like Gecko) Chrome/135.0.0.0 Safari/537.36",Macintosh,Chrome,135.0.0.0,OS X,10_15_7,https://5puzkbbxv1.cognition.run/?sona_id=56619,"en-US,en;q=0.9",j1wp6s3jl5z8zjg,20,"[""White""]",No,Female,NA,No,286434.8000000119,NA,2157,NA,"{""product_choice"":""A""}",choice,ct,binary,repulsion,2,washing machines,null,null,null,null,null,null,1,30,40,null,100,90,null,Average lifespan,Energy savings,NA,NA
NA,NA,NA,NA,NA,choice_trial_setup,html-keyboard-response,76,204167,0.0-4.0-0.36,172,1,2025-05-05T01:40:03Z,b60275e29fe2361ab97ac0ac217840d7,"Mozilla/5.0 (Macintosh; Intel Mac OS X 10_15_7) AppleWebKit/537.36 (KHTML, like Gecko) Chrome/135.0.0.0 Safari/537.36",Macintosh,Chrome,135.0.0.0,OS X,10_15_7,https://5puzkbbxv1.cognition.run/?sona_id=56619,"en-US,en;q=0.9",j1wp6s3jl5z8zjg,20,"[""White""]",No,Female,NA,No,286434.8000000119,NA,null,<p></p>,null,choice,dtc,trinary,repulsion_A,2,laptops,null,null,null,null,null,null,1,NA,NA,NA,NA,NA,NA,NA,NA,NA,NA
NA,NA,NA,NA,NA,choice_trial,survey-html-form,77,205429,0.0-4.0-1.36,172,1,2025-05-05T01:40:03Z,b60275e29fe2361ab97ac0ac217840d7,"Mozilla/5.0 (Macintosh; Intel Mac OS X 10_15_7) AppleWebKit/537.36 (KHTML, like Gecko) Chrome/135.0.0.0 Safari/537.36",Macintosh,Chrome,135.0.0.0,OS X,10_15_7,https://5puzkbbxv1.cognition.run/?sona_id=56619,"en-US,en;q=0.9",j1wp6s3jl5z8zjg,20,"[""White""]",No,Female,NA,No,286434.8000000119,NA,1257,NA,"{""product_choice"":""C""}",choice,dtc,trinary,repulsion_A,2,laptops,null,null,null,null,null,null,1,30,40,20,100,90,100,Processing speed,Memory (RAM),NA,NA
NA,NA,NA,NA,NA,choice_trial_setup,html-keyboard-response,78,205734,0.0-4.0-0.37,172,1,2025-05-05T01:40:03Z,b60275e29fe2361ab97ac0ac217840d7,"Mozilla/5.0 (Macintosh; Intel Mac OS X 10_15_7) AppleWebKit/537.36 (KHTML, like Gecko) Chrome/135.0.0.0 Safari/537.36",Macintosh,Chrome,135.0.0.0,OS X,10_15_7,https://5puzkbbxv1.cognition.run/?sona_id=56619,"en-US,en;q=0.9",j1wp6s3jl5z8zjg,20,"[""White""]",No,Female,NA,No,286434.8000000119,NA,null,<p></p>,null,choice,wwb,trinary,catch,null,washing machines,60,85,50,25,30,5,1,NA,NA,NA,NA,NA,NA,NA,NA,NA,NA
NA,NA,NA,NA,NA,choice_trial,survey-html-form,79,207395,0.0-4.0-1.37,172,1,2025-05-05T01:40:03Z,b60275e29fe2361ab97ac0ac217840d7,"Mozilla/5.0 (Macintosh; Intel Mac OS X 10_15_7) AppleWebKit/537.36 (KHTML, like Gecko) Chrome/135.0.0.0 Safari/537.36",Macintosh,Chrome,135.0.0.0,OS X,10_15_7,https://5puzkbbxv1.cognition.run/?sona_id=56619,"en-US,en;q=0.9",j1wp6s3jl5z8zjg,20,"[""White""]",No,Female,NA,No,286434.8000000119,NA,1656,NA,"{""product_choice"":""B""}",choice,wwb,trinary,catch,null,washing machines,60,85,50,25,30,5,1,null,null,null,null,null,null,Average lifespan,Energy savings,NA,NA
NA,NA,NA,NA,NA,choice_trial_setup,html-keyboard-response,80,207700,0.0-4.0-0.38,172,1,2025-05-05T01:40:03Z,b60275e29fe2361ab97ac0ac217840d7,"Mozilla/5.0 (Macintosh; Intel Mac OS X 10_15_7) AppleWebKit/537.36 (KHTML, like Gecko) Chrome/135.0.0.0 Safari/537.36",Macintosh,Chrome,135.0.0.0,OS X,10_15_7,https://5puzkbbxv1.cognition.run/?sona_id=56619,"en-US,en;q=0.9",j1wp6s3jl5z8zjg,20,"[""White""]",No,Female,NA,No,286434.8000000119,NA,null,<p></p>,null,choice,ctd,trinary,attraction,2,washing machines,null,null,null,null,null,null,1,NA,NA,NA,NA,NA,NA,NA,NA,NA,NA
NA,NA,NA,NA,NA,choice_trial,survey-html-form,81,209244,0.0-4.0-1.38,172,1,2025-05-05T01:40:03Z,b60275e29fe2361ab97ac0ac217840d7,"Mozilla/5.0 (Macintosh; Intel Mac OS X 10_15_7) AppleWebKit/537.36 (KHTML, like Gecko) Chrome/135.0.0.0 Safari/537.36",Macintosh,Chrome,135.0.0.0,OS X,10_15_7,https://5puzkbbxv1.cognition.run/?sona_id=56619,"en-US,en;q=0.9",j1wp6s3jl5z8zjg,20,"[""White""]",No,Female,NA,No,286434.8000000119,NA,1538,NA,"{""product_choice"":""C""}",choice,ctd,trinary,attraction,2,washing machines,null,null,null,null,null,null,1,50,60,40,60,50,60,Average lifespan,Energy savings,NA,NA
NA,NA,NA,NA,NA,choice_trial_setup,html-keyboard-response,82,209549,0.0-4.0-0.39,172,1,2025-05-05T01:40:03Z,b60275e29fe2361ab97ac0ac217840d7,"Mozilla/5.0 (Macintosh; Intel Mac OS X 10_15_7) AppleWebKit/537.36 (KHTML, like Gecko) Chrome/135.0.0.0 Safari/537.36",Macintosh,Chrome,135.0.0.0,OS X,10_15_7,https://5puzkbbxv1.cognition.run/?sona_id=56619,"en-US,en;q=0.9",j1wp6s3jl5z8zjg,20,"[""White""]",No,Female,NA,No,286434.8000000119,NA,null,<p></p>,null,choice,bww,trinary,catch,null,televisions,90,80,20,35,40,40,1,NA,NA,NA,NA,NA,NA,NA,NA,NA,NA
NA,NA,NA,NA,NA,choice_trial,survey-html-form,83,211128,0.0-4.0-1.39,172,1,2025-05-05T01:40:03Z,b60275e29fe2361ab97ac0ac217840d7,"Mozilla/5.0 (Macintosh; Intel Mac OS X 10_15_7) AppleWebKit/537.36 (KHTML, like Gecko) Chrome/135.0.0.0 Safari/537.36",Macintosh,Chrome,135.0.0.0,OS X,10_15_7,https://5puzkbbxv1.cognition.run/?sona_id=56619,"en-US,en;q=0.9",j1wp6s3jl5z8zjg,20,"[""White""]",No,Female,NA,No,286434.8000000119,NA,1573,NA,"{""product_choice"":""B""}",choice,bww,trinary,catch,null,televisions,90,80,20,35,40,40,1,null,null,null,null,null,null,Screen size,Average lifespan,NA,NA
NA,NA,NA,NA,NA,choice_trial_setup,html-keyboard-response,84,211434,0.0-4.0-0.40,172,1,2025-05-05T01:40:03Z,b60275e29fe2361ab97ac0ac217840d7,"Mozilla/5.0 (Macintosh; Intel Mac OS X 10_15_7) AppleWebKit/537.36 (KHTML, like Gecko) Chrome/135.0.0.0 Safari/537.36",Macintosh,Chrome,135.0.0.0,OS X,10_15_7,https://5puzkbbxv1.cognition.run/?sona_id=56619,"en-US,en;q=0.9",j1wp6s3jl5z8zjg,20,"[""White""]",No,Female,NA,No,286434.8000000119,NA,null,<p></p>,null,choice,bw,binary,catch,null,microwave ovens,85,80,5,5,null,null,1,NA,NA,NA,NA,NA,NA,NA,NA,NA,NA
NA,NA,NA,NA,NA,choice_trial,survey-html-form,85,213345,0.0-4.0-1.40,172,1,2025-05-05T01:40:03Z,b60275e29fe2361ab97ac0ac217840d7,"Mozilla/5.0 (Macintosh; Intel Mac OS X 10_15_7) AppleWebKit/537.36 (KHTML, like Gecko) Chrome/135.0.0.0 Safari/537.36",Macintosh,Chrome,135.0.0.0,OS X,10_15_7,https://5puzkbbxv1.cognition.run/?sona_id=56619,"en-US,en;q=0.9",j1wp6s3jl5z8zjg,20,"[""White""]",No,Female,NA,No,286434.8000000119,NA,1905,NA,"{""product_choice"":""A""}",choice,bw,binary,catch,null,microwave ovens,85,80,5,5,null,null,1,null,null,null,null,null,null,Warranty,Cooking power,NA,NA
NA,NA,NA,NA,NA,choice_trial_setup,html-keyboard-response,86,213650,0.0-4.0-0.41,172,1,2025-05-05T01:40:03Z,b60275e29fe2361ab97ac0ac217840d7,"Mozilla/5.0 (Macintosh; Intel Mac OS X 10_15_7) AppleWebKit/537.36 (KHTML, like Gecko) Chrome/135.0.0.0 Safari/537.36",Macintosh,Chrome,135.0.0.0,OS X,10_15_7,https://5puzkbbxv1.cognition.run/?sona_id=56619,"en-US,en;q=0.9",j1wp6s3jl5z8zjg,20,"[""White""]",No,Female,NA,No,286434.8000000119,NA,null,<p></p>,null,choice,tc,binary,repulsion,1,televisions,null,null,null,null,null,null,1,NA,NA,NA,NA,NA,NA,NA,NA,NA,NA
NA,NA,NA,NA,NA,choice_trial,survey-html-form,87,214862,0.0-4.0-1.41,172,1,2025-05-05T01:40:03Z,b60275e29fe2361ab97ac0ac217840d7,"Mozilla/5.0 (Macintosh; Intel Mac OS X 10_15_7) AppleWebKit/537.36 (KHTML, like Gecko) Chrome/135.0.0.0 Safari/537.36",Macintosh,Chrome,135.0.0.0,OS X,10_15_7,https://5puzkbbxv1.cognition.run/?sona_id=56619,"en-US,en;q=0.9",j1wp6s3jl5z8zjg,20,"[""White""]",No,Female,NA,No,286434.8000000119,NA,1207,NA,"{""product_choice"":""B""}",choice,tc,binary,repulsion,1,televisions,null,null,null,null,null,null,1,100,90,null,30,40,null,Screen size,Average lifespan,NA,NA
NA,NA,NA,NA,NA,choice_trial_setup,html-keyboard-response,88,215168,0.0-4.0-0.42,172,1,2025-05-05T01:40:03Z,b60275e29fe2361ab97ac0ac217840d7,"Mozilla/5.0 (Macintosh; Intel Mac OS X 10_15_7) AppleWebKit/537.36 (KHTML, like Gecko) Chrome/135.0.0.0 Safari/537.36",Macintosh,Chrome,135.0.0.0,OS X,10_15_7,https://5puzkbbxv1.cognition.run/?sona_id=56619,"en-US,en;q=0.9",j1wp6s3jl5z8zjg,20,"[""White""]",No,Female,NA,No,286434.8000000119,NA,null,<p></p>,null,choice,ct,binary,repulsion,2,laptops,null,null,null,null,null,null,2,NA,NA,NA,NA,NA,NA,NA,NA,NA,NA
NA,NA,NA,NA,NA,choice_trial,survey-html-form,89,217012,0.0-4.0-1.42,172,1,2025-05-05T01:40:03Z,b60275e29fe2361ab97ac0ac217840d7,"Mozilla/5.0 (Macintosh; Intel Mac OS X 10_15_7) AppleWebKit/537.36 (KHTML, like Gecko) Chrome/135.0.0.0 Safari/537.36",Macintosh,Chrome,135.0.0.0,OS X,10_15_7,https://5puzkbbxv1.cognition.run/?sona_id=56619,"en-US,en;q=0.9",j1wp6s3jl5z8zjg,20,"[""White""]",No,Female,NA,No,286434.8000000119,NA,1838,NA,"{""product_choice"":""B""}",choice,ct,binary,repulsion,2,laptops,null,null,null,null,null,null,2,30,40,null,100,90,null,Processing speed,Memory (RAM),NA,NA
NA,NA,NA,NA,NA,choice_trial_setup,html-keyboard-response,90,217317,0.0-4.0-0.43,172,1,2025-05-05T01:40:03Z,b60275e29fe2361ab97ac0ac217840d7,"Mozilla/5.0 (Macintosh; Intel Mac OS X 10_15_7) AppleWebKit/537.36 (KHTML, like Gecko) Chrome/135.0.0.0 Safari/537.36",Macintosh,Chrome,135.0.0.0,OS X,10_15_7,https://5puzkbbxv1.cognition.run/?sona_id=56619,"en-US,en;q=0.9",j1wp6s3jl5z8zjg,20,"[""White""]",No,Female,NA,No,286434.8000000119,NA,null,<p></p>,null,choice,ctd,trinary,repulsion_B,1,laptops,null,null,null,null,null,null,2,NA,NA,NA,NA,NA,NA,NA,NA,NA,NA
NA,NA,NA,NA,NA,choice_trial,survey-html-form,91,219128,0.0-4.0-1.43,172,1,2025-05-05T01:40:03Z,b60275e29fe2361ab97ac0ac217840d7,"Mozilla/5.0 (Macintosh; Intel Mac OS X 10_15_7) AppleWebKit/537.36 (KHTML, like Gecko) Chrome/135.0.0.0 Safari/537.36",Macintosh,Chrome,135.0.0.0,OS X,10_15_7,https://5puzkbbxv1.cognition.run/?sona_id=56619,"en-US,en;q=0.9",j1wp6s3jl5z8zjg,20,"[""White""]",No,Female,NA,No,286434.8000000119,NA,1806,NA,"{""product_choice"":""A""}",choice,ctd,trinary,repulsion_B,1,laptops,null,null,null,null,null,null,2,90,100,80,40,30,40,Processing speed,Memory (RAM),NA,NA
NA,NA,NA,NA,NA,post_trials_message,html-button-response,92,220662,0.0-5.0,172,1,2025-05-05T01:40:03Z,b60275e29fe2361ab97ac0ac217840d7,"Mozilla/5.0 (Macintosh; Intel Mac OS X 10_15_7) AppleWebKit/537.36 (KHTML, like Gecko) Chrome/135.0.0.0 Safari/537.36",Macintosh,Chrome,135.0.0.0,OS X,10_15_7,https://5puzkbbxv1.cognition.run/?sona_id=56619,"en-US,en;q=0.9",j1wp6s3jl5z8zjg,20,"[""White""]",No,Female,NA,No,286434.8000000119,NA,1528,<p> <b>Thank you for your patience!</b></p><p>  The study will be done after completing a brief form. </p>,0,NA,NA,NA,NA,NA,NA,NA,NA,NA,NA,NA,NA,NA,NA,NA,NA,NA,NA,NA,NA,NA,NA,NA
NA,NA,NA,NA,NA,survey_message,survey-text,93,245811,0.0-6.0,172,1,2025-05-05T01:40:03Z,b60275e29fe2361ab97ac0ac217840d7,"Mozilla/5.0 (Macintosh; Intel Mac OS X 10_15_7) AppleWebKit/537.36 (KHTML, like Gecko) Chrome/135.0.0.0 Safari/537.36",Macintosh,Chrome,135.0.0.0,OS X,10_15_7,https://5puzkbbxv1.cognition.run/?sona_id=56619,"en-US,en;q=0.9",j1wp6s3jl5z8zjg,20,"[""White""]",No,Female,NA,No,286434.8000000119,NA,25144,NA,"{""Q0"":""I just chose which part seemed more important.""}",NA,NA,NA,NA,NA,NA,NA,NA,NA,NA,NA,NA,NA,NA,NA,NA,NA,NA,NA,NA,NA,I just chose which part seemed more important.,NA
NA,NA,NA,NA,NA,demo_age,survey-text,94,248228,0.0-7.0,172,1,2025-05-05T01:40:03Z,b60275e29fe2361ab97ac0ac217840d7,"Mozilla/5.0 (Macintosh; Intel Mac OS X 10_15_7) AppleWebKit/537.36 (KHTML, like Gecko) Chrome/135.0.0.0 Safari/537.36",Macintosh,Chrome,135.0.0.0,OS X,10_15_7,https://5puzkbbxv1.cognition.run/?sona_id=56619,"en-US,en;q=0.9",j1wp6s3jl5z8zjg,20,"[""White""]",No,Female,NA,No,286434.8000000119,NA,2413,NA,"{""Q0"":""20""}",NA,NA,NA,NA,NA,NA,NA,NA,NA,NA,NA,NA,NA,NA,NA,NA,NA,NA,NA,NA,NA,NA,NA
NA,NA,NA,NA,NA,demo_race,survey-multi-select,95,250514,0.0-8.0,172,1,2025-05-05T01:40:03Z,b60275e29fe2361ab97ac0ac217840d7,"Mozilla/5.0 (Macintosh; Intel Mac OS X 10_15_7) AppleWebKit/537.36 (KHTML, like Gecko) Chrome/135.0.0.0 Safari/537.36",Macintosh,Chrome,135.0.0.0,OS X,10_15_7,https://5puzkbbxv1.cognition.run/?sona_id=56619,"en-US,en;q=0.9",j1wp6s3jl5z8zjg,20,"[""White""]",No,Female,NA,No,286434.8000000119,NA,2281,NA,"{""Q0"":[""White""]}",NA,NA,NA,NA,NA,NA,NA,NA,NA,NA,NA,NA,NA,NA,NA,NA,NA,NA,NA,NA,NA,NA,[0]
NA,NA,NA,NA,NA,demo_ethnicity_gender,survey-multi-choice,96,254412,0.0-9.0,172,1,2025-05-05T01:40:03Z,b60275e29fe2361ab97ac0ac217840d7,"Mozilla/5.0 (Macintosh; Intel Mac OS X 10_15_7) AppleWebKit/537.36 (KHTML, like Gecko) Chrome/135.0.0.0 Safari/537.36",Macintosh,Chrome,135.0.0.0,OS X,10_15_7,https://5puzkbbxv1.cognition.run/?sona_id=56619,"en-US,en;q=0.9",j1wp6s3jl5z8zjg,20,"[""White""]",No,Female,NA,No,286434.8000000119,NA,3892,NA,"{""Q0"":""No"",""Q1"":""Female""}",NA,NA,NA,NA,NA,NA,NA,NA,NA,NA,NA,NA,NA,NA,NA,NA,NA,NA,NA,NA,NA,NA,"[0,1]"
NA,NA,NA,NA,NA,demo_countries,survey-text,97,259045,0.0-10.0,172,1,2025-05-05T01:40:03Z,b60275e29fe2361ab97ac0ac217840d7,"Mozilla/5.0 (Macintosh; Intel Mac OS X 10_15_7) AppleWebKit/537.36 (KHTML, like Gecko) Chrome/135.0.0.0 Safari/537.36",Macintosh,Chrome,135.0.0.0,OS X,10_15_7,https://5puzkbbxv1.cognition.run/?sona_id=56619,"en-US,en;q=0.9",j1wp6s3jl5z8zjg,20,"[""White""]",No,Female,NA,No,286434.8000000119,NA,4618,NA,"{""Q0"":""NA""}",NA,NA,NA,NA,NA,NA,NA,NA,NA,NA,NA,NA,NA,NA,NA,NA,NA,NA,NA,NA,NA,NA,NA
NA,NA,NA,NA,NA,demo_prev_study,survey-multi-choice,98,265379,0.0-11.0,172,1,2025-05-05T01:40:03Z,b60275e29fe2361ab97ac0ac217840d7,"Mozilla/5.0 (Macintosh; Intel Mac OS X 10_15_7) AppleWebKit/537.36 (KHTML, like Gecko) Chrome/135.0.0.0 Safari/537.36",Macintosh,Chrome,135.0.0.0,OS X,10_15_7,https://5puzkbbxv1.cognition.run/?sona_id=56619,"en-US,en;q=0.9",j1wp6s3jl5z8zjg,20,"[""White""]",No,Female,NA,No,286434.8000000119,NA,6331,NA,"{""Q0"":""No""}",NA,NA,NA,NA,NA,NA,NA,NA,NA,NA,NA,NA,NA,NA,NA,NA,NA,NA,NA,NA,NA,NA,[0]
NA,NA,NA,NA,NA,post_survey_message,html-keyboard-response,99,268155,0.0-12.0,172,1,2025-05-05T01:40:03Z,b60275e29fe2361ab97ac0ac217840d7,"Mozilla/5.0 (Macintosh; Intel Mac OS X 10_15_7) AppleWebKit/537.36 (KHTML, like Gecko) Chrome/135.0.0.0 Safari/537.36",Macintosh,Chrome,135.0.0.0,OS X,10_15_7,https://5puzkbbxv1.cognition.run/?sona_id=56619,"en-US,en;q=0.9",j1wp6s3jl5z8zjg,20,"[""White""]",No,Female,NA,No,286434.8000000119,NA,2771,NA,j,NA,NA,NA,NA,NA,NA,NA,NA,NA,NA,NA,NA,NA,NA,NA,NA,NA,NA,NA,NA,NA,NA,NA
NA,NA,NA,NA,NA,debrief,image-keyboard-response,100,286422,0.0-13.0,172,1,2025-05-05T01:40:03Z,b60275e29fe2361ab97ac0ac217840d7,"Mozilla/5.0 (Macintosh; Intel Mac OS X 10_15_7) AppleWebKit/537.36 (KHTML, like Gecko) Chrome/135.0.0.0 Safari/537.36",Macintosh,Chrome,135.0.0.0,OS X,10_15_7,https://5puzkbbxv1.cognition.run/?sona_id=56619,"en-US,en;q=0.9",j1wp6s3jl5z8zjg,20,"[""White""]",No,Female,NA,No,286434.8000000119,NA,18260,Judg_choice_debrief.png,p,NA,NA,NA,NA,NA,NA,NA,NA,NA,NA,NA,NA,NA,NA,NA,NA,NA,NA,NA,NA,NA,NA,NA
