success,timeout,failed_images,failed_audio,failed_video,screen_id,trial_type,trial_index,time_elapsed,internal_node_id,run_id,condition,recorded_at,source_code_version,user_agent,device,browser,browser_version,platform,platform_version,referer,accept_language,ppt_id,age,race,ethnicity,gender,other_countries,prev_study,exp_duration,view_history,rt,stimulus,response,phase,order,set,effect,t_high,category,d1_best,d2_best,d1_worst1,d2_worst1,d1_worst2,d2_worst2,first_dim,d1_t,d1_c,d1_d,d2_t,d2_c,d2_d,d1_name,d2_name,strategy_response,question_order
TRUE,FALSE,[],[],[],img preload,preload,0,427,0.0-0.0,173,1,2025-05-05T01:48:01Z,b60275e29fe2361ab97ac0ac217840d7,"Mozilla/5.0 (Macintosh; Intel Mac OS X 10_15_7) AppleWebKit/537.36 (KHTML, like Gecko) Chrome/133.0.0.0 Safari/537.36",Macintosh,Chrome,133.0.0.0,OS X,10_15_7,https://5puzkbbxv1.cognition.run/?sona_id=52265,"en-US,en;q=0.9",jy901huw8jtep4u,20,"[""White""]",No,Female,N/A,I'm not sure,486267.40000009537,NA,NA,NA,NA,NA,NA,NA,NA,NA,NA,NA,NA,NA,NA,NA,NA,NA,NA,NA,NA,NA,NA,NA,NA,NA,NA,NA
NA,NA,NA,NA,NA,computer_message,instructions,1,3178,0.0-1.0,173,1,2025-05-05T01:48:01Z,b60275e29fe2361ab97ac0ac217840d7,"Mozilla/5.0 (Macintosh; Intel Mac OS X 10_15_7) AppleWebKit/537.36 (KHTML, like Gecko) Chrome/133.0.0.0 Safari/537.36",Macintosh,Chrome,133.0.0.0,OS X,10_15_7,https://5puzkbbxv1.cognition.run/?sona_id=52265,"en-US,en;q=0.9",jy901huw8jtep4u,20,"[""White""]",No,Female,N/A,I'm not sure,486267.40000009537,"[{""page_index"":0,""viewing_time"":2750}]",2750,NA,NA,NA,NA,NA,NA,NA,NA,NA,NA,NA,NA,NA,NA,NA,NA,NA,NA,NA,NA,NA,NA,NA,NA,NA
TRUE,NA,NA,NA,NA,NA,fullscreen,2,5783,0.0-2.0,173,1,2025-05-05T01:48:01Z,b60275e29fe2361ab97ac0ac217840d7,"Mozilla/5.0 (Macintosh; Intel Mac OS X 10_15_7) AppleWebKit/537.36 (KHTML, like Gecko) Chrome/133.0.0.0 Safari/537.36",Macintosh,Chrome,133.0.0.0,OS X,10_15_7,https://5puzkbbxv1.cognition.run/?sona_id=52265,"en-US,en;q=0.9",jy901huw8jtep4u,20,"[""White""]",No,Female,N/A,I'm not sure,486267.40000009537,NA,1602,NA,NA,NA,NA,NA,NA,NA,NA,NA,NA,NA,NA,NA,NA,NA,NA,NA,NA,NA,NA,NA,NA,NA,NA,NA
NA,NA,NA,NA,NA,choice_instructions,instructions,3,50880,0.0-3.0,173,1,2025-05-05T01:48:01Z,b60275e29fe2361ab97ac0ac217840d7,"Mozilla/5.0 (Macintosh; Intel Mac OS X 10_15_7) AppleWebKit/537.36 (KHTML, like Gecko) Chrome/133.0.0.0 Safari/537.36",Macintosh,Chrome,133.0.0.0,OS X,10_15_7,https://5puzkbbxv1.cognition.run/?sona_id=52265,"en-US,en;q=0.9",jy901huw8jtep4u,20,"[""White""]",No,Female,N/A,I'm not sure,486267.40000009537,"[{""page_index"":0,""viewing_time"":2364},{""page_index"":1,""viewing_time"":3946},{""page_index"":2,""viewing_time"":6686},{""page_index"":3,""viewing_time"":6103},{""page_index"":4,""viewing_time"":3462},{""page_index"":5,""viewing_time"":14518},{""page_index"":6,""viewing_time"":8019}]",45097,NA,NA,NA,NA,NA,NA,NA,NA,NA,NA,NA,NA,NA,NA,NA,NA,NA,NA,NA,NA,NA,NA,NA,NA,NA
NA,NA,NA,NA,NA,choice_trial_setup,html-keyboard-response,4,51183,0.0-4.0-0.0,173,1,2025-05-05T01:48:01Z,b60275e29fe2361ab97ac0ac217840d7,"Mozilla/5.0 (Macintosh; Intel Mac OS X 10_15_7) AppleWebKit/537.36 (KHTML, like Gecko) Chrome/133.0.0.0 Safari/537.36",Macintosh,Chrome,133.0.0.0,OS X,10_15_7,https://5puzkbbxv1.cognition.run/?sona_id=52265,"en-US,en;q=0.9",jy901huw8jtep4u,20,"[""White""]",No,Female,N/A,I'm not sure,486267.40000009537,NA,null,<p></p>,null,choice,dtc,trinary,repulsion_A,1,laptops,null,null,null,null,null,null,1,NA,NA,NA,NA,NA,NA,NA,NA,NA,NA
NA,NA,NA,NA,NA,choice_trial,survey-html-form,5,58931,0.0-4.0-1.0,173,1,2025-05-05T01:48:01Z,b60275e29fe2361ab97ac0ac217840d7,"Mozilla/5.0 (Macintosh; Intel Mac OS X 10_15_7) AppleWebKit/537.36 (KHTML, like Gecko) Chrome/133.0.0.0 Safari/537.36",Macintosh,Chrome,133.0.0.0,OS X,10_15_7,https://5puzkbbxv1.cognition.run/?sona_id=52265,"en-US,en;q=0.9",jy901huw8jtep4u,20,"[""White""]",No,Female,N/A,I'm not sure,486267.40000009537,NA,7741,NA,"{""product_choice"":""B""}",choice,dtc,trinary,repulsion_A,1,laptops,null,null,null,null,null,null,1,100,90,100,30,40,20,Processing speed,Memory (RAM),NA,NA
NA,NA,NA,NA,NA,choice_trial_setup,html-keyboard-response,6,59233,0.0-4.0-0.1,173,1,2025-05-05T01:48:01Z,b60275e29fe2361ab97ac0ac217840d7,"Mozilla/5.0 (Macintosh; Intel Mac OS X 10_15_7) AppleWebKit/537.36 (KHTML, like Gecko) Chrome/133.0.0.0 Safari/537.36",Macintosh,Chrome,133.0.0.0,OS X,10_15_7,https://5puzkbbxv1.cognition.run/?sona_id=52265,"en-US,en;q=0.9",jy901huw8jtep4u,20,"[""White""]",No,Female,N/A,I'm not sure,486267.40000009537,NA,null,<p></p>,null,choice,cdt,trinary,attraction,1,televisions,null,null,null,null,null,null,2,NA,NA,NA,NA,NA,NA,NA,NA,NA,NA
NA,NA,NA,NA,NA,choice_trial,survey-html-form,7,63945,0.0-4.0-1.1,173,1,2025-05-05T01:48:01Z,b60275e29fe2361ab97ac0ac217840d7,"Mozilla/5.0 (Macintosh; Intel Mac OS X 10_15_7) AppleWebKit/537.36 (KHTML, like Gecko) Chrome/133.0.0.0 Safari/537.36",Macintosh,Chrome,133.0.0.0,OS X,10_15_7,https://5puzkbbxv1.cognition.run/?sona_id=52265,"en-US,en;q=0.9",jy901huw8jtep4u,20,"[""White""]",No,Female,N/A,I'm not sure,486267.40000009537,NA,4709,NA,"{""product_choice"":""A""}",choice,cdt,trinary,attraction,1,televisions,null,null,null,null,null,null,2,60,50,60,50,60,40,Screen size,Average lifespan,NA,NA
NA,NA,NA,NA,NA,choice_trial_setup,html-keyboard-response,8,64248,0.0-4.0-0.2,173,1,2025-05-05T01:48:01Z,b60275e29fe2361ab97ac0ac217840d7,"Mozilla/5.0 (Macintosh; Intel Mac OS X 10_15_7) AppleWebKit/537.36 (KHTML, like Gecko) Chrome/133.0.0.0 Safari/537.36",Macintosh,Chrome,133.0.0.0,OS X,10_15_7,https://5puzkbbxv1.cognition.run/?sona_id=52265,"en-US,en;q=0.9",jy901huw8jtep4u,20,"[""White""]",No,Female,N/A,I'm not sure,486267.40000009537,NA,null,<p></p>,null,choice,dct,trinary,repulsion_B,2,microwave ovens,null,null,null,null,null,null,2,NA,NA,NA,NA,NA,NA,NA,NA,NA,NA
NA,NA,NA,NA,NA,choice_trial,survey-html-form,9,71327,0.0-4.0-1.2,173,1,2025-05-05T01:48:01Z,b60275e29fe2361ab97ac0ac217840d7,"Mozilla/5.0 (Macintosh; Intel Mac OS X 10_15_7) AppleWebKit/537.36 (KHTML, like Gecko) Chrome/133.0.0.0 Safari/537.36",Macintosh,Chrome,133.0.0.0,OS X,10_15_7,https://5puzkbbxv1.cognition.run/?sona_id=52265,"en-US,en;q=0.9",jy901huw8jtep4u,20,"[""White""]",No,Female,N/A,I'm not sure,486267.40000009537,NA,7076,NA,"{""product_choice"":""C""}",choice,dct,trinary,repulsion_B,2,microwave ovens,null,null,null,null,null,null,2,40,30,40,90,100,80,Warranty,Cooking power,NA,NA
NA,NA,NA,NA,NA,choice_trial_setup,html-keyboard-response,10,71630,0.0-4.0-0.3,173,1,2025-05-05T01:48:01Z,b60275e29fe2361ab97ac0ac217840d7,"Mozilla/5.0 (Macintosh; Intel Mac OS X 10_15_7) AppleWebKit/537.36 (KHTML, like Gecko) Chrome/133.0.0.0 Safari/537.36",Macintosh,Chrome,133.0.0.0,OS X,10_15_7,https://5puzkbbxv1.cognition.run/?sona_id=52265,"en-US,en;q=0.9",jy901huw8jtep4u,20,"[""White""]",No,Female,N/A,I'm not sure,486267.40000009537,NA,null,<p></p>,null,choice,dct,trinary,repulsion_A,1,washing machines,null,null,null,null,null,null,1,NA,NA,NA,NA,NA,NA,NA,NA,NA,NA
NA,NA,NA,NA,NA,choice_trial,survey-html-form,11,80827,0.0-4.0-1.3,173,1,2025-05-05T01:48:01Z,b60275e29fe2361ab97ac0ac217840d7,"Mozilla/5.0 (Macintosh; Intel Mac OS X 10_15_7) AppleWebKit/537.36 (KHTML, like Gecko) Chrome/133.0.0.0 Safari/537.36",Macintosh,Chrome,133.0.0.0,OS X,10_15_7,https://5puzkbbxv1.cognition.run/?sona_id=52265,"en-US,en;q=0.9",jy901huw8jtep4u,20,"[""White""]",No,Female,N/A,I'm not sure,486267.40000009537,NA,9194,NA,"{""product_choice"":""B""}",choice,dct,trinary,repulsion_A,1,washing machines,null,null,null,null,null,null,1,100,90,100,30,40,20,Average lifespan,Energy savings,NA,NA
NA,NA,NA,NA,NA,choice_trial_setup,html-keyboard-response,12,81130,0.0-4.0-0.4,173,1,2025-05-05T01:48:01Z,b60275e29fe2361ab97ac0ac217840d7,"Mozilla/5.0 (Macintosh; Intel Mac OS X 10_15_7) AppleWebKit/537.36 (KHTML, like Gecko) Chrome/133.0.0.0 Safari/537.36",Macintosh,Chrome,133.0.0.0,OS X,10_15_7,https://5puzkbbxv1.cognition.run/?sona_id=52265,"en-US,en;q=0.9",jy901huw8jtep4u,20,"[""White""]",No,Female,N/A,I'm not sure,486267.40000009537,NA,null,<p></p>,null,choice,wwb,trinary,catch,null,washing machines,85,85,10,10,50,40,2,NA,NA,NA,NA,NA,NA,NA,NA,NA,NA
NA,NA,NA,NA,NA,choice_trial,survey-html-form,13,89660,0.0-4.0-1.4,173,1,2025-05-05T01:48:01Z,b60275e29fe2361ab97ac0ac217840d7,"Mozilla/5.0 (Macintosh; Intel Mac OS X 10_15_7) AppleWebKit/537.36 (KHTML, like Gecko) Chrome/133.0.0.0 Safari/537.36",Macintosh,Chrome,133.0.0.0,OS X,10_15_7,https://5puzkbbxv1.cognition.run/?sona_id=52265,"en-US,en;q=0.9",jy901huw8jtep4u,20,"[""White""]",No,Female,N/A,I'm not sure,486267.40000009537,NA,8526,NA,"{""product_choice"":""C""}",choice,wwb,trinary,catch,null,washing machines,85,85,10,10,50,40,2,null,null,null,null,null,null,Average lifespan,Energy savings,NA,NA
NA,NA,NA,NA,NA,choice_trial_setup,html-keyboard-response,14,89963,0.0-4.0-0.5,173,1,2025-05-05T01:48:01Z,b60275e29fe2361ab97ac0ac217840d7,"Mozilla/5.0 (Macintosh; Intel Mac OS X 10_15_7) AppleWebKit/537.36 (KHTML, like Gecko) Chrome/133.0.0.0 Safari/537.36",Macintosh,Chrome,133.0.0.0,OS X,10_15_7,https://5puzkbbxv1.cognition.run/?sona_id=52265,"en-US,en;q=0.9",jy901huw8jtep4u,20,"[""White""]",No,Female,N/A,I'm not sure,486267.40000009537,NA,null,<p></p>,null,choice,ct,binary,repulsion,2,televisions,null,null,null,null,null,null,2,NA,NA,NA,NA,NA,NA,NA,NA,NA,NA
NA,NA,NA,NA,NA,choice_trial,survey-html-form,15,94411,0.0-4.0-1.5,173,1,2025-05-05T01:48:01Z,b60275e29fe2361ab97ac0ac217840d7,"Mozilla/5.0 (Macintosh; Intel Mac OS X 10_15_7) AppleWebKit/537.36 (KHTML, like Gecko) Chrome/133.0.0.0 Safari/537.36",Macintosh,Chrome,133.0.0.0,OS X,10_15_7,https://5puzkbbxv1.cognition.run/?sona_id=52265,"en-US,en;q=0.9",jy901huw8jtep4u,20,"[""White""]",No,Female,N/A,I'm not sure,486267.40000009537,NA,4444,NA,"{""product_choice"":""B""}",choice,ct,binary,repulsion,2,televisions,null,null,null,null,null,null,2,30,40,null,100,90,null,Screen size,Average lifespan,NA,NA
NA,NA,NA,NA,NA,choice_trial_setup,html-keyboard-response,16,94713,0.0-4.0-0.6,173,1,2025-05-05T01:48:01Z,b60275e29fe2361ab97ac0ac217840d7,"Mozilla/5.0 (Macintosh; Intel Mac OS X 10_15_7) AppleWebKit/537.36 (KHTML, like Gecko) Chrome/133.0.0.0 Safari/537.36",Macintosh,Chrome,133.0.0.0,OS X,10_15_7,https://5puzkbbxv1.cognition.run/?sona_id=52265,"en-US,en;q=0.9",jy901huw8jtep4u,20,"[""White""]",No,Female,N/A,I'm not sure,486267.40000009537,NA,null,<p></p>,null,choice,tc,binary,repulsion,1,washing machines,null,null,null,null,null,null,2,NA,NA,NA,NA,NA,NA,NA,NA,NA,NA
NA,NA,NA,NA,NA,choice_trial,survey-html-form,17,99761,0.0-4.0-1.6,173,1,2025-05-05T01:48:01Z,b60275e29fe2361ab97ac0ac217840d7,"Mozilla/5.0 (Macintosh; Intel Mac OS X 10_15_7) AppleWebKit/537.36 (KHTML, like Gecko) Chrome/133.0.0.0 Safari/537.36",Macintosh,Chrome,133.0.0.0,OS X,10_15_7,https://5puzkbbxv1.cognition.run/?sona_id=52265,"en-US,en;q=0.9",jy901huw8jtep4u,20,"[""White""]",No,Female,N/A,I'm not sure,486267.40000009537,NA,5044,NA,"{""product_choice"":""B""}",choice,tc,binary,repulsion,1,washing machines,null,null,null,null,null,null,2,100,90,null,30,40,null,Average lifespan,Energy savings,NA,NA
NA,NA,NA,NA,NA,choice_trial_setup,html-keyboard-response,18,100063,0.0-4.0-0.7,173,1,2025-05-05T01:48:01Z,b60275e29fe2361ab97ac0ac217840d7,"Mozilla/5.0 (Macintosh; Intel Mac OS X 10_15_7) AppleWebKit/537.36 (KHTML, like Gecko) Chrome/133.0.0.0 Safari/537.36",Macintosh,Chrome,133.0.0.0,OS X,10_15_7,https://5puzkbbxv1.cognition.run/?sona_id=52265,"en-US,en;q=0.9",jy901huw8jtep4u,20,"[""White""]",No,Female,N/A,I'm not sure,486267.40000009537,NA,null,<p></p>,null,choice,tcd,trinary,repulsion_B,2,washing machines,null,null,null,null,null,null,2,NA,NA,NA,NA,NA,NA,NA,NA,NA,NA
NA,NA,NA,NA,NA,choice_trial,survey-html-form,19,106544,0.0-4.0-1.7,173,1,2025-05-05T01:48:01Z,b60275e29fe2361ab97ac0ac217840d7,"Mozilla/5.0 (Macintosh; Intel Mac OS X 10_15_7) AppleWebKit/537.36 (KHTML, like Gecko) Chrome/133.0.0.0 Safari/537.36",Macintosh,Chrome,133.0.0.0,OS X,10_15_7,https://5puzkbbxv1.cognition.run/?sona_id=52265,"en-US,en;q=0.9",jy901huw8jtep4u,20,"[""White""]",No,Female,N/A,I'm not sure,486267.40000009537,NA,6479,NA,"{""product_choice"":""A""}",choice,tcd,trinary,repulsion_B,2,washing machines,null,null,null,null,null,null,2,40,30,40,90,100,80,Average lifespan,Energy savings,NA,NA
NA,NA,NA,NA,NA,choice_trial_setup,html-keyboard-response,20,106847,0.0-4.0-0.8,173,1,2025-05-05T01:48:01Z,b60275e29fe2361ab97ac0ac217840d7,"Mozilla/5.0 (Macintosh; Intel Mac OS X 10_15_7) AppleWebKit/537.36 (KHTML, like Gecko) Chrome/133.0.0.0 Safari/537.36",Macintosh,Chrome,133.0.0.0,OS X,10_15_7,https://5puzkbbxv1.cognition.run/?sona_id=52265,"en-US,en;q=0.9",jy901huw8jtep4u,20,"[""White""]",No,Female,N/A,I'm not sure,486267.40000009537,NA,null,<p></p>,null,choice,ct,binary,attraction,NA,microwave ovens,null,null,null,null,null,null,1,NA,NA,NA,NA,NA,NA,NA,NA,NA,NA
NA,NA,NA,NA,NA,choice_trial,survey-html-form,21,112479,0.0-4.0-1.8,173,1,2025-05-05T01:48:01Z,b60275e29fe2361ab97ac0ac217840d7,"Mozilla/5.0 (Macintosh; Intel Mac OS X 10_15_7) AppleWebKit/537.36 (KHTML, like Gecko) Chrome/133.0.0.0 Safari/537.36",Macintosh,Chrome,133.0.0.0,OS X,10_15_7,https://5puzkbbxv1.cognition.run/?sona_id=52265,"en-US,en;q=0.9",jy901huw8jtep4u,20,"[""White""]",No,Female,N/A,I'm not sure,486267.40000009537,NA,5630,NA,"{""product_choice"":""A""}",choice,ct,binary,attraction,NA,microwave ovens,null,null,null,null,null,null,1,60,50,null,50,60,null,Warranty,Cooking power,NA,NA
NA,NA,NA,NA,NA,choice_trial_setup,html-keyboard-response,22,112782,0.0-4.0-0.9,173,1,2025-05-05T01:48:01Z,b60275e29fe2361ab97ac0ac217840d7,"Mozilla/5.0 (Macintosh; Intel Mac OS X 10_15_7) AppleWebKit/537.36 (KHTML, like Gecko) Chrome/133.0.0.0 Safari/537.36",Macintosh,Chrome,133.0.0.0,OS X,10_15_7,https://5puzkbbxv1.cognition.run/?sona_id=52265,"en-US,en;q=0.9",jy901huw8jtep4u,20,"[""White""]",No,Female,N/A,I'm not sure,486267.40000009537,NA,null,<p></p>,null,choice,wbw,trinary,catch,null,laptops,55,80,40,45,30,35,1,NA,NA,NA,NA,NA,NA,NA,NA,NA,NA
NA,NA,NA,NA,NA,choice_trial,survey-html-form,23,120277,0.0-4.0-1.9,173,1,2025-05-05T01:48:01Z,b60275e29fe2361ab97ac0ac217840d7,"Mozilla/5.0 (Macintosh; Intel Mac OS X 10_15_7) AppleWebKit/537.36 (KHTML, like Gecko) Chrome/133.0.0.0 Safari/537.36",Macintosh,Chrome,133.0.0.0,OS X,10_15_7,https://5puzkbbxv1.cognition.run/?sona_id=52265,"en-US,en;q=0.9",jy901huw8jtep4u,20,"[""White""]",No,Female,N/A,I'm not sure,486267.40000009537,NA,7491,NA,"{""product_choice"":""B""}",choice,wbw,trinary,catch,null,laptops,55,80,40,45,30,35,1,null,null,null,null,null,null,Processing speed,Memory (RAM),NA,NA
NA,NA,NA,NA,NA,choice_trial_setup,html-keyboard-response,24,120580,0.0-4.0-0.10,173,1,2025-05-05T01:48:01Z,b60275e29fe2361ab97ac0ac217840d7,"Mozilla/5.0 (Macintosh; Intel Mac OS X 10_15_7) AppleWebKit/537.36 (KHTML, like Gecko) Chrome/133.0.0.0 Safari/537.36",Macintosh,Chrome,133.0.0.0,OS X,10_15_7,https://5puzkbbxv1.cognition.run/?sona_id=52265,"en-US,en;q=0.9",jy901huw8jtep4u,20,"[""White""]",No,Female,N/A,I'm not sure,486267.40000009537,NA,null,<p></p>,null,choice,ct,binary,attraction,NA,laptops,null,null,null,null,null,null,2,NA,NA,NA,NA,NA,NA,NA,NA,NA,NA
NA,NA,NA,NA,NA,choice_trial,survey-html-form,25,126110,0.0-4.0-1.10,173,1,2025-05-05T01:48:01Z,b60275e29fe2361ab97ac0ac217840d7,"Mozilla/5.0 (Macintosh; Intel Mac OS X 10_15_7) AppleWebKit/537.36 (KHTML, like Gecko) Chrome/133.0.0.0 Safari/537.36",Macintosh,Chrome,133.0.0.0,OS X,10_15_7,https://5puzkbbxv1.cognition.run/?sona_id=52265,"en-US,en;q=0.9",jy901huw8jtep4u,20,"[""White""]",No,Female,N/A,I'm not sure,486267.40000009537,NA,5527,NA,"{""product_choice"":""B""}",choice,ct,binary,attraction,NA,laptops,null,null,null,null,null,null,2,60,50,null,50,60,null,Processing speed,Memory (RAM),NA,NA
NA,NA,NA,NA,NA,choice_trial_setup,html-keyboard-response,26,126412,0.0-4.0-0.11,173,1,2025-05-05T01:48:01Z,b60275e29fe2361ab97ac0ac217840d7,"Mozilla/5.0 (Macintosh; Intel Mac OS X 10_15_7) AppleWebKit/537.36 (KHTML, like Gecko) Chrome/133.0.0.0 Safari/537.36",Macintosh,Chrome,133.0.0.0,OS X,10_15_7,https://5puzkbbxv1.cognition.run/?sona_id=52265,"en-US,en;q=0.9",jy901huw8jtep4u,20,"[""White""]",No,Female,N/A,I'm not sure,486267.40000009537,NA,null,<p></p>,null,choice,ct,binary,repulsion,1,televisions,null,null,null,null,null,null,2,NA,NA,NA,NA,NA,NA,NA,NA,NA,NA
NA,NA,NA,NA,NA,choice_trial,survey-html-form,27,130527,0.0-4.0-1.11,173,1,2025-05-05T01:48:01Z,b60275e29fe2361ab97ac0ac217840d7,"Mozilla/5.0 (Macintosh; Intel Mac OS X 10_15_7) AppleWebKit/537.36 (KHTML, like Gecko) Chrome/133.0.0.0 Safari/537.36",Macintosh,Chrome,133.0.0.0,OS X,10_15_7,https://5puzkbbxv1.cognition.run/?sona_id=52265,"en-US,en;q=0.9",jy901huw8jtep4u,20,"[""White""]",No,Female,N/A,I'm not sure,486267.40000009537,NA,4111,NA,"{""product_choice"":""A""}",choice,ct,binary,repulsion,1,televisions,null,null,null,null,null,null,2,100,90,null,30,40,null,Screen size,Average lifespan,NA,NA
NA,NA,NA,NA,NA,choice_trial_setup,html-keyboard-response,28,130830,0.0-4.0-0.12,173,1,2025-05-05T01:48:01Z,b60275e29fe2361ab97ac0ac217840d7,"Mozilla/5.0 (Macintosh; Intel Mac OS X 10_15_7) AppleWebKit/537.36 (KHTML, like Gecko) Chrome/133.0.0.0 Safari/537.36",Macintosh,Chrome,133.0.0.0,OS X,10_15_7,https://5puzkbbxv1.cognition.run/?sona_id=52265,"en-US,en;q=0.9",jy901huw8jtep4u,20,"[""White""]",No,Female,N/A,I'm not sure,486267.40000009537,NA,null,<p></p>,null,choice,tc,binary,repulsion,2,microwave ovens,null,null,null,null,null,null,2,NA,NA,NA,NA,NA,NA,NA,NA,NA,NA
NA,NA,NA,NA,NA,choice_trial,survey-html-form,29,136210,0.0-4.0-1.12,173,1,2025-05-05T01:48:01Z,b60275e29fe2361ab97ac0ac217840d7,"Mozilla/5.0 (Macintosh; Intel Mac OS X 10_15_7) AppleWebKit/537.36 (KHTML, like Gecko) Chrome/133.0.0.0 Safari/537.36",Macintosh,Chrome,133.0.0.0,OS X,10_15_7,https://5puzkbbxv1.cognition.run/?sona_id=52265,"en-US,en;q=0.9",jy901huw8jtep4u,20,"[""White""]",No,Female,N/A,I'm not sure,486267.40000009537,NA,5376,NA,"{""product_choice"":""B""}",choice,tc,binary,repulsion,2,microwave ovens,null,null,null,null,null,null,2,30,40,null,100,90,null,Warranty,Cooking power,NA,NA
NA,NA,NA,NA,NA,choice_trial_setup,html-keyboard-response,30,136513,0.0-4.0-0.13,173,1,2025-05-05T01:48:01Z,b60275e29fe2361ab97ac0ac217840d7,"Mozilla/5.0 (Macintosh; Intel Mac OS X 10_15_7) AppleWebKit/537.36 (KHTML, like Gecko) Chrome/133.0.0.0 Safari/537.36",Macintosh,Chrome,133.0.0.0,OS X,10_15_7,https://5puzkbbxv1.cognition.run/?sona_id=52265,"en-US,en;q=0.9",jy901huw8jtep4u,20,"[""White""]",No,Female,N/A,I'm not sure,486267.40000009537,NA,null,<p></p>,null,choice,dct,trinary,attraction,2,microwave ovens,null,null,null,null,null,null,2,NA,NA,NA,NA,NA,NA,NA,NA,NA,NA
NA,NA,NA,NA,NA,choice_trial,survey-html-form,31,141943,0.0-4.0-1.13,173,1,2025-05-05T01:48:01Z,b60275e29fe2361ab97ac0ac217840d7,"Mozilla/5.0 (Macintosh; Intel Mac OS X 10_15_7) AppleWebKit/537.36 (KHTML, like Gecko) Chrome/133.0.0.0 Safari/537.36",Macintosh,Chrome,133.0.0.0,OS X,10_15_7,https://5puzkbbxv1.cognition.run/?sona_id=52265,"en-US,en;q=0.9",jy901huw8jtep4u,20,"[""White""]",No,Female,N/A,I'm not sure,486267.40000009537,NA,5426,NA,"{""product_choice"":""C""}",choice,dct,trinary,attraction,2,microwave ovens,null,null,null,null,null,null,2,50,60,40,60,50,60,Warranty,Cooking power,NA,NA
NA,NA,NA,NA,NA,choice_trial_setup,html-keyboard-response,32,142246,0.0-4.0-0.14,173,1,2025-05-05T01:48:01Z,b60275e29fe2361ab97ac0ac217840d7,"Mozilla/5.0 (Macintosh; Intel Mac OS X 10_15_7) AppleWebKit/537.36 (KHTML, like Gecko) Chrome/133.0.0.0 Safari/537.36",Macintosh,Chrome,133.0.0.0,OS X,10_15_7,https://5puzkbbxv1.cognition.run/?sona_id=52265,"en-US,en;q=0.9",jy901huw8jtep4u,20,"[""White""]",No,Female,N/A,I'm not sure,486267.40000009537,NA,null,<p></p>,null,choice,tc,binary,attraction,NA,televisions,null,null,null,null,null,null,2,NA,NA,NA,NA,NA,NA,NA,NA,NA,NA
NA,NA,NA,NA,NA,choice_trial,survey-html-form,33,148843,0.0-4.0-1.14,173,1,2025-05-05T01:48:01Z,b60275e29fe2361ab97ac0ac217840d7,"Mozilla/5.0 (Macintosh; Intel Mac OS X 10_15_7) AppleWebKit/537.36 (KHTML, like Gecko) Chrome/133.0.0.0 Safari/537.36",Macintosh,Chrome,133.0.0.0,OS X,10_15_7,https://5puzkbbxv1.cognition.run/?sona_id=52265,"en-US,en;q=0.9",jy901huw8jtep4u,20,"[""White""]",No,Female,N/A,I'm not sure,486267.40000009537,NA,6593,NA,"{""product_choice"":""B""}",choice,tc,binary,attraction,NA,televisions,null,null,null,null,null,null,2,60,50,null,50,60,null,Screen size,Average lifespan,NA,NA
NA,NA,NA,NA,NA,choice_trial_setup,html-keyboard-response,34,149146,0.0-4.0-0.15,173,1,2025-05-05T01:48:01Z,b60275e29fe2361ab97ac0ac217840d7,"Mozilla/5.0 (Macintosh; Intel Mac OS X 10_15_7) AppleWebKit/537.36 (KHTML, like Gecko) Chrome/133.0.0.0 Safari/537.36",Macintosh,Chrome,133.0.0.0,OS X,10_15_7,https://5puzkbbxv1.cognition.run/?sona_id=52265,"en-US,en;q=0.9",jy901huw8jtep4u,20,"[""White""]",No,Female,N/A,I'm not sure,486267.40000009537,NA,null,<p></p>,null,choice,tc,binary,repulsion,2,laptops,null,null,null,null,null,null,2,NA,NA,NA,NA,NA,NA,NA,NA,NA,NA
NA,NA,NA,NA,NA,choice_trial,survey-html-form,35,154077,0.0-4.0-1.15,173,1,2025-05-05T01:48:01Z,b60275e29fe2361ab97ac0ac217840d7,"Mozilla/5.0 (Macintosh; Intel Mac OS X 10_15_7) AppleWebKit/537.36 (KHTML, like Gecko) Chrome/133.0.0.0 Safari/537.36",Macintosh,Chrome,133.0.0.0,OS X,10_15_7,https://5puzkbbxv1.cognition.run/?sona_id=52265,"en-US,en;q=0.9",jy901huw8jtep4u,20,"[""White""]",No,Female,N/A,I'm not sure,486267.40000009537,NA,4927,NA,"{""product_choice"":""A""}",choice,tc,binary,repulsion,2,laptops,null,null,null,null,null,null,2,30,40,null,100,90,null,Processing speed,Memory (RAM),NA,NA
NA,NA,NA,NA,NA,choice_trial_setup,html-keyboard-response,36,154380,0.0-4.0-0.16,173,1,2025-05-05T01:48:01Z,b60275e29fe2361ab97ac0ac217840d7,"Mozilla/5.0 (Macintosh; Intel Mac OS X 10_15_7) AppleWebKit/537.36 (KHTML, like Gecko) Chrome/133.0.0.0 Safari/537.36",Macintosh,Chrome,133.0.0.0,OS X,10_15_7,https://5puzkbbxv1.cognition.run/?sona_id=52265,"en-US,en;q=0.9",jy901huw8jtep4u,20,"[""White""]",No,Female,N/A,I'm not sure,486267.40000009537,NA,null,<p></p>,null,choice,ct,binary,repulsion,2,washing machines,null,null,null,null,null,null,2,NA,NA,NA,NA,NA,NA,NA,NA,NA,NA
NA,NA,NA,NA,NA,choice_trial,survey-html-form,37,162728,0.0-4.0-1.16,173,1,2025-05-05T01:48:01Z,b60275e29fe2361ab97ac0ac217840d7,"Mozilla/5.0 (Macintosh; Intel Mac OS X 10_15_7) AppleWebKit/537.36 (KHTML, like Gecko) Chrome/133.0.0.0 Safari/537.36",Macintosh,Chrome,133.0.0.0,OS X,10_15_7,https://5puzkbbxv1.cognition.run/?sona_id=52265,"en-US,en;q=0.9",jy901huw8jtep4u,20,"[""White""]",No,Female,N/A,I'm not sure,486267.40000009537,NA,8344,NA,"{""product_choice"":""A""}",choice,ct,binary,repulsion,2,washing machines,null,null,null,null,null,null,2,30,40,null,100,90,null,Average lifespan,Energy savings,NA,NA
NA,NA,NA,NA,NA,choice_trial_setup,html-keyboard-response,38,163029,0.0-4.0-0.17,173,1,2025-05-05T01:48:01Z,b60275e29fe2361ab97ac0ac217840d7,"Mozilla/5.0 (Macintosh; Intel Mac OS X 10_15_7) AppleWebKit/537.36 (KHTML, like Gecko) Chrome/133.0.0.0 Safari/537.36",Macintosh,Chrome,133.0.0.0,OS X,10_15_7,https://5puzkbbxv1.cognition.run/?sona_id=52265,"en-US,en;q=0.9",jy901huw8jtep4u,20,"[""White""]",No,Female,N/A,I'm not sure,486267.40000009537,NA,null,<p></p>,null,choice,tdc,trinary,repulsion_B,1,microwave ovens,null,null,null,null,null,null,2,NA,NA,NA,NA,NA,NA,NA,NA,NA,NA
NA,NA,NA,NA,NA,choice_trial,survey-html-form,39,175993,0.0-4.0-1.17,173,1,2025-05-05T01:48:01Z,b60275e29fe2361ab97ac0ac217840d7,"Mozilla/5.0 (Macintosh; Intel Mac OS X 10_15_7) AppleWebKit/537.36 (KHTML, like Gecko) Chrome/133.0.0.0 Safari/537.36",Macintosh,Chrome,133.0.0.0,OS X,10_15_7,https://5puzkbbxv1.cognition.run/?sona_id=52265,"en-US,en;q=0.9",jy901huw8jtep4u,20,"[""White""]",No,Female,N/A,I'm not sure,486267.40000009537,NA,12958,NA,"{""product_choice"":""A""}",choice,tdc,trinary,repulsion_B,1,microwave ovens,null,null,null,null,null,null,2,90,100,80,40,30,40,Warranty,Cooking power,NA,NA
NA,NA,NA,NA,NA,choice_trial_setup,html-keyboard-response,40,176297,0.0-4.0-0.18,173,1,2025-05-05T01:48:01Z,b60275e29fe2361ab97ac0ac217840d7,"Mozilla/5.0 (Macintosh; Intel Mac OS X 10_15_7) AppleWebKit/537.36 (KHTML, like Gecko) Chrome/133.0.0.0 Safari/537.36",Macintosh,Chrome,133.0.0.0,OS X,10_15_7,https://5puzkbbxv1.cognition.run/?sona_id=52265,"en-US,en;q=0.9",jy901huw8jtep4u,20,"[""White""]",No,Female,N/A,I'm not sure,486267.40000009537,NA,null,<p></p>,null,choice,wb,binary,catch,null,televisions,60,65,30,50,null,null,1,NA,NA,NA,NA,NA,NA,NA,NA,NA,NA
NA,NA,NA,NA,NA,choice_trial,survey-html-form,41,183126,0.0-4.0-1.18,173,1,2025-05-05T01:48:01Z,b60275e29fe2361ab97ac0ac217840d7,"Mozilla/5.0 (Macintosh; Intel Mac OS X 10_15_7) AppleWebKit/537.36 (KHTML, like Gecko) Chrome/133.0.0.0 Safari/537.36",Macintosh,Chrome,133.0.0.0,OS X,10_15_7,https://5puzkbbxv1.cognition.run/?sona_id=52265,"en-US,en;q=0.9",jy901huw8jtep4u,20,"[""White""]",No,Female,N/A,I'm not sure,486267.40000009537,NA,6824,NA,"{""product_choice"":""B""}",choice,wb,binary,catch,null,televisions,60,65,30,50,null,null,1,null,null,null,null,null,null,Screen size,Average lifespan,NA,NA
NA,NA,NA,NA,NA,choice_trial_setup,html-keyboard-response,42,183430,0.0-4.0-0.19,173,1,2025-05-05T01:48:01Z,b60275e29fe2361ab97ac0ac217840d7,"Mozilla/5.0 (Macintosh; Intel Mac OS X 10_15_7) AppleWebKit/537.36 (KHTML, like Gecko) Chrome/133.0.0.0 Safari/537.36",Macintosh,Chrome,133.0.0.0,OS X,10_15_7,https://5puzkbbxv1.cognition.run/?sona_id=52265,"en-US,en;q=0.9",jy901huw8jtep4u,20,"[""White""]",No,Female,N/A,I'm not sure,486267.40000009537,NA,null,<p></p>,null,choice,dct,trinary,attraction,2,laptops,null,null,null,null,null,null,1,NA,NA,NA,NA,NA,NA,NA,NA,NA,NA
NA,NA,NA,NA,NA,choice_trial,survey-html-form,43,188276,0.0-4.0-1.19,173,1,2025-05-05T01:48:01Z,b60275e29fe2361ab97ac0ac217840d7,"Mozilla/5.0 (Macintosh; Intel Mac OS X 10_15_7) AppleWebKit/537.36 (KHTML, like Gecko) Chrome/133.0.0.0 Safari/537.36",Macintosh,Chrome,133.0.0.0,OS X,10_15_7,https://5puzkbbxv1.cognition.run/?sona_id=52265,"en-US,en;q=0.9",jy901huw8jtep4u,20,"[""White""]",No,Female,N/A,I'm not sure,486267.40000009537,NA,4842,NA,"{""product_choice"":""B""}",choice,dct,trinary,attraction,2,laptops,null,null,null,null,null,null,1,50,60,40,60,50,60,Processing speed,Memory (RAM),NA,NA
NA,NA,NA,NA,NA,choice_trial_setup,html-keyboard-response,44,188579,0.0-4.0-0.20,173,1,2025-05-05T01:48:01Z,b60275e29fe2361ab97ac0ac217840d7,"Mozilla/5.0 (Macintosh; Intel Mac OS X 10_15_7) AppleWebKit/537.36 (KHTML, like Gecko) Chrome/133.0.0.0 Safari/537.36",Macintosh,Chrome,133.0.0.0,OS X,10_15_7,https://5puzkbbxv1.cognition.run/?sona_id=52265,"en-US,en;q=0.9",jy901huw8jtep4u,20,"[""White""]",No,Female,N/A,I'm not sure,486267.40000009537,NA,null,<p></p>,null,choice,bw,binary,catch,null,washing machines,70,70,10,35,null,null,1,NA,NA,NA,NA,NA,NA,NA,NA,NA,NA
NA,NA,NA,NA,NA,choice_trial,survey-html-form,45,192843,0.0-4.0-1.20,173,1,2025-05-05T01:48:01Z,b60275e29fe2361ab97ac0ac217840d7,"Mozilla/5.0 (Macintosh; Intel Mac OS X 10_15_7) AppleWebKit/537.36 (KHTML, like Gecko) Chrome/133.0.0.0 Safari/537.36",Macintosh,Chrome,133.0.0.0,OS X,10_15_7,https://5puzkbbxv1.cognition.run/?sona_id=52265,"en-US,en;q=0.9",jy901huw8jtep4u,20,"[""White""]",No,Female,N/A,I'm not sure,486267.40000009537,NA,4260,NA,"{""product_choice"":""A""}",choice,bw,binary,catch,null,washing machines,70,70,10,35,null,null,1,null,null,null,null,null,null,Average lifespan,Energy savings,NA,NA
NA,NA,NA,NA,NA,choice_trial_setup,html-keyboard-response,46,193146,0.0-4.0-0.21,173,1,2025-05-05T01:48:01Z,b60275e29fe2361ab97ac0ac217840d7,"Mozilla/5.0 (Macintosh; Intel Mac OS X 10_15_7) AppleWebKit/537.36 (KHTML, like Gecko) Chrome/133.0.0.0 Safari/537.36",Macintosh,Chrome,133.0.0.0,OS X,10_15_7,https://5puzkbbxv1.cognition.run/?sona_id=52265,"en-US,en;q=0.9",jy901huw8jtep4u,20,"[""White""]",No,Female,N/A,I'm not sure,486267.40000009537,NA,null,<p></p>,null,choice,ctd,trinary,attraction,1,microwave ovens,null,null,null,null,null,null,2,NA,NA,NA,NA,NA,NA,NA,NA,NA,NA
NA,NA,NA,NA,NA,choice_trial,survey-html-form,47,202794,0.0-4.0-1.21,173,1,2025-05-05T01:48:01Z,b60275e29fe2361ab97ac0ac217840d7,"Mozilla/5.0 (Macintosh; Intel Mac OS X 10_15_7) AppleWebKit/537.36 (KHTML, like Gecko) Chrome/133.0.0.0 Safari/537.36",Macintosh,Chrome,133.0.0.0,OS X,10_15_7,https://5puzkbbxv1.cognition.run/?sona_id=52265,"en-US,en;q=0.9",jy901huw8jtep4u,20,"[""White""]",No,Female,N/A,I'm not sure,486267.40000009537,NA,9643,NA,"{""product_choice"":""A""}",choice,ctd,trinary,attraction,1,microwave ovens,null,null,null,null,null,null,2,60,50,60,50,60,40,Warranty,Cooking power,NA,NA
NA,NA,NA,NA,NA,choice_trial_setup,html-keyboard-response,48,203097,0.0-4.0-0.22,173,1,2025-05-05T01:48:01Z,b60275e29fe2361ab97ac0ac217840d7,"Mozilla/5.0 (Macintosh; Intel Mac OS X 10_15_7) AppleWebKit/537.36 (KHTML, like Gecko) Chrome/133.0.0.0 Safari/537.36",Macintosh,Chrome,133.0.0.0,OS X,10_15_7,https://5puzkbbxv1.cognition.run/?sona_id=52265,"en-US,en;q=0.9",jy901huw8jtep4u,20,"[""White""]",No,Female,N/A,I'm not sure,486267.40000009537,NA,null,<p></p>,null,choice,cdt,trinary,repulsion_A,1,televisions,null,null,null,null,null,null,2,NA,NA,NA,NA,NA,NA,NA,NA,NA,NA
NA,NA,NA,NA,NA,choice_trial,survey-html-form,49,207843,0.0-4.0-1.22,173,1,2025-05-05T01:48:01Z,b60275e29fe2361ab97ac0ac217840d7,"Mozilla/5.0 (Macintosh; Intel Mac OS X 10_15_7) AppleWebKit/537.36 (KHTML, like Gecko) Chrome/133.0.0.0 Safari/537.36",Macintosh,Chrome,133.0.0.0,OS X,10_15_7,https://5puzkbbxv1.cognition.run/?sona_id=52265,"en-US,en;q=0.9",jy901huw8jtep4u,20,"[""White""]",No,Female,N/A,I'm not sure,486267.40000009537,NA,4741,NA,"{""product_choice"":""A""}",choice,cdt,trinary,repulsion_A,1,televisions,null,null,null,null,null,null,2,100,90,100,30,40,20,Screen size,Average lifespan,NA,NA
NA,NA,NA,NA,NA,choice_trial_setup,html-keyboard-response,50,208148,0.0-4.0-0.23,173,1,2025-05-05T01:48:01Z,b60275e29fe2361ab97ac0ac217840d7,"Mozilla/5.0 (Macintosh; Intel Mac OS X 10_15_7) AppleWebKit/537.36 (KHTML, like Gecko) Chrome/133.0.0.0 Safari/537.36",Macintosh,Chrome,133.0.0.0,OS X,10_15_7,https://5puzkbbxv1.cognition.run/?sona_id=52265,"en-US,en;q=0.9",jy901huw8jtep4u,20,"[""White""]",No,Female,N/A,I'm not sure,486267.40000009537,NA,null,<p></p>,null,choice,dct,trinary,repulsion_A,2,laptops,null,null,null,null,null,null,1,NA,NA,NA,NA,NA,NA,NA,NA,NA,NA
NA,NA,NA,NA,NA,choice_trial,survey-html-form,51,216893,0.0-4.0-1.23,173,1,2025-05-05T01:48:01Z,b60275e29fe2361ab97ac0ac217840d7,"Mozilla/5.0 (Macintosh; Intel Mac OS X 10_15_7) AppleWebKit/537.36 (KHTML, like Gecko) Chrome/133.0.0.0 Safari/537.36",Macintosh,Chrome,133.0.0.0,OS X,10_15_7,https://5puzkbbxv1.cognition.run/?sona_id=52265,"en-US,en;q=0.9",jy901huw8jtep4u,20,"[""White""]",No,Female,N/A,I'm not sure,486267.40000009537,NA,8740,NA,"{""product_choice"":""B""}",choice,dct,trinary,repulsion_A,2,laptops,null,null,null,null,null,null,1,30,40,20,100,90,100,Processing speed,Memory (RAM),NA,NA
NA,NA,NA,NA,NA,choice_trial_setup,html-keyboard-response,52,217196,0.0-4.0-0.24,173,1,2025-05-05T01:48:01Z,b60275e29fe2361ab97ac0ac217840d7,"Mozilla/5.0 (Macintosh; Intel Mac OS X 10_15_7) AppleWebKit/537.36 (KHTML, like Gecko) Chrome/133.0.0.0 Safari/537.36",Macintosh,Chrome,133.0.0.0,OS X,10_15_7,https://5puzkbbxv1.cognition.run/?sona_id=52265,"en-US,en;q=0.9",jy901huw8jtep4u,20,"[""White""]",No,Female,N/A,I'm not sure,486267.40000009537,NA,null,<p></p>,null,choice,tdc,trinary,repulsion_B,1,laptops,null,null,null,null,null,null,2,NA,NA,NA,NA,NA,NA,NA,NA,NA,NA
NA,NA,NA,NA,NA,choice_trial,survey-html-form,53,222961,0.0-4.0-1.24,173,1,2025-05-05T01:48:01Z,b60275e29fe2361ab97ac0ac217840d7,"Mozilla/5.0 (Macintosh; Intel Mac OS X 10_15_7) AppleWebKit/537.36 (KHTML, like Gecko) Chrome/133.0.0.0 Safari/537.36",Macintosh,Chrome,133.0.0.0,OS X,10_15_7,https://5puzkbbxv1.cognition.run/?sona_id=52265,"en-US,en;q=0.9",jy901huw8jtep4u,20,"[""White""]",No,Female,N/A,I'm not sure,486267.40000009537,NA,5759,NA,"{""product_choice"":""A""}",choice,tdc,trinary,repulsion_B,1,laptops,null,null,null,null,null,null,2,90,100,80,40,30,40,Processing speed,Memory (RAM),NA,NA
NA,NA,NA,NA,NA,choice_trial_setup,html-keyboard-response,54,223264,0.0-4.0-0.25,173,1,2025-05-05T01:48:01Z,b60275e29fe2361ab97ac0ac217840d7,"Mozilla/5.0 (Macintosh; Intel Mac OS X 10_15_7) AppleWebKit/537.36 (KHTML, like Gecko) Chrome/133.0.0.0 Safari/537.36",Macintosh,Chrome,133.0.0.0,OS X,10_15_7,https://5puzkbbxv1.cognition.run/?sona_id=52265,"en-US,en;q=0.9",jy901huw8jtep4u,20,"[""White""]",No,Female,N/A,I'm not sure,486267.40000009537,NA,null,<p></p>,null,choice,ctd,trinary,attraction,2,televisions,null,null,null,null,null,null,2,NA,NA,NA,NA,NA,NA,NA,NA,NA,NA
NA,NA,NA,NA,NA,choice_trial,survey-html-form,55,232046,0.0-4.0-1.25,173,1,2025-05-05T01:48:01Z,b60275e29fe2361ab97ac0ac217840d7,"Mozilla/5.0 (Macintosh; Intel Mac OS X 10_15_7) AppleWebKit/537.36 (KHTML, like Gecko) Chrome/133.0.0.0 Safari/537.36",Macintosh,Chrome,133.0.0.0,OS X,10_15_7,https://5puzkbbxv1.cognition.run/?sona_id=52265,"en-US,en;q=0.9",jy901huw8jtep4u,20,"[""White""]",No,Female,N/A,I'm not sure,486267.40000009537,NA,8777,NA,"{""product_choice"":""B""}",choice,ctd,trinary,attraction,2,televisions,null,null,null,null,null,null,2,50,60,40,60,50,60,Screen size,Average lifespan,NA,NA
NA,NA,NA,NA,NA,choice_trial_setup,html-keyboard-response,56,232350,0.0-4.0-0.26,173,1,2025-05-05T01:48:01Z,b60275e29fe2361ab97ac0ac217840d7,"Mozilla/5.0 (Macintosh; Intel Mac OS X 10_15_7) AppleWebKit/537.36 (KHTML, like Gecko) Chrome/133.0.0.0 Safari/537.36",Macintosh,Chrome,133.0.0.0,OS X,10_15_7,https://5puzkbbxv1.cognition.run/?sona_id=52265,"en-US,en;q=0.9",jy901huw8jtep4u,20,"[""White""]",No,Female,N/A,I'm not sure,486267.40000009537,NA,null,<p></p>,null,choice,dct,trinary,repulsion_A,2,washing machines,null,null,null,null,null,null,1,NA,NA,NA,NA,NA,NA,NA,NA,NA,NA
NA,NA,NA,NA,NA,choice_trial,survey-html-form,57,236593,0.0-4.0-1.26,173,1,2025-05-05T01:48:01Z,b60275e29fe2361ab97ac0ac217840d7,"Mozilla/5.0 (Macintosh; Intel Mac OS X 10_15_7) AppleWebKit/537.36 (KHTML, like Gecko) Chrome/133.0.0.0 Safari/537.36",Macintosh,Chrome,133.0.0.0,OS X,10_15_7,https://5puzkbbxv1.cognition.run/?sona_id=52265,"en-US,en;q=0.9",jy901huw8jtep4u,20,"[""White""]",No,Female,N/A,I'm not sure,486267.40000009537,NA,4238,NA,"{""product_choice"":""B""}",choice,dct,trinary,repulsion_A,2,washing machines,null,null,null,null,null,null,1,30,40,20,100,90,100,Average lifespan,Energy savings,NA,NA
NA,NA,NA,NA,NA,choice_trial_setup,html-keyboard-response,58,236896,0.0-4.0-0.27,173,1,2025-05-05T01:48:01Z,b60275e29fe2361ab97ac0ac217840d7,"Mozilla/5.0 (Macintosh; Intel Mac OS X 10_15_7) AppleWebKit/537.36 (KHTML, like Gecko) Chrome/133.0.0.0 Safari/537.36",Macintosh,Chrome,133.0.0.0,OS X,10_15_7,https://5puzkbbxv1.cognition.run/?sona_id=52265,"en-US,en;q=0.9",jy901huw8jtep4u,20,"[""White""]",No,Female,N/A,I'm not sure,486267.40000009537,NA,null,<p></p>,null,choice,cdt,trinary,repulsion_A,2,televisions,null,null,null,null,null,null,2,NA,NA,NA,NA,NA,NA,NA,NA,NA,NA
NA,NA,NA,NA,NA,choice_trial,survey-html-form,59,242393,0.0-4.0-1.27,173,1,2025-05-05T01:48:01Z,b60275e29fe2361ab97ac0ac217840d7,"Mozilla/5.0 (Macintosh; Intel Mac OS X 10_15_7) AppleWebKit/537.36 (KHTML, like Gecko) Chrome/133.0.0.0 Safari/537.36",Macintosh,Chrome,133.0.0.0,OS X,10_15_7,https://5puzkbbxv1.cognition.run/?sona_id=52265,"en-US,en;q=0.9",jy901huw8jtep4u,20,"[""White""]",No,Female,N/A,I'm not sure,486267.40000009537,NA,5491,NA,"{""product_choice"":""C""}",choice,cdt,trinary,repulsion_A,2,televisions,null,null,null,null,null,null,2,30,40,20,100,90,100,Screen size,Average lifespan,NA,NA
NA,NA,NA,NA,NA,choice_trial_setup,html-keyboard-response,60,242696,0.0-4.0-0.28,173,1,2025-05-05T01:48:01Z,b60275e29fe2361ab97ac0ac217840d7,"Mozilla/5.0 (Macintosh; Intel Mac OS X 10_15_7) AppleWebKit/537.36 (KHTML, like Gecko) Chrome/133.0.0.0 Safari/537.36",Macintosh,Chrome,133.0.0.0,OS X,10_15_7,https://5puzkbbxv1.cognition.run/?sona_id=52265,"en-US,en;q=0.9",jy901huw8jtep4u,20,"[""White""]",No,Female,N/A,I'm not sure,486267.40000009537,NA,null,<p></p>,null,choice,tdc,trinary,attraction,1,laptops,null,null,null,null,null,null,1,NA,NA,NA,NA,NA,NA,NA,NA,NA,NA
NA,NA,NA,NA,NA,choice_trial,survey-html-form,61,248411,0.0-4.0-1.28,173,1,2025-05-05T01:48:01Z,b60275e29fe2361ab97ac0ac217840d7,"Mozilla/5.0 (Macintosh; Intel Mac OS X 10_15_7) AppleWebKit/537.36 (KHTML, like Gecko) Chrome/133.0.0.0 Safari/537.36",Macintosh,Chrome,133.0.0.0,OS X,10_15_7,https://5puzkbbxv1.cognition.run/?sona_id=52265,"en-US,en;q=0.9",jy901huw8jtep4u,20,"[""White""]",No,Female,N/A,I'm not sure,486267.40000009537,NA,5709,NA,"{""product_choice"":""A""}",choice,tdc,trinary,attraction,1,laptops,null,null,null,null,null,null,1,60,50,60,50,60,40,Processing speed,Memory (RAM),NA,NA
NA,NA,NA,NA,NA,choice_trial_setup,html-keyboard-response,62,248714,0.0-4.0-0.29,173,1,2025-05-05T01:48:01Z,b60275e29fe2361ab97ac0ac217840d7,"Mozilla/5.0 (Macintosh; Intel Mac OS X 10_15_7) AppleWebKit/537.36 (KHTML, like Gecko) Chrome/133.0.0.0 Safari/537.36",Macintosh,Chrome,133.0.0.0,OS X,10_15_7,https://5puzkbbxv1.cognition.run/?sona_id=52265,"en-US,en;q=0.9",jy901huw8jtep4u,20,"[""White""]",No,Female,N/A,I'm not sure,486267.40000009537,NA,null,<p></p>,null,choice,ct,binary,attraction,NA,washing machines,null,null,null,null,null,null,2,NA,NA,NA,NA,NA,NA,NA,NA,NA,NA
NA,NA,NA,NA,NA,choice_trial,survey-html-form,63,254060,0.0-4.0-1.29,173,1,2025-05-05T01:48:01Z,b60275e29fe2361ab97ac0ac217840d7,"Mozilla/5.0 (Macintosh; Intel Mac OS X 10_15_7) AppleWebKit/537.36 (KHTML, like Gecko) Chrome/133.0.0.0 Safari/537.36",Macintosh,Chrome,133.0.0.0,OS X,10_15_7,https://5puzkbbxv1.cognition.run/?sona_id=52265,"en-US,en;q=0.9",jy901huw8jtep4u,20,"[""White""]",No,Female,N/A,I'm not sure,486267.40000009537,NA,5340,NA,"{""product_choice"":""B""}",choice,ct,binary,attraction,NA,washing machines,null,null,null,null,null,null,2,60,50,null,50,60,null,Average lifespan,Energy savings,NA,NA
NA,NA,NA,NA,NA,choice_trial_setup,html-keyboard-response,64,254363,0.0-4.0-0.30,173,1,2025-05-05T01:48:01Z,b60275e29fe2361ab97ac0ac217840d7,"Mozilla/5.0 (Macintosh; Intel Mac OS X 10_15_7) AppleWebKit/537.36 (KHTML, like Gecko) Chrome/133.0.0.0 Safari/537.36",Macintosh,Chrome,133.0.0.0,OS X,10_15_7,https://5puzkbbxv1.cognition.run/?sona_id=52265,"en-US,en;q=0.9",jy901huw8jtep4u,20,"[""White""]",No,Female,N/A,I'm not sure,486267.40000009537,NA,null,<p></p>,null,choice,dtc,trinary,repulsion_A,2,microwave ovens,null,null,null,null,null,null,1,NA,NA,NA,NA,NA,NA,NA,NA,NA,NA
NA,NA,NA,NA,NA,choice_trial,survey-html-form,65,268410,0.0-4.0-1.30,173,1,2025-05-05T01:48:01Z,b60275e29fe2361ab97ac0ac217840d7,"Mozilla/5.0 (Macintosh; Intel Mac OS X 10_15_7) AppleWebKit/537.36 (KHTML, like Gecko) Chrome/133.0.0.0 Safari/537.36",Macintosh,Chrome,133.0.0.0,OS X,10_15_7,https://5puzkbbxv1.cognition.run/?sona_id=52265,"en-US,en;q=0.9",jy901huw8jtep4u,20,"[""White""]",No,Female,N/A,I'm not sure,486267.40000009537,NA,14041,NA,"{""product_choice"":""C""}",choice,dtc,trinary,repulsion_A,2,microwave ovens,null,null,null,null,null,null,1,30,40,20,100,90,100,Warranty,Cooking power,NA,NA
NA,NA,NA,NA,NA,choice_trial_setup,html-keyboard-response,66,268713,0.0-4.0-0.31,173,1,2025-05-05T01:48:01Z,b60275e29fe2361ab97ac0ac217840d7,"Mozilla/5.0 (Macintosh; Intel Mac OS X 10_15_7) AppleWebKit/537.36 (KHTML, like Gecko) Chrome/133.0.0.0 Safari/537.36",Macintosh,Chrome,133.0.0.0,OS X,10_15_7,https://5puzkbbxv1.cognition.run/?sona_id=52265,"en-US,en;q=0.9",jy901huw8jtep4u,20,"[""White""]",No,Female,N/A,I'm not sure,486267.40000009537,NA,null,<p></p>,null,choice,dct,trinary,attraction,2,washing machines,null,null,null,null,null,null,2,NA,NA,NA,NA,NA,NA,NA,NA,NA,NA
NA,NA,NA,NA,NA,choice_trial,survey-html-form,67,277159,0.0-4.0-1.31,173,1,2025-05-05T01:48:01Z,b60275e29fe2361ab97ac0ac217840d7,"Mozilla/5.0 (Macintosh; Intel Mac OS X 10_15_7) AppleWebKit/537.36 (KHTML, like Gecko) Chrome/133.0.0.0 Safari/537.36",Macintosh,Chrome,133.0.0.0,OS X,10_15_7,https://5puzkbbxv1.cognition.run/?sona_id=52265,"en-US,en;q=0.9",jy901huw8jtep4u,20,"[""White""]",No,Female,N/A,I'm not sure,486267.40000009537,NA,8440,NA,"{""product_choice"":""B""}",choice,dct,trinary,attraction,2,washing machines,null,null,null,null,null,null,2,50,60,40,60,50,60,Average lifespan,Energy savings,NA,NA
NA,NA,NA,NA,NA,choice_trial_setup,html-keyboard-response,68,277463,0.0-4.0-0.32,173,1,2025-05-05T01:48:01Z,b60275e29fe2361ab97ac0ac217840d7,"Mozilla/5.0 (Macintosh; Intel Mac OS X 10_15_7) AppleWebKit/537.36 (KHTML, like Gecko) Chrome/133.0.0.0 Safari/537.36",Macintosh,Chrome,133.0.0.0,OS X,10_15_7,https://5puzkbbxv1.cognition.run/?sona_id=52265,"en-US,en;q=0.9",jy901huw8jtep4u,20,"[""White""]",No,Female,N/A,I'm not sure,486267.40000009537,NA,null,<p></p>,null,choice,dct,trinary,attraction,1,washing machines,null,null,null,null,null,null,2,NA,NA,NA,NA,NA,NA,NA,NA,NA,NA
NA,NA,NA,NA,NA,choice_trial,survey-html-form,69,284644,0.0-4.0-1.32,173,1,2025-05-05T01:48:01Z,b60275e29fe2361ab97ac0ac217840d7,"Mozilla/5.0 (Macintosh; Intel Mac OS X 10_15_7) AppleWebKit/537.36 (KHTML, like Gecko) Chrome/133.0.0.0 Safari/537.36",Macintosh,Chrome,133.0.0.0,OS X,10_15_7,https://5puzkbbxv1.cognition.run/?sona_id=52265,"en-US,en;q=0.9",jy901huw8jtep4u,20,"[""White""]",No,Female,N/A,I'm not sure,486267.40000009537,NA,7175,NA,"{""product_choice"":""B""}",choice,dct,trinary,attraction,1,washing machines,null,null,null,null,null,null,2,60,50,60,50,60,40,Average lifespan,Energy savings,NA,NA
NA,NA,NA,NA,NA,choice_trial_setup,html-keyboard-response,70,284948,0.0-4.0-0.33,173,1,2025-05-05T01:48:01Z,b60275e29fe2361ab97ac0ac217840d7,"Mozilla/5.0 (Macintosh; Intel Mac OS X 10_15_7) AppleWebKit/537.36 (KHTML, like Gecko) Chrome/133.0.0.0 Safari/537.36",Macintosh,Chrome,133.0.0.0,OS X,10_15_7,https://5puzkbbxv1.cognition.run/?sona_id=52265,"en-US,en;q=0.9",jy901huw8jtep4u,20,"[""White""]",No,Female,N/A,I'm not sure,486267.40000009537,NA,null,<p></p>,null,choice,dtc,trinary,repulsion_B,1,washing machines,null,null,null,null,null,null,2,NA,NA,NA,NA,NA,NA,NA,NA,NA,NA
NA,NA,NA,NA,NA,choice_trial,survey-html-form,71,292509,0.0-4.0-1.33,173,1,2025-05-05T01:48:01Z,b60275e29fe2361ab97ac0ac217840d7,"Mozilla/5.0 (Macintosh; Intel Mac OS X 10_15_7) AppleWebKit/537.36 (KHTML, like Gecko) Chrome/133.0.0.0 Safari/537.36",Macintosh,Chrome,133.0.0.0,OS X,10_15_7,https://5puzkbbxv1.cognition.run/?sona_id=52265,"en-US,en;q=0.9",jy901huw8jtep4u,20,"[""White""]",No,Female,N/A,I'm not sure,486267.40000009537,NA,7555,NA,"{""product_choice"":""B""}",choice,dtc,trinary,repulsion_B,1,washing machines,null,null,null,null,null,null,2,90,100,80,40,30,40,Average lifespan,Energy savings,NA,NA
NA,NA,NA,NA,NA,choice_trial_setup,html-keyboard-response,72,292812,0.0-4.0-0.34,173,1,2025-05-05T01:48:01Z,b60275e29fe2361ab97ac0ac217840d7,"Mozilla/5.0 (Macintosh; Intel Mac OS X 10_15_7) AppleWebKit/537.36 (KHTML, like Gecko) Chrome/133.0.0.0 Safari/537.36",Macintosh,Chrome,133.0.0.0,OS X,10_15_7,https://5puzkbbxv1.cognition.run/?sona_id=52265,"en-US,en;q=0.9",jy901huw8jtep4u,20,"[""White""]",No,Female,N/A,I'm not sure,486267.40000009537,NA,null,<p></p>,null,choice,bw,binary,catch,null,laptops,60,90,25,20,null,null,1,NA,NA,NA,NA,NA,NA,NA,NA,NA,NA
NA,NA,NA,NA,NA,choice_trial,survey-html-form,73,302259,0.0-4.0-1.34,173,1,2025-05-05T01:48:01Z,b60275e29fe2361ab97ac0ac217840d7,"Mozilla/5.0 (Macintosh; Intel Mac OS X 10_15_7) AppleWebKit/537.36 (KHTML, like Gecko) Chrome/133.0.0.0 Safari/537.36",Macintosh,Chrome,133.0.0.0,OS X,10_15_7,https://5puzkbbxv1.cognition.run/?sona_id=52265,"en-US,en;q=0.9",jy901huw8jtep4u,20,"[""White""]",No,Female,N/A,I'm not sure,486267.40000009537,NA,9440,NA,"{""product_choice"":""A""}",choice,bw,binary,catch,null,laptops,60,90,25,20,null,null,1,null,null,null,null,null,null,Processing speed,Memory (RAM),NA,NA
NA,NA,NA,NA,NA,choice_trial_setup,html-keyboard-response,74,302563,0.0-4.0-0.35,173,1,2025-05-05T01:48:01Z,b60275e29fe2361ab97ac0ac217840d7,"Mozilla/5.0 (Macintosh; Intel Mac OS X 10_15_7) AppleWebKit/537.36 (KHTML, like Gecko) Chrome/133.0.0.0 Safari/537.36",Macintosh,Chrome,133.0.0.0,OS X,10_15_7,https://5puzkbbxv1.cognition.run/?sona_id=52265,"en-US,en;q=0.9",jy901huw8jtep4u,20,"[""White""]",No,Female,N/A,I'm not sure,486267.40000009537,NA,null,<p></p>,null,choice,dct,trinary,repulsion_B,2,televisions,null,null,null,null,null,null,2,NA,NA,NA,NA,NA,NA,NA,NA,NA,NA
NA,NA,NA,NA,NA,choice_trial,survey-html-form,75,310827,0.0-4.0-1.35,173,1,2025-05-05T01:48:01Z,b60275e29fe2361ab97ac0ac217840d7,"Mozilla/5.0 (Macintosh; Intel Mac OS X 10_15_7) AppleWebKit/537.36 (KHTML, like Gecko) Chrome/133.0.0.0 Safari/537.36",Macintosh,Chrome,133.0.0.0,OS X,10_15_7,https://5puzkbbxv1.cognition.run/?sona_id=52265,"en-US,en;q=0.9",jy901huw8jtep4u,20,"[""White""]",No,Female,N/A,I'm not sure,486267.40000009537,NA,8258,NA,"{""product_choice"":""B""}",choice,dct,trinary,repulsion_B,2,televisions,null,null,null,null,null,null,2,40,30,40,90,100,80,Screen size,Average lifespan,NA,NA
NA,NA,NA,NA,NA,choice_trial_setup,html-keyboard-response,76,311131,0.0-4.0-0.36,173,1,2025-05-05T01:48:01Z,b60275e29fe2361ab97ac0ac217840d7,"Mozilla/5.0 (Macintosh; Intel Mac OS X 10_15_7) AppleWebKit/537.36 (KHTML, like Gecko) Chrome/133.0.0.0 Safari/537.36",Macintosh,Chrome,133.0.0.0,OS X,10_15_7,https://5puzkbbxv1.cognition.run/?sona_id=52265,"en-US,en;q=0.9",jy901huw8jtep4u,20,"[""White""]",No,Female,N/A,I'm not sure,486267.40000009537,NA,null,<p></p>,null,choice,dct,trinary,repulsion_B,2,laptops,null,null,null,null,null,null,1,NA,NA,NA,NA,NA,NA,NA,NA,NA,NA
NA,NA,NA,NA,NA,choice_trial,survey-html-form,77,323276,0.0-4.0-1.36,173,1,2025-05-05T01:48:01Z,b60275e29fe2361ab97ac0ac217840d7,"Mozilla/5.0 (Macintosh; Intel Mac OS X 10_15_7) AppleWebKit/537.36 (KHTML, like Gecko) Chrome/133.0.0.0 Safari/537.36",Macintosh,Chrome,133.0.0.0,OS X,10_15_7,https://5puzkbbxv1.cognition.run/?sona_id=52265,"en-US,en;q=0.9",jy901huw8jtep4u,20,"[""White""]",No,Female,N/A,I'm not sure,486267.40000009537,NA,12140,NA,"{""product_choice"":""C""}",choice,dct,trinary,repulsion_B,2,laptops,null,null,null,null,null,null,1,40,30,40,90,100,80,Processing speed,Memory (RAM),NA,NA
NA,NA,NA,NA,NA,choice_trial_setup,html-keyboard-response,78,323578,0.0-4.0-0.37,173,1,2025-05-05T01:48:01Z,b60275e29fe2361ab97ac0ac217840d7,"Mozilla/5.0 (Macintosh; Intel Mac OS X 10_15_7) AppleWebKit/537.36 (KHTML, like Gecko) Chrome/133.0.0.0 Safari/537.36",Macintosh,Chrome,133.0.0.0,OS X,10_15_7,https://5puzkbbxv1.cognition.run/?sona_id=52265,"en-US,en;q=0.9",jy901huw8jtep4u,20,"[""White""]",No,Female,N/A,I'm not sure,486267.40000009537,NA,null,<p></p>,null,choice,bww,trinary,catch,null,microwave ovens,60,85,50,40,5,25,1,NA,NA,NA,NA,NA,NA,NA,NA,NA,NA
NA,NA,NA,NA,NA,choice_trial,survey-html-form,79,328011,0.0-4.0-1.37,173,1,2025-05-05T01:48:01Z,b60275e29fe2361ab97ac0ac217840d7,"Mozilla/5.0 (Macintosh; Intel Mac OS X 10_15_7) AppleWebKit/537.36 (KHTML, like Gecko) Chrome/133.0.0.0 Safari/537.36",Macintosh,Chrome,133.0.0.0,OS X,10_15_7,https://5puzkbbxv1.cognition.run/?sona_id=52265,"en-US,en;q=0.9",jy901huw8jtep4u,20,"[""White""]",No,Female,N/A,I'm not sure,486267.40000009537,NA,4426,NA,"{""product_choice"":""A""}",choice,bww,trinary,catch,null,microwave ovens,60,85,50,40,5,25,1,null,null,null,null,null,null,Warranty,Cooking power,NA,NA
NA,NA,NA,NA,NA,choice_trial_setup,html-keyboard-response,80,328314,0.0-4.0-0.38,173,1,2025-05-05T01:48:01Z,b60275e29fe2361ab97ac0ac217840d7,"Mozilla/5.0 (Macintosh; Intel Mac OS X 10_15_7) AppleWebKit/537.36 (KHTML, like Gecko) Chrome/133.0.0.0 Safari/537.36",Macintosh,Chrome,133.0.0.0,OS X,10_15_7,https://5puzkbbxv1.cognition.run/?sona_id=52265,"en-US,en;q=0.9",jy901huw8jtep4u,20,"[""White""]",No,Female,N/A,I'm not sure,486267.40000009537,NA,null,<p></p>,null,choice,tc,binary,repulsion,1,microwave ovens,null,null,null,null,null,null,1,NA,NA,NA,NA,NA,NA,NA,NA,NA,NA
NA,NA,NA,NA,NA,choice_trial,survey-html-form,81,335442,0.0-4.0-1.38,173,1,2025-05-05T01:48:01Z,b60275e29fe2361ab97ac0ac217840d7,"Mozilla/5.0 (Macintosh; Intel Mac OS X 10_15_7) AppleWebKit/537.36 (KHTML, like Gecko) Chrome/133.0.0.0 Safari/537.36",Macintosh,Chrome,133.0.0.0,OS X,10_15_7,https://5puzkbbxv1.cognition.run/?sona_id=52265,"en-US,en;q=0.9",jy901huw8jtep4u,20,"[""White""]",No,Female,N/A,I'm not sure,486267.40000009537,NA,7121,NA,"{""product_choice"":""B""}",choice,tc,binary,repulsion,1,microwave ovens,null,null,null,null,null,null,1,100,90,null,30,40,null,Warranty,Cooking power,NA,NA
NA,NA,NA,NA,NA,choice_trial_setup,html-keyboard-response,82,335745,0.0-4.0-0.39,173,1,2025-05-05T01:48:01Z,b60275e29fe2361ab97ac0ac217840d7,"Mozilla/5.0 (Macintosh; Intel Mac OS X 10_15_7) AppleWebKit/537.36 (KHTML, like Gecko) Chrome/133.0.0.0 Safari/537.36",Macintosh,Chrome,133.0.0.0,OS X,10_15_7,https://5puzkbbxv1.cognition.run/?sona_id=52265,"en-US,en;q=0.9",jy901huw8jtep4u,20,"[""White""]",No,Female,N/A,I'm not sure,486267.40000009537,NA,null,<p></p>,null,choice,ct,binary,repulsion,1,laptops,null,null,null,null,null,null,1,NA,NA,NA,NA,NA,NA,NA,NA,NA,NA
NA,NA,NA,NA,NA,choice_trial,survey-html-form,83,341125,0.0-4.0-1.39,173,1,2025-05-05T01:48:01Z,b60275e29fe2361ab97ac0ac217840d7,"Mozilla/5.0 (Macintosh; Intel Mac OS X 10_15_7) AppleWebKit/537.36 (KHTML, like Gecko) Chrome/133.0.0.0 Safari/537.36",Macintosh,Chrome,133.0.0.0,OS X,10_15_7,https://5puzkbbxv1.cognition.run/?sona_id=52265,"en-US,en;q=0.9",jy901huw8jtep4u,20,"[""White""]",No,Female,N/A,I'm not sure,486267.40000009537,NA,5373,NA,"{""product_choice"":""B""}",choice,ct,binary,repulsion,1,laptops,null,null,null,null,null,null,1,100,90,null,30,40,null,Processing speed,Memory (RAM),NA,NA
NA,NA,NA,NA,NA,choice_trial_setup,html-keyboard-response,84,341428,0.0-4.0-0.40,173,1,2025-05-05T01:48:01Z,b60275e29fe2361ab97ac0ac217840d7,"Mozilla/5.0 (Macintosh; Intel Mac OS X 10_15_7) AppleWebKit/537.36 (KHTML, like Gecko) Chrome/133.0.0.0 Safari/537.36",Macintosh,Chrome,133.0.0.0,OS X,10_15_7,https://5puzkbbxv1.cognition.run/?sona_id=52265,"en-US,en;q=0.9",jy901huw8jtep4u,20,"[""White""]",No,Female,N/A,I'm not sure,486267.40000009537,NA,null,<p></p>,null,choice,tdc,trinary,repulsion_B,1,televisions,null,null,null,null,null,null,1,NA,NA,NA,NA,NA,NA,NA,NA,NA,NA
NA,NA,NA,NA,NA,choice_trial,survey-html-form,85,347342,0.0-4.0-1.40,173,1,2025-05-05T01:48:01Z,b60275e29fe2361ab97ac0ac217840d7,"Mozilla/5.0 (Macintosh; Intel Mac OS X 10_15_7) AppleWebKit/537.36 (KHTML, like Gecko) Chrome/133.0.0.0 Safari/537.36",Macintosh,Chrome,133.0.0.0,OS X,10_15_7,https://5puzkbbxv1.cognition.run/?sona_id=52265,"en-US,en;q=0.9",jy901huw8jtep4u,20,"[""White""]",No,Female,N/A,I'm not sure,486267.40000009537,NA,5908,NA,"{""product_choice"":""A""}",choice,tdc,trinary,repulsion_B,1,televisions,null,null,null,null,null,null,1,90,100,80,40,30,40,Screen size,Average lifespan,NA,NA
NA,NA,NA,NA,NA,choice_trial_setup,html-keyboard-response,86,347646,0.0-4.0-0.41,173,1,2025-05-05T01:48:01Z,b60275e29fe2361ab97ac0ac217840d7,"Mozilla/5.0 (Macintosh; Intel Mac OS X 10_15_7) AppleWebKit/537.36 (KHTML, like Gecko) Chrome/133.0.0.0 Safari/537.36",Macintosh,Chrome,133.0.0.0,OS X,10_15_7,https://5puzkbbxv1.cognition.run/?sona_id=52265,"en-US,en;q=0.9",jy901huw8jtep4u,20,"[""White""]",No,Female,N/A,I'm not sure,486267.40000009537,NA,null,<p></p>,null,choice,bww,trinary,catch,null,televisions,85,75,40,40,25,35,1,NA,NA,NA,NA,NA,NA,NA,NA,NA,NA
NA,NA,NA,NA,NA,choice_trial,survey-html-form,87,353595,0.0-4.0-1.41,173,1,2025-05-05T01:48:01Z,b60275e29fe2361ab97ac0ac217840d7,"Mozilla/5.0 (Macintosh; Intel Mac OS X 10_15_7) AppleWebKit/537.36 (KHTML, like Gecko) Chrome/133.0.0.0 Safari/537.36",Macintosh,Chrome,133.0.0.0,OS X,10_15_7,https://5puzkbbxv1.cognition.run/?sona_id=52265,"en-US,en;q=0.9",jy901huw8jtep4u,20,"[""White""]",No,Female,N/A,I'm not sure,486267.40000009537,NA,5942,NA,"{""product_choice"":""A""}",choice,bww,trinary,catch,null,televisions,85,75,40,40,25,35,1,null,null,null,null,null,null,Screen size,Average lifespan,NA,NA
NA,NA,NA,NA,NA,choice_trial_setup,html-keyboard-response,88,353899,0.0-4.0-0.42,173,1,2025-05-05T01:48:01Z,b60275e29fe2361ab97ac0ac217840d7,"Mozilla/5.0 (Macintosh; Intel Mac OS X 10_15_7) AppleWebKit/537.36 (KHTML, like Gecko) Chrome/133.0.0.0 Safari/537.36",Macintosh,Chrome,133.0.0.0,OS X,10_15_7,https://5puzkbbxv1.cognition.run/?sona_id=52265,"en-US,en;q=0.9",jy901huw8jtep4u,20,"[""White""]",No,Female,N/A,I'm not sure,486267.40000009537,NA,null,<p></p>,null,choice,wb,binary,catch,null,microwave ovens,85,90,25,15,null,null,1,NA,NA,NA,NA,NA,NA,NA,NA,NA,NA
NA,NA,NA,NA,NA,choice_trial,survey-html-form,89,364225,0.0-4.0-1.42,173,1,2025-05-05T01:48:01Z,b60275e29fe2361ab97ac0ac217840d7,"Mozilla/5.0 (Macintosh; Intel Mac OS X 10_15_7) AppleWebKit/537.36 (KHTML, like Gecko) Chrome/133.0.0.0 Safari/537.36",Macintosh,Chrome,133.0.0.0,OS X,10_15_7,https://5puzkbbxv1.cognition.run/?sona_id=52265,"en-US,en;q=0.9",jy901huw8jtep4u,20,"[""White""]",No,Female,N/A,I'm not sure,486267.40000009537,NA,10319,NA,"{""product_choice"":""B""}",choice,wb,binary,catch,null,microwave ovens,85,90,25,15,null,null,1,null,null,null,null,null,null,Warranty,Cooking power,NA,NA
NA,NA,NA,NA,NA,choice_trial_setup,html-keyboard-response,90,364528,0.0-4.0-0.43,173,1,2025-05-05T01:48:01Z,b60275e29fe2361ab97ac0ac217840d7,"Mozilla/5.0 (Macintosh; Intel Mac OS X 10_15_7) AppleWebKit/537.36 (KHTML, like Gecko) Chrome/133.0.0.0 Safari/537.36",Macintosh,Chrome,133.0.0.0,OS X,10_15_7,https://5puzkbbxv1.cognition.run/?sona_id=52265,"en-US,en;q=0.9",jy901huw8jtep4u,20,"[""White""]",No,Female,N/A,I'm not sure,486267.40000009537,NA,null,<p></p>,null,choice,cdt,trinary,repulsion_A,1,microwave ovens,null,null,null,null,null,null,2,NA,NA,NA,NA,NA,NA,NA,NA,NA,NA
NA,NA,NA,NA,NA,choice_trial,survey-html-form,91,373358,0.0-4.0-1.43,173,1,2025-05-05T01:48:01Z,b60275e29fe2361ab97ac0ac217840d7,"Mozilla/5.0 (Macintosh; Intel Mac OS X 10_15_7) AppleWebKit/537.36 (KHTML, like Gecko) Chrome/133.0.0.0 Safari/537.36",Macintosh,Chrome,133.0.0.0,OS X,10_15_7,https://5puzkbbxv1.cognition.run/?sona_id=52265,"en-US,en;q=0.9",jy901huw8jtep4u,20,"[""White""]",No,Female,N/A,I'm not sure,486267.40000009537,NA,8824,NA,"{""product_choice"":""A""}",choice,cdt,trinary,repulsion_A,1,microwave ovens,null,null,null,null,null,null,2,100,90,100,30,40,20,Warranty,Cooking power,NA,NA
NA,NA,NA,NA,NA,post_trials_message,html-button-response,92,375743,0.0-5.0,173,1,2025-05-05T01:48:01Z,b60275e29fe2361ab97ac0ac217840d7,"Mozilla/5.0 (Macintosh; Intel Mac OS X 10_15_7) AppleWebKit/537.36 (KHTML, like Gecko) Chrome/133.0.0.0 Safari/537.36",Macintosh,Chrome,133.0.0.0,OS X,10_15_7,https://5puzkbbxv1.cognition.run/?sona_id=52265,"en-US,en;q=0.9",jy901huw8jtep4u,20,"[""White""]",No,Female,N/A,I'm not sure,486267.40000009537,NA,2382,<p> <b>Thank you for your patience!</b></p><p>  The study will be done after completing a brief form. </p>,0,NA,NA,NA,NA,NA,NA,NA,NA,NA,NA,NA,NA,NA,NA,NA,NA,NA,NA,NA,NA,NA,NA,NA
NA,NA,NA,NA,NA,survey_message,survey-text,93,394893,0.0-6.0,173,1,2025-05-05T01:48:01Z,b60275e29fe2361ab97ac0ac217840d7,"Mozilla/5.0 (Macintosh; Intel Mac OS X 10_15_7) AppleWebKit/537.36 (KHTML, like Gecko) Chrome/133.0.0.0 Safari/537.36",Macintosh,Chrome,133.0.0.0,OS X,10_15_7,https://5puzkbbxv1.cognition.run/?sona_id=52265,"en-US,en;q=0.9",jy901huw8jtep4u,20,"[""White""]",No,Female,N/A,I'm not sure,486267.40000009537,NA,19148,NA,"{""Q0"":""I thought about what I want most in the product. ""}",NA,NA,NA,NA,NA,NA,NA,NA,NA,NA,NA,NA,NA,NA,NA,NA,NA,NA,NA,NA,NA,I thought about what I want most in the product.,NA
NA,NA,NA,NA,NA,demo_age,survey-text,94,397132,0.0-7.0,173,1,2025-05-05T01:48:01Z,b60275e29fe2361ab97ac0ac217840d7,"Mozilla/5.0 (Macintosh; Intel Mac OS X 10_15_7) AppleWebKit/537.36 (KHTML, like Gecko) Chrome/133.0.0.0 Safari/537.36",Macintosh,Chrome,133.0.0.0,OS X,10_15_7,https://5puzkbbxv1.cognition.run/?sona_id=52265,"en-US,en;q=0.9",jy901huw8jtep4u,20,"[""White""]",No,Female,N/A,I'm not sure,486267.40000009537,NA,2241,NA,"{""Q0"":""20""}",NA,NA,NA,NA,NA,NA,NA,NA,NA,NA,NA,NA,NA,NA,NA,NA,NA,NA,NA,NA,NA,NA,NA
NA,NA,NA,NA,NA,demo_race,survey-multi-select,95,399869,0.0-8.0,173,1,2025-05-05T01:48:01Z,b60275e29fe2361ab97ac0ac217840d7,"Mozilla/5.0 (Macintosh; Intel Mac OS X 10_15_7) AppleWebKit/537.36 (KHTML, like Gecko) Chrome/133.0.0.0 Safari/537.36",Macintosh,Chrome,133.0.0.0,OS X,10_15_7,https://5puzkbbxv1.cognition.run/?sona_id=52265,"en-US,en;q=0.9",jy901huw8jtep4u,20,"[""White""]",No,Female,N/A,I'm not sure,486267.40000009537,NA,2733,NA,"{""Q0"":[""White""]}",NA,NA,NA,NA,NA,NA,NA,NA,NA,NA,NA,NA,NA,NA,NA,NA,NA,NA,NA,NA,NA,NA,[0]
NA,NA,NA,NA,NA,demo_ethnicity_gender,survey-multi-choice,96,405177,0.0-9.0,173,1,2025-05-05T01:48:01Z,b60275e29fe2361ab97ac0ac217840d7,"Mozilla/5.0 (Macintosh; Intel Mac OS X 10_15_7) AppleWebKit/537.36 (KHTML, like Gecko) Chrome/133.0.0.0 Safari/537.36",Macintosh,Chrome,133.0.0.0,OS X,10_15_7,https://5puzkbbxv1.cognition.run/?sona_id=52265,"en-US,en;q=0.9",jy901huw8jtep4u,20,"[""White""]",No,Female,N/A,I'm not sure,486267.40000009537,NA,5312,NA,"{""Q0"":""No"",""Q1"":""Female""}",NA,NA,NA,NA,NA,NA,NA,NA,NA,NA,NA,NA,NA,NA,NA,NA,NA,NA,NA,NA,NA,NA,"[0,1]"
NA,NA,NA,NA,NA,demo_countries,survey-text,97,412505,0.0-10.0,173,1,2025-05-05T01:48:01Z,b60275e29fe2361ab97ac0ac217840d7,"Mozilla/5.0 (Macintosh; Intel Mac OS X 10_15_7) AppleWebKit/537.36 (KHTML, like Gecko) Chrome/133.0.0.0 Safari/537.36",Macintosh,Chrome,133.0.0.0,OS X,10_15_7,https://5puzkbbxv1.cognition.run/?sona_id=52265,"en-US,en;q=0.9",jy901huw8jtep4u,20,"[""White""]",No,Female,N/A,I'm not sure,486267.40000009537,NA,7322,NA,"{""Q0"":""N/A""}",NA,NA,NA,NA,NA,NA,NA,NA,NA,NA,NA,NA,NA,NA,NA,NA,NA,NA,NA,NA,NA,NA,NA
NA,NA,NA,NA,NA,demo_prev_study,survey-multi-choice,98,428221,0.0-11.0,173,1,2025-05-05T01:48:01Z,b60275e29fe2361ab97ac0ac217840d7,"Mozilla/5.0 (Macintosh; Intel Mac OS X 10_15_7) AppleWebKit/537.36 (KHTML, like Gecko) Chrome/133.0.0.0 Safari/537.36",Macintosh,Chrome,133.0.0.0,OS X,10_15_7,https://5puzkbbxv1.cognition.run/?sona_id=52265,"en-US,en;q=0.9",jy901huw8jtep4u,20,"[""White""]",No,Female,N/A,I'm not sure,486267.40000009537,NA,15718,NA,"{""Q0"":""I'm not sure""}",NA,NA,NA,NA,NA,NA,NA,NA,NA,NA,NA,NA,NA,NA,NA,NA,NA,NA,NA,NA,NA,NA,[0]
NA,NA,NA,NA,NA,post_survey_message,html-keyboard-response,99,433449,0.0-12.0,173,1,2025-05-05T01:48:01Z,b60275e29fe2361ab97ac0ac217840d7,"Mozilla/5.0 (Macintosh; Intel Mac OS X 10_15_7) AppleWebKit/537.36 (KHTML, like Gecko) Chrome/133.0.0.0 Safari/537.36",Macintosh,Chrome,133.0.0.0,OS X,10_15_7,https://5puzkbbxv1.cognition.run/?sona_id=52265,"en-US,en;q=0.9",jy901huw8jtep4u,20,"[""White""]",No,Female,N/A,I'm not sure,486267.40000009537,NA,5226,NA,j,NA,NA,NA,NA,NA,NA,NA,NA,NA,NA,NA,NA,NA,NA,NA,NA,NA,NA,NA,NA,NA,NA,NA
NA,NA,NA,NA,NA,debrief,image-keyboard-response,100,486229,0.0-13.0,173,1,2025-05-05T01:48:01Z,b60275e29fe2361ab97ac0ac217840d7,"Mozilla/5.0 (Macintosh; Intel Mac OS X 10_15_7) AppleWebKit/537.36 (KHTML, like Gecko) Chrome/133.0.0.0 Safari/537.36",Macintosh,Chrome,133.0.0.0,OS X,10_15_7,https://5puzkbbxv1.cognition.run/?sona_id=52265,"en-US,en;q=0.9",jy901huw8jtep4u,20,"[""White""]",No,Female,N/A,I'm not sure,486267.40000009537,NA,52771,Judg_choice_debrief.png,p,NA,NA,NA,NA,NA,NA,NA,NA,NA,NA,NA,NA,NA,NA,NA,NA,NA,NA,NA,NA,NA,NA,NA
