success,timeout,failed_images,failed_audio,failed_video,screen_id,trial_type,trial_index,time_elapsed,internal_node_id,run_id,condition,recorded_at,source_code_version,user_agent,device,browser,browser_version,platform,platform_version,referer,accept_language,ppt_id,age,race,ethnicity,gender,other_countries,prev_study,exp_duration,view_history,rt,stimulus,response,phase,order,set,effect,t_high,category,d1_best,d2_best,d1_worst1,d2_worst1,d1_worst2,d2_worst2,first_dim,d1_t,d1_c,d1_d,d2_t,d2_c,d2_d,d1_name,d2_name,strategy_response,question_order
TRUE,FALSE,[],[],[],img preload,preload,0,608,0.0-0.0,174,1,2025-05-05T02:52:42Z,b60275e29fe2361ab97ac0ac217840d7,"Mozilla/5.0 (Windows NT 10.0; Win64; x64) AppleWebKit/537.36 (KHTML, like Gecko) Chrome/136.0.0.0 Safari/537.36",WebKit,Chrome,136.0.0.0,Windows,10,https://5puzkbbxv1.cognition.run/?sona_id=56823,"en-US,en;q=0.9",f3n2dckxfwlc4eo,21,"[""White""]",No,Female,NA,I'm not sure,833152.399999857,NA,NA,NA,NA,NA,NA,NA,NA,NA,NA,NA,NA,NA,NA,NA,NA,NA,NA,NA,NA,NA,NA,NA,NA,NA,NA,NA
NA,NA,NA,NA,NA,computer_message,instructions,1,8566,0.0-1.0,174,1,2025-05-05T02:52:42Z,b60275e29fe2361ab97ac0ac217840d7,"Mozilla/5.0 (Windows NT 10.0; Win64; x64) AppleWebKit/537.36 (KHTML, like Gecko) Chrome/136.0.0.0 Safari/537.36",WebKit,Chrome,136.0.0.0,Windows,10,https://5puzkbbxv1.cognition.run/?sona_id=56823,"en-US,en;q=0.9",f3n2dckxfwlc4eo,21,"[""White""]",No,Female,NA,I'm not sure,833152.399999857,"[{""page_index"":0,""viewing_time"":7951}]",7952,NA,NA,NA,NA,NA,NA,NA,NA,NA,NA,NA,NA,NA,NA,NA,NA,NA,NA,NA,NA,NA,NA,NA,NA,NA
TRUE,NA,NA,NA,NA,NA,fullscreen,2,11623,0.0-2.0,174,1,2025-05-05T02:52:42Z,b60275e29fe2361ab97ac0ac217840d7,"Mozilla/5.0 (Windows NT 10.0; Win64; x64) AppleWebKit/537.36 (KHTML, like Gecko) Chrome/136.0.0.0 Safari/537.36",WebKit,Chrome,136.0.0.0,Windows,10,https://5puzkbbxv1.cognition.run/?sona_id=56823,"en-US,en;q=0.9",f3n2dckxfwlc4eo,21,"[""White""]",No,Female,NA,I'm not sure,833152.399999857,NA,2044,NA,NA,NA,NA,NA,NA,NA,NA,NA,NA,NA,NA,NA,NA,NA,NA,NA,NA,NA,NA,NA,NA,NA,NA,NA
NA,NA,NA,NA,NA,choice_instructions,instructions,3,54415,0.0-3.0,174,1,2025-05-05T02:52:42Z,b60275e29fe2361ab97ac0ac217840d7,"Mozilla/5.0 (Windows NT 10.0; Win64; x64) AppleWebKit/537.36 (KHTML, like Gecko) Chrome/136.0.0.0 Safari/537.36",WebKit,Chrome,136.0.0.0,Windows,10,https://5puzkbbxv1.cognition.run/?sona_id=56823,"en-US,en;q=0.9",f3n2dckxfwlc4eo,21,"[""White""]",No,Female,NA,I'm not sure,833152.399999857,"[{""page_index"":0,""viewing_time"":1492},{""page_index"":1,""viewing_time"":3530},{""page_index"":2,""viewing_time"":10647},{""page_index"":3,""viewing_time"":5739},{""page_index"":4,""viewing_time"":3704},{""page_index"":5,""viewing_time"":10236},{""page_index"":6,""viewing_time"":7443}]",42791,NA,NA,NA,NA,NA,NA,NA,NA,NA,NA,NA,NA,NA,NA,NA,NA,NA,NA,NA,NA,NA,NA,NA,NA,NA
NA,NA,NA,NA,NA,choice_trial_setup,html-keyboard-response,4,54723,0.0-4.0-0.0,174,1,2025-05-05T02:52:42Z,b60275e29fe2361ab97ac0ac217840d7,"Mozilla/5.0 (Windows NT 10.0; Win64; x64) AppleWebKit/537.36 (KHTML, like Gecko) Chrome/136.0.0.0 Safari/537.36",WebKit,Chrome,136.0.0.0,Windows,10,https://5puzkbbxv1.cognition.run/?sona_id=56823,"en-US,en;q=0.9",f3n2dckxfwlc4eo,21,"[""White""]",No,Female,NA,I'm not sure,833152.399999857,NA,null,<p></p>,null,choice,tc,binary,attraction,NA,laptops,null,null,null,null,null,null,1,NA,NA,NA,NA,NA,NA,NA,NA,NA,NA
NA,NA,NA,NA,NA,choice_trial,survey-html-form,5,84367,0.0-4.0-1.0,174,1,2025-05-05T02:52:42Z,b60275e29fe2361ab97ac0ac217840d7,"Mozilla/5.0 (Windows NT 10.0; Win64; x64) AppleWebKit/537.36 (KHTML, like Gecko) Chrome/136.0.0.0 Safari/537.36",WebKit,Chrome,136.0.0.0,Windows,10,https://5puzkbbxv1.cognition.run/?sona_id=56823,"en-US,en;q=0.9",f3n2dckxfwlc4eo,21,"[""White""]",No,Female,NA,I'm not sure,833152.399999857,NA,29635,NA,"{""product_choice"":""A""}",choice,tc,binary,attraction,NA,laptops,null,null,null,null,null,null,1,60,50,null,50,60,null,Processing speed,Memory (RAM),NA,NA
NA,NA,NA,NA,NA,choice_trial_setup,html-keyboard-response,6,84676,0.0-4.0-0.1,174,1,2025-05-05T02:52:42Z,b60275e29fe2361ab97ac0ac217840d7,"Mozilla/5.0 (Windows NT 10.0; Win64; x64) AppleWebKit/537.36 (KHTML, like Gecko) Chrome/136.0.0.0 Safari/537.36",WebKit,Chrome,136.0.0.0,Windows,10,https://5puzkbbxv1.cognition.run/?sona_id=56823,"en-US,en;q=0.9",f3n2dckxfwlc4eo,21,"[""White""]",No,Female,NA,I'm not sure,833152.399999857,NA,null,<p></p>,null,choice,tcd,trinary,repulsion_A,1,laptops,null,null,null,null,null,null,2,NA,NA,NA,NA,NA,NA,NA,NA,NA,NA
NA,NA,NA,NA,NA,choice_trial,survey-html-form,7,101333,0.0-4.0-1.1,174,1,2025-05-05T02:52:42Z,b60275e29fe2361ab97ac0ac217840d7,"Mozilla/5.0 (Windows NT 10.0; Win64; x64) AppleWebKit/537.36 (KHTML, like Gecko) Chrome/136.0.0.0 Safari/537.36",WebKit,Chrome,136.0.0.0,Windows,10,https://5puzkbbxv1.cognition.run/?sona_id=56823,"en-US,en;q=0.9",f3n2dckxfwlc4eo,21,"[""White""]",No,Female,NA,I'm not sure,833152.399999857,NA,16654,NA,"{""product_choice"":""B""}",choice,tcd,trinary,repulsion_A,1,laptops,null,null,null,null,null,null,2,100,90,100,30,40,20,Processing speed,Memory (RAM),NA,NA
NA,NA,NA,NA,NA,choice_trial_setup,html-keyboard-response,8,101640,0.0-4.0-0.2,174,1,2025-05-05T02:52:42Z,b60275e29fe2361ab97ac0ac217840d7,"Mozilla/5.0 (Windows NT 10.0; Win64; x64) AppleWebKit/537.36 (KHTML, like Gecko) Chrome/136.0.0.0 Safari/537.36",WebKit,Chrome,136.0.0.0,Windows,10,https://5puzkbbxv1.cognition.run/?sona_id=56823,"en-US,en;q=0.9",f3n2dckxfwlc4eo,21,"[""White""]",No,Female,NA,I'm not sure,833152.399999857,NA,null,<p></p>,null,choice,ctd,trinary,repulsion_B,2,microwave ovens,null,null,null,null,null,null,2,NA,NA,NA,NA,NA,NA,NA,NA,NA,NA
NA,NA,NA,NA,NA,choice_trial,survey-html-form,9,114867,0.0-4.0-1.2,174,1,2025-05-05T02:52:42Z,b60275e29fe2361ab97ac0ac217840d7,"Mozilla/5.0 (Windows NT 10.0; Win64; x64) AppleWebKit/537.36 (KHTML, like Gecko) Chrome/136.0.0.0 Safari/537.36",WebKit,Chrome,136.0.0.0,Windows,10,https://5puzkbbxv1.cognition.run/?sona_id=56823,"en-US,en;q=0.9",f3n2dckxfwlc4eo,21,"[""White""]",No,Female,NA,I'm not sure,833152.399999857,NA,13222,NA,"{""product_choice"":""B""}",choice,ctd,trinary,repulsion_B,2,microwave ovens,null,null,null,null,null,null,2,40,30,40,90,100,80,Warranty,Cooking power,NA,NA
NA,NA,NA,NA,NA,choice_trial_setup,html-keyboard-response,10,115178,0.0-4.0-0.3,174,1,2025-05-05T02:52:42Z,b60275e29fe2361ab97ac0ac217840d7,"Mozilla/5.0 (Windows NT 10.0; Win64; x64) AppleWebKit/537.36 (KHTML, like Gecko) Chrome/136.0.0.0 Safari/537.36",WebKit,Chrome,136.0.0.0,Windows,10,https://5puzkbbxv1.cognition.run/?sona_id=56823,"en-US,en;q=0.9",f3n2dckxfwlc4eo,21,"[""White""]",No,Female,NA,I'm not sure,833152.399999857,NA,null,<p></p>,null,choice,tdc,trinary,attraction,1,washing machines,null,null,null,null,null,null,1,NA,NA,NA,NA,NA,NA,NA,NA,NA,NA
NA,NA,NA,NA,NA,choice_trial,survey-html-form,11,127003,0.0-4.0-1.3,174,1,2025-05-05T02:52:42Z,b60275e29fe2361ab97ac0ac217840d7,"Mozilla/5.0 (Windows NT 10.0; Win64; x64) AppleWebKit/537.36 (KHTML, like Gecko) Chrome/136.0.0.0 Safari/537.36",WebKit,Chrome,136.0.0.0,Windows,10,https://5puzkbbxv1.cognition.run/?sona_id=56823,"en-US,en;q=0.9",f3n2dckxfwlc4eo,21,"[""White""]",No,Female,NA,I'm not sure,833152.399999857,NA,11821,NA,"{""product_choice"":""A""}",choice,tdc,trinary,attraction,1,washing machines,null,null,null,null,null,null,1,60,50,60,50,60,40,Average lifespan,Energy savings,NA,NA
NA,NA,NA,NA,NA,choice_trial_setup,html-keyboard-response,12,127317,0.0-4.0-0.4,174,1,2025-05-05T02:52:42Z,b60275e29fe2361ab97ac0ac217840d7,"Mozilla/5.0 (Windows NT 10.0; Win64; x64) AppleWebKit/537.36 (KHTML, like Gecko) Chrome/136.0.0.0 Safari/537.36",WebKit,Chrome,136.0.0.0,Windows,10,https://5puzkbbxv1.cognition.run/?sona_id=56823,"en-US,en;q=0.9",f3n2dckxfwlc4eo,21,"[""White""]",No,Female,NA,I'm not sure,833152.399999857,NA,null,<p></p>,null,choice,bw,binary,catch,null,washing machines,70,65,20,5,null,null,1,NA,NA,NA,NA,NA,NA,NA,NA,NA,NA
NA,NA,NA,NA,NA,choice_trial,survey-html-form,13,138533,0.0-4.0-1.4,174,1,2025-05-05T02:52:42Z,b60275e29fe2361ab97ac0ac217840d7,"Mozilla/5.0 (Windows NT 10.0; Win64; x64) AppleWebKit/537.36 (KHTML, like Gecko) Chrome/136.0.0.0 Safari/537.36",WebKit,Chrome,136.0.0.0,Windows,10,https://5puzkbbxv1.cognition.run/?sona_id=56823,"en-US,en;q=0.9",f3n2dckxfwlc4eo,21,"[""White""]",No,Female,NA,I'm not sure,833152.399999857,NA,11209,NA,"{""product_choice"":""A""}",choice,bw,binary,catch,null,washing machines,70,65,20,5,null,null,1,null,null,null,null,null,null,Average lifespan,Energy savings,NA,NA
NA,NA,NA,NA,NA,choice_trial_setup,html-keyboard-response,14,138841,0.0-4.0-0.5,174,1,2025-05-05T02:52:42Z,b60275e29fe2361ab97ac0ac217840d7,"Mozilla/5.0 (Windows NT 10.0; Win64; x64) AppleWebKit/537.36 (KHTML, like Gecko) Chrome/136.0.0.0 Safari/537.36",WebKit,Chrome,136.0.0.0,Windows,10,https://5puzkbbxv1.cognition.run/?sona_id=56823,"en-US,en;q=0.9",f3n2dckxfwlc4eo,21,"[""White""]",No,Female,NA,I'm not sure,833152.399999857,NA,null,<p></p>,null,choice,ct,binary,repulsion,1,laptops,null,null,null,null,null,null,1,NA,NA,NA,NA,NA,NA,NA,NA,NA,NA
NA,NA,NA,NA,NA,choice_trial,survey-html-form,15,158099,0.0-4.0-1.5,174,1,2025-05-05T02:52:42Z,b60275e29fe2361ab97ac0ac217840d7,"Mozilla/5.0 (Windows NT 10.0; Win64; x64) AppleWebKit/537.36 (KHTML, like Gecko) Chrome/136.0.0.0 Safari/537.36",WebKit,Chrome,136.0.0.0,Windows,10,https://5puzkbbxv1.cognition.run/?sona_id=56823,"en-US,en;q=0.9",f3n2dckxfwlc4eo,21,"[""White""]",No,Female,NA,I'm not sure,833152.399999857,NA,19254,NA,"{""product_choice"":""A""}",choice,ct,binary,repulsion,1,laptops,null,null,null,null,null,null,1,100,90,null,30,40,null,Processing speed,Memory (RAM),NA,NA
NA,NA,NA,NA,NA,choice_trial_setup,html-keyboard-response,16,158408,0.0-4.0-0.6,174,1,2025-05-05T02:52:42Z,b60275e29fe2361ab97ac0ac217840d7,"Mozilla/5.0 (Windows NT 10.0; Win64; x64) AppleWebKit/537.36 (KHTML, like Gecko) Chrome/136.0.0.0 Safari/537.36",WebKit,Chrome,136.0.0.0,Windows,10,https://5puzkbbxv1.cognition.run/?sona_id=56823,"en-US,en;q=0.9",f3n2dckxfwlc4eo,21,"[""White""]",No,Female,NA,I'm not sure,833152.399999857,NA,null,<p></p>,null,choice,tdc,trinary,repulsion_B,2,laptops,null,null,null,null,null,null,2,NA,NA,NA,NA,NA,NA,NA,NA,NA,NA
NA,NA,NA,NA,NA,choice_trial,survey-html-form,17,164502,0.0-4.0-1.6,174,1,2025-05-05T02:52:42Z,b60275e29fe2361ab97ac0ac217840d7,"Mozilla/5.0 (Windows NT 10.0; Win64; x64) AppleWebKit/537.36 (KHTML, like Gecko) Chrome/136.0.0.0 Safari/537.36",WebKit,Chrome,136.0.0.0,Windows,10,https://5puzkbbxv1.cognition.run/?sona_id=56823,"en-US,en;q=0.9",f3n2dckxfwlc4eo,21,"[""White""]",No,Female,NA,I'm not sure,833152.399999857,NA,6090,NA,"{""product_choice"":""A""}",choice,tdc,trinary,repulsion_B,2,laptops,null,null,null,null,null,null,2,40,30,40,90,100,80,Processing speed,Memory (RAM),NA,NA
NA,NA,NA,NA,NA,choice_trial_setup,html-keyboard-response,18,164807,0.0-4.0-0.7,174,1,2025-05-05T02:52:42Z,b60275e29fe2361ab97ac0ac217840d7,"Mozilla/5.0 (Windows NT 10.0; Win64; x64) AppleWebKit/537.36 (KHTML, like Gecko) Chrome/136.0.0.0 Safari/537.36",WebKit,Chrome,136.0.0.0,Windows,10,https://5puzkbbxv1.cognition.run/?sona_id=56823,"en-US,en;q=0.9",f3n2dckxfwlc4eo,21,"[""White""]",No,Female,NA,I'm not sure,833152.399999857,NA,null,<p></p>,null,choice,ct,binary,repulsion,2,televisions,null,null,null,null,null,null,2,NA,NA,NA,NA,NA,NA,NA,NA,NA,NA
NA,NA,NA,NA,NA,choice_trial,survey-html-form,19,172080,0.0-4.0-1.7,174,1,2025-05-05T02:52:42Z,b60275e29fe2361ab97ac0ac217840d7,"Mozilla/5.0 (Windows NT 10.0; Win64; x64) AppleWebKit/537.36 (KHTML, like Gecko) Chrome/136.0.0.0 Safari/537.36",WebKit,Chrome,136.0.0.0,Windows,10,https://5puzkbbxv1.cognition.run/?sona_id=56823,"en-US,en;q=0.9",f3n2dckxfwlc4eo,21,"[""White""]",No,Female,NA,I'm not sure,833152.399999857,NA,7268,NA,"{""product_choice"":""A""}",choice,ct,binary,repulsion,2,televisions,null,null,null,null,null,null,2,30,40,null,100,90,null,Screen size,Average lifespan,NA,NA
NA,NA,NA,NA,NA,choice_trial_setup,html-keyboard-response,20,172387,0.0-4.0-0.8,174,1,2025-05-05T02:52:42Z,b60275e29fe2361ab97ac0ac217840d7,"Mozilla/5.0 (Windows NT 10.0; Win64; x64) AppleWebKit/537.36 (KHTML, like Gecko) Chrome/136.0.0.0 Safari/537.36",WebKit,Chrome,136.0.0.0,Windows,10,https://5puzkbbxv1.cognition.run/?sona_id=56823,"en-US,en;q=0.9",f3n2dckxfwlc4eo,21,"[""White""]",No,Female,NA,I'm not sure,833152.399999857,NA,null,<p></p>,null,choice,ct,binary,repulsion,1,televisions,null,null,null,null,null,null,1,NA,NA,NA,NA,NA,NA,NA,NA,NA,NA
NA,NA,NA,NA,NA,choice_trial,survey-html-form,21,178849,0.0-4.0-1.8,174,1,2025-05-05T02:52:42Z,b60275e29fe2361ab97ac0ac217840d7,"Mozilla/5.0 (Windows NT 10.0; Win64; x64) AppleWebKit/537.36 (KHTML, like Gecko) Chrome/136.0.0.0 Safari/537.36",WebKit,Chrome,136.0.0.0,Windows,10,https://5puzkbbxv1.cognition.run/?sona_id=56823,"en-US,en;q=0.9",f3n2dckxfwlc4eo,21,"[""White""]",No,Female,NA,I'm not sure,833152.399999857,NA,6457,NA,"{""product_choice"":""A""}",choice,ct,binary,repulsion,1,televisions,null,null,null,null,null,null,1,100,90,null,30,40,null,Screen size,Average lifespan,NA,NA
NA,NA,NA,NA,NA,choice_trial_setup,html-keyboard-response,22,179162,0.0-4.0-0.9,174,1,2025-05-05T02:52:42Z,b60275e29fe2361ab97ac0ac217840d7,"Mozilla/5.0 (Windows NT 10.0; Win64; x64) AppleWebKit/537.36 (KHTML, like Gecko) Chrome/136.0.0.0 Safari/537.36",WebKit,Chrome,136.0.0.0,Windows,10,https://5puzkbbxv1.cognition.run/?sona_id=56823,"en-US,en;q=0.9",f3n2dckxfwlc4eo,21,"[""White""]",No,Female,NA,I'm not sure,833152.399999857,NA,null,<p></p>,null,choice,dct,trinary,repulsion_B,1,washing machines,null,null,null,null,null,null,2,NA,NA,NA,NA,NA,NA,NA,NA,NA,NA
NA,NA,NA,NA,NA,choice_trial,survey-html-form,23,192381,0.0-4.0-1.9,174,1,2025-05-05T02:52:42Z,b60275e29fe2361ab97ac0ac217840d7,"Mozilla/5.0 (Windows NT 10.0; Win64; x64) AppleWebKit/537.36 (KHTML, like Gecko) Chrome/136.0.0.0 Safari/537.36",WebKit,Chrome,136.0.0.0,Windows,10,https://5puzkbbxv1.cognition.run/?sona_id=56823,"en-US,en;q=0.9",f3n2dckxfwlc4eo,21,"[""White""]",No,Female,NA,I'm not sure,833152.399999857,NA,13211,NA,"{""product_choice"":""C""}",choice,dct,trinary,repulsion_B,1,washing machines,null,null,null,null,null,null,2,90,100,80,40,30,40,Average lifespan,Energy savings,NA,NA
NA,NA,NA,NA,NA,choice_trial_setup,html-keyboard-response,24,192691,0.0-4.0-0.10,174,1,2025-05-05T02:52:42Z,b60275e29fe2361ab97ac0ac217840d7,"Mozilla/5.0 (Windows NT 10.0; Win64; x64) AppleWebKit/537.36 (KHTML, like Gecko) Chrome/136.0.0.0 Safari/537.36",WebKit,Chrome,136.0.0.0,Windows,10,https://5puzkbbxv1.cognition.run/?sona_id=56823,"en-US,en;q=0.9",f3n2dckxfwlc4eo,21,"[""White""]",No,Female,NA,I'm not sure,833152.399999857,NA,null,<p></p>,null,choice,ct,binary,attraction,NA,washing machines,null,null,null,null,null,null,2,NA,NA,NA,NA,NA,NA,NA,NA,NA,NA
NA,NA,NA,NA,NA,choice_trial,survey-html-form,25,206674,0.0-4.0-1.10,174,1,2025-05-05T02:52:42Z,b60275e29fe2361ab97ac0ac217840d7,"Mozilla/5.0 (Windows NT 10.0; Win64; x64) AppleWebKit/537.36 (KHTML, like Gecko) Chrome/136.0.0.0 Safari/537.36",WebKit,Chrome,136.0.0.0,Windows,10,https://5puzkbbxv1.cognition.run/?sona_id=56823,"en-US,en;q=0.9",f3n2dckxfwlc4eo,21,"[""White""]",No,Female,NA,I'm not sure,833152.399999857,NA,13978,NA,"{""product_choice"":""A""}",choice,ct,binary,attraction,NA,washing machines,null,null,null,null,null,null,2,60,50,null,50,60,null,Average lifespan,Energy savings,NA,NA
NA,NA,NA,NA,NA,choice_trial_setup,html-keyboard-response,26,206978,0.0-4.0-0.11,174,1,2025-05-05T02:52:42Z,b60275e29fe2361ab97ac0ac217840d7,"Mozilla/5.0 (Windows NT 10.0; Win64; x64) AppleWebKit/537.36 (KHTML, like Gecko) Chrome/136.0.0.0 Safari/537.36",WebKit,Chrome,136.0.0.0,Windows,10,https://5puzkbbxv1.cognition.run/?sona_id=56823,"en-US,en;q=0.9",f3n2dckxfwlc4eo,21,"[""White""]",No,Female,NA,I'm not sure,833152.399999857,NA,null,<p></p>,null,choice,dtc,trinary,repulsion_A,2,televisions,null,null,null,null,null,null,1,NA,NA,NA,NA,NA,NA,NA,NA,NA,NA
NA,NA,NA,NA,NA,choice_trial,survey-html-form,27,216007,0.0-4.0-1.11,174,1,2025-05-05T02:52:42Z,b60275e29fe2361ab97ac0ac217840d7,"Mozilla/5.0 (Windows NT 10.0; Win64; x64) AppleWebKit/537.36 (KHTML, like Gecko) Chrome/136.0.0.0 Safari/537.36",WebKit,Chrome,136.0.0.0,Windows,10,https://5puzkbbxv1.cognition.run/?sona_id=56823,"en-US,en;q=0.9",f3n2dckxfwlc4eo,21,"[""White""]",No,Female,NA,I'm not sure,833152.399999857,NA,9023,NA,"{""product_choice"":""B""}",choice,dtc,trinary,repulsion_A,2,televisions,null,null,null,null,null,null,1,30,40,20,100,90,100,Screen size,Average lifespan,NA,NA
NA,NA,NA,NA,NA,choice_trial_setup,html-keyboard-response,28,216317,0.0-4.0-0.12,174,1,2025-05-05T02:52:42Z,b60275e29fe2361ab97ac0ac217840d7,"Mozilla/5.0 (Windows NT 10.0; Win64; x64) AppleWebKit/537.36 (KHTML, like Gecko) Chrome/136.0.0.0 Safari/537.36",WebKit,Chrome,136.0.0.0,Windows,10,https://5puzkbbxv1.cognition.run/?sona_id=56823,"en-US,en;q=0.9",f3n2dckxfwlc4eo,21,"[""White""]",No,Female,NA,I'm not sure,833152.399999857,NA,null,<p></p>,null,choice,ctd,trinary,repulsion_B,2,washing machines,null,null,null,null,null,null,1,NA,NA,NA,NA,NA,NA,NA,NA,NA,NA
NA,NA,NA,NA,NA,choice_trial,survey-html-form,29,226144,0.0-4.0-1.12,174,1,2025-05-05T02:52:42Z,b60275e29fe2361ab97ac0ac217840d7,"Mozilla/5.0 (Windows NT 10.0; Win64; x64) AppleWebKit/537.36 (KHTML, like Gecko) Chrome/136.0.0.0 Safari/537.36",WebKit,Chrome,136.0.0.0,Windows,10,https://5puzkbbxv1.cognition.run/?sona_id=56823,"en-US,en;q=0.9",f3n2dckxfwlc4eo,21,"[""White""]",No,Female,NA,I'm not sure,833152.399999857,NA,9822,NA,"{""product_choice"":""B""}",choice,ctd,trinary,repulsion_B,2,washing machines,null,null,null,null,null,null,1,40,30,40,90,100,80,Average lifespan,Energy savings,NA,NA
NA,NA,NA,NA,NA,choice_trial_setup,html-keyboard-response,30,226459,0.0-4.0-0.13,174,1,2025-05-05T02:52:42Z,b60275e29fe2361ab97ac0ac217840d7,"Mozilla/5.0 (Windows NT 10.0; Win64; x64) AppleWebKit/537.36 (KHTML, like Gecko) Chrome/136.0.0.0 Safari/537.36",WebKit,Chrome,136.0.0.0,Windows,10,https://5puzkbbxv1.cognition.run/?sona_id=56823,"en-US,en;q=0.9",f3n2dckxfwlc4eo,21,"[""White""]",No,Female,NA,I'm not sure,833152.399999857,NA,null,<p></p>,null,choice,ctd,trinary,attraction,2,washing machines,null,null,null,null,null,null,2,NA,NA,NA,NA,NA,NA,NA,NA,NA,NA
NA,NA,NA,NA,NA,choice_trial,survey-html-form,31,235783,0.0-4.0-1.13,174,1,2025-05-05T02:52:42Z,b60275e29fe2361ab97ac0ac217840d7,"Mozilla/5.0 (Windows NT 10.0; Win64; x64) AppleWebKit/537.36 (KHTML, like Gecko) Chrome/136.0.0.0 Safari/537.36",WebKit,Chrome,136.0.0.0,Windows,10,https://5puzkbbxv1.cognition.run/?sona_id=56823,"en-US,en;q=0.9",f3n2dckxfwlc4eo,21,"[""White""]",No,Female,NA,I'm not sure,833152.399999857,NA,9319,NA,"{""product_choice"":""A""}",choice,ctd,trinary,attraction,2,washing machines,null,null,null,null,null,null,2,50,60,40,60,50,60,Average lifespan,Energy savings,NA,NA
NA,NA,NA,NA,NA,choice_trial_setup,html-keyboard-response,32,236089,0.0-4.0-0.14,174,1,2025-05-05T02:52:42Z,b60275e29fe2361ab97ac0ac217840d7,"Mozilla/5.0 (Windows NT 10.0; Win64; x64) AppleWebKit/537.36 (KHTML, like Gecko) Chrome/136.0.0.0 Safari/537.36",WebKit,Chrome,136.0.0.0,Windows,10,https://5puzkbbxv1.cognition.run/?sona_id=56823,"en-US,en;q=0.9",f3n2dckxfwlc4eo,21,"[""White""]",No,Female,NA,I'm not sure,833152.399999857,NA,null,<p></p>,null,choice,wbw,trinary,catch,null,televisions,50,95,10,50,25,35,1,NA,NA,NA,NA,NA,NA,NA,NA,NA,NA
NA,NA,NA,NA,NA,choice_trial,survey-html-form,33,246306,0.0-4.0-1.14,174,1,2025-05-05T02:52:42Z,b60275e29fe2361ab97ac0ac217840d7,"Mozilla/5.0 (Windows NT 10.0; Win64; x64) AppleWebKit/537.36 (KHTML, like Gecko) Chrome/136.0.0.0 Safari/537.36",WebKit,Chrome,136.0.0.0,Windows,10,https://5puzkbbxv1.cognition.run/?sona_id=56823,"en-US,en;q=0.9",f3n2dckxfwlc4eo,21,"[""White""]",No,Female,NA,I'm not sure,833152.399999857,NA,10211,NA,"{""product_choice"":""B""}",choice,wbw,trinary,catch,null,televisions,50,95,10,50,25,35,1,null,null,null,null,null,null,Screen size,Average lifespan,NA,NA
NA,NA,NA,NA,NA,choice_trial_setup,html-keyboard-response,34,246616,0.0-4.0-0.15,174,1,2025-05-05T02:52:42Z,b60275e29fe2361ab97ac0ac217840d7,"Mozilla/5.0 (Windows NT 10.0; Win64; x64) AppleWebKit/537.36 (KHTML, like Gecko) Chrome/136.0.0.0 Safari/537.36",WebKit,Chrome,136.0.0.0,Windows,10,https://5puzkbbxv1.cognition.run/?sona_id=56823,"en-US,en;q=0.9",f3n2dckxfwlc4eo,21,"[""White""]",No,Female,NA,I'm not sure,833152.399999857,NA,null,<p></p>,null,choice,ct,binary,repulsion,1,microwave ovens,null,null,null,null,null,null,2,NA,NA,NA,NA,NA,NA,NA,NA,NA,NA
NA,NA,NA,NA,NA,choice_trial,survey-html-form,35,253345,0.0-4.0-1.15,174,1,2025-05-05T02:52:42Z,b60275e29fe2361ab97ac0ac217840d7,"Mozilla/5.0 (Windows NT 10.0; Win64; x64) AppleWebKit/537.36 (KHTML, like Gecko) Chrome/136.0.0.0 Safari/537.36",WebKit,Chrome,136.0.0.0,Windows,10,https://5puzkbbxv1.cognition.run/?sona_id=56823,"en-US,en;q=0.9",f3n2dckxfwlc4eo,21,"[""White""]",No,Female,NA,I'm not sure,833152.399999857,NA,6723,NA,"{""product_choice"":""A""}",choice,ct,binary,repulsion,1,microwave ovens,null,null,null,null,null,null,2,100,90,null,30,40,null,Warranty,Cooking power,NA,NA
NA,NA,NA,NA,NA,choice_trial_setup,html-keyboard-response,36,253652,0.0-4.0-0.16,174,1,2025-05-05T02:52:42Z,b60275e29fe2361ab97ac0ac217840d7,"Mozilla/5.0 (Windows NT 10.0; Win64; x64) AppleWebKit/537.36 (KHTML, like Gecko) Chrome/136.0.0.0 Safari/537.36",WebKit,Chrome,136.0.0.0,Windows,10,https://5puzkbbxv1.cognition.run/?sona_id=56823,"en-US,en;q=0.9",f3n2dckxfwlc4eo,21,"[""White""]",No,Female,NA,I'm not sure,833152.399999857,NA,null,<p></p>,null,choice,tcd,trinary,repulsion_A,1,washing machines,null,null,null,null,null,null,2,NA,NA,NA,NA,NA,NA,NA,NA,NA,NA
NA,NA,NA,NA,NA,choice_trial,survey-html-form,37,261474,0.0-4.0-1.16,174,1,2025-05-05T02:52:42Z,b60275e29fe2361ab97ac0ac217840d7,"Mozilla/5.0 (Windows NT 10.0; Win64; x64) AppleWebKit/537.36 (KHTML, like Gecko) Chrome/136.0.0.0 Safari/537.36",WebKit,Chrome,136.0.0.0,Windows,10,https://5puzkbbxv1.cognition.run/?sona_id=56823,"en-US,en;q=0.9",f3n2dckxfwlc4eo,21,"[""White""]",No,Female,NA,I'm not sure,833152.399999857,NA,7817,NA,"{""product_choice"":""B""}",choice,tcd,trinary,repulsion_A,1,washing machines,null,null,null,null,null,null,2,100,90,100,30,40,20,Average lifespan,Energy savings,NA,NA
NA,NA,NA,NA,NA,choice_trial_setup,html-keyboard-response,38,261781,0.0-4.0-0.17,174,1,2025-05-05T02:52:42Z,b60275e29fe2361ab97ac0ac217840d7,"Mozilla/5.0 (Windows NT 10.0; Win64; x64) AppleWebKit/537.36 (KHTML, like Gecko) Chrome/136.0.0.0 Safari/537.36",WebKit,Chrome,136.0.0.0,Windows,10,https://5puzkbbxv1.cognition.run/?sona_id=56823,"en-US,en;q=0.9",f3n2dckxfwlc4eo,21,"[""White""]",No,Female,NA,I'm not sure,833152.399999857,NA,null,<p></p>,null,choice,ctd,trinary,repulsion_A,2,microwave ovens,null,null,null,null,null,null,2,NA,NA,NA,NA,NA,NA,NA,NA,NA,NA
NA,NA,NA,NA,NA,choice_trial,survey-html-form,39,270752,0.0-4.0-1.17,174,1,2025-05-05T02:52:42Z,b60275e29fe2361ab97ac0ac217840d7,"Mozilla/5.0 (Windows NT 10.0; Win64; x64) AppleWebKit/537.36 (KHTML, like Gecko) Chrome/136.0.0.0 Safari/537.36",WebKit,Chrome,136.0.0.0,Windows,10,https://5puzkbbxv1.cognition.run/?sona_id=56823,"en-US,en;q=0.9",f3n2dckxfwlc4eo,21,"[""White""]",No,Female,NA,I'm not sure,833152.399999857,NA,8965,NA,"{""product_choice"":""A""}",choice,ctd,trinary,repulsion_A,2,microwave ovens,null,null,null,null,null,null,2,30,40,20,100,90,100,Warranty,Cooking power,NA,NA
NA,NA,NA,NA,NA,choice_trial_setup,html-keyboard-response,40,271058,0.0-4.0-0.18,174,1,2025-05-05T02:52:42Z,b60275e29fe2361ab97ac0ac217840d7,"Mozilla/5.0 (Windows NT 10.0; Win64; x64) AppleWebKit/537.36 (KHTML, like Gecko) Chrome/136.0.0.0 Safari/537.36",WebKit,Chrome,136.0.0.0,Windows,10,https://5puzkbbxv1.cognition.run/?sona_id=56823,"en-US,en;q=0.9",f3n2dckxfwlc4eo,21,"[""White""]",No,Female,NA,I'm not sure,833152.399999857,NA,null,<p></p>,null,choice,tc,binary,repulsion,2,laptops,null,null,null,null,null,null,2,NA,NA,NA,NA,NA,NA,NA,NA,NA,NA
NA,NA,NA,NA,NA,choice_trial,survey-html-form,41,277504,0.0-4.0-1.18,174,1,2025-05-05T02:52:42Z,b60275e29fe2361ab97ac0ac217840d7,"Mozilla/5.0 (Windows NT 10.0; Win64; x64) AppleWebKit/537.36 (KHTML, like Gecko) Chrome/136.0.0.0 Safari/537.36",WebKit,Chrome,136.0.0.0,Windows,10,https://5puzkbbxv1.cognition.run/?sona_id=56823,"en-US,en;q=0.9",f3n2dckxfwlc4eo,21,"[""White""]",No,Female,NA,I'm not sure,833152.399999857,NA,6441,NA,"{""product_choice"":""B""}",choice,tc,binary,repulsion,2,laptops,null,null,null,null,null,null,2,30,40,null,100,90,null,Processing speed,Memory (RAM),NA,NA
NA,NA,NA,NA,NA,choice_trial_setup,html-keyboard-response,42,277814,0.0-4.0-0.19,174,1,2025-05-05T02:52:42Z,b60275e29fe2361ab97ac0ac217840d7,"Mozilla/5.0 (Windows NT 10.0; Win64; x64) AppleWebKit/537.36 (KHTML, like Gecko) Chrome/136.0.0.0 Safari/537.36",WebKit,Chrome,136.0.0.0,Windows,10,https://5puzkbbxv1.cognition.run/?sona_id=56823,"en-US,en;q=0.9",f3n2dckxfwlc4eo,21,"[""White""]",No,Female,NA,I'm not sure,833152.399999857,NA,null,<p></p>,null,choice,tc,binary,attraction,NA,microwave ovens,null,null,null,null,null,null,2,NA,NA,NA,NA,NA,NA,NA,NA,NA,NA
NA,NA,NA,NA,NA,choice_trial,survey-html-form,43,287288,0.0-4.0-1.19,174,1,2025-05-05T02:52:42Z,b60275e29fe2361ab97ac0ac217840d7,"Mozilla/5.0 (Windows NT 10.0; Win64; x64) AppleWebKit/537.36 (KHTML, like Gecko) Chrome/136.0.0.0 Safari/537.36",WebKit,Chrome,136.0.0.0,Windows,10,https://5puzkbbxv1.cognition.run/?sona_id=56823,"en-US,en;q=0.9",f3n2dckxfwlc4eo,21,"[""White""]",No,Female,NA,I'm not sure,833152.399999857,NA,9467,NA,"{""product_choice"":""B""}",choice,tc,binary,attraction,NA,microwave ovens,null,null,null,null,null,null,2,60,50,null,50,60,null,Warranty,Cooking power,NA,NA
NA,NA,NA,NA,NA,choice_trial_setup,html-keyboard-response,44,287604,0.0-4.0-0.20,174,1,2025-05-05T02:52:42Z,b60275e29fe2361ab97ac0ac217840d7,"Mozilla/5.0 (Windows NT 10.0; Win64; x64) AppleWebKit/537.36 (KHTML, like Gecko) Chrome/136.0.0.0 Safari/537.36",WebKit,Chrome,136.0.0.0,Windows,10,https://5puzkbbxv1.cognition.run/?sona_id=56823,"en-US,en;q=0.9",f3n2dckxfwlc4eo,21,"[""White""]",No,Female,NA,I'm not sure,833152.399999857,NA,null,<p></p>,null,choice,bw,binary,catch,null,laptops,95,70,15,40,null,null,1,NA,NA,NA,NA,NA,NA,NA,NA,NA,NA
NA,NA,NA,NA,NA,choice_trial,survey-html-form,45,294969,0.0-4.0-1.20,174,1,2025-05-05T02:52:42Z,b60275e29fe2361ab97ac0ac217840d7,"Mozilla/5.0 (Windows NT 10.0; Win64; x64) AppleWebKit/537.36 (KHTML, like Gecko) Chrome/136.0.0.0 Safari/537.36",WebKit,Chrome,136.0.0.0,Windows,10,https://5puzkbbxv1.cognition.run/?sona_id=56823,"en-US,en;q=0.9",f3n2dckxfwlc4eo,21,"[""White""]",No,Female,NA,I'm not sure,833152.399999857,NA,7358,NA,"{""product_choice"":""A""}",choice,bw,binary,catch,null,laptops,95,70,15,40,null,null,1,null,null,null,null,null,null,Processing speed,Memory (RAM),NA,NA
NA,NA,NA,NA,NA,choice_trial_setup,html-keyboard-response,46,295285,0.0-4.0-0.21,174,1,2025-05-05T02:52:42Z,b60275e29fe2361ab97ac0ac217840d7,"Mozilla/5.0 (Windows NT 10.0; Win64; x64) AppleWebKit/537.36 (KHTML, like Gecko) Chrome/136.0.0.0 Safari/537.36",WebKit,Chrome,136.0.0.0,Windows,10,https://5puzkbbxv1.cognition.run/?sona_id=56823,"en-US,en;q=0.9",f3n2dckxfwlc4eo,21,"[""White""]",No,Female,NA,I'm not sure,833152.399999857,NA,null,<p></p>,null,choice,tc,binary,repulsion,2,washing machines,null,null,null,null,null,null,1,NA,NA,NA,NA,NA,NA,NA,NA,NA,NA
NA,NA,NA,NA,NA,choice_trial,survey-html-form,47,306786,0.0-4.0-1.21,174,1,2025-05-05T02:52:42Z,b60275e29fe2361ab97ac0ac217840d7,"Mozilla/5.0 (Windows NT 10.0; Win64; x64) AppleWebKit/537.36 (KHTML, like Gecko) Chrome/136.0.0.0 Safari/537.36",WebKit,Chrome,136.0.0.0,Windows,10,https://5puzkbbxv1.cognition.run/?sona_id=56823,"en-US,en;q=0.9",f3n2dckxfwlc4eo,21,"[""White""]",No,Female,NA,I'm not sure,833152.399999857,NA,11494,NA,"{""product_choice"":""B""}",choice,tc,binary,repulsion,2,washing machines,null,null,null,null,null,null,1,30,40,null,100,90,null,Average lifespan,Energy savings,NA,NA
NA,NA,NA,NA,NA,choice_trial_setup,html-keyboard-response,48,307101,0.0-4.0-0.22,174,1,2025-05-05T02:52:42Z,b60275e29fe2361ab97ac0ac217840d7,"Mozilla/5.0 (Windows NT 10.0; Win64; x64) AppleWebKit/537.36 (KHTML, like Gecko) Chrome/136.0.0.0 Safari/537.36",WebKit,Chrome,136.0.0.0,Windows,10,https://5puzkbbxv1.cognition.run/?sona_id=56823,"en-US,en;q=0.9",f3n2dckxfwlc4eo,21,"[""White""]",No,Female,NA,I'm not sure,833152.399999857,NA,null,<p></p>,null,choice,tcd,trinary,repulsion_B,1,microwave ovens,null,null,null,null,null,null,1,NA,NA,NA,NA,NA,NA,NA,NA,NA,NA
NA,NA,NA,NA,NA,choice_trial,survey-html-form,49,339865,0.0-4.0-1.22,174,1,2025-05-05T02:52:42Z,b60275e29fe2361ab97ac0ac217840d7,"Mozilla/5.0 (Windows NT 10.0; Win64; x64) AppleWebKit/537.36 (KHTML, like Gecko) Chrome/136.0.0.0 Safari/537.36",WebKit,Chrome,136.0.0.0,Windows,10,https://5puzkbbxv1.cognition.run/?sona_id=56823,"en-US,en;q=0.9",f3n2dckxfwlc4eo,21,"[""White""]",No,Female,NA,I'm not sure,833152.399999857,NA,32757,NA,"{""product_choice"":""A""}",choice,tcd,trinary,repulsion_B,1,microwave ovens,null,null,null,null,null,null,1,90,100,80,40,30,40,Warranty,Cooking power,NA,NA
NA,NA,NA,NA,NA,choice_trial_setup,html-keyboard-response,50,340180,0.0-4.0-0.23,174,1,2025-05-05T02:52:42Z,b60275e29fe2361ab97ac0ac217840d7,"Mozilla/5.0 (Windows NT 10.0; Win64; x64) AppleWebKit/537.36 (KHTML, like Gecko) Chrome/136.0.0.0 Safari/537.36",WebKit,Chrome,136.0.0.0,Windows,10,https://5puzkbbxv1.cognition.run/?sona_id=56823,"en-US,en;q=0.9",f3n2dckxfwlc4eo,21,"[""White""]",No,Female,NA,I'm not sure,833152.399999857,NA,null,<p></p>,null,choice,tdc,trinary,repulsion_B,1,laptops,null,null,null,null,null,null,2,NA,NA,NA,NA,NA,NA,NA,NA,NA,NA
NA,NA,NA,NA,NA,choice_trial,survey-html-form,51,347634,0.0-4.0-1.23,174,1,2025-05-05T02:52:42Z,b60275e29fe2361ab97ac0ac217840d7,"Mozilla/5.0 (Windows NT 10.0; Win64; x64) AppleWebKit/537.36 (KHTML, like Gecko) Chrome/136.0.0.0 Safari/537.36",WebKit,Chrome,136.0.0.0,Windows,10,https://5puzkbbxv1.cognition.run/?sona_id=56823,"en-US,en;q=0.9",f3n2dckxfwlc4eo,21,"[""White""]",No,Female,NA,I'm not sure,833152.399999857,NA,7447,NA,"{""product_choice"":""A""}",choice,tdc,trinary,repulsion_B,1,laptops,null,null,null,null,null,null,2,90,100,80,40,30,40,Processing speed,Memory (RAM),NA,NA
NA,NA,NA,NA,NA,choice_trial_setup,html-keyboard-response,52,347950,0.0-4.0-0.24,174,1,2025-05-05T02:52:42Z,b60275e29fe2361ab97ac0ac217840d7,"Mozilla/5.0 (Windows NT 10.0; Win64; x64) AppleWebKit/537.36 (KHTML, like Gecko) Chrome/136.0.0.0 Safari/537.36",WebKit,Chrome,136.0.0.0,Windows,10,https://5puzkbbxv1.cognition.run/?sona_id=56823,"en-US,en;q=0.9",f3n2dckxfwlc4eo,21,"[""White""]",No,Female,NA,I'm not sure,833152.399999857,NA,null,<p></p>,null,choice,dtc,trinary,repulsion_B,1,televisions,null,null,null,null,null,null,1,NA,NA,NA,NA,NA,NA,NA,NA,NA,NA
NA,NA,NA,NA,NA,choice_trial,survey-html-form,53,354335,0.0-4.0-1.24,174,1,2025-05-05T02:52:42Z,b60275e29fe2361ab97ac0ac217840d7,"Mozilla/5.0 (Windows NT 10.0; Win64; x64) AppleWebKit/537.36 (KHTML, like Gecko) Chrome/136.0.0.0 Safari/537.36",WebKit,Chrome,136.0.0.0,Windows,10,https://5puzkbbxv1.cognition.run/?sona_id=56823,"en-US,en;q=0.9",f3n2dckxfwlc4eo,21,"[""White""]",No,Female,NA,I'm not sure,833152.399999857,NA,6378,NA,"{""product_choice"":""B""}",choice,dtc,trinary,repulsion_B,1,televisions,null,null,null,null,null,null,1,90,100,80,40,30,40,Screen size,Average lifespan,NA,NA
NA,NA,NA,NA,NA,choice_trial_setup,html-keyboard-response,54,354651,0.0-4.0-0.25,174,1,2025-05-05T02:52:42Z,b60275e29fe2361ab97ac0ac217840d7,"Mozilla/5.0 (Windows NT 10.0; Win64; x64) AppleWebKit/537.36 (KHTML, like Gecko) Chrome/136.0.0.0 Safari/537.36",WebKit,Chrome,136.0.0.0,Windows,10,https://5puzkbbxv1.cognition.run/?sona_id=56823,"en-US,en;q=0.9",f3n2dckxfwlc4eo,21,"[""White""]",No,Female,NA,I'm not sure,833152.399999857,NA,null,<p></p>,null,choice,dtc,trinary,attraction,1,microwave ovens,null,null,null,null,null,null,1,NA,NA,NA,NA,NA,NA,NA,NA,NA,NA
NA,NA,NA,NA,NA,choice_trial,survey-html-form,55,375383,0.0-4.0-1.25,174,1,2025-05-05T02:52:42Z,b60275e29fe2361ab97ac0ac217840d7,"Mozilla/5.0 (Windows NT 10.0; Win64; x64) AppleWebKit/537.36 (KHTML, like Gecko) Chrome/136.0.0.0 Safari/537.36",WebKit,Chrome,136.0.0.0,Windows,10,https://5puzkbbxv1.cognition.run/?sona_id=56823,"en-US,en;q=0.9",f3n2dckxfwlc4eo,21,"[""White""]",No,Female,NA,I'm not sure,833152.399999857,NA,20725,NA,"{""product_choice"":""C""}",choice,dtc,trinary,attraction,1,microwave ovens,null,null,null,null,null,null,1,60,50,60,50,60,40,Warranty,Cooking power,NA,NA
NA,NA,NA,NA,NA,choice_trial_setup,html-keyboard-response,56,375701,0.0-4.0-0.26,174,1,2025-05-05T02:52:42Z,b60275e29fe2361ab97ac0ac217840d7,"Mozilla/5.0 (Windows NT 10.0; Win64; x64) AppleWebKit/537.36 (KHTML, like Gecko) Chrome/136.0.0.0 Safari/537.36",WebKit,Chrome,136.0.0.0,Windows,10,https://5puzkbbxv1.cognition.run/?sona_id=56823,"en-US,en;q=0.9",f3n2dckxfwlc4eo,21,"[""White""]",No,Female,NA,I'm not sure,833152.399999857,NA,null,<p></p>,null,choice,dct,trinary,attraction,1,televisions,null,null,null,null,null,null,1,NA,NA,NA,NA,NA,NA,NA,NA,NA,NA
NA,NA,NA,NA,NA,choice_trial,survey-html-form,57,380123,0.0-4.0-1.26,174,1,2025-05-05T02:52:42Z,b60275e29fe2361ab97ac0ac217840d7,"Mozilla/5.0 (Windows NT 10.0; Win64; x64) AppleWebKit/537.36 (KHTML, like Gecko) Chrome/136.0.0.0 Safari/537.36",WebKit,Chrome,136.0.0.0,Windows,10,https://5puzkbbxv1.cognition.run/?sona_id=56823,"en-US,en;q=0.9",f3n2dckxfwlc4eo,21,"[""White""]",No,Female,NA,I'm not sure,833152.399999857,NA,4414,NA,"{""product_choice"":""B""}",choice,dct,trinary,attraction,1,televisions,null,null,null,null,null,null,1,60,50,60,50,60,40,Screen size,Average lifespan,NA,NA
NA,NA,NA,NA,NA,choice_trial_setup,html-keyboard-response,58,380444,0.0-4.0-0.27,174,1,2025-05-05T02:52:42Z,b60275e29fe2361ab97ac0ac217840d7,"Mozilla/5.0 (Windows NT 10.0; Win64; x64) AppleWebKit/537.36 (KHTML, like Gecko) Chrome/136.0.0.0 Safari/537.36",WebKit,Chrome,136.0.0.0,Windows,10,https://5puzkbbxv1.cognition.run/?sona_id=56823,"en-US,en;q=0.9",f3n2dckxfwlc4eo,21,"[""White""]",No,Female,NA,I'm not sure,833152.399999857,NA,null,<p></p>,null,choice,ctd,trinary,repulsion_A,1,microwave ovens,null,null,null,null,null,null,1,NA,NA,NA,NA,NA,NA,NA,NA,NA,NA
NA,NA,NA,NA,NA,choice_trial,survey-html-form,59,384911,0.0-4.0-1.27,174,1,2025-05-05T02:52:42Z,b60275e29fe2361ab97ac0ac217840d7,"Mozilla/5.0 (Windows NT 10.0; Win64; x64) AppleWebKit/537.36 (KHTML, like Gecko) Chrome/136.0.0.0 Safari/537.36",WebKit,Chrome,136.0.0.0,Windows,10,https://5puzkbbxv1.cognition.run/?sona_id=56823,"en-US,en;q=0.9",f3n2dckxfwlc4eo,21,"[""White""]",No,Female,NA,I'm not sure,833152.399999857,NA,4458,NA,"{""product_choice"":""A""}",choice,ctd,trinary,repulsion_A,1,microwave ovens,null,null,null,null,null,null,1,100,90,100,30,40,20,Warranty,Cooking power,NA,NA
NA,NA,NA,NA,NA,choice_trial_setup,html-keyboard-response,60,385220,0.0-4.0-0.28,174,1,2025-05-05T02:52:42Z,b60275e29fe2361ab97ac0ac217840d7,"Mozilla/5.0 (Windows NT 10.0; Win64; x64) AppleWebKit/537.36 (KHTML, like Gecko) Chrome/136.0.0.0 Safari/537.36",WebKit,Chrome,136.0.0.0,Windows,10,https://5puzkbbxv1.cognition.run/?sona_id=56823,"en-US,en;q=0.9",f3n2dckxfwlc4eo,21,"[""White""]",No,Female,NA,I'm not sure,833152.399999857,NA,null,<p></p>,null,choice,dct,trinary,attraction,1,laptops,null,null,null,null,null,null,2,NA,NA,NA,NA,NA,NA,NA,NA,NA,NA
NA,NA,NA,NA,NA,choice_trial,survey-html-form,61,390510,0.0-4.0-1.28,174,1,2025-05-05T02:52:42Z,b60275e29fe2361ab97ac0ac217840d7,"Mozilla/5.0 (Windows NT 10.0; Win64; x64) AppleWebKit/537.36 (KHTML, like Gecko) Chrome/136.0.0.0 Safari/537.36",WebKit,Chrome,136.0.0.0,Windows,10,https://5puzkbbxv1.cognition.run/?sona_id=56823,"en-US,en;q=0.9",f3n2dckxfwlc4eo,21,"[""White""]",No,Female,NA,I'm not sure,833152.399999857,NA,5282,NA,"{""product_choice"":""C""}",choice,dct,trinary,attraction,1,laptops,null,null,null,null,null,null,2,60,50,60,50,60,40,Processing speed,Memory (RAM),NA,NA
NA,NA,NA,NA,NA,choice_trial_setup,html-keyboard-response,62,390830,0.0-4.0-0.29,174,1,2025-05-05T02:52:42Z,b60275e29fe2361ab97ac0ac217840d7,"Mozilla/5.0 (Windows NT 10.0; Win64; x64) AppleWebKit/537.36 (KHTML, like Gecko) Chrome/136.0.0.0 Safari/537.36",WebKit,Chrome,136.0.0.0,Windows,10,https://5puzkbbxv1.cognition.run/?sona_id=56823,"en-US,en;q=0.9",f3n2dckxfwlc4eo,21,"[""White""]",No,Female,NA,I'm not sure,833152.399999857,NA,null,<p></p>,null,choice,bw,binary,catch,null,microwave ovens,65,65,10,20,null,null,2,NA,NA,NA,NA,NA,NA,NA,NA,NA,NA
NA,NA,NA,NA,NA,choice_trial,survey-html-form,63,406351,0.0-4.0-1.29,174,1,2025-05-05T02:52:42Z,b60275e29fe2361ab97ac0ac217840d7,"Mozilla/5.0 (Windows NT 10.0; Win64; x64) AppleWebKit/537.36 (KHTML, like Gecko) Chrome/136.0.0.0 Safari/537.36",WebKit,Chrome,136.0.0.0,Windows,10,https://5puzkbbxv1.cognition.run/?sona_id=56823,"en-US,en;q=0.9",f3n2dckxfwlc4eo,21,"[""White""]",No,Female,NA,I'm not sure,833152.399999857,NA,15512,NA,"{""product_choice"":""A""}",choice,bw,binary,catch,null,microwave ovens,65,65,10,20,null,null,2,null,null,null,null,null,null,Warranty,Cooking power,NA,NA
NA,NA,NA,NA,NA,choice_trial_setup,html-keyboard-response,64,406663,0.0-4.0-0.30,174,1,2025-05-05T02:52:42Z,b60275e29fe2361ab97ac0ac217840d7,"Mozilla/5.0 (Windows NT 10.0; Win64; x64) AppleWebKit/537.36 (KHTML, like Gecko) Chrome/136.0.0.0 Safari/537.36",WebKit,Chrome,136.0.0.0,Windows,10,https://5puzkbbxv1.cognition.run/?sona_id=56823,"en-US,en;q=0.9",f3n2dckxfwlc4eo,21,"[""White""]",No,Female,NA,I'm not sure,833152.399999857,NA,null,<p></p>,null,choice,ctd,trinary,repulsion_A,1,televisions,null,null,null,null,null,null,2,NA,NA,NA,NA,NA,NA,NA,NA,NA,NA
NA,NA,NA,NA,NA,choice_trial,survey-html-form,65,427642,0.0-4.0-1.30,174,1,2025-05-05T02:52:42Z,b60275e29fe2361ab97ac0ac217840d7,"Mozilla/5.0 (Windows NT 10.0; Win64; x64) AppleWebKit/537.36 (KHTML, like Gecko) Chrome/136.0.0.0 Safari/537.36",WebKit,Chrome,136.0.0.0,Windows,10,https://5puzkbbxv1.cognition.run/?sona_id=56823,"en-US,en;q=0.9",f3n2dckxfwlc4eo,21,"[""White""]",No,Female,NA,I'm not sure,833152.399999857,NA,20971,NA,"{""product_choice"":""A""}",choice,ctd,trinary,repulsion_A,1,televisions,null,null,null,null,null,null,2,100,90,100,30,40,20,Screen size,Average lifespan,NA,NA
NA,NA,NA,NA,NA,choice_trial_setup,html-keyboard-response,66,427954,0.0-4.0-0.31,174,1,2025-05-05T02:52:42Z,b60275e29fe2361ab97ac0ac217840d7,"Mozilla/5.0 (Windows NT 10.0; Win64; x64) AppleWebKit/537.36 (KHTML, like Gecko) Chrome/136.0.0.0 Safari/537.36",WebKit,Chrome,136.0.0.0,Windows,10,https://5puzkbbxv1.cognition.run/?sona_id=56823,"en-US,en;q=0.9",f3n2dckxfwlc4eo,21,"[""White""]",No,Female,NA,I'm not sure,833152.399999857,NA,null,<p></p>,null,choice,wb,binary,catch,null,televisions,55,65,15,30,null,null,2,NA,NA,NA,NA,NA,NA,NA,NA,NA,NA
NA,NA,NA,NA,NA,choice_trial,survey-html-form,67,483596,0.0-4.0-1.31,174,1,2025-05-05T02:52:42Z,b60275e29fe2361ab97ac0ac217840d7,"Mozilla/5.0 (Windows NT 10.0; Win64; x64) AppleWebKit/537.36 (KHTML, like Gecko) Chrome/136.0.0.0 Safari/537.36",WebKit,Chrome,136.0.0.0,Windows,10,https://5puzkbbxv1.cognition.run/?sona_id=56823,"en-US,en;q=0.9",f3n2dckxfwlc4eo,21,"[""White""]",No,Female,NA,I'm not sure,833152.399999857,NA,55633,NA,"{""product_choice"":""B""}",choice,wb,binary,catch,null,televisions,55,65,15,30,null,null,2,null,null,null,null,null,null,Screen size,Average lifespan,NA,NA
NA,NA,NA,NA,NA,choice_trial_setup,html-keyboard-response,68,483907,0.0-4.0-0.32,174,1,2025-05-05T02:52:42Z,b60275e29fe2361ab97ac0ac217840d7,"Mozilla/5.0 (Windows NT 10.0; Win64; x64) AppleWebKit/537.36 (KHTML, like Gecko) Chrome/136.0.0.0 Safari/537.36",WebKit,Chrome,136.0.0.0,Windows,10,https://5puzkbbxv1.cognition.run/?sona_id=56823,"en-US,en;q=0.9",f3n2dckxfwlc4eo,21,"[""White""]",No,Female,NA,I'm not sure,833152.399999857,NA,null,<p></p>,null,choice,ct,binary,repulsion,2,microwave ovens,null,null,null,null,null,null,2,NA,NA,NA,NA,NA,NA,NA,NA,NA,NA
NA,NA,NA,NA,NA,choice_trial,survey-html-form,69,566580,0.0-4.0-1.32,174,1,2025-05-05T02:52:42Z,b60275e29fe2361ab97ac0ac217840d7,"Mozilla/5.0 (Windows NT 10.0; Win64; x64) AppleWebKit/537.36 (KHTML, like Gecko) Chrome/136.0.0.0 Safari/537.36",WebKit,Chrome,136.0.0.0,Windows,10,https://5puzkbbxv1.cognition.run/?sona_id=56823,"en-US,en;q=0.9",f3n2dckxfwlc4eo,21,"[""White""]",No,Female,NA,I'm not sure,833152.399999857,NA,82665,NA,"{""product_choice"":""A""}",choice,ct,binary,repulsion,2,microwave ovens,null,null,null,null,null,null,2,30,40,null,100,90,null,Warranty,Cooking power,NA,NA
NA,NA,NA,NA,NA,choice_trial_setup,html-keyboard-response,70,566895,0.0-4.0-0.33,174,1,2025-05-05T02:52:42Z,b60275e29fe2361ab97ac0ac217840d7,"Mozilla/5.0 (Windows NT 10.0; Win64; x64) AppleWebKit/537.36 (KHTML, like Gecko) Chrome/136.0.0.0 Safari/537.36",WebKit,Chrome,136.0.0.0,Windows,10,https://5puzkbbxv1.cognition.run/?sona_id=56823,"en-US,en;q=0.9",f3n2dckxfwlc4eo,21,"[""White""]",No,Female,NA,I'm not sure,833152.399999857,NA,null,<p></p>,null,choice,dtc,trinary,attraction,2,televisions,null,null,null,null,null,null,2,NA,NA,NA,NA,NA,NA,NA,NA,NA,NA
NA,NA,NA,NA,NA,choice_trial,survey-html-form,71,573692,0.0-4.0-1.33,174,1,2025-05-05T02:52:42Z,b60275e29fe2361ab97ac0ac217840d7,"Mozilla/5.0 (Windows NT 10.0; Win64; x64) AppleWebKit/537.36 (KHTML, like Gecko) Chrome/136.0.0.0 Safari/537.36",WebKit,Chrome,136.0.0.0,Windows,10,https://5puzkbbxv1.cognition.run/?sona_id=56823,"en-US,en;q=0.9",f3n2dckxfwlc4eo,21,"[""White""]",No,Female,NA,I'm not sure,833152.399999857,NA,6788,NA,"{""product_choice"":""B""}",choice,dtc,trinary,attraction,2,televisions,null,null,null,null,null,null,2,50,60,40,60,50,60,Screen size,Average lifespan,NA,NA
NA,NA,NA,NA,NA,choice_trial_setup,html-keyboard-response,72,574009,0.0-4.0-0.34,174,1,2025-05-05T02:52:42Z,b60275e29fe2361ab97ac0ac217840d7,"Mozilla/5.0 (Windows NT 10.0; Win64; x64) AppleWebKit/537.36 (KHTML, like Gecko) Chrome/136.0.0.0 Safari/537.36",WebKit,Chrome,136.0.0.0,Windows,10,https://5puzkbbxv1.cognition.run/?sona_id=56823,"en-US,en;q=0.9",f3n2dckxfwlc4eo,21,"[""White""]",No,Female,NA,I'm not sure,833152.399999857,NA,null,<p></p>,null,choice,cdt,trinary,repulsion_B,2,televisions,null,null,null,null,null,null,2,NA,NA,NA,NA,NA,NA,NA,NA,NA,NA
NA,NA,NA,NA,NA,choice_trial,survey-html-form,73,579163,0.0-4.0-1.34,174,1,2025-05-05T02:52:42Z,b60275e29fe2361ab97ac0ac217840d7,"Mozilla/5.0 (Windows NT 10.0; Win64; x64) AppleWebKit/537.36 (KHTML, like Gecko) Chrome/136.0.0.0 Safari/537.36",WebKit,Chrome,136.0.0.0,Windows,10,https://5puzkbbxv1.cognition.run/?sona_id=56823,"en-US,en;q=0.9",f3n2dckxfwlc4eo,21,"[""White""]",No,Female,NA,I'm not sure,833152.399999857,NA,5146,NA,"{""product_choice"":""C""}",choice,cdt,trinary,repulsion_B,2,televisions,null,null,null,null,null,null,2,40,30,40,90,100,80,Screen size,Average lifespan,NA,NA
NA,NA,NA,NA,NA,choice_trial_setup,html-keyboard-response,74,579478,0.0-4.0-0.35,174,1,2025-05-05T02:52:42Z,b60275e29fe2361ab97ac0ac217840d7,"Mozilla/5.0 (Windows NT 10.0; Win64; x64) AppleWebKit/537.36 (KHTML, like Gecko) Chrome/136.0.0.0 Safari/537.36",WebKit,Chrome,136.0.0.0,Windows,10,https://5puzkbbxv1.cognition.run/?sona_id=56823,"en-US,en;q=0.9",f3n2dckxfwlc4eo,21,"[""White""]",No,Female,NA,I'm not sure,833152.399999857,NA,null,<p></p>,null,choice,wwb,trinary,catch,null,laptops,60,70,10,25,10,50,2,NA,NA,NA,NA,NA,NA,NA,NA,NA,NA
NA,NA,NA,NA,NA,choice_trial,survey-html-form,75,583552,0.0-4.0-1.35,174,1,2025-05-05T02:52:42Z,b60275e29fe2361ab97ac0ac217840d7,"Mozilla/5.0 (Windows NT 10.0; Win64; x64) AppleWebKit/537.36 (KHTML, like Gecko) Chrome/136.0.0.0 Safari/537.36",WebKit,Chrome,136.0.0.0,Windows,10,https://5puzkbbxv1.cognition.run/?sona_id=56823,"en-US,en;q=0.9",f3n2dckxfwlc4eo,21,"[""White""]",No,Female,NA,I'm not sure,833152.399999857,NA,4063,NA,"{""product_choice"":""C""}",choice,wwb,trinary,catch,null,laptops,60,70,10,25,10,50,2,null,null,null,null,null,null,Processing speed,Memory (RAM),NA,NA
NA,NA,NA,NA,NA,choice_trial_setup,html-keyboard-response,76,583863,0.0-4.0-0.36,174,1,2025-05-05T02:52:42Z,b60275e29fe2361ab97ac0ac217840d7,"Mozilla/5.0 (Windows NT 10.0; Win64; x64) AppleWebKit/537.36 (KHTML, like Gecko) Chrome/136.0.0.0 Safari/537.36",WebKit,Chrome,136.0.0.0,Windows,10,https://5puzkbbxv1.cognition.run/?sona_id=56823,"en-US,en;q=0.9",f3n2dckxfwlc4eo,21,"[""White""]",No,Female,NA,I'm not sure,833152.399999857,NA,null,<p></p>,null,choice,dct,trinary,repulsion_A,2,washing machines,null,null,null,null,null,null,1,NA,NA,NA,NA,NA,NA,NA,NA,NA,NA
NA,NA,NA,NA,NA,choice_trial,survey-html-form,77,609303,0.0-4.0-1.36,174,1,2025-05-05T02:52:42Z,b60275e29fe2361ab97ac0ac217840d7,"Mozilla/5.0 (Windows NT 10.0; Win64; x64) AppleWebKit/537.36 (KHTML, like Gecko) Chrome/136.0.0.0 Safari/537.36",WebKit,Chrome,136.0.0.0,Windows,10,https://5puzkbbxv1.cognition.run/?sona_id=56823,"en-US,en;q=0.9",f3n2dckxfwlc4eo,21,"[""White""]",No,Female,NA,I'm not sure,833152.399999857,NA,25431,NA,"{""product_choice"":""B""}",choice,dct,trinary,repulsion_A,2,washing machines,null,null,null,null,null,null,1,30,40,20,100,90,100,Average lifespan,Energy savings,NA,NA
NA,NA,NA,NA,NA,choice_trial_setup,html-keyboard-response,78,609619,0.0-4.0-0.37,174,1,2025-05-05T02:52:42Z,b60275e29fe2361ab97ac0ac217840d7,"Mozilla/5.0 (Windows NT 10.0; Win64; x64) AppleWebKit/537.36 (KHTML, like Gecko) Chrome/136.0.0.0 Safari/537.36",WebKit,Chrome,136.0.0.0,Windows,10,https://5puzkbbxv1.cognition.run/?sona_id=56823,"en-US,en;q=0.9",f3n2dckxfwlc4eo,21,"[""White""]",No,Female,NA,I'm not sure,833152.399999857,NA,null,<p></p>,null,choice,tc,binary,repulsion,1,washing machines,null,null,null,null,null,null,1,NA,NA,NA,NA,NA,NA,NA,NA,NA,NA
NA,NA,NA,NA,NA,choice_trial,survey-html-form,79,615541,0.0-4.0-1.37,174,1,2025-05-05T02:52:42Z,b60275e29fe2361ab97ac0ac217840d7,"Mozilla/5.0 (Windows NT 10.0; Win64; x64) AppleWebKit/537.36 (KHTML, like Gecko) Chrome/136.0.0.0 Safari/537.36",WebKit,Chrome,136.0.0.0,Windows,10,https://5puzkbbxv1.cognition.run/?sona_id=56823,"en-US,en;q=0.9",f3n2dckxfwlc4eo,21,"[""White""]",No,Female,NA,I'm not sure,833152.399999857,NA,5911,NA,"{""product_choice"":""B""}",choice,tc,binary,repulsion,1,washing machines,null,null,null,null,null,null,1,100,90,null,30,40,null,Average lifespan,Energy savings,NA,NA
NA,NA,NA,NA,NA,choice_trial_setup,html-keyboard-response,80,615856,0.0-4.0-0.38,174,1,2025-05-05T02:52:42Z,b60275e29fe2361ab97ac0ac217840d7,"Mozilla/5.0 (Windows NT 10.0; Win64; x64) AppleWebKit/537.36 (KHTML, like Gecko) Chrome/136.0.0.0 Safari/537.36",WebKit,Chrome,136.0.0.0,Windows,10,https://5puzkbbxv1.cognition.run/?sona_id=56823,"en-US,en;q=0.9",f3n2dckxfwlc4eo,21,"[""White""]",No,Female,NA,I'm not sure,833152.399999857,NA,null,<p></p>,null,choice,tcd,trinary,attraction,2,microwave ovens,null,null,null,null,null,null,2,NA,NA,NA,NA,NA,NA,NA,NA,NA,NA
NA,NA,NA,NA,NA,choice_trial,survey-html-form,81,641496,0.0-4.0-1.38,174,1,2025-05-05T02:52:42Z,b60275e29fe2361ab97ac0ac217840d7,"Mozilla/5.0 (Windows NT 10.0; Win64; x64) AppleWebKit/537.36 (KHTML, like Gecko) Chrome/136.0.0.0 Safari/537.36",WebKit,Chrome,136.0.0.0,Windows,10,https://5puzkbbxv1.cognition.run/?sona_id=56823,"en-US,en;q=0.9",f3n2dckxfwlc4eo,21,"[""White""]",No,Female,NA,I'm not sure,833152.399999857,NA,25631,NA,"{""product_choice"":""A""}",choice,tcd,trinary,attraction,2,microwave ovens,null,null,null,null,null,null,2,50,60,40,60,50,60,Warranty,Cooking power,NA,NA
NA,NA,NA,NA,NA,choice_trial_setup,html-keyboard-response,82,641807,0.0-4.0-0.39,174,1,2025-05-05T02:52:42Z,b60275e29fe2361ab97ac0ac217840d7,"Mozilla/5.0 (Windows NT 10.0; Win64; x64) AppleWebKit/537.36 (KHTML, like Gecko) Chrome/136.0.0.0 Safari/537.36",WebKit,Chrome,136.0.0.0,Windows,10,https://5puzkbbxv1.cognition.run/?sona_id=56823,"en-US,en;q=0.9",f3n2dckxfwlc4eo,21,"[""White""]",No,Female,NA,I'm not sure,833152.399999857,NA,null,<p></p>,null,choice,tdc,trinary,attraction,2,laptops,null,null,null,null,null,null,2,NA,NA,NA,NA,NA,NA,NA,NA,NA,NA
NA,NA,NA,NA,NA,choice_trial,survey-html-form,83,646500,0.0-4.0-1.39,174,1,2025-05-05T02:52:42Z,b60275e29fe2361ab97ac0ac217840d7,"Mozilla/5.0 (Windows NT 10.0; Win64; x64) AppleWebKit/537.36 (KHTML, like Gecko) Chrome/136.0.0.0 Safari/537.36",WebKit,Chrome,136.0.0.0,Windows,10,https://5puzkbbxv1.cognition.run/?sona_id=56823,"en-US,en;q=0.9",f3n2dckxfwlc4eo,21,"[""White""]",No,Female,NA,I'm not sure,833152.399999857,NA,4683,NA,"{""product_choice"":""C""}",choice,tdc,trinary,attraction,2,laptops,null,null,null,null,null,null,2,50,60,40,60,50,60,Processing speed,Memory (RAM),NA,NA
NA,NA,NA,NA,NA,choice_trial_setup,html-keyboard-response,84,646820,0.0-4.0-0.40,174,1,2025-05-05T02:52:42Z,b60275e29fe2361ab97ac0ac217840d7,"Mozilla/5.0 (Windows NT 10.0; Win64; x64) AppleWebKit/537.36 (KHTML, like Gecko) Chrome/136.0.0.0 Safari/537.36",WebKit,Chrome,136.0.0.0,Windows,10,https://5puzkbbxv1.cognition.run/?sona_id=56823,"en-US,en;q=0.9",f3n2dckxfwlc4eo,21,"[""White""]",No,Female,NA,I'm not sure,833152.399999857,NA,null,<p></p>,null,choice,ctd,trinary,repulsion_A,2,laptops,null,null,null,null,null,null,1,NA,NA,NA,NA,NA,NA,NA,NA,NA,NA
NA,NA,NA,NA,NA,choice_trial,survey-html-form,85,651812,0.0-4.0-1.40,174,1,2025-05-05T02:52:42Z,b60275e29fe2361ab97ac0ac217840d7,"Mozilla/5.0 (Windows NT 10.0; Win64; x64) AppleWebKit/537.36 (KHTML, like Gecko) Chrome/136.0.0.0 Safari/537.36",WebKit,Chrome,136.0.0.0,Windows,10,https://5puzkbbxv1.cognition.run/?sona_id=56823,"en-US,en;q=0.9",f3n2dckxfwlc4eo,21,"[""White""]",No,Female,NA,I'm not sure,833152.399999857,NA,4983,NA,"{""product_choice"":""A""}",choice,ctd,trinary,repulsion_A,2,laptops,null,null,null,null,null,null,1,30,40,20,100,90,100,Processing speed,Memory (RAM),NA,NA
NA,NA,NA,NA,NA,choice_trial_setup,html-keyboard-response,86,652122,0.0-4.0-0.41,174,1,2025-05-05T02:52:42Z,b60275e29fe2361ab97ac0ac217840d7,"Mozilla/5.0 (Windows NT 10.0; Win64; x64) AppleWebKit/537.36 (KHTML, like Gecko) Chrome/136.0.0.0 Safari/537.36",WebKit,Chrome,136.0.0.0,Windows,10,https://5puzkbbxv1.cognition.run/?sona_id=56823,"en-US,en;q=0.9",f3n2dckxfwlc4eo,21,"[""White""]",No,Female,NA,I'm not sure,833152.399999857,NA,null,<p></p>,null,choice,wwb,trinary,catch,null,microwave ovens,50,70,50,40,45,25,1,NA,NA,NA,NA,NA,NA,NA,NA,NA,NA
NA,NA,NA,NA,NA,choice_trial,survey-html-form,87,662559,0.0-4.0-1.41,174,1,2025-05-05T02:52:42Z,b60275e29fe2361ab97ac0ac217840d7,"Mozilla/5.0 (Windows NT 10.0; Win64; x64) AppleWebKit/537.36 (KHTML, like Gecko) Chrome/136.0.0.0 Safari/537.36",WebKit,Chrome,136.0.0.0,Windows,10,https://5puzkbbxv1.cognition.run/?sona_id=56823,"en-US,en;q=0.9",f3n2dckxfwlc4eo,21,"[""White""]",No,Female,NA,I'm not sure,833152.399999857,NA,10427,NA,"{""product_choice"":""C""}",choice,wwb,trinary,catch,null,microwave ovens,50,70,50,40,45,25,1,null,null,null,null,null,null,Warranty,Cooking power,NA,NA
NA,NA,NA,NA,NA,choice_trial_setup,html-keyboard-response,88,662878,0.0-4.0-0.42,174,1,2025-05-05T02:52:42Z,b60275e29fe2361ab97ac0ac217840d7,"Mozilla/5.0 (Windows NT 10.0; Win64; x64) AppleWebKit/537.36 (KHTML, like Gecko) Chrome/136.0.0.0 Safari/537.36",WebKit,Chrome,136.0.0.0,Windows,10,https://5puzkbbxv1.cognition.run/?sona_id=56823,"en-US,en;q=0.9",f3n2dckxfwlc4eo,21,"[""White""]",No,Female,NA,I'm not sure,833152.399999857,NA,null,<p></p>,null,choice,wwb,trinary,catch,null,washing machines,50,95,40,35,35,45,1,NA,NA,NA,NA,NA,NA,NA,NA,NA,NA
NA,NA,NA,NA,NA,choice_trial,survey-html-form,89,669627,0.0-4.0-1.42,174,1,2025-05-05T02:52:42Z,b60275e29fe2361ab97ac0ac217840d7,"Mozilla/5.0 (Windows NT 10.0; Win64; x64) AppleWebKit/537.36 (KHTML, like Gecko) Chrome/136.0.0.0 Safari/537.36",WebKit,Chrome,136.0.0.0,Windows,10,https://5puzkbbxv1.cognition.run/?sona_id=56823,"en-US,en;q=0.9",f3n2dckxfwlc4eo,21,"[""White""]",No,Female,NA,I'm not sure,833152.399999857,NA,6738,NA,"{""product_choice"":""C""}",choice,wwb,trinary,catch,null,washing machines,50,95,40,35,35,45,1,null,null,null,null,null,null,Average lifespan,Energy savings,NA,NA
NA,NA,NA,NA,NA,choice_trial_setup,html-keyboard-response,90,669937,0.0-4.0-0.43,174,1,2025-05-05T02:52:42Z,b60275e29fe2361ab97ac0ac217840d7,"Mozilla/5.0 (Windows NT 10.0; Win64; x64) AppleWebKit/537.36 (KHTML, like Gecko) Chrome/136.0.0.0 Safari/537.36",WebKit,Chrome,136.0.0.0,Windows,10,https://5puzkbbxv1.cognition.run/?sona_id=56823,"en-US,en;q=0.9",f3n2dckxfwlc4eo,21,"[""White""]",No,Female,NA,I'm not sure,833152.399999857,NA,null,<p></p>,null,choice,ct,binary,attraction,NA,televisions,null,null,null,null,null,null,2,NA,NA,NA,NA,NA,NA,NA,NA,NA,NA
NA,NA,NA,NA,NA,choice_trial,survey-html-form,91,674768,0.0-4.0-1.43,174,1,2025-05-05T02:52:42Z,b60275e29fe2361ab97ac0ac217840d7,"Mozilla/5.0 (Windows NT 10.0; Win64; x64) AppleWebKit/537.36 (KHTML, like Gecko) Chrome/136.0.0.0 Safari/537.36",WebKit,Chrome,136.0.0.0,Windows,10,https://5puzkbbxv1.cognition.run/?sona_id=56823,"en-US,en;q=0.9",f3n2dckxfwlc4eo,21,"[""White""]",No,Female,NA,I'm not sure,833152.399999857,NA,4822,NA,"{""product_choice"":""A""}",choice,ct,binary,attraction,NA,televisions,null,null,null,null,null,null,2,60,50,null,50,60,null,Screen size,Average lifespan,NA,NA
NA,NA,NA,NA,NA,post_trials_message,html-button-response,92,676908,0.0-5.0,174,1,2025-05-05T02:52:42Z,b60275e29fe2361ab97ac0ac217840d7,"Mozilla/5.0 (Windows NT 10.0; Win64; x64) AppleWebKit/537.36 (KHTML, like Gecko) Chrome/136.0.0.0 Safari/537.36",WebKit,Chrome,136.0.0.0,Windows,10,https://5puzkbbxv1.cognition.run/?sona_id=56823,"en-US,en;q=0.9",f3n2dckxfwlc4eo,21,"[""White""]",No,Female,NA,I'm not sure,833152.399999857,NA,2128,<p> <b>Thank you for your patience!</b></p><p>  The study will be done after completing a brief form. </p>,0,NA,NA,NA,NA,NA,NA,NA,NA,NA,NA,NA,NA,NA,NA,NA,NA,NA,NA,NA,NA,NA,NA,NA
NA,NA,NA,NA,NA,survey_message,survey-text,93,787372,0.0-6.0,174,1,2025-05-05T02:52:42Z,b60275e29fe2361ab97ac0ac217840d7,"Mozilla/5.0 (Windows NT 10.0; Win64; x64) AppleWebKit/537.36 (KHTML, like Gecko) Chrome/136.0.0.0 Safari/537.36",WebKit,Chrome,136.0.0.0,Windows,10,https://5puzkbbxv1.cognition.run/?sona_id=56823,"en-US,en;q=0.9",f3n2dckxfwlc4eo,21,"[""White""]",No,Female,NA,I'm not sure,833152.399999857,NA,110448,NA,"{""Q0"":""I tried to get the best of both world where I could-like picking 90 instead of 100 for one variable if it was made up for a bit through the other variable. It was easiest when one product was best for both variables. When it was split like 60/50 vs 50/60 or something of the sort where one variable had to take priority, I just tried to choose the one I deemed more valuable. ""}",NA,NA,NA,NA,NA,NA,NA,NA,NA,NA,NA,NA,NA,NA,NA,NA,NA,NA,NA,NA,NA,"I tried to get the best of both world where I could-like picking 90 instead of 100 for one variable if it was made up for a bit through the other variable. It was easiest when one product was best for both variables. When it was split like 60/50 vs 50/60 or something of the sort where one variable had to take priority, I just tried to choose the one I deemed more valuable.",NA
NA,NA,NA,NA,NA,demo_age,survey-text,94,790354,0.0-7.0,174,1,2025-05-05T02:52:42Z,b60275e29fe2361ab97ac0ac217840d7,"Mozilla/5.0 (Windows NT 10.0; Win64; x64) AppleWebKit/537.36 (KHTML, like Gecko) Chrome/136.0.0.0 Safari/537.36",WebKit,Chrome,136.0.0.0,Windows,10,https://5puzkbbxv1.cognition.run/?sona_id=56823,"en-US,en;q=0.9",f3n2dckxfwlc4eo,21,"[""White""]",No,Female,NA,I'm not sure,833152.399999857,NA,2968,NA,"{""Q0"":""21""}",NA,NA,NA,NA,NA,NA,NA,NA,NA,NA,NA,NA,NA,NA,NA,NA,NA,NA,NA,NA,NA,NA,NA
NA,NA,NA,NA,NA,demo_race,survey-multi-select,95,793163,0.0-8.0,174,1,2025-05-05T02:52:42Z,b60275e29fe2361ab97ac0ac217840d7,"Mozilla/5.0 (Windows NT 10.0; Win64; x64) AppleWebKit/537.36 (KHTML, like Gecko) Chrome/136.0.0.0 Safari/537.36",WebKit,Chrome,136.0.0.0,Windows,10,https://5puzkbbxv1.cognition.run/?sona_id=56823,"en-US,en;q=0.9",f3n2dckxfwlc4eo,21,"[""White""]",No,Female,NA,I'm not sure,833152.399999857,NA,2765,NA,"{""Q0"":[""White""]}",NA,NA,NA,NA,NA,NA,NA,NA,NA,NA,NA,NA,NA,NA,NA,NA,NA,NA,NA,NA,NA,NA,[0]
NA,NA,NA,NA,NA,demo_ethnicity_gender,survey-multi-choice,96,797757,0.0-9.0,174,1,2025-05-05T02:52:42Z,b60275e29fe2361ab97ac0ac217840d7,"Mozilla/5.0 (Windows NT 10.0; Win64; x64) AppleWebKit/537.36 (KHTML, like Gecko) Chrome/136.0.0.0 Safari/537.36",WebKit,Chrome,136.0.0.0,Windows,10,https://5puzkbbxv1.cognition.run/?sona_id=56823,"en-US,en;q=0.9",f3n2dckxfwlc4eo,21,"[""White""]",No,Female,NA,I'm not sure,833152.399999857,NA,4580,NA,"{""Q0"":""No"",""Q1"":""Female""}",NA,NA,NA,NA,NA,NA,NA,NA,NA,NA,NA,NA,NA,NA,NA,NA,NA,NA,NA,NA,NA,NA,"[0,1]"
NA,NA,NA,NA,NA,demo_countries,survey-text,97,805904,0.0-10.0,174,1,2025-05-05T02:52:42Z,b60275e29fe2361ab97ac0ac217840d7,"Mozilla/5.0 (Windows NT 10.0; Win64; x64) AppleWebKit/537.36 (KHTML, like Gecko) Chrome/136.0.0.0 Safari/537.36",WebKit,Chrome,136.0.0.0,Windows,10,https://5puzkbbxv1.cognition.run/?sona_id=56823,"en-US,en;q=0.9",f3n2dckxfwlc4eo,21,"[""White""]",No,Female,NA,I'm not sure,833152.399999857,NA,8119,NA,"{""Q0"":""NA""}",NA,NA,NA,NA,NA,NA,NA,NA,NA,NA,NA,NA,NA,NA,NA,NA,NA,NA,NA,NA,NA,NA,NA
NA,NA,NA,NA,NA,demo_prev_study,survey-multi-choice,98,819942,0.0-11.0,174,1,2025-05-05T02:52:42Z,b60275e29fe2361ab97ac0ac217840d7,"Mozilla/5.0 (Windows NT 10.0; Win64; x64) AppleWebKit/537.36 (KHTML, like Gecko) Chrome/136.0.0.0 Safari/537.36",WebKit,Chrome,136.0.0.0,Windows,10,https://5puzkbbxv1.cognition.run/?sona_id=56823,"en-US,en;q=0.9",f3n2dckxfwlc4eo,21,"[""White""]",No,Female,NA,I'm not sure,833152.399999857,NA,14028,NA,"{""Q0"":""I'm not sure""}",NA,NA,NA,NA,NA,NA,NA,NA,NA,NA,NA,NA,NA,NA,NA,NA,NA,NA,NA,NA,NA,NA,[0]
NA,NA,NA,NA,NA,post_survey_message,html-keyboard-response,99,824506,0.0-12.0,174,1,2025-05-05T02:52:42Z,b60275e29fe2361ab97ac0ac217840d7,"Mozilla/5.0 (Windows NT 10.0; Win64; x64) AppleWebKit/537.36 (KHTML, like Gecko) Chrome/136.0.0.0 Safari/537.36",WebKit,Chrome,136.0.0.0,Windows,10,https://5puzkbbxv1.cognition.run/?sona_id=56823,"en-US,en;q=0.9",f3n2dckxfwlc4eo,21,"[""White""]",No,Female,NA,I'm not sure,833152.399999857,NA,4551,NA,j,NA,NA,NA,NA,NA,NA,NA,NA,NA,NA,NA,NA,NA,NA,NA,NA,NA,NA,NA,NA,NA,NA,NA
NA,NA,NA,NA,NA,debrief,image-keyboard-response,100,833144,0.0-13.0,174,1,2025-05-05T02:52:42Z,b60275e29fe2361ab97ac0ac217840d7,"Mozilla/5.0 (Windows NT 10.0; Win64; x64) AppleWebKit/537.36 (KHTML, like Gecko) Chrome/136.0.0.0 Safari/537.36",WebKit,Chrome,136.0.0.0,Windows,10,https://5puzkbbxv1.cognition.run/?sona_id=56823,"en-US,en;q=0.9",f3n2dckxfwlc4eo,21,"[""White""]",No,Female,NA,I'm not sure,833152.399999857,NA,8620,Judg_choice_debrief.png,p,NA,NA,NA,NA,NA,NA,NA,NA,NA,NA,NA,NA,NA,NA,NA,NA,NA,NA,NA,NA,NA,NA,NA
