success,timeout,failed_images,failed_audio,failed_video,screen_id,trial_type,trial_index,time_elapsed,internal_node_id,run_id,condition,recorded_at,source_code_version,user_agent,device,browser,browser_version,platform,platform_version,referer,accept_language,ppt_id,age,race,ethnicity,gender,other_countries,prev_study,exp_duration,view_history,rt,stimulus,response,phase,order,set,effect,t_high,category,d1_best,d2_best,d1_worst1,d2_worst1,d1_worst2,d2_worst2,first_dim,d1_t,d1_c,d1_d,d2_t,d2_c,d2_d,d1_name,d2_name,strategy_response,question_order
TRUE,FALSE,[],[],[],img preload,preload,0,482,0.0-0.0,177,1,2025-05-05T04:27:09Z,b60275e29fe2361ab97ac0ac217840d7,"Mozilla/5.0 (Macintosh; Intel Mac OS X 10_15_7) AppleWebKit/605.1.15 (KHTML, like Gecko) Version/17.5 Safari/605.1.15",Macintosh,Safari,17.5,OS X,10_15_7,https://5puzkbbxv1.cognition.run/?sona_id=47910,"en-US,en;q=0.9",uqpbu7704lpk5aw,23,"[""Asian""]",No,Female,India: 19 years,I'm not sure,992262,NA,NA,NA,NA,NA,NA,NA,NA,NA,NA,NA,NA,NA,NA,NA,NA,NA,NA,NA,NA,NA,NA,NA,NA,NA,NA,NA
NA,NA,NA,NA,NA,computer_message,instructions,1,5842,0.0-1.0,177,1,2025-05-05T04:27:09Z,b60275e29fe2361ab97ac0ac217840d7,"Mozilla/5.0 (Macintosh; Intel Mac OS X 10_15_7) AppleWebKit/605.1.15 (KHTML, like Gecko) Version/17.5 Safari/605.1.15",Macintosh,Safari,17.5,OS X,10_15_7,https://5puzkbbxv1.cognition.run/?sona_id=47910,"en-US,en;q=0.9",uqpbu7704lpk5aw,23,"[""Asian""]",No,Female,India: 19 years,I'm not sure,992262,"[{""page_index"":0,""viewing_time"":5355}]",5355,NA,NA,NA,NA,NA,NA,NA,NA,NA,NA,NA,NA,NA,NA,NA,NA,NA,NA,NA,NA,NA,NA,NA,NA,NA
TRUE,NA,NA,NA,NA,NA,fullscreen,2,7825,0.0-2.0,177,1,2025-05-05T04:27:09Z,b60275e29fe2361ab97ac0ac217840d7,"Mozilla/5.0 (Macintosh; Intel Mac OS X 10_15_7) AppleWebKit/605.1.15 (KHTML, like Gecko) Version/17.5 Safari/605.1.15",Macintosh,Safari,17.5,OS X,10_15_7,https://5puzkbbxv1.cognition.run/?sona_id=47910,"en-US,en;q=0.9",uqpbu7704lpk5aw,23,"[""Asian""]",No,Female,India: 19 years,I'm not sure,992262,NA,977,NA,NA,NA,NA,NA,NA,NA,NA,NA,NA,NA,NA,NA,NA,NA,NA,NA,NA,NA,NA,NA,NA,NA,NA,NA
NA,NA,NA,NA,NA,choice_instructions,instructions,3,143257,0.0-3.0,177,1,2025-05-05T04:27:09Z,b60275e29fe2361ab97ac0ac217840d7,"Mozilla/5.0 (Macintosh; Intel Mac OS X 10_15_7) AppleWebKit/605.1.15 (KHTML, like Gecko) Version/17.5 Safari/605.1.15",Macintosh,Safari,17.5,OS X,10_15_7,https://5puzkbbxv1.cognition.run/?sona_id=47910,"en-US,en;q=0.9",uqpbu7704lpk5aw,23,"[""Asian""]",No,Female,India: 19 years,I'm not sure,992262,"[{""page_index"":0,""viewing_time"":2094},{""page_index"":1,""viewing_time"":7322},{""page_index"":2,""viewing_time"":6621},{""page_index"":3,""viewing_time"":6784},{""page_index"":4,""viewing_time"":72704},{""page_index"":5,""viewing_time"":30858},{""page_index"":6,""viewing_time"":9027}]",135416,NA,NA,NA,NA,NA,NA,NA,NA,NA,NA,NA,NA,NA,NA,NA,NA,NA,NA,NA,NA,NA,NA,NA,NA,NA
NA,NA,NA,NA,NA,choice_trial_setup,html-keyboard-response,4,143584,0.0-4.0-0.0,177,1,2025-05-05T04:27:09Z,b60275e29fe2361ab97ac0ac217840d7,"Mozilla/5.0 (Macintosh; Intel Mac OS X 10_15_7) AppleWebKit/605.1.15 (KHTML, like Gecko) Version/17.5 Safari/605.1.15",Macintosh,Safari,17.5,OS X,10_15_7,https://5puzkbbxv1.cognition.run/?sona_id=47910,"en-US,en;q=0.9",uqpbu7704lpk5aw,23,"[""Asian""]",No,Female,India: 19 years,I'm not sure,992262,NA,null,<p></p>,null,choice,bww,trinary,catch,null,televisions,55,95,5,40,40,30,2,NA,NA,NA,NA,NA,NA,NA,NA,NA,NA
NA,NA,NA,NA,NA,choice_trial,survey-html-form,5,162904,0.0-4.0-1.0,177,1,2025-05-05T04:27:09Z,b60275e29fe2361ab97ac0ac217840d7,"Mozilla/5.0 (Macintosh; Intel Mac OS X 10_15_7) AppleWebKit/605.1.15 (KHTML, like Gecko) Version/17.5 Safari/605.1.15",Macintosh,Safari,17.5,OS X,10_15_7,https://5puzkbbxv1.cognition.run/?sona_id=47910,"en-US,en;q=0.9",uqpbu7704lpk5aw,23,"[""Asian""]",No,Female,India: 19 years,I'm not sure,992262,NA,19306,NA,"{""product_choice"":""A""}",choice,bww,trinary,catch,null,televisions,55,95,5,40,40,30,2,null,null,null,null,null,null,Screen size,Average lifespan,NA,NA
NA,NA,NA,NA,NA,choice_trial_setup,html-keyboard-response,6,163208,0.0-4.0-0.1,177,1,2025-05-05T04:27:09Z,b60275e29fe2361ab97ac0ac217840d7,"Mozilla/5.0 (Macintosh; Intel Mac OS X 10_15_7) AppleWebKit/605.1.15 (KHTML, like Gecko) Version/17.5 Safari/605.1.15",Macintosh,Safari,17.5,OS X,10_15_7,https://5puzkbbxv1.cognition.run/?sona_id=47910,"en-US,en;q=0.9",uqpbu7704lpk5aw,23,"[""Asian""]",No,Female,India: 19 years,I'm not sure,992262,NA,null,<p></p>,null,choice,dtc,trinary,repulsion_A,1,televisions,null,null,null,null,null,null,2,NA,NA,NA,NA,NA,NA,NA,NA,NA,NA
NA,NA,NA,NA,NA,choice_trial,survey-html-form,7,179489,0.0-4.0-1.1,177,1,2025-05-05T04:27:09Z,b60275e29fe2361ab97ac0ac217840d7,"Mozilla/5.0 (Macintosh; Intel Mac OS X 10_15_7) AppleWebKit/605.1.15 (KHTML, like Gecko) Version/17.5 Safari/605.1.15",Macintosh,Safari,17.5,OS X,10_15_7,https://5puzkbbxv1.cognition.run/?sona_id=47910,"en-US,en;q=0.9",uqpbu7704lpk5aw,23,"[""Asian""]",No,Female,India: 19 years,I'm not sure,992262,NA,16277,NA,"{""product_choice"":""B""}",choice,dtc,trinary,repulsion_A,1,televisions,null,null,null,null,null,null,2,100,90,100,30,40,20,Screen size,Average lifespan,NA,NA
NA,NA,NA,NA,NA,choice_trial_setup,html-keyboard-response,8,179791,0.0-4.0-0.2,177,1,2025-05-05T04:27:09Z,b60275e29fe2361ab97ac0ac217840d7,"Mozilla/5.0 (Macintosh; Intel Mac OS X 10_15_7) AppleWebKit/605.1.15 (KHTML, like Gecko) Version/17.5 Safari/605.1.15",Macintosh,Safari,17.5,OS X,10_15_7,https://5puzkbbxv1.cognition.run/?sona_id=47910,"en-US,en;q=0.9",uqpbu7704lpk5aw,23,"[""Asian""]",No,Female,India: 19 years,I'm not sure,992262,NA,null,<p></p>,null,choice,ct,binary,attraction,NA,washing machines,null,null,null,null,null,null,2,NA,NA,NA,NA,NA,NA,NA,NA,NA,NA
NA,NA,NA,NA,NA,choice_trial,survey-html-form,9,198230,0.0-4.0-1.2,177,1,2025-05-05T04:27:09Z,b60275e29fe2361ab97ac0ac217840d7,"Mozilla/5.0 (Macintosh; Intel Mac OS X 10_15_7) AppleWebKit/605.1.15 (KHTML, like Gecko) Version/17.5 Safari/605.1.15",Macintosh,Safari,17.5,OS X,10_15_7,https://5puzkbbxv1.cognition.run/?sona_id=47910,"en-US,en;q=0.9",uqpbu7704lpk5aw,23,"[""Asian""]",No,Female,India: 19 years,I'm not sure,992262,NA,18437,NA,"{""product_choice"":""A""}",choice,ct,binary,attraction,NA,washing machines,null,null,null,null,null,null,2,60,50,null,50,60,null,Average lifespan,Energy savings,NA,NA
NA,NA,NA,NA,NA,choice_trial_setup,html-keyboard-response,10,198533,0.0-4.0-0.3,177,1,2025-05-05T04:27:09Z,b60275e29fe2361ab97ac0ac217840d7,"Mozilla/5.0 (Macintosh; Intel Mac OS X 10_15_7) AppleWebKit/605.1.15 (KHTML, like Gecko) Version/17.5 Safari/605.1.15",Macintosh,Safari,17.5,OS X,10_15_7,https://5puzkbbxv1.cognition.run/?sona_id=47910,"en-US,en;q=0.9",uqpbu7704lpk5aw,23,"[""Asian""]",No,Female,India: 19 years,I'm not sure,992262,NA,null,<p></p>,null,choice,dct,trinary,attraction,1,washing machines,null,null,null,null,null,null,2,NA,NA,NA,NA,NA,NA,NA,NA,NA,NA
NA,NA,NA,NA,NA,choice_trial,survey-html-form,11,233027,0.0-4.0-1.3,177,1,2025-05-05T04:27:09Z,b60275e29fe2361ab97ac0ac217840d7,"Mozilla/5.0 (Macintosh; Intel Mac OS X 10_15_7) AppleWebKit/605.1.15 (KHTML, like Gecko) Version/17.5 Safari/605.1.15",Macintosh,Safari,17.5,OS X,10_15_7,https://5puzkbbxv1.cognition.run/?sona_id=47910,"en-US,en;q=0.9",uqpbu7704lpk5aw,23,"[""Asian""]",No,Female,India: 19 years,I'm not sure,992262,NA,34490,NA,"{""product_choice"":""C""}",choice,dct,trinary,attraction,1,washing machines,null,null,null,null,null,null,2,60,50,60,50,60,40,Average lifespan,Energy savings,NA,NA
NA,NA,NA,NA,NA,choice_trial_setup,html-keyboard-response,12,233330,0.0-4.0-0.4,177,1,2025-05-05T04:27:09Z,b60275e29fe2361ab97ac0ac217840d7,"Mozilla/5.0 (Macintosh; Intel Mac OS X 10_15_7) AppleWebKit/605.1.15 (KHTML, like Gecko) Version/17.5 Safari/605.1.15",Macintosh,Safari,17.5,OS X,10_15_7,https://5puzkbbxv1.cognition.run/?sona_id=47910,"en-US,en;q=0.9",uqpbu7704lpk5aw,23,"[""Asian""]",No,Female,India: 19 years,I'm not sure,992262,NA,null,<p></p>,null,choice,ctd,trinary,attraction,1,microwave ovens,null,null,null,null,null,null,2,NA,NA,NA,NA,NA,NA,NA,NA,NA,NA
NA,NA,NA,NA,NA,choice_trial,survey-html-form,13,261639,0.0-4.0-1.4,177,1,2025-05-05T04:27:09Z,b60275e29fe2361ab97ac0ac217840d7,"Mozilla/5.0 (Macintosh; Intel Mac OS X 10_15_7) AppleWebKit/605.1.15 (KHTML, like Gecko) Version/17.5 Safari/605.1.15",Macintosh,Safari,17.5,OS X,10_15_7,https://5puzkbbxv1.cognition.run/?sona_id=47910,"en-US,en;q=0.9",uqpbu7704lpk5aw,23,"[""Asian""]",No,Female,India: 19 years,I'm not sure,992262,NA,28303,NA,"{""product_choice"":""B""}",choice,ctd,trinary,attraction,1,microwave ovens,null,null,null,null,null,null,2,60,50,60,50,60,40,Warranty,Cooking power,NA,NA
NA,NA,NA,NA,NA,choice_trial_setup,html-keyboard-response,14,261942,0.0-4.0-0.5,177,1,2025-05-05T04:27:09Z,b60275e29fe2361ab97ac0ac217840d7,"Mozilla/5.0 (Macintosh; Intel Mac OS X 10_15_7) AppleWebKit/605.1.15 (KHTML, like Gecko) Version/17.5 Safari/605.1.15",Macintosh,Safari,17.5,OS X,10_15_7,https://5puzkbbxv1.cognition.run/?sona_id=47910,"en-US,en;q=0.9",uqpbu7704lpk5aw,23,"[""Asian""]",No,Female,India: 19 years,I'm not sure,992262,NA,null,<p></p>,null,choice,tdc,trinary,repulsion_B,2,washing machines,null,null,null,null,null,null,2,NA,NA,NA,NA,NA,NA,NA,NA,NA,NA
NA,NA,NA,NA,NA,choice_trial,survey-html-form,15,273197,0.0-4.0-1.5,177,1,2025-05-05T04:27:09Z,b60275e29fe2361ab97ac0ac217840d7,"Mozilla/5.0 (Macintosh; Intel Mac OS X 10_15_7) AppleWebKit/605.1.15 (KHTML, like Gecko) Version/17.5 Safari/605.1.15",Macintosh,Safari,17.5,OS X,10_15_7,https://5puzkbbxv1.cognition.run/?sona_id=47910,"en-US,en;q=0.9",uqpbu7704lpk5aw,23,"[""Asian""]",No,Female,India: 19 years,I'm not sure,992262,NA,11251,NA,"{""product_choice"":""A""}",choice,tdc,trinary,repulsion_B,2,washing machines,null,null,null,null,null,null,2,40,30,40,90,100,80,Average lifespan,Energy savings,NA,NA
NA,NA,NA,NA,NA,choice_trial_setup,html-keyboard-response,16,273500,0.0-4.0-0.6,177,1,2025-05-05T04:27:09Z,b60275e29fe2361ab97ac0ac217840d7,"Mozilla/5.0 (Macintosh; Intel Mac OS X 10_15_7) AppleWebKit/605.1.15 (KHTML, like Gecko) Version/17.5 Safari/605.1.15",Macintosh,Safari,17.5,OS X,10_15_7,https://5puzkbbxv1.cognition.run/?sona_id=47910,"en-US,en;q=0.9",uqpbu7704lpk5aw,23,"[""Asian""]",No,Female,India: 19 years,I'm not sure,992262,NA,null,<p></p>,null,choice,wb,binary,catch,null,laptops,70,50,25,40,null,null,1,NA,NA,NA,NA,NA,NA,NA,NA,NA,NA
NA,NA,NA,NA,NA,choice_trial,survey-html-form,17,282650,0.0-4.0-1.6,177,1,2025-05-05T04:27:09Z,b60275e29fe2361ab97ac0ac217840d7,"Mozilla/5.0 (Macintosh; Intel Mac OS X 10_15_7) AppleWebKit/605.1.15 (KHTML, like Gecko) Version/17.5 Safari/605.1.15",Macintosh,Safari,17.5,OS X,10_15_7,https://5puzkbbxv1.cognition.run/?sona_id=47910,"en-US,en;q=0.9",uqpbu7704lpk5aw,23,"[""Asian""]",No,Female,India: 19 years,I'm not sure,992262,NA,9144,NA,"{""product_choice"":""B""}",choice,wb,binary,catch,null,laptops,70,50,25,40,null,null,1,null,null,null,null,null,null,Processing speed,Memory (RAM),NA,NA
NA,NA,NA,NA,NA,choice_trial_setup,html-keyboard-response,18,282954,0.0-4.0-0.7,177,1,2025-05-05T04:27:09Z,b60275e29fe2361ab97ac0ac217840d7,"Mozilla/5.0 (Macintosh; Intel Mac OS X 10_15_7) AppleWebKit/605.1.15 (KHTML, like Gecko) Version/17.5 Safari/605.1.15",Macintosh,Safari,17.5,OS X,10_15_7,https://5puzkbbxv1.cognition.run/?sona_id=47910,"en-US,en;q=0.9",uqpbu7704lpk5aw,23,"[""Asian""]",No,Female,India: 19 years,I'm not sure,992262,NA,null,<p></p>,null,choice,ct,binary,repulsion,1,laptops,null,null,null,null,null,null,2,NA,NA,NA,NA,NA,NA,NA,NA,NA,NA
NA,NA,NA,NA,NA,choice_trial,survey-html-form,19,305746,0.0-4.0-1.7,177,1,2025-05-05T04:27:09Z,b60275e29fe2361ab97ac0ac217840d7,"Mozilla/5.0 (Macintosh; Intel Mac OS X 10_15_7) AppleWebKit/605.1.15 (KHTML, like Gecko) Version/17.5 Safari/605.1.15",Macintosh,Safari,17.5,OS X,10_15_7,https://5puzkbbxv1.cognition.run/?sona_id=47910,"en-US,en;q=0.9",uqpbu7704lpk5aw,23,"[""Asian""]",No,Female,India: 19 years,I'm not sure,992262,NA,22788,NA,"{""product_choice"":""A""}",choice,ct,binary,repulsion,1,laptops,null,null,null,null,null,null,2,100,90,null,30,40,null,Processing speed,Memory (RAM),NA,NA
NA,NA,NA,NA,NA,choice_trial_setup,html-keyboard-response,20,306049,0.0-4.0-0.8,177,1,2025-05-05T04:27:09Z,b60275e29fe2361ab97ac0ac217840d7,"Mozilla/5.0 (Macintosh; Intel Mac OS X 10_15_7) AppleWebKit/605.1.15 (KHTML, like Gecko) Version/17.5 Safari/605.1.15",Macintosh,Safari,17.5,OS X,10_15_7,https://5puzkbbxv1.cognition.run/?sona_id=47910,"en-US,en;q=0.9",uqpbu7704lpk5aw,23,"[""Asian""]",No,Female,India: 19 years,I'm not sure,992262,NA,null,<p></p>,null,choice,cdt,trinary,attraction,2,microwave ovens,null,null,null,null,null,null,2,NA,NA,NA,NA,NA,NA,NA,NA,NA,NA
NA,NA,NA,NA,NA,choice_trial,survey-html-form,21,319658,0.0-4.0-1.8,177,1,2025-05-05T04:27:09Z,b60275e29fe2361ab97ac0ac217840d7,"Mozilla/5.0 (Macintosh; Intel Mac OS X 10_15_7) AppleWebKit/605.1.15 (KHTML, like Gecko) Version/17.5 Safari/605.1.15",Macintosh,Safari,17.5,OS X,10_15_7,https://5puzkbbxv1.cognition.run/?sona_id=47910,"en-US,en;q=0.9",uqpbu7704lpk5aw,23,"[""Asian""]",No,Female,India: 19 years,I'm not sure,992262,NA,13604,NA,"{""product_choice"":""C""}",choice,cdt,trinary,attraction,2,microwave ovens,null,null,null,null,null,null,2,50,60,40,60,50,60,Warranty,Cooking power,NA,NA
NA,NA,NA,NA,NA,choice_trial_setup,html-keyboard-response,22,319961,0.0-4.0-0.9,177,1,2025-05-05T04:27:09Z,b60275e29fe2361ab97ac0ac217840d7,"Mozilla/5.0 (Macintosh; Intel Mac OS X 10_15_7) AppleWebKit/605.1.15 (KHTML, like Gecko) Version/17.5 Safari/605.1.15",Macintosh,Safari,17.5,OS X,10_15_7,https://5puzkbbxv1.cognition.run/?sona_id=47910,"en-US,en;q=0.9",uqpbu7704lpk5aw,23,"[""Asian""]",No,Female,India: 19 years,I'm not sure,992262,NA,null,<p></p>,null,choice,tdc,trinary,repulsion_B,2,televisions,null,null,null,null,null,null,2,NA,NA,NA,NA,NA,NA,NA,NA,NA,NA
NA,NA,NA,NA,NA,choice_trial,survey-html-form,23,332210,0.0-4.0-1.9,177,1,2025-05-05T04:27:09Z,b60275e29fe2361ab97ac0ac217840d7,"Mozilla/5.0 (Macintosh; Intel Mac OS X 10_15_7) AppleWebKit/605.1.15 (KHTML, like Gecko) Version/17.5 Safari/605.1.15",Macintosh,Safari,17.5,OS X,10_15_7,https://5puzkbbxv1.cognition.run/?sona_id=47910,"en-US,en;q=0.9",uqpbu7704lpk5aw,23,"[""Asian""]",No,Female,India: 19 years,I'm not sure,992262,NA,12245,NA,"{""product_choice"":""A""}",choice,tdc,trinary,repulsion_B,2,televisions,null,null,null,null,null,null,2,40,30,40,90,100,80,Screen size,Average lifespan,NA,NA
NA,NA,NA,NA,NA,choice_trial_setup,html-keyboard-response,24,332513,0.0-4.0-0.10,177,1,2025-05-05T04:27:09Z,b60275e29fe2361ab97ac0ac217840d7,"Mozilla/5.0 (Macintosh; Intel Mac OS X 10_15_7) AppleWebKit/605.1.15 (KHTML, like Gecko) Version/17.5 Safari/605.1.15",Macintosh,Safari,17.5,OS X,10_15_7,https://5puzkbbxv1.cognition.run/?sona_id=47910,"en-US,en;q=0.9",uqpbu7704lpk5aw,23,"[""Asian""]",No,Female,India: 19 years,I'm not sure,992262,NA,null,<p></p>,null,choice,cdt,trinary,repulsion_A,2,televisions,null,null,null,null,null,null,2,NA,NA,NA,NA,NA,NA,NA,NA,NA,NA
NA,NA,NA,NA,NA,choice_trial,survey-html-form,25,341743,0.0-4.0-1.10,177,1,2025-05-05T04:27:09Z,b60275e29fe2361ab97ac0ac217840d7,"Mozilla/5.0 (Macintosh; Intel Mac OS X 10_15_7) AppleWebKit/605.1.15 (KHTML, like Gecko) Version/17.5 Safari/605.1.15",Macintosh,Safari,17.5,OS X,10_15_7,https://5puzkbbxv1.cognition.run/?sona_id=47910,"en-US,en;q=0.9",uqpbu7704lpk5aw,23,"[""Asian""]",No,Female,India: 19 years,I'm not sure,992262,NA,9225,NA,"{""product_choice"":""A""}",choice,cdt,trinary,repulsion_A,2,televisions,null,null,null,null,null,null,2,30,40,20,100,90,100,Screen size,Average lifespan,NA,NA
NA,NA,NA,NA,NA,choice_trial_setup,html-keyboard-response,26,342046,0.0-4.0-0.11,177,1,2025-05-05T04:27:09Z,b60275e29fe2361ab97ac0ac217840d7,"Mozilla/5.0 (Macintosh; Intel Mac OS X 10_15_7) AppleWebKit/605.1.15 (KHTML, like Gecko) Version/17.5 Safari/605.1.15",Macintosh,Safari,17.5,OS X,10_15_7,https://5puzkbbxv1.cognition.run/?sona_id=47910,"en-US,en;q=0.9",uqpbu7704lpk5aw,23,"[""Asian""]",No,Female,India: 19 years,I'm not sure,992262,NA,null,<p></p>,null,choice,dtc,trinary,repulsion_A,1,laptops,null,null,null,null,null,null,2,NA,NA,NA,NA,NA,NA,NA,NA,NA,NA
NA,NA,NA,NA,NA,choice_trial,survey-html-form,27,353213,0.0-4.0-1.11,177,1,2025-05-05T04:27:09Z,b60275e29fe2361ab97ac0ac217840d7,"Mozilla/5.0 (Macintosh; Intel Mac OS X 10_15_7) AppleWebKit/605.1.15 (KHTML, like Gecko) Version/17.5 Safari/605.1.15",Macintosh,Safari,17.5,OS X,10_15_7,https://5puzkbbxv1.cognition.run/?sona_id=47910,"en-US,en;q=0.9",uqpbu7704lpk5aw,23,"[""Asian""]",No,Female,India: 19 years,I'm not sure,992262,NA,11162,NA,"{""product_choice"":""C""}",choice,dtc,trinary,repulsion_A,1,laptops,null,null,null,null,null,null,2,100,90,100,30,40,20,Processing speed,Memory (RAM),NA,NA
NA,NA,NA,NA,NA,choice_trial_setup,html-keyboard-response,28,353516,0.0-4.0-0.12,177,1,2025-05-05T04:27:09Z,b60275e29fe2361ab97ac0ac217840d7,"Mozilla/5.0 (Macintosh; Intel Mac OS X 10_15_7) AppleWebKit/605.1.15 (KHTML, like Gecko) Version/17.5 Safari/605.1.15",Macintosh,Safari,17.5,OS X,10_15_7,https://5puzkbbxv1.cognition.run/?sona_id=47910,"en-US,en;q=0.9",uqpbu7704lpk5aw,23,"[""Asian""]",No,Female,India: 19 years,I'm not sure,992262,NA,null,<p></p>,null,choice,tc,binary,attraction,NA,microwave ovens,null,null,null,null,null,null,2,NA,NA,NA,NA,NA,NA,NA,NA,NA,NA
NA,NA,NA,NA,NA,choice_trial,survey-html-form,29,368747,0.0-4.0-1.12,177,1,2025-05-05T04:27:09Z,b60275e29fe2361ab97ac0ac217840d7,"Mozilla/5.0 (Macintosh; Intel Mac OS X 10_15_7) AppleWebKit/605.1.15 (KHTML, like Gecko) Version/17.5 Safari/605.1.15",Macintosh,Safari,17.5,OS X,10_15_7,https://5puzkbbxv1.cognition.run/?sona_id=47910,"en-US,en;q=0.9",uqpbu7704lpk5aw,23,"[""Asian""]",No,Female,India: 19 years,I'm not sure,992262,NA,15226,NA,"{""product_choice"":""B""}",choice,tc,binary,attraction,NA,microwave ovens,null,null,null,null,null,null,2,60,50,null,50,60,null,Warranty,Cooking power,NA,NA
NA,NA,NA,NA,NA,choice_trial_setup,html-keyboard-response,30,369050,0.0-4.0-0.13,177,1,2025-05-05T04:27:09Z,b60275e29fe2361ab97ac0ac217840d7,"Mozilla/5.0 (Macintosh; Intel Mac OS X 10_15_7) AppleWebKit/605.1.15 (KHTML, like Gecko) Version/17.5 Safari/605.1.15",Macintosh,Safari,17.5,OS X,10_15_7,https://5puzkbbxv1.cognition.run/?sona_id=47910,"en-US,en;q=0.9",uqpbu7704lpk5aw,23,"[""Asian""]",No,Female,India: 19 years,I'm not sure,992262,NA,null,<p></p>,null,choice,tdc,trinary,repulsion_A,1,washing machines,null,null,null,null,null,null,1,NA,NA,NA,NA,NA,NA,NA,NA,NA,NA
NA,NA,NA,NA,NA,choice_trial,survey-html-form,31,379125,0.0-4.0-1.13,177,1,2025-05-05T04:27:09Z,b60275e29fe2361ab97ac0ac217840d7,"Mozilla/5.0 (Macintosh; Intel Mac OS X 10_15_7) AppleWebKit/605.1.15 (KHTML, like Gecko) Version/17.5 Safari/605.1.15",Macintosh,Safari,17.5,OS X,10_15_7,https://5puzkbbxv1.cognition.run/?sona_id=47910,"en-US,en;q=0.9",uqpbu7704lpk5aw,23,"[""Asian""]",No,Female,India: 19 years,I'm not sure,992262,NA,10071,NA,"{""product_choice"":""C""}",choice,tdc,trinary,repulsion_A,1,washing machines,null,null,null,null,null,null,1,100,90,100,30,40,20,Average lifespan,Energy savings,NA,NA
NA,NA,NA,NA,NA,choice_trial_setup,html-keyboard-response,32,379428,0.0-4.0-0.14,177,1,2025-05-05T04:27:09Z,b60275e29fe2361ab97ac0ac217840d7,"Mozilla/5.0 (Macintosh; Intel Mac OS X 10_15_7) AppleWebKit/605.1.15 (KHTML, like Gecko) Version/17.5 Safari/605.1.15",Macintosh,Safari,17.5,OS X,10_15_7,https://5puzkbbxv1.cognition.run/?sona_id=47910,"en-US,en;q=0.9",uqpbu7704lpk5aw,23,"[""Asian""]",No,Female,India: 19 years,I'm not sure,992262,NA,null,<p></p>,null,choice,ct,binary,repulsion,1,microwave ovens,null,null,null,null,null,null,2,NA,NA,NA,NA,NA,NA,NA,NA,NA,NA
NA,NA,NA,NA,NA,choice_trial,survey-html-form,33,390392,0.0-4.0-1.14,177,1,2025-05-05T04:27:09Z,b60275e29fe2361ab97ac0ac217840d7,"Mozilla/5.0 (Macintosh; Intel Mac OS X 10_15_7) AppleWebKit/605.1.15 (KHTML, like Gecko) Version/17.5 Safari/605.1.15",Macintosh,Safari,17.5,OS X,10_15_7,https://5puzkbbxv1.cognition.run/?sona_id=47910,"en-US,en;q=0.9",uqpbu7704lpk5aw,23,"[""Asian""]",No,Female,India: 19 years,I'm not sure,992262,NA,10960,NA,"{""product_choice"":""A""}",choice,ct,binary,repulsion,1,microwave ovens,null,null,null,null,null,null,2,100,90,null,30,40,null,Warranty,Cooking power,NA,NA
NA,NA,NA,NA,NA,choice_trial_setup,html-keyboard-response,34,390696,0.0-4.0-0.15,177,1,2025-05-05T04:27:09Z,b60275e29fe2361ab97ac0ac217840d7,"Mozilla/5.0 (Macintosh; Intel Mac OS X 10_15_7) AppleWebKit/605.1.15 (KHTML, like Gecko) Version/17.5 Safari/605.1.15",Macintosh,Safari,17.5,OS X,10_15_7,https://5puzkbbxv1.cognition.run/?sona_id=47910,"en-US,en;q=0.9",uqpbu7704lpk5aw,23,"[""Asian""]",No,Female,India: 19 years,I'm not sure,992262,NA,null,<p></p>,null,choice,dtc,trinary,repulsion_A,1,microwave ovens,null,null,null,null,null,null,2,NA,NA,NA,NA,NA,NA,NA,NA,NA,NA
NA,NA,NA,NA,NA,choice_trial,survey-html-form,35,400499,0.0-4.0-1.15,177,1,2025-05-05T04:27:09Z,b60275e29fe2361ab97ac0ac217840d7,"Mozilla/5.0 (Macintosh; Intel Mac OS X 10_15_7) AppleWebKit/605.1.15 (KHTML, like Gecko) Version/17.5 Safari/605.1.15",Macintosh,Safari,17.5,OS X,10_15_7,https://5puzkbbxv1.cognition.run/?sona_id=47910,"en-US,en;q=0.9",uqpbu7704lpk5aw,23,"[""Asian""]",No,Female,India: 19 years,I'm not sure,992262,NA,9798,NA,"{""product_choice"":""C""}",choice,dtc,trinary,repulsion_A,1,microwave ovens,null,null,null,null,null,null,2,100,90,100,30,40,20,Warranty,Cooking power,NA,NA
NA,NA,NA,NA,NA,choice_trial_setup,html-keyboard-response,36,400803,0.0-4.0-0.16,177,1,2025-05-05T04:27:09Z,b60275e29fe2361ab97ac0ac217840d7,"Mozilla/5.0 (Macintosh; Intel Mac OS X 10_15_7) AppleWebKit/605.1.15 (KHTML, like Gecko) Version/17.5 Safari/605.1.15",Macintosh,Safari,17.5,OS X,10_15_7,https://5puzkbbxv1.cognition.run/?sona_id=47910,"en-US,en;q=0.9",uqpbu7704lpk5aw,23,"[""Asian""]",No,Female,India: 19 years,I'm not sure,992262,NA,null,<p></p>,null,choice,wwb,trinary,catch,null,laptops,70,60,45,30,35,50,1,NA,NA,NA,NA,NA,NA,NA,NA,NA,NA
NA,NA,NA,NA,NA,choice_trial,survey-html-form,37,410471,0.0-4.0-1.16,177,1,2025-05-05T04:27:09Z,b60275e29fe2361ab97ac0ac217840d7,"Mozilla/5.0 (Macintosh; Intel Mac OS X 10_15_7) AppleWebKit/605.1.15 (KHTML, like Gecko) Version/17.5 Safari/605.1.15",Macintosh,Safari,17.5,OS X,10_15_7,https://5puzkbbxv1.cognition.run/?sona_id=47910,"en-US,en;q=0.9",uqpbu7704lpk5aw,23,"[""Asian""]",No,Female,India: 19 years,I'm not sure,992262,NA,9662,NA,"{""product_choice"":""C""}",choice,wwb,trinary,catch,null,laptops,70,60,45,30,35,50,1,null,null,null,null,null,null,Processing speed,Memory (RAM),NA,NA
NA,NA,NA,NA,NA,choice_trial_setup,html-keyboard-response,38,410773,0.0-4.0-0.17,177,1,2025-05-05T04:27:09Z,b60275e29fe2361ab97ac0ac217840d7,"Mozilla/5.0 (Macintosh; Intel Mac OS X 10_15_7) AppleWebKit/605.1.15 (KHTML, like Gecko) Version/17.5 Safari/605.1.15",Macintosh,Safari,17.5,OS X,10_15_7,https://5puzkbbxv1.cognition.run/?sona_id=47910,"en-US,en;q=0.9",uqpbu7704lpk5aw,23,"[""Asian""]",No,Female,India: 19 years,I'm not sure,992262,NA,null,<p></p>,null,choice,ctd,trinary,attraction,1,laptops,null,null,null,null,null,null,1,NA,NA,NA,NA,NA,NA,NA,NA,NA,NA
NA,NA,NA,NA,NA,choice_trial,survey-html-form,39,421461,0.0-4.0-1.17,177,1,2025-05-05T04:27:09Z,b60275e29fe2361ab97ac0ac217840d7,"Mozilla/5.0 (Macintosh; Intel Mac OS X 10_15_7) AppleWebKit/605.1.15 (KHTML, like Gecko) Version/17.5 Safari/605.1.15",Macintosh,Safari,17.5,OS X,10_15_7,https://5puzkbbxv1.cognition.run/?sona_id=47910,"en-US,en;q=0.9",uqpbu7704lpk5aw,23,"[""Asian""]",No,Female,India: 19 years,I'm not sure,992262,NA,10683,NA,"{""product_choice"":""B""}",choice,ctd,trinary,attraction,1,laptops,null,null,null,null,null,null,1,60,50,60,50,60,40,Processing speed,Memory (RAM),NA,NA
NA,NA,NA,NA,NA,choice_trial_setup,html-keyboard-response,40,421765,0.0-4.0-0.18,177,1,2025-05-05T04:27:09Z,b60275e29fe2361ab97ac0ac217840d7,"Mozilla/5.0 (Macintosh; Intel Mac OS X 10_15_7) AppleWebKit/605.1.15 (KHTML, like Gecko) Version/17.5 Safari/605.1.15",Macintosh,Safari,17.5,OS X,10_15_7,https://5puzkbbxv1.cognition.run/?sona_id=47910,"en-US,en;q=0.9",uqpbu7704lpk5aw,23,"[""Asian""]",No,Female,India: 19 years,I'm not sure,992262,NA,null,<p></p>,null,choice,tc,binary,attraction,NA,laptops,null,null,null,null,null,null,2,NA,NA,NA,NA,NA,NA,NA,NA,NA,NA
NA,NA,NA,NA,NA,choice_trial,survey-html-form,41,440257,0.0-4.0-1.18,177,1,2025-05-05T04:27:09Z,b60275e29fe2361ab97ac0ac217840d7,"Mozilla/5.0 (Macintosh; Intel Mac OS X 10_15_7) AppleWebKit/605.1.15 (KHTML, like Gecko) Version/17.5 Safari/605.1.15",Macintosh,Safari,17.5,OS X,10_15_7,https://5puzkbbxv1.cognition.run/?sona_id=47910,"en-US,en;q=0.9",uqpbu7704lpk5aw,23,"[""Asian""]",No,Female,India: 19 years,I'm not sure,992262,NA,18488,NA,"{""product_choice"":""A""}",choice,tc,binary,attraction,NA,laptops,null,null,null,null,null,null,2,60,50,null,50,60,null,Processing speed,Memory (RAM),NA,NA
NA,NA,NA,NA,NA,choice_trial_setup,html-keyboard-response,42,440561,0.0-4.0-0.19,177,1,2025-05-05T04:27:09Z,b60275e29fe2361ab97ac0ac217840d7,"Mozilla/5.0 (Macintosh; Intel Mac OS X 10_15_7) AppleWebKit/605.1.15 (KHTML, like Gecko) Version/17.5 Safari/605.1.15",Macintosh,Safari,17.5,OS X,10_15_7,https://5puzkbbxv1.cognition.run/?sona_id=47910,"en-US,en;q=0.9",uqpbu7704lpk5aw,23,"[""Asian""]",No,Female,India: 19 years,I'm not sure,992262,NA,null,<p></p>,null,choice,tcd,trinary,repulsion_B,1,washing machines,null,null,null,null,null,null,2,NA,NA,NA,NA,NA,NA,NA,NA,NA,NA
NA,NA,NA,NA,NA,choice_trial,survey-html-form,43,448548,0.0-4.0-1.19,177,1,2025-05-05T04:27:09Z,b60275e29fe2361ab97ac0ac217840d7,"Mozilla/5.0 (Macintosh; Intel Mac OS X 10_15_7) AppleWebKit/605.1.15 (KHTML, like Gecko) Version/17.5 Safari/605.1.15",Macintosh,Safari,17.5,OS X,10_15_7,https://5puzkbbxv1.cognition.run/?sona_id=47910,"en-US,en;q=0.9",uqpbu7704lpk5aw,23,"[""Asian""]",No,Female,India: 19 years,I'm not sure,992262,NA,7981,NA,"{""product_choice"":""A""}",choice,tcd,trinary,repulsion_B,1,washing machines,null,null,null,null,null,null,2,90,100,80,40,30,40,Average lifespan,Energy savings,NA,NA
NA,NA,NA,NA,NA,choice_trial_setup,html-keyboard-response,44,448851,0.0-4.0-0.20,177,1,2025-05-05T04:27:09Z,b60275e29fe2361ab97ac0ac217840d7,"Mozilla/5.0 (Macintosh; Intel Mac OS X 10_15_7) AppleWebKit/605.1.15 (KHTML, like Gecko) Version/17.5 Safari/605.1.15",Macintosh,Safari,17.5,OS X,10_15_7,https://5puzkbbxv1.cognition.run/?sona_id=47910,"en-US,en;q=0.9",uqpbu7704lpk5aw,23,"[""Asian""]",No,Female,India: 19 years,I'm not sure,992262,NA,null,<p></p>,null,choice,ct,binary,repulsion,2,washing machines,null,null,null,null,null,null,2,NA,NA,NA,NA,NA,NA,NA,NA,NA,NA
NA,NA,NA,NA,NA,choice_trial,survey-html-form,45,458090,0.0-4.0-1.20,177,1,2025-05-05T04:27:09Z,b60275e29fe2361ab97ac0ac217840d7,"Mozilla/5.0 (Macintosh; Intel Mac OS X 10_15_7) AppleWebKit/605.1.15 (KHTML, like Gecko) Version/17.5 Safari/605.1.15",Macintosh,Safari,17.5,OS X,10_15_7,https://5puzkbbxv1.cognition.run/?sona_id=47910,"en-US,en;q=0.9",uqpbu7704lpk5aw,23,"[""Asian""]",No,Female,India: 19 years,I'm not sure,992262,NA,9234,NA,"{""product_choice"":""B""}",choice,ct,binary,repulsion,2,washing machines,null,null,null,null,null,null,2,30,40,null,100,90,null,Average lifespan,Energy savings,NA,NA
NA,NA,NA,NA,NA,choice_trial_setup,html-keyboard-response,46,458395,0.0-4.0-0.21,177,1,2025-05-05T04:27:09Z,b60275e29fe2361ab97ac0ac217840d7,"Mozilla/5.0 (Macintosh; Intel Mac OS X 10_15_7) AppleWebKit/605.1.15 (KHTML, like Gecko) Version/17.5 Safari/605.1.15",Macintosh,Safari,17.5,OS X,10_15_7,https://5puzkbbxv1.cognition.run/?sona_id=47910,"en-US,en;q=0.9",uqpbu7704lpk5aw,23,"[""Asian""]",No,Female,India: 19 years,I'm not sure,992262,NA,null,<p></p>,null,choice,wb,binary,catch,null,microwave ovens,60,60,10,40,null,null,1,NA,NA,NA,NA,NA,NA,NA,NA,NA,NA
NA,NA,NA,NA,NA,choice_trial,survey-html-form,47,464679,0.0-4.0-1.21,177,1,2025-05-05T04:27:09Z,b60275e29fe2361ab97ac0ac217840d7,"Mozilla/5.0 (Macintosh; Intel Mac OS X 10_15_7) AppleWebKit/605.1.15 (KHTML, like Gecko) Version/17.5 Safari/605.1.15",Macintosh,Safari,17.5,OS X,10_15_7,https://5puzkbbxv1.cognition.run/?sona_id=47910,"en-US,en;q=0.9",uqpbu7704lpk5aw,23,"[""Asian""]",No,Female,India: 19 years,I'm not sure,992262,NA,6278,NA,"{""product_choice"":""B""}",choice,wb,binary,catch,null,microwave ovens,60,60,10,40,null,null,1,null,null,null,null,null,null,Warranty,Cooking power,NA,NA
NA,NA,NA,NA,NA,choice_trial_setup,html-keyboard-response,48,464982,0.0-4.0-0.22,177,1,2025-05-05T04:27:09Z,b60275e29fe2361ab97ac0ac217840d7,"Mozilla/5.0 (Macintosh; Intel Mac OS X 10_15_7) AppleWebKit/605.1.15 (KHTML, like Gecko) Version/17.5 Safari/605.1.15",Macintosh,Safari,17.5,OS X,10_15_7,https://5puzkbbxv1.cognition.run/?sona_id=47910,"en-US,en;q=0.9",uqpbu7704lpk5aw,23,"[""Asian""]",No,Female,India: 19 years,I'm not sure,992262,NA,null,<p></p>,null,choice,ctd,trinary,repulsion_B,2,laptops,null,null,null,null,null,null,2,NA,NA,NA,NA,NA,NA,NA,NA,NA,NA
NA,NA,NA,NA,NA,choice_trial,survey-html-form,49,473807,0.0-4.0-1.22,177,1,2025-05-05T04:27:09Z,b60275e29fe2361ab97ac0ac217840d7,"Mozilla/5.0 (Macintosh; Intel Mac OS X 10_15_7) AppleWebKit/605.1.15 (KHTML, like Gecko) Version/17.5 Safari/605.1.15",Macintosh,Safari,17.5,OS X,10_15_7,https://5puzkbbxv1.cognition.run/?sona_id=47910,"en-US,en;q=0.9",uqpbu7704lpk5aw,23,"[""Asian""]",No,Female,India: 19 years,I'm not sure,992262,NA,8820,NA,"{""product_choice"":""B""}",choice,ctd,trinary,repulsion_B,2,laptops,null,null,null,null,null,null,2,40,30,40,90,100,80,Processing speed,Memory (RAM),NA,NA
NA,NA,NA,NA,NA,choice_trial_setup,html-keyboard-response,50,474111,0.0-4.0-0.23,177,1,2025-05-05T04:27:09Z,b60275e29fe2361ab97ac0ac217840d7,"Mozilla/5.0 (Macintosh; Intel Mac OS X 10_15_7) AppleWebKit/605.1.15 (KHTML, like Gecko) Version/17.5 Safari/605.1.15",Macintosh,Safari,17.5,OS X,10_15_7,https://5puzkbbxv1.cognition.run/?sona_id=47910,"en-US,en;q=0.9",uqpbu7704lpk5aw,23,"[""Asian""]",No,Female,India: 19 years,I'm not sure,992262,NA,null,<p></p>,null,choice,ctd,trinary,repulsion_B,2,microwave ovens,null,null,null,null,null,null,1,NA,NA,NA,NA,NA,NA,NA,NA,NA,NA
NA,NA,NA,NA,NA,choice_trial,survey-html-form,51,695275,0.0-4.0-1.23,177,1,2025-05-05T04:27:09Z,b60275e29fe2361ab97ac0ac217840d7,"Mozilla/5.0 (Macintosh; Intel Mac OS X 10_15_7) AppleWebKit/605.1.15 (KHTML, like Gecko) Version/17.5 Safari/605.1.15",Macintosh,Safari,17.5,OS X,10_15_7,https://5puzkbbxv1.cognition.run/?sona_id=47910,"en-US,en;q=0.9",uqpbu7704lpk5aw,23,"[""Asian""]",No,Female,India: 19 years,I'm not sure,992262,NA,157191,NA,"{""product_choice"":""B""}",choice,ctd,trinary,repulsion_B,2,microwave ovens,null,null,null,null,null,null,1,40,30,40,90,100,80,Warranty,Cooking power,NA,NA
NA,NA,NA,NA,NA,choice_trial_setup,html-keyboard-response,52,695582,0.0-4.0-0.24,177,1,2025-05-05T04:27:09Z,b60275e29fe2361ab97ac0ac217840d7,"Mozilla/5.0 (Macintosh; Intel Mac OS X 10_15_7) AppleWebKit/605.1.15 (KHTML, like Gecko) Version/17.5 Safari/605.1.15",Macintosh,Safari,17.5,OS X,10_15_7,https://5puzkbbxv1.cognition.run/?sona_id=47910,"en-US,en;q=0.9",uqpbu7704lpk5aw,23,"[""Asian""]",No,Female,India: 19 years,I'm not sure,992262,NA,null,<p></p>,null,choice,cdt,trinary,repulsion_B,1,televisions,null,null,null,null,null,null,1,NA,NA,NA,NA,NA,NA,NA,NA,NA,NA
NA,NA,NA,NA,NA,choice_trial,survey-html-form,53,703917,0.0-4.0-1.24,177,1,2025-05-05T04:27:09Z,b60275e29fe2361ab97ac0ac217840d7,"Mozilla/5.0 (Macintosh; Intel Mac OS X 10_15_7) AppleWebKit/605.1.15 (KHTML, like Gecko) Version/17.5 Safari/605.1.15",Macintosh,Safari,17.5,OS X,10_15_7,https://5puzkbbxv1.cognition.run/?sona_id=47910,"en-US,en;q=0.9",uqpbu7704lpk5aw,23,"[""Asian""]",No,Female,India: 19 years,I'm not sure,992262,NA,8328,NA,"{""product_choice"":""A""}",choice,cdt,trinary,repulsion_B,1,televisions,null,null,null,null,null,null,1,90,100,80,40,30,40,Screen size,Average lifespan,NA,NA
NA,NA,NA,NA,NA,choice_trial_setup,html-keyboard-response,54,704221,0.0-4.0-0.25,177,1,2025-05-05T04:27:09Z,b60275e29fe2361ab97ac0ac217840d7,"Mozilla/5.0 (Macintosh; Intel Mac OS X 10_15_7) AppleWebKit/605.1.15 (KHTML, like Gecko) Version/17.5 Safari/605.1.15",Macintosh,Safari,17.5,OS X,10_15_7,https://5puzkbbxv1.cognition.run/?sona_id=47910,"en-US,en;q=0.9",uqpbu7704lpk5aw,23,"[""Asian""]",No,Female,India: 19 years,I'm not sure,992262,NA,null,<p></p>,null,choice,bw,binary,catch,null,washing machines,85,60,15,45,null,null,2,NA,NA,NA,NA,NA,NA,NA,NA,NA,NA
NA,NA,NA,NA,NA,choice_trial,survey-html-form,55,761270,0.0-4.0-1.25,177,1,2025-05-05T04:27:09Z,b60275e29fe2361ab97ac0ac217840d7,"Mozilla/5.0 (Macintosh; Intel Mac OS X 10_15_7) AppleWebKit/605.1.15 (KHTML, like Gecko) Version/17.5 Safari/605.1.15",Macintosh,Safari,17.5,OS X,10_15_7,https://5puzkbbxv1.cognition.run/?sona_id=47910,"en-US,en;q=0.9",uqpbu7704lpk5aw,23,"[""Asian""]",No,Female,India: 19 years,I'm not sure,992262,NA,57042,NA,"{""product_choice"":""A""}",choice,bw,binary,catch,null,washing machines,85,60,15,45,null,null,2,null,null,null,null,null,null,Average lifespan,Energy savings,NA,NA
NA,NA,NA,NA,NA,choice_trial_setup,html-keyboard-response,56,761574,0.0-4.0-0.26,177,1,2025-05-05T04:27:09Z,b60275e29fe2361ab97ac0ac217840d7,"Mozilla/5.0 (Macintosh; Intel Mac OS X 10_15_7) AppleWebKit/605.1.15 (KHTML, like Gecko) Version/17.5 Safari/605.1.15",Macintosh,Safari,17.5,OS X,10_15_7,https://5puzkbbxv1.cognition.run/?sona_id=47910,"en-US,en;q=0.9",uqpbu7704lpk5aw,23,"[""Asian""]",No,Female,India: 19 years,I'm not sure,992262,NA,null,<p></p>,null,choice,tdc,trinary,attraction,1,televisions,null,null,null,null,null,null,2,NA,NA,NA,NA,NA,NA,NA,NA,NA,NA
NA,NA,NA,NA,NA,choice_trial,survey-html-form,57,769597,0.0-4.0-1.26,177,1,2025-05-05T04:27:09Z,b60275e29fe2361ab97ac0ac217840d7,"Mozilla/5.0 (Macintosh; Intel Mac OS X 10_15_7) AppleWebKit/605.1.15 (KHTML, like Gecko) Version/17.5 Safari/605.1.15",Macintosh,Safari,17.5,OS X,10_15_7,https://5puzkbbxv1.cognition.run/?sona_id=47910,"en-US,en;q=0.9",uqpbu7704lpk5aw,23,"[""Asian""]",No,Female,India: 19 years,I'm not sure,992262,NA,8017,NA,"{""product_choice"":""A""}",choice,tdc,trinary,attraction,1,televisions,null,null,null,null,null,null,2,60,50,60,50,60,40,Screen size,Average lifespan,NA,NA
NA,NA,NA,NA,NA,choice_trial_setup,html-keyboard-response,58,769901,0.0-4.0-0.27,177,1,2025-05-05T04:27:09Z,b60275e29fe2361ab97ac0ac217840d7,"Mozilla/5.0 (Macintosh; Intel Mac OS X 10_15_7) AppleWebKit/605.1.15 (KHTML, like Gecko) Version/17.5 Safari/605.1.15",Macintosh,Safari,17.5,OS X,10_15_7,https://5puzkbbxv1.cognition.run/?sona_id=47910,"en-US,en;q=0.9",uqpbu7704lpk5aw,23,"[""Asian""]",No,Female,India: 19 years,I'm not sure,992262,NA,null,<p></p>,null,choice,dct,trinary,attraction,2,laptops,null,null,null,null,null,null,1,NA,NA,NA,NA,NA,NA,NA,NA,NA,NA
NA,NA,NA,NA,NA,choice_trial,survey-html-form,59,778214,0.0-4.0-1.27,177,1,2025-05-05T04:27:09Z,b60275e29fe2361ab97ac0ac217840d7,"Mozilla/5.0 (Macintosh; Intel Mac OS X 10_15_7) AppleWebKit/605.1.15 (KHTML, like Gecko) Version/17.5 Safari/605.1.15",Macintosh,Safari,17.5,OS X,10_15_7,https://5puzkbbxv1.cognition.run/?sona_id=47910,"en-US,en;q=0.9",uqpbu7704lpk5aw,23,"[""Asian""]",No,Female,India: 19 years,I'm not sure,992262,NA,8307,NA,"{""product_choice"":""C""}",choice,dct,trinary,attraction,2,laptops,null,null,null,null,null,null,1,50,60,40,60,50,60,Processing speed,Memory (RAM),NA,NA
NA,NA,NA,NA,NA,choice_trial_setup,html-keyboard-response,60,778519,0.0-4.0-0.28,177,1,2025-05-05T04:27:09Z,b60275e29fe2361ab97ac0ac217840d7,"Mozilla/5.0 (Macintosh; Intel Mac OS X 10_15_7) AppleWebKit/605.1.15 (KHTML, like Gecko) Version/17.5 Safari/605.1.15",Macintosh,Safari,17.5,OS X,10_15_7,https://5puzkbbxv1.cognition.run/?sona_id=47910,"en-US,en;q=0.9",uqpbu7704lpk5aw,23,"[""Asian""]",No,Female,India: 19 years,I'm not sure,992262,NA,null,<p></p>,null,choice,ct,binary,repulsion,1,washing machines,null,null,null,null,null,null,1,NA,NA,NA,NA,NA,NA,NA,NA,NA,NA
NA,NA,NA,NA,NA,choice_trial,survey-html-form,61,787001,0.0-4.0-1.28,177,1,2025-05-05T04:27:09Z,b60275e29fe2361ab97ac0ac217840d7,"Mozilla/5.0 (Macintosh; Intel Mac OS X 10_15_7) AppleWebKit/605.1.15 (KHTML, like Gecko) Version/17.5 Safari/605.1.15",Macintosh,Safari,17.5,OS X,10_15_7,https://5puzkbbxv1.cognition.run/?sona_id=47910,"en-US,en;q=0.9",uqpbu7704lpk5aw,23,"[""Asian""]",No,Female,India: 19 years,I'm not sure,992262,NA,8477,NA,"{""product_choice"":""A""}",choice,ct,binary,repulsion,1,washing machines,null,null,null,null,null,null,1,100,90,null,30,40,null,Average lifespan,Energy savings,NA,NA
NA,NA,NA,NA,NA,choice_trial_setup,html-keyboard-response,62,787307,0.0-4.0-0.29,177,1,2025-05-05T04:27:09Z,b60275e29fe2361ab97ac0ac217840d7,"Mozilla/5.0 (Macintosh; Intel Mac OS X 10_15_7) AppleWebKit/605.1.15 (KHTML, like Gecko) Version/17.5 Safari/605.1.15",Macintosh,Safari,17.5,OS X,10_15_7,https://5puzkbbxv1.cognition.run/?sona_id=47910,"en-US,en;q=0.9",uqpbu7704lpk5aw,23,"[""Asian""]",No,Female,India: 19 years,I'm not sure,992262,NA,null,<p></p>,null,choice,dtc,trinary,repulsion_B,1,laptops,null,null,null,null,null,null,2,NA,NA,NA,NA,NA,NA,NA,NA,NA,NA
NA,NA,NA,NA,NA,choice_trial,survey-html-form,63,798723,0.0-4.0-1.29,177,1,2025-05-05T04:27:09Z,b60275e29fe2361ab97ac0ac217840d7,"Mozilla/5.0 (Macintosh; Intel Mac OS X 10_15_7) AppleWebKit/605.1.15 (KHTML, like Gecko) Version/17.5 Safari/605.1.15",Macintosh,Safari,17.5,OS X,10_15_7,https://5puzkbbxv1.cognition.run/?sona_id=47910,"en-US,en;q=0.9",uqpbu7704lpk5aw,23,"[""Asian""]",No,Female,India: 19 years,I'm not sure,992262,NA,11411,NA,"{""product_choice"":""B""}",choice,dtc,trinary,repulsion_B,1,laptops,null,null,null,null,null,null,2,90,100,80,40,30,40,Processing speed,Memory (RAM),NA,NA
NA,NA,NA,NA,NA,choice_trial_setup,html-keyboard-response,64,799028,0.0-4.0-0.30,177,1,2025-05-05T04:27:09Z,b60275e29fe2361ab97ac0ac217840d7,"Mozilla/5.0 (Macintosh; Intel Mac OS X 10_15_7) AppleWebKit/605.1.15 (KHTML, like Gecko) Version/17.5 Safari/605.1.15",Macintosh,Safari,17.5,OS X,10_15_7,https://5puzkbbxv1.cognition.run/?sona_id=47910,"en-US,en;q=0.9",uqpbu7704lpk5aw,23,"[""Asian""]",No,Female,India: 19 years,I'm not sure,992262,NA,null,<p></p>,null,choice,bw,binary,catch,null,televisions,60,55,10,40,null,null,2,NA,NA,NA,NA,NA,NA,NA,NA,NA,NA
NA,NA,NA,NA,NA,choice_trial,survey-html-form,65,805879,0.0-4.0-1.30,177,1,2025-05-05T04:27:09Z,b60275e29fe2361ab97ac0ac217840d7,"Mozilla/5.0 (Macintosh; Intel Mac OS X 10_15_7) AppleWebKit/605.1.15 (KHTML, like Gecko) Version/17.5 Safari/605.1.15",Macintosh,Safari,17.5,OS X,10_15_7,https://5puzkbbxv1.cognition.run/?sona_id=47910,"en-US,en;q=0.9",uqpbu7704lpk5aw,23,"[""Asian""]",No,Female,India: 19 years,I'm not sure,992262,NA,6845,NA,"{""product_choice"":""A""}",choice,bw,binary,catch,null,televisions,60,55,10,40,null,null,2,null,null,null,null,null,null,Screen size,Average lifespan,NA,NA
NA,NA,NA,NA,NA,choice_trial_setup,html-keyboard-response,66,806182,0.0-4.0-0.31,177,1,2025-05-05T04:27:09Z,b60275e29fe2361ab97ac0ac217840d7,"Mozilla/5.0 (Macintosh; Intel Mac OS X 10_15_7) AppleWebKit/605.1.15 (KHTML, like Gecko) Version/17.5 Safari/605.1.15",Macintosh,Safari,17.5,OS X,10_15_7,https://5puzkbbxv1.cognition.run/?sona_id=47910,"en-US,en;q=0.9",uqpbu7704lpk5aw,23,"[""Asian""]",No,Female,India: 19 years,I'm not sure,992262,NA,null,<p></p>,null,choice,dct,trinary,repulsion_B,1,microwave ovens,null,null,null,null,null,null,2,NA,NA,NA,NA,NA,NA,NA,NA,NA,NA
NA,NA,NA,NA,NA,choice_trial,survey-html-form,67,817494,0.0-4.0-1.31,177,1,2025-05-05T04:27:09Z,b60275e29fe2361ab97ac0ac217840d7,"Mozilla/5.0 (Macintosh; Intel Mac OS X 10_15_7) AppleWebKit/605.1.15 (KHTML, like Gecko) Version/17.5 Safari/605.1.15",Macintosh,Safari,17.5,OS X,10_15_7,https://5puzkbbxv1.cognition.run/?sona_id=47910,"en-US,en;q=0.9",uqpbu7704lpk5aw,23,"[""Asian""]",No,Female,India: 19 years,I'm not sure,992262,NA,11307,NA,"{""product_choice"":""C""}",choice,dct,trinary,repulsion_B,1,microwave ovens,null,null,null,null,null,null,2,90,100,80,40,30,40,Warranty,Cooking power,NA,NA
NA,NA,NA,NA,NA,choice_trial_setup,html-keyboard-response,68,817798,0.0-4.0-0.32,177,1,2025-05-05T04:27:09Z,b60275e29fe2361ab97ac0ac217840d7,"Mozilla/5.0 (Macintosh; Intel Mac OS X 10_15_7) AppleWebKit/605.1.15 (KHTML, like Gecko) Version/17.5 Safari/605.1.15",Macintosh,Safari,17.5,OS X,10_15_7,https://5puzkbbxv1.cognition.run/?sona_id=47910,"en-US,en;q=0.9",uqpbu7704lpk5aw,23,"[""Asian""]",No,Female,India: 19 years,I'm not sure,992262,NA,null,<p></p>,null,choice,ct,binary,attraction,NA,televisions,null,null,null,null,null,null,1,NA,NA,NA,NA,NA,NA,NA,NA,NA,NA
NA,NA,NA,NA,NA,choice_trial,survey-html-form,69,822554,0.0-4.0-1.32,177,1,2025-05-05T04:27:09Z,b60275e29fe2361ab97ac0ac217840d7,"Mozilla/5.0 (Macintosh; Intel Mac OS X 10_15_7) AppleWebKit/605.1.15 (KHTML, like Gecko) Version/17.5 Safari/605.1.15",Macintosh,Safari,17.5,OS X,10_15_7,https://5puzkbbxv1.cognition.run/?sona_id=47910,"en-US,en;q=0.9",uqpbu7704lpk5aw,23,"[""Asian""]",No,Female,India: 19 years,I'm not sure,992262,NA,4753,NA,"{""product_choice"":""B""}",choice,ct,binary,attraction,NA,televisions,null,null,null,null,null,null,1,60,50,null,50,60,null,Screen size,Average lifespan,NA,NA
NA,NA,NA,NA,NA,choice_trial_setup,html-keyboard-response,70,822858,0.0-4.0-0.33,177,1,2025-05-05T04:27:09Z,b60275e29fe2361ab97ac0ac217840d7,"Mozilla/5.0 (Macintosh; Intel Mac OS X 10_15_7) AppleWebKit/605.1.15 (KHTML, like Gecko) Version/17.5 Safari/605.1.15",Macintosh,Safari,17.5,OS X,10_15_7,https://5puzkbbxv1.cognition.run/?sona_id=47910,"en-US,en;q=0.9",uqpbu7704lpk5aw,23,"[""Asian""]",No,Female,India: 19 years,I'm not sure,992262,NA,null,<p></p>,null,choice,ct,binary,repulsion,2,laptops,null,null,null,null,null,null,1,NA,NA,NA,NA,NA,NA,NA,NA,NA,NA
NA,NA,NA,NA,NA,choice_trial,survey-html-form,71,835276,0.0-4.0-1.33,177,1,2025-05-05T04:27:09Z,b60275e29fe2361ab97ac0ac217840d7,"Mozilla/5.0 (Macintosh; Intel Mac OS X 10_15_7) AppleWebKit/605.1.15 (KHTML, like Gecko) Version/17.5 Safari/605.1.15",Macintosh,Safari,17.5,OS X,10_15_7,https://5puzkbbxv1.cognition.run/?sona_id=47910,"en-US,en;q=0.9",uqpbu7704lpk5aw,23,"[""Asian""]",No,Female,India: 19 years,I'm not sure,992262,NA,12413,NA,"{""product_choice"":""A""}",choice,ct,binary,repulsion,2,laptops,null,null,null,null,null,null,1,30,40,null,100,90,null,Processing speed,Memory (RAM),NA,NA
NA,NA,NA,NA,NA,choice_trial_setup,html-keyboard-response,72,835579,0.0-4.0-0.34,177,1,2025-05-05T04:27:09Z,b60275e29fe2361ab97ac0ac217840d7,"Mozilla/5.0 (Macintosh; Intel Mac OS X 10_15_7) AppleWebKit/605.1.15 (KHTML, like Gecko) Version/17.5 Safari/605.1.15",Macintosh,Safari,17.5,OS X,10_15_7,https://5puzkbbxv1.cognition.run/?sona_id=47910,"en-US,en;q=0.9",uqpbu7704lpk5aw,23,"[""Asian""]",No,Female,India: 19 years,I'm not sure,992262,NA,null,<p></p>,null,choice,dct,trinary,attraction,2,washing machines,null,null,null,null,null,null,1,NA,NA,NA,NA,NA,NA,NA,NA,NA,NA
NA,NA,NA,NA,NA,choice_trial,survey-html-form,73,847542,0.0-4.0-1.34,177,1,2025-05-05T04:27:09Z,b60275e29fe2361ab97ac0ac217840d7,"Mozilla/5.0 (Macintosh; Intel Mac OS X 10_15_7) AppleWebKit/605.1.15 (KHTML, like Gecko) Version/17.5 Safari/605.1.15",Macintosh,Safari,17.5,OS X,10_15_7,https://5puzkbbxv1.cognition.run/?sona_id=47910,"en-US,en;q=0.9",uqpbu7704lpk5aw,23,"[""Asian""]",No,Female,India: 19 years,I'm not sure,992262,NA,11959,NA,"{""product_choice"":""C""}",choice,dct,trinary,attraction,2,washing machines,null,null,null,null,null,null,1,50,60,40,60,50,60,Average lifespan,Energy savings,NA,NA
NA,NA,NA,NA,NA,choice_trial_setup,html-keyboard-response,74,847846,0.0-4.0-0.35,177,1,2025-05-05T04:27:09Z,b60275e29fe2361ab97ac0ac217840d7,"Mozilla/5.0 (Macintosh; Intel Mac OS X 10_15_7) AppleWebKit/605.1.15 (KHTML, like Gecko) Version/17.5 Safari/605.1.15",Macintosh,Safari,17.5,OS X,10_15_7,https://5puzkbbxv1.cognition.run/?sona_id=47910,"en-US,en;q=0.9",uqpbu7704lpk5aw,23,"[""Asian""]",No,Female,India: 19 years,I'm not sure,992262,NA,null,<p></p>,null,choice,tdc,trinary,repulsion_A,2,microwave ovens,null,null,null,null,null,null,1,NA,NA,NA,NA,NA,NA,NA,NA,NA,NA
NA,NA,NA,NA,NA,choice_trial,survey-html-form,75,859591,0.0-4.0-1.35,177,1,2025-05-05T04:27:09Z,b60275e29fe2361ab97ac0ac217840d7,"Mozilla/5.0 (Macintosh; Intel Mac OS X 10_15_7) AppleWebKit/605.1.15 (KHTML, like Gecko) Version/17.5 Safari/605.1.15",Macintosh,Safari,17.5,OS X,10_15_7,https://5puzkbbxv1.cognition.run/?sona_id=47910,"en-US,en;q=0.9",uqpbu7704lpk5aw,23,"[""Asian""]",No,Female,India: 19 years,I'm not sure,992262,NA,11739,NA,"{""product_choice"":""C""}",choice,tdc,trinary,repulsion_A,2,microwave ovens,null,null,null,null,null,null,1,30,40,20,100,90,100,Warranty,Cooking power,NA,NA
NA,NA,NA,NA,NA,choice_trial_setup,html-keyboard-response,76,859894,0.0-4.0-0.36,177,1,2025-05-05T04:27:09Z,b60275e29fe2361ab97ac0ac217840d7,"Mozilla/5.0 (Macintosh; Intel Mac OS X 10_15_7) AppleWebKit/605.1.15 (KHTML, like Gecko) Version/17.5 Safari/605.1.15",Macintosh,Safari,17.5,OS X,10_15_7,https://5puzkbbxv1.cognition.run/?sona_id=47910,"en-US,en;q=0.9",uqpbu7704lpk5aw,23,"[""Asian""]",No,Female,India: 19 years,I'm not sure,992262,NA,null,<p></p>,null,choice,dtc,trinary,attraction,2,televisions,null,null,null,null,null,null,2,NA,NA,NA,NA,NA,NA,NA,NA,NA,NA
NA,NA,NA,NA,NA,choice_trial,survey-html-form,77,867907,0.0-4.0-1.36,177,1,2025-05-05T04:27:09Z,b60275e29fe2361ab97ac0ac217840d7,"Mozilla/5.0 (Macintosh; Intel Mac OS X 10_15_7) AppleWebKit/605.1.15 (KHTML, like Gecko) Version/17.5 Safari/605.1.15",Macintosh,Safari,17.5,OS X,10_15_7,https://5puzkbbxv1.cognition.run/?sona_id=47910,"en-US,en;q=0.9",uqpbu7704lpk5aw,23,"[""Asian""]",No,Female,India: 19 years,I'm not sure,992262,NA,8007,NA,"{""product_choice"":""C""}",choice,dtc,trinary,attraction,2,televisions,null,null,null,null,null,null,2,50,60,40,60,50,60,Screen size,Average lifespan,NA,NA
NA,NA,NA,NA,NA,choice_trial_setup,html-keyboard-response,78,868210,0.0-4.0-0.37,177,1,2025-05-05T04:27:09Z,b60275e29fe2361ab97ac0ac217840d7,"Mozilla/5.0 (Macintosh; Intel Mac OS X 10_15_7) AppleWebKit/605.1.15 (KHTML, like Gecko) Version/17.5 Safari/605.1.15",Macintosh,Safari,17.5,OS X,10_15_7,https://5puzkbbxv1.cognition.run/?sona_id=47910,"en-US,en;q=0.9",uqpbu7704lpk5aw,23,"[""Asian""]",No,Female,India: 19 years,I'm not sure,992262,NA,null,<p></p>,null,choice,ct,binary,repulsion,2,microwave ovens,null,null,null,null,null,null,2,NA,NA,NA,NA,NA,NA,NA,NA,NA,NA
NA,NA,NA,NA,NA,choice_trial,survey-html-form,79,876413,0.0-4.0-1.37,177,1,2025-05-05T04:27:09Z,b60275e29fe2361ab97ac0ac217840d7,"Mozilla/5.0 (Macintosh; Intel Mac OS X 10_15_7) AppleWebKit/605.1.15 (KHTML, like Gecko) Version/17.5 Safari/605.1.15",Macintosh,Safari,17.5,OS X,10_15_7,https://5puzkbbxv1.cognition.run/?sona_id=47910,"en-US,en;q=0.9",uqpbu7704lpk5aw,23,"[""Asian""]",No,Female,India: 19 years,I'm not sure,992262,NA,8197,NA,"{""product_choice"":""A""}",choice,ct,binary,repulsion,2,microwave ovens,null,null,null,null,null,null,2,30,40,null,100,90,null,Warranty,Cooking power,NA,NA
NA,NA,NA,NA,NA,choice_trial_setup,html-keyboard-response,80,876718,0.0-4.0-0.38,177,1,2025-05-05T04:27:09Z,b60275e29fe2361ab97ac0ac217840d7,"Mozilla/5.0 (Macintosh; Intel Mac OS X 10_15_7) AppleWebKit/605.1.15 (KHTML, like Gecko) Version/17.5 Safari/605.1.15",Macintosh,Safari,17.5,OS X,10_15_7,https://5puzkbbxv1.cognition.run/?sona_id=47910,"en-US,en;q=0.9",uqpbu7704lpk5aw,23,"[""Asian""]",No,Female,India: 19 years,I'm not sure,992262,NA,null,<p></p>,null,choice,tc,binary,repulsion,1,televisions,null,null,null,null,null,null,1,NA,NA,NA,NA,NA,NA,NA,NA,NA,NA
NA,NA,NA,NA,NA,choice_trial,survey-html-form,81,881742,0.0-4.0-1.38,177,1,2025-05-05T04:27:09Z,b60275e29fe2361ab97ac0ac217840d7,"Mozilla/5.0 (Macintosh; Intel Mac OS X 10_15_7) AppleWebKit/605.1.15 (KHTML, like Gecko) Version/17.5 Safari/605.1.15",Macintosh,Safari,17.5,OS X,10_15_7,https://5puzkbbxv1.cognition.run/?sona_id=47910,"en-US,en;q=0.9",uqpbu7704lpk5aw,23,"[""Asian""]",No,Female,India: 19 years,I'm not sure,992262,NA,5018,NA,"{""product_choice"":""A""}",choice,tc,binary,repulsion,1,televisions,null,null,null,null,null,null,1,100,90,null,30,40,null,Screen size,Average lifespan,NA,NA
NA,NA,NA,NA,NA,choice_trial_setup,html-keyboard-response,82,882050,0.0-4.0-0.39,177,1,2025-05-05T04:27:09Z,b60275e29fe2361ab97ac0ac217840d7,"Mozilla/5.0 (Macintosh; Intel Mac OS X 10_15_7) AppleWebKit/605.1.15 (KHTML, like Gecko) Version/17.5 Safari/605.1.15",Macintosh,Safari,17.5,OS X,10_15_7,https://5puzkbbxv1.cognition.run/?sona_id=47910,"en-US,en;q=0.9",uqpbu7704lpk5aw,23,"[""Asian""]",No,Female,India: 19 years,I'm not sure,992262,NA,null,<p></p>,null,choice,wbw,trinary,catch,null,washing machines,95,90,50,40,20,5,2,NA,NA,NA,NA,NA,NA,NA,NA,NA,NA
NA,NA,NA,NA,NA,choice_trial,survey-html-form,83,888551,0.0-4.0-1.39,177,1,2025-05-05T04:27:09Z,b60275e29fe2361ab97ac0ac217840d7,"Mozilla/5.0 (Macintosh; Intel Mac OS X 10_15_7) AppleWebKit/605.1.15 (KHTML, like Gecko) Version/17.5 Safari/605.1.15",Macintosh,Safari,17.5,OS X,10_15_7,https://5puzkbbxv1.cognition.run/?sona_id=47910,"en-US,en;q=0.9",uqpbu7704lpk5aw,23,"[""Asian""]",No,Female,India: 19 years,I'm not sure,992262,NA,6493,NA,"{""product_choice"":""B""}",choice,wbw,trinary,catch,null,washing machines,95,90,50,40,20,5,2,null,null,null,null,null,null,Average lifespan,Energy savings,NA,NA
NA,NA,NA,NA,NA,choice_trial_setup,html-keyboard-response,84,888857,0.0-4.0-0.40,177,1,2025-05-05T04:27:09Z,b60275e29fe2361ab97ac0ac217840d7,"Mozilla/5.0 (Macintosh; Intel Mac OS X 10_15_7) AppleWebKit/605.1.15 (KHTML, like Gecko) Version/17.5 Safari/605.1.15",Macintosh,Safari,17.5,OS X,10_15_7,https://5puzkbbxv1.cognition.run/?sona_id=47910,"en-US,en;q=0.9",uqpbu7704lpk5aw,23,"[""Asian""]",No,Female,India: 19 years,I'm not sure,992262,NA,null,<p></p>,null,choice,ctd,trinary,repulsion_A,2,washing machines,null,null,null,null,null,null,1,NA,NA,NA,NA,NA,NA,NA,NA,NA,NA
NA,NA,NA,NA,NA,choice_trial,survey-html-form,85,898923,0.0-4.0-1.40,177,1,2025-05-05T04:27:09Z,b60275e29fe2361ab97ac0ac217840d7,"Mozilla/5.0 (Macintosh; Intel Mac OS X 10_15_7) AppleWebKit/605.1.15 (KHTML, like Gecko) Version/17.5 Safari/605.1.15",Macintosh,Safari,17.5,OS X,10_15_7,https://5puzkbbxv1.cognition.run/?sona_id=47910,"en-US,en;q=0.9",uqpbu7704lpk5aw,23,"[""Asian""]",No,Female,India: 19 years,I'm not sure,992262,NA,10060,NA,"{""product_choice"":""B""}",choice,ctd,trinary,repulsion_A,2,washing machines,null,null,null,null,null,null,1,30,40,20,100,90,100,Average lifespan,Energy savings,NA,NA
NA,NA,NA,NA,NA,choice_trial_setup,html-keyboard-response,86,899228,0.0-4.0-0.41,177,1,2025-05-05T04:27:09Z,b60275e29fe2361ab97ac0ac217840d7,"Mozilla/5.0 (Macintosh; Intel Mac OS X 10_15_7) AppleWebKit/605.1.15 (KHTML, like Gecko) Version/17.5 Safari/605.1.15",Macintosh,Safari,17.5,OS X,10_15_7,https://5puzkbbxv1.cognition.run/?sona_id=47910,"en-US,en;q=0.9",uqpbu7704lpk5aw,23,"[""Asian""]",No,Female,India: 19 years,I'm not sure,992262,NA,null,<p></p>,null,choice,ct,binary,repulsion,2,televisions,null,null,null,null,null,null,1,NA,NA,NA,NA,NA,NA,NA,NA,NA,NA
NA,NA,NA,NA,NA,choice_trial,survey-html-form,87,905199,0.0-4.0-1.41,177,1,2025-05-05T04:27:09Z,b60275e29fe2361ab97ac0ac217840d7,"Mozilla/5.0 (Macintosh; Intel Mac OS X 10_15_7) AppleWebKit/605.1.15 (KHTML, like Gecko) Version/17.5 Safari/605.1.15",Macintosh,Safari,17.5,OS X,10_15_7,https://5puzkbbxv1.cognition.run/?sona_id=47910,"en-US,en;q=0.9",uqpbu7704lpk5aw,23,"[""Asian""]",No,Female,India: 19 years,I'm not sure,992262,NA,5964,NA,"{""product_choice"":""A""}",choice,ct,binary,repulsion,2,televisions,null,null,null,null,null,null,1,30,40,null,100,90,null,Screen size,Average lifespan,NA,NA
NA,NA,NA,NA,NA,choice_trial_setup,html-keyboard-response,88,905502,0.0-4.0-0.42,177,1,2025-05-05T04:27:09Z,b60275e29fe2361ab97ac0ac217840d7,"Mozilla/5.0 (Macintosh; Intel Mac OS X 10_15_7) AppleWebKit/605.1.15 (KHTML, like Gecko) Version/17.5 Safari/605.1.15",Macintosh,Safari,17.5,OS X,10_15_7,https://5puzkbbxv1.cognition.run/?sona_id=47910,"en-US,en;q=0.9",uqpbu7704lpk5aw,23,"[""Asian""]",No,Female,India: 19 years,I'm not sure,992262,NA,null,<p></p>,null,choice,tcd,trinary,repulsion_A,2,laptops,null,null,null,null,null,null,1,NA,NA,NA,NA,NA,NA,NA,NA,NA,NA
NA,NA,NA,NA,NA,choice_trial,survey-html-form,89,912275,0.0-4.0-1.42,177,1,2025-05-05T04:27:09Z,b60275e29fe2361ab97ac0ac217840d7,"Mozilla/5.0 (Macintosh; Intel Mac OS X 10_15_7) AppleWebKit/605.1.15 (KHTML, like Gecko) Version/17.5 Safari/605.1.15",Macintosh,Safari,17.5,OS X,10_15_7,https://5puzkbbxv1.cognition.run/?sona_id=47910,"en-US,en;q=0.9",uqpbu7704lpk5aw,23,"[""Asian""]",No,Female,India: 19 years,I'm not sure,992262,NA,6766,NA,"{""product_choice"":""B""}",choice,tcd,trinary,repulsion_A,2,laptops,null,null,null,null,null,null,1,30,40,20,100,90,100,Processing speed,Memory (RAM),NA,NA
NA,NA,NA,NA,NA,choice_trial_setup,html-keyboard-response,90,912580,0.0-4.0-0.43,177,1,2025-05-05T04:27:09Z,b60275e29fe2361ab97ac0ac217840d7,"Mozilla/5.0 (Macintosh; Intel Mac OS X 10_15_7) AppleWebKit/605.1.15 (KHTML, like Gecko) Version/17.5 Safari/605.1.15",Macintosh,Safari,17.5,OS X,10_15_7,https://5puzkbbxv1.cognition.run/?sona_id=47910,"en-US,en;q=0.9",uqpbu7704lpk5aw,23,"[""Asian""]",No,Female,India: 19 years,I'm not sure,992262,NA,null,<p></p>,null,choice,wbw,trinary,catch,null,microwave ovens,95,95,5,50,30,20,1,NA,NA,NA,NA,NA,NA,NA,NA,NA,NA
NA,NA,NA,NA,NA,choice_trial,survey-html-form,91,917297,0.0-4.0-1.43,177,1,2025-05-05T04:27:09Z,b60275e29fe2361ab97ac0ac217840d7,"Mozilla/5.0 (Macintosh; Intel Mac OS X 10_15_7) AppleWebKit/605.1.15 (KHTML, like Gecko) Version/17.5 Safari/605.1.15",Macintosh,Safari,17.5,OS X,10_15_7,https://5puzkbbxv1.cognition.run/?sona_id=47910,"en-US,en;q=0.9",uqpbu7704lpk5aw,23,"[""Asian""]",No,Female,India: 19 years,I'm not sure,992262,NA,4712,NA,"{""product_choice"":""B""}",choice,wbw,trinary,catch,null,microwave ovens,95,95,5,50,30,20,1,null,null,null,null,null,null,Warranty,Cooking power,NA,NA
NA,NA,NA,NA,NA,post_trials_message,html-button-response,92,918997,0.0-5.0,177,1,2025-05-05T04:27:09Z,b60275e29fe2361ab97ac0ac217840d7,"Mozilla/5.0 (Macintosh; Intel Mac OS X 10_15_7) AppleWebKit/605.1.15 (KHTML, like Gecko) Version/17.5 Safari/605.1.15",Macintosh,Safari,17.5,OS X,10_15_7,https://5puzkbbxv1.cognition.run/?sona_id=47910,"en-US,en;q=0.9",uqpbu7704lpk5aw,23,"[""Asian""]",No,Female,India: 19 years,I'm not sure,992262,NA,1693,<p> <b>Thank you for your patience!</b></p><p>  The study will be done after completing a brief form. </p>,0,NA,NA,NA,NA,NA,NA,NA,NA,NA,NA,NA,NA,NA,NA,NA,NA,NA,NA,NA,NA,NA,NA,NA
NA,NA,NA,NA,NA,survey_message,survey-text,93,997521,0.0-6.0,177,1,2025-05-05T04:27:09Z,b60275e29fe2361ab97ac0ac217840d7,"Mozilla/5.0 (Macintosh; Intel Mac OS X 10_15_7) AppleWebKit/605.1.15 (KHTML, like Gecko) Version/17.5 Safari/605.1.15",Macintosh,Safari,17.5,OS X,10_15_7,https://5puzkbbxv1.cognition.run/?sona_id=47910,"en-US,en;q=0.9",uqpbu7704lpk5aw,23,"[""Asian""]",No,Female,India: 19 years,I'm not sure,992262,NA,78494,NA,"{""Q0"":""I chose the features that matter to me, plus I don't care about the life span much because some new technology might come for me to buy by the time my product is old.""}",NA,NA,NA,NA,NA,NA,NA,NA,NA,NA,NA,NA,NA,NA,NA,NA,NA,NA,NA,NA,NA,"I chose the features that matter to me, plus I don't care about the life span much because some new technology might come for me to buy by the time my product is old.",NA
NA,NA,NA,NA,NA,demo_age,survey-text,94,1000076,0.0-7.0,177,1,2025-05-05T04:27:09Z,b60275e29fe2361ab97ac0ac217840d7,"Mozilla/5.0 (Macintosh; Intel Mac OS X 10_15_7) AppleWebKit/605.1.15 (KHTML, like Gecko) Version/17.5 Safari/605.1.15",Macintosh,Safari,17.5,OS X,10_15_7,https://5puzkbbxv1.cognition.run/?sona_id=47910,"en-US,en;q=0.9",uqpbu7704lpk5aw,23,"[""Asian""]",No,Female,India: 19 years,I'm not sure,992262,NA,2547,NA,"{""Q0"":""23""}",NA,NA,NA,NA,NA,NA,NA,NA,NA,NA,NA,NA,NA,NA,NA,NA,NA,NA,NA,NA,NA,NA,NA
NA,NA,NA,NA,NA,demo_race,survey-multi-select,95,1002990,0.0-8.0,177,1,2025-05-05T04:27:09Z,b60275e29fe2361ab97ac0ac217840d7,"Mozilla/5.0 (Macintosh; Intel Mac OS X 10_15_7) AppleWebKit/605.1.15 (KHTML, like Gecko) Version/17.5 Safari/605.1.15",Macintosh,Safari,17.5,OS X,10_15_7,https://5puzkbbxv1.cognition.run/?sona_id=47910,"en-US,en;q=0.9",uqpbu7704lpk5aw,23,"[""Asian""]",No,Female,India: 19 years,I'm not sure,992262,NA,2907,NA,"{""Q0"":[""Asian""]}",NA,NA,NA,NA,NA,NA,NA,NA,NA,NA,NA,NA,NA,NA,NA,NA,NA,NA,NA,NA,NA,NA,[0]
NA,NA,NA,NA,NA,demo_ethnicity_gender,survey-multi-choice,96,1008542,0.0-9.0,177,1,2025-05-05T04:27:09Z,b60275e29fe2361ab97ac0ac217840d7,"Mozilla/5.0 (Macintosh; Intel Mac OS X 10_15_7) AppleWebKit/605.1.15 (KHTML, like Gecko) Version/17.5 Safari/605.1.15",Macintosh,Safari,17.5,OS X,10_15_7,https://5puzkbbxv1.cognition.run/?sona_id=47910,"en-US,en;q=0.9",uqpbu7704lpk5aw,23,"[""Asian""]",No,Female,India: 19 years,I'm not sure,992262,NA,5544,NA,"{""Q0"":""No"",""Q1"":""Female""}",NA,NA,NA,NA,NA,NA,NA,NA,NA,NA,NA,NA,NA,NA,NA,NA,NA,NA,NA,NA,NA,NA,"[0,1]"
NA,NA,NA,NA,NA,demo_countries,survey-text,97,1032706,0.0-10.0,177,1,2025-05-05T04:27:09Z,b60275e29fe2361ab97ac0ac217840d7,"Mozilla/5.0 (Macintosh; Intel Mac OS X 10_15_7) AppleWebKit/605.1.15 (KHTML, like Gecko) Version/17.5 Safari/605.1.15",Macintosh,Safari,17.5,OS X,10_15_7,https://5puzkbbxv1.cognition.run/?sona_id=47910,"en-US,en;q=0.9",uqpbu7704lpk5aw,23,"[""Asian""]",No,Female,India: 19 years,I'm not sure,992262,NA,24158,NA,"{""Q0"":""India: 19 years""}",NA,NA,NA,NA,NA,NA,NA,NA,NA,NA,NA,NA,NA,NA,NA,NA,NA,NA,NA,NA,NA,NA,NA
NA,NA,NA,NA,NA,demo_prev_study,survey-multi-choice,98,1044566,0.0-11.0,177,1,2025-05-05T04:27:09Z,b60275e29fe2361ab97ac0ac217840d7,"Mozilla/5.0 (Macintosh; Intel Mac OS X 10_15_7) AppleWebKit/605.1.15 (KHTML, like Gecko) Version/17.5 Safari/605.1.15",Macintosh,Safari,17.5,OS X,10_15_7,https://5puzkbbxv1.cognition.run/?sona_id=47910,"en-US,en;q=0.9",uqpbu7704lpk5aw,23,"[""Asian""]",No,Female,India: 19 years,I'm not sure,992262,NA,11855,NA,"{""Q0"":""I'm not sure""}",NA,NA,NA,NA,NA,NA,NA,NA,NA,NA,NA,NA,NA,NA,NA,NA,NA,NA,NA,NA,NA,NA,[0]
NA,NA,NA,NA,NA,post_survey_message,html-keyboard-response,99,1051491,0.0-12.0,177,1,2025-05-05T04:27:09Z,b60275e29fe2361ab97ac0ac217840d7,"Mozilla/5.0 (Macintosh; Intel Mac OS X 10_15_7) AppleWebKit/605.1.15 (KHTML, like Gecko) Version/17.5 Safari/605.1.15",Macintosh,Safari,17.5,OS X,10_15_7,https://5puzkbbxv1.cognition.run/?sona_id=47910,"en-US,en;q=0.9",uqpbu7704lpk5aw,23,"[""Asian""]",No,Female,India: 19 years,I'm not sure,992262,NA,6918,NA,j,NA,NA,NA,NA,NA,NA,NA,NA,NA,NA,NA,NA,NA,NA,NA,NA,NA,NA,NA,NA,NA,NA,NA
NA,NA,NA,NA,NA,debrief,image-keyboard-response,100,1056231,0.0-13.0,177,1,2025-05-05T04:27:09Z,b60275e29fe2361ab97ac0ac217840d7,"Mozilla/5.0 (Macintosh; Intel Mac OS X 10_15_7) AppleWebKit/605.1.15 (KHTML, like Gecko) Version/17.5 Safari/605.1.15",Macintosh,Safari,17.5,OS X,10_15_7,https://5puzkbbxv1.cognition.run/?sona_id=47910,"en-US,en;q=0.9",uqpbu7704lpk5aw,23,"[""Asian""]",No,Female,India: 19 years,I'm not sure,992262,NA,4680,Judg_choice_debrief.png,p,NA,NA,NA,NA,NA,NA,NA,NA,NA,NA,NA,NA,NA,NA,NA,NA,NA,NA,NA,NA,NA,NA,NA
