success,timeout,failed_images,failed_audio,failed_video,screen_id,trial_type,trial_index,time_elapsed,internal_node_id,run_id,condition,recorded_at,source_code_version,user_agent,device,browser,browser_version,platform,platform_version,referer,accept_language,ppt_id,age,race,ethnicity,gender,other_countries,prev_study,exp_duration,view_history,rt,stimulus,response,phase,order,set,effect,t_high,category,d1_best,d2_best,d1_worst1,d2_worst1,d1_worst2,d2_worst2,first_dim,d1_t,d1_c,d1_d,d2_t,d2_c,d2_d,d1_name,d2_name,strategy_response,question_order
TRUE,FALSE,[],[],[],img preload,preload,0,123,0.0-0.0,178,1,2025-05-05T07:14:48Z,b60275e29fe2361ab97ac0ac217840d7,"Mozilla/5.0 (Macintosh; Intel Mac OS X 10_15_7) AppleWebKit/605.1.15 (KHTML, like Gecko) Version/18.4 Safari/605.1.15",Macintosh,Safari,18.4,OS X,10_15_7,https://5puzkbbxv1.cognition.run/?sona_id=55398,"en-US,en;q=0.9",y8gu1g6040oje1s,18,"[""Black or African-American"",""White""]",No,Female,NA,Yes,919822,NA,NA,NA,NA,NA,NA,NA,NA,NA,NA,NA,NA,NA,NA,NA,NA,NA,NA,NA,NA,NA,NA,NA,NA,NA,NA,NA
NA,NA,NA,NA,NA,computer_message,instructions,1,5976,0.0-1.0,178,1,2025-05-05T07:14:48Z,b60275e29fe2361ab97ac0ac217840d7,"Mozilla/5.0 (Macintosh; Intel Mac OS X 10_15_7) AppleWebKit/605.1.15 (KHTML, like Gecko) Version/18.4 Safari/605.1.15",Macintosh,Safari,18.4,OS X,10_15_7,https://5puzkbbxv1.cognition.run/?sona_id=55398,"en-US,en;q=0.9",y8gu1g6040oje1s,18,"[""Black or African-American"",""White""]",No,Female,NA,Yes,919822,"[{""page_index"":0,""viewing_time"":5851}]",5852,NA,NA,NA,NA,NA,NA,NA,NA,NA,NA,NA,NA,NA,NA,NA,NA,NA,NA,NA,NA,NA,NA,NA,NA,NA
TRUE,NA,NA,NA,NA,NA,fullscreen,2,13295,0.0-2.0,178,1,2025-05-05T07:14:48Z,b60275e29fe2361ab97ac0ac217840d7,"Mozilla/5.0 (Macintosh; Intel Mac OS X 10_15_7) AppleWebKit/605.1.15 (KHTML, like Gecko) Version/18.4 Safari/605.1.15",Macintosh,Safari,18.4,OS X,10_15_7,https://5puzkbbxv1.cognition.run/?sona_id=55398,"en-US,en;q=0.9",y8gu1g6040oje1s,18,"[""Black or African-American"",""White""]",No,Female,NA,Yes,919822,NA,6314,NA,NA,NA,NA,NA,NA,NA,NA,NA,NA,NA,NA,NA,NA,NA,NA,NA,NA,NA,NA,NA,NA,NA,NA,NA
NA,NA,NA,NA,NA,choice_instructions,instructions,3,204058,0.0-3.0,178,1,2025-05-05T07:14:48Z,b60275e29fe2361ab97ac0ac217840d7,"Mozilla/5.0 (Macintosh; Intel Mac OS X 10_15_7) AppleWebKit/605.1.15 (KHTML, like Gecko) Version/18.4 Safari/605.1.15",Macintosh,Safari,18.4,OS X,10_15_7,https://5puzkbbxv1.cognition.run/?sona_id=55398,"en-US,en;q=0.9",y8gu1g6040oje1s,18,"[""Black or African-American"",""White""]",No,Female,NA,Yes,919822,"[{""page_index"":0,""viewing_time"":1596},{""page_index"":1,""viewing_time"":6882},{""page_index"":2,""viewing_time"":38016},{""page_index"":3,""viewing_time"":82966},{""page_index"":4,""viewing_time"":6966},{""page_index"":5,""viewing_time"":39086},{""page_index"":6,""viewing_time"":15249}]",190762,NA,NA,NA,NA,NA,NA,NA,NA,NA,NA,NA,NA,NA,NA,NA,NA,NA,NA,NA,NA,NA,NA,NA,NA,NA
NA,NA,NA,NA,NA,choice_trial_setup,html-keyboard-response,4,204363,0.0-4.0-0.0,178,1,2025-05-05T07:14:48Z,b60275e29fe2361ab97ac0ac217840d7,"Mozilla/5.0 (Macintosh; Intel Mac OS X 10_15_7) AppleWebKit/605.1.15 (KHTML, like Gecko) Version/18.4 Safari/605.1.15",Macintosh,Safari,18.4,OS X,10_15_7,https://5puzkbbxv1.cognition.run/?sona_id=55398,"en-US,en;q=0.9",y8gu1g6040oje1s,18,"[""Black or African-American"",""White""]",No,Female,NA,Yes,919822,NA,null,<p></p>,null,choice,dtc,trinary,attraction,2,washing machines,null,null,null,null,null,null,2,NA,NA,NA,NA,NA,NA,NA,NA,NA,NA
NA,NA,NA,NA,NA,choice_trial,survey-html-form,5,218192,0.0-4.0-1.0,178,1,2025-05-05T07:14:48Z,b60275e29fe2361ab97ac0ac217840d7,"Mozilla/5.0 (Macintosh; Intel Mac OS X 10_15_7) AppleWebKit/605.1.15 (KHTML, like Gecko) Version/18.4 Safari/605.1.15",Macintosh,Safari,18.4,OS X,10_15_7,https://5puzkbbxv1.cognition.run/?sona_id=55398,"en-US,en;q=0.9",y8gu1g6040oje1s,18,"[""Black or African-American"",""White""]",No,Female,NA,Yes,919822,NA,13822,NA,"{""product_choice"":""B""}",choice,dtc,trinary,attraction,2,washing machines,null,null,null,null,null,null,2,50,60,40,60,50,60,Average lifespan,Energy savings,NA,NA
NA,NA,NA,NA,NA,choice_trial_setup,html-keyboard-response,6,218496,0.0-4.0-0.1,178,1,2025-05-05T07:14:48Z,b60275e29fe2361ab97ac0ac217840d7,"Mozilla/5.0 (Macintosh; Intel Mac OS X 10_15_7) AppleWebKit/605.1.15 (KHTML, like Gecko) Version/18.4 Safari/605.1.15",Macintosh,Safari,18.4,OS X,10_15_7,https://5puzkbbxv1.cognition.run/?sona_id=55398,"en-US,en;q=0.9",y8gu1g6040oje1s,18,"[""Black or African-American"",""White""]",No,Female,NA,Yes,919822,NA,null,<p></p>,null,choice,cdt,trinary,repulsion_A,2,laptops,null,null,null,null,null,null,2,NA,NA,NA,NA,NA,NA,NA,NA,NA,NA
NA,NA,NA,NA,NA,choice_trial,survey-html-form,7,230009,0.0-4.0-1.1,178,1,2025-05-05T07:14:48Z,b60275e29fe2361ab97ac0ac217840d7,"Mozilla/5.0 (Macintosh; Intel Mac OS X 10_15_7) AppleWebKit/605.1.15 (KHTML, like Gecko) Version/18.4 Safari/605.1.15",Macintosh,Safari,18.4,OS X,10_15_7,https://5puzkbbxv1.cognition.run/?sona_id=55398,"en-US,en;q=0.9",y8gu1g6040oje1s,18,"[""Black or African-American"",""White""]",No,Female,NA,Yes,919822,NA,11508,NA,"{""product_choice"":""C""}",choice,cdt,trinary,repulsion_A,2,laptops,null,null,null,null,null,null,2,30,40,20,100,90,100,Processing speed,Memory (RAM),NA,NA
NA,NA,NA,NA,NA,choice_trial_setup,html-keyboard-response,8,230311,0.0-4.0-0.2,178,1,2025-05-05T07:14:48Z,b60275e29fe2361ab97ac0ac217840d7,"Mozilla/5.0 (Macintosh; Intel Mac OS X 10_15_7) AppleWebKit/605.1.15 (KHTML, like Gecko) Version/18.4 Safari/605.1.15",Macintosh,Safari,18.4,OS X,10_15_7,https://5puzkbbxv1.cognition.run/?sona_id=55398,"en-US,en;q=0.9",y8gu1g6040oje1s,18,"[""Black or African-American"",""White""]",No,Female,NA,Yes,919822,NA,null,<p></p>,null,choice,dct,trinary,attraction,2,microwave ovens,null,null,null,null,null,null,2,NA,NA,NA,NA,NA,NA,NA,NA,NA,NA
NA,NA,NA,NA,NA,choice_trial,survey-html-form,9,246376,0.0-4.0-1.2,178,1,2025-05-05T07:14:48Z,b60275e29fe2361ab97ac0ac217840d7,"Mozilla/5.0 (Macintosh; Intel Mac OS X 10_15_7) AppleWebKit/605.1.15 (KHTML, like Gecko) Version/18.4 Safari/605.1.15",Macintosh,Safari,18.4,OS X,10_15_7,https://5puzkbbxv1.cognition.run/?sona_id=55398,"en-US,en;q=0.9",y8gu1g6040oje1s,18,"[""Black or African-American"",""White""]",No,Female,NA,Yes,919822,NA,16060,NA,"{""product_choice"":""C""}",choice,dct,trinary,attraction,2,microwave ovens,null,null,null,null,null,null,2,50,60,40,60,50,60,Warranty,Cooking power,NA,NA
NA,NA,NA,NA,NA,choice_trial_setup,html-keyboard-response,10,246679,0.0-4.0-0.3,178,1,2025-05-05T07:14:48Z,b60275e29fe2361ab97ac0ac217840d7,"Mozilla/5.0 (Macintosh; Intel Mac OS X 10_15_7) AppleWebKit/605.1.15 (KHTML, like Gecko) Version/18.4 Safari/605.1.15",Macintosh,Safari,18.4,OS X,10_15_7,https://5puzkbbxv1.cognition.run/?sona_id=55398,"en-US,en;q=0.9",y8gu1g6040oje1s,18,"[""Black or African-American"",""White""]",No,Female,NA,Yes,919822,NA,null,<p></p>,null,choice,dtc,trinary,attraction,1,washing machines,null,null,null,null,null,null,2,NA,NA,NA,NA,NA,NA,NA,NA,NA,NA
NA,NA,NA,NA,NA,choice_trial,survey-html-form,11,278359,0.0-4.0-1.3,178,1,2025-05-05T07:14:48Z,b60275e29fe2361ab97ac0ac217840d7,"Mozilla/5.0 (Macintosh; Intel Mac OS X 10_15_7) AppleWebKit/605.1.15 (KHTML, like Gecko) Version/18.4 Safari/605.1.15",Macintosh,Safari,18.4,OS X,10_15_7,https://5puzkbbxv1.cognition.run/?sona_id=55398,"en-US,en;q=0.9",y8gu1g6040oje1s,18,"[""Black or African-American"",""White""]",No,Female,NA,Yes,919822,NA,31675,NA,"{""product_choice"":""B""}",choice,dtc,trinary,attraction,1,washing machines,null,null,null,null,null,null,2,60,50,60,50,60,40,Average lifespan,Energy savings,NA,NA
NA,NA,NA,NA,NA,choice_trial_setup,html-keyboard-response,12,278662,0.0-4.0-0.4,178,1,2025-05-05T07:14:48Z,b60275e29fe2361ab97ac0ac217840d7,"Mozilla/5.0 (Macintosh; Intel Mac OS X 10_15_7) AppleWebKit/605.1.15 (KHTML, like Gecko) Version/18.4 Safari/605.1.15",Macintosh,Safari,18.4,OS X,10_15_7,https://5puzkbbxv1.cognition.run/?sona_id=55398,"en-US,en;q=0.9",y8gu1g6040oje1s,18,"[""Black or African-American"",""White""]",No,Female,NA,Yes,919822,NA,null,<p></p>,null,choice,cdt,trinary,attraction,2,televisions,null,null,null,null,null,null,1,NA,NA,NA,NA,NA,NA,NA,NA,NA,NA
NA,NA,NA,NA,NA,choice_trial,survey-html-form,13,301009,0.0-4.0-1.4,178,1,2025-05-05T07:14:48Z,b60275e29fe2361ab97ac0ac217840d7,"Mozilla/5.0 (Macintosh; Intel Mac OS X 10_15_7) AppleWebKit/605.1.15 (KHTML, like Gecko) Version/18.4 Safari/605.1.15",Macintosh,Safari,18.4,OS X,10_15_7,https://5puzkbbxv1.cognition.run/?sona_id=55398,"en-US,en;q=0.9",y8gu1g6040oje1s,18,"[""Black or African-American"",""White""]",No,Female,NA,Yes,919822,NA,22342,NA,"{""product_choice"":""C""}",choice,cdt,trinary,attraction,2,televisions,null,null,null,null,null,null,1,50,60,40,60,50,60,Screen size,Average lifespan,NA,NA
NA,NA,NA,NA,NA,choice_trial_setup,html-keyboard-response,14,301312,0.0-4.0-0.5,178,1,2025-05-05T07:14:48Z,b60275e29fe2361ab97ac0ac217840d7,"Mozilla/5.0 (Macintosh; Intel Mac OS X 10_15_7) AppleWebKit/605.1.15 (KHTML, like Gecko) Version/18.4 Safari/605.1.15",Macintosh,Safari,18.4,OS X,10_15_7,https://5puzkbbxv1.cognition.run/?sona_id=55398,"en-US,en;q=0.9",y8gu1g6040oje1s,18,"[""Black or African-American"",""White""]",No,Female,NA,Yes,919822,NA,null,<p></p>,null,choice,dtc,trinary,attraction,1,microwave ovens,null,null,null,null,null,null,1,NA,NA,NA,NA,NA,NA,NA,NA,NA,NA
NA,NA,NA,NA,NA,choice_trial,survey-html-form,15,324525,0.0-4.0-1.5,178,1,2025-05-05T07:14:48Z,b60275e29fe2361ab97ac0ac217840d7,"Mozilla/5.0 (Macintosh; Intel Mac OS X 10_15_7) AppleWebKit/605.1.15 (KHTML, like Gecko) Version/18.4 Safari/605.1.15",Macintosh,Safari,18.4,OS X,10_15_7,https://5puzkbbxv1.cognition.run/?sona_id=55398,"en-US,en;q=0.9",y8gu1g6040oje1s,18,"[""Black or African-American"",""White""]",No,Female,NA,Yes,919822,NA,23207,NA,"{""product_choice"":""B""}",choice,dtc,trinary,attraction,1,microwave ovens,null,null,null,null,null,null,1,60,50,60,50,60,40,Warranty,Cooking power,NA,NA
NA,NA,NA,NA,NA,choice_trial_setup,html-keyboard-response,16,324828,0.0-4.0-0.6,178,1,2025-05-05T07:14:48Z,b60275e29fe2361ab97ac0ac217840d7,"Mozilla/5.0 (Macintosh; Intel Mac OS X 10_15_7) AppleWebKit/605.1.15 (KHTML, like Gecko) Version/18.4 Safari/605.1.15",Macintosh,Safari,18.4,OS X,10_15_7,https://5puzkbbxv1.cognition.run/?sona_id=55398,"en-US,en;q=0.9",y8gu1g6040oje1s,18,"[""Black or African-American"",""White""]",No,Female,NA,Yes,919822,NA,null,<p></p>,null,choice,bww,trinary,catch,null,washing machines,90,85,50,40,35,30,2,NA,NA,NA,NA,NA,NA,NA,NA,NA,NA
NA,NA,NA,NA,NA,choice_trial,survey-html-form,17,336575,0.0-4.0-1.6,178,1,2025-05-05T07:14:48Z,b60275e29fe2361ab97ac0ac217840d7,"Mozilla/5.0 (Macintosh; Intel Mac OS X 10_15_7) AppleWebKit/605.1.15 (KHTML, like Gecko) Version/18.4 Safari/605.1.15",Macintosh,Safari,18.4,OS X,10_15_7,https://5puzkbbxv1.cognition.run/?sona_id=55398,"en-US,en;q=0.9",y8gu1g6040oje1s,18,"[""Black or African-American"",""White""]",No,Female,NA,Yes,919822,NA,11741,NA,"{""product_choice"":""A""}",choice,bww,trinary,catch,null,washing machines,90,85,50,40,35,30,2,null,null,null,null,null,null,Average lifespan,Energy savings,NA,NA
NA,NA,NA,NA,NA,choice_trial_setup,html-keyboard-response,18,336877,0.0-4.0-0.7,178,1,2025-05-05T07:14:48Z,b60275e29fe2361ab97ac0ac217840d7,"Mozilla/5.0 (Macintosh; Intel Mac OS X 10_15_7) AppleWebKit/605.1.15 (KHTML, like Gecko) Version/18.4 Safari/605.1.15",Macintosh,Safari,18.4,OS X,10_15_7,https://5puzkbbxv1.cognition.run/?sona_id=55398,"en-US,en;q=0.9",y8gu1g6040oje1s,18,"[""Black or African-American"",""White""]",No,Female,NA,Yes,919822,NA,null,<p></p>,null,choice,wb,binary,catch,null,microwave ovens,95,65,20,30,null,null,2,NA,NA,NA,NA,NA,NA,NA,NA,NA,NA
NA,NA,NA,NA,NA,choice_trial,survey-html-form,19,352692,0.0-4.0-1.7,178,1,2025-05-05T07:14:48Z,b60275e29fe2361ab97ac0ac217840d7,"Mozilla/5.0 (Macintosh; Intel Mac OS X 10_15_7) AppleWebKit/605.1.15 (KHTML, like Gecko) Version/18.4 Safari/605.1.15",Macintosh,Safari,18.4,OS X,10_15_7,https://5puzkbbxv1.cognition.run/?sona_id=55398,"en-US,en;q=0.9",y8gu1g6040oje1s,18,"[""Black or African-American"",""White""]",No,Female,NA,Yes,919822,NA,15809,NA,"{""product_choice"":""B""}",choice,wb,binary,catch,null,microwave ovens,95,65,20,30,null,null,2,null,null,null,null,null,null,Warranty,Cooking power,NA,NA
NA,NA,NA,NA,NA,choice_trial_setup,html-keyboard-response,20,352995,0.0-4.0-0.8,178,1,2025-05-05T07:14:48Z,b60275e29fe2361ab97ac0ac217840d7,"Mozilla/5.0 (Macintosh; Intel Mac OS X 10_15_7) AppleWebKit/605.1.15 (KHTML, like Gecko) Version/18.4 Safari/605.1.15",Macintosh,Safari,18.4,OS X,10_15_7,https://5puzkbbxv1.cognition.run/?sona_id=55398,"en-US,en;q=0.9",y8gu1g6040oje1s,18,"[""Black or African-American"",""White""]",No,Female,NA,Yes,919822,NA,null,<p></p>,null,choice,ctd,trinary,repulsion_A,1,microwave ovens,null,null,null,null,null,null,1,NA,NA,NA,NA,NA,NA,NA,NA,NA,NA
NA,NA,NA,NA,NA,choice_trial,survey-html-form,21,362092,0.0-4.0-1.8,178,1,2025-05-05T07:14:48Z,b60275e29fe2361ab97ac0ac217840d7,"Mozilla/5.0 (Macintosh; Intel Mac OS X 10_15_7) AppleWebKit/605.1.15 (KHTML, like Gecko) Version/18.4 Safari/605.1.15",Macintosh,Safari,18.4,OS X,10_15_7,https://5puzkbbxv1.cognition.run/?sona_id=55398,"en-US,en;q=0.9",y8gu1g6040oje1s,18,"[""Black or African-American"",""White""]",No,Female,NA,Yes,919822,NA,9092,NA,"{""product_choice"":""A""}",choice,ctd,trinary,repulsion_A,1,microwave ovens,null,null,null,null,null,null,1,100,90,100,30,40,20,Warranty,Cooking power,NA,NA
NA,NA,NA,NA,NA,choice_trial_setup,html-keyboard-response,22,362394,0.0-4.0-0.9,178,1,2025-05-05T07:14:48Z,b60275e29fe2361ab97ac0ac217840d7,"Mozilla/5.0 (Macintosh; Intel Mac OS X 10_15_7) AppleWebKit/605.1.15 (KHTML, like Gecko) Version/18.4 Safari/605.1.15",Macintosh,Safari,18.4,OS X,10_15_7,https://5puzkbbxv1.cognition.run/?sona_id=55398,"en-US,en;q=0.9",y8gu1g6040oje1s,18,"[""Black or African-American"",""White""]",No,Female,NA,Yes,919822,NA,null,<p></p>,null,choice,bw,binary,catch,null,televisions,65,90,5,5,null,null,1,NA,NA,NA,NA,NA,NA,NA,NA,NA,NA
NA,NA,NA,NA,NA,choice_trial,survey-html-form,23,371525,0.0-4.0-1.9,178,1,2025-05-05T07:14:48Z,b60275e29fe2361ab97ac0ac217840d7,"Mozilla/5.0 (Macintosh; Intel Mac OS X 10_15_7) AppleWebKit/605.1.15 (KHTML, like Gecko) Version/18.4 Safari/605.1.15",Macintosh,Safari,18.4,OS X,10_15_7,https://5puzkbbxv1.cognition.run/?sona_id=55398,"en-US,en;q=0.9",y8gu1g6040oje1s,18,"[""Black or African-American"",""White""]",No,Female,NA,Yes,919822,NA,9126,NA,"{""product_choice"":""A""}",choice,bw,binary,catch,null,televisions,65,90,5,5,null,null,1,null,null,null,null,null,null,Screen size,Average lifespan,NA,NA
NA,NA,NA,NA,NA,choice_trial_setup,html-keyboard-response,24,371828,0.0-4.0-0.10,178,1,2025-05-05T07:14:48Z,b60275e29fe2361ab97ac0ac217840d7,"Mozilla/5.0 (Macintosh; Intel Mac OS X 10_15_7) AppleWebKit/605.1.15 (KHTML, like Gecko) Version/18.4 Safari/605.1.15",Macintosh,Safari,18.4,OS X,10_15_7,https://5puzkbbxv1.cognition.run/?sona_id=55398,"en-US,en;q=0.9",y8gu1g6040oje1s,18,"[""Black or African-American"",""White""]",No,Female,NA,Yes,919822,NA,null,<p></p>,null,choice,dct,trinary,attraction,1,laptops,null,null,null,null,null,null,2,NA,NA,NA,NA,NA,NA,NA,NA,NA,NA
NA,NA,NA,NA,NA,choice_trial,survey-html-form,25,381290,0.0-4.0-1.10,178,1,2025-05-05T07:14:48Z,b60275e29fe2361ab97ac0ac217840d7,"Mozilla/5.0 (Macintosh; Intel Mac OS X 10_15_7) AppleWebKit/605.1.15 (KHTML, like Gecko) Version/18.4 Safari/605.1.15",Macintosh,Safari,18.4,OS X,10_15_7,https://5puzkbbxv1.cognition.run/?sona_id=55398,"en-US,en;q=0.9",y8gu1g6040oje1s,18,"[""Black or African-American"",""White""]",No,Female,NA,Yes,919822,NA,9457,NA,"{""product_choice"":""C""}",choice,dct,trinary,attraction,1,laptops,null,null,null,null,null,null,2,60,50,60,50,60,40,Processing speed,Memory (RAM),NA,NA
NA,NA,NA,NA,NA,choice_trial_setup,html-keyboard-response,26,381591,0.0-4.0-0.11,178,1,2025-05-05T07:14:48Z,b60275e29fe2361ab97ac0ac217840d7,"Mozilla/5.0 (Macintosh; Intel Mac OS X 10_15_7) AppleWebKit/605.1.15 (KHTML, like Gecko) Version/18.4 Safari/605.1.15",Macintosh,Safari,18.4,OS X,10_15_7,https://5puzkbbxv1.cognition.run/?sona_id=55398,"en-US,en;q=0.9",y8gu1g6040oje1s,18,"[""Black or African-American"",""White""]",No,Female,NA,Yes,919822,NA,null,<p></p>,null,choice,tdc,trinary,repulsion_A,2,washing machines,null,null,null,null,null,null,2,NA,NA,NA,NA,NA,NA,NA,NA,NA,NA
NA,NA,NA,NA,NA,choice_trial,survey-html-form,27,392825,0.0-4.0-1.11,178,1,2025-05-05T07:14:48Z,b60275e29fe2361ab97ac0ac217840d7,"Mozilla/5.0 (Macintosh; Intel Mac OS X 10_15_7) AppleWebKit/605.1.15 (KHTML, like Gecko) Version/18.4 Safari/605.1.15",Macintosh,Safari,18.4,OS X,10_15_7,https://5puzkbbxv1.cognition.run/?sona_id=55398,"en-US,en;q=0.9",y8gu1g6040oje1s,18,"[""Black or African-American"",""White""]",No,Female,NA,Yes,919822,NA,11230,NA,"{""product_choice"":""C""}",choice,tdc,trinary,repulsion_A,2,washing machines,null,null,null,null,null,null,2,30,40,20,100,90,100,Average lifespan,Energy savings,NA,NA
NA,NA,NA,NA,NA,choice_trial_setup,html-keyboard-response,28,393128,0.0-4.0-0.12,178,1,2025-05-05T07:14:48Z,b60275e29fe2361ab97ac0ac217840d7,"Mozilla/5.0 (Macintosh; Intel Mac OS X 10_15_7) AppleWebKit/605.1.15 (KHTML, like Gecko) Version/18.4 Safari/605.1.15",Macintosh,Safari,18.4,OS X,10_15_7,https://5puzkbbxv1.cognition.run/?sona_id=55398,"en-US,en;q=0.9",y8gu1g6040oje1s,18,"[""Black or African-American"",""White""]",No,Female,NA,Yes,919822,NA,null,<p></p>,null,choice,bw,binary,catch,null,laptops,85,70,25,20,null,null,2,NA,NA,NA,NA,NA,NA,NA,NA,NA,NA
NA,NA,NA,NA,NA,choice_trial,survey-html-form,29,407409,0.0-4.0-1.12,178,1,2025-05-05T07:14:48Z,b60275e29fe2361ab97ac0ac217840d7,"Mozilla/5.0 (Macintosh; Intel Mac OS X 10_15_7) AppleWebKit/605.1.15 (KHTML, like Gecko) Version/18.4 Safari/605.1.15",Macintosh,Safari,18.4,OS X,10_15_7,https://5puzkbbxv1.cognition.run/?sona_id=55398,"en-US,en;q=0.9",y8gu1g6040oje1s,18,"[""Black or African-American"",""White""]",No,Female,NA,Yes,919822,NA,14275,NA,"{""product_choice"":""A""}",choice,bw,binary,catch,null,laptops,85,70,25,20,null,null,2,null,null,null,null,null,null,Processing speed,Memory (RAM),NA,NA
NA,NA,NA,NA,NA,choice_trial_setup,html-keyboard-response,30,407712,0.0-4.0-0.13,178,1,2025-05-05T07:14:48Z,b60275e29fe2361ab97ac0ac217840d7,"Mozilla/5.0 (Macintosh; Intel Mac OS X 10_15_7) AppleWebKit/605.1.15 (KHTML, like Gecko) Version/18.4 Safari/605.1.15",Macintosh,Safari,18.4,OS X,10_15_7,https://5puzkbbxv1.cognition.run/?sona_id=55398,"en-US,en;q=0.9",y8gu1g6040oje1s,18,"[""Black or African-American"",""White""]",No,Female,NA,Yes,919822,NA,null,<p></p>,null,choice,ct,binary,repulsion,2,microwave ovens,null,null,null,null,null,null,1,NA,NA,NA,NA,NA,NA,NA,NA,NA,NA
NA,NA,NA,NA,NA,choice_trial,survey-html-form,31,423125,0.0-4.0-1.13,178,1,2025-05-05T07:14:48Z,b60275e29fe2361ab97ac0ac217840d7,"Mozilla/5.0 (Macintosh; Intel Mac OS X 10_15_7) AppleWebKit/605.1.15 (KHTML, like Gecko) Version/18.4 Safari/605.1.15",Macintosh,Safari,18.4,OS X,10_15_7,https://5puzkbbxv1.cognition.run/?sona_id=55398,"en-US,en;q=0.9",y8gu1g6040oje1s,18,"[""Black or African-American"",""White""]",No,Female,NA,Yes,919822,NA,15406,NA,"{""product_choice"":""A""}",choice,ct,binary,repulsion,2,microwave ovens,null,null,null,null,null,null,1,30,40,null,100,90,null,Warranty,Cooking power,NA,NA
NA,NA,NA,NA,NA,choice_trial_setup,html-keyboard-response,32,423428,0.0-4.0-0.14,178,1,2025-05-05T07:14:48Z,b60275e29fe2361ab97ac0ac217840d7,"Mozilla/5.0 (Macintosh; Intel Mac OS X 10_15_7) AppleWebKit/605.1.15 (KHTML, like Gecko) Version/18.4 Safari/605.1.15",Macintosh,Safari,18.4,OS X,10_15_7,https://5puzkbbxv1.cognition.run/?sona_id=55398,"en-US,en;q=0.9",y8gu1g6040oje1s,18,"[""Black or African-American"",""White""]",No,Female,NA,Yes,919822,NA,null,<p></p>,null,choice,cdt,trinary,attraction,1,televisions,null,null,null,null,null,null,2,NA,NA,NA,NA,NA,NA,NA,NA,NA,NA
NA,NA,NA,NA,NA,choice_trial,survey-html-form,33,444674,0.0-4.0-1.14,178,1,2025-05-05T07:14:48Z,b60275e29fe2361ab97ac0ac217840d7,"Mozilla/5.0 (Macintosh; Intel Mac OS X 10_15_7) AppleWebKit/605.1.15 (KHTML, like Gecko) Version/18.4 Safari/605.1.15",Macintosh,Safari,18.4,OS X,10_15_7,https://5puzkbbxv1.cognition.run/?sona_id=55398,"en-US,en;q=0.9",y8gu1g6040oje1s,18,"[""Black or African-American"",""White""]",No,Female,NA,Yes,919822,NA,21239,NA,"{""product_choice"":""A""}",choice,cdt,trinary,attraction,1,televisions,null,null,null,null,null,null,2,60,50,60,50,60,40,Screen size,Average lifespan,NA,NA
NA,NA,NA,NA,NA,choice_trial_setup,html-keyboard-response,34,444976,0.0-4.0-0.15,178,1,2025-05-05T07:14:48Z,b60275e29fe2361ab97ac0ac217840d7,"Mozilla/5.0 (Macintosh; Intel Mac OS X 10_15_7) AppleWebKit/605.1.15 (KHTML, like Gecko) Version/18.4 Safari/605.1.15",Macintosh,Safari,18.4,OS X,10_15_7,https://5puzkbbxv1.cognition.run/?sona_id=55398,"en-US,en;q=0.9",y8gu1g6040oje1s,18,"[""Black or African-American"",""White""]",No,Female,NA,Yes,919822,NA,null,<p></p>,null,choice,wbw,trinary,catch,null,microwave ovens,95,95,20,15,45,10,2,NA,NA,NA,NA,NA,NA,NA,NA,NA,NA
NA,NA,NA,NA,NA,choice_trial,survey-html-form,35,459856,0.0-4.0-1.15,178,1,2025-05-05T07:14:48Z,b60275e29fe2361ab97ac0ac217840d7,"Mozilla/5.0 (Macintosh; Intel Mac OS X 10_15_7) AppleWebKit/605.1.15 (KHTML, like Gecko) Version/18.4 Safari/605.1.15",Macintosh,Safari,18.4,OS X,10_15_7,https://5puzkbbxv1.cognition.run/?sona_id=55398,"en-US,en;q=0.9",y8gu1g6040oje1s,18,"[""Black or African-American"",""White""]",No,Female,NA,Yes,919822,NA,14874,NA,"{""product_choice"":""B""}",choice,wbw,trinary,catch,null,microwave ovens,95,95,20,15,45,10,2,null,null,null,null,null,null,Warranty,Cooking power,NA,NA
NA,NA,NA,NA,NA,choice_trial_setup,html-keyboard-response,36,460158,0.0-4.0-0.16,178,1,2025-05-05T07:14:48Z,b60275e29fe2361ab97ac0ac217840d7,"Mozilla/5.0 (Macintosh; Intel Mac OS X 10_15_7) AppleWebKit/605.1.15 (KHTML, like Gecko) Version/18.4 Safari/605.1.15",Macintosh,Safari,18.4,OS X,10_15_7,https://5puzkbbxv1.cognition.run/?sona_id=55398,"en-US,en;q=0.9",y8gu1g6040oje1s,18,"[""Black or African-American"",""White""]",No,Female,NA,Yes,919822,NA,null,<p></p>,null,choice,ct,binary,repulsion,2,laptops,null,null,null,null,null,null,2,NA,NA,NA,NA,NA,NA,NA,NA,NA,NA
NA,NA,NA,NA,NA,choice_trial,survey-html-form,37,467841,0.0-4.0-1.16,178,1,2025-05-05T07:14:48Z,b60275e29fe2361ab97ac0ac217840d7,"Mozilla/5.0 (Macintosh; Intel Mac OS X 10_15_7) AppleWebKit/605.1.15 (KHTML, like Gecko) Version/18.4 Safari/605.1.15",Macintosh,Safari,18.4,OS X,10_15_7,https://5puzkbbxv1.cognition.run/?sona_id=55398,"en-US,en;q=0.9",y8gu1g6040oje1s,18,"[""Black or African-American"",""White""]",No,Female,NA,Yes,919822,NA,7678,NA,"{""product_choice"":""A""}",choice,ct,binary,repulsion,2,laptops,null,null,null,null,null,null,2,30,40,null,100,90,null,Processing speed,Memory (RAM),NA,NA
NA,NA,NA,NA,NA,choice_trial_setup,html-keyboard-response,38,468144,0.0-4.0-0.17,178,1,2025-05-05T07:14:48Z,b60275e29fe2361ab97ac0ac217840d7,"Mozilla/5.0 (Macintosh; Intel Mac OS X 10_15_7) AppleWebKit/605.1.15 (KHTML, like Gecko) Version/18.4 Safari/605.1.15",Macintosh,Safari,18.4,OS X,10_15_7,https://5puzkbbxv1.cognition.run/?sona_id=55398,"en-US,en;q=0.9",y8gu1g6040oje1s,18,"[""Black or African-American"",""White""]",No,Female,NA,Yes,919822,NA,null,<p></p>,null,choice,tdc,trinary,attraction,2,laptops,null,null,null,null,null,null,2,NA,NA,NA,NA,NA,NA,NA,NA,NA,NA
NA,NA,NA,NA,NA,choice_trial,survey-html-form,39,479107,0.0-4.0-1.17,178,1,2025-05-05T07:14:48Z,b60275e29fe2361ab97ac0ac217840d7,"Mozilla/5.0 (Macintosh; Intel Mac OS X 10_15_7) AppleWebKit/605.1.15 (KHTML, like Gecko) Version/18.4 Safari/605.1.15",Macintosh,Safari,18.4,OS X,10_15_7,https://5puzkbbxv1.cognition.run/?sona_id=55398,"en-US,en;q=0.9",y8gu1g6040oje1s,18,"[""Black or African-American"",""White""]",No,Female,NA,Yes,919822,NA,10957,NA,"{""product_choice"":""A""}",choice,tdc,trinary,attraction,2,laptops,null,null,null,null,null,null,2,50,60,40,60,50,60,Processing speed,Memory (RAM),NA,NA
NA,NA,NA,NA,NA,choice_trial_setup,html-keyboard-response,40,479409,0.0-4.0-0.18,178,1,2025-05-05T07:14:48Z,b60275e29fe2361ab97ac0ac217840d7,"Mozilla/5.0 (Macintosh; Intel Mac OS X 10_15_7) AppleWebKit/605.1.15 (KHTML, like Gecko) Version/18.4 Safari/605.1.15",Macintosh,Safari,18.4,OS X,10_15_7,https://5puzkbbxv1.cognition.run/?sona_id=55398,"en-US,en;q=0.9",y8gu1g6040oje1s,18,"[""Black or African-American"",""White""]",No,Female,NA,Yes,919822,NA,null,<p></p>,null,choice,dtc,trinary,repulsion_B,1,laptops,null,null,null,null,null,null,2,NA,NA,NA,NA,NA,NA,NA,NA,NA,NA
NA,NA,NA,NA,NA,choice_trial,survey-html-form,41,487990,0.0-4.0-1.18,178,1,2025-05-05T07:14:48Z,b60275e29fe2361ab97ac0ac217840d7,"Mozilla/5.0 (Macintosh; Intel Mac OS X 10_15_7) AppleWebKit/605.1.15 (KHTML, like Gecko) Version/18.4 Safari/605.1.15",Macintosh,Safari,18.4,OS X,10_15_7,https://5puzkbbxv1.cognition.run/?sona_id=55398,"en-US,en;q=0.9",y8gu1g6040oje1s,18,"[""Black or African-American"",""White""]",No,Female,NA,Yes,919822,NA,8575,NA,"{""product_choice"":""B""}",choice,dtc,trinary,repulsion_B,1,laptops,null,null,null,null,null,null,2,90,100,80,40,30,40,Processing speed,Memory (RAM),NA,NA
NA,NA,NA,NA,NA,choice_trial_setup,html-keyboard-response,42,488293,0.0-4.0-0.19,178,1,2025-05-05T07:14:48Z,b60275e29fe2361ab97ac0ac217840d7,"Mozilla/5.0 (Macintosh; Intel Mac OS X 10_15_7) AppleWebKit/605.1.15 (KHTML, like Gecko) Version/18.4 Safari/605.1.15",Macintosh,Safari,18.4,OS X,10_15_7,https://5puzkbbxv1.cognition.run/?sona_id=55398,"en-US,en;q=0.9",y8gu1g6040oje1s,18,"[""Black or African-American"",""White""]",No,Female,NA,Yes,919822,NA,null,<p></p>,null,choice,ct,binary,repulsion,1,microwave ovens,null,null,null,null,null,null,1,NA,NA,NA,NA,NA,NA,NA,NA,NA,NA
NA,NA,NA,NA,NA,choice_trial,survey-html-form,43,497340,0.0-4.0-1.19,178,1,2025-05-05T07:14:48Z,b60275e29fe2361ab97ac0ac217840d7,"Mozilla/5.0 (Macintosh; Intel Mac OS X 10_15_7) AppleWebKit/605.1.15 (KHTML, like Gecko) Version/18.4 Safari/605.1.15",Macintosh,Safari,18.4,OS X,10_15_7,https://5puzkbbxv1.cognition.run/?sona_id=55398,"en-US,en;q=0.9",y8gu1g6040oje1s,18,"[""Black or African-American"",""White""]",No,Female,NA,Yes,919822,NA,9041,NA,"{""product_choice"":""B""}",choice,ct,binary,repulsion,1,microwave ovens,null,null,null,null,null,null,1,100,90,null,30,40,null,Warranty,Cooking power,NA,NA
NA,NA,NA,NA,NA,choice_trial_setup,html-keyboard-response,44,497643,0.0-4.0-0.20,178,1,2025-05-05T07:14:48Z,b60275e29fe2361ab97ac0ac217840d7,"Mozilla/5.0 (Macintosh; Intel Mac OS X 10_15_7) AppleWebKit/605.1.15 (KHTML, like Gecko) Version/18.4 Safari/605.1.15",Macintosh,Safari,18.4,OS X,10_15_7,https://5puzkbbxv1.cognition.run/?sona_id=55398,"en-US,en;q=0.9",y8gu1g6040oje1s,18,"[""Black or African-American"",""White""]",No,Female,NA,Yes,919822,NA,null,<p></p>,null,choice,cdt,trinary,repulsion_B,2,televisions,null,null,null,null,null,null,2,NA,NA,NA,NA,NA,NA,NA,NA,NA,NA
NA,NA,NA,NA,NA,choice_trial,survey-html-form,45,510290,0.0-4.0-1.20,178,1,2025-05-05T07:14:48Z,b60275e29fe2361ab97ac0ac217840d7,"Mozilla/5.0 (Macintosh; Intel Mac OS X 10_15_7) AppleWebKit/605.1.15 (KHTML, like Gecko) Version/18.4 Safari/605.1.15",Macintosh,Safari,18.4,OS X,10_15_7,https://5puzkbbxv1.cognition.run/?sona_id=55398,"en-US,en;q=0.9",y8gu1g6040oje1s,18,"[""Black or African-American"",""White""]",No,Female,NA,Yes,919822,NA,12642,NA,"{""product_choice"":""C""}",choice,cdt,trinary,repulsion_B,2,televisions,null,null,null,null,null,null,2,40,30,40,90,100,80,Screen size,Average lifespan,NA,NA
NA,NA,NA,NA,NA,choice_trial_setup,html-keyboard-response,46,510593,0.0-4.0-0.21,178,1,2025-05-05T07:14:48Z,b60275e29fe2361ab97ac0ac217840d7,"Mozilla/5.0 (Macintosh; Intel Mac OS X 10_15_7) AppleWebKit/605.1.15 (KHTML, like Gecko) Version/18.4 Safari/605.1.15",Macintosh,Safari,18.4,OS X,10_15_7,https://5puzkbbxv1.cognition.run/?sona_id=55398,"en-US,en;q=0.9",y8gu1g6040oje1s,18,"[""Black or African-American"",""White""]",No,Female,NA,Yes,919822,NA,null,<p></p>,null,choice,cdt,trinary,repulsion_A,2,microwave ovens,null,null,null,null,null,null,1,NA,NA,NA,NA,NA,NA,NA,NA,NA,NA
NA,NA,NA,NA,NA,choice_trial,survey-html-form,47,524624,0.0-4.0-1.21,178,1,2025-05-05T07:14:48Z,b60275e29fe2361ab97ac0ac217840d7,"Mozilla/5.0 (Macintosh; Intel Mac OS X 10_15_7) AppleWebKit/605.1.15 (KHTML, like Gecko) Version/18.4 Safari/605.1.15",Macintosh,Safari,18.4,OS X,10_15_7,https://5puzkbbxv1.cognition.run/?sona_id=55398,"en-US,en;q=0.9",y8gu1g6040oje1s,18,"[""Black or African-American"",""White""]",No,Female,NA,Yes,919822,NA,14025,NA,"{""product_choice"":""C""}",choice,cdt,trinary,repulsion_A,2,microwave ovens,null,null,null,null,null,null,1,30,40,20,100,90,100,Warranty,Cooking power,NA,NA
NA,NA,NA,NA,NA,choice_trial_setup,html-keyboard-response,48,524927,0.0-4.0-0.22,178,1,2025-05-05T07:14:48Z,b60275e29fe2361ab97ac0ac217840d7,"Mozilla/5.0 (Macintosh; Intel Mac OS X 10_15_7) AppleWebKit/605.1.15 (KHTML, like Gecko) Version/18.4 Safari/605.1.15",Macintosh,Safari,18.4,OS X,10_15_7,https://5puzkbbxv1.cognition.run/?sona_id=55398,"en-US,en;q=0.9",y8gu1g6040oje1s,18,"[""Black or African-American"",""White""]",No,Female,NA,Yes,919822,NA,null,<p></p>,null,choice,ct,binary,repulsion,2,televisions,null,null,null,null,null,null,2,NA,NA,NA,NA,NA,NA,NA,NA,NA,NA
NA,NA,NA,NA,NA,choice_trial,survey-html-form,49,533807,0.0-4.0-1.22,178,1,2025-05-05T07:14:48Z,b60275e29fe2361ab97ac0ac217840d7,"Mozilla/5.0 (Macintosh; Intel Mac OS X 10_15_7) AppleWebKit/605.1.15 (KHTML, like Gecko) Version/18.4 Safari/605.1.15",Macintosh,Safari,18.4,OS X,10_15_7,https://5puzkbbxv1.cognition.run/?sona_id=55398,"en-US,en;q=0.9",y8gu1g6040oje1s,18,"[""Black or African-American"",""White""]",No,Female,NA,Yes,919822,NA,8873,NA,"{""product_choice"":""B""}",choice,ct,binary,repulsion,2,televisions,null,null,null,null,null,null,2,30,40,null,100,90,null,Screen size,Average lifespan,NA,NA
NA,NA,NA,NA,NA,choice_trial_setup,html-keyboard-response,50,534109,0.0-4.0-0.23,178,1,2025-05-05T07:14:48Z,b60275e29fe2361ab97ac0ac217840d7,"Mozilla/5.0 (Macintosh; Intel Mac OS X 10_15_7) AppleWebKit/605.1.15 (KHTML, like Gecko) Version/18.4 Safari/605.1.15",Macintosh,Safari,18.4,OS X,10_15_7,https://5puzkbbxv1.cognition.run/?sona_id=55398,"en-US,en;q=0.9",y8gu1g6040oje1s,18,"[""Black or African-American"",""White""]",No,Female,NA,Yes,919822,NA,null,<p></p>,null,choice,tcd,trinary,repulsion_A,1,washing machines,null,null,null,null,null,null,2,NA,NA,NA,NA,NA,NA,NA,NA,NA,NA
NA,NA,NA,NA,NA,choice_trial,survey-html-form,51,546390,0.0-4.0-1.23,178,1,2025-05-05T07:14:48Z,b60275e29fe2361ab97ac0ac217840d7,"Mozilla/5.0 (Macintosh; Intel Mac OS X 10_15_7) AppleWebKit/605.1.15 (KHTML, like Gecko) Version/18.4 Safari/605.1.15",Macintosh,Safari,18.4,OS X,10_15_7,https://5puzkbbxv1.cognition.run/?sona_id=55398,"en-US,en;q=0.9",y8gu1g6040oje1s,18,"[""Black or African-American"",""White""]",No,Female,NA,Yes,919822,NA,12274,NA,"{""product_choice"":""B""}",choice,tcd,trinary,repulsion_A,1,washing machines,null,null,null,null,null,null,2,100,90,100,30,40,20,Average lifespan,Energy savings,NA,NA
NA,NA,NA,NA,NA,choice_trial_setup,html-keyboard-response,52,546693,0.0-4.0-0.24,178,1,2025-05-05T07:14:48Z,b60275e29fe2361ab97ac0ac217840d7,"Mozilla/5.0 (Macintosh; Intel Mac OS X 10_15_7) AppleWebKit/605.1.15 (KHTML, like Gecko) Version/18.4 Safari/605.1.15",Macintosh,Safari,18.4,OS X,10_15_7,https://5puzkbbxv1.cognition.run/?sona_id=55398,"en-US,en;q=0.9",y8gu1g6040oje1s,18,"[""Black or African-American"",""White""]",No,Female,NA,Yes,919822,NA,null,<p></p>,null,choice,ctd,trinary,repulsion_A,2,televisions,null,null,null,null,null,null,1,NA,NA,NA,NA,NA,NA,NA,NA,NA,NA
NA,NA,NA,NA,NA,choice_trial,survey-html-form,53,556723,0.0-4.0-1.24,178,1,2025-05-05T07:14:48Z,b60275e29fe2361ab97ac0ac217840d7,"Mozilla/5.0 (Macintosh; Intel Mac OS X 10_15_7) AppleWebKit/605.1.15 (KHTML, like Gecko) Version/18.4 Safari/605.1.15",Macintosh,Safari,18.4,OS X,10_15_7,https://5puzkbbxv1.cognition.run/?sona_id=55398,"en-US,en;q=0.9",y8gu1g6040oje1s,18,"[""Black or African-American"",""White""]",No,Female,NA,Yes,919822,NA,10024,NA,"{""product_choice"":""B""}",choice,ctd,trinary,repulsion_A,2,televisions,null,null,null,null,null,null,1,30,40,20,100,90,100,Screen size,Average lifespan,NA,NA
NA,NA,NA,NA,NA,choice_trial_setup,html-keyboard-response,54,557026,0.0-4.0-0.25,178,1,2025-05-05T07:14:48Z,b60275e29fe2361ab97ac0ac217840d7,"Mozilla/5.0 (Macintosh; Intel Mac OS X 10_15_7) AppleWebKit/605.1.15 (KHTML, like Gecko) Version/18.4 Safari/605.1.15",Macintosh,Safari,18.4,OS X,10_15_7,https://5puzkbbxv1.cognition.run/?sona_id=55398,"en-US,en;q=0.9",y8gu1g6040oje1s,18,"[""Black or African-American"",""White""]",No,Female,NA,Yes,919822,NA,null,<p></p>,null,choice,ct,binary,attraction,NA,televisions,null,null,null,null,null,null,2,NA,NA,NA,NA,NA,NA,NA,NA,NA,NA
NA,NA,NA,NA,NA,choice_trial,survey-html-form,55,566658,0.0-4.0-1.25,178,1,2025-05-05T07:14:48Z,b60275e29fe2361ab97ac0ac217840d7,"Mozilla/5.0 (Macintosh; Intel Mac OS X 10_15_7) AppleWebKit/605.1.15 (KHTML, like Gecko) Version/18.4 Safari/605.1.15",Macintosh,Safari,18.4,OS X,10_15_7,https://5puzkbbxv1.cognition.run/?sona_id=55398,"en-US,en;q=0.9",y8gu1g6040oje1s,18,"[""Black or African-American"",""White""]",No,Female,NA,Yes,919822,NA,9625,NA,"{""product_choice"":""A""}",choice,ct,binary,attraction,NA,televisions,null,null,null,null,null,null,2,60,50,null,50,60,null,Screen size,Average lifespan,NA,NA
NA,NA,NA,NA,NA,choice_trial_setup,html-keyboard-response,56,566961,0.0-4.0-0.26,178,1,2025-05-05T07:14:48Z,b60275e29fe2361ab97ac0ac217840d7,"Mozilla/5.0 (Macintosh; Intel Mac OS X 10_15_7) AppleWebKit/605.1.15 (KHTML, like Gecko) Version/18.4 Safari/605.1.15",Macintosh,Safari,18.4,OS X,10_15_7,https://5puzkbbxv1.cognition.run/?sona_id=55398,"en-US,en;q=0.9",y8gu1g6040oje1s,18,"[""Black or African-American"",""White""]",No,Female,NA,Yes,919822,NA,null,<p></p>,null,choice,ctd,trinary,repulsion_B,2,laptops,null,null,null,null,null,null,1,NA,NA,NA,NA,NA,NA,NA,NA,NA,NA
NA,NA,NA,NA,NA,choice_trial,survey-html-form,57,572622,0.0-4.0-1.26,178,1,2025-05-05T07:14:48Z,b60275e29fe2361ab97ac0ac217840d7,"Mozilla/5.0 (Macintosh; Intel Mac OS X 10_15_7) AppleWebKit/605.1.15 (KHTML, like Gecko) Version/18.4 Safari/605.1.15",Macintosh,Safari,18.4,OS X,10_15_7,https://5puzkbbxv1.cognition.run/?sona_id=55398,"en-US,en;q=0.9",y8gu1g6040oje1s,18,"[""Black or African-American"",""White""]",No,Female,NA,Yes,919822,NA,5654,NA,"{""product_choice"":""A""}",choice,ctd,trinary,repulsion_B,2,laptops,null,null,null,null,null,null,1,40,30,40,90,100,80,Processing speed,Memory (RAM),NA,NA
NA,NA,NA,NA,NA,choice_trial_setup,html-keyboard-response,58,572924,0.0-4.0-0.27,178,1,2025-05-05T07:14:48Z,b60275e29fe2361ab97ac0ac217840d7,"Mozilla/5.0 (Macintosh; Intel Mac OS X 10_15_7) AppleWebKit/605.1.15 (KHTML, like Gecko) Version/18.4 Safari/605.1.15",Macintosh,Safari,18.4,OS X,10_15_7,https://5puzkbbxv1.cognition.run/?sona_id=55398,"en-US,en;q=0.9",y8gu1g6040oje1s,18,"[""Black or African-American"",""White""]",No,Female,NA,Yes,919822,NA,null,<p></p>,null,choice,tdc,trinary,repulsion_A,1,laptops,null,null,null,null,null,null,2,NA,NA,NA,NA,NA,NA,NA,NA,NA,NA
NA,NA,NA,NA,NA,choice_trial,survey-html-form,59,583890,0.0-4.0-1.27,178,1,2025-05-05T07:14:48Z,b60275e29fe2361ab97ac0ac217840d7,"Mozilla/5.0 (Macintosh; Intel Mac OS X 10_15_7) AppleWebKit/605.1.15 (KHTML, like Gecko) Version/18.4 Safari/605.1.15",Macintosh,Safari,18.4,OS X,10_15_7,https://5puzkbbxv1.cognition.run/?sona_id=55398,"en-US,en;q=0.9",y8gu1g6040oje1s,18,"[""Black or African-American"",""White""]",No,Female,NA,Yes,919822,NA,10960,NA,"{""product_choice"":""A""}",choice,tdc,trinary,repulsion_A,1,laptops,null,null,null,null,null,null,2,100,90,100,30,40,20,Processing speed,Memory (RAM),NA,NA
NA,NA,NA,NA,NA,choice_trial_setup,html-keyboard-response,60,584193,0.0-4.0-0.28,178,1,2025-05-05T07:14:48Z,b60275e29fe2361ab97ac0ac217840d7,"Mozilla/5.0 (Macintosh; Intel Mac OS X 10_15_7) AppleWebKit/605.1.15 (KHTML, like Gecko) Version/18.4 Safari/605.1.15",Macintosh,Safari,18.4,OS X,10_15_7,https://5puzkbbxv1.cognition.run/?sona_id=55398,"en-US,en;q=0.9",y8gu1g6040oje1s,18,"[""Black or African-American"",""White""]",No,Female,NA,Yes,919822,NA,null,<p></p>,null,choice,tdc,trinary,repulsion_B,2,washing machines,null,null,null,null,null,null,1,NA,NA,NA,NA,NA,NA,NA,NA,NA,NA
NA,NA,NA,NA,NA,choice_trial,survey-html-form,61,596206,0.0-4.0-1.28,178,1,2025-05-05T07:14:48Z,b60275e29fe2361ab97ac0ac217840d7,"Mozilla/5.0 (Macintosh; Intel Mac OS X 10_15_7) AppleWebKit/605.1.15 (KHTML, like Gecko) Version/18.4 Safari/605.1.15",Macintosh,Safari,18.4,OS X,10_15_7,https://5puzkbbxv1.cognition.run/?sona_id=55398,"en-US,en;q=0.9",y8gu1g6040oje1s,18,"[""Black or African-American"",""White""]",No,Female,NA,Yes,919822,NA,12007,NA,"{""product_choice"":""A""}",choice,tdc,trinary,repulsion_B,2,washing machines,null,null,null,null,null,null,1,40,30,40,90,100,80,Average lifespan,Energy savings,NA,NA
NA,NA,NA,NA,NA,choice_trial_setup,html-keyboard-response,62,596509,0.0-4.0-0.29,178,1,2025-05-05T07:14:48Z,b60275e29fe2361ab97ac0ac217840d7,"Mozilla/5.0 (Macintosh; Intel Mac OS X 10_15_7) AppleWebKit/605.1.15 (KHTML, like Gecko) Version/18.4 Safari/605.1.15",Macintosh,Safari,18.4,OS X,10_15_7,https://5puzkbbxv1.cognition.run/?sona_id=55398,"en-US,en;q=0.9",y8gu1g6040oje1s,18,"[""Black or African-American"",""White""]",No,Female,NA,Yes,919822,NA,null,<p></p>,null,choice,tc,binary,repulsion,1,televisions,null,null,null,null,null,null,2,NA,NA,NA,NA,NA,NA,NA,NA,NA,NA
NA,NA,NA,NA,NA,choice_trial,survey-html-form,63,600690,0.0-4.0-1.29,178,1,2025-05-05T07:14:48Z,b60275e29fe2361ab97ac0ac217840d7,"Mozilla/5.0 (Macintosh; Intel Mac OS X 10_15_7) AppleWebKit/605.1.15 (KHTML, like Gecko) Version/18.4 Safari/605.1.15",Macintosh,Safari,18.4,OS X,10_15_7,https://5puzkbbxv1.cognition.run/?sona_id=55398,"en-US,en;q=0.9",y8gu1g6040oje1s,18,"[""Black or African-American"",""White""]",No,Female,NA,Yes,919822,NA,4175,NA,"{""product_choice"":""B""}",choice,tc,binary,repulsion,1,televisions,null,null,null,null,null,null,2,100,90,null,30,40,null,Screen size,Average lifespan,NA,NA
NA,NA,NA,NA,NA,choice_trial_setup,html-keyboard-response,64,600992,0.0-4.0-0.30,178,1,2025-05-05T07:14:48Z,b60275e29fe2361ab97ac0ac217840d7,"Mozilla/5.0 (Macintosh; Intel Mac OS X 10_15_7) AppleWebKit/605.1.15 (KHTML, like Gecko) Version/18.4 Safari/605.1.15",Macintosh,Safari,18.4,OS X,10_15_7,https://5puzkbbxv1.cognition.run/?sona_id=55398,"en-US,en;q=0.9",y8gu1g6040oje1s,18,"[""Black or African-American"",""White""]",No,Female,NA,Yes,919822,NA,null,<p></p>,null,choice,wb,binary,catch,null,washing machines,70,95,5,50,null,null,1,NA,NA,NA,NA,NA,NA,NA,NA,NA,NA
NA,NA,NA,NA,NA,choice_trial,survey-html-form,65,609788,0.0-4.0-1.30,178,1,2025-05-05T07:14:48Z,b60275e29fe2361ab97ac0ac217840d7,"Mozilla/5.0 (Macintosh; Intel Mac OS X 10_15_7) AppleWebKit/605.1.15 (KHTML, like Gecko) Version/18.4 Safari/605.1.15",Macintosh,Safari,18.4,OS X,10_15_7,https://5puzkbbxv1.cognition.run/?sona_id=55398,"en-US,en;q=0.9",y8gu1g6040oje1s,18,"[""Black or African-American"",""White""]",No,Female,NA,Yes,919822,NA,8791,NA,"{""product_choice"":""B""}",choice,wb,binary,catch,null,washing machines,70,95,5,50,null,null,1,null,null,null,null,null,null,Average lifespan,Energy savings,NA,NA
NA,NA,NA,NA,NA,choice_trial_setup,html-keyboard-response,66,610092,0.0-4.0-0.31,178,1,2025-05-05T07:14:48Z,b60275e29fe2361ab97ac0ac217840d7,"Mozilla/5.0 (Macintosh; Intel Mac OS X 10_15_7) AppleWebKit/605.1.15 (KHTML, like Gecko) Version/18.4 Safari/605.1.15",Macintosh,Safari,18.4,OS X,10_15_7,https://5puzkbbxv1.cognition.run/?sona_id=55398,"en-US,en;q=0.9",y8gu1g6040oje1s,18,"[""Black or African-American"",""White""]",No,Female,NA,Yes,919822,NA,null,<p></p>,null,choice,dtc,trinary,repulsion_A,1,televisions,null,null,null,null,null,null,1,NA,NA,NA,NA,NA,NA,NA,NA,NA,NA
NA,NA,NA,NA,NA,choice_trial,survey-html-form,67,616673,0.0-4.0-1.31,178,1,2025-05-05T07:14:48Z,b60275e29fe2361ab97ac0ac217840d7,"Mozilla/5.0 (Macintosh; Intel Mac OS X 10_15_7) AppleWebKit/605.1.15 (KHTML, like Gecko) Version/18.4 Safari/605.1.15",Macintosh,Safari,18.4,OS X,10_15_7,https://5puzkbbxv1.cognition.run/?sona_id=55398,"en-US,en;q=0.9",y8gu1g6040oje1s,18,"[""Black or African-American"",""White""]",No,Female,NA,Yes,919822,NA,6576,NA,"{""product_choice"":""C""}",choice,dtc,trinary,repulsion_A,1,televisions,null,null,null,null,null,null,1,100,90,100,30,40,20,Screen size,Average lifespan,NA,NA
NA,NA,NA,NA,NA,choice_trial_setup,html-keyboard-response,68,616976,0.0-4.0-0.32,178,1,2025-05-05T07:14:48Z,b60275e29fe2361ab97ac0ac217840d7,"Mozilla/5.0 (Macintosh; Intel Mac OS X 10_15_7) AppleWebKit/605.1.15 (KHTML, like Gecko) Version/18.4 Safari/605.1.15",Macintosh,Safari,18.4,OS X,10_15_7,https://5puzkbbxv1.cognition.run/?sona_id=55398,"en-US,en;q=0.9",y8gu1g6040oje1s,18,"[""Black or African-American"",""White""]",No,Female,NA,Yes,919822,NA,null,<p></p>,null,choice,ct,binary,repulsion,2,washing machines,null,null,null,null,null,null,2,NA,NA,NA,NA,NA,NA,NA,NA,NA,NA
NA,NA,NA,NA,NA,choice_trial,survey-html-form,69,620756,0.0-4.0-1.32,178,1,2025-05-05T07:14:48Z,b60275e29fe2361ab97ac0ac217840d7,"Mozilla/5.0 (Macintosh; Intel Mac OS X 10_15_7) AppleWebKit/605.1.15 (KHTML, like Gecko) Version/18.4 Safari/605.1.15",Macintosh,Safari,18.4,OS X,10_15_7,https://5puzkbbxv1.cognition.run/?sona_id=55398,"en-US,en;q=0.9",y8gu1g6040oje1s,18,"[""Black or African-American"",""White""]",No,Female,NA,Yes,919822,NA,3774,NA,"{""product_choice"":""A""}",choice,ct,binary,repulsion,2,washing machines,null,null,null,null,null,null,2,30,40,null,100,90,null,Average lifespan,Energy savings,NA,NA
NA,NA,NA,NA,NA,choice_trial_setup,html-keyboard-response,70,621059,0.0-4.0-0.33,178,1,2025-05-05T07:14:48Z,b60275e29fe2361ab97ac0ac217840d7,"Mozilla/5.0 (Macintosh; Intel Mac OS X 10_15_7) AppleWebKit/605.1.15 (KHTML, like Gecko) Version/18.4 Safari/605.1.15",Macintosh,Safari,18.4,OS X,10_15_7,https://5puzkbbxv1.cognition.run/?sona_id=55398,"en-US,en;q=0.9",y8gu1g6040oje1s,18,"[""Black or African-American"",""White""]",No,Female,NA,Yes,919822,NA,null,<p></p>,null,choice,tdc,trinary,repulsion_B,1,televisions,null,null,null,null,null,null,1,NA,NA,NA,NA,NA,NA,NA,NA,NA,NA
NA,NA,NA,NA,NA,choice_trial,survey-html-form,71,629356,0.0-4.0-1.33,178,1,2025-05-05T07:14:48Z,b60275e29fe2361ab97ac0ac217840d7,"Mozilla/5.0 (Macintosh; Intel Mac OS X 10_15_7) AppleWebKit/605.1.15 (KHTML, like Gecko) Version/18.4 Safari/605.1.15",Macintosh,Safari,18.4,OS X,10_15_7,https://5puzkbbxv1.cognition.run/?sona_id=55398,"en-US,en;q=0.9",y8gu1g6040oje1s,18,"[""Black or African-American"",""White""]",No,Female,NA,Yes,919822,NA,8291,NA,"{""product_choice"":""A""}",choice,tdc,trinary,repulsion_B,1,televisions,null,null,null,null,null,null,1,90,100,80,40,30,40,Screen size,Average lifespan,NA,NA
NA,NA,NA,NA,NA,choice_trial_setup,html-keyboard-response,72,629659,0.0-4.0-0.34,178,1,2025-05-05T07:14:48Z,b60275e29fe2361ab97ac0ac217840d7,"Mozilla/5.0 (Macintosh; Intel Mac OS X 10_15_7) AppleWebKit/605.1.15 (KHTML, like Gecko) Version/18.4 Safari/605.1.15",Macintosh,Safari,18.4,OS X,10_15_7,https://5puzkbbxv1.cognition.run/?sona_id=55398,"en-US,en;q=0.9",y8gu1g6040oje1s,18,"[""Black or African-American"",""White""]",No,Female,NA,Yes,919822,NA,null,<p></p>,null,choice,ct,binary,attraction,NA,laptops,null,null,null,null,null,null,1,NA,NA,NA,NA,NA,NA,NA,NA,NA,NA
NA,NA,NA,NA,NA,choice_trial,survey-html-form,73,636206,0.0-4.0-1.34,178,1,2025-05-05T07:14:48Z,b60275e29fe2361ab97ac0ac217840d7,"Mozilla/5.0 (Macintosh; Intel Mac OS X 10_15_7) AppleWebKit/605.1.15 (KHTML, like Gecko) Version/18.4 Safari/605.1.15",Macintosh,Safari,18.4,OS X,10_15_7,https://5puzkbbxv1.cognition.run/?sona_id=55398,"en-US,en;q=0.9",y8gu1g6040oje1s,18,"[""Black or African-American"",""White""]",No,Female,NA,Yes,919822,NA,6541,NA,"{""product_choice"":""A""}",choice,ct,binary,attraction,NA,laptops,null,null,null,null,null,null,1,60,50,null,50,60,null,Processing speed,Memory (RAM),NA,NA
NA,NA,NA,NA,NA,choice_trial_setup,html-keyboard-response,74,636510,0.0-4.0-0.35,178,1,2025-05-05T07:14:48Z,b60275e29fe2361ab97ac0ac217840d7,"Mozilla/5.0 (Macintosh; Intel Mac OS X 10_15_7) AppleWebKit/605.1.15 (KHTML, like Gecko) Version/18.4 Safari/605.1.15",Macintosh,Safari,18.4,OS X,10_15_7,https://5puzkbbxv1.cognition.run/?sona_id=55398,"en-US,en;q=0.9",y8gu1g6040oje1s,18,"[""Black or African-American"",""White""]",No,Female,NA,Yes,919822,NA,null,<p></p>,null,choice,tc,binary,repulsion,1,washing machines,null,null,null,null,null,null,1,NA,NA,NA,NA,NA,NA,NA,NA,NA,NA
NA,NA,NA,NA,NA,choice_trial,survey-html-form,75,650338,0.0-4.0-1.35,178,1,2025-05-05T07:14:48Z,b60275e29fe2361ab97ac0ac217840d7,"Mozilla/5.0 (Macintosh; Intel Mac OS X 10_15_7) AppleWebKit/605.1.15 (KHTML, like Gecko) Version/18.4 Safari/605.1.15",Macintosh,Safari,18.4,OS X,10_15_7,https://5puzkbbxv1.cognition.run/?sona_id=55398,"en-US,en;q=0.9",y8gu1g6040oje1s,18,"[""Black or African-American"",""White""]",No,Female,NA,Yes,919822,NA,13821,NA,"{""product_choice"":""A""}",choice,tc,binary,repulsion,1,washing machines,null,null,null,null,null,null,1,100,90,null,30,40,null,Average lifespan,Energy savings,NA,NA
NA,NA,NA,NA,NA,choice_trial_setup,html-keyboard-response,76,650639,0.0-4.0-0.36,178,1,2025-05-05T07:14:48Z,b60275e29fe2361ab97ac0ac217840d7,"Mozilla/5.0 (Macintosh; Intel Mac OS X 10_15_7) AppleWebKit/605.1.15 (KHTML, like Gecko) Version/18.4 Safari/605.1.15",Macintosh,Safari,18.4,OS X,10_15_7,https://5puzkbbxv1.cognition.run/?sona_id=55398,"en-US,en;q=0.9",y8gu1g6040oje1s,18,"[""Black or African-American"",""White""]",No,Female,NA,Yes,919822,NA,null,<p></p>,null,choice,cdt,trinary,repulsion_B,2,microwave ovens,null,null,null,null,null,null,1,NA,NA,NA,NA,NA,NA,NA,NA,NA,NA
NA,NA,NA,NA,NA,choice_trial,survey-html-form,77,662791,0.0-4.0-1.36,178,1,2025-05-05T07:14:48Z,b60275e29fe2361ab97ac0ac217840d7,"Mozilla/5.0 (Macintosh; Intel Mac OS X 10_15_7) AppleWebKit/605.1.15 (KHTML, like Gecko) Version/18.4 Safari/605.1.15",Macintosh,Safari,18.4,OS X,10_15_7,https://5puzkbbxv1.cognition.run/?sona_id=55398,"en-US,en;q=0.9",y8gu1g6040oje1s,18,"[""Black or African-American"",""White""]",No,Female,NA,Yes,919822,NA,12146,NA,"{""product_choice"":""C""}",choice,cdt,trinary,repulsion_B,2,microwave ovens,null,null,null,null,null,null,1,40,30,40,90,100,80,Warranty,Cooking power,NA,NA
NA,NA,NA,NA,NA,choice_trial_setup,html-keyboard-response,78,663096,0.0-4.0-0.37,178,1,2025-05-05T07:14:48Z,b60275e29fe2361ab97ac0ac217840d7,"Mozilla/5.0 (Macintosh; Intel Mac OS X 10_15_7) AppleWebKit/605.1.15 (KHTML, like Gecko) Version/18.4 Safari/605.1.15",Macintosh,Safari,18.4,OS X,10_15_7,https://5puzkbbxv1.cognition.run/?sona_id=55398,"en-US,en;q=0.9",y8gu1g6040oje1s,18,"[""Black or African-American"",""White""]",No,Female,NA,Yes,919822,NA,null,<p></p>,null,choice,bww,trinary,catch,null,laptops,95,90,10,5,15,30,2,NA,NA,NA,NA,NA,NA,NA,NA,NA,NA
NA,NA,NA,NA,NA,choice_trial,survey-html-form,79,670406,0.0-4.0-1.37,178,1,2025-05-05T07:14:48Z,b60275e29fe2361ab97ac0ac217840d7,"Mozilla/5.0 (Macintosh; Intel Mac OS X 10_15_7) AppleWebKit/605.1.15 (KHTML, like Gecko) Version/18.4 Safari/605.1.15",Macintosh,Safari,18.4,OS X,10_15_7,https://5puzkbbxv1.cognition.run/?sona_id=55398,"en-US,en;q=0.9",y8gu1g6040oje1s,18,"[""Black or African-American"",""White""]",No,Female,NA,Yes,919822,NA,7305,NA,"{""product_choice"":""A""}",choice,bww,trinary,catch,null,laptops,95,90,10,5,15,30,2,null,null,null,null,null,null,Processing speed,Memory (RAM),NA,NA
NA,NA,NA,NA,NA,choice_trial_setup,html-keyboard-response,80,670710,0.0-4.0-0.38,178,1,2025-05-05T07:14:48Z,b60275e29fe2361ab97ac0ac217840d7,"Mozilla/5.0 (Macintosh; Intel Mac OS X 10_15_7) AppleWebKit/605.1.15 (KHTML, like Gecko) Version/18.4 Safari/605.1.15",Macintosh,Safari,18.4,OS X,10_15_7,https://5puzkbbxv1.cognition.run/?sona_id=55398,"en-US,en;q=0.9",y8gu1g6040oje1s,18,"[""Black or African-American"",""White""]",No,Female,NA,Yes,919822,NA,null,<p></p>,null,choice,wwb,trinary,catch,null,televisions,70,95,45,40,30,30,1,NA,NA,NA,NA,NA,NA,NA,NA,NA,NA
NA,NA,NA,NA,NA,choice_trial,survey-html-form,81,678355,0.0-4.0-1.38,178,1,2025-05-05T07:14:48Z,b60275e29fe2361ab97ac0ac217840d7,"Mozilla/5.0 (Macintosh; Intel Mac OS X 10_15_7) AppleWebKit/605.1.15 (KHTML, like Gecko) Version/18.4 Safari/605.1.15",Macintosh,Safari,18.4,OS X,10_15_7,https://5puzkbbxv1.cognition.run/?sona_id=55398,"en-US,en;q=0.9",y8gu1g6040oje1s,18,"[""Black or African-American"",""White""]",No,Female,NA,Yes,919822,NA,7640,NA,"{""product_choice"":""C""}",choice,wwb,trinary,catch,null,televisions,70,95,45,40,30,30,1,null,null,null,null,null,null,Screen size,Average lifespan,NA,NA
NA,NA,NA,NA,NA,choice_trial_setup,html-keyboard-response,82,678657,0.0-4.0-0.39,178,1,2025-05-05T07:14:48Z,b60275e29fe2361ab97ac0ac217840d7,"Mozilla/5.0 (Macintosh; Intel Mac OS X 10_15_7) AppleWebKit/605.1.15 (KHTML, like Gecko) Version/18.4 Safari/605.1.15",Macintosh,Safari,18.4,OS X,10_15_7,https://5puzkbbxv1.cognition.run/?sona_id=55398,"en-US,en;q=0.9",y8gu1g6040oje1s,18,"[""Black or African-American"",""White""]",No,Female,NA,Yes,919822,NA,null,<p></p>,null,choice,dct,trinary,repulsion_B,1,washing machines,null,null,null,null,null,null,2,NA,NA,NA,NA,NA,NA,NA,NA,NA,NA
NA,NA,NA,NA,NA,choice_trial,survey-html-form,83,687321,0.0-4.0-1.39,178,1,2025-05-05T07:14:48Z,b60275e29fe2361ab97ac0ac217840d7,"Mozilla/5.0 (Macintosh; Intel Mac OS X 10_15_7) AppleWebKit/605.1.15 (KHTML, like Gecko) Version/18.4 Safari/605.1.15",Macintosh,Safari,18.4,OS X,10_15_7,https://5puzkbbxv1.cognition.run/?sona_id=55398,"en-US,en;q=0.9",y8gu1g6040oje1s,18,"[""Black or African-American"",""White""]",No,Female,NA,Yes,919822,NA,8660,NA,"{""product_choice"":""C""}",choice,dct,trinary,repulsion_B,1,washing machines,null,null,null,null,null,null,2,90,100,80,40,30,40,Average lifespan,Energy savings,NA,NA
NA,NA,NA,NA,NA,choice_trial_setup,html-keyboard-response,84,687624,0.0-4.0-0.40,178,1,2025-05-05T07:14:48Z,b60275e29fe2361ab97ac0ac217840d7,"Mozilla/5.0 (Macintosh; Intel Mac OS X 10_15_7) AppleWebKit/605.1.15 (KHTML, like Gecko) Version/18.4 Safari/605.1.15",Macintosh,Safari,18.4,OS X,10_15_7,https://5puzkbbxv1.cognition.run/?sona_id=55398,"en-US,en;q=0.9",y8gu1g6040oje1s,18,"[""Black or African-American"",""White""]",No,Female,NA,Yes,919822,NA,null,<p></p>,null,choice,tc,binary,attraction,NA,microwave ovens,null,null,null,null,null,null,2,NA,NA,NA,NA,NA,NA,NA,NA,NA,NA
NA,NA,NA,NA,NA,choice_trial,survey-html-form,85,697321,0.0-4.0-1.40,178,1,2025-05-05T07:14:48Z,b60275e29fe2361ab97ac0ac217840d7,"Mozilla/5.0 (Macintosh; Intel Mac OS X 10_15_7) AppleWebKit/605.1.15 (KHTML, like Gecko) Version/18.4 Safari/605.1.15",Macintosh,Safari,18.4,OS X,10_15_7,https://5puzkbbxv1.cognition.run/?sona_id=55398,"en-US,en;q=0.9",y8gu1g6040oje1s,18,"[""Black or African-American"",""White""]",No,Female,NA,Yes,919822,NA,9690,NA,"{""product_choice"":""A""}",choice,tc,binary,attraction,NA,microwave ovens,null,null,null,null,null,null,2,60,50,null,50,60,null,Warranty,Cooking power,NA,NA
NA,NA,NA,NA,NA,choice_trial_setup,html-keyboard-response,86,697623,0.0-4.0-0.41,178,1,2025-05-05T07:14:48Z,b60275e29fe2361ab97ac0ac217840d7,"Mozilla/5.0 (Macintosh; Intel Mac OS X 10_15_7) AppleWebKit/605.1.15 (KHTML, like Gecko) Version/18.4 Safari/605.1.15",Macintosh,Safari,18.4,OS X,10_15_7,https://5puzkbbxv1.cognition.run/?sona_id=55398,"en-US,en;q=0.9",y8gu1g6040oje1s,18,"[""Black or African-American"",""White""]",No,Female,NA,Yes,919822,NA,null,<p></p>,null,choice,tc,binary,repulsion,1,laptops,null,null,null,null,null,null,1,NA,NA,NA,NA,NA,NA,NA,NA,NA,NA
NA,NA,NA,NA,NA,choice_trial,survey-html-form,87,703322,0.0-4.0-1.41,178,1,2025-05-05T07:14:48Z,b60275e29fe2361ab97ac0ac217840d7,"Mozilla/5.0 (Macintosh; Intel Mac OS X 10_15_7) AppleWebKit/605.1.15 (KHTML, like Gecko) Version/18.4 Safari/605.1.15",Macintosh,Safari,18.4,OS X,10_15_7,https://5puzkbbxv1.cognition.run/?sona_id=55398,"en-US,en;q=0.9",y8gu1g6040oje1s,18,"[""Black or African-American"",""White""]",No,Female,NA,Yes,919822,NA,5692,NA,"{""product_choice"":""B""}",choice,tc,binary,repulsion,1,laptops,null,null,null,null,null,null,1,100,90,null,30,40,null,Processing speed,Memory (RAM),NA,NA
NA,NA,NA,NA,NA,choice_trial_setup,html-keyboard-response,88,703625,0.0-4.0-0.42,178,1,2025-05-05T07:14:48Z,b60275e29fe2361ab97ac0ac217840d7,"Mozilla/5.0 (Macintosh; Intel Mac OS X 10_15_7) AppleWebKit/605.1.15 (KHTML, like Gecko) Version/18.4 Safari/605.1.15",Macintosh,Safari,18.4,OS X,10_15_7,https://5puzkbbxv1.cognition.run/?sona_id=55398,"en-US,en;q=0.9",y8gu1g6040oje1s,18,"[""Black or African-American"",""White""]",No,Female,NA,Yes,919822,NA,null,<p></p>,null,choice,tcd,trinary,repulsion_B,1,microwave ovens,null,null,null,null,null,null,1,NA,NA,NA,NA,NA,NA,NA,NA,NA,NA
NA,NA,NA,NA,NA,choice_trial,survey-html-form,89,712005,0.0-4.0-1.42,178,1,2025-05-05T07:14:48Z,b60275e29fe2361ab97ac0ac217840d7,"Mozilla/5.0 (Macintosh; Intel Mac OS X 10_15_7) AppleWebKit/605.1.15 (KHTML, like Gecko) Version/18.4 Safari/605.1.15",Macintosh,Safari,18.4,OS X,10_15_7,https://5puzkbbxv1.cognition.run/?sona_id=55398,"en-US,en;q=0.9",y8gu1g6040oje1s,18,"[""Black or African-American"",""White""]",No,Female,NA,Yes,919822,NA,8374,NA,"{""product_choice"":""A""}",choice,tcd,trinary,repulsion_B,1,microwave ovens,null,null,null,null,null,null,1,90,100,80,40,30,40,Warranty,Cooking power,NA,NA
NA,NA,NA,NA,NA,choice_trial_setup,html-keyboard-response,90,712309,0.0-4.0-0.43,178,1,2025-05-05T07:14:48Z,b60275e29fe2361ab97ac0ac217840d7,"Mozilla/5.0 (Macintosh; Intel Mac OS X 10_15_7) AppleWebKit/605.1.15 (KHTML, like Gecko) Version/18.4 Safari/605.1.15",Macintosh,Safari,18.4,OS X,10_15_7,https://5puzkbbxv1.cognition.run/?sona_id=55398,"en-US,en;q=0.9",y8gu1g6040oje1s,18,"[""Black or African-American"",""White""]",No,Female,NA,Yes,919822,NA,null,<p></p>,null,choice,tc,binary,attraction,NA,washing machines,null,null,null,null,null,null,1,NA,NA,NA,NA,NA,NA,NA,NA,NA,NA
NA,NA,NA,NA,NA,choice_trial,survey-html-form,91,720305,0.0-4.0-1.43,178,1,2025-05-05T07:14:48Z,b60275e29fe2361ab97ac0ac217840d7,"Mozilla/5.0 (Macintosh; Intel Mac OS X 10_15_7) AppleWebKit/605.1.15 (KHTML, like Gecko) Version/18.4 Safari/605.1.15",Macintosh,Safari,18.4,OS X,10_15_7,https://5puzkbbxv1.cognition.run/?sona_id=55398,"en-US,en;q=0.9",y8gu1g6040oje1s,18,"[""Black or African-American"",""White""]",No,Female,NA,Yes,919822,NA,7990,NA,"{""product_choice"":""A""}",choice,tc,binary,attraction,NA,washing machines,null,null,null,null,null,null,1,60,50,null,50,60,null,Average lifespan,Energy savings,NA,NA
NA,NA,NA,NA,NA,post_trials_message,html-button-response,92,723706,0.0-5.0,178,1,2025-05-05T07:14:48Z,b60275e29fe2361ab97ac0ac217840d7,"Mozilla/5.0 (Macintosh; Intel Mac OS X 10_15_7) AppleWebKit/605.1.15 (KHTML, like Gecko) Version/18.4 Safari/605.1.15",Macintosh,Safari,18.4,OS X,10_15_7,https://5puzkbbxv1.cognition.run/?sona_id=55398,"en-US,en;q=0.9",y8gu1g6040oje1s,18,"[""Black or African-American"",""White""]",No,Female,NA,Yes,919822,NA,3397,<p> <b>Thank you for your patience!</b></p><p>  The study will be done after completing a brief form. </p>,0,NA,NA,NA,NA,NA,NA,NA,NA,NA,NA,NA,NA,NA,NA,NA,NA,NA,NA,NA,NA,NA,NA,NA
NA,NA,NA,NA,NA,survey_message,survey-text,93,857857,0.0-6.0,178,1,2025-05-05T07:14:48Z,b60275e29fe2361ab97ac0ac217840d7,"Mozilla/5.0 (Macintosh; Intel Mac OS X 10_15_7) AppleWebKit/605.1.15 (KHTML, like Gecko) Version/18.4 Safari/605.1.15",Macintosh,Safari,18.4,OS X,10_15_7,https://5puzkbbxv1.cognition.run/?sona_id=55398,"en-US,en;q=0.9",y8gu1g6040oje1s,18,"[""Black or African-American"",""White""]",No,Female,NA,Yes,919822,NA,134133,NA,"{""Q0"":""I chose the products that had the better warrantee/lifespan because I wouldn't want to sell products that worked a little better but didn't last.""}",NA,NA,NA,NA,NA,NA,NA,NA,NA,NA,NA,NA,NA,NA,NA,NA,NA,NA,NA,NA,NA,I chose the products that had the better warrantee/lifespan because I wouldn't want to sell products that worked a little better but didn't last.,NA
NA,NA,NA,NA,NA,demo_age,survey-text,94,862205,0.0-7.0,178,1,2025-05-05T07:14:48Z,b60275e29fe2361ab97ac0ac217840d7,"Mozilla/5.0 (Macintosh; Intel Mac OS X 10_15_7) AppleWebKit/605.1.15 (KHTML, like Gecko) Version/18.4 Safari/605.1.15",Macintosh,Safari,18.4,OS X,10_15_7,https://5puzkbbxv1.cognition.run/?sona_id=55398,"en-US,en;q=0.9",y8gu1g6040oje1s,18,"[""Black or African-American"",""White""]",No,Female,NA,Yes,919822,NA,4340,NA,"{""Q0"":""18""}",NA,NA,NA,NA,NA,NA,NA,NA,NA,NA,NA,NA,NA,NA,NA,NA,NA,NA,NA,NA,NA,NA,NA
NA,NA,NA,NA,NA,demo_race,survey-multi-select,95,873707,0.0-8.0,178,1,2025-05-05T07:14:48Z,b60275e29fe2361ab97ac0ac217840d7,"Mozilla/5.0 (Macintosh; Intel Mac OS X 10_15_7) AppleWebKit/605.1.15 (KHTML, like Gecko) Version/18.4 Safari/605.1.15",Macintosh,Safari,18.4,OS X,10_15_7,https://5puzkbbxv1.cognition.run/?sona_id=55398,"en-US,en;q=0.9",y8gu1g6040oje1s,18,"[""Black or African-American"",""White""]",No,Female,NA,Yes,919822,NA,11498,NA,"{""Q0"":[""Black or African-American"",""White""]}",NA,NA,NA,NA,NA,NA,NA,NA,NA,NA,NA,NA,NA,NA,NA,NA,NA,NA,NA,NA,NA,NA,[0]
NA,NA,NA,NA,NA,demo_ethnicity_gender,survey-multi-choice,96,880489,0.0-9.0,178,1,2025-05-05T07:14:48Z,b60275e29fe2361ab97ac0ac217840d7,"Mozilla/5.0 (Macintosh; Intel Mac OS X 10_15_7) AppleWebKit/605.1.15 (KHTML, like Gecko) Version/18.4 Safari/605.1.15",Macintosh,Safari,18.4,OS X,10_15_7,https://5puzkbbxv1.cognition.run/?sona_id=55398,"en-US,en;q=0.9",y8gu1g6040oje1s,18,"[""Black or African-American"",""White""]",No,Female,NA,Yes,919822,NA,6776,NA,"{""Q0"":""No"",""Q1"":""Female""}",NA,NA,NA,NA,NA,NA,NA,NA,NA,NA,NA,NA,NA,NA,NA,NA,NA,NA,NA,NA,NA,NA,"[0,1]"
NA,NA,NA,NA,NA,demo_countries,survey-text,97,889357,0.0-10.0,178,1,2025-05-05T07:14:48Z,b60275e29fe2361ab97ac0ac217840d7,"Mozilla/5.0 (Macintosh; Intel Mac OS X 10_15_7) AppleWebKit/605.1.15 (KHTML, like Gecko) Version/18.4 Safari/605.1.15",Macintosh,Safari,18.4,OS X,10_15_7,https://5puzkbbxv1.cognition.run/?sona_id=55398,"en-US,en;q=0.9",y8gu1g6040oje1s,18,"[""Black or African-American"",""White""]",No,Female,NA,Yes,919822,NA,8863,NA,"{""Q0"":""NA""}",NA,NA,NA,NA,NA,NA,NA,NA,NA,NA,NA,NA,NA,NA,NA,NA,NA,NA,NA,NA,NA,NA,NA
NA,NA,NA,NA,NA,demo_prev_study,survey-multi-choice,98,905671,0.0-11.0,178,1,2025-05-05T07:14:48Z,b60275e29fe2361ab97ac0ac217840d7,"Mozilla/5.0 (Macintosh; Intel Mac OS X 10_15_7) AppleWebKit/605.1.15 (KHTML, like Gecko) Version/18.4 Safari/605.1.15",Macintosh,Safari,18.4,OS X,10_15_7,https://5puzkbbxv1.cognition.run/?sona_id=55398,"en-US,en;q=0.9",y8gu1g6040oje1s,18,"[""Black or African-American"",""White""]",No,Female,NA,Yes,919822,NA,16311,NA,"{""Q0"":""Yes""}",NA,NA,NA,NA,NA,NA,NA,NA,NA,NA,NA,NA,NA,NA,NA,NA,NA,NA,NA,NA,NA,NA,[0]
NA,NA,NA,NA,NA,post_survey_message,html-keyboard-response,99,915037,0.0-12.0,178,1,2025-05-05T07:14:48Z,b60275e29fe2361ab97ac0ac217840d7,"Mozilla/5.0 (Macintosh; Intel Mac OS X 10_15_7) AppleWebKit/605.1.15 (KHTML, like Gecko) Version/18.4 Safari/605.1.15",Macintosh,Safari,18.4,OS X,10_15_7,https://5puzkbbxv1.cognition.run/?sona_id=55398,"en-US,en;q=0.9",y8gu1g6040oje1s,18,"[""Black or African-American"",""White""]",No,Female,NA,Yes,919822,NA,9361,NA,j,NA,NA,NA,NA,NA,NA,NA,NA,NA,NA,NA,NA,NA,NA,NA,NA,NA,NA,NA,NA,NA,NA,NA
NA,NA,NA,NA,NA,debrief,image-keyboard-response,100,919821,0.0-13.0,178,1,2025-05-05T07:14:48Z,b60275e29fe2361ab97ac0ac217840d7,"Mozilla/5.0 (Macintosh; Intel Mac OS X 10_15_7) AppleWebKit/605.1.15 (KHTML, like Gecko) Version/18.4 Safari/605.1.15",Macintosh,Safari,18.4,OS X,10_15_7,https://5puzkbbxv1.cognition.run/?sona_id=55398,"en-US,en;q=0.9",y8gu1g6040oje1s,18,"[""Black or African-American"",""White""]",No,Female,NA,Yes,919822,NA,4762,Judg_choice_debrief.png,p,NA,NA,NA,NA,NA,NA,NA,NA,NA,NA,NA,NA,NA,NA,NA,NA,NA,NA,NA,NA,NA,NA,NA
