success,timeout,failed_images,failed_audio,failed_video,screen_id,trial_type,trial_index,time_elapsed,internal_node_id,run_id,condition,recorded_at,source_code_version,user_agent,device,browser,browser_version,platform,platform_version,referer,accept_language,ppt_id,age,race,ethnicity,gender,other_countries,prev_study,exp_duration,view_history,rt,stimulus,response,phase,order,set,effect,t_high,category,d1_best,d2_best,d1_worst1,d2_worst1,d1_worst2,d2_worst2,first_dim,d1_t,d1_c,d1_d,d2_t,d2_c,d2_d,d1_name,d2_name,strategy_response,question_order
TRUE,FALSE,[],[],[],img preload,preload,0,5935,0.0-0.0,183,1,2025-05-05T16:09:06Z,b60275e29fe2361ab97ac0ac217840d7,"Mozilla/5.0 (Windows NT 10.0; Win64; x64) AppleWebKit/537.36 (KHTML, like Gecko) Chrome/135.0.0.0 Safari/537.36",WebKit,Chrome,135.0.0.0,Windows,10,https://5puzkbbxv1.cognition.run/?sona_id=57038,"en-US,en;q=0.9",lch8lx4a6mhzf3l,21,"[""Black or African-American""]",No,Male,"Cape Verde, 15 years",No,586848,NA,NA,NA,NA,NA,NA,NA,NA,NA,NA,NA,NA,NA,NA,NA,NA,NA,NA,NA,NA,NA,NA,NA,NA,NA,NA,NA
NA,NA,NA,NA,NA,computer_message,instructions,1,9927,0.0-1.0,183,1,2025-05-05T16:09:06Z,b60275e29fe2361ab97ac0ac217840d7,"Mozilla/5.0 (Windows NT 10.0; Win64; x64) AppleWebKit/537.36 (KHTML, like Gecko) Chrome/135.0.0.0 Safari/537.36",WebKit,Chrome,135.0.0.0,Windows,10,https://5puzkbbxv1.cognition.run/?sona_id=57038,"en-US,en;q=0.9",lch8lx4a6mhzf3l,21,"[""Black or African-American""]",No,Male,"Cape Verde, 15 years",No,586848,"[{""page_index"":0,""viewing_time"":3991}]",3991,NA,NA,NA,NA,NA,NA,NA,NA,NA,NA,NA,NA,NA,NA,NA,NA,NA,NA,NA,NA,NA,NA,NA,NA,NA
TRUE,NA,NA,NA,NA,NA,fullscreen,2,13081,0.0-2.0,183,1,2025-05-05T16:09:06Z,b60275e29fe2361ab97ac0ac217840d7,"Mozilla/5.0 (Windows NT 10.0; Win64; x64) AppleWebKit/537.36 (KHTML, like Gecko) Chrome/135.0.0.0 Safari/537.36",WebKit,Chrome,135.0.0.0,Windows,10,https://5puzkbbxv1.cognition.run/?sona_id=57038,"en-US,en;q=0.9",lch8lx4a6mhzf3l,21,"[""Black or African-American""]",No,Male,"Cape Verde, 15 years",No,586848,NA,2136,NA,NA,NA,NA,NA,NA,NA,NA,NA,NA,NA,NA,NA,NA,NA,NA,NA,NA,NA,NA,NA,NA,NA,NA,NA
NA,NA,NA,NA,NA,choice_instructions,instructions,3,56313,0.0-3.0,183,1,2025-05-05T16:09:06Z,b60275e29fe2361ab97ac0ac217840d7,"Mozilla/5.0 (Windows NT 10.0; Win64; x64) AppleWebKit/537.36 (KHTML, like Gecko) Chrome/135.0.0.0 Safari/537.36",WebKit,Chrome,135.0.0.0,Windows,10,https://5puzkbbxv1.cognition.run/?sona_id=57038,"en-US,en;q=0.9",lch8lx4a6mhzf3l,21,"[""Black or African-American""]",No,Male,"Cape Verde, 15 years",No,586848,"[{""page_index"":0,""viewing_time"":1663},{""page_index"":1,""viewing_time"":3859},{""page_index"":2,""viewing_time"":5056},{""page_index"":3,""viewing_time"":4781},{""page_index"":4,""viewing_time"":2668},{""page_index"":5,""viewing_time"":18074},{""page_index"":6,""viewing_time"":7130}]",43231,NA,NA,NA,NA,NA,NA,NA,NA,NA,NA,NA,NA,NA,NA,NA,NA,NA,NA,NA,NA,NA,NA,NA,NA,NA
NA,NA,NA,NA,NA,choice_trial_setup,html-keyboard-response,4,56617,0.0-4.0-0.0,183,1,2025-05-05T16:09:06Z,b60275e29fe2361ab97ac0ac217840d7,"Mozilla/5.0 (Windows NT 10.0; Win64; x64) AppleWebKit/537.36 (KHTML, like Gecko) Chrome/135.0.0.0 Safari/537.36",WebKit,Chrome,135.0.0.0,Windows,10,https://5puzkbbxv1.cognition.run/?sona_id=57038,"en-US,en;q=0.9",lch8lx4a6mhzf3l,21,"[""Black or African-American""]",No,Male,"Cape Verde, 15 years",No,586848,NA,null,<p></p>,null,choice,dtc,trinary,repulsion_B,2,televisions,null,null,null,null,null,null,1,NA,NA,NA,NA,NA,NA,NA,NA,NA,NA
NA,NA,NA,NA,NA,choice_trial,survey-html-form,5,71267,0.0-4.0-1.0,183,1,2025-05-05T16:09:06Z,b60275e29fe2361ab97ac0ac217840d7,"Mozilla/5.0 (Windows NT 10.0; Win64; x64) AppleWebKit/537.36 (KHTML, like Gecko) Chrome/135.0.0.0 Safari/537.36",WebKit,Chrome,135.0.0.0,Windows,10,https://5puzkbbxv1.cognition.run/?sona_id=57038,"en-US,en;q=0.9",lch8lx4a6mhzf3l,21,"[""Black or African-American""]",No,Male,"Cape Verde, 15 years",No,586848,NA,14645,NA,"{""product_choice"":""B""}",choice,dtc,trinary,repulsion_B,2,televisions,null,null,null,null,null,null,1,40,30,40,90,100,80,Screen size,Average lifespan,NA,NA
NA,NA,NA,NA,NA,choice_trial_setup,html-keyboard-response,6,71580,0.0-4.0-0.1,183,1,2025-05-05T16:09:06Z,b60275e29fe2361ab97ac0ac217840d7,"Mozilla/5.0 (Windows NT 10.0; Win64; x64) AppleWebKit/537.36 (KHTML, like Gecko) Chrome/135.0.0.0 Safari/537.36",WebKit,Chrome,135.0.0.0,Windows,10,https://5puzkbbxv1.cognition.run/?sona_id=57038,"en-US,en;q=0.9",lch8lx4a6mhzf3l,21,"[""Black or African-American""]",No,Male,"Cape Verde, 15 years",No,586848,NA,null,<p></p>,null,choice,dtc,trinary,attraction,2,washing machines,null,null,null,null,null,null,1,NA,NA,NA,NA,NA,NA,NA,NA,NA,NA
NA,NA,NA,NA,NA,choice_trial,survey-html-form,7,92124,0.0-4.0-1.1,183,1,2025-05-05T16:09:06Z,b60275e29fe2361ab97ac0ac217840d7,"Mozilla/5.0 (Windows NT 10.0; Win64; x64) AppleWebKit/537.36 (KHTML, like Gecko) Chrome/135.0.0.0 Safari/537.36",WebKit,Chrome,135.0.0.0,Windows,10,https://5puzkbbxv1.cognition.run/?sona_id=57038,"en-US,en;q=0.9",lch8lx4a6mhzf3l,21,"[""Black or African-American""]",No,Male,"Cape Verde, 15 years",No,586848,NA,20543,NA,"{""product_choice"":""B""}",choice,dtc,trinary,attraction,2,washing machines,null,null,null,null,null,null,1,50,60,40,60,50,60,Average lifespan,Energy savings,NA,NA
NA,NA,NA,NA,NA,choice_trial_setup,html-keyboard-response,8,92426,0.0-4.0-0.2,183,1,2025-05-05T16:09:06Z,b60275e29fe2361ab97ac0ac217840d7,"Mozilla/5.0 (Windows NT 10.0; Win64; x64) AppleWebKit/537.36 (KHTML, like Gecko) Chrome/135.0.0.0 Safari/537.36",WebKit,Chrome,135.0.0.0,Windows,10,https://5puzkbbxv1.cognition.run/?sona_id=57038,"en-US,en;q=0.9",lch8lx4a6mhzf3l,21,"[""Black or African-American""]",No,Male,"Cape Verde, 15 years",No,586848,NA,null,<p></p>,null,choice,tdc,trinary,attraction,1,washing machines,null,null,null,null,null,null,2,NA,NA,NA,NA,NA,NA,NA,NA,NA,NA
NA,NA,NA,NA,NA,choice_trial,survey-html-form,9,113702,0.0-4.0-1.2,183,1,2025-05-05T16:09:06Z,b60275e29fe2361ab97ac0ac217840d7,"Mozilla/5.0 (Windows NT 10.0; Win64; x64) AppleWebKit/537.36 (KHTML, like Gecko) Chrome/135.0.0.0 Safari/537.36",WebKit,Chrome,135.0.0.0,Windows,10,https://5puzkbbxv1.cognition.run/?sona_id=57038,"en-US,en;q=0.9",lch8lx4a6mhzf3l,21,"[""Black or African-American""]",No,Male,"Cape Verde, 15 years",No,586848,NA,21273,NA,"{""product_choice"":""C""}",choice,tdc,trinary,attraction,1,washing machines,null,null,null,null,null,null,2,60,50,60,50,60,40,Average lifespan,Energy savings,NA,NA
NA,NA,NA,NA,NA,choice_trial_setup,html-keyboard-response,10,114004,0.0-4.0-0.3,183,1,2025-05-05T16:09:06Z,b60275e29fe2361ab97ac0ac217840d7,"Mozilla/5.0 (Windows NT 10.0; Win64; x64) AppleWebKit/537.36 (KHTML, like Gecko) Chrome/135.0.0.0 Safari/537.36",WebKit,Chrome,135.0.0.0,Windows,10,https://5puzkbbxv1.cognition.run/?sona_id=57038,"en-US,en;q=0.9",lch8lx4a6mhzf3l,21,"[""Black or African-American""]",No,Male,"Cape Verde, 15 years",No,586848,NA,null,<p></p>,null,choice,dtc,trinary,repulsion_A,2,laptops,null,null,null,null,null,null,1,NA,NA,NA,NA,NA,NA,NA,NA,NA,NA
NA,NA,NA,NA,NA,choice_trial,survey-html-form,11,126674,0.0-4.0-1.3,183,1,2025-05-05T16:09:06Z,b60275e29fe2361ab97ac0ac217840d7,"Mozilla/5.0 (Windows NT 10.0; Win64; x64) AppleWebKit/537.36 (KHTML, like Gecko) Chrome/135.0.0.0 Safari/537.36",WebKit,Chrome,135.0.0.0,Windows,10,https://5puzkbbxv1.cognition.run/?sona_id=57038,"en-US,en;q=0.9",lch8lx4a6mhzf3l,21,"[""Black or African-American""]",No,Male,"Cape Verde, 15 years",No,586848,NA,12668,NA,"{""product_choice"":""C""}",choice,dtc,trinary,repulsion_A,2,laptops,null,null,null,null,null,null,1,30,40,20,100,90,100,Processing speed,Memory (RAM),NA,NA
NA,NA,NA,NA,NA,choice_trial_setup,html-keyboard-response,12,126977,0.0-4.0-0.4,183,1,2025-05-05T16:09:06Z,b60275e29fe2361ab97ac0ac217840d7,"Mozilla/5.0 (Windows NT 10.0; Win64; x64) AppleWebKit/537.36 (KHTML, like Gecko) Chrome/135.0.0.0 Safari/537.36",WebKit,Chrome,135.0.0.0,Windows,10,https://5puzkbbxv1.cognition.run/?sona_id=57038,"en-US,en;q=0.9",lch8lx4a6mhzf3l,21,"[""Black or African-American""]",No,Male,"Cape Verde, 15 years",No,586848,NA,null,<p></p>,null,choice,ct,binary,attraction,NA,televisions,null,null,null,null,null,null,1,NA,NA,NA,NA,NA,NA,NA,NA,NA,NA
NA,NA,NA,NA,NA,choice_trial,survey-html-form,13,136798,0.0-4.0-1.4,183,1,2025-05-05T16:09:06Z,b60275e29fe2361ab97ac0ac217840d7,"Mozilla/5.0 (Windows NT 10.0; Win64; x64) AppleWebKit/537.36 (KHTML, like Gecko) Chrome/135.0.0.0 Safari/537.36",WebKit,Chrome,135.0.0.0,Windows,10,https://5puzkbbxv1.cognition.run/?sona_id=57038,"en-US,en;q=0.9",lch8lx4a6mhzf3l,21,"[""Black or African-American""]",No,Male,"Cape Verde, 15 years",No,586848,NA,9818,NA,"{""product_choice"":""B""}",choice,ct,binary,attraction,NA,televisions,null,null,null,null,null,null,1,60,50,null,50,60,null,Screen size,Average lifespan,NA,NA
NA,NA,NA,NA,NA,choice_trial_setup,html-keyboard-response,14,137100,0.0-4.0-0.5,183,1,2025-05-05T16:09:06Z,b60275e29fe2361ab97ac0ac217840d7,"Mozilla/5.0 (Windows NT 10.0; Win64; x64) AppleWebKit/537.36 (KHTML, like Gecko) Chrome/135.0.0.0 Safari/537.36",WebKit,Chrome,135.0.0.0,Windows,10,https://5puzkbbxv1.cognition.run/?sona_id=57038,"en-US,en;q=0.9",lch8lx4a6mhzf3l,21,"[""Black or African-American""]",No,Male,"Cape Verde, 15 years",No,586848,NA,null,<p></p>,null,choice,tdc,trinary,repulsion_B,2,laptops,null,null,null,null,null,null,2,NA,NA,NA,NA,NA,NA,NA,NA,NA,NA
NA,NA,NA,NA,NA,choice_trial,survey-html-form,15,146568,0.0-4.0-1.5,183,1,2025-05-05T16:09:06Z,b60275e29fe2361ab97ac0ac217840d7,"Mozilla/5.0 (Windows NT 10.0; Win64; x64) AppleWebKit/537.36 (KHTML, like Gecko) Chrome/135.0.0.0 Safari/537.36",WebKit,Chrome,135.0.0.0,Windows,10,https://5puzkbbxv1.cognition.run/?sona_id=57038,"en-US,en;q=0.9",lch8lx4a6mhzf3l,21,"[""Black or African-American""]",No,Male,"Cape Verde, 15 years",No,586848,NA,9465,NA,"{""product_choice"":""A""}",choice,tdc,trinary,repulsion_B,2,laptops,null,null,null,null,null,null,2,40,30,40,90,100,80,Processing speed,Memory (RAM),NA,NA
NA,NA,NA,NA,NA,choice_trial_setup,html-keyboard-response,16,146870,0.0-4.0-0.6,183,1,2025-05-05T16:09:06Z,b60275e29fe2361ab97ac0ac217840d7,"Mozilla/5.0 (Windows NT 10.0; Win64; x64) AppleWebKit/537.36 (KHTML, like Gecko) Chrome/135.0.0.0 Safari/537.36",WebKit,Chrome,135.0.0.0,Windows,10,https://5puzkbbxv1.cognition.run/?sona_id=57038,"en-US,en;q=0.9",lch8lx4a6mhzf3l,21,"[""Black or African-American""]",No,Male,"Cape Verde, 15 years",No,586848,NA,null,<p></p>,null,choice,tc,binary,repulsion,2,microwave ovens,null,null,null,null,null,null,2,NA,NA,NA,NA,NA,NA,NA,NA,NA,NA
NA,NA,NA,NA,NA,choice_trial,survey-html-form,17,155795,0.0-4.0-1.6,183,1,2025-05-05T16:09:06Z,b60275e29fe2361ab97ac0ac217840d7,"Mozilla/5.0 (Windows NT 10.0; Win64; x64) AppleWebKit/537.36 (KHTML, like Gecko) Chrome/135.0.0.0 Safari/537.36",WebKit,Chrome,135.0.0.0,Windows,10,https://5puzkbbxv1.cognition.run/?sona_id=57038,"en-US,en;q=0.9",lch8lx4a6mhzf3l,21,"[""Black or African-American""]",No,Male,"Cape Verde, 15 years",No,586848,NA,8923,NA,"{""product_choice"":""B""}",choice,tc,binary,repulsion,2,microwave ovens,null,null,null,null,null,null,2,30,40,null,100,90,null,Warranty,Cooking power,NA,NA
NA,NA,NA,NA,NA,choice_trial_setup,html-keyboard-response,18,156098,0.0-4.0-0.7,183,1,2025-05-05T16:09:06Z,b60275e29fe2361ab97ac0ac217840d7,"Mozilla/5.0 (Windows NT 10.0; Win64; x64) AppleWebKit/537.36 (KHTML, like Gecko) Chrome/135.0.0.0 Safari/537.36",WebKit,Chrome,135.0.0.0,Windows,10,https://5puzkbbxv1.cognition.run/?sona_id=57038,"en-US,en;q=0.9",lch8lx4a6mhzf3l,21,"[""Black or African-American""]",No,Male,"Cape Verde, 15 years",No,586848,NA,null,<p></p>,null,choice,tc,binary,repulsion,2,washing machines,null,null,null,null,null,null,1,NA,NA,NA,NA,NA,NA,NA,NA,NA,NA
NA,NA,NA,NA,NA,choice_trial,survey-html-form,19,162533,0.0-4.0-1.7,183,1,2025-05-05T16:09:06Z,b60275e29fe2361ab97ac0ac217840d7,"Mozilla/5.0 (Windows NT 10.0; Win64; x64) AppleWebKit/537.36 (KHTML, like Gecko) Chrome/135.0.0.0 Safari/537.36",WebKit,Chrome,135.0.0.0,Windows,10,https://5puzkbbxv1.cognition.run/?sona_id=57038,"en-US,en;q=0.9",lch8lx4a6mhzf3l,21,"[""Black or African-American""]",No,Male,"Cape Verde, 15 years",No,586848,NA,6433,NA,"{""product_choice"":""B""}",choice,tc,binary,repulsion,2,washing machines,null,null,null,null,null,null,1,30,40,null,100,90,null,Average lifespan,Energy savings,NA,NA
NA,NA,NA,NA,NA,choice_trial_setup,html-keyboard-response,20,162835,0.0-4.0-0.8,183,1,2025-05-05T16:09:06Z,b60275e29fe2361ab97ac0ac217840d7,"Mozilla/5.0 (Windows NT 10.0; Win64; x64) AppleWebKit/537.36 (KHTML, like Gecko) Chrome/135.0.0.0 Safari/537.36",WebKit,Chrome,135.0.0.0,Windows,10,https://5puzkbbxv1.cognition.run/?sona_id=57038,"en-US,en;q=0.9",lch8lx4a6mhzf3l,21,"[""Black or African-American""]",No,Male,"Cape Verde, 15 years",No,586848,NA,null,<p></p>,null,choice,tcd,trinary,repulsion_A,2,washing machines,null,null,null,null,null,null,1,NA,NA,NA,NA,NA,NA,NA,NA,NA,NA
NA,NA,NA,NA,NA,choice_trial,survey-html-form,21,171398,0.0-4.0-1.8,183,1,2025-05-05T16:09:06Z,b60275e29fe2361ab97ac0ac217840d7,"Mozilla/5.0 (Windows NT 10.0; Win64; x64) AppleWebKit/537.36 (KHTML, like Gecko) Chrome/135.0.0.0 Safari/537.36",WebKit,Chrome,135.0.0.0,Windows,10,https://5puzkbbxv1.cognition.run/?sona_id=57038,"en-US,en;q=0.9",lch8lx4a6mhzf3l,21,"[""Black or African-American""]",No,Male,"Cape Verde, 15 years",No,586848,NA,8560,NA,"{""product_choice"":""B""}",choice,tcd,trinary,repulsion_A,2,washing machines,null,null,null,null,null,null,1,30,40,20,100,90,100,Average lifespan,Energy savings,NA,NA
NA,NA,NA,NA,NA,choice_trial_setup,html-keyboard-response,22,171702,0.0-4.0-0.9,183,1,2025-05-05T16:09:06Z,b60275e29fe2361ab97ac0ac217840d7,"Mozilla/5.0 (Windows NT 10.0; Win64; x64) AppleWebKit/537.36 (KHTML, like Gecko) Chrome/135.0.0.0 Safari/537.36",WebKit,Chrome,135.0.0.0,Windows,10,https://5puzkbbxv1.cognition.run/?sona_id=57038,"en-US,en;q=0.9",lch8lx4a6mhzf3l,21,"[""Black or African-American""]",No,Male,"Cape Verde, 15 years",No,586848,NA,null,<p></p>,null,choice,wb,binary,catch,null,washing machines,70,90,40,25,null,null,2,NA,NA,NA,NA,NA,NA,NA,NA,NA,NA
NA,NA,NA,NA,NA,choice_trial,survey-html-form,23,178443,0.0-4.0-1.9,183,1,2025-05-05T16:09:06Z,b60275e29fe2361ab97ac0ac217840d7,"Mozilla/5.0 (Windows NT 10.0; Win64; x64) AppleWebKit/537.36 (KHTML, like Gecko) Chrome/135.0.0.0 Safari/537.36",WebKit,Chrome,135.0.0.0,Windows,10,https://5puzkbbxv1.cognition.run/?sona_id=57038,"en-US,en;q=0.9",lch8lx4a6mhzf3l,21,"[""Black or African-American""]",No,Male,"Cape Verde, 15 years",No,586848,NA,6738,NA,"{""product_choice"":""B""}",choice,wb,binary,catch,null,washing machines,70,90,40,25,null,null,2,null,null,null,null,null,null,Average lifespan,Energy savings,NA,NA
NA,NA,NA,NA,NA,choice_trial_setup,html-keyboard-response,24,178745,0.0-4.0-0.10,183,1,2025-05-05T16:09:06Z,b60275e29fe2361ab97ac0ac217840d7,"Mozilla/5.0 (Windows NT 10.0; Win64; x64) AppleWebKit/537.36 (KHTML, like Gecko) Chrome/135.0.0.0 Safari/537.36",WebKit,Chrome,135.0.0.0,Windows,10,https://5puzkbbxv1.cognition.run/?sona_id=57038,"en-US,en;q=0.9",lch8lx4a6mhzf3l,21,"[""Black or African-American""]",No,Male,"Cape Verde, 15 years",No,586848,NA,null,<p></p>,null,choice,ct,binary,repulsion,2,laptops,null,null,null,null,null,null,1,NA,NA,NA,NA,NA,NA,NA,NA,NA,NA
NA,NA,NA,NA,NA,choice_trial,survey-html-form,25,185214,0.0-4.0-1.10,183,1,2025-05-05T16:09:06Z,b60275e29fe2361ab97ac0ac217840d7,"Mozilla/5.0 (Windows NT 10.0; Win64; x64) AppleWebKit/537.36 (KHTML, like Gecko) Chrome/135.0.0.0 Safari/537.36",WebKit,Chrome,135.0.0.0,Windows,10,https://5puzkbbxv1.cognition.run/?sona_id=57038,"en-US,en;q=0.9",lch8lx4a6mhzf3l,21,"[""Black or African-American""]",No,Male,"Cape Verde, 15 years",No,586848,NA,6467,NA,"{""product_choice"":""A""}",choice,ct,binary,repulsion,2,laptops,null,null,null,null,null,null,1,30,40,null,100,90,null,Processing speed,Memory (RAM),NA,NA
NA,NA,NA,NA,NA,choice_trial_setup,html-keyboard-response,26,185518,0.0-4.0-0.11,183,1,2025-05-05T16:09:06Z,b60275e29fe2361ab97ac0ac217840d7,"Mozilla/5.0 (Windows NT 10.0; Win64; x64) AppleWebKit/537.36 (KHTML, like Gecko) Chrome/135.0.0.0 Safari/537.36",WebKit,Chrome,135.0.0.0,Windows,10,https://5puzkbbxv1.cognition.run/?sona_id=57038,"en-US,en;q=0.9",lch8lx4a6mhzf3l,21,"[""Black or African-American""]",No,Male,"Cape Verde, 15 years",No,586848,NA,null,<p></p>,null,choice,dct,trinary,repulsion_B,2,washing machines,null,null,null,null,null,null,1,NA,NA,NA,NA,NA,NA,NA,NA,NA,NA
NA,NA,NA,NA,NA,choice_trial,survey-html-form,27,190590,0.0-4.0-1.11,183,1,2025-05-05T16:09:06Z,b60275e29fe2361ab97ac0ac217840d7,"Mozilla/5.0 (Windows NT 10.0; Win64; x64) AppleWebKit/537.36 (KHTML, like Gecko) Chrome/135.0.0.0 Safari/537.36",WebKit,Chrome,135.0.0.0,Windows,10,https://5puzkbbxv1.cognition.run/?sona_id=57038,"en-US,en;q=0.9",lch8lx4a6mhzf3l,21,"[""Black or African-American""]",No,Male,"Cape Verde, 15 years",No,586848,NA,5069,NA,"{""product_choice"":""C""}",choice,dct,trinary,repulsion_B,2,washing machines,null,null,null,null,null,null,1,40,30,40,90,100,80,Average lifespan,Energy savings,NA,NA
NA,NA,NA,NA,NA,choice_trial_setup,html-keyboard-response,28,190893,0.0-4.0-0.12,183,1,2025-05-05T16:09:06Z,b60275e29fe2361ab97ac0ac217840d7,"Mozilla/5.0 (Windows NT 10.0; Win64; x64) AppleWebKit/537.36 (KHTML, like Gecko) Chrome/135.0.0.0 Safari/537.36",WebKit,Chrome,135.0.0.0,Windows,10,https://5puzkbbxv1.cognition.run/?sona_id=57038,"en-US,en;q=0.9",lch8lx4a6mhzf3l,21,"[""Black or African-American""]",No,Male,"Cape Verde, 15 years",No,586848,NA,null,<p></p>,null,choice,cdt,trinary,repulsion_A,1,televisions,null,null,null,null,null,null,2,NA,NA,NA,NA,NA,NA,NA,NA,NA,NA
NA,NA,NA,NA,NA,choice_trial,survey-html-form,29,198681,0.0-4.0-1.12,183,1,2025-05-05T16:09:06Z,b60275e29fe2361ab97ac0ac217840d7,"Mozilla/5.0 (Windows NT 10.0; Win64; x64) AppleWebKit/537.36 (KHTML, like Gecko) Chrome/135.0.0.0 Safari/537.36",WebKit,Chrome,135.0.0.0,Windows,10,https://5puzkbbxv1.cognition.run/?sona_id=57038,"en-US,en;q=0.9",lch8lx4a6mhzf3l,21,"[""Black or African-American""]",No,Male,"Cape Verde, 15 years",No,586848,NA,7785,NA,"{""product_choice"":""A""}",choice,cdt,trinary,repulsion_A,1,televisions,null,null,null,null,null,null,2,100,90,100,30,40,20,Screen size,Average lifespan,NA,NA
NA,NA,NA,NA,NA,choice_trial_setup,html-keyboard-response,30,198984,0.0-4.0-0.13,183,1,2025-05-05T16:09:06Z,b60275e29fe2361ab97ac0ac217840d7,"Mozilla/5.0 (Windows NT 10.0; Win64; x64) AppleWebKit/537.36 (KHTML, like Gecko) Chrome/135.0.0.0 Safari/537.36",WebKit,Chrome,135.0.0.0,Windows,10,https://5puzkbbxv1.cognition.run/?sona_id=57038,"en-US,en;q=0.9",lch8lx4a6mhzf3l,21,"[""Black or African-American""]",No,Male,"Cape Verde, 15 years",No,586848,NA,null,<p></p>,null,choice,tcd,trinary,attraction,2,televisions,null,null,null,null,null,null,1,NA,NA,NA,NA,NA,NA,NA,NA,NA,NA
NA,NA,NA,NA,NA,choice_trial,survey-html-form,31,206991,0.0-4.0-1.13,183,1,2025-05-05T16:09:06Z,b60275e29fe2361ab97ac0ac217840d7,"Mozilla/5.0 (Windows NT 10.0; Win64; x64) AppleWebKit/537.36 (KHTML, like Gecko) Chrome/135.0.0.0 Safari/537.36",WebKit,Chrome,135.0.0.0,Windows,10,https://5puzkbbxv1.cognition.run/?sona_id=57038,"en-US,en;q=0.9",lch8lx4a6mhzf3l,21,"[""Black or African-American""]",No,Male,"Cape Verde, 15 years",No,586848,NA,8003,NA,"{""product_choice"":""B""}",choice,tcd,trinary,attraction,2,televisions,null,null,null,null,null,null,1,50,60,40,60,50,60,Screen size,Average lifespan,NA,NA
NA,NA,NA,NA,NA,choice_trial_setup,html-keyboard-response,32,207294,0.0-4.0-0.14,183,1,2025-05-05T16:09:06Z,b60275e29fe2361ab97ac0ac217840d7,"Mozilla/5.0 (Windows NT 10.0; Win64; x64) AppleWebKit/537.36 (KHTML, like Gecko) Chrome/135.0.0.0 Safari/537.36",WebKit,Chrome,135.0.0.0,Windows,10,https://5puzkbbxv1.cognition.run/?sona_id=57038,"en-US,en;q=0.9",lch8lx4a6mhzf3l,21,"[""Black or African-American""]",No,Male,"Cape Verde, 15 years",No,586848,NA,null,<p></p>,null,choice,ct,binary,repulsion,1,televisions,null,null,null,null,null,null,1,NA,NA,NA,NA,NA,NA,NA,NA,NA,NA
NA,NA,NA,NA,NA,choice_trial,survey-html-form,33,212786,0.0-4.0-1.14,183,1,2025-05-05T16:09:06Z,b60275e29fe2361ab97ac0ac217840d7,"Mozilla/5.0 (Windows NT 10.0; Win64; x64) AppleWebKit/537.36 (KHTML, like Gecko) Chrome/135.0.0.0 Safari/537.36",WebKit,Chrome,135.0.0.0,Windows,10,https://5puzkbbxv1.cognition.run/?sona_id=57038,"en-US,en;q=0.9",lch8lx4a6mhzf3l,21,"[""Black or African-American""]",No,Male,"Cape Verde, 15 years",No,586848,NA,5489,NA,"{""product_choice"":""A""}",choice,ct,binary,repulsion,1,televisions,null,null,null,null,null,null,1,100,90,null,30,40,null,Screen size,Average lifespan,NA,NA
NA,NA,NA,NA,NA,choice_trial_setup,html-keyboard-response,34,213090,0.0-4.0-0.15,183,1,2025-05-05T16:09:06Z,b60275e29fe2361ab97ac0ac217840d7,"Mozilla/5.0 (Windows NT 10.0; Win64; x64) AppleWebKit/537.36 (KHTML, like Gecko) Chrome/135.0.0.0 Safari/537.36",WebKit,Chrome,135.0.0.0,Windows,10,https://5puzkbbxv1.cognition.run/?sona_id=57038,"en-US,en;q=0.9",lch8lx4a6mhzf3l,21,"[""Black or African-American""]",No,Male,"Cape Verde, 15 years",No,586848,NA,null,<p></p>,null,choice,wb,binary,catch,null,microwave ovens,50,60,25,25,null,null,2,NA,NA,NA,NA,NA,NA,NA,NA,NA,NA
NA,NA,NA,NA,NA,choice_trial,survey-html-form,35,217408,0.0-4.0-1.15,183,1,2025-05-05T16:09:06Z,b60275e29fe2361ab97ac0ac217840d7,"Mozilla/5.0 (Windows NT 10.0; Win64; x64) AppleWebKit/537.36 (KHTML, like Gecko) Chrome/135.0.0.0 Safari/537.36",WebKit,Chrome,135.0.0.0,Windows,10,https://5puzkbbxv1.cognition.run/?sona_id=57038,"en-US,en;q=0.9",lch8lx4a6mhzf3l,21,"[""Black or African-American""]",No,Male,"Cape Verde, 15 years",No,586848,NA,4315,NA,"{""product_choice"":""B""}",choice,wb,binary,catch,null,microwave ovens,50,60,25,25,null,null,2,null,null,null,null,null,null,Warranty,Cooking power,NA,NA
NA,NA,NA,NA,NA,choice_trial_setup,html-keyboard-response,36,217712,0.0-4.0-0.16,183,1,2025-05-05T16:09:06Z,b60275e29fe2361ab97ac0ac217840d7,"Mozilla/5.0 (Windows NT 10.0; Win64; x64) AppleWebKit/537.36 (KHTML, like Gecko) Chrome/135.0.0.0 Safari/537.36",WebKit,Chrome,135.0.0.0,Windows,10,https://5puzkbbxv1.cognition.run/?sona_id=57038,"en-US,en;q=0.9",lch8lx4a6mhzf3l,21,"[""Black or African-American""]",No,Male,"Cape Verde, 15 years",No,586848,NA,null,<p></p>,null,choice,tc,binary,repulsion,1,laptops,null,null,null,null,null,null,1,NA,NA,NA,NA,NA,NA,NA,NA,NA,NA
NA,NA,NA,NA,NA,choice_trial,survey-html-form,37,226234,0.0-4.0-1.16,183,1,2025-05-05T16:09:06Z,b60275e29fe2361ab97ac0ac217840d7,"Mozilla/5.0 (Windows NT 10.0; Win64; x64) AppleWebKit/537.36 (KHTML, like Gecko) Chrome/135.0.0.0 Safari/537.36",WebKit,Chrome,135.0.0.0,Windows,10,https://5puzkbbxv1.cognition.run/?sona_id=57038,"en-US,en;q=0.9",lch8lx4a6mhzf3l,21,"[""Black or African-American""]",No,Male,"Cape Verde, 15 years",No,586848,NA,8519,NA,"{""product_choice"":""B""}",choice,tc,binary,repulsion,1,laptops,null,null,null,null,null,null,1,100,90,null,30,40,null,Processing speed,Memory (RAM),NA,NA
NA,NA,NA,NA,NA,choice_trial_setup,html-keyboard-response,38,226553,0.0-4.0-0.17,183,1,2025-05-05T16:09:06Z,b60275e29fe2361ab97ac0ac217840d7,"Mozilla/5.0 (Windows NT 10.0; Win64; x64) AppleWebKit/537.36 (KHTML, like Gecko) Chrome/135.0.0.0 Safari/537.36",WebKit,Chrome,135.0.0.0,Windows,10,https://5puzkbbxv1.cognition.run/?sona_id=57038,"en-US,en;q=0.9",lch8lx4a6mhzf3l,21,"[""Black or African-American""]",No,Male,"Cape Verde, 15 years",No,586848,NA,null,<p></p>,null,choice,tdc,trinary,repulsion_A,1,washing machines,null,null,null,null,null,null,2,NA,NA,NA,NA,NA,NA,NA,NA,NA,NA
NA,NA,NA,NA,NA,choice_trial,survey-html-form,39,234091,0.0-4.0-1.17,183,1,2025-05-05T16:09:06Z,b60275e29fe2361ab97ac0ac217840d7,"Mozilla/5.0 (Windows NT 10.0; Win64; x64) AppleWebKit/537.36 (KHTML, like Gecko) Chrome/135.0.0.0 Safari/537.36",WebKit,Chrome,135.0.0.0,Windows,10,https://5puzkbbxv1.cognition.run/?sona_id=57038,"en-US,en;q=0.9",lch8lx4a6mhzf3l,21,"[""Black or African-American""]",No,Male,"Cape Verde, 15 years",No,586848,NA,7534,NA,"{""product_choice"":""C""}",choice,tdc,trinary,repulsion_A,1,washing machines,null,null,null,null,null,null,2,100,90,100,30,40,20,Average lifespan,Energy savings,NA,NA
NA,NA,NA,NA,NA,choice_trial_setup,html-keyboard-response,40,234394,0.0-4.0-0.18,183,1,2025-05-05T16:09:06Z,b60275e29fe2361ab97ac0ac217840d7,"Mozilla/5.0 (Windows NT 10.0; Win64; x64) AppleWebKit/537.36 (KHTML, like Gecko) Chrome/135.0.0.0 Safari/537.36",WebKit,Chrome,135.0.0.0,Windows,10,https://5puzkbbxv1.cognition.run/?sona_id=57038,"en-US,en;q=0.9",lch8lx4a6mhzf3l,21,"[""Black or African-American""]",No,Male,"Cape Verde, 15 years",No,586848,NA,null,<p></p>,null,choice,ct,binary,attraction,NA,microwave ovens,null,null,null,null,null,null,2,NA,NA,NA,NA,NA,NA,NA,NA,NA,NA
NA,NA,NA,NA,NA,choice_trial,survey-html-form,41,240894,0.0-4.0-1.18,183,1,2025-05-05T16:09:06Z,b60275e29fe2361ab97ac0ac217840d7,"Mozilla/5.0 (Windows NT 10.0; Win64; x64) AppleWebKit/537.36 (KHTML, like Gecko) Chrome/135.0.0.0 Safari/537.36",WebKit,Chrome,135.0.0.0,Windows,10,https://5puzkbbxv1.cognition.run/?sona_id=57038,"en-US,en;q=0.9",lch8lx4a6mhzf3l,21,"[""Black or African-American""]",No,Male,"Cape Verde, 15 years",No,586848,NA,6496,NA,"{""product_choice"":""A""}",choice,ct,binary,attraction,NA,microwave ovens,null,null,null,null,null,null,2,60,50,null,50,60,null,Warranty,Cooking power,NA,NA
NA,NA,NA,NA,NA,choice_trial_setup,html-keyboard-response,42,241209,0.0-4.0-0.19,183,1,2025-05-05T16:09:06Z,b60275e29fe2361ab97ac0ac217840d7,"Mozilla/5.0 (Windows NT 10.0; Win64; x64) AppleWebKit/537.36 (KHTML, like Gecko) Chrome/135.0.0.0 Safari/537.36",WebKit,Chrome,135.0.0.0,Windows,10,https://5puzkbbxv1.cognition.run/?sona_id=57038,"en-US,en;q=0.9",lch8lx4a6mhzf3l,21,"[""Black or African-American""]",No,Male,"Cape Verde, 15 years",No,586848,NA,null,<p></p>,null,choice,tc,binary,repulsion,1,microwave ovens,null,null,null,null,null,null,2,NA,NA,NA,NA,NA,NA,NA,NA,NA,NA
NA,NA,NA,NA,NA,choice_trial,survey-html-form,43,247150,0.0-4.0-1.19,183,1,2025-05-05T16:09:06Z,b60275e29fe2361ab97ac0ac217840d7,"Mozilla/5.0 (Windows NT 10.0; Win64; x64) AppleWebKit/537.36 (KHTML, like Gecko) Chrome/135.0.0.0 Safari/537.36",WebKit,Chrome,135.0.0.0,Windows,10,https://5puzkbbxv1.cognition.run/?sona_id=57038,"en-US,en;q=0.9",lch8lx4a6mhzf3l,21,"[""Black or African-American""]",No,Male,"Cape Verde, 15 years",No,586848,NA,5938,NA,"{""product_choice"":""B""}",choice,tc,binary,repulsion,1,microwave ovens,null,null,null,null,null,null,2,100,90,null,30,40,null,Warranty,Cooking power,NA,NA
NA,NA,NA,NA,NA,choice_trial_setup,html-keyboard-response,44,247454,0.0-4.0-0.20,183,1,2025-05-05T16:09:06Z,b60275e29fe2361ab97ac0ac217840d7,"Mozilla/5.0 (Windows NT 10.0; Win64; x64) AppleWebKit/537.36 (KHTML, like Gecko) Chrome/135.0.0.0 Safari/537.36",WebKit,Chrome,135.0.0.0,Windows,10,https://5puzkbbxv1.cognition.run/?sona_id=57038,"en-US,en;q=0.9",lch8lx4a6mhzf3l,21,"[""Black or African-American""]",No,Male,"Cape Verde, 15 years",No,586848,NA,null,<p></p>,null,choice,tcd,trinary,repulsion_A,2,televisions,null,null,null,null,null,null,2,NA,NA,NA,NA,NA,NA,NA,NA,NA,NA
NA,NA,NA,NA,NA,choice_trial,survey-html-form,45,254774,0.0-4.0-1.20,183,1,2025-05-05T16:09:06Z,b60275e29fe2361ab97ac0ac217840d7,"Mozilla/5.0 (Windows NT 10.0; Win64; x64) AppleWebKit/537.36 (KHTML, like Gecko) Chrome/135.0.0.0 Safari/537.36",WebKit,Chrome,135.0.0.0,Windows,10,https://5puzkbbxv1.cognition.run/?sona_id=57038,"en-US,en;q=0.9",lch8lx4a6mhzf3l,21,"[""Black or African-American""]",No,Male,"Cape Verde, 15 years",No,586848,NA,7317,NA,"{""product_choice"":""B""}",choice,tcd,trinary,repulsion_A,2,televisions,null,null,null,null,null,null,2,30,40,20,100,90,100,Screen size,Average lifespan,NA,NA
NA,NA,NA,NA,NA,choice_trial_setup,html-keyboard-response,46,255079,0.0-4.0-0.21,183,1,2025-05-05T16:09:06Z,b60275e29fe2361ab97ac0ac217840d7,"Mozilla/5.0 (Windows NT 10.0; Win64; x64) AppleWebKit/537.36 (KHTML, like Gecko) Chrome/135.0.0.0 Safari/537.36",WebKit,Chrome,135.0.0.0,Windows,10,https://5puzkbbxv1.cognition.run/?sona_id=57038,"en-US,en;q=0.9",lch8lx4a6mhzf3l,21,"[""Black or African-American""]",No,Male,"Cape Verde, 15 years",No,586848,NA,null,<p></p>,null,choice,bww,trinary,catch,null,washing machines,65,50,10,30,50,50,2,NA,NA,NA,NA,NA,NA,NA,NA,NA,NA
NA,NA,NA,NA,NA,choice_trial,survey-html-form,47,265701,0.0-4.0-1.21,183,1,2025-05-05T16:09:06Z,b60275e29fe2361ab97ac0ac217840d7,"Mozilla/5.0 (Windows NT 10.0; Win64; x64) AppleWebKit/537.36 (KHTML, like Gecko) Chrome/135.0.0.0 Safari/537.36",WebKit,Chrome,135.0.0.0,Windows,10,https://5puzkbbxv1.cognition.run/?sona_id=57038,"en-US,en;q=0.9",lch8lx4a6mhzf3l,21,"[""Black or African-American""]",No,Male,"Cape Verde, 15 years",No,586848,NA,10619,NA,"{""product_choice"":""A""}",choice,bww,trinary,catch,null,washing machines,65,50,10,30,50,50,2,null,null,null,null,null,null,Average lifespan,Energy savings,NA,NA
NA,NA,NA,NA,NA,choice_trial_setup,html-keyboard-response,48,266004,0.0-4.0-0.22,183,1,2025-05-05T16:09:06Z,b60275e29fe2361ab97ac0ac217840d7,"Mozilla/5.0 (Windows NT 10.0; Win64; x64) AppleWebKit/537.36 (KHTML, like Gecko) Chrome/135.0.0.0 Safari/537.36",WebKit,Chrome,135.0.0.0,Windows,10,https://5puzkbbxv1.cognition.run/?sona_id=57038,"en-US,en;q=0.9",lch8lx4a6mhzf3l,21,"[""Black or African-American""]",No,Male,"Cape Verde, 15 years",No,586848,NA,null,<p></p>,null,choice,wb,binary,catch,null,laptops,80,50,5,15,null,null,2,NA,NA,NA,NA,NA,NA,NA,NA,NA,NA
NA,NA,NA,NA,NA,choice_trial,survey-html-form,49,270826,0.0-4.0-1.22,183,1,2025-05-05T16:09:06Z,b60275e29fe2361ab97ac0ac217840d7,"Mozilla/5.0 (Windows NT 10.0; Win64; x64) AppleWebKit/537.36 (KHTML, like Gecko) Chrome/135.0.0.0 Safari/537.36",WebKit,Chrome,135.0.0.0,Windows,10,https://5puzkbbxv1.cognition.run/?sona_id=57038,"en-US,en;q=0.9",lch8lx4a6mhzf3l,21,"[""Black or African-American""]",No,Male,"Cape Verde, 15 years",No,586848,NA,4819,NA,"{""product_choice"":""B""}",choice,wb,binary,catch,null,laptops,80,50,5,15,null,null,2,null,null,null,null,null,null,Processing speed,Memory (RAM),NA,NA
NA,NA,NA,NA,NA,choice_trial_setup,html-keyboard-response,50,271130,0.0-4.0-0.23,183,1,2025-05-05T16:09:06Z,b60275e29fe2361ab97ac0ac217840d7,"Mozilla/5.0 (Windows NT 10.0; Win64; x64) AppleWebKit/537.36 (KHTML, like Gecko) Chrome/135.0.0.0 Safari/537.36",WebKit,Chrome,135.0.0.0,Windows,10,https://5puzkbbxv1.cognition.run/?sona_id=57038,"en-US,en;q=0.9",lch8lx4a6mhzf3l,21,"[""Black or African-American""]",No,Male,"Cape Verde, 15 years",No,586848,NA,null,<p></p>,null,choice,tdc,trinary,repulsion_B,2,microwave ovens,null,null,null,null,null,null,1,NA,NA,NA,NA,NA,NA,NA,NA,NA,NA
NA,NA,NA,NA,NA,choice_trial,survey-html-form,51,276482,0.0-4.0-1.23,183,1,2025-05-05T16:09:06Z,b60275e29fe2361ab97ac0ac217840d7,"Mozilla/5.0 (Windows NT 10.0; Win64; x64) AppleWebKit/537.36 (KHTML, like Gecko) Chrome/135.0.0.0 Safari/537.36",WebKit,Chrome,135.0.0.0,Windows,10,https://5puzkbbxv1.cognition.run/?sona_id=57038,"en-US,en;q=0.9",lch8lx4a6mhzf3l,21,"[""Black or African-American""]",No,Male,"Cape Verde, 15 years",No,586848,NA,5349,NA,"{""product_choice"":""A""}",choice,tdc,trinary,repulsion_B,2,microwave ovens,null,null,null,null,null,null,1,40,30,40,90,100,80,Warranty,Cooking power,NA,NA
NA,NA,NA,NA,NA,choice_trial_setup,html-keyboard-response,52,276785,0.0-4.0-0.24,183,1,2025-05-05T16:09:06Z,b60275e29fe2361ab97ac0ac217840d7,"Mozilla/5.0 (Windows NT 10.0; Win64; x64) AppleWebKit/537.36 (KHTML, like Gecko) Chrome/135.0.0.0 Safari/537.36",WebKit,Chrome,135.0.0.0,Windows,10,https://5puzkbbxv1.cognition.run/?sona_id=57038,"en-US,en;q=0.9",lch8lx4a6mhzf3l,21,"[""Black or African-American""]",No,Male,"Cape Verde, 15 years",No,586848,NA,null,<p></p>,null,choice,wb,binary,catch,null,televisions,95,75,30,20,null,null,2,NA,NA,NA,NA,NA,NA,NA,NA,NA,NA
NA,NA,NA,NA,NA,choice_trial,survey-html-form,53,279549,0.0-4.0-1.24,183,1,2025-05-05T16:09:06Z,b60275e29fe2361ab97ac0ac217840d7,"Mozilla/5.0 (Windows NT 10.0; Win64; x64) AppleWebKit/537.36 (KHTML, like Gecko) Chrome/135.0.0.0 Safari/537.36",WebKit,Chrome,135.0.0.0,Windows,10,https://5puzkbbxv1.cognition.run/?sona_id=57038,"en-US,en;q=0.9",lch8lx4a6mhzf3l,21,"[""Black or African-American""]",No,Male,"Cape Verde, 15 years",No,586848,NA,2759,NA,"{""product_choice"":""B""}",choice,wb,binary,catch,null,televisions,95,75,30,20,null,null,2,null,null,null,null,null,null,Screen size,Average lifespan,NA,NA
NA,NA,NA,NA,NA,choice_trial_setup,html-keyboard-response,54,279854,0.0-4.0-0.25,183,1,2025-05-05T16:09:06Z,b60275e29fe2361ab97ac0ac217840d7,"Mozilla/5.0 (Windows NT 10.0; Win64; x64) AppleWebKit/537.36 (KHTML, like Gecko) Chrome/135.0.0.0 Safari/537.36",WebKit,Chrome,135.0.0.0,Windows,10,https://5puzkbbxv1.cognition.run/?sona_id=57038,"en-US,en;q=0.9",lch8lx4a6mhzf3l,21,"[""Black or African-American""]",No,Male,"Cape Verde, 15 years",No,586848,NA,null,<p></p>,null,choice,tc,binary,repulsion,2,televisions,null,null,null,null,null,null,1,NA,NA,NA,NA,NA,NA,NA,NA,NA,NA
NA,NA,NA,NA,NA,choice_trial,survey-html-form,55,283094,0.0-4.0-1.25,183,1,2025-05-05T16:09:06Z,b60275e29fe2361ab97ac0ac217840d7,"Mozilla/5.0 (Windows NT 10.0; Win64; x64) AppleWebKit/537.36 (KHTML, like Gecko) Chrome/135.0.0.0 Safari/537.36",WebKit,Chrome,135.0.0.0,Windows,10,https://5puzkbbxv1.cognition.run/?sona_id=57038,"en-US,en;q=0.9",lch8lx4a6mhzf3l,21,"[""Black or African-American""]",No,Male,"Cape Verde, 15 years",No,586848,NA,3236,NA,"{""product_choice"":""B""}",choice,tc,binary,repulsion,2,televisions,null,null,null,null,null,null,1,30,40,null,100,90,null,Screen size,Average lifespan,NA,NA
NA,NA,NA,NA,NA,choice_trial_setup,html-keyboard-response,56,283398,0.0-4.0-0.26,183,1,2025-05-05T16:09:06Z,b60275e29fe2361ab97ac0ac217840d7,"Mozilla/5.0 (Windows NT 10.0; Win64; x64) AppleWebKit/537.36 (KHTML, like Gecko) Chrome/135.0.0.0 Safari/537.36",WebKit,Chrome,135.0.0.0,Windows,10,https://5puzkbbxv1.cognition.run/?sona_id=57038,"en-US,en;q=0.9",lch8lx4a6mhzf3l,21,"[""Black or African-American""]",No,Male,"Cape Verde, 15 years",No,586848,NA,null,<p></p>,null,choice,tdc,trinary,repulsion_A,1,laptops,null,null,null,null,null,null,1,NA,NA,NA,NA,NA,NA,NA,NA,NA,NA
NA,NA,NA,NA,NA,choice_trial,survey-html-form,57,288876,0.0-4.0-1.26,183,1,2025-05-05T16:09:06Z,b60275e29fe2361ab97ac0ac217840d7,"Mozilla/5.0 (Windows NT 10.0; Win64; x64) AppleWebKit/537.36 (KHTML, like Gecko) Chrome/135.0.0.0 Safari/537.36",WebKit,Chrome,135.0.0.0,Windows,10,https://5puzkbbxv1.cognition.run/?sona_id=57038,"en-US,en;q=0.9",lch8lx4a6mhzf3l,21,"[""Black or African-American""]",No,Male,"Cape Verde, 15 years",No,586848,NA,5474,NA,"{""product_choice"":""C""}",choice,tdc,trinary,repulsion_A,1,laptops,null,null,null,null,null,null,1,100,90,100,30,40,20,Processing speed,Memory (RAM),NA,NA
NA,NA,NA,NA,NA,choice_trial_setup,html-keyboard-response,58,289180,0.0-4.0-0.27,183,1,2025-05-05T16:09:06Z,b60275e29fe2361ab97ac0ac217840d7,"Mozilla/5.0 (Windows NT 10.0; Win64; x64) AppleWebKit/537.36 (KHTML, like Gecko) Chrome/135.0.0.0 Safari/537.36",WebKit,Chrome,135.0.0.0,Windows,10,https://5puzkbbxv1.cognition.run/?sona_id=57038,"en-US,en;q=0.9",lch8lx4a6mhzf3l,21,"[""Black or African-American""]",No,Male,"Cape Verde, 15 years",No,586848,NA,null,<p></p>,null,choice,tdc,trinary,repulsion_B,1,microwave ovens,null,null,null,null,null,null,1,NA,NA,NA,NA,NA,NA,NA,NA,NA,NA
NA,NA,NA,NA,NA,choice_trial,survey-html-form,59,295635,0.0-4.0-1.27,183,1,2025-05-05T16:09:06Z,b60275e29fe2361ab97ac0ac217840d7,"Mozilla/5.0 (Windows NT 10.0; Win64; x64) AppleWebKit/537.36 (KHTML, like Gecko) Chrome/135.0.0.0 Safari/537.36",WebKit,Chrome,135.0.0.0,Windows,10,https://5puzkbbxv1.cognition.run/?sona_id=57038,"en-US,en;q=0.9",lch8lx4a6mhzf3l,21,"[""Black or African-American""]",No,Male,"Cape Verde, 15 years",No,586848,NA,6451,NA,"{""product_choice"":""A""}",choice,tdc,trinary,repulsion_B,1,microwave ovens,null,null,null,null,null,null,1,90,100,80,40,30,40,Warranty,Cooking power,NA,NA
NA,NA,NA,NA,NA,choice_trial_setup,html-keyboard-response,60,295940,0.0-4.0-0.28,183,1,2025-05-05T16:09:06Z,b60275e29fe2361ab97ac0ac217840d7,"Mozilla/5.0 (Windows NT 10.0; Win64; x64) AppleWebKit/537.36 (KHTML, like Gecko) Chrome/135.0.0.0 Safari/537.36",WebKit,Chrome,135.0.0.0,Windows,10,https://5puzkbbxv1.cognition.run/?sona_id=57038,"en-US,en;q=0.9",lch8lx4a6mhzf3l,21,"[""Black or African-American""]",No,Male,"Cape Verde, 15 years",No,586848,NA,null,<p></p>,null,choice,cdt,trinary,attraction,2,laptops,null,null,null,null,null,null,2,NA,NA,NA,NA,NA,NA,NA,NA,NA,NA
NA,NA,NA,NA,NA,choice_trial,survey-html-form,61,305494,0.0-4.0-1.28,183,1,2025-05-05T16:09:06Z,b60275e29fe2361ab97ac0ac217840d7,"Mozilla/5.0 (Windows NT 10.0; Win64; x64) AppleWebKit/537.36 (KHTML, like Gecko) Chrome/135.0.0.0 Safari/537.36",WebKit,Chrome,135.0.0.0,Windows,10,https://5puzkbbxv1.cognition.run/?sona_id=57038,"en-US,en;q=0.9",lch8lx4a6mhzf3l,21,"[""Black or African-American""]",No,Male,"Cape Verde, 15 years",No,586848,NA,9550,NA,"{""product_choice"":""C""}",choice,cdt,trinary,attraction,2,laptops,null,null,null,null,null,null,2,50,60,40,60,50,60,Processing speed,Memory (RAM),NA,NA
NA,NA,NA,NA,NA,choice_trial_setup,html-keyboard-response,62,305798,0.0-4.0-0.29,183,1,2025-05-05T16:09:06Z,b60275e29fe2361ab97ac0ac217840d7,"Mozilla/5.0 (Windows NT 10.0; Win64; x64) AppleWebKit/537.36 (KHTML, like Gecko) Chrome/135.0.0.0 Safari/537.36",WebKit,Chrome,135.0.0.0,Windows,10,https://5puzkbbxv1.cognition.run/?sona_id=57038,"en-US,en;q=0.9",lch8lx4a6mhzf3l,21,"[""Black or African-American""]",No,Male,"Cape Verde, 15 years",No,586848,NA,null,<p></p>,null,choice,tcd,trinary,repulsion_B,1,televisions,null,null,null,null,null,null,2,NA,NA,NA,NA,NA,NA,NA,NA,NA,NA
NA,NA,NA,NA,NA,choice_trial,survey-html-form,63,313030,0.0-4.0-1.29,183,1,2025-05-05T16:09:06Z,b60275e29fe2361ab97ac0ac217840d7,"Mozilla/5.0 (Windows NT 10.0; Win64; x64) AppleWebKit/537.36 (KHTML, like Gecko) Chrome/135.0.0.0 Safari/537.36",WebKit,Chrome,135.0.0.0,Windows,10,https://5puzkbbxv1.cognition.run/?sona_id=57038,"en-US,en;q=0.9",lch8lx4a6mhzf3l,21,"[""Black or African-American""]",No,Male,"Cape Verde, 15 years",No,586848,NA,7228,NA,"{""product_choice"":""A""}",choice,tcd,trinary,repulsion_B,1,televisions,null,null,null,null,null,null,2,90,100,80,40,30,40,Screen size,Average lifespan,NA,NA
NA,NA,NA,NA,NA,choice_trial_setup,html-keyboard-response,64,313335,0.0-4.0-0.30,183,1,2025-05-05T16:09:06Z,b60275e29fe2361ab97ac0ac217840d7,"Mozilla/5.0 (Windows NT 10.0; Win64; x64) AppleWebKit/537.36 (KHTML, like Gecko) Chrome/135.0.0.0 Safari/537.36",WebKit,Chrome,135.0.0.0,Windows,10,https://5puzkbbxv1.cognition.run/?sona_id=57038,"en-US,en;q=0.9",lch8lx4a6mhzf3l,21,"[""Black or African-American""]",No,Male,"Cape Verde, 15 years",No,586848,NA,null,<p></p>,null,choice,tc,binary,repulsion,1,washing machines,null,null,null,null,null,null,2,NA,NA,NA,NA,NA,NA,NA,NA,NA,NA
NA,NA,NA,NA,NA,choice_trial,survey-html-form,65,320898,0.0-4.0-1.30,183,1,2025-05-05T16:09:06Z,b60275e29fe2361ab97ac0ac217840d7,"Mozilla/5.0 (Windows NT 10.0; Win64; x64) AppleWebKit/537.36 (KHTML, like Gecko) Chrome/135.0.0.0 Safari/537.36",WebKit,Chrome,135.0.0.0,Windows,10,https://5puzkbbxv1.cognition.run/?sona_id=57038,"en-US,en;q=0.9",lch8lx4a6mhzf3l,21,"[""Black or African-American""]",No,Male,"Cape Verde, 15 years",No,586848,NA,7557,NA,"{""product_choice"":""B""}",choice,tc,binary,repulsion,1,washing machines,null,null,null,null,null,null,2,100,90,null,30,40,null,Average lifespan,Energy savings,NA,NA
NA,NA,NA,NA,NA,choice_trial_setup,html-keyboard-response,66,321202,0.0-4.0-0.31,183,1,2025-05-05T16:09:06Z,b60275e29fe2361ab97ac0ac217840d7,"Mozilla/5.0 (Windows NT 10.0; Win64; x64) AppleWebKit/537.36 (KHTML, like Gecko) Chrome/135.0.0.0 Safari/537.36",WebKit,Chrome,135.0.0.0,Windows,10,https://5puzkbbxv1.cognition.run/?sona_id=57038,"en-US,en;q=0.9",lch8lx4a6mhzf3l,21,"[""Black or African-American""]",No,Male,"Cape Verde, 15 years",No,586848,NA,null,<p></p>,null,choice,cdt,trinary,attraction,1,laptops,null,null,null,null,null,null,2,NA,NA,NA,NA,NA,NA,NA,NA,NA,NA
NA,NA,NA,NA,NA,choice_trial,survey-html-form,67,333610,0.0-4.0-1.31,183,1,2025-05-05T16:09:06Z,b60275e29fe2361ab97ac0ac217840d7,"Mozilla/5.0 (Windows NT 10.0; Win64; x64) AppleWebKit/537.36 (KHTML, like Gecko) Chrome/135.0.0.0 Safari/537.36",WebKit,Chrome,135.0.0.0,Windows,10,https://5puzkbbxv1.cognition.run/?sona_id=57038,"en-US,en;q=0.9",lch8lx4a6mhzf3l,21,"[""Black or African-American""]",No,Male,"Cape Verde, 15 years",No,586848,NA,12405,NA,"{""product_choice"":""A""}",choice,cdt,trinary,attraction,1,laptops,null,null,null,null,null,null,2,60,50,60,50,60,40,Processing speed,Memory (RAM),NA,NA
NA,NA,NA,NA,NA,choice_trial_setup,html-keyboard-response,68,333914,0.0-4.0-0.32,183,1,2025-05-05T16:09:06Z,b60275e29fe2361ab97ac0ac217840d7,"Mozilla/5.0 (Windows NT 10.0; Win64; x64) AppleWebKit/537.36 (KHTML, like Gecko) Chrome/135.0.0.0 Safari/537.36",WebKit,Chrome,135.0.0.0,Windows,10,https://5puzkbbxv1.cognition.run/?sona_id=57038,"en-US,en;q=0.9",lch8lx4a6mhzf3l,21,"[""Black or African-American""]",No,Male,"Cape Verde, 15 years",No,586848,NA,null,<p></p>,null,choice,wbw,trinary,catch,null,televisions,65,95,50,35,30,30,2,NA,NA,NA,NA,NA,NA,NA,NA,NA,NA
NA,NA,NA,NA,NA,choice_trial,survey-html-form,69,338967,0.0-4.0-1.32,183,1,2025-05-05T16:09:06Z,b60275e29fe2361ab97ac0ac217840d7,"Mozilla/5.0 (Windows NT 10.0; Win64; x64) AppleWebKit/537.36 (KHTML, like Gecko) Chrome/135.0.0.0 Safari/537.36",WebKit,Chrome,135.0.0.0,Windows,10,https://5puzkbbxv1.cognition.run/?sona_id=57038,"en-US,en;q=0.9",lch8lx4a6mhzf3l,21,"[""Black or African-American""]",No,Male,"Cape Verde, 15 years",No,586848,NA,5051,NA,"{""product_choice"":""B""}",choice,wbw,trinary,catch,null,televisions,65,95,50,35,30,30,2,null,null,null,null,null,null,Screen size,Average lifespan,NA,NA
NA,NA,NA,NA,NA,choice_trial_setup,html-keyboard-response,70,339272,0.0-4.0-0.33,183,1,2025-05-05T16:09:06Z,b60275e29fe2361ab97ac0ac217840d7,"Mozilla/5.0 (Windows NT 10.0; Win64; x64) AppleWebKit/537.36 (KHTML, like Gecko) Chrome/135.0.0.0 Safari/537.36",WebKit,Chrome,135.0.0.0,Windows,10,https://5puzkbbxv1.cognition.run/?sona_id=57038,"en-US,en;q=0.9",lch8lx4a6mhzf3l,21,"[""Black or African-American""]",No,Male,"Cape Verde, 15 years",No,586848,NA,null,<p></p>,null,choice,bww,trinary,catch,null,laptops,50,95,10,5,40,5,2,NA,NA,NA,NA,NA,NA,NA,NA,NA,NA
NA,NA,NA,NA,NA,choice_trial,survey-html-form,71,343025,0.0-4.0-1.33,183,1,2025-05-05T16:09:06Z,b60275e29fe2361ab97ac0ac217840d7,"Mozilla/5.0 (Windows NT 10.0; Win64; x64) AppleWebKit/537.36 (KHTML, like Gecko) Chrome/135.0.0.0 Safari/537.36",WebKit,Chrome,135.0.0.0,Windows,10,https://5puzkbbxv1.cognition.run/?sona_id=57038,"en-US,en;q=0.9",lch8lx4a6mhzf3l,21,"[""Black or African-American""]",No,Male,"Cape Verde, 15 years",No,586848,NA,3750,NA,"{""product_choice"":""A""}",choice,bww,trinary,catch,null,laptops,50,95,10,5,40,5,2,null,null,null,null,null,null,Processing speed,Memory (RAM),NA,NA
NA,NA,NA,NA,NA,choice_trial_setup,html-keyboard-response,72,343329,0.0-4.0-0.34,183,1,2025-05-05T16:09:06Z,b60275e29fe2361ab97ac0ac217840d7,"Mozilla/5.0 (Windows NT 10.0; Win64; x64) AppleWebKit/537.36 (KHTML, like Gecko) Chrome/135.0.0.0 Safari/537.36",WebKit,Chrome,135.0.0.0,Windows,10,https://5puzkbbxv1.cognition.run/?sona_id=57038,"en-US,en;q=0.9",lch8lx4a6mhzf3l,21,"[""Black or African-American""]",No,Male,"Cape Verde, 15 years",No,586848,NA,null,<p></p>,null,choice,ctd,trinary,attraction,1,microwave ovens,null,null,null,null,null,null,2,NA,NA,NA,NA,NA,NA,NA,NA,NA,NA
NA,NA,NA,NA,NA,choice_trial,survey-html-form,73,351165,0.0-4.0-1.34,183,1,2025-05-05T16:09:06Z,b60275e29fe2361ab97ac0ac217840d7,"Mozilla/5.0 (Windows NT 10.0; Win64; x64) AppleWebKit/537.36 (KHTML, like Gecko) Chrome/135.0.0.0 Safari/537.36",WebKit,Chrome,135.0.0.0,Windows,10,https://5puzkbbxv1.cognition.run/?sona_id=57038,"en-US,en;q=0.9",lch8lx4a6mhzf3l,21,"[""Black or African-American""]",No,Male,"Cape Verde, 15 years",No,586848,NA,7831,NA,"{""product_choice"":""A""}",choice,ctd,trinary,attraction,1,microwave ovens,null,null,null,null,null,null,2,60,50,60,50,60,40,Warranty,Cooking power,NA,NA
NA,NA,NA,NA,NA,choice_trial_setup,html-keyboard-response,74,351469,0.0-4.0-0.35,183,1,2025-05-05T16:09:06Z,b60275e29fe2361ab97ac0ac217840d7,"Mozilla/5.0 (Windows NT 10.0; Win64; x64) AppleWebKit/537.36 (KHTML, like Gecko) Chrome/135.0.0.0 Safari/537.36",WebKit,Chrome,135.0.0.0,Windows,10,https://5puzkbbxv1.cognition.run/?sona_id=57038,"en-US,en;q=0.9",lch8lx4a6mhzf3l,21,"[""Black or African-American""]",No,Male,"Cape Verde, 15 years",No,586848,NA,null,<p></p>,null,choice,cdt,trinary,repulsion_A,1,microwave ovens,null,null,null,null,null,null,2,NA,NA,NA,NA,NA,NA,NA,NA,NA,NA
NA,NA,NA,NA,NA,choice_trial,survey-html-form,75,355349,0.0-4.0-1.35,183,1,2025-05-05T16:09:06Z,b60275e29fe2361ab97ac0ac217840d7,"Mozilla/5.0 (Windows NT 10.0; Win64; x64) AppleWebKit/537.36 (KHTML, like Gecko) Chrome/135.0.0.0 Safari/537.36",WebKit,Chrome,135.0.0.0,Windows,10,https://5puzkbbxv1.cognition.run/?sona_id=57038,"en-US,en;q=0.9",lch8lx4a6mhzf3l,21,"[""Black or African-American""]",No,Male,"Cape Verde, 15 years",No,586848,NA,3875,NA,"{""product_choice"":""A""}",choice,cdt,trinary,repulsion_A,1,microwave ovens,null,null,null,null,null,null,2,100,90,100,30,40,20,Warranty,Cooking power,NA,NA
NA,NA,NA,NA,NA,choice_trial_setup,html-keyboard-response,76,355653,0.0-4.0-0.36,183,1,2025-05-05T16:09:06Z,b60275e29fe2361ab97ac0ac217840d7,"Mozilla/5.0 (Windows NT 10.0; Win64; x64) AppleWebKit/537.36 (KHTML, like Gecko) Chrome/135.0.0.0 Safari/537.36",WebKit,Chrome,135.0.0.0,Windows,10,https://5puzkbbxv1.cognition.run/?sona_id=57038,"en-US,en;q=0.9",lch8lx4a6mhzf3l,21,"[""Black or African-American""]",No,Male,"Cape Verde, 15 years",No,586848,NA,null,<p></p>,null,choice,wwb,trinary,catch,null,microwave ovens,95,60,50,30,50,45,1,NA,NA,NA,NA,NA,NA,NA,NA,NA,NA
NA,NA,NA,NA,NA,choice_trial,survey-html-form,77,359540,0.0-4.0-1.36,183,1,2025-05-05T16:09:06Z,b60275e29fe2361ab97ac0ac217840d7,"Mozilla/5.0 (Windows NT 10.0; Win64; x64) AppleWebKit/537.36 (KHTML, like Gecko) Chrome/135.0.0.0 Safari/537.36",WebKit,Chrome,135.0.0.0,Windows,10,https://5puzkbbxv1.cognition.run/?sona_id=57038,"en-US,en;q=0.9",lch8lx4a6mhzf3l,21,"[""Black or African-American""]",No,Male,"Cape Verde, 15 years",No,586848,NA,3882,NA,"{""product_choice"":""C""}",choice,wwb,trinary,catch,null,microwave ovens,95,60,50,30,50,45,1,null,null,null,null,null,null,Warranty,Cooking power,NA,NA
NA,NA,NA,NA,NA,choice_trial_setup,html-keyboard-response,78,359846,0.0-4.0-0.37,183,1,2025-05-05T16:09:06Z,b60275e29fe2361ab97ac0ac217840d7,"Mozilla/5.0 (Windows NT 10.0; Win64; x64) AppleWebKit/537.36 (KHTML, like Gecko) Chrome/135.0.0.0 Safari/537.36",WebKit,Chrome,135.0.0.0,Windows,10,https://5puzkbbxv1.cognition.run/?sona_id=57038,"en-US,en;q=0.9",lch8lx4a6mhzf3l,21,"[""Black or African-American""]",No,Male,"Cape Verde, 15 years",No,586848,NA,null,<p></p>,null,choice,dct,trinary,repulsion_A,2,microwave ovens,null,null,null,null,null,null,2,NA,NA,NA,NA,NA,NA,NA,NA,NA,NA
NA,NA,NA,NA,NA,choice_trial,survey-html-form,79,364794,0.0-4.0-1.37,183,1,2025-05-05T16:09:06Z,b60275e29fe2361ab97ac0ac217840d7,"Mozilla/5.0 (Windows NT 10.0; Win64; x64) AppleWebKit/537.36 (KHTML, like Gecko) Chrome/135.0.0.0 Safari/537.36",WebKit,Chrome,135.0.0.0,Windows,10,https://5puzkbbxv1.cognition.run/?sona_id=57038,"en-US,en;q=0.9",lch8lx4a6mhzf3l,21,"[""Black or African-American""]",No,Male,"Cape Verde, 15 years",No,586848,NA,4944,NA,"{""product_choice"":""B""}",choice,dct,trinary,repulsion_A,2,microwave ovens,null,null,null,null,null,null,2,30,40,20,100,90,100,Warranty,Cooking power,NA,NA
NA,NA,NA,NA,NA,choice_trial_setup,html-keyboard-response,80,365099,0.0-4.0-0.38,183,1,2025-05-05T16:09:06Z,b60275e29fe2361ab97ac0ac217840d7,"Mozilla/5.0 (Windows NT 10.0; Win64; x64) AppleWebKit/537.36 (KHTML, like Gecko) Chrome/135.0.0.0 Safari/537.36",WebKit,Chrome,135.0.0.0,Windows,10,https://5puzkbbxv1.cognition.run/?sona_id=57038,"en-US,en;q=0.9",lch8lx4a6mhzf3l,21,"[""Black or African-American""]",No,Male,"Cape Verde, 15 years",No,586848,NA,null,<p></p>,null,choice,tdc,trinary,attraction,1,televisions,null,null,null,null,null,null,2,NA,NA,NA,NA,NA,NA,NA,NA,NA,NA
NA,NA,NA,NA,NA,choice_trial,survey-html-form,81,370003,0.0-4.0-1.38,183,1,2025-05-05T16:09:06Z,b60275e29fe2361ab97ac0ac217840d7,"Mozilla/5.0 (Windows NT 10.0; Win64; x64) AppleWebKit/537.36 (KHTML, like Gecko) Chrome/135.0.0.0 Safari/537.36",WebKit,Chrome,135.0.0.0,Windows,10,https://5puzkbbxv1.cognition.run/?sona_id=57038,"en-US,en;q=0.9",lch8lx4a6mhzf3l,21,"[""Black or African-American""]",No,Male,"Cape Verde, 15 years",No,586848,NA,4898,NA,"{""product_choice"":""A""}",choice,tdc,trinary,attraction,1,televisions,null,null,null,null,null,null,2,60,50,60,50,60,40,Screen size,Average lifespan,NA,NA
NA,NA,NA,NA,NA,choice_trial_setup,html-keyboard-response,82,370307,0.0-4.0-0.39,183,1,2025-05-05T16:09:06Z,b60275e29fe2361ab97ac0ac217840d7,"Mozilla/5.0 (Windows NT 10.0; Win64; x64) AppleWebKit/537.36 (KHTML, like Gecko) Chrome/135.0.0.0 Safari/537.36",WebKit,Chrome,135.0.0.0,Windows,10,https://5puzkbbxv1.cognition.run/?sona_id=57038,"en-US,en;q=0.9",lch8lx4a6mhzf3l,21,"[""Black or African-American""]",No,Male,"Cape Verde, 15 years",No,586848,NA,null,<p></p>,null,choice,tdc,trinary,repulsion_B,1,laptops,null,null,null,null,null,null,1,NA,NA,NA,NA,NA,NA,NA,NA,NA,NA
NA,NA,NA,NA,NA,choice_trial,survey-html-form,83,376857,0.0-4.0-1.39,183,1,2025-05-05T16:09:06Z,b60275e29fe2361ab97ac0ac217840d7,"Mozilla/5.0 (Windows NT 10.0; Win64; x64) AppleWebKit/537.36 (KHTML, like Gecko) Chrome/135.0.0.0 Safari/537.36",WebKit,Chrome,135.0.0.0,Windows,10,https://5puzkbbxv1.cognition.run/?sona_id=57038,"en-US,en;q=0.9",lch8lx4a6mhzf3l,21,"[""Black or African-American""]",No,Male,"Cape Verde, 15 years",No,586848,NA,6545,NA,"{""product_choice"":""A""}",choice,tdc,trinary,repulsion_B,1,laptops,null,null,null,null,null,null,1,90,100,80,40,30,40,Processing speed,Memory (RAM),NA,NA
NA,NA,NA,NA,NA,choice_trial_setup,html-keyboard-response,84,377160,0.0-4.0-0.40,183,1,2025-05-05T16:09:06Z,b60275e29fe2361ab97ac0ac217840d7,"Mozilla/5.0 (Windows NT 10.0; Win64; x64) AppleWebKit/537.36 (KHTML, like Gecko) Chrome/135.0.0.0 Safari/537.36",WebKit,Chrome,135.0.0.0,Windows,10,https://5puzkbbxv1.cognition.run/?sona_id=57038,"en-US,en;q=0.9",lch8lx4a6mhzf3l,21,"[""Black or African-American""]",No,Male,"Cape Verde, 15 years",No,586848,NA,null,<p></p>,null,choice,dtc,trinary,attraction,2,microwave ovens,null,null,null,null,null,null,1,NA,NA,NA,NA,NA,NA,NA,NA,NA,NA
NA,NA,NA,NA,NA,choice_trial,survey-html-form,85,384470,0.0-4.0-1.40,183,1,2025-05-05T16:09:06Z,b60275e29fe2361ab97ac0ac217840d7,"Mozilla/5.0 (Windows NT 10.0; Win64; x64) AppleWebKit/537.36 (KHTML, like Gecko) Chrome/135.0.0.0 Safari/537.36",WebKit,Chrome,135.0.0.0,Windows,10,https://5puzkbbxv1.cognition.run/?sona_id=57038,"en-US,en;q=0.9",lch8lx4a6mhzf3l,21,"[""Black or African-American""]",No,Male,"Cape Verde, 15 years",No,586848,NA,7308,NA,"{""product_choice"":""B""}",choice,dtc,trinary,attraction,2,microwave ovens,null,null,null,null,null,null,1,50,60,40,60,50,60,Warranty,Cooking power,NA,NA
NA,NA,NA,NA,NA,choice_trial_setup,html-keyboard-response,86,384775,0.0-4.0-0.41,183,1,2025-05-05T16:09:06Z,b60275e29fe2361ab97ac0ac217840d7,"Mozilla/5.0 (Windows NT 10.0; Win64; x64) AppleWebKit/537.36 (KHTML, like Gecko) Chrome/135.0.0.0 Safari/537.36",WebKit,Chrome,135.0.0.0,Windows,10,https://5puzkbbxv1.cognition.run/?sona_id=57038,"en-US,en;q=0.9",lch8lx4a6mhzf3l,21,"[""Black or African-American""]",No,Male,"Cape Verde, 15 years",No,586848,NA,null,<p></p>,null,choice,ctd,trinary,repulsion_B,1,washing machines,null,null,null,null,null,null,2,NA,NA,NA,NA,NA,NA,NA,NA,NA,NA
NA,NA,NA,NA,NA,choice_trial,survey-html-form,87,391819,0.0-4.0-1.41,183,1,2025-05-05T16:09:06Z,b60275e29fe2361ab97ac0ac217840d7,"Mozilla/5.0 (Windows NT 10.0; Win64; x64) AppleWebKit/537.36 (KHTML, like Gecko) Chrome/135.0.0.0 Safari/537.36",WebKit,Chrome,135.0.0.0,Windows,10,https://5puzkbbxv1.cognition.run/?sona_id=57038,"en-US,en;q=0.9",lch8lx4a6mhzf3l,21,"[""Black or African-American""]",No,Male,"Cape Verde, 15 years",No,586848,NA,7039,NA,"{""product_choice"":""B""}",choice,ctd,trinary,repulsion_B,1,washing machines,null,null,null,null,null,null,2,90,100,80,40,30,40,Average lifespan,Energy savings,NA,NA
NA,NA,NA,NA,NA,choice_trial_setup,html-keyboard-response,88,392124,0.0-4.0-0.42,183,1,2025-05-05T16:09:06Z,b60275e29fe2361ab97ac0ac217840d7,"Mozilla/5.0 (Windows NT 10.0; Win64; x64) AppleWebKit/537.36 (KHTML, like Gecko) Chrome/135.0.0.0 Safari/537.36",WebKit,Chrome,135.0.0.0,Windows,10,https://5puzkbbxv1.cognition.run/?sona_id=57038,"en-US,en;q=0.9",lch8lx4a6mhzf3l,21,"[""Black or African-American""]",No,Male,"Cape Verde, 15 years",No,586848,NA,null,<p></p>,null,choice,ct,binary,attraction,NA,washing machines,null,null,null,null,null,null,2,NA,NA,NA,NA,NA,NA,NA,NA,NA,NA
NA,NA,NA,NA,NA,choice_trial,survey-html-form,89,404381,0.0-4.0-1.42,183,1,2025-05-05T16:09:06Z,b60275e29fe2361ab97ac0ac217840d7,"Mozilla/5.0 (Windows NT 10.0; Win64; x64) AppleWebKit/537.36 (KHTML, like Gecko) Chrome/135.0.0.0 Safari/537.36",WebKit,Chrome,135.0.0.0,Windows,10,https://5puzkbbxv1.cognition.run/?sona_id=57038,"en-US,en;q=0.9",lch8lx4a6mhzf3l,21,"[""Black or African-American""]",No,Male,"Cape Verde, 15 years",No,586848,NA,12252,NA,"{""product_choice"":""B""}",choice,ct,binary,attraction,NA,washing machines,null,null,null,null,null,null,2,60,50,null,50,60,null,Average lifespan,Energy savings,NA,NA
NA,NA,NA,NA,NA,choice_trial_setup,html-keyboard-response,90,404686,0.0-4.0-0.43,183,1,2025-05-05T16:09:06Z,b60275e29fe2361ab97ac0ac217840d7,"Mozilla/5.0 (Windows NT 10.0; Win64; x64) AppleWebKit/537.36 (KHTML, like Gecko) Chrome/135.0.0.0 Safari/537.36",WebKit,Chrome,135.0.0.0,Windows,10,https://5puzkbbxv1.cognition.run/?sona_id=57038,"en-US,en;q=0.9",lch8lx4a6mhzf3l,21,"[""Black or African-American""]",No,Male,"Cape Verde, 15 years",No,586848,NA,null,<p></p>,null,choice,ct,binary,attraction,NA,laptops,null,null,null,null,null,null,1,NA,NA,NA,NA,NA,NA,NA,NA,NA,NA
NA,NA,NA,NA,NA,choice_trial,survey-html-form,91,409829,0.0-4.0-1.43,183,1,2025-05-05T16:09:06Z,b60275e29fe2361ab97ac0ac217840d7,"Mozilla/5.0 (Windows NT 10.0; Win64; x64) AppleWebKit/537.36 (KHTML, like Gecko) Chrome/135.0.0.0 Safari/537.36",WebKit,Chrome,135.0.0.0,Windows,10,https://5puzkbbxv1.cognition.run/?sona_id=57038,"en-US,en;q=0.9",lch8lx4a6mhzf3l,21,"[""Black or African-American""]",No,Male,"Cape Verde, 15 years",No,586848,NA,5137,NA,"{""product_choice"":""A""}",choice,ct,binary,attraction,NA,laptops,null,null,null,null,null,null,1,60,50,null,50,60,null,Processing speed,Memory (RAM),NA,NA
NA,NA,NA,NA,NA,post_trials_message,html-button-response,92,411010,0.0-5.0,183,1,2025-05-05T16:09:06Z,b60275e29fe2361ab97ac0ac217840d7,"Mozilla/5.0 (Windows NT 10.0; Win64; x64) AppleWebKit/537.36 (KHTML, like Gecko) Chrome/135.0.0.0 Safari/537.36",WebKit,Chrome,135.0.0.0,Windows,10,https://5puzkbbxv1.cognition.run/?sona_id=57038,"en-US,en;q=0.9",lch8lx4a6mhzf3l,21,"[""Black or African-American""]",No,Male,"Cape Verde, 15 years",No,586848,NA,1174,<p> <b>Thank you for your patience!</b></p><p>  The study will be done after completing a brief form. </p>,0,NA,NA,NA,NA,NA,NA,NA,NA,NA,NA,NA,NA,NA,NA,NA,NA,NA,NA,NA,NA,NA,NA,NA
NA,NA,NA,NA,NA,survey_message,survey-text,93,526911,0.0-6.0,183,1,2025-05-05T16:09:06Z,b60275e29fe2361ab97ac0ac217840d7,"Mozilla/5.0 (Windows NT 10.0; Win64; x64) AppleWebKit/537.36 (KHTML, like Gecko) Chrome/135.0.0.0 Safari/537.36",WebKit,Chrome,135.0.0.0,Windows,10,https://5puzkbbxv1.cognition.run/?sona_id=57038,"en-US,en;q=0.9",lch8lx4a6mhzf3l,21,"[""Black or African-American""]",No,Male,"Cape Verde, 15 years",No,586848,NA,115893,NA,"{""Q0"":""Sometimes I chose the combination that gave me the highest total and sometimes I tried to get the highest value for the feature I valued the most.""}",NA,NA,NA,NA,NA,NA,NA,NA,NA,NA,NA,NA,NA,NA,NA,NA,NA,NA,NA,NA,NA,Sometimes I chose the combination that gave me the highest total and sometimes I tried to get the highest value for the feature I valued the most.,NA
NA,NA,NA,NA,NA,demo_age,survey-text,94,530233,0.0-7.0,183,1,2025-05-05T16:09:06Z,b60275e29fe2361ab97ac0ac217840d7,"Mozilla/5.0 (Windows NT 10.0; Win64; x64) AppleWebKit/537.36 (KHTML, like Gecko) Chrome/135.0.0.0 Safari/537.36",WebKit,Chrome,135.0.0.0,Windows,10,https://5puzkbbxv1.cognition.run/?sona_id=57038,"en-US,en;q=0.9",lch8lx4a6mhzf3l,21,"[""Black or African-American""]",No,Male,"Cape Verde, 15 years",No,586848,NA,3313,NA,"{""Q0"":""21""}",NA,NA,NA,NA,NA,NA,NA,NA,NA,NA,NA,NA,NA,NA,NA,NA,NA,NA,NA,NA,NA,NA,NA
NA,NA,NA,NA,NA,demo_race,survey-multi-select,95,532863,0.0-8.0,183,1,2025-05-05T16:09:06Z,b60275e29fe2361ab97ac0ac217840d7,"Mozilla/5.0 (Windows NT 10.0; Win64; x64) AppleWebKit/537.36 (KHTML, like Gecko) Chrome/135.0.0.0 Safari/537.36",WebKit,Chrome,135.0.0.0,Windows,10,https://5puzkbbxv1.cognition.run/?sona_id=57038,"en-US,en;q=0.9",lch8lx4a6mhzf3l,21,"[""Black or African-American""]",No,Male,"Cape Verde, 15 years",No,586848,NA,2627,NA,"{""Q0"":[""Black or African-American""]}",NA,NA,NA,NA,NA,NA,NA,NA,NA,NA,NA,NA,NA,NA,NA,NA,NA,NA,NA,NA,NA,NA,[0]
NA,NA,NA,NA,NA,demo_ethnicity_gender,survey-multi-choice,96,536818,0.0-9.0,183,1,2025-05-05T16:09:06Z,b60275e29fe2361ab97ac0ac217840d7,"Mozilla/5.0 (Windows NT 10.0; Win64; x64) AppleWebKit/537.36 (KHTML, like Gecko) Chrome/135.0.0.0 Safari/537.36",WebKit,Chrome,135.0.0.0,Windows,10,https://5puzkbbxv1.cognition.run/?sona_id=57038,"en-US,en;q=0.9",lch8lx4a6mhzf3l,21,"[""Black or African-American""]",No,Male,"Cape Verde, 15 years",No,586848,NA,3947,NA,"{""Q0"":""No"",""Q1"":""Male""}",NA,NA,NA,NA,NA,NA,NA,NA,NA,NA,NA,NA,NA,NA,NA,NA,NA,NA,NA,NA,NA,NA,"[0,1]"
NA,NA,NA,NA,NA,demo_countries,survey-text,97,562905,0.0-10.0,183,1,2025-05-05T16:09:06Z,b60275e29fe2361ab97ac0ac217840d7,"Mozilla/5.0 (Windows NT 10.0; Win64; x64) AppleWebKit/537.36 (KHTML, like Gecko) Chrome/135.0.0.0 Safari/537.36",WebKit,Chrome,135.0.0.0,Windows,10,https://5puzkbbxv1.cognition.run/?sona_id=57038,"en-US,en;q=0.9",lch8lx4a6mhzf3l,21,"[""Black or African-American""]",No,Male,"Cape Verde, 15 years",No,586848,NA,26074,NA,"{""Q0"":""Cape Verde, 15 years""}",NA,NA,NA,NA,NA,NA,NA,NA,NA,NA,NA,NA,NA,NA,NA,NA,NA,NA,NA,NA,NA,NA,NA
NA,NA,NA,NA,NA,demo_prev_study,survey-multi-choice,98,574625,0.0-11.0,183,1,2025-05-05T16:09:06Z,b60275e29fe2361ab97ac0ac217840d7,"Mozilla/5.0 (Windows NT 10.0; Win64; x64) AppleWebKit/537.36 (KHTML, like Gecko) Chrome/135.0.0.0 Safari/537.36",WebKit,Chrome,135.0.0.0,Windows,10,https://5puzkbbxv1.cognition.run/?sona_id=57038,"en-US,en;q=0.9",lch8lx4a6mhzf3l,21,"[""Black or African-American""]",No,Male,"Cape Verde, 15 years",No,586848,NA,11716,NA,"{""Q0"":""No""}",NA,NA,NA,NA,NA,NA,NA,NA,NA,NA,NA,NA,NA,NA,NA,NA,NA,NA,NA,NA,NA,NA,[0]
NA,NA,NA,NA,NA,post_survey_message,html-keyboard-response,99,581220,0.0-12.0,183,1,2025-05-05T16:09:06Z,b60275e29fe2361ab97ac0ac217840d7,"Mozilla/5.0 (Windows NT 10.0; Win64; x64) AppleWebKit/537.36 (KHTML, like Gecko) Chrome/135.0.0.0 Safari/537.36",WebKit,Chrome,135.0.0.0,Windows,10,https://5puzkbbxv1.cognition.run/?sona_id=57038,"en-US,en;q=0.9",lch8lx4a6mhzf3l,21,"[""Black or African-American""]",No,Male,"Cape Verde, 15 years",No,586848,NA,6588,NA,j,NA,NA,NA,NA,NA,NA,NA,NA,NA,NA,NA,NA,NA,NA,NA,NA,NA,NA,NA,NA,NA,NA,NA
NA,NA,NA,NA,NA,debrief,image-keyboard-response,100,586846,0.0-13.0,183,1,2025-05-05T16:09:06Z,b60275e29fe2361ab97ac0ac217840d7,"Mozilla/5.0 (Windows NT 10.0; Win64; x64) AppleWebKit/537.36 (KHTML, like Gecko) Chrome/135.0.0.0 Safari/537.36",WebKit,Chrome,135.0.0.0,Windows,10,https://5puzkbbxv1.cognition.run/?sona_id=57038,"en-US,en;q=0.9",lch8lx4a6mhzf3l,21,"[""Black or African-American""]",No,Male,"Cape Verde, 15 years",No,586848,NA,5615,Judg_choice_debrief.png,p,NA,NA,NA,NA,NA,NA,NA,NA,NA,NA,NA,NA,NA,NA,NA,NA,NA,NA,NA,NA,NA,NA,NA
