success,timeout,failed_images,failed_audio,failed_video,screen_id,trial_type,trial_index,time_elapsed,internal_node_id,run_id,condition,recorded_at,source_code_version,user_agent,device,browser,browser_version,platform,platform_version,referer,accept_language,ppt_id,age,race,ethnicity,gender,other_countries,prev_study,exp_duration,view_history,rt,stimulus,response,phase,order,set,effect,t_high,category,d1_best,d2_best,d1_worst1,d2_worst1,d1_worst2,d2_worst2,first_dim,d1_t,d1_c,d1_d,d2_t,d2_c,d2_d,d1_name,d2_name,strategy_response,question_order
TRUE,FALSE,[],[],[],img preload,preload,0,176,0.0-0.0,187,1,2025-05-05T17:45:53Z,b60275e29fe2361ab97ac0ac217840d7,"Mozilla/5.0 (Windows NT 10.0; Win64; x64) AppleWebKit/537.36 (KHTML, like Gecko) Chrome/135.0.0.0 Safari/537.36 Edg/135.0.0.0",WebKit,Edge,135.0.0.0,Windows,10,https://5puzkbbxv1.cognition.run/?sona_id=57875,"en-US,en;q=0.9",w9mpd4yj6pjppfl,18,"[""White""]",No,Female,NA,Yes,756456,NA,NA,NA,NA,NA,NA,NA,NA,NA,NA,NA,NA,NA,NA,NA,NA,NA,NA,NA,NA,NA,NA,NA,NA,NA,NA,NA
NA,NA,NA,NA,NA,computer_message,instructions,1,4499,0.0-1.0,187,1,2025-05-05T17:45:53Z,b60275e29fe2361ab97ac0ac217840d7,"Mozilla/5.0 (Windows NT 10.0; Win64; x64) AppleWebKit/537.36 (KHTML, like Gecko) Chrome/135.0.0.0 Safari/537.36 Edg/135.0.0.0",WebKit,Edge,135.0.0.0,Windows,10,https://5puzkbbxv1.cognition.run/?sona_id=57875,"en-US,en;q=0.9",w9mpd4yj6pjppfl,18,"[""White""]",No,Female,NA,Yes,756456,"[{""page_index"":0,""viewing_time"":4322}]",4322,NA,NA,NA,NA,NA,NA,NA,NA,NA,NA,NA,NA,NA,NA,NA,NA,NA,NA,NA,NA,NA,NA,NA,NA,NA
TRUE,NA,NA,NA,NA,NA,fullscreen,2,8198,0.0-2.0,187,1,2025-05-05T17:45:53Z,b60275e29fe2361ab97ac0ac217840d7,"Mozilla/5.0 (Windows NT 10.0; Win64; x64) AppleWebKit/537.36 (KHTML, like Gecko) Chrome/135.0.0.0 Safari/537.36 Edg/135.0.0.0",WebKit,Edge,135.0.0.0,Windows,10,https://5puzkbbxv1.cognition.run/?sona_id=57875,"en-US,en;q=0.9",w9mpd4yj6pjppfl,18,"[""White""]",No,Female,NA,Yes,756456,NA,2685,NA,NA,NA,NA,NA,NA,NA,NA,NA,NA,NA,NA,NA,NA,NA,NA,NA,NA,NA,NA,NA,NA,NA,NA,NA
NA,NA,NA,NA,NA,choice_instructions,instructions,3,54875,0.0-3.0,187,1,2025-05-05T17:45:53Z,b60275e29fe2361ab97ac0ac217840d7,"Mozilla/5.0 (Windows NT 10.0; Win64; x64) AppleWebKit/537.36 (KHTML, like Gecko) Chrome/135.0.0.0 Safari/537.36 Edg/135.0.0.0",WebKit,Edge,135.0.0.0,Windows,10,https://5puzkbbxv1.cognition.run/?sona_id=57875,"en-US,en;q=0.9",w9mpd4yj6pjppfl,18,"[""White""]",No,Female,NA,Yes,756456,"[{""page_index"":0,""viewing_time"":1348},{""page_index"":1,""viewing_time"":3743},{""page_index"":2,""viewing_time"":7404},{""page_index"":3,""viewing_time"":7222},{""page_index"":4,""viewing_time"":3369},{""page_index"":5,""viewing_time"":14667},{""page_index"":6,""viewing_time"":8924}]",46676,NA,NA,NA,NA,NA,NA,NA,NA,NA,NA,NA,NA,NA,NA,NA,NA,NA,NA,NA,NA,NA,NA,NA,NA,NA
NA,NA,NA,NA,NA,choice_trial_setup,html-keyboard-response,4,55178,0.0-4.0-0.0,187,1,2025-05-05T17:45:53Z,b60275e29fe2361ab97ac0ac217840d7,"Mozilla/5.0 (Windows NT 10.0; Win64; x64) AppleWebKit/537.36 (KHTML, like Gecko) Chrome/135.0.0.0 Safari/537.36 Edg/135.0.0.0",WebKit,Edge,135.0.0.0,Windows,10,https://5puzkbbxv1.cognition.run/?sona_id=57875,"en-US,en;q=0.9",w9mpd4yj6pjppfl,18,"[""White""]",No,Female,NA,Yes,756456,NA,null,<p></p>,null,choice,ct,binary,repulsion,1,televisions,null,null,null,null,null,null,1,NA,NA,NA,NA,NA,NA,NA,NA,NA,NA
NA,NA,NA,NA,NA,choice_trial,survey-html-form,5,65430,0.0-4.0-1.0,187,1,2025-05-05T17:45:53Z,b60275e29fe2361ab97ac0ac217840d7,"Mozilla/5.0 (Windows NT 10.0; Win64; x64) AppleWebKit/537.36 (KHTML, like Gecko) Chrome/135.0.0.0 Safari/537.36 Edg/135.0.0.0",WebKit,Edge,135.0.0.0,Windows,10,https://5puzkbbxv1.cognition.run/?sona_id=57875,"en-US,en;q=0.9",w9mpd4yj6pjppfl,18,"[""White""]",No,Female,NA,Yes,756456,NA,10248,NA,"{""product_choice"":""A""}",choice,ct,binary,repulsion,1,televisions,null,null,null,null,null,null,1,100,90,null,30,40,null,Screen size,Average lifespan,NA,NA
NA,NA,NA,NA,NA,choice_trial_setup,html-keyboard-response,6,65732,0.0-4.0-0.1,187,1,2025-05-05T17:45:53Z,b60275e29fe2361ab97ac0ac217840d7,"Mozilla/5.0 (Windows NT 10.0; Win64; x64) AppleWebKit/537.36 (KHTML, like Gecko) Chrome/135.0.0.0 Safari/537.36 Edg/135.0.0.0",WebKit,Edge,135.0.0.0,Windows,10,https://5puzkbbxv1.cognition.run/?sona_id=57875,"en-US,en;q=0.9",w9mpd4yj6pjppfl,18,"[""White""]",No,Female,NA,Yes,756456,NA,null,<p></p>,null,choice,tc,binary,attraction,NA,laptops,null,null,null,null,null,null,2,NA,NA,NA,NA,NA,NA,NA,NA,NA,NA
NA,NA,NA,NA,NA,choice_trial,survey-html-form,7,76328,0.0-4.0-1.1,187,1,2025-05-05T17:45:53Z,b60275e29fe2361ab97ac0ac217840d7,"Mozilla/5.0 (Windows NT 10.0; Win64; x64) AppleWebKit/537.36 (KHTML, like Gecko) Chrome/135.0.0.0 Safari/537.36 Edg/135.0.0.0",WebKit,Edge,135.0.0.0,Windows,10,https://5puzkbbxv1.cognition.run/?sona_id=57875,"en-US,en;q=0.9",w9mpd4yj6pjppfl,18,"[""White""]",No,Female,NA,Yes,756456,NA,10594,NA,"{""product_choice"":""A""}",choice,tc,binary,attraction,NA,laptops,null,null,null,null,null,null,2,60,50,null,50,60,null,Processing speed,Memory (RAM),NA,NA
NA,NA,NA,NA,NA,choice_trial_setup,html-keyboard-response,8,76630,0.0-4.0-0.2,187,1,2025-05-05T17:45:53Z,b60275e29fe2361ab97ac0ac217840d7,"Mozilla/5.0 (Windows NT 10.0; Win64; x64) AppleWebKit/537.36 (KHTML, like Gecko) Chrome/135.0.0.0 Safari/537.36 Edg/135.0.0.0",WebKit,Edge,135.0.0.0,Windows,10,https://5puzkbbxv1.cognition.run/?sona_id=57875,"en-US,en;q=0.9",w9mpd4yj6pjppfl,18,"[""White""]",No,Female,NA,Yes,756456,NA,null,<p></p>,null,choice,ct,binary,repulsion,1,washing machines,null,null,null,null,null,null,1,NA,NA,NA,NA,NA,NA,NA,NA,NA,NA
NA,NA,NA,NA,NA,choice_trial,survey-html-form,9,83156,0.0-4.0-1.2,187,1,2025-05-05T17:45:53Z,b60275e29fe2361ab97ac0ac217840d7,"Mozilla/5.0 (Windows NT 10.0; Win64; x64) AppleWebKit/537.36 (KHTML, like Gecko) Chrome/135.0.0.0 Safari/537.36 Edg/135.0.0.0",WebKit,Edge,135.0.0.0,Windows,10,https://5puzkbbxv1.cognition.run/?sona_id=57875,"en-US,en;q=0.9",w9mpd4yj6pjppfl,18,"[""White""]",No,Female,NA,Yes,756456,NA,6524,NA,"{""product_choice"":""A""}",choice,ct,binary,repulsion,1,washing machines,null,null,null,null,null,null,1,100,90,null,30,40,null,Average lifespan,Energy savings,NA,NA
NA,NA,NA,NA,NA,choice_trial_setup,html-keyboard-response,10,83457,0.0-4.0-0.3,187,1,2025-05-05T17:45:53Z,b60275e29fe2361ab97ac0ac217840d7,"Mozilla/5.0 (Windows NT 10.0; Win64; x64) AppleWebKit/537.36 (KHTML, like Gecko) Chrome/135.0.0.0 Safari/537.36 Edg/135.0.0.0",WebKit,Edge,135.0.0.0,Windows,10,https://5puzkbbxv1.cognition.run/?sona_id=57875,"en-US,en;q=0.9",w9mpd4yj6pjppfl,18,"[""White""]",No,Female,NA,Yes,756456,NA,null,<p></p>,null,choice,dtc,trinary,attraction,2,microwave ovens,null,null,null,null,null,null,2,NA,NA,NA,NA,NA,NA,NA,NA,NA,NA
NA,NA,NA,NA,NA,choice_trial,survey-html-form,11,95102,0.0-4.0-1.3,187,1,2025-05-05T17:45:53Z,b60275e29fe2361ab97ac0ac217840d7,"Mozilla/5.0 (Windows NT 10.0; Win64; x64) AppleWebKit/537.36 (KHTML, like Gecko) Chrome/135.0.0.0 Safari/537.36 Edg/135.0.0.0",WebKit,Edge,135.0.0.0,Windows,10,https://5puzkbbxv1.cognition.run/?sona_id=57875,"en-US,en;q=0.9",w9mpd4yj6pjppfl,18,"[""White""]",No,Female,NA,Yes,756456,NA,11642,NA,"{""product_choice"":""B""}",choice,dtc,trinary,attraction,2,microwave ovens,null,null,null,null,null,null,2,50,60,40,60,50,60,Warranty,Cooking power,NA,NA
NA,NA,NA,NA,NA,choice_trial_setup,html-keyboard-response,12,95418,0.0-4.0-0.4,187,1,2025-05-05T17:45:53Z,b60275e29fe2361ab97ac0ac217840d7,"Mozilla/5.0 (Windows NT 10.0; Win64; x64) AppleWebKit/537.36 (KHTML, like Gecko) Chrome/135.0.0.0 Safari/537.36 Edg/135.0.0.0",WebKit,Edge,135.0.0.0,Windows,10,https://5puzkbbxv1.cognition.run/?sona_id=57875,"en-US,en;q=0.9",w9mpd4yj6pjppfl,18,"[""White""]",No,Female,NA,Yes,756456,NA,null,<p></p>,null,choice,tdc,trinary,repulsion_A,1,microwave ovens,null,null,null,null,null,null,2,NA,NA,NA,NA,NA,NA,NA,NA,NA,NA
NA,NA,NA,NA,NA,choice_trial,survey-html-form,13,119747,0.0-4.0-1.4,187,1,2025-05-05T17:45:53Z,b60275e29fe2361ab97ac0ac217840d7,"Mozilla/5.0 (Windows NT 10.0; Win64; x64) AppleWebKit/537.36 (KHTML, like Gecko) Chrome/135.0.0.0 Safari/537.36 Edg/135.0.0.0",WebKit,Edge,135.0.0.0,Windows,10,https://5puzkbbxv1.cognition.run/?sona_id=57875,"en-US,en;q=0.9",w9mpd4yj6pjppfl,18,"[""White""]",No,Female,NA,Yes,756456,NA,24326,NA,"{""product_choice"":""C""}",choice,tdc,trinary,repulsion_A,1,microwave ovens,null,null,null,null,null,null,2,100,90,100,30,40,20,Warranty,Cooking power,NA,NA
NA,NA,NA,NA,NA,choice_trial_setup,html-keyboard-response,14,120054,0.0-4.0-0.5,187,1,2025-05-05T17:45:53Z,b60275e29fe2361ab97ac0ac217840d7,"Mozilla/5.0 (Windows NT 10.0; Win64; x64) AppleWebKit/537.36 (KHTML, like Gecko) Chrome/135.0.0.0 Safari/537.36 Edg/135.0.0.0",WebKit,Edge,135.0.0.0,Windows,10,https://5puzkbbxv1.cognition.run/?sona_id=57875,"en-US,en;q=0.9",w9mpd4yj6pjppfl,18,"[""White""]",No,Female,NA,Yes,756456,NA,null,<p></p>,null,choice,tc,binary,attraction,NA,washing machines,null,null,null,null,null,null,1,NA,NA,NA,NA,NA,NA,NA,NA,NA,NA
NA,NA,NA,NA,NA,choice_trial,survey-html-form,15,126774,0.0-4.0-1.5,187,1,2025-05-05T17:45:53Z,b60275e29fe2361ab97ac0ac217840d7,"Mozilla/5.0 (Windows NT 10.0; Win64; x64) AppleWebKit/537.36 (KHTML, like Gecko) Chrome/135.0.0.0 Safari/537.36 Edg/135.0.0.0",WebKit,Edge,135.0.0.0,Windows,10,https://5puzkbbxv1.cognition.run/?sona_id=57875,"en-US,en;q=0.9",w9mpd4yj6pjppfl,18,"[""White""]",No,Female,NA,Yes,756456,NA,6718,NA,"{""product_choice"":""B""}",choice,tc,binary,attraction,NA,washing machines,null,null,null,null,null,null,1,60,50,null,50,60,null,Average lifespan,Energy savings,NA,NA
NA,NA,NA,NA,NA,choice_trial_setup,html-keyboard-response,16,127078,0.0-4.0-0.6,187,1,2025-05-05T17:45:53Z,b60275e29fe2361ab97ac0ac217840d7,"Mozilla/5.0 (Windows NT 10.0; Win64; x64) AppleWebKit/537.36 (KHTML, like Gecko) Chrome/135.0.0.0 Safari/537.36 Edg/135.0.0.0",WebKit,Edge,135.0.0.0,Windows,10,https://5puzkbbxv1.cognition.run/?sona_id=57875,"en-US,en;q=0.9",w9mpd4yj6pjppfl,18,"[""White""]",No,Female,NA,Yes,756456,NA,null,<p></p>,null,choice,cdt,trinary,repulsion_A,2,washing machines,null,null,null,null,null,null,2,NA,NA,NA,NA,NA,NA,NA,NA,NA,NA
NA,NA,NA,NA,NA,choice_trial,survey-html-form,17,182719,0.0-4.0-1.6,187,1,2025-05-05T17:45:53Z,b60275e29fe2361ab97ac0ac217840d7,"Mozilla/5.0 (Windows NT 10.0; Win64; x64) AppleWebKit/537.36 (KHTML, like Gecko) Chrome/135.0.0.0 Safari/537.36 Edg/135.0.0.0",WebKit,Edge,135.0.0.0,Windows,10,https://5puzkbbxv1.cognition.run/?sona_id=57875,"en-US,en;q=0.9",w9mpd4yj6pjppfl,18,"[""White""]",No,Female,NA,Yes,756456,NA,55638,NA,"{""product_choice"":""A""}",choice,cdt,trinary,repulsion_A,2,washing machines,null,null,null,null,null,null,2,30,40,20,100,90,100,Average lifespan,Energy savings,NA,NA
NA,NA,NA,NA,NA,choice_trial_setup,html-keyboard-response,18,183022,0.0-4.0-0.7,187,1,2025-05-05T17:45:53Z,b60275e29fe2361ab97ac0ac217840d7,"Mozilla/5.0 (Windows NT 10.0; Win64; x64) AppleWebKit/537.36 (KHTML, like Gecko) Chrome/135.0.0.0 Safari/537.36 Edg/135.0.0.0",WebKit,Edge,135.0.0.0,Windows,10,https://5puzkbbxv1.cognition.run/?sona_id=57875,"en-US,en;q=0.9",w9mpd4yj6pjppfl,18,"[""White""]",No,Female,NA,Yes,756456,NA,null,<p></p>,null,choice,bw,binary,catch,null,microwave ovens,50,70,50,35,null,null,1,NA,NA,NA,NA,NA,NA,NA,NA,NA,NA
NA,NA,NA,NA,NA,choice_trial,survey-html-form,19,188387,0.0-4.0-1.7,187,1,2025-05-05T17:45:53Z,b60275e29fe2361ab97ac0ac217840d7,"Mozilla/5.0 (Windows NT 10.0; Win64; x64) AppleWebKit/537.36 (KHTML, like Gecko) Chrome/135.0.0.0 Safari/537.36 Edg/135.0.0.0",WebKit,Edge,135.0.0.0,Windows,10,https://5puzkbbxv1.cognition.run/?sona_id=57875,"en-US,en;q=0.9",w9mpd4yj6pjppfl,18,"[""White""]",No,Female,NA,Yes,756456,NA,5363,NA,"{""product_choice"":""A""}",choice,bw,binary,catch,null,microwave ovens,50,70,50,35,null,null,1,null,null,null,null,null,null,Warranty,Cooking power,NA,NA
NA,NA,NA,NA,NA,choice_trial_setup,html-keyboard-response,20,188698,0.0-4.0-0.8,187,1,2025-05-05T17:45:53Z,b60275e29fe2361ab97ac0ac217840d7,"Mozilla/5.0 (Windows NT 10.0; Win64; x64) AppleWebKit/537.36 (KHTML, like Gecko) Chrome/135.0.0.0 Safari/537.36 Edg/135.0.0.0",WebKit,Edge,135.0.0.0,Windows,10,https://5puzkbbxv1.cognition.run/?sona_id=57875,"en-US,en;q=0.9",w9mpd4yj6pjppfl,18,"[""White""]",No,Female,NA,Yes,756456,NA,null,<p></p>,null,choice,ct,binary,repulsion,2,laptops,null,null,null,null,null,null,2,NA,NA,NA,NA,NA,NA,NA,NA,NA,NA
NA,NA,NA,NA,NA,choice_trial,survey-html-form,21,192916,0.0-4.0-1.8,187,1,2025-05-05T17:45:53Z,b60275e29fe2361ab97ac0ac217840d7,"Mozilla/5.0 (Windows NT 10.0; Win64; x64) AppleWebKit/537.36 (KHTML, like Gecko) Chrome/135.0.0.0 Safari/537.36 Edg/135.0.0.0",WebKit,Edge,135.0.0.0,Windows,10,https://5puzkbbxv1.cognition.run/?sona_id=57875,"en-US,en;q=0.9",w9mpd4yj6pjppfl,18,"[""White""]",No,Female,NA,Yes,756456,NA,4215,NA,"{""product_choice"":""A""}",choice,ct,binary,repulsion,2,laptops,null,null,null,null,null,null,2,30,40,null,100,90,null,Processing speed,Memory (RAM),NA,NA
NA,NA,NA,NA,NA,choice_trial_setup,html-keyboard-response,22,193226,0.0-4.0-0.9,187,1,2025-05-05T17:45:53Z,b60275e29fe2361ab97ac0ac217840d7,"Mozilla/5.0 (Windows NT 10.0; Win64; x64) AppleWebKit/537.36 (KHTML, like Gecko) Chrome/135.0.0.0 Safari/537.36 Edg/135.0.0.0",WebKit,Edge,135.0.0.0,Windows,10,https://5puzkbbxv1.cognition.run/?sona_id=57875,"en-US,en;q=0.9",w9mpd4yj6pjppfl,18,"[""White""]",No,Female,NA,Yes,756456,NA,null,<p></p>,null,choice,wbw,trinary,catch,null,televisions,95,60,5,40,5,35,1,NA,NA,NA,NA,NA,NA,NA,NA,NA,NA
NA,NA,NA,NA,NA,choice_trial,survey-html-form,23,201291,0.0-4.0-1.9,187,1,2025-05-05T17:45:53Z,b60275e29fe2361ab97ac0ac217840d7,"Mozilla/5.0 (Windows NT 10.0; Win64; x64) AppleWebKit/537.36 (KHTML, like Gecko) Chrome/135.0.0.0 Safari/537.36 Edg/135.0.0.0",WebKit,Edge,135.0.0.0,Windows,10,https://5puzkbbxv1.cognition.run/?sona_id=57875,"en-US,en;q=0.9",w9mpd4yj6pjppfl,18,"[""White""]",No,Female,NA,Yes,756456,NA,8061,NA,"{""product_choice"":""B""}",choice,wbw,trinary,catch,null,televisions,95,60,5,40,5,35,1,null,null,null,null,null,null,Screen size,Average lifespan,NA,NA
NA,NA,NA,NA,NA,choice_trial_setup,html-keyboard-response,24,201602,0.0-4.0-0.10,187,1,2025-05-05T17:45:53Z,b60275e29fe2361ab97ac0ac217840d7,"Mozilla/5.0 (Windows NT 10.0; Win64; x64) AppleWebKit/537.36 (KHTML, like Gecko) Chrome/135.0.0.0 Safari/537.36 Edg/135.0.0.0",WebKit,Edge,135.0.0.0,Windows,10,https://5puzkbbxv1.cognition.run/?sona_id=57875,"en-US,en;q=0.9",w9mpd4yj6pjppfl,18,"[""White""]",No,Female,NA,Yes,756456,NA,null,<p></p>,null,choice,wb,binary,catch,null,laptops,50,50,50,25,null,null,1,NA,NA,NA,NA,NA,NA,NA,NA,NA,NA
NA,NA,NA,NA,NA,choice_trial,survey-html-form,25,207717,0.0-4.0-1.10,187,1,2025-05-05T17:45:53Z,b60275e29fe2361ab97ac0ac217840d7,"Mozilla/5.0 (Windows NT 10.0; Win64; x64) AppleWebKit/537.36 (KHTML, like Gecko) Chrome/135.0.0.0 Safari/537.36 Edg/135.0.0.0",WebKit,Edge,135.0.0.0,Windows,10,https://5puzkbbxv1.cognition.run/?sona_id=57875,"en-US,en;q=0.9",w9mpd4yj6pjppfl,18,"[""White""]",No,Female,NA,Yes,756456,NA,6113,NA,"{""product_choice"":""B""}",choice,wb,binary,catch,null,laptops,50,50,50,25,null,null,1,null,null,null,null,null,null,Processing speed,Memory (RAM),NA,NA
NA,NA,NA,NA,NA,choice_trial_setup,html-keyboard-response,26,208035,0.0-4.0-0.11,187,1,2025-05-05T17:45:53Z,b60275e29fe2361ab97ac0ac217840d7,"Mozilla/5.0 (Windows NT 10.0; Win64; x64) AppleWebKit/537.36 (KHTML, like Gecko) Chrome/135.0.0.0 Safari/537.36 Edg/135.0.0.0",WebKit,Edge,135.0.0.0,Windows,10,https://5puzkbbxv1.cognition.run/?sona_id=57875,"en-US,en;q=0.9",w9mpd4yj6pjppfl,18,"[""White""]",No,Female,NA,Yes,756456,NA,null,<p></p>,null,choice,tdc,trinary,repulsion_A,2,televisions,null,null,null,null,null,null,2,NA,NA,NA,NA,NA,NA,NA,NA,NA,NA
NA,NA,NA,NA,NA,choice_trial,survey-html-form,27,212859,0.0-4.0-1.11,187,1,2025-05-05T17:45:53Z,b60275e29fe2361ab97ac0ac217840d7,"Mozilla/5.0 (Windows NT 10.0; Win64; x64) AppleWebKit/537.36 (KHTML, like Gecko) Chrome/135.0.0.0 Safari/537.36 Edg/135.0.0.0",WebKit,Edge,135.0.0.0,Windows,10,https://5puzkbbxv1.cognition.run/?sona_id=57875,"en-US,en;q=0.9",w9mpd4yj6pjppfl,18,"[""White""]",No,Female,NA,Yes,756456,NA,4821,NA,"{""product_choice"":""C""}",choice,tdc,trinary,repulsion_A,2,televisions,null,null,null,null,null,null,2,30,40,20,100,90,100,Screen size,Average lifespan,NA,NA
NA,NA,NA,NA,NA,choice_trial_setup,html-keyboard-response,28,213165,0.0-4.0-0.12,187,1,2025-05-05T17:45:53Z,b60275e29fe2361ab97ac0ac217840d7,"Mozilla/5.0 (Windows NT 10.0; Win64; x64) AppleWebKit/537.36 (KHTML, like Gecko) Chrome/135.0.0.0 Safari/537.36 Edg/135.0.0.0",WebKit,Edge,135.0.0.0,Windows,10,https://5puzkbbxv1.cognition.run/?sona_id=57875,"en-US,en;q=0.9",w9mpd4yj6pjppfl,18,"[""White""]",No,Female,NA,Yes,756456,NA,null,<p></p>,null,choice,dct,trinary,repulsion_A,1,laptops,null,null,null,null,null,null,1,NA,NA,NA,NA,NA,NA,NA,NA,NA,NA
NA,NA,NA,NA,NA,choice_trial,survey-html-form,29,218687,0.0-4.0-1.12,187,1,2025-05-05T17:45:53Z,b60275e29fe2361ab97ac0ac217840d7,"Mozilla/5.0 (Windows NT 10.0; Win64; x64) AppleWebKit/537.36 (KHTML, like Gecko) Chrome/135.0.0.0 Safari/537.36 Edg/135.0.0.0",WebKit,Edge,135.0.0.0,Windows,10,https://5puzkbbxv1.cognition.run/?sona_id=57875,"en-US,en;q=0.9",w9mpd4yj6pjppfl,18,"[""White""]",No,Female,NA,Yes,756456,NA,5520,NA,"{""product_choice"":""B""}",choice,dct,trinary,repulsion_A,1,laptops,null,null,null,null,null,null,1,100,90,100,30,40,20,Processing speed,Memory (RAM),NA,NA
NA,NA,NA,NA,NA,choice_trial_setup,html-keyboard-response,30,218993,0.0-4.0-0.13,187,1,2025-05-05T17:45:53Z,b60275e29fe2361ab97ac0ac217840d7,"Mozilla/5.0 (Windows NT 10.0; Win64; x64) AppleWebKit/537.36 (KHTML, like Gecko) Chrome/135.0.0.0 Safari/537.36 Edg/135.0.0.0",WebKit,Edge,135.0.0.0,Windows,10,https://5puzkbbxv1.cognition.run/?sona_id=57875,"en-US,en;q=0.9",w9mpd4yj6pjppfl,18,"[""White""]",No,Female,NA,Yes,756456,NA,null,<p></p>,null,choice,dct,trinary,attraction,2,televisions,null,null,null,null,null,null,2,NA,NA,NA,NA,NA,NA,NA,NA,NA,NA
NA,NA,NA,NA,NA,choice_trial,survey-html-form,31,228511,0.0-4.0-1.13,187,1,2025-05-05T17:45:53Z,b60275e29fe2361ab97ac0ac217840d7,"Mozilla/5.0 (Windows NT 10.0; Win64; x64) AppleWebKit/537.36 (KHTML, like Gecko) Chrome/135.0.0.0 Safari/537.36 Edg/135.0.0.0",WebKit,Edge,135.0.0.0,Windows,10,https://5puzkbbxv1.cognition.run/?sona_id=57875,"en-US,en;q=0.9",w9mpd4yj6pjppfl,18,"[""White""]",No,Female,NA,Yes,756456,NA,9515,NA,"{""product_choice"":""C""}",choice,dct,trinary,attraction,2,televisions,null,null,null,null,null,null,2,50,60,40,60,50,60,Screen size,Average lifespan,NA,NA
NA,NA,NA,NA,NA,choice_trial_setup,html-keyboard-response,32,228817,0.0-4.0-0.14,187,1,2025-05-05T17:45:53Z,b60275e29fe2361ab97ac0ac217840d7,"Mozilla/5.0 (Windows NT 10.0; Win64; x64) AppleWebKit/537.36 (KHTML, like Gecko) Chrome/135.0.0.0 Safari/537.36 Edg/135.0.0.0",WebKit,Edge,135.0.0.0,Windows,10,https://5puzkbbxv1.cognition.run/?sona_id=57875,"en-US,en;q=0.9",w9mpd4yj6pjppfl,18,"[""White""]",No,Female,NA,Yes,756456,NA,null,<p></p>,null,choice,tdc,trinary,repulsion_A,1,televisions,null,null,null,null,null,null,1,NA,NA,NA,NA,NA,NA,NA,NA,NA,NA
NA,NA,NA,NA,NA,choice_trial,survey-html-form,33,235569,0.0-4.0-1.14,187,1,2025-05-05T17:45:53Z,b60275e29fe2361ab97ac0ac217840d7,"Mozilla/5.0 (Windows NT 10.0; Win64; x64) AppleWebKit/537.36 (KHTML, like Gecko) Chrome/135.0.0.0 Safari/537.36 Edg/135.0.0.0",WebKit,Edge,135.0.0.0,Windows,10,https://5puzkbbxv1.cognition.run/?sona_id=57875,"en-US,en;q=0.9",w9mpd4yj6pjppfl,18,"[""White""]",No,Female,NA,Yes,756456,NA,6750,NA,"{""product_choice"":""C""}",choice,tdc,trinary,repulsion_A,1,televisions,null,null,null,null,null,null,1,100,90,100,30,40,20,Screen size,Average lifespan,NA,NA
NA,NA,NA,NA,NA,choice_trial_setup,html-keyboard-response,34,235873,0.0-4.0-0.15,187,1,2025-05-05T17:45:53Z,b60275e29fe2361ab97ac0ac217840d7,"Mozilla/5.0 (Windows NT 10.0; Win64; x64) AppleWebKit/537.36 (KHTML, like Gecko) Chrome/135.0.0.0 Safari/537.36 Edg/135.0.0.0",WebKit,Edge,135.0.0.0,Windows,10,https://5puzkbbxv1.cognition.run/?sona_id=57875,"en-US,en;q=0.9",w9mpd4yj6pjppfl,18,"[""White""]",No,Female,NA,Yes,756456,NA,null,<p></p>,null,choice,dct,trinary,repulsion_A,1,washing machines,null,null,null,null,null,null,2,NA,NA,NA,NA,NA,NA,NA,NA,NA,NA
NA,NA,NA,NA,NA,choice_trial,survey-html-form,35,240217,0.0-4.0-1.15,187,1,2025-05-05T17:45:53Z,b60275e29fe2361ab97ac0ac217840d7,"Mozilla/5.0 (Windows NT 10.0; Win64; x64) AppleWebKit/537.36 (KHTML, like Gecko) Chrome/135.0.0.0 Safari/537.36 Edg/135.0.0.0",WebKit,Edge,135.0.0.0,Windows,10,https://5puzkbbxv1.cognition.run/?sona_id=57875,"en-US,en;q=0.9",w9mpd4yj6pjppfl,18,"[""White""]",No,Female,NA,Yes,756456,NA,4341,NA,"{""product_choice"":""B""}",choice,dct,trinary,repulsion_A,1,washing machines,null,null,null,null,null,null,2,100,90,100,30,40,20,Average lifespan,Energy savings,NA,NA
NA,NA,NA,NA,NA,choice_trial_setup,html-keyboard-response,36,240532,0.0-4.0-0.16,187,1,2025-05-05T17:45:53Z,b60275e29fe2361ab97ac0ac217840d7,"Mozilla/5.0 (Windows NT 10.0; Win64; x64) AppleWebKit/537.36 (KHTML, like Gecko) Chrome/135.0.0.0 Safari/537.36 Edg/135.0.0.0",WebKit,Edge,135.0.0.0,Windows,10,https://5puzkbbxv1.cognition.run/?sona_id=57875,"en-US,en;q=0.9",w9mpd4yj6pjppfl,18,"[""White""]",No,Female,NA,Yes,756456,NA,null,<p></p>,null,choice,cdt,trinary,attraction,2,washing machines,null,null,null,null,null,null,1,NA,NA,NA,NA,NA,NA,NA,NA,NA,NA
NA,NA,NA,NA,NA,choice_trial,survey-html-form,37,383195,0.0-4.0-1.16,187,1,2025-05-05T17:45:53Z,b60275e29fe2361ab97ac0ac217840d7,"Mozilla/5.0 (Windows NT 10.0; Win64; x64) AppleWebKit/537.36 (KHTML, like Gecko) Chrome/135.0.0.0 Safari/537.36 Edg/135.0.0.0",WebKit,Edge,135.0.0.0,Windows,10,https://5puzkbbxv1.cognition.run/?sona_id=57875,"en-US,en;q=0.9",w9mpd4yj6pjppfl,18,"[""White""]",No,Female,NA,Yes,756456,NA,142659,NA,"{""product_choice"":""C""}",choice,cdt,trinary,attraction,2,washing machines,null,null,null,null,null,null,1,50,60,40,60,50,60,Average lifespan,Energy savings,NA,NA
NA,NA,NA,NA,NA,choice_trial_setup,html-keyboard-response,38,383505,0.0-4.0-0.17,187,1,2025-05-05T17:45:53Z,b60275e29fe2361ab97ac0ac217840d7,"Mozilla/5.0 (Windows NT 10.0; Win64; x64) AppleWebKit/537.36 (KHTML, like Gecko) Chrome/135.0.0.0 Safari/537.36 Edg/135.0.0.0",WebKit,Edge,135.0.0.0,Windows,10,https://5puzkbbxv1.cognition.run/?sona_id=57875,"en-US,en;q=0.9",w9mpd4yj6pjppfl,18,"[""White""]",No,Female,NA,Yes,756456,NA,null,<p></p>,null,choice,tcd,trinary,repulsion_B,1,televisions,null,null,null,null,null,null,1,NA,NA,NA,NA,NA,NA,NA,NA,NA,NA
NA,NA,NA,NA,NA,choice_trial,survey-html-form,39,390648,0.0-4.0-1.17,187,1,2025-05-05T17:45:53Z,b60275e29fe2361ab97ac0ac217840d7,"Mozilla/5.0 (Windows NT 10.0; Win64; x64) AppleWebKit/537.36 (KHTML, like Gecko) Chrome/135.0.0.0 Safari/537.36 Edg/135.0.0.0",WebKit,Edge,135.0.0.0,Windows,10,https://5puzkbbxv1.cognition.run/?sona_id=57875,"en-US,en;q=0.9",w9mpd4yj6pjppfl,18,"[""White""]",No,Female,NA,Yes,756456,NA,7140,NA,"{""product_choice"":""A""}",choice,tcd,trinary,repulsion_B,1,televisions,null,null,null,null,null,null,1,90,100,80,40,30,40,Screen size,Average lifespan,NA,NA
NA,NA,NA,NA,NA,choice_trial_setup,html-keyboard-response,40,390963,0.0-4.0-0.18,187,1,2025-05-05T17:45:53Z,b60275e29fe2361ab97ac0ac217840d7,"Mozilla/5.0 (Windows NT 10.0; Win64; x64) AppleWebKit/537.36 (KHTML, like Gecko) Chrome/135.0.0.0 Safari/537.36 Edg/135.0.0.0",WebKit,Edge,135.0.0.0,Windows,10,https://5puzkbbxv1.cognition.run/?sona_id=57875,"en-US,en;q=0.9",w9mpd4yj6pjppfl,18,"[""White""]",No,Female,NA,Yes,756456,NA,null,<p></p>,null,choice,ct,binary,repulsion,2,televisions,null,null,null,null,null,null,1,NA,NA,NA,NA,NA,NA,NA,NA,NA,NA
NA,NA,NA,NA,NA,choice_trial,survey-html-form,41,398783,0.0-4.0-1.18,187,1,2025-05-05T17:45:53Z,b60275e29fe2361ab97ac0ac217840d7,"Mozilla/5.0 (Windows NT 10.0; Win64; x64) AppleWebKit/537.36 (KHTML, like Gecko) Chrome/135.0.0.0 Safari/537.36 Edg/135.0.0.0",WebKit,Edge,135.0.0.0,Windows,10,https://5puzkbbxv1.cognition.run/?sona_id=57875,"en-US,en;q=0.9",w9mpd4yj6pjppfl,18,"[""White""]",No,Female,NA,Yes,756456,NA,7817,NA,"{""product_choice"":""A""}",choice,ct,binary,repulsion,2,televisions,null,null,null,null,null,null,1,30,40,null,100,90,null,Screen size,Average lifespan,NA,NA
NA,NA,NA,NA,NA,choice_trial_setup,html-keyboard-response,42,399095,0.0-4.0-0.19,187,1,2025-05-05T17:45:53Z,b60275e29fe2361ab97ac0ac217840d7,"Mozilla/5.0 (Windows NT 10.0; Win64; x64) AppleWebKit/537.36 (KHTML, like Gecko) Chrome/135.0.0.0 Safari/537.36 Edg/135.0.0.0",WebKit,Edge,135.0.0.0,Windows,10,https://5puzkbbxv1.cognition.run/?sona_id=57875,"en-US,en;q=0.9",w9mpd4yj6pjppfl,18,"[""White""]",No,Female,NA,Yes,756456,NA,null,<p></p>,null,choice,wb,binary,catch,null,televisions,85,95,25,30,null,null,2,NA,NA,NA,NA,NA,NA,NA,NA,NA,NA
NA,NA,NA,NA,NA,choice_trial,survey-html-form,43,412739,0.0-4.0-1.19,187,1,2025-05-05T17:45:53Z,b60275e29fe2361ab97ac0ac217840d7,"Mozilla/5.0 (Windows NT 10.0; Win64; x64) AppleWebKit/537.36 (KHTML, like Gecko) Chrome/135.0.0.0 Safari/537.36 Edg/135.0.0.0",WebKit,Edge,135.0.0.0,Windows,10,https://5puzkbbxv1.cognition.run/?sona_id=57875,"en-US,en;q=0.9",w9mpd4yj6pjppfl,18,"[""White""]",No,Female,NA,Yes,756456,NA,13640,NA,"{""product_choice"":""B""}",choice,wb,binary,catch,null,televisions,85,95,25,30,null,null,2,null,null,null,null,null,null,Screen size,Average lifespan,NA,NA
NA,NA,NA,NA,NA,choice_trial_setup,html-keyboard-response,44,413044,0.0-4.0-0.20,187,1,2025-05-05T17:45:53Z,b60275e29fe2361ab97ac0ac217840d7,"Mozilla/5.0 (Windows NT 10.0; Win64; x64) AppleWebKit/537.36 (KHTML, like Gecko) Chrome/135.0.0.0 Safari/537.36 Edg/135.0.0.0",WebKit,Edge,135.0.0.0,Windows,10,https://5puzkbbxv1.cognition.run/?sona_id=57875,"en-US,en;q=0.9",w9mpd4yj6pjppfl,18,"[""White""]",No,Female,NA,Yes,756456,NA,null,<p></p>,null,choice,tc,binary,repulsion,2,microwave ovens,null,null,null,null,null,null,2,NA,NA,NA,NA,NA,NA,NA,NA,NA,NA
NA,NA,NA,NA,NA,choice_trial,survey-html-form,45,419517,0.0-4.0-1.20,187,1,2025-05-05T17:45:53Z,b60275e29fe2361ab97ac0ac217840d7,"Mozilla/5.0 (Windows NT 10.0; Win64; x64) AppleWebKit/537.36 (KHTML, like Gecko) Chrome/135.0.0.0 Safari/537.36 Edg/135.0.0.0",WebKit,Edge,135.0.0.0,Windows,10,https://5puzkbbxv1.cognition.run/?sona_id=57875,"en-US,en;q=0.9",w9mpd4yj6pjppfl,18,"[""White""]",No,Female,NA,Yes,756456,NA,6469,NA,"{""product_choice"":""B""}",choice,tc,binary,repulsion,2,microwave ovens,null,null,null,null,null,null,2,30,40,null,100,90,null,Warranty,Cooking power,NA,NA
NA,NA,NA,NA,NA,choice_trial_setup,html-keyboard-response,46,419825,0.0-4.0-0.21,187,1,2025-05-05T17:45:53Z,b60275e29fe2361ab97ac0ac217840d7,"Mozilla/5.0 (Windows NT 10.0; Win64; x64) AppleWebKit/537.36 (KHTML, like Gecko) Chrome/135.0.0.0 Safari/537.36 Edg/135.0.0.0",WebKit,Edge,135.0.0.0,Windows,10,https://5puzkbbxv1.cognition.run/?sona_id=57875,"en-US,en;q=0.9",w9mpd4yj6pjppfl,18,"[""White""]",No,Female,NA,Yes,756456,NA,null,<p></p>,null,choice,tdc,trinary,repulsion_B,1,laptops,null,null,null,null,null,null,1,NA,NA,NA,NA,NA,NA,NA,NA,NA,NA
NA,NA,NA,NA,NA,choice_trial,survey-html-form,47,425426,0.0-4.0-1.21,187,1,2025-05-05T17:45:53Z,b60275e29fe2361ab97ac0ac217840d7,"Mozilla/5.0 (Windows NT 10.0; Win64; x64) AppleWebKit/537.36 (KHTML, like Gecko) Chrome/135.0.0.0 Safari/537.36 Edg/135.0.0.0",WebKit,Edge,135.0.0.0,Windows,10,https://5puzkbbxv1.cognition.run/?sona_id=57875,"en-US,en;q=0.9",w9mpd4yj6pjppfl,18,"[""White""]",No,Female,NA,Yes,756456,NA,5598,NA,"{""product_choice"":""A""}",choice,tdc,trinary,repulsion_B,1,laptops,null,null,null,null,null,null,1,90,100,80,40,30,40,Processing speed,Memory (RAM),NA,NA
NA,NA,NA,NA,NA,choice_trial_setup,html-keyboard-response,48,425740,0.0-4.0-0.22,187,1,2025-05-05T17:45:53Z,b60275e29fe2361ab97ac0ac217840d7,"Mozilla/5.0 (Windows NT 10.0; Win64; x64) AppleWebKit/537.36 (KHTML, like Gecko) Chrome/135.0.0.0 Safari/537.36 Edg/135.0.0.0",WebKit,Edge,135.0.0.0,Windows,10,https://5puzkbbxv1.cognition.run/?sona_id=57875,"en-US,en;q=0.9",w9mpd4yj6pjppfl,18,"[""White""]",No,Female,NA,Yes,756456,NA,null,<p></p>,null,choice,wbw,trinary,catch,null,microwave ovens,90,65,25,10,50,40,2,NA,NA,NA,NA,NA,NA,NA,NA,NA,NA
NA,NA,NA,NA,NA,choice_trial,survey-html-form,49,432699,0.0-4.0-1.22,187,1,2025-05-05T17:45:53Z,b60275e29fe2361ab97ac0ac217840d7,"Mozilla/5.0 (Windows NT 10.0; Win64; x64) AppleWebKit/537.36 (KHTML, like Gecko) Chrome/135.0.0.0 Safari/537.36 Edg/135.0.0.0",WebKit,Edge,135.0.0.0,Windows,10,https://5puzkbbxv1.cognition.run/?sona_id=57875,"en-US,en;q=0.9",w9mpd4yj6pjppfl,18,"[""White""]",No,Female,NA,Yes,756456,NA,6954,NA,"{""product_choice"":""B""}",choice,wbw,trinary,catch,null,microwave ovens,90,65,25,10,50,40,2,null,null,null,null,null,null,Warranty,Cooking power,NA,NA
NA,NA,NA,NA,NA,choice_trial_setup,html-keyboard-response,50,433008,0.0-4.0-0.23,187,1,2025-05-05T17:45:53Z,b60275e29fe2361ab97ac0ac217840d7,"Mozilla/5.0 (Windows NT 10.0; Win64; x64) AppleWebKit/537.36 (KHTML, like Gecko) Chrome/135.0.0.0 Safari/537.36 Edg/135.0.0.0",WebKit,Edge,135.0.0.0,Windows,10,https://5puzkbbxv1.cognition.run/?sona_id=57875,"en-US,en;q=0.9",w9mpd4yj6pjppfl,18,"[""White""]",No,Female,NA,Yes,756456,NA,null,<p></p>,null,choice,cdt,trinary,attraction,1,laptops,null,null,null,null,null,null,2,NA,NA,NA,NA,NA,NA,NA,NA,NA,NA
NA,NA,NA,NA,NA,choice_trial,survey-html-form,51,444215,0.0-4.0-1.23,187,1,2025-05-05T17:45:53Z,b60275e29fe2361ab97ac0ac217840d7,"Mozilla/5.0 (Windows NT 10.0; Win64; x64) AppleWebKit/537.36 (KHTML, like Gecko) Chrome/135.0.0.0 Safari/537.36 Edg/135.0.0.0",WebKit,Edge,135.0.0.0,Windows,10,https://5puzkbbxv1.cognition.run/?sona_id=57875,"en-US,en;q=0.9",w9mpd4yj6pjppfl,18,"[""White""]",No,Female,NA,Yes,756456,NA,11203,NA,"{""product_choice"":""C""}",choice,cdt,trinary,attraction,1,laptops,null,null,null,null,null,null,2,60,50,60,50,60,40,Processing speed,Memory (RAM),NA,NA
NA,NA,NA,NA,NA,choice_trial_setup,html-keyboard-response,52,444531,0.0-4.0-0.24,187,1,2025-05-05T17:45:53Z,b60275e29fe2361ab97ac0ac217840d7,"Mozilla/5.0 (Windows NT 10.0; Win64; x64) AppleWebKit/537.36 (KHTML, like Gecko) Chrome/135.0.0.0 Safari/537.36 Edg/135.0.0.0",WebKit,Edge,135.0.0.0,Windows,10,https://5puzkbbxv1.cognition.run/?sona_id=57875,"en-US,en;q=0.9",w9mpd4yj6pjppfl,18,"[""White""]",No,Female,NA,Yes,756456,NA,null,<p></p>,null,choice,dtc,trinary,repulsion_B,2,microwave ovens,null,null,null,null,null,null,1,NA,NA,NA,NA,NA,NA,NA,NA,NA,NA
NA,NA,NA,NA,NA,choice_trial,survey-html-form,53,451134,0.0-4.0-1.24,187,1,2025-05-05T17:45:53Z,b60275e29fe2361ab97ac0ac217840d7,"Mozilla/5.0 (Windows NT 10.0; Win64; x64) AppleWebKit/537.36 (KHTML, like Gecko) Chrome/135.0.0.0 Safari/537.36 Edg/135.0.0.0",WebKit,Edge,135.0.0.0,Windows,10,https://5puzkbbxv1.cognition.run/?sona_id=57875,"en-US,en;q=0.9",w9mpd4yj6pjppfl,18,"[""White""]",No,Female,NA,Yes,756456,NA,6600,NA,"{""product_choice"":""B""}",choice,dtc,trinary,repulsion_B,2,microwave ovens,null,null,null,null,null,null,1,40,30,40,90,100,80,Warranty,Cooking power,NA,NA
NA,NA,NA,NA,NA,choice_trial_setup,html-keyboard-response,54,451442,0.0-4.0-0.25,187,1,2025-05-05T17:45:53Z,b60275e29fe2361ab97ac0ac217840d7,"Mozilla/5.0 (Windows NT 10.0; Win64; x64) AppleWebKit/537.36 (KHTML, like Gecko) Chrome/135.0.0.0 Safari/537.36 Edg/135.0.0.0",WebKit,Edge,135.0.0.0,Windows,10,https://5puzkbbxv1.cognition.run/?sona_id=57875,"en-US,en;q=0.9",w9mpd4yj6pjppfl,18,"[""White""]",No,Female,NA,Yes,756456,NA,null,<p></p>,null,choice,wb,binary,catch,null,washing machines,90,55,45,25,null,null,1,NA,NA,NA,NA,NA,NA,NA,NA,NA,NA
NA,NA,NA,NA,NA,choice_trial,survey-html-form,55,455240,0.0-4.0-1.25,187,1,2025-05-05T17:45:53Z,b60275e29fe2361ab97ac0ac217840d7,"Mozilla/5.0 (Windows NT 10.0; Win64; x64) AppleWebKit/537.36 (KHTML, like Gecko) Chrome/135.0.0.0 Safari/537.36 Edg/135.0.0.0",WebKit,Edge,135.0.0.0,Windows,10,https://5puzkbbxv1.cognition.run/?sona_id=57875,"en-US,en;q=0.9",w9mpd4yj6pjppfl,18,"[""White""]",No,Female,NA,Yes,756456,NA,3794,NA,"{""product_choice"":""B""}",choice,wb,binary,catch,null,washing machines,90,55,45,25,null,null,1,null,null,null,null,null,null,Average lifespan,Energy savings,NA,NA
NA,NA,NA,NA,NA,choice_trial_setup,html-keyboard-response,56,455557,0.0-4.0-0.26,187,1,2025-05-05T17:45:53Z,b60275e29fe2361ab97ac0ac217840d7,"Mozilla/5.0 (Windows NT 10.0; Win64; x64) AppleWebKit/537.36 (KHTML, like Gecko) Chrome/135.0.0.0 Safari/537.36 Edg/135.0.0.0",WebKit,Edge,135.0.0.0,Windows,10,https://5puzkbbxv1.cognition.run/?sona_id=57875,"en-US,en;q=0.9",w9mpd4yj6pjppfl,18,"[""White""]",No,Female,NA,Yes,756456,NA,null,<p></p>,null,choice,cdt,trinary,repulsion_B,2,washing machines,null,null,null,null,null,null,1,NA,NA,NA,NA,NA,NA,NA,NA,NA,NA
NA,NA,NA,NA,NA,choice_trial,survey-html-form,57,462989,0.0-4.0-1.26,187,1,2025-05-05T17:45:53Z,b60275e29fe2361ab97ac0ac217840d7,"Mozilla/5.0 (Windows NT 10.0; Win64; x64) AppleWebKit/537.36 (KHTML, like Gecko) Chrome/135.0.0.0 Safari/537.36 Edg/135.0.0.0",WebKit,Edge,135.0.0.0,Windows,10,https://5puzkbbxv1.cognition.run/?sona_id=57875,"en-US,en;q=0.9",w9mpd4yj6pjppfl,18,"[""White""]",No,Female,NA,Yes,756456,NA,7427,NA,"{""product_choice"":""C""}",choice,cdt,trinary,repulsion_B,2,washing machines,null,null,null,null,null,null,1,40,30,40,90,100,80,Average lifespan,Energy savings,NA,NA
NA,NA,NA,NA,NA,choice_trial_setup,html-keyboard-response,58,463299,0.0-4.0-0.27,187,1,2025-05-05T17:45:53Z,b60275e29fe2361ab97ac0ac217840d7,"Mozilla/5.0 (Windows NT 10.0; Win64; x64) AppleWebKit/537.36 (KHTML, like Gecko) Chrome/135.0.0.0 Safari/537.36 Edg/135.0.0.0",WebKit,Edge,135.0.0.0,Windows,10,https://5puzkbbxv1.cognition.run/?sona_id=57875,"en-US,en;q=0.9",w9mpd4yj6pjppfl,18,"[""White""]",No,Female,NA,Yes,756456,NA,null,<p></p>,null,choice,tc,binary,repulsion,1,laptops,null,null,null,null,null,null,2,NA,NA,NA,NA,NA,NA,NA,NA,NA,NA
NA,NA,NA,NA,NA,choice_trial,survey-html-form,59,467803,0.0-4.0-1.27,187,1,2025-05-05T17:45:53Z,b60275e29fe2361ab97ac0ac217840d7,"Mozilla/5.0 (Windows NT 10.0; Win64; x64) AppleWebKit/537.36 (KHTML, like Gecko) Chrome/135.0.0.0 Safari/537.36 Edg/135.0.0.0",WebKit,Edge,135.0.0.0,Windows,10,https://5puzkbbxv1.cognition.run/?sona_id=57875,"en-US,en;q=0.9",w9mpd4yj6pjppfl,18,"[""White""]",No,Female,NA,Yes,756456,NA,4500,NA,"{""product_choice"":""B""}",choice,tc,binary,repulsion,1,laptops,null,null,null,null,null,null,2,100,90,null,30,40,null,Processing speed,Memory (RAM),NA,NA
NA,NA,NA,NA,NA,choice_trial_setup,html-keyboard-response,60,468117,0.0-4.0-0.28,187,1,2025-05-05T17:45:53Z,b60275e29fe2361ab97ac0ac217840d7,"Mozilla/5.0 (Windows NT 10.0; Win64; x64) AppleWebKit/537.36 (KHTML, like Gecko) Chrome/135.0.0.0 Safari/537.36 Edg/135.0.0.0",WebKit,Edge,135.0.0.0,Windows,10,https://5puzkbbxv1.cognition.run/?sona_id=57875,"en-US,en;q=0.9",w9mpd4yj6pjppfl,18,"[""White""]",No,Female,NA,Yes,756456,NA,null,<p></p>,null,choice,cdt,trinary,repulsion_B,1,microwave ovens,null,null,null,null,null,null,2,NA,NA,NA,NA,NA,NA,NA,NA,NA,NA
NA,NA,NA,NA,NA,choice_trial,survey-html-form,61,471334,0.0-4.0-1.28,187,1,2025-05-05T17:45:53Z,b60275e29fe2361ab97ac0ac217840d7,"Mozilla/5.0 (Windows NT 10.0; Win64; x64) AppleWebKit/537.36 (KHTML, like Gecko) Chrome/135.0.0.0 Safari/537.36 Edg/135.0.0.0",WebKit,Edge,135.0.0.0,Windows,10,https://5puzkbbxv1.cognition.run/?sona_id=57875,"en-US,en;q=0.9",w9mpd4yj6pjppfl,18,"[""White""]",No,Female,NA,Yes,756456,NA,3213,NA,"{""product_choice"":""C""}",choice,cdt,trinary,repulsion_B,1,microwave ovens,null,null,null,null,null,null,2,90,100,80,40,30,40,Warranty,Cooking power,NA,NA
NA,NA,NA,NA,NA,choice_trial_setup,html-keyboard-response,62,471653,0.0-4.0-0.29,187,1,2025-05-05T17:45:53Z,b60275e29fe2361ab97ac0ac217840d7,"Mozilla/5.0 (Windows NT 10.0; Win64; x64) AppleWebKit/537.36 (KHTML, like Gecko) Chrome/135.0.0.0 Safari/537.36 Edg/135.0.0.0",WebKit,Edge,135.0.0.0,Windows,10,https://5puzkbbxv1.cognition.run/?sona_id=57875,"en-US,en;q=0.9",w9mpd4yj6pjppfl,18,"[""White""]",No,Female,NA,Yes,756456,NA,null,<p></p>,null,choice,bww,trinary,catch,null,washing machines,95,60,35,45,25,30,2,NA,NA,NA,NA,NA,NA,NA,NA,NA,NA
NA,NA,NA,NA,NA,choice_trial,survey-html-form,63,475265,0.0-4.0-1.29,187,1,2025-05-05T17:45:53Z,b60275e29fe2361ab97ac0ac217840d7,"Mozilla/5.0 (Windows NT 10.0; Win64; x64) AppleWebKit/537.36 (KHTML, like Gecko) Chrome/135.0.0.0 Safari/537.36 Edg/135.0.0.0",WebKit,Edge,135.0.0.0,Windows,10,https://5puzkbbxv1.cognition.run/?sona_id=57875,"en-US,en;q=0.9",w9mpd4yj6pjppfl,18,"[""White""]",No,Female,NA,Yes,756456,NA,3607,NA,"{""product_choice"":""A""}",choice,bww,trinary,catch,null,washing machines,95,60,35,45,25,30,2,null,null,null,null,null,null,Average lifespan,Energy savings,NA,NA
NA,NA,NA,NA,NA,choice_trial_setup,html-keyboard-response,64,475581,0.0-4.0-0.30,187,1,2025-05-05T17:45:53Z,b60275e29fe2361ab97ac0ac217840d7,"Mozilla/5.0 (Windows NT 10.0; Win64; x64) AppleWebKit/537.36 (KHTML, like Gecko) Chrome/135.0.0.0 Safari/537.36 Edg/135.0.0.0",WebKit,Edge,135.0.0.0,Windows,10,https://5puzkbbxv1.cognition.run/?sona_id=57875,"en-US,en;q=0.9",w9mpd4yj6pjppfl,18,"[""White""]",No,Female,NA,Yes,756456,NA,null,<p></p>,null,choice,tc,binary,attraction,NA,microwave ovens,null,null,null,null,null,null,2,NA,NA,NA,NA,NA,NA,NA,NA,NA,NA
NA,NA,NA,NA,NA,choice_trial,survey-html-form,65,480777,0.0-4.0-1.30,187,1,2025-05-05T17:45:53Z,b60275e29fe2361ab97ac0ac217840d7,"Mozilla/5.0 (Windows NT 10.0; Win64; x64) AppleWebKit/537.36 (KHTML, like Gecko) Chrome/135.0.0.0 Safari/537.36 Edg/135.0.0.0",WebKit,Edge,135.0.0.0,Windows,10,https://5puzkbbxv1.cognition.run/?sona_id=57875,"en-US,en;q=0.9",w9mpd4yj6pjppfl,18,"[""White""]",No,Female,NA,Yes,756456,NA,5191,NA,"{""product_choice"":""A""}",choice,tc,binary,attraction,NA,microwave ovens,null,null,null,null,null,null,2,60,50,null,50,60,null,Warranty,Cooking power,NA,NA
NA,NA,NA,NA,NA,choice_trial_setup,html-keyboard-response,66,481088,0.0-4.0-0.31,187,1,2025-05-05T17:45:53Z,b60275e29fe2361ab97ac0ac217840d7,"Mozilla/5.0 (Windows NT 10.0; Win64; x64) AppleWebKit/537.36 (KHTML, like Gecko) Chrome/135.0.0.0 Safari/537.36 Edg/135.0.0.0",WebKit,Edge,135.0.0.0,Windows,10,https://5puzkbbxv1.cognition.run/?sona_id=57875,"en-US,en;q=0.9",w9mpd4yj6pjppfl,18,"[""White""]",No,Female,NA,Yes,756456,NA,null,<p></p>,null,choice,dct,trinary,attraction,1,microwave ovens,null,null,null,null,null,null,1,NA,NA,NA,NA,NA,NA,NA,NA,NA,NA
NA,NA,NA,NA,NA,choice_trial,survey-html-form,67,487027,0.0-4.0-1.31,187,1,2025-05-05T17:45:53Z,b60275e29fe2361ab97ac0ac217840d7,"Mozilla/5.0 (Windows NT 10.0; Win64; x64) AppleWebKit/537.36 (KHTML, like Gecko) Chrome/135.0.0.0 Safari/537.36 Edg/135.0.0.0",WebKit,Edge,135.0.0.0,Windows,10,https://5puzkbbxv1.cognition.run/?sona_id=57875,"en-US,en;q=0.9",w9mpd4yj6pjppfl,18,"[""White""]",No,Female,NA,Yes,756456,NA,5935,NA,"{""product_choice"":""C""}",choice,dct,trinary,attraction,1,microwave ovens,null,null,null,null,null,null,1,60,50,60,50,60,40,Warranty,Cooking power,NA,NA
NA,NA,NA,NA,NA,choice_trial_setup,html-keyboard-response,68,487344,0.0-4.0-0.32,187,1,2025-05-05T17:45:53Z,b60275e29fe2361ab97ac0ac217840d7,"Mozilla/5.0 (Windows NT 10.0; Win64; x64) AppleWebKit/537.36 (KHTML, like Gecko) Chrome/135.0.0.0 Safari/537.36 Edg/135.0.0.0",WebKit,Edge,135.0.0.0,Windows,10,https://5puzkbbxv1.cognition.run/?sona_id=57875,"en-US,en;q=0.9",w9mpd4yj6pjppfl,18,"[""White""]",No,Female,NA,Yes,756456,NA,null,<p></p>,null,choice,bww,trinary,catch,null,laptops,85,80,50,10,25,20,1,NA,NA,NA,NA,NA,NA,NA,NA,NA,NA
NA,NA,NA,NA,NA,choice_trial,survey-html-form,69,492322,0.0-4.0-1.32,187,1,2025-05-05T17:45:53Z,b60275e29fe2361ab97ac0ac217840d7,"Mozilla/5.0 (Windows NT 10.0; Win64; x64) AppleWebKit/537.36 (KHTML, like Gecko) Chrome/135.0.0.0 Safari/537.36 Edg/135.0.0.0",WebKit,Edge,135.0.0.0,Windows,10,https://5puzkbbxv1.cognition.run/?sona_id=57875,"en-US,en;q=0.9",w9mpd4yj6pjppfl,18,"[""White""]",No,Female,NA,Yes,756456,NA,4973,NA,"{""product_choice"":""A""}",choice,bww,trinary,catch,null,laptops,85,80,50,10,25,20,1,null,null,null,null,null,null,Processing speed,Memory (RAM),NA,NA
NA,NA,NA,NA,NA,choice_trial_setup,html-keyboard-response,70,492628,0.0-4.0-0.33,187,1,2025-05-05T17:45:53Z,b60275e29fe2361ab97ac0ac217840d7,"Mozilla/5.0 (Windows NT 10.0; Win64; x64) AppleWebKit/537.36 (KHTML, like Gecko) Chrome/135.0.0.0 Safari/537.36 Edg/135.0.0.0",WebKit,Edge,135.0.0.0,Windows,10,https://5puzkbbxv1.cognition.run/?sona_id=57875,"en-US,en;q=0.9",w9mpd4yj6pjppfl,18,"[""White""]",No,Female,NA,Yes,756456,NA,null,<p></p>,null,choice,cdt,trinary,repulsion_A,2,laptops,null,null,null,null,null,null,1,NA,NA,NA,NA,NA,NA,NA,NA,NA,NA
NA,NA,NA,NA,NA,choice_trial,survey-html-form,71,497517,0.0-4.0-1.33,187,1,2025-05-05T17:45:53Z,b60275e29fe2361ab97ac0ac217840d7,"Mozilla/5.0 (Windows NT 10.0; Win64; x64) AppleWebKit/537.36 (KHTML, like Gecko) Chrome/135.0.0.0 Safari/537.36 Edg/135.0.0.0",WebKit,Edge,135.0.0.0,Windows,10,https://5puzkbbxv1.cognition.run/?sona_id=57875,"en-US,en;q=0.9",w9mpd4yj6pjppfl,18,"[""White""]",No,Female,NA,Yes,756456,NA,4886,NA,"{""product_choice"":""A""}",choice,cdt,trinary,repulsion_A,2,laptops,null,null,null,null,null,null,1,30,40,20,100,90,100,Processing speed,Memory (RAM),NA,NA
NA,NA,NA,NA,NA,choice_trial_setup,html-keyboard-response,72,497831,0.0-4.0-0.34,187,1,2025-05-05T17:45:53Z,b60275e29fe2361ab97ac0ac217840d7,"Mozilla/5.0 (Windows NT 10.0; Win64; x64) AppleWebKit/537.36 (KHTML, like Gecko) Chrome/135.0.0.0 Safari/537.36 Edg/135.0.0.0",WebKit,Edge,135.0.0.0,Windows,10,https://5puzkbbxv1.cognition.run/?sona_id=57875,"en-US,en;q=0.9",w9mpd4yj6pjppfl,18,"[""White""]",No,Female,NA,Yes,756456,NA,null,<p></p>,null,choice,dtc,trinary,attraction,1,televisions,null,null,null,null,null,null,2,NA,NA,NA,NA,NA,NA,NA,NA,NA,NA
NA,NA,NA,NA,NA,choice_trial,survey-html-form,73,514365,0.0-4.0-1.34,187,1,2025-05-05T17:45:53Z,b60275e29fe2361ab97ac0ac217840d7,"Mozilla/5.0 (Windows NT 10.0; Win64; x64) AppleWebKit/537.36 (KHTML, like Gecko) Chrome/135.0.0.0 Safari/537.36 Edg/135.0.0.0",WebKit,Edge,135.0.0.0,Windows,10,https://5puzkbbxv1.cognition.run/?sona_id=57875,"en-US,en;q=0.9",w9mpd4yj6pjppfl,18,"[""White""]",No,Female,NA,Yes,756456,NA,16529,NA,"{""product_choice"":""B""}",choice,dtc,trinary,attraction,1,televisions,null,null,null,null,null,null,2,60,50,60,50,60,40,Screen size,Average lifespan,NA,NA
NA,NA,NA,NA,NA,choice_trial_setup,html-keyboard-response,74,514677,0.0-4.0-0.35,187,1,2025-05-05T17:45:53Z,b60275e29fe2361ab97ac0ac217840d7,"Mozilla/5.0 (Windows NT 10.0; Win64; x64) AppleWebKit/537.36 (KHTML, like Gecko) Chrome/135.0.0.0 Safari/537.36 Edg/135.0.0.0",WebKit,Edge,135.0.0.0,Windows,10,https://5puzkbbxv1.cognition.run/?sona_id=57875,"en-US,en;q=0.9",w9mpd4yj6pjppfl,18,"[""White""]",No,Female,NA,Yes,756456,NA,null,<p></p>,null,choice,ctd,trinary,repulsion_B,2,televisions,null,null,null,null,null,null,1,NA,NA,NA,NA,NA,NA,NA,NA,NA,NA
NA,NA,NA,NA,NA,choice_trial,survey-html-form,75,526014,0.0-4.0-1.35,187,1,2025-05-05T17:45:53Z,b60275e29fe2361ab97ac0ac217840d7,"Mozilla/5.0 (Windows NT 10.0; Win64; x64) AppleWebKit/537.36 (KHTML, like Gecko) Chrome/135.0.0.0 Safari/537.36 Edg/135.0.0.0",WebKit,Edge,135.0.0.0,Windows,10,https://5puzkbbxv1.cognition.run/?sona_id=57875,"en-US,en;q=0.9",w9mpd4yj6pjppfl,18,"[""White""]",No,Female,NA,Yes,756456,NA,11334,NA,"{""product_choice"":""B""}",choice,ctd,trinary,repulsion_B,2,televisions,null,null,null,null,null,null,1,40,30,40,90,100,80,Screen size,Average lifespan,NA,NA
NA,NA,NA,NA,NA,choice_trial_setup,html-keyboard-response,76,526321,0.0-4.0-0.36,187,1,2025-05-05T17:45:53Z,b60275e29fe2361ab97ac0ac217840d7,"Mozilla/5.0 (Windows NT 10.0; Win64; x64) AppleWebKit/537.36 (KHTML, like Gecko) Chrome/135.0.0.0 Safari/537.36 Edg/135.0.0.0",WebKit,Edge,135.0.0.0,Windows,10,https://5puzkbbxv1.cognition.run/?sona_id=57875,"en-US,en;q=0.9",w9mpd4yj6pjppfl,18,"[""White""]",No,Female,NA,Yes,756456,NA,null,<p></p>,null,choice,cdt,trinary,attraction,1,washing machines,null,null,null,null,null,null,2,NA,NA,NA,NA,NA,NA,NA,NA,NA,NA
NA,NA,NA,NA,NA,choice_trial,survey-html-form,77,534359,0.0-4.0-1.36,187,1,2025-05-05T17:45:53Z,b60275e29fe2361ab97ac0ac217840d7,"Mozilla/5.0 (Windows NT 10.0; Win64; x64) AppleWebKit/537.36 (KHTML, like Gecko) Chrome/135.0.0.0 Safari/537.36 Edg/135.0.0.0",WebKit,Edge,135.0.0.0,Windows,10,https://5puzkbbxv1.cognition.run/?sona_id=57875,"en-US,en;q=0.9",w9mpd4yj6pjppfl,18,"[""White""]",No,Female,NA,Yes,756456,NA,8033,NA,"{""product_choice"":""C""}",choice,cdt,trinary,attraction,1,washing machines,null,null,null,null,null,null,2,60,50,60,50,60,40,Average lifespan,Energy savings,NA,NA
NA,NA,NA,NA,NA,choice_trial_setup,html-keyboard-response,78,534677,0.0-4.0-0.37,187,1,2025-05-05T17:45:53Z,b60275e29fe2361ab97ac0ac217840d7,"Mozilla/5.0 (Windows NT 10.0; Win64; x64) AppleWebKit/537.36 (KHTML, like Gecko) Chrome/135.0.0.0 Safari/537.36 Edg/135.0.0.0",WebKit,Edge,135.0.0.0,Windows,10,https://5puzkbbxv1.cognition.run/?sona_id=57875,"en-US,en;q=0.9",w9mpd4yj6pjppfl,18,"[""White""]",No,Female,NA,Yes,756456,NA,null,<p></p>,null,choice,cdt,trinary,attraction,2,laptops,null,null,null,null,null,null,2,NA,NA,NA,NA,NA,NA,NA,NA,NA,NA
NA,NA,NA,NA,NA,choice_trial,survey-html-form,79,541335,0.0-4.0-1.37,187,1,2025-05-05T17:45:53Z,b60275e29fe2361ab97ac0ac217840d7,"Mozilla/5.0 (Windows NT 10.0; Win64; x64) AppleWebKit/537.36 (KHTML, like Gecko) Chrome/135.0.0.0 Safari/537.36 Edg/135.0.0.0",WebKit,Edge,135.0.0.0,Windows,10,https://5puzkbbxv1.cognition.run/?sona_id=57875,"en-US,en;q=0.9",w9mpd4yj6pjppfl,18,"[""White""]",No,Female,NA,Yes,756456,NA,6653,NA,"{""product_choice"":""C""}",choice,cdt,trinary,attraction,2,laptops,null,null,null,null,null,null,2,50,60,40,60,50,60,Processing speed,Memory (RAM),NA,NA
NA,NA,NA,NA,NA,choice_trial_setup,html-keyboard-response,80,541645,0.0-4.0-0.38,187,1,2025-05-05T17:45:53Z,b60275e29fe2361ab97ac0ac217840d7,"Mozilla/5.0 (Windows NT 10.0; Win64; x64) AppleWebKit/537.36 (KHTML, like Gecko) Chrome/135.0.0.0 Safari/537.36 Edg/135.0.0.0",WebKit,Edge,135.0.0.0,Windows,10,https://5puzkbbxv1.cognition.run/?sona_id=57875,"en-US,en;q=0.9",w9mpd4yj6pjppfl,18,"[""White""]",No,Female,NA,Yes,756456,NA,null,<p></p>,null,choice,tcd,trinary,repulsion_B,1,washing machines,null,null,null,null,null,null,2,NA,NA,NA,NA,NA,NA,NA,NA,NA,NA
NA,NA,NA,NA,NA,choice_trial,survey-html-form,81,546038,0.0-4.0-1.38,187,1,2025-05-05T17:45:53Z,b60275e29fe2361ab97ac0ac217840d7,"Mozilla/5.0 (Windows NT 10.0; Win64; x64) AppleWebKit/537.36 (KHTML, like Gecko) Chrome/135.0.0.0 Safari/537.36 Edg/135.0.0.0",WebKit,Edge,135.0.0.0,Windows,10,https://5puzkbbxv1.cognition.run/?sona_id=57875,"en-US,en;q=0.9",w9mpd4yj6pjppfl,18,"[""White""]",No,Female,NA,Yes,756456,NA,4389,NA,"{""product_choice"":""A""}",choice,tcd,trinary,repulsion_B,1,washing machines,null,null,null,null,null,null,2,90,100,80,40,30,40,Average lifespan,Energy savings,NA,NA
NA,NA,NA,NA,NA,choice_trial_setup,html-keyboard-response,82,546342,0.0-4.0-0.39,187,1,2025-05-05T17:45:53Z,b60275e29fe2361ab97ac0ac217840d7,"Mozilla/5.0 (Windows NT 10.0; Win64; x64) AppleWebKit/537.36 (KHTML, like Gecko) Chrome/135.0.0.0 Safari/537.36 Edg/135.0.0.0",WebKit,Edge,135.0.0.0,Windows,10,https://5puzkbbxv1.cognition.run/?sona_id=57875,"en-US,en;q=0.9",w9mpd4yj6pjppfl,18,"[""White""]",No,Female,NA,Yes,756456,NA,null,<p></p>,null,choice,tc,binary,repulsion,1,microwave ovens,null,null,null,null,null,null,1,NA,NA,NA,NA,NA,NA,NA,NA,NA,NA
NA,NA,NA,NA,NA,choice_trial,survey-html-form,83,549405,0.0-4.0-1.39,187,1,2025-05-05T17:45:53Z,b60275e29fe2361ab97ac0ac217840d7,"Mozilla/5.0 (Windows NT 10.0; Win64; x64) AppleWebKit/537.36 (KHTML, like Gecko) Chrome/135.0.0.0 Safari/537.36 Edg/135.0.0.0",WebKit,Edge,135.0.0.0,Windows,10,https://5puzkbbxv1.cognition.run/?sona_id=57875,"en-US,en;q=0.9",w9mpd4yj6pjppfl,18,"[""White""]",No,Female,NA,Yes,756456,NA,3059,NA,"{""product_choice"":""B""}",choice,tc,binary,repulsion,1,microwave ovens,null,null,null,null,null,null,1,100,90,null,30,40,null,Warranty,Cooking power,NA,NA
NA,NA,NA,NA,NA,choice_trial_setup,html-keyboard-response,84,549709,0.0-4.0-0.40,187,1,2025-05-05T17:45:53Z,b60275e29fe2361ab97ac0ac217840d7,"Mozilla/5.0 (Windows NT 10.0; Win64; x64) AppleWebKit/537.36 (KHTML, like Gecko) Chrome/135.0.0.0 Safari/537.36 Edg/135.0.0.0",WebKit,Edge,135.0.0.0,Windows,10,https://5puzkbbxv1.cognition.run/?sona_id=57875,"en-US,en;q=0.9",w9mpd4yj6pjppfl,18,"[""White""]",No,Female,NA,Yes,756456,NA,null,<p></p>,null,choice,dtc,trinary,repulsion_A,2,microwave ovens,null,null,null,null,null,null,2,NA,NA,NA,NA,NA,NA,NA,NA,NA,NA
NA,NA,NA,NA,NA,choice_trial,survey-html-form,85,552718,0.0-4.0-1.40,187,1,2025-05-05T17:45:53Z,b60275e29fe2361ab97ac0ac217840d7,"Mozilla/5.0 (Windows NT 10.0; Win64; x64) AppleWebKit/537.36 (KHTML, like Gecko) Chrome/135.0.0.0 Safari/537.36 Edg/135.0.0.0",WebKit,Edge,135.0.0.0,Windows,10,https://5puzkbbxv1.cognition.run/?sona_id=57875,"en-US,en;q=0.9",w9mpd4yj6pjppfl,18,"[""White""]",No,Female,NA,Yes,756456,NA,3006,NA,"{""product_choice"":""C""}",choice,dtc,trinary,repulsion_A,2,microwave ovens,null,null,null,null,null,null,2,30,40,20,100,90,100,Warranty,Cooking power,NA,NA
NA,NA,NA,NA,NA,choice_trial_setup,html-keyboard-response,86,553026,0.0-4.0-0.41,187,1,2025-05-05T17:45:53Z,b60275e29fe2361ab97ac0ac217840d7,"Mozilla/5.0 (Windows NT 10.0; Win64; x64) AppleWebKit/537.36 (KHTML, like Gecko) Chrome/135.0.0.0 Safari/537.36 Edg/135.0.0.0",WebKit,Edge,135.0.0.0,Windows,10,https://5puzkbbxv1.cognition.run/?sona_id=57875,"en-US,en;q=0.9",w9mpd4yj6pjppfl,18,"[""White""]",No,Female,NA,Yes,756456,NA,null,<p></p>,null,choice,tc,binary,attraction,NA,televisions,null,null,null,null,null,null,2,NA,NA,NA,NA,NA,NA,NA,NA,NA,NA
NA,NA,NA,NA,NA,choice_trial,survey-html-form,87,560683,0.0-4.0-1.41,187,1,2025-05-05T17:45:53Z,b60275e29fe2361ab97ac0ac217840d7,"Mozilla/5.0 (Windows NT 10.0; Win64; x64) AppleWebKit/537.36 (KHTML, like Gecko) Chrome/135.0.0.0 Safari/537.36 Edg/135.0.0.0",WebKit,Edge,135.0.0.0,Windows,10,https://5puzkbbxv1.cognition.run/?sona_id=57875,"en-US,en;q=0.9",w9mpd4yj6pjppfl,18,"[""White""]",No,Female,NA,Yes,756456,NA,7654,NA,"{""product_choice"":""B""}",choice,tc,binary,attraction,NA,televisions,null,null,null,null,null,null,2,60,50,null,50,60,null,Screen size,Average lifespan,NA,NA
NA,NA,NA,NA,NA,choice_trial_setup,html-keyboard-response,88,560991,0.0-4.0-0.42,187,1,2025-05-05T17:45:53Z,b60275e29fe2361ab97ac0ac217840d7,"Mozilla/5.0 (Windows NT 10.0; Win64; x64) AppleWebKit/537.36 (KHTML, like Gecko) Chrome/135.0.0.0 Safari/537.36 Edg/135.0.0.0",WebKit,Edge,135.0.0.0,Windows,10,https://5puzkbbxv1.cognition.run/?sona_id=57875,"en-US,en;q=0.9",w9mpd4yj6pjppfl,18,"[""White""]",No,Female,NA,Yes,756456,NA,null,<p></p>,null,choice,tcd,trinary,repulsion_B,2,laptops,null,null,null,null,null,null,2,NA,NA,NA,NA,NA,NA,NA,NA,NA,NA
NA,NA,NA,NA,NA,choice_trial,survey-html-form,89,566434,0.0-4.0-1.42,187,1,2025-05-05T17:45:53Z,b60275e29fe2361ab97ac0ac217840d7,"Mozilla/5.0 (Windows NT 10.0; Win64; x64) AppleWebKit/537.36 (KHTML, like Gecko) Chrome/135.0.0.0 Safari/537.36 Edg/135.0.0.0",WebKit,Edge,135.0.0.0,Windows,10,https://5puzkbbxv1.cognition.run/?sona_id=57875,"en-US,en;q=0.9",w9mpd4yj6pjppfl,18,"[""White""]",No,Female,NA,Yes,756456,NA,5439,NA,"{""product_choice"":""A""}",choice,tcd,trinary,repulsion_B,2,laptops,null,null,null,null,null,null,2,40,30,40,90,100,80,Processing speed,Memory (RAM),NA,NA
NA,NA,NA,NA,NA,choice_trial_setup,html-keyboard-response,90,566745,0.0-4.0-0.43,187,1,2025-05-05T17:45:53Z,b60275e29fe2361ab97ac0ac217840d7,"Mozilla/5.0 (Windows NT 10.0; Win64; x64) AppleWebKit/537.36 (KHTML, like Gecko) Chrome/135.0.0.0 Safari/537.36 Edg/135.0.0.0",WebKit,Edge,135.0.0.0,Windows,10,https://5puzkbbxv1.cognition.run/?sona_id=57875,"en-US,en;q=0.9",w9mpd4yj6pjppfl,18,"[""White""]",No,Female,NA,Yes,756456,NA,null,<p></p>,null,choice,tc,binary,repulsion,2,washing machines,null,null,null,null,null,null,2,NA,NA,NA,NA,NA,NA,NA,NA,NA,NA
NA,NA,NA,NA,NA,choice_trial,survey-html-form,91,569985,0.0-4.0-1.43,187,1,2025-05-05T17:45:53Z,b60275e29fe2361ab97ac0ac217840d7,"Mozilla/5.0 (Windows NT 10.0; Win64; x64) AppleWebKit/537.36 (KHTML, like Gecko) Chrome/135.0.0.0 Safari/537.36 Edg/135.0.0.0",WebKit,Edge,135.0.0.0,Windows,10,https://5puzkbbxv1.cognition.run/?sona_id=57875,"en-US,en;q=0.9",w9mpd4yj6pjppfl,18,"[""White""]",No,Female,NA,Yes,756456,NA,3235,NA,"{""product_choice"":""B""}",choice,tc,binary,repulsion,2,washing machines,null,null,null,null,null,null,2,30,40,null,100,90,null,Average lifespan,Energy savings,NA,NA
NA,NA,NA,NA,NA,post_trials_message,html-button-response,92,572346,0.0-5.0,187,1,2025-05-05T17:45:53Z,b60275e29fe2361ab97ac0ac217840d7,"Mozilla/5.0 (Windows NT 10.0; Win64; x64) AppleWebKit/537.36 (KHTML, like Gecko) Chrome/135.0.0.0 Safari/537.36 Edg/135.0.0.0",WebKit,Edge,135.0.0.0,Windows,10,https://5puzkbbxv1.cognition.run/?sona_id=57875,"en-US,en;q=0.9",w9mpd4yj6pjppfl,18,"[""White""]",No,Female,NA,Yes,756456,NA,2357,<p> <b>Thank you for your patience!</b></p><p>  The study will be done after completing a brief form. </p>,0,NA,NA,NA,NA,NA,NA,NA,NA,NA,NA,NA,NA,NA,NA,NA,NA,NA,NA,NA,NA,NA,NA,NA
NA,NA,NA,NA,NA,survey_message,survey-text,93,685990,0.0-6.0,187,1,2025-05-05T17:45:53Z,b60275e29fe2361ab97ac0ac217840d7,"Mozilla/5.0 (Windows NT 10.0; Win64; x64) AppleWebKit/537.36 (KHTML, like Gecko) Chrome/135.0.0.0 Safari/537.36 Edg/135.0.0.0",WebKit,Edge,135.0.0.0,Windows,10,https://5puzkbbxv1.cognition.run/?sona_id=57875,"en-US,en;q=0.9",w9mpd4yj6pjppfl,18,"[""White""]",No,Female,NA,Yes,756456,NA,113639,NA,"{""Q0"":""Obviously, there were some trials with a clear best option, but the ones with more similar options to choose from I would choose the happy medium that was either the best of the second best for both aspects.""}",NA,NA,NA,NA,NA,NA,NA,NA,NA,NA,NA,NA,NA,NA,NA,NA,NA,NA,NA,NA,NA,"Obviously, there were some trials with a clear best option, but the ones with more similar options to choose from I would choose the happy medium that was either the best of the second best for both aspects.",NA
NA,NA,NA,NA,NA,demo_age,survey-text,94,688297,0.0-7.0,187,1,2025-05-05T17:45:53Z,b60275e29fe2361ab97ac0ac217840d7,"Mozilla/5.0 (Windows NT 10.0; Win64; x64) AppleWebKit/537.36 (KHTML, like Gecko) Chrome/135.0.0.0 Safari/537.36 Edg/135.0.0.0",WebKit,Edge,135.0.0.0,Windows,10,https://5puzkbbxv1.cognition.run/?sona_id=57875,"en-US,en;q=0.9",w9mpd4yj6pjppfl,18,"[""White""]",No,Female,NA,Yes,756456,NA,2302,NA,"{""Q0"":""18""}",NA,NA,NA,NA,NA,NA,NA,NA,NA,NA,NA,NA,NA,NA,NA,NA,NA,NA,NA,NA,NA,NA,NA
NA,NA,NA,NA,NA,demo_race,survey-multi-select,95,690871,0.0-8.0,187,1,2025-05-05T17:45:53Z,b60275e29fe2361ab97ac0ac217840d7,"Mozilla/5.0 (Windows NT 10.0; Win64; x64) AppleWebKit/537.36 (KHTML, like Gecko) Chrome/135.0.0.0 Safari/537.36 Edg/135.0.0.0",WebKit,Edge,135.0.0.0,Windows,10,https://5puzkbbxv1.cognition.run/?sona_id=57875,"en-US,en;q=0.9",w9mpd4yj6pjppfl,18,"[""White""]",No,Female,NA,Yes,756456,NA,2568,NA,"{""Q0"":[""White""]}",NA,NA,NA,NA,NA,NA,NA,NA,NA,NA,NA,NA,NA,NA,NA,NA,NA,NA,NA,NA,NA,NA,[0]
NA,NA,NA,NA,NA,demo_ethnicity_gender,survey-multi-choice,96,696264,0.0-9.0,187,1,2025-05-05T17:45:53Z,b60275e29fe2361ab97ac0ac217840d7,"Mozilla/5.0 (Windows NT 10.0; Win64; x64) AppleWebKit/537.36 (KHTML, like Gecko) Chrome/135.0.0.0 Safari/537.36 Edg/135.0.0.0",WebKit,Edge,135.0.0.0,Windows,10,https://5puzkbbxv1.cognition.run/?sona_id=57875,"en-US,en;q=0.9",w9mpd4yj6pjppfl,18,"[""White""]",No,Female,NA,Yes,756456,NA,5389,NA,"{""Q0"":""No"",""Q1"":""Female""}",NA,NA,NA,NA,NA,NA,NA,NA,NA,NA,NA,NA,NA,NA,NA,NA,NA,NA,NA,NA,NA,NA,"[0,1]"
NA,NA,NA,NA,NA,demo_countries,survey-text,97,702247,0.0-10.0,187,1,2025-05-05T17:45:53Z,b60275e29fe2361ab97ac0ac217840d7,"Mozilla/5.0 (Windows NT 10.0; Win64; x64) AppleWebKit/537.36 (KHTML, like Gecko) Chrome/135.0.0.0 Safari/537.36 Edg/135.0.0.0",WebKit,Edge,135.0.0.0,Windows,10,https://5puzkbbxv1.cognition.run/?sona_id=57875,"en-US,en;q=0.9",w9mpd4yj6pjppfl,18,"[""White""]",No,Female,NA,Yes,756456,NA,5975,NA,"{""Q0"":""NA""}",NA,NA,NA,NA,NA,NA,NA,NA,NA,NA,NA,NA,NA,NA,NA,NA,NA,NA,NA,NA,NA,NA,NA
NA,NA,NA,NA,NA,demo_prev_study,survey-multi-choice,98,708569,0.0-11.0,187,1,2025-05-05T17:45:53Z,b60275e29fe2361ab97ac0ac217840d7,"Mozilla/5.0 (Windows NT 10.0; Win64; x64) AppleWebKit/537.36 (KHTML, like Gecko) Chrome/135.0.0.0 Safari/537.36 Edg/135.0.0.0",WebKit,Edge,135.0.0.0,Windows,10,https://5puzkbbxv1.cognition.run/?sona_id=57875,"en-US,en;q=0.9",w9mpd4yj6pjppfl,18,"[""White""]",No,Female,NA,Yes,756456,NA,6317,NA,"{""Q0"":""Yes""}",NA,NA,NA,NA,NA,NA,NA,NA,NA,NA,NA,NA,NA,NA,NA,NA,NA,NA,NA,NA,NA,NA,[0]
NA,NA,NA,NA,NA,post_survey_message,html-keyboard-response,99,717581,0.0-12.0,187,1,2025-05-05T17:45:53Z,b60275e29fe2361ab97ac0ac217840d7,"Mozilla/5.0 (Windows NT 10.0; Win64; x64) AppleWebKit/537.36 (KHTML, like Gecko) Chrome/135.0.0.0 Safari/537.36 Edg/135.0.0.0",WebKit,Edge,135.0.0.0,Windows,10,https://5puzkbbxv1.cognition.run/?sona_id=57875,"en-US,en;q=0.9",w9mpd4yj6pjppfl,18,"[""White""]",No,Female,NA,Yes,756456,NA,9008,NA,j,NA,NA,NA,NA,NA,NA,NA,NA,NA,NA,NA,NA,NA,NA,NA,NA,NA,NA,NA,NA,NA,NA,NA
NA,NA,NA,NA,NA,debrief,image-keyboard-response,100,756454,0.0-13.0,187,1,2025-05-05T17:45:53Z,b60275e29fe2361ab97ac0ac217840d7,"Mozilla/5.0 (Windows NT 10.0; Win64; x64) AppleWebKit/537.36 (KHTML, like Gecko) Chrome/135.0.0.0 Safari/537.36 Edg/135.0.0.0",WebKit,Edge,135.0.0.0,Windows,10,https://5puzkbbxv1.cognition.run/?sona_id=57875,"en-US,en;q=0.9",w9mpd4yj6pjppfl,18,"[""White""]",No,Female,NA,Yes,756456,NA,38867,Judg_choice_debrief.png,p,NA,NA,NA,NA,NA,NA,NA,NA,NA,NA,NA,NA,NA,NA,NA,NA,NA,NA,NA,NA,NA,NA,NA
