success,timeout,failed_images,failed_audio,failed_video,screen_id,trial_type,trial_index,time_elapsed,internal_node_id,run_id,condition,recorded_at,source_code_version,user_agent,device,browser,browser_version,platform,platform_version,referer,accept_language,ppt_id,age,race,ethnicity,gender,other_countries,prev_study,exp_duration,view_history,rt,stimulus,response,phase,order,set,effect,t_high,category,d1_best,d2_best,d1_worst1,d2_worst1,d1_worst2,d2_worst2,first_dim,d1_t,d1_c,d1_d,d2_t,d2_c,d2_d,d1_name,d2_name,strategy_response,question_order
TRUE,FALSE,[],[],[],img preload,preload,0,387,0.0-0.0,190,1,2025-05-05T18:18:39Z,b60275e29fe2361ab97ac0ac217840d7,"Mozilla/5.0 (Macintosh; Intel Mac OS X 10_15_7) AppleWebKit/537.36 (KHTML, like Gecko) Chrome/116.0.0.0 Safari/537.36",Macintosh,Chrome,116.0.0.0,OS X,10_15_7,https://5puzkbbxv1.cognition.run/?sona_id=55862,"en-US,en;q=0.9",tt3qyd2gmpbqlzj,19,"[""Other""]",Yes,Female,"NA
",Yes,272730.3999999985,NA,NA,NA,NA,NA,NA,NA,NA,NA,NA,NA,NA,NA,NA,NA,NA,NA,NA,NA,NA,NA,NA,NA,NA,NA,NA,NA
NA,NA,NA,NA,NA,computer_message,instructions,1,1613,0.0-1.0,190,1,2025-05-05T18:18:39Z,b60275e29fe2361ab97ac0ac217840d7,"Mozilla/5.0 (Macintosh; Intel Mac OS X 10_15_7) AppleWebKit/537.36 (KHTML, like Gecko) Chrome/116.0.0.0 Safari/537.36",Macintosh,Chrome,116.0.0.0,OS X,10_15_7,https://5puzkbbxv1.cognition.run/?sona_id=55862,"en-US,en;q=0.9",tt3qyd2gmpbqlzj,19,"[""Other""]",Yes,Female,"NA
",Yes,272730.3999999985,"[{""page_index"":0,""viewing_time"":1224}]",1225,NA,NA,NA,NA,NA,NA,NA,NA,NA,NA,NA,NA,NA,NA,NA,NA,NA,NA,NA,NA,NA,NA,NA,NA,NA
TRUE,NA,NA,NA,NA,NA,fullscreen,2,4005,0.0-2.0,190,1,2025-05-05T18:18:39Z,b60275e29fe2361ab97ac0ac217840d7,"Mozilla/5.0 (Macintosh; Intel Mac OS X 10_15_7) AppleWebKit/537.36 (KHTML, like Gecko) Chrome/116.0.0.0 Safari/537.36",Macintosh,Chrome,116.0.0.0,OS X,10_15_7,https://5puzkbbxv1.cognition.run/?sona_id=55862,"en-US,en;q=0.9",tt3qyd2gmpbqlzj,19,"[""Other""]",Yes,Female,"NA
",Yes,272730.3999999985,NA,1246,NA,NA,NA,NA,NA,NA,NA,NA,NA,NA,NA,NA,NA,NA,NA,NA,NA,NA,NA,NA,NA,NA,NA,NA,NA
NA,NA,NA,NA,NA,choice_instructions,instructions,3,20957,0.0-3.0,190,1,2025-05-05T18:18:39Z,b60275e29fe2361ab97ac0ac217840d7,"Mozilla/5.0 (Macintosh; Intel Mac OS X 10_15_7) AppleWebKit/537.36 (KHTML, like Gecko) Chrome/116.0.0.0 Safari/537.36",Macintosh,Chrome,116.0.0.0,OS X,10_15_7,https://5puzkbbxv1.cognition.run/?sona_id=55862,"en-US,en;q=0.9",tt3qyd2gmpbqlzj,19,"[""Other""]",Yes,Female,"NA
",Yes,272730.3999999985,"[{""page_index"":0,""viewing_time"":1000},{""page_index"":1,""viewing_time"":2276},{""page_index"":2,""viewing_time"":2563},{""page_index"":3,""viewing_time"":1617},{""page_index"":4,""viewing_time"":1052},{""page_index"":5,""viewing_time"":7445},{""page_index"":6,""viewing_time"":997}]",16950,NA,NA,NA,NA,NA,NA,NA,NA,NA,NA,NA,NA,NA,NA,NA,NA,NA,NA,NA,NA,NA,NA,NA,NA,NA
NA,NA,NA,NA,NA,choice_trial_setup,html-keyboard-response,4,21322,0.0-4.0-0.0,190,1,2025-05-05T18:18:39Z,b60275e29fe2361ab97ac0ac217840d7,"Mozilla/5.0 (Macintosh; Intel Mac OS X 10_15_7) AppleWebKit/537.36 (KHTML, like Gecko) Chrome/116.0.0.0 Safari/537.36",Macintosh,Chrome,116.0.0.0,OS X,10_15_7,https://5puzkbbxv1.cognition.run/?sona_id=55862,"en-US,en;q=0.9",tt3qyd2gmpbqlzj,19,"[""Other""]",Yes,Female,"NA
",Yes,272730.3999999985,NA,null,<p></p>,null,choice,tc,binary,attraction,NA,washing machines,null,null,null,null,null,null,2,NA,NA,NA,NA,NA,NA,NA,NA,NA,NA
NA,NA,NA,NA,NA,choice_trial,survey-html-form,5,28356,0.0-4.0-1.0,190,1,2025-05-05T18:18:39Z,b60275e29fe2361ab97ac0ac217840d7,"Mozilla/5.0 (Macintosh; Intel Mac OS X 10_15_7) AppleWebKit/537.36 (KHTML, like Gecko) Chrome/116.0.0.0 Safari/537.36",Macintosh,Chrome,116.0.0.0,OS X,10_15_7,https://5puzkbbxv1.cognition.run/?sona_id=55862,"en-US,en;q=0.9",tt3qyd2gmpbqlzj,19,"[""Other""]",Yes,Female,"NA
",Yes,272730.3999999985,NA,7029,NA,"{""product_choice"":""A""}",choice,tc,binary,attraction,NA,washing machines,null,null,null,null,null,null,2,60,50,null,50,60,null,Average lifespan,Energy savings,NA,NA
NA,NA,NA,NA,NA,choice_trial_setup,html-keyboard-response,6,28667,0.0-4.0-0.1,190,1,2025-05-05T18:18:39Z,b60275e29fe2361ab97ac0ac217840d7,"Mozilla/5.0 (Macintosh; Intel Mac OS X 10_15_7) AppleWebKit/537.36 (KHTML, like Gecko) Chrome/116.0.0.0 Safari/537.36",Macintosh,Chrome,116.0.0.0,OS X,10_15_7,https://5puzkbbxv1.cognition.run/?sona_id=55862,"en-US,en;q=0.9",tt3qyd2gmpbqlzj,19,"[""Other""]",Yes,Female,"NA
",Yes,272730.3999999985,NA,null,<p></p>,null,choice,tdc,trinary,repulsion_B,1,televisions,null,null,null,null,null,null,2,NA,NA,NA,NA,NA,NA,NA,NA,NA,NA
NA,NA,NA,NA,NA,choice_trial,survey-html-form,7,37421,0.0-4.0-1.1,190,1,2025-05-05T18:18:39Z,b60275e29fe2361ab97ac0ac217840d7,"Mozilla/5.0 (Macintosh; Intel Mac OS X 10_15_7) AppleWebKit/537.36 (KHTML, like Gecko) Chrome/116.0.0.0 Safari/537.36",Macintosh,Chrome,116.0.0.0,OS X,10_15_7,https://5puzkbbxv1.cognition.run/?sona_id=55862,"en-US,en;q=0.9",tt3qyd2gmpbqlzj,19,"[""Other""]",Yes,Female,"NA
",Yes,272730.3999999985,NA,8751,NA,"{""product_choice"":""A""}",choice,tdc,trinary,repulsion_B,1,televisions,null,null,null,null,null,null,2,90,100,80,40,30,40,Screen size,Average lifespan,NA,NA
NA,NA,NA,NA,NA,choice_trial_setup,html-keyboard-response,8,37735,0.0-4.0-0.2,190,1,2025-05-05T18:18:39Z,b60275e29fe2361ab97ac0ac217840d7,"Mozilla/5.0 (Macintosh; Intel Mac OS X 10_15_7) AppleWebKit/537.36 (KHTML, like Gecko) Chrome/116.0.0.0 Safari/537.36",Macintosh,Chrome,116.0.0.0,OS X,10_15_7,https://5puzkbbxv1.cognition.run/?sona_id=55862,"en-US,en;q=0.9",tt3qyd2gmpbqlzj,19,"[""Other""]",Yes,Female,"NA
",Yes,272730.3999999985,NA,null,<p></p>,null,choice,tcd,trinary,attraction,1,microwave ovens,null,null,null,null,null,null,1,NA,NA,NA,NA,NA,NA,NA,NA,NA,NA
NA,NA,NA,NA,NA,choice_trial,survey-html-form,9,47059,0.0-4.0-1.2,190,1,2025-05-05T18:18:39Z,b60275e29fe2361ab97ac0ac217840d7,"Mozilla/5.0 (Macintosh; Intel Mac OS X 10_15_7) AppleWebKit/537.36 (KHTML, like Gecko) Chrome/116.0.0.0 Safari/537.36",Macintosh,Chrome,116.0.0.0,OS X,10_15_7,https://5puzkbbxv1.cognition.run/?sona_id=55862,"en-US,en;q=0.9",tt3qyd2gmpbqlzj,19,"[""Other""]",Yes,Female,"NA
",Yes,272730.3999999985,NA,9321,NA,"{""product_choice"":""A""}",choice,tcd,trinary,attraction,1,microwave ovens,null,null,null,null,null,null,1,60,50,60,50,60,40,Warranty,Cooking power,NA,NA
NA,NA,NA,NA,NA,choice_trial_setup,html-keyboard-response,10,47366,0.0-4.0-0.3,190,1,2025-05-05T18:18:39Z,b60275e29fe2361ab97ac0ac217840d7,"Mozilla/5.0 (Macintosh; Intel Mac OS X 10_15_7) AppleWebKit/537.36 (KHTML, like Gecko) Chrome/116.0.0.0 Safari/537.36",Macintosh,Chrome,116.0.0.0,OS X,10_15_7,https://5puzkbbxv1.cognition.run/?sona_id=55862,"en-US,en;q=0.9",tt3qyd2gmpbqlzj,19,"[""Other""]",Yes,Female,"NA
",Yes,272730.3999999985,NA,null,<p></p>,null,choice,dtc,trinary,repulsion_B,2,televisions,null,null,null,null,null,null,1,NA,NA,NA,NA,NA,NA,NA,NA,NA,NA
NA,NA,NA,NA,NA,choice_trial,survey-html-form,11,55673,0.0-4.0-1.3,190,1,2025-05-05T18:18:39Z,b60275e29fe2361ab97ac0ac217840d7,"Mozilla/5.0 (Macintosh; Intel Mac OS X 10_15_7) AppleWebKit/537.36 (KHTML, like Gecko) Chrome/116.0.0.0 Safari/537.36",Macintosh,Chrome,116.0.0.0,OS X,10_15_7,https://5puzkbbxv1.cognition.run/?sona_id=55862,"en-US,en;q=0.9",tt3qyd2gmpbqlzj,19,"[""Other""]",Yes,Female,"NA
",Yes,272730.3999999985,NA,8305,NA,"{""product_choice"":""B""}",choice,dtc,trinary,repulsion_B,2,televisions,null,null,null,null,null,null,1,40,30,40,90,100,80,Screen size,Average lifespan,NA,NA
NA,NA,NA,NA,NA,choice_trial_setup,html-keyboard-response,12,55982,0.0-4.0-0.4,190,1,2025-05-05T18:18:39Z,b60275e29fe2361ab97ac0ac217840d7,"Mozilla/5.0 (Macintosh; Intel Mac OS X 10_15_7) AppleWebKit/537.36 (KHTML, like Gecko) Chrome/116.0.0.0 Safari/537.36",Macintosh,Chrome,116.0.0.0,OS X,10_15_7,https://5puzkbbxv1.cognition.run/?sona_id=55862,"en-US,en;q=0.9",tt3qyd2gmpbqlzj,19,"[""Other""]",Yes,Female,"NA
",Yes,272730.3999999985,NA,null,<p></p>,null,choice,dtc,trinary,repulsion_B,1,washing machines,null,null,null,null,null,null,2,NA,NA,NA,NA,NA,NA,NA,NA,NA,NA
NA,NA,NA,NA,NA,choice_trial,survey-html-form,13,64842,0.0-4.0-1.4,190,1,2025-05-05T18:18:39Z,b60275e29fe2361ab97ac0ac217840d7,"Mozilla/5.0 (Macintosh; Intel Mac OS X 10_15_7) AppleWebKit/537.36 (KHTML, like Gecko) Chrome/116.0.0.0 Safari/537.36",Macintosh,Chrome,116.0.0.0,OS X,10_15_7,https://5puzkbbxv1.cognition.run/?sona_id=55862,"en-US,en;q=0.9",tt3qyd2gmpbqlzj,19,"[""Other""]",Yes,Female,"NA
",Yes,272730.3999999985,NA,8857,NA,"{""product_choice"":""B""}",choice,dtc,trinary,repulsion_B,1,washing machines,null,null,null,null,null,null,2,90,100,80,40,30,40,Average lifespan,Energy savings,NA,NA
NA,NA,NA,NA,NA,choice_trial_setup,html-keyboard-response,14,65147,0.0-4.0-0.5,190,1,2025-05-05T18:18:39Z,b60275e29fe2361ab97ac0ac217840d7,"Mozilla/5.0 (Macintosh; Intel Mac OS X 10_15_7) AppleWebKit/537.36 (KHTML, like Gecko) Chrome/116.0.0.0 Safari/537.36",Macintosh,Chrome,116.0.0.0,OS X,10_15_7,https://5puzkbbxv1.cognition.run/?sona_id=55862,"en-US,en;q=0.9",tt3qyd2gmpbqlzj,19,"[""Other""]",Yes,Female,"NA
",Yes,272730.3999999985,NA,null,<p></p>,null,choice,ctd,trinary,repulsion_B,2,laptops,null,null,null,null,null,null,1,NA,NA,NA,NA,NA,NA,NA,NA,NA,NA
NA,NA,NA,NA,NA,choice_trial,survey-html-form,15,71671,0.0-4.0-1.5,190,1,2025-05-05T18:18:39Z,b60275e29fe2361ab97ac0ac217840d7,"Mozilla/5.0 (Macintosh; Intel Mac OS X 10_15_7) AppleWebKit/537.36 (KHTML, like Gecko) Chrome/116.0.0.0 Safari/537.36",Macintosh,Chrome,116.0.0.0,OS X,10_15_7,https://5puzkbbxv1.cognition.run/?sona_id=55862,"en-US,en;q=0.9",tt3qyd2gmpbqlzj,19,"[""Other""]",Yes,Female,"NA
",Yes,272730.3999999985,NA,6517,NA,"{""product_choice"":""B""}",choice,ctd,trinary,repulsion_B,2,laptops,null,null,null,null,null,null,1,40,30,40,90,100,80,Processing speed,Memory (RAM),NA,NA
NA,NA,NA,NA,NA,choice_trial_setup,html-keyboard-response,16,71975,0.0-4.0-0.6,190,1,2025-05-05T18:18:39Z,b60275e29fe2361ab97ac0ac217840d7,"Mozilla/5.0 (Macintosh; Intel Mac OS X 10_15_7) AppleWebKit/537.36 (KHTML, like Gecko) Chrome/116.0.0.0 Safari/537.36",Macintosh,Chrome,116.0.0.0,OS X,10_15_7,https://5puzkbbxv1.cognition.run/?sona_id=55862,"en-US,en;q=0.9",tt3qyd2gmpbqlzj,19,"[""Other""]",Yes,Female,"NA
",Yes,272730.3999999985,NA,null,<p></p>,null,choice,tcd,trinary,attraction,2,washing machines,null,null,null,null,null,null,1,NA,NA,NA,NA,NA,NA,NA,NA,NA,NA
NA,NA,NA,NA,NA,choice_trial,survey-html-form,17,76617,0.0-4.0-1.6,190,1,2025-05-05T18:18:39Z,b60275e29fe2361ab97ac0ac217840d7,"Mozilla/5.0 (Macintosh; Intel Mac OS X 10_15_7) AppleWebKit/537.36 (KHTML, like Gecko) Chrome/116.0.0.0 Safari/537.36",Macintosh,Chrome,116.0.0.0,OS X,10_15_7,https://5puzkbbxv1.cognition.run/?sona_id=55862,"en-US,en;q=0.9",tt3qyd2gmpbqlzj,19,"[""Other""]",Yes,Female,"NA
",Yes,272730.3999999985,NA,4636,NA,"{""product_choice"":""B""}",choice,tcd,trinary,attraction,2,washing machines,null,null,null,null,null,null,1,50,60,40,60,50,60,Average lifespan,Energy savings,NA,NA
NA,NA,NA,NA,NA,choice_trial_setup,html-keyboard-response,18,76926,0.0-4.0-0.7,190,1,2025-05-05T18:18:39Z,b60275e29fe2361ab97ac0ac217840d7,"Mozilla/5.0 (Macintosh; Intel Mac OS X 10_15_7) AppleWebKit/537.36 (KHTML, like Gecko) Chrome/116.0.0.0 Safari/537.36",Macintosh,Chrome,116.0.0.0,OS X,10_15_7,https://5puzkbbxv1.cognition.run/?sona_id=55862,"en-US,en;q=0.9",tt3qyd2gmpbqlzj,19,"[""Other""]",Yes,Female,"NA
",Yes,272730.3999999985,NA,null,<p></p>,null,choice,dtc,trinary,repulsion_A,1,laptops,null,null,null,null,null,null,1,NA,NA,NA,NA,NA,NA,NA,NA,NA,NA
NA,NA,NA,NA,NA,choice_trial,survey-html-form,19,82676,0.0-4.0-1.7,190,1,2025-05-05T18:18:39Z,b60275e29fe2361ab97ac0ac217840d7,"Mozilla/5.0 (Macintosh; Intel Mac OS X 10_15_7) AppleWebKit/537.36 (KHTML, like Gecko) Chrome/116.0.0.0 Safari/537.36",Macintosh,Chrome,116.0.0.0,OS X,10_15_7,https://5puzkbbxv1.cognition.run/?sona_id=55862,"en-US,en;q=0.9",tt3qyd2gmpbqlzj,19,"[""Other""]",Yes,Female,"NA
",Yes,272730.3999999985,NA,5744,NA,"{""product_choice"":""C""}",choice,dtc,trinary,repulsion_A,1,laptops,null,null,null,null,null,null,1,100,90,100,30,40,20,Processing speed,Memory (RAM),NA,NA
NA,NA,NA,NA,NA,choice_trial_setup,html-keyboard-response,20,82984,0.0-4.0-0.8,190,1,2025-05-05T18:18:39Z,b60275e29fe2361ab97ac0ac217840d7,"Mozilla/5.0 (Macintosh; Intel Mac OS X 10_15_7) AppleWebKit/537.36 (KHTML, like Gecko) Chrome/116.0.0.0 Safari/537.36",Macintosh,Chrome,116.0.0.0,OS X,10_15_7,https://5puzkbbxv1.cognition.run/?sona_id=55862,"en-US,en;q=0.9",tt3qyd2gmpbqlzj,19,"[""Other""]",Yes,Female,"NA
",Yes,272730.3999999985,NA,null,<p></p>,null,choice,ct,binary,repulsion,1,televisions,null,null,null,null,null,null,1,NA,NA,NA,NA,NA,NA,NA,NA,NA,NA
NA,NA,NA,NA,NA,choice_trial,survey-html-form,21,88677,0.0-4.0-1.8,190,1,2025-05-05T18:18:39Z,b60275e29fe2361ab97ac0ac217840d7,"Mozilla/5.0 (Macintosh; Intel Mac OS X 10_15_7) AppleWebKit/537.36 (KHTML, like Gecko) Chrome/116.0.0.0 Safari/537.36",Macintosh,Chrome,116.0.0.0,OS X,10_15_7,https://5puzkbbxv1.cognition.run/?sona_id=55862,"en-US,en;q=0.9",tt3qyd2gmpbqlzj,19,"[""Other""]",Yes,Female,"NA
",Yes,272730.3999999985,NA,5688,NA,"{""product_choice"":""B""}",choice,ct,binary,repulsion,1,televisions,null,null,null,null,null,null,1,100,90,null,30,40,null,Screen size,Average lifespan,NA,NA
NA,NA,NA,NA,NA,choice_trial_setup,html-keyboard-response,22,88983,0.0-4.0-0.9,190,1,2025-05-05T18:18:39Z,b60275e29fe2361ab97ac0ac217840d7,"Mozilla/5.0 (Macintosh; Intel Mac OS X 10_15_7) AppleWebKit/537.36 (KHTML, like Gecko) Chrome/116.0.0.0 Safari/537.36",Macintosh,Chrome,116.0.0.0,OS X,10_15_7,https://5puzkbbxv1.cognition.run/?sona_id=55862,"en-US,en;q=0.9",tt3qyd2gmpbqlzj,19,"[""Other""]",Yes,Female,"NA
",Yes,272730.3999999985,NA,null,<p></p>,null,choice,tdc,trinary,repulsion_A,2,laptops,null,null,null,null,null,null,2,NA,NA,NA,NA,NA,NA,NA,NA,NA,NA
NA,NA,NA,NA,NA,choice_trial,survey-html-form,23,92531,0.0-4.0-1.9,190,1,2025-05-05T18:18:39Z,b60275e29fe2361ab97ac0ac217840d7,"Mozilla/5.0 (Macintosh; Intel Mac OS X 10_15_7) AppleWebKit/537.36 (KHTML, like Gecko) Chrome/116.0.0.0 Safari/537.36",Macintosh,Chrome,116.0.0.0,OS X,10_15_7,https://5puzkbbxv1.cognition.run/?sona_id=55862,"en-US,en;q=0.9",tt3qyd2gmpbqlzj,19,"[""Other""]",Yes,Female,"NA
",Yes,272730.3999999985,NA,3544,NA,"{""product_choice"":""C""}",choice,tdc,trinary,repulsion_A,2,laptops,null,null,null,null,null,null,2,30,40,20,100,90,100,Processing speed,Memory (RAM),NA,NA
NA,NA,NA,NA,NA,choice_trial_setup,html-keyboard-response,24,92844,0.0-4.0-0.10,190,1,2025-05-05T18:18:39Z,b60275e29fe2361ab97ac0ac217840d7,"Mozilla/5.0 (Macintosh; Intel Mac OS X 10_15_7) AppleWebKit/537.36 (KHTML, like Gecko) Chrome/116.0.0.0 Safari/537.36",Macintosh,Chrome,116.0.0.0,OS X,10_15_7,https://5puzkbbxv1.cognition.run/?sona_id=55862,"en-US,en;q=0.9",tt3qyd2gmpbqlzj,19,"[""Other""]",Yes,Female,"NA
",Yes,272730.3999999985,NA,null,<p></p>,null,choice,ct,binary,repulsion,2,washing machines,null,null,null,null,null,null,2,NA,NA,NA,NA,NA,NA,NA,NA,NA,NA
NA,NA,NA,NA,NA,choice_trial,survey-html-form,25,97939,0.0-4.0-1.10,190,1,2025-05-05T18:18:39Z,b60275e29fe2361ab97ac0ac217840d7,"Mozilla/5.0 (Macintosh; Intel Mac OS X 10_15_7) AppleWebKit/537.36 (KHTML, like Gecko) Chrome/116.0.0.0 Safari/537.36",Macintosh,Chrome,116.0.0.0,OS X,10_15_7,https://5puzkbbxv1.cognition.run/?sona_id=55862,"en-US,en;q=0.9",tt3qyd2gmpbqlzj,19,"[""Other""]",Yes,Female,"NA
",Yes,272730.3999999985,NA,5091,NA,"{""product_choice"":""A""}",choice,ct,binary,repulsion,2,washing machines,null,null,null,null,null,null,2,30,40,null,100,90,null,Average lifespan,Energy savings,NA,NA
NA,NA,NA,NA,NA,choice_trial_setup,html-keyboard-response,26,98251,0.0-4.0-0.11,190,1,2025-05-05T18:18:39Z,b60275e29fe2361ab97ac0ac217840d7,"Mozilla/5.0 (Macintosh; Intel Mac OS X 10_15_7) AppleWebKit/537.36 (KHTML, like Gecko) Chrome/116.0.0.0 Safari/537.36",Macintosh,Chrome,116.0.0.0,OS X,10_15_7,https://5puzkbbxv1.cognition.run/?sona_id=55862,"en-US,en;q=0.9",tt3qyd2gmpbqlzj,19,"[""Other""]",Yes,Female,"NA
",Yes,272730.3999999985,NA,null,<p></p>,null,choice,dtc,trinary,repulsion_B,2,microwave ovens,null,null,null,null,null,null,1,NA,NA,NA,NA,NA,NA,NA,NA,NA,NA
NA,NA,NA,NA,NA,choice_trial,survey-html-form,27,101946,0.0-4.0-1.11,190,1,2025-05-05T18:18:39Z,b60275e29fe2361ab97ac0ac217840d7,"Mozilla/5.0 (Macintosh; Intel Mac OS X 10_15_7) AppleWebKit/537.36 (KHTML, like Gecko) Chrome/116.0.0.0 Safari/537.36",Macintosh,Chrome,116.0.0.0,OS X,10_15_7,https://5puzkbbxv1.cognition.run/?sona_id=55862,"en-US,en;q=0.9",tt3qyd2gmpbqlzj,19,"[""Other""]",Yes,Female,"NA
",Yes,272730.3999999985,NA,3693,NA,"{""product_choice"":""B""}",choice,dtc,trinary,repulsion_B,2,microwave ovens,null,null,null,null,null,null,1,40,30,40,90,100,80,Warranty,Cooking power,NA,NA
NA,NA,NA,NA,NA,choice_trial_setup,html-keyboard-response,28,102255,0.0-4.0-0.12,190,1,2025-05-05T18:18:39Z,b60275e29fe2361ab97ac0ac217840d7,"Mozilla/5.0 (Macintosh; Intel Mac OS X 10_15_7) AppleWebKit/537.36 (KHTML, like Gecko) Chrome/116.0.0.0 Safari/537.36",Macintosh,Chrome,116.0.0.0,OS X,10_15_7,https://5puzkbbxv1.cognition.run/?sona_id=55862,"en-US,en;q=0.9",tt3qyd2gmpbqlzj,19,"[""Other""]",Yes,Female,"NA
",Yes,272730.3999999985,NA,null,<p></p>,null,choice,ct,binary,attraction,NA,televisions,null,null,null,null,null,null,1,NA,NA,NA,NA,NA,NA,NA,NA,NA,NA
NA,NA,NA,NA,NA,choice_trial,survey-html-form,29,106573,0.0-4.0-1.12,190,1,2025-05-05T18:18:39Z,b60275e29fe2361ab97ac0ac217840d7,"Mozilla/5.0 (Macintosh; Intel Mac OS X 10_15_7) AppleWebKit/537.36 (KHTML, like Gecko) Chrome/116.0.0.0 Safari/537.36",Macintosh,Chrome,116.0.0.0,OS X,10_15_7,https://5puzkbbxv1.cognition.run/?sona_id=55862,"en-US,en;q=0.9",tt3qyd2gmpbqlzj,19,"[""Other""]",Yes,Female,"NA
",Yes,272730.3999999985,NA,4314,NA,"{""product_choice"":""A""}",choice,ct,binary,attraction,NA,televisions,null,null,null,null,null,null,1,60,50,null,50,60,null,Screen size,Average lifespan,NA,NA
NA,NA,NA,NA,NA,choice_trial_setup,html-keyboard-response,30,106883,0.0-4.0-0.13,190,1,2025-05-05T18:18:39Z,b60275e29fe2361ab97ac0ac217840d7,"Mozilla/5.0 (Macintosh; Intel Mac OS X 10_15_7) AppleWebKit/537.36 (KHTML, like Gecko) Chrome/116.0.0.0 Safari/537.36",Macintosh,Chrome,116.0.0.0,OS X,10_15_7,https://5puzkbbxv1.cognition.run/?sona_id=55862,"en-US,en;q=0.9",tt3qyd2gmpbqlzj,19,"[""Other""]",Yes,Female,"NA
",Yes,272730.3999999985,NA,null,<p></p>,null,choice,dtc,trinary,attraction,2,microwave ovens,null,null,null,null,null,null,2,NA,NA,NA,NA,NA,NA,NA,NA,NA,NA
NA,NA,NA,NA,NA,choice_trial,survey-html-form,31,113310,0.0-4.0-1.13,190,1,2025-05-05T18:18:39Z,b60275e29fe2361ab97ac0ac217840d7,"Mozilla/5.0 (Macintosh; Intel Mac OS X 10_15_7) AppleWebKit/537.36 (KHTML, like Gecko) Chrome/116.0.0.0 Safari/537.36",Macintosh,Chrome,116.0.0.0,OS X,10_15_7,https://5puzkbbxv1.cognition.run/?sona_id=55862,"en-US,en;q=0.9",tt3qyd2gmpbqlzj,19,"[""Other""]",Yes,Female,"NA
",Yes,272730.3999999985,NA,6423,NA,"{""product_choice"":""B""}",choice,dtc,trinary,attraction,2,microwave ovens,null,null,null,null,null,null,2,50,60,40,60,50,60,Warranty,Cooking power,NA,NA
NA,NA,NA,NA,NA,choice_trial_setup,html-keyboard-response,32,113623,0.0-4.0-0.14,190,1,2025-05-05T18:18:39Z,b60275e29fe2361ab97ac0ac217840d7,"Mozilla/5.0 (Macintosh; Intel Mac OS X 10_15_7) AppleWebKit/537.36 (KHTML, like Gecko) Chrome/116.0.0.0 Safari/537.36",Macintosh,Chrome,116.0.0.0,OS X,10_15_7,https://5puzkbbxv1.cognition.run/?sona_id=55862,"en-US,en;q=0.9",tt3qyd2gmpbqlzj,19,"[""Other""]",Yes,Female,"NA
",Yes,272730.3999999985,NA,null,<p></p>,null,choice,cdt,trinary,attraction,1,washing machines,null,null,null,null,null,null,2,NA,NA,NA,NA,NA,NA,NA,NA,NA,NA
NA,NA,NA,NA,NA,choice_trial,survey-html-form,33,121310,0.0-4.0-1.14,190,1,2025-05-05T18:18:39Z,b60275e29fe2361ab97ac0ac217840d7,"Mozilla/5.0 (Macintosh; Intel Mac OS X 10_15_7) AppleWebKit/537.36 (KHTML, like Gecko) Chrome/116.0.0.0 Safari/537.36",Macintosh,Chrome,116.0.0.0,OS X,10_15_7,https://5puzkbbxv1.cognition.run/?sona_id=55862,"en-US,en;q=0.9",tt3qyd2gmpbqlzj,19,"[""Other""]",Yes,Female,"NA
",Yes,272730.3999999985,NA,7683,NA,"{""product_choice"":""C""}",choice,cdt,trinary,attraction,1,washing machines,null,null,null,null,null,null,2,60,50,60,50,60,40,Average lifespan,Energy savings,NA,NA
NA,NA,NA,NA,NA,choice_trial_setup,html-keyboard-response,34,121623,0.0-4.0-0.15,190,1,2025-05-05T18:18:39Z,b60275e29fe2361ab97ac0ac217840d7,"Mozilla/5.0 (Macintosh; Intel Mac OS X 10_15_7) AppleWebKit/537.36 (KHTML, like Gecko) Chrome/116.0.0.0 Safari/537.36",Macintosh,Chrome,116.0.0.0,OS X,10_15_7,https://5puzkbbxv1.cognition.run/?sona_id=55862,"en-US,en;q=0.9",tt3qyd2gmpbqlzj,19,"[""Other""]",Yes,Female,"NA
",Yes,272730.3999999985,NA,null,<p></p>,null,choice,wbw,trinary,catch,null,laptops,70,70,15,10,25,40,2,NA,NA,NA,NA,NA,NA,NA,NA,NA,NA
NA,NA,NA,NA,NA,choice_trial,survey-html-form,35,130668,0.0-4.0-1.15,190,1,2025-05-05T18:18:39Z,b60275e29fe2361ab97ac0ac217840d7,"Mozilla/5.0 (Macintosh; Intel Mac OS X 10_15_7) AppleWebKit/537.36 (KHTML, like Gecko) Chrome/116.0.0.0 Safari/537.36",Macintosh,Chrome,116.0.0.0,OS X,10_15_7,https://5puzkbbxv1.cognition.run/?sona_id=55862,"en-US,en;q=0.9",tt3qyd2gmpbqlzj,19,"[""Other""]",Yes,Female,"NA
",Yes,272730.3999999985,NA,9040,NA,"{""product_choice"":""B""}",choice,wbw,trinary,catch,null,laptops,70,70,15,10,25,40,2,null,null,null,null,null,null,Processing speed,Memory (RAM),NA,NA
NA,NA,NA,NA,NA,choice_trial_setup,html-keyboard-response,36,130974,0.0-4.0-0.16,190,1,2025-05-05T18:18:39Z,b60275e29fe2361ab97ac0ac217840d7,"Mozilla/5.0 (Macintosh; Intel Mac OS X 10_15_7) AppleWebKit/537.36 (KHTML, like Gecko) Chrome/116.0.0.0 Safari/537.36",Macintosh,Chrome,116.0.0.0,OS X,10_15_7,https://5puzkbbxv1.cognition.run/?sona_id=55862,"en-US,en;q=0.9",tt3qyd2gmpbqlzj,19,"[""Other""]",Yes,Female,"NA
",Yes,272730.3999999985,NA,null,<p></p>,null,choice,bw,binary,catch,null,microwave ovens,95,55,45,45,null,null,1,NA,NA,NA,NA,NA,NA,NA,NA,NA,NA
NA,NA,NA,NA,NA,choice_trial,survey-html-form,37,137342,0.0-4.0-1.16,190,1,2025-05-05T18:18:39Z,b60275e29fe2361ab97ac0ac217840d7,"Mozilla/5.0 (Macintosh; Intel Mac OS X 10_15_7) AppleWebKit/537.36 (KHTML, like Gecko) Chrome/116.0.0.0 Safari/537.36",Macintosh,Chrome,116.0.0.0,OS X,10_15_7,https://5puzkbbxv1.cognition.run/?sona_id=55862,"en-US,en;q=0.9",tt3qyd2gmpbqlzj,19,"[""Other""]",Yes,Female,"NA
",Yes,272730.3999999985,NA,6363,NA,"{""product_choice"":""A""}",choice,bw,binary,catch,null,microwave ovens,95,55,45,45,null,null,1,null,null,null,null,null,null,Warranty,Cooking power,NA,NA
NA,NA,NA,NA,NA,choice_trial_setup,html-keyboard-response,38,137646,0.0-4.0-0.17,190,1,2025-05-05T18:18:39Z,b60275e29fe2361ab97ac0ac217840d7,"Mozilla/5.0 (Macintosh; Intel Mac OS X 10_15_7) AppleWebKit/537.36 (KHTML, like Gecko) Chrome/116.0.0.0 Safari/537.36",Macintosh,Chrome,116.0.0.0,OS X,10_15_7,https://5puzkbbxv1.cognition.run/?sona_id=55862,"en-US,en;q=0.9",tt3qyd2gmpbqlzj,19,"[""Other""]",Yes,Female,"NA
",Yes,272730.3999999985,NA,null,<p></p>,null,choice,tc,binary,repulsion,1,washing machines,null,null,null,null,null,null,1,NA,NA,NA,NA,NA,NA,NA,NA,NA,NA
NA,NA,NA,NA,NA,choice_trial,survey-html-form,39,140956,0.0-4.0-1.17,190,1,2025-05-05T18:18:39Z,b60275e29fe2361ab97ac0ac217840d7,"Mozilla/5.0 (Macintosh; Intel Mac OS X 10_15_7) AppleWebKit/537.36 (KHTML, like Gecko) Chrome/116.0.0.0 Safari/537.36",Macintosh,Chrome,116.0.0.0,OS X,10_15_7,https://5puzkbbxv1.cognition.run/?sona_id=55862,"en-US,en;q=0.9",tt3qyd2gmpbqlzj,19,"[""Other""]",Yes,Female,"NA
",Yes,272730.3999999985,NA,3307,NA,"{""product_choice"":""B""}",choice,tc,binary,repulsion,1,washing machines,null,null,null,null,null,null,1,100,90,null,30,40,null,Average lifespan,Energy savings,NA,NA
NA,NA,NA,NA,NA,choice_trial_setup,html-keyboard-response,40,141262,0.0-4.0-0.18,190,1,2025-05-05T18:18:39Z,b60275e29fe2361ab97ac0ac217840d7,"Mozilla/5.0 (Macintosh; Intel Mac OS X 10_15_7) AppleWebKit/537.36 (KHTML, like Gecko) Chrome/116.0.0.0 Safari/537.36",Macintosh,Chrome,116.0.0.0,OS X,10_15_7,https://5puzkbbxv1.cognition.run/?sona_id=55862,"en-US,en;q=0.9",tt3qyd2gmpbqlzj,19,"[""Other""]",Yes,Female,"NA
",Yes,272730.3999999985,NA,null,<p></p>,null,choice,ctd,trinary,attraction,1,televisions,null,null,null,null,null,null,1,NA,NA,NA,NA,NA,NA,NA,NA,NA,NA
NA,NA,NA,NA,NA,choice_trial,survey-html-form,41,149411,0.0-4.0-1.18,190,1,2025-05-05T18:18:39Z,b60275e29fe2361ab97ac0ac217840d7,"Mozilla/5.0 (Macintosh; Intel Mac OS X 10_15_7) AppleWebKit/537.36 (KHTML, like Gecko) Chrome/116.0.0.0 Safari/537.36",Macintosh,Chrome,116.0.0.0,OS X,10_15_7,https://5puzkbbxv1.cognition.run/?sona_id=55862,"en-US,en;q=0.9",tt3qyd2gmpbqlzj,19,"[""Other""]",Yes,Female,"NA
",Yes,272730.3999999985,NA,8145,NA,"{""product_choice"":""A""}",choice,ctd,trinary,attraction,1,televisions,null,null,null,null,null,null,1,60,50,60,50,60,40,Screen size,Average lifespan,NA,NA
NA,NA,NA,NA,NA,choice_trial_setup,html-keyboard-response,42,149720,0.0-4.0-0.19,190,1,2025-05-05T18:18:39Z,b60275e29fe2361ab97ac0ac217840d7,"Mozilla/5.0 (Macintosh; Intel Mac OS X 10_15_7) AppleWebKit/537.36 (KHTML, like Gecko) Chrome/116.0.0.0 Safari/537.36",Macintosh,Chrome,116.0.0.0,OS X,10_15_7,https://5puzkbbxv1.cognition.run/?sona_id=55862,"en-US,en;q=0.9",tt3qyd2gmpbqlzj,19,"[""Other""]",Yes,Female,"NA
",Yes,272730.3999999985,NA,null,<p></p>,null,choice,dtc,trinary,attraction,1,laptops,null,null,null,null,null,null,2,NA,NA,NA,NA,NA,NA,NA,NA,NA,NA
NA,NA,NA,NA,NA,choice_trial,survey-html-form,43,153959,0.0-4.0-1.19,190,1,2025-05-05T18:18:39Z,b60275e29fe2361ab97ac0ac217840d7,"Mozilla/5.0 (Macintosh; Intel Mac OS X 10_15_7) AppleWebKit/537.36 (KHTML, like Gecko) Chrome/116.0.0.0 Safari/537.36",Macintosh,Chrome,116.0.0.0,OS X,10_15_7,https://5puzkbbxv1.cognition.run/?sona_id=55862,"en-US,en;q=0.9",tt3qyd2gmpbqlzj,19,"[""Other""]",Yes,Female,"NA
",Yes,272730.3999999985,NA,4233,NA,"{""product_choice"":""C""}",choice,dtc,trinary,attraction,1,laptops,null,null,null,null,null,null,2,60,50,60,50,60,40,Processing speed,Memory (RAM),NA,NA
NA,NA,NA,NA,NA,choice_trial_setup,html-keyboard-response,44,154272,0.0-4.0-0.20,190,1,2025-05-05T18:18:39Z,b60275e29fe2361ab97ac0ac217840d7,"Mozilla/5.0 (Macintosh; Intel Mac OS X 10_15_7) AppleWebKit/537.36 (KHTML, like Gecko) Chrome/116.0.0.0 Safari/537.36",Macintosh,Chrome,116.0.0.0,OS X,10_15_7,https://5puzkbbxv1.cognition.run/?sona_id=55862,"en-US,en;q=0.9",tt3qyd2gmpbqlzj,19,"[""Other""]",Yes,Female,"NA
",Yes,272730.3999999985,NA,null,<p></p>,null,choice,bw,binary,catch,null,washing machines,60,50,15,10,null,null,2,NA,NA,NA,NA,NA,NA,NA,NA,NA,NA
NA,NA,NA,NA,NA,choice_trial,survey-html-form,45,156591,0.0-4.0-1.20,190,1,2025-05-05T18:18:39Z,b60275e29fe2361ab97ac0ac217840d7,"Mozilla/5.0 (Macintosh; Intel Mac OS X 10_15_7) AppleWebKit/537.36 (KHTML, like Gecko) Chrome/116.0.0.0 Safari/537.36",Macintosh,Chrome,116.0.0.0,OS X,10_15_7,https://5puzkbbxv1.cognition.run/?sona_id=55862,"en-US,en;q=0.9",tt3qyd2gmpbqlzj,19,"[""Other""]",Yes,Female,"NA
",Yes,272730.3999999985,NA,2315,NA,"{""product_choice"":""A""}",choice,bw,binary,catch,null,washing machines,60,50,15,10,null,null,2,null,null,null,null,null,null,Average lifespan,Energy savings,NA,NA
NA,NA,NA,NA,NA,choice_trial_setup,html-keyboard-response,46,156903,0.0-4.0-0.21,190,1,2025-05-05T18:18:39Z,b60275e29fe2361ab97ac0ac217840d7,"Mozilla/5.0 (Macintosh; Intel Mac OS X 10_15_7) AppleWebKit/537.36 (KHTML, like Gecko) Chrome/116.0.0.0 Safari/537.36",Macintosh,Chrome,116.0.0.0,OS X,10_15_7,https://5puzkbbxv1.cognition.run/?sona_id=55862,"en-US,en;q=0.9",tt3qyd2gmpbqlzj,19,"[""Other""]",Yes,Female,"NA
",Yes,272730.3999999985,NA,null,<p></p>,null,choice,bw,binary,catch,null,laptops,75,80,40,5,null,null,1,NA,NA,NA,NA,NA,NA,NA,NA,NA,NA
NA,NA,NA,NA,NA,choice_trial,survey-html-form,47,159036,0.0-4.0-1.21,190,1,2025-05-05T18:18:39Z,b60275e29fe2361ab97ac0ac217840d7,"Mozilla/5.0 (Macintosh; Intel Mac OS X 10_15_7) AppleWebKit/537.36 (KHTML, like Gecko) Chrome/116.0.0.0 Safari/537.36",Macintosh,Chrome,116.0.0.0,OS X,10_15_7,https://5puzkbbxv1.cognition.run/?sona_id=55862,"en-US,en;q=0.9",tt3qyd2gmpbqlzj,19,"[""Other""]",Yes,Female,"NA
",Yes,272730.3999999985,NA,2128,NA,"{""product_choice"":""A""}",choice,bw,binary,catch,null,laptops,75,80,40,5,null,null,1,null,null,null,null,null,null,Processing speed,Memory (RAM),NA,NA
NA,NA,NA,NA,NA,choice_trial_setup,html-keyboard-response,48,159343,0.0-4.0-0.22,190,1,2025-05-05T18:18:39Z,b60275e29fe2361ab97ac0ac217840d7,"Mozilla/5.0 (Macintosh; Intel Mac OS X 10_15_7) AppleWebKit/537.36 (KHTML, like Gecko) Chrome/116.0.0.0 Safari/537.36",Macintosh,Chrome,116.0.0.0,OS X,10_15_7,https://5puzkbbxv1.cognition.run/?sona_id=55862,"en-US,en;q=0.9",tt3qyd2gmpbqlzj,19,"[""Other""]",Yes,Female,"NA
",Yes,272730.3999999985,NA,null,<p></p>,null,choice,dtc,trinary,repulsion_A,1,televisions,null,null,null,null,null,null,2,NA,NA,NA,NA,NA,NA,NA,NA,NA,NA
NA,NA,NA,NA,NA,choice_trial,survey-html-form,49,162552,0.0-4.0-1.22,190,1,2025-05-05T18:18:39Z,b60275e29fe2361ab97ac0ac217840d7,"Mozilla/5.0 (Macintosh; Intel Mac OS X 10_15_7) AppleWebKit/537.36 (KHTML, like Gecko) Chrome/116.0.0.0 Safari/537.36",Macintosh,Chrome,116.0.0.0,OS X,10_15_7,https://5puzkbbxv1.cognition.run/?sona_id=55862,"en-US,en;q=0.9",tt3qyd2gmpbqlzj,19,"[""Other""]",Yes,Female,"NA
",Yes,272730.3999999985,NA,3205,NA,"{""product_choice"":""C""}",choice,dtc,trinary,repulsion_A,1,televisions,null,null,null,null,null,null,2,100,90,100,30,40,20,Screen size,Average lifespan,NA,NA
NA,NA,NA,NA,NA,choice_trial_setup,html-keyboard-response,50,162863,0.0-4.0-0.23,190,1,2025-05-05T18:18:39Z,b60275e29fe2361ab97ac0ac217840d7,"Mozilla/5.0 (Macintosh; Intel Mac OS X 10_15_7) AppleWebKit/537.36 (KHTML, like Gecko) Chrome/116.0.0.0 Safari/537.36",Macintosh,Chrome,116.0.0.0,OS X,10_15_7,https://5puzkbbxv1.cognition.run/?sona_id=55862,"en-US,en;q=0.9",tt3qyd2gmpbqlzj,19,"[""Other""]",Yes,Female,"NA
",Yes,272730.3999999985,NA,null,<p></p>,null,choice,dct,trinary,repulsion_B,2,washing machines,null,null,null,null,null,null,2,NA,NA,NA,NA,NA,NA,NA,NA,NA,NA
NA,NA,NA,NA,NA,choice_trial,survey-html-form,51,166448,0.0-4.0-1.23,190,1,2025-05-05T18:18:39Z,b60275e29fe2361ab97ac0ac217840d7,"Mozilla/5.0 (Macintosh; Intel Mac OS X 10_15_7) AppleWebKit/537.36 (KHTML, like Gecko) Chrome/116.0.0.0 Safari/537.36",Macintosh,Chrome,116.0.0.0,OS X,10_15_7,https://5puzkbbxv1.cognition.run/?sona_id=55862,"en-US,en;q=0.9",tt3qyd2gmpbqlzj,19,"[""Other""]",Yes,Female,"NA
",Yes,272730.3999999985,NA,3580,NA,"{""product_choice"":""C""}",choice,dct,trinary,repulsion_B,2,washing machines,null,null,null,null,null,null,2,40,30,40,90,100,80,Average lifespan,Energy savings,NA,NA
NA,NA,NA,NA,NA,choice_trial_setup,html-keyboard-response,52,166759,0.0-4.0-0.24,190,1,2025-05-05T18:18:39Z,b60275e29fe2361ab97ac0ac217840d7,"Mozilla/5.0 (Macintosh; Intel Mac OS X 10_15_7) AppleWebKit/537.36 (KHTML, like Gecko) Chrome/116.0.0.0 Safari/537.36",Macintosh,Chrome,116.0.0.0,OS X,10_15_7,https://5puzkbbxv1.cognition.run/?sona_id=55862,"en-US,en;q=0.9",tt3qyd2gmpbqlzj,19,"[""Other""]",Yes,Female,"NA
",Yes,272730.3999999985,NA,null,<p></p>,null,choice,ctd,trinary,repulsion_A,2,televisions,null,null,null,null,null,null,2,NA,NA,NA,NA,NA,NA,NA,NA,NA,NA
NA,NA,NA,NA,NA,choice_trial,survey-html-form,53,170996,0.0-4.0-1.24,190,1,2025-05-05T18:18:39Z,b60275e29fe2361ab97ac0ac217840d7,"Mozilla/5.0 (Macintosh; Intel Mac OS X 10_15_7) AppleWebKit/537.36 (KHTML, like Gecko) Chrome/116.0.0.0 Safari/537.36",Macintosh,Chrome,116.0.0.0,OS X,10_15_7,https://5puzkbbxv1.cognition.run/?sona_id=55862,"en-US,en;q=0.9",tt3qyd2gmpbqlzj,19,"[""Other""]",Yes,Female,"NA
",Yes,272730.3999999985,NA,4232,NA,"{""product_choice"":""A""}",choice,ctd,trinary,repulsion_A,2,televisions,null,null,null,null,null,null,2,30,40,20,100,90,100,Screen size,Average lifespan,NA,NA
NA,NA,NA,NA,NA,choice_trial_setup,html-keyboard-response,54,171304,0.0-4.0-0.25,190,1,2025-05-05T18:18:39Z,b60275e29fe2361ab97ac0ac217840d7,"Mozilla/5.0 (Macintosh; Intel Mac OS X 10_15_7) AppleWebKit/537.36 (KHTML, like Gecko) Chrome/116.0.0.0 Safari/537.36",Macintosh,Chrome,116.0.0.0,OS X,10_15_7,https://5puzkbbxv1.cognition.run/?sona_id=55862,"en-US,en;q=0.9",tt3qyd2gmpbqlzj,19,"[""Other""]",Yes,Female,"NA
",Yes,272730.3999999985,NA,null,<p></p>,null,choice,tc,binary,repulsion,2,microwave ovens,null,null,null,null,null,null,1,NA,NA,NA,NA,NA,NA,NA,NA,NA,NA
NA,NA,NA,NA,NA,choice_trial,survey-html-form,55,175214,0.0-4.0-1.25,190,1,2025-05-05T18:18:39Z,b60275e29fe2361ab97ac0ac217840d7,"Mozilla/5.0 (Macintosh; Intel Mac OS X 10_15_7) AppleWebKit/537.36 (KHTML, like Gecko) Chrome/116.0.0.0 Safari/537.36",Macintosh,Chrome,116.0.0.0,OS X,10_15_7,https://5puzkbbxv1.cognition.run/?sona_id=55862,"en-US,en;q=0.9",tt3qyd2gmpbqlzj,19,"[""Other""]",Yes,Female,"NA
",Yes,272730.3999999985,NA,3905,NA,"{""product_choice"":""B""}",choice,tc,binary,repulsion,2,microwave ovens,null,null,null,null,null,null,1,30,40,null,100,90,null,Warranty,Cooking power,NA,NA
NA,NA,NA,NA,NA,choice_trial_setup,html-keyboard-response,56,175530,0.0-4.0-0.26,190,1,2025-05-05T18:18:39Z,b60275e29fe2361ab97ac0ac217840d7,"Mozilla/5.0 (Macintosh; Intel Mac OS X 10_15_7) AppleWebKit/537.36 (KHTML, like Gecko) Chrome/116.0.0.0 Safari/537.36",Macintosh,Chrome,116.0.0.0,OS X,10_15_7,https://5puzkbbxv1.cognition.run/?sona_id=55862,"en-US,en;q=0.9",tt3qyd2gmpbqlzj,19,"[""Other""]",Yes,Female,"NA
",Yes,272730.3999999985,NA,null,<p></p>,null,choice,ctd,trinary,attraction,2,televisions,null,null,null,null,null,null,2,NA,NA,NA,NA,NA,NA,NA,NA,NA,NA
NA,NA,NA,NA,NA,choice_trial,survey-html-form,57,178937,0.0-4.0-1.26,190,1,2025-05-05T18:18:39Z,b60275e29fe2361ab97ac0ac217840d7,"Mozilla/5.0 (Macintosh; Intel Mac OS X 10_15_7) AppleWebKit/537.36 (KHTML, like Gecko) Chrome/116.0.0.0 Safari/537.36",Macintosh,Chrome,116.0.0.0,OS X,10_15_7,https://5puzkbbxv1.cognition.run/?sona_id=55862,"en-US,en;q=0.9",tt3qyd2gmpbqlzj,19,"[""Other""]",Yes,Female,"NA
",Yes,272730.3999999985,NA,3402,NA,"{""product_choice"":""B""}",choice,ctd,trinary,attraction,2,televisions,null,null,null,null,null,null,2,50,60,40,60,50,60,Screen size,Average lifespan,NA,NA
NA,NA,NA,NA,NA,choice_trial_setup,html-keyboard-response,58,179246,0.0-4.0-0.27,190,1,2025-05-05T18:18:39Z,b60275e29fe2361ab97ac0ac217840d7,"Mozilla/5.0 (Macintosh; Intel Mac OS X 10_15_7) AppleWebKit/537.36 (KHTML, like Gecko) Chrome/116.0.0.0 Safari/537.36",Macintosh,Chrome,116.0.0.0,OS X,10_15_7,https://5puzkbbxv1.cognition.run/?sona_id=55862,"en-US,en;q=0.9",tt3qyd2gmpbqlzj,19,"[""Other""]",Yes,Female,"NA
",Yes,272730.3999999985,NA,null,<p></p>,null,choice,ct,binary,attraction,NA,microwave ovens,null,null,null,null,null,null,2,NA,NA,NA,NA,NA,NA,NA,NA,NA,NA
NA,NA,NA,NA,NA,choice_trial,survey-html-form,59,180667,0.0-4.0-1.27,190,1,2025-05-05T18:18:39Z,b60275e29fe2361ab97ac0ac217840d7,"Mozilla/5.0 (Macintosh; Intel Mac OS X 10_15_7) AppleWebKit/537.36 (KHTML, like Gecko) Chrome/116.0.0.0 Safari/537.36",Macintosh,Chrome,116.0.0.0,OS X,10_15_7,https://5puzkbbxv1.cognition.run/?sona_id=55862,"en-US,en;q=0.9",tt3qyd2gmpbqlzj,19,"[""Other""]",Yes,Female,"NA
",Yes,272730.3999999985,NA,1417,NA,"{""product_choice"":""B""}",choice,ct,binary,attraction,NA,microwave ovens,null,null,null,null,null,null,2,60,50,null,50,60,null,Warranty,Cooking power,NA,NA
NA,NA,NA,NA,NA,choice_trial_setup,html-keyboard-response,60,180972,0.0-4.0-0.28,190,1,2025-05-05T18:18:39Z,b60275e29fe2361ab97ac0ac217840d7,"Mozilla/5.0 (Macintosh; Intel Mac OS X 10_15_7) AppleWebKit/537.36 (KHTML, like Gecko) Chrome/116.0.0.0 Safari/537.36",Macintosh,Chrome,116.0.0.0,OS X,10_15_7,https://5puzkbbxv1.cognition.run/?sona_id=55862,"en-US,en;q=0.9",tt3qyd2gmpbqlzj,19,"[""Other""]",Yes,Female,"NA
",Yes,272730.3999999985,NA,null,<p></p>,null,choice,wb,binary,catch,null,televisions,65,75,25,40,null,null,1,NA,NA,NA,NA,NA,NA,NA,NA,NA,NA
NA,NA,NA,NA,NA,choice_trial,survey-html-form,61,182386,0.0-4.0-1.28,190,1,2025-05-05T18:18:39Z,b60275e29fe2361ab97ac0ac217840d7,"Mozilla/5.0 (Macintosh; Intel Mac OS X 10_15_7) AppleWebKit/537.36 (KHTML, like Gecko) Chrome/116.0.0.0 Safari/537.36",Macintosh,Chrome,116.0.0.0,OS X,10_15_7,https://5puzkbbxv1.cognition.run/?sona_id=55862,"en-US,en;q=0.9",tt3qyd2gmpbqlzj,19,"[""Other""]",Yes,Female,"NA
",Yes,272730.3999999985,NA,1410,NA,"{""product_choice"":""B""}",choice,wb,binary,catch,null,televisions,65,75,25,40,null,null,1,null,null,null,null,null,null,Screen size,Average lifespan,NA,NA
NA,NA,NA,NA,NA,choice_trial_setup,html-keyboard-response,62,182696,0.0-4.0-0.29,190,1,2025-05-05T18:18:39Z,b60275e29fe2361ab97ac0ac217840d7,"Mozilla/5.0 (Macintosh; Intel Mac OS X 10_15_7) AppleWebKit/537.36 (KHTML, like Gecko) Chrome/116.0.0.0 Safari/537.36",Macintosh,Chrome,116.0.0.0,OS X,10_15_7,https://5puzkbbxv1.cognition.run/?sona_id=55862,"en-US,en;q=0.9",tt3qyd2gmpbqlzj,19,"[""Other""]",Yes,Female,"NA
",Yes,272730.3999999985,NA,null,<p></p>,null,choice,ct,binary,repulsion,1,laptops,null,null,null,null,null,null,2,NA,NA,NA,NA,NA,NA,NA,NA,NA,NA
NA,NA,NA,NA,NA,choice_trial,survey-html-form,63,184911,0.0-4.0-1.29,190,1,2025-05-05T18:18:39Z,b60275e29fe2361ab97ac0ac217840d7,"Mozilla/5.0 (Macintosh; Intel Mac OS X 10_15_7) AppleWebKit/537.36 (KHTML, like Gecko) Chrome/116.0.0.0 Safari/537.36",Macintosh,Chrome,116.0.0.0,OS X,10_15_7,https://5puzkbbxv1.cognition.run/?sona_id=55862,"en-US,en;q=0.9",tt3qyd2gmpbqlzj,19,"[""Other""]",Yes,Female,"NA
",Yes,272730.3999999985,NA,2210,NA,"{""product_choice"":""A""}",choice,ct,binary,repulsion,1,laptops,null,null,null,null,null,null,2,100,90,null,30,40,null,Processing speed,Memory (RAM),NA,NA
NA,NA,NA,NA,NA,choice_trial_setup,html-keyboard-response,64,185219,0.0-4.0-0.30,190,1,2025-05-05T18:18:39Z,b60275e29fe2361ab97ac0ac217840d7,"Mozilla/5.0 (Macintosh; Intel Mac OS X 10_15_7) AppleWebKit/537.36 (KHTML, like Gecko) Chrome/116.0.0.0 Safari/537.36",Macintosh,Chrome,116.0.0.0,OS X,10_15_7,https://5puzkbbxv1.cognition.run/?sona_id=55862,"en-US,en;q=0.9",tt3qyd2gmpbqlzj,19,"[""Other""]",Yes,Female,"NA
",Yes,272730.3999999985,NA,null,<p></p>,null,choice,ctd,trinary,repulsion_A,2,microwave ovens,null,null,null,null,null,null,1,NA,NA,NA,NA,NA,NA,NA,NA,NA,NA
NA,NA,NA,NA,NA,choice_trial,survey-html-form,65,187821,0.0-4.0-1.30,190,1,2025-05-05T18:18:39Z,b60275e29fe2361ab97ac0ac217840d7,"Mozilla/5.0 (Macintosh; Intel Mac OS X 10_15_7) AppleWebKit/537.36 (KHTML, like Gecko) Chrome/116.0.0.0 Safari/537.36",Macintosh,Chrome,116.0.0.0,OS X,10_15_7,https://5puzkbbxv1.cognition.run/?sona_id=55862,"en-US,en;q=0.9",tt3qyd2gmpbqlzj,19,"[""Other""]",Yes,Female,"NA
",Yes,272730.3999999985,NA,2597,NA,"{""product_choice"":""A""}",choice,ctd,trinary,repulsion_A,2,microwave ovens,null,null,null,null,null,null,1,30,40,20,100,90,100,Warranty,Cooking power,NA,NA
NA,NA,NA,NA,NA,choice_trial_setup,html-keyboard-response,66,188128,0.0-4.0-0.31,190,1,2025-05-05T18:18:39Z,b60275e29fe2361ab97ac0ac217840d7,"Mozilla/5.0 (Macintosh; Intel Mac OS X 10_15_7) AppleWebKit/537.36 (KHTML, like Gecko) Chrome/116.0.0.0 Safari/537.36",Macintosh,Chrome,116.0.0.0,OS X,10_15_7,https://5puzkbbxv1.cognition.run/?sona_id=55862,"en-US,en;q=0.9",tt3qyd2gmpbqlzj,19,"[""Other""]",Yes,Female,"NA
",Yes,272730.3999999985,NA,null,<p></p>,null,choice,ct,binary,repulsion,2,televisions,null,null,null,null,null,null,1,NA,NA,NA,NA,NA,NA,NA,NA,NA,NA
NA,NA,NA,NA,NA,choice_trial,survey-html-form,67,190195,0.0-4.0-1.31,190,1,2025-05-05T18:18:39Z,b60275e29fe2361ab97ac0ac217840d7,"Mozilla/5.0 (Macintosh; Intel Mac OS X 10_15_7) AppleWebKit/537.36 (KHTML, like Gecko) Chrome/116.0.0.0 Safari/537.36",Macintosh,Chrome,116.0.0.0,OS X,10_15_7,https://5puzkbbxv1.cognition.run/?sona_id=55862,"en-US,en;q=0.9",tt3qyd2gmpbqlzj,19,"[""Other""]",Yes,Female,"NA
",Yes,272730.3999999985,NA,2063,NA,"{""product_choice"":""B""}",choice,ct,binary,repulsion,2,televisions,null,null,null,null,null,null,1,30,40,null,100,90,null,Screen size,Average lifespan,NA,NA
NA,NA,NA,NA,NA,choice_trial_setup,html-keyboard-response,68,190505,0.0-4.0-0.32,190,1,2025-05-05T18:18:39Z,b60275e29fe2361ab97ac0ac217840d7,"Mozilla/5.0 (Macintosh; Intel Mac OS X 10_15_7) AppleWebKit/537.36 (KHTML, like Gecko) Chrome/116.0.0.0 Safari/537.36",Macintosh,Chrome,116.0.0.0,OS X,10_15_7,https://5puzkbbxv1.cognition.run/?sona_id=55862,"en-US,en;q=0.9",tt3qyd2gmpbqlzj,19,"[""Other""]",Yes,Female,"NA
",Yes,272730.3999999985,NA,null,<p></p>,null,choice,tcd,trinary,repulsion_B,1,microwave ovens,null,null,null,null,null,null,2,NA,NA,NA,NA,NA,NA,NA,NA,NA,NA
NA,NA,NA,NA,NA,choice_trial,survey-html-form,69,196697,0.0-4.0-1.32,190,1,2025-05-05T18:18:39Z,b60275e29fe2361ab97ac0ac217840d7,"Mozilla/5.0 (Macintosh; Intel Mac OS X 10_15_7) AppleWebKit/537.36 (KHTML, like Gecko) Chrome/116.0.0.0 Safari/537.36",Macintosh,Chrome,116.0.0.0,OS X,10_15_7,https://5puzkbbxv1.cognition.run/?sona_id=55862,"en-US,en;q=0.9",tt3qyd2gmpbqlzj,19,"[""Other""]",Yes,Female,"NA
",Yes,272730.3999999985,NA,6186,NA,"{""product_choice"":""A""}",choice,tcd,trinary,repulsion_B,1,microwave ovens,null,null,null,null,null,null,2,90,100,80,40,30,40,Warranty,Cooking power,NA,NA
NA,NA,NA,NA,NA,choice_trial_setup,html-keyboard-response,70,197001,0.0-4.0-0.33,190,1,2025-05-05T18:18:39Z,b60275e29fe2361ab97ac0ac217840d7,"Mozilla/5.0 (Macintosh; Intel Mac OS X 10_15_7) AppleWebKit/537.36 (KHTML, like Gecko) Chrome/116.0.0.0 Safari/537.36",Macintosh,Chrome,116.0.0.0,OS X,10_15_7,https://5puzkbbxv1.cognition.run/?sona_id=55862,"en-US,en;q=0.9",tt3qyd2gmpbqlzj,19,"[""Other""]",Yes,Female,"NA
",Yes,272730.3999999985,NA,null,<p></p>,null,choice,ctd,trinary,repulsion_B,1,laptops,null,null,null,null,null,null,1,NA,NA,NA,NA,NA,NA,NA,NA,NA,NA
NA,NA,NA,NA,NA,choice_trial,survey-html-form,71,198812,0.0-4.0-1.33,190,1,2025-05-05T18:18:39Z,b60275e29fe2361ab97ac0ac217840d7,"Mozilla/5.0 (Macintosh; Intel Mac OS X 10_15_7) AppleWebKit/537.36 (KHTML, like Gecko) Chrome/116.0.0.0 Safari/537.36",Macintosh,Chrome,116.0.0.0,OS X,10_15_7,https://5puzkbbxv1.cognition.run/?sona_id=55862,"en-US,en;q=0.9",tt3qyd2gmpbqlzj,19,"[""Other""]",Yes,Female,"NA
",Yes,272730.3999999985,NA,1807,NA,"{""product_choice"":""B""}",choice,ctd,trinary,repulsion_B,1,laptops,null,null,null,null,null,null,1,90,100,80,40,30,40,Processing speed,Memory (RAM),NA,NA
NA,NA,NA,NA,NA,choice_trial_setup,html-keyboard-response,72,199116,0.0-4.0-0.34,190,1,2025-05-05T18:18:39Z,b60275e29fe2361ab97ac0ac217840d7,"Mozilla/5.0 (Macintosh; Intel Mac OS X 10_15_7) AppleWebKit/537.36 (KHTML, like Gecko) Chrome/116.0.0.0 Safari/537.36",Macintosh,Chrome,116.0.0.0,OS X,10_15_7,https://5puzkbbxv1.cognition.run/?sona_id=55862,"en-US,en;q=0.9",tt3qyd2gmpbqlzj,19,"[""Other""]",Yes,Female,"NA
",Yes,272730.3999999985,NA,null,<p></p>,null,choice,tdc,trinary,repulsion_A,1,microwave ovens,null,null,null,null,null,null,1,NA,NA,NA,NA,NA,NA,NA,NA,NA,NA
NA,NA,NA,NA,NA,choice_trial,survey-html-form,73,203269,0.0-4.0-1.34,190,1,2025-05-05T18:18:39Z,b60275e29fe2361ab97ac0ac217840d7,"Mozilla/5.0 (Macintosh; Intel Mac OS X 10_15_7) AppleWebKit/537.36 (KHTML, like Gecko) Chrome/116.0.0.0 Safari/537.36",Macintosh,Chrome,116.0.0.0,OS X,10_15_7,https://5puzkbbxv1.cognition.run/?sona_id=55862,"en-US,en;q=0.9",tt3qyd2gmpbqlzj,19,"[""Other""]",Yes,Female,"NA
",Yes,272730.3999999985,NA,4149,NA,"{""product_choice"":""C""}",choice,tdc,trinary,repulsion_A,1,microwave ovens,null,null,null,null,null,null,1,100,90,100,30,40,20,Warranty,Cooking power,NA,NA
NA,NA,NA,NA,NA,choice_trial_setup,html-keyboard-response,74,203580,0.0-4.0-0.35,190,1,2025-05-05T18:18:39Z,b60275e29fe2361ab97ac0ac217840d7,"Mozilla/5.0 (Macintosh; Intel Mac OS X 10_15_7) AppleWebKit/537.36 (KHTML, like Gecko) Chrome/116.0.0.0 Safari/537.36",Macintosh,Chrome,116.0.0.0,OS X,10_15_7,https://5puzkbbxv1.cognition.run/?sona_id=55862,"en-US,en;q=0.9",tt3qyd2gmpbqlzj,19,"[""Other""]",Yes,Female,"NA
",Yes,272730.3999999985,NA,null,<p></p>,null,choice,wwb,trinary,catch,null,washing machines,80,80,50,10,25,5,2,NA,NA,NA,NA,NA,NA,NA,NA,NA,NA
NA,NA,NA,NA,NA,choice_trial,survey-html-form,75,206216,0.0-4.0-1.35,190,1,2025-05-05T18:18:39Z,b60275e29fe2361ab97ac0ac217840d7,"Mozilla/5.0 (Macintosh; Intel Mac OS X 10_15_7) AppleWebKit/537.36 (KHTML, like Gecko) Chrome/116.0.0.0 Safari/537.36",Macintosh,Chrome,116.0.0.0,OS X,10_15_7,https://5puzkbbxv1.cognition.run/?sona_id=55862,"en-US,en;q=0.9",tt3qyd2gmpbqlzj,19,"[""Other""]",Yes,Female,"NA
",Yes,272730.3999999985,NA,2630,NA,"{""product_choice"":""C""}",choice,wwb,trinary,catch,null,washing machines,80,80,50,10,25,5,2,null,null,null,null,null,null,Average lifespan,Energy savings,NA,NA
NA,NA,NA,NA,NA,choice_trial_setup,html-keyboard-response,76,206527,0.0-4.0-0.36,190,1,2025-05-05T18:18:39Z,b60275e29fe2361ab97ac0ac217840d7,"Mozilla/5.0 (Macintosh; Intel Mac OS X 10_15_7) AppleWebKit/537.36 (KHTML, like Gecko) Chrome/116.0.0.0 Safari/537.36",Macintosh,Chrome,116.0.0.0,OS X,10_15_7,https://5puzkbbxv1.cognition.run/?sona_id=55862,"en-US,en;q=0.9",tt3qyd2gmpbqlzj,19,"[""Other""]",Yes,Female,"NA
",Yes,272730.3999999985,NA,null,<p></p>,null,choice,wwb,trinary,catch,null,televisions,80,50,40,15,25,10,2,NA,NA,NA,NA,NA,NA,NA,NA,NA,NA
NA,NA,NA,NA,NA,choice_trial,survey-html-form,77,208186,0.0-4.0-1.36,190,1,2025-05-05T18:18:39Z,b60275e29fe2361ab97ac0ac217840d7,"Mozilla/5.0 (Macintosh; Intel Mac OS X 10_15_7) AppleWebKit/537.36 (KHTML, like Gecko) Chrome/116.0.0.0 Safari/537.36",Macintosh,Chrome,116.0.0.0,OS X,10_15_7,https://5puzkbbxv1.cognition.run/?sona_id=55862,"en-US,en;q=0.9",tt3qyd2gmpbqlzj,19,"[""Other""]",Yes,Female,"NA
",Yes,272730.3999999985,NA,1653,NA,"{""product_choice"":""C""}",choice,wwb,trinary,catch,null,televisions,80,50,40,15,25,10,2,null,null,null,null,null,null,Screen size,Average lifespan,NA,NA
NA,NA,NA,NA,NA,choice_trial_setup,html-keyboard-response,78,208494,0.0-4.0-0.37,190,1,2025-05-05T18:18:39Z,b60275e29fe2361ab97ac0ac217840d7,"Mozilla/5.0 (Macintosh; Intel Mac OS X 10_15_7) AppleWebKit/537.36 (KHTML, like Gecko) Chrome/116.0.0.0 Safari/537.36",Macintosh,Chrome,116.0.0.0,OS X,10_15_7,https://5puzkbbxv1.cognition.run/?sona_id=55862,"en-US,en;q=0.9",tt3qyd2gmpbqlzj,19,"[""Other""]",Yes,Female,"NA
",Yes,272730.3999999985,NA,null,<p></p>,null,choice,tc,binary,repulsion,2,laptops,null,null,null,null,null,null,1,NA,NA,NA,NA,NA,NA,NA,NA,NA,NA
NA,NA,NA,NA,NA,choice_trial,survey-html-form,79,211117,0.0-4.0-1.37,190,1,2025-05-05T18:18:39Z,b60275e29fe2361ab97ac0ac217840d7,"Mozilla/5.0 (Macintosh; Intel Mac OS X 10_15_7) AppleWebKit/537.36 (KHTML, like Gecko) Chrome/116.0.0.0 Safari/537.36",Macintosh,Chrome,116.0.0.0,OS X,10_15_7,https://5puzkbbxv1.cognition.run/?sona_id=55862,"en-US,en;q=0.9",tt3qyd2gmpbqlzj,19,"[""Other""]",Yes,Female,"NA
",Yes,272730.3999999985,NA,2618,NA,"{""product_choice"":""B""}",choice,tc,binary,repulsion,2,laptops,null,null,null,null,null,null,1,30,40,null,100,90,null,Processing speed,Memory (RAM),NA,NA
NA,NA,NA,NA,NA,choice_trial_setup,html-keyboard-response,80,211426,0.0-4.0-0.38,190,1,2025-05-05T18:18:39Z,b60275e29fe2361ab97ac0ac217840d7,"Mozilla/5.0 (Macintosh; Intel Mac OS X 10_15_7) AppleWebKit/537.36 (KHTML, like Gecko) Chrome/116.0.0.0 Safari/537.36",Macintosh,Chrome,116.0.0.0,OS X,10_15_7,https://5puzkbbxv1.cognition.run/?sona_id=55862,"en-US,en;q=0.9",tt3qyd2gmpbqlzj,19,"[""Other""]",Yes,Female,"NA
",Yes,272730.3999999985,NA,null,<p></p>,null,choice,dct,trinary,attraction,2,laptops,null,null,null,null,null,null,2,NA,NA,NA,NA,NA,NA,NA,NA,NA,NA
NA,NA,NA,NA,NA,choice_trial,survey-html-form,81,213098,0.0-4.0-1.38,190,1,2025-05-05T18:18:39Z,b60275e29fe2361ab97ac0ac217840d7,"Mozilla/5.0 (Macintosh; Intel Mac OS X 10_15_7) AppleWebKit/537.36 (KHTML, like Gecko) Chrome/116.0.0.0 Safari/537.36",Macintosh,Chrome,116.0.0.0,OS X,10_15_7,https://5puzkbbxv1.cognition.run/?sona_id=55862,"en-US,en;q=0.9",tt3qyd2gmpbqlzj,19,"[""Other""]",Yes,Female,"NA
",Yes,272730.3999999985,NA,1667,NA,"{""product_choice"":""B""}",choice,dct,trinary,attraction,2,laptops,null,null,null,null,null,null,2,50,60,40,60,50,60,Processing speed,Memory (RAM),NA,NA
NA,NA,NA,NA,NA,choice_trial_setup,html-keyboard-response,82,213408,0.0-4.0-0.39,190,1,2025-05-05T18:18:39Z,b60275e29fe2361ab97ac0ac217840d7,"Mozilla/5.0 (Macintosh; Intel Mac OS X 10_15_7) AppleWebKit/537.36 (KHTML, like Gecko) Chrome/116.0.0.0 Safari/537.36",Macintosh,Chrome,116.0.0.0,OS X,10_15_7,https://5puzkbbxv1.cognition.run/?sona_id=55862,"en-US,en;q=0.9",tt3qyd2gmpbqlzj,19,"[""Other""]",Yes,Female,"NA
",Yes,272730.3999999985,NA,null,<p></p>,null,choice,tdc,trinary,repulsion_A,1,washing machines,null,null,null,null,null,null,1,NA,NA,NA,NA,NA,NA,NA,NA,NA,NA
NA,NA,NA,NA,NA,choice_trial,survey-html-form,83,214864,0.0-4.0-1.39,190,1,2025-05-05T18:18:39Z,b60275e29fe2361ab97ac0ac217840d7,"Mozilla/5.0 (Macintosh; Intel Mac OS X 10_15_7) AppleWebKit/537.36 (KHTML, like Gecko) Chrome/116.0.0.0 Safari/537.36",Macintosh,Chrome,116.0.0.0,OS X,10_15_7,https://5puzkbbxv1.cognition.run/?sona_id=55862,"en-US,en;q=0.9",tt3qyd2gmpbqlzj,19,"[""Other""]",Yes,Female,"NA
",Yes,272730.3999999985,NA,1450,NA,"{""product_choice"":""A""}",choice,tdc,trinary,repulsion_A,1,washing machines,null,null,null,null,null,null,1,100,90,100,30,40,20,Average lifespan,Energy savings,NA,NA
NA,NA,NA,NA,NA,choice_trial_setup,html-keyboard-response,84,215175,0.0-4.0-0.40,190,1,2025-05-05T18:18:39Z,b60275e29fe2361ab97ac0ac217840d7,"Mozilla/5.0 (Macintosh; Intel Mac OS X 10_15_7) AppleWebKit/537.36 (KHTML, like Gecko) Chrome/116.0.0.0 Safari/537.36",Macintosh,Chrome,116.0.0.0,OS X,10_15_7,https://5puzkbbxv1.cognition.run/?sona_id=55862,"en-US,en;q=0.9",tt3qyd2gmpbqlzj,19,"[""Other""]",Yes,Female,"NA
",Yes,272730.3999999985,NA,null,<p></p>,null,choice,wbw,trinary,catch,null,microwave ovens,50,85,25,25,10,40,2,NA,NA,NA,NA,NA,NA,NA,NA,NA,NA
NA,NA,NA,NA,NA,choice_trial,survey-html-form,85,216339,0.0-4.0-1.40,190,1,2025-05-05T18:18:39Z,b60275e29fe2361ab97ac0ac217840d7,"Mozilla/5.0 (Macintosh; Intel Mac OS X 10_15_7) AppleWebKit/537.36 (KHTML, like Gecko) Chrome/116.0.0.0 Safari/537.36",Macintosh,Chrome,116.0.0.0,OS X,10_15_7,https://5puzkbbxv1.cognition.run/?sona_id=55862,"en-US,en;q=0.9",tt3qyd2gmpbqlzj,19,"[""Other""]",Yes,Female,"NA
",Yes,272730.3999999985,NA,1158,NA,"{""product_choice"":""B""}",choice,wbw,trinary,catch,null,microwave ovens,50,85,25,25,10,40,2,null,null,null,null,null,null,Warranty,Cooking power,NA,NA
NA,NA,NA,NA,NA,choice_trial_setup,html-keyboard-response,86,216647,0.0-4.0-0.41,190,1,2025-05-05T18:18:39Z,b60275e29fe2361ab97ac0ac217840d7,"Mozilla/5.0 (Macintosh; Intel Mac OS X 10_15_7) AppleWebKit/537.36 (KHTML, like Gecko) Chrome/116.0.0.0 Safari/537.36",Macintosh,Chrome,116.0.0.0,OS X,10_15_7,https://5puzkbbxv1.cognition.run/?sona_id=55862,"en-US,en;q=0.9",tt3qyd2gmpbqlzj,19,"[""Other""]",Yes,Female,"NA
",Yes,272730.3999999985,NA,null,<p></p>,null,choice,dct,trinary,repulsion_A,2,washing machines,null,null,null,null,null,null,2,NA,NA,NA,NA,NA,NA,NA,NA,NA,NA
NA,NA,NA,NA,NA,choice_trial,survey-html-form,87,218234,0.0-4.0-1.41,190,1,2025-05-05T18:18:39Z,b60275e29fe2361ab97ac0ac217840d7,"Mozilla/5.0 (Macintosh; Intel Mac OS X 10_15_7) AppleWebKit/537.36 (KHTML, like Gecko) Chrome/116.0.0.0 Safari/537.36",Macintosh,Chrome,116.0.0.0,OS X,10_15_7,https://5puzkbbxv1.cognition.run/?sona_id=55862,"en-US,en;q=0.9",tt3qyd2gmpbqlzj,19,"[""Other""]",Yes,Female,"NA
",Yes,272730.3999999985,NA,1583,NA,"{""product_choice"":""B""}",choice,dct,trinary,repulsion_A,2,washing machines,null,null,null,null,null,null,2,30,40,20,100,90,100,Average lifespan,Energy savings,NA,NA
NA,NA,NA,NA,NA,choice_trial_setup,html-keyboard-response,88,218544,0.0-4.0-0.42,190,1,2025-05-05T18:18:39Z,b60275e29fe2361ab97ac0ac217840d7,"Mozilla/5.0 (Macintosh; Intel Mac OS X 10_15_7) AppleWebKit/537.36 (KHTML, like Gecko) Chrome/116.0.0.0 Safari/537.36",Macintosh,Chrome,116.0.0.0,OS X,10_15_7,https://5puzkbbxv1.cognition.run/?sona_id=55862,"en-US,en;q=0.9",tt3qyd2gmpbqlzj,19,"[""Other""]",Yes,Female,"NA
",Yes,272730.3999999985,NA,null,<p></p>,null,choice,tc,binary,attraction,NA,laptops,null,null,null,null,null,null,1,NA,NA,NA,NA,NA,NA,NA,NA,NA,NA
NA,NA,NA,NA,NA,choice_trial,survey-html-form,89,220023,0.0-4.0-1.42,190,1,2025-05-05T18:18:39Z,b60275e29fe2361ab97ac0ac217840d7,"Mozilla/5.0 (Macintosh; Intel Mac OS X 10_15_7) AppleWebKit/537.36 (KHTML, like Gecko) Chrome/116.0.0.0 Safari/537.36",Macintosh,Chrome,116.0.0.0,OS X,10_15_7,https://5puzkbbxv1.cognition.run/?sona_id=55862,"en-US,en;q=0.9",tt3qyd2gmpbqlzj,19,"[""Other""]",Yes,Female,"NA
",Yes,272730.3999999985,NA,1474,NA,"{""product_choice"":""B""}",choice,tc,binary,attraction,NA,laptops,null,null,null,null,null,null,1,60,50,null,50,60,null,Processing speed,Memory (RAM),NA,NA
NA,NA,NA,NA,NA,choice_trial_setup,html-keyboard-response,90,220328,0.0-4.0-0.43,190,1,2025-05-05T18:18:39Z,b60275e29fe2361ab97ac0ac217840d7,"Mozilla/5.0 (Macintosh; Intel Mac OS X 10_15_7) AppleWebKit/537.36 (KHTML, like Gecko) Chrome/116.0.0.0 Safari/537.36",Macintosh,Chrome,116.0.0.0,OS X,10_15_7,https://5puzkbbxv1.cognition.run/?sona_id=55862,"en-US,en;q=0.9",tt3qyd2gmpbqlzj,19,"[""Other""]",Yes,Female,"NA
",Yes,272730.3999999985,NA,null,<p></p>,null,choice,tc,binary,repulsion,1,microwave ovens,null,null,null,null,null,null,1,NA,NA,NA,NA,NA,NA,NA,NA,NA,NA
NA,NA,NA,NA,NA,choice_trial,survey-html-form,91,223700,0.0-4.0-1.43,190,1,2025-05-05T18:18:39Z,b60275e29fe2361ab97ac0ac217840d7,"Mozilla/5.0 (Macintosh; Intel Mac OS X 10_15_7) AppleWebKit/537.36 (KHTML, like Gecko) Chrome/116.0.0.0 Safari/537.36",Macintosh,Chrome,116.0.0.0,OS X,10_15_7,https://5puzkbbxv1.cognition.run/?sona_id=55862,"en-US,en;q=0.9",tt3qyd2gmpbqlzj,19,"[""Other""]",Yes,Female,"NA
",Yes,272730.3999999985,NA,3368,NA,"{""product_choice"":""B""}",choice,tc,binary,repulsion,1,microwave ovens,null,null,null,null,null,null,1,100,90,null,30,40,null,Warranty,Cooking power,NA,NA
NA,NA,NA,NA,NA,post_trials_message,html-button-response,92,225678,0.0-5.0,190,1,2025-05-05T18:18:39Z,b60275e29fe2361ab97ac0ac217840d7,"Mozilla/5.0 (Macintosh; Intel Mac OS X 10_15_7) AppleWebKit/537.36 (KHTML, like Gecko) Chrome/116.0.0.0 Safari/537.36",Macintosh,Chrome,116.0.0.0,OS X,10_15_7,https://5puzkbbxv1.cognition.run/?sona_id=55862,"en-US,en;q=0.9",tt3qyd2gmpbqlzj,19,"[""Other""]",Yes,Female,"NA
",Yes,272730.3999999985,NA,1973,<p> <b>Thank you for your patience!</b></p><p>  The study will be done after completing a brief form. </p>,0,NA,NA,NA,NA,NA,NA,NA,NA,NA,NA,NA,NA,NA,NA,NA,NA,NA,NA,NA,NA,NA,NA,NA
NA,NA,NA,NA,NA,survey_message,survey-text,93,240761,0.0-6.0,190,1,2025-05-05T18:18:39Z,b60275e29fe2361ab97ac0ac217840d7,"Mozilla/5.0 (Macintosh; Intel Mac OS X 10_15_7) AppleWebKit/537.36 (KHTML, like Gecko) Chrome/116.0.0.0 Safari/537.36",Macintosh,Chrome,116.0.0.0,OS X,10_15_7,https://5puzkbbxv1.cognition.run/?sona_id=55862,"en-US,en;q=0.9",tt3qyd2gmpbqlzj,19,"[""Other""]",Yes,Female,"NA
",Yes,272730.3999999985,NA,15076,NA,"{""Q0"":""What seemed best""}",NA,NA,NA,NA,NA,NA,NA,NA,NA,NA,NA,NA,NA,NA,NA,NA,NA,NA,NA,NA,NA,What seemed best,NA
NA,NA,NA,NA,NA,demo_age,survey-text,94,242524,0.0-7.0,190,1,2025-05-05T18:18:39Z,b60275e29fe2361ab97ac0ac217840d7,"Mozilla/5.0 (Macintosh; Intel Mac OS X 10_15_7) AppleWebKit/537.36 (KHTML, like Gecko) Chrome/116.0.0.0 Safari/537.36",Macintosh,Chrome,116.0.0.0,OS X,10_15_7,https://5puzkbbxv1.cognition.run/?sona_id=55862,"en-US,en;q=0.9",tt3qyd2gmpbqlzj,19,"[""Other""]",Yes,Female,"NA
",Yes,272730.3999999985,NA,1756,NA,"{""Q0"":""19""}",NA,NA,NA,NA,NA,NA,NA,NA,NA,NA,NA,NA,NA,NA,NA,NA,NA,NA,NA,NA,NA,NA,NA
NA,NA,NA,NA,NA,demo_race,survey-multi-select,95,246671,0.0-8.0,190,1,2025-05-05T18:18:39Z,b60275e29fe2361ab97ac0ac217840d7,"Mozilla/5.0 (Macintosh; Intel Mac OS X 10_15_7) AppleWebKit/537.36 (KHTML, like Gecko) Chrome/116.0.0.0 Safari/537.36",Macintosh,Chrome,116.0.0.0,OS X,10_15_7,https://5puzkbbxv1.cognition.run/?sona_id=55862,"en-US,en;q=0.9",tt3qyd2gmpbqlzj,19,"[""Other""]",Yes,Female,"NA
",Yes,272730.3999999985,NA,4140,NA,"{""Q0"":[""Other""]}",NA,NA,NA,NA,NA,NA,NA,NA,NA,NA,NA,NA,NA,NA,NA,NA,NA,NA,NA,NA,NA,NA,[0]
NA,NA,NA,NA,NA,demo_ethnicity_gender,survey-multi-choice,96,250459,0.0-9.0,190,1,2025-05-05T18:18:39Z,b60275e29fe2361ab97ac0ac217840d7,"Mozilla/5.0 (Macintosh; Intel Mac OS X 10_15_7) AppleWebKit/537.36 (KHTML, like Gecko) Chrome/116.0.0.0 Safari/537.36",Macintosh,Chrome,116.0.0.0,OS X,10_15_7,https://5puzkbbxv1.cognition.run/?sona_id=55862,"en-US,en;q=0.9",tt3qyd2gmpbqlzj,19,"[""Other""]",Yes,Female,"NA
",Yes,272730.3999999985,NA,3781,NA,"{""Q0"":""Yes"",""Q1"":""Female""}",NA,NA,NA,NA,NA,NA,NA,NA,NA,NA,NA,NA,NA,NA,NA,NA,NA,NA,NA,NA,NA,NA,"[0,1]"
NA,NA,NA,NA,NA,demo_countries,survey-text,97,254497,0.0-10.0,190,1,2025-05-05T18:18:39Z,b60275e29fe2361ab97ac0ac217840d7,"Mozilla/5.0 (Macintosh; Intel Mac OS X 10_15_7) AppleWebKit/537.36 (KHTML, like Gecko) Chrome/116.0.0.0 Safari/537.36",Macintosh,Chrome,116.0.0.0,OS X,10_15_7,https://5puzkbbxv1.cognition.run/?sona_id=55862,"en-US,en;q=0.9",tt3qyd2gmpbqlzj,19,"[""Other""]",Yes,Female,"NA
",Yes,272730.3999999985,NA,3953,NA,"{""Q0"":""NA\n""}",NA,NA,NA,NA,NA,NA,NA,NA,NA,NA,NA,NA,NA,NA,NA,NA,NA,NA,NA,NA,NA,NA,NA
NA,NA,NA,NA,NA,demo_prev_study,survey-multi-choice,98,259765,0.0-11.0,190,1,2025-05-05T18:18:39Z,b60275e29fe2361ab97ac0ac217840d7,"Mozilla/5.0 (Macintosh; Intel Mac OS X 10_15_7) AppleWebKit/537.36 (KHTML, like Gecko) Chrome/116.0.0.0 Safari/537.36",Macintosh,Chrome,116.0.0.0,OS X,10_15_7,https://5puzkbbxv1.cognition.run/?sona_id=55862,"en-US,en;q=0.9",tt3qyd2gmpbqlzj,19,"[""Other""]",Yes,Female,"NA
",Yes,272730.3999999985,NA,5261,NA,"{""Q0"":""Yes""}",NA,NA,NA,NA,NA,NA,NA,NA,NA,NA,NA,NA,NA,NA,NA,NA,NA,NA,NA,NA,NA,NA,[0]
NA,NA,NA,NA,NA,post_survey_message,html-keyboard-response,99,263257,0.0-12.0,190,1,2025-05-05T18:18:39Z,b60275e29fe2361ab97ac0ac217840d7,"Mozilla/5.0 (Macintosh; Intel Mac OS X 10_15_7) AppleWebKit/537.36 (KHTML, like Gecko) Chrome/116.0.0.0 Safari/537.36",Macintosh,Chrome,116.0.0.0,OS X,10_15_7,https://5puzkbbxv1.cognition.run/?sona_id=55862,"en-US,en;q=0.9",tt3qyd2gmpbqlzj,19,"[""Other""]",Yes,Female,"NA
",Yes,272730.3999999985,NA,3487,NA,j,NA,NA,NA,NA,NA,NA,NA,NA,NA,NA,NA,NA,NA,NA,NA,NA,NA,NA,NA,NA,NA,NA,NA
NA,NA,NA,NA,NA,debrief,image-keyboard-response,100,272752,0.0-13.0,190,1,2025-05-05T18:18:39Z,b60275e29fe2361ab97ac0ac217840d7,"Mozilla/5.0 (Macintosh; Intel Mac OS X 10_15_7) AppleWebKit/537.36 (KHTML, like Gecko) Chrome/116.0.0.0 Safari/537.36",Macintosh,Chrome,116.0.0.0,OS X,10_15_7,https://5puzkbbxv1.cognition.run/?sona_id=55862,"en-US,en;q=0.9",tt3qyd2gmpbqlzj,19,"[""Other""]",Yes,Female,"NA
",Yes,272730.3999999985,NA,9479,Judg_choice_debrief.png,p,NA,NA,NA,NA,NA,NA,NA,NA,NA,NA,NA,NA,NA,NA,NA,NA,NA,NA,NA,NA,NA,NA,NA
