success,timeout,failed_images,failed_audio,failed_video,screen_id,trial_type,trial_index,time_elapsed,internal_node_id,run_id,condition,recorded_at,source_code_version,user_agent,device,browser,browser_version,platform,platform_version,referer,accept_language,ppt_id,age,race,ethnicity,gender,other_countries,prev_study,exp_duration,view_history,rt,stimulus,response,phase,order,set,effect,t_high,category,d1_best,d2_best,d1_worst1,d2_worst1,d1_worst2,d2_worst2,first_dim,d1_t,d1_c,d1_d,d2_t,d2_c,d2_d,d1_name,d2_name,strategy_response,question_order
TRUE,FALSE,[],[],[],img preload,preload,0,283,0.0-0.0,193,1,2025-05-05T18:46:09Z,b60275e29fe2361ab97ac0ac217840d7,"Mozilla/5.0 (X11; CrOS x86_64 14541.0.0) AppleWebKit/537.36 (KHTML, like Gecko) Chrome/135.0.0.0 Safari/537.36",WebKit,Chrome,135.0.0.0,ChromeOS,14541.0.0,https://5puzkbbxv1.cognition.run/?sona_id=57542,"en-US,en;q=0.9",cfee7etumn4e02k,19,"[""White""]",No,Female,NA,No,439908.3999999999,NA,NA,NA,NA,NA,NA,NA,NA,NA,NA,NA,NA,NA,NA,NA,NA,NA,NA,NA,NA,NA,NA,NA,NA,NA,NA,NA
NA,NA,NA,NA,NA,computer_message,instructions,1,3129,0.0-1.0,193,1,2025-05-05T18:46:09Z,b60275e29fe2361ab97ac0ac217840d7,"Mozilla/5.0 (X11; CrOS x86_64 14541.0.0) AppleWebKit/537.36 (KHTML, like Gecko) Chrome/135.0.0.0 Safari/537.36",WebKit,Chrome,135.0.0.0,ChromeOS,14541.0.0,https://5puzkbbxv1.cognition.run/?sona_id=57542,"en-US,en;q=0.9",cfee7etumn4e02k,19,"[""White""]",No,Female,NA,No,439908.3999999999,"[{""page_index"":0,""viewing_time"":2842}]",2843,NA,NA,NA,NA,NA,NA,NA,NA,NA,NA,NA,NA,NA,NA,NA,NA,NA,NA,NA,NA,NA,NA,NA,NA,NA
TRUE,NA,NA,NA,NA,NA,fullscreen,2,5847,0.0-2.0,193,1,2025-05-05T18:46:09Z,b60275e29fe2361ab97ac0ac217840d7,"Mozilla/5.0 (X11; CrOS x86_64 14541.0.0) AppleWebKit/537.36 (KHTML, like Gecko) Chrome/135.0.0.0 Safari/537.36",WebKit,Chrome,135.0.0.0,ChromeOS,14541.0.0,https://5puzkbbxv1.cognition.run/?sona_id=57542,"en-US,en;q=0.9",cfee7etumn4e02k,19,"[""White""]",No,Female,NA,No,439908.3999999999,NA,1714,NA,NA,NA,NA,NA,NA,NA,NA,NA,NA,NA,NA,NA,NA,NA,NA,NA,NA,NA,NA,NA,NA,NA,NA,NA
NA,NA,NA,NA,NA,choice_instructions,instructions,3,32181,0.0-3.0,193,1,2025-05-05T18:46:09Z,b60275e29fe2361ab97ac0ac217840d7,"Mozilla/5.0 (X11; CrOS x86_64 14541.0.0) AppleWebKit/537.36 (KHTML, like Gecko) Chrome/135.0.0.0 Safari/537.36",WebKit,Chrome,135.0.0.0,ChromeOS,14541.0.0,https://5puzkbbxv1.cognition.run/?sona_id=57542,"en-US,en;q=0.9",cfee7etumn4e02k,19,"[""White""]",No,Female,NA,No,439908.3999999999,"[{""page_index"":0,""viewing_time"":1227},{""page_index"":1,""viewing_time"":2812},{""page_index"":2,""viewing_time"":3836},{""page_index"":3,""viewing_time"":2651},{""page_index"":4,""viewing_time"":1808},{""page_index"":5,""viewing_time"":7994},{""page_index"":6,""viewing_time"":6006}]",26334,NA,NA,NA,NA,NA,NA,NA,NA,NA,NA,NA,NA,NA,NA,NA,NA,NA,NA,NA,NA,NA,NA,NA,NA,NA
NA,NA,NA,NA,NA,choice_trial_setup,html-keyboard-response,4,32485,0.0-4.0-0.0,193,1,2025-05-05T18:46:09Z,b60275e29fe2361ab97ac0ac217840d7,"Mozilla/5.0 (X11; CrOS x86_64 14541.0.0) AppleWebKit/537.36 (KHTML, like Gecko) Chrome/135.0.0.0 Safari/537.36",WebKit,Chrome,135.0.0.0,ChromeOS,14541.0.0,https://5puzkbbxv1.cognition.run/?sona_id=57542,"en-US,en;q=0.9",cfee7etumn4e02k,19,"[""White""]",No,Female,NA,No,439908.3999999999,NA,null,<p></p>,null,choice,dtc,trinary,repulsion_B,2,laptops,null,null,null,null,null,null,1,NA,NA,NA,NA,NA,NA,NA,NA,NA,NA
NA,NA,NA,NA,NA,choice_trial,survey-html-form,5,47407,0.0-4.0-1.0,193,1,2025-05-05T18:46:09Z,b60275e29fe2361ab97ac0ac217840d7,"Mozilla/5.0 (X11; CrOS x86_64 14541.0.0) AppleWebKit/537.36 (KHTML, like Gecko) Chrome/135.0.0.0 Safari/537.36",WebKit,Chrome,135.0.0.0,ChromeOS,14541.0.0,https://5puzkbbxv1.cognition.run/?sona_id=57542,"en-US,en;q=0.9",cfee7etumn4e02k,19,"[""White""]",No,Female,NA,No,439908.3999999999,NA,14910,NA,"{""product_choice"":""B""}",choice,dtc,trinary,repulsion_B,2,laptops,null,null,null,null,null,null,1,40,30,40,90,100,80,Processing speed,Memory (RAM),NA,NA
NA,NA,NA,NA,NA,choice_trial_setup,html-keyboard-response,6,47709,0.0-4.0-0.1,193,1,2025-05-05T18:46:09Z,b60275e29fe2361ab97ac0ac217840d7,"Mozilla/5.0 (X11; CrOS x86_64 14541.0.0) AppleWebKit/537.36 (KHTML, like Gecko) Chrome/135.0.0.0 Safari/537.36",WebKit,Chrome,135.0.0.0,ChromeOS,14541.0.0,https://5puzkbbxv1.cognition.run/?sona_id=57542,"en-US,en;q=0.9",cfee7etumn4e02k,19,"[""White""]",No,Female,NA,No,439908.3999999999,NA,null,<p></p>,null,choice,ct,binary,repulsion,2,washing machines,null,null,null,null,null,null,2,NA,NA,NA,NA,NA,NA,NA,NA,NA,NA
NA,NA,NA,NA,NA,choice_trial,survey-html-form,7,58281,0.0-4.0-1.1,193,1,2025-05-05T18:46:09Z,b60275e29fe2361ab97ac0ac217840d7,"Mozilla/5.0 (X11; CrOS x86_64 14541.0.0) AppleWebKit/537.36 (KHTML, like Gecko) Chrome/135.0.0.0 Safari/537.36",WebKit,Chrome,135.0.0.0,ChromeOS,14541.0.0,https://5puzkbbxv1.cognition.run/?sona_id=57542,"en-US,en;q=0.9",cfee7etumn4e02k,19,"[""White""]",No,Female,NA,No,439908.3999999999,NA,10569,NA,"{""product_choice"":""A""}",choice,ct,binary,repulsion,2,washing machines,null,null,null,null,null,null,2,30,40,null,100,90,null,Average lifespan,Energy savings,NA,NA
NA,NA,NA,NA,NA,choice_trial_setup,html-keyboard-response,8,58584,0.0-4.0-0.2,193,1,2025-05-05T18:46:09Z,b60275e29fe2361ab97ac0ac217840d7,"Mozilla/5.0 (X11; CrOS x86_64 14541.0.0) AppleWebKit/537.36 (KHTML, like Gecko) Chrome/135.0.0.0 Safari/537.36",WebKit,Chrome,135.0.0.0,ChromeOS,14541.0.0,https://5puzkbbxv1.cognition.run/?sona_id=57542,"en-US,en;q=0.9",cfee7etumn4e02k,19,"[""White""]",No,Female,NA,No,439908.3999999999,NA,null,<p></p>,null,choice,ct,binary,repulsion,1,televisions,null,null,null,null,null,null,1,NA,NA,NA,NA,NA,NA,NA,NA,NA,NA
NA,NA,NA,NA,NA,choice_trial,survey-html-form,9,66277,0.0-4.0-1.2,193,1,2025-05-05T18:46:09Z,b60275e29fe2361ab97ac0ac217840d7,"Mozilla/5.0 (X11; CrOS x86_64 14541.0.0) AppleWebKit/537.36 (KHTML, like Gecko) Chrome/135.0.0.0 Safari/537.36",WebKit,Chrome,135.0.0.0,ChromeOS,14541.0.0,https://5puzkbbxv1.cognition.run/?sona_id=57542,"en-US,en;q=0.9",cfee7etumn4e02k,19,"[""White""]",No,Female,NA,No,439908.3999999999,NA,7686,NA,"{""product_choice"":""A""}",choice,ct,binary,repulsion,1,televisions,null,null,null,null,null,null,1,100,90,null,30,40,null,Screen size,Average lifespan,NA,NA
NA,NA,NA,NA,NA,choice_trial_setup,html-keyboard-response,10,66579,0.0-4.0-0.3,193,1,2025-05-05T18:46:09Z,b60275e29fe2361ab97ac0ac217840d7,"Mozilla/5.0 (X11; CrOS x86_64 14541.0.0) AppleWebKit/537.36 (KHTML, like Gecko) Chrome/135.0.0.0 Safari/537.36",WebKit,Chrome,135.0.0.0,ChromeOS,14541.0.0,https://5puzkbbxv1.cognition.run/?sona_id=57542,"en-US,en;q=0.9",cfee7etumn4e02k,19,"[""White""]",No,Female,NA,No,439908.3999999999,NA,null,<p></p>,null,choice,tdc,trinary,attraction,1,laptops,null,null,null,null,null,null,1,NA,NA,NA,NA,NA,NA,NA,NA,NA,NA
NA,NA,NA,NA,NA,choice_trial,survey-html-form,11,78923,0.0-4.0-1.3,193,1,2025-05-05T18:46:09Z,b60275e29fe2361ab97ac0ac217840d7,"Mozilla/5.0 (X11; CrOS x86_64 14541.0.0) AppleWebKit/537.36 (KHTML, like Gecko) Chrome/135.0.0.0 Safari/537.36",WebKit,Chrome,135.0.0.0,ChromeOS,14541.0.0,https://5puzkbbxv1.cognition.run/?sona_id=57542,"en-US,en;q=0.9",cfee7etumn4e02k,19,"[""White""]",No,Female,NA,No,439908.3999999999,NA,12341,NA,"{""product_choice"":""C""}",choice,tdc,trinary,attraction,1,laptops,null,null,null,null,null,null,1,60,50,60,50,60,40,Processing speed,Memory (RAM),NA,NA
NA,NA,NA,NA,NA,choice_trial_setup,html-keyboard-response,12,79226,0.0-4.0-0.4,193,1,2025-05-05T18:46:09Z,b60275e29fe2361ab97ac0ac217840d7,"Mozilla/5.0 (X11; CrOS x86_64 14541.0.0) AppleWebKit/537.36 (KHTML, like Gecko) Chrome/135.0.0.0 Safari/537.36",WebKit,Chrome,135.0.0.0,ChromeOS,14541.0.0,https://5puzkbbxv1.cognition.run/?sona_id=57542,"en-US,en;q=0.9",cfee7etumn4e02k,19,"[""White""]",No,Female,NA,No,439908.3999999999,NA,null,<p></p>,null,choice,tc,binary,repulsion,2,laptops,null,null,null,null,null,null,1,NA,NA,NA,NA,NA,NA,NA,NA,NA,NA
NA,NA,NA,NA,NA,choice_trial,survey-html-form,13,86398,0.0-4.0-1.4,193,1,2025-05-05T18:46:09Z,b60275e29fe2361ab97ac0ac217840d7,"Mozilla/5.0 (X11; CrOS x86_64 14541.0.0) AppleWebKit/537.36 (KHTML, like Gecko) Chrome/135.0.0.0 Safari/537.36",WebKit,Chrome,135.0.0.0,ChromeOS,14541.0.0,https://5puzkbbxv1.cognition.run/?sona_id=57542,"en-US,en;q=0.9",cfee7etumn4e02k,19,"[""White""]",No,Female,NA,No,439908.3999999999,NA,7166,NA,"{""product_choice"":""B""}",choice,tc,binary,repulsion,2,laptops,null,null,null,null,null,null,1,30,40,null,100,90,null,Processing speed,Memory (RAM),NA,NA
NA,NA,NA,NA,NA,choice_trial_setup,html-keyboard-response,14,86703,0.0-4.0-0.5,193,1,2025-05-05T18:46:09Z,b60275e29fe2361ab97ac0ac217840d7,"Mozilla/5.0 (X11; CrOS x86_64 14541.0.0) AppleWebKit/537.36 (KHTML, like Gecko) Chrome/135.0.0.0 Safari/537.36",WebKit,Chrome,135.0.0.0,ChromeOS,14541.0.0,https://5puzkbbxv1.cognition.run/?sona_id=57542,"en-US,en;q=0.9",cfee7etumn4e02k,19,"[""White""]",No,Female,NA,No,439908.3999999999,NA,null,<p></p>,null,choice,wbw,trinary,catch,null,laptops,50,80,15,15,20,10,2,NA,NA,NA,NA,NA,NA,NA,NA,NA,NA
NA,NA,NA,NA,NA,choice_trial,survey-html-form,15,96340,0.0-4.0-1.5,193,1,2025-05-05T18:46:09Z,b60275e29fe2361ab97ac0ac217840d7,"Mozilla/5.0 (X11; CrOS x86_64 14541.0.0) AppleWebKit/537.36 (KHTML, like Gecko) Chrome/135.0.0.0 Safari/537.36",WebKit,Chrome,135.0.0.0,ChromeOS,14541.0.0,https://5puzkbbxv1.cognition.run/?sona_id=57542,"en-US,en;q=0.9",cfee7etumn4e02k,19,"[""White""]",No,Female,NA,No,439908.3999999999,NA,9627,NA,"{""product_choice"":""B""}",choice,wbw,trinary,catch,null,laptops,50,80,15,15,20,10,2,null,null,null,null,null,null,Processing speed,Memory (RAM),NA,NA
NA,NA,NA,NA,NA,choice_trial_setup,html-keyboard-response,16,96643,0.0-4.0-0.6,193,1,2025-05-05T18:46:09Z,b60275e29fe2361ab97ac0ac217840d7,"Mozilla/5.0 (X11; CrOS x86_64 14541.0.0) AppleWebKit/537.36 (KHTML, like Gecko) Chrome/135.0.0.0 Safari/537.36",WebKit,Chrome,135.0.0.0,ChromeOS,14541.0.0,https://5puzkbbxv1.cognition.run/?sona_id=57542,"en-US,en;q=0.9",cfee7etumn4e02k,19,"[""White""]",No,Female,NA,No,439908.3999999999,NA,null,<p></p>,null,choice,dtc,trinary,repulsion_B,2,microwave ovens,null,null,null,null,null,null,1,NA,NA,NA,NA,NA,NA,NA,NA,NA,NA
NA,NA,NA,NA,NA,choice_trial,survey-html-form,17,104053,0.0-4.0-1.6,193,1,2025-05-05T18:46:09Z,b60275e29fe2361ab97ac0ac217840d7,"Mozilla/5.0 (X11; CrOS x86_64 14541.0.0) AppleWebKit/537.36 (KHTML, like Gecko) Chrome/135.0.0.0 Safari/537.36",WebKit,Chrome,135.0.0.0,ChromeOS,14541.0.0,https://5puzkbbxv1.cognition.run/?sona_id=57542,"en-US,en;q=0.9",cfee7etumn4e02k,19,"[""White""]",No,Female,NA,No,439908.3999999999,NA,7403,NA,"{""product_choice"":""B""}",choice,dtc,trinary,repulsion_B,2,microwave ovens,null,null,null,null,null,null,1,40,30,40,90,100,80,Warranty,Cooking power,NA,NA
NA,NA,NA,NA,NA,choice_trial_setup,html-keyboard-response,18,104356,0.0-4.0-0.7,193,1,2025-05-05T18:46:09Z,b60275e29fe2361ab97ac0ac217840d7,"Mozilla/5.0 (X11; CrOS x86_64 14541.0.0) AppleWebKit/537.36 (KHTML, like Gecko) Chrome/135.0.0.0 Safari/537.36",WebKit,Chrome,135.0.0.0,ChromeOS,14541.0.0,https://5puzkbbxv1.cognition.run/?sona_id=57542,"en-US,en;q=0.9",cfee7etumn4e02k,19,"[""White""]",No,Female,NA,No,439908.3999999999,NA,null,<p></p>,null,choice,tcd,trinary,repulsion_B,2,washing machines,null,null,null,null,null,null,2,NA,NA,NA,NA,NA,NA,NA,NA,NA,NA
NA,NA,NA,NA,NA,choice_trial,survey-html-form,19,111348,0.0-4.0-1.7,193,1,2025-05-05T18:46:09Z,b60275e29fe2361ab97ac0ac217840d7,"Mozilla/5.0 (X11; CrOS x86_64 14541.0.0) AppleWebKit/537.36 (KHTML, like Gecko) Chrome/135.0.0.0 Safari/537.36",WebKit,Chrome,135.0.0.0,ChromeOS,14541.0.0,https://5puzkbbxv1.cognition.run/?sona_id=57542,"en-US,en;q=0.9",cfee7etumn4e02k,19,"[""White""]",No,Female,NA,No,439908.3999999999,NA,6985,NA,"{""product_choice"":""A""}",choice,tcd,trinary,repulsion_B,2,washing machines,null,null,null,null,null,null,2,40,30,40,90,100,80,Average lifespan,Energy savings,NA,NA
NA,NA,NA,NA,NA,choice_trial_setup,html-keyboard-response,20,111651,0.0-4.0-0.8,193,1,2025-05-05T18:46:09Z,b60275e29fe2361ab97ac0ac217840d7,"Mozilla/5.0 (X11; CrOS x86_64 14541.0.0) AppleWebKit/537.36 (KHTML, like Gecko) Chrome/135.0.0.0 Safari/537.36",WebKit,Chrome,135.0.0.0,ChromeOS,14541.0.0,https://5puzkbbxv1.cognition.run/?sona_id=57542,"en-US,en;q=0.9",cfee7etumn4e02k,19,"[""White""]",No,Female,NA,No,439908.3999999999,NA,null,<p></p>,null,choice,tcd,trinary,repulsion_A,1,televisions,null,null,null,null,null,null,1,NA,NA,NA,NA,NA,NA,NA,NA,NA,NA
NA,NA,NA,NA,NA,choice_trial,survey-html-form,21,118986,0.0-4.0-1.8,193,1,2025-05-05T18:46:09Z,b60275e29fe2361ab97ac0ac217840d7,"Mozilla/5.0 (X11; CrOS x86_64 14541.0.0) AppleWebKit/537.36 (KHTML, like Gecko) Chrome/135.0.0.0 Safari/537.36",WebKit,Chrome,135.0.0.0,ChromeOS,14541.0.0,https://5puzkbbxv1.cognition.run/?sona_id=57542,"en-US,en;q=0.9",cfee7etumn4e02k,19,"[""White""]",No,Female,NA,No,439908.3999999999,NA,7326,NA,"{""product_choice"":""A""}",choice,tcd,trinary,repulsion_A,1,televisions,null,null,null,null,null,null,1,100,90,100,30,40,20,Screen size,Average lifespan,NA,NA
NA,NA,NA,NA,NA,choice_trial_setup,html-keyboard-response,22,119289,0.0-4.0-0.9,193,1,2025-05-05T18:46:09Z,b60275e29fe2361ab97ac0ac217840d7,"Mozilla/5.0 (X11; CrOS x86_64 14541.0.0) AppleWebKit/537.36 (KHTML, like Gecko) Chrome/135.0.0.0 Safari/537.36",WebKit,Chrome,135.0.0.0,ChromeOS,14541.0.0,https://5puzkbbxv1.cognition.run/?sona_id=57542,"en-US,en;q=0.9",cfee7etumn4e02k,19,"[""White""]",No,Female,NA,No,439908.3999999999,NA,null,<p></p>,null,choice,ct,binary,attraction,NA,laptops,null,null,null,null,null,null,1,NA,NA,NA,NA,NA,NA,NA,NA,NA,NA
NA,NA,NA,NA,NA,choice_trial,survey-html-form,23,127889,0.0-4.0-1.9,193,1,2025-05-05T18:46:09Z,b60275e29fe2361ab97ac0ac217840d7,"Mozilla/5.0 (X11; CrOS x86_64 14541.0.0) AppleWebKit/537.36 (KHTML, like Gecko) Chrome/135.0.0.0 Safari/537.36",WebKit,Chrome,135.0.0.0,ChromeOS,14541.0.0,https://5puzkbbxv1.cognition.run/?sona_id=57542,"en-US,en;q=0.9",cfee7etumn4e02k,19,"[""White""]",No,Female,NA,No,439908.3999999999,NA,8592,NA,"{""product_choice"":""A""}",choice,ct,binary,attraction,NA,laptops,null,null,null,null,null,null,1,60,50,null,50,60,null,Processing speed,Memory (RAM),NA,NA
NA,NA,NA,NA,NA,choice_trial_setup,html-keyboard-response,24,128192,0.0-4.0-0.10,193,1,2025-05-05T18:46:09Z,b60275e29fe2361ab97ac0ac217840d7,"Mozilla/5.0 (X11; CrOS x86_64 14541.0.0) AppleWebKit/537.36 (KHTML, like Gecko) Chrome/135.0.0.0 Safari/537.36",WebKit,Chrome,135.0.0.0,ChromeOS,14541.0.0,https://5puzkbbxv1.cognition.run/?sona_id=57542,"en-US,en;q=0.9",cfee7etumn4e02k,19,"[""White""]",No,Female,NA,No,439908.3999999999,NA,null,<p></p>,null,choice,wwb,trinary,catch,null,microwave ovens,60,70,35,20,40,35,2,NA,NA,NA,NA,NA,NA,NA,NA,NA,NA
NA,NA,NA,NA,NA,choice_trial,survey-html-form,25,131948,0.0-4.0-1.10,193,1,2025-05-05T18:46:09Z,b60275e29fe2361ab97ac0ac217840d7,"Mozilla/5.0 (X11; CrOS x86_64 14541.0.0) AppleWebKit/537.36 (KHTML, like Gecko) Chrome/135.0.0.0 Safari/537.36",WebKit,Chrome,135.0.0.0,ChromeOS,14541.0.0,https://5puzkbbxv1.cognition.run/?sona_id=57542,"en-US,en;q=0.9",cfee7etumn4e02k,19,"[""White""]",No,Female,NA,No,439908.3999999999,NA,3749,NA,"{""product_choice"":""C""}",choice,wwb,trinary,catch,null,microwave ovens,60,70,35,20,40,35,2,null,null,null,null,null,null,Warranty,Cooking power,NA,NA
NA,NA,NA,NA,NA,choice_trial_setup,html-keyboard-response,26,132251,0.0-4.0-0.11,193,1,2025-05-05T18:46:09Z,b60275e29fe2361ab97ac0ac217840d7,"Mozilla/5.0 (X11; CrOS x86_64 14541.0.0) AppleWebKit/537.36 (KHTML, like Gecko) Chrome/135.0.0.0 Safari/537.36",WebKit,Chrome,135.0.0.0,ChromeOS,14541.0.0,https://5puzkbbxv1.cognition.run/?sona_id=57542,"en-US,en;q=0.9",cfee7etumn4e02k,19,"[""White""]",No,Female,NA,No,439908.3999999999,NA,null,<p></p>,null,choice,wwb,trinary,catch,null,washing machines,55,60,35,50,35,15,2,NA,NA,NA,NA,NA,NA,NA,NA,NA,NA
NA,NA,NA,NA,NA,choice_trial,survey-html-form,27,135384,0.0-4.0-1.11,193,1,2025-05-05T18:46:09Z,b60275e29fe2361ab97ac0ac217840d7,"Mozilla/5.0 (X11; CrOS x86_64 14541.0.0) AppleWebKit/537.36 (KHTML, like Gecko) Chrome/135.0.0.0 Safari/537.36",WebKit,Chrome,135.0.0.0,ChromeOS,14541.0.0,https://5puzkbbxv1.cognition.run/?sona_id=57542,"en-US,en;q=0.9",cfee7etumn4e02k,19,"[""White""]",No,Female,NA,No,439908.3999999999,NA,3126,NA,"{""product_choice"":""C""}",choice,wwb,trinary,catch,null,washing machines,55,60,35,50,35,15,2,null,null,null,null,null,null,Average lifespan,Energy savings,NA,NA
NA,NA,NA,NA,NA,choice_trial_setup,html-keyboard-response,28,135687,0.0-4.0-0.12,193,1,2025-05-05T18:46:09Z,b60275e29fe2361ab97ac0ac217840d7,"Mozilla/5.0 (X11; CrOS x86_64 14541.0.0) AppleWebKit/537.36 (KHTML, like Gecko) Chrome/135.0.0.0 Safari/537.36",WebKit,Chrome,135.0.0.0,ChromeOS,14541.0.0,https://5puzkbbxv1.cognition.run/?sona_id=57542,"en-US,en;q=0.9",cfee7etumn4e02k,19,"[""White""]",No,Female,NA,No,439908.3999999999,NA,null,<p></p>,null,choice,ctd,trinary,repulsion_A,2,laptops,null,null,null,null,null,null,2,NA,NA,NA,NA,NA,NA,NA,NA,NA,NA
NA,NA,NA,NA,NA,choice_trial,survey-html-form,29,139060,0.0-4.0-1.12,193,1,2025-05-05T18:46:09Z,b60275e29fe2361ab97ac0ac217840d7,"Mozilla/5.0 (X11; CrOS x86_64 14541.0.0) AppleWebKit/537.36 (KHTML, like Gecko) Chrome/135.0.0.0 Safari/537.36",WebKit,Chrome,135.0.0.0,ChromeOS,14541.0.0,https://5puzkbbxv1.cognition.run/?sona_id=57542,"en-US,en;q=0.9",cfee7etumn4e02k,19,"[""White""]",No,Female,NA,No,439908.3999999999,NA,3365,NA,"{""product_choice"":""A""}",choice,ctd,trinary,repulsion_A,2,laptops,null,null,null,null,null,null,2,30,40,20,100,90,100,Processing speed,Memory (RAM),NA,NA
NA,NA,NA,NA,NA,choice_trial_setup,html-keyboard-response,30,139364,0.0-4.0-0.13,193,1,2025-05-05T18:46:09Z,b60275e29fe2361ab97ac0ac217840d7,"Mozilla/5.0 (X11; CrOS x86_64 14541.0.0) AppleWebKit/537.36 (KHTML, like Gecko) Chrome/135.0.0.0 Safari/537.36",WebKit,Chrome,135.0.0.0,ChromeOS,14541.0.0,https://5puzkbbxv1.cognition.run/?sona_id=57542,"en-US,en;q=0.9",cfee7etumn4e02k,19,"[""White""]",No,Female,NA,No,439908.3999999999,NA,null,<p></p>,null,choice,bw,binary,catch,null,laptops,60,70,40,35,null,null,1,NA,NA,NA,NA,NA,NA,NA,NA,NA,NA
NA,NA,NA,NA,NA,choice_trial,survey-html-form,31,142145,0.0-4.0-1.13,193,1,2025-05-05T18:46:09Z,b60275e29fe2361ab97ac0ac217840d7,"Mozilla/5.0 (X11; CrOS x86_64 14541.0.0) AppleWebKit/537.36 (KHTML, like Gecko) Chrome/135.0.0.0 Safari/537.36",WebKit,Chrome,135.0.0.0,ChromeOS,14541.0.0,https://5puzkbbxv1.cognition.run/?sona_id=57542,"en-US,en;q=0.9",cfee7etumn4e02k,19,"[""White""]",No,Female,NA,No,439908.3999999999,NA,2772,NA,"{""product_choice"":""A""}",choice,bw,binary,catch,null,laptops,60,70,40,35,null,null,1,null,null,null,null,null,null,Processing speed,Memory (RAM),NA,NA
NA,NA,NA,NA,NA,choice_trial_setup,html-keyboard-response,32,142448,0.0-4.0-0.14,193,1,2025-05-05T18:46:09Z,b60275e29fe2361ab97ac0ac217840d7,"Mozilla/5.0 (X11; CrOS x86_64 14541.0.0) AppleWebKit/537.36 (KHTML, like Gecko) Chrome/135.0.0.0 Safari/537.36",WebKit,Chrome,135.0.0.0,ChromeOS,14541.0.0,https://5puzkbbxv1.cognition.run/?sona_id=57542,"en-US,en;q=0.9",cfee7etumn4e02k,19,"[""White""]",No,Female,NA,No,439908.3999999999,NA,null,<p></p>,null,choice,tdc,trinary,attraction,2,washing machines,null,null,null,null,null,null,2,NA,NA,NA,NA,NA,NA,NA,NA,NA,NA
NA,NA,NA,NA,NA,choice_trial,survey-html-form,33,152048,0.0-4.0-1.14,193,1,2025-05-05T18:46:09Z,b60275e29fe2361ab97ac0ac217840d7,"Mozilla/5.0 (X11; CrOS x86_64 14541.0.0) AppleWebKit/537.36 (KHTML, like Gecko) Chrome/135.0.0.0 Safari/537.36",WebKit,Chrome,135.0.0.0,ChromeOS,14541.0.0,https://5puzkbbxv1.cognition.run/?sona_id=57542,"en-US,en;q=0.9",cfee7etumn4e02k,19,"[""White""]",No,Female,NA,No,439908.3999999999,NA,9590,NA,"{""product_choice"":""C""}",choice,tdc,trinary,attraction,2,washing machines,null,null,null,null,null,null,2,50,60,40,60,50,60,Average lifespan,Energy savings,NA,NA
NA,NA,NA,NA,NA,choice_trial_setup,html-keyboard-response,34,152351,0.0-4.0-0.15,193,1,2025-05-05T18:46:09Z,b60275e29fe2361ab97ac0ac217840d7,"Mozilla/5.0 (X11; CrOS x86_64 14541.0.0) AppleWebKit/537.36 (KHTML, like Gecko) Chrome/135.0.0.0 Safari/537.36",WebKit,Chrome,135.0.0.0,ChromeOS,14541.0.0,https://5puzkbbxv1.cognition.run/?sona_id=57542,"en-US,en;q=0.9",cfee7etumn4e02k,19,"[""White""]",No,Female,NA,No,439908.3999999999,NA,null,<p></p>,null,choice,tc,binary,repulsion,1,washing machines,null,null,null,null,null,null,1,NA,NA,NA,NA,NA,NA,NA,NA,NA,NA
NA,NA,NA,NA,NA,choice_trial,survey-html-form,35,157934,0.0-4.0-1.15,193,1,2025-05-05T18:46:09Z,b60275e29fe2361ab97ac0ac217840d7,"Mozilla/5.0 (X11; CrOS x86_64 14541.0.0) AppleWebKit/537.36 (KHTML, like Gecko) Chrome/135.0.0.0 Safari/537.36",WebKit,Chrome,135.0.0.0,ChromeOS,14541.0.0,https://5puzkbbxv1.cognition.run/?sona_id=57542,"en-US,en;q=0.9",cfee7etumn4e02k,19,"[""White""]",No,Female,NA,No,439908.3999999999,NA,5574,NA,"{""product_choice"":""B""}",choice,tc,binary,repulsion,1,washing machines,null,null,null,null,null,null,1,100,90,null,30,40,null,Average lifespan,Energy savings,NA,NA
NA,NA,NA,NA,NA,choice_trial_setup,html-keyboard-response,36,158237,0.0-4.0-0.16,193,1,2025-05-05T18:46:09Z,b60275e29fe2361ab97ac0ac217840d7,"Mozilla/5.0 (X11; CrOS x86_64 14541.0.0) AppleWebKit/537.36 (KHTML, like Gecko) Chrome/135.0.0.0 Safari/537.36",WebKit,Chrome,135.0.0.0,ChromeOS,14541.0.0,https://5puzkbbxv1.cognition.run/?sona_id=57542,"en-US,en;q=0.9",cfee7etumn4e02k,19,"[""White""]",No,Female,NA,No,439908.3999999999,NA,null,<p></p>,null,choice,ctd,trinary,repulsion_A,2,microwave ovens,null,null,null,null,null,null,2,NA,NA,NA,NA,NA,NA,NA,NA,NA,NA
NA,NA,NA,NA,NA,choice_trial,survey-html-form,37,227547,0.0-4.0-1.16,193,1,2025-05-05T18:46:09Z,b60275e29fe2361ab97ac0ac217840d7,"Mozilla/5.0 (X11; CrOS x86_64 14541.0.0) AppleWebKit/537.36 (KHTML, like Gecko) Chrome/135.0.0.0 Safari/537.36",WebKit,Chrome,135.0.0.0,ChromeOS,14541.0.0,https://5puzkbbxv1.cognition.run/?sona_id=57542,"en-US,en;q=0.9",cfee7etumn4e02k,19,"[""White""]",No,Female,NA,No,439908.3999999999,NA,69298,NA,"{""product_choice"":""A""}",choice,ctd,trinary,repulsion_A,2,microwave ovens,null,null,null,null,null,null,2,30,40,20,100,90,100,Warranty,Cooking power,NA,NA
NA,NA,NA,NA,NA,choice_trial_setup,html-keyboard-response,38,227851,0.0-4.0-0.17,193,1,2025-05-05T18:46:09Z,b60275e29fe2361ab97ac0ac217840d7,"Mozilla/5.0 (X11; CrOS x86_64 14541.0.0) AppleWebKit/537.36 (KHTML, like Gecko) Chrome/135.0.0.0 Safari/537.36",WebKit,Chrome,135.0.0.0,ChromeOS,14541.0.0,https://5puzkbbxv1.cognition.run/?sona_id=57542,"en-US,en;q=0.9",cfee7etumn4e02k,19,"[""White""]",No,Female,NA,No,439908.3999999999,NA,null,<p></p>,null,choice,wb,binary,catch,null,televisions,80,95,30,45,null,null,2,NA,NA,NA,NA,NA,NA,NA,NA,NA,NA
NA,NA,NA,NA,NA,choice_trial,survey-html-form,39,232859,0.0-4.0-1.17,193,1,2025-05-05T18:46:09Z,b60275e29fe2361ab97ac0ac217840d7,"Mozilla/5.0 (X11; CrOS x86_64 14541.0.0) AppleWebKit/537.36 (KHTML, like Gecko) Chrome/135.0.0.0 Safari/537.36",WebKit,Chrome,135.0.0.0,ChromeOS,14541.0.0,https://5puzkbbxv1.cognition.run/?sona_id=57542,"en-US,en;q=0.9",cfee7etumn4e02k,19,"[""White""]",No,Female,NA,No,439908.3999999999,NA,5003,NA,"{""product_choice"":""B""}",choice,wb,binary,catch,null,televisions,80,95,30,45,null,null,2,null,null,null,null,null,null,Screen size,Average lifespan,NA,NA
NA,NA,NA,NA,NA,choice_trial_setup,html-keyboard-response,40,233162,0.0-4.0-0.18,193,1,2025-05-05T18:46:09Z,b60275e29fe2361ab97ac0ac217840d7,"Mozilla/5.0 (X11; CrOS x86_64 14541.0.0) AppleWebKit/537.36 (KHTML, like Gecko) Chrome/135.0.0.0 Safari/537.36",WebKit,Chrome,135.0.0.0,ChromeOS,14541.0.0,https://5puzkbbxv1.cognition.run/?sona_id=57542,"en-US,en;q=0.9",cfee7etumn4e02k,19,"[""White""]",No,Female,NA,No,439908.3999999999,NA,null,<p></p>,null,choice,tcd,trinary,repulsion_B,1,laptops,null,null,null,null,null,null,2,NA,NA,NA,NA,NA,NA,NA,NA,NA,NA
NA,NA,NA,NA,NA,choice_trial,survey-html-form,41,236776,0.0-4.0-1.18,193,1,2025-05-05T18:46:09Z,b60275e29fe2361ab97ac0ac217840d7,"Mozilla/5.0 (X11; CrOS x86_64 14541.0.0) AppleWebKit/537.36 (KHTML, like Gecko) Chrome/135.0.0.0 Safari/537.36",WebKit,Chrome,135.0.0.0,ChromeOS,14541.0.0,https://5puzkbbxv1.cognition.run/?sona_id=57542,"en-US,en;q=0.9",cfee7etumn4e02k,19,"[""White""]",No,Female,NA,No,439908.3999999999,NA,3604,NA,"{""product_choice"":""A""}",choice,tcd,trinary,repulsion_B,1,laptops,null,null,null,null,null,null,2,90,100,80,40,30,40,Processing speed,Memory (RAM),NA,NA
NA,NA,NA,NA,NA,choice_trial_setup,html-keyboard-response,42,237082,0.0-4.0-0.19,193,1,2025-05-05T18:46:09Z,b60275e29fe2361ab97ac0ac217840d7,"Mozilla/5.0 (X11; CrOS x86_64 14541.0.0) AppleWebKit/537.36 (KHTML, like Gecko) Chrome/135.0.0.0 Safari/537.36",WebKit,Chrome,135.0.0.0,ChromeOS,14541.0.0,https://5puzkbbxv1.cognition.run/?sona_id=57542,"en-US,en;q=0.9",cfee7etumn4e02k,19,"[""White""]",No,Female,NA,No,439908.3999999999,NA,null,<p></p>,null,choice,dct,trinary,repulsion_A,1,laptops,null,null,null,null,null,null,2,NA,NA,NA,NA,NA,NA,NA,NA,NA,NA
NA,NA,NA,NA,NA,choice_trial,survey-html-form,43,243171,0.0-4.0-1.19,193,1,2025-05-05T18:46:09Z,b60275e29fe2361ab97ac0ac217840d7,"Mozilla/5.0 (X11; CrOS x86_64 14541.0.0) AppleWebKit/537.36 (KHTML, like Gecko) Chrome/135.0.0.0 Safari/537.36",WebKit,Chrome,135.0.0.0,ChromeOS,14541.0.0,https://5puzkbbxv1.cognition.run/?sona_id=57542,"en-US,en;q=0.9",cfee7etumn4e02k,19,"[""White""]",No,Female,NA,No,439908.3999999999,NA,6079,NA,"{""product_choice"":""B""}",choice,dct,trinary,repulsion_A,1,laptops,null,null,null,null,null,null,2,100,90,100,30,40,20,Processing speed,Memory (RAM),NA,NA
NA,NA,NA,NA,NA,choice_trial_setup,html-keyboard-response,44,243474,0.0-4.0-0.20,193,1,2025-05-05T18:46:09Z,b60275e29fe2361ab97ac0ac217840d7,"Mozilla/5.0 (X11; CrOS x86_64 14541.0.0) AppleWebKit/537.36 (KHTML, like Gecko) Chrome/135.0.0.0 Safari/537.36",WebKit,Chrome,135.0.0.0,ChromeOS,14541.0.0,https://5puzkbbxv1.cognition.run/?sona_id=57542,"en-US,en;q=0.9",cfee7etumn4e02k,19,"[""White""]",No,Female,NA,No,439908.3999999999,NA,null,<p></p>,null,choice,ct,binary,repulsion,2,microwave ovens,null,null,null,null,null,null,1,NA,NA,NA,NA,NA,NA,NA,NA,NA,NA
NA,NA,NA,NA,NA,choice_trial,survey-html-form,45,255713,0.0-4.0-1.20,193,1,2025-05-05T18:46:09Z,b60275e29fe2361ab97ac0ac217840d7,"Mozilla/5.0 (X11; CrOS x86_64 14541.0.0) AppleWebKit/537.36 (KHTML, like Gecko) Chrome/135.0.0.0 Safari/537.36",WebKit,Chrome,135.0.0.0,ChromeOS,14541.0.0,https://5puzkbbxv1.cognition.run/?sona_id=57542,"en-US,en;q=0.9",cfee7etumn4e02k,19,"[""White""]",No,Female,NA,No,439908.3999999999,NA,12230,NA,"{""product_choice"":""A""}",choice,ct,binary,repulsion,2,microwave ovens,null,null,null,null,null,null,1,30,40,null,100,90,null,Warranty,Cooking power,NA,NA
NA,NA,NA,NA,NA,choice_trial_setup,html-keyboard-response,46,256017,0.0-4.0-0.21,193,1,2025-05-05T18:46:09Z,b60275e29fe2361ab97ac0ac217840d7,"Mozilla/5.0 (X11; CrOS x86_64 14541.0.0) AppleWebKit/537.36 (KHTML, like Gecko) Chrome/135.0.0.0 Safari/537.36",WebKit,Chrome,135.0.0.0,ChromeOS,14541.0.0,https://5puzkbbxv1.cognition.run/?sona_id=57542,"en-US,en;q=0.9",cfee7etumn4e02k,19,"[""White""]",No,Female,NA,No,439908.3999999999,NA,null,<p></p>,null,choice,tdc,trinary,attraction,1,televisions,null,null,null,null,null,null,1,NA,NA,NA,NA,NA,NA,NA,NA,NA,NA
NA,NA,NA,NA,NA,choice_trial,survey-html-form,47,263055,0.0-4.0-1.21,193,1,2025-05-05T18:46:09Z,b60275e29fe2361ab97ac0ac217840d7,"Mozilla/5.0 (X11; CrOS x86_64 14541.0.0) AppleWebKit/537.36 (KHTML, like Gecko) Chrome/135.0.0.0 Safari/537.36",WebKit,Chrome,135.0.0.0,ChromeOS,14541.0.0,https://5puzkbbxv1.cognition.run/?sona_id=57542,"en-US,en;q=0.9",cfee7etumn4e02k,19,"[""White""]",No,Female,NA,No,439908.3999999999,NA,7030,NA,"{""product_choice"":""C""}",choice,tdc,trinary,attraction,1,televisions,null,null,null,null,null,null,1,60,50,60,50,60,40,Screen size,Average lifespan,NA,NA
NA,NA,NA,NA,NA,choice_trial_setup,html-keyboard-response,48,263359,0.0-4.0-0.22,193,1,2025-05-05T18:46:09Z,b60275e29fe2361ab97ac0ac217840d7,"Mozilla/5.0 (X11; CrOS x86_64 14541.0.0) AppleWebKit/537.36 (KHTML, like Gecko) Chrome/135.0.0.0 Safari/537.36",WebKit,Chrome,135.0.0.0,ChromeOS,14541.0.0,https://5puzkbbxv1.cognition.run/?sona_id=57542,"en-US,en;q=0.9",cfee7etumn4e02k,19,"[""White""]",No,Female,NA,No,439908.3999999999,NA,null,<p></p>,null,choice,tcd,trinary,attraction,2,televisions,null,null,null,null,null,null,1,NA,NA,NA,NA,NA,NA,NA,NA,NA,NA
NA,NA,NA,NA,NA,choice_trial,survey-html-form,49,268798,0.0-4.0-1.22,193,1,2025-05-05T18:46:09Z,b60275e29fe2361ab97ac0ac217840d7,"Mozilla/5.0 (X11; CrOS x86_64 14541.0.0) AppleWebKit/537.36 (KHTML, like Gecko) Chrome/135.0.0.0 Safari/537.36",WebKit,Chrome,135.0.0.0,ChromeOS,14541.0.0,https://5puzkbbxv1.cognition.run/?sona_id=57542,"en-US,en;q=0.9",cfee7etumn4e02k,19,"[""White""]",No,Female,NA,No,439908.3999999999,NA,5430,NA,"{""product_choice"":""A""}",choice,tcd,trinary,attraction,2,televisions,null,null,null,null,null,null,1,50,60,40,60,50,60,Screen size,Average lifespan,NA,NA
NA,NA,NA,NA,NA,choice_trial_setup,html-keyboard-response,50,269102,0.0-4.0-0.23,193,1,2025-05-05T18:46:09Z,b60275e29fe2361ab97ac0ac217840d7,"Mozilla/5.0 (X11; CrOS x86_64 14541.0.0) AppleWebKit/537.36 (KHTML, like Gecko) Chrome/135.0.0.0 Safari/537.36",WebKit,Chrome,135.0.0.0,ChromeOS,14541.0.0,https://5puzkbbxv1.cognition.run/?sona_id=57542,"en-US,en;q=0.9",cfee7etumn4e02k,19,"[""White""]",No,Female,NA,No,439908.3999999999,NA,null,<p></p>,null,choice,cdt,trinary,repulsion_B,1,microwave ovens,null,null,null,null,null,null,2,NA,NA,NA,NA,NA,NA,NA,NA,NA,NA
NA,NA,NA,NA,NA,choice_trial,survey-html-form,51,272957,0.0-4.0-1.23,193,1,2025-05-05T18:46:09Z,b60275e29fe2361ab97ac0ac217840d7,"Mozilla/5.0 (X11; CrOS x86_64 14541.0.0) AppleWebKit/537.36 (KHTML, like Gecko) Chrome/135.0.0.0 Safari/537.36",WebKit,Chrome,135.0.0.0,ChromeOS,14541.0.0,https://5puzkbbxv1.cognition.run/?sona_id=57542,"en-US,en;q=0.9",cfee7etumn4e02k,19,"[""White""]",No,Female,NA,No,439908.3999999999,NA,3846,NA,"{""product_choice"":""C""}",choice,cdt,trinary,repulsion_B,1,microwave ovens,null,null,null,null,null,null,2,90,100,80,40,30,40,Warranty,Cooking power,NA,NA
NA,NA,NA,NA,NA,choice_trial_setup,html-keyboard-response,52,273260,0.0-4.0-0.24,193,1,2025-05-05T18:46:09Z,b60275e29fe2361ab97ac0ac217840d7,"Mozilla/5.0 (X11; CrOS x86_64 14541.0.0) AppleWebKit/537.36 (KHTML, like Gecko) Chrome/135.0.0.0 Safari/537.36",WebKit,Chrome,135.0.0.0,ChromeOS,14541.0.0,https://5puzkbbxv1.cognition.run/?sona_id=57542,"en-US,en;q=0.9",cfee7etumn4e02k,19,"[""White""]",No,Female,NA,No,439908.3999999999,NA,null,<p></p>,null,choice,tc,binary,attraction,NA,microwave ovens,null,null,null,null,null,null,1,NA,NA,NA,NA,NA,NA,NA,NA,NA,NA
NA,NA,NA,NA,NA,choice_trial,survey-html-form,53,275920,0.0-4.0-1.24,193,1,2025-05-05T18:46:09Z,b60275e29fe2361ab97ac0ac217840d7,"Mozilla/5.0 (X11; CrOS x86_64 14541.0.0) AppleWebKit/537.36 (KHTML, like Gecko) Chrome/135.0.0.0 Safari/537.36",WebKit,Chrome,135.0.0.0,ChromeOS,14541.0.0,https://5puzkbbxv1.cognition.run/?sona_id=57542,"en-US,en;q=0.9",cfee7etumn4e02k,19,"[""White""]",No,Female,NA,No,439908.3999999999,NA,2650,NA,"{""product_choice"":""B""}",choice,tc,binary,attraction,NA,microwave ovens,null,null,null,null,null,null,1,60,50,null,50,60,null,Warranty,Cooking power,NA,NA
NA,NA,NA,NA,NA,choice_trial_setup,html-keyboard-response,54,276224,0.0-4.0-0.25,193,1,2025-05-05T18:46:09Z,b60275e29fe2361ab97ac0ac217840d7,"Mozilla/5.0 (X11; CrOS x86_64 14541.0.0) AppleWebKit/537.36 (KHTML, like Gecko) Chrome/135.0.0.0 Safari/537.36",WebKit,Chrome,135.0.0.0,ChromeOS,14541.0.0,https://5puzkbbxv1.cognition.run/?sona_id=57542,"en-US,en;q=0.9",cfee7etumn4e02k,19,"[""White""]",No,Female,NA,No,439908.3999999999,NA,null,<p></p>,null,choice,tcd,trinary,repulsion_B,2,televisions,null,null,null,null,null,null,2,NA,NA,NA,NA,NA,NA,NA,NA,NA,NA
NA,NA,NA,NA,NA,choice_trial,survey-html-form,55,284065,0.0-4.0-1.25,193,1,2025-05-05T18:46:09Z,b60275e29fe2361ab97ac0ac217840d7,"Mozilla/5.0 (X11; CrOS x86_64 14541.0.0) AppleWebKit/537.36 (KHTML, like Gecko) Chrome/135.0.0.0 Safari/537.36",WebKit,Chrome,135.0.0.0,ChromeOS,14541.0.0,https://5puzkbbxv1.cognition.run/?sona_id=57542,"en-US,en;q=0.9",cfee7etumn4e02k,19,"[""White""]",No,Female,NA,No,439908.3999999999,NA,7832,NA,"{""product_choice"":""A""}",choice,tcd,trinary,repulsion_B,2,televisions,null,null,null,null,null,null,2,40,30,40,90,100,80,Screen size,Average lifespan,NA,NA
NA,NA,NA,NA,NA,choice_trial_setup,html-keyboard-response,56,284369,0.0-4.0-0.26,193,1,2025-05-05T18:46:09Z,b60275e29fe2361ab97ac0ac217840d7,"Mozilla/5.0 (X11; CrOS x86_64 14541.0.0) AppleWebKit/537.36 (KHTML, like Gecko) Chrome/135.0.0.0 Safari/537.36",WebKit,Chrome,135.0.0.0,ChromeOS,14541.0.0,https://5puzkbbxv1.cognition.run/?sona_id=57542,"en-US,en;q=0.9",cfee7etumn4e02k,19,"[""White""]",No,Female,NA,No,439908.3999999999,NA,null,<p></p>,null,choice,tc,binary,repulsion,2,televisions,null,null,null,null,null,null,2,NA,NA,NA,NA,NA,NA,NA,NA,NA,NA
NA,NA,NA,NA,NA,choice_trial,survey-html-form,57,290461,0.0-4.0-1.26,193,1,2025-05-05T18:46:09Z,b60275e29fe2361ab97ac0ac217840d7,"Mozilla/5.0 (X11; CrOS x86_64 14541.0.0) AppleWebKit/537.36 (KHTML, like Gecko) Chrome/135.0.0.0 Safari/537.36",WebKit,Chrome,135.0.0.0,ChromeOS,14541.0.0,https://5puzkbbxv1.cognition.run/?sona_id=57542,"en-US,en;q=0.9",cfee7etumn4e02k,19,"[""White""]",No,Female,NA,No,439908.3999999999,NA,6082,NA,"{""product_choice"":""B""}",choice,tc,binary,repulsion,2,televisions,null,null,null,null,null,null,2,30,40,null,100,90,null,Screen size,Average lifespan,NA,NA
NA,NA,NA,NA,NA,choice_trial_setup,html-keyboard-response,58,290766,0.0-4.0-0.27,193,1,2025-05-05T18:46:09Z,b60275e29fe2361ab97ac0ac217840d7,"Mozilla/5.0 (X11; CrOS x86_64 14541.0.0) AppleWebKit/537.36 (KHTML, like Gecko) Chrome/135.0.0.0 Safari/537.36",WebKit,Chrome,135.0.0.0,ChromeOS,14541.0.0,https://5puzkbbxv1.cognition.run/?sona_id=57542,"en-US,en;q=0.9",cfee7etumn4e02k,19,"[""White""]",No,Female,NA,No,439908.3999999999,NA,null,<p></p>,null,choice,tdc,trinary,repulsion_B,1,televisions,null,null,null,null,null,null,2,NA,NA,NA,NA,NA,NA,NA,NA,NA,NA
NA,NA,NA,NA,NA,choice_trial,survey-html-form,59,298687,0.0-4.0-1.27,193,1,2025-05-05T18:46:09Z,b60275e29fe2361ab97ac0ac217840d7,"Mozilla/5.0 (X11; CrOS x86_64 14541.0.0) AppleWebKit/537.36 (KHTML, like Gecko) Chrome/135.0.0.0 Safari/537.36",WebKit,Chrome,135.0.0.0,ChromeOS,14541.0.0,https://5puzkbbxv1.cognition.run/?sona_id=57542,"en-US,en;q=0.9",cfee7etumn4e02k,19,"[""White""]",No,Female,NA,No,439908.3999999999,NA,7909,NA,"{""product_choice"":""A""}",choice,tdc,trinary,repulsion_B,1,televisions,null,null,null,null,null,null,2,90,100,80,40,30,40,Screen size,Average lifespan,NA,NA
NA,NA,NA,NA,NA,choice_trial_setup,html-keyboard-response,60,298991,0.0-4.0-0.28,193,1,2025-05-05T18:46:09Z,b60275e29fe2361ab97ac0ac217840d7,"Mozilla/5.0 (X11; CrOS x86_64 14541.0.0) AppleWebKit/537.36 (KHTML, like Gecko) Chrome/135.0.0.0 Safari/537.36",WebKit,Chrome,135.0.0.0,ChromeOS,14541.0.0,https://5puzkbbxv1.cognition.run/?sona_id=57542,"en-US,en;q=0.9",cfee7etumn4e02k,19,"[""White""]",No,Female,NA,No,439908.3999999999,NA,null,<p></p>,null,choice,cdt,trinary,attraction,2,laptops,null,null,null,null,null,null,1,NA,NA,NA,NA,NA,NA,NA,NA,NA,NA
NA,NA,NA,NA,NA,choice_trial,survey-html-form,61,304563,0.0-4.0-1.28,193,1,2025-05-05T18:46:09Z,b60275e29fe2361ab97ac0ac217840d7,"Mozilla/5.0 (X11; CrOS x86_64 14541.0.0) AppleWebKit/537.36 (KHTML, like Gecko) Chrome/135.0.0.0 Safari/537.36",WebKit,Chrome,135.0.0.0,ChromeOS,14541.0.0,https://5puzkbbxv1.cognition.run/?sona_id=57542,"en-US,en;q=0.9",cfee7etumn4e02k,19,"[""White""]",No,Female,NA,No,439908.3999999999,NA,5561,NA,"{""product_choice"":""C""}",choice,cdt,trinary,attraction,2,laptops,null,null,null,null,null,null,1,50,60,40,60,50,60,Processing speed,Memory (RAM),NA,NA
NA,NA,NA,NA,NA,choice_trial_setup,html-keyboard-response,62,304867,0.0-4.0-0.29,193,1,2025-05-05T18:46:09Z,b60275e29fe2361ab97ac0ac217840d7,"Mozilla/5.0 (X11; CrOS x86_64 14541.0.0) AppleWebKit/537.36 (KHTML, like Gecko) Chrome/135.0.0.0 Safari/537.36",WebKit,Chrome,135.0.0.0,ChromeOS,14541.0.0,https://5puzkbbxv1.cognition.run/?sona_id=57542,"en-US,en;q=0.9",cfee7etumn4e02k,19,"[""White""]",No,Female,NA,No,439908.3999999999,NA,null,<p></p>,null,choice,ctd,trinary,attraction,1,microwave ovens,null,null,null,null,null,null,2,NA,NA,NA,NA,NA,NA,NA,NA,NA,NA
NA,NA,NA,NA,NA,choice_trial,survey-html-form,63,310498,0.0-4.0-1.29,193,1,2025-05-05T18:46:09Z,b60275e29fe2361ab97ac0ac217840d7,"Mozilla/5.0 (X11; CrOS x86_64 14541.0.0) AppleWebKit/537.36 (KHTML, like Gecko) Chrome/135.0.0.0 Safari/537.36",WebKit,Chrome,135.0.0.0,ChromeOS,14541.0.0,https://5puzkbbxv1.cognition.run/?sona_id=57542,"en-US,en;q=0.9",cfee7etumn4e02k,19,"[""White""]",No,Female,NA,No,439908.3999999999,NA,5621,NA,"{""product_choice"":""A""}",choice,ctd,trinary,attraction,1,microwave ovens,null,null,null,null,null,null,2,60,50,60,50,60,40,Warranty,Cooking power,NA,NA
NA,NA,NA,NA,NA,choice_trial_setup,html-keyboard-response,64,310803,0.0-4.0-0.30,193,1,2025-05-05T18:46:09Z,b60275e29fe2361ab97ac0ac217840d7,"Mozilla/5.0 (X11; CrOS x86_64 14541.0.0) AppleWebKit/537.36 (KHTML, like Gecko) Chrome/135.0.0.0 Safari/537.36",WebKit,Chrome,135.0.0.0,ChromeOS,14541.0.0,https://5puzkbbxv1.cognition.run/?sona_id=57542,"en-US,en;q=0.9",cfee7etumn4e02k,19,"[""White""]",No,Female,NA,No,439908.3999999999,NA,null,<p></p>,null,choice,ctd,trinary,attraction,2,microwave ovens,null,null,null,null,null,null,2,NA,NA,NA,NA,NA,NA,NA,NA,NA,NA
NA,NA,NA,NA,NA,choice_trial,survey-html-form,65,317145,0.0-4.0-1.30,193,1,2025-05-05T18:46:09Z,b60275e29fe2361ab97ac0ac217840d7,"Mozilla/5.0 (X11; CrOS x86_64 14541.0.0) AppleWebKit/537.36 (KHTML, like Gecko) Chrome/135.0.0.0 Safari/537.36",WebKit,Chrome,135.0.0.0,ChromeOS,14541.0.0,https://5puzkbbxv1.cognition.run/?sona_id=57542,"en-US,en;q=0.9",cfee7etumn4e02k,19,"[""White""]",No,Female,NA,No,439908.3999999999,NA,6332,NA,"{""product_choice"":""B""}",choice,ctd,trinary,attraction,2,microwave ovens,null,null,null,null,null,null,2,50,60,40,60,50,60,Warranty,Cooking power,NA,NA
NA,NA,NA,NA,NA,choice_trial_setup,html-keyboard-response,66,317450,0.0-4.0-0.31,193,1,2025-05-05T18:46:09Z,b60275e29fe2361ab97ac0ac217840d7,"Mozilla/5.0 (X11; CrOS x86_64 14541.0.0) AppleWebKit/537.36 (KHTML, like Gecko) Chrome/135.0.0.0 Safari/537.36",WebKit,Chrome,135.0.0.0,ChromeOS,14541.0.0,https://5puzkbbxv1.cognition.run/?sona_id=57542,"en-US,en;q=0.9",cfee7etumn4e02k,19,"[""White""]",No,Female,NA,No,439908.3999999999,NA,null,<p></p>,null,choice,cdt,trinary,repulsion_A,1,microwave ovens,null,null,null,null,null,null,1,NA,NA,NA,NA,NA,NA,NA,NA,NA,NA
NA,NA,NA,NA,NA,choice_trial,survey-html-form,67,320331,0.0-4.0-1.31,193,1,2025-05-05T18:46:09Z,b60275e29fe2361ab97ac0ac217840d7,"Mozilla/5.0 (X11; CrOS x86_64 14541.0.0) AppleWebKit/537.36 (KHTML, like Gecko) Chrome/135.0.0.0 Safari/537.36",WebKit,Chrome,135.0.0.0,ChromeOS,14541.0.0,https://5puzkbbxv1.cognition.run/?sona_id=57542,"en-US,en;q=0.9",cfee7etumn4e02k,19,"[""White""]",No,Female,NA,No,439908.3999999999,NA,2869,NA,"{""product_choice"":""A""}",choice,cdt,trinary,repulsion_A,1,microwave ovens,null,null,null,null,null,null,1,100,90,100,30,40,20,Warranty,Cooking power,NA,NA
NA,NA,NA,NA,NA,choice_trial_setup,html-keyboard-response,68,320643,0.0-4.0-0.32,193,1,2025-05-05T18:46:09Z,b60275e29fe2361ab97ac0ac217840d7,"Mozilla/5.0 (X11; CrOS x86_64 14541.0.0) AppleWebKit/537.36 (KHTML, like Gecko) Chrome/135.0.0.0 Safari/537.36",WebKit,Chrome,135.0.0.0,ChromeOS,14541.0.0,https://5puzkbbxv1.cognition.run/?sona_id=57542,"en-US,en;q=0.9",cfee7etumn4e02k,19,"[""White""]",No,Female,NA,No,439908.3999999999,NA,null,<p></p>,null,choice,bw,binary,catch,null,washing machines,85,80,25,5,null,null,1,NA,NA,NA,NA,NA,NA,NA,NA,NA,NA
NA,NA,NA,NA,NA,choice_trial,survey-html-form,69,323844,0.0-4.0-1.32,193,1,2025-05-05T18:46:09Z,b60275e29fe2361ab97ac0ac217840d7,"Mozilla/5.0 (X11; CrOS x86_64 14541.0.0) AppleWebKit/537.36 (KHTML, like Gecko) Chrome/135.0.0.0 Safari/537.36",WebKit,Chrome,135.0.0.0,ChromeOS,14541.0.0,https://5puzkbbxv1.cognition.run/?sona_id=57542,"en-US,en;q=0.9",cfee7etumn4e02k,19,"[""White""]",No,Female,NA,No,439908.3999999999,NA,3189,NA,"{""product_choice"":""A""}",choice,bw,binary,catch,null,washing machines,85,80,25,5,null,null,1,null,null,null,null,null,null,Average lifespan,Energy savings,NA,NA
NA,NA,NA,NA,NA,choice_trial_setup,html-keyboard-response,70,324148,0.0-4.0-0.33,193,1,2025-05-05T18:46:09Z,b60275e29fe2361ab97ac0ac217840d7,"Mozilla/5.0 (X11; CrOS x86_64 14541.0.0) AppleWebKit/537.36 (KHTML, like Gecko) Chrome/135.0.0.0 Safari/537.36",WebKit,Chrome,135.0.0.0,ChromeOS,14541.0.0,https://5puzkbbxv1.cognition.run/?sona_id=57542,"en-US,en;q=0.9",cfee7etumn4e02k,19,"[""White""]",No,Female,NA,No,439908.3999999999,NA,null,<p></p>,null,choice,bw,binary,catch,null,microwave ovens,80,75,45,5,null,null,1,NA,NA,NA,NA,NA,NA,NA,NA,NA,NA
NA,NA,NA,NA,NA,choice_trial,survey-html-form,71,330175,0.0-4.0-1.33,193,1,2025-05-05T18:46:09Z,b60275e29fe2361ab97ac0ac217840d7,"Mozilla/5.0 (X11; CrOS x86_64 14541.0.0) AppleWebKit/537.36 (KHTML, like Gecko) Chrome/135.0.0.0 Safari/537.36",WebKit,Chrome,135.0.0.0,ChromeOS,14541.0.0,https://5puzkbbxv1.cognition.run/?sona_id=57542,"en-US,en;q=0.9",cfee7etumn4e02k,19,"[""White""]",No,Female,NA,No,439908.3999999999,NA,6013,NA,"{""product_choice"":""A""}",choice,bw,binary,catch,null,microwave ovens,80,75,45,5,null,null,1,null,null,null,null,null,null,Warranty,Cooking power,NA,NA
NA,NA,NA,NA,NA,choice_trial_setup,html-keyboard-response,72,330485,0.0-4.0-0.34,193,1,2025-05-05T18:46:09Z,b60275e29fe2361ab97ac0ac217840d7,"Mozilla/5.0 (X11; CrOS x86_64 14541.0.0) AppleWebKit/537.36 (KHTML, like Gecko) Chrome/135.0.0.0 Safari/537.36",WebKit,Chrome,135.0.0.0,ChromeOS,14541.0.0,https://5puzkbbxv1.cognition.run/?sona_id=57542,"en-US,en;q=0.9",cfee7etumn4e02k,19,"[""White""]",No,Female,NA,No,439908.3999999999,NA,null,<p></p>,null,choice,ct,binary,repulsion,1,microwave ovens,null,null,null,null,null,null,2,NA,NA,NA,NA,NA,NA,NA,NA,NA,NA
NA,NA,NA,NA,NA,choice_trial,survey-html-form,73,334156,0.0-4.0-1.34,193,1,2025-05-05T18:46:09Z,b60275e29fe2361ab97ac0ac217840d7,"Mozilla/5.0 (X11; CrOS x86_64 14541.0.0) AppleWebKit/537.36 (KHTML, like Gecko) Chrome/135.0.0.0 Safari/537.36",WebKit,Chrome,135.0.0.0,ChromeOS,14541.0.0,https://5puzkbbxv1.cognition.run/?sona_id=57542,"en-US,en;q=0.9",cfee7etumn4e02k,19,"[""White""]",No,Female,NA,No,439908.3999999999,NA,3665,NA,"{""product_choice"":""A""}",choice,ct,binary,repulsion,1,microwave ovens,null,null,null,null,null,null,2,100,90,null,30,40,null,Warranty,Cooking power,NA,NA
NA,NA,NA,NA,NA,choice_trial_setup,html-keyboard-response,74,334461,0.0-4.0-0.35,193,1,2025-05-05T18:46:09Z,b60275e29fe2361ab97ac0ac217840d7,"Mozilla/5.0 (X11; CrOS x86_64 14541.0.0) AppleWebKit/537.36 (KHTML, like Gecko) Chrome/135.0.0.0 Safari/537.36",WebKit,Chrome,135.0.0.0,ChromeOS,14541.0.0,https://5puzkbbxv1.cognition.run/?sona_id=57542,"en-US,en;q=0.9",cfee7etumn4e02k,19,"[""White""]",No,Female,NA,No,439908.3999999999,NA,null,<p></p>,null,choice,ctd,trinary,repulsion_A,2,washing machines,null,null,null,null,null,null,2,NA,NA,NA,NA,NA,NA,NA,NA,NA,NA
NA,NA,NA,NA,NA,choice_trial,survey-html-form,75,338347,0.0-4.0-1.35,193,1,2025-05-05T18:46:09Z,b60275e29fe2361ab97ac0ac217840d7,"Mozilla/5.0 (X11; CrOS x86_64 14541.0.0) AppleWebKit/537.36 (KHTML, like Gecko) Chrome/135.0.0.0 Safari/537.36",WebKit,Chrome,135.0.0.0,ChromeOS,14541.0.0,https://5puzkbbxv1.cognition.run/?sona_id=57542,"en-US,en;q=0.9",cfee7etumn4e02k,19,"[""White""]",No,Female,NA,No,439908.3999999999,NA,3872,NA,"{""product_choice"":""A""}",choice,ctd,trinary,repulsion_A,2,washing machines,null,null,null,null,null,null,2,30,40,20,100,90,100,Average lifespan,Energy savings,NA,NA
NA,NA,NA,NA,NA,choice_trial_setup,html-keyboard-response,76,338657,0.0-4.0-0.36,193,1,2025-05-05T18:46:09Z,b60275e29fe2361ab97ac0ac217840d7,"Mozilla/5.0 (X11; CrOS x86_64 14541.0.0) AppleWebKit/537.36 (KHTML, like Gecko) Chrome/135.0.0.0 Safari/537.36",WebKit,Chrome,135.0.0.0,ChromeOS,14541.0.0,https://5puzkbbxv1.cognition.run/?sona_id=57542,"en-US,en;q=0.9",cfee7etumn4e02k,19,"[""White""]",No,Female,NA,No,439908.3999999999,NA,null,<p></p>,null,choice,tcd,trinary,repulsion_B,1,washing machines,null,null,null,null,null,null,2,NA,NA,NA,NA,NA,NA,NA,NA,NA,NA
NA,NA,NA,NA,NA,choice_trial,survey-html-form,77,343452,0.0-4.0-1.36,193,1,2025-05-05T18:46:09Z,b60275e29fe2361ab97ac0ac217840d7,"Mozilla/5.0 (X11; CrOS x86_64 14541.0.0) AppleWebKit/537.36 (KHTML, like Gecko) Chrome/135.0.0.0 Safari/537.36",WebKit,Chrome,135.0.0.0,ChromeOS,14541.0.0,https://5puzkbbxv1.cognition.run/?sona_id=57542,"en-US,en;q=0.9",cfee7etumn4e02k,19,"[""White""]",No,Female,NA,No,439908.3999999999,NA,4782,NA,"{""product_choice"":""A""}",choice,tcd,trinary,repulsion_B,1,washing machines,null,null,null,null,null,null,2,90,100,80,40,30,40,Average lifespan,Energy savings,NA,NA
NA,NA,NA,NA,NA,choice_trial_setup,html-keyboard-response,78,343756,0.0-4.0-0.37,193,1,2025-05-05T18:46:09Z,b60275e29fe2361ab97ac0ac217840d7,"Mozilla/5.0 (X11; CrOS x86_64 14541.0.0) AppleWebKit/537.36 (KHTML, like Gecko) Chrome/135.0.0.0 Safari/537.36",WebKit,Chrome,135.0.0.0,ChromeOS,14541.0.0,https://5puzkbbxv1.cognition.run/?sona_id=57542,"en-US,en;q=0.9",cfee7etumn4e02k,19,"[""White""]",No,Female,NA,No,439908.3999999999,NA,null,<p></p>,null,choice,tcd,trinary,repulsion_A,1,washing machines,null,null,null,null,null,null,2,NA,NA,NA,NA,NA,NA,NA,NA,NA,NA
NA,NA,NA,NA,NA,choice_trial,survey-html-form,79,349646,0.0-4.0-1.37,193,1,2025-05-05T18:46:09Z,b60275e29fe2361ab97ac0ac217840d7,"Mozilla/5.0 (X11; CrOS x86_64 14541.0.0) AppleWebKit/537.36 (KHTML, like Gecko) Chrome/135.0.0.0 Safari/537.36",WebKit,Chrome,135.0.0.0,ChromeOS,14541.0.0,https://5puzkbbxv1.cognition.run/?sona_id=57542,"en-US,en;q=0.9",cfee7etumn4e02k,19,"[""White""]",No,Female,NA,No,439908.3999999999,NA,5877,NA,"{""product_choice"":""B""}",choice,tcd,trinary,repulsion_A,1,washing machines,null,null,null,null,null,null,2,100,90,100,30,40,20,Average lifespan,Energy savings,NA,NA
NA,NA,NA,NA,NA,choice_trial_setup,html-keyboard-response,80,349952,0.0-4.0-0.38,193,1,2025-05-05T18:46:09Z,b60275e29fe2361ab97ac0ac217840d7,"Mozilla/5.0 (X11; CrOS x86_64 14541.0.0) AppleWebKit/537.36 (KHTML, like Gecko) Chrome/135.0.0.0 Safari/537.36",WebKit,Chrome,135.0.0.0,ChromeOS,14541.0.0,https://5puzkbbxv1.cognition.run/?sona_id=57542,"en-US,en;q=0.9",cfee7etumn4e02k,19,"[""White""]",No,Female,NA,No,439908.3999999999,NA,null,<p></p>,null,choice,bww,trinary,catch,null,televisions,85,60,25,40,45,40,2,NA,NA,NA,NA,NA,NA,NA,NA,NA,NA
NA,NA,NA,NA,NA,choice_trial,survey-html-form,81,353523,0.0-4.0-1.38,193,1,2025-05-05T18:46:09Z,b60275e29fe2361ab97ac0ac217840d7,"Mozilla/5.0 (X11; CrOS x86_64 14541.0.0) AppleWebKit/537.36 (KHTML, like Gecko) Chrome/135.0.0.0 Safari/537.36",WebKit,Chrome,135.0.0.0,ChromeOS,14541.0.0,https://5puzkbbxv1.cognition.run/?sona_id=57542,"en-US,en;q=0.9",cfee7etumn4e02k,19,"[""White""]",No,Female,NA,No,439908.3999999999,NA,3555,NA,"{""product_choice"":""A""}",choice,bww,trinary,catch,null,televisions,85,60,25,40,45,40,2,null,null,null,null,null,null,Screen size,Average lifespan,NA,NA
NA,NA,NA,NA,NA,choice_trial_setup,html-keyboard-response,82,353828,0.0-4.0-0.39,193,1,2025-05-05T18:46:09Z,b60275e29fe2361ab97ac0ac217840d7,"Mozilla/5.0 (X11; CrOS x86_64 14541.0.0) AppleWebKit/537.36 (KHTML, like Gecko) Chrome/135.0.0.0 Safari/537.36",WebKit,Chrome,135.0.0.0,ChromeOS,14541.0.0,https://5puzkbbxv1.cognition.run/?sona_id=57542,"en-US,en;q=0.9",cfee7etumn4e02k,19,"[""White""]",No,Female,NA,No,439908.3999999999,NA,null,<p></p>,null,choice,tc,binary,repulsion,1,laptops,null,null,null,null,null,null,2,NA,NA,NA,NA,NA,NA,NA,NA,NA,NA
NA,NA,NA,NA,NA,choice_trial,survey-html-form,83,356376,0.0-4.0-1.39,193,1,2025-05-05T18:46:09Z,b60275e29fe2361ab97ac0ac217840d7,"Mozilla/5.0 (X11; CrOS x86_64 14541.0.0) AppleWebKit/537.36 (KHTML, like Gecko) Chrome/135.0.0.0 Safari/537.36",WebKit,Chrome,135.0.0.0,ChromeOS,14541.0.0,https://5puzkbbxv1.cognition.run/?sona_id=57542,"en-US,en;q=0.9",cfee7etumn4e02k,19,"[""White""]",No,Female,NA,No,439908.3999999999,NA,2532,NA,"{""product_choice"":""B""}",choice,tc,binary,repulsion,1,laptops,null,null,null,null,null,null,2,100,90,null,30,40,null,Processing speed,Memory (RAM),NA,NA
NA,NA,NA,NA,NA,choice_trial_setup,html-keyboard-response,84,356685,0.0-4.0-0.40,193,1,2025-05-05T18:46:09Z,b60275e29fe2361ab97ac0ac217840d7,"Mozilla/5.0 (X11; CrOS x86_64 14541.0.0) AppleWebKit/537.36 (KHTML, like Gecko) Chrome/135.0.0.0 Safari/537.36",WebKit,Chrome,135.0.0.0,ChromeOS,14541.0.0,https://5puzkbbxv1.cognition.run/?sona_id=57542,"en-US,en;q=0.9",cfee7etumn4e02k,19,"[""White""]",No,Female,NA,No,439908.3999999999,NA,null,<p></p>,null,choice,cdt,trinary,repulsion_A,2,televisions,null,null,null,null,null,null,1,NA,NA,NA,NA,NA,NA,NA,NA,NA,NA
NA,NA,NA,NA,NA,choice_trial,survey-html-form,85,359628,0.0-4.0-1.40,193,1,2025-05-05T18:46:09Z,b60275e29fe2361ab97ac0ac217840d7,"Mozilla/5.0 (X11; CrOS x86_64 14541.0.0) AppleWebKit/537.36 (KHTML, like Gecko) Chrome/135.0.0.0 Safari/537.36",WebKit,Chrome,135.0.0.0,ChromeOS,14541.0.0,https://5puzkbbxv1.cognition.run/?sona_id=57542,"en-US,en;q=0.9",cfee7etumn4e02k,19,"[""White""]",No,Female,NA,No,439908.3999999999,NA,2929,NA,"{""product_choice"":""A""}",choice,cdt,trinary,repulsion_A,2,televisions,null,null,null,null,null,null,1,30,40,20,100,90,100,Screen size,Average lifespan,NA,NA
NA,NA,NA,NA,NA,choice_trial_setup,html-keyboard-response,86,359933,0.0-4.0-0.41,193,1,2025-05-05T18:46:09Z,b60275e29fe2361ab97ac0ac217840d7,"Mozilla/5.0 (X11; CrOS x86_64 14541.0.0) AppleWebKit/537.36 (KHTML, like Gecko) Chrome/135.0.0.0 Safari/537.36",WebKit,Chrome,135.0.0.0,ChromeOS,14541.0.0,https://5puzkbbxv1.cognition.run/?sona_id=57542,"en-US,en;q=0.9",cfee7etumn4e02k,19,"[""White""]",No,Female,NA,No,439908.3999999999,NA,null,<p></p>,null,choice,ct,binary,attraction,NA,televisions,null,null,null,null,null,null,1,NA,NA,NA,NA,NA,NA,NA,NA,NA,NA
NA,NA,NA,NA,NA,choice_trial,survey-html-form,87,362951,0.0-4.0-1.41,193,1,2025-05-05T18:46:09Z,b60275e29fe2361ab97ac0ac217840d7,"Mozilla/5.0 (X11; CrOS x86_64 14541.0.0) AppleWebKit/537.36 (KHTML, like Gecko) Chrome/135.0.0.0 Safari/537.36",WebKit,Chrome,135.0.0.0,ChromeOS,14541.0.0,https://5puzkbbxv1.cognition.run/?sona_id=57542,"en-US,en;q=0.9",cfee7etumn4e02k,19,"[""White""]",No,Female,NA,No,439908.3999999999,NA,3005,NA,"{""product_choice"":""A""}",choice,ct,binary,attraction,NA,televisions,null,null,null,null,null,null,1,60,50,null,50,60,null,Screen size,Average lifespan,NA,NA
NA,NA,NA,NA,NA,choice_trial_setup,html-keyboard-response,88,363257,0.0-4.0-0.42,193,1,2025-05-05T18:46:09Z,b60275e29fe2361ab97ac0ac217840d7,"Mozilla/5.0 (X11; CrOS x86_64 14541.0.0) AppleWebKit/537.36 (KHTML, like Gecko) Chrome/135.0.0.0 Safari/537.36",WebKit,Chrome,135.0.0.0,ChromeOS,14541.0.0,https://5puzkbbxv1.cognition.run/?sona_id=57542,"en-US,en;q=0.9",cfee7etumn4e02k,19,"[""White""]",No,Female,NA,No,439908.3999999999,NA,null,<p></p>,null,choice,tc,binary,attraction,NA,washing machines,null,null,null,null,null,null,1,NA,NA,NA,NA,NA,NA,NA,NA,NA,NA
NA,NA,NA,NA,NA,choice_trial,survey-html-form,89,368455,0.0-4.0-1.42,193,1,2025-05-05T18:46:09Z,b60275e29fe2361ab97ac0ac217840d7,"Mozilla/5.0 (X11; CrOS x86_64 14541.0.0) AppleWebKit/537.36 (KHTML, like Gecko) Chrome/135.0.0.0 Safari/537.36",WebKit,Chrome,135.0.0.0,ChromeOS,14541.0.0,https://5puzkbbxv1.cognition.run/?sona_id=57542,"en-US,en;q=0.9",cfee7etumn4e02k,19,"[""White""]",No,Female,NA,No,439908.3999999999,NA,5184,NA,"{""product_choice"":""A""}",choice,tc,binary,attraction,NA,washing machines,null,null,null,null,null,null,1,60,50,null,50,60,null,Average lifespan,Energy savings,NA,NA
NA,NA,NA,NA,NA,choice_trial_setup,html-keyboard-response,90,368761,0.0-4.0-0.43,193,1,2025-05-05T18:46:09Z,b60275e29fe2361ab97ac0ac217840d7,"Mozilla/5.0 (X11; CrOS x86_64 14541.0.0) AppleWebKit/537.36 (KHTML, like Gecko) Chrome/135.0.0.0 Safari/537.36",WebKit,Chrome,135.0.0.0,ChromeOS,14541.0.0,https://5puzkbbxv1.cognition.run/?sona_id=57542,"en-US,en;q=0.9",cfee7etumn4e02k,19,"[""White""]",No,Female,NA,No,439908.3999999999,NA,null,<p></p>,null,choice,cdt,trinary,attraction,1,washing machines,null,null,null,null,null,null,2,NA,NA,NA,NA,NA,NA,NA,NA,NA,NA
NA,NA,NA,NA,NA,choice_trial,survey-html-form,91,375897,0.0-4.0-1.43,193,1,2025-05-05T18:46:09Z,b60275e29fe2361ab97ac0ac217840d7,"Mozilla/5.0 (X11; CrOS x86_64 14541.0.0) AppleWebKit/537.36 (KHTML, like Gecko) Chrome/135.0.0.0 Safari/537.36",WebKit,Chrome,135.0.0.0,ChromeOS,14541.0.0,https://5puzkbbxv1.cognition.run/?sona_id=57542,"en-US,en;q=0.9",cfee7etumn4e02k,19,"[""White""]",No,Female,NA,No,439908.3999999999,NA,7120,NA,"{""product_choice"":""C""}",choice,cdt,trinary,attraction,1,washing machines,null,null,null,null,null,null,2,60,50,60,50,60,40,Average lifespan,Energy savings,NA,NA
NA,NA,NA,NA,NA,post_trials_message,html-button-response,92,377664,0.0-5.0,193,1,2025-05-05T18:46:09Z,b60275e29fe2361ab97ac0ac217840d7,"Mozilla/5.0 (X11; CrOS x86_64 14541.0.0) AppleWebKit/537.36 (KHTML, like Gecko) Chrome/135.0.0.0 Safari/537.36",WebKit,Chrome,135.0.0.0,ChromeOS,14541.0.0,https://5puzkbbxv1.cognition.run/?sona_id=57542,"en-US,en;q=0.9",cfee7etumn4e02k,19,"[""White""]",No,Female,NA,No,439908.3999999999,NA,1762,<p> <b>Thank you for your patience!</b></p><p>  The study will be done after completing a brief form. </p>,0,NA,NA,NA,NA,NA,NA,NA,NA,NA,NA,NA,NA,NA,NA,NA,NA,NA,NA,NA,NA,NA,NA,NA
NA,NA,NA,NA,NA,survey_message,survey-text,93,409553,0.0-6.0,193,1,2025-05-05T18:46:09Z,b60275e29fe2361ab97ac0ac217840d7,"Mozilla/5.0 (X11; CrOS x86_64 14541.0.0) AppleWebKit/537.36 (KHTML, like Gecko) Chrome/135.0.0.0 Safari/537.36",WebKit,Chrome,135.0.0.0,ChromeOS,14541.0.0,https://5puzkbbxv1.cognition.run/?sona_id=57542,"en-US,en;q=0.9",cfee7etumn4e02k,19,"[""White""]",No,Female,NA,No,439908.3999999999,NA,31880,NA,"{""Q0"":""I choose the one that made the most sense and would OVERALL work the best such as 90/40 instead of 100/20 ""}",NA,NA,NA,NA,NA,NA,NA,NA,NA,NA,NA,NA,NA,NA,NA,NA,NA,NA,NA,NA,NA,I choose the one that made the most sense and would OVERALL work the best such as 90/40 instead of 100/20,NA
NA,NA,NA,NA,NA,demo_age,survey-text,94,412611,0.0-7.0,193,1,2025-05-05T18:46:09Z,b60275e29fe2361ab97ac0ac217840d7,"Mozilla/5.0 (X11; CrOS x86_64 14541.0.0) AppleWebKit/537.36 (KHTML, like Gecko) Chrome/135.0.0.0 Safari/537.36",WebKit,Chrome,135.0.0.0,ChromeOS,14541.0.0,https://5puzkbbxv1.cognition.run/?sona_id=57542,"en-US,en;q=0.9",cfee7etumn4e02k,19,"[""White""]",No,Female,NA,No,439908.3999999999,NA,3045,NA,"{""Q0"":""19""}",NA,NA,NA,NA,NA,NA,NA,NA,NA,NA,NA,NA,NA,NA,NA,NA,NA,NA,NA,NA,NA,NA,NA
NA,NA,NA,NA,NA,demo_race,survey-multi-select,95,415299,0.0-8.0,193,1,2025-05-05T18:46:09Z,b60275e29fe2361ab97ac0ac217840d7,"Mozilla/5.0 (X11; CrOS x86_64 14541.0.0) AppleWebKit/537.36 (KHTML, like Gecko) Chrome/135.0.0.0 Safari/537.36",WebKit,Chrome,135.0.0.0,ChromeOS,14541.0.0,https://5puzkbbxv1.cognition.run/?sona_id=57542,"en-US,en;q=0.9",cfee7etumn4e02k,19,"[""White""]",No,Female,NA,No,439908.3999999999,NA,2658,NA,"{""Q0"":[""White""]}",NA,NA,NA,NA,NA,NA,NA,NA,NA,NA,NA,NA,NA,NA,NA,NA,NA,NA,NA,NA,NA,NA,[0]
NA,NA,NA,NA,NA,demo_ethnicity_gender,survey-multi-choice,96,419347,0.0-9.0,193,1,2025-05-05T18:46:09Z,b60275e29fe2361ab97ac0ac217840d7,"Mozilla/5.0 (X11; CrOS x86_64 14541.0.0) AppleWebKit/537.36 (KHTML, like Gecko) Chrome/135.0.0.0 Safari/537.36",WebKit,Chrome,135.0.0.0,ChromeOS,14541.0.0,https://5puzkbbxv1.cognition.run/?sona_id=57542,"en-US,en;q=0.9",cfee7etumn4e02k,19,"[""White""]",No,Female,NA,No,439908.3999999999,NA,4040,NA,"{""Q0"":""No"",""Q1"":""Female""}",NA,NA,NA,NA,NA,NA,NA,NA,NA,NA,NA,NA,NA,NA,NA,NA,NA,NA,NA,NA,NA,NA,"[0,1]"
NA,NA,NA,NA,NA,demo_countries,survey-text,97,424884,0.0-10.0,193,1,2025-05-05T18:46:09Z,b60275e29fe2361ab97ac0ac217840d7,"Mozilla/5.0 (X11; CrOS x86_64 14541.0.0) AppleWebKit/537.36 (KHTML, like Gecko) Chrome/135.0.0.0 Safari/537.36",WebKit,Chrome,135.0.0.0,ChromeOS,14541.0.0,https://5puzkbbxv1.cognition.run/?sona_id=57542,"en-US,en;q=0.9",cfee7etumn4e02k,19,"[""White""]",No,Female,NA,No,439908.3999999999,NA,5526,NA,"{""Q0"":""NA""}",NA,NA,NA,NA,NA,NA,NA,NA,NA,NA,NA,NA,NA,NA,NA,NA,NA,NA,NA,NA,NA,NA,NA
NA,NA,NA,NA,NA,demo_prev_study,survey-multi-choice,98,429515,0.0-11.0,193,1,2025-05-05T18:46:09Z,b60275e29fe2361ab97ac0ac217840d7,"Mozilla/5.0 (X11; CrOS x86_64 14541.0.0) AppleWebKit/537.36 (KHTML, like Gecko) Chrome/135.0.0.0 Safari/537.36",WebKit,Chrome,135.0.0.0,ChromeOS,14541.0.0,https://5puzkbbxv1.cognition.run/?sona_id=57542,"en-US,en;q=0.9",cfee7etumn4e02k,19,"[""White""]",No,Female,NA,No,439908.3999999999,NA,4621,NA,"{""Q0"":""No""}",NA,NA,NA,NA,NA,NA,NA,NA,NA,NA,NA,NA,NA,NA,NA,NA,NA,NA,NA,NA,NA,NA,[0]
NA,NA,NA,NA,NA,post_survey_message,html-keyboard-response,99,433492,0.0-12.0,193,1,2025-05-05T18:46:09Z,b60275e29fe2361ab97ac0ac217840d7,"Mozilla/5.0 (X11; CrOS x86_64 14541.0.0) AppleWebKit/537.36 (KHTML, like Gecko) Chrome/135.0.0.0 Safari/537.36",WebKit,Chrome,135.0.0.0,ChromeOS,14541.0.0,https://5puzkbbxv1.cognition.run/?sona_id=57542,"en-US,en;q=0.9",cfee7etumn4e02k,19,"[""White""]",No,Female,NA,No,439908.3999999999,NA,3972,NA,j,NA,NA,NA,NA,NA,NA,NA,NA,NA,NA,NA,NA,NA,NA,NA,NA,NA,NA,NA,NA,NA,NA,NA
NA,NA,NA,NA,NA,debrief,image-keyboard-response,100,439904,0.0-13.0,193,1,2025-05-05T18:46:09Z,b60275e29fe2361ab97ac0ac217840d7,"Mozilla/5.0 (X11; CrOS x86_64 14541.0.0) AppleWebKit/537.36 (KHTML, like Gecko) Chrome/135.0.0.0 Safari/537.36",WebKit,Chrome,135.0.0.0,ChromeOS,14541.0.0,https://5puzkbbxv1.cognition.run/?sona_id=57542,"en-US,en;q=0.9",cfee7etumn4e02k,19,"[""White""]",No,Female,NA,No,439908.3999999999,NA,6401,Judg_choice_debrief.png,p,NA,NA,NA,NA,NA,NA,NA,NA,NA,NA,NA,NA,NA,NA,NA,NA,NA,NA,NA,NA,NA,NA,NA
