success,timeout,failed_images,failed_audio,failed_video,screen_id,trial_type,trial_index,time_elapsed,internal_node_id,run_id,condition,recorded_at,source_code_version,user_agent,device,browser,browser_version,platform,platform_version,referer,accept_language,ppt_id,age,race,ethnicity,gender,other_countries,prev_study,exp_duration,view_history,rt,stimulus,response,phase,order,set,effect,t_high,category,d1_best,d2_best,d1_worst1,d2_worst1,d1_worst2,d2_worst2,first_dim,d1_t,d1_c,d1_d,d2_t,d2_c,d2_d,d1_name,d2_name,strategy_response,question_order
TRUE,FALSE,[],[],[],img preload,preload,0,85,0.0-0.0,195,1,2025-05-05T19:18:50Z,b60275e29fe2361ab97ac0ac217840d7,"Mozilla/5.0 (Macintosh; Intel Mac OS X 10_15_7) AppleWebKit/605.1.15 (KHTML, like Gecko) Version/17.5 Safari/605.1.15",Macintosh,Safari,17.5,OS X,10_15_7,https://5puzkbbxv1.cognition.run/?sona_id=57242,"en-US,en;q=0.9",9sw1z0q40blhsjj,20,"[""White""]",No,Female,NA,No,404022,NA,NA,NA,NA,NA,NA,NA,NA,NA,NA,NA,NA,NA,NA,NA,NA,NA,NA,NA,NA,NA,NA,NA,NA,NA,NA,NA
NA,NA,NA,NA,NA,computer_message,instructions,1,2758,0.0-1.0,195,1,2025-05-05T19:18:50Z,b60275e29fe2361ab97ac0ac217840d7,"Mozilla/5.0 (Macintosh; Intel Mac OS X 10_15_7) AppleWebKit/605.1.15 (KHTML, like Gecko) Version/17.5 Safari/605.1.15",Macintosh,Safari,17.5,OS X,10_15_7,https://5puzkbbxv1.cognition.run/?sona_id=57242,"en-US,en;q=0.9",9sw1z0q40blhsjj,20,"[""White""]",No,Female,NA,No,404022,"[{""page_index"":0,""viewing_time"":2672}]",2672,NA,NA,NA,NA,NA,NA,NA,NA,NA,NA,NA,NA,NA,NA,NA,NA,NA,NA,NA,NA,NA,NA,NA,NA,NA
TRUE,NA,NA,NA,NA,NA,fullscreen,2,5300,0.0-2.0,195,1,2025-05-05T19:18:50Z,b60275e29fe2361ab97ac0ac217840d7,"Mozilla/5.0 (Macintosh; Intel Mac OS X 10_15_7) AppleWebKit/605.1.15 (KHTML, like Gecko) Version/17.5 Safari/605.1.15",Macintosh,Safari,17.5,OS X,10_15_7,https://5puzkbbxv1.cognition.run/?sona_id=57242,"en-US,en;q=0.9",9sw1z0q40blhsjj,20,"[""White""]",No,Female,NA,No,404022,NA,1535,NA,NA,NA,NA,NA,NA,NA,NA,NA,NA,NA,NA,NA,NA,NA,NA,NA,NA,NA,NA,NA,NA,NA,NA,NA
NA,NA,NA,NA,NA,choice_instructions,instructions,3,35436,0.0-3.0,195,1,2025-05-05T19:18:50Z,b60275e29fe2361ab97ac0ac217840d7,"Mozilla/5.0 (Macintosh; Intel Mac OS X 10_15_7) AppleWebKit/605.1.15 (KHTML, like Gecko) Version/17.5 Safari/605.1.15",Macintosh,Safari,17.5,OS X,10_15_7,https://5puzkbbxv1.cognition.run/?sona_id=57242,"en-US,en;q=0.9",9sw1z0q40blhsjj,20,"[""White""]",No,Female,NA,No,404022,"[{""page_index"":0,""viewing_time"":1379},{""page_index"":1,""viewing_time"":3334},{""page_index"":2,""viewing_time"":5558},{""page_index"":3,""viewing_time"":4506},{""page_index"":4,""viewing_time"":2039},{""page_index"":5,""viewing_time"":7986},{""page_index"":6,""viewing_time"":5332}]",30135,NA,NA,NA,NA,NA,NA,NA,NA,NA,NA,NA,NA,NA,NA,NA,NA,NA,NA,NA,NA,NA,NA,NA,NA,NA
NA,NA,NA,NA,NA,choice_trial_setup,html-keyboard-response,4,35740,0.0-4.0-0.0,195,1,2025-05-05T19:18:50Z,b60275e29fe2361ab97ac0ac217840d7,"Mozilla/5.0 (Macintosh; Intel Mac OS X 10_15_7) AppleWebKit/605.1.15 (KHTML, like Gecko) Version/17.5 Safari/605.1.15",Macintosh,Safari,17.5,OS X,10_15_7,https://5puzkbbxv1.cognition.run/?sona_id=57242,"en-US,en;q=0.9",9sw1z0q40blhsjj,20,"[""White""]",No,Female,NA,No,404022,NA,null,<p></p>,null,choice,tdc,trinary,repulsion_B,1,microwave ovens,null,null,null,null,null,null,2,NA,NA,NA,NA,NA,NA,NA,NA,NA,NA
NA,NA,NA,NA,NA,choice_trial,survey-html-form,5,45219,0.0-4.0-1.0,195,1,2025-05-05T19:18:50Z,b60275e29fe2361ab97ac0ac217840d7,"Mozilla/5.0 (Macintosh; Intel Mac OS X 10_15_7) AppleWebKit/605.1.15 (KHTML, like Gecko) Version/17.5 Safari/605.1.15",Macintosh,Safari,17.5,OS X,10_15_7,https://5puzkbbxv1.cognition.run/?sona_id=57242,"en-US,en;q=0.9",9sw1z0q40blhsjj,20,"[""White""]",No,Female,NA,No,404022,NA,9474,NA,"{""product_choice"":""A""}",choice,tdc,trinary,repulsion_B,1,microwave ovens,null,null,null,null,null,null,2,90,100,80,40,30,40,Warranty,Cooking power,NA,NA
NA,NA,NA,NA,NA,choice_trial_setup,html-keyboard-response,6,45521,0.0-4.0-0.1,195,1,2025-05-05T19:18:50Z,b60275e29fe2361ab97ac0ac217840d7,"Mozilla/5.0 (Macintosh; Intel Mac OS X 10_15_7) AppleWebKit/605.1.15 (KHTML, like Gecko) Version/17.5 Safari/605.1.15",Macintosh,Safari,17.5,OS X,10_15_7,https://5puzkbbxv1.cognition.run/?sona_id=57242,"en-US,en;q=0.9",9sw1z0q40blhsjj,20,"[""White""]",No,Female,NA,No,404022,NA,null,<p></p>,null,choice,dct,trinary,repulsion_B,1,laptops,null,null,null,null,null,null,2,NA,NA,NA,NA,NA,NA,NA,NA,NA,NA
NA,NA,NA,NA,NA,choice_trial,survey-html-form,7,54289,0.0-4.0-1.1,195,1,2025-05-05T19:18:50Z,b60275e29fe2361ab97ac0ac217840d7,"Mozilla/5.0 (Macintosh; Intel Mac OS X 10_15_7) AppleWebKit/605.1.15 (KHTML, like Gecko) Version/17.5 Safari/605.1.15",Macintosh,Safari,17.5,OS X,10_15_7,https://5puzkbbxv1.cognition.run/?sona_id=57242,"en-US,en;q=0.9",9sw1z0q40blhsjj,20,"[""White""]",No,Female,NA,No,404022,NA,8765,NA,"{""product_choice"":""C""}",choice,dct,trinary,repulsion_B,1,laptops,null,null,null,null,null,null,2,90,100,80,40,30,40,Processing speed,Memory (RAM),NA,NA
NA,NA,NA,NA,NA,choice_trial_setup,html-keyboard-response,8,54591,0.0-4.0-0.2,195,1,2025-05-05T19:18:50Z,b60275e29fe2361ab97ac0ac217840d7,"Mozilla/5.0 (Macintosh; Intel Mac OS X 10_15_7) AppleWebKit/605.1.15 (KHTML, like Gecko) Version/17.5 Safari/605.1.15",Macintosh,Safari,17.5,OS X,10_15_7,https://5puzkbbxv1.cognition.run/?sona_id=57242,"en-US,en;q=0.9",9sw1z0q40blhsjj,20,"[""White""]",No,Female,NA,No,404022,NA,null,<p></p>,null,choice,tdc,trinary,repulsion_A,2,laptops,null,null,null,null,null,null,2,NA,NA,NA,NA,NA,NA,NA,NA,NA,NA
NA,NA,NA,NA,NA,choice_trial,survey-html-form,9,72475,0.0-4.0-1.2,195,1,2025-05-05T19:18:50Z,b60275e29fe2361ab97ac0ac217840d7,"Mozilla/5.0 (Macintosh; Intel Mac OS X 10_15_7) AppleWebKit/605.1.15 (KHTML, like Gecko) Version/17.5 Safari/605.1.15",Macintosh,Safari,17.5,OS X,10_15_7,https://5puzkbbxv1.cognition.run/?sona_id=57242,"en-US,en;q=0.9",9sw1z0q40blhsjj,20,"[""White""]",No,Female,NA,No,404022,NA,17881,NA,"{""product_choice"":""C""}",choice,tdc,trinary,repulsion_A,2,laptops,null,null,null,null,null,null,2,30,40,20,100,90,100,Processing speed,Memory (RAM),NA,NA
NA,NA,NA,NA,NA,choice_trial_setup,html-keyboard-response,10,72778,0.0-4.0-0.3,195,1,2025-05-05T19:18:50Z,b60275e29fe2361ab97ac0ac217840d7,"Mozilla/5.0 (Macintosh; Intel Mac OS X 10_15_7) AppleWebKit/605.1.15 (KHTML, like Gecko) Version/17.5 Safari/605.1.15",Macintosh,Safari,17.5,OS X,10_15_7,https://5puzkbbxv1.cognition.run/?sona_id=57242,"en-US,en;q=0.9",9sw1z0q40blhsjj,20,"[""White""]",No,Female,NA,No,404022,NA,null,<p></p>,null,choice,wbw,trinary,catch,null,televisions,55,60,25,5,5,5,2,NA,NA,NA,NA,NA,NA,NA,NA,NA,NA
NA,NA,NA,NA,NA,choice_trial,survey-html-form,11,82379,0.0-4.0-1.3,195,1,2025-05-05T19:18:50Z,b60275e29fe2361ab97ac0ac217840d7,"Mozilla/5.0 (Macintosh; Intel Mac OS X 10_15_7) AppleWebKit/605.1.15 (KHTML, like Gecko) Version/17.5 Safari/605.1.15",Macintosh,Safari,17.5,OS X,10_15_7,https://5puzkbbxv1.cognition.run/?sona_id=57242,"en-US,en;q=0.9",9sw1z0q40blhsjj,20,"[""White""]",No,Female,NA,No,404022,NA,9599,NA,"{""product_choice"":""B""}",choice,wbw,trinary,catch,null,televisions,55,60,25,5,5,5,2,null,null,null,null,null,null,Screen size,Average lifespan,NA,NA
NA,NA,NA,NA,NA,choice_trial_setup,html-keyboard-response,12,82681,0.0-4.0-0.4,195,1,2025-05-05T19:18:50Z,b60275e29fe2361ab97ac0ac217840d7,"Mozilla/5.0 (Macintosh; Intel Mac OS X 10_15_7) AppleWebKit/605.1.15 (KHTML, like Gecko) Version/17.5 Safari/605.1.15",Macintosh,Safari,17.5,OS X,10_15_7,https://5puzkbbxv1.cognition.run/?sona_id=57242,"en-US,en;q=0.9",9sw1z0q40blhsjj,20,"[""White""]",No,Female,NA,No,404022,NA,null,<p></p>,null,choice,tdc,trinary,attraction,2,laptops,null,null,null,null,null,null,2,NA,NA,NA,NA,NA,NA,NA,NA,NA,NA
NA,NA,NA,NA,NA,choice_trial,survey-html-form,13,90315,0.0-4.0-1.4,195,1,2025-05-05T19:18:50Z,b60275e29fe2361ab97ac0ac217840d7,"Mozilla/5.0 (Macintosh; Intel Mac OS X 10_15_7) AppleWebKit/605.1.15 (KHTML, like Gecko) Version/17.5 Safari/605.1.15",Macintosh,Safari,17.5,OS X,10_15_7,https://5puzkbbxv1.cognition.run/?sona_id=57242,"en-US,en;q=0.9",9sw1z0q40blhsjj,20,"[""White""]",No,Female,NA,No,404022,NA,7631,NA,"{""product_choice"":""C""}",choice,tdc,trinary,attraction,2,laptops,null,null,null,null,null,null,2,50,60,40,60,50,60,Processing speed,Memory (RAM),NA,NA
NA,NA,NA,NA,NA,choice_trial_setup,html-keyboard-response,14,90617,0.0-4.0-0.5,195,1,2025-05-05T19:18:50Z,b60275e29fe2361ab97ac0ac217840d7,"Mozilla/5.0 (Macintosh; Intel Mac OS X 10_15_7) AppleWebKit/605.1.15 (KHTML, like Gecko) Version/17.5 Safari/605.1.15",Macintosh,Safari,17.5,OS X,10_15_7,https://5puzkbbxv1.cognition.run/?sona_id=57242,"en-US,en;q=0.9",9sw1z0q40blhsjj,20,"[""White""]",No,Female,NA,No,404022,NA,null,<p></p>,null,choice,bw,binary,catch,null,laptops,70,55,10,25,null,null,1,NA,NA,NA,NA,NA,NA,NA,NA,NA,NA
NA,NA,NA,NA,NA,choice_trial,survey-html-form,15,96171,0.0-4.0-1.5,195,1,2025-05-05T19:18:50Z,b60275e29fe2361ab97ac0ac217840d7,"Mozilla/5.0 (Macintosh; Intel Mac OS X 10_15_7) AppleWebKit/605.1.15 (KHTML, like Gecko) Version/17.5 Safari/605.1.15",Macintosh,Safari,17.5,OS X,10_15_7,https://5puzkbbxv1.cognition.run/?sona_id=57242,"en-US,en;q=0.9",9sw1z0q40blhsjj,20,"[""White""]",No,Female,NA,No,404022,NA,5552,NA,"{""product_choice"":""A""}",choice,bw,binary,catch,null,laptops,70,55,10,25,null,null,1,null,null,null,null,null,null,Processing speed,Memory (RAM),NA,NA
NA,NA,NA,NA,NA,choice_trial_setup,html-keyboard-response,16,96474,0.0-4.0-0.6,195,1,2025-05-05T19:18:50Z,b60275e29fe2361ab97ac0ac217840d7,"Mozilla/5.0 (Macintosh; Intel Mac OS X 10_15_7) AppleWebKit/605.1.15 (KHTML, like Gecko) Version/17.5 Safari/605.1.15",Macintosh,Safari,17.5,OS X,10_15_7,https://5puzkbbxv1.cognition.run/?sona_id=57242,"en-US,en;q=0.9",9sw1z0q40blhsjj,20,"[""White""]",No,Female,NA,No,404022,NA,null,<p></p>,null,choice,tdc,trinary,repulsion_B,1,washing machines,null,null,null,null,null,null,1,NA,NA,NA,NA,NA,NA,NA,NA,NA,NA
NA,NA,NA,NA,NA,choice_trial,survey-html-form,17,106187,0.0-4.0-1.6,195,1,2025-05-05T19:18:50Z,b60275e29fe2361ab97ac0ac217840d7,"Mozilla/5.0 (Macintosh; Intel Mac OS X 10_15_7) AppleWebKit/605.1.15 (KHTML, like Gecko) Version/17.5 Safari/605.1.15",Macintosh,Safari,17.5,OS X,10_15_7,https://5puzkbbxv1.cognition.run/?sona_id=57242,"en-US,en;q=0.9",9sw1z0q40blhsjj,20,"[""White""]",No,Female,NA,No,404022,NA,9712,NA,"{""product_choice"":""A""}",choice,tdc,trinary,repulsion_B,1,washing machines,null,null,null,null,null,null,1,90,100,80,40,30,40,Average lifespan,Energy savings,NA,NA
NA,NA,NA,NA,NA,choice_trial_setup,html-keyboard-response,18,106489,0.0-4.0-0.7,195,1,2025-05-05T19:18:50Z,b60275e29fe2361ab97ac0ac217840d7,"Mozilla/5.0 (Macintosh; Intel Mac OS X 10_15_7) AppleWebKit/605.1.15 (KHTML, like Gecko) Version/17.5 Safari/605.1.15",Macintosh,Safari,17.5,OS X,10_15_7,https://5puzkbbxv1.cognition.run/?sona_id=57242,"en-US,en;q=0.9",9sw1z0q40blhsjj,20,"[""White""]",No,Female,NA,No,404022,NA,null,<p></p>,null,choice,wbw,trinary,catch,null,washing machines,85,65,5,20,25,25,2,NA,NA,NA,NA,NA,NA,NA,NA,NA,NA
NA,NA,NA,NA,NA,choice_trial,survey-html-form,19,113252,0.0-4.0-1.7,195,1,2025-05-05T19:18:50Z,b60275e29fe2361ab97ac0ac217840d7,"Mozilla/5.0 (Macintosh; Intel Mac OS X 10_15_7) AppleWebKit/605.1.15 (KHTML, like Gecko) Version/17.5 Safari/605.1.15",Macintosh,Safari,17.5,OS X,10_15_7,https://5puzkbbxv1.cognition.run/?sona_id=57242,"en-US,en;q=0.9",9sw1z0q40blhsjj,20,"[""White""]",No,Female,NA,No,404022,NA,6761,NA,"{""product_choice"":""B""}",choice,wbw,trinary,catch,null,washing machines,85,65,5,20,25,25,2,null,null,null,null,null,null,Average lifespan,Energy savings,NA,NA
NA,NA,NA,NA,NA,choice_trial_setup,html-keyboard-response,20,113554,0.0-4.0-0.8,195,1,2025-05-05T19:18:50Z,b60275e29fe2361ab97ac0ac217840d7,"Mozilla/5.0 (Macintosh; Intel Mac OS X 10_15_7) AppleWebKit/605.1.15 (KHTML, like Gecko) Version/17.5 Safari/605.1.15",Macintosh,Safari,17.5,OS X,10_15_7,https://5puzkbbxv1.cognition.run/?sona_id=57242,"en-US,en;q=0.9",9sw1z0q40blhsjj,20,"[""White""]",No,Female,NA,No,404022,NA,null,<p></p>,null,choice,tdc,trinary,attraction,2,televisions,null,null,null,null,null,null,1,NA,NA,NA,NA,NA,NA,NA,NA,NA,NA
NA,NA,NA,NA,NA,choice_trial,survey-html-form,21,121528,0.0-4.0-1.8,195,1,2025-05-05T19:18:50Z,b60275e29fe2361ab97ac0ac217840d7,"Mozilla/5.0 (Macintosh; Intel Mac OS X 10_15_7) AppleWebKit/605.1.15 (KHTML, like Gecko) Version/17.5 Safari/605.1.15",Macintosh,Safari,17.5,OS X,10_15_7,https://5puzkbbxv1.cognition.run/?sona_id=57242,"en-US,en;q=0.9",9sw1z0q40blhsjj,20,"[""White""]",No,Female,NA,No,404022,NA,7970,NA,"{""product_choice"":""A""}",choice,tdc,trinary,attraction,2,televisions,null,null,null,null,null,null,1,50,60,40,60,50,60,Screen size,Average lifespan,NA,NA
NA,NA,NA,NA,NA,choice_trial_setup,html-keyboard-response,22,121830,0.0-4.0-0.9,195,1,2025-05-05T19:18:50Z,b60275e29fe2361ab97ac0ac217840d7,"Mozilla/5.0 (Macintosh; Intel Mac OS X 10_15_7) AppleWebKit/605.1.15 (KHTML, like Gecko) Version/17.5 Safari/605.1.15",Macintosh,Safari,17.5,OS X,10_15_7,https://5puzkbbxv1.cognition.run/?sona_id=57242,"en-US,en;q=0.9",9sw1z0q40blhsjj,20,"[""White""]",No,Female,NA,No,404022,NA,null,<p></p>,null,choice,wbw,trinary,catch,null,microwave ovens,85,50,15,15,45,35,1,NA,NA,NA,NA,NA,NA,NA,NA,NA,NA
NA,NA,NA,NA,NA,choice_trial,survey-html-form,23,128384,0.0-4.0-1.9,195,1,2025-05-05T19:18:50Z,b60275e29fe2361ab97ac0ac217840d7,"Mozilla/5.0 (Macintosh; Intel Mac OS X 10_15_7) AppleWebKit/605.1.15 (KHTML, like Gecko) Version/17.5 Safari/605.1.15",Macintosh,Safari,17.5,OS X,10_15_7,https://5puzkbbxv1.cognition.run/?sona_id=57242,"en-US,en;q=0.9",9sw1z0q40blhsjj,20,"[""White""]",No,Female,NA,No,404022,NA,6550,NA,"{""product_choice"":""B""}",choice,wbw,trinary,catch,null,microwave ovens,85,50,15,15,45,35,1,null,null,null,null,null,null,Warranty,Cooking power,NA,NA
NA,NA,NA,NA,NA,choice_trial_setup,html-keyboard-response,24,128686,0.0-4.0-0.10,195,1,2025-05-05T19:18:50Z,b60275e29fe2361ab97ac0ac217840d7,"Mozilla/5.0 (Macintosh; Intel Mac OS X 10_15_7) AppleWebKit/605.1.15 (KHTML, like Gecko) Version/17.5 Safari/605.1.15",Macintosh,Safari,17.5,OS X,10_15_7,https://5puzkbbxv1.cognition.run/?sona_id=57242,"en-US,en;q=0.9",9sw1z0q40blhsjj,20,"[""White""]",No,Female,NA,No,404022,NA,null,<p></p>,null,choice,tc,binary,attraction,NA,televisions,null,null,null,null,null,null,1,NA,NA,NA,NA,NA,NA,NA,NA,NA,NA
NA,NA,NA,NA,NA,choice_trial,survey-html-form,25,134336,0.0-4.0-1.10,195,1,2025-05-05T19:18:50Z,b60275e29fe2361ab97ac0ac217840d7,"Mozilla/5.0 (Macintosh; Intel Mac OS X 10_15_7) AppleWebKit/605.1.15 (KHTML, like Gecko) Version/17.5 Safari/605.1.15",Macintosh,Safari,17.5,OS X,10_15_7,https://5puzkbbxv1.cognition.run/?sona_id=57242,"en-US,en;q=0.9",9sw1z0q40blhsjj,20,"[""White""]",No,Female,NA,No,404022,NA,5648,NA,"{""product_choice"":""B""}",choice,tc,binary,attraction,NA,televisions,null,null,null,null,null,null,1,60,50,null,50,60,null,Screen size,Average lifespan,NA,NA
NA,NA,NA,NA,NA,choice_trial_setup,html-keyboard-response,26,134638,0.0-4.0-0.11,195,1,2025-05-05T19:18:50Z,b60275e29fe2361ab97ac0ac217840d7,"Mozilla/5.0 (Macintosh; Intel Mac OS X 10_15_7) AppleWebKit/605.1.15 (KHTML, like Gecko) Version/17.5 Safari/605.1.15",Macintosh,Safari,17.5,OS X,10_15_7,https://5puzkbbxv1.cognition.run/?sona_id=57242,"en-US,en;q=0.9",9sw1z0q40blhsjj,20,"[""White""]",No,Female,NA,No,404022,NA,null,<p></p>,null,choice,ct,binary,repulsion,2,washing machines,null,null,null,null,null,null,2,NA,NA,NA,NA,NA,NA,NA,NA,NA,NA
NA,NA,NA,NA,NA,choice_trial,survey-html-form,27,140463,0.0-4.0-1.11,195,1,2025-05-05T19:18:50Z,b60275e29fe2361ab97ac0ac217840d7,"Mozilla/5.0 (Macintosh; Intel Mac OS X 10_15_7) AppleWebKit/605.1.15 (KHTML, like Gecko) Version/17.5 Safari/605.1.15",Macintosh,Safari,17.5,OS X,10_15_7,https://5puzkbbxv1.cognition.run/?sona_id=57242,"en-US,en;q=0.9",9sw1z0q40blhsjj,20,"[""White""]",No,Female,NA,No,404022,NA,5823,NA,"{""product_choice"":""A""}",choice,ct,binary,repulsion,2,washing machines,null,null,null,null,null,null,2,30,40,null,100,90,null,Average lifespan,Energy savings,NA,NA
NA,NA,NA,NA,NA,choice_trial_setup,html-keyboard-response,28,140766,0.0-4.0-0.12,195,1,2025-05-05T19:18:50Z,b60275e29fe2361ab97ac0ac217840d7,"Mozilla/5.0 (Macintosh; Intel Mac OS X 10_15_7) AppleWebKit/605.1.15 (KHTML, like Gecko) Version/17.5 Safari/605.1.15",Macintosh,Safari,17.5,OS X,10_15_7,https://5puzkbbxv1.cognition.run/?sona_id=57242,"en-US,en;q=0.9",9sw1z0q40blhsjj,20,"[""White""]",No,Female,NA,No,404022,NA,null,<p></p>,null,choice,cdt,trinary,repulsion_B,2,microwave ovens,null,null,null,null,null,null,1,NA,NA,NA,NA,NA,NA,NA,NA,NA,NA
NA,NA,NA,NA,NA,choice_trial,survey-html-form,29,147395,0.0-4.0-1.12,195,1,2025-05-05T19:18:50Z,b60275e29fe2361ab97ac0ac217840d7,"Mozilla/5.0 (Macintosh; Intel Mac OS X 10_15_7) AppleWebKit/605.1.15 (KHTML, like Gecko) Version/17.5 Safari/605.1.15",Macintosh,Safari,17.5,OS X,10_15_7,https://5puzkbbxv1.cognition.run/?sona_id=57242,"en-US,en;q=0.9",9sw1z0q40blhsjj,20,"[""White""]",No,Female,NA,No,404022,NA,6626,NA,"{""product_choice"":""A""}",choice,cdt,trinary,repulsion_B,2,microwave ovens,null,null,null,null,null,null,1,40,30,40,90,100,80,Warranty,Cooking power,NA,NA
NA,NA,NA,NA,NA,choice_trial_setup,html-keyboard-response,30,147697,0.0-4.0-0.13,195,1,2025-05-05T19:18:50Z,b60275e29fe2361ab97ac0ac217840d7,"Mozilla/5.0 (Macintosh; Intel Mac OS X 10_15_7) AppleWebKit/605.1.15 (KHTML, like Gecko) Version/17.5 Safari/605.1.15",Macintosh,Safari,17.5,OS X,10_15_7,https://5puzkbbxv1.cognition.run/?sona_id=57242,"en-US,en;q=0.9",9sw1z0q40blhsjj,20,"[""White""]",No,Female,NA,No,404022,NA,null,<p></p>,null,choice,ctd,trinary,attraction,2,washing machines,null,null,null,null,null,null,1,NA,NA,NA,NA,NA,NA,NA,NA,NA,NA
NA,NA,NA,NA,NA,choice_trial,survey-html-form,31,152179,0.0-4.0-1.13,195,1,2025-05-05T19:18:50Z,b60275e29fe2361ab97ac0ac217840d7,"Mozilla/5.0 (Macintosh; Intel Mac OS X 10_15_7) AppleWebKit/605.1.15 (KHTML, like Gecko) Version/17.5 Safari/605.1.15",Macintosh,Safari,17.5,OS X,10_15_7,https://5puzkbbxv1.cognition.run/?sona_id=57242,"en-US,en;q=0.9",9sw1z0q40blhsjj,20,"[""White""]",No,Female,NA,No,404022,NA,4479,NA,"{""product_choice"":""A""}",choice,ctd,trinary,attraction,2,washing machines,null,null,null,null,null,null,1,50,60,40,60,50,60,Average lifespan,Energy savings,NA,NA
NA,NA,NA,NA,NA,choice_trial_setup,html-keyboard-response,32,152481,0.0-4.0-0.14,195,1,2025-05-05T19:18:50Z,b60275e29fe2361ab97ac0ac217840d7,"Mozilla/5.0 (Macintosh; Intel Mac OS X 10_15_7) AppleWebKit/605.1.15 (KHTML, like Gecko) Version/17.5 Safari/605.1.15",Macintosh,Safari,17.5,OS X,10_15_7,https://5puzkbbxv1.cognition.run/?sona_id=57242,"en-US,en;q=0.9",9sw1z0q40blhsjj,20,"[""White""]",No,Female,NA,No,404022,NA,null,<p></p>,null,choice,tc,binary,attraction,NA,laptops,null,null,null,null,null,null,2,NA,NA,NA,NA,NA,NA,NA,NA,NA,NA
NA,NA,NA,NA,NA,choice_trial,survey-html-form,33,159199,0.0-4.0-1.14,195,1,2025-05-05T19:18:50Z,b60275e29fe2361ab97ac0ac217840d7,"Mozilla/5.0 (Macintosh; Intel Mac OS X 10_15_7) AppleWebKit/605.1.15 (KHTML, like Gecko) Version/17.5 Safari/605.1.15",Macintosh,Safari,17.5,OS X,10_15_7,https://5puzkbbxv1.cognition.run/?sona_id=57242,"en-US,en;q=0.9",9sw1z0q40blhsjj,20,"[""White""]",No,Female,NA,No,404022,NA,6716,NA,"{""product_choice"":""A""}",choice,tc,binary,attraction,NA,laptops,null,null,null,null,null,null,2,60,50,null,50,60,null,Processing speed,Memory (RAM),NA,NA
NA,NA,NA,NA,NA,choice_trial_setup,html-keyboard-response,34,159502,0.0-4.0-0.15,195,1,2025-05-05T19:18:50Z,b60275e29fe2361ab97ac0ac217840d7,"Mozilla/5.0 (Macintosh; Intel Mac OS X 10_15_7) AppleWebKit/605.1.15 (KHTML, like Gecko) Version/17.5 Safari/605.1.15",Macintosh,Safari,17.5,OS X,10_15_7,https://5puzkbbxv1.cognition.run/?sona_id=57242,"en-US,en;q=0.9",9sw1z0q40blhsjj,20,"[""White""]",No,Female,NA,No,404022,NA,null,<p></p>,null,choice,tdc,trinary,repulsion_B,2,washing machines,null,null,null,null,null,null,2,NA,NA,NA,NA,NA,NA,NA,NA,NA,NA
NA,NA,NA,NA,NA,choice_trial,survey-html-form,35,165348,0.0-4.0-1.15,195,1,2025-05-05T19:18:50Z,b60275e29fe2361ab97ac0ac217840d7,"Mozilla/5.0 (Macintosh; Intel Mac OS X 10_15_7) AppleWebKit/605.1.15 (KHTML, like Gecko) Version/17.5 Safari/605.1.15",Macintosh,Safari,17.5,OS X,10_15_7,https://5puzkbbxv1.cognition.run/?sona_id=57242,"en-US,en;q=0.9",9sw1z0q40blhsjj,20,"[""White""]",No,Female,NA,No,404022,NA,5844,NA,"{""product_choice"":""A""}",choice,tdc,trinary,repulsion_B,2,washing machines,null,null,null,null,null,null,2,40,30,40,90,100,80,Average lifespan,Energy savings,NA,NA
NA,NA,NA,NA,NA,choice_trial_setup,html-keyboard-response,36,165650,0.0-4.0-0.16,195,1,2025-05-05T19:18:50Z,b60275e29fe2361ab97ac0ac217840d7,"Mozilla/5.0 (Macintosh; Intel Mac OS X 10_15_7) AppleWebKit/605.1.15 (KHTML, like Gecko) Version/17.5 Safari/605.1.15",Macintosh,Safari,17.5,OS X,10_15_7,https://5puzkbbxv1.cognition.run/?sona_id=57242,"en-US,en;q=0.9",9sw1z0q40blhsjj,20,"[""White""]",No,Female,NA,No,404022,NA,null,<p></p>,null,choice,tc,binary,repulsion,1,televisions,null,null,null,null,null,null,2,NA,NA,NA,NA,NA,NA,NA,NA,NA,NA
NA,NA,NA,NA,NA,choice_trial,survey-html-form,37,173380,0.0-4.0-1.16,195,1,2025-05-05T19:18:50Z,b60275e29fe2361ab97ac0ac217840d7,"Mozilla/5.0 (Macintosh; Intel Mac OS X 10_15_7) AppleWebKit/605.1.15 (KHTML, like Gecko) Version/17.5 Safari/605.1.15",Macintosh,Safari,17.5,OS X,10_15_7,https://5puzkbbxv1.cognition.run/?sona_id=57242,"en-US,en;q=0.9",9sw1z0q40blhsjj,20,"[""White""]",No,Female,NA,No,404022,NA,7729,NA,"{""product_choice"":""B""}",choice,tc,binary,repulsion,1,televisions,null,null,null,null,null,null,2,100,90,null,30,40,null,Screen size,Average lifespan,NA,NA
NA,NA,NA,NA,NA,choice_trial_setup,html-keyboard-response,38,173683,0.0-4.0-0.17,195,1,2025-05-05T19:18:50Z,b60275e29fe2361ab97ac0ac217840d7,"Mozilla/5.0 (Macintosh; Intel Mac OS X 10_15_7) AppleWebKit/605.1.15 (KHTML, like Gecko) Version/17.5 Safari/605.1.15",Macintosh,Safari,17.5,OS X,10_15_7,https://5puzkbbxv1.cognition.run/?sona_id=57242,"en-US,en;q=0.9",9sw1z0q40blhsjj,20,"[""White""]",No,Female,NA,No,404022,NA,null,<p></p>,null,choice,ctd,trinary,repulsion_B,2,laptops,null,null,null,null,null,null,2,NA,NA,NA,NA,NA,NA,NA,NA,NA,NA
NA,NA,NA,NA,NA,choice_trial,survey-html-form,39,182957,0.0-4.0-1.17,195,1,2025-05-05T19:18:50Z,b60275e29fe2361ab97ac0ac217840d7,"Mozilla/5.0 (Macintosh; Intel Mac OS X 10_15_7) AppleWebKit/605.1.15 (KHTML, like Gecko) Version/17.5 Safari/605.1.15",Macintosh,Safari,17.5,OS X,10_15_7,https://5puzkbbxv1.cognition.run/?sona_id=57242,"en-US,en;q=0.9",9sw1z0q40blhsjj,20,"[""White""]",No,Female,NA,No,404022,NA,9270,NA,"{""product_choice"":""B""}",choice,ctd,trinary,repulsion_B,2,laptops,null,null,null,null,null,null,2,40,30,40,90,100,80,Processing speed,Memory (RAM),NA,NA
NA,NA,NA,NA,NA,choice_trial_setup,html-keyboard-response,40,183259,0.0-4.0-0.18,195,1,2025-05-05T19:18:50Z,b60275e29fe2361ab97ac0ac217840d7,"Mozilla/5.0 (Macintosh; Intel Mac OS X 10_15_7) AppleWebKit/605.1.15 (KHTML, like Gecko) Version/17.5 Safari/605.1.15",Macintosh,Safari,17.5,OS X,10_15_7,https://5puzkbbxv1.cognition.run/?sona_id=57242,"en-US,en;q=0.9",9sw1z0q40blhsjj,20,"[""White""]",No,Female,NA,No,404022,NA,null,<p></p>,null,choice,bw,binary,catch,null,washing machines,90,65,15,50,null,null,1,NA,NA,NA,NA,NA,NA,NA,NA,NA,NA
NA,NA,NA,NA,NA,choice_trial,survey-html-form,41,189936,0.0-4.0-1.18,195,1,2025-05-05T19:18:50Z,b60275e29fe2361ab97ac0ac217840d7,"Mozilla/5.0 (Macintosh; Intel Mac OS X 10_15_7) AppleWebKit/605.1.15 (KHTML, like Gecko) Version/17.5 Safari/605.1.15",Macintosh,Safari,17.5,OS X,10_15_7,https://5puzkbbxv1.cognition.run/?sona_id=57242,"en-US,en;q=0.9",9sw1z0q40blhsjj,20,"[""White""]",No,Female,NA,No,404022,NA,6674,NA,"{""product_choice"":""A""}",choice,bw,binary,catch,null,washing machines,90,65,15,50,null,null,1,null,null,null,null,null,null,Average lifespan,Energy savings,NA,NA
NA,NA,NA,NA,NA,choice_trial_setup,html-keyboard-response,42,190239,0.0-4.0-0.19,195,1,2025-05-05T19:18:50Z,b60275e29fe2361ab97ac0ac217840d7,"Mozilla/5.0 (Macintosh; Intel Mac OS X 10_15_7) AppleWebKit/605.1.15 (KHTML, like Gecko) Version/17.5 Safari/605.1.15",Macintosh,Safari,17.5,OS X,10_15_7,https://5puzkbbxv1.cognition.run/?sona_id=57242,"en-US,en;q=0.9",9sw1z0q40blhsjj,20,"[""White""]",No,Female,NA,No,404022,NA,null,<p></p>,null,choice,cdt,trinary,repulsion_B,2,televisions,null,null,null,null,null,null,1,NA,NA,NA,NA,NA,NA,NA,NA,NA,NA
NA,NA,NA,NA,NA,choice_trial,survey-html-form,43,200308,0.0-4.0-1.19,195,1,2025-05-05T19:18:50Z,b60275e29fe2361ab97ac0ac217840d7,"Mozilla/5.0 (Macintosh; Intel Mac OS X 10_15_7) AppleWebKit/605.1.15 (KHTML, like Gecko) Version/17.5 Safari/605.1.15",Macintosh,Safari,17.5,OS X,10_15_7,https://5puzkbbxv1.cognition.run/?sona_id=57242,"en-US,en;q=0.9",9sw1z0q40blhsjj,20,"[""White""]",No,Female,NA,No,404022,NA,10065,NA,"{""product_choice"":""A""}",choice,cdt,trinary,repulsion_B,2,televisions,null,null,null,null,null,null,1,40,30,40,90,100,80,Screen size,Average lifespan,NA,NA
NA,NA,NA,NA,NA,choice_trial_setup,html-keyboard-response,44,200610,0.0-4.0-0.20,195,1,2025-05-05T19:18:50Z,b60275e29fe2361ab97ac0ac217840d7,"Mozilla/5.0 (Macintosh; Intel Mac OS X 10_15_7) AppleWebKit/605.1.15 (KHTML, like Gecko) Version/17.5 Safari/605.1.15",Macintosh,Safari,17.5,OS X,10_15_7,https://5puzkbbxv1.cognition.run/?sona_id=57242,"en-US,en;q=0.9",9sw1z0q40blhsjj,20,"[""White""]",No,Female,NA,No,404022,NA,null,<p></p>,null,choice,bw,binary,catch,null,microwave ovens,60,60,45,10,null,null,1,NA,NA,NA,NA,NA,NA,NA,NA,NA,NA
NA,NA,NA,NA,NA,choice_trial,survey-html-form,45,205138,0.0-4.0-1.20,195,1,2025-05-05T19:18:50Z,b60275e29fe2361ab97ac0ac217840d7,"Mozilla/5.0 (Macintosh; Intel Mac OS X 10_15_7) AppleWebKit/605.1.15 (KHTML, like Gecko) Version/17.5 Safari/605.1.15",Macintosh,Safari,17.5,OS X,10_15_7,https://5puzkbbxv1.cognition.run/?sona_id=57242,"en-US,en;q=0.9",9sw1z0q40blhsjj,20,"[""White""]",No,Female,NA,No,404022,NA,4526,NA,"{""product_choice"":""A""}",choice,bw,binary,catch,null,microwave ovens,60,60,45,10,null,null,1,null,null,null,null,null,null,Warranty,Cooking power,NA,NA
NA,NA,NA,NA,NA,choice_trial_setup,html-keyboard-response,46,205441,0.0-4.0-0.21,195,1,2025-05-05T19:18:50Z,b60275e29fe2361ab97ac0ac217840d7,"Mozilla/5.0 (Macintosh; Intel Mac OS X 10_15_7) AppleWebKit/605.1.15 (KHTML, like Gecko) Version/17.5 Safari/605.1.15",Macintosh,Safari,17.5,OS X,10_15_7,https://5puzkbbxv1.cognition.run/?sona_id=57242,"en-US,en;q=0.9",9sw1z0q40blhsjj,20,"[""White""]",No,Female,NA,No,404022,NA,null,<p></p>,null,choice,tdc,trinary,repulsion_A,2,televisions,null,null,null,null,null,null,2,NA,NA,NA,NA,NA,NA,NA,NA,NA,NA
NA,NA,NA,NA,NA,choice_trial,survey-html-form,47,214522,0.0-4.0-1.21,195,1,2025-05-05T19:18:50Z,b60275e29fe2361ab97ac0ac217840d7,"Mozilla/5.0 (Macintosh; Intel Mac OS X 10_15_7) AppleWebKit/605.1.15 (KHTML, like Gecko) Version/17.5 Safari/605.1.15",Macintosh,Safari,17.5,OS X,10_15_7,https://5puzkbbxv1.cognition.run/?sona_id=57242,"en-US,en;q=0.9",9sw1z0q40blhsjj,20,"[""White""]",No,Female,NA,No,404022,NA,9078,NA,"{""product_choice"":""A""}",choice,tdc,trinary,repulsion_A,2,televisions,null,null,null,null,null,null,2,30,40,20,100,90,100,Screen size,Average lifespan,NA,NA
NA,NA,NA,NA,NA,choice_trial_setup,html-keyboard-response,48,214825,0.0-4.0-0.22,195,1,2025-05-05T19:18:50Z,b60275e29fe2361ab97ac0ac217840d7,"Mozilla/5.0 (Macintosh; Intel Mac OS X 10_15_7) AppleWebKit/605.1.15 (KHTML, like Gecko) Version/17.5 Safari/605.1.15",Macintosh,Safari,17.5,OS X,10_15_7,https://5puzkbbxv1.cognition.run/?sona_id=57242,"en-US,en;q=0.9",9sw1z0q40blhsjj,20,"[""White""]",No,Female,NA,No,404022,NA,null,<p></p>,null,choice,tcd,trinary,repulsion_A,1,televisions,null,null,null,null,null,null,2,NA,NA,NA,NA,NA,NA,NA,NA,NA,NA
NA,NA,NA,NA,NA,choice_trial,survey-html-form,49,220388,0.0-4.0-1.22,195,1,2025-05-05T19:18:50Z,b60275e29fe2361ab97ac0ac217840d7,"Mozilla/5.0 (Macintosh; Intel Mac OS X 10_15_7) AppleWebKit/605.1.15 (KHTML, like Gecko) Version/17.5 Safari/605.1.15",Macintosh,Safari,17.5,OS X,10_15_7,https://5puzkbbxv1.cognition.run/?sona_id=57242,"en-US,en;q=0.9",9sw1z0q40blhsjj,20,"[""White""]",No,Female,NA,No,404022,NA,5559,NA,"{""product_choice"":""B""}",choice,tcd,trinary,repulsion_A,1,televisions,null,null,null,null,null,null,2,100,90,100,30,40,20,Screen size,Average lifespan,NA,NA
NA,NA,NA,NA,NA,choice_trial_setup,html-keyboard-response,50,220691,0.0-4.0-0.23,195,1,2025-05-05T19:18:50Z,b60275e29fe2361ab97ac0ac217840d7,"Mozilla/5.0 (Macintosh; Intel Mac OS X 10_15_7) AppleWebKit/605.1.15 (KHTML, like Gecko) Version/17.5 Safari/605.1.15",Macintosh,Safari,17.5,OS X,10_15_7,https://5puzkbbxv1.cognition.run/?sona_id=57242,"en-US,en;q=0.9",9sw1z0q40blhsjj,20,"[""White""]",No,Female,NA,No,404022,NA,null,<p></p>,null,choice,bww,trinary,catch,null,laptops,50,70,30,50,40,20,1,NA,NA,NA,NA,NA,NA,NA,NA,NA,NA
NA,NA,NA,NA,NA,choice_trial,survey-html-form,51,226364,0.0-4.0-1.23,195,1,2025-05-05T19:18:50Z,b60275e29fe2361ab97ac0ac217840d7,"Mozilla/5.0 (Macintosh; Intel Mac OS X 10_15_7) AppleWebKit/605.1.15 (KHTML, like Gecko) Version/17.5 Safari/605.1.15",Macintosh,Safari,17.5,OS X,10_15_7,https://5puzkbbxv1.cognition.run/?sona_id=57242,"en-US,en;q=0.9",9sw1z0q40blhsjj,20,"[""White""]",No,Female,NA,No,404022,NA,5669,NA,"{""product_choice"":""A""}",choice,bww,trinary,catch,null,laptops,50,70,30,50,40,20,1,null,null,null,null,null,null,Processing speed,Memory (RAM),NA,NA
NA,NA,NA,NA,NA,choice_trial_setup,html-keyboard-response,52,226667,0.0-4.0-0.24,195,1,2025-05-05T19:18:50Z,b60275e29fe2361ab97ac0ac217840d7,"Mozilla/5.0 (Macintosh; Intel Mac OS X 10_15_7) AppleWebKit/605.1.15 (KHTML, like Gecko) Version/17.5 Safari/605.1.15",Macintosh,Safari,17.5,OS X,10_15_7,https://5puzkbbxv1.cognition.run/?sona_id=57242,"en-US,en;q=0.9",9sw1z0q40blhsjj,20,"[""White""]",No,Female,NA,No,404022,NA,null,<p></p>,null,choice,tdc,trinary,attraction,1,televisions,null,null,null,null,null,null,2,NA,NA,NA,NA,NA,NA,NA,NA,NA,NA
NA,NA,NA,NA,NA,choice_trial,survey-html-form,53,231024,0.0-4.0-1.24,195,1,2025-05-05T19:18:50Z,b60275e29fe2361ab97ac0ac217840d7,"Mozilla/5.0 (Macintosh; Intel Mac OS X 10_15_7) AppleWebKit/605.1.15 (KHTML, like Gecko) Version/17.5 Safari/605.1.15",Macintosh,Safari,17.5,OS X,10_15_7,https://5puzkbbxv1.cognition.run/?sona_id=57242,"en-US,en;q=0.9",9sw1z0q40blhsjj,20,"[""White""]",No,Female,NA,No,404022,NA,4354,NA,"{""product_choice"":""C""}",choice,tdc,trinary,attraction,1,televisions,null,null,null,null,null,null,2,60,50,60,50,60,40,Screen size,Average lifespan,NA,NA
NA,NA,NA,NA,NA,choice_trial_setup,html-keyboard-response,54,231327,0.0-4.0-0.25,195,1,2025-05-05T19:18:50Z,b60275e29fe2361ab97ac0ac217840d7,"Mozilla/5.0 (Macintosh; Intel Mac OS X 10_15_7) AppleWebKit/605.1.15 (KHTML, like Gecko) Version/17.5 Safari/605.1.15",Macintosh,Safari,17.5,OS X,10_15_7,https://5puzkbbxv1.cognition.run/?sona_id=57242,"en-US,en;q=0.9",9sw1z0q40blhsjj,20,"[""White""]",No,Female,NA,No,404022,NA,null,<p></p>,null,choice,dct,trinary,repulsion_B,1,televisions,null,null,null,null,null,null,2,NA,NA,NA,NA,NA,NA,NA,NA,NA,NA
NA,NA,NA,NA,NA,choice_trial,survey-html-form,55,235653,0.0-4.0-1.25,195,1,2025-05-05T19:18:50Z,b60275e29fe2361ab97ac0ac217840d7,"Mozilla/5.0 (Macintosh; Intel Mac OS X 10_15_7) AppleWebKit/605.1.15 (KHTML, like Gecko) Version/17.5 Safari/605.1.15",Macintosh,Safari,17.5,OS X,10_15_7,https://5puzkbbxv1.cognition.run/?sona_id=57242,"en-US,en;q=0.9",9sw1z0q40blhsjj,20,"[""White""]",No,Female,NA,No,404022,NA,4323,NA,"{""product_choice"":""C""}",choice,dct,trinary,repulsion_B,1,televisions,null,null,null,null,null,null,2,90,100,80,40,30,40,Screen size,Average lifespan,NA,NA
NA,NA,NA,NA,NA,choice_trial_setup,html-keyboard-response,56,235956,0.0-4.0-0.26,195,1,2025-05-05T19:18:50Z,b60275e29fe2361ab97ac0ac217840d7,"Mozilla/5.0 (Macintosh; Intel Mac OS X 10_15_7) AppleWebKit/605.1.15 (KHTML, like Gecko) Version/17.5 Safari/605.1.15",Macintosh,Safari,17.5,OS X,10_15_7,https://5puzkbbxv1.cognition.run/?sona_id=57242,"en-US,en;q=0.9",9sw1z0q40blhsjj,20,"[""White""]",No,Female,NA,No,404022,NA,null,<p></p>,null,choice,tc,binary,attraction,NA,washing machines,null,null,null,null,null,null,1,NA,NA,NA,NA,NA,NA,NA,NA,NA,NA
NA,NA,NA,NA,NA,choice_trial,survey-html-form,57,240597,0.0-4.0-1.26,195,1,2025-05-05T19:18:50Z,b60275e29fe2361ab97ac0ac217840d7,"Mozilla/5.0 (Macintosh; Intel Mac OS X 10_15_7) AppleWebKit/605.1.15 (KHTML, like Gecko) Version/17.5 Safari/605.1.15",Macintosh,Safari,17.5,OS X,10_15_7,https://5puzkbbxv1.cognition.run/?sona_id=57242,"en-US,en;q=0.9",9sw1z0q40blhsjj,20,"[""White""]",No,Female,NA,No,404022,NA,4637,NA,"{""product_choice"":""A""}",choice,tc,binary,attraction,NA,washing machines,null,null,null,null,null,null,1,60,50,null,50,60,null,Average lifespan,Energy savings,NA,NA
NA,NA,NA,NA,NA,choice_trial_setup,html-keyboard-response,58,240901,0.0-4.0-0.27,195,1,2025-05-05T19:18:50Z,b60275e29fe2361ab97ac0ac217840d7,"Mozilla/5.0 (Macintosh; Intel Mac OS X 10_15_7) AppleWebKit/605.1.15 (KHTML, like Gecko) Version/17.5 Safari/605.1.15",Macintosh,Safari,17.5,OS X,10_15_7,https://5puzkbbxv1.cognition.run/?sona_id=57242,"en-US,en;q=0.9",9sw1z0q40blhsjj,20,"[""White""]",No,Female,NA,No,404022,NA,null,<p></p>,null,choice,dct,trinary,attraction,1,microwave ovens,null,null,null,null,null,null,1,NA,NA,NA,NA,NA,NA,NA,NA,NA,NA
NA,NA,NA,NA,NA,choice_trial,survey-html-form,59,244356,0.0-4.0-1.27,195,1,2025-05-05T19:18:50Z,b60275e29fe2361ab97ac0ac217840d7,"Mozilla/5.0 (Macintosh; Intel Mac OS X 10_15_7) AppleWebKit/605.1.15 (KHTML, like Gecko) Version/17.5 Safari/605.1.15",Macintosh,Safari,17.5,OS X,10_15_7,https://5puzkbbxv1.cognition.run/?sona_id=57242,"en-US,en;q=0.9",9sw1z0q40blhsjj,20,"[""White""]",No,Female,NA,No,404022,NA,3451,NA,"{""product_choice"":""B""}",choice,dct,trinary,attraction,1,microwave ovens,null,null,null,null,null,null,1,60,50,60,50,60,40,Warranty,Cooking power,NA,NA
NA,NA,NA,NA,NA,choice_trial_setup,html-keyboard-response,60,244659,0.0-4.0-0.28,195,1,2025-05-05T19:18:50Z,b60275e29fe2361ab97ac0ac217840d7,"Mozilla/5.0 (Macintosh; Intel Mac OS X 10_15_7) AppleWebKit/605.1.15 (KHTML, like Gecko) Version/17.5 Safari/605.1.15",Macintosh,Safari,17.5,OS X,10_15_7,https://5puzkbbxv1.cognition.run/?sona_id=57242,"en-US,en;q=0.9",9sw1z0q40blhsjj,20,"[""White""]",No,Female,NA,No,404022,NA,null,<p></p>,null,choice,tdc,trinary,attraction,1,washing machines,null,null,null,null,null,null,1,NA,NA,NA,NA,NA,NA,NA,NA,NA,NA
NA,NA,NA,NA,NA,choice_trial,survey-html-form,61,248686,0.0-4.0-1.28,195,1,2025-05-05T19:18:50Z,b60275e29fe2361ab97ac0ac217840d7,"Mozilla/5.0 (Macintosh; Intel Mac OS X 10_15_7) AppleWebKit/605.1.15 (KHTML, like Gecko) Version/17.5 Safari/605.1.15",Macintosh,Safari,17.5,OS X,10_15_7,https://5puzkbbxv1.cognition.run/?sona_id=57242,"en-US,en;q=0.9",9sw1z0q40blhsjj,20,"[""White""]",No,Female,NA,No,404022,NA,4023,NA,"{""product_choice"":""A""}",choice,tdc,trinary,attraction,1,washing machines,null,null,null,null,null,null,1,60,50,60,50,60,40,Average lifespan,Energy savings,NA,NA
NA,NA,NA,NA,NA,choice_trial_setup,html-keyboard-response,62,248989,0.0-4.0-0.29,195,1,2025-05-05T19:18:50Z,b60275e29fe2361ab97ac0ac217840d7,"Mozilla/5.0 (Macintosh; Intel Mac OS X 10_15_7) AppleWebKit/605.1.15 (KHTML, like Gecko) Version/17.5 Safari/605.1.15",Macintosh,Safari,17.5,OS X,10_15_7,https://5puzkbbxv1.cognition.run/?sona_id=57242,"en-US,en;q=0.9",9sw1z0q40blhsjj,20,"[""White""]",No,Female,NA,No,404022,NA,null,<p></p>,null,choice,tc,binary,repulsion,2,microwave ovens,null,null,null,null,null,null,1,NA,NA,NA,NA,NA,NA,NA,NA,NA,NA
NA,NA,NA,NA,NA,choice_trial,survey-html-form,63,252060,0.0-4.0-1.29,195,1,2025-05-05T19:18:50Z,b60275e29fe2361ab97ac0ac217840d7,"Mozilla/5.0 (Macintosh; Intel Mac OS X 10_15_7) AppleWebKit/605.1.15 (KHTML, like Gecko) Version/17.5 Safari/605.1.15",Macintosh,Safari,17.5,OS X,10_15_7,https://5puzkbbxv1.cognition.run/?sona_id=57242,"en-US,en;q=0.9",9sw1z0q40blhsjj,20,"[""White""]",No,Female,NA,No,404022,NA,3065,NA,"{""product_choice"":""A""}",choice,tc,binary,repulsion,2,microwave ovens,null,null,null,null,null,null,1,30,40,null,100,90,null,Warranty,Cooking power,NA,NA
NA,NA,NA,NA,NA,choice_trial_setup,html-keyboard-response,64,252363,0.0-4.0-0.30,195,1,2025-05-05T19:18:50Z,b60275e29fe2361ab97ac0ac217840d7,"Mozilla/5.0 (Macintosh; Intel Mac OS X 10_15_7) AppleWebKit/605.1.15 (KHTML, like Gecko) Version/17.5 Safari/605.1.15",Macintosh,Safari,17.5,OS X,10_15_7,https://5puzkbbxv1.cognition.run/?sona_id=57242,"en-US,en;q=0.9",9sw1z0q40blhsjj,20,"[""White""]",No,Female,NA,No,404022,NA,null,<p></p>,null,choice,bw,binary,catch,null,televisions,85,80,45,25,null,null,2,NA,NA,NA,NA,NA,NA,NA,NA,NA,NA
NA,NA,NA,NA,NA,choice_trial,survey-html-form,65,258856,0.0-4.0-1.30,195,1,2025-05-05T19:18:50Z,b60275e29fe2361ab97ac0ac217840d7,"Mozilla/5.0 (Macintosh; Intel Mac OS X 10_15_7) AppleWebKit/605.1.15 (KHTML, like Gecko) Version/17.5 Safari/605.1.15",Macintosh,Safari,17.5,OS X,10_15_7,https://5puzkbbxv1.cognition.run/?sona_id=57242,"en-US,en;q=0.9",9sw1z0q40blhsjj,20,"[""White""]",No,Female,NA,No,404022,NA,6484,NA,"{""product_choice"":""A""}",choice,bw,binary,catch,null,televisions,85,80,45,25,null,null,2,null,null,null,null,null,null,Screen size,Average lifespan,NA,NA
NA,NA,NA,NA,NA,choice_trial_setup,html-keyboard-response,66,259160,0.0-4.0-0.31,195,1,2025-05-05T19:18:50Z,b60275e29fe2361ab97ac0ac217840d7,"Mozilla/5.0 (Macintosh; Intel Mac OS X 10_15_7) AppleWebKit/605.1.15 (KHTML, like Gecko) Version/17.5 Safari/605.1.15",Macintosh,Safari,17.5,OS X,10_15_7,https://5puzkbbxv1.cognition.run/?sona_id=57242,"en-US,en;q=0.9",9sw1z0q40blhsjj,20,"[""White""]",No,Female,NA,No,404022,NA,null,<p></p>,null,choice,ctd,trinary,repulsion_A,1,laptops,null,null,null,null,null,null,1,NA,NA,NA,NA,NA,NA,NA,NA,NA,NA
NA,NA,NA,NA,NA,choice_trial,survey-html-form,67,263298,0.0-4.0-1.31,195,1,2025-05-05T19:18:50Z,b60275e29fe2361ab97ac0ac217840d7,"Mozilla/5.0 (Macintosh; Intel Mac OS X 10_15_7) AppleWebKit/605.1.15 (KHTML, like Gecko) Version/17.5 Safari/605.1.15",Macintosh,Safari,17.5,OS X,10_15_7,https://5puzkbbxv1.cognition.run/?sona_id=57242,"en-US,en;q=0.9",9sw1z0q40blhsjj,20,"[""White""]",No,Female,NA,No,404022,NA,4134,NA,"{""product_choice"":""B""}",choice,ctd,trinary,repulsion_A,1,laptops,null,null,null,null,null,null,1,100,90,100,30,40,20,Processing speed,Memory (RAM),NA,NA
NA,NA,NA,NA,NA,choice_trial_setup,html-keyboard-response,68,263602,0.0-4.0-0.32,195,1,2025-05-05T19:18:50Z,b60275e29fe2361ab97ac0ac217840d7,"Mozilla/5.0 (Macintosh; Intel Mac OS X 10_15_7) AppleWebKit/605.1.15 (KHTML, like Gecko) Version/17.5 Safari/605.1.15",Macintosh,Safari,17.5,OS X,10_15_7,https://5puzkbbxv1.cognition.run/?sona_id=57242,"en-US,en;q=0.9",9sw1z0q40blhsjj,20,"[""White""]",No,Female,NA,No,404022,NA,null,<p></p>,null,choice,tc,binary,repulsion,1,laptops,null,null,null,null,null,null,2,NA,NA,NA,NA,NA,NA,NA,NA,NA,NA
NA,NA,NA,NA,NA,choice_trial,survey-html-form,69,268038,0.0-4.0-1.32,195,1,2025-05-05T19:18:50Z,b60275e29fe2361ab97ac0ac217840d7,"Mozilla/5.0 (Macintosh; Intel Mac OS X 10_15_7) AppleWebKit/605.1.15 (KHTML, like Gecko) Version/17.5 Safari/605.1.15",Macintosh,Safari,17.5,OS X,10_15_7,https://5puzkbbxv1.cognition.run/?sona_id=57242,"en-US,en;q=0.9",9sw1z0q40blhsjj,20,"[""White""]",No,Female,NA,No,404022,NA,4432,NA,"{""product_choice"":""A""}",choice,tc,binary,repulsion,1,laptops,null,null,null,null,null,null,2,100,90,null,30,40,null,Processing speed,Memory (RAM),NA,NA
NA,NA,NA,NA,NA,choice_trial_setup,html-keyboard-response,70,268342,0.0-4.0-0.33,195,1,2025-05-05T19:18:50Z,b60275e29fe2361ab97ac0ac217840d7,"Mozilla/5.0 (Macintosh; Intel Mac OS X 10_15_7) AppleWebKit/605.1.15 (KHTML, like Gecko) Version/17.5 Safari/605.1.15",Macintosh,Safari,17.5,OS X,10_15_7,https://5puzkbbxv1.cognition.run/?sona_id=57242,"en-US,en;q=0.9",9sw1z0q40blhsjj,20,"[""White""]",No,Female,NA,No,404022,NA,null,<p></p>,null,choice,dtc,trinary,attraction,1,laptops,null,null,null,null,null,null,1,NA,NA,NA,NA,NA,NA,NA,NA,NA,NA
NA,NA,NA,NA,NA,choice_trial,survey-html-form,71,275248,0.0-4.0-1.33,195,1,2025-05-05T19:18:50Z,b60275e29fe2361ab97ac0ac217840d7,"Mozilla/5.0 (Macintosh; Intel Mac OS X 10_15_7) AppleWebKit/605.1.15 (KHTML, like Gecko) Version/17.5 Safari/605.1.15",Macintosh,Safari,17.5,OS X,10_15_7,https://5puzkbbxv1.cognition.run/?sona_id=57242,"en-US,en;q=0.9",9sw1z0q40blhsjj,20,"[""White""]",No,Female,NA,No,404022,NA,6902,NA,"{""product_choice"":""B""}",choice,dtc,trinary,attraction,1,laptops,null,null,null,null,null,null,1,60,50,60,50,60,40,Processing speed,Memory (RAM),NA,NA
NA,NA,NA,NA,NA,choice_trial_setup,html-keyboard-response,72,275551,0.0-4.0-0.34,195,1,2025-05-05T19:18:50Z,b60275e29fe2361ab97ac0ac217840d7,"Mozilla/5.0 (Macintosh; Intel Mac OS X 10_15_7) AppleWebKit/605.1.15 (KHTML, like Gecko) Version/17.5 Safari/605.1.15",Macintosh,Safari,17.5,OS X,10_15_7,https://5puzkbbxv1.cognition.run/?sona_id=57242,"en-US,en;q=0.9",9sw1z0q40blhsjj,20,"[""White""]",No,Female,NA,No,404022,NA,null,<p></p>,null,choice,tdc,trinary,repulsion_A,2,microwave ovens,null,null,null,null,null,null,2,NA,NA,NA,NA,NA,NA,NA,NA,NA,NA
NA,NA,NA,NA,NA,choice_trial,survey-html-form,73,278928,0.0-4.0-1.34,195,1,2025-05-05T19:18:50Z,b60275e29fe2361ab97ac0ac217840d7,"Mozilla/5.0 (Macintosh; Intel Mac OS X 10_15_7) AppleWebKit/605.1.15 (KHTML, like Gecko) Version/17.5 Safari/605.1.15",Macintosh,Safari,17.5,OS X,10_15_7,https://5puzkbbxv1.cognition.run/?sona_id=57242,"en-US,en;q=0.9",9sw1z0q40blhsjj,20,"[""White""]",No,Female,NA,No,404022,NA,3372,NA,"{""product_choice"":""A""}",choice,tdc,trinary,repulsion_A,2,microwave ovens,null,null,null,null,null,null,2,30,40,20,100,90,100,Warranty,Cooking power,NA,NA
NA,NA,NA,NA,NA,choice_trial_setup,html-keyboard-response,74,279230,0.0-4.0-0.35,195,1,2025-05-05T19:18:50Z,b60275e29fe2361ab97ac0ac217840d7,"Mozilla/5.0 (Macintosh; Intel Mac OS X 10_15_7) AppleWebKit/605.1.15 (KHTML, like Gecko) Version/17.5 Safari/605.1.15",Macintosh,Safari,17.5,OS X,10_15_7,https://5puzkbbxv1.cognition.run/?sona_id=57242,"en-US,en;q=0.9",9sw1z0q40blhsjj,20,"[""White""]",No,Female,NA,No,404022,NA,null,<p></p>,null,choice,tc,binary,repulsion,2,laptops,null,null,null,null,null,null,1,NA,NA,NA,NA,NA,NA,NA,NA,NA,NA
NA,NA,NA,NA,NA,choice_trial,survey-html-form,75,284948,0.0-4.0-1.35,195,1,2025-05-05T19:18:50Z,b60275e29fe2361ab97ac0ac217840d7,"Mozilla/5.0 (Macintosh; Intel Mac OS X 10_15_7) AppleWebKit/605.1.15 (KHTML, like Gecko) Version/17.5 Safari/605.1.15",Macintosh,Safari,17.5,OS X,10_15_7,https://5puzkbbxv1.cognition.run/?sona_id=57242,"en-US,en;q=0.9",9sw1z0q40blhsjj,20,"[""White""]",No,Female,NA,No,404022,NA,5714,NA,"{""product_choice"":""B""}",choice,tc,binary,repulsion,2,laptops,null,null,null,null,null,null,1,30,40,null,100,90,null,Processing speed,Memory (RAM),NA,NA
NA,NA,NA,NA,NA,choice_trial_setup,html-keyboard-response,76,285251,0.0-4.0-0.36,195,1,2025-05-05T19:18:50Z,b60275e29fe2361ab97ac0ac217840d7,"Mozilla/5.0 (Macintosh; Intel Mac OS X 10_15_7) AppleWebKit/605.1.15 (KHTML, like Gecko) Version/17.5 Safari/605.1.15",Macintosh,Safari,17.5,OS X,10_15_7,https://5puzkbbxv1.cognition.run/?sona_id=57242,"en-US,en;q=0.9",9sw1z0q40blhsjj,20,"[""White""]",No,Female,NA,No,404022,NA,null,<p></p>,null,choice,ct,binary,attraction,NA,microwave ovens,null,null,null,null,null,null,2,NA,NA,NA,NA,NA,NA,NA,NA,NA,NA
NA,NA,NA,NA,NA,choice_trial,survey-html-form,77,288306,0.0-4.0-1.36,195,1,2025-05-05T19:18:50Z,b60275e29fe2361ab97ac0ac217840d7,"Mozilla/5.0 (Macintosh; Intel Mac OS X 10_15_7) AppleWebKit/605.1.15 (KHTML, like Gecko) Version/17.5 Safari/605.1.15",Macintosh,Safari,17.5,OS X,10_15_7,https://5puzkbbxv1.cognition.run/?sona_id=57242,"en-US,en;q=0.9",9sw1z0q40blhsjj,20,"[""White""]",No,Female,NA,No,404022,NA,3049,NA,"{""product_choice"":""A""}",choice,ct,binary,attraction,NA,microwave ovens,null,null,null,null,null,null,2,60,50,null,50,60,null,Warranty,Cooking power,NA,NA
NA,NA,NA,NA,NA,choice_trial_setup,html-keyboard-response,78,288608,0.0-4.0-0.37,195,1,2025-05-05T19:18:50Z,b60275e29fe2361ab97ac0ac217840d7,"Mozilla/5.0 (Macintosh; Intel Mac OS X 10_15_7) AppleWebKit/605.1.15 (KHTML, like Gecko) Version/17.5 Safari/605.1.15",Macintosh,Safari,17.5,OS X,10_15_7,https://5puzkbbxv1.cognition.run/?sona_id=57242,"en-US,en;q=0.9",9sw1z0q40blhsjj,20,"[""White""]",No,Female,NA,No,404022,NA,null,<p></p>,null,choice,ct,binary,repulsion,1,washing machines,null,null,null,null,null,null,2,NA,NA,NA,NA,NA,NA,NA,NA,NA,NA
NA,NA,NA,NA,NA,choice_trial,survey-html-form,79,295846,0.0-4.0-1.37,195,1,2025-05-05T19:18:50Z,b60275e29fe2361ab97ac0ac217840d7,"Mozilla/5.0 (Macintosh; Intel Mac OS X 10_15_7) AppleWebKit/605.1.15 (KHTML, like Gecko) Version/17.5 Safari/605.1.15",Macintosh,Safari,17.5,OS X,10_15_7,https://5puzkbbxv1.cognition.run/?sona_id=57242,"en-US,en;q=0.9",9sw1z0q40blhsjj,20,"[""White""]",No,Female,NA,No,404022,NA,7234,NA,"{""product_choice"":""B""}",choice,ct,binary,repulsion,1,washing machines,null,null,null,null,null,null,2,100,90,null,30,40,null,Average lifespan,Energy savings,NA,NA
NA,NA,NA,NA,NA,choice_trial_setup,html-keyboard-response,80,296149,0.0-4.0-0.38,195,1,2025-05-05T19:18:50Z,b60275e29fe2361ab97ac0ac217840d7,"Mozilla/5.0 (Macintosh; Intel Mac OS X 10_15_7) AppleWebKit/605.1.15 (KHTML, like Gecko) Version/17.5 Safari/605.1.15",Macintosh,Safari,17.5,OS X,10_15_7,https://5puzkbbxv1.cognition.run/?sona_id=57242,"en-US,en;q=0.9",9sw1z0q40blhsjj,20,"[""White""]",No,Female,NA,No,404022,NA,null,<p></p>,null,choice,tc,binary,repulsion,2,televisions,null,null,null,null,null,null,1,NA,NA,NA,NA,NA,NA,NA,NA,NA,NA
NA,NA,NA,NA,NA,choice_trial,survey-html-form,81,299351,0.0-4.0-1.38,195,1,2025-05-05T19:18:50Z,b60275e29fe2361ab97ac0ac217840d7,"Mozilla/5.0 (Macintosh; Intel Mac OS X 10_15_7) AppleWebKit/605.1.15 (KHTML, like Gecko) Version/17.5 Safari/605.1.15",Macintosh,Safari,17.5,OS X,10_15_7,https://5puzkbbxv1.cognition.run/?sona_id=57242,"en-US,en;q=0.9",9sw1z0q40blhsjj,20,"[""White""]",No,Female,NA,No,404022,NA,3197,NA,"{""product_choice"":""A""}",choice,tc,binary,repulsion,2,televisions,null,null,null,null,null,null,1,30,40,null,100,90,null,Screen size,Average lifespan,NA,NA
NA,NA,NA,NA,NA,choice_trial_setup,html-keyboard-response,82,299654,0.0-4.0-0.39,195,1,2025-05-05T19:18:50Z,b60275e29fe2361ab97ac0ac217840d7,"Mozilla/5.0 (Macintosh; Intel Mac OS X 10_15_7) AppleWebKit/605.1.15 (KHTML, like Gecko) Version/17.5 Safari/605.1.15",Macintosh,Safari,17.5,OS X,10_15_7,https://5puzkbbxv1.cognition.run/?sona_id=57242,"en-US,en;q=0.9",9sw1z0q40blhsjj,20,"[""White""]",No,Female,NA,No,404022,NA,null,<p></p>,null,choice,ct,binary,repulsion,1,microwave ovens,null,null,null,null,null,null,2,NA,NA,NA,NA,NA,NA,NA,NA,NA,NA
NA,NA,NA,NA,NA,choice_trial,survey-html-form,83,304374,0.0-4.0-1.39,195,1,2025-05-05T19:18:50Z,b60275e29fe2361ab97ac0ac217840d7,"Mozilla/5.0 (Macintosh; Intel Mac OS X 10_15_7) AppleWebKit/605.1.15 (KHTML, like Gecko) Version/17.5 Safari/605.1.15",Macintosh,Safari,17.5,OS X,10_15_7,https://5puzkbbxv1.cognition.run/?sona_id=57242,"en-US,en;q=0.9",9sw1z0q40blhsjj,20,"[""White""]",No,Female,NA,No,404022,NA,4717,NA,"{""product_choice"":""A""}",choice,ct,binary,repulsion,1,microwave ovens,null,null,null,null,null,null,2,100,90,null,30,40,null,Warranty,Cooking power,NA,NA
NA,NA,NA,NA,NA,choice_trial_setup,html-keyboard-response,84,304676,0.0-4.0-0.40,195,1,2025-05-05T19:18:50Z,b60275e29fe2361ab97ac0ac217840d7,"Mozilla/5.0 (Macintosh; Intel Mac OS X 10_15_7) AppleWebKit/605.1.15 (KHTML, like Gecko) Version/17.5 Safari/605.1.15",Macintosh,Safari,17.5,OS X,10_15_7,https://5puzkbbxv1.cognition.run/?sona_id=57242,"en-US,en;q=0.9",9sw1z0q40blhsjj,20,"[""White""]",No,Female,NA,No,404022,NA,null,<p></p>,null,choice,tdc,trinary,attraction,2,microwave ovens,null,null,null,null,null,null,2,NA,NA,NA,NA,NA,NA,NA,NA,NA,NA
NA,NA,NA,NA,NA,choice_trial,survey-html-form,85,308105,0.0-4.0-1.40,195,1,2025-05-05T19:18:50Z,b60275e29fe2361ab97ac0ac217840d7,"Mozilla/5.0 (Macintosh; Intel Mac OS X 10_15_7) AppleWebKit/605.1.15 (KHTML, like Gecko) Version/17.5 Safari/605.1.15",Macintosh,Safari,17.5,OS X,10_15_7,https://5puzkbbxv1.cognition.run/?sona_id=57242,"en-US,en;q=0.9",9sw1z0q40blhsjj,20,"[""White""]",No,Female,NA,No,404022,NA,3426,NA,"{""product_choice"":""A""}",choice,tdc,trinary,attraction,2,microwave ovens,null,null,null,null,null,null,2,50,60,40,60,50,60,Warranty,Cooking power,NA,NA
NA,NA,NA,NA,NA,choice_trial_setup,html-keyboard-response,86,308410,0.0-4.0-0.41,195,1,2025-05-05T19:18:50Z,b60275e29fe2361ab97ac0ac217840d7,"Mozilla/5.0 (Macintosh; Intel Mac OS X 10_15_7) AppleWebKit/605.1.15 (KHTML, like Gecko) Version/17.5 Safari/605.1.15",Macintosh,Safari,17.5,OS X,10_15_7,https://5puzkbbxv1.cognition.run/?sona_id=57242,"en-US,en;q=0.9",9sw1z0q40blhsjj,20,"[""White""]",No,Female,NA,No,404022,NA,null,<p></p>,null,choice,dct,trinary,repulsion_A,1,microwave ovens,null,null,null,null,null,null,2,NA,NA,NA,NA,NA,NA,NA,NA,NA,NA
NA,NA,NA,NA,NA,choice_trial,survey-html-form,87,312296,0.0-4.0-1.41,195,1,2025-05-05T19:18:50Z,b60275e29fe2361ab97ac0ac217840d7,"Mozilla/5.0 (Macintosh; Intel Mac OS X 10_15_7) AppleWebKit/605.1.15 (KHTML, like Gecko) Version/17.5 Safari/605.1.15",Macintosh,Safari,17.5,OS X,10_15_7,https://5puzkbbxv1.cognition.run/?sona_id=57242,"en-US,en;q=0.9",9sw1z0q40blhsjj,20,"[""White""]",No,Female,NA,No,404022,NA,3883,NA,"{""product_choice"":""B""}",choice,dct,trinary,repulsion_A,1,microwave ovens,null,null,null,null,null,null,2,100,90,100,30,40,20,Warranty,Cooking power,NA,NA
NA,NA,NA,NA,NA,choice_trial_setup,html-keyboard-response,88,312599,0.0-4.0-0.42,195,1,2025-05-05T19:18:50Z,b60275e29fe2361ab97ac0ac217840d7,"Mozilla/5.0 (Macintosh; Intel Mac OS X 10_15_7) AppleWebKit/605.1.15 (KHTML, like Gecko) Version/17.5 Safari/605.1.15",Macintosh,Safari,17.5,OS X,10_15_7,https://5puzkbbxv1.cognition.run/?sona_id=57242,"en-US,en;q=0.9",9sw1z0q40blhsjj,20,"[""White""]",No,Female,NA,No,404022,NA,null,<p></p>,null,choice,tcd,trinary,repulsion_A,2,washing machines,null,null,null,null,null,null,1,NA,NA,NA,NA,NA,NA,NA,NA,NA,NA
NA,NA,NA,NA,NA,choice_trial,survey-html-form,89,316254,0.0-4.0-1.42,195,1,2025-05-05T19:18:50Z,b60275e29fe2361ab97ac0ac217840d7,"Mozilla/5.0 (Macintosh; Intel Mac OS X 10_15_7) AppleWebKit/605.1.15 (KHTML, like Gecko) Version/17.5 Safari/605.1.15",Macintosh,Safari,17.5,OS X,10_15_7,https://5puzkbbxv1.cognition.run/?sona_id=57242,"en-US,en;q=0.9",9sw1z0q40blhsjj,20,"[""White""]",No,Female,NA,No,404022,NA,3651,NA,"{""product_choice"":""B""}",choice,tcd,trinary,repulsion_A,2,washing machines,null,null,null,null,null,null,1,30,40,20,100,90,100,Average lifespan,Energy savings,NA,NA
NA,NA,NA,NA,NA,choice_trial_setup,html-keyboard-response,90,316558,0.0-4.0-0.43,195,1,2025-05-05T19:18:50Z,b60275e29fe2361ab97ac0ac217840d7,"Mozilla/5.0 (Macintosh; Intel Mac OS X 10_15_7) AppleWebKit/605.1.15 (KHTML, like Gecko) Version/17.5 Safari/605.1.15",Macintosh,Safari,17.5,OS X,10_15_7,https://5puzkbbxv1.cognition.run/?sona_id=57242,"en-US,en;q=0.9",9sw1z0q40blhsjj,20,"[""White""]",No,Female,NA,No,404022,NA,null,<p></p>,null,choice,dct,trinary,repulsion_A,1,washing machines,null,null,null,null,null,null,2,NA,NA,NA,NA,NA,NA,NA,NA,NA,NA
NA,NA,NA,NA,NA,choice_trial,survey-html-form,91,320494,0.0-4.0-1.43,195,1,2025-05-05T19:18:50Z,b60275e29fe2361ab97ac0ac217840d7,"Mozilla/5.0 (Macintosh; Intel Mac OS X 10_15_7) AppleWebKit/605.1.15 (KHTML, like Gecko) Version/17.5 Safari/605.1.15",Macintosh,Safari,17.5,OS X,10_15_7,https://5puzkbbxv1.cognition.run/?sona_id=57242,"en-US,en;q=0.9",9sw1z0q40blhsjj,20,"[""White""]",No,Female,NA,No,404022,NA,3931,NA,"{""product_choice"":""C""}",choice,dct,trinary,repulsion_A,1,washing machines,null,null,null,null,null,null,2,100,90,100,30,40,20,Average lifespan,Energy savings,NA,NA
NA,NA,NA,NA,NA,post_trials_message,html-button-response,92,322516,0.0-5.0,195,1,2025-05-05T19:18:50Z,b60275e29fe2361ab97ac0ac217840d7,"Mozilla/5.0 (Macintosh; Intel Mac OS X 10_15_7) AppleWebKit/605.1.15 (KHTML, like Gecko) Version/17.5 Safari/605.1.15",Macintosh,Safari,17.5,OS X,10_15_7,https://5puzkbbxv1.cognition.run/?sona_id=57242,"en-US,en;q=0.9",9sw1z0q40blhsjj,20,"[""White""]",No,Female,NA,No,404022,NA,2019,<p> <b>Thank you for your patience!</b></p><p>  The study will be done after completing a brief form. </p>,0,NA,NA,NA,NA,NA,NA,NA,NA,NA,NA,NA,NA,NA,NA,NA,NA,NA,NA,NA,NA,NA,NA,NA
NA,NA,NA,NA,NA,survey_message,survey-text,93,373420,0.0-6.0,195,1,2025-05-05T19:18:50Z,b60275e29fe2361ab97ac0ac217840d7,"Mozilla/5.0 (Macintosh; Intel Mac OS X 10_15_7) AppleWebKit/605.1.15 (KHTML, like Gecko) Version/17.5 Safari/605.1.15",Macintosh,Safari,17.5,OS X,10_15_7,https://5puzkbbxv1.cognition.run/?sona_id=57242,"en-US,en;q=0.9",9sw1z0q40blhsjj,20,"[""White""]",No,Female,NA,No,404022,NA,50889,NA,"{""Q0"":""I chose which product to buy by picking the one with the higher rating in the category I cared more about.""}",NA,NA,NA,NA,NA,NA,NA,NA,NA,NA,NA,NA,NA,NA,NA,NA,NA,NA,NA,NA,NA,I chose which product to buy by picking the one with the higher rating in the category I cared more about.,NA
NA,NA,NA,NA,NA,demo_age,survey-text,94,376316,0.0-7.0,195,1,2025-05-05T19:18:50Z,b60275e29fe2361ab97ac0ac217840d7,"Mozilla/5.0 (Macintosh; Intel Mac OS X 10_15_7) AppleWebKit/605.1.15 (KHTML, like Gecko) Version/17.5 Safari/605.1.15",Macintosh,Safari,17.5,OS X,10_15_7,https://5puzkbbxv1.cognition.run/?sona_id=57242,"en-US,en;q=0.9",9sw1z0q40blhsjj,20,"[""White""]",No,Female,NA,No,404022,NA,2889,NA,"{""Q0"":""20""}",NA,NA,NA,NA,NA,NA,NA,NA,NA,NA,NA,NA,NA,NA,NA,NA,NA,NA,NA,NA,NA,NA,NA
NA,NA,NA,NA,NA,demo_race,survey-multi-select,95,378900,0.0-8.0,195,1,2025-05-05T19:18:50Z,b60275e29fe2361ab97ac0ac217840d7,"Mozilla/5.0 (Macintosh; Intel Mac OS X 10_15_7) AppleWebKit/605.1.15 (KHTML, like Gecko) Version/17.5 Safari/605.1.15",Macintosh,Safari,17.5,OS X,10_15_7,https://5puzkbbxv1.cognition.run/?sona_id=57242,"en-US,en;q=0.9",9sw1z0q40blhsjj,20,"[""White""]",No,Female,NA,No,404022,NA,2580,NA,"{""Q0"":[""White""]}",NA,NA,NA,NA,NA,NA,NA,NA,NA,NA,NA,NA,NA,NA,NA,NA,NA,NA,NA,NA,NA,NA,[0]
NA,NA,NA,NA,NA,demo_ethnicity_gender,survey-multi-choice,96,382961,0.0-9.0,195,1,2025-05-05T19:18:50Z,b60275e29fe2361ab97ac0ac217840d7,"Mozilla/5.0 (Macintosh; Intel Mac OS X 10_15_7) AppleWebKit/605.1.15 (KHTML, like Gecko) Version/17.5 Safari/605.1.15",Macintosh,Safari,17.5,OS X,10_15_7,https://5puzkbbxv1.cognition.run/?sona_id=57242,"en-US,en;q=0.9",9sw1z0q40blhsjj,20,"[""White""]",No,Female,NA,No,404022,NA,4056,NA,"{""Q0"":""No"",""Q1"":""Female""}",NA,NA,NA,NA,NA,NA,NA,NA,NA,NA,NA,NA,NA,NA,NA,NA,NA,NA,NA,NA,NA,NA,"[0,1]"
NA,NA,NA,NA,NA,demo_countries,survey-text,97,388317,0.0-10.0,195,1,2025-05-05T19:18:50Z,b60275e29fe2361ab97ac0ac217840d7,"Mozilla/5.0 (Macintosh; Intel Mac OS X 10_15_7) AppleWebKit/605.1.15 (KHTML, like Gecko) Version/17.5 Safari/605.1.15",Macintosh,Safari,17.5,OS X,10_15_7,https://5puzkbbxv1.cognition.run/?sona_id=57242,"en-US,en;q=0.9",9sw1z0q40blhsjj,20,"[""White""]",No,Female,NA,No,404022,NA,5353,NA,"{""Q0"":""NA""}",NA,NA,NA,NA,NA,NA,NA,NA,NA,NA,NA,NA,NA,NA,NA,NA,NA,NA,NA,NA,NA,NA,NA
NA,NA,NA,NA,NA,demo_prev_study,survey-multi-choice,98,393049,0.0-11.0,195,1,2025-05-05T19:18:50Z,b60275e29fe2361ab97ac0ac217840d7,"Mozilla/5.0 (Macintosh; Intel Mac OS X 10_15_7) AppleWebKit/605.1.15 (KHTML, like Gecko) Version/17.5 Safari/605.1.15",Macintosh,Safari,17.5,OS X,10_15_7,https://5puzkbbxv1.cognition.run/?sona_id=57242,"en-US,en;q=0.9",9sw1z0q40blhsjj,20,"[""White""]",No,Female,NA,No,404022,NA,4727,NA,"{""Q0"":""No""}",NA,NA,NA,NA,NA,NA,NA,NA,NA,NA,NA,NA,NA,NA,NA,NA,NA,NA,NA,NA,NA,NA,[0]
NA,NA,NA,NA,NA,post_survey_message,html-keyboard-response,99,399570,0.0-12.0,195,1,2025-05-05T19:18:50Z,b60275e29fe2361ab97ac0ac217840d7,"Mozilla/5.0 (Macintosh; Intel Mac OS X 10_15_7) AppleWebKit/605.1.15 (KHTML, like Gecko) Version/17.5 Safari/605.1.15",Macintosh,Safari,17.5,OS X,10_15_7,https://5puzkbbxv1.cognition.run/?sona_id=57242,"en-US,en;q=0.9",9sw1z0q40blhsjj,20,"[""White""]",No,Female,NA,No,404022,NA,6517,NA,j,NA,NA,NA,NA,NA,NA,NA,NA,NA,NA,NA,NA,NA,NA,NA,NA,NA,NA,NA,NA,NA,NA,NA
NA,NA,NA,NA,NA,debrief,image-keyboard-response,100,404019,0.0-13.0,195,1,2025-05-05T19:18:50Z,b60275e29fe2361ab97ac0ac217840d7,"Mozilla/5.0 (Macintosh; Intel Mac OS X 10_15_7) AppleWebKit/605.1.15 (KHTML, like Gecko) Version/17.5 Safari/605.1.15",Macintosh,Safari,17.5,OS X,10_15_7,https://5puzkbbxv1.cognition.run/?sona_id=57242,"en-US,en;q=0.9",9sw1z0q40blhsjj,20,"[""White""]",No,Female,NA,No,404022,NA,4426,Judg_choice_debrief.png,p,NA,NA,NA,NA,NA,NA,NA,NA,NA,NA,NA,NA,NA,NA,NA,NA,NA,NA,NA,NA,NA,NA,NA
