success,timeout,failed_images,failed_audio,failed_video,screen_id,trial_type,trial_index,time_elapsed,internal_node_id,run_id,condition,recorded_at,source_code_version,user_agent,device,browser,browser_version,platform,platform_version,referer,accept_language,ppt_id,age,race,ethnicity,gender,other_countries,prev_study,exp_duration,view_history,rt,stimulus,response,phase,order,set,effect,t_high,category,d1_best,d2_best,d1_worst1,d2_worst1,d1_worst2,d2_worst2,first_dim,d1_t,d1_c,d1_d,d2_t,d2_c,d2_d,d1_name,d2_name,strategy_response,question_order
TRUE,FALSE,[],[],[],img preload,preload,0,399,0.0-0.0,198,1,2025-05-05T20:11:14Z,b60275e29fe2361ab97ac0ac217840d7,"Mozilla/5.0 (Macintosh; Intel Mac OS X 10_15_7) AppleWebKit/605.1.15 (KHTML, like Gecko) Version/14.1.1 Safari/605.1.15",Macintosh,Safari,14.1.1,OS X,10_15_7,https://5puzkbbxv1.cognition.run/?sona_id=47021,en-us,dg0gmtwhll230os,22,"[""White""]",No,Female,NA,No,608707,NA,NA,NA,NA,NA,NA,NA,NA,NA,NA,NA,NA,NA,NA,NA,NA,NA,NA,NA,NA,NA,NA,NA,NA,NA,NA,NA
NA,NA,NA,NA,NA,computer_message,instructions,1,1917,0.0-1.0,198,1,2025-05-05T20:11:14Z,b60275e29fe2361ab97ac0ac217840d7,"Mozilla/5.0 (Macintosh; Intel Mac OS X 10_15_7) AppleWebKit/605.1.15 (KHTML, like Gecko) Version/14.1.1 Safari/605.1.15",Macintosh,Safari,14.1.1,OS X,10_15_7,https://5puzkbbxv1.cognition.run/?sona_id=47021,en-us,dg0gmtwhll230os,22,"[""White""]",No,Female,NA,No,608707,"[{""page_index"":0,""viewing_time"":1514}]",1515,NA,NA,NA,NA,NA,NA,NA,NA,NA,NA,NA,NA,NA,NA,NA,NA,NA,NA,NA,NA,NA,NA,NA,NA,NA
TRUE,NA,NA,NA,NA,NA,fullscreen,2,4315,0.0-2.0,198,1,2025-05-05T20:11:14Z,b60275e29fe2361ab97ac0ac217840d7,"Mozilla/5.0 (Macintosh; Intel Mac OS X 10_15_7) AppleWebKit/605.1.15 (KHTML, like Gecko) Version/14.1.1 Safari/605.1.15",Macintosh,Safari,14.1.1,OS X,10_15_7,https://5puzkbbxv1.cognition.run/?sona_id=47021,en-us,dg0gmtwhll230os,22,"[""White""]",No,Female,NA,No,608707,NA,1394,NA,NA,NA,NA,NA,NA,NA,NA,NA,NA,NA,NA,NA,NA,NA,NA,NA,NA,NA,NA,NA,NA,NA,NA,NA
NA,NA,NA,NA,NA,choice_instructions,instructions,3,79816,0.0-3.0,198,1,2025-05-05T20:11:14Z,b60275e29fe2361ab97ac0ac217840d7,"Mozilla/5.0 (Macintosh; Intel Mac OS X 10_15_7) AppleWebKit/605.1.15 (KHTML, like Gecko) Version/14.1.1 Safari/605.1.15",Macintosh,Safari,14.1.1,OS X,10_15_7,https://5puzkbbxv1.cognition.run/?sona_id=47021,en-us,dg0gmtwhll230os,22,"[""White""]",No,Female,NA,No,608707,"[{""page_index"":0,""viewing_time"":1691},{""page_index"":1,""viewing_time"":3892},{""page_index"":2,""viewing_time"":38162},{""page_index"":3,""viewing_time"":1733},{""page_index"":4,""viewing_time"":831},{""page_index"":5,""viewing_time"":20419},{""page_index"":6,""viewing_time"":8773}]",75501,NA,NA,NA,NA,NA,NA,NA,NA,NA,NA,NA,NA,NA,NA,NA,NA,NA,NA,NA,NA,NA,NA,NA,NA,NA
NA,NA,NA,NA,NA,choice_trial_setup,html-keyboard-response,4,80131,0.0-4.0-0.0,198,1,2025-05-05T20:11:14Z,b60275e29fe2361ab97ac0ac217840d7,"Mozilla/5.0 (Macintosh; Intel Mac OS X 10_15_7) AppleWebKit/605.1.15 (KHTML, like Gecko) Version/14.1.1 Safari/605.1.15",Macintosh,Safari,14.1.1,OS X,10_15_7,https://5puzkbbxv1.cognition.run/?sona_id=47021,en-us,dg0gmtwhll230os,22,"[""White""]",No,Female,NA,No,608707,NA,null,<p></p>,null,choice,dct,trinary,repulsion_B,2,microwave ovens,null,null,null,null,null,null,1,NA,NA,NA,NA,NA,NA,NA,NA,NA,NA
NA,NA,NA,NA,NA,choice_trial,survey-html-form,5,95323,0.0-4.0-1.0,198,1,2025-05-05T20:11:14Z,b60275e29fe2361ab97ac0ac217840d7,"Mozilla/5.0 (Macintosh; Intel Mac OS X 10_15_7) AppleWebKit/605.1.15 (KHTML, like Gecko) Version/14.1.1 Safari/605.1.15",Macintosh,Safari,14.1.1,OS X,10_15_7,https://5puzkbbxv1.cognition.run/?sona_id=47021,en-us,dg0gmtwhll230os,22,"[""White""]",No,Female,NA,No,608707,NA,15188,NA,"{""product_choice"":""C""}",choice,dct,trinary,repulsion_B,2,microwave ovens,null,null,null,null,null,null,1,40,30,40,90,100,80,Warranty,Cooking power,NA,NA
NA,NA,NA,NA,NA,choice_trial_setup,html-keyboard-response,6,95627,0.0-4.0-0.1,198,1,2025-05-05T20:11:14Z,b60275e29fe2361ab97ac0ac217840d7,"Mozilla/5.0 (Macintosh; Intel Mac OS X 10_15_7) AppleWebKit/605.1.15 (KHTML, like Gecko) Version/14.1.1 Safari/605.1.15",Macintosh,Safari,14.1.1,OS X,10_15_7,https://5puzkbbxv1.cognition.run/?sona_id=47021,en-us,dg0gmtwhll230os,22,"[""White""]",No,Female,NA,No,608707,NA,null,<p></p>,null,choice,ct,binary,repulsion,1,laptops,null,null,null,null,null,null,1,NA,NA,NA,NA,NA,NA,NA,NA,NA,NA
NA,NA,NA,NA,NA,choice_trial,survey-html-form,7,107182,0.0-4.0-1.1,198,1,2025-05-05T20:11:14Z,b60275e29fe2361ab97ac0ac217840d7,"Mozilla/5.0 (Macintosh; Intel Mac OS X 10_15_7) AppleWebKit/605.1.15 (KHTML, like Gecko) Version/14.1.1 Safari/605.1.15",Macintosh,Safari,14.1.1,OS X,10_15_7,https://5puzkbbxv1.cognition.run/?sona_id=47021,en-us,dg0gmtwhll230os,22,"[""White""]",No,Female,NA,No,608707,NA,11551,NA,"{""product_choice"":""A""}",choice,ct,binary,repulsion,1,laptops,null,null,null,null,null,null,1,100,90,null,30,40,null,Processing speed,Memory (RAM),NA,NA
NA,NA,NA,NA,NA,choice_trial_setup,html-keyboard-response,8,107485,0.0-4.0-0.2,198,1,2025-05-05T20:11:14Z,b60275e29fe2361ab97ac0ac217840d7,"Mozilla/5.0 (Macintosh; Intel Mac OS X 10_15_7) AppleWebKit/605.1.15 (KHTML, like Gecko) Version/14.1.1 Safari/605.1.15",Macintosh,Safari,14.1.1,OS X,10_15_7,https://5puzkbbxv1.cognition.run/?sona_id=47021,en-us,dg0gmtwhll230os,22,"[""White""]",No,Female,NA,No,608707,NA,null,<p></p>,null,choice,dct,trinary,repulsion_A,2,televisions,null,null,null,null,null,null,2,NA,NA,NA,NA,NA,NA,NA,NA,NA,NA
NA,NA,NA,NA,NA,choice_trial,survey-html-form,9,114341,0.0-4.0-1.2,198,1,2025-05-05T20:11:14Z,b60275e29fe2361ab97ac0ac217840d7,"Mozilla/5.0 (Macintosh; Intel Mac OS X 10_15_7) AppleWebKit/605.1.15 (KHTML, like Gecko) Version/14.1.1 Safari/605.1.15",Macintosh,Safari,14.1.1,OS X,10_15_7,https://5puzkbbxv1.cognition.run/?sona_id=47021,en-us,dg0gmtwhll230os,22,"[""White""]",No,Female,NA,No,608707,NA,6851,NA,"{""product_choice"":""B""}",choice,dct,trinary,repulsion_A,2,televisions,null,null,null,null,null,null,2,30,40,20,100,90,100,Screen size,Average lifespan,NA,NA
NA,NA,NA,NA,NA,choice_trial_setup,html-keyboard-response,10,114645,0.0-4.0-0.3,198,1,2025-05-05T20:11:14Z,b60275e29fe2361ab97ac0ac217840d7,"Mozilla/5.0 (Macintosh; Intel Mac OS X 10_15_7) AppleWebKit/605.1.15 (KHTML, like Gecko) Version/14.1.1 Safari/605.1.15",Macintosh,Safari,14.1.1,OS X,10_15_7,https://5puzkbbxv1.cognition.run/?sona_id=47021,en-us,dg0gmtwhll230os,22,"[""White""]",No,Female,NA,No,608707,NA,null,<p></p>,null,choice,dtc,trinary,attraction,1,washing machines,null,null,null,null,null,null,2,NA,NA,NA,NA,NA,NA,NA,NA,NA,NA
NA,NA,NA,NA,NA,choice_trial,survey-html-form,11,178164,0.0-4.0-1.3,198,1,2025-05-05T20:11:14Z,b60275e29fe2361ab97ac0ac217840d7,"Mozilla/5.0 (Macintosh; Intel Mac OS X 10_15_7) AppleWebKit/605.1.15 (KHTML, like Gecko) Version/14.1.1 Safari/605.1.15",Macintosh,Safari,14.1.1,OS X,10_15_7,https://5puzkbbxv1.cognition.run/?sona_id=47021,en-us,dg0gmtwhll230os,22,"[""White""]",No,Female,NA,No,608707,NA,63518,NA,"{""product_choice"":""B""}",choice,dtc,trinary,attraction,1,washing machines,null,null,null,null,null,null,2,60,50,60,50,60,40,Average lifespan,Energy savings,NA,NA
NA,NA,NA,NA,NA,choice_trial_setup,html-keyboard-response,12,178468,0.0-4.0-0.4,198,1,2025-05-05T20:11:14Z,b60275e29fe2361ab97ac0ac217840d7,"Mozilla/5.0 (Macintosh; Intel Mac OS X 10_15_7) AppleWebKit/605.1.15 (KHTML, like Gecko) Version/14.1.1 Safari/605.1.15",Macintosh,Safari,14.1.1,OS X,10_15_7,https://5puzkbbxv1.cognition.run/?sona_id=47021,en-us,dg0gmtwhll230os,22,"[""White""]",No,Female,NA,No,608707,NA,null,<p></p>,null,choice,dct,trinary,repulsion_B,1,laptops,null,null,null,null,null,null,1,NA,NA,NA,NA,NA,NA,NA,NA,NA,NA
NA,NA,NA,NA,NA,choice_trial,survey-html-form,13,204044,0.0-4.0-1.4,198,1,2025-05-05T20:11:14Z,b60275e29fe2361ab97ac0ac217840d7,"Mozilla/5.0 (Macintosh; Intel Mac OS X 10_15_7) AppleWebKit/605.1.15 (KHTML, like Gecko) Version/14.1.1 Safari/605.1.15",Macintosh,Safari,14.1.1,OS X,10_15_7,https://5puzkbbxv1.cognition.run/?sona_id=47021,en-us,dg0gmtwhll230os,22,"[""White""]",No,Female,NA,No,608707,NA,25571,NA,"{""product_choice"":""C""}",choice,dct,trinary,repulsion_B,1,laptops,null,null,null,null,null,null,1,90,100,80,40,30,40,Processing speed,Memory (RAM),NA,NA
NA,NA,NA,NA,NA,choice_trial_setup,html-keyboard-response,14,204349,0.0-4.0-0.5,198,1,2025-05-05T20:11:14Z,b60275e29fe2361ab97ac0ac217840d7,"Mozilla/5.0 (Macintosh; Intel Mac OS X 10_15_7) AppleWebKit/605.1.15 (KHTML, like Gecko) Version/14.1.1 Safari/605.1.15",Macintosh,Safari,14.1.1,OS X,10_15_7,https://5puzkbbxv1.cognition.run/?sona_id=47021,en-us,dg0gmtwhll230os,22,"[""White""]",No,Female,NA,No,608707,NA,null,<p></p>,null,choice,ct,binary,attraction,NA,washing machines,null,null,null,null,null,null,1,NA,NA,NA,NA,NA,NA,NA,NA,NA,NA
NA,NA,NA,NA,NA,choice_trial,survey-html-form,15,217600,0.0-4.0-1.5,198,1,2025-05-05T20:11:14Z,b60275e29fe2361ab97ac0ac217840d7,"Mozilla/5.0 (Macintosh; Intel Mac OS X 10_15_7) AppleWebKit/605.1.15 (KHTML, like Gecko) Version/14.1.1 Safari/605.1.15",Macintosh,Safari,14.1.1,OS X,10_15_7,https://5puzkbbxv1.cognition.run/?sona_id=47021,en-us,dg0gmtwhll230os,22,"[""White""]",No,Female,NA,No,608707,NA,13246,NA,"{""product_choice"":""B""}",choice,ct,binary,attraction,NA,washing machines,null,null,null,null,null,null,1,60,50,null,50,60,null,Average lifespan,Energy savings,NA,NA
NA,NA,NA,NA,NA,choice_trial_setup,html-keyboard-response,16,217904,0.0-4.0-0.6,198,1,2025-05-05T20:11:14Z,b60275e29fe2361ab97ac0ac217840d7,"Mozilla/5.0 (Macintosh; Intel Mac OS X 10_15_7) AppleWebKit/605.1.15 (KHTML, like Gecko) Version/14.1.1 Safari/605.1.15",Macintosh,Safari,14.1.1,OS X,10_15_7,https://5puzkbbxv1.cognition.run/?sona_id=47021,en-us,dg0gmtwhll230os,22,"[""White""]",No,Female,NA,No,608707,NA,null,<p></p>,null,choice,tc,binary,attraction,NA,microwave ovens,null,null,null,null,null,null,2,NA,NA,NA,NA,NA,NA,NA,NA,NA,NA
NA,NA,NA,NA,NA,choice_trial,survey-html-form,17,223327,0.0-4.0-1.6,198,1,2025-05-05T20:11:14Z,b60275e29fe2361ab97ac0ac217840d7,"Mozilla/5.0 (Macintosh; Intel Mac OS X 10_15_7) AppleWebKit/605.1.15 (KHTML, like Gecko) Version/14.1.1 Safari/605.1.15",Macintosh,Safari,14.1.1,OS X,10_15_7,https://5puzkbbxv1.cognition.run/?sona_id=47021,en-us,dg0gmtwhll230os,22,"[""White""]",No,Female,NA,No,608707,NA,5418,NA,"{""product_choice"":""B""}",choice,tc,binary,attraction,NA,microwave ovens,null,null,null,null,null,null,2,60,50,null,50,60,null,Warranty,Cooking power,NA,NA
NA,NA,NA,NA,NA,choice_trial_setup,html-keyboard-response,18,223632,0.0-4.0-0.7,198,1,2025-05-05T20:11:14Z,b60275e29fe2361ab97ac0ac217840d7,"Mozilla/5.0 (Macintosh; Intel Mac OS X 10_15_7) AppleWebKit/605.1.15 (KHTML, like Gecko) Version/14.1.1 Safari/605.1.15",Macintosh,Safari,14.1.1,OS X,10_15_7,https://5puzkbbxv1.cognition.run/?sona_id=47021,en-us,dg0gmtwhll230os,22,"[""White""]",No,Female,NA,No,608707,NA,null,<p></p>,null,choice,bww,trinary,catch,null,laptops,60,80,5,25,45,50,2,NA,NA,NA,NA,NA,NA,NA,NA,NA,NA
NA,NA,NA,NA,NA,choice_trial,survey-html-form,19,232751,0.0-4.0-1.7,198,1,2025-05-05T20:11:14Z,b60275e29fe2361ab97ac0ac217840d7,"Mozilla/5.0 (Macintosh; Intel Mac OS X 10_15_7) AppleWebKit/605.1.15 (KHTML, like Gecko) Version/14.1.1 Safari/605.1.15",Macintosh,Safari,14.1.1,OS X,10_15_7,https://5puzkbbxv1.cognition.run/?sona_id=47021,en-us,dg0gmtwhll230os,22,"[""White""]",No,Female,NA,No,608707,NA,9113,NA,"{""product_choice"":""A""}",choice,bww,trinary,catch,null,laptops,60,80,5,25,45,50,2,null,null,null,null,null,null,Processing speed,Memory (RAM),NA,NA
NA,NA,NA,NA,NA,choice_trial_setup,html-keyboard-response,20,233057,0.0-4.0-0.8,198,1,2025-05-05T20:11:14Z,b60275e29fe2361ab97ac0ac217840d7,"Mozilla/5.0 (Macintosh; Intel Mac OS X 10_15_7) AppleWebKit/605.1.15 (KHTML, like Gecko) Version/14.1.1 Safari/605.1.15",Macintosh,Safari,14.1.1,OS X,10_15_7,https://5puzkbbxv1.cognition.run/?sona_id=47021,en-us,dg0gmtwhll230os,22,"[""White""]",No,Female,NA,No,608707,NA,null,<p></p>,null,choice,dtc,trinary,attraction,2,microwave ovens,null,null,null,null,null,null,2,NA,NA,NA,NA,NA,NA,NA,NA,NA,NA
NA,NA,NA,NA,NA,choice_trial,survey-html-form,21,239620,0.0-4.0-1.8,198,1,2025-05-05T20:11:14Z,b60275e29fe2361ab97ac0ac217840d7,"Mozilla/5.0 (Macintosh; Intel Mac OS X 10_15_7) AppleWebKit/605.1.15 (KHTML, like Gecko) Version/14.1.1 Safari/605.1.15",Macintosh,Safari,14.1.1,OS X,10_15_7,https://5puzkbbxv1.cognition.run/?sona_id=47021,en-us,dg0gmtwhll230os,22,"[""White""]",No,Female,NA,No,608707,NA,6557,NA,"{""product_choice"":""B""}",choice,dtc,trinary,attraction,2,microwave ovens,null,null,null,null,null,null,2,50,60,40,60,50,60,Warranty,Cooking power,NA,NA
NA,NA,NA,NA,NA,choice_trial_setup,html-keyboard-response,22,239924,0.0-4.0-0.9,198,1,2025-05-05T20:11:14Z,b60275e29fe2361ab97ac0ac217840d7,"Mozilla/5.0 (Macintosh; Intel Mac OS X 10_15_7) AppleWebKit/605.1.15 (KHTML, like Gecko) Version/14.1.1 Safari/605.1.15",Macintosh,Safari,14.1.1,OS X,10_15_7,https://5puzkbbxv1.cognition.run/?sona_id=47021,en-us,dg0gmtwhll230os,22,"[""White""]",No,Female,NA,No,608707,NA,null,<p></p>,null,choice,tc,binary,repulsion,2,laptops,null,null,null,null,null,null,1,NA,NA,NA,NA,NA,NA,NA,NA,NA,NA
NA,NA,NA,NA,NA,choice_trial,survey-html-form,23,245371,0.0-4.0-1.9,198,1,2025-05-05T20:11:14Z,b60275e29fe2361ab97ac0ac217840d7,"Mozilla/5.0 (Macintosh; Intel Mac OS X 10_15_7) AppleWebKit/605.1.15 (KHTML, like Gecko) Version/14.1.1 Safari/605.1.15",Macintosh,Safari,14.1.1,OS X,10_15_7,https://5puzkbbxv1.cognition.run/?sona_id=47021,en-us,dg0gmtwhll230os,22,"[""White""]",No,Female,NA,No,608707,NA,5441,NA,"{""product_choice"":""B""}",choice,tc,binary,repulsion,2,laptops,null,null,null,null,null,null,1,30,40,null,100,90,null,Processing speed,Memory (RAM),NA,NA
NA,NA,NA,NA,NA,choice_trial_setup,html-keyboard-response,24,245675,0.0-4.0-0.10,198,1,2025-05-05T20:11:14Z,b60275e29fe2361ab97ac0ac217840d7,"Mozilla/5.0 (Macintosh; Intel Mac OS X 10_15_7) AppleWebKit/605.1.15 (KHTML, like Gecko) Version/14.1.1 Safari/605.1.15",Macintosh,Safari,14.1.1,OS X,10_15_7,https://5puzkbbxv1.cognition.run/?sona_id=47021,en-us,dg0gmtwhll230os,22,"[""White""]",No,Female,NA,No,608707,NA,null,<p></p>,null,choice,wbw,trinary,catch,null,washing machines,60,80,40,35,10,10,2,NA,NA,NA,NA,NA,NA,NA,NA,NA,NA
NA,NA,NA,NA,NA,choice_trial,survey-html-form,25,260774,0.0-4.0-1.10,198,1,2025-05-05T20:11:14Z,b60275e29fe2361ab97ac0ac217840d7,"Mozilla/5.0 (Macintosh; Intel Mac OS X 10_15_7) AppleWebKit/605.1.15 (KHTML, like Gecko) Version/14.1.1 Safari/605.1.15",Macintosh,Safari,14.1.1,OS X,10_15_7,https://5puzkbbxv1.cognition.run/?sona_id=47021,en-us,dg0gmtwhll230os,22,"[""White""]",No,Female,NA,No,608707,NA,15094,NA,"{""product_choice"":""B""}",choice,wbw,trinary,catch,null,washing machines,60,80,40,35,10,10,2,null,null,null,null,null,null,Average lifespan,Energy savings,NA,NA
NA,NA,NA,NA,NA,choice_trial_setup,html-keyboard-response,26,261079,0.0-4.0-0.11,198,1,2025-05-05T20:11:14Z,b60275e29fe2361ab97ac0ac217840d7,"Mozilla/5.0 (Macintosh; Intel Mac OS X 10_15_7) AppleWebKit/605.1.15 (KHTML, like Gecko) Version/14.1.1 Safari/605.1.15",Macintosh,Safari,14.1.1,OS X,10_15_7,https://5puzkbbxv1.cognition.run/?sona_id=47021,en-us,dg0gmtwhll230os,22,"[""White""]",No,Female,NA,No,608707,NA,null,<p></p>,null,choice,dtc,trinary,repulsion_A,1,microwave ovens,null,null,null,null,null,null,1,NA,NA,NA,NA,NA,NA,NA,NA,NA,NA
NA,NA,NA,NA,NA,choice_trial,survey-html-form,27,266754,0.0-4.0-1.11,198,1,2025-05-05T20:11:14Z,b60275e29fe2361ab97ac0ac217840d7,"Mozilla/5.0 (Macintosh; Intel Mac OS X 10_15_7) AppleWebKit/605.1.15 (KHTML, like Gecko) Version/14.1.1 Safari/605.1.15",Macintosh,Safari,14.1.1,OS X,10_15_7,https://5puzkbbxv1.cognition.run/?sona_id=47021,en-us,dg0gmtwhll230os,22,"[""White""]",No,Female,NA,No,608707,NA,5670,NA,"{""product_choice"":""C""}",choice,dtc,trinary,repulsion_A,1,microwave ovens,null,null,null,null,null,null,1,100,90,100,30,40,20,Warranty,Cooking power,NA,NA
NA,NA,NA,NA,NA,choice_trial_setup,html-keyboard-response,28,267058,0.0-4.0-0.12,198,1,2025-05-05T20:11:14Z,b60275e29fe2361ab97ac0ac217840d7,"Mozilla/5.0 (Macintosh; Intel Mac OS X 10_15_7) AppleWebKit/605.1.15 (KHTML, like Gecko) Version/14.1.1 Safari/605.1.15",Macintosh,Safari,14.1.1,OS X,10_15_7,https://5puzkbbxv1.cognition.run/?sona_id=47021,en-us,dg0gmtwhll230os,22,"[""White""]",No,Female,NA,No,608707,NA,null,<p></p>,null,choice,dtc,trinary,repulsion_B,2,laptops,null,null,null,null,null,null,1,NA,NA,NA,NA,NA,NA,NA,NA,NA,NA
NA,NA,NA,NA,NA,choice_trial,survey-html-form,29,281447,0.0-4.0-1.12,198,1,2025-05-05T20:11:14Z,b60275e29fe2361ab97ac0ac217840d7,"Mozilla/5.0 (Macintosh; Intel Mac OS X 10_15_7) AppleWebKit/605.1.15 (KHTML, like Gecko) Version/14.1.1 Safari/605.1.15",Macintosh,Safari,14.1.1,OS X,10_15_7,https://5puzkbbxv1.cognition.run/?sona_id=47021,en-us,dg0gmtwhll230os,22,"[""White""]",No,Female,NA,No,608707,NA,14383,NA,"{""product_choice"":""C""}",choice,dtc,trinary,repulsion_B,2,laptops,null,null,null,null,null,null,1,40,30,40,90,100,80,Processing speed,Memory (RAM),NA,NA
NA,NA,NA,NA,NA,choice_trial_setup,html-keyboard-response,30,281751,0.0-4.0-0.13,198,1,2025-05-05T20:11:14Z,b60275e29fe2361ab97ac0ac217840d7,"Mozilla/5.0 (Macintosh; Intel Mac OS X 10_15_7) AppleWebKit/605.1.15 (KHTML, like Gecko) Version/14.1.1 Safari/605.1.15",Macintosh,Safari,14.1.1,OS X,10_15_7,https://5puzkbbxv1.cognition.run/?sona_id=47021,en-us,dg0gmtwhll230os,22,"[""White""]",No,Female,NA,No,608707,NA,null,<p></p>,null,choice,ct,binary,repulsion,2,washing machines,null,null,null,null,null,null,1,NA,NA,NA,NA,NA,NA,NA,NA,NA,NA
NA,NA,NA,NA,NA,choice_trial,survey-html-form,31,298477,0.0-4.0-1.13,198,1,2025-05-05T20:11:14Z,b60275e29fe2361ab97ac0ac217840d7,"Mozilla/5.0 (Macintosh; Intel Mac OS X 10_15_7) AppleWebKit/605.1.15 (KHTML, like Gecko) Version/14.1.1 Safari/605.1.15",Macintosh,Safari,14.1.1,OS X,10_15_7,https://5puzkbbxv1.cognition.run/?sona_id=47021,en-us,dg0gmtwhll230os,22,"[""White""]",No,Female,NA,No,608707,NA,16721,NA,"{""product_choice"":""A""}",choice,ct,binary,repulsion,2,washing machines,null,null,null,null,null,null,1,30,40,null,100,90,null,Average lifespan,Energy savings,NA,NA
NA,NA,NA,NA,NA,choice_trial_setup,html-keyboard-response,32,298781,0.0-4.0-0.14,198,1,2025-05-05T20:11:14Z,b60275e29fe2361ab97ac0ac217840d7,"Mozilla/5.0 (Macintosh; Intel Mac OS X 10_15_7) AppleWebKit/605.1.15 (KHTML, like Gecko) Version/14.1.1 Safari/605.1.15",Macintosh,Safari,14.1.1,OS X,10_15_7,https://5puzkbbxv1.cognition.run/?sona_id=47021,en-us,dg0gmtwhll230os,22,"[""White""]",No,Female,NA,No,608707,NA,null,<p></p>,null,choice,tdc,trinary,repulsion_A,1,laptops,null,null,null,null,null,null,2,NA,NA,NA,NA,NA,NA,NA,NA,NA,NA
NA,NA,NA,NA,NA,choice_trial,survey-html-form,33,312078,0.0-4.0-1.14,198,1,2025-05-05T20:11:14Z,b60275e29fe2361ab97ac0ac217840d7,"Mozilla/5.0 (Macintosh; Intel Mac OS X 10_15_7) AppleWebKit/605.1.15 (KHTML, like Gecko) Version/14.1.1 Safari/605.1.15",Macintosh,Safari,14.1.1,OS X,10_15_7,https://5puzkbbxv1.cognition.run/?sona_id=47021,en-us,dg0gmtwhll230os,22,"[""White""]",No,Female,NA,No,608707,NA,13291,NA,"{""product_choice"":""A""}",choice,tdc,trinary,repulsion_A,1,laptops,null,null,null,null,null,null,2,100,90,100,30,40,20,Processing speed,Memory (RAM),NA,NA
NA,NA,NA,NA,NA,choice_trial_setup,html-keyboard-response,34,312383,0.0-4.0-0.15,198,1,2025-05-05T20:11:14Z,b60275e29fe2361ab97ac0ac217840d7,"Mozilla/5.0 (Macintosh; Intel Mac OS X 10_15_7) AppleWebKit/605.1.15 (KHTML, like Gecko) Version/14.1.1 Safari/605.1.15",Macintosh,Safari,14.1.1,OS X,10_15_7,https://5puzkbbxv1.cognition.run/?sona_id=47021,en-us,dg0gmtwhll230os,22,"[""White""]",No,Female,NA,No,608707,NA,null,<p></p>,null,choice,dct,trinary,attraction,2,televisions,null,null,null,null,null,null,2,NA,NA,NA,NA,NA,NA,NA,NA,NA,NA
NA,NA,NA,NA,NA,choice_trial,survey-html-form,35,320800,0.0-4.0-1.15,198,1,2025-05-05T20:11:14Z,b60275e29fe2361ab97ac0ac217840d7,"Mozilla/5.0 (Macintosh; Intel Mac OS X 10_15_7) AppleWebKit/605.1.15 (KHTML, like Gecko) Version/14.1.1 Safari/605.1.15",Macintosh,Safari,14.1.1,OS X,10_15_7,https://5puzkbbxv1.cognition.run/?sona_id=47021,en-us,dg0gmtwhll230os,22,"[""White""]",No,Female,NA,No,608707,NA,8411,NA,"{""product_choice"":""C""}",choice,dct,trinary,attraction,2,televisions,null,null,null,null,null,null,2,50,60,40,60,50,60,Screen size,Average lifespan,NA,NA
NA,NA,NA,NA,NA,choice_trial_setup,html-keyboard-response,36,321105,0.0-4.0-0.16,198,1,2025-05-05T20:11:14Z,b60275e29fe2361ab97ac0ac217840d7,"Mozilla/5.0 (Macintosh; Intel Mac OS X 10_15_7) AppleWebKit/605.1.15 (KHTML, like Gecko) Version/14.1.1 Safari/605.1.15",Macintosh,Safari,14.1.1,OS X,10_15_7,https://5puzkbbxv1.cognition.run/?sona_id=47021,en-us,dg0gmtwhll230os,22,"[""White""]",No,Female,NA,No,608707,NA,null,<p></p>,null,choice,dtc,trinary,repulsion_B,1,microwave ovens,null,null,null,null,null,null,2,NA,NA,NA,NA,NA,NA,NA,NA,NA,NA
NA,NA,NA,NA,NA,choice_trial,survey-html-form,37,330257,0.0-4.0-1.16,198,1,2025-05-05T20:11:14Z,b60275e29fe2361ab97ac0ac217840d7,"Mozilla/5.0 (Macintosh; Intel Mac OS X 10_15_7) AppleWebKit/605.1.15 (KHTML, like Gecko) Version/14.1.1 Safari/605.1.15",Macintosh,Safari,14.1.1,OS X,10_15_7,https://5puzkbbxv1.cognition.run/?sona_id=47021,en-us,dg0gmtwhll230os,22,"[""White""]",No,Female,NA,No,608707,NA,9146,NA,"{""product_choice"":""B""}",choice,dtc,trinary,repulsion_B,1,microwave ovens,null,null,null,null,null,null,2,90,100,80,40,30,40,Warranty,Cooking power,NA,NA
NA,NA,NA,NA,NA,choice_trial_setup,html-keyboard-response,38,330562,0.0-4.0-0.17,198,1,2025-05-05T20:11:14Z,b60275e29fe2361ab97ac0ac217840d7,"Mozilla/5.0 (Macintosh; Intel Mac OS X 10_15_7) AppleWebKit/605.1.15 (KHTML, like Gecko) Version/14.1.1 Safari/605.1.15",Macintosh,Safari,14.1.1,OS X,10_15_7,https://5puzkbbxv1.cognition.run/?sona_id=47021,en-us,dg0gmtwhll230os,22,"[""White""]",No,Female,NA,No,608707,NA,null,<p></p>,null,choice,ct,binary,attraction,NA,televisions,null,null,null,null,null,null,2,NA,NA,NA,NA,NA,NA,NA,NA,NA,NA
NA,NA,NA,NA,NA,choice_trial,survey-html-form,39,338112,0.0-4.0-1.17,198,1,2025-05-05T20:11:14Z,b60275e29fe2361ab97ac0ac217840d7,"Mozilla/5.0 (Macintosh; Intel Mac OS X 10_15_7) AppleWebKit/605.1.15 (KHTML, like Gecko) Version/14.1.1 Safari/605.1.15",Macintosh,Safari,14.1.1,OS X,10_15_7,https://5puzkbbxv1.cognition.run/?sona_id=47021,en-us,dg0gmtwhll230os,22,"[""White""]",No,Female,NA,No,608707,NA,7545,NA,"{""product_choice"":""A""}",choice,ct,binary,attraction,NA,televisions,null,null,null,null,null,null,2,60,50,null,50,60,null,Screen size,Average lifespan,NA,NA
NA,NA,NA,NA,NA,choice_trial_setup,html-keyboard-response,40,338416,0.0-4.0-0.18,198,1,2025-05-05T20:11:14Z,b60275e29fe2361ab97ac0ac217840d7,"Mozilla/5.0 (Macintosh; Intel Mac OS X 10_15_7) AppleWebKit/605.1.15 (KHTML, like Gecko) Version/14.1.1 Safari/605.1.15",Macintosh,Safari,14.1.1,OS X,10_15_7,https://5puzkbbxv1.cognition.run/?sona_id=47021,en-us,dg0gmtwhll230os,22,"[""White""]",No,Female,NA,No,608707,NA,null,<p></p>,null,choice,wb,binary,catch,null,microwave ovens,70,55,30,45,null,null,2,NA,NA,NA,NA,NA,NA,NA,NA,NA,NA
NA,NA,NA,NA,NA,choice_trial,survey-html-form,41,346511,0.0-4.0-1.18,198,1,2025-05-05T20:11:14Z,b60275e29fe2361ab97ac0ac217840d7,"Mozilla/5.0 (Macintosh; Intel Mac OS X 10_15_7) AppleWebKit/605.1.15 (KHTML, like Gecko) Version/14.1.1 Safari/605.1.15",Macintosh,Safari,14.1.1,OS X,10_15_7,https://5puzkbbxv1.cognition.run/?sona_id=47021,en-us,dg0gmtwhll230os,22,"[""White""]",No,Female,NA,No,608707,NA,8089,NA,"{""product_choice"":""B""}",choice,wb,binary,catch,null,microwave ovens,70,55,30,45,null,null,2,null,null,null,null,null,null,Warranty,Cooking power,NA,NA
NA,NA,NA,NA,NA,choice_trial_setup,html-keyboard-response,42,346816,0.0-4.0-0.19,198,1,2025-05-05T20:11:14Z,b60275e29fe2361ab97ac0ac217840d7,"Mozilla/5.0 (Macintosh; Intel Mac OS X 10_15_7) AppleWebKit/605.1.15 (KHTML, like Gecko) Version/14.1.1 Safari/605.1.15",Macintosh,Safari,14.1.1,OS X,10_15_7,https://5puzkbbxv1.cognition.run/?sona_id=47021,en-us,dg0gmtwhll230os,22,"[""White""]",No,Female,NA,No,608707,NA,null,<p></p>,null,choice,ct,binary,repulsion,2,microwave ovens,null,null,null,null,null,null,2,NA,NA,NA,NA,NA,NA,NA,NA,NA,NA
NA,NA,NA,NA,NA,choice_trial,survey-html-form,43,352506,0.0-4.0-1.19,198,1,2025-05-05T20:11:14Z,b60275e29fe2361ab97ac0ac217840d7,"Mozilla/5.0 (Macintosh; Intel Mac OS X 10_15_7) AppleWebKit/605.1.15 (KHTML, like Gecko) Version/14.1.1 Safari/605.1.15",Macintosh,Safari,14.1.1,OS X,10_15_7,https://5puzkbbxv1.cognition.run/?sona_id=47021,en-us,dg0gmtwhll230os,22,"[""White""]",No,Female,NA,No,608707,NA,5684,NA,"{""product_choice"":""A""}",choice,ct,binary,repulsion,2,microwave ovens,null,null,null,null,null,null,2,30,40,null,100,90,null,Warranty,Cooking power,NA,NA
NA,NA,NA,NA,NA,choice_trial_setup,html-keyboard-response,44,352811,0.0-4.0-0.20,198,1,2025-05-05T20:11:14Z,b60275e29fe2361ab97ac0ac217840d7,"Mozilla/5.0 (Macintosh; Intel Mac OS X 10_15_7) AppleWebKit/605.1.15 (KHTML, like Gecko) Version/14.1.1 Safari/605.1.15",Macintosh,Safari,14.1.1,OS X,10_15_7,https://5puzkbbxv1.cognition.run/?sona_id=47021,en-us,dg0gmtwhll230os,22,"[""White""]",No,Female,NA,No,608707,NA,null,<p></p>,null,choice,dtc,trinary,repulsion_B,1,televisions,null,null,null,null,null,null,1,NA,NA,NA,NA,NA,NA,NA,NA,NA,NA
NA,NA,NA,NA,NA,choice_trial,survey-html-form,45,371911,0.0-4.0-1.20,198,1,2025-05-05T20:11:14Z,b60275e29fe2361ab97ac0ac217840d7,"Mozilla/5.0 (Macintosh; Intel Mac OS X 10_15_7) AppleWebKit/605.1.15 (KHTML, like Gecko) Version/14.1.1 Safari/605.1.15",Macintosh,Safari,14.1.1,OS X,10_15_7,https://5puzkbbxv1.cognition.run/?sona_id=47021,en-us,dg0gmtwhll230os,22,"[""White""]",No,Female,NA,No,608707,NA,19093,NA,"{""product_choice"":""B""}",choice,dtc,trinary,repulsion_B,1,televisions,null,null,null,null,null,null,1,90,100,80,40,30,40,Screen size,Average lifespan,NA,NA
NA,NA,NA,NA,NA,choice_trial_setup,html-keyboard-response,46,372216,0.0-4.0-0.21,198,1,2025-05-05T20:11:14Z,b60275e29fe2361ab97ac0ac217840d7,"Mozilla/5.0 (Macintosh; Intel Mac OS X 10_15_7) AppleWebKit/605.1.15 (KHTML, like Gecko) Version/14.1.1 Safari/605.1.15",Macintosh,Safari,14.1.1,OS X,10_15_7,https://5puzkbbxv1.cognition.run/?sona_id=47021,en-us,dg0gmtwhll230os,22,"[""White""]",No,Female,NA,No,608707,NA,null,<p></p>,null,choice,cdt,trinary,repulsion_B,2,televisions,null,null,null,null,null,null,1,NA,NA,NA,NA,NA,NA,NA,NA,NA,NA
NA,NA,NA,NA,NA,choice_trial,survey-html-form,47,377961,0.0-4.0-1.21,198,1,2025-05-05T20:11:14Z,b60275e29fe2361ab97ac0ac217840d7,"Mozilla/5.0 (Macintosh; Intel Mac OS X 10_15_7) AppleWebKit/605.1.15 (KHTML, like Gecko) Version/14.1.1 Safari/605.1.15",Macintosh,Safari,14.1.1,OS X,10_15_7,https://5puzkbbxv1.cognition.run/?sona_id=47021,en-us,dg0gmtwhll230os,22,"[""White""]",No,Female,NA,No,608707,NA,5739,NA,"{""product_choice"":""A""}",choice,cdt,trinary,repulsion_B,2,televisions,null,null,null,null,null,null,1,40,30,40,90,100,80,Screen size,Average lifespan,NA,NA
NA,NA,NA,NA,NA,choice_trial_setup,html-keyboard-response,48,378267,0.0-4.0-0.22,198,1,2025-05-05T20:11:14Z,b60275e29fe2361ab97ac0ac217840d7,"Mozilla/5.0 (Macintosh; Intel Mac OS X 10_15_7) AppleWebKit/605.1.15 (KHTML, like Gecko) Version/14.1.1 Safari/605.1.15",Macintosh,Safari,14.1.1,OS X,10_15_7,https://5puzkbbxv1.cognition.run/?sona_id=47021,en-us,dg0gmtwhll230os,22,"[""White""]",No,Female,NA,No,608707,NA,null,<p></p>,null,choice,tcd,trinary,attraction,2,laptops,null,null,null,null,null,null,2,NA,NA,NA,NA,NA,NA,NA,NA,NA,NA
NA,NA,NA,NA,NA,choice_trial,survey-html-form,49,384482,0.0-4.0-1.22,198,1,2025-05-05T20:11:14Z,b60275e29fe2361ab97ac0ac217840d7,"Mozilla/5.0 (Macintosh; Intel Mac OS X 10_15_7) AppleWebKit/605.1.15 (KHTML, like Gecko) Version/14.1.1 Safari/605.1.15",Macintosh,Safari,14.1.1,OS X,10_15_7,https://5puzkbbxv1.cognition.run/?sona_id=47021,en-us,dg0gmtwhll230os,22,"[""White""]",No,Female,NA,No,608707,NA,6208,NA,"{""product_choice"":""A""}",choice,tcd,trinary,attraction,2,laptops,null,null,null,null,null,null,2,50,60,40,60,50,60,Processing speed,Memory (RAM),NA,NA
NA,NA,NA,NA,NA,choice_trial_setup,html-keyboard-response,50,384792,0.0-4.0-0.23,198,1,2025-05-05T20:11:14Z,b60275e29fe2361ab97ac0ac217840d7,"Mozilla/5.0 (Macintosh; Intel Mac OS X 10_15_7) AppleWebKit/605.1.15 (KHTML, like Gecko) Version/14.1.1 Safari/605.1.15",Macintosh,Safari,14.1.1,OS X,10_15_7,https://5puzkbbxv1.cognition.run/?sona_id=47021,en-us,dg0gmtwhll230os,22,"[""White""]",No,Female,NA,No,608707,NA,null,<p></p>,null,choice,cdt,trinary,repulsion_A,2,washing machines,null,null,null,null,null,null,1,NA,NA,NA,NA,NA,NA,NA,NA,NA,NA
NA,NA,NA,NA,NA,choice_trial,survey-html-form,51,398080,0.0-4.0-1.23,198,1,2025-05-05T20:11:14Z,b60275e29fe2361ab97ac0ac217840d7,"Mozilla/5.0 (Macintosh; Intel Mac OS X 10_15_7) AppleWebKit/605.1.15 (KHTML, like Gecko) Version/14.1.1 Safari/605.1.15",Macintosh,Safari,14.1.1,OS X,10_15_7,https://5puzkbbxv1.cognition.run/?sona_id=47021,en-us,dg0gmtwhll230os,22,"[""White""]",No,Female,NA,No,608707,NA,13284,NA,"{""product_choice"":""A""}",choice,cdt,trinary,repulsion_A,2,washing machines,null,null,null,null,null,null,1,30,40,20,100,90,100,Average lifespan,Energy savings,NA,NA
NA,NA,NA,NA,NA,choice_trial_setup,html-keyboard-response,52,398391,0.0-4.0-0.24,198,1,2025-05-05T20:11:14Z,b60275e29fe2361ab97ac0ac217840d7,"Mozilla/5.0 (Macintosh; Intel Mac OS X 10_15_7) AppleWebKit/605.1.15 (KHTML, like Gecko) Version/14.1.1 Safari/605.1.15",Macintosh,Safari,14.1.1,OS X,10_15_7,https://5puzkbbxv1.cognition.run/?sona_id=47021,en-us,dg0gmtwhll230os,22,"[""White""]",No,Female,NA,No,608707,NA,null,<p></p>,null,choice,bww,trinary,catch,null,televisions,80,70,35,40,15,30,2,NA,NA,NA,NA,NA,NA,NA,NA,NA,NA
NA,NA,NA,NA,NA,choice_trial,survey-html-form,53,406687,0.0-4.0-1.24,198,1,2025-05-05T20:11:14Z,b60275e29fe2361ab97ac0ac217840d7,"Mozilla/5.0 (Macintosh; Intel Mac OS X 10_15_7) AppleWebKit/605.1.15 (KHTML, like Gecko) Version/14.1.1 Safari/605.1.15",Macintosh,Safari,14.1.1,OS X,10_15_7,https://5puzkbbxv1.cognition.run/?sona_id=47021,en-us,dg0gmtwhll230os,22,"[""White""]",No,Female,NA,No,608707,NA,8287,NA,"{""product_choice"":""A""}",choice,bww,trinary,catch,null,televisions,80,70,35,40,15,30,2,null,null,null,null,null,null,Screen size,Average lifespan,NA,NA
NA,NA,NA,NA,NA,choice_trial_setup,html-keyboard-response,54,406992,0.0-4.0-0.25,198,1,2025-05-05T20:11:14Z,b60275e29fe2361ab97ac0ac217840d7,"Mozilla/5.0 (Macintosh; Intel Mac OS X 10_15_7) AppleWebKit/605.1.15 (KHTML, like Gecko) Version/14.1.1 Safari/605.1.15",Macintosh,Safari,14.1.1,OS X,10_15_7,https://5puzkbbxv1.cognition.run/?sona_id=47021,en-us,dg0gmtwhll230os,22,"[""White""]",No,Female,NA,No,608707,NA,null,<p></p>,null,choice,tcd,trinary,attraction,1,microwave ovens,null,null,null,null,null,null,2,NA,NA,NA,NA,NA,NA,NA,NA,NA,NA
NA,NA,NA,NA,NA,choice_trial,survey-html-form,55,421418,0.0-4.0-1.25,198,1,2025-05-05T20:11:14Z,b60275e29fe2361ab97ac0ac217840d7,"Mozilla/5.0 (Macintosh; Intel Mac OS X 10_15_7) AppleWebKit/605.1.15 (KHTML, like Gecko) Version/14.1.1 Safari/605.1.15",Macintosh,Safari,14.1.1,OS X,10_15_7,https://5puzkbbxv1.cognition.run/?sona_id=47021,en-us,dg0gmtwhll230os,22,"[""White""]",No,Female,NA,No,608707,NA,14419,NA,"{""product_choice"":""B""}",choice,tcd,trinary,attraction,1,microwave ovens,null,null,null,null,null,null,2,60,50,60,50,60,40,Warranty,Cooking power,NA,NA
NA,NA,NA,NA,NA,choice_trial_setup,html-keyboard-response,56,421729,0.0-4.0-0.26,198,1,2025-05-05T20:11:14Z,b60275e29fe2361ab97ac0ac217840d7,"Mozilla/5.0 (Macintosh; Intel Mac OS X 10_15_7) AppleWebKit/605.1.15 (KHTML, like Gecko) Version/14.1.1 Safari/605.1.15",Macintosh,Safari,14.1.1,OS X,10_15_7,https://5puzkbbxv1.cognition.run/?sona_id=47021,en-us,dg0gmtwhll230os,22,"[""White""]",No,Female,NA,No,608707,NA,null,<p></p>,null,choice,dtc,trinary,attraction,1,laptops,null,null,null,null,null,null,2,NA,NA,NA,NA,NA,NA,NA,NA,NA,NA
NA,NA,NA,NA,NA,choice_trial,survey-html-form,57,425883,0.0-4.0-1.26,198,1,2025-05-05T20:11:14Z,b60275e29fe2361ab97ac0ac217840d7,"Mozilla/5.0 (Macintosh; Intel Mac OS X 10_15_7) AppleWebKit/605.1.15 (KHTML, like Gecko) Version/14.1.1 Safari/605.1.15",Macintosh,Safari,14.1.1,OS X,10_15_7,https://5puzkbbxv1.cognition.run/?sona_id=47021,en-us,dg0gmtwhll230os,22,"[""White""]",No,Female,NA,No,608707,NA,4149,NA,"{""product_choice"":""C""}",choice,dtc,trinary,attraction,1,laptops,null,null,null,null,null,null,2,60,50,60,50,60,40,Processing speed,Memory (RAM),NA,NA
NA,NA,NA,NA,NA,choice_trial_setup,html-keyboard-response,58,426188,0.0-4.0-0.27,198,1,2025-05-05T20:11:14Z,b60275e29fe2361ab97ac0ac217840d7,"Mozilla/5.0 (Macintosh; Intel Mac OS X 10_15_7) AppleWebKit/605.1.15 (KHTML, like Gecko) Version/14.1.1 Safari/605.1.15",Macintosh,Safari,14.1.1,OS X,10_15_7,https://5puzkbbxv1.cognition.run/?sona_id=47021,en-us,dg0gmtwhll230os,22,"[""White""]",No,Female,NA,No,608707,NA,null,<p></p>,null,choice,tdc,trinary,attraction,2,washing machines,null,null,null,null,null,null,1,NA,NA,NA,NA,NA,NA,NA,NA,NA,NA
NA,NA,NA,NA,NA,choice_trial,survey-html-form,59,431298,0.0-4.0-1.27,198,1,2025-05-05T20:11:14Z,b60275e29fe2361ab97ac0ac217840d7,"Mozilla/5.0 (Macintosh; Intel Mac OS X 10_15_7) AppleWebKit/605.1.15 (KHTML, like Gecko) Version/14.1.1 Safari/605.1.15",Macintosh,Safari,14.1.1,OS X,10_15_7,https://5puzkbbxv1.cognition.run/?sona_id=47021,en-us,dg0gmtwhll230os,22,"[""White""]",No,Female,NA,No,608707,NA,5102,NA,"{""product_choice"":""C""}",choice,tdc,trinary,attraction,2,washing machines,null,null,null,null,null,null,1,50,60,40,60,50,60,Average lifespan,Energy savings,NA,NA
NA,NA,NA,NA,NA,choice_trial_setup,html-keyboard-response,60,431603,0.0-4.0-0.28,198,1,2025-05-05T20:11:14Z,b60275e29fe2361ab97ac0ac217840d7,"Mozilla/5.0 (Macintosh; Intel Mac OS X 10_15_7) AppleWebKit/605.1.15 (KHTML, like Gecko) Version/14.1.1 Safari/605.1.15",Macintosh,Safari,14.1.1,OS X,10_15_7,https://5puzkbbxv1.cognition.run/?sona_id=47021,en-us,dg0gmtwhll230os,22,"[""White""]",No,Female,NA,No,608707,NA,null,<p></p>,null,choice,ctd,trinary,repulsion_A,1,televisions,null,null,null,null,null,null,2,NA,NA,NA,NA,NA,NA,NA,NA,NA,NA
NA,NA,NA,NA,NA,choice_trial,survey-html-form,61,437717,0.0-4.0-1.28,198,1,2025-05-05T20:11:14Z,b60275e29fe2361ab97ac0ac217840d7,"Mozilla/5.0 (Macintosh; Intel Mac OS X 10_15_7) AppleWebKit/605.1.15 (KHTML, like Gecko) Version/14.1.1 Safari/605.1.15",Macintosh,Safari,14.1.1,OS X,10_15_7,https://5puzkbbxv1.cognition.run/?sona_id=47021,en-us,dg0gmtwhll230os,22,"[""White""]",No,Female,NA,No,608707,NA,6105,NA,"{""product_choice"":""A""}",choice,ctd,trinary,repulsion_A,1,televisions,null,null,null,null,null,null,2,100,90,100,30,40,20,Screen size,Average lifespan,NA,NA
NA,NA,NA,NA,NA,choice_trial_setup,html-keyboard-response,62,438023,0.0-4.0-0.29,198,1,2025-05-05T20:11:14Z,b60275e29fe2361ab97ac0ac217840d7,"Mozilla/5.0 (Macintosh; Intel Mac OS X 10_15_7) AppleWebKit/605.1.15 (KHTML, like Gecko) Version/14.1.1 Safari/605.1.15",Macintosh,Safari,14.1.1,OS X,10_15_7,https://5puzkbbxv1.cognition.run/?sona_id=47021,en-us,dg0gmtwhll230os,22,"[""White""]",No,Female,NA,No,608707,NA,null,<p></p>,null,choice,ct,binary,repulsion,1,televisions,null,null,null,null,null,null,1,NA,NA,NA,NA,NA,NA,NA,NA,NA,NA
NA,NA,NA,NA,NA,choice_trial,survey-html-form,63,444783,0.0-4.0-1.29,198,1,2025-05-05T20:11:14Z,b60275e29fe2361ab97ac0ac217840d7,"Mozilla/5.0 (Macintosh; Intel Mac OS X 10_15_7) AppleWebKit/605.1.15 (KHTML, like Gecko) Version/14.1.1 Safari/605.1.15",Macintosh,Safari,14.1.1,OS X,10_15_7,https://5puzkbbxv1.cognition.run/?sona_id=47021,en-us,dg0gmtwhll230os,22,"[""White""]",No,Female,NA,No,608707,NA,6751,NA,"{""product_choice"":""A""}",choice,ct,binary,repulsion,1,televisions,null,null,null,null,null,null,1,100,90,null,30,40,null,Screen size,Average lifespan,NA,NA
NA,NA,NA,NA,NA,choice_trial_setup,html-keyboard-response,64,445088,0.0-4.0-0.30,198,1,2025-05-05T20:11:14Z,b60275e29fe2361ab97ac0ac217840d7,"Mozilla/5.0 (Macintosh; Intel Mac OS X 10_15_7) AppleWebKit/605.1.15 (KHTML, like Gecko) Version/14.1.1 Safari/605.1.15",Macintosh,Safari,14.1.1,OS X,10_15_7,https://5puzkbbxv1.cognition.run/?sona_id=47021,en-us,dg0gmtwhll230os,22,"[""White""]",No,Female,NA,No,608707,NA,null,<p></p>,null,choice,dtc,trinary,repulsion_A,2,laptops,null,null,null,null,null,null,2,NA,NA,NA,NA,NA,NA,NA,NA,NA,NA
NA,NA,NA,NA,NA,choice_trial,survey-html-form,65,450638,0.0-4.0-1.30,198,1,2025-05-05T20:11:14Z,b60275e29fe2361ab97ac0ac217840d7,"Mozilla/5.0 (Macintosh; Intel Mac OS X 10_15_7) AppleWebKit/605.1.15 (KHTML, like Gecko) Version/14.1.1 Safari/605.1.15",Macintosh,Safari,14.1.1,OS X,10_15_7,https://5puzkbbxv1.cognition.run/?sona_id=47021,en-us,dg0gmtwhll230os,22,"[""White""]",No,Female,NA,No,608707,NA,5542,NA,"{""product_choice"":""C""}",choice,dtc,trinary,repulsion_A,2,laptops,null,null,null,null,null,null,2,30,40,20,100,90,100,Processing speed,Memory (RAM),NA,NA
NA,NA,NA,NA,NA,choice_trial_setup,html-keyboard-response,66,450945,0.0-4.0-0.31,198,1,2025-05-05T20:11:14Z,b60275e29fe2361ab97ac0ac217840d7,"Mozilla/5.0 (Macintosh; Intel Mac OS X 10_15_7) AppleWebKit/605.1.15 (KHTML, like Gecko) Version/14.1.1 Safari/605.1.15",Macintosh,Safari,14.1.1,OS X,10_15_7,https://5puzkbbxv1.cognition.run/?sona_id=47021,en-us,dg0gmtwhll230os,22,"[""White""]",No,Female,NA,No,608707,NA,null,<p></p>,null,choice,ct,binary,repulsion,1,microwave ovens,null,null,null,null,null,null,1,NA,NA,NA,NA,NA,NA,NA,NA,NA,NA
NA,NA,NA,NA,NA,choice_trial,survey-html-form,67,457674,0.0-4.0-1.31,198,1,2025-05-05T20:11:14Z,b60275e29fe2361ab97ac0ac217840d7,"Mozilla/5.0 (Macintosh; Intel Mac OS X 10_15_7) AppleWebKit/605.1.15 (KHTML, like Gecko) Version/14.1.1 Safari/605.1.15",Macintosh,Safari,14.1.1,OS X,10_15_7,https://5puzkbbxv1.cognition.run/?sona_id=47021,en-us,dg0gmtwhll230os,22,"[""White""]",No,Female,NA,No,608707,NA,6720,NA,"{""product_choice"":""A""}",choice,ct,binary,repulsion,1,microwave ovens,null,null,null,null,null,null,1,100,90,null,30,40,null,Warranty,Cooking power,NA,NA
NA,NA,NA,NA,NA,choice_trial_setup,html-keyboard-response,68,457980,0.0-4.0-0.32,198,1,2025-05-05T20:11:14Z,b60275e29fe2361ab97ac0ac217840d7,"Mozilla/5.0 (Macintosh; Intel Mac OS X 10_15_7) AppleWebKit/605.1.15 (KHTML, like Gecko) Version/14.1.1 Safari/605.1.15",Macintosh,Safari,14.1.1,OS X,10_15_7,https://5puzkbbxv1.cognition.run/?sona_id=47021,en-us,dg0gmtwhll230os,22,"[""White""]",No,Female,NA,No,608707,NA,null,<p></p>,null,choice,bw,binary,catch,null,televisions,75,65,30,45,null,null,1,NA,NA,NA,NA,NA,NA,NA,NA,NA,NA
NA,NA,NA,NA,NA,choice_trial,survey-html-form,69,464011,0.0-4.0-1.32,198,1,2025-05-05T20:11:14Z,b60275e29fe2361ab97ac0ac217840d7,"Mozilla/5.0 (Macintosh; Intel Mac OS X 10_15_7) AppleWebKit/605.1.15 (KHTML, like Gecko) Version/14.1.1 Safari/605.1.15",Macintosh,Safari,14.1.1,OS X,10_15_7,https://5puzkbbxv1.cognition.run/?sona_id=47021,en-us,dg0gmtwhll230os,22,"[""White""]",No,Female,NA,No,608707,NA,6021,NA,"{""product_choice"":""A""}",choice,bw,binary,catch,null,televisions,75,65,30,45,null,null,1,null,null,null,null,null,null,Screen size,Average lifespan,NA,NA
NA,NA,NA,NA,NA,choice_trial_setup,html-keyboard-response,70,464318,0.0-4.0-0.33,198,1,2025-05-05T20:11:14Z,b60275e29fe2361ab97ac0ac217840d7,"Mozilla/5.0 (Macintosh; Intel Mac OS X 10_15_7) AppleWebKit/605.1.15 (KHTML, like Gecko) Version/14.1.1 Safari/605.1.15",Macintosh,Safari,14.1.1,OS X,10_15_7,https://5puzkbbxv1.cognition.run/?sona_id=47021,en-us,dg0gmtwhll230os,22,"[""White""]",No,Female,NA,No,608707,NA,null,<p></p>,null,choice,ctd,trinary,repulsion_A,2,microwave ovens,null,null,null,null,null,null,2,NA,NA,NA,NA,NA,NA,NA,NA,NA,NA
NA,NA,NA,NA,NA,choice_trial,survey-html-form,71,470957,0.0-4.0-1.33,198,1,2025-05-05T20:11:14Z,b60275e29fe2361ab97ac0ac217840d7,"Mozilla/5.0 (Macintosh; Intel Mac OS X 10_15_7) AppleWebKit/605.1.15 (KHTML, like Gecko) Version/14.1.1 Safari/605.1.15",Macintosh,Safari,14.1.1,OS X,10_15_7,https://5puzkbbxv1.cognition.run/?sona_id=47021,en-us,dg0gmtwhll230os,22,"[""White""]",No,Female,NA,No,608707,NA,6631,NA,"{""product_choice"":""B""}",choice,ctd,trinary,repulsion_A,2,microwave ovens,null,null,null,null,null,null,2,30,40,20,100,90,100,Warranty,Cooking power,NA,NA
NA,NA,NA,NA,NA,choice_trial_setup,html-keyboard-response,72,471265,0.0-4.0-0.34,198,1,2025-05-05T20:11:14Z,b60275e29fe2361ab97ac0ac217840d7,"Mozilla/5.0 (Macintosh; Intel Mac OS X 10_15_7) AppleWebKit/605.1.15 (KHTML, like Gecko) Version/14.1.1 Safari/605.1.15",Macintosh,Safari,14.1.1,OS X,10_15_7,https://5puzkbbxv1.cognition.run/?sona_id=47021,en-us,dg0gmtwhll230os,22,"[""White""]",No,Female,NA,No,608707,NA,null,<p></p>,null,choice,tc,binary,repulsion,1,washing machines,null,null,null,null,null,null,1,NA,NA,NA,NA,NA,NA,NA,NA,NA,NA
NA,NA,NA,NA,NA,choice_trial,survey-html-form,73,490851,0.0-4.0-1.34,198,1,2025-05-05T20:11:14Z,b60275e29fe2361ab97ac0ac217840d7,"Mozilla/5.0 (Macintosh; Intel Mac OS X 10_15_7) AppleWebKit/605.1.15 (KHTML, like Gecko) Version/14.1.1 Safari/605.1.15",Macintosh,Safari,14.1.1,OS X,10_15_7,https://5puzkbbxv1.cognition.run/?sona_id=47021,en-us,dg0gmtwhll230os,22,"[""White""]",No,Female,NA,No,608707,NA,19579,NA,"{""product_choice"":""A""}",choice,tc,binary,repulsion,1,washing machines,null,null,null,null,null,null,1,100,90,null,30,40,null,Average lifespan,Energy savings,NA,NA
NA,NA,NA,NA,NA,choice_trial_setup,html-keyboard-response,74,491158,0.0-4.0-0.35,198,1,2025-05-05T20:11:14Z,b60275e29fe2361ab97ac0ac217840d7,"Mozilla/5.0 (Macintosh; Intel Mac OS X 10_15_7) AppleWebKit/605.1.15 (KHTML, like Gecko) Version/14.1.1 Safari/605.1.15",Macintosh,Safari,14.1.1,OS X,10_15_7,https://5puzkbbxv1.cognition.run/?sona_id=47021,en-us,dg0gmtwhll230os,22,"[""White""]",No,Female,NA,No,608707,NA,null,<p></p>,null,choice,bw,binary,catch,null,laptops,95,75,45,15,null,null,1,NA,NA,NA,NA,NA,NA,NA,NA,NA,NA
NA,NA,NA,NA,NA,choice_trial,survey-html-form,75,494183,0.0-4.0-1.35,198,1,2025-05-05T20:11:14Z,b60275e29fe2361ab97ac0ac217840d7,"Mozilla/5.0 (Macintosh; Intel Mac OS X 10_15_7) AppleWebKit/605.1.15 (KHTML, like Gecko) Version/14.1.1 Safari/605.1.15",Macintosh,Safari,14.1.1,OS X,10_15_7,https://5puzkbbxv1.cognition.run/?sona_id=47021,en-us,dg0gmtwhll230os,22,"[""White""]",No,Female,NA,No,608707,NA,3018,NA,"{""product_choice"":""A""}",choice,bw,binary,catch,null,laptops,95,75,45,15,null,null,1,null,null,null,null,null,null,Processing speed,Memory (RAM),NA,NA
NA,NA,NA,NA,NA,choice_trial_setup,html-keyboard-response,76,494489,0.0-4.0-0.36,198,1,2025-05-05T20:11:14Z,b60275e29fe2361ab97ac0ac217840d7,"Mozilla/5.0 (Macintosh; Intel Mac OS X 10_15_7) AppleWebKit/605.1.15 (KHTML, like Gecko) Version/14.1.1 Safari/605.1.15",Macintosh,Safari,14.1.1,OS X,10_15_7,https://5puzkbbxv1.cognition.run/?sona_id=47021,en-us,dg0gmtwhll230os,22,"[""White""]",No,Female,NA,No,608707,NA,null,<p></p>,null,choice,ct,binary,attraction,NA,laptops,null,null,null,null,null,null,1,NA,NA,NA,NA,NA,NA,NA,NA,NA,NA
NA,NA,NA,NA,NA,choice_trial,survey-html-form,77,497715,0.0-4.0-1.36,198,1,2025-05-05T20:11:14Z,b60275e29fe2361ab97ac0ac217840d7,"Mozilla/5.0 (Macintosh; Intel Mac OS X 10_15_7) AppleWebKit/605.1.15 (KHTML, like Gecko) Version/14.1.1 Safari/605.1.15",Macintosh,Safari,14.1.1,OS X,10_15_7,https://5puzkbbxv1.cognition.run/?sona_id=47021,en-us,dg0gmtwhll230os,22,"[""White""]",No,Female,NA,No,608707,NA,3218,NA,"{""product_choice"":""B""}",choice,ct,binary,attraction,NA,laptops,null,null,null,null,null,null,1,60,50,null,50,60,null,Processing speed,Memory (RAM),NA,NA
NA,NA,NA,NA,NA,choice_trial_setup,html-keyboard-response,78,498021,0.0-4.0-0.37,198,1,2025-05-05T20:11:14Z,b60275e29fe2361ab97ac0ac217840d7,"Mozilla/5.0 (Macintosh; Intel Mac OS X 10_15_7) AppleWebKit/605.1.15 (KHTML, like Gecko) Version/14.1.1 Safari/605.1.15",Macintosh,Safari,14.1.1,OS X,10_15_7,https://5puzkbbxv1.cognition.run/?sona_id=47021,en-us,dg0gmtwhll230os,22,"[""White""]",No,Female,NA,No,608707,NA,null,<p></p>,null,choice,tdc,trinary,repulsion_B,1,washing machines,null,null,null,null,null,null,2,NA,NA,NA,NA,NA,NA,NA,NA,NA,NA
NA,NA,NA,NA,NA,choice_trial,survey-html-form,79,501638,0.0-4.0-1.37,198,1,2025-05-05T20:11:14Z,b60275e29fe2361ab97ac0ac217840d7,"Mozilla/5.0 (Macintosh; Intel Mac OS X 10_15_7) AppleWebKit/605.1.15 (KHTML, like Gecko) Version/14.1.1 Safari/605.1.15",Macintosh,Safari,14.1.1,OS X,10_15_7,https://5puzkbbxv1.cognition.run/?sona_id=47021,en-us,dg0gmtwhll230os,22,"[""White""]",No,Female,NA,No,608707,NA,3608,NA,"{""product_choice"":""A""}",choice,tdc,trinary,repulsion_B,1,washing machines,null,null,null,null,null,null,2,90,100,80,40,30,40,Average lifespan,Energy savings,NA,NA
NA,NA,NA,NA,NA,choice_trial_setup,html-keyboard-response,80,501944,0.0-4.0-0.38,198,1,2025-05-05T20:11:14Z,b60275e29fe2361ab97ac0ac217840d7,"Mozilla/5.0 (Macintosh; Intel Mac OS X 10_15_7) AppleWebKit/605.1.15 (KHTML, like Gecko) Version/14.1.1 Safari/605.1.15",Macintosh,Safari,14.1.1,OS X,10_15_7,https://5puzkbbxv1.cognition.run/?sona_id=47021,en-us,dg0gmtwhll230os,22,"[""White""]",No,Female,NA,No,608707,NA,null,<p></p>,null,choice,ct,binary,repulsion,2,televisions,null,null,null,null,null,null,1,NA,NA,NA,NA,NA,NA,NA,NA,NA,NA
NA,NA,NA,NA,NA,choice_trial,survey-html-form,81,507986,0.0-4.0-1.38,198,1,2025-05-05T20:11:14Z,b60275e29fe2361ab97ac0ac217840d7,"Mozilla/5.0 (Macintosh; Intel Mac OS X 10_15_7) AppleWebKit/605.1.15 (KHTML, like Gecko) Version/14.1.1 Safari/605.1.15",Macintosh,Safari,14.1.1,OS X,10_15_7,https://5puzkbbxv1.cognition.run/?sona_id=47021,en-us,dg0gmtwhll230os,22,"[""White""]",No,Female,NA,No,608707,NA,6033,NA,"{""product_choice"":""B""}",choice,ct,binary,repulsion,2,televisions,null,null,null,null,null,null,1,30,40,null,100,90,null,Screen size,Average lifespan,NA,NA
NA,NA,NA,NA,NA,choice_trial_setup,html-keyboard-response,82,508292,0.0-4.0-0.39,198,1,2025-05-05T20:11:14Z,b60275e29fe2361ab97ac0ac217840d7,"Mozilla/5.0 (Macintosh; Intel Mac OS X 10_15_7) AppleWebKit/605.1.15 (KHTML, like Gecko) Version/14.1.1 Safari/605.1.15",Macintosh,Safari,14.1.1,OS X,10_15_7,https://5puzkbbxv1.cognition.run/?sona_id=47021,en-us,dg0gmtwhll230os,22,"[""White""]",No,Female,NA,No,608707,NA,null,<p></p>,null,choice,tcd,trinary,repulsion_B,2,washing machines,null,null,null,null,null,null,2,NA,NA,NA,NA,NA,NA,NA,NA,NA,NA
NA,NA,NA,NA,NA,choice_trial,survey-html-form,83,514395,0.0-4.0-1.39,198,1,2025-05-05T20:11:14Z,b60275e29fe2361ab97ac0ac217840d7,"Mozilla/5.0 (Macintosh; Intel Mac OS X 10_15_7) AppleWebKit/605.1.15 (KHTML, like Gecko) Version/14.1.1 Safari/605.1.15",Macintosh,Safari,14.1.1,OS X,10_15_7,https://5puzkbbxv1.cognition.run/?sona_id=47021,en-us,dg0gmtwhll230os,22,"[""White""]",No,Female,NA,No,608707,NA,6094,NA,"{""product_choice"":""A""}",choice,tcd,trinary,repulsion_B,2,washing machines,null,null,null,null,null,null,2,40,30,40,90,100,80,Average lifespan,Energy savings,NA,NA
NA,NA,NA,NA,NA,choice_trial_setup,html-keyboard-response,84,514702,0.0-4.0-0.40,198,1,2025-05-05T20:11:14Z,b60275e29fe2361ab97ac0ac217840d7,"Mozilla/5.0 (Macintosh; Intel Mac OS X 10_15_7) AppleWebKit/605.1.15 (KHTML, like Gecko) Version/14.1.1 Safari/605.1.15",Macintosh,Safari,14.1.1,OS X,10_15_7,https://5puzkbbxv1.cognition.run/?sona_id=47021,en-us,dg0gmtwhll230os,22,"[""White""]",No,Female,NA,No,608707,NA,null,<p></p>,null,choice,ctd,trinary,repulsion_A,1,washing machines,null,null,null,null,null,null,2,NA,NA,NA,NA,NA,NA,NA,NA,NA,NA
NA,NA,NA,NA,NA,choice_trial,survey-html-form,85,518984,0.0-4.0-1.40,198,1,2025-05-05T20:11:14Z,b60275e29fe2361ab97ac0ac217840d7,"Mozilla/5.0 (Macintosh; Intel Mac OS X 10_15_7) AppleWebKit/605.1.15 (KHTML, like Gecko) Version/14.1.1 Safari/605.1.15",Macintosh,Safari,14.1.1,OS X,10_15_7,https://5puzkbbxv1.cognition.run/?sona_id=47021,en-us,dg0gmtwhll230os,22,"[""White""]",No,Female,NA,No,608707,NA,4272,NA,"{""product_choice"":""B""}",choice,ctd,trinary,repulsion_A,1,washing machines,null,null,null,null,null,null,2,100,90,100,30,40,20,Average lifespan,Energy savings,NA,NA
NA,NA,NA,NA,NA,choice_trial_setup,html-keyboard-response,86,519290,0.0-4.0-0.41,198,1,2025-05-05T20:11:14Z,b60275e29fe2361ab97ac0ac217840d7,"Mozilla/5.0 (Macintosh; Intel Mac OS X 10_15_7) AppleWebKit/605.1.15 (KHTML, like Gecko) Version/14.1.1 Safari/605.1.15",Macintosh,Safari,14.1.1,OS X,10_15_7,https://5puzkbbxv1.cognition.run/?sona_id=47021,en-us,dg0gmtwhll230os,22,"[""White""]",No,Female,NA,No,608707,NA,null,<p></p>,null,choice,wb,binary,catch,null,washing machines,80,55,45,15,null,null,2,NA,NA,NA,NA,NA,NA,NA,NA,NA,NA
NA,NA,NA,NA,NA,choice_trial,survey-html-form,87,522587,0.0-4.0-1.41,198,1,2025-05-05T20:11:14Z,b60275e29fe2361ab97ac0ac217840d7,"Mozilla/5.0 (Macintosh; Intel Mac OS X 10_15_7) AppleWebKit/605.1.15 (KHTML, like Gecko) Version/14.1.1 Safari/605.1.15",Macintosh,Safari,14.1.1,OS X,10_15_7,https://5puzkbbxv1.cognition.run/?sona_id=47021,en-us,dg0gmtwhll230os,22,"[""White""]",No,Female,NA,No,608707,NA,3288,NA,"{""product_choice"":""B""}",choice,wb,binary,catch,null,washing machines,80,55,45,15,null,null,2,null,null,null,null,null,null,Average lifespan,Energy savings,NA,NA
NA,NA,NA,NA,NA,choice_trial_setup,html-keyboard-response,88,522893,0.0-4.0-0.42,198,1,2025-05-05T20:11:14Z,b60275e29fe2361ab97ac0ac217840d7,"Mozilla/5.0 (Macintosh; Intel Mac OS X 10_15_7) AppleWebKit/605.1.15 (KHTML, like Gecko) Version/14.1.1 Safari/605.1.15",Macintosh,Safari,14.1.1,OS X,10_15_7,https://5puzkbbxv1.cognition.run/?sona_id=47021,en-us,dg0gmtwhll230os,22,"[""White""]",No,Female,NA,No,608707,NA,null,<p></p>,null,choice,cdt,trinary,attraction,1,televisions,null,null,null,null,null,null,2,NA,NA,NA,NA,NA,NA,NA,NA,NA,NA
NA,NA,NA,NA,NA,choice_trial,survey-html-form,89,528432,0.0-4.0-1.42,198,1,2025-05-05T20:11:14Z,b60275e29fe2361ab97ac0ac217840d7,"Mozilla/5.0 (Macintosh; Intel Mac OS X 10_15_7) AppleWebKit/605.1.15 (KHTML, like Gecko) Version/14.1.1 Safari/605.1.15",Macintosh,Safari,14.1.1,OS X,10_15_7,https://5puzkbbxv1.cognition.run/?sona_id=47021,en-us,dg0gmtwhll230os,22,"[""White""]",No,Female,NA,No,608707,NA,5530,NA,"{""product_choice"":""A""}",choice,cdt,trinary,attraction,1,televisions,null,null,null,null,null,null,2,60,50,60,50,60,40,Screen size,Average lifespan,NA,NA
NA,NA,NA,NA,NA,choice_trial_setup,html-keyboard-response,90,528739,0.0-4.0-0.43,198,1,2025-05-05T20:11:14Z,b60275e29fe2361ab97ac0ac217840d7,"Mozilla/5.0 (Macintosh; Intel Mac OS X 10_15_7) AppleWebKit/605.1.15 (KHTML, like Gecko) Version/14.1.1 Safari/605.1.15",Macintosh,Safari,14.1.1,OS X,10_15_7,https://5puzkbbxv1.cognition.run/?sona_id=47021,en-us,dg0gmtwhll230os,22,"[""White""]",No,Female,NA,No,608707,NA,null,<p></p>,null,choice,wbw,trinary,catch,null,microwave ovens,80,90,20,15,45,15,2,NA,NA,NA,NA,NA,NA,NA,NA,NA,NA
NA,NA,NA,NA,NA,choice_trial,survey-html-form,91,532582,0.0-4.0-1.43,198,1,2025-05-05T20:11:14Z,b60275e29fe2361ab97ac0ac217840d7,"Mozilla/5.0 (Macintosh; Intel Mac OS X 10_15_7) AppleWebKit/605.1.15 (KHTML, like Gecko) Version/14.1.1 Safari/605.1.15",Macintosh,Safari,14.1.1,OS X,10_15_7,https://5puzkbbxv1.cognition.run/?sona_id=47021,en-us,dg0gmtwhll230os,22,"[""White""]",No,Female,NA,No,608707,NA,3835,NA,"{""product_choice"":""B""}",choice,wbw,trinary,catch,null,microwave ovens,80,90,20,15,45,15,2,null,null,null,null,null,null,Warranty,Cooking power,NA,NA
NA,NA,NA,NA,NA,post_trials_message,html-button-response,92,533939,0.0-5.0,198,1,2025-05-05T20:11:14Z,b60275e29fe2361ab97ac0ac217840d7,"Mozilla/5.0 (Macintosh; Intel Mac OS X 10_15_7) AppleWebKit/605.1.15 (KHTML, like Gecko) Version/14.1.1 Safari/605.1.15",Macintosh,Safari,14.1.1,OS X,10_15_7,https://5puzkbbxv1.cognition.run/?sona_id=47021,en-us,dg0gmtwhll230os,22,"[""White""]",No,Female,NA,No,608707,NA,1349,<p> <b>Thank you for your patience!</b></p><p>  The study will be done after completing a brief form. </p>,0,NA,NA,NA,NA,NA,NA,NA,NA,NA,NA,NA,NA,NA,NA,NA,NA,NA,NA,NA,NA,NA,NA,NA
NA,NA,NA,NA,NA,survey_message,survey-text,93,552958,0.0-6.0,198,1,2025-05-05T20:11:14Z,b60275e29fe2361ab97ac0ac217840d7,"Mozilla/5.0 (Macintosh; Intel Mac OS X 10_15_7) AppleWebKit/605.1.15 (KHTML, like Gecko) Version/14.1.1 Safari/605.1.15",Macintosh,Safari,14.1.1,OS X,10_15_7,https://5puzkbbxv1.cognition.run/?sona_id=47021,en-us,dg0gmtwhll230os,22,"[""White""]",No,Female,NA,No,608707,NA,19003,NA,"{""Q0"":""usually the highest average lifespan""}",NA,NA,NA,NA,NA,NA,NA,NA,NA,NA,NA,NA,NA,NA,NA,NA,NA,NA,NA,NA,NA,usually the highest average lifespan,NA
NA,NA,NA,NA,NA,demo_age,survey-text,94,555995,0.0-7.0,198,1,2025-05-05T20:11:14Z,b60275e29fe2361ab97ac0ac217840d7,"Mozilla/5.0 (Macintosh; Intel Mac OS X 10_15_7) AppleWebKit/605.1.15 (KHTML, like Gecko) Version/14.1.1 Safari/605.1.15",Macintosh,Safari,14.1.1,OS X,10_15_7,https://5puzkbbxv1.cognition.run/?sona_id=47021,en-us,dg0gmtwhll230os,22,"[""White""]",No,Female,NA,No,608707,NA,3027,NA,"{""Q0"":""22""}",NA,NA,NA,NA,NA,NA,NA,NA,NA,NA,NA,NA,NA,NA,NA,NA,NA,NA,NA,NA,NA,NA,NA
NA,NA,NA,NA,NA,demo_race,survey-multi-select,95,559772,0.0-8.0,198,1,2025-05-05T20:11:14Z,b60275e29fe2361ab97ac0ac217840d7,"Mozilla/5.0 (Macintosh; Intel Mac OS X 10_15_7) AppleWebKit/605.1.15 (KHTML, like Gecko) Version/14.1.1 Safari/605.1.15",Macintosh,Safari,14.1.1,OS X,10_15_7,https://5puzkbbxv1.cognition.run/?sona_id=47021,en-us,dg0gmtwhll230os,22,"[""White""]",No,Female,NA,No,608707,NA,3771,NA,"{""Q0"":[""White""]}",NA,NA,NA,NA,NA,NA,NA,NA,NA,NA,NA,NA,NA,NA,NA,NA,NA,NA,NA,NA,NA,NA,[0]
NA,NA,NA,NA,NA,demo_ethnicity_gender,survey-multi-choice,96,566339,0.0-9.0,198,1,2025-05-05T20:11:14Z,b60275e29fe2361ab97ac0ac217840d7,"Mozilla/5.0 (Macintosh; Intel Mac OS X 10_15_7) AppleWebKit/605.1.15 (KHTML, like Gecko) Version/14.1.1 Safari/605.1.15",Macintosh,Safari,14.1.1,OS X,10_15_7,https://5puzkbbxv1.cognition.run/?sona_id=47021,en-us,dg0gmtwhll230os,22,"[""White""]",No,Female,NA,No,608707,NA,6559,NA,"{""Q0"":""No"",""Q1"":""Female""}",NA,NA,NA,NA,NA,NA,NA,NA,NA,NA,NA,NA,NA,NA,NA,NA,NA,NA,NA,NA,NA,NA,"[0,1]"
NA,NA,NA,NA,NA,demo_countries,survey-text,97,575429,0.0-10.0,198,1,2025-05-05T20:11:14Z,b60275e29fe2361ab97ac0ac217840d7,"Mozilla/5.0 (Macintosh; Intel Mac OS X 10_15_7) AppleWebKit/605.1.15 (KHTML, like Gecko) Version/14.1.1 Safari/605.1.15",Macintosh,Safari,14.1.1,OS X,10_15_7,https://5puzkbbxv1.cognition.run/?sona_id=47021,en-us,dg0gmtwhll230os,22,"[""White""]",No,Female,NA,No,608707,NA,9083,NA,"{""Q0"":""NA""}",NA,NA,NA,NA,NA,NA,NA,NA,NA,NA,NA,NA,NA,NA,NA,NA,NA,NA,NA,NA,NA,NA,NA
NA,NA,NA,NA,NA,demo_prev_study,survey-multi-choice,98,581148,0.0-11.0,198,1,2025-05-05T20:11:14Z,b60275e29fe2361ab97ac0ac217840d7,"Mozilla/5.0 (Macintosh; Intel Mac OS X 10_15_7) AppleWebKit/605.1.15 (KHTML, like Gecko) Version/14.1.1 Safari/605.1.15",Macintosh,Safari,14.1.1,OS X,10_15_7,https://5puzkbbxv1.cognition.run/?sona_id=47021,en-us,dg0gmtwhll230os,22,"[""White""]",No,Female,NA,No,608707,NA,5713,NA,"{""Q0"":""No""}",NA,NA,NA,NA,NA,NA,NA,NA,NA,NA,NA,NA,NA,NA,NA,NA,NA,NA,NA,NA,NA,NA,[0]
NA,NA,NA,NA,NA,post_survey_message,html-keyboard-response,99,585795,0.0-12.0,198,1,2025-05-05T20:11:14Z,b60275e29fe2361ab97ac0ac217840d7,"Mozilla/5.0 (Macintosh; Intel Mac OS X 10_15_7) AppleWebKit/605.1.15 (KHTML, like Gecko) Version/14.1.1 Safari/605.1.15",Macintosh,Safari,14.1.1,OS X,10_15_7,https://5puzkbbxv1.cognition.run/?sona_id=47021,en-us,dg0gmtwhll230os,22,"[""White""]",No,Female,NA,No,608707,NA,4639,NA,j,NA,NA,NA,NA,NA,NA,NA,NA,NA,NA,NA,NA,NA,NA,NA,NA,NA,NA,NA,NA,NA,NA,NA
NA,NA,NA,NA,NA,debrief,image-keyboard-response,100,608688,0.0-13.0,198,1,2025-05-05T20:11:14Z,b60275e29fe2361ab97ac0ac217840d7,"Mozilla/5.0 (Macintosh; Intel Mac OS X 10_15_7) AppleWebKit/605.1.15 (KHTML, like Gecko) Version/14.1.1 Safari/605.1.15",Macintosh,Safari,14.1.1,OS X,10_15_7,https://5puzkbbxv1.cognition.run/?sona_id=47021,en-us,dg0gmtwhll230os,22,"[""White""]",No,Female,NA,No,608707,NA,22878,Judg_choice_debrief.png,p,NA,NA,NA,NA,NA,NA,NA,NA,NA,NA,NA,NA,NA,NA,NA,NA,NA,NA,NA,NA,NA,NA,NA
