success,timeout,failed_images,failed_audio,failed_video,screen_id,trial_type,trial_index,time_elapsed,internal_node_id,run_id,condition,recorded_at,source_code_version,user_agent,device,browser,browser_version,platform,platform_version,referer,accept_language,ppt_id,age,race,ethnicity,gender,other_countries,prev_study,exp_duration,view_history,rt,stimulus,response,phase,order,set,effect,t_high,category,d1_best,d2_best,d1_worst1,d2_worst1,d1_worst2,d2_worst2,first_dim,d1_t,d1_c,d1_d,d2_t,d2_c,d2_d,d1_name,d2_name,strategy_response,question_order
TRUE,FALSE,[],[],[],img preload,preload,0,163,0.0-0.0,199,1,2025-05-05T20:19:39Z,b60275e29fe2361ab97ac0ac217840d7,"Mozilla/5.0 (Macintosh; Intel Mac OS X 10_15_7) AppleWebKit/537.36 (KHTML, like Gecko) Chrome/130.0.0.0 Safari/537.36",Macintosh,Chrome,130.0.0.0,OS X,10_15_7,https://5puzkbbxv1.cognition.run/?sona_id=51845,"zh-CN,zh;q=0.9",p9v6967uuf7gpvp,20,"[""Asian""]",No,Female,Hong Kong,Yes,830333.2999999523,NA,NA,NA,NA,NA,NA,NA,NA,NA,NA,NA,NA,NA,NA,NA,NA,NA,NA,NA,NA,NA,NA,NA,NA,NA,NA,NA
NA,NA,NA,NA,NA,computer_message,instructions,1,5462,0.0-1.0,199,1,2025-05-05T20:19:39Z,b60275e29fe2361ab97ac0ac217840d7,"Mozilla/5.0 (Macintosh; Intel Mac OS X 10_15_7) AppleWebKit/537.36 (KHTML, like Gecko) Chrome/130.0.0.0 Safari/537.36",Macintosh,Chrome,130.0.0.0,OS X,10_15_7,https://5puzkbbxv1.cognition.run/?sona_id=51845,"zh-CN,zh;q=0.9",p9v6967uuf7gpvp,20,"[""Asian""]",No,Female,Hong Kong,Yes,830333.2999999523,"[{""page_index"":0,""viewing_time"":5298}]",5298,NA,NA,NA,NA,NA,NA,NA,NA,NA,NA,NA,NA,NA,NA,NA,NA,NA,NA,NA,NA,NA,NA,NA,NA,NA
TRUE,NA,NA,NA,NA,NA,fullscreen,2,9135,0.0-2.0,199,1,2025-05-05T20:19:39Z,b60275e29fe2361ab97ac0ac217840d7,"Mozilla/5.0 (Macintosh; Intel Mac OS X 10_15_7) AppleWebKit/537.36 (KHTML, like Gecko) Chrome/130.0.0.0 Safari/537.36",Macintosh,Chrome,130.0.0.0,OS X,10_15_7,https://5puzkbbxv1.cognition.run/?sona_id=51845,"zh-CN,zh;q=0.9",p9v6967uuf7gpvp,20,"[""Asian""]",No,Female,Hong Kong,Yes,830333.2999999523,NA,2666,NA,NA,NA,NA,NA,NA,NA,NA,NA,NA,NA,NA,NA,NA,NA,NA,NA,NA,NA,NA,NA,NA,NA,NA,NA
NA,NA,NA,NA,NA,choice_instructions,instructions,3,44344,0.0-3.0,199,1,2025-05-05T20:19:39Z,b60275e29fe2361ab97ac0ac217840d7,"Mozilla/5.0 (Macintosh; Intel Mac OS X 10_15_7) AppleWebKit/537.36 (KHTML, like Gecko) Chrome/130.0.0.0 Safari/537.36",Macintosh,Chrome,130.0.0.0,OS X,10_15_7,https://5puzkbbxv1.cognition.run/?sona_id=51845,"zh-CN,zh;q=0.9",p9v6967uuf7gpvp,20,"[""Asian""]",No,Female,Hong Kong,Yes,830333.2999999523,"[{""page_index"":0,""viewing_time"":2242},{""page_index"":1,""viewing_time"":3785},{""page_index"":2,""viewing_time"":3613},{""page_index"":3,""viewing_time"":3525},{""page_index"":4,""viewing_time"":1253},{""page_index"":5,""viewing_time"":17994},{""page_index"":6,""viewing_time"":2797}]",35208,NA,NA,NA,NA,NA,NA,NA,NA,NA,NA,NA,NA,NA,NA,NA,NA,NA,NA,NA,NA,NA,NA,NA,NA,NA
NA,NA,NA,NA,NA,choice_trial_setup,html-keyboard-response,4,44649,0.0-4.0-0.0,199,1,2025-05-05T20:19:39Z,b60275e29fe2361ab97ac0ac217840d7,"Mozilla/5.0 (Macintosh; Intel Mac OS X 10_15_7) AppleWebKit/537.36 (KHTML, like Gecko) Chrome/130.0.0.0 Safari/537.36",Macintosh,Chrome,130.0.0.0,OS X,10_15_7,https://5puzkbbxv1.cognition.run/?sona_id=51845,"zh-CN,zh;q=0.9",p9v6967uuf7gpvp,20,"[""Asian""]",No,Female,Hong Kong,Yes,830333.2999999523,NA,null,<p></p>,null,choice,tc,binary,repulsion,1,televisions,null,null,null,null,null,null,2,NA,NA,NA,NA,NA,NA,NA,NA,NA,NA
NA,NA,NA,NA,NA,choice_trial,survey-html-form,5,51045,0.0-4.0-1.0,199,1,2025-05-05T20:19:39Z,b60275e29fe2361ab97ac0ac217840d7,"Mozilla/5.0 (Macintosh; Intel Mac OS X 10_15_7) AppleWebKit/537.36 (KHTML, like Gecko) Chrome/130.0.0.0 Safari/537.36",Macintosh,Chrome,130.0.0.0,OS X,10_15_7,https://5puzkbbxv1.cognition.run/?sona_id=51845,"zh-CN,zh;q=0.9",p9v6967uuf7gpvp,20,"[""Asian""]",No,Female,Hong Kong,Yes,830333.2999999523,NA,6389,NA,"{""product_choice"":""B""}",choice,tc,binary,repulsion,1,televisions,null,null,null,null,null,null,2,100,90,null,30,40,null,Screen size,Average lifespan,NA,NA
NA,NA,NA,NA,NA,choice_trial_setup,html-keyboard-response,6,51347,0.0-4.0-0.1,199,1,2025-05-05T20:19:39Z,b60275e29fe2361ab97ac0ac217840d7,"Mozilla/5.0 (Macintosh; Intel Mac OS X 10_15_7) AppleWebKit/537.36 (KHTML, like Gecko) Chrome/130.0.0.0 Safari/537.36",Macintosh,Chrome,130.0.0.0,OS X,10_15_7,https://5puzkbbxv1.cognition.run/?sona_id=51845,"zh-CN,zh;q=0.9",p9v6967uuf7gpvp,20,"[""Asian""]",No,Female,Hong Kong,Yes,830333.2999999523,NA,null,<p></p>,null,choice,dtc,trinary,repulsion_A,1,washing machines,null,null,null,null,null,null,1,NA,NA,NA,NA,NA,NA,NA,NA,NA,NA
NA,NA,NA,NA,NA,choice_trial,survey-html-form,7,60438,0.0-4.0-1.1,199,1,2025-05-05T20:19:39Z,b60275e29fe2361ab97ac0ac217840d7,"Mozilla/5.0 (Macintosh; Intel Mac OS X 10_15_7) AppleWebKit/537.36 (KHTML, like Gecko) Chrome/130.0.0.0 Safari/537.36",Macintosh,Chrome,130.0.0.0,OS X,10_15_7,https://5puzkbbxv1.cognition.run/?sona_id=51845,"zh-CN,zh;q=0.9",p9v6967uuf7gpvp,20,"[""Asian""]",No,Female,Hong Kong,Yes,830333.2999999523,NA,9088,NA,"{""product_choice"":""C""}",choice,dtc,trinary,repulsion_A,1,washing machines,null,null,null,null,null,null,1,100,90,100,30,40,20,Average lifespan,Energy savings,NA,NA
NA,NA,NA,NA,NA,choice_trial_setup,html-keyboard-response,8,60741,0.0-4.0-0.2,199,1,2025-05-05T20:19:39Z,b60275e29fe2361ab97ac0ac217840d7,"Mozilla/5.0 (Macintosh; Intel Mac OS X 10_15_7) AppleWebKit/537.36 (KHTML, like Gecko) Chrome/130.0.0.0 Safari/537.36",Macintosh,Chrome,130.0.0.0,OS X,10_15_7,https://5puzkbbxv1.cognition.run/?sona_id=51845,"zh-CN,zh;q=0.9",p9v6967uuf7gpvp,20,"[""Asian""]",No,Female,Hong Kong,Yes,830333.2999999523,NA,null,<p></p>,null,choice,bw,binary,catch,null,microwave ovens,50,55,50,25,null,null,1,NA,NA,NA,NA,NA,NA,NA,NA,NA,NA
NA,NA,NA,NA,NA,choice_trial,survey-html-form,9,71851,0.0-4.0-1.2,199,1,2025-05-05T20:19:39Z,b60275e29fe2361ab97ac0ac217840d7,"Mozilla/5.0 (Macintosh; Intel Mac OS X 10_15_7) AppleWebKit/537.36 (KHTML, like Gecko) Chrome/130.0.0.0 Safari/537.36",Macintosh,Chrome,130.0.0.0,OS X,10_15_7,https://5puzkbbxv1.cognition.run/?sona_id=51845,"zh-CN,zh;q=0.9",p9v6967uuf7gpvp,20,"[""Asian""]",No,Female,Hong Kong,Yes,830333.2999999523,NA,11106,NA,"{""product_choice"":""A""}",choice,bw,binary,catch,null,microwave ovens,50,55,50,25,null,null,1,null,null,null,null,null,null,Warranty,Cooking power,NA,NA
NA,NA,NA,NA,NA,choice_trial_setup,html-keyboard-response,10,72157,0.0-4.0-0.3,199,1,2025-05-05T20:19:39Z,b60275e29fe2361ab97ac0ac217840d7,"Mozilla/5.0 (Macintosh; Intel Mac OS X 10_15_7) AppleWebKit/537.36 (KHTML, like Gecko) Chrome/130.0.0.0 Safari/537.36",Macintosh,Chrome,130.0.0.0,OS X,10_15_7,https://5puzkbbxv1.cognition.run/?sona_id=51845,"zh-CN,zh;q=0.9",p9v6967uuf7gpvp,20,"[""Asian""]",No,Female,Hong Kong,Yes,830333.2999999523,NA,null,<p></p>,null,choice,ctd,trinary,repulsion_A,1,laptops,null,null,null,null,null,null,2,NA,NA,NA,NA,NA,NA,NA,NA,NA,NA
NA,NA,NA,NA,NA,choice_trial,survey-html-form,11,99799,0.0-4.0-1.3,199,1,2025-05-05T20:19:39Z,b60275e29fe2361ab97ac0ac217840d7,"Mozilla/5.0 (Macintosh; Intel Mac OS X 10_15_7) AppleWebKit/537.36 (KHTML, like Gecko) Chrome/130.0.0.0 Safari/537.36",Macintosh,Chrome,130.0.0.0,OS X,10_15_7,https://5puzkbbxv1.cognition.run/?sona_id=51845,"zh-CN,zh;q=0.9",p9v6967uuf7gpvp,20,"[""Asian""]",No,Female,Hong Kong,Yes,830333.2999999523,NA,27638,NA,"{""product_choice"":""B""}",choice,ctd,trinary,repulsion_A,1,laptops,null,null,null,null,null,null,2,100,90,100,30,40,20,Processing speed,Memory (RAM),NA,NA
NA,NA,NA,NA,NA,choice_trial_setup,html-keyboard-response,12,100105,0.0-4.0-0.4,199,1,2025-05-05T20:19:39Z,b60275e29fe2361ab97ac0ac217840d7,"Mozilla/5.0 (Macintosh; Intel Mac OS X 10_15_7) AppleWebKit/537.36 (KHTML, like Gecko) Chrome/130.0.0.0 Safari/537.36",Macintosh,Chrome,130.0.0.0,OS X,10_15_7,https://5puzkbbxv1.cognition.run/?sona_id=51845,"zh-CN,zh;q=0.9",p9v6967uuf7gpvp,20,"[""Asian""]",No,Female,Hong Kong,Yes,830333.2999999523,NA,null,<p></p>,null,choice,tc,binary,attraction,NA,microwave ovens,null,null,null,null,null,null,1,NA,NA,NA,NA,NA,NA,NA,NA,NA,NA
NA,NA,NA,NA,NA,choice_trial,survey-html-form,13,118460,0.0-4.0-1.4,199,1,2025-05-05T20:19:39Z,b60275e29fe2361ab97ac0ac217840d7,"Mozilla/5.0 (Macintosh; Intel Mac OS X 10_15_7) AppleWebKit/537.36 (KHTML, like Gecko) Chrome/130.0.0.0 Safari/537.36",Macintosh,Chrome,130.0.0.0,OS X,10_15_7,https://5puzkbbxv1.cognition.run/?sona_id=51845,"zh-CN,zh;q=0.9",p9v6967uuf7gpvp,20,"[""Asian""]",No,Female,Hong Kong,Yes,830333.2999999523,NA,18354,NA,"{""product_choice"":""B""}",choice,tc,binary,attraction,NA,microwave ovens,null,null,null,null,null,null,1,60,50,null,50,60,null,Warranty,Cooking power,NA,NA
NA,NA,NA,NA,NA,choice_trial_setup,html-keyboard-response,14,118763,0.0-4.0-0.5,199,1,2025-05-05T20:19:39Z,b60275e29fe2361ab97ac0ac217840d7,"Mozilla/5.0 (Macintosh; Intel Mac OS X 10_15_7) AppleWebKit/537.36 (KHTML, like Gecko) Chrome/130.0.0.0 Safari/537.36",Macintosh,Chrome,130.0.0.0,OS X,10_15_7,https://5puzkbbxv1.cognition.run/?sona_id=51845,"zh-CN,zh;q=0.9",p9v6967uuf7gpvp,20,"[""Asian""]",No,Female,Hong Kong,Yes,830333.2999999523,NA,null,<p></p>,null,choice,dct,trinary,repulsion_B,1,microwave ovens,null,null,null,null,null,null,2,NA,NA,NA,NA,NA,NA,NA,NA,NA,NA
NA,NA,NA,NA,NA,choice_trial,survey-html-form,15,128960,0.0-4.0-1.5,199,1,2025-05-05T20:19:39Z,b60275e29fe2361ab97ac0ac217840d7,"Mozilla/5.0 (Macintosh; Intel Mac OS X 10_15_7) AppleWebKit/537.36 (KHTML, like Gecko) Chrome/130.0.0.0 Safari/537.36",Macintosh,Chrome,130.0.0.0,OS X,10_15_7,https://5puzkbbxv1.cognition.run/?sona_id=51845,"zh-CN,zh;q=0.9",p9v6967uuf7gpvp,20,"[""Asian""]",No,Female,Hong Kong,Yes,830333.2999999523,NA,10196,NA,"{""product_choice"":""C""}",choice,dct,trinary,repulsion_B,1,microwave ovens,null,null,null,null,null,null,2,90,100,80,40,30,40,Warranty,Cooking power,NA,NA
NA,NA,NA,NA,NA,choice_trial_setup,html-keyboard-response,16,129267,0.0-4.0-0.6,199,1,2025-05-05T20:19:39Z,b60275e29fe2361ab97ac0ac217840d7,"Mozilla/5.0 (Macintosh; Intel Mac OS X 10_15_7) AppleWebKit/537.36 (KHTML, like Gecko) Chrome/130.0.0.0 Safari/537.36",Macintosh,Chrome,130.0.0.0,OS X,10_15_7,https://5puzkbbxv1.cognition.run/?sona_id=51845,"zh-CN,zh;q=0.9",p9v6967uuf7gpvp,20,"[""Asian""]",No,Female,Hong Kong,Yes,830333.2999999523,NA,null,<p></p>,null,choice,dct,trinary,attraction,2,laptops,null,null,null,null,null,null,1,NA,NA,NA,NA,NA,NA,NA,NA,NA,NA
NA,NA,NA,NA,NA,choice_trial,survey-html-form,17,144716,0.0-4.0-1.6,199,1,2025-05-05T20:19:39Z,b60275e29fe2361ab97ac0ac217840d7,"Mozilla/5.0 (Macintosh; Intel Mac OS X 10_15_7) AppleWebKit/537.36 (KHTML, like Gecko) Chrome/130.0.0.0 Safari/537.36",Macintosh,Chrome,130.0.0.0,OS X,10_15_7,https://5puzkbbxv1.cognition.run/?sona_id=51845,"zh-CN,zh;q=0.9",p9v6967uuf7gpvp,20,"[""Asian""]",No,Female,Hong Kong,Yes,830333.2999999523,NA,15446,NA,"{""product_choice"":""C""}",choice,dct,trinary,attraction,2,laptops,null,null,null,null,null,null,1,50,60,40,60,50,60,Processing speed,Memory (RAM),NA,NA
NA,NA,NA,NA,NA,choice_trial_setup,html-keyboard-response,18,145020,0.0-4.0-0.7,199,1,2025-05-05T20:19:39Z,b60275e29fe2361ab97ac0ac217840d7,"Mozilla/5.0 (Macintosh; Intel Mac OS X 10_15_7) AppleWebKit/537.36 (KHTML, like Gecko) Chrome/130.0.0.0 Safari/537.36",Macintosh,Chrome,130.0.0.0,OS X,10_15_7,https://5puzkbbxv1.cognition.run/?sona_id=51845,"zh-CN,zh;q=0.9",p9v6967uuf7gpvp,20,"[""Asian""]",No,Female,Hong Kong,Yes,830333.2999999523,NA,null,<p></p>,null,choice,dct,trinary,repulsion_A,2,televisions,null,null,null,null,null,null,2,NA,NA,NA,NA,NA,NA,NA,NA,NA,NA
NA,NA,NA,NA,NA,choice_trial,survey-html-form,19,191730,0.0-4.0-1.7,199,1,2025-05-05T20:19:39Z,b60275e29fe2361ab97ac0ac217840d7,"Mozilla/5.0 (Macintosh; Intel Mac OS X 10_15_7) AppleWebKit/537.36 (KHTML, like Gecko) Chrome/130.0.0.0 Safari/537.36",Macintosh,Chrome,130.0.0.0,OS X,10_15_7,https://5puzkbbxv1.cognition.run/?sona_id=51845,"zh-CN,zh;q=0.9",p9v6967uuf7gpvp,20,"[""Asian""]",No,Female,Hong Kong,Yes,830333.2999999523,NA,46705,NA,"{""product_choice"":""B""}",choice,dct,trinary,repulsion_A,2,televisions,null,null,null,null,null,null,2,30,40,20,100,90,100,Screen size,Average lifespan,NA,NA
NA,NA,NA,NA,NA,choice_trial_setup,html-keyboard-response,20,192032,0.0-4.0-0.8,199,1,2025-05-05T20:19:39Z,b60275e29fe2361ab97ac0ac217840d7,"Mozilla/5.0 (Macintosh; Intel Mac OS X 10_15_7) AppleWebKit/537.36 (KHTML, like Gecko) Chrome/130.0.0.0 Safari/537.36",Macintosh,Chrome,130.0.0.0,OS X,10_15_7,https://5puzkbbxv1.cognition.run/?sona_id=51845,"zh-CN,zh;q=0.9",p9v6967uuf7gpvp,20,"[""Asian""]",No,Female,Hong Kong,Yes,830333.2999999523,NA,null,<p></p>,null,choice,wbw,trinary,catch,null,televisions,70,75,15,5,45,20,1,NA,NA,NA,NA,NA,NA,NA,NA,NA,NA
NA,NA,NA,NA,NA,choice_trial,survey-html-form,21,200345,0.0-4.0-1.8,199,1,2025-05-05T20:19:39Z,b60275e29fe2361ab97ac0ac217840d7,"Mozilla/5.0 (Macintosh; Intel Mac OS X 10_15_7) AppleWebKit/537.36 (KHTML, like Gecko) Chrome/130.0.0.0 Safari/537.36",Macintosh,Chrome,130.0.0.0,OS X,10_15_7,https://5puzkbbxv1.cognition.run/?sona_id=51845,"zh-CN,zh;q=0.9",p9v6967uuf7gpvp,20,"[""Asian""]",No,Female,Hong Kong,Yes,830333.2999999523,NA,8311,NA,"{""product_choice"":""C""}",choice,wbw,trinary,catch,null,televisions,70,75,15,5,45,20,1,null,null,null,null,null,null,Screen size,Average lifespan,NA,NA
NA,NA,NA,NA,NA,choice_trial_setup,html-keyboard-response,22,200650,0.0-4.0-0.9,199,1,2025-05-05T20:19:39Z,b60275e29fe2361ab97ac0ac217840d7,"Mozilla/5.0 (Macintosh; Intel Mac OS X 10_15_7) AppleWebKit/537.36 (KHTML, like Gecko) Chrome/130.0.0.0 Safari/537.36",Macintosh,Chrome,130.0.0.0,OS X,10_15_7,https://5puzkbbxv1.cognition.run/?sona_id=51845,"zh-CN,zh;q=0.9",p9v6967uuf7gpvp,20,"[""Asian""]",No,Female,Hong Kong,Yes,830333.2999999523,NA,null,<p></p>,null,choice,tcd,trinary,repulsion_A,2,washing machines,null,null,null,null,null,null,1,NA,NA,NA,NA,NA,NA,NA,NA,NA,NA
NA,NA,NA,NA,NA,choice_trial,survey-html-form,23,227425,0.0-4.0-1.9,199,1,2025-05-05T20:19:39Z,b60275e29fe2361ab97ac0ac217840d7,"Mozilla/5.0 (Macintosh; Intel Mac OS X 10_15_7) AppleWebKit/537.36 (KHTML, like Gecko) Chrome/130.0.0.0 Safari/537.36",Macintosh,Chrome,130.0.0.0,OS X,10_15_7,https://5puzkbbxv1.cognition.run/?sona_id=51845,"zh-CN,zh;q=0.9",p9v6967uuf7gpvp,20,"[""Asian""]",No,Female,Hong Kong,Yes,830333.2999999523,NA,26771,NA,"{""product_choice"":""B""}",choice,tcd,trinary,repulsion_A,2,washing machines,null,null,null,null,null,null,1,30,40,20,100,90,100,Average lifespan,Energy savings,NA,NA
NA,NA,NA,NA,NA,choice_trial_setup,html-keyboard-response,24,227731,0.0-4.0-0.10,199,1,2025-05-05T20:19:39Z,b60275e29fe2361ab97ac0ac217840d7,"Mozilla/5.0 (Macintosh; Intel Mac OS X 10_15_7) AppleWebKit/537.36 (KHTML, like Gecko) Chrome/130.0.0.0 Safari/537.36",Macintosh,Chrome,130.0.0.0,OS X,10_15_7,https://5puzkbbxv1.cognition.run/?sona_id=51845,"zh-CN,zh;q=0.9",p9v6967uuf7gpvp,20,"[""Asian""]",No,Female,Hong Kong,Yes,830333.2999999523,NA,null,<p></p>,null,choice,tcd,trinary,repulsion_B,1,washing machines,null,null,null,null,null,null,1,NA,NA,NA,NA,NA,NA,NA,NA,NA,NA
NA,NA,NA,NA,NA,choice_trial,survey-html-form,25,233866,0.0-4.0-1.10,199,1,2025-05-05T20:19:39Z,b60275e29fe2361ab97ac0ac217840d7,"Mozilla/5.0 (Macintosh; Intel Mac OS X 10_15_7) AppleWebKit/537.36 (KHTML, like Gecko) Chrome/130.0.0.0 Safari/537.36",Macintosh,Chrome,130.0.0.0,OS X,10_15_7,https://5puzkbbxv1.cognition.run/?sona_id=51845,"zh-CN,zh;q=0.9",p9v6967uuf7gpvp,20,"[""Asian""]",No,Female,Hong Kong,Yes,830333.2999999523,NA,6131,NA,"{""product_choice"":""A""}",choice,tcd,trinary,repulsion_B,1,washing machines,null,null,null,null,null,null,1,90,100,80,40,30,40,Average lifespan,Energy savings,NA,NA
NA,NA,NA,NA,NA,choice_trial_setup,html-keyboard-response,26,234172,0.0-4.0-0.11,199,1,2025-05-05T20:19:39Z,b60275e29fe2361ab97ac0ac217840d7,"Mozilla/5.0 (Macintosh; Intel Mac OS X 10_15_7) AppleWebKit/537.36 (KHTML, like Gecko) Chrome/130.0.0.0 Safari/537.36",Macintosh,Chrome,130.0.0.0,OS X,10_15_7,https://5puzkbbxv1.cognition.run/?sona_id=51845,"zh-CN,zh;q=0.9",p9v6967uuf7gpvp,20,"[""Asian""]",No,Female,Hong Kong,Yes,830333.2999999523,NA,null,<p></p>,null,choice,dct,trinary,repulsion_B,1,laptops,null,null,null,null,null,null,2,NA,NA,NA,NA,NA,NA,NA,NA,NA,NA
NA,NA,NA,NA,NA,choice_trial,survey-html-form,27,239029,0.0-4.0-1.11,199,1,2025-05-05T20:19:39Z,b60275e29fe2361ab97ac0ac217840d7,"Mozilla/5.0 (Macintosh; Intel Mac OS X 10_15_7) AppleWebKit/537.36 (KHTML, like Gecko) Chrome/130.0.0.0 Safari/537.36",Macintosh,Chrome,130.0.0.0,OS X,10_15_7,https://5puzkbbxv1.cognition.run/?sona_id=51845,"zh-CN,zh;q=0.9",p9v6967uuf7gpvp,20,"[""Asian""]",No,Female,Hong Kong,Yes,830333.2999999523,NA,4855,NA,"{""product_choice"":""C""}",choice,dct,trinary,repulsion_B,1,laptops,null,null,null,null,null,null,2,90,100,80,40,30,40,Processing speed,Memory (RAM),NA,NA
NA,NA,NA,NA,NA,choice_trial_setup,html-keyboard-response,28,239335,0.0-4.0-0.12,199,1,2025-05-05T20:19:39Z,b60275e29fe2361ab97ac0ac217840d7,"Mozilla/5.0 (Macintosh; Intel Mac OS X 10_15_7) AppleWebKit/537.36 (KHTML, like Gecko) Chrome/130.0.0.0 Safari/537.36",Macintosh,Chrome,130.0.0.0,OS X,10_15_7,https://5puzkbbxv1.cognition.run/?sona_id=51845,"zh-CN,zh;q=0.9",p9v6967uuf7gpvp,20,"[""Asian""]",No,Female,Hong Kong,Yes,830333.2999999523,NA,null,<p></p>,null,choice,dct,trinary,repulsion_A,1,televisions,null,null,null,null,null,null,1,NA,NA,NA,NA,NA,NA,NA,NA,NA,NA
NA,NA,NA,NA,NA,choice_trial,survey-html-form,29,243297,0.0-4.0-1.12,199,1,2025-05-05T20:19:39Z,b60275e29fe2361ab97ac0ac217840d7,"Mozilla/5.0 (Macintosh; Intel Mac OS X 10_15_7) AppleWebKit/537.36 (KHTML, like Gecko) Chrome/130.0.0.0 Safari/537.36",Macintosh,Chrome,130.0.0.0,OS X,10_15_7,https://5puzkbbxv1.cognition.run/?sona_id=51845,"zh-CN,zh;q=0.9",p9v6967uuf7gpvp,20,"[""Asian""]",No,Female,Hong Kong,Yes,830333.2999999523,NA,3958,NA,"{""product_choice"":""B""}",choice,dct,trinary,repulsion_A,1,televisions,null,null,null,null,null,null,1,100,90,100,30,40,20,Screen size,Average lifespan,NA,NA
NA,NA,NA,NA,NA,choice_trial_setup,html-keyboard-response,30,243599,0.0-4.0-0.13,199,1,2025-05-05T20:19:39Z,b60275e29fe2361ab97ac0ac217840d7,"Mozilla/5.0 (Macintosh; Intel Mac OS X 10_15_7) AppleWebKit/537.36 (KHTML, like Gecko) Chrome/130.0.0.0 Safari/537.36",Macintosh,Chrome,130.0.0.0,OS X,10_15_7,https://5puzkbbxv1.cognition.run/?sona_id=51845,"zh-CN,zh;q=0.9",p9v6967uuf7gpvp,20,"[""Asian""]",No,Female,Hong Kong,Yes,830333.2999999523,NA,null,<p></p>,null,choice,tc,binary,attraction,NA,laptops,null,null,null,null,null,null,1,NA,NA,NA,NA,NA,NA,NA,NA,NA,NA
NA,NA,NA,NA,NA,choice_trial,survey-html-form,31,250465,0.0-4.0-1.13,199,1,2025-05-05T20:19:39Z,b60275e29fe2361ab97ac0ac217840d7,"Mozilla/5.0 (Macintosh; Intel Mac OS X 10_15_7) AppleWebKit/537.36 (KHTML, like Gecko) Chrome/130.0.0.0 Safari/537.36",Macintosh,Chrome,130.0.0.0,OS X,10_15_7,https://5puzkbbxv1.cognition.run/?sona_id=51845,"zh-CN,zh;q=0.9",p9v6967uuf7gpvp,20,"[""Asian""]",No,Female,Hong Kong,Yes,830333.2999999523,NA,6864,NA,"{""product_choice"":""A""}",choice,tc,binary,attraction,NA,laptops,null,null,null,null,null,null,1,60,50,null,50,60,null,Processing speed,Memory (RAM),NA,NA
NA,NA,NA,NA,NA,choice_trial_setup,html-keyboard-response,32,250767,0.0-4.0-0.14,199,1,2025-05-05T20:19:39Z,b60275e29fe2361ab97ac0ac217840d7,"Mozilla/5.0 (Macintosh; Intel Mac OS X 10_15_7) AppleWebKit/537.36 (KHTML, like Gecko) Chrome/130.0.0.0 Safari/537.36",Macintosh,Chrome,130.0.0.0,OS X,10_15_7,https://5puzkbbxv1.cognition.run/?sona_id=51845,"zh-CN,zh;q=0.9",p9v6967uuf7gpvp,20,"[""Asian""]",No,Female,Hong Kong,Yes,830333.2999999523,NA,null,<p></p>,null,choice,ctd,trinary,repulsion_A,2,microwave ovens,null,null,null,null,null,null,1,NA,NA,NA,NA,NA,NA,NA,NA,NA,NA
NA,NA,NA,NA,NA,choice_trial,survey-html-form,33,258514,0.0-4.0-1.14,199,1,2025-05-05T20:19:39Z,b60275e29fe2361ab97ac0ac217840d7,"Mozilla/5.0 (Macintosh; Intel Mac OS X 10_15_7) AppleWebKit/537.36 (KHTML, like Gecko) Chrome/130.0.0.0 Safari/537.36",Macintosh,Chrome,130.0.0.0,OS X,10_15_7,https://5puzkbbxv1.cognition.run/?sona_id=51845,"zh-CN,zh;q=0.9",p9v6967uuf7gpvp,20,"[""Asian""]",No,Female,Hong Kong,Yes,830333.2999999523,NA,7745,NA,"{""product_choice"":""A""}",choice,ctd,trinary,repulsion_A,2,microwave ovens,null,null,null,null,null,null,1,30,40,20,100,90,100,Warranty,Cooking power,NA,NA
NA,NA,NA,NA,NA,choice_trial_setup,html-keyboard-response,34,258821,0.0-4.0-0.15,199,1,2025-05-05T20:19:39Z,b60275e29fe2361ab97ac0ac217840d7,"Mozilla/5.0 (Macintosh; Intel Mac OS X 10_15_7) AppleWebKit/537.36 (KHTML, like Gecko) Chrome/130.0.0.0 Safari/537.36",Macintosh,Chrome,130.0.0.0,OS X,10_15_7,https://5puzkbbxv1.cognition.run/?sona_id=51845,"zh-CN,zh;q=0.9",p9v6967uuf7gpvp,20,"[""Asian""]",No,Female,Hong Kong,Yes,830333.2999999523,NA,null,<p></p>,null,choice,tcd,trinary,repulsion_A,1,microwave ovens,null,null,null,null,null,null,1,NA,NA,NA,NA,NA,NA,NA,NA,NA,NA
NA,NA,NA,NA,NA,choice_trial,survey-html-form,35,270243,0.0-4.0-1.15,199,1,2025-05-05T20:19:39Z,b60275e29fe2361ab97ac0ac217840d7,"Mozilla/5.0 (Macintosh; Intel Mac OS X 10_15_7) AppleWebKit/537.36 (KHTML, like Gecko) Chrome/130.0.0.0 Safari/537.36",Macintosh,Chrome,130.0.0.0,OS X,10_15_7,https://5puzkbbxv1.cognition.run/?sona_id=51845,"zh-CN,zh;q=0.9",p9v6967uuf7gpvp,20,"[""Asian""]",No,Female,Hong Kong,Yes,830333.2999999523,NA,11418,NA,"{""product_choice"":""B""}",choice,tcd,trinary,repulsion_A,1,microwave ovens,null,null,null,null,null,null,1,100,90,100,30,40,20,Warranty,Cooking power,NA,NA
NA,NA,NA,NA,NA,choice_trial_setup,html-keyboard-response,36,270548,0.0-4.0-0.16,199,1,2025-05-05T20:19:39Z,b60275e29fe2361ab97ac0ac217840d7,"Mozilla/5.0 (Macintosh; Intel Mac OS X 10_15_7) AppleWebKit/537.36 (KHTML, like Gecko) Chrome/130.0.0.0 Safari/537.36",Macintosh,Chrome,130.0.0.0,OS X,10_15_7,https://5puzkbbxv1.cognition.run/?sona_id=51845,"zh-CN,zh;q=0.9",p9v6967uuf7gpvp,20,"[""Asian""]",No,Female,Hong Kong,Yes,830333.2999999523,NA,null,<p></p>,null,choice,ct,binary,repulsion,2,laptops,null,null,null,null,null,null,2,NA,NA,NA,NA,NA,NA,NA,NA,NA,NA
NA,NA,NA,NA,NA,choice_trial,survey-html-form,37,279487,0.0-4.0-1.16,199,1,2025-05-05T20:19:39Z,b60275e29fe2361ab97ac0ac217840d7,"Mozilla/5.0 (Macintosh; Intel Mac OS X 10_15_7) AppleWebKit/537.36 (KHTML, like Gecko) Chrome/130.0.0.0 Safari/537.36",Macintosh,Chrome,130.0.0.0,OS X,10_15_7,https://5puzkbbxv1.cognition.run/?sona_id=51845,"zh-CN,zh;q=0.9",p9v6967uuf7gpvp,20,"[""Asian""]",No,Female,Hong Kong,Yes,830333.2999999523,NA,8935,NA,"{""product_choice"":""A""}",choice,ct,binary,repulsion,2,laptops,null,null,null,null,null,null,2,30,40,null,100,90,null,Processing speed,Memory (RAM),NA,NA
NA,NA,NA,NA,NA,choice_trial_setup,html-keyboard-response,38,279794,0.0-4.0-0.17,199,1,2025-05-05T20:19:39Z,b60275e29fe2361ab97ac0ac217840d7,"Mozilla/5.0 (Macintosh; Intel Mac OS X 10_15_7) AppleWebKit/537.36 (KHTML, like Gecko) Chrome/130.0.0.0 Safari/537.36",Macintosh,Chrome,130.0.0.0,OS X,10_15_7,https://5puzkbbxv1.cognition.run/?sona_id=51845,"zh-CN,zh;q=0.9",p9v6967uuf7gpvp,20,"[""Asian""]",No,Female,Hong Kong,Yes,830333.2999999523,NA,null,<p></p>,null,choice,tc,binary,repulsion,1,microwave ovens,null,null,null,null,null,null,1,NA,NA,NA,NA,NA,NA,NA,NA,NA,NA
NA,NA,NA,NA,NA,choice_trial,survey-html-form,39,287409,0.0-4.0-1.17,199,1,2025-05-05T20:19:39Z,b60275e29fe2361ab97ac0ac217840d7,"Mozilla/5.0 (Macintosh; Intel Mac OS X 10_15_7) AppleWebKit/537.36 (KHTML, like Gecko) Chrome/130.0.0.0 Safari/537.36",Macintosh,Chrome,130.0.0.0,OS X,10_15_7,https://5puzkbbxv1.cognition.run/?sona_id=51845,"zh-CN,zh;q=0.9",p9v6967uuf7gpvp,20,"[""Asian""]",No,Female,Hong Kong,Yes,830333.2999999523,NA,7612,NA,"{""product_choice"":""B""}",choice,tc,binary,repulsion,1,microwave ovens,null,null,null,null,null,null,1,100,90,null,30,40,null,Warranty,Cooking power,NA,NA
NA,NA,NA,NA,NA,choice_trial_setup,html-keyboard-response,40,287715,0.0-4.0-0.18,199,1,2025-05-05T20:19:39Z,b60275e29fe2361ab97ac0ac217840d7,"Mozilla/5.0 (Macintosh; Intel Mac OS X 10_15_7) AppleWebKit/537.36 (KHTML, like Gecko) Chrome/130.0.0.0 Safari/537.36",Macintosh,Chrome,130.0.0.0,OS X,10_15_7,https://5puzkbbxv1.cognition.run/?sona_id=51845,"zh-CN,zh;q=0.9",p9v6967uuf7gpvp,20,"[""Asian""]",No,Female,Hong Kong,Yes,830333.2999999523,NA,null,<p></p>,null,choice,dct,trinary,repulsion_B,2,televisions,null,null,null,null,null,null,2,NA,NA,NA,NA,NA,NA,NA,NA,NA,NA
NA,NA,NA,NA,NA,choice_trial,survey-html-form,41,383443,0.0-4.0-1.18,199,1,2025-05-05T20:19:39Z,b60275e29fe2361ab97ac0ac217840d7,"Mozilla/5.0 (Macintosh; Intel Mac OS X 10_15_7) AppleWebKit/537.36 (KHTML, like Gecko) Chrome/130.0.0.0 Safari/537.36",Macintosh,Chrome,130.0.0.0,OS X,10_15_7,https://5puzkbbxv1.cognition.run/?sona_id=51845,"zh-CN,zh;q=0.9",p9v6967uuf7gpvp,20,"[""Asian""]",No,Female,Hong Kong,Yes,830333.2999999523,NA,95723,NA,"{""product_choice"":""C""}",choice,dct,trinary,repulsion_B,2,televisions,null,null,null,null,null,null,2,40,30,40,90,100,80,Screen size,Average lifespan,NA,NA
NA,NA,NA,NA,NA,choice_trial_setup,html-keyboard-response,42,383747,0.0-4.0-0.19,199,1,2025-05-05T20:19:39Z,b60275e29fe2361ab97ac0ac217840d7,"Mozilla/5.0 (Macintosh; Intel Mac OS X 10_15_7) AppleWebKit/537.36 (KHTML, like Gecko) Chrome/130.0.0.0 Safari/537.36",Macintosh,Chrome,130.0.0.0,OS X,10_15_7,https://5puzkbbxv1.cognition.run/?sona_id=51845,"zh-CN,zh;q=0.9",p9v6967uuf7gpvp,20,"[""Asian""]",No,Female,Hong Kong,Yes,830333.2999999523,NA,null,<p></p>,null,choice,cdt,trinary,attraction,1,microwave ovens,null,null,null,null,null,null,2,NA,NA,NA,NA,NA,NA,NA,NA,NA,NA
NA,NA,NA,NA,NA,choice_trial,survey-html-form,43,391015,0.0-4.0-1.19,199,1,2025-05-05T20:19:39Z,b60275e29fe2361ab97ac0ac217840d7,"Mozilla/5.0 (Macintosh; Intel Mac OS X 10_15_7) AppleWebKit/537.36 (KHTML, like Gecko) Chrome/130.0.0.0 Safari/537.36",Macintosh,Chrome,130.0.0.0,OS X,10_15_7,https://5puzkbbxv1.cognition.run/?sona_id=51845,"zh-CN,zh;q=0.9",p9v6967uuf7gpvp,20,"[""Asian""]",No,Female,Hong Kong,Yes,830333.2999999523,NA,7266,NA,"{""product_choice"":""A""}",choice,cdt,trinary,attraction,1,microwave ovens,null,null,null,null,null,null,2,60,50,60,50,60,40,Warranty,Cooking power,NA,NA
NA,NA,NA,NA,NA,choice_trial_setup,html-keyboard-response,44,391316,0.0-4.0-0.20,199,1,2025-05-05T20:19:39Z,b60275e29fe2361ab97ac0ac217840d7,"Mozilla/5.0 (Macintosh; Intel Mac OS X 10_15_7) AppleWebKit/537.36 (KHTML, like Gecko) Chrome/130.0.0.0 Safari/537.36",Macintosh,Chrome,130.0.0.0,OS X,10_15_7,https://5puzkbbxv1.cognition.run/?sona_id=51845,"zh-CN,zh;q=0.9",p9v6967uuf7gpvp,20,"[""Asian""]",No,Female,Hong Kong,Yes,830333.2999999523,NA,null,<p></p>,null,choice,tdc,trinary,attraction,1,washing machines,null,null,null,null,null,null,2,NA,NA,NA,NA,NA,NA,NA,NA,NA,NA
NA,NA,NA,NA,NA,choice_trial,survey-html-form,45,396260,0.0-4.0-1.20,199,1,2025-05-05T20:19:39Z,b60275e29fe2361ab97ac0ac217840d7,"Mozilla/5.0 (Macintosh; Intel Mac OS X 10_15_7) AppleWebKit/537.36 (KHTML, like Gecko) Chrome/130.0.0.0 Safari/537.36",Macintosh,Chrome,130.0.0.0,OS X,10_15_7,https://5puzkbbxv1.cognition.run/?sona_id=51845,"zh-CN,zh;q=0.9",p9v6967uuf7gpvp,20,"[""Asian""]",No,Female,Hong Kong,Yes,830333.2999999523,NA,4943,NA,"{""product_choice"":""C""}",choice,tdc,trinary,attraction,1,washing machines,null,null,null,null,null,null,2,60,50,60,50,60,40,Average lifespan,Energy savings,NA,NA
NA,NA,NA,NA,NA,choice_trial_setup,html-keyboard-response,46,396564,0.0-4.0-0.21,199,1,2025-05-05T20:19:39Z,b60275e29fe2361ab97ac0ac217840d7,"Mozilla/5.0 (Macintosh; Intel Mac OS X 10_15_7) AppleWebKit/537.36 (KHTML, like Gecko) Chrome/130.0.0.0 Safari/537.36",Macintosh,Chrome,130.0.0.0,OS X,10_15_7,https://5puzkbbxv1.cognition.run/?sona_id=51845,"zh-CN,zh;q=0.9",p9v6967uuf7gpvp,20,"[""Asian""]",No,Female,Hong Kong,Yes,830333.2999999523,NA,null,<p></p>,null,choice,dtc,trinary,attraction,2,washing machines,null,null,null,null,null,null,2,NA,NA,NA,NA,NA,NA,NA,NA,NA,NA
NA,NA,NA,NA,NA,choice_trial,survey-html-form,47,499983,0.0-4.0-1.21,199,1,2025-05-05T20:19:39Z,b60275e29fe2361ab97ac0ac217840d7,"Mozilla/5.0 (Macintosh; Intel Mac OS X 10_15_7) AppleWebKit/537.36 (KHTML, like Gecko) Chrome/130.0.0.0 Safari/537.36",Macintosh,Chrome,130.0.0.0,OS X,10_15_7,https://5puzkbbxv1.cognition.run/?sona_id=51845,"zh-CN,zh;q=0.9",p9v6967uuf7gpvp,20,"[""Asian""]",No,Female,Hong Kong,Yes,830333.2999999523,NA,103417,NA,"{""product_choice"":""B""}",choice,dtc,trinary,attraction,2,washing machines,null,null,null,null,null,null,2,50,60,40,60,50,60,Average lifespan,Energy savings,NA,NA
NA,NA,NA,NA,NA,choice_trial_setup,html-keyboard-response,48,500290,0.0-4.0-0.22,199,1,2025-05-05T20:19:39Z,b60275e29fe2361ab97ac0ac217840d7,"Mozilla/5.0 (Macintosh; Intel Mac OS X 10_15_7) AppleWebKit/537.36 (KHTML, like Gecko) Chrome/130.0.0.0 Safari/537.36",Macintosh,Chrome,130.0.0.0,OS X,10_15_7,https://5puzkbbxv1.cognition.run/?sona_id=51845,"zh-CN,zh;q=0.9",p9v6967uuf7gpvp,20,"[""Asian""]",No,Female,Hong Kong,Yes,830333.2999999523,NA,null,<p></p>,null,choice,dtc,trinary,attraction,1,televisions,null,null,null,null,null,null,2,NA,NA,NA,NA,NA,NA,NA,NA,NA,NA
NA,NA,NA,NA,NA,choice_trial,survey-html-form,49,522786,0.0-4.0-1.22,199,1,2025-05-05T20:19:39Z,b60275e29fe2361ab97ac0ac217840d7,"Mozilla/5.0 (Macintosh; Intel Mac OS X 10_15_7) AppleWebKit/537.36 (KHTML, like Gecko) Chrome/130.0.0.0 Safari/537.36",Macintosh,Chrome,130.0.0.0,OS X,10_15_7,https://5puzkbbxv1.cognition.run/?sona_id=51845,"zh-CN,zh;q=0.9",p9v6967uuf7gpvp,20,"[""Asian""]",No,Female,Hong Kong,Yes,830333.2999999523,NA,22490,NA,"{""product_choice"":""B""}",choice,dtc,trinary,attraction,1,televisions,null,null,null,null,null,null,2,60,50,60,50,60,40,Screen size,Average lifespan,NA,NA
NA,NA,NA,NA,NA,choice_trial_setup,html-keyboard-response,50,523091,0.0-4.0-0.23,199,1,2025-05-05T20:19:39Z,b60275e29fe2361ab97ac0ac217840d7,"Mozilla/5.0 (Macintosh; Intel Mac OS X 10_15_7) AppleWebKit/537.36 (KHTML, like Gecko) Chrome/130.0.0.0 Safari/537.36",Macintosh,Chrome,130.0.0.0,OS X,10_15_7,https://5puzkbbxv1.cognition.run/?sona_id=51845,"zh-CN,zh;q=0.9",p9v6967uuf7gpvp,20,"[""Asian""]",No,Female,Hong Kong,Yes,830333.2999999523,NA,null,<p></p>,null,choice,bw,binary,catch,null,washing machines,85,85,30,30,null,null,1,NA,NA,NA,NA,NA,NA,NA,NA,NA,NA
NA,NA,NA,NA,NA,choice_trial,survey-html-form,51,544514,0.0-4.0-1.23,199,1,2025-05-05T20:19:39Z,b60275e29fe2361ab97ac0ac217840d7,"Mozilla/5.0 (Macintosh; Intel Mac OS X 10_15_7) AppleWebKit/537.36 (KHTML, like Gecko) Chrome/130.0.0.0 Safari/537.36",Macintosh,Chrome,130.0.0.0,OS X,10_15_7,https://5puzkbbxv1.cognition.run/?sona_id=51845,"zh-CN,zh;q=0.9",p9v6967uuf7gpvp,20,"[""Asian""]",No,Female,Hong Kong,Yes,830333.2999999523,NA,21420,NA,"{""product_choice"":""A""}",choice,bw,binary,catch,null,washing machines,85,85,30,30,null,null,1,null,null,null,null,null,null,Average lifespan,Energy savings,NA,NA
NA,NA,NA,NA,NA,choice_trial_setup,html-keyboard-response,52,544816,0.0-4.0-0.24,199,1,2025-05-05T20:19:39Z,b60275e29fe2361ab97ac0ac217840d7,"Mozilla/5.0 (Macintosh; Intel Mac OS X 10_15_7) AppleWebKit/537.36 (KHTML, like Gecko) Chrome/130.0.0.0 Safari/537.36",Macintosh,Chrome,130.0.0.0,OS X,10_15_7,https://5puzkbbxv1.cognition.run/?sona_id=51845,"zh-CN,zh;q=0.9",p9v6967uuf7gpvp,20,"[""Asian""]",No,Female,Hong Kong,Yes,830333.2999999523,NA,null,<p></p>,null,choice,ct,binary,repulsion,1,laptops,null,null,null,null,null,null,1,NA,NA,NA,NA,NA,NA,NA,NA,NA,NA
NA,NA,NA,NA,NA,choice_trial,survey-html-form,53,565768,0.0-4.0-1.24,199,1,2025-05-05T20:19:39Z,b60275e29fe2361ab97ac0ac217840d7,"Mozilla/5.0 (Macintosh; Intel Mac OS X 10_15_7) AppleWebKit/537.36 (KHTML, like Gecko) Chrome/130.0.0.0 Safari/537.36",Macintosh,Chrome,130.0.0.0,OS X,10_15_7,https://5puzkbbxv1.cognition.run/?sona_id=51845,"zh-CN,zh;q=0.9",p9v6967uuf7gpvp,20,"[""Asian""]",No,Female,Hong Kong,Yes,830333.2999999523,NA,20947,NA,"{""product_choice"":""A""}",choice,ct,binary,repulsion,1,laptops,null,null,null,null,null,null,1,100,90,null,30,40,null,Processing speed,Memory (RAM),NA,NA
NA,NA,NA,NA,NA,choice_trial_setup,html-keyboard-response,54,566070,0.0-4.0-0.25,199,1,2025-05-05T20:19:39Z,b60275e29fe2361ab97ac0ac217840d7,"Mozilla/5.0 (Macintosh; Intel Mac OS X 10_15_7) AppleWebKit/537.36 (KHTML, like Gecko) Chrome/130.0.0.0 Safari/537.36",Macintosh,Chrome,130.0.0.0,OS X,10_15_7,https://5puzkbbxv1.cognition.run/?sona_id=51845,"zh-CN,zh;q=0.9",p9v6967uuf7gpvp,20,"[""Asian""]",No,Female,Hong Kong,Yes,830333.2999999523,NA,null,<p></p>,null,choice,cdt,trinary,repulsion_B,2,washing machines,null,null,null,null,null,null,1,NA,NA,NA,NA,NA,NA,NA,NA,NA,NA
NA,NA,NA,NA,NA,choice_trial,survey-html-form,55,573297,0.0-4.0-1.25,199,1,2025-05-05T20:19:39Z,b60275e29fe2361ab97ac0ac217840d7,"Mozilla/5.0 (Macintosh; Intel Mac OS X 10_15_7) AppleWebKit/537.36 (KHTML, like Gecko) Chrome/130.0.0.0 Safari/537.36",Macintosh,Chrome,130.0.0.0,OS X,10_15_7,https://5puzkbbxv1.cognition.run/?sona_id=51845,"zh-CN,zh;q=0.9",p9v6967uuf7gpvp,20,"[""Asian""]",No,Female,Hong Kong,Yes,830333.2999999523,NA,7224,NA,"{""product_choice"":""C""}",choice,cdt,trinary,repulsion_B,2,washing machines,null,null,null,null,null,null,1,40,30,40,90,100,80,Average lifespan,Energy savings,NA,NA
NA,NA,NA,NA,NA,choice_trial_setup,html-keyboard-response,56,573600,0.0-4.0-0.26,199,1,2025-05-05T20:19:39Z,b60275e29fe2361ab97ac0ac217840d7,"Mozilla/5.0 (Macintosh; Intel Mac OS X 10_15_7) AppleWebKit/537.36 (KHTML, like Gecko) Chrome/130.0.0.0 Safari/537.36",Macintosh,Chrome,130.0.0.0,OS X,10_15_7,https://5puzkbbxv1.cognition.run/?sona_id=51845,"zh-CN,zh;q=0.9",p9v6967uuf7gpvp,20,"[""Asian""]",No,Female,Hong Kong,Yes,830333.2999999523,NA,null,<p></p>,null,choice,wb,binary,catch,null,laptops,95,65,45,5,null,null,2,NA,NA,NA,NA,NA,NA,NA,NA,NA,NA
NA,NA,NA,NA,NA,choice_trial,survey-html-form,57,584842,0.0-4.0-1.26,199,1,2025-05-05T20:19:39Z,b60275e29fe2361ab97ac0ac217840d7,"Mozilla/5.0 (Macintosh; Intel Mac OS X 10_15_7) AppleWebKit/537.36 (KHTML, like Gecko) Chrome/130.0.0.0 Safari/537.36",Macintosh,Chrome,130.0.0.0,OS X,10_15_7,https://5puzkbbxv1.cognition.run/?sona_id=51845,"zh-CN,zh;q=0.9",p9v6967uuf7gpvp,20,"[""Asian""]",No,Female,Hong Kong,Yes,830333.2999999523,NA,11237,NA,"{""product_choice"":""B""}",choice,wb,binary,catch,null,laptops,95,65,45,5,null,null,2,null,null,null,null,null,null,Processing speed,Memory (RAM),NA,NA
NA,NA,NA,NA,NA,choice_trial_setup,html-keyboard-response,58,585144,0.0-4.0-0.27,199,1,2025-05-05T20:19:39Z,b60275e29fe2361ab97ac0ac217840d7,"Mozilla/5.0 (Macintosh; Intel Mac OS X 10_15_7) AppleWebKit/537.36 (KHTML, like Gecko) Chrome/130.0.0.0 Safari/537.36",Macintosh,Chrome,130.0.0.0,OS X,10_15_7,https://5puzkbbxv1.cognition.run/?sona_id=51845,"zh-CN,zh;q=0.9",p9v6967uuf7gpvp,20,"[""Asian""]",No,Female,Hong Kong,Yes,830333.2999999523,NA,null,<p></p>,null,choice,bw,binary,catch,null,televisions,65,90,25,50,null,null,2,NA,NA,NA,NA,NA,NA,NA,NA,NA,NA
NA,NA,NA,NA,NA,choice_trial,survey-html-form,59,598856,0.0-4.0-1.27,199,1,2025-05-05T20:19:39Z,b60275e29fe2361ab97ac0ac217840d7,"Mozilla/5.0 (Macintosh; Intel Mac OS X 10_15_7) AppleWebKit/537.36 (KHTML, like Gecko) Chrome/130.0.0.0 Safari/537.36",Macintosh,Chrome,130.0.0.0,OS X,10_15_7,https://5puzkbbxv1.cognition.run/?sona_id=51845,"zh-CN,zh;q=0.9",p9v6967uuf7gpvp,20,"[""Asian""]",No,Female,Hong Kong,Yes,830333.2999999523,NA,13710,NA,"{""product_choice"":""A""}",choice,bw,binary,catch,null,televisions,65,90,25,50,null,null,2,null,null,null,null,null,null,Screen size,Average lifespan,NA,NA
NA,NA,NA,NA,NA,choice_trial_setup,html-keyboard-response,60,599160,0.0-4.0-0.28,199,1,2025-05-05T20:19:39Z,b60275e29fe2361ab97ac0ac217840d7,"Mozilla/5.0 (Macintosh; Intel Mac OS X 10_15_7) AppleWebKit/537.36 (KHTML, like Gecko) Chrome/130.0.0.0 Safari/537.36",Macintosh,Chrome,130.0.0.0,OS X,10_15_7,https://5puzkbbxv1.cognition.run/?sona_id=51845,"zh-CN,zh;q=0.9",p9v6967uuf7gpvp,20,"[""Asian""]",No,Female,Hong Kong,Yes,830333.2999999523,NA,null,<p></p>,null,choice,ctd,trinary,attraction,1,laptops,null,null,null,null,null,null,2,NA,NA,NA,NA,NA,NA,NA,NA,NA,NA
NA,NA,NA,NA,NA,choice_trial,survey-html-form,61,637997,0.0-4.0-1.28,199,1,2025-05-05T20:19:39Z,b60275e29fe2361ab97ac0ac217840d7,"Mozilla/5.0 (Macintosh; Intel Mac OS X 10_15_7) AppleWebKit/537.36 (KHTML, like Gecko) Chrome/130.0.0.0 Safari/537.36",Macintosh,Chrome,130.0.0.0,OS X,10_15_7,https://5puzkbbxv1.cognition.run/?sona_id=51845,"zh-CN,zh;q=0.9",p9v6967uuf7gpvp,20,"[""Asian""]",No,Female,Hong Kong,Yes,830333.2999999523,NA,38831,NA,"{""product_choice"":""B""}",choice,ctd,trinary,attraction,1,laptops,null,null,null,null,null,null,2,60,50,60,50,60,40,Processing speed,Memory (RAM),NA,NA
NA,NA,NA,NA,NA,choice_trial_setup,html-keyboard-response,62,638304,0.0-4.0-0.29,199,1,2025-05-05T20:19:39Z,b60275e29fe2361ab97ac0ac217840d7,"Mozilla/5.0 (Macintosh; Intel Mac OS X 10_15_7) AppleWebKit/537.36 (KHTML, like Gecko) Chrome/130.0.0.0 Safari/537.36",Macintosh,Chrome,130.0.0.0,OS X,10_15_7,https://5puzkbbxv1.cognition.run/?sona_id=51845,"zh-CN,zh;q=0.9",p9v6967uuf7gpvp,20,"[""Asian""]",No,Female,Hong Kong,Yes,830333.2999999523,NA,null,<p></p>,null,choice,ctd,trinary,attraction,2,microwave ovens,null,null,null,null,null,null,1,NA,NA,NA,NA,NA,NA,NA,NA,NA,NA
NA,NA,NA,NA,NA,choice_trial,survey-html-form,63,644050,0.0-4.0-1.29,199,1,2025-05-05T20:19:39Z,b60275e29fe2361ab97ac0ac217840d7,"Mozilla/5.0 (Macintosh; Intel Mac OS X 10_15_7) AppleWebKit/537.36 (KHTML, like Gecko) Chrome/130.0.0.0 Safari/537.36",Macintosh,Chrome,130.0.0.0,OS X,10_15_7,https://5puzkbbxv1.cognition.run/?sona_id=51845,"zh-CN,zh;q=0.9",p9v6967uuf7gpvp,20,"[""Asian""]",No,Female,Hong Kong,Yes,830333.2999999523,NA,5741,NA,"{""product_choice"":""B""}",choice,ctd,trinary,attraction,2,microwave ovens,null,null,null,null,null,null,1,50,60,40,60,50,60,Warranty,Cooking power,NA,NA
NA,NA,NA,NA,NA,choice_trial_setup,html-keyboard-response,64,644354,0.0-4.0-0.30,199,1,2025-05-05T20:19:39Z,b60275e29fe2361ab97ac0ac217840d7,"Mozilla/5.0 (Macintosh; Intel Mac OS X 10_15_7) AppleWebKit/537.36 (KHTML, like Gecko) Chrome/130.0.0.0 Safari/537.36",Macintosh,Chrome,130.0.0.0,OS X,10_15_7,https://5puzkbbxv1.cognition.run/?sona_id=51845,"zh-CN,zh;q=0.9",p9v6967uuf7gpvp,20,"[""Asian""]",No,Female,Hong Kong,Yes,830333.2999999523,NA,null,<p></p>,null,choice,tcd,trinary,repulsion_B,2,microwave ovens,null,null,null,null,null,null,2,NA,NA,NA,NA,NA,NA,NA,NA,NA,NA
NA,NA,NA,NA,NA,choice_trial,survey-html-form,65,675451,0.0-4.0-1.30,199,1,2025-05-05T20:19:39Z,b60275e29fe2361ab97ac0ac217840d7,"Mozilla/5.0 (Macintosh; Intel Mac OS X 10_15_7) AppleWebKit/537.36 (KHTML, like Gecko) Chrome/130.0.0.0 Safari/537.36",Macintosh,Chrome,130.0.0.0,OS X,10_15_7,https://5puzkbbxv1.cognition.run/?sona_id=51845,"zh-CN,zh;q=0.9",p9v6967uuf7gpvp,20,"[""Asian""]",No,Female,Hong Kong,Yes,830333.2999999523,NA,31090,NA,"{""product_choice"":""A""}",choice,tcd,trinary,repulsion_B,2,microwave ovens,null,null,null,null,null,null,2,40,30,40,90,100,80,Warranty,Cooking power,NA,NA
NA,NA,NA,NA,NA,choice_trial_setup,html-keyboard-response,66,675754,0.0-4.0-0.31,199,1,2025-05-05T20:19:39Z,b60275e29fe2361ab97ac0ac217840d7,"Mozilla/5.0 (Macintosh; Intel Mac OS X 10_15_7) AppleWebKit/537.36 (KHTML, like Gecko) Chrome/130.0.0.0 Safari/537.36",Macintosh,Chrome,130.0.0.0,OS X,10_15_7,https://5puzkbbxv1.cognition.run/?sona_id=51845,"zh-CN,zh;q=0.9",p9v6967uuf7gpvp,20,"[""Asian""]",No,Female,Hong Kong,Yes,830333.2999999523,NA,null,<p></p>,null,choice,cdt,trinary,attraction,2,televisions,null,null,null,null,null,null,1,NA,NA,NA,NA,NA,NA,NA,NA,NA,NA
NA,NA,NA,NA,NA,choice_trial,survey-html-form,67,681043,0.0-4.0-1.31,199,1,2025-05-05T20:19:39Z,b60275e29fe2361ab97ac0ac217840d7,"Mozilla/5.0 (Macintosh; Intel Mac OS X 10_15_7) AppleWebKit/537.36 (KHTML, like Gecko) Chrome/130.0.0.0 Safari/537.36",Macintosh,Chrome,130.0.0.0,OS X,10_15_7,https://5puzkbbxv1.cognition.run/?sona_id=51845,"zh-CN,zh;q=0.9",p9v6967uuf7gpvp,20,"[""Asian""]",No,Female,Hong Kong,Yes,830333.2999999523,NA,5283,NA,"{""product_choice"":""A""}",choice,cdt,trinary,attraction,2,televisions,null,null,null,null,null,null,1,50,60,40,60,50,60,Screen size,Average lifespan,NA,NA
NA,NA,NA,NA,NA,choice_trial_setup,html-keyboard-response,68,681349,0.0-4.0-0.32,199,1,2025-05-05T20:19:39Z,b60275e29fe2361ab97ac0ac217840d7,"Mozilla/5.0 (Macintosh; Intel Mac OS X 10_15_7) AppleWebKit/537.36 (KHTML, like Gecko) Chrome/130.0.0.0 Safari/537.36",Macintosh,Chrome,130.0.0.0,OS X,10_15_7,https://5puzkbbxv1.cognition.run/?sona_id=51845,"zh-CN,zh;q=0.9",p9v6967uuf7gpvp,20,"[""Asian""]",No,Female,Hong Kong,Yes,830333.2999999523,NA,null,<p></p>,null,choice,ct,binary,attraction,NA,washing machines,null,null,null,null,null,null,2,NA,NA,NA,NA,NA,NA,NA,NA,NA,NA
NA,NA,NA,NA,NA,choice_trial,survey-html-form,69,684995,0.0-4.0-1.32,199,1,2025-05-05T20:19:39Z,b60275e29fe2361ab97ac0ac217840d7,"Mozilla/5.0 (Macintosh; Intel Mac OS X 10_15_7) AppleWebKit/537.36 (KHTML, like Gecko) Chrome/130.0.0.0 Safari/537.36",Macintosh,Chrome,130.0.0.0,OS X,10_15_7,https://5puzkbbxv1.cognition.run/?sona_id=51845,"zh-CN,zh;q=0.9",p9v6967uuf7gpvp,20,"[""Asian""]",No,Female,Hong Kong,Yes,830333.2999999523,NA,3640,NA,"{""product_choice"":""A""}",choice,ct,binary,attraction,NA,washing machines,null,null,null,null,null,null,2,60,50,null,50,60,null,Average lifespan,Energy savings,NA,NA
NA,NA,NA,NA,NA,choice_trial_setup,html-keyboard-response,70,685299,0.0-4.0-0.33,199,1,2025-05-05T20:19:39Z,b60275e29fe2361ab97ac0ac217840d7,"Mozilla/5.0 (Macintosh; Intel Mac OS X 10_15_7) AppleWebKit/537.36 (KHTML, like Gecko) Chrome/130.0.0.0 Safari/537.36",Macintosh,Chrome,130.0.0.0,OS X,10_15_7,https://5puzkbbxv1.cognition.run/?sona_id=51845,"zh-CN,zh;q=0.9",p9v6967uuf7gpvp,20,"[""Asian""]",No,Female,Hong Kong,Yes,830333.2999999523,NA,null,<p></p>,null,choice,ct,binary,repulsion,2,microwave ovens,null,null,null,null,null,null,1,NA,NA,NA,NA,NA,NA,NA,NA,NA,NA
NA,NA,NA,NA,NA,choice_trial,survey-html-form,71,696568,0.0-4.0-1.33,199,1,2025-05-05T20:19:39Z,b60275e29fe2361ab97ac0ac217840d7,"Mozilla/5.0 (Macintosh; Intel Mac OS X 10_15_7) AppleWebKit/537.36 (KHTML, like Gecko) Chrome/130.0.0.0 Safari/537.36",Macintosh,Chrome,130.0.0.0,OS X,10_15_7,https://5puzkbbxv1.cognition.run/?sona_id=51845,"zh-CN,zh;q=0.9",p9v6967uuf7gpvp,20,"[""Asian""]",No,Female,Hong Kong,Yes,830333.2999999523,NA,11262,NA,"{""product_choice"":""A""}",choice,ct,binary,repulsion,2,microwave ovens,null,null,null,null,null,null,1,30,40,null,100,90,null,Warranty,Cooking power,NA,NA
NA,NA,NA,NA,NA,choice_trial_setup,html-keyboard-response,72,696871,0.0-4.0-0.34,199,1,2025-05-05T20:19:39Z,b60275e29fe2361ab97ac0ac217840d7,"Mozilla/5.0 (Macintosh; Intel Mac OS X 10_15_7) AppleWebKit/537.36 (KHTML, like Gecko) Chrome/130.0.0.0 Safari/537.36",Macintosh,Chrome,130.0.0.0,OS X,10_15_7,https://5puzkbbxv1.cognition.run/?sona_id=51845,"zh-CN,zh;q=0.9",p9v6967uuf7gpvp,20,"[""Asian""]",No,Female,Hong Kong,Yes,830333.2999999523,NA,null,<p></p>,null,choice,bww,trinary,catch,null,washing machines,60,70,30,35,25,15,1,NA,NA,NA,NA,NA,NA,NA,NA,NA,NA
NA,NA,NA,NA,NA,choice_trial,survey-html-form,73,701199,0.0-4.0-1.34,199,1,2025-05-05T20:19:39Z,b60275e29fe2361ab97ac0ac217840d7,"Mozilla/5.0 (Macintosh; Intel Mac OS X 10_15_7) AppleWebKit/537.36 (KHTML, like Gecko) Chrome/130.0.0.0 Safari/537.36",Macintosh,Chrome,130.0.0.0,OS X,10_15_7,https://5puzkbbxv1.cognition.run/?sona_id=51845,"zh-CN,zh;q=0.9",p9v6967uuf7gpvp,20,"[""Asian""]",No,Female,Hong Kong,Yes,830333.2999999523,NA,4324,NA,"{""product_choice"":""B""}",choice,bww,trinary,catch,null,washing machines,60,70,30,35,25,15,1,null,null,null,null,null,null,Average lifespan,Energy savings,NA,NA
NA,NA,NA,NA,NA,choice_trial_setup,html-keyboard-response,74,701501,0.0-4.0-0.35,199,1,2025-05-05T20:19:39Z,b60275e29fe2361ab97ac0ac217840d7,"Mozilla/5.0 (Macintosh; Intel Mac OS X 10_15_7) AppleWebKit/537.36 (KHTML, like Gecko) Chrome/130.0.0.0 Safari/537.36",Macintosh,Chrome,130.0.0.0,OS X,10_15_7,https://5puzkbbxv1.cognition.run/?sona_id=51845,"zh-CN,zh;q=0.9",p9v6967uuf7gpvp,20,"[""Asian""]",No,Female,Hong Kong,Yes,830333.2999999523,NA,null,<p></p>,null,choice,ctd,trinary,repulsion_B,2,laptops,null,null,null,null,null,null,2,NA,NA,NA,NA,NA,NA,NA,NA,NA,NA
NA,NA,NA,NA,NA,choice_trial,survey-html-form,75,705240,0.0-4.0-1.35,199,1,2025-05-05T20:19:39Z,b60275e29fe2361ab97ac0ac217840d7,"Mozilla/5.0 (Macintosh; Intel Mac OS X 10_15_7) AppleWebKit/537.36 (KHTML, like Gecko) Chrome/130.0.0.0 Safari/537.36",Macintosh,Chrome,130.0.0.0,OS X,10_15_7,https://5puzkbbxv1.cognition.run/?sona_id=51845,"zh-CN,zh;q=0.9",p9v6967uuf7gpvp,20,"[""Asian""]",No,Female,Hong Kong,Yes,830333.2999999523,NA,3736,NA,"{""product_choice"":""B""}",choice,ctd,trinary,repulsion_B,2,laptops,null,null,null,null,null,null,2,40,30,40,90,100,80,Processing speed,Memory (RAM),NA,NA
NA,NA,NA,NA,NA,choice_trial_setup,html-keyboard-response,76,705543,0.0-4.0-0.36,199,1,2025-05-05T20:19:39Z,b60275e29fe2361ab97ac0ac217840d7,"Mozilla/5.0 (Macintosh; Intel Mac OS X 10_15_7) AppleWebKit/537.36 (KHTML, like Gecko) Chrome/130.0.0.0 Safari/537.36",Macintosh,Chrome,130.0.0.0,OS X,10_15_7,https://5puzkbbxv1.cognition.run/?sona_id=51845,"zh-CN,zh;q=0.9",p9v6967uuf7gpvp,20,"[""Asian""]",No,Female,Hong Kong,Yes,830333.2999999523,NA,null,<p></p>,null,choice,bww,trinary,catch,null,microwave ovens,90,90,45,10,45,5,2,NA,NA,NA,NA,NA,NA,NA,NA,NA,NA
NA,NA,NA,NA,NA,choice_trial,survey-html-form,77,708504,0.0-4.0-1.36,199,1,2025-05-05T20:19:39Z,b60275e29fe2361ab97ac0ac217840d7,"Mozilla/5.0 (Macintosh; Intel Mac OS X 10_15_7) AppleWebKit/537.36 (KHTML, like Gecko) Chrome/130.0.0.0 Safari/537.36",Macintosh,Chrome,130.0.0.0,OS X,10_15_7,https://5puzkbbxv1.cognition.run/?sona_id=51845,"zh-CN,zh;q=0.9",p9v6967uuf7gpvp,20,"[""Asian""]",No,Female,Hong Kong,Yes,830333.2999999523,NA,2959,NA,"{""product_choice"":""A""}",choice,bww,trinary,catch,null,microwave ovens,90,90,45,10,45,5,2,null,null,null,null,null,null,Warranty,Cooking power,NA,NA
NA,NA,NA,NA,NA,choice_trial_setup,html-keyboard-response,78,708808,0.0-4.0-0.37,199,1,2025-05-05T20:19:39Z,b60275e29fe2361ab97ac0ac217840d7,"Mozilla/5.0 (Macintosh; Intel Mac OS X 10_15_7) AppleWebKit/537.36 (KHTML, like Gecko) Chrome/130.0.0.0 Safari/537.36",Macintosh,Chrome,130.0.0.0,OS X,10_15_7,https://5puzkbbxv1.cognition.run/?sona_id=51845,"zh-CN,zh;q=0.9",p9v6967uuf7gpvp,20,"[""Asian""]",No,Female,Hong Kong,Yes,830333.2999999523,NA,null,<p></p>,null,choice,ct,binary,repulsion,2,televisions,null,null,null,null,null,null,1,NA,NA,NA,NA,NA,NA,NA,NA,NA,NA
NA,NA,NA,NA,NA,choice_trial,survey-html-form,79,711099,0.0-4.0-1.37,199,1,2025-05-05T20:19:39Z,b60275e29fe2361ab97ac0ac217840d7,"Mozilla/5.0 (Macintosh; Intel Mac OS X 10_15_7) AppleWebKit/537.36 (KHTML, like Gecko) Chrome/130.0.0.0 Safari/537.36",Macintosh,Chrome,130.0.0.0,OS X,10_15_7,https://5puzkbbxv1.cognition.run/?sona_id=51845,"zh-CN,zh;q=0.9",p9v6967uuf7gpvp,20,"[""Asian""]",No,Female,Hong Kong,Yes,830333.2999999523,NA,2288,NA,"{""product_choice"":""B""}",choice,ct,binary,repulsion,2,televisions,null,null,null,null,null,null,1,30,40,null,100,90,null,Screen size,Average lifespan,NA,NA
NA,NA,NA,NA,NA,choice_trial_setup,html-keyboard-response,80,711405,0.0-4.0-0.38,199,1,2025-05-05T20:19:39Z,b60275e29fe2361ab97ac0ac217840d7,"Mozilla/5.0 (Macintosh; Intel Mac OS X 10_15_7) AppleWebKit/537.36 (KHTML, like Gecko) Chrome/130.0.0.0 Safari/537.36",Macintosh,Chrome,130.0.0.0,OS X,10_15_7,https://5puzkbbxv1.cognition.run/?sona_id=51845,"zh-CN,zh;q=0.9",p9v6967uuf7gpvp,20,"[""Asian""]",No,Female,Hong Kong,Yes,830333.2999999523,NA,null,<p></p>,null,choice,dtc,trinary,repulsion_B,1,televisions,null,null,null,null,null,null,2,NA,NA,NA,NA,NA,NA,NA,NA,NA,NA
NA,NA,NA,NA,NA,choice_trial,survey-html-form,81,717928,0.0-4.0-1.38,199,1,2025-05-05T20:19:39Z,b60275e29fe2361ab97ac0ac217840d7,"Mozilla/5.0 (Macintosh; Intel Mac OS X 10_15_7) AppleWebKit/537.36 (KHTML, like Gecko) Chrome/130.0.0.0 Safari/537.36",Macintosh,Chrome,130.0.0.0,OS X,10_15_7,https://5puzkbbxv1.cognition.run/?sona_id=51845,"zh-CN,zh;q=0.9",p9v6967uuf7gpvp,20,"[""Asian""]",No,Female,Hong Kong,Yes,830333.2999999523,NA,6517,NA,"{""product_choice"":""B""}",choice,dtc,trinary,repulsion_B,1,televisions,null,null,null,null,null,null,2,90,100,80,40,30,40,Screen size,Average lifespan,NA,NA
NA,NA,NA,NA,NA,choice_trial_setup,html-keyboard-response,82,718232,0.0-4.0-0.39,199,1,2025-05-05T20:19:39Z,b60275e29fe2361ab97ac0ac217840d7,"Mozilla/5.0 (Macintosh; Intel Mac OS X 10_15_7) AppleWebKit/537.36 (KHTML, like Gecko) Chrome/130.0.0.0 Safari/537.36",Macintosh,Chrome,130.0.0.0,OS X,10_15_7,https://5puzkbbxv1.cognition.run/?sona_id=51845,"zh-CN,zh;q=0.9",p9v6967uuf7gpvp,20,"[""Asian""]",No,Female,Hong Kong,Yes,830333.2999999523,NA,null,<p></p>,null,choice,bww,trinary,catch,null,laptops,60,80,30,30,15,15,1,NA,NA,NA,NA,NA,NA,NA,NA,NA,NA
NA,NA,NA,NA,NA,choice_trial,survey-html-form,83,721994,0.0-4.0-1.39,199,1,2025-05-05T20:19:39Z,b60275e29fe2361ab97ac0ac217840d7,"Mozilla/5.0 (Macintosh; Intel Mac OS X 10_15_7) AppleWebKit/537.36 (KHTML, like Gecko) Chrome/130.0.0.0 Safari/537.36",Macintosh,Chrome,130.0.0.0,OS X,10_15_7,https://5puzkbbxv1.cognition.run/?sona_id=51845,"zh-CN,zh;q=0.9",p9v6967uuf7gpvp,20,"[""Asian""]",No,Female,Hong Kong,Yes,830333.2999999523,NA,3759,NA,"{""product_choice"":""A""}",choice,bww,trinary,catch,null,laptops,60,80,30,30,15,15,1,null,null,null,null,null,null,Processing speed,Memory (RAM),NA,NA
NA,NA,NA,NA,NA,choice_trial_setup,html-keyboard-response,84,722299,0.0-4.0-0.40,199,1,2025-05-05T20:19:39Z,b60275e29fe2361ab97ac0ac217840d7,"Mozilla/5.0 (Macintosh; Intel Mac OS X 10_15_7) AppleWebKit/537.36 (KHTML, like Gecko) Chrome/130.0.0.0 Safari/537.36",Macintosh,Chrome,130.0.0.0,OS X,10_15_7,https://5puzkbbxv1.cognition.run/?sona_id=51845,"zh-CN,zh;q=0.9",p9v6967uuf7gpvp,20,"[""Asian""]",No,Female,Hong Kong,Yes,830333.2999999523,NA,null,<p></p>,null,choice,ct,binary,repulsion,2,washing machines,null,null,null,null,null,null,2,NA,NA,NA,NA,NA,NA,NA,NA,NA,NA
NA,NA,NA,NA,NA,choice_trial,survey-html-form,85,727360,0.0-4.0-1.40,199,1,2025-05-05T20:19:39Z,b60275e29fe2361ab97ac0ac217840d7,"Mozilla/5.0 (Macintosh; Intel Mac OS X 10_15_7) AppleWebKit/537.36 (KHTML, like Gecko) Chrome/130.0.0.0 Safari/537.36",Macintosh,Chrome,130.0.0.0,OS X,10_15_7,https://5puzkbbxv1.cognition.run/?sona_id=51845,"zh-CN,zh;q=0.9",p9v6967uuf7gpvp,20,"[""Asian""]",No,Female,Hong Kong,Yes,830333.2999999523,NA,5060,NA,"{""product_choice"":""A""}",choice,ct,binary,repulsion,2,washing machines,null,null,null,null,null,null,2,30,40,null,100,90,null,Average lifespan,Energy savings,NA,NA
NA,NA,NA,NA,NA,choice_trial_setup,html-keyboard-response,86,727666,0.0-4.0-0.41,199,1,2025-05-05T20:19:39Z,b60275e29fe2361ab97ac0ac217840d7,"Mozilla/5.0 (Macintosh; Intel Mac OS X 10_15_7) AppleWebKit/537.36 (KHTML, like Gecko) Chrome/130.0.0.0 Safari/537.36",Macintosh,Chrome,130.0.0.0,OS X,10_15_7,https://5puzkbbxv1.cognition.run/?sona_id=51845,"zh-CN,zh;q=0.9",p9v6967uuf7gpvp,20,"[""Asian""]",No,Female,Hong Kong,Yes,830333.2999999523,NA,null,<p></p>,null,choice,tdc,trinary,repulsion_A,2,laptops,null,null,null,null,null,null,2,NA,NA,NA,NA,NA,NA,NA,NA,NA,NA
NA,NA,NA,NA,NA,choice_trial,survey-html-form,87,732193,0.0-4.0-1.41,199,1,2025-05-05T20:19:39Z,b60275e29fe2361ab97ac0ac217840d7,"Mozilla/5.0 (Macintosh; Intel Mac OS X 10_15_7) AppleWebKit/537.36 (KHTML, like Gecko) Chrome/130.0.0.0 Safari/537.36",Macintosh,Chrome,130.0.0.0,OS X,10_15_7,https://5puzkbbxv1.cognition.run/?sona_id=51845,"zh-CN,zh;q=0.9",p9v6967uuf7gpvp,20,"[""Asian""]",No,Female,Hong Kong,Yes,830333.2999999523,NA,4524,NA,"{""product_choice"":""C""}",choice,tdc,trinary,repulsion_A,2,laptops,null,null,null,null,null,null,2,30,40,20,100,90,100,Processing speed,Memory (RAM),NA,NA
NA,NA,NA,NA,NA,choice_trial_setup,html-keyboard-response,88,732496,0.0-4.0-0.42,199,1,2025-05-05T20:19:39Z,b60275e29fe2361ab97ac0ac217840d7,"Mozilla/5.0 (Macintosh; Intel Mac OS X 10_15_7) AppleWebKit/537.36 (KHTML, like Gecko) Chrome/130.0.0.0 Safari/537.36",Macintosh,Chrome,130.0.0.0,OS X,10_15_7,https://5puzkbbxv1.cognition.run/?sona_id=51845,"zh-CN,zh;q=0.9",p9v6967uuf7gpvp,20,"[""Asian""]",No,Female,Hong Kong,Yes,830333.2999999523,NA,null,<p></p>,null,choice,ct,binary,attraction,NA,televisions,null,null,null,null,null,null,2,NA,NA,NA,NA,NA,NA,NA,NA,NA,NA
NA,NA,NA,NA,NA,choice_trial,survey-html-form,89,737528,0.0-4.0-1.42,199,1,2025-05-05T20:19:39Z,b60275e29fe2361ab97ac0ac217840d7,"Mozilla/5.0 (Macintosh; Intel Mac OS X 10_15_7) AppleWebKit/537.36 (KHTML, like Gecko) Chrome/130.0.0.0 Safari/537.36",Macintosh,Chrome,130.0.0.0,OS X,10_15_7,https://5puzkbbxv1.cognition.run/?sona_id=51845,"zh-CN,zh;q=0.9",p9v6967uuf7gpvp,20,"[""Asian""]",No,Female,Hong Kong,Yes,830333.2999999523,NA,5030,NA,"{""product_choice"":""B""}",choice,ct,binary,attraction,NA,televisions,null,null,null,null,null,null,2,60,50,null,50,60,null,Screen size,Average lifespan,NA,NA
NA,NA,NA,NA,NA,choice_trial_setup,html-keyboard-response,90,737836,0.0-4.0-0.43,199,1,2025-05-05T20:19:39Z,b60275e29fe2361ab97ac0ac217840d7,"Mozilla/5.0 (Macintosh; Intel Mac OS X 10_15_7) AppleWebKit/537.36 (KHTML, like Gecko) Chrome/130.0.0.0 Safari/537.36",Macintosh,Chrome,130.0.0.0,OS X,10_15_7,https://5puzkbbxv1.cognition.run/?sona_id=51845,"zh-CN,zh;q=0.9",p9v6967uuf7gpvp,20,"[""Asian""]",No,Female,Hong Kong,Yes,830333.2999999523,NA,null,<p></p>,null,choice,tc,binary,repulsion,1,washing machines,null,null,null,null,null,null,2,NA,NA,NA,NA,NA,NA,NA,NA,NA,NA
NA,NA,NA,NA,NA,choice_trial,survey-html-form,91,741634,0.0-4.0-1.43,199,1,2025-05-05T20:19:39Z,b60275e29fe2361ab97ac0ac217840d7,"Mozilla/5.0 (Macintosh; Intel Mac OS X 10_15_7) AppleWebKit/537.36 (KHTML, like Gecko) Chrome/130.0.0.0 Safari/537.36",Macintosh,Chrome,130.0.0.0,OS X,10_15_7,https://5puzkbbxv1.cognition.run/?sona_id=51845,"zh-CN,zh;q=0.9",p9v6967uuf7gpvp,20,"[""Asian""]",No,Female,Hong Kong,Yes,830333.2999999523,NA,3794,NA,"{""product_choice"":""B""}",choice,tc,binary,repulsion,1,washing machines,null,null,null,null,null,null,2,100,90,null,30,40,null,Average lifespan,Energy savings,NA,NA
NA,NA,NA,NA,NA,post_trials_message,html-button-response,92,743687,0.0-5.0,199,1,2025-05-05T20:19:39Z,b60275e29fe2361ab97ac0ac217840d7,"Mozilla/5.0 (Macintosh; Intel Mac OS X 10_15_7) AppleWebKit/537.36 (KHTML, like Gecko) Chrome/130.0.0.0 Safari/537.36",Macintosh,Chrome,130.0.0.0,OS X,10_15_7,https://5puzkbbxv1.cognition.run/?sona_id=51845,"zh-CN,zh;q=0.9",p9v6967uuf7gpvp,20,"[""Asian""]",No,Female,Hong Kong,Yes,830333.2999999523,NA,2051,<p> <b>Thank you for your patience!</b></p><p>  The study will be done after completing a brief form. </p>,0,NA,NA,NA,NA,NA,NA,NA,NA,NA,NA,NA,NA,NA,NA,NA,NA,NA,NA,NA,NA,NA,NA,NA
NA,NA,NA,NA,NA,survey_message,survey-text,93,780188,0.0-6.0,199,1,2025-05-05T20:19:39Z,b60275e29fe2361ab97ac0ac217840d7,"Mozilla/5.0 (Macintosh; Intel Mac OS X 10_15_7) AppleWebKit/537.36 (KHTML, like Gecko) Chrome/130.0.0.0 Safari/537.36",Macintosh,Chrome,130.0.0.0,OS X,10_15_7,https://5puzkbbxv1.cognition.run/?sona_id=51845,"zh-CN,zh;q=0.9",p9v6967uuf7gpvp,20,"[""Asian""]",No,Female,Hong Kong,Yes,830333.2999999523,NA,36498,NA,"{""Q0"":""I prefer less gap between. It does not have to be the best but more equal""}",NA,NA,NA,NA,NA,NA,NA,NA,NA,NA,NA,NA,NA,NA,NA,NA,NA,NA,NA,NA,NA,I prefer less gap between. It does not have to be the best but more equal,NA
NA,NA,NA,NA,NA,demo_age,survey-text,94,784794,0.0-7.0,199,1,2025-05-05T20:19:39Z,b60275e29fe2361ab97ac0ac217840d7,"Mozilla/5.0 (Macintosh; Intel Mac OS X 10_15_7) AppleWebKit/537.36 (KHTML, like Gecko) Chrome/130.0.0.0 Safari/537.36",Macintosh,Chrome,130.0.0.0,OS X,10_15_7,https://5puzkbbxv1.cognition.run/?sona_id=51845,"zh-CN,zh;q=0.9",p9v6967uuf7gpvp,20,"[""Asian""]",No,Female,Hong Kong,Yes,830333.2999999523,NA,4603,NA,"{""Q0"":""20""}",NA,NA,NA,NA,NA,NA,NA,NA,NA,NA,NA,NA,NA,NA,NA,NA,NA,NA,NA,NA,NA,NA,NA
NA,NA,NA,NA,NA,demo_race,survey-multi-select,95,786823,0.0-8.0,199,1,2025-05-05T20:19:39Z,b60275e29fe2361ab97ac0ac217840d7,"Mozilla/5.0 (Macintosh; Intel Mac OS X 10_15_7) AppleWebKit/537.36 (KHTML, like Gecko) Chrome/130.0.0.0 Safari/537.36",Macintosh,Chrome,130.0.0.0,OS X,10_15_7,https://5puzkbbxv1.cognition.run/?sona_id=51845,"zh-CN,zh;q=0.9",p9v6967uuf7gpvp,20,"[""Asian""]",No,Female,Hong Kong,Yes,830333.2999999523,NA,2025,NA,"{""Q0"":[""Asian""]}",NA,NA,NA,NA,NA,NA,NA,NA,NA,NA,NA,NA,NA,NA,NA,NA,NA,NA,NA,NA,NA,NA,[0]
NA,NA,NA,NA,NA,demo_ethnicity_gender,survey-multi-choice,96,793410,0.0-9.0,199,1,2025-05-05T20:19:39Z,b60275e29fe2361ab97ac0ac217840d7,"Mozilla/5.0 (Macintosh; Intel Mac OS X 10_15_7) AppleWebKit/537.36 (KHTML, like Gecko) Chrome/130.0.0.0 Safari/537.36",Macintosh,Chrome,130.0.0.0,OS X,10_15_7,https://5puzkbbxv1.cognition.run/?sona_id=51845,"zh-CN,zh;q=0.9",p9v6967uuf7gpvp,20,"[""Asian""]",No,Female,Hong Kong,Yes,830333.2999999523,NA,6585,NA,"{""Q0"":""No"",""Q1"":""Female""}",NA,NA,NA,NA,NA,NA,NA,NA,NA,NA,NA,NA,NA,NA,NA,NA,NA,NA,NA,NA,NA,NA,"[0,1]"
NA,NA,NA,NA,NA,demo_countries,survey-text,97,810300,0.0-10.0,199,1,2025-05-05T20:19:39Z,b60275e29fe2361ab97ac0ac217840d7,"Mozilla/5.0 (Macintosh; Intel Mac OS X 10_15_7) AppleWebKit/537.36 (KHTML, like Gecko) Chrome/130.0.0.0 Safari/537.36",Macintosh,Chrome,130.0.0.0,OS X,10_15_7,https://5puzkbbxv1.cognition.run/?sona_id=51845,"zh-CN,zh;q=0.9",p9v6967uuf7gpvp,20,"[""Asian""]",No,Female,Hong Kong,Yes,830333.2999999523,NA,16882,NA,"{""Q0"":""Hong Kong""}",NA,NA,NA,NA,NA,NA,NA,NA,NA,NA,NA,NA,NA,NA,NA,NA,NA,NA,NA,NA,NA,NA,NA
NA,NA,NA,NA,NA,demo_prev_study,survey-multi-choice,98,819425,0.0-11.0,199,1,2025-05-05T20:19:39Z,b60275e29fe2361ab97ac0ac217840d7,"Mozilla/5.0 (Macintosh; Intel Mac OS X 10_15_7) AppleWebKit/537.36 (KHTML, like Gecko) Chrome/130.0.0.0 Safari/537.36",Macintosh,Chrome,130.0.0.0,OS X,10_15_7,https://5puzkbbxv1.cognition.run/?sona_id=51845,"zh-CN,zh;q=0.9",p9v6967uuf7gpvp,20,"[""Asian""]",No,Female,Hong Kong,Yes,830333.2999999523,NA,9122,NA,"{""Q0"":""Yes""}",NA,NA,NA,NA,NA,NA,NA,NA,NA,NA,NA,NA,NA,NA,NA,NA,NA,NA,NA,NA,NA,NA,[0]
NA,NA,NA,NA,NA,post_survey_message,html-keyboard-response,99,822441,0.0-12.0,199,1,2025-05-05T20:19:39Z,b60275e29fe2361ab97ac0ac217840d7,"Mozilla/5.0 (Macintosh; Intel Mac OS X 10_15_7) AppleWebKit/537.36 (KHTML, like Gecko) Chrome/130.0.0.0 Safari/537.36",Macintosh,Chrome,130.0.0.0,OS X,10_15_7,https://5puzkbbxv1.cognition.run/?sona_id=51845,"zh-CN,zh;q=0.9",p9v6967uuf7gpvp,20,"[""Asian""]",No,Female,Hong Kong,Yes,830333.2999999523,NA,3013,NA,j,NA,NA,NA,NA,NA,NA,NA,NA,NA,NA,NA,NA,NA,NA,NA,NA,NA,NA,NA,NA,NA,NA,NA
NA,NA,NA,NA,NA,debrief,image-keyboard-response,100,830340,0.0-13.0,199,1,2025-05-05T20:19:39Z,b60275e29fe2361ab97ac0ac217840d7,"Mozilla/5.0 (Macintosh; Intel Mac OS X 10_15_7) AppleWebKit/537.36 (KHTML, like Gecko) Chrome/130.0.0.0 Safari/537.36",Macintosh,Chrome,130.0.0.0,OS X,10_15_7,https://5puzkbbxv1.cognition.run/?sona_id=51845,"zh-CN,zh;q=0.9",p9v6967uuf7gpvp,20,"[""Asian""]",No,Female,Hong Kong,Yes,830333.2999999523,NA,7888,Judg_choice_debrief.png,p,NA,NA,NA,NA,NA,NA,NA,NA,NA,NA,NA,NA,NA,NA,NA,NA,NA,NA,NA,NA,NA,NA,NA
