success,timeout,failed_images,failed_audio,failed_video,screen_id,trial_type,trial_index,time_elapsed,internal_node_id,run_id,condition,recorded_at,source_code_version,user_agent,device,browser,browser_version,platform,platform_version,referer,accept_language,ppt_id,age,race,ethnicity,gender,other_countries,exp_duration,view_history,rt,stimulus,response,phase,order,set,effect,t_high,category,d1_best,d2_best,d1_worst1,d2_worst1,d1_worst2,d2_worst2,first_dim,d1_t,d1_c,d1_d,d2_t,d2_c,d2_d,d1_name,d2_name,strategy_response,question_order
TRUE,FALSE,[],[],[],img preload,preload,0,117,0.0-0.0,2,1,2025-04-28T14:51:26Z,054d9b9d151c9550f80989ebd54be3eb,"Mozilla/5.0 (Windows NT 10.0; Win64; x64) AppleWebKit/537.36 (KHTML, like Gecko) Chrome/135.0.0.0 Safari/537.36",WebKit,Chrome,135.0.0.0,Windows,10,https://5puzkbbxv1.cognition.run/?sona_id=57853,"en-US,en;q=0.9",mwswbyrxzuxpm55,18,"[""White""]",No,Male,NA,429157,NA,NA,NA,NA,NA,NA,NA,NA,NA,NA,NA,NA,NA,NA,NA,NA,NA,NA,NA,NA,NA,NA,NA,NA,NA,NA,NA
NA,NA,NA,NA,NA,computer_message,instructions,1,1566,0.0-1.0,2,1,2025-04-28T14:51:26Z,054d9b9d151c9550f80989ebd54be3eb,"Mozilla/5.0 (Windows NT 10.0; Win64; x64) AppleWebKit/537.36 (KHTML, like Gecko) Chrome/135.0.0.0 Safari/537.36",WebKit,Chrome,135.0.0.0,Windows,10,https://5puzkbbxv1.cognition.run/?sona_id=57853,"en-US,en;q=0.9",mwswbyrxzuxpm55,18,"[""White""]",No,Male,NA,429157,"[{""page_index"":0,""viewing_time"":1448}]",1448,NA,NA,NA,NA,NA,NA,NA,NA,NA,NA,NA,NA,NA,NA,NA,NA,NA,NA,NA,NA,NA,NA,NA,NA,NA
TRUE,NA,NA,NA,NA,NA,fullscreen,2,3701,0.0-2.0,2,1,2025-04-28T14:51:26Z,054d9b9d151c9550f80989ebd54be3eb,"Mozilla/5.0 (Windows NT 10.0; Win64; x64) AppleWebKit/537.36 (KHTML, like Gecko) Chrome/135.0.0.0 Safari/537.36",WebKit,Chrome,135.0.0.0,Windows,10,https://5puzkbbxv1.cognition.run/?sona_id=57853,"en-US,en;q=0.9",mwswbyrxzuxpm55,18,"[""White""]",No,Male,NA,429157,NA,1123,NA,NA,NA,NA,NA,NA,NA,NA,NA,NA,NA,NA,NA,NA,NA,NA,NA,NA,NA,NA,NA,NA,NA,NA,NA
NA,NA,NA,NA,NA,choice_instructions,instructions,3,56873,0.0-3.0,2,1,2025-04-28T14:51:26Z,054d9b9d151c9550f80989ebd54be3eb,"Mozilla/5.0 (Windows NT 10.0; Win64; x64) AppleWebKit/537.36 (KHTML, like Gecko) Chrome/135.0.0.0 Safari/537.36",WebKit,Chrome,135.0.0.0,Windows,10,https://5puzkbbxv1.cognition.run/?sona_id=57853,"en-US,en;q=0.9",mwswbyrxzuxpm55,18,"[""White""]",No,Male,NA,429157,"[{""page_index"":0,""viewing_time"":1364},{""page_index"":1,""viewing_time"":1268},{""page_index"":2,""viewing_time"":6080},{""page_index"":3,""viewing_time"":8140},{""page_index"":4,""viewing_time"":3532},{""page_index"":5,""viewing_time"":25132},{""page_index"":6,""viewing_time"":7656}]",53172,NA,NA,NA,NA,NA,NA,NA,NA,NA,NA,NA,NA,NA,NA,NA,NA,NA,NA,NA,NA,NA,NA,NA,NA,NA
NA,NA,NA,NA,NA,choice_trial_setup,html-keyboard-response,4,57176,0.0-4.0-0.0,2,1,2025-04-28T14:51:26Z,054d9b9d151c9550f80989ebd54be3eb,"Mozilla/5.0 (Windows NT 10.0; Win64; x64) AppleWebKit/537.36 (KHTML, like Gecko) Chrome/135.0.0.0 Safari/537.36",WebKit,Chrome,135.0.0.0,Windows,10,https://5puzkbbxv1.cognition.run/?sona_id=57853,"en-US,en;q=0.9",mwswbyrxzuxpm55,18,"[""White""]",No,Male,NA,429157,NA,null,<p></p>,null,choice,ctd,trinary,repulsion_A,2,microwave ovens,null,null,null,null,null,null,1,NA,NA,NA,NA,NA,NA,NA,NA,NA,NA
NA,NA,NA,NA,NA,choice_trial,survey-html-form,5,72273,0.0-4.0-1.0,2,1,2025-04-28T14:51:26Z,054d9b9d151c9550f80989ebd54be3eb,"Mozilla/5.0 (Windows NT 10.0; Win64; x64) AppleWebKit/537.36 (KHTML, like Gecko) Chrome/135.0.0.0 Safari/537.36",WebKit,Chrome,135.0.0.0,Windows,10,https://5puzkbbxv1.cognition.run/?sona_id=57853,"en-US,en;q=0.9",mwswbyrxzuxpm55,18,"[""White""]",No,Male,NA,429157,NA,15095,NA,"{""product_choice"":""A""}",choice,ctd,trinary,repulsion_A,2,microwave ovens,null,null,null,null,null,null,1,30,40,20,100,90,100,Warranty,Cooking power,NA,NA
NA,NA,NA,NA,NA,choice_trial_setup,html-keyboard-response,6,72574,0.0-4.0-0.1,2,1,2025-04-28T14:51:26Z,054d9b9d151c9550f80989ebd54be3eb,"Mozilla/5.0 (Windows NT 10.0; Win64; x64) AppleWebKit/537.36 (KHTML, like Gecko) Chrome/135.0.0.0 Safari/537.36",WebKit,Chrome,135.0.0.0,Windows,10,https://5puzkbbxv1.cognition.run/?sona_id=57853,"en-US,en;q=0.9",mwswbyrxzuxpm55,18,"[""White""]",No,Male,NA,429157,NA,null,<p></p>,null,choice,tcd,trinary,repulsion_B,1,laptops,null,null,null,null,null,null,1,NA,NA,NA,NA,NA,NA,NA,NA,NA,NA
NA,NA,NA,NA,NA,choice_trial,survey-html-form,7,81972,0.0-4.0-1.1,2,1,2025-04-28T14:51:26Z,054d9b9d151c9550f80989ebd54be3eb,"Mozilla/5.0 (Windows NT 10.0; Win64; x64) AppleWebKit/537.36 (KHTML, like Gecko) Chrome/135.0.0.0 Safari/537.36",WebKit,Chrome,135.0.0.0,Windows,10,https://5puzkbbxv1.cognition.run/?sona_id=57853,"en-US,en;q=0.9",mwswbyrxzuxpm55,18,"[""White""]",No,Male,NA,429157,NA,9398,NA,"{""product_choice"":""A""}",choice,tcd,trinary,repulsion_B,1,laptops,null,null,null,null,null,null,1,90,100,80,40,30,40,Processing speed,Memory (RAM),NA,NA
NA,NA,NA,NA,NA,choice_trial_setup,html-keyboard-response,8,82274,0.0-4.0-0.2,2,1,2025-04-28T14:51:26Z,054d9b9d151c9550f80989ebd54be3eb,"Mozilla/5.0 (Windows NT 10.0; Win64; x64) AppleWebKit/537.36 (KHTML, like Gecko) Chrome/135.0.0.0 Safari/537.36",WebKit,Chrome,135.0.0.0,Windows,10,https://5puzkbbxv1.cognition.run/?sona_id=57853,"en-US,en;q=0.9",mwswbyrxzuxpm55,18,"[""White""]",No,Male,NA,429157,NA,null,<p></p>,null,choice,tdc,trinary,repulsion_B,1,washing machines,null,null,null,null,null,null,1,NA,NA,NA,NA,NA,NA,NA,NA,NA,NA
NA,NA,NA,NA,NA,choice_trial,survey-html-form,9,87989,0.0-4.0-1.2,2,1,2025-04-28T14:51:26Z,054d9b9d151c9550f80989ebd54be3eb,"Mozilla/5.0 (Windows NT 10.0; Win64; x64) AppleWebKit/537.36 (KHTML, like Gecko) Chrome/135.0.0.0 Safari/537.36",WebKit,Chrome,135.0.0.0,Windows,10,https://5puzkbbxv1.cognition.run/?sona_id=57853,"en-US,en;q=0.9",mwswbyrxzuxpm55,18,"[""White""]",No,Male,NA,429157,NA,5715,NA,"{""product_choice"":""C""}",choice,tdc,trinary,repulsion_B,1,washing machines,null,null,null,null,null,null,1,90,100,80,40,30,40,Average lifespan,Energy savings,NA,NA
NA,NA,NA,NA,NA,choice_trial_setup,html-keyboard-response,10,88291,0.0-4.0-0.3,2,1,2025-04-28T14:51:26Z,054d9b9d151c9550f80989ebd54be3eb,"Mozilla/5.0 (Windows NT 10.0; Win64; x64) AppleWebKit/537.36 (KHTML, like Gecko) Chrome/135.0.0.0 Safari/537.36",WebKit,Chrome,135.0.0.0,Windows,10,https://5puzkbbxv1.cognition.run/?sona_id=57853,"en-US,en;q=0.9",mwswbyrxzuxpm55,18,"[""White""]",No,Male,NA,429157,NA,null,<p></p>,null,choice,ct,binary,repulsion,2,microwave ovens,null,null,null,null,null,null,2,NA,NA,NA,NA,NA,NA,NA,NA,NA,NA
NA,NA,NA,NA,NA,choice_trial,survey-html-form,11,94481,0.0-4.0-1.3,2,1,2025-04-28T14:51:26Z,054d9b9d151c9550f80989ebd54be3eb,"Mozilla/5.0 (Windows NT 10.0; Win64; x64) AppleWebKit/537.36 (KHTML, like Gecko) Chrome/135.0.0.0 Safari/537.36",WebKit,Chrome,135.0.0.0,Windows,10,https://5puzkbbxv1.cognition.run/?sona_id=57853,"en-US,en;q=0.9",mwswbyrxzuxpm55,18,"[""White""]",No,Male,NA,429157,NA,6188,NA,"{""product_choice"":""B""}",choice,ct,binary,repulsion,2,microwave ovens,null,null,null,null,null,null,2,30,40,null,100,90,null,Warranty,Cooking power,NA,NA
NA,NA,NA,NA,NA,choice_trial_setup,html-keyboard-response,12,94782,0.0-4.0-0.4,2,1,2025-04-28T14:51:26Z,054d9b9d151c9550f80989ebd54be3eb,"Mozilla/5.0 (Windows NT 10.0; Win64; x64) AppleWebKit/537.36 (KHTML, like Gecko) Chrome/135.0.0.0 Safari/537.36",WebKit,Chrome,135.0.0.0,Windows,10,https://5puzkbbxv1.cognition.run/?sona_id=57853,"en-US,en;q=0.9",mwswbyrxzuxpm55,18,"[""White""]",No,Male,NA,429157,NA,null,<p></p>,null,choice,ct,binary,repulsion,1,laptops,null,null,null,null,null,null,1,NA,NA,NA,NA,NA,NA,NA,NA,NA,NA
NA,NA,NA,NA,NA,choice_trial,survey-html-form,13,103340,0.0-4.0-1.4,2,1,2025-04-28T14:51:26Z,054d9b9d151c9550f80989ebd54be3eb,"Mozilla/5.0 (Windows NT 10.0; Win64; x64) AppleWebKit/537.36 (KHTML, like Gecko) Chrome/135.0.0.0 Safari/537.36",WebKit,Chrome,135.0.0.0,Windows,10,https://5puzkbbxv1.cognition.run/?sona_id=57853,"en-US,en;q=0.9",mwswbyrxzuxpm55,18,"[""White""]",No,Male,NA,429157,NA,8558,NA,"{""product_choice"":""B""}",choice,ct,binary,repulsion,1,laptops,null,null,null,null,null,null,1,100,90,null,30,40,null,Processing speed,Memory (RAM),NA,NA
NA,NA,NA,NA,NA,choice_trial_setup,html-keyboard-response,14,103642,0.0-4.0-0.5,2,1,2025-04-28T14:51:26Z,054d9b9d151c9550f80989ebd54be3eb,"Mozilla/5.0 (Windows NT 10.0; Win64; x64) AppleWebKit/537.36 (KHTML, like Gecko) Chrome/135.0.0.0 Safari/537.36",WebKit,Chrome,135.0.0.0,Windows,10,https://5puzkbbxv1.cognition.run/?sona_id=57853,"en-US,en;q=0.9",mwswbyrxzuxpm55,18,"[""White""]",No,Male,NA,429157,NA,null,<p></p>,null,choice,tc,binary,repulsion,2,laptops,null,null,null,null,null,null,2,NA,NA,NA,NA,NA,NA,NA,NA,NA,NA
NA,NA,NA,NA,NA,choice_trial,survey-html-form,15,109036,0.0-4.0-1.5,2,1,2025-04-28T14:51:26Z,054d9b9d151c9550f80989ebd54be3eb,"Mozilla/5.0 (Windows NT 10.0; Win64; x64) AppleWebKit/537.36 (KHTML, like Gecko) Chrome/135.0.0.0 Safari/537.36",WebKit,Chrome,135.0.0.0,Windows,10,https://5puzkbbxv1.cognition.run/?sona_id=57853,"en-US,en;q=0.9",mwswbyrxzuxpm55,18,"[""White""]",No,Male,NA,429157,NA,5393,NA,"{""product_choice"":""B""}",choice,tc,binary,repulsion,2,laptops,null,null,null,null,null,null,2,30,40,null,100,90,null,Processing speed,Memory (RAM),NA,NA
NA,NA,NA,NA,NA,choice_trial_setup,html-keyboard-response,16,109338,0.0-4.0-0.6,2,1,2025-04-28T14:51:26Z,054d9b9d151c9550f80989ebd54be3eb,"Mozilla/5.0 (Windows NT 10.0; Win64; x64) AppleWebKit/537.36 (KHTML, like Gecko) Chrome/135.0.0.0 Safari/537.36",WebKit,Chrome,135.0.0.0,Windows,10,https://5puzkbbxv1.cognition.run/?sona_id=57853,"en-US,en;q=0.9",mwswbyrxzuxpm55,18,"[""White""]",No,Male,NA,429157,NA,null,<p></p>,null,choice,wb,binary,catch,null,microwave ovens,65,85,10,20,null,null,1,NA,NA,NA,NA,NA,NA,NA,NA,NA,NA
NA,NA,NA,NA,NA,choice_trial,survey-html-form,17,117248,0.0-4.0-1.6,2,1,2025-04-28T14:51:26Z,054d9b9d151c9550f80989ebd54be3eb,"Mozilla/5.0 (Windows NT 10.0; Win64; x64) AppleWebKit/537.36 (KHTML, like Gecko) Chrome/135.0.0.0 Safari/537.36",WebKit,Chrome,135.0.0.0,Windows,10,https://5puzkbbxv1.cognition.run/?sona_id=57853,"en-US,en;q=0.9",mwswbyrxzuxpm55,18,"[""White""]",No,Male,NA,429157,NA,7908,NA,"{""product_choice"":""B""}",choice,wb,binary,catch,null,microwave ovens,65,85,10,20,null,null,1,null,null,null,null,null,null,Warranty,Cooking power,NA,NA
NA,NA,NA,NA,NA,choice_trial_setup,html-keyboard-response,18,117550,0.0-4.0-0.7,2,1,2025-04-28T14:51:26Z,054d9b9d151c9550f80989ebd54be3eb,"Mozilla/5.0 (Windows NT 10.0; Win64; x64) AppleWebKit/537.36 (KHTML, like Gecko) Chrome/135.0.0.0 Safari/537.36",WebKit,Chrome,135.0.0.0,Windows,10,https://5puzkbbxv1.cognition.run/?sona_id=57853,"en-US,en;q=0.9",mwswbyrxzuxpm55,18,"[""White""]",No,Male,NA,429157,NA,null,<p></p>,null,choice,ct,binary,repulsion,1,televisions,null,null,null,null,null,null,2,NA,NA,NA,NA,NA,NA,NA,NA,NA,NA
NA,NA,NA,NA,NA,choice_trial,survey-html-form,19,126816,0.0-4.0-1.7,2,1,2025-04-28T14:51:26Z,054d9b9d151c9550f80989ebd54be3eb,"Mozilla/5.0 (Windows NT 10.0; Win64; x64) AppleWebKit/537.36 (KHTML, like Gecko) Chrome/135.0.0.0 Safari/537.36",WebKit,Chrome,135.0.0.0,Windows,10,https://5puzkbbxv1.cognition.run/?sona_id=57853,"en-US,en;q=0.9",mwswbyrxzuxpm55,18,"[""White""]",No,Male,NA,429157,NA,9265,NA,"{""product_choice"":""B""}",choice,ct,binary,repulsion,1,televisions,null,null,null,null,null,null,2,100,90,null,30,40,null,Screen size,Average lifespan,NA,NA
NA,NA,NA,NA,NA,choice_trial_setup,html-keyboard-response,20,127117,0.0-4.0-0.8,2,1,2025-04-28T14:51:26Z,054d9b9d151c9550f80989ebd54be3eb,"Mozilla/5.0 (Windows NT 10.0; Win64; x64) AppleWebKit/537.36 (KHTML, like Gecko) Chrome/135.0.0.0 Safari/537.36",WebKit,Chrome,135.0.0.0,Windows,10,https://5puzkbbxv1.cognition.run/?sona_id=57853,"en-US,en;q=0.9",mwswbyrxzuxpm55,18,"[""White""]",No,Male,NA,429157,NA,null,<p></p>,null,choice,tc,binary,repulsion,2,televisions,null,null,null,null,null,null,1,NA,NA,NA,NA,NA,NA,NA,NA,NA,NA
NA,NA,NA,NA,NA,choice_trial,survey-html-form,21,131500,0.0-4.0-1.8,2,1,2025-04-28T14:51:26Z,054d9b9d151c9550f80989ebd54be3eb,"Mozilla/5.0 (Windows NT 10.0; Win64; x64) AppleWebKit/537.36 (KHTML, like Gecko) Chrome/135.0.0.0 Safari/537.36",WebKit,Chrome,135.0.0.0,Windows,10,https://5puzkbbxv1.cognition.run/?sona_id=57853,"en-US,en;q=0.9",mwswbyrxzuxpm55,18,"[""White""]",No,Male,NA,429157,NA,4381,NA,"{""product_choice"":""B""}",choice,tc,binary,repulsion,2,televisions,null,null,null,null,null,null,1,30,40,null,100,90,null,Screen size,Average lifespan,NA,NA
NA,NA,NA,NA,NA,choice_trial_setup,html-keyboard-response,22,131802,0.0-4.0-0.9,2,1,2025-04-28T14:51:26Z,054d9b9d151c9550f80989ebd54be3eb,"Mozilla/5.0 (Windows NT 10.0; Win64; x64) AppleWebKit/537.36 (KHTML, like Gecko) Chrome/135.0.0.0 Safari/537.36",WebKit,Chrome,135.0.0.0,Windows,10,https://5puzkbbxv1.cognition.run/?sona_id=57853,"en-US,en;q=0.9",mwswbyrxzuxpm55,18,"[""White""]",No,Male,NA,429157,NA,null,<p></p>,null,choice,tcd,trinary,repulsion_A,2,washing machines,null,null,null,null,null,null,1,NA,NA,NA,NA,NA,NA,NA,NA,NA,NA
NA,NA,NA,NA,NA,choice_trial,survey-html-form,23,138872,0.0-4.0-1.9,2,1,2025-04-28T14:51:26Z,054d9b9d151c9550f80989ebd54be3eb,"Mozilla/5.0 (Windows NT 10.0; Win64; x64) AppleWebKit/537.36 (KHTML, like Gecko) Chrome/135.0.0.0 Safari/537.36",WebKit,Chrome,135.0.0.0,Windows,10,https://5puzkbbxv1.cognition.run/?sona_id=57853,"en-US,en;q=0.9",mwswbyrxzuxpm55,18,"[""White""]",No,Male,NA,429157,NA,7069,NA,"{""product_choice"":""B""}",choice,tcd,trinary,repulsion_A,2,washing machines,null,null,null,null,null,null,1,30,40,20,100,90,100,Average lifespan,Energy savings,NA,NA
NA,NA,NA,NA,NA,choice_trial_setup,html-keyboard-response,24,139173,0.0-4.0-0.10,2,1,2025-04-28T14:51:26Z,054d9b9d151c9550f80989ebd54be3eb,"Mozilla/5.0 (Windows NT 10.0; Win64; x64) AppleWebKit/537.36 (KHTML, like Gecko) Chrome/135.0.0.0 Safari/537.36",WebKit,Chrome,135.0.0.0,Windows,10,https://5puzkbbxv1.cognition.run/?sona_id=57853,"en-US,en;q=0.9",mwswbyrxzuxpm55,18,"[""White""]",No,Male,NA,429157,NA,null,<p></p>,null,choice,dct,trinary,repulsion_B,2,televisions,null,null,null,null,null,null,2,NA,NA,NA,NA,NA,NA,NA,NA,NA,NA
NA,NA,NA,NA,NA,choice_trial,survey-html-form,25,151696,0.0-4.0-1.10,2,1,2025-04-28T14:51:26Z,054d9b9d151c9550f80989ebd54be3eb,"Mozilla/5.0 (Windows NT 10.0; Win64; x64) AppleWebKit/537.36 (KHTML, like Gecko) Chrome/135.0.0.0 Safari/537.36",WebKit,Chrome,135.0.0.0,Windows,10,https://5puzkbbxv1.cognition.run/?sona_id=57853,"en-US,en;q=0.9",mwswbyrxzuxpm55,18,"[""White""]",No,Male,NA,429157,NA,12521,NA,"{""product_choice"":""C""}",choice,dct,trinary,repulsion_B,2,televisions,null,null,null,null,null,null,2,40,30,40,90,100,80,Screen size,Average lifespan,NA,NA
NA,NA,NA,NA,NA,choice_trial_setup,html-keyboard-response,26,151997,0.0-4.0-0.11,2,1,2025-04-28T14:51:26Z,054d9b9d151c9550f80989ebd54be3eb,"Mozilla/5.0 (Windows NT 10.0; Win64; x64) AppleWebKit/537.36 (KHTML, like Gecko) Chrome/135.0.0.0 Safari/537.36",WebKit,Chrome,135.0.0.0,Windows,10,https://5puzkbbxv1.cognition.run/?sona_id=57853,"en-US,en;q=0.9",mwswbyrxzuxpm55,18,"[""White""]",No,Male,NA,429157,NA,null,<p></p>,null,choice,tdc,trinary,attraction,2,laptops,null,null,null,null,null,null,1,NA,NA,NA,NA,NA,NA,NA,NA,NA,NA
NA,NA,NA,NA,NA,choice_trial,survey-html-form,27,159803,0.0-4.0-1.11,2,1,2025-04-28T14:51:26Z,054d9b9d151c9550f80989ebd54be3eb,"Mozilla/5.0 (Windows NT 10.0; Win64; x64) AppleWebKit/537.36 (KHTML, like Gecko) Chrome/135.0.0.0 Safari/537.36",WebKit,Chrome,135.0.0.0,Windows,10,https://5puzkbbxv1.cognition.run/?sona_id=57853,"en-US,en;q=0.9",mwswbyrxzuxpm55,18,"[""White""]",No,Male,NA,429157,NA,7806,NA,"{""product_choice"":""C""}",choice,tdc,trinary,attraction,2,laptops,null,null,null,null,null,null,1,50,60,40,60,50,60,Processing speed,Memory (RAM),NA,NA
NA,NA,NA,NA,NA,choice_trial_setup,html-keyboard-response,28,160105,0.0-4.0-0.12,2,1,2025-04-28T14:51:26Z,054d9b9d151c9550f80989ebd54be3eb,"Mozilla/5.0 (Windows NT 10.0; Win64; x64) AppleWebKit/537.36 (KHTML, like Gecko) Chrome/135.0.0.0 Safari/537.36",WebKit,Chrome,135.0.0.0,Windows,10,https://5puzkbbxv1.cognition.run/?sona_id=57853,"en-US,en;q=0.9",mwswbyrxzuxpm55,18,"[""White""]",No,Male,NA,429157,NA,null,<p></p>,null,choice,ct,binary,repulsion,1,washing machines,null,null,null,null,null,null,1,NA,NA,NA,NA,NA,NA,NA,NA,NA,NA
NA,NA,NA,NA,NA,choice_trial,survey-html-form,29,166535,0.0-4.0-1.12,2,1,2025-04-28T14:51:26Z,054d9b9d151c9550f80989ebd54be3eb,"Mozilla/5.0 (Windows NT 10.0; Win64; x64) AppleWebKit/537.36 (KHTML, like Gecko) Chrome/135.0.0.0 Safari/537.36",WebKit,Chrome,135.0.0.0,Windows,10,https://5puzkbbxv1.cognition.run/?sona_id=57853,"en-US,en;q=0.9",mwswbyrxzuxpm55,18,"[""White""]",No,Male,NA,429157,NA,6428,NA,"{""product_choice"":""B""}",choice,ct,binary,repulsion,1,washing machines,null,null,null,null,null,null,1,100,90,null,30,40,null,Average lifespan,Energy savings,NA,NA
NA,NA,NA,NA,NA,choice_trial_setup,html-keyboard-response,30,166838,0.0-4.0-0.13,2,1,2025-04-28T14:51:26Z,054d9b9d151c9550f80989ebd54be3eb,"Mozilla/5.0 (Windows NT 10.0; Win64; x64) AppleWebKit/537.36 (KHTML, like Gecko) Chrome/135.0.0.0 Safari/537.36",WebKit,Chrome,135.0.0.0,Windows,10,https://5puzkbbxv1.cognition.run/?sona_id=57853,"en-US,en;q=0.9",mwswbyrxzuxpm55,18,"[""White""]",No,Male,NA,429157,NA,null,<p></p>,null,choice,tdc,trinary,attraction,1,laptops,null,null,null,null,null,null,1,NA,NA,NA,NA,NA,NA,NA,NA,NA,NA
NA,NA,NA,NA,NA,choice_trial,survey-html-form,31,176491,0.0-4.0-1.13,2,1,2025-04-28T14:51:26Z,054d9b9d151c9550f80989ebd54be3eb,"Mozilla/5.0 (Windows NT 10.0; Win64; x64) AppleWebKit/537.36 (KHTML, like Gecko) Chrome/135.0.0.0 Safari/537.36",WebKit,Chrome,135.0.0.0,Windows,10,https://5puzkbbxv1.cognition.run/?sona_id=57853,"en-US,en;q=0.9",mwswbyrxzuxpm55,18,"[""White""]",No,Male,NA,429157,NA,9652,NA,"{""product_choice"":""A""}",choice,tdc,trinary,attraction,1,laptops,null,null,null,null,null,null,1,60,50,60,50,60,40,Processing speed,Memory (RAM),NA,NA
NA,NA,NA,NA,NA,choice_trial_setup,html-keyboard-response,32,176793,0.0-4.0-0.14,2,1,2025-04-28T14:51:26Z,054d9b9d151c9550f80989ebd54be3eb,"Mozilla/5.0 (Windows NT 10.0; Win64; x64) AppleWebKit/537.36 (KHTML, like Gecko) Chrome/135.0.0.0 Safari/537.36",WebKit,Chrome,135.0.0.0,Windows,10,https://5puzkbbxv1.cognition.run/?sona_id=57853,"en-US,en;q=0.9",mwswbyrxzuxpm55,18,"[""White""]",No,Male,NA,429157,NA,null,<p></p>,null,choice,dtc,trinary,attraction,1,televisions,null,null,null,null,null,null,1,NA,NA,NA,NA,NA,NA,NA,NA,NA,NA
NA,NA,NA,NA,NA,choice_trial,survey-html-form,33,182683,0.0-4.0-1.14,2,1,2025-04-28T14:51:26Z,054d9b9d151c9550f80989ebd54be3eb,"Mozilla/5.0 (Windows NT 10.0; Win64; x64) AppleWebKit/537.36 (KHTML, like Gecko) Chrome/135.0.0.0 Safari/537.36",WebKit,Chrome,135.0.0.0,Windows,10,https://5puzkbbxv1.cognition.run/?sona_id=57853,"en-US,en;q=0.9",mwswbyrxzuxpm55,18,"[""White""]",No,Male,NA,429157,NA,5888,NA,"{""product_choice"":""B""}",choice,dtc,trinary,attraction,1,televisions,null,null,null,null,null,null,1,60,50,60,50,60,40,Screen size,Average lifespan,NA,NA
NA,NA,NA,NA,NA,choice_trial_setup,html-keyboard-response,34,182985,0.0-4.0-0.15,2,1,2025-04-28T14:51:26Z,054d9b9d151c9550f80989ebd54be3eb,"Mozilla/5.0 (Windows NT 10.0; Win64; x64) AppleWebKit/537.36 (KHTML, like Gecko) Chrome/135.0.0.0 Safari/537.36",WebKit,Chrome,135.0.0.0,Windows,10,https://5puzkbbxv1.cognition.run/?sona_id=57853,"en-US,en;q=0.9",mwswbyrxzuxpm55,18,"[""White""]",No,Male,NA,429157,NA,null,<p></p>,null,choice,cdt,trinary,repulsion_A,2,laptops,null,null,null,null,null,null,1,NA,NA,NA,NA,NA,NA,NA,NA,NA,NA
NA,NA,NA,NA,NA,choice_trial,survey-html-form,35,189559,0.0-4.0-1.15,2,1,2025-04-28T14:51:26Z,054d9b9d151c9550f80989ebd54be3eb,"Mozilla/5.0 (Windows NT 10.0; Win64; x64) AppleWebKit/537.36 (KHTML, like Gecko) Chrome/135.0.0.0 Safari/537.36",WebKit,Chrome,135.0.0.0,Windows,10,https://5puzkbbxv1.cognition.run/?sona_id=57853,"en-US,en;q=0.9",mwswbyrxzuxpm55,18,"[""White""]",No,Male,NA,429157,NA,6572,NA,"{""product_choice"":""A""}",choice,cdt,trinary,repulsion_A,2,laptops,null,null,null,null,null,null,1,30,40,20,100,90,100,Processing speed,Memory (RAM),NA,NA
NA,NA,NA,NA,NA,choice_trial_setup,html-keyboard-response,36,189861,0.0-4.0-0.16,2,1,2025-04-28T14:51:26Z,054d9b9d151c9550f80989ebd54be3eb,"Mozilla/5.0 (Windows NT 10.0; Win64; x64) AppleWebKit/537.36 (KHTML, like Gecko) Chrome/135.0.0.0 Safari/537.36",WebKit,Chrome,135.0.0.0,Windows,10,https://5puzkbbxv1.cognition.run/?sona_id=57853,"en-US,en;q=0.9",mwswbyrxzuxpm55,18,"[""White""]",No,Male,NA,429157,NA,null,<p></p>,null,choice,dtc,trinary,repulsion_B,2,microwave ovens,null,null,null,null,null,null,1,NA,NA,NA,NA,NA,NA,NA,NA,NA,NA
NA,NA,NA,NA,NA,choice_trial,survey-html-form,37,195294,0.0-4.0-1.16,2,1,2025-04-28T14:51:26Z,054d9b9d151c9550f80989ebd54be3eb,"Mozilla/5.0 (Windows NT 10.0; Win64; x64) AppleWebKit/537.36 (KHTML, like Gecko) Chrome/135.0.0.0 Safari/537.36",WebKit,Chrome,135.0.0.0,Windows,10,https://5puzkbbxv1.cognition.run/?sona_id=57853,"en-US,en;q=0.9",mwswbyrxzuxpm55,18,"[""White""]",No,Male,NA,429157,NA,5432,NA,"{""product_choice"":""B""}",choice,dtc,trinary,repulsion_B,2,microwave ovens,null,null,null,null,null,null,1,40,30,40,90,100,80,Warranty,Cooking power,NA,NA
NA,NA,NA,NA,NA,choice_trial_setup,html-keyboard-response,38,195597,0.0-4.0-0.17,2,1,2025-04-28T14:51:26Z,054d9b9d151c9550f80989ebd54be3eb,"Mozilla/5.0 (Windows NT 10.0; Win64; x64) AppleWebKit/537.36 (KHTML, like Gecko) Chrome/135.0.0.0 Safari/537.36",WebKit,Chrome,135.0.0.0,Windows,10,https://5puzkbbxv1.cognition.run/?sona_id=57853,"en-US,en;q=0.9",mwswbyrxzuxpm55,18,"[""White""]",No,Male,NA,429157,NA,null,<p></p>,null,choice,ct,binary,attraction,NA,microwave ovens,null,null,null,null,null,null,1,NA,NA,NA,NA,NA,NA,NA,NA,NA,NA
NA,NA,NA,NA,NA,choice_trial,survey-html-form,39,200887,0.0-4.0-1.17,2,1,2025-04-28T14:51:26Z,054d9b9d151c9550f80989ebd54be3eb,"Mozilla/5.0 (Windows NT 10.0; Win64; x64) AppleWebKit/537.36 (KHTML, like Gecko) Chrome/135.0.0.0 Safari/537.36",WebKit,Chrome,135.0.0.0,Windows,10,https://5puzkbbxv1.cognition.run/?sona_id=57853,"en-US,en;q=0.9",mwswbyrxzuxpm55,18,"[""White""]",No,Male,NA,429157,NA,5289,NA,"{""product_choice"":""A""}",choice,ct,binary,attraction,NA,microwave ovens,null,null,null,null,null,null,1,60,50,null,50,60,null,Warranty,Cooking power,NA,NA
NA,NA,NA,NA,NA,choice_trial_setup,html-keyboard-response,40,201189,0.0-4.0-0.18,2,1,2025-04-28T14:51:26Z,054d9b9d151c9550f80989ebd54be3eb,"Mozilla/5.0 (Windows NT 10.0; Win64; x64) AppleWebKit/537.36 (KHTML, like Gecko) Chrome/135.0.0.0 Safari/537.36",WebKit,Chrome,135.0.0.0,Windows,10,https://5puzkbbxv1.cognition.run/?sona_id=57853,"en-US,en;q=0.9",mwswbyrxzuxpm55,18,"[""White""]",No,Male,NA,429157,NA,null,<p></p>,null,choice,cdt,trinary,repulsion_B,2,laptops,null,null,null,null,null,null,1,NA,NA,NA,NA,NA,NA,NA,NA,NA,NA
NA,NA,NA,NA,NA,choice_trial,survey-html-form,41,208471,0.0-4.0-1.18,2,1,2025-04-28T14:51:26Z,054d9b9d151c9550f80989ebd54be3eb,"Mozilla/5.0 (Windows NT 10.0; Win64; x64) AppleWebKit/537.36 (KHTML, like Gecko) Chrome/135.0.0.0 Safari/537.36",WebKit,Chrome,135.0.0.0,Windows,10,https://5puzkbbxv1.cognition.run/?sona_id=57853,"en-US,en;q=0.9",mwswbyrxzuxpm55,18,"[""White""]",No,Male,NA,429157,NA,7281,NA,"{""product_choice"":""C""}",choice,cdt,trinary,repulsion_B,2,laptops,null,null,null,null,null,null,1,40,30,40,90,100,80,Processing speed,Memory (RAM),NA,NA
NA,NA,NA,NA,NA,choice_trial_setup,html-keyboard-response,42,208772,0.0-4.0-0.19,2,1,2025-04-28T14:51:26Z,054d9b9d151c9550f80989ebd54be3eb,"Mozilla/5.0 (Windows NT 10.0; Win64; x64) AppleWebKit/537.36 (KHTML, like Gecko) Chrome/135.0.0.0 Safari/537.36",WebKit,Chrome,135.0.0.0,Windows,10,https://5puzkbbxv1.cognition.run/?sona_id=57853,"en-US,en;q=0.9",mwswbyrxzuxpm55,18,"[""White""]",No,Male,NA,429157,NA,null,<p></p>,null,choice,wbw,trinary,catch,null,televisions,75,70,40,35,45,45,2,NA,NA,NA,NA,NA,NA,NA,NA,NA,NA
NA,NA,NA,NA,NA,choice_trial,survey-html-form,43,214134,0.0-4.0-1.19,2,1,2025-04-28T14:51:26Z,054d9b9d151c9550f80989ebd54be3eb,"Mozilla/5.0 (Windows NT 10.0; Win64; x64) AppleWebKit/537.36 (KHTML, like Gecko) Chrome/135.0.0.0 Safari/537.36",WebKit,Chrome,135.0.0.0,Windows,10,https://5puzkbbxv1.cognition.run/?sona_id=57853,"en-US,en;q=0.9",mwswbyrxzuxpm55,18,"[""White""]",No,Male,NA,429157,NA,5361,NA,"{""product_choice"":""B""}",choice,wbw,trinary,catch,null,televisions,75,70,40,35,45,45,2,null,null,null,null,null,null,Screen size,Average lifespan,NA,NA
NA,NA,NA,NA,NA,choice_trial_setup,html-keyboard-response,44,214436,0.0-4.0-0.20,2,1,2025-04-28T14:51:26Z,054d9b9d151c9550f80989ebd54be3eb,"Mozilla/5.0 (Windows NT 10.0; Win64; x64) AppleWebKit/537.36 (KHTML, like Gecko) Chrome/135.0.0.0 Safari/537.36",WebKit,Chrome,135.0.0.0,Windows,10,https://5puzkbbxv1.cognition.run/?sona_id=57853,"en-US,en;q=0.9",mwswbyrxzuxpm55,18,"[""White""]",No,Male,NA,429157,NA,null,<p></p>,null,choice,wb,binary,catch,null,washing machines,95,80,20,10,null,null,1,NA,NA,NA,NA,NA,NA,NA,NA,NA,NA
NA,NA,NA,NA,NA,choice_trial,survey-html-form,45,218007,0.0-4.0-1.20,2,1,2025-04-28T14:51:26Z,054d9b9d151c9550f80989ebd54be3eb,"Mozilla/5.0 (Windows NT 10.0; Win64; x64) AppleWebKit/537.36 (KHTML, like Gecko) Chrome/135.0.0.0 Safari/537.36",WebKit,Chrome,135.0.0.0,Windows,10,https://5puzkbbxv1.cognition.run/?sona_id=57853,"en-US,en;q=0.9",mwswbyrxzuxpm55,18,"[""White""]",No,Male,NA,429157,NA,3570,NA,"{""product_choice"":""B""}",choice,wb,binary,catch,null,washing machines,95,80,20,10,null,null,1,null,null,null,null,null,null,Average lifespan,Energy savings,NA,NA
NA,NA,NA,NA,NA,choice_trial_setup,html-keyboard-response,46,218308,0.0-4.0-0.21,2,1,2025-04-28T14:51:26Z,054d9b9d151c9550f80989ebd54be3eb,"Mozilla/5.0 (Windows NT 10.0; Win64; x64) AppleWebKit/537.36 (KHTML, like Gecko) Chrome/135.0.0.0 Safari/537.36",WebKit,Chrome,135.0.0.0,Windows,10,https://5puzkbbxv1.cognition.run/?sona_id=57853,"en-US,en;q=0.9",mwswbyrxzuxpm55,18,"[""White""]",No,Male,NA,429157,NA,null,<p></p>,null,choice,dct,trinary,attraction,2,televisions,null,null,null,null,null,null,2,NA,NA,NA,NA,NA,NA,NA,NA,NA,NA
NA,NA,NA,NA,NA,choice_trial,survey-html-form,47,223926,0.0-4.0-1.21,2,1,2025-04-28T14:51:26Z,054d9b9d151c9550f80989ebd54be3eb,"Mozilla/5.0 (Windows NT 10.0; Win64; x64) AppleWebKit/537.36 (KHTML, like Gecko) Chrome/135.0.0.0 Safari/537.36",WebKit,Chrome,135.0.0.0,Windows,10,https://5puzkbbxv1.cognition.run/?sona_id=57853,"en-US,en;q=0.9",mwswbyrxzuxpm55,18,"[""White""]",No,Male,NA,429157,NA,5615,NA,"{""product_choice"":""C""}",choice,dct,trinary,attraction,2,televisions,null,null,null,null,null,null,2,50,60,40,60,50,60,Screen size,Average lifespan,NA,NA
NA,NA,NA,NA,NA,choice_trial_setup,html-keyboard-response,48,224228,0.0-4.0-0.22,2,1,2025-04-28T14:51:26Z,054d9b9d151c9550f80989ebd54be3eb,"Mozilla/5.0 (Windows NT 10.0; Win64; x64) AppleWebKit/537.36 (KHTML, like Gecko) Chrome/135.0.0.0 Safari/537.36",WebKit,Chrome,135.0.0.0,Windows,10,https://5puzkbbxv1.cognition.run/?sona_id=57853,"en-US,en;q=0.9",mwswbyrxzuxpm55,18,"[""White""]",No,Male,NA,429157,NA,null,<p></p>,null,choice,cdt,trinary,repulsion_A,1,laptops,null,null,null,null,null,null,2,NA,NA,NA,NA,NA,NA,NA,NA,NA,NA
NA,NA,NA,NA,NA,choice_trial,survey-html-form,49,231626,0.0-4.0-1.22,2,1,2025-04-28T14:51:26Z,054d9b9d151c9550f80989ebd54be3eb,"Mozilla/5.0 (Windows NT 10.0; Win64; x64) AppleWebKit/537.36 (KHTML, like Gecko) Chrome/135.0.0.0 Safari/537.36",WebKit,Chrome,135.0.0.0,Windows,10,https://5puzkbbxv1.cognition.run/?sona_id=57853,"en-US,en;q=0.9",mwswbyrxzuxpm55,18,"[""White""]",No,Male,NA,429157,NA,7396,NA,"{""product_choice"":""A""}",choice,cdt,trinary,repulsion_A,1,laptops,null,null,null,null,null,null,2,100,90,100,30,40,20,Processing speed,Memory (RAM),NA,NA
NA,NA,NA,NA,NA,choice_trial_setup,html-keyboard-response,50,231928,0.0-4.0-0.23,2,1,2025-04-28T14:51:26Z,054d9b9d151c9550f80989ebd54be3eb,"Mozilla/5.0 (Windows NT 10.0; Win64; x64) AppleWebKit/537.36 (KHTML, like Gecko) Chrome/135.0.0.0 Safari/537.36",WebKit,Chrome,135.0.0.0,Windows,10,https://5puzkbbxv1.cognition.run/?sona_id=57853,"en-US,en;q=0.9",mwswbyrxzuxpm55,18,"[""White""]",No,Male,NA,429157,NA,null,<p></p>,null,choice,dct,trinary,repulsion_B,2,washing machines,null,null,null,null,null,null,1,NA,NA,NA,NA,NA,NA,NA,NA,NA,NA
NA,NA,NA,NA,NA,choice_trial,survey-html-form,51,237154,0.0-4.0-1.23,2,1,2025-04-28T14:51:26Z,054d9b9d151c9550f80989ebd54be3eb,"Mozilla/5.0 (Windows NT 10.0; Win64; x64) AppleWebKit/537.36 (KHTML, like Gecko) Chrome/135.0.0.0 Safari/537.36",WebKit,Chrome,135.0.0.0,Windows,10,https://5puzkbbxv1.cognition.run/?sona_id=57853,"en-US,en;q=0.9",mwswbyrxzuxpm55,18,"[""White""]",No,Male,NA,429157,NA,5223,NA,"{""product_choice"":""C""}",choice,dct,trinary,repulsion_B,2,washing machines,null,null,null,null,null,null,1,40,30,40,90,100,80,Average lifespan,Energy savings,NA,NA
NA,NA,NA,NA,NA,choice_trial_setup,html-keyboard-response,52,237455,0.0-4.0-0.24,2,1,2025-04-28T14:51:26Z,054d9b9d151c9550f80989ebd54be3eb,"Mozilla/5.0 (Windows NT 10.0; Win64; x64) AppleWebKit/537.36 (KHTML, like Gecko) Chrome/135.0.0.0 Safari/537.36",WebKit,Chrome,135.0.0.0,Windows,10,https://5puzkbbxv1.cognition.run/?sona_id=57853,"en-US,en;q=0.9",mwswbyrxzuxpm55,18,"[""White""]",No,Male,NA,429157,NA,null,<p></p>,null,choice,tcd,trinary,attraction,1,microwave ovens,null,null,null,null,null,null,2,NA,NA,NA,NA,NA,NA,NA,NA,NA,NA
NA,NA,NA,NA,NA,choice_trial,survey-html-form,53,243618,0.0-4.0-1.24,2,1,2025-04-28T14:51:26Z,054d9b9d151c9550f80989ebd54be3eb,"Mozilla/5.0 (Windows NT 10.0; Win64; x64) AppleWebKit/537.36 (KHTML, like Gecko) Chrome/135.0.0.0 Safari/537.36",WebKit,Chrome,135.0.0.0,Windows,10,https://5puzkbbxv1.cognition.run/?sona_id=57853,"en-US,en;q=0.9",mwswbyrxzuxpm55,18,"[""White""]",No,Male,NA,429157,NA,6161,NA,"{""product_choice"":""A""}",choice,tcd,trinary,attraction,1,microwave ovens,null,null,null,null,null,null,2,60,50,60,50,60,40,Warranty,Cooking power,NA,NA
NA,NA,NA,NA,NA,choice_trial_setup,html-keyboard-response,54,243927,0.0-4.0-0.25,2,1,2025-04-28T14:51:26Z,054d9b9d151c9550f80989ebd54be3eb,"Mozilla/5.0 (Windows NT 10.0; Win64; x64) AppleWebKit/537.36 (KHTML, like Gecko) Chrome/135.0.0.0 Safari/537.36",WebKit,Chrome,135.0.0.0,Windows,10,https://5puzkbbxv1.cognition.run/?sona_id=57853,"en-US,en;q=0.9",mwswbyrxzuxpm55,18,"[""White""]",No,Male,NA,429157,NA,null,<p></p>,null,choice,tdc,trinary,repulsion_A,1,washing machines,null,null,null,null,null,null,2,NA,NA,NA,NA,NA,NA,NA,NA,NA,NA
NA,NA,NA,NA,NA,choice_trial,survey-html-form,55,247078,0.0-4.0-1.25,2,1,2025-04-28T14:51:26Z,054d9b9d151c9550f80989ebd54be3eb,"Mozilla/5.0 (Windows NT 10.0; Win64; x64) AppleWebKit/537.36 (KHTML, like Gecko) Chrome/135.0.0.0 Safari/537.36",WebKit,Chrome,135.0.0.0,Windows,10,https://5puzkbbxv1.cognition.run/?sona_id=57853,"en-US,en;q=0.9",mwswbyrxzuxpm55,18,"[""White""]",No,Male,NA,429157,NA,3149,NA,"{""product_choice"":""C""}",choice,tdc,trinary,repulsion_A,1,washing machines,null,null,null,null,null,null,2,100,90,100,30,40,20,Average lifespan,Energy savings,NA,NA
NA,NA,NA,NA,NA,choice_trial_setup,html-keyboard-response,56,247380,0.0-4.0-0.26,2,1,2025-04-28T14:51:26Z,054d9b9d151c9550f80989ebd54be3eb,"Mozilla/5.0 (Windows NT 10.0; Win64; x64) AppleWebKit/537.36 (KHTML, like Gecko) Chrome/135.0.0.0 Safari/537.36",WebKit,Chrome,135.0.0.0,Windows,10,https://5puzkbbxv1.cognition.run/?sona_id=57853,"en-US,en;q=0.9",mwswbyrxzuxpm55,18,"[""White""]",No,Male,NA,429157,NA,null,<p></p>,null,choice,ctd,trinary,repulsion_B,1,televisions,null,null,null,null,null,null,2,NA,NA,NA,NA,NA,NA,NA,NA,NA,NA
NA,NA,NA,NA,NA,choice_trial,survey-html-form,57,251326,0.0-4.0-1.26,2,1,2025-04-28T14:51:26Z,054d9b9d151c9550f80989ebd54be3eb,"Mozilla/5.0 (Windows NT 10.0; Win64; x64) AppleWebKit/537.36 (KHTML, like Gecko) Chrome/135.0.0.0 Safari/537.36",WebKit,Chrome,135.0.0.0,Windows,10,https://5puzkbbxv1.cognition.run/?sona_id=57853,"en-US,en;q=0.9",mwswbyrxzuxpm55,18,"[""White""]",No,Male,NA,429157,NA,3944,NA,"{""product_choice"":""B""}",choice,ctd,trinary,repulsion_B,1,televisions,null,null,null,null,null,null,2,90,100,80,40,30,40,Screen size,Average lifespan,NA,NA
NA,NA,NA,NA,NA,choice_trial_setup,html-keyboard-response,58,251628,0.0-4.0-0.27,2,1,2025-04-28T14:51:26Z,054d9b9d151c9550f80989ebd54be3eb,"Mozilla/5.0 (Windows NT 10.0; Win64; x64) AppleWebKit/537.36 (KHTML, like Gecko) Chrome/135.0.0.0 Safari/537.36",WebKit,Chrome,135.0.0.0,Windows,10,https://5puzkbbxv1.cognition.run/?sona_id=57853,"en-US,en;q=0.9",mwswbyrxzuxpm55,18,"[""White""]",No,Male,NA,429157,NA,null,<p></p>,null,choice,dct,trinary,repulsion_B,1,microwave ovens,null,null,null,null,null,null,2,NA,NA,NA,NA,NA,NA,NA,NA,NA,NA
NA,NA,NA,NA,NA,choice_trial,survey-html-form,59,254962,0.0-4.0-1.27,2,1,2025-04-28T14:51:26Z,054d9b9d151c9550f80989ebd54be3eb,"Mozilla/5.0 (Windows NT 10.0; Win64; x64) AppleWebKit/537.36 (KHTML, like Gecko) Chrome/135.0.0.0 Safari/537.36",WebKit,Chrome,135.0.0.0,Windows,10,https://5puzkbbxv1.cognition.run/?sona_id=57853,"en-US,en;q=0.9",mwswbyrxzuxpm55,18,"[""White""]",No,Male,NA,429157,NA,3332,NA,"{""product_choice"":""C""}",choice,dct,trinary,repulsion_B,1,microwave ovens,null,null,null,null,null,null,2,90,100,80,40,30,40,Warranty,Cooking power,NA,NA
NA,NA,NA,NA,NA,choice_trial_setup,html-keyboard-response,60,255263,0.0-4.0-0.28,2,1,2025-04-28T14:51:26Z,054d9b9d151c9550f80989ebd54be3eb,"Mozilla/5.0 (Windows NT 10.0; Win64; x64) AppleWebKit/537.36 (KHTML, like Gecko) Chrome/135.0.0.0 Safari/537.36",WebKit,Chrome,135.0.0.0,Windows,10,https://5puzkbbxv1.cognition.run/?sona_id=57853,"en-US,en;q=0.9",mwswbyrxzuxpm55,18,"[""White""]",No,Male,NA,429157,NA,null,<p></p>,null,choice,ct,binary,repulsion,1,microwave ovens,null,null,null,null,null,null,2,NA,NA,NA,NA,NA,NA,NA,NA,NA,NA
NA,NA,NA,NA,NA,choice_trial,survey-html-form,61,259893,0.0-4.0-1.28,2,1,2025-04-28T14:51:26Z,054d9b9d151c9550f80989ebd54be3eb,"Mozilla/5.0 (Windows NT 10.0; Win64; x64) AppleWebKit/537.36 (KHTML, like Gecko) Chrome/135.0.0.0 Safari/537.36",WebKit,Chrome,135.0.0.0,Windows,10,https://5puzkbbxv1.cognition.run/?sona_id=57853,"en-US,en;q=0.9",mwswbyrxzuxpm55,18,"[""White""]",No,Male,NA,429157,NA,4627,NA,"{""product_choice"":""A""}",choice,ct,binary,repulsion,1,microwave ovens,null,null,null,null,null,null,2,100,90,null,30,40,null,Warranty,Cooking power,NA,NA
NA,NA,NA,NA,NA,choice_trial_setup,html-keyboard-response,62,260196,0.0-4.0-0.29,2,1,2025-04-28T14:51:26Z,054d9b9d151c9550f80989ebd54be3eb,"Mozilla/5.0 (Windows NT 10.0; Win64; x64) AppleWebKit/537.36 (KHTML, like Gecko) Chrome/135.0.0.0 Safari/537.36",WebKit,Chrome,135.0.0.0,Windows,10,https://5puzkbbxv1.cognition.run/?sona_id=57853,"en-US,en;q=0.9",mwswbyrxzuxpm55,18,"[""White""]",No,Male,NA,429157,NA,null,<p></p>,null,choice,ct,binary,repulsion,2,washing machines,null,null,null,null,null,null,2,NA,NA,NA,NA,NA,NA,NA,NA,NA,NA
NA,NA,NA,NA,NA,choice_trial,survey-html-form,63,264593,0.0-4.0-1.29,2,1,2025-04-28T14:51:26Z,054d9b9d151c9550f80989ebd54be3eb,"Mozilla/5.0 (Windows NT 10.0; Win64; x64) AppleWebKit/537.36 (KHTML, like Gecko) Chrome/135.0.0.0 Safari/537.36",WebKit,Chrome,135.0.0.0,Windows,10,https://5puzkbbxv1.cognition.run/?sona_id=57853,"en-US,en;q=0.9",mwswbyrxzuxpm55,18,"[""White""]",No,Male,NA,429157,NA,4396,NA,"{""product_choice"":""A""}",choice,ct,binary,repulsion,2,washing machines,null,null,null,null,null,null,2,30,40,null,100,90,null,Average lifespan,Energy savings,NA,NA
NA,NA,NA,NA,NA,choice_trial_setup,html-keyboard-response,64,264895,0.0-4.0-0.30,2,1,2025-04-28T14:51:26Z,054d9b9d151c9550f80989ebd54be3eb,"Mozilla/5.0 (Windows NT 10.0; Win64; x64) AppleWebKit/537.36 (KHTML, like Gecko) Chrome/135.0.0.0 Safari/537.36",WebKit,Chrome,135.0.0.0,Windows,10,https://5puzkbbxv1.cognition.run/?sona_id=57853,"en-US,en;q=0.9",mwswbyrxzuxpm55,18,"[""White""]",No,Male,NA,429157,NA,null,<p></p>,null,choice,dct,trinary,repulsion_A,2,televisions,null,null,null,null,null,null,1,NA,NA,NA,NA,NA,NA,NA,NA,NA,NA
NA,NA,NA,NA,NA,choice_trial,survey-html-form,65,272878,0.0-4.0-1.30,2,1,2025-04-28T14:51:26Z,054d9b9d151c9550f80989ebd54be3eb,"Mozilla/5.0 (Windows NT 10.0; Win64; x64) AppleWebKit/537.36 (KHTML, like Gecko) Chrome/135.0.0.0 Safari/537.36",WebKit,Chrome,135.0.0.0,Windows,10,https://5puzkbbxv1.cognition.run/?sona_id=57853,"en-US,en;q=0.9",mwswbyrxzuxpm55,18,"[""White""]",No,Male,NA,429157,NA,7981,NA,"{""product_choice"":""B""}",choice,dct,trinary,repulsion_A,2,televisions,null,null,null,null,null,null,1,30,40,20,100,90,100,Screen size,Average lifespan,NA,NA
NA,NA,NA,NA,NA,choice_trial_setup,html-keyboard-response,66,273181,0.0-4.0-0.31,2,1,2025-04-28T14:51:26Z,054d9b9d151c9550f80989ebd54be3eb,"Mozilla/5.0 (Windows NT 10.0; Win64; x64) AppleWebKit/537.36 (KHTML, like Gecko) Chrome/135.0.0.0 Safari/537.36",WebKit,Chrome,135.0.0.0,Windows,10,https://5puzkbbxv1.cognition.run/?sona_id=57853,"en-US,en;q=0.9",mwswbyrxzuxpm55,18,"[""White""]",No,Male,NA,429157,NA,null,<p></p>,null,choice,ct,binary,attraction,NA,televisions,null,null,null,null,null,null,1,NA,NA,NA,NA,NA,NA,NA,NA,NA,NA
NA,NA,NA,NA,NA,choice_trial,survey-html-form,67,278231,0.0-4.0-1.31,2,1,2025-04-28T14:51:26Z,054d9b9d151c9550f80989ebd54be3eb,"Mozilla/5.0 (Windows NT 10.0; Win64; x64) AppleWebKit/537.36 (KHTML, like Gecko) Chrome/135.0.0.0 Safari/537.36",WebKit,Chrome,135.0.0.0,Windows,10,https://5puzkbbxv1.cognition.run/?sona_id=57853,"en-US,en;q=0.9",mwswbyrxzuxpm55,18,"[""White""]",No,Male,NA,429157,NA,5048,NA,"{""product_choice"":""B""}",choice,ct,binary,attraction,NA,televisions,null,null,null,null,null,null,1,60,50,null,50,60,null,Screen size,Average lifespan,NA,NA
NA,NA,NA,NA,NA,choice_trial_setup,html-keyboard-response,68,278533,0.0-4.0-0.32,2,1,2025-04-28T14:51:26Z,054d9b9d151c9550f80989ebd54be3eb,"Mozilla/5.0 (Windows NT 10.0; Win64; x64) AppleWebKit/537.36 (KHTML, like Gecko) Chrome/135.0.0.0 Safari/537.36",WebKit,Chrome,135.0.0.0,Windows,10,https://5puzkbbxv1.cognition.run/?sona_id=57853,"en-US,en;q=0.9",mwswbyrxzuxpm55,18,"[""White""]",No,Male,NA,429157,NA,null,<p></p>,null,choice,wwb,trinary,catch,null,microwave ovens,65,70,10,50,15,45,1,NA,NA,NA,NA,NA,NA,NA,NA,NA,NA
NA,NA,NA,NA,NA,choice_trial,survey-html-form,69,286645,0.0-4.0-1.32,2,1,2025-04-28T14:51:26Z,054d9b9d151c9550f80989ebd54be3eb,"Mozilla/5.0 (Windows NT 10.0; Win64; x64) AppleWebKit/537.36 (KHTML, like Gecko) Chrome/135.0.0.0 Safari/537.36",WebKit,Chrome,135.0.0.0,Windows,10,https://5puzkbbxv1.cognition.run/?sona_id=57853,"en-US,en;q=0.9",mwswbyrxzuxpm55,18,"[""White""]",No,Male,NA,429157,NA,8109,NA,"{""product_choice"":""C""}",choice,wwb,trinary,catch,null,microwave ovens,65,70,10,50,15,45,1,null,null,null,null,null,null,Warranty,Cooking power,NA,NA
NA,NA,NA,NA,NA,choice_trial_setup,html-keyboard-response,70,286948,0.0-4.0-0.33,2,1,2025-04-28T14:51:26Z,054d9b9d151c9550f80989ebd54be3eb,"Mozilla/5.0 (Windows NT 10.0; Win64; x64) AppleWebKit/537.36 (KHTML, like Gecko) Chrome/135.0.0.0 Safari/537.36",WebKit,Chrome,135.0.0.0,Windows,10,https://5puzkbbxv1.cognition.run/?sona_id=57853,"en-US,en;q=0.9",mwswbyrxzuxpm55,18,"[""White""]",No,Male,NA,429157,NA,null,<p></p>,null,choice,ct,binary,attraction,NA,laptops,null,null,null,null,null,null,2,NA,NA,NA,NA,NA,NA,NA,NA,NA,NA
NA,NA,NA,NA,NA,choice_trial,survey-html-form,71,296409,0.0-4.0-1.33,2,1,2025-04-28T14:51:26Z,054d9b9d151c9550f80989ebd54be3eb,"Mozilla/5.0 (Windows NT 10.0; Win64; x64) AppleWebKit/537.36 (KHTML, like Gecko) Chrome/135.0.0.0 Safari/537.36",WebKit,Chrome,135.0.0.0,Windows,10,https://5puzkbbxv1.cognition.run/?sona_id=57853,"en-US,en;q=0.9",mwswbyrxzuxpm55,18,"[""White""]",No,Male,NA,429157,NA,9459,NA,"{""product_choice"":""B""}",choice,ct,binary,attraction,NA,laptops,null,null,null,null,null,null,2,60,50,null,50,60,null,Processing speed,Memory (RAM),NA,NA
NA,NA,NA,NA,NA,choice_trial_setup,html-keyboard-response,72,296712,0.0-4.0-0.34,2,1,2025-04-28T14:51:26Z,054d9b9d151c9550f80989ebd54be3eb,"Mozilla/5.0 (Windows NT 10.0; Win64; x64) AppleWebKit/537.36 (KHTML, like Gecko) Chrome/135.0.0.0 Safari/537.36",WebKit,Chrome,135.0.0.0,Windows,10,https://5puzkbbxv1.cognition.run/?sona_id=57853,"en-US,en;q=0.9",mwswbyrxzuxpm55,18,"[""White""]",No,Male,NA,429157,NA,null,<p></p>,null,choice,dct,trinary,attraction,2,washing machines,null,null,null,null,null,null,1,NA,NA,NA,NA,NA,NA,NA,NA,NA,NA
NA,NA,NA,NA,NA,choice_trial,survey-html-form,73,305029,0.0-4.0-1.34,2,1,2025-04-28T14:51:26Z,054d9b9d151c9550f80989ebd54be3eb,"Mozilla/5.0 (Windows NT 10.0; Win64; x64) AppleWebKit/537.36 (KHTML, like Gecko) Chrome/135.0.0.0 Safari/537.36",WebKit,Chrome,135.0.0.0,Windows,10,https://5puzkbbxv1.cognition.run/?sona_id=57853,"en-US,en;q=0.9",mwswbyrxzuxpm55,18,"[""White""]",No,Male,NA,429157,NA,8315,NA,"{""product_choice"":""B""}",choice,dct,trinary,attraction,2,washing machines,null,null,null,null,null,null,1,50,60,40,60,50,60,Average lifespan,Energy savings,NA,NA
NA,NA,NA,NA,NA,choice_trial_setup,html-keyboard-response,74,305331,0.0-4.0-0.35,2,1,2025-04-28T14:51:26Z,054d9b9d151c9550f80989ebd54be3eb,"Mozilla/5.0 (Windows NT 10.0; Win64; x64) AppleWebKit/537.36 (KHTML, like Gecko) Chrome/135.0.0.0 Safari/537.36",WebKit,Chrome,135.0.0.0,Windows,10,https://5puzkbbxv1.cognition.run/?sona_id=57853,"en-US,en;q=0.9",mwswbyrxzuxpm55,18,"[""White""]",No,Male,NA,429157,NA,null,<p></p>,null,choice,tc,binary,attraction,NA,washing machines,null,null,null,null,null,null,2,NA,NA,NA,NA,NA,NA,NA,NA,NA,NA
NA,NA,NA,NA,NA,choice_trial,survey-html-form,75,314013,0.0-4.0-1.35,2,1,2025-04-28T14:51:26Z,054d9b9d151c9550f80989ebd54be3eb,"Mozilla/5.0 (Windows NT 10.0; Win64; x64) AppleWebKit/537.36 (KHTML, like Gecko) Chrome/135.0.0.0 Safari/537.36",WebKit,Chrome,135.0.0.0,Windows,10,https://5puzkbbxv1.cognition.run/?sona_id=57853,"en-US,en;q=0.9",mwswbyrxzuxpm55,18,"[""White""]",No,Male,NA,429157,NA,8679,NA,"{""product_choice"":""A""}",choice,tc,binary,attraction,NA,washing machines,null,null,null,null,null,null,2,60,50,null,50,60,null,Average lifespan,Energy savings,NA,NA
NA,NA,NA,NA,NA,choice_trial_setup,html-keyboard-response,76,314315,0.0-4.0-0.36,2,1,2025-04-28T14:51:26Z,054d9b9d151c9550f80989ebd54be3eb,"Mozilla/5.0 (Windows NT 10.0; Win64; x64) AppleWebKit/537.36 (KHTML, like Gecko) Chrome/135.0.0.0 Safari/537.36",WebKit,Chrome,135.0.0.0,Windows,10,https://5puzkbbxv1.cognition.run/?sona_id=57853,"en-US,en;q=0.9",mwswbyrxzuxpm55,18,"[""White""]",No,Male,NA,429157,NA,null,<p></p>,null,choice,wb,binary,catch,null,televisions,80,65,25,25,null,null,1,NA,NA,NA,NA,NA,NA,NA,NA,NA,NA
NA,NA,NA,NA,NA,choice_trial,survey-html-form,77,320757,0.0-4.0-1.36,2,1,2025-04-28T14:51:26Z,054d9b9d151c9550f80989ebd54be3eb,"Mozilla/5.0 (Windows NT 10.0; Win64; x64) AppleWebKit/537.36 (KHTML, like Gecko) Chrome/135.0.0.0 Safari/537.36",WebKit,Chrome,135.0.0.0,Windows,10,https://5puzkbbxv1.cognition.run/?sona_id=57853,"en-US,en;q=0.9",mwswbyrxzuxpm55,18,"[""White""]",No,Male,NA,429157,NA,6440,NA,"{""product_choice"":""B""}",choice,wb,binary,catch,null,televisions,80,65,25,25,null,null,1,null,null,null,null,null,null,Screen size,Average lifespan,NA,NA
NA,NA,NA,NA,NA,choice_trial_setup,html-keyboard-response,78,321059,0.0-4.0-0.37,2,1,2025-04-28T14:51:26Z,054d9b9d151c9550f80989ebd54be3eb,"Mozilla/5.0 (Windows NT 10.0; Win64; x64) AppleWebKit/537.36 (KHTML, like Gecko) Chrome/135.0.0.0 Safari/537.36",WebKit,Chrome,135.0.0.0,Windows,10,https://5puzkbbxv1.cognition.run/?sona_id=57853,"en-US,en;q=0.9",mwswbyrxzuxpm55,18,"[""White""]",No,Male,NA,429157,NA,null,<p></p>,null,choice,cdt,trinary,attraction,2,microwave ovens,null,null,null,null,null,null,1,NA,NA,NA,NA,NA,NA,NA,NA,NA,NA
NA,NA,NA,NA,NA,choice_trial,survey-html-form,79,326341,0.0-4.0-1.37,2,1,2025-04-28T14:51:26Z,054d9b9d151c9550f80989ebd54be3eb,"Mozilla/5.0 (Windows NT 10.0; Win64; x64) AppleWebKit/537.36 (KHTML, like Gecko) Chrome/135.0.0.0 Safari/537.36",WebKit,Chrome,135.0.0.0,Windows,10,https://5puzkbbxv1.cognition.run/?sona_id=57853,"en-US,en;q=0.9",mwswbyrxzuxpm55,18,"[""White""]",No,Male,NA,429157,NA,5278,NA,"{""product_choice"":""C""}",choice,cdt,trinary,attraction,2,microwave ovens,null,null,null,null,null,null,1,50,60,40,60,50,60,Warranty,Cooking power,NA,NA
NA,NA,NA,NA,NA,choice_trial_setup,html-keyboard-response,80,326643,0.0-4.0-0.38,2,1,2025-04-28T14:51:26Z,054d9b9d151c9550f80989ebd54be3eb,"Mozilla/5.0 (Windows NT 10.0; Win64; x64) AppleWebKit/537.36 (KHTML, like Gecko) Chrome/135.0.0.0 Safari/537.36",WebKit,Chrome,135.0.0.0,Windows,10,https://5puzkbbxv1.cognition.run/?sona_id=57853,"en-US,en;q=0.9",mwswbyrxzuxpm55,18,"[""White""]",No,Male,NA,429157,NA,null,<p></p>,null,choice,bww,trinary,catch,null,laptops,90,80,5,10,35,15,2,NA,NA,NA,NA,NA,NA,NA,NA,NA,NA
NA,NA,NA,NA,NA,choice_trial,survey-html-form,81,331389,0.0-4.0-1.38,2,1,2025-04-28T14:51:26Z,054d9b9d151c9550f80989ebd54be3eb,"Mozilla/5.0 (Windows NT 10.0; Win64; x64) AppleWebKit/537.36 (KHTML, like Gecko) Chrome/135.0.0.0 Safari/537.36",WebKit,Chrome,135.0.0.0,Windows,10,https://5puzkbbxv1.cognition.run/?sona_id=57853,"en-US,en;q=0.9",mwswbyrxzuxpm55,18,"[""White""]",No,Male,NA,429157,NA,4744,NA,"{""product_choice"":""A""}",choice,bww,trinary,catch,null,laptops,90,80,5,10,35,15,2,null,null,null,null,null,null,Processing speed,Memory (RAM),NA,NA
NA,NA,NA,NA,NA,choice_trial_setup,html-keyboard-response,82,331692,0.0-4.0-0.39,2,1,2025-04-28T14:51:26Z,054d9b9d151c9550f80989ebd54be3eb,"Mozilla/5.0 (Windows NT 10.0; Win64; x64) AppleWebKit/537.36 (KHTML, like Gecko) Chrome/135.0.0.0 Safari/537.36",WebKit,Chrome,135.0.0.0,Windows,10,https://5puzkbbxv1.cognition.run/?sona_id=57853,"en-US,en;q=0.9",mwswbyrxzuxpm55,18,"[""White""]",No,Male,NA,429157,NA,null,<p></p>,null,choice,bw,binary,catch,null,laptops,70,65,50,25,null,null,1,NA,NA,NA,NA,NA,NA,NA,NA,NA,NA
NA,NA,NA,NA,NA,choice_trial,survey-html-form,83,336229,0.0-4.0-1.39,2,1,2025-04-28T14:51:26Z,054d9b9d151c9550f80989ebd54be3eb,"Mozilla/5.0 (Windows NT 10.0; Win64; x64) AppleWebKit/537.36 (KHTML, like Gecko) Chrome/135.0.0.0 Safari/537.36",WebKit,Chrome,135.0.0.0,Windows,10,https://5puzkbbxv1.cognition.run/?sona_id=57853,"en-US,en;q=0.9",mwswbyrxzuxpm55,18,"[""White""]",No,Male,NA,429157,NA,4535,NA,"{""product_choice"":""A""}",choice,bw,binary,catch,null,laptops,70,65,50,25,null,null,1,null,null,null,null,null,null,Processing speed,Memory (RAM),NA,NA
NA,NA,NA,NA,NA,choice_trial_setup,html-keyboard-response,84,336531,0.0-4.0-0.40,2,1,2025-04-28T14:51:26Z,054d9b9d151c9550f80989ebd54be3eb,"Mozilla/5.0 (Windows NT 10.0; Win64; x64) AppleWebKit/537.36 (KHTML, like Gecko) Chrome/135.0.0.0 Safari/537.36",WebKit,Chrome,135.0.0.0,Windows,10,https://5puzkbbxv1.cognition.run/?sona_id=57853,"en-US,en;q=0.9",mwswbyrxzuxpm55,18,"[""White""]",No,Male,NA,429157,NA,null,<p></p>,null,choice,tcd,trinary,attraction,1,washing machines,null,null,null,null,null,null,2,NA,NA,NA,NA,NA,NA,NA,NA,NA,NA
NA,NA,NA,NA,NA,choice_trial,survey-html-form,85,341774,0.0-4.0-1.40,2,1,2025-04-28T14:51:26Z,054d9b9d151c9550f80989ebd54be3eb,"Mozilla/5.0 (Windows NT 10.0; Win64; x64) AppleWebKit/537.36 (KHTML, like Gecko) Chrome/135.0.0.0 Safari/537.36",WebKit,Chrome,135.0.0.0,Windows,10,https://5puzkbbxv1.cognition.run/?sona_id=57853,"en-US,en;q=0.9",mwswbyrxzuxpm55,18,"[""White""]",No,Male,NA,429157,NA,5241,NA,"{""product_choice"":""B""}",choice,tcd,trinary,attraction,1,washing machines,null,null,null,null,null,null,2,60,50,60,50,60,40,Average lifespan,Energy savings,NA,NA
NA,NA,NA,NA,NA,choice_trial_setup,html-keyboard-response,86,342076,0.0-4.0-0.41,2,1,2025-04-28T14:51:26Z,054d9b9d151c9550f80989ebd54be3eb,"Mozilla/5.0 (Windows NT 10.0; Win64; x64) AppleWebKit/537.36 (KHTML, like Gecko) Chrome/135.0.0.0 Safari/537.36",WebKit,Chrome,135.0.0.0,Windows,10,https://5puzkbbxv1.cognition.run/?sona_id=57853,"en-US,en;q=0.9",mwswbyrxzuxpm55,18,"[""White""]",No,Male,NA,429157,NA,null,<p></p>,null,choice,cdt,trinary,repulsion_A,1,televisions,null,null,null,null,null,null,2,NA,NA,NA,NA,NA,NA,NA,NA,NA,NA
NA,NA,NA,NA,NA,choice_trial,survey-html-form,87,347045,0.0-4.0-1.41,2,1,2025-04-28T14:51:26Z,054d9b9d151c9550f80989ebd54be3eb,"Mozilla/5.0 (Windows NT 10.0; Win64; x64) AppleWebKit/537.36 (KHTML, like Gecko) Chrome/135.0.0.0 Safari/537.36",WebKit,Chrome,135.0.0.0,Windows,10,https://5puzkbbxv1.cognition.run/?sona_id=57853,"en-US,en;q=0.9",mwswbyrxzuxpm55,18,"[""White""]",No,Male,NA,429157,NA,4966,NA,"{""product_choice"":""A""}",choice,cdt,trinary,repulsion_A,1,televisions,null,null,null,null,null,null,2,100,90,100,30,40,20,Screen size,Average lifespan,NA,NA
NA,NA,NA,NA,NA,choice_trial_setup,html-keyboard-response,88,347348,0.0-4.0-0.42,2,1,2025-04-28T14:51:26Z,054d9b9d151c9550f80989ebd54be3eb,"Mozilla/5.0 (Windows NT 10.0; Win64; x64) AppleWebKit/537.36 (KHTML, like Gecko) Chrome/135.0.0.0 Safari/537.36",WebKit,Chrome,135.0.0.0,Windows,10,https://5puzkbbxv1.cognition.run/?sona_id=57853,"en-US,en;q=0.9",mwswbyrxzuxpm55,18,"[""White""]",No,Male,NA,429157,NA,null,<p></p>,null,choice,dct,trinary,repulsion_A,1,microwave ovens,null,null,null,null,null,null,1,NA,NA,NA,NA,NA,NA,NA,NA,NA,NA
NA,NA,NA,NA,NA,choice_trial,survey-html-form,89,351906,0.0-4.0-1.42,2,1,2025-04-28T14:51:26Z,054d9b9d151c9550f80989ebd54be3eb,"Mozilla/5.0 (Windows NT 10.0; Win64; x64) AppleWebKit/537.36 (KHTML, like Gecko) Chrome/135.0.0.0 Safari/537.36",WebKit,Chrome,135.0.0.0,Windows,10,https://5puzkbbxv1.cognition.run/?sona_id=57853,"en-US,en;q=0.9",mwswbyrxzuxpm55,18,"[""White""]",No,Male,NA,429157,NA,4556,NA,"{""product_choice"":""C""}",choice,dct,trinary,repulsion_A,1,microwave ovens,null,null,null,null,null,null,1,100,90,100,30,40,20,Warranty,Cooking power,NA,NA
NA,NA,NA,NA,NA,choice_trial_setup,html-keyboard-response,90,352209,0.0-4.0-0.43,2,1,2025-04-28T14:51:26Z,054d9b9d151c9550f80989ebd54be3eb,"Mozilla/5.0 (Windows NT 10.0; Win64; x64) AppleWebKit/537.36 (KHTML, like Gecko) Chrome/135.0.0.0 Safari/537.36",WebKit,Chrome,135.0.0.0,Windows,10,https://5puzkbbxv1.cognition.run/?sona_id=57853,"en-US,en;q=0.9",mwswbyrxzuxpm55,18,"[""White""]",No,Male,NA,429157,NA,null,<p></p>,null,choice,bww,trinary,catch,null,washing machines,80,60,5,10,10,5,2,NA,NA,NA,NA,NA,NA,NA,NA,NA,NA
NA,NA,NA,NA,NA,choice_trial,survey-html-form,91,355341,0.0-4.0-1.43,2,1,2025-04-28T14:51:26Z,054d9b9d151c9550f80989ebd54be3eb,"Mozilla/5.0 (Windows NT 10.0; Win64; x64) AppleWebKit/537.36 (KHTML, like Gecko) Chrome/135.0.0.0 Safari/537.36",WebKit,Chrome,135.0.0.0,Windows,10,https://5puzkbbxv1.cognition.run/?sona_id=57853,"en-US,en;q=0.9",mwswbyrxzuxpm55,18,"[""White""]",No,Male,NA,429157,NA,3130,NA,"{""product_choice"":""A""}",choice,bww,trinary,catch,null,washing machines,80,60,5,10,10,5,2,null,null,null,null,null,null,Average lifespan,Energy savings,NA,NA
NA,NA,NA,NA,NA,post_trials_message,html-button-response,92,358066,0.0-5.0,2,1,2025-04-28T14:51:26Z,054d9b9d151c9550f80989ebd54be3eb,"Mozilla/5.0 (Windows NT 10.0; Win64; x64) AppleWebKit/537.36 (KHTML, like Gecko) Chrome/135.0.0.0 Safari/537.36",WebKit,Chrome,135.0.0.0,Windows,10,https://5puzkbbxv1.cognition.run/?sona_id=57853,"en-US,en;q=0.9",mwswbyrxzuxpm55,18,"[""White""]",No,Male,NA,429157,NA,2722,<p> <b>Thank you for your patience!</b></p><p>  The study will be done after completing a brief form. </p>,0,NA,NA,NA,NA,NA,NA,NA,NA,NA,NA,NA,NA,NA,NA,NA,NA,NA,NA,NA,NA,NA,NA,NA
NA,NA,NA,NA,NA,survey_message,survey-text,93,405212,0.0-6.0,2,1,2025-04-28T14:51:26Z,054d9b9d151c9550f80989ebd54be3eb,"Mozilla/5.0 (Windows NT 10.0; Win64; x64) AppleWebKit/537.36 (KHTML, like Gecko) Chrome/135.0.0.0 Safari/537.36",WebKit,Chrome,135.0.0.0,Windows,10,https://5puzkbbxv1.cognition.run/?sona_id=57853,"en-US,en;q=0.9",mwswbyrxzuxpm55,18,"[""White""]",No,Male,NA,429157,NA,47144,NA,"{""Q0"":""I tried to get as close to the same number for both sides. So there wasn't one side that was suffering significantly more than the other""}",NA,NA,NA,NA,NA,NA,NA,NA,NA,NA,NA,NA,NA,NA,NA,NA,NA,NA,NA,NA,NA,I tried to get as close to the same number for both sides. So there wasn't one side that was suffering significantly more than the other,NA
NA,NA,NA,NA,NA,demo_age,survey-text,94,408649,0.0-7.0,2,1,2025-04-28T14:51:26Z,054d9b9d151c9550f80989ebd54be3eb,"Mozilla/5.0 (Windows NT 10.0; Win64; x64) AppleWebKit/537.36 (KHTML, like Gecko) Chrome/135.0.0.0 Safari/537.36",WebKit,Chrome,135.0.0.0,Windows,10,https://5puzkbbxv1.cognition.run/?sona_id=57853,"en-US,en;q=0.9",mwswbyrxzuxpm55,18,"[""White""]",No,Male,NA,429157,NA,3433,NA,"{""Q0"":""18""}",NA,NA,NA,NA,NA,NA,NA,NA,NA,NA,NA,NA,NA,NA,NA,NA,NA,NA,NA,NA,NA,NA,NA
NA,NA,NA,NA,NA,demo_race,survey-multi-select,95,410989,0.0-8.0,2,1,2025-04-28T14:51:26Z,054d9b9d151c9550f80989ebd54be3eb,"Mozilla/5.0 (Windows NT 10.0; Win64; x64) AppleWebKit/537.36 (KHTML, like Gecko) Chrome/135.0.0.0 Safari/537.36",WebKit,Chrome,135.0.0.0,Windows,10,https://5puzkbbxv1.cognition.run/?sona_id=57853,"en-US,en;q=0.9",mwswbyrxzuxpm55,18,"[""White""]",No,Male,NA,429157,NA,2335,NA,"{""Q0"":[""White""]}",NA,NA,NA,NA,NA,NA,NA,NA,NA,NA,NA,NA,NA,NA,NA,NA,NA,NA,NA,NA,NA,NA,[0]
NA,NA,NA,NA,NA,demo_ethnicity_gender,survey-multi-choice,96,414933,0.0-9.0,2,1,2025-04-28T14:51:26Z,054d9b9d151c9550f80989ebd54be3eb,"Mozilla/5.0 (Windows NT 10.0; Win64; x64) AppleWebKit/537.36 (KHTML, like Gecko) Chrome/135.0.0.0 Safari/537.36",WebKit,Chrome,135.0.0.0,Windows,10,https://5puzkbbxv1.cognition.run/?sona_id=57853,"en-US,en;q=0.9",mwswbyrxzuxpm55,18,"[""White""]",No,Male,NA,429157,NA,3941,NA,"{""Q0"":""No"",""Q1"":""Male""}",NA,NA,NA,NA,NA,NA,NA,NA,NA,NA,NA,NA,NA,NA,NA,NA,NA,NA,NA,NA,NA,NA,"[0,1]"
NA,NA,NA,NA,NA,demo_countries,survey-text,97,420856,0.0-10.0,2,1,2025-04-28T14:51:26Z,054d9b9d151c9550f80989ebd54be3eb,"Mozilla/5.0 (Windows NT 10.0; Win64; x64) AppleWebKit/537.36 (KHTML, like Gecko) Chrome/135.0.0.0 Safari/537.36",WebKit,Chrome,135.0.0.0,Windows,10,https://5puzkbbxv1.cognition.run/?sona_id=57853,"en-US,en;q=0.9",mwswbyrxzuxpm55,18,"[""White""]",No,Male,NA,429157,NA,5917,NA,"{""Q0"":""NA""}",NA,NA,NA,NA,NA,NA,NA,NA,NA,NA,NA,NA,NA,NA,NA,NA,NA,NA,NA,NA,NA,NA,NA
NA,NA,NA,NA,NA,post_survey_message,html-keyboard-response,98,425568,0.0-11.0,2,1,2025-04-28T14:51:26Z,054d9b9d151c9550f80989ebd54be3eb,"Mozilla/5.0 (Windows NT 10.0; Win64; x64) AppleWebKit/537.36 (KHTML, like Gecko) Chrome/135.0.0.0 Safari/537.36",WebKit,Chrome,135.0.0.0,Windows,10,https://5puzkbbxv1.cognition.run/?sona_id=57853,"en-US,en;q=0.9",mwswbyrxzuxpm55,18,"[""White""]",No,Male,NA,429157,NA,4710,NA,j,NA,NA,NA,NA,NA,NA,NA,NA,NA,NA,NA,NA,NA,NA,NA,NA,NA,NA,NA,NA,NA,NA,NA
NA,NA,NA,NA,NA,debrief,image-keyboard-response,99,429152,0.0-12.0,2,1,2025-04-28T14:51:26Z,054d9b9d151c9550f80989ebd54be3eb,"Mozilla/5.0 (Windows NT 10.0; Win64; x64) AppleWebKit/537.36 (KHTML, like Gecko) Chrome/135.0.0.0 Safari/537.36",WebKit,Chrome,135.0.0.0,Windows,10,https://5puzkbbxv1.cognition.run/?sona_id=57853,"en-US,en;q=0.9",mwswbyrxzuxpm55,18,"[""White""]",No,Male,NA,429157,NA,3580,Judg_choice_debrief.png,p,NA,NA,NA,NA,NA,NA,NA,NA,NA,NA,NA,NA,NA,NA,NA,NA,NA,NA,NA,NA,NA,NA,NA
