success,timeout,failed_images,failed_audio,failed_video,screen_id,trial_type,trial_index,time_elapsed,internal_node_id,run_id,condition,recorded_at,source_code_version,user_agent,device,browser,browser_version,platform,platform_version,referer,accept_language,ppt_id,age,race,ethnicity,gender,other_countries,prev_study,exp_duration,view_history,rt,stimulus,response,phase,order,set,effect,t_high,category,d1_best,d2_best,d1_worst1,d2_worst1,d1_worst2,d2_worst2,first_dim,d1_t,d1_c,d1_d,d2_t,d2_c,d2_d,d1_name,d2_name,strategy_response,question_order
TRUE,FALSE,[],[],[],img preload,preload,0,201,0.0-0.0,200,1,2025-05-05T20:21:59Z,b60275e29fe2361ab97ac0ac217840d7,"Mozilla/5.0 (Macintosh; Intel Mac OS X 10_15_7) AppleWebKit/537.36 (KHTML, like Gecko) Chrome/136.0.0.0 Safari/537.36",Macintosh,Chrome,136.0.0.0,OS X,10_15_7,https://5puzkbbxv1.cognition.run/?sona_id=52700,"en-US,en;q=0.9",ork436kb8wej7uk,20,"[""White""]",No,Female,NA,I'm not sure,706906.099999994,NA,NA,NA,NA,NA,NA,NA,NA,NA,NA,NA,NA,NA,NA,NA,NA,NA,NA,NA,NA,NA,NA,NA,NA,NA,NA,NA
NA,NA,NA,NA,NA,computer_message,instructions,1,2604,0.0-1.0,200,1,2025-05-05T20:21:59Z,b60275e29fe2361ab97ac0ac217840d7,"Mozilla/5.0 (Macintosh; Intel Mac OS X 10_15_7) AppleWebKit/537.36 (KHTML, like Gecko) Chrome/136.0.0.0 Safari/537.36",Macintosh,Chrome,136.0.0.0,OS X,10_15_7,https://5puzkbbxv1.cognition.run/?sona_id=52700,"en-US,en;q=0.9",ork436kb8wej7uk,20,"[""White""]",No,Female,NA,I'm not sure,706906.099999994,"[{""page_index"":0,""viewing_time"":2401}]",2402,NA,NA,NA,NA,NA,NA,NA,NA,NA,NA,NA,NA,NA,NA,NA,NA,NA,NA,NA,NA,NA,NA,NA,NA,NA
TRUE,NA,NA,NA,NA,NA,fullscreen,2,9039,0.0-2.0,200,1,2025-05-05T20:21:59Z,b60275e29fe2361ab97ac0ac217840d7,"Mozilla/5.0 (Macintosh; Intel Mac OS X 10_15_7) AppleWebKit/537.36 (KHTML, like Gecko) Chrome/136.0.0.0 Safari/537.36",Macintosh,Chrome,136.0.0.0,OS X,10_15_7,https://5puzkbbxv1.cognition.run/?sona_id=52700,"en-US,en;q=0.9",ork436kb8wej7uk,20,"[""White""]",No,Female,NA,I'm not sure,706906.099999994,NA,5430,NA,NA,NA,NA,NA,NA,NA,NA,NA,NA,NA,NA,NA,NA,NA,NA,NA,NA,NA,NA,NA,NA,NA,NA,NA
NA,NA,NA,NA,NA,choice_instructions,instructions,3,89354,0.0-3.0,200,1,2025-05-05T20:21:59Z,b60275e29fe2361ab97ac0ac217840d7,"Mozilla/5.0 (Macintosh; Intel Mac OS X 10_15_7) AppleWebKit/537.36 (KHTML, like Gecko) Chrome/136.0.0.0 Safari/537.36",Macintosh,Chrome,136.0.0.0,OS X,10_15_7,https://5puzkbbxv1.cognition.run/?sona_id=52700,"en-US,en;q=0.9",ork436kb8wej7uk,20,"[""White""]",No,Female,NA,I'm not sure,706906.099999994,"[{""page_index"":0,""viewing_time"":1345},{""page_index"":1,""viewing_time"":5316},{""page_index"":2,""viewing_time"":20666},{""page_index"":3,""viewing_time"":23101},{""page_index"":4,""viewing_time"":4264},{""page_index"":5,""viewing_time"":17267},{""page_index"":6,""viewing_time"":8349}]",80311,NA,NA,NA,NA,NA,NA,NA,NA,NA,NA,NA,NA,NA,NA,NA,NA,NA,NA,NA,NA,NA,NA,NA,NA,NA
NA,NA,NA,NA,NA,choice_trial_setup,html-keyboard-response,4,89659,0.0-4.0-0.0,200,1,2025-05-05T20:21:59Z,b60275e29fe2361ab97ac0ac217840d7,"Mozilla/5.0 (Macintosh; Intel Mac OS X 10_15_7) AppleWebKit/537.36 (KHTML, like Gecko) Chrome/136.0.0.0 Safari/537.36",Macintosh,Chrome,136.0.0.0,OS X,10_15_7,https://5puzkbbxv1.cognition.run/?sona_id=52700,"en-US,en;q=0.9",ork436kb8wej7uk,20,"[""White""]",No,Female,NA,I'm not sure,706906.099999994,NA,null,<p></p>,null,choice,dtc,trinary,repulsion_A,1,laptops,null,null,null,null,null,null,2,NA,NA,NA,NA,NA,NA,NA,NA,NA,NA
NA,NA,NA,NA,NA,choice_trial,survey-html-form,5,105997,0.0-4.0-1.0,200,1,2025-05-05T20:21:59Z,b60275e29fe2361ab97ac0ac217840d7,"Mozilla/5.0 (Macintosh; Intel Mac OS X 10_15_7) AppleWebKit/537.36 (KHTML, like Gecko) Chrome/136.0.0.0 Safari/537.36",Macintosh,Chrome,136.0.0.0,OS X,10_15_7,https://5puzkbbxv1.cognition.run/?sona_id=52700,"en-US,en;q=0.9",ork436kb8wej7uk,20,"[""White""]",No,Female,NA,I'm not sure,706906.099999994,NA,16332,NA,"{""product_choice"":""C""}",choice,dtc,trinary,repulsion_A,1,laptops,null,null,null,null,null,null,2,100,90,100,30,40,20,Processing speed,Memory (RAM),NA,NA
NA,NA,NA,NA,NA,choice_trial_setup,html-keyboard-response,6,106300,0.0-4.0-0.1,200,1,2025-05-05T20:21:59Z,b60275e29fe2361ab97ac0ac217840d7,"Mozilla/5.0 (Macintosh; Intel Mac OS X 10_15_7) AppleWebKit/537.36 (KHTML, like Gecko) Chrome/136.0.0.0 Safari/537.36",Macintosh,Chrome,136.0.0.0,OS X,10_15_7,https://5puzkbbxv1.cognition.run/?sona_id=52700,"en-US,en;q=0.9",ork436kb8wej7uk,20,"[""White""]",No,Female,NA,I'm not sure,706906.099999994,NA,null,<p></p>,null,choice,tc,binary,repulsion,2,laptops,null,null,null,null,null,null,1,NA,NA,NA,NA,NA,NA,NA,NA,NA,NA
NA,NA,NA,NA,NA,choice_trial,survey-html-form,7,116137,0.0-4.0-1.1,200,1,2025-05-05T20:21:59Z,b60275e29fe2361ab97ac0ac217840d7,"Mozilla/5.0 (Macintosh; Intel Mac OS X 10_15_7) AppleWebKit/537.36 (KHTML, like Gecko) Chrome/136.0.0.0 Safari/537.36",Macintosh,Chrome,136.0.0.0,OS X,10_15_7,https://5puzkbbxv1.cognition.run/?sona_id=52700,"en-US,en;q=0.9",ork436kb8wej7uk,20,"[""White""]",No,Female,NA,I'm not sure,706906.099999994,NA,9833,NA,"{""product_choice"":""B""}",choice,tc,binary,repulsion,2,laptops,null,null,null,null,null,null,1,30,40,null,100,90,null,Processing speed,Memory (RAM),NA,NA
NA,NA,NA,NA,NA,choice_trial_setup,html-keyboard-response,8,116441,0.0-4.0-0.2,200,1,2025-05-05T20:21:59Z,b60275e29fe2361ab97ac0ac217840d7,"Mozilla/5.0 (Macintosh; Intel Mac OS X 10_15_7) AppleWebKit/537.36 (KHTML, like Gecko) Chrome/136.0.0.0 Safari/537.36",Macintosh,Chrome,136.0.0.0,OS X,10_15_7,https://5puzkbbxv1.cognition.run/?sona_id=52700,"en-US,en;q=0.9",ork436kb8wej7uk,20,"[""White""]",No,Female,NA,I'm not sure,706906.099999994,NA,null,<p></p>,null,choice,tcd,trinary,attraction,1,televisions,null,null,null,null,null,null,1,NA,NA,NA,NA,NA,NA,NA,NA,NA,NA
NA,NA,NA,NA,NA,choice_trial,survey-html-form,9,130521,0.0-4.0-1.2,200,1,2025-05-05T20:21:59Z,b60275e29fe2361ab97ac0ac217840d7,"Mozilla/5.0 (Macintosh; Intel Mac OS X 10_15_7) AppleWebKit/537.36 (KHTML, like Gecko) Chrome/136.0.0.0 Safari/537.36",Macintosh,Chrome,136.0.0.0,OS X,10_15_7,https://5puzkbbxv1.cognition.run/?sona_id=52700,"en-US,en;q=0.9",ork436kb8wej7uk,20,"[""White""]",No,Female,NA,I'm not sure,706906.099999994,NA,14077,NA,"{""product_choice"":""B""}",choice,tcd,trinary,attraction,1,televisions,null,null,null,null,null,null,1,60,50,60,50,60,40,Screen size,Average lifespan,NA,NA
NA,NA,NA,NA,NA,choice_trial_setup,html-keyboard-response,10,130826,0.0-4.0-0.3,200,1,2025-05-05T20:21:59Z,b60275e29fe2361ab97ac0ac217840d7,"Mozilla/5.0 (Macintosh; Intel Mac OS X 10_15_7) AppleWebKit/537.36 (KHTML, like Gecko) Chrome/136.0.0.0 Safari/537.36",Macintosh,Chrome,136.0.0.0,OS X,10_15_7,https://5puzkbbxv1.cognition.run/?sona_id=52700,"en-US,en;q=0.9",ork436kb8wej7uk,20,"[""White""]",No,Female,NA,I'm not sure,706906.099999994,NA,null,<p></p>,null,choice,tc,binary,repulsion,1,washing machines,null,null,null,null,null,null,1,NA,NA,NA,NA,NA,NA,NA,NA,NA,NA
NA,NA,NA,NA,NA,choice_trial,survey-html-form,11,138371,0.0-4.0-1.3,200,1,2025-05-05T20:21:59Z,b60275e29fe2361ab97ac0ac217840d7,"Mozilla/5.0 (Macintosh; Intel Mac OS X 10_15_7) AppleWebKit/537.36 (KHTML, like Gecko) Chrome/136.0.0.0 Safari/537.36",Macintosh,Chrome,136.0.0.0,OS X,10_15_7,https://5puzkbbxv1.cognition.run/?sona_id=52700,"en-US,en;q=0.9",ork436kb8wej7uk,20,"[""White""]",No,Female,NA,I'm not sure,706906.099999994,NA,7542,NA,"{""product_choice"":""B""}",choice,tc,binary,repulsion,1,washing machines,null,null,null,null,null,null,1,100,90,null,30,40,null,Average lifespan,Energy savings,NA,NA
NA,NA,NA,NA,NA,choice_trial_setup,html-keyboard-response,12,138675,0.0-4.0-0.4,200,1,2025-05-05T20:21:59Z,b60275e29fe2361ab97ac0ac217840d7,"Mozilla/5.0 (Macintosh; Intel Mac OS X 10_15_7) AppleWebKit/537.36 (KHTML, like Gecko) Chrome/136.0.0.0 Safari/537.36",Macintosh,Chrome,136.0.0.0,OS X,10_15_7,https://5puzkbbxv1.cognition.run/?sona_id=52700,"en-US,en;q=0.9",ork436kb8wej7uk,20,"[""White""]",No,Female,NA,I'm not sure,706906.099999994,NA,null,<p></p>,null,choice,dtc,trinary,repulsion_A,1,washing machines,null,null,null,null,null,null,1,NA,NA,NA,NA,NA,NA,NA,NA,NA,NA
NA,NA,NA,NA,NA,choice_trial,survey-html-form,13,144771,0.0-4.0-1.4,200,1,2025-05-05T20:21:59Z,b60275e29fe2361ab97ac0ac217840d7,"Mozilla/5.0 (Macintosh; Intel Mac OS X 10_15_7) AppleWebKit/537.36 (KHTML, like Gecko) Chrome/136.0.0.0 Safari/537.36",Macintosh,Chrome,136.0.0.0,OS X,10_15_7,https://5puzkbbxv1.cognition.run/?sona_id=52700,"en-US,en;q=0.9",ork436kb8wej7uk,20,"[""White""]",No,Female,NA,I'm not sure,706906.099999994,NA,6093,NA,"{""product_choice"":""C""}",choice,dtc,trinary,repulsion_A,1,washing machines,null,null,null,null,null,null,1,100,90,100,30,40,20,Average lifespan,Energy savings,NA,NA
NA,NA,NA,NA,NA,choice_trial_setup,html-keyboard-response,14,145075,0.0-4.0-0.5,200,1,2025-05-05T20:21:59Z,b60275e29fe2361ab97ac0ac217840d7,"Mozilla/5.0 (Macintosh; Intel Mac OS X 10_15_7) AppleWebKit/537.36 (KHTML, like Gecko) Chrome/136.0.0.0 Safari/537.36",Macintosh,Chrome,136.0.0.0,OS X,10_15_7,https://5puzkbbxv1.cognition.run/?sona_id=52700,"en-US,en;q=0.9",ork436kb8wej7uk,20,"[""White""]",No,Female,NA,I'm not sure,706906.099999994,NA,null,<p></p>,null,choice,tc,binary,attraction,NA,laptops,null,null,null,null,null,null,2,NA,NA,NA,NA,NA,NA,NA,NA,NA,NA
NA,NA,NA,NA,NA,choice_trial,survey-html-form,15,160538,0.0-4.0-1.5,200,1,2025-05-05T20:21:59Z,b60275e29fe2361ab97ac0ac217840d7,"Mozilla/5.0 (Macintosh; Intel Mac OS X 10_15_7) AppleWebKit/537.36 (KHTML, like Gecko) Chrome/136.0.0.0 Safari/537.36",Macintosh,Chrome,136.0.0.0,OS X,10_15_7,https://5puzkbbxv1.cognition.run/?sona_id=52700,"en-US,en;q=0.9",ork436kb8wej7uk,20,"[""White""]",No,Female,NA,I'm not sure,706906.099999994,NA,15459,NA,"{""product_choice"":""B""}",choice,tc,binary,attraction,NA,laptops,null,null,null,null,null,null,2,60,50,null,50,60,null,Processing speed,Memory (RAM),NA,NA
NA,NA,NA,NA,NA,choice_trial_setup,html-keyboard-response,16,160841,0.0-4.0-0.6,200,1,2025-05-05T20:21:59Z,b60275e29fe2361ab97ac0ac217840d7,"Mozilla/5.0 (Macintosh; Intel Mac OS X 10_15_7) AppleWebKit/537.36 (KHTML, like Gecko) Chrome/136.0.0.0 Safari/537.36",Macintosh,Chrome,136.0.0.0,OS X,10_15_7,https://5puzkbbxv1.cognition.run/?sona_id=52700,"en-US,en;q=0.9",ork436kb8wej7uk,20,"[""White""]",No,Female,NA,I'm not sure,706906.099999994,NA,null,<p></p>,null,choice,cdt,trinary,attraction,2,laptops,null,null,null,null,null,null,1,NA,NA,NA,NA,NA,NA,NA,NA,NA,NA
NA,NA,NA,NA,NA,choice_trial,survey-html-form,17,174137,0.0-4.0-1.6,200,1,2025-05-05T20:21:59Z,b60275e29fe2361ab97ac0ac217840d7,"Mozilla/5.0 (Macintosh; Intel Mac OS X 10_15_7) AppleWebKit/537.36 (KHTML, like Gecko) Chrome/136.0.0.0 Safari/537.36",Macintosh,Chrome,136.0.0.0,OS X,10_15_7,https://5puzkbbxv1.cognition.run/?sona_id=52700,"en-US,en;q=0.9",ork436kb8wej7uk,20,"[""White""]",No,Female,NA,I'm not sure,706906.099999994,NA,13292,NA,"{""product_choice"":""C""}",choice,cdt,trinary,attraction,2,laptops,null,null,null,null,null,null,1,50,60,40,60,50,60,Processing speed,Memory (RAM),NA,NA
NA,NA,NA,NA,NA,choice_trial_setup,html-keyboard-response,18,174440,0.0-4.0-0.7,200,1,2025-05-05T20:21:59Z,b60275e29fe2361ab97ac0ac217840d7,"Mozilla/5.0 (Macintosh; Intel Mac OS X 10_15_7) AppleWebKit/537.36 (KHTML, like Gecko) Chrome/136.0.0.0 Safari/537.36",Macintosh,Chrome,136.0.0.0,OS X,10_15_7,https://5puzkbbxv1.cognition.run/?sona_id=52700,"en-US,en;q=0.9",ork436kb8wej7uk,20,"[""White""]",No,Female,NA,I'm not sure,706906.099999994,NA,null,<p></p>,null,choice,ctd,trinary,repulsion_A,1,televisions,null,null,null,null,null,null,1,NA,NA,NA,NA,NA,NA,NA,NA,NA,NA
NA,NA,NA,NA,NA,choice_trial,survey-html-form,19,183554,0.0-4.0-1.7,200,1,2025-05-05T20:21:59Z,b60275e29fe2361ab97ac0ac217840d7,"Mozilla/5.0 (Macintosh; Intel Mac OS X 10_15_7) AppleWebKit/537.36 (KHTML, like Gecko) Chrome/136.0.0.0 Safari/537.36",Macintosh,Chrome,136.0.0.0,OS X,10_15_7,https://5puzkbbxv1.cognition.run/?sona_id=52700,"en-US,en;q=0.9",ork436kb8wej7uk,20,"[""White""]",No,Female,NA,I'm not sure,706906.099999994,NA,9110,NA,"{""product_choice"":""A""}",choice,ctd,trinary,repulsion_A,1,televisions,null,null,null,null,null,null,1,100,90,100,30,40,20,Screen size,Average lifespan,NA,NA
NA,NA,NA,NA,NA,choice_trial_setup,html-keyboard-response,20,183858,0.0-4.0-0.8,200,1,2025-05-05T20:21:59Z,b60275e29fe2361ab97ac0ac217840d7,"Mozilla/5.0 (Macintosh; Intel Mac OS X 10_15_7) AppleWebKit/537.36 (KHTML, like Gecko) Chrome/136.0.0.0 Safari/537.36",Macintosh,Chrome,136.0.0.0,OS X,10_15_7,https://5puzkbbxv1.cognition.run/?sona_id=52700,"en-US,en;q=0.9",ork436kb8wej7uk,20,"[""White""]",No,Female,NA,I'm not sure,706906.099999994,NA,null,<p></p>,null,choice,tc,binary,attraction,NA,televisions,null,null,null,null,null,null,2,NA,NA,NA,NA,NA,NA,NA,NA,NA,NA
NA,NA,NA,NA,NA,choice_trial,survey-html-form,21,196738,0.0-4.0-1.8,200,1,2025-05-05T20:21:59Z,b60275e29fe2361ab97ac0ac217840d7,"Mozilla/5.0 (Macintosh; Intel Mac OS X 10_15_7) AppleWebKit/537.36 (KHTML, like Gecko) Chrome/136.0.0.0 Safari/537.36",Macintosh,Chrome,136.0.0.0,OS X,10_15_7,https://5puzkbbxv1.cognition.run/?sona_id=52700,"en-US,en;q=0.9",ork436kb8wej7uk,20,"[""White""]",No,Female,NA,I'm not sure,706906.099999994,NA,12875,NA,"{""product_choice"":""B""}",choice,tc,binary,attraction,NA,televisions,null,null,null,null,null,null,2,60,50,null,50,60,null,Screen size,Average lifespan,NA,NA
NA,NA,NA,NA,NA,choice_trial_setup,html-keyboard-response,22,197041,0.0-4.0-0.9,200,1,2025-05-05T20:21:59Z,b60275e29fe2361ab97ac0ac217840d7,"Mozilla/5.0 (Macintosh; Intel Mac OS X 10_15_7) AppleWebKit/537.36 (KHTML, like Gecko) Chrome/136.0.0.0 Safari/537.36",Macintosh,Chrome,136.0.0.0,OS X,10_15_7,https://5puzkbbxv1.cognition.run/?sona_id=52700,"en-US,en;q=0.9",ork436kb8wej7uk,20,"[""White""]",No,Female,NA,I'm not sure,706906.099999994,NA,null,<p></p>,null,choice,ct,binary,attraction,NA,microwave ovens,null,null,null,null,null,null,2,NA,NA,NA,NA,NA,NA,NA,NA,NA,NA
NA,NA,NA,NA,NA,choice_trial,survey-html-form,23,217272,0.0-4.0-1.9,200,1,2025-05-05T20:21:59Z,b60275e29fe2361ab97ac0ac217840d7,"Mozilla/5.0 (Macintosh; Intel Mac OS X 10_15_7) AppleWebKit/537.36 (KHTML, like Gecko) Chrome/136.0.0.0 Safari/537.36",Macintosh,Chrome,136.0.0.0,OS X,10_15_7,https://5puzkbbxv1.cognition.run/?sona_id=52700,"en-US,en;q=0.9",ork436kb8wej7uk,20,"[""White""]",No,Female,NA,I'm not sure,706906.099999994,NA,20226,NA,"{""product_choice"":""A""}",choice,ct,binary,attraction,NA,microwave ovens,null,null,null,null,null,null,2,60,50,null,50,60,null,Warranty,Cooking power,NA,NA
NA,NA,NA,NA,NA,choice_trial_setup,html-keyboard-response,24,217575,0.0-4.0-0.10,200,1,2025-05-05T20:21:59Z,b60275e29fe2361ab97ac0ac217840d7,"Mozilla/5.0 (Macintosh; Intel Mac OS X 10_15_7) AppleWebKit/537.36 (KHTML, like Gecko) Chrome/136.0.0.0 Safari/537.36",Macintosh,Chrome,136.0.0.0,OS X,10_15_7,https://5puzkbbxv1.cognition.run/?sona_id=52700,"en-US,en;q=0.9",ork436kb8wej7uk,20,"[""White""]",No,Female,NA,I'm not sure,706906.099999994,NA,null,<p></p>,null,choice,dtc,trinary,attraction,2,microwave ovens,null,null,null,null,null,null,2,NA,NA,NA,NA,NA,NA,NA,NA,NA,NA
NA,NA,NA,NA,NA,choice_trial,survey-html-form,25,225738,0.0-4.0-1.10,200,1,2025-05-05T20:21:59Z,b60275e29fe2361ab97ac0ac217840d7,"Mozilla/5.0 (Macintosh; Intel Mac OS X 10_15_7) AppleWebKit/537.36 (KHTML, like Gecko) Chrome/136.0.0.0 Safari/537.36",Macintosh,Chrome,136.0.0.0,OS X,10_15_7,https://5puzkbbxv1.cognition.run/?sona_id=52700,"en-US,en;q=0.9",ork436kb8wej7uk,20,"[""White""]",No,Female,NA,I'm not sure,706906.099999994,NA,8158,NA,"{""product_choice"":""B""}",choice,dtc,trinary,attraction,2,microwave ovens,null,null,null,null,null,null,2,50,60,40,60,50,60,Warranty,Cooking power,NA,NA
NA,NA,NA,NA,NA,choice_trial_setup,html-keyboard-response,26,226041,0.0-4.0-0.11,200,1,2025-05-05T20:21:59Z,b60275e29fe2361ab97ac0ac217840d7,"Mozilla/5.0 (Macintosh; Intel Mac OS X 10_15_7) AppleWebKit/537.36 (KHTML, like Gecko) Chrome/136.0.0.0 Safari/537.36",Macintosh,Chrome,136.0.0.0,OS X,10_15_7,https://5puzkbbxv1.cognition.run/?sona_id=52700,"en-US,en;q=0.9",ork436kb8wej7uk,20,"[""White""]",No,Female,NA,I'm not sure,706906.099999994,NA,null,<p></p>,null,choice,ctd,trinary,attraction,1,laptops,null,null,null,null,null,null,1,NA,NA,NA,NA,NA,NA,NA,NA,NA,NA
NA,NA,NA,NA,NA,choice_trial,survey-html-form,27,238475,0.0-4.0-1.11,200,1,2025-05-05T20:21:59Z,b60275e29fe2361ab97ac0ac217840d7,"Mozilla/5.0 (Macintosh; Intel Mac OS X 10_15_7) AppleWebKit/537.36 (KHTML, like Gecko) Chrome/136.0.0.0 Safari/537.36",Macintosh,Chrome,136.0.0.0,OS X,10_15_7,https://5puzkbbxv1.cognition.run/?sona_id=52700,"en-US,en;q=0.9",ork436kb8wej7uk,20,"[""White""]",No,Female,NA,I'm not sure,706906.099999994,NA,12430,NA,"{""product_choice"":""A""}",choice,ctd,trinary,attraction,1,laptops,null,null,null,null,null,null,1,60,50,60,50,60,40,Processing speed,Memory (RAM),NA,NA
NA,NA,NA,NA,NA,choice_trial_setup,html-keyboard-response,28,238779,0.0-4.0-0.12,200,1,2025-05-05T20:21:59Z,b60275e29fe2361ab97ac0ac217840d7,"Mozilla/5.0 (Macintosh; Intel Mac OS X 10_15_7) AppleWebKit/537.36 (KHTML, like Gecko) Chrome/136.0.0.0 Safari/537.36",Macintosh,Chrome,136.0.0.0,OS X,10_15_7,https://5puzkbbxv1.cognition.run/?sona_id=52700,"en-US,en;q=0.9",ork436kb8wej7uk,20,"[""White""]",No,Female,NA,I'm not sure,706906.099999994,NA,null,<p></p>,null,choice,tcd,trinary,repulsion_B,2,laptops,null,null,null,null,null,null,1,NA,NA,NA,NA,NA,NA,NA,NA,NA,NA
NA,NA,NA,NA,NA,choice_trial,survey-html-form,29,253989,0.0-4.0-1.12,200,1,2025-05-05T20:21:59Z,b60275e29fe2361ab97ac0ac217840d7,"Mozilla/5.0 (Macintosh; Intel Mac OS X 10_15_7) AppleWebKit/537.36 (KHTML, like Gecko) Chrome/136.0.0.0 Safari/537.36",Macintosh,Chrome,136.0.0.0,OS X,10_15_7,https://5puzkbbxv1.cognition.run/?sona_id=52700,"en-US,en;q=0.9",ork436kb8wej7uk,20,"[""White""]",No,Female,NA,I'm not sure,706906.099999994,NA,15205,NA,"{""product_choice"":""A""}",choice,tcd,trinary,repulsion_B,2,laptops,null,null,null,null,null,null,1,40,30,40,90,100,80,Processing speed,Memory (RAM),NA,NA
NA,NA,NA,NA,NA,choice_trial_setup,html-keyboard-response,30,254293,0.0-4.0-0.13,200,1,2025-05-05T20:21:59Z,b60275e29fe2361ab97ac0ac217840d7,"Mozilla/5.0 (Macintosh; Intel Mac OS X 10_15_7) AppleWebKit/537.36 (KHTML, like Gecko) Chrome/136.0.0.0 Safari/537.36",Macintosh,Chrome,136.0.0.0,OS X,10_15_7,https://5puzkbbxv1.cognition.run/?sona_id=52700,"en-US,en;q=0.9",ork436kb8wej7uk,20,"[""White""]",No,Female,NA,I'm not sure,706906.099999994,NA,null,<p></p>,null,choice,tc,binary,repulsion,1,microwave ovens,null,null,null,null,null,null,1,NA,NA,NA,NA,NA,NA,NA,NA,NA,NA
NA,NA,NA,NA,NA,choice_trial,survey-html-form,31,265405,0.0-4.0-1.13,200,1,2025-05-05T20:21:59Z,b60275e29fe2361ab97ac0ac217840d7,"Mozilla/5.0 (Macintosh; Intel Mac OS X 10_15_7) AppleWebKit/537.36 (KHTML, like Gecko) Chrome/136.0.0.0 Safari/537.36",Macintosh,Chrome,136.0.0.0,OS X,10_15_7,https://5puzkbbxv1.cognition.run/?sona_id=52700,"en-US,en;q=0.9",ork436kb8wej7uk,20,"[""White""]",No,Female,NA,I'm not sure,706906.099999994,NA,11108,NA,"{""product_choice"":""B""}",choice,tc,binary,repulsion,1,microwave ovens,null,null,null,null,null,null,1,100,90,null,30,40,null,Warranty,Cooking power,NA,NA
NA,NA,NA,NA,NA,choice_trial_setup,html-keyboard-response,32,265710,0.0-4.0-0.14,200,1,2025-05-05T20:21:59Z,b60275e29fe2361ab97ac0ac217840d7,"Mozilla/5.0 (Macintosh; Intel Mac OS X 10_15_7) AppleWebKit/537.36 (KHTML, like Gecko) Chrome/136.0.0.0 Safari/537.36",Macintosh,Chrome,136.0.0.0,OS X,10_15_7,https://5puzkbbxv1.cognition.run/?sona_id=52700,"en-US,en;q=0.9",ork436kb8wej7uk,20,"[""White""]",No,Female,NA,I'm not sure,706906.099999994,NA,null,<p></p>,null,choice,bww,trinary,catch,null,microwave ovens,50,90,25,40,20,5,2,NA,NA,NA,NA,NA,NA,NA,NA,NA,NA
NA,NA,NA,NA,NA,choice_trial,survey-html-form,33,278605,0.0-4.0-1.14,200,1,2025-05-05T20:21:59Z,b60275e29fe2361ab97ac0ac217840d7,"Mozilla/5.0 (Macintosh; Intel Mac OS X 10_15_7) AppleWebKit/537.36 (KHTML, like Gecko) Chrome/136.0.0.0 Safari/537.36",Macintosh,Chrome,136.0.0.0,OS X,10_15_7,https://5puzkbbxv1.cognition.run/?sona_id=52700,"en-US,en;q=0.9",ork436kb8wej7uk,20,"[""White""]",No,Female,NA,I'm not sure,706906.099999994,NA,12890,NA,"{""product_choice"":""A""}",choice,bww,trinary,catch,null,microwave ovens,50,90,25,40,20,5,2,null,null,null,null,null,null,Warranty,Cooking power,NA,NA
NA,NA,NA,NA,NA,choice_trial_setup,html-keyboard-response,34,278910,0.0-4.0-0.15,200,1,2025-05-05T20:21:59Z,b60275e29fe2361ab97ac0ac217840d7,"Mozilla/5.0 (Macintosh; Intel Mac OS X 10_15_7) AppleWebKit/537.36 (KHTML, like Gecko) Chrome/136.0.0.0 Safari/537.36",Macintosh,Chrome,136.0.0.0,OS X,10_15_7,https://5puzkbbxv1.cognition.run/?sona_id=52700,"en-US,en;q=0.9",ork436kb8wej7uk,20,"[""White""]",No,Female,NA,I'm not sure,706906.099999994,NA,null,<p></p>,null,choice,ctd,trinary,repulsion_A,2,microwave ovens,null,null,null,null,null,null,1,NA,NA,NA,NA,NA,NA,NA,NA,NA,NA
NA,NA,NA,NA,NA,choice_trial,survey-html-form,35,288788,0.0-4.0-1.15,200,1,2025-05-05T20:21:59Z,b60275e29fe2361ab97ac0ac217840d7,"Mozilla/5.0 (Macintosh; Intel Mac OS X 10_15_7) AppleWebKit/537.36 (KHTML, like Gecko) Chrome/136.0.0.0 Safari/537.36",Macintosh,Chrome,136.0.0.0,OS X,10_15_7,https://5puzkbbxv1.cognition.run/?sona_id=52700,"en-US,en;q=0.9",ork436kb8wej7uk,20,"[""White""]",No,Female,NA,I'm not sure,706906.099999994,NA,9873,NA,"{""product_choice"":""B""}",choice,ctd,trinary,repulsion_A,2,microwave ovens,null,null,null,null,null,null,1,30,40,20,100,90,100,Warranty,Cooking power,NA,NA
NA,NA,NA,NA,NA,choice_trial_setup,html-keyboard-response,36,289092,0.0-4.0-0.16,200,1,2025-05-05T20:21:59Z,b60275e29fe2361ab97ac0ac217840d7,"Mozilla/5.0 (Macintosh; Intel Mac OS X 10_15_7) AppleWebKit/537.36 (KHTML, like Gecko) Chrome/136.0.0.0 Safari/537.36",Macintosh,Chrome,136.0.0.0,OS X,10_15_7,https://5puzkbbxv1.cognition.run/?sona_id=52700,"en-US,en;q=0.9",ork436kb8wej7uk,20,"[""White""]",No,Female,NA,I'm not sure,706906.099999994,NA,null,<p></p>,null,choice,ct,binary,repulsion,1,televisions,null,null,null,null,null,null,2,NA,NA,NA,NA,NA,NA,NA,NA,NA,NA
NA,NA,NA,NA,NA,choice_trial,survey-html-form,37,301721,0.0-4.0-1.16,200,1,2025-05-05T20:21:59Z,b60275e29fe2361ab97ac0ac217840d7,"Mozilla/5.0 (Macintosh; Intel Mac OS X 10_15_7) AppleWebKit/537.36 (KHTML, like Gecko) Chrome/136.0.0.0 Safari/537.36",Macintosh,Chrome,136.0.0.0,OS X,10_15_7,https://5puzkbbxv1.cognition.run/?sona_id=52700,"en-US,en;q=0.9",ork436kb8wej7uk,20,"[""White""]",No,Female,NA,I'm not sure,706906.099999994,NA,12625,NA,"{""product_choice"":""A""}",choice,ct,binary,repulsion,1,televisions,null,null,null,null,null,null,2,100,90,null,30,40,null,Screen size,Average lifespan,NA,NA
NA,NA,NA,NA,NA,choice_trial_setup,html-keyboard-response,38,302025,0.0-4.0-0.17,200,1,2025-05-05T20:21:59Z,b60275e29fe2361ab97ac0ac217840d7,"Mozilla/5.0 (Macintosh; Intel Mac OS X 10_15_7) AppleWebKit/537.36 (KHTML, like Gecko) Chrome/136.0.0.0 Safari/537.36",Macintosh,Chrome,136.0.0.0,OS X,10_15_7,https://5puzkbbxv1.cognition.run/?sona_id=52700,"en-US,en;q=0.9",ork436kb8wej7uk,20,"[""White""]",No,Female,NA,I'm not sure,706906.099999994,NA,null,<p></p>,null,choice,wb,binary,catch,null,microwave ovens,80,55,20,30,null,null,2,NA,NA,NA,NA,NA,NA,NA,NA,NA,NA
NA,NA,NA,NA,NA,choice_trial,survey-html-form,39,310089,0.0-4.0-1.17,200,1,2025-05-05T20:21:59Z,b60275e29fe2361ab97ac0ac217840d7,"Mozilla/5.0 (Macintosh; Intel Mac OS X 10_15_7) AppleWebKit/537.36 (KHTML, like Gecko) Chrome/136.0.0.0 Safari/537.36",Macintosh,Chrome,136.0.0.0,OS X,10_15_7,https://5puzkbbxv1.cognition.run/?sona_id=52700,"en-US,en;q=0.9",ork436kb8wej7uk,20,"[""White""]",No,Female,NA,I'm not sure,706906.099999994,NA,8059,NA,"{""product_choice"":""B""}",choice,wb,binary,catch,null,microwave ovens,80,55,20,30,null,null,2,null,null,null,null,null,null,Warranty,Cooking power,NA,NA
NA,NA,NA,NA,NA,choice_trial_setup,html-keyboard-response,40,310392,0.0-4.0-0.18,200,1,2025-05-05T20:21:59Z,b60275e29fe2361ab97ac0ac217840d7,"Mozilla/5.0 (Macintosh; Intel Mac OS X 10_15_7) AppleWebKit/537.36 (KHTML, like Gecko) Chrome/136.0.0.0 Safari/537.36",Macintosh,Chrome,136.0.0.0,OS X,10_15_7,https://5puzkbbxv1.cognition.run/?sona_id=52700,"en-US,en;q=0.9",ork436kb8wej7uk,20,"[""White""]",No,Female,NA,I'm not sure,706906.099999994,NA,null,<p></p>,null,choice,tdc,trinary,repulsion_B,1,televisions,null,null,null,null,null,null,1,NA,NA,NA,NA,NA,NA,NA,NA,NA,NA
NA,NA,NA,NA,NA,choice_trial,survey-html-form,41,318372,0.0-4.0-1.18,200,1,2025-05-05T20:21:59Z,b60275e29fe2361ab97ac0ac217840d7,"Mozilla/5.0 (Macintosh; Intel Mac OS X 10_15_7) AppleWebKit/537.36 (KHTML, like Gecko) Chrome/136.0.0.0 Safari/537.36",Macintosh,Chrome,136.0.0.0,OS X,10_15_7,https://5puzkbbxv1.cognition.run/?sona_id=52700,"en-US,en;q=0.9",ork436kb8wej7uk,20,"[""White""]",No,Female,NA,I'm not sure,706906.099999994,NA,7975,NA,"{""product_choice"":""A""}",choice,tdc,trinary,repulsion_B,1,televisions,null,null,null,null,null,null,1,90,100,80,40,30,40,Screen size,Average lifespan,NA,NA
NA,NA,NA,NA,NA,choice_trial_setup,html-keyboard-response,42,318677,0.0-4.0-0.19,200,1,2025-05-05T20:21:59Z,b60275e29fe2361ab97ac0ac217840d7,"Mozilla/5.0 (Macintosh; Intel Mac OS X 10_15_7) AppleWebKit/537.36 (KHTML, like Gecko) Chrome/136.0.0.0 Safari/537.36",Macintosh,Chrome,136.0.0.0,OS X,10_15_7,https://5puzkbbxv1.cognition.run/?sona_id=52700,"en-US,en;q=0.9",ork436kb8wej7uk,20,"[""White""]",No,Female,NA,I'm not sure,706906.099999994,NA,null,<p></p>,null,choice,dtc,trinary,repulsion_B,2,washing machines,null,null,null,null,null,null,2,NA,NA,NA,NA,NA,NA,NA,NA,NA,NA
NA,NA,NA,NA,NA,choice_trial,survey-html-form,43,325239,0.0-4.0-1.19,200,1,2025-05-05T20:21:59Z,b60275e29fe2361ab97ac0ac217840d7,"Mozilla/5.0 (Macintosh; Intel Mac OS X 10_15_7) AppleWebKit/537.36 (KHTML, like Gecko) Chrome/136.0.0.0 Safari/537.36",Macintosh,Chrome,136.0.0.0,OS X,10_15_7,https://5puzkbbxv1.cognition.run/?sona_id=52700,"en-US,en;q=0.9",ork436kb8wej7uk,20,"[""White""]",No,Female,NA,I'm not sure,706906.099999994,NA,6557,NA,"{""product_choice"":""B""}",choice,dtc,trinary,repulsion_B,2,washing machines,null,null,null,null,null,null,2,40,30,40,90,100,80,Average lifespan,Energy savings,NA,NA
NA,NA,NA,NA,NA,choice_trial_setup,html-keyboard-response,44,325542,0.0-4.0-0.20,200,1,2025-05-05T20:21:59Z,b60275e29fe2361ab97ac0ac217840d7,"Mozilla/5.0 (Macintosh; Intel Mac OS X 10_15_7) AppleWebKit/537.36 (KHTML, like Gecko) Chrome/136.0.0.0 Safari/537.36",Macintosh,Chrome,136.0.0.0,OS X,10_15_7,https://5puzkbbxv1.cognition.run/?sona_id=52700,"en-US,en;q=0.9",ork436kb8wej7uk,20,"[""White""]",No,Female,NA,I'm not sure,706906.099999994,NA,null,<p></p>,null,choice,wbw,trinary,catch,null,washing machines,65,60,40,5,30,25,2,NA,NA,NA,NA,NA,NA,NA,NA,NA,NA
NA,NA,NA,NA,NA,choice_trial,survey-html-form,45,343655,0.0-4.0-1.20,200,1,2025-05-05T20:21:59Z,b60275e29fe2361ab97ac0ac217840d7,"Mozilla/5.0 (Macintosh; Intel Mac OS X 10_15_7) AppleWebKit/537.36 (KHTML, like Gecko) Chrome/136.0.0.0 Safari/537.36",Macintosh,Chrome,136.0.0.0,OS X,10_15_7,https://5puzkbbxv1.cognition.run/?sona_id=52700,"en-US,en;q=0.9",ork436kb8wej7uk,20,"[""White""]",No,Female,NA,I'm not sure,706906.099999994,NA,18108,NA,"{""product_choice"":""B""}",choice,wbw,trinary,catch,null,washing machines,65,60,40,5,30,25,2,null,null,null,null,null,null,Average lifespan,Energy savings,NA,NA
NA,NA,NA,NA,NA,choice_trial_setup,html-keyboard-response,46,343959,0.0-4.0-0.21,200,1,2025-05-05T20:21:59Z,b60275e29fe2361ab97ac0ac217840d7,"Mozilla/5.0 (Macintosh; Intel Mac OS X 10_15_7) AppleWebKit/537.36 (KHTML, like Gecko) Chrome/136.0.0.0 Safari/537.36",Macintosh,Chrome,136.0.0.0,OS X,10_15_7,https://5puzkbbxv1.cognition.run/?sona_id=52700,"en-US,en;q=0.9",ork436kb8wej7uk,20,"[""White""]",No,Female,NA,I'm not sure,706906.099999994,NA,null,<p></p>,null,choice,ct,binary,attraction,NA,washing machines,null,null,null,null,null,null,2,NA,NA,NA,NA,NA,NA,NA,NA,NA,NA
NA,NA,NA,NA,NA,choice_trial,survey-html-form,47,359106,0.0-4.0-1.21,200,1,2025-05-05T20:21:59Z,b60275e29fe2361ab97ac0ac217840d7,"Mozilla/5.0 (Macintosh; Intel Mac OS X 10_15_7) AppleWebKit/537.36 (KHTML, like Gecko) Chrome/136.0.0.0 Safari/537.36",Macintosh,Chrome,136.0.0.0,OS X,10_15_7,https://5puzkbbxv1.cognition.run/?sona_id=52700,"en-US,en;q=0.9",ork436kb8wej7uk,20,"[""White""]",No,Female,NA,I'm not sure,706906.099999994,NA,15141,NA,"{""product_choice"":""B""}",choice,ct,binary,attraction,NA,washing machines,null,null,null,null,null,null,2,60,50,null,50,60,null,Average lifespan,Energy savings,NA,NA
NA,NA,NA,NA,NA,choice_trial_setup,html-keyboard-response,48,359411,0.0-4.0-0.22,200,1,2025-05-05T20:21:59Z,b60275e29fe2361ab97ac0ac217840d7,"Mozilla/5.0 (Macintosh; Intel Mac OS X 10_15_7) AppleWebKit/537.36 (KHTML, like Gecko) Chrome/136.0.0.0 Safari/537.36",Macintosh,Chrome,136.0.0.0,OS X,10_15_7,https://5puzkbbxv1.cognition.run/?sona_id=52700,"en-US,en;q=0.9",ork436kb8wej7uk,20,"[""White""]",No,Female,NA,I'm not sure,706906.099999994,NA,null,<p></p>,null,choice,tc,binary,repulsion,2,televisions,null,null,null,null,null,null,1,NA,NA,NA,NA,NA,NA,NA,NA,NA,NA
NA,NA,NA,NA,NA,choice_trial,survey-html-form,49,365073,0.0-4.0-1.22,200,1,2025-05-05T20:21:59Z,b60275e29fe2361ab97ac0ac217840d7,"Mozilla/5.0 (Macintosh; Intel Mac OS X 10_15_7) AppleWebKit/537.36 (KHTML, like Gecko) Chrome/136.0.0.0 Safari/537.36",Macintosh,Chrome,136.0.0.0,OS X,10_15_7,https://5puzkbbxv1.cognition.run/?sona_id=52700,"en-US,en;q=0.9",ork436kb8wej7uk,20,"[""White""]",No,Female,NA,I'm not sure,706906.099999994,NA,5656,NA,"{""product_choice"":""B""}",choice,tc,binary,repulsion,2,televisions,null,null,null,null,null,null,1,30,40,null,100,90,null,Screen size,Average lifespan,NA,NA
NA,NA,NA,NA,NA,choice_trial_setup,html-keyboard-response,50,365377,0.0-4.0-0.23,200,1,2025-05-05T20:21:59Z,b60275e29fe2361ab97ac0ac217840d7,"Mozilla/5.0 (Macintosh; Intel Mac OS X 10_15_7) AppleWebKit/537.36 (KHTML, like Gecko) Chrome/136.0.0.0 Safari/537.36",Macintosh,Chrome,136.0.0.0,OS X,10_15_7,https://5puzkbbxv1.cognition.run/?sona_id=52700,"en-US,en;q=0.9",ork436kb8wej7uk,20,"[""White""]",No,Female,NA,I'm not sure,706906.099999994,NA,null,<p></p>,null,choice,dtc,trinary,repulsion_B,2,televisions,null,null,null,null,null,null,2,NA,NA,NA,NA,NA,NA,NA,NA,NA,NA
NA,NA,NA,NA,NA,choice_trial,survey-html-form,51,403490,0.0-4.0-1.23,200,1,2025-05-05T20:21:59Z,b60275e29fe2361ab97ac0ac217840d7,"Mozilla/5.0 (Macintosh; Intel Mac OS X 10_15_7) AppleWebKit/537.36 (KHTML, like Gecko) Chrome/136.0.0.0 Safari/537.36",Macintosh,Chrome,136.0.0.0,OS X,10_15_7,https://5puzkbbxv1.cognition.run/?sona_id=52700,"en-US,en;q=0.9",ork436kb8wej7uk,20,"[""White""]",No,Female,NA,I'm not sure,706906.099999994,NA,38107,NA,"{""product_choice"":""B""}",choice,dtc,trinary,repulsion_B,2,televisions,null,null,null,null,null,null,2,40,30,40,90,100,80,Screen size,Average lifespan,NA,NA
NA,NA,NA,NA,NA,choice_trial_setup,html-keyboard-response,52,403796,0.0-4.0-0.24,200,1,2025-05-05T20:21:59Z,b60275e29fe2361ab97ac0ac217840d7,"Mozilla/5.0 (Macintosh; Intel Mac OS X 10_15_7) AppleWebKit/537.36 (KHTML, like Gecko) Chrome/136.0.0.0 Safari/537.36",Macintosh,Chrome,136.0.0.0,OS X,10_15_7,https://5puzkbbxv1.cognition.run/?sona_id=52700,"en-US,en;q=0.9",ork436kb8wej7uk,20,"[""White""]",No,Female,NA,I'm not sure,706906.099999994,NA,null,<p></p>,null,choice,dtc,trinary,attraction,2,televisions,null,null,null,null,null,null,2,NA,NA,NA,NA,NA,NA,NA,NA,NA,NA
NA,NA,NA,NA,NA,choice_trial,survey-html-form,53,415423,0.0-4.0-1.24,200,1,2025-05-05T20:21:59Z,b60275e29fe2361ab97ac0ac217840d7,"Mozilla/5.0 (Macintosh; Intel Mac OS X 10_15_7) AppleWebKit/537.36 (KHTML, like Gecko) Chrome/136.0.0.0 Safari/537.36",Macintosh,Chrome,136.0.0.0,OS X,10_15_7,https://5puzkbbxv1.cognition.run/?sona_id=52700,"en-US,en;q=0.9",ork436kb8wej7uk,20,"[""White""]",No,Female,NA,I'm not sure,706906.099999994,NA,11622,NA,"{""product_choice"":""B""}",choice,dtc,trinary,attraction,2,televisions,null,null,null,null,null,null,2,50,60,40,60,50,60,Screen size,Average lifespan,NA,NA
NA,NA,NA,NA,NA,choice_trial_setup,html-keyboard-response,54,415728,0.0-4.0-0.25,200,1,2025-05-05T20:21:59Z,b60275e29fe2361ab97ac0ac217840d7,"Mozilla/5.0 (Macintosh; Intel Mac OS X 10_15_7) AppleWebKit/537.36 (KHTML, like Gecko) Chrome/136.0.0.0 Safari/537.36",Macintosh,Chrome,136.0.0.0,OS X,10_15_7,https://5puzkbbxv1.cognition.run/?sona_id=52700,"en-US,en;q=0.9",ork436kb8wej7uk,20,"[""White""]",No,Female,NA,I'm not sure,706906.099999994,NA,null,<p></p>,null,choice,cdt,trinary,repulsion_A,2,washing machines,null,null,null,null,null,null,1,NA,NA,NA,NA,NA,NA,NA,NA,NA,NA
NA,NA,NA,NA,NA,choice_trial,survey-html-form,55,423023,0.0-4.0-1.25,200,1,2025-05-05T20:21:59Z,b60275e29fe2361ab97ac0ac217840d7,"Mozilla/5.0 (Macintosh; Intel Mac OS X 10_15_7) AppleWebKit/537.36 (KHTML, like Gecko) Chrome/136.0.0.0 Safari/537.36",Macintosh,Chrome,136.0.0.0,OS X,10_15_7,https://5puzkbbxv1.cognition.run/?sona_id=52700,"en-US,en;q=0.9",ork436kb8wej7uk,20,"[""White""]",No,Female,NA,I'm not sure,706906.099999994,NA,7292,NA,"{""product_choice"":""A""}",choice,cdt,trinary,repulsion_A,2,washing machines,null,null,null,null,null,null,1,30,40,20,100,90,100,Average lifespan,Energy savings,NA,NA
NA,NA,NA,NA,NA,choice_trial_setup,html-keyboard-response,56,423328,0.0-4.0-0.26,200,1,2025-05-05T20:21:59Z,b60275e29fe2361ab97ac0ac217840d7,"Mozilla/5.0 (Macintosh; Intel Mac OS X 10_15_7) AppleWebKit/537.36 (KHTML, like Gecko) Chrome/136.0.0.0 Safari/537.36",Macintosh,Chrome,136.0.0.0,OS X,10_15_7,https://5puzkbbxv1.cognition.run/?sona_id=52700,"en-US,en;q=0.9",ork436kb8wej7uk,20,"[""White""]",No,Female,NA,I'm not sure,706906.099999994,NA,null,<p></p>,null,choice,tcd,trinary,attraction,1,washing machines,null,null,null,null,null,null,2,NA,NA,NA,NA,NA,NA,NA,NA,NA,NA
NA,NA,NA,NA,NA,choice_trial,survey-html-form,57,449140,0.0-4.0-1.26,200,1,2025-05-05T20:21:59Z,b60275e29fe2361ab97ac0ac217840d7,"Mozilla/5.0 (Macintosh; Intel Mac OS X 10_15_7) AppleWebKit/537.36 (KHTML, like Gecko) Chrome/136.0.0.0 Safari/537.36",Macintosh,Chrome,136.0.0.0,OS X,10_15_7,https://5puzkbbxv1.cognition.run/?sona_id=52700,"en-US,en;q=0.9",ork436kb8wej7uk,20,"[""White""]",No,Female,NA,I'm not sure,706906.099999994,NA,25805,NA,"{""product_choice"":""A""}",choice,tcd,trinary,attraction,1,washing machines,null,null,null,null,null,null,2,60,50,60,50,60,40,Average lifespan,Energy savings,NA,NA
NA,NA,NA,NA,NA,choice_trial_setup,html-keyboard-response,58,449445,0.0-4.0-0.27,200,1,2025-05-05T20:21:59Z,b60275e29fe2361ab97ac0ac217840d7,"Mozilla/5.0 (Macintosh; Intel Mac OS X 10_15_7) AppleWebKit/537.36 (KHTML, like Gecko) Chrome/136.0.0.0 Safari/537.36",Macintosh,Chrome,136.0.0.0,OS X,10_15_7,https://5puzkbbxv1.cognition.run/?sona_id=52700,"en-US,en;q=0.9",ork436kb8wej7uk,20,"[""White""]",No,Female,NA,I'm not sure,706906.099999994,NA,null,<p></p>,null,choice,wb,binary,catch,null,laptops,95,60,10,10,null,null,2,NA,NA,NA,NA,NA,NA,NA,NA,NA,NA
NA,NA,NA,NA,NA,choice_trial,survey-html-form,59,452740,0.0-4.0-1.27,200,1,2025-05-05T20:21:59Z,b60275e29fe2361ab97ac0ac217840d7,"Mozilla/5.0 (Macintosh; Intel Mac OS X 10_15_7) AppleWebKit/537.36 (KHTML, like Gecko) Chrome/136.0.0.0 Safari/537.36",Macintosh,Chrome,136.0.0.0,OS X,10_15_7,https://5puzkbbxv1.cognition.run/?sona_id=52700,"en-US,en;q=0.9",ork436kb8wej7uk,20,"[""White""]",No,Female,NA,I'm not sure,706906.099999994,NA,3289,NA,"{""product_choice"":""B""}",choice,wb,binary,catch,null,laptops,95,60,10,10,null,null,2,null,null,null,null,null,null,Processing speed,Memory (RAM),NA,NA
NA,NA,NA,NA,NA,choice_trial_setup,html-keyboard-response,60,453045,0.0-4.0-0.28,200,1,2025-05-05T20:21:59Z,b60275e29fe2361ab97ac0ac217840d7,"Mozilla/5.0 (Macintosh; Intel Mac OS X 10_15_7) AppleWebKit/537.36 (KHTML, like Gecko) Chrome/136.0.0.0 Safari/537.36",Macintosh,Chrome,136.0.0.0,OS X,10_15_7,https://5puzkbbxv1.cognition.run/?sona_id=52700,"en-US,en;q=0.9",ork436kb8wej7uk,20,"[""White""]",No,Female,NA,I'm not sure,706906.099999994,NA,null,<p></p>,null,choice,tc,binary,repulsion,2,washing machines,null,null,null,null,null,null,1,NA,NA,NA,NA,NA,NA,NA,NA,NA,NA
NA,NA,NA,NA,NA,choice_trial,survey-html-form,61,458890,0.0-4.0-1.28,200,1,2025-05-05T20:21:59Z,b60275e29fe2361ab97ac0ac217840d7,"Mozilla/5.0 (Macintosh; Intel Mac OS X 10_15_7) AppleWebKit/537.36 (KHTML, like Gecko) Chrome/136.0.0.0 Safari/537.36",Macintosh,Chrome,136.0.0.0,OS X,10_15_7,https://5puzkbbxv1.cognition.run/?sona_id=52700,"en-US,en;q=0.9",ork436kb8wej7uk,20,"[""White""]",No,Female,NA,I'm not sure,706906.099999994,NA,5839,NA,"{""product_choice"":""B""}",choice,tc,binary,repulsion,2,washing machines,null,null,null,null,null,null,1,30,40,null,100,90,null,Average lifespan,Energy savings,NA,NA
NA,NA,NA,NA,NA,choice_trial_setup,html-keyboard-response,62,459195,0.0-4.0-0.29,200,1,2025-05-05T20:21:59Z,b60275e29fe2361ab97ac0ac217840d7,"Mozilla/5.0 (Macintosh; Intel Mac OS X 10_15_7) AppleWebKit/537.36 (KHTML, like Gecko) Chrome/136.0.0.0 Safari/537.36",Macintosh,Chrome,136.0.0.0,OS X,10_15_7,https://5puzkbbxv1.cognition.run/?sona_id=52700,"en-US,en;q=0.9",ork436kb8wej7uk,20,"[""White""]",No,Female,NA,I'm not sure,706906.099999994,NA,null,<p></p>,null,choice,dct,trinary,repulsion_B,1,laptops,null,null,null,null,null,null,1,NA,NA,NA,NA,NA,NA,NA,NA,NA,NA
NA,NA,NA,NA,NA,choice_trial,survey-html-form,63,466507,0.0-4.0-1.29,200,1,2025-05-05T20:21:59Z,b60275e29fe2361ab97ac0ac217840d7,"Mozilla/5.0 (Macintosh; Intel Mac OS X 10_15_7) AppleWebKit/537.36 (KHTML, like Gecko) Chrome/136.0.0.0 Safari/537.36",Macintosh,Chrome,136.0.0.0,OS X,10_15_7,https://5puzkbbxv1.cognition.run/?sona_id=52700,"en-US,en;q=0.9",ork436kb8wej7uk,20,"[""White""]",No,Female,NA,I'm not sure,706906.099999994,NA,7305,NA,"{""product_choice"":""C""}",choice,dct,trinary,repulsion_B,1,laptops,null,null,null,null,null,null,1,90,100,80,40,30,40,Processing speed,Memory (RAM),NA,NA
NA,NA,NA,NA,NA,choice_trial_setup,html-keyboard-response,64,466812,0.0-4.0-0.30,200,1,2025-05-05T20:21:59Z,b60275e29fe2361ab97ac0ac217840d7,"Mozilla/5.0 (Macintosh; Intel Mac OS X 10_15_7) AppleWebKit/537.36 (KHTML, like Gecko) Chrome/136.0.0.0 Safari/537.36",Macintosh,Chrome,136.0.0.0,OS X,10_15_7,https://5puzkbbxv1.cognition.run/?sona_id=52700,"en-US,en;q=0.9",ork436kb8wej7uk,20,"[""White""]",No,Female,NA,I'm not sure,706906.099999994,NA,null,<p></p>,null,choice,ct,binary,repulsion,2,microwave ovens,null,null,null,null,null,null,1,NA,NA,NA,NA,NA,NA,NA,NA,NA,NA
NA,NA,NA,NA,NA,choice_trial,survey-html-form,65,475940,0.0-4.0-1.30,200,1,2025-05-05T20:21:59Z,b60275e29fe2361ab97ac0ac217840d7,"Mozilla/5.0 (Macintosh; Intel Mac OS X 10_15_7) AppleWebKit/537.36 (KHTML, like Gecko) Chrome/136.0.0.0 Safari/537.36",Macintosh,Chrome,136.0.0.0,OS X,10_15_7,https://5puzkbbxv1.cognition.run/?sona_id=52700,"en-US,en;q=0.9",ork436kb8wej7uk,20,"[""White""]",No,Female,NA,I'm not sure,706906.099999994,NA,9122,NA,"{""product_choice"":""A""}",choice,ct,binary,repulsion,2,microwave ovens,null,null,null,null,null,null,1,30,40,null,100,90,null,Warranty,Cooking power,NA,NA
NA,NA,NA,NA,NA,choice_trial_setup,html-keyboard-response,66,476244,0.0-4.0-0.31,200,1,2025-05-05T20:21:59Z,b60275e29fe2361ab97ac0ac217840d7,"Mozilla/5.0 (Macintosh; Intel Mac OS X 10_15_7) AppleWebKit/537.36 (KHTML, like Gecko) Chrome/136.0.0.0 Safari/537.36",Macintosh,Chrome,136.0.0.0,OS X,10_15_7,https://5puzkbbxv1.cognition.run/?sona_id=52700,"en-US,en;q=0.9",ork436kb8wej7uk,20,"[""White""]",No,Female,NA,I'm not sure,706906.099999994,NA,null,<p></p>,null,choice,tc,binary,repulsion,1,laptops,null,null,null,null,null,null,1,NA,NA,NA,NA,NA,NA,NA,NA,NA,NA
NA,NA,NA,NA,NA,choice_trial,survey-html-form,67,481074,0.0-4.0-1.31,200,1,2025-05-05T20:21:59Z,b60275e29fe2361ab97ac0ac217840d7,"Mozilla/5.0 (Macintosh; Intel Mac OS X 10_15_7) AppleWebKit/537.36 (KHTML, like Gecko) Chrome/136.0.0.0 Safari/537.36",Macintosh,Chrome,136.0.0.0,OS X,10_15_7,https://5puzkbbxv1.cognition.run/?sona_id=52700,"en-US,en;q=0.9",ork436kb8wej7uk,20,"[""White""]",No,Female,NA,I'm not sure,706906.099999994,NA,4824,NA,"{""product_choice"":""B""}",choice,tc,binary,repulsion,1,laptops,null,null,null,null,null,null,1,100,90,null,30,40,null,Processing speed,Memory (RAM),NA,NA
NA,NA,NA,NA,NA,choice_trial_setup,html-keyboard-response,68,481379,0.0-4.0-0.32,200,1,2025-05-05T20:21:59Z,b60275e29fe2361ab97ac0ac217840d7,"Mozilla/5.0 (Macintosh; Intel Mac OS X 10_15_7) AppleWebKit/537.36 (KHTML, like Gecko) Chrome/136.0.0.0 Safari/537.36",Macintosh,Chrome,136.0.0.0,OS X,10_15_7,https://5puzkbbxv1.cognition.run/?sona_id=52700,"en-US,en;q=0.9",ork436kb8wej7uk,20,"[""White""]",No,Female,NA,I'm not sure,706906.099999994,NA,null,<p></p>,null,choice,dtc,trinary,attraction,1,microwave ovens,null,null,null,null,null,null,2,NA,NA,NA,NA,NA,NA,NA,NA,NA,NA
NA,NA,NA,NA,NA,choice_trial,survey-html-form,69,485990,0.0-4.0-1.32,200,1,2025-05-05T20:21:59Z,b60275e29fe2361ab97ac0ac217840d7,"Mozilla/5.0 (Macintosh; Intel Mac OS X 10_15_7) AppleWebKit/537.36 (KHTML, like Gecko) Chrome/136.0.0.0 Safari/537.36",Macintosh,Chrome,136.0.0.0,OS X,10_15_7,https://5puzkbbxv1.cognition.run/?sona_id=52700,"en-US,en;q=0.9",ork436kb8wej7uk,20,"[""White""]",No,Female,NA,I'm not sure,706906.099999994,NA,4605,NA,"{""product_choice"":""C""}",choice,dtc,trinary,attraction,1,microwave ovens,null,null,null,null,null,null,2,60,50,60,50,60,40,Warranty,Cooking power,NA,NA
NA,NA,NA,NA,NA,choice_trial_setup,html-keyboard-response,70,486295,0.0-4.0-0.33,200,1,2025-05-05T20:21:59Z,b60275e29fe2361ab97ac0ac217840d7,"Mozilla/5.0 (Macintosh; Intel Mac OS X 10_15_7) AppleWebKit/537.36 (KHTML, like Gecko) Chrome/136.0.0.0 Safari/537.36",Macintosh,Chrome,136.0.0.0,OS X,10_15_7,https://5puzkbbxv1.cognition.run/?sona_id=52700,"en-US,en;q=0.9",ork436kb8wej7uk,20,"[""White""]",No,Female,NA,I'm not sure,706906.099999994,NA,null,<p></p>,null,choice,wb,binary,catch,null,washing machines,55,60,45,5,null,null,2,NA,NA,NA,NA,NA,NA,NA,NA,NA,NA
NA,NA,NA,NA,NA,choice_trial,survey-html-form,71,490157,0.0-4.0-1.33,200,1,2025-05-05T20:21:59Z,b60275e29fe2361ab97ac0ac217840d7,"Mozilla/5.0 (Macintosh; Intel Mac OS X 10_15_7) AppleWebKit/537.36 (KHTML, like Gecko) Chrome/136.0.0.0 Safari/537.36",Macintosh,Chrome,136.0.0.0,OS X,10_15_7,https://5puzkbbxv1.cognition.run/?sona_id=52700,"en-US,en;q=0.9",ork436kb8wej7uk,20,"[""White""]",No,Female,NA,I'm not sure,706906.099999994,NA,3856,NA,"{""product_choice"":""B""}",choice,wb,binary,catch,null,washing machines,55,60,45,5,null,null,2,null,null,null,null,null,null,Average lifespan,Energy savings,NA,NA
NA,NA,NA,NA,NA,choice_trial_setup,html-keyboard-response,72,490462,0.0-4.0-0.34,200,1,2025-05-05T20:21:59Z,b60275e29fe2361ab97ac0ac217840d7,"Mozilla/5.0 (Macintosh; Intel Mac OS X 10_15_7) AppleWebKit/537.36 (KHTML, like Gecko) Chrome/136.0.0.0 Safari/537.36",Macintosh,Chrome,136.0.0.0,OS X,10_15_7,https://5puzkbbxv1.cognition.run/?sona_id=52700,"en-US,en;q=0.9",ork436kb8wej7uk,20,"[""White""]",No,Female,NA,I'm not sure,706906.099999994,NA,null,<p></p>,null,choice,dtc,trinary,repulsion_B,1,washing machines,null,null,null,null,null,null,1,NA,NA,NA,NA,NA,NA,NA,NA,NA,NA
NA,NA,NA,NA,NA,choice_trial,survey-html-form,73,495107,0.0-4.0-1.34,200,1,2025-05-05T20:21:59Z,b60275e29fe2361ab97ac0ac217840d7,"Mozilla/5.0 (Macintosh; Intel Mac OS X 10_15_7) AppleWebKit/537.36 (KHTML, like Gecko) Chrome/136.0.0.0 Safari/537.36",Macintosh,Chrome,136.0.0.0,OS X,10_15_7,https://5puzkbbxv1.cognition.run/?sona_id=52700,"en-US,en;q=0.9",ork436kb8wej7uk,20,"[""White""]",No,Female,NA,I'm not sure,706906.099999994,NA,4644,NA,"{""product_choice"":""B""}",choice,dtc,trinary,repulsion_B,1,washing machines,null,null,null,null,null,null,1,90,100,80,40,30,40,Average lifespan,Energy savings,NA,NA
NA,NA,NA,NA,NA,choice_trial_setup,html-keyboard-response,74,495413,0.0-4.0-0.35,200,1,2025-05-05T20:21:59Z,b60275e29fe2361ab97ac0ac217840d7,"Mozilla/5.0 (Macintosh; Intel Mac OS X 10_15_7) AppleWebKit/537.36 (KHTML, like Gecko) Chrome/136.0.0.0 Safari/537.36",Macintosh,Chrome,136.0.0.0,OS X,10_15_7,https://5puzkbbxv1.cognition.run/?sona_id=52700,"en-US,en;q=0.9",ork436kb8wej7uk,20,"[""White""]",No,Female,NA,I'm not sure,706906.099999994,NA,null,<p></p>,null,choice,dct,trinary,repulsion_A,1,microwave ovens,null,null,null,null,null,null,2,NA,NA,NA,NA,NA,NA,NA,NA,NA,NA
NA,NA,NA,NA,NA,choice_trial,survey-html-form,75,503524,0.0-4.0-1.35,200,1,2025-05-05T20:21:59Z,b60275e29fe2361ab97ac0ac217840d7,"Mozilla/5.0 (Macintosh; Intel Mac OS X 10_15_7) AppleWebKit/537.36 (KHTML, like Gecko) Chrome/136.0.0.0 Safari/537.36",Macintosh,Chrome,136.0.0.0,OS X,10_15_7,https://5puzkbbxv1.cognition.run/?sona_id=52700,"en-US,en;q=0.9",ork436kb8wej7uk,20,"[""White""]",No,Female,NA,I'm not sure,706906.099999994,NA,8105,NA,"{""product_choice"":""B""}",choice,dct,trinary,repulsion_A,1,microwave ovens,null,null,null,null,null,null,2,100,90,100,30,40,20,Warranty,Cooking power,NA,NA
NA,NA,NA,NA,NA,choice_trial_setup,html-keyboard-response,76,503832,0.0-4.0-0.36,200,1,2025-05-05T20:21:59Z,b60275e29fe2361ab97ac0ac217840d7,"Mozilla/5.0 (Macintosh; Intel Mac OS X 10_15_7) AppleWebKit/537.36 (KHTML, like Gecko) Chrome/136.0.0.0 Safari/537.36",Macintosh,Chrome,136.0.0.0,OS X,10_15_7,https://5puzkbbxv1.cognition.run/?sona_id=52700,"en-US,en;q=0.9",ork436kb8wej7uk,20,"[""White""]",No,Female,NA,I'm not sure,706906.099999994,NA,null,<p></p>,null,choice,dtc,trinary,repulsion_B,1,microwave ovens,null,null,null,null,null,null,2,NA,NA,NA,NA,NA,NA,NA,NA,NA,NA
NA,NA,NA,NA,NA,choice_trial,survey-html-form,77,509607,0.0-4.0-1.36,200,1,2025-05-05T20:21:59Z,b60275e29fe2361ab97ac0ac217840d7,"Mozilla/5.0 (Macintosh; Intel Mac OS X 10_15_7) AppleWebKit/537.36 (KHTML, like Gecko) Chrome/136.0.0.0 Safari/537.36",Macintosh,Chrome,136.0.0.0,OS X,10_15_7,https://5puzkbbxv1.cognition.run/?sona_id=52700,"en-US,en;q=0.9",ork436kb8wej7uk,20,"[""White""]",No,Female,NA,I'm not sure,706906.099999994,NA,5768,NA,"{""product_choice"":""B""}",choice,dtc,trinary,repulsion_B,1,microwave ovens,null,null,null,null,null,null,2,90,100,80,40,30,40,Warranty,Cooking power,NA,NA
NA,NA,NA,NA,NA,choice_trial_setup,html-keyboard-response,78,509912,0.0-4.0-0.37,200,1,2025-05-05T20:21:59Z,b60275e29fe2361ab97ac0ac217840d7,"Mozilla/5.0 (Macintosh; Intel Mac OS X 10_15_7) AppleWebKit/537.36 (KHTML, like Gecko) Chrome/136.0.0.0 Safari/537.36",Macintosh,Chrome,136.0.0.0,OS X,10_15_7,https://5puzkbbxv1.cognition.run/?sona_id=52700,"en-US,en;q=0.9",ork436kb8wej7uk,20,"[""White""]",No,Female,NA,I'm not sure,706906.099999994,NA,null,<p></p>,null,choice,wbw,trinary,catch,null,laptops,90,75,45,10,5,25,2,NA,NA,NA,NA,NA,NA,NA,NA,NA,NA
NA,NA,NA,NA,NA,choice_trial,survey-html-form,79,513274,0.0-4.0-1.37,200,1,2025-05-05T20:21:59Z,b60275e29fe2361ab97ac0ac217840d7,"Mozilla/5.0 (Macintosh; Intel Mac OS X 10_15_7) AppleWebKit/537.36 (KHTML, like Gecko) Chrome/136.0.0.0 Safari/537.36",Macintosh,Chrome,136.0.0.0,OS X,10_15_7,https://5puzkbbxv1.cognition.run/?sona_id=52700,"en-US,en;q=0.9",ork436kb8wej7uk,20,"[""White""]",No,Female,NA,I'm not sure,706906.099999994,NA,3357,NA,"{""product_choice"":""B""}",choice,wbw,trinary,catch,null,laptops,90,75,45,10,5,25,2,null,null,null,null,null,null,Processing speed,Memory (RAM),NA,NA
NA,NA,NA,NA,NA,choice_trial_setup,html-keyboard-response,80,513580,0.0-4.0-0.38,200,1,2025-05-05T20:21:59Z,b60275e29fe2361ab97ac0ac217840d7,"Mozilla/5.0 (Macintosh; Intel Mac OS X 10_15_7) AppleWebKit/537.36 (KHTML, like Gecko) Chrome/136.0.0.0 Safari/537.36",Macintosh,Chrome,136.0.0.0,OS X,10_15_7,https://5puzkbbxv1.cognition.run/?sona_id=52700,"en-US,en;q=0.9",ork436kb8wej7uk,20,"[""White""]",No,Female,NA,I'm not sure,706906.099999994,NA,null,<p></p>,null,choice,cdt,trinary,attraction,2,washing machines,null,null,null,null,null,null,2,NA,NA,NA,NA,NA,NA,NA,NA,NA,NA
NA,NA,NA,NA,NA,choice_trial,survey-html-form,81,521090,0.0-4.0-1.38,200,1,2025-05-05T20:21:59Z,b60275e29fe2361ab97ac0ac217840d7,"Mozilla/5.0 (Macintosh; Intel Mac OS X 10_15_7) AppleWebKit/537.36 (KHTML, like Gecko) Chrome/136.0.0.0 Safari/537.36",Macintosh,Chrome,136.0.0.0,OS X,10_15_7,https://5puzkbbxv1.cognition.run/?sona_id=52700,"en-US,en;q=0.9",ork436kb8wej7uk,20,"[""White""]",No,Female,NA,I'm not sure,706906.099999994,NA,7504,NA,"{""product_choice"":""A""}",choice,cdt,trinary,attraction,2,washing machines,null,null,null,null,null,null,2,50,60,40,60,50,60,Average lifespan,Energy savings,NA,NA
NA,NA,NA,NA,NA,choice_trial_setup,html-keyboard-response,82,521396,0.0-4.0-0.39,200,1,2025-05-05T20:21:59Z,b60275e29fe2361ab97ac0ac217840d7,"Mozilla/5.0 (Macintosh; Intel Mac OS X 10_15_7) AppleWebKit/537.36 (KHTML, like Gecko) Chrome/136.0.0.0 Safari/537.36",Macintosh,Chrome,136.0.0.0,OS X,10_15_7,https://5puzkbbxv1.cognition.run/?sona_id=52700,"en-US,en;q=0.9",ork436kb8wej7uk,20,"[""White""]",No,Female,NA,I'm not sure,706906.099999994,NA,null,<p></p>,null,choice,wwb,trinary,catch,null,televisions,70,85,10,5,50,40,2,NA,NA,NA,NA,NA,NA,NA,NA,NA,NA
NA,NA,NA,NA,NA,choice_trial,survey-html-form,83,526507,0.0-4.0-1.39,200,1,2025-05-05T20:21:59Z,b60275e29fe2361ab97ac0ac217840d7,"Mozilla/5.0 (Macintosh; Intel Mac OS X 10_15_7) AppleWebKit/537.36 (KHTML, like Gecko) Chrome/136.0.0.0 Safari/537.36",Macintosh,Chrome,136.0.0.0,OS X,10_15_7,https://5puzkbbxv1.cognition.run/?sona_id=52700,"en-US,en;q=0.9",ork436kb8wej7uk,20,"[""White""]",No,Female,NA,I'm not sure,706906.099999994,NA,5105,NA,"{""product_choice"":""C""}",choice,wwb,trinary,catch,null,televisions,70,85,10,5,50,40,2,null,null,null,null,null,null,Screen size,Average lifespan,NA,NA
NA,NA,NA,NA,NA,choice_trial_setup,html-keyboard-response,84,526812,0.0-4.0-0.40,200,1,2025-05-05T20:21:59Z,b60275e29fe2361ab97ac0ac217840d7,"Mozilla/5.0 (Macintosh; Intel Mac OS X 10_15_7) AppleWebKit/537.36 (KHTML, like Gecko) Chrome/136.0.0.0 Safari/537.36",Macintosh,Chrome,136.0.0.0,OS X,10_15_7,https://5puzkbbxv1.cognition.run/?sona_id=52700,"en-US,en;q=0.9",ork436kb8wej7uk,20,"[""White""]",No,Female,NA,I'm not sure,706906.099999994,NA,null,<p></p>,null,choice,bw,binary,catch,null,televisions,90,65,10,25,null,null,2,NA,NA,NA,NA,NA,NA,NA,NA,NA,NA
NA,NA,NA,NA,NA,choice_trial,survey-html-form,85,529391,0.0-4.0-1.40,200,1,2025-05-05T20:21:59Z,b60275e29fe2361ab97ac0ac217840d7,"Mozilla/5.0 (Macintosh; Intel Mac OS X 10_15_7) AppleWebKit/537.36 (KHTML, like Gecko) Chrome/136.0.0.0 Safari/537.36",Macintosh,Chrome,136.0.0.0,OS X,10_15_7,https://5puzkbbxv1.cognition.run/?sona_id=52700,"en-US,en;q=0.9",ork436kb8wej7uk,20,"[""White""]",No,Female,NA,I'm not sure,706906.099999994,NA,2572,NA,"{""product_choice"":""A""}",choice,bw,binary,catch,null,televisions,90,65,10,25,null,null,2,null,null,null,null,null,null,Screen size,Average lifespan,NA,NA
NA,NA,NA,NA,NA,choice_trial_setup,html-keyboard-response,86,529696,0.0-4.0-0.41,200,1,2025-05-05T20:21:59Z,b60275e29fe2361ab97ac0ac217840d7,"Mozilla/5.0 (Macintosh; Intel Mac OS X 10_15_7) AppleWebKit/537.36 (KHTML, like Gecko) Chrome/136.0.0.0 Safari/537.36",Macintosh,Chrome,136.0.0.0,OS X,10_15_7,https://5puzkbbxv1.cognition.run/?sona_id=52700,"en-US,en;q=0.9",ork436kb8wej7uk,20,"[""White""]",No,Female,NA,I'm not sure,706906.099999994,NA,null,<p></p>,null,choice,cdt,trinary,repulsion_B,2,microwave ovens,null,null,null,null,null,null,2,NA,NA,NA,NA,NA,NA,NA,NA,NA,NA
NA,NA,NA,NA,NA,choice_trial,survey-html-form,87,533857,0.0-4.0-1.41,200,1,2025-05-05T20:21:59Z,b60275e29fe2361ab97ac0ac217840d7,"Mozilla/5.0 (Macintosh; Intel Mac OS X 10_15_7) AppleWebKit/537.36 (KHTML, like Gecko) Chrome/136.0.0.0 Safari/537.36",Macintosh,Chrome,136.0.0.0,OS X,10_15_7,https://5puzkbbxv1.cognition.run/?sona_id=52700,"en-US,en;q=0.9",ork436kb8wej7uk,20,"[""White""]",No,Female,NA,I'm not sure,706906.099999994,NA,4155,NA,"{""product_choice"":""C""}",choice,cdt,trinary,repulsion_B,2,microwave ovens,null,null,null,null,null,null,2,40,30,40,90,100,80,Warranty,Cooking power,NA,NA
NA,NA,NA,NA,NA,choice_trial_setup,html-keyboard-response,88,534164,0.0-4.0-0.42,200,1,2025-05-05T20:21:59Z,b60275e29fe2361ab97ac0ac217840d7,"Mozilla/5.0 (Macintosh; Intel Mac OS X 10_15_7) AppleWebKit/537.36 (KHTML, like Gecko) Chrome/136.0.0.0 Safari/537.36",Macintosh,Chrome,136.0.0.0,OS X,10_15_7,https://5puzkbbxv1.cognition.run/?sona_id=52700,"en-US,en;q=0.9",ork436kb8wej7uk,20,"[""White""]",No,Female,NA,I'm not sure,706906.099999994,NA,null,<p></p>,null,choice,ctd,trinary,repulsion_A,2,televisions,null,null,null,null,null,null,2,NA,NA,NA,NA,NA,NA,NA,NA,NA,NA
NA,NA,NA,NA,NA,choice_trial,survey-html-form,89,537707,0.0-4.0-1.42,200,1,2025-05-05T20:21:59Z,b60275e29fe2361ab97ac0ac217840d7,"Mozilla/5.0 (Macintosh; Intel Mac OS X 10_15_7) AppleWebKit/537.36 (KHTML, like Gecko) Chrome/136.0.0.0 Safari/537.36",Macintosh,Chrome,136.0.0.0,OS X,10_15_7,https://5puzkbbxv1.cognition.run/?sona_id=52700,"en-US,en;q=0.9",ork436kb8wej7uk,20,"[""White""]",No,Female,NA,I'm not sure,706906.099999994,NA,3537,NA,"{""product_choice"":""A""}",choice,ctd,trinary,repulsion_A,2,televisions,null,null,null,null,null,null,2,30,40,20,100,90,100,Screen size,Average lifespan,NA,NA
NA,NA,NA,NA,NA,choice_trial_setup,html-keyboard-response,90,538013,0.0-4.0-0.43,200,1,2025-05-05T20:21:59Z,b60275e29fe2361ab97ac0ac217840d7,"Mozilla/5.0 (Macintosh; Intel Mac OS X 10_15_7) AppleWebKit/537.36 (KHTML, like Gecko) Chrome/136.0.0.0 Safari/537.36",Macintosh,Chrome,136.0.0.0,OS X,10_15_7,https://5puzkbbxv1.cognition.run/?sona_id=52700,"en-US,en;q=0.9",ork436kb8wej7uk,20,"[""White""]",No,Female,NA,I'm not sure,706906.099999994,NA,null,<p></p>,null,choice,tcd,trinary,repulsion_A,2,laptops,null,null,null,null,null,null,1,NA,NA,NA,NA,NA,NA,NA,NA,NA,NA
NA,NA,NA,NA,NA,choice_trial,survey-html-form,91,554791,0.0-4.0-1.43,200,1,2025-05-05T20:21:59Z,b60275e29fe2361ab97ac0ac217840d7,"Mozilla/5.0 (Macintosh; Intel Mac OS X 10_15_7) AppleWebKit/537.36 (KHTML, like Gecko) Chrome/136.0.0.0 Safari/537.36",Macintosh,Chrome,136.0.0.0,OS X,10_15_7,https://5puzkbbxv1.cognition.run/?sona_id=52700,"en-US,en;q=0.9",ork436kb8wej7uk,20,"[""White""]",No,Female,NA,I'm not sure,706906.099999994,NA,16769,NA,"{""product_choice"":""B""}",choice,tcd,trinary,repulsion_A,2,laptops,null,null,null,null,null,null,1,30,40,20,100,90,100,Processing speed,Memory (RAM),NA,NA
NA,NA,NA,NA,NA,post_trials_message,html-button-response,92,559324,0.0-5.0,200,1,2025-05-05T20:21:59Z,b60275e29fe2361ab97ac0ac217840d7,"Mozilla/5.0 (Macintosh; Intel Mac OS X 10_15_7) AppleWebKit/537.36 (KHTML, like Gecko) Chrome/136.0.0.0 Safari/537.36",Macintosh,Chrome,136.0.0.0,OS X,10_15_7,https://5puzkbbxv1.cognition.run/?sona_id=52700,"en-US,en;q=0.9",ork436kb8wej7uk,20,"[""White""]",No,Female,NA,I'm not sure,706906.099999994,NA,4527,<p> <b>Thank you for your patience!</b></p><p>  The study will be done after completing a brief form. </p>,0,NA,NA,NA,NA,NA,NA,NA,NA,NA,NA,NA,NA,NA,NA,NA,NA,NA,NA,NA,NA,NA,NA,NA
NA,NA,NA,NA,NA,survey_message,survey-text,93,648143,0.0-6.0,200,1,2025-05-05T20:21:59Z,b60275e29fe2361ab97ac0ac217840d7,"Mozilla/5.0 (Macintosh; Intel Mac OS X 10_15_7) AppleWebKit/537.36 (KHTML, like Gecko) Chrome/136.0.0.0 Safari/537.36",Macintosh,Chrome,136.0.0.0,OS X,10_15_7,https://5puzkbbxv1.cognition.run/?sona_id=52700,"en-US,en;q=0.9",ork436kb8wej7uk,20,"[""White""]",No,Female,NA,I'm not sure,706906.099999994,NA,88810,NA,"{""Q0"":""I wanted to choose the option that maximizes both categories, so if there was a choice between 100 in one category, but its counterpart category was only 30, I thought it would be better to chose the option that lowered one category to 90, but boosted the other to 40.""}",NA,NA,NA,NA,NA,NA,NA,NA,NA,NA,NA,NA,NA,NA,NA,NA,NA,NA,NA,NA,NA,"I wanted to choose the option that maximizes both categories, so if there was a choice between 100 in one category, but its counterpart category was only 30, I thought it would be better to chose the option that lowered one category to 90, but boosted the other to 40.",NA
NA,NA,NA,NA,NA,demo_age,survey-text,94,651008,0.0-7.0,200,1,2025-05-05T20:21:59Z,b60275e29fe2361ab97ac0ac217840d7,"Mozilla/5.0 (Macintosh; Intel Mac OS X 10_15_7) AppleWebKit/537.36 (KHTML, like Gecko) Chrome/136.0.0.0 Safari/537.36",Macintosh,Chrome,136.0.0.0,OS X,10_15_7,https://5puzkbbxv1.cognition.run/?sona_id=52700,"en-US,en;q=0.9",ork436kb8wej7uk,20,"[""White""]",No,Female,NA,I'm not sure,706906.099999994,NA,2861,NA,"{""Q0"":""20""}",NA,NA,NA,NA,NA,NA,NA,NA,NA,NA,NA,NA,NA,NA,NA,NA,NA,NA,NA,NA,NA,NA,NA
NA,NA,NA,NA,NA,demo_race,survey-multi-select,95,654210,0.0-8.0,200,1,2025-05-05T20:21:59Z,b60275e29fe2361ab97ac0ac217840d7,"Mozilla/5.0 (Macintosh; Intel Mac OS X 10_15_7) AppleWebKit/537.36 (KHTML, like Gecko) Chrome/136.0.0.0 Safari/537.36",Macintosh,Chrome,136.0.0.0,OS X,10_15_7,https://5puzkbbxv1.cognition.run/?sona_id=52700,"en-US,en;q=0.9",ork436kb8wej7uk,20,"[""White""]",No,Female,NA,I'm not sure,706906.099999994,NA,3195,NA,"{""Q0"":[""White""]}",NA,NA,NA,NA,NA,NA,NA,NA,NA,NA,NA,NA,NA,NA,NA,NA,NA,NA,NA,NA,NA,NA,[0]
NA,NA,NA,NA,NA,demo_ethnicity_gender,survey-multi-choice,96,658293,0.0-9.0,200,1,2025-05-05T20:21:59Z,b60275e29fe2361ab97ac0ac217840d7,"Mozilla/5.0 (Macintosh; Intel Mac OS X 10_15_7) AppleWebKit/537.36 (KHTML, like Gecko) Chrome/136.0.0.0 Safari/537.36",Macintosh,Chrome,136.0.0.0,OS X,10_15_7,https://5puzkbbxv1.cognition.run/?sona_id=52700,"en-US,en;q=0.9",ork436kb8wej7uk,20,"[""White""]",No,Female,NA,I'm not sure,706906.099999994,NA,4076,NA,"{""Q0"":""No"",""Q1"":""Female""}",NA,NA,NA,NA,NA,NA,NA,NA,NA,NA,NA,NA,NA,NA,NA,NA,NA,NA,NA,NA,NA,NA,"[0,1]"
NA,NA,NA,NA,NA,demo_countries,survey-text,97,663458,0.0-10.0,200,1,2025-05-05T20:21:59Z,b60275e29fe2361ab97ac0ac217840d7,"Mozilla/5.0 (Macintosh; Intel Mac OS X 10_15_7) AppleWebKit/537.36 (KHTML, like Gecko) Chrome/136.0.0.0 Safari/537.36",Macintosh,Chrome,136.0.0.0,OS X,10_15_7,https://5puzkbbxv1.cognition.run/?sona_id=52700,"en-US,en;q=0.9",ork436kb8wej7uk,20,"[""White""]",No,Female,NA,I'm not sure,706906.099999994,NA,5148,NA,"{""Q0"":""NA""}",NA,NA,NA,NA,NA,NA,NA,NA,NA,NA,NA,NA,NA,NA,NA,NA,NA,NA,NA,NA,NA,NA,NA
NA,NA,NA,NA,NA,demo_prev_study,survey-multi-choice,98,670258,0.0-11.0,200,1,2025-05-05T20:21:59Z,b60275e29fe2361ab97ac0ac217840d7,"Mozilla/5.0 (Macintosh; Intel Mac OS X 10_15_7) AppleWebKit/537.36 (KHTML, like Gecko) Chrome/136.0.0.0 Safari/537.36",Macintosh,Chrome,136.0.0.0,OS X,10_15_7,https://5puzkbbxv1.cognition.run/?sona_id=52700,"en-US,en;q=0.9",ork436kb8wej7uk,20,"[""White""]",No,Female,NA,I'm not sure,706906.099999994,NA,6795,NA,"{""Q0"":""I'm not sure""}",NA,NA,NA,NA,NA,NA,NA,NA,NA,NA,NA,NA,NA,NA,NA,NA,NA,NA,NA,NA,NA,NA,[0]
NA,NA,NA,NA,NA,post_survey_message,html-keyboard-response,99,679780,0.0-12.0,200,1,2025-05-05T20:21:59Z,b60275e29fe2361ab97ac0ac217840d7,"Mozilla/5.0 (Macintosh; Intel Mac OS X 10_15_7) AppleWebKit/537.36 (KHTML, like Gecko) Chrome/136.0.0.0 Safari/537.36",Macintosh,Chrome,136.0.0.0,OS X,10_15_7,https://5puzkbbxv1.cognition.run/?sona_id=52700,"en-US,en;q=0.9",ork436kb8wej7uk,20,"[""White""]",No,Female,NA,I'm not sure,706906.099999994,NA,9515,NA,j,NA,NA,NA,NA,NA,NA,NA,NA,NA,NA,NA,NA,NA,NA,NA,NA,NA,NA,NA,NA,NA,NA,NA
NA,NA,NA,NA,NA,debrief,image-keyboard-response,100,706920,0.0-13.0,200,1,2025-05-05T20:21:59Z,b60275e29fe2361ab97ac0ac217840d7,"Mozilla/5.0 (Macintosh; Intel Mac OS X 10_15_7) AppleWebKit/537.36 (KHTML, like Gecko) Chrome/136.0.0.0 Safari/537.36",Macintosh,Chrome,136.0.0.0,OS X,10_15_7,https://5puzkbbxv1.cognition.run/?sona_id=52700,"en-US,en;q=0.9",ork436kb8wej7uk,20,"[""White""]",No,Female,NA,I'm not sure,706906.099999994,NA,27133,Judg_choice_debrief.png,p,NA,NA,NA,NA,NA,NA,NA,NA,NA,NA,NA,NA,NA,NA,NA,NA,NA,NA,NA,NA,NA,NA,NA
