success,timeout,failed_images,failed_audio,failed_video,screen_id,trial_type,trial_index,time_elapsed,internal_node_id,run_id,condition,recorded_at,source_code_version,user_agent,device,browser,browser_version,platform,platform_version,referer,accept_language,ppt_id,age,race,ethnicity,gender,other_countries,prev_study,exp_duration,view_history,rt,stimulus,response,phase,order,set,effect,t_high,category,d1_best,d2_best,d1_worst1,d2_worst1,d1_worst2,d2_worst2,first_dim,d1_t,d1_c,d1_d,d2_t,d2_c,d2_d,d1_name,d2_name,strategy_response,question_order
TRUE,FALSE,[],[],[],img preload,preload,0,122,0.0-0.0,201,1,2025-05-05T20:25:19Z,b60275e29fe2361ab97ac0ac217840d7,"Mozilla/5.0 (Macintosh; Intel Mac OS X 10_15_7) AppleWebKit/537.36 (KHTML, like Gecko) Chrome/131.0.0.0 Safari/537.36",Macintosh,Chrome,131.0.0.0,OS X,10_15_7,https://5puzkbbxv1.cognition.run/?sona_id=57600,"en-US,en;q=0.9",1lv9k28cjhgtx78,19,"[""White""]",No,Female,NA,No,783815.6000000238,NA,NA,NA,NA,NA,NA,NA,NA,NA,NA,NA,NA,NA,NA,NA,NA,NA,NA,NA,NA,NA,NA,NA,NA,NA,NA,NA
NA,NA,NA,NA,NA,computer_message,instructions,1,5878,0.0-1.0,201,1,2025-05-05T20:25:19Z,b60275e29fe2361ab97ac0ac217840d7,"Mozilla/5.0 (Macintosh; Intel Mac OS X 10_15_7) AppleWebKit/537.36 (KHTML, like Gecko) Chrome/131.0.0.0 Safari/537.36",Macintosh,Chrome,131.0.0.0,OS X,10_15_7,https://5puzkbbxv1.cognition.run/?sona_id=57600,"en-US,en;q=0.9",1lv9k28cjhgtx78,19,"[""White""]",No,Female,NA,No,783815.6000000238,"[{""page_index"":0,""viewing_time"":5754}]",5755,NA,NA,NA,NA,NA,NA,NA,NA,NA,NA,NA,NA,NA,NA,NA,NA,NA,NA,NA,NA,NA,NA,NA,NA,NA
TRUE,NA,NA,NA,NA,NA,fullscreen,2,9802,0.0-2.0,201,1,2025-05-05T20:25:19Z,b60275e29fe2361ab97ac0ac217840d7,"Mozilla/5.0 (Macintosh; Intel Mac OS X 10_15_7) AppleWebKit/537.36 (KHTML, like Gecko) Chrome/131.0.0.0 Safari/537.36",Macintosh,Chrome,131.0.0.0,OS X,10_15_7,https://5puzkbbxv1.cognition.run/?sona_id=57600,"en-US,en;q=0.9",1lv9k28cjhgtx78,19,"[""White""]",No,Female,NA,No,783815.6000000238,NA,2921,NA,NA,NA,NA,NA,NA,NA,NA,NA,NA,NA,NA,NA,NA,NA,NA,NA,NA,NA,NA,NA,NA,NA,NA,NA
NA,NA,NA,NA,NA,choice_instructions,instructions,3,83423,0.0-3.0,201,1,2025-05-05T20:25:19Z,b60275e29fe2361ab97ac0ac217840d7,"Mozilla/5.0 (Macintosh; Intel Mac OS X 10_15_7) AppleWebKit/537.36 (KHTML, like Gecko) Chrome/131.0.0.0 Safari/537.36",Macintosh,Chrome,131.0.0.0,OS X,10_15_7,https://5puzkbbxv1.cognition.run/?sona_id=57600,"en-US,en;q=0.9",1lv9k28cjhgtx78,19,"[""White""]",No,Female,NA,No,783815.6000000238,"[{""page_index"":0,""viewing_time"":1785},{""page_index"":1,""viewing_time"":7515},{""page_index"":2,""viewing_time"":10804},{""page_index"":1,""viewing_time"":1845},{""page_index"":2,""viewing_time"":554},{""page_index"":3,""viewing_time"":7176},{""page_index"":4,""viewing_time"":4419},{""page_index"":5,""viewing_time"":25800},{""page_index"":6,""viewing_time"":13722}]",73619,NA,NA,NA,NA,NA,NA,NA,NA,NA,NA,NA,NA,NA,NA,NA,NA,NA,NA,NA,NA,NA,NA,NA,NA,NA
NA,NA,NA,NA,NA,choice_trial_setup,html-keyboard-response,4,83727,0.0-4.0-0.0,201,1,2025-05-05T20:25:19Z,b60275e29fe2361ab97ac0ac217840d7,"Mozilla/5.0 (Macintosh; Intel Mac OS X 10_15_7) AppleWebKit/537.36 (KHTML, like Gecko) Chrome/131.0.0.0 Safari/537.36",Macintosh,Chrome,131.0.0.0,OS X,10_15_7,https://5puzkbbxv1.cognition.run/?sona_id=57600,"en-US,en;q=0.9",1lv9k28cjhgtx78,19,"[""White""]",No,Female,NA,No,783815.6000000238,NA,null,<p></p>,null,choice,ctd,trinary,repulsion_A,2,laptops,null,null,null,null,null,null,1,NA,NA,NA,NA,NA,NA,NA,NA,NA,NA
NA,NA,NA,NA,NA,choice_trial,survey-html-form,5,98704,0.0-4.0-1.0,201,1,2025-05-05T20:25:19Z,b60275e29fe2361ab97ac0ac217840d7,"Mozilla/5.0 (Macintosh; Intel Mac OS X 10_15_7) AppleWebKit/537.36 (KHTML, like Gecko) Chrome/131.0.0.0 Safari/537.36",Macintosh,Chrome,131.0.0.0,OS X,10_15_7,https://5puzkbbxv1.cognition.run/?sona_id=57600,"en-US,en;q=0.9",1lv9k28cjhgtx78,19,"[""White""]",No,Female,NA,No,783815.6000000238,NA,14970,NA,"{""product_choice"":""B""}",choice,ctd,trinary,repulsion_A,2,laptops,null,null,null,null,null,null,1,30,40,20,100,90,100,Processing speed,Memory (RAM),NA,NA
NA,NA,NA,NA,NA,choice_trial_setup,html-keyboard-response,6,99007,0.0-4.0-0.1,201,1,2025-05-05T20:25:19Z,b60275e29fe2361ab97ac0ac217840d7,"Mozilla/5.0 (Macintosh; Intel Mac OS X 10_15_7) AppleWebKit/537.36 (KHTML, like Gecko) Chrome/131.0.0.0 Safari/537.36",Macintosh,Chrome,131.0.0.0,OS X,10_15_7,https://5puzkbbxv1.cognition.run/?sona_id=57600,"en-US,en;q=0.9",1lv9k28cjhgtx78,19,"[""White""]",No,Female,NA,No,783815.6000000238,NA,null,<p></p>,null,choice,tc,binary,repulsion,1,microwave ovens,null,null,null,null,null,null,1,NA,NA,NA,NA,NA,NA,NA,NA,NA,NA
NA,NA,NA,NA,NA,choice_trial,survey-html-form,7,109023,0.0-4.0-1.1,201,1,2025-05-05T20:25:19Z,b60275e29fe2361ab97ac0ac217840d7,"Mozilla/5.0 (Macintosh; Intel Mac OS X 10_15_7) AppleWebKit/537.36 (KHTML, like Gecko) Chrome/131.0.0.0 Safari/537.36",Macintosh,Chrome,131.0.0.0,OS X,10_15_7,https://5puzkbbxv1.cognition.run/?sona_id=57600,"en-US,en;q=0.9",1lv9k28cjhgtx78,19,"[""White""]",No,Female,NA,No,783815.6000000238,NA,10008,NA,"{""product_choice"":""B""}",choice,tc,binary,repulsion,1,microwave ovens,null,null,null,null,null,null,1,100,90,null,30,40,null,Warranty,Cooking power,NA,NA
NA,NA,NA,NA,NA,choice_trial_setup,html-keyboard-response,8,109326,0.0-4.0-0.2,201,1,2025-05-05T20:25:19Z,b60275e29fe2361ab97ac0ac217840d7,"Mozilla/5.0 (Macintosh; Intel Mac OS X 10_15_7) AppleWebKit/537.36 (KHTML, like Gecko) Chrome/131.0.0.0 Safari/537.36",Macintosh,Chrome,131.0.0.0,OS X,10_15_7,https://5puzkbbxv1.cognition.run/?sona_id=57600,"en-US,en;q=0.9",1lv9k28cjhgtx78,19,"[""White""]",No,Female,NA,No,783815.6000000238,NA,null,<p></p>,null,choice,ctd,trinary,repulsion_A,1,laptops,null,null,null,null,null,null,1,NA,NA,NA,NA,NA,NA,NA,NA,NA,NA
NA,NA,NA,NA,NA,choice_trial,survey-html-form,9,125264,0.0-4.0-1.2,201,1,2025-05-05T20:25:19Z,b60275e29fe2361ab97ac0ac217840d7,"Mozilla/5.0 (Macintosh; Intel Mac OS X 10_15_7) AppleWebKit/537.36 (KHTML, like Gecko) Chrome/131.0.0.0 Safari/537.36",Macintosh,Chrome,131.0.0.0,OS X,10_15_7,https://5puzkbbxv1.cognition.run/?sona_id=57600,"en-US,en;q=0.9",1lv9k28cjhgtx78,19,"[""White""]",No,Female,NA,No,783815.6000000238,NA,15932,NA,"{""product_choice"":""B""}",choice,ctd,trinary,repulsion_A,1,laptops,null,null,null,null,null,null,1,100,90,100,30,40,20,Processing speed,Memory (RAM),NA,NA
NA,NA,NA,NA,NA,choice_trial_setup,html-keyboard-response,10,125567,0.0-4.0-0.3,201,1,2025-05-05T20:25:19Z,b60275e29fe2361ab97ac0ac217840d7,"Mozilla/5.0 (Macintosh; Intel Mac OS X 10_15_7) AppleWebKit/537.36 (KHTML, like Gecko) Chrome/131.0.0.0 Safari/537.36",Macintosh,Chrome,131.0.0.0,OS X,10_15_7,https://5puzkbbxv1.cognition.run/?sona_id=57600,"en-US,en;q=0.9",1lv9k28cjhgtx78,19,"[""White""]",No,Female,NA,No,783815.6000000238,NA,null,<p></p>,null,choice,dtc,trinary,attraction,1,televisions,null,null,null,null,null,null,2,NA,NA,NA,NA,NA,NA,NA,NA,NA,NA
NA,NA,NA,NA,NA,choice_trial,survey-html-form,11,132312,0.0-4.0-1.3,201,1,2025-05-05T20:25:19Z,b60275e29fe2361ab97ac0ac217840d7,"Mozilla/5.0 (Macintosh; Intel Mac OS X 10_15_7) AppleWebKit/537.36 (KHTML, like Gecko) Chrome/131.0.0.0 Safari/537.36",Macintosh,Chrome,131.0.0.0,OS X,10_15_7,https://5puzkbbxv1.cognition.run/?sona_id=57600,"en-US,en;q=0.9",1lv9k28cjhgtx78,19,"[""White""]",No,Female,NA,No,783815.6000000238,NA,6742,NA,"{""product_choice"":""C""}",choice,dtc,trinary,attraction,1,televisions,null,null,null,null,null,null,2,60,50,60,50,60,40,Screen size,Average lifespan,NA,NA
NA,NA,NA,NA,NA,choice_trial_setup,html-keyboard-response,12,132615,0.0-4.0-0.4,201,1,2025-05-05T20:25:19Z,b60275e29fe2361ab97ac0ac217840d7,"Mozilla/5.0 (Macintosh; Intel Mac OS X 10_15_7) AppleWebKit/537.36 (KHTML, like Gecko) Chrome/131.0.0.0 Safari/537.36",Macintosh,Chrome,131.0.0.0,OS X,10_15_7,https://5puzkbbxv1.cognition.run/?sona_id=57600,"en-US,en;q=0.9",1lv9k28cjhgtx78,19,"[""White""]",No,Female,NA,No,783815.6000000238,NA,null,<p></p>,null,choice,dct,trinary,repulsion_B,1,laptops,null,null,null,null,null,null,1,NA,NA,NA,NA,NA,NA,NA,NA,NA,NA
NA,NA,NA,NA,NA,choice_trial,survey-html-form,13,140878,0.0-4.0-1.4,201,1,2025-05-05T20:25:19Z,b60275e29fe2361ab97ac0ac217840d7,"Mozilla/5.0 (Macintosh; Intel Mac OS X 10_15_7) AppleWebKit/537.36 (KHTML, like Gecko) Chrome/131.0.0.0 Safari/537.36",Macintosh,Chrome,131.0.0.0,OS X,10_15_7,https://5puzkbbxv1.cognition.run/?sona_id=57600,"en-US,en;q=0.9",1lv9k28cjhgtx78,19,"[""White""]",No,Female,NA,No,783815.6000000238,NA,8259,NA,"{""product_choice"":""C""}",choice,dct,trinary,repulsion_B,1,laptops,null,null,null,null,null,null,1,90,100,80,40,30,40,Processing speed,Memory (RAM),NA,NA
NA,NA,NA,NA,NA,choice_trial_setup,html-keyboard-response,14,141181,0.0-4.0-0.5,201,1,2025-05-05T20:25:19Z,b60275e29fe2361ab97ac0ac217840d7,"Mozilla/5.0 (Macintosh; Intel Mac OS X 10_15_7) AppleWebKit/537.36 (KHTML, like Gecko) Chrome/131.0.0.0 Safari/537.36",Macintosh,Chrome,131.0.0.0,OS X,10_15_7,https://5puzkbbxv1.cognition.run/?sona_id=57600,"en-US,en;q=0.9",1lv9k28cjhgtx78,19,"[""White""]",No,Female,NA,No,783815.6000000238,NA,null,<p></p>,null,choice,cdt,trinary,repulsion_B,2,laptops,null,null,null,null,null,null,2,NA,NA,NA,NA,NA,NA,NA,NA,NA,NA
NA,NA,NA,NA,NA,choice_trial,survey-html-form,15,150492,0.0-4.0-1.5,201,1,2025-05-05T20:25:19Z,b60275e29fe2361ab97ac0ac217840d7,"Mozilla/5.0 (Macintosh; Intel Mac OS X 10_15_7) AppleWebKit/537.36 (KHTML, like Gecko) Chrome/131.0.0.0 Safari/537.36",Macintosh,Chrome,131.0.0.0,OS X,10_15_7,https://5puzkbbxv1.cognition.run/?sona_id=57600,"en-US,en;q=0.9",1lv9k28cjhgtx78,19,"[""White""]",No,Female,NA,No,783815.6000000238,NA,9309,NA,"{""product_choice"":""C""}",choice,cdt,trinary,repulsion_B,2,laptops,null,null,null,null,null,null,2,40,30,40,90,100,80,Processing speed,Memory (RAM),NA,NA
NA,NA,NA,NA,NA,choice_trial_setup,html-keyboard-response,16,150795,0.0-4.0-0.6,201,1,2025-05-05T20:25:19Z,b60275e29fe2361ab97ac0ac217840d7,"Mozilla/5.0 (Macintosh; Intel Mac OS X 10_15_7) AppleWebKit/537.36 (KHTML, like Gecko) Chrome/131.0.0.0 Safari/537.36",Macintosh,Chrome,131.0.0.0,OS X,10_15_7,https://5puzkbbxv1.cognition.run/?sona_id=57600,"en-US,en;q=0.9",1lv9k28cjhgtx78,19,"[""White""]",No,Female,NA,No,783815.6000000238,NA,null,<p></p>,null,choice,tc,binary,repulsion,2,laptops,null,null,null,null,null,null,1,NA,NA,NA,NA,NA,NA,NA,NA,NA,NA
NA,NA,NA,NA,NA,choice_trial,survey-html-form,17,161496,0.0-4.0-1.6,201,1,2025-05-05T20:25:19Z,b60275e29fe2361ab97ac0ac217840d7,"Mozilla/5.0 (Macintosh; Intel Mac OS X 10_15_7) AppleWebKit/537.36 (KHTML, like Gecko) Chrome/131.0.0.0 Safari/537.36",Macintosh,Chrome,131.0.0.0,OS X,10_15_7,https://5puzkbbxv1.cognition.run/?sona_id=57600,"en-US,en;q=0.9",1lv9k28cjhgtx78,19,"[""White""]",No,Female,NA,No,783815.6000000238,NA,10697,NA,"{""product_choice"":""B""}",choice,tc,binary,repulsion,2,laptops,null,null,null,null,null,null,1,30,40,null,100,90,null,Processing speed,Memory (RAM),NA,NA
NA,NA,NA,NA,NA,choice_trial_setup,html-keyboard-response,18,161799,0.0-4.0-0.7,201,1,2025-05-05T20:25:19Z,b60275e29fe2361ab97ac0ac217840d7,"Mozilla/5.0 (Macintosh; Intel Mac OS X 10_15_7) AppleWebKit/537.36 (KHTML, like Gecko) Chrome/131.0.0.0 Safari/537.36",Macintosh,Chrome,131.0.0.0,OS X,10_15_7,https://5puzkbbxv1.cognition.run/?sona_id=57600,"en-US,en;q=0.9",1lv9k28cjhgtx78,19,"[""White""]",No,Female,NA,No,783815.6000000238,NA,null,<p></p>,null,choice,tdc,trinary,repulsion_B,2,microwave ovens,null,null,null,null,null,null,2,NA,NA,NA,NA,NA,NA,NA,NA,NA,NA
NA,NA,NA,NA,NA,choice_trial,survey-html-form,19,169917,0.0-4.0-1.7,201,1,2025-05-05T20:25:19Z,b60275e29fe2361ab97ac0ac217840d7,"Mozilla/5.0 (Macintosh; Intel Mac OS X 10_15_7) AppleWebKit/537.36 (KHTML, like Gecko) Chrome/131.0.0.0 Safari/537.36",Macintosh,Chrome,131.0.0.0,OS X,10_15_7,https://5puzkbbxv1.cognition.run/?sona_id=57600,"en-US,en;q=0.9",1lv9k28cjhgtx78,19,"[""White""]",No,Female,NA,No,783815.6000000238,NA,8116,NA,"{""product_choice"":""A""}",choice,tdc,trinary,repulsion_B,2,microwave ovens,null,null,null,null,null,null,2,40,30,40,90,100,80,Warranty,Cooking power,NA,NA
NA,NA,NA,NA,NA,choice_trial_setup,html-keyboard-response,20,170220,0.0-4.0-0.8,201,1,2025-05-05T20:25:19Z,b60275e29fe2361ab97ac0ac217840d7,"Mozilla/5.0 (Macintosh; Intel Mac OS X 10_15_7) AppleWebKit/537.36 (KHTML, like Gecko) Chrome/131.0.0.0 Safari/537.36",Macintosh,Chrome,131.0.0.0,OS X,10_15_7,https://5puzkbbxv1.cognition.run/?sona_id=57600,"en-US,en;q=0.9",1lv9k28cjhgtx78,19,"[""White""]",No,Female,NA,No,783815.6000000238,NA,null,<p></p>,null,choice,ctd,trinary,attraction,1,laptops,null,null,null,null,null,null,1,NA,NA,NA,NA,NA,NA,NA,NA,NA,NA
NA,NA,NA,NA,NA,choice_trial,survey-html-form,21,179605,0.0-4.0-1.8,201,1,2025-05-05T20:25:19Z,b60275e29fe2361ab97ac0ac217840d7,"Mozilla/5.0 (Macintosh; Intel Mac OS X 10_15_7) AppleWebKit/537.36 (KHTML, like Gecko) Chrome/131.0.0.0 Safari/537.36",Macintosh,Chrome,131.0.0.0,OS X,10_15_7,https://5puzkbbxv1.cognition.run/?sona_id=57600,"en-US,en;q=0.9",1lv9k28cjhgtx78,19,"[""White""]",No,Female,NA,No,783815.6000000238,NA,9382,NA,"{""product_choice"":""B""}",choice,ctd,trinary,attraction,1,laptops,null,null,null,null,null,null,1,60,50,60,50,60,40,Processing speed,Memory (RAM),NA,NA
NA,NA,NA,NA,NA,choice_trial_setup,html-keyboard-response,22,179909,0.0-4.0-0.9,201,1,2025-05-05T20:25:19Z,b60275e29fe2361ab97ac0ac217840d7,"Mozilla/5.0 (Macintosh; Intel Mac OS X 10_15_7) AppleWebKit/537.36 (KHTML, like Gecko) Chrome/131.0.0.0 Safari/537.36",Macintosh,Chrome,131.0.0.0,OS X,10_15_7,https://5puzkbbxv1.cognition.run/?sona_id=57600,"en-US,en;q=0.9",1lv9k28cjhgtx78,19,"[""White""]",No,Female,NA,No,783815.6000000238,NA,null,<p></p>,null,choice,tdc,trinary,repulsion_A,2,washing machines,null,null,null,null,null,null,2,NA,NA,NA,NA,NA,NA,NA,NA,NA,NA
NA,NA,NA,NA,NA,choice_trial,survey-html-form,23,198993,0.0-4.0-1.9,201,1,2025-05-05T20:25:19Z,b60275e29fe2361ab97ac0ac217840d7,"Mozilla/5.0 (Macintosh; Intel Mac OS X 10_15_7) AppleWebKit/537.36 (KHTML, like Gecko) Chrome/131.0.0.0 Safari/537.36",Macintosh,Chrome,131.0.0.0,OS X,10_15_7,https://5puzkbbxv1.cognition.run/?sona_id=57600,"en-US,en;q=0.9",1lv9k28cjhgtx78,19,"[""White""]",No,Female,NA,No,783815.6000000238,NA,19081,NA,"{""product_choice"":""C""}",choice,tdc,trinary,repulsion_A,2,washing machines,null,null,null,null,null,null,2,30,40,20,100,90,100,Average lifespan,Energy savings,NA,NA
NA,NA,NA,NA,NA,choice_trial_setup,html-keyboard-response,24,199296,0.0-4.0-0.10,201,1,2025-05-05T20:25:19Z,b60275e29fe2361ab97ac0ac217840d7,"Mozilla/5.0 (Macintosh; Intel Mac OS X 10_15_7) AppleWebKit/537.36 (KHTML, like Gecko) Chrome/131.0.0.0 Safari/537.36",Macintosh,Chrome,131.0.0.0,OS X,10_15_7,https://5puzkbbxv1.cognition.run/?sona_id=57600,"en-US,en;q=0.9",1lv9k28cjhgtx78,19,"[""White""]",No,Female,NA,No,783815.6000000238,NA,null,<p></p>,null,choice,ctd,trinary,repulsion_A,1,washing machines,null,null,null,null,null,null,2,NA,NA,NA,NA,NA,NA,NA,NA,NA,NA
NA,NA,NA,NA,NA,choice_trial,survey-html-form,25,212019,0.0-4.0-1.10,201,1,2025-05-05T20:25:19Z,b60275e29fe2361ab97ac0ac217840d7,"Mozilla/5.0 (Macintosh; Intel Mac OS X 10_15_7) AppleWebKit/537.36 (KHTML, like Gecko) Chrome/131.0.0.0 Safari/537.36",Macintosh,Chrome,131.0.0.0,OS X,10_15_7,https://5puzkbbxv1.cognition.run/?sona_id=57600,"en-US,en;q=0.9",1lv9k28cjhgtx78,19,"[""White""]",No,Female,NA,No,783815.6000000238,NA,12720,NA,"{""product_choice"":""A""}",choice,ctd,trinary,repulsion_A,1,washing machines,null,null,null,null,null,null,2,100,90,100,30,40,20,Average lifespan,Energy savings,NA,NA
NA,NA,NA,NA,NA,choice_trial_setup,html-keyboard-response,26,212322,0.0-4.0-0.11,201,1,2025-05-05T20:25:19Z,b60275e29fe2361ab97ac0ac217840d7,"Mozilla/5.0 (Macintosh; Intel Mac OS X 10_15_7) AppleWebKit/537.36 (KHTML, like Gecko) Chrome/131.0.0.0 Safari/537.36",Macintosh,Chrome,131.0.0.0,OS X,10_15_7,https://5puzkbbxv1.cognition.run/?sona_id=57600,"en-US,en;q=0.9",1lv9k28cjhgtx78,19,"[""White""]",No,Female,NA,No,783815.6000000238,NA,null,<p></p>,null,choice,dct,trinary,attraction,2,microwave ovens,null,null,null,null,null,null,1,NA,NA,NA,NA,NA,NA,NA,NA,NA,NA
NA,NA,NA,NA,NA,choice_trial,survey-html-form,27,219459,0.0-4.0-1.11,201,1,2025-05-05T20:25:19Z,b60275e29fe2361ab97ac0ac217840d7,"Mozilla/5.0 (Macintosh; Intel Mac OS X 10_15_7) AppleWebKit/537.36 (KHTML, like Gecko) Chrome/131.0.0.0 Safari/537.36",Macintosh,Chrome,131.0.0.0,OS X,10_15_7,https://5puzkbbxv1.cognition.run/?sona_id=57600,"en-US,en;q=0.9",1lv9k28cjhgtx78,19,"[""White""]",No,Female,NA,No,783815.6000000238,NA,7134,NA,"{""product_choice"":""C""}",choice,dct,trinary,attraction,2,microwave ovens,null,null,null,null,null,null,1,50,60,40,60,50,60,Warranty,Cooking power,NA,NA
NA,NA,NA,NA,NA,choice_trial_setup,html-keyboard-response,28,219762,0.0-4.0-0.12,201,1,2025-05-05T20:25:19Z,b60275e29fe2361ab97ac0ac217840d7,"Mozilla/5.0 (Macintosh; Intel Mac OS X 10_15_7) AppleWebKit/537.36 (KHTML, like Gecko) Chrome/131.0.0.0 Safari/537.36",Macintosh,Chrome,131.0.0.0,OS X,10_15_7,https://5puzkbbxv1.cognition.run/?sona_id=57600,"en-US,en;q=0.9",1lv9k28cjhgtx78,19,"[""White""]",No,Female,NA,No,783815.6000000238,NA,null,<p></p>,null,choice,ct,binary,attraction,NA,washing machines,null,null,null,null,null,null,1,NA,NA,NA,NA,NA,NA,NA,NA,NA,NA
NA,NA,NA,NA,NA,choice_trial,survey-html-form,29,229938,0.0-4.0-1.12,201,1,2025-05-05T20:25:19Z,b60275e29fe2361ab97ac0ac217840d7,"Mozilla/5.0 (Macintosh; Intel Mac OS X 10_15_7) AppleWebKit/537.36 (KHTML, like Gecko) Chrome/131.0.0.0 Safari/537.36",Macintosh,Chrome,131.0.0.0,OS X,10_15_7,https://5puzkbbxv1.cognition.run/?sona_id=57600,"en-US,en;q=0.9",1lv9k28cjhgtx78,19,"[""White""]",No,Female,NA,No,783815.6000000238,NA,10173,NA,"{""product_choice"":""B""}",choice,ct,binary,attraction,NA,washing machines,null,null,null,null,null,null,1,60,50,null,50,60,null,Average lifespan,Energy savings,NA,NA
NA,NA,NA,NA,NA,choice_trial_setup,html-keyboard-response,30,230242,0.0-4.0-0.13,201,1,2025-05-05T20:25:19Z,b60275e29fe2361ab97ac0ac217840d7,"Mozilla/5.0 (Macintosh; Intel Mac OS X 10_15_7) AppleWebKit/537.36 (KHTML, like Gecko) Chrome/131.0.0.0 Safari/537.36",Macintosh,Chrome,131.0.0.0,OS X,10_15_7,https://5puzkbbxv1.cognition.run/?sona_id=57600,"en-US,en;q=0.9",1lv9k28cjhgtx78,19,"[""White""]",No,Female,NA,No,783815.6000000238,NA,null,<p></p>,null,choice,tdc,trinary,repulsion_B,1,washing machines,null,null,null,null,null,null,1,NA,NA,NA,NA,NA,NA,NA,NA,NA,NA
NA,NA,NA,NA,NA,choice_trial,survey-html-form,31,240271,0.0-4.0-1.13,201,1,2025-05-05T20:25:19Z,b60275e29fe2361ab97ac0ac217840d7,"Mozilla/5.0 (Macintosh; Intel Mac OS X 10_15_7) AppleWebKit/537.36 (KHTML, like Gecko) Chrome/131.0.0.0 Safari/537.36",Macintosh,Chrome,131.0.0.0,OS X,10_15_7,https://5puzkbbxv1.cognition.run/?sona_id=57600,"en-US,en;q=0.9",1lv9k28cjhgtx78,19,"[""White""]",No,Female,NA,No,783815.6000000238,NA,10026,NA,"{""product_choice"":""A""}",choice,tdc,trinary,repulsion_B,1,washing machines,null,null,null,null,null,null,1,90,100,80,40,30,40,Average lifespan,Energy savings,NA,NA
NA,NA,NA,NA,NA,choice_trial_setup,html-keyboard-response,32,240574,0.0-4.0-0.14,201,1,2025-05-05T20:25:19Z,b60275e29fe2361ab97ac0ac217840d7,"Mozilla/5.0 (Macintosh; Intel Mac OS X 10_15_7) AppleWebKit/537.36 (KHTML, like Gecko) Chrome/131.0.0.0 Safari/537.36",Macintosh,Chrome,131.0.0.0,OS X,10_15_7,https://5puzkbbxv1.cognition.run/?sona_id=57600,"en-US,en;q=0.9",1lv9k28cjhgtx78,19,"[""White""]",No,Female,NA,No,783815.6000000238,NA,null,<p></p>,null,choice,bw,binary,catch,null,microwave ovens,85,85,15,10,null,null,2,NA,NA,NA,NA,NA,NA,NA,NA,NA,NA
NA,NA,NA,NA,NA,choice_trial,survey-html-form,33,248312,0.0-4.0-1.14,201,1,2025-05-05T20:25:19Z,b60275e29fe2361ab97ac0ac217840d7,"Mozilla/5.0 (Macintosh; Intel Mac OS X 10_15_7) AppleWebKit/537.36 (KHTML, like Gecko) Chrome/131.0.0.0 Safari/537.36",Macintosh,Chrome,131.0.0.0,OS X,10_15_7,https://5puzkbbxv1.cognition.run/?sona_id=57600,"en-US,en;q=0.9",1lv9k28cjhgtx78,19,"[""White""]",No,Female,NA,No,783815.6000000238,NA,7733,NA,"{""product_choice"":""A""}",choice,bw,binary,catch,null,microwave ovens,85,85,15,10,null,null,2,null,null,null,null,null,null,Warranty,Cooking power,NA,NA
NA,NA,NA,NA,NA,choice_trial_setup,html-keyboard-response,34,248615,0.0-4.0-0.15,201,1,2025-05-05T20:25:19Z,b60275e29fe2361ab97ac0ac217840d7,"Mozilla/5.0 (Macintosh; Intel Mac OS X 10_15_7) AppleWebKit/537.36 (KHTML, like Gecko) Chrome/131.0.0.0 Safari/537.36",Macintosh,Chrome,131.0.0.0,OS X,10_15_7,https://5puzkbbxv1.cognition.run/?sona_id=57600,"en-US,en;q=0.9",1lv9k28cjhgtx78,19,"[""White""]",No,Female,NA,No,783815.6000000238,NA,null,<p></p>,null,choice,bww,trinary,catch,null,laptops,95,80,35,10,15,5,2,NA,NA,NA,NA,NA,NA,NA,NA,NA,NA
NA,NA,NA,NA,NA,choice_trial,survey-html-form,35,256513,0.0-4.0-1.15,201,1,2025-05-05T20:25:19Z,b60275e29fe2361ab97ac0ac217840d7,"Mozilla/5.0 (Macintosh; Intel Mac OS X 10_15_7) AppleWebKit/537.36 (KHTML, like Gecko) Chrome/131.0.0.0 Safari/537.36",Macintosh,Chrome,131.0.0.0,OS X,10_15_7,https://5puzkbbxv1.cognition.run/?sona_id=57600,"en-US,en;q=0.9",1lv9k28cjhgtx78,19,"[""White""]",No,Female,NA,No,783815.6000000238,NA,7896,NA,"{""product_choice"":""A""}",choice,bww,trinary,catch,null,laptops,95,80,35,10,15,5,2,null,null,null,null,null,null,Processing speed,Memory (RAM),NA,NA
NA,NA,NA,NA,NA,choice_trial_setup,html-keyboard-response,36,256817,0.0-4.0-0.16,201,1,2025-05-05T20:25:19Z,b60275e29fe2361ab97ac0ac217840d7,"Mozilla/5.0 (Macintosh; Intel Mac OS X 10_15_7) AppleWebKit/537.36 (KHTML, like Gecko) Chrome/131.0.0.0 Safari/537.36",Macintosh,Chrome,131.0.0.0,OS X,10_15_7,https://5puzkbbxv1.cognition.run/?sona_id=57600,"en-US,en;q=0.9",1lv9k28cjhgtx78,19,"[""White""]",No,Female,NA,No,783815.6000000238,NA,null,<p></p>,null,choice,wwb,trinary,catch,null,televisions,60,95,10,25,10,30,1,NA,NA,NA,NA,NA,NA,NA,NA,NA,NA
NA,NA,NA,NA,NA,choice_trial,survey-html-form,37,260832,0.0-4.0-1.16,201,1,2025-05-05T20:25:19Z,b60275e29fe2361ab97ac0ac217840d7,"Mozilla/5.0 (Macintosh; Intel Mac OS X 10_15_7) AppleWebKit/537.36 (KHTML, like Gecko) Chrome/131.0.0.0 Safari/537.36",Macintosh,Chrome,131.0.0.0,OS X,10_15_7,https://5puzkbbxv1.cognition.run/?sona_id=57600,"en-US,en;q=0.9",1lv9k28cjhgtx78,19,"[""White""]",No,Female,NA,No,783815.6000000238,NA,4011,NA,"{""product_choice"":""C""}",choice,wwb,trinary,catch,null,televisions,60,95,10,25,10,30,1,null,null,null,null,null,null,Screen size,Average lifespan,NA,NA
NA,NA,NA,NA,NA,choice_trial_setup,html-keyboard-response,38,261136,0.0-4.0-0.17,201,1,2025-05-05T20:25:19Z,b60275e29fe2361ab97ac0ac217840d7,"Mozilla/5.0 (Macintosh; Intel Mac OS X 10_15_7) AppleWebKit/537.36 (KHTML, like Gecko) Chrome/131.0.0.0 Safari/537.36",Macintosh,Chrome,131.0.0.0,OS X,10_15_7,https://5puzkbbxv1.cognition.run/?sona_id=57600,"en-US,en;q=0.9",1lv9k28cjhgtx78,19,"[""White""]",No,Female,NA,No,783815.6000000238,NA,null,<p></p>,null,choice,tc,binary,repulsion,2,televisions,null,null,null,null,null,null,2,NA,NA,NA,NA,NA,NA,NA,NA,NA,NA
NA,NA,NA,NA,NA,choice_trial,survey-html-form,39,270368,0.0-4.0-1.17,201,1,2025-05-05T20:25:19Z,b60275e29fe2361ab97ac0ac217840d7,"Mozilla/5.0 (Macintosh; Intel Mac OS X 10_15_7) AppleWebKit/537.36 (KHTML, like Gecko) Chrome/131.0.0.0 Safari/537.36",Macintosh,Chrome,131.0.0.0,OS X,10_15_7,https://5puzkbbxv1.cognition.run/?sona_id=57600,"en-US,en;q=0.9",1lv9k28cjhgtx78,19,"[""White""]",No,Female,NA,No,783815.6000000238,NA,9228,NA,"{""product_choice"":""A""}",choice,tc,binary,repulsion,2,televisions,null,null,null,null,null,null,2,30,40,null,100,90,null,Screen size,Average lifespan,NA,NA
NA,NA,NA,NA,NA,choice_trial_setup,html-keyboard-response,40,270672,0.0-4.0-0.18,201,1,2025-05-05T20:25:19Z,b60275e29fe2361ab97ac0ac217840d7,"Mozilla/5.0 (Macintosh; Intel Mac OS X 10_15_7) AppleWebKit/537.36 (KHTML, like Gecko) Chrome/131.0.0.0 Safari/537.36",Macintosh,Chrome,131.0.0.0,OS X,10_15_7,https://5puzkbbxv1.cognition.run/?sona_id=57600,"en-US,en;q=0.9",1lv9k28cjhgtx78,19,"[""White""]",No,Female,NA,No,783815.6000000238,NA,null,<p></p>,null,choice,ctd,trinary,attraction,2,laptops,null,null,null,null,null,null,2,NA,NA,NA,NA,NA,NA,NA,NA,NA,NA
NA,NA,NA,NA,NA,choice_trial,survey-html-form,41,282585,0.0-4.0-1.18,201,1,2025-05-05T20:25:19Z,b60275e29fe2361ab97ac0ac217840d7,"Mozilla/5.0 (Macintosh; Intel Mac OS X 10_15_7) AppleWebKit/537.36 (KHTML, like Gecko) Chrome/131.0.0.0 Safari/537.36",Macintosh,Chrome,131.0.0.0,OS X,10_15_7,https://5puzkbbxv1.cognition.run/?sona_id=57600,"en-US,en;q=0.9",1lv9k28cjhgtx78,19,"[""White""]",No,Female,NA,No,783815.6000000238,NA,11910,NA,"{""product_choice"":""B""}",choice,ctd,trinary,attraction,2,laptops,null,null,null,null,null,null,2,50,60,40,60,50,60,Processing speed,Memory (RAM),NA,NA
NA,NA,NA,NA,NA,choice_trial_setup,html-keyboard-response,42,282889,0.0-4.0-0.19,201,1,2025-05-05T20:25:19Z,b60275e29fe2361ab97ac0ac217840d7,"Mozilla/5.0 (Macintosh; Intel Mac OS X 10_15_7) AppleWebKit/537.36 (KHTML, like Gecko) Chrome/131.0.0.0 Safari/537.36",Macintosh,Chrome,131.0.0.0,OS X,10_15_7,https://5puzkbbxv1.cognition.run/?sona_id=57600,"en-US,en;q=0.9",1lv9k28cjhgtx78,19,"[""White""]",No,Female,NA,No,783815.6000000238,NA,null,<p></p>,null,choice,wb,binary,catch,null,televisions,70,90,25,15,null,null,2,NA,NA,NA,NA,NA,NA,NA,NA,NA,NA
NA,NA,NA,NA,NA,choice_trial,survey-html-form,43,287653,0.0-4.0-1.19,201,1,2025-05-05T20:25:19Z,b60275e29fe2361ab97ac0ac217840d7,"Mozilla/5.0 (Macintosh; Intel Mac OS X 10_15_7) AppleWebKit/537.36 (KHTML, like Gecko) Chrome/131.0.0.0 Safari/537.36",Macintosh,Chrome,131.0.0.0,OS X,10_15_7,https://5puzkbbxv1.cognition.run/?sona_id=57600,"en-US,en;q=0.9",1lv9k28cjhgtx78,19,"[""White""]",No,Female,NA,No,783815.6000000238,NA,4761,NA,"{""product_choice"":""B""}",choice,wb,binary,catch,null,televisions,70,90,25,15,null,null,2,null,null,null,null,null,null,Screen size,Average lifespan,NA,NA
NA,NA,NA,NA,NA,choice_trial_setup,html-keyboard-response,44,287957,0.0-4.0-0.20,201,1,2025-05-05T20:25:19Z,b60275e29fe2361ab97ac0ac217840d7,"Mozilla/5.0 (Macintosh; Intel Mac OS X 10_15_7) AppleWebKit/537.36 (KHTML, like Gecko) Chrome/131.0.0.0 Safari/537.36",Macintosh,Chrome,131.0.0.0,OS X,10_15_7,https://5puzkbbxv1.cognition.run/?sona_id=57600,"en-US,en;q=0.9",1lv9k28cjhgtx78,19,"[""White""]",No,Female,NA,No,783815.6000000238,NA,null,<p></p>,null,choice,tcd,trinary,repulsion_A,2,microwave ovens,null,null,null,null,null,null,1,NA,NA,NA,NA,NA,NA,NA,NA,NA,NA
NA,NA,NA,NA,NA,choice_trial,survey-html-form,45,293752,0.0-4.0-1.20,201,1,2025-05-05T20:25:19Z,b60275e29fe2361ab97ac0ac217840d7,"Mozilla/5.0 (Macintosh; Intel Mac OS X 10_15_7) AppleWebKit/537.36 (KHTML, like Gecko) Chrome/131.0.0.0 Safari/537.36",Macintosh,Chrome,131.0.0.0,OS X,10_15_7,https://5puzkbbxv1.cognition.run/?sona_id=57600,"en-US,en;q=0.9",1lv9k28cjhgtx78,19,"[""White""]",No,Female,NA,No,783815.6000000238,NA,5791,NA,"{""product_choice"":""A""}",choice,tcd,trinary,repulsion_A,2,microwave ovens,null,null,null,null,null,null,1,30,40,20,100,90,100,Warranty,Cooking power,NA,NA
NA,NA,NA,NA,NA,choice_trial_setup,html-keyboard-response,46,294056,0.0-4.0-0.21,201,1,2025-05-05T20:25:19Z,b60275e29fe2361ab97ac0ac217840d7,"Mozilla/5.0 (Macintosh; Intel Mac OS X 10_15_7) AppleWebKit/537.36 (KHTML, like Gecko) Chrome/131.0.0.0 Safari/537.36",Macintosh,Chrome,131.0.0.0,OS X,10_15_7,https://5puzkbbxv1.cognition.run/?sona_id=57600,"en-US,en;q=0.9",1lv9k28cjhgtx78,19,"[""White""]",No,Female,NA,No,783815.6000000238,NA,null,<p></p>,null,choice,wb,binary,catch,null,laptops,90,55,35,5,null,null,1,NA,NA,NA,NA,NA,NA,NA,NA,NA,NA
NA,NA,NA,NA,NA,choice_trial,survey-html-form,47,298831,0.0-4.0-1.21,201,1,2025-05-05T20:25:19Z,b60275e29fe2361ab97ac0ac217840d7,"Mozilla/5.0 (Macintosh; Intel Mac OS X 10_15_7) AppleWebKit/537.36 (KHTML, like Gecko) Chrome/131.0.0.0 Safari/537.36",Macintosh,Chrome,131.0.0.0,OS X,10_15_7,https://5puzkbbxv1.cognition.run/?sona_id=57600,"en-US,en;q=0.9",1lv9k28cjhgtx78,19,"[""White""]",No,Female,NA,No,783815.6000000238,NA,4771,NA,"{""product_choice"":""B""}",choice,wb,binary,catch,null,laptops,90,55,35,5,null,null,1,null,null,null,null,null,null,Processing speed,Memory (RAM),NA,NA
NA,NA,NA,NA,NA,choice_trial_setup,html-keyboard-response,48,299135,0.0-4.0-0.22,201,1,2025-05-05T20:25:19Z,b60275e29fe2361ab97ac0ac217840d7,"Mozilla/5.0 (Macintosh; Intel Mac OS X 10_15_7) AppleWebKit/537.36 (KHTML, like Gecko) Chrome/131.0.0.0 Safari/537.36",Macintosh,Chrome,131.0.0.0,OS X,10_15_7,https://5puzkbbxv1.cognition.run/?sona_id=57600,"en-US,en;q=0.9",1lv9k28cjhgtx78,19,"[""White""]",No,Female,NA,No,783815.6000000238,NA,null,<p></p>,null,choice,wbw,trinary,catch,null,microwave ovens,90,55,20,40,45,10,2,NA,NA,NA,NA,NA,NA,NA,NA,NA,NA
NA,NA,NA,NA,NA,choice_trial,survey-html-form,49,317067,0.0-4.0-1.22,201,1,2025-05-05T20:25:19Z,b60275e29fe2361ab97ac0ac217840d7,"Mozilla/5.0 (Macintosh; Intel Mac OS X 10_15_7) AppleWebKit/537.36 (KHTML, like Gecko) Chrome/131.0.0.0 Safari/537.36",Macintosh,Chrome,131.0.0.0,OS X,10_15_7,https://5puzkbbxv1.cognition.run/?sona_id=57600,"en-US,en;q=0.9",1lv9k28cjhgtx78,19,"[""White""]",No,Female,NA,No,783815.6000000238,NA,17928,NA,"{""product_choice"":""B""}",choice,wbw,trinary,catch,null,microwave ovens,90,55,20,40,45,10,2,null,null,null,null,null,null,Warranty,Cooking power,NA,NA
NA,NA,NA,NA,NA,choice_trial_setup,html-keyboard-response,50,317371,0.0-4.0-0.23,201,1,2025-05-05T20:25:19Z,b60275e29fe2361ab97ac0ac217840d7,"Mozilla/5.0 (Macintosh; Intel Mac OS X 10_15_7) AppleWebKit/537.36 (KHTML, like Gecko) Chrome/131.0.0.0 Safari/537.36",Macintosh,Chrome,131.0.0.0,OS X,10_15_7,https://5puzkbbxv1.cognition.run/?sona_id=57600,"en-US,en;q=0.9",1lv9k28cjhgtx78,19,"[""White""]",No,Female,NA,No,783815.6000000238,NA,null,<p></p>,null,choice,tc,binary,repulsion,1,washing machines,null,null,null,null,null,null,2,NA,NA,NA,NA,NA,NA,NA,NA,NA,NA
NA,NA,NA,NA,NA,choice_trial,survey-html-form,51,325817,0.0-4.0-1.23,201,1,2025-05-05T20:25:19Z,b60275e29fe2361ab97ac0ac217840d7,"Mozilla/5.0 (Macintosh; Intel Mac OS X 10_15_7) AppleWebKit/537.36 (KHTML, like Gecko) Chrome/131.0.0.0 Safari/537.36",Macintosh,Chrome,131.0.0.0,OS X,10_15_7,https://5puzkbbxv1.cognition.run/?sona_id=57600,"en-US,en;q=0.9",1lv9k28cjhgtx78,19,"[""White""]",No,Female,NA,No,783815.6000000238,NA,8442,NA,"{""product_choice"":""B""}",choice,tc,binary,repulsion,1,washing machines,null,null,null,null,null,null,2,100,90,null,30,40,null,Average lifespan,Energy savings,NA,NA
NA,NA,NA,NA,NA,choice_trial_setup,html-keyboard-response,52,326121,0.0-4.0-0.24,201,1,2025-05-05T20:25:19Z,b60275e29fe2361ab97ac0ac217840d7,"Mozilla/5.0 (Macintosh; Intel Mac OS X 10_15_7) AppleWebKit/537.36 (KHTML, like Gecko) Chrome/131.0.0.0 Safari/537.36",Macintosh,Chrome,131.0.0.0,OS X,10_15_7,https://5puzkbbxv1.cognition.run/?sona_id=57600,"en-US,en;q=0.9",1lv9k28cjhgtx78,19,"[""White""]",No,Female,NA,No,783815.6000000238,NA,null,<p></p>,null,choice,ctd,trinary,repulsion_A,1,televisions,null,null,null,null,null,null,2,NA,NA,NA,NA,NA,NA,NA,NA,NA,NA
NA,NA,NA,NA,NA,choice_trial,survey-html-form,53,334827,0.0-4.0-1.24,201,1,2025-05-05T20:25:19Z,b60275e29fe2361ab97ac0ac217840d7,"Mozilla/5.0 (Macintosh; Intel Mac OS X 10_15_7) AppleWebKit/537.36 (KHTML, like Gecko) Chrome/131.0.0.0 Safari/537.36",Macintosh,Chrome,131.0.0.0,OS X,10_15_7,https://5puzkbbxv1.cognition.run/?sona_id=57600,"en-US,en;q=0.9",1lv9k28cjhgtx78,19,"[""White""]",No,Female,NA,No,783815.6000000238,NA,8702,NA,"{""product_choice"":""A""}",choice,ctd,trinary,repulsion_A,1,televisions,null,null,null,null,null,null,2,100,90,100,30,40,20,Screen size,Average lifespan,NA,NA
NA,NA,NA,NA,NA,choice_trial_setup,html-keyboard-response,54,335130,0.0-4.0-0.25,201,1,2025-05-05T20:25:19Z,b60275e29fe2361ab97ac0ac217840d7,"Mozilla/5.0 (Macintosh; Intel Mac OS X 10_15_7) AppleWebKit/537.36 (KHTML, like Gecko) Chrome/131.0.0.0 Safari/537.36",Macintosh,Chrome,131.0.0.0,OS X,10_15_7,https://5puzkbbxv1.cognition.run/?sona_id=57600,"en-US,en;q=0.9",1lv9k28cjhgtx78,19,"[""White""]",No,Female,NA,No,783815.6000000238,NA,null,<p></p>,null,choice,dct,trinary,repulsion_B,2,televisions,null,null,null,null,null,null,2,NA,NA,NA,NA,NA,NA,NA,NA,NA,NA
NA,NA,NA,NA,NA,choice_trial,survey-html-form,55,351493,0.0-4.0-1.25,201,1,2025-05-05T20:25:19Z,b60275e29fe2361ab97ac0ac217840d7,"Mozilla/5.0 (Macintosh; Intel Mac OS X 10_15_7) AppleWebKit/537.36 (KHTML, like Gecko) Chrome/131.0.0.0 Safari/537.36",Macintosh,Chrome,131.0.0.0,OS X,10_15_7,https://5puzkbbxv1.cognition.run/?sona_id=57600,"en-US,en;q=0.9",1lv9k28cjhgtx78,19,"[""White""]",No,Female,NA,No,783815.6000000238,NA,16359,NA,"{""product_choice"":""C""}",choice,dct,trinary,repulsion_B,2,televisions,null,null,null,null,null,null,2,40,30,40,90,100,80,Screen size,Average lifespan,NA,NA
NA,NA,NA,NA,NA,choice_trial_setup,html-keyboard-response,56,351797,0.0-4.0-0.26,201,1,2025-05-05T20:25:19Z,b60275e29fe2361ab97ac0ac217840d7,"Mozilla/5.0 (Macintosh; Intel Mac OS X 10_15_7) AppleWebKit/537.36 (KHTML, like Gecko) Chrome/131.0.0.0 Safari/537.36",Macintosh,Chrome,131.0.0.0,OS X,10_15_7,https://5puzkbbxv1.cognition.run/?sona_id=57600,"en-US,en;q=0.9",1lv9k28cjhgtx78,19,"[""White""]",No,Female,NA,No,783815.6000000238,NA,null,<p></p>,null,choice,tdc,trinary,attraction,1,washing machines,null,null,null,null,null,null,1,NA,NA,NA,NA,NA,NA,NA,NA,NA,NA
NA,NA,NA,NA,NA,choice_trial,survey-html-form,57,359707,0.0-4.0-1.26,201,1,2025-05-05T20:25:19Z,b60275e29fe2361ab97ac0ac217840d7,"Mozilla/5.0 (Macintosh; Intel Mac OS X 10_15_7) AppleWebKit/537.36 (KHTML, like Gecko) Chrome/131.0.0.0 Safari/537.36",Macintosh,Chrome,131.0.0.0,OS X,10_15_7,https://5puzkbbxv1.cognition.run/?sona_id=57600,"en-US,en;q=0.9",1lv9k28cjhgtx78,19,"[""White""]",No,Female,NA,No,783815.6000000238,NA,7906,NA,"{""product_choice"":""A""}",choice,tdc,trinary,attraction,1,washing machines,null,null,null,null,null,null,1,60,50,60,50,60,40,Average lifespan,Energy savings,NA,NA
NA,NA,NA,NA,NA,choice_trial_setup,html-keyboard-response,58,360011,0.0-4.0-0.27,201,1,2025-05-05T20:25:19Z,b60275e29fe2361ab97ac0ac217840d7,"Mozilla/5.0 (Macintosh; Intel Mac OS X 10_15_7) AppleWebKit/537.36 (KHTML, like Gecko) Chrome/131.0.0.0 Safari/537.36",Macintosh,Chrome,131.0.0.0,OS X,10_15_7,https://5puzkbbxv1.cognition.run/?sona_id=57600,"en-US,en;q=0.9",1lv9k28cjhgtx78,19,"[""White""]",No,Female,NA,No,783815.6000000238,NA,null,<p></p>,null,choice,dct,trinary,repulsion_B,2,washing machines,null,null,null,null,null,null,2,NA,NA,NA,NA,NA,NA,NA,NA,NA,NA
NA,NA,NA,NA,NA,choice_trial,survey-html-form,59,369831,0.0-4.0-1.27,201,1,2025-05-05T20:25:19Z,b60275e29fe2361ab97ac0ac217840d7,"Mozilla/5.0 (Macintosh; Intel Mac OS X 10_15_7) AppleWebKit/537.36 (KHTML, like Gecko) Chrome/131.0.0.0 Safari/537.36",Macintosh,Chrome,131.0.0.0,OS X,10_15_7,https://5puzkbbxv1.cognition.run/?sona_id=57600,"en-US,en;q=0.9",1lv9k28cjhgtx78,19,"[""White""]",No,Female,NA,No,783815.6000000238,NA,9816,NA,"{""product_choice"":""C""}",choice,dct,trinary,repulsion_B,2,washing machines,null,null,null,null,null,null,2,40,30,40,90,100,80,Average lifespan,Energy savings,NA,NA
NA,NA,NA,NA,NA,choice_trial_setup,html-keyboard-response,60,370135,0.0-4.0-0.28,201,1,2025-05-05T20:25:19Z,b60275e29fe2361ab97ac0ac217840d7,"Mozilla/5.0 (Macintosh; Intel Mac OS X 10_15_7) AppleWebKit/537.36 (KHTML, like Gecko) Chrome/131.0.0.0 Safari/537.36",Macintosh,Chrome,131.0.0.0,OS X,10_15_7,https://5puzkbbxv1.cognition.run/?sona_id=57600,"en-US,en;q=0.9",1lv9k28cjhgtx78,19,"[""White""]",No,Female,NA,No,783815.6000000238,NA,null,<p></p>,null,choice,tdc,trinary,repulsion_B,1,microwave ovens,null,null,null,null,null,null,1,NA,NA,NA,NA,NA,NA,NA,NA,NA,NA
NA,NA,NA,NA,NA,choice_trial,survey-html-form,61,376262,0.0-4.0-1.28,201,1,2025-05-05T20:25:19Z,b60275e29fe2361ab97ac0ac217840d7,"Mozilla/5.0 (Macintosh; Intel Mac OS X 10_15_7) AppleWebKit/537.36 (KHTML, like Gecko) Chrome/131.0.0.0 Safari/537.36",Macintosh,Chrome,131.0.0.0,OS X,10_15_7,https://5puzkbbxv1.cognition.run/?sona_id=57600,"en-US,en;q=0.9",1lv9k28cjhgtx78,19,"[""White""]",No,Female,NA,No,783815.6000000238,NA,6123,NA,"{""product_choice"":""A""}",choice,tdc,trinary,repulsion_B,1,microwave ovens,null,null,null,null,null,null,1,90,100,80,40,30,40,Warranty,Cooking power,NA,NA
NA,NA,NA,NA,NA,choice_trial_setup,html-keyboard-response,62,376565,0.0-4.0-0.29,201,1,2025-05-05T20:25:19Z,b60275e29fe2361ab97ac0ac217840d7,"Mozilla/5.0 (Macintosh; Intel Mac OS X 10_15_7) AppleWebKit/537.36 (KHTML, like Gecko) Chrome/131.0.0.0 Safari/537.36",Macintosh,Chrome,131.0.0.0,OS X,10_15_7,https://5puzkbbxv1.cognition.run/?sona_id=57600,"en-US,en;q=0.9",1lv9k28cjhgtx78,19,"[""White""]",No,Female,NA,No,783815.6000000238,NA,null,<p></p>,null,choice,cdt,trinary,attraction,2,washing machines,null,null,null,null,null,null,1,NA,NA,NA,NA,NA,NA,NA,NA,NA,NA
NA,NA,NA,NA,NA,choice_trial,survey-html-form,63,384104,0.0-4.0-1.29,201,1,2025-05-05T20:25:19Z,b60275e29fe2361ab97ac0ac217840d7,"Mozilla/5.0 (Macintosh; Intel Mac OS X 10_15_7) AppleWebKit/537.36 (KHTML, like Gecko) Chrome/131.0.0.0 Safari/537.36",Macintosh,Chrome,131.0.0.0,OS X,10_15_7,https://5puzkbbxv1.cognition.run/?sona_id=57600,"en-US,en;q=0.9",1lv9k28cjhgtx78,19,"[""White""]",No,Female,NA,No,783815.6000000238,NA,7534,NA,"{""product_choice"":""C""}",choice,cdt,trinary,attraction,2,washing machines,null,null,null,null,null,null,1,50,60,40,60,50,60,Average lifespan,Energy savings,NA,NA
NA,NA,NA,NA,NA,choice_trial_setup,html-keyboard-response,64,384408,0.0-4.0-0.30,201,1,2025-05-05T20:25:19Z,b60275e29fe2361ab97ac0ac217840d7,"Mozilla/5.0 (Macintosh; Intel Mac OS X 10_15_7) AppleWebKit/537.36 (KHTML, like Gecko) Chrome/131.0.0.0 Safari/537.36",Macintosh,Chrome,131.0.0.0,OS X,10_15_7,https://5puzkbbxv1.cognition.run/?sona_id=57600,"en-US,en;q=0.9",1lv9k28cjhgtx78,19,"[""White""]",No,Female,NA,No,783815.6000000238,NA,null,<p></p>,null,choice,tdc,trinary,repulsion_A,1,microwave ovens,null,null,null,null,null,null,1,NA,NA,NA,NA,NA,NA,NA,NA,NA,NA
NA,NA,NA,NA,NA,choice_trial,survey-html-form,65,394638,0.0-4.0-1.30,201,1,2025-05-05T20:25:19Z,b60275e29fe2361ab97ac0ac217840d7,"Mozilla/5.0 (Macintosh; Intel Mac OS X 10_15_7) AppleWebKit/537.36 (KHTML, like Gecko) Chrome/131.0.0.0 Safari/537.36",Macintosh,Chrome,131.0.0.0,OS X,10_15_7,https://5puzkbbxv1.cognition.run/?sona_id=57600,"en-US,en;q=0.9",1lv9k28cjhgtx78,19,"[""White""]",No,Female,NA,No,783815.6000000238,NA,10224,NA,"{""product_choice"":""C""}",choice,tdc,trinary,repulsion_A,1,microwave ovens,null,null,null,null,null,null,1,100,90,100,30,40,20,Warranty,Cooking power,NA,NA
NA,NA,NA,NA,NA,choice_trial_setup,html-keyboard-response,66,394942,0.0-4.0-0.31,201,1,2025-05-05T20:25:19Z,b60275e29fe2361ab97ac0ac217840d7,"Mozilla/5.0 (Macintosh; Intel Mac OS X 10_15_7) AppleWebKit/537.36 (KHTML, like Gecko) Chrome/131.0.0.0 Safari/537.36",Macintosh,Chrome,131.0.0.0,OS X,10_15_7,https://5puzkbbxv1.cognition.run/?sona_id=57600,"en-US,en;q=0.9",1lv9k28cjhgtx78,19,"[""White""]",No,Female,NA,No,783815.6000000238,NA,null,<p></p>,null,choice,bw,binary,catch,null,washing machines,55,90,50,20,null,null,2,NA,NA,NA,NA,NA,NA,NA,NA,NA,NA
NA,NA,NA,NA,NA,choice_trial,survey-html-form,67,399428,0.0-4.0-1.31,201,1,2025-05-05T20:25:19Z,b60275e29fe2361ab97ac0ac217840d7,"Mozilla/5.0 (Macintosh; Intel Mac OS X 10_15_7) AppleWebKit/537.36 (KHTML, like Gecko) Chrome/131.0.0.0 Safari/537.36",Macintosh,Chrome,131.0.0.0,OS X,10_15_7,https://5puzkbbxv1.cognition.run/?sona_id=57600,"en-US,en;q=0.9",1lv9k28cjhgtx78,19,"[""White""]",No,Female,NA,No,783815.6000000238,NA,4482,NA,"{""product_choice"":""A""}",choice,bw,binary,catch,null,washing machines,55,90,50,20,null,null,2,null,null,null,null,null,null,Average lifespan,Energy savings,NA,NA
NA,NA,NA,NA,NA,choice_trial_setup,html-keyboard-response,68,399733,0.0-4.0-0.32,201,1,2025-05-05T20:25:19Z,b60275e29fe2361ab97ac0ac217840d7,"Mozilla/5.0 (Macintosh; Intel Mac OS X 10_15_7) AppleWebKit/537.36 (KHTML, like Gecko) Chrome/131.0.0.0 Safari/537.36",Macintosh,Chrome,131.0.0.0,OS X,10_15_7,https://5puzkbbxv1.cognition.run/?sona_id=57600,"en-US,en;q=0.9",1lv9k28cjhgtx78,19,"[""White""]",No,Female,NA,No,783815.6000000238,NA,null,<p></p>,null,choice,ct,binary,repulsion,2,microwave ovens,null,null,null,null,null,null,2,NA,NA,NA,NA,NA,NA,NA,NA,NA,NA
NA,NA,NA,NA,NA,choice_trial,survey-html-form,69,404511,0.0-4.0-1.32,201,1,2025-05-05T20:25:19Z,b60275e29fe2361ab97ac0ac217840d7,"Mozilla/5.0 (Macintosh; Intel Mac OS X 10_15_7) AppleWebKit/537.36 (KHTML, like Gecko) Chrome/131.0.0.0 Safari/537.36",Macintosh,Chrome,131.0.0.0,OS X,10_15_7,https://5puzkbbxv1.cognition.run/?sona_id=57600,"en-US,en;q=0.9",1lv9k28cjhgtx78,19,"[""White""]",No,Female,NA,No,783815.6000000238,NA,4774,NA,"{""product_choice"":""B""}",choice,ct,binary,repulsion,2,microwave ovens,null,null,null,null,null,null,2,30,40,null,100,90,null,Warranty,Cooking power,NA,NA
NA,NA,NA,NA,NA,choice_trial_setup,html-keyboard-response,70,404815,0.0-4.0-0.33,201,1,2025-05-05T20:25:19Z,b60275e29fe2361ab97ac0ac217840d7,"Mozilla/5.0 (Macintosh; Intel Mac OS X 10_15_7) AppleWebKit/537.36 (KHTML, like Gecko) Chrome/131.0.0.0 Safari/537.36",Macintosh,Chrome,131.0.0.0,OS X,10_15_7,https://5puzkbbxv1.cognition.run/?sona_id=57600,"en-US,en;q=0.9",1lv9k28cjhgtx78,19,"[""White""]",No,Female,NA,No,783815.6000000238,NA,null,<p></p>,null,choice,ct,binary,attraction,NA,televisions,null,null,null,null,null,null,2,NA,NA,NA,NA,NA,NA,NA,NA,NA,NA
NA,NA,NA,NA,NA,choice_trial,survey-html-form,71,413509,0.0-4.0-1.33,201,1,2025-05-05T20:25:19Z,b60275e29fe2361ab97ac0ac217840d7,"Mozilla/5.0 (Macintosh; Intel Mac OS X 10_15_7) AppleWebKit/537.36 (KHTML, like Gecko) Chrome/131.0.0.0 Safari/537.36",Macintosh,Chrome,131.0.0.0,OS X,10_15_7,https://5puzkbbxv1.cognition.run/?sona_id=57600,"en-US,en;q=0.9",1lv9k28cjhgtx78,19,"[""White""]",No,Female,NA,No,783815.6000000238,NA,8690,NA,"{""product_choice"":""B""}",choice,ct,binary,attraction,NA,televisions,null,null,null,null,null,null,2,60,50,null,50,60,null,Screen size,Average lifespan,NA,NA
NA,NA,NA,NA,NA,choice_trial_setup,html-keyboard-response,72,413813,0.0-4.0-0.34,201,1,2025-05-05T20:25:19Z,b60275e29fe2361ab97ac0ac217840d7,"Mozilla/5.0 (Macintosh; Intel Mac OS X 10_15_7) AppleWebKit/537.36 (KHTML, like Gecko) Chrome/131.0.0.0 Safari/537.36",Macintosh,Chrome,131.0.0.0,OS X,10_15_7,https://5puzkbbxv1.cognition.run/?sona_id=57600,"en-US,en;q=0.9",1lv9k28cjhgtx78,19,"[""White""]",No,Female,NA,No,783815.6000000238,NA,null,<p></p>,null,choice,dct,trinary,repulsion_B,1,televisions,null,null,null,null,null,null,2,NA,NA,NA,NA,NA,NA,NA,NA,NA,NA
NA,NA,NA,NA,NA,choice_trial,survey-html-form,73,419719,0.0-4.0-1.34,201,1,2025-05-05T20:25:19Z,b60275e29fe2361ab97ac0ac217840d7,"Mozilla/5.0 (Macintosh; Intel Mac OS X 10_15_7) AppleWebKit/537.36 (KHTML, like Gecko) Chrome/131.0.0.0 Safari/537.36",Macintosh,Chrome,131.0.0.0,OS X,10_15_7,https://5puzkbbxv1.cognition.run/?sona_id=57600,"en-US,en;q=0.9",1lv9k28cjhgtx78,19,"[""White""]",No,Female,NA,No,783815.6000000238,NA,5902,NA,"{""product_choice"":""C""}",choice,dct,trinary,repulsion_B,1,televisions,null,null,null,null,null,null,2,90,100,80,40,30,40,Screen size,Average lifespan,NA,NA
NA,NA,NA,NA,NA,choice_trial_setup,html-keyboard-response,74,420024,0.0-4.0-0.35,201,1,2025-05-05T20:25:19Z,b60275e29fe2361ab97ac0ac217840d7,"Mozilla/5.0 (Macintosh; Intel Mac OS X 10_15_7) AppleWebKit/537.36 (KHTML, like Gecko) Chrome/131.0.0.0 Safari/537.36",Macintosh,Chrome,131.0.0.0,OS X,10_15_7,https://5puzkbbxv1.cognition.run/?sona_id=57600,"en-US,en;q=0.9",1lv9k28cjhgtx78,19,"[""White""]",No,Female,NA,No,783815.6000000238,NA,null,<p></p>,null,choice,dtc,trinary,repulsion_A,2,televisions,null,null,null,null,null,null,1,NA,NA,NA,NA,NA,NA,NA,NA,NA,NA
NA,NA,NA,NA,NA,choice_trial,survey-html-form,75,425074,0.0-4.0-1.35,201,1,2025-05-05T20:25:19Z,b60275e29fe2361ab97ac0ac217840d7,"Mozilla/5.0 (Macintosh; Intel Mac OS X 10_15_7) AppleWebKit/537.36 (KHTML, like Gecko) Chrome/131.0.0.0 Safari/537.36",Macintosh,Chrome,131.0.0.0,OS X,10_15_7,https://5puzkbbxv1.cognition.run/?sona_id=57600,"en-US,en;q=0.9",1lv9k28cjhgtx78,19,"[""White""]",No,Female,NA,No,783815.6000000238,NA,5044,NA,"{""product_choice"":""C""}",choice,dtc,trinary,repulsion_A,2,televisions,null,null,null,null,null,null,1,30,40,20,100,90,100,Screen size,Average lifespan,NA,NA
NA,NA,NA,NA,NA,choice_trial_setup,html-keyboard-response,76,425378,0.0-4.0-0.36,201,1,2025-05-05T20:25:19Z,b60275e29fe2361ab97ac0ac217840d7,"Mozilla/5.0 (Macintosh; Intel Mac OS X 10_15_7) AppleWebKit/537.36 (KHTML, like Gecko) Chrome/131.0.0.0 Safari/537.36",Macintosh,Chrome,131.0.0.0,OS X,10_15_7,https://5puzkbbxv1.cognition.run/?sona_id=57600,"en-US,en;q=0.9",1lv9k28cjhgtx78,19,"[""White""]",No,Female,NA,No,783815.6000000238,NA,null,<p></p>,null,choice,ct,binary,repulsion,2,washing machines,null,null,null,null,null,null,2,NA,NA,NA,NA,NA,NA,NA,NA,NA,NA
NA,NA,NA,NA,NA,choice_trial,survey-html-form,77,432280,0.0-4.0-1.36,201,1,2025-05-05T20:25:19Z,b60275e29fe2361ab97ac0ac217840d7,"Mozilla/5.0 (Macintosh; Intel Mac OS X 10_15_7) AppleWebKit/537.36 (KHTML, like Gecko) Chrome/131.0.0.0 Safari/537.36",Macintosh,Chrome,131.0.0.0,OS X,10_15_7,https://5puzkbbxv1.cognition.run/?sona_id=57600,"en-US,en;q=0.9",1lv9k28cjhgtx78,19,"[""White""]",No,Female,NA,No,783815.6000000238,NA,6898,NA,"{""product_choice"":""A""}",choice,ct,binary,repulsion,2,washing machines,null,null,null,null,null,null,2,30,40,null,100,90,null,Average lifespan,Energy savings,NA,NA
NA,NA,NA,NA,NA,choice_trial_setup,html-keyboard-response,78,432585,0.0-4.0-0.37,201,1,2025-05-05T20:25:19Z,b60275e29fe2361ab97ac0ac217840d7,"Mozilla/5.0 (Macintosh; Intel Mac OS X 10_15_7) AppleWebKit/537.36 (KHTML, like Gecko) Chrome/131.0.0.0 Safari/537.36",Macintosh,Chrome,131.0.0.0,OS X,10_15_7,https://5puzkbbxv1.cognition.run/?sona_id=57600,"en-US,en;q=0.9",1lv9k28cjhgtx78,19,"[""White""]",No,Female,NA,No,783815.6000000238,NA,null,<p></p>,null,choice,tdc,trinary,attraction,1,microwave ovens,null,null,null,null,null,null,2,NA,NA,NA,NA,NA,NA,NA,NA,NA,NA
NA,NA,NA,NA,NA,choice_trial,survey-html-form,79,452069,0.0-4.0-1.37,201,1,2025-05-05T20:25:19Z,b60275e29fe2361ab97ac0ac217840d7,"Mozilla/5.0 (Macintosh; Intel Mac OS X 10_15_7) AppleWebKit/537.36 (KHTML, like Gecko) Chrome/131.0.0.0 Safari/537.36",Macintosh,Chrome,131.0.0.0,OS X,10_15_7,https://5puzkbbxv1.cognition.run/?sona_id=57600,"en-US,en;q=0.9",1lv9k28cjhgtx78,19,"[""White""]",No,Female,NA,No,783815.6000000238,NA,19479,NA,"{""product_choice"":""C""}",choice,tdc,trinary,attraction,1,microwave ovens,null,null,null,null,null,null,2,60,50,60,50,60,40,Warranty,Cooking power,NA,NA
NA,NA,NA,NA,NA,choice_trial_setup,html-keyboard-response,80,452374,0.0-4.0-0.38,201,1,2025-05-05T20:25:19Z,b60275e29fe2361ab97ac0ac217840d7,"Mozilla/5.0 (Macintosh; Intel Mac OS X 10_15_7) AppleWebKit/537.36 (KHTML, like Gecko) Chrome/131.0.0.0 Safari/537.36",Macintosh,Chrome,131.0.0.0,OS X,10_15_7,https://5puzkbbxv1.cognition.run/?sona_id=57600,"en-US,en;q=0.9",1lv9k28cjhgtx78,19,"[""White""]",No,Female,NA,No,783815.6000000238,NA,null,<p></p>,null,choice,bww,trinary,catch,null,washing machines,70,60,30,45,30,15,1,NA,NA,NA,NA,NA,NA,NA,NA,NA,NA
NA,NA,NA,NA,NA,choice_trial,survey-html-form,81,461457,0.0-4.0-1.38,201,1,2025-05-05T20:25:19Z,b60275e29fe2361ab97ac0ac217840d7,"Mozilla/5.0 (Macintosh; Intel Mac OS X 10_15_7) AppleWebKit/537.36 (KHTML, like Gecko) Chrome/131.0.0.0 Safari/537.36",Macintosh,Chrome,131.0.0.0,OS X,10_15_7,https://5puzkbbxv1.cognition.run/?sona_id=57600,"en-US,en;q=0.9",1lv9k28cjhgtx78,19,"[""White""]",No,Female,NA,No,783815.6000000238,NA,9077,NA,"{""product_choice"":""A""}",choice,bww,trinary,catch,null,washing machines,70,60,30,45,30,15,1,null,null,null,null,null,null,Average lifespan,Energy savings,NA,NA
NA,NA,NA,NA,NA,choice_trial_setup,html-keyboard-response,82,461761,0.0-4.0-0.39,201,1,2025-05-05T20:25:19Z,b60275e29fe2361ab97ac0ac217840d7,"Mozilla/5.0 (Macintosh; Intel Mac OS X 10_15_7) AppleWebKit/537.36 (KHTML, like Gecko) Chrome/131.0.0.0 Safari/537.36",Macintosh,Chrome,131.0.0.0,OS X,10_15_7,https://5puzkbbxv1.cognition.run/?sona_id=57600,"en-US,en;q=0.9",1lv9k28cjhgtx78,19,"[""White""]",No,Female,NA,No,783815.6000000238,NA,null,<p></p>,null,choice,cdt,trinary,attraction,2,televisions,null,null,null,null,null,null,2,NA,NA,NA,NA,NA,NA,NA,NA,NA,NA
NA,NA,NA,NA,NA,choice_trial,survey-html-form,83,476058,0.0-4.0-1.39,201,1,2025-05-05T20:25:19Z,b60275e29fe2361ab97ac0ac217840d7,"Mozilla/5.0 (Macintosh; Intel Mac OS X 10_15_7) AppleWebKit/537.36 (KHTML, like Gecko) Chrome/131.0.0.0 Safari/537.36",Macintosh,Chrome,131.0.0.0,OS X,10_15_7,https://5puzkbbxv1.cognition.run/?sona_id=57600,"en-US,en;q=0.9",1lv9k28cjhgtx78,19,"[""White""]",No,Female,NA,No,783815.6000000238,NA,14292,NA,"{""product_choice"":""A""}",choice,cdt,trinary,attraction,2,televisions,null,null,null,null,null,null,2,50,60,40,60,50,60,Screen size,Average lifespan,NA,NA
NA,NA,NA,NA,NA,choice_trial_setup,html-keyboard-response,84,476363,0.0-4.0-0.40,201,1,2025-05-05T20:25:19Z,b60275e29fe2361ab97ac0ac217840d7,"Mozilla/5.0 (Macintosh; Intel Mac OS X 10_15_7) AppleWebKit/537.36 (KHTML, like Gecko) Chrome/131.0.0.0 Safari/537.36",Macintosh,Chrome,131.0.0.0,OS X,10_15_7,https://5puzkbbxv1.cognition.run/?sona_id=57600,"en-US,en;q=0.9",1lv9k28cjhgtx78,19,"[""White""]",No,Female,NA,No,783815.6000000238,NA,null,<p></p>,null,choice,ct,binary,repulsion,1,laptops,null,null,null,null,null,null,1,NA,NA,NA,NA,NA,NA,NA,NA,NA,NA
NA,NA,NA,NA,NA,choice_trial,survey-html-form,85,486118,0.0-4.0-1.40,201,1,2025-05-05T20:25:19Z,b60275e29fe2361ab97ac0ac217840d7,"Mozilla/5.0 (Macintosh; Intel Mac OS X 10_15_7) AppleWebKit/537.36 (KHTML, like Gecko) Chrome/131.0.0.0 Safari/537.36",Macintosh,Chrome,131.0.0.0,OS X,10_15_7,https://5puzkbbxv1.cognition.run/?sona_id=57600,"en-US,en;q=0.9",1lv9k28cjhgtx78,19,"[""White""]",No,Female,NA,No,783815.6000000238,NA,9749,NA,"{""product_choice"":""A""}",choice,ct,binary,repulsion,1,laptops,null,null,null,null,null,null,1,100,90,null,30,40,null,Processing speed,Memory (RAM),NA,NA
NA,NA,NA,NA,NA,choice_trial_setup,html-keyboard-response,86,486422,0.0-4.0-0.41,201,1,2025-05-05T20:25:19Z,b60275e29fe2361ab97ac0ac217840d7,"Mozilla/5.0 (Macintosh; Intel Mac OS X 10_15_7) AppleWebKit/537.36 (KHTML, like Gecko) Chrome/131.0.0.0 Safari/537.36",Macintosh,Chrome,131.0.0.0,OS X,10_15_7,https://5puzkbbxv1.cognition.run/?sona_id=57600,"en-US,en;q=0.9",1lv9k28cjhgtx78,19,"[""White""]",No,Female,NA,No,783815.6000000238,NA,null,<p></p>,null,choice,ct,binary,attraction,NA,microwave ovens,null,null,null,null,null,null,1,NA,NA,NA,NA,NA,NA,NA,NA,NA,NA
NA,NA,NA,NA,NA,choice_trial,survey-html-form,87,497488,0.0-4.0-1.41,201,1,2025-05-05T20:25:19Z,b60275e29fe2361ab97ac0ac217840d7,"Mozilla/5.0 (Macintosh; Intel Mac OS X 10_15_7) AppleWebKit/537.36 (KHTML, like Gecko) Chrome/131.0.0.0 Safari/537.36",Macintosh,Chrome,131.0.0.0,OS X,10_15_7,https://5puzkbbxv1.cognition.run/?sona_id=57600,"en-US,en;q=0.9",1lv9k28cjhgtx78,19,"[""White""]",No,Female,NA,No,783815.6000000238,NA,11060,NA,"{""product_choice"":""A""}",choice,ct,binary,attraction,NA,microwave ovens,null,null,null,null,null,null,1,60,50,null,50,60,null,Warranty,Cooking power,NA,NA
NA,NA,NA,NA,NA,choice_trial_setup,html-keyboard-response,88,497792,0.0-4.0-0.42,201,1,2025-05-05T20:25:19Z,b60275e29fe2361ab97ac0ac217840d7,"Mozilla/5.0 (Macintosh; Intel Mac OS X 10_15_7) AppleWebKit/537.36 (KHTML, like Gecko) Chrome/131.0.0.0 Safari/537.36",Macintosh,Chrome,131.0.0.0,OS X,10_15_7,https://5puzkbbxv1.cognition.run/?sona_id=57600,"en-US,en;q=0.9",1lv9k28cjhgtx78,19,"[""White""]",No,Female,NA,No,783815.6000000238,NA,null,<p></p>,null,choice,ct,binary,repulsion,1,televisions,null,null,null,null,null,null,2,NA,NA,NA,NA,NA,NA,NA,NA,NA,NA
NA,NA,NA,NA,NA,choice_trial,survey-html-form,89,522063,0.0-4.0-1.42,201,1,2025-05-05T20:25:19Z,b60275e29fe2361ab97ac0ac217840d7,"Mozilla/5.0 (Macintosh; Intel Mac OS X 10_15_7) AppleWebKit/537.36 (KHTML, like Gecko) Chrome/131.0.0.0 Safari/537.36",Macintosh,Chrome,131.0.0.0,OS X,10_15_7,https://5puzkbbxv1.cognition.run/?sona_id=57600,"en-US,en;q=0.9",1lv9k28cjhgtx78,19,"[""White""]",No,Female,NA,No,783815.6000000238,NA,24265,NA,"{""product_choice"":""A""}",choice,ct,binary,repulsion,1,televisions,null,null,null,null,null,null,2,100,90,null,30,40,null,Screen size,Average lifespan,NA,NA
NA,NA,NA,NA,NA,choice_trial_setup,html-keyboard-response,90,522367,0.0-4.0-0.43,201,1,2025-05-05T20:25:19Z,b60275e29fe2361ab97ac0ac217840d7,"Mozilla/5.0 (Macintosh; Intel Mac OS X 10_15_7) AppleWebKit/537.36 (KHTML, like Gecko) Chrome/131.0.0.0 Safari/537.36",Macintosh,Chrome,131.0.0.0,OS X,10_15_7,https://5puzkbbxv1.cognition.run/?sona_id=57600,"en-US,en;q=0.9",1lv9k28cjhgtx78,19,"[""White""]",No,Female,NA,No,783815.6000000238,NA,null,<p></p>,null,choice,ct,binary,attraction,NA,laptops,null,null,null,null,null,null,2,NA,NA,NA,NA,NA,NA,NA,NA,NA,NA
NA,NA,NA,NA,NA,choice_trial,survey-html-form,91,529428,0.0-4.0-1.43,201,1,2025-05-05T20:25:19Z,b60275e29fe2361ab97ac0ac217840d7,"Mozilla/5.0 (Macintosh; Intel Mac OS X 10_15_7) AppleWebKit/537.36 (KHTML, like Gecko) Chrome/131.0.0.0 Safari/537.36",Macintosh,Chrome,131.0.0.0,OS X,10_15_7,https://5puzkbbxv1.cognition.run/?sona_id=57600,"en-US,en;q=0.9",1lv9k28cjhgtx78,19,"[""White""]",No,Female,NA,No,783815.6000000238,NA,7056,NA,"{""product_choice"":""B""}",choice,ct,binary,attraction,NA,laptops,null,null,null,null,null,null,2,60,50,null,50,60,null,Processing speed,Memory (RAM),NA,NA
NA,NA,NA,NA,NA,post_trials_message,html-button-response,92,531827,0.0-5.0,201,1,2025-05-05T20:25:19Z,b60275e29fe2361ab97ac0ac217840d7,"Mozilla/5.0 (Macintosh; Intel Mac OS X 10_15_7) AppleWebKit/537.36 (KHTML, like Gecko) Chrome/131.0.0.0 Safari/537.36",Macintosh,Chrome,131.0.0.0,OS X,10_15_7,https://5puzkbbxv1.cognition.run/?sona_id=57600,"en-US,en;q=0.9",1lv9k28cjhgtx78,19,"[""White""]",No,Female,NA,No,783815.6000000238,NA,2394,<p> <b>Thank you for your patience!</b></p><p>  The study will be done after completing a brief form. </p>,0,NA,NA,NA,NA,NA,NA,NA,NA,NA,NA,NA,NA,NA,NA,NA,NA,NA,NA,NA,NA,NA,NA,NA
NA,NA,NA,NA,NA,survey_message,survey-text,93,647735,0.0-6.0,201,1,2025-05-05T20:25:19Z,b60275e29fe2361ab97ac0ac217840d7,"Mozilla/5.0 (Macintosh; Intel Mac OS X 10_15_7) AppleWebKit/537.36 (KHTML, like Gecko) Chrome/131.0.0.0 Safari/537.36",Macintosh,Chrome,131.0.0.0,OS X,10_15_7,https://5puzkbbxv1.cognition.run/?sona_id=57600,"en-US,en;q=0.9",1lv9k28cjhgtx78,19,"[""White""]",No,Female,NA,No,783815.6000000238,NA,115902,NA,"{""Q0"":""I chose the product that seemed like had both good qualities. If one number was very high and the other was very low, but other option had both middle ground answers, then I would choose the product with both middle ground.""}",NA,NA,NA,NA,NA,NA,NA,NA,NA,NA,NA,NA,NA,NA,NA,NA,NA,NA,NA,NA,NA,"I chose the product that seemed like had both good qualities. If one number was very high and the other was very low, but other option had both middle ground answers, then I would choose the product with both middle ground.",NA
NA,NA,NA,NA,NA,demo_age,survey-text,94,651245,0.0-7.0,201,1,2025-05-05T20:25:19Z,b60275e29fe2361ab97ac0ac217840d7,"Mozilla/5.0 (Macintosh; Intel Mac OS X 10_15_7) AppleWebKit/537.36 (KHTML, like Gecko) Chrome/131.0.0.0 Safari/537.36",Macintosh,Chrome,131.0.0.0,OS X,10_15_7,https://5puzkbbxv1.cognition.run/?sona_id=57600,"en-US,en;q=0.9",1lv9k28cjhgtx78,19,"[""White""]",No,Female,NA,No,783815.6000000238,NA,3506,NA,"{""Q0"":""19""}",NA,NA,NA,NA,NA,NA,NA,NA,NA,NA,NA,NA,NA,NA,NA,NA,NA,NA,NA,NA,NA,NA,NA
NA,NA,NA,NA,NA,demo_race,survey-multi-select,95,654287,0.0-8.0,201,1,2025-05-05T20:25:19Z,b60275e29fe2361ab97ac0ac217840d7,"Mozilla/5.0 (Macintosh; Intel Mac OS X 10_15_7) AppleWebKit/537.36 (KHTML, like Gecko) Chrome/131.0.0.0 Safari/537.36",Macintosh,Chrome,131.0.0.0,OS X,10_15_7,https://5puzkbbxv1.cognition.run/?sona_id=57600,"en-US,en;q=0.9",1lv9k28cjhgtx78,19,"[""White""]",No,Female,NA,No,783815.6000000238,NA,3038,NA,"{""Q0"":[""White""]}",NA,NA,NA,NA,NA,NA,NA,NA,NA,NA,NA,NA,NA,NA,NA,NA,NA,NA,NA,NA,NA,NA,[0]
NA,NA,NA,NA,NA,demo_ethnicity_gender,survey-multi-choice,96,661795,0.0-9.0,201,1,2025-05-05T20:25:19Z,b60275e29fe2361ab97ac0ac217840d7,"Mozilla/5.0 (Macintosh; Intel Mac OS X 10_15_7) AppleWebKit/537.36 (KHTML, like Gecko) Chrome/131.0.0.0 Safari/537.36",Macintosh,Chrome,131.0.0.0,OS X,10_15_7,https://5puzkbbxv1.cognition.run/?sona_id=57600,"en-US,en;q=0.9",1lv9k28cjhgtx78,19,"[""White""]",No,Female,NA,No,783815.6000000238,NA,7502,NA,"{""Q0"":""No"",""Q1"":""Female""}",NA,NA,NA,NA,NA,NA,NA,NA,NA,NA,NA,NA,NA,NA,NA,NA,NA,NA,NA,NA,NA,NA,"[0,1]"
NA,NA,NA,NA,NA,demo_countries,survey-text,97,673281,0.0-10.0,201,1,2025-05-05T20:25:19Z,b60275e29fe2361ab97ac0ac217840d7,"Mozilla/5.0 (Macintosh; Intel Mac OS X 10_15_7) AppleWebKit/537.36 (KHTML, like Gecko) Chrome/131.0.0.0 Safari/537.36",Macintosh,Chrome,131.0.0.0,OS X,10_15_7,https://5puzkbbxv1.cognition.run/?sona_id=57600,"en-US,en;q=0.9",1lv9k28cjhgtx78,19,"[""White""]",No,Female,NA,No,783815.6000000238,NA,11469,NA,"{""Q0"":""NA""}",NA,NA,NA,NA,NA,NA,NA,NA,NA,NA,NA,NA,NA,NA,NA,NA,NA,NA,NA,NA,NA,NA,NA
NA,NA,NA,NA,NA,demo_prev_study,survey-multi-choice,98,685783,0.0-11.0,201,1,2025-05-05T20:25:19Z,b60275e29fe2361ab97ac0ac217840d7,"Mozilla/5.0 (Macintosh; Intel Mac OS X 10_15_7) AppleWebKit/537.36 (KHTML, like Gecko) Chrome/131.0.0.0 Safari/537.36",Macintosh,Chrome,131.0.0.0,OS X,10_15_7,https://5puzkbbxv1.cognition.run/?sona_id=57600,"en-US,en;q=0.9",1lv9k28cjhgtx78,19,"[""White""]",No,Female,NA,No,783815.6000000238,NA,12499,NA,"{""Q0"":""No""}",NA,NA,NA,NA,NA,NA,NA,NA,NA,NA,NA,NA,NA,NA,NA,NA,NA,NA,NA,NA,NA,NA,[0]
NA,NA,NA,NA,NA,post_survey_message,html-keyboard-response,99,699848,0.0-12.0,201,1,2025-05-05T20:25:19Z,b60275e29fe2361ab97ac0ac217840d7,"Mozilla/5.0 (Macintosh; Intel Mac OS X 10_15_7) AppleWebKit/537.36 (KHTML, like Gecko) Chrome/131.0.0.0 Safari/537.36",Macintosh,Chrome,131.0.0.0,OS X,10_15_7,https://5puzkbbxv1.cognition.run/?sona_id=57600,"en-US,en;q=0.9",1lv9k28cjhgtx78,19,"[""White""]",No,Female,NA,No,783815.6000000238,NA,14060,NA,j,NA,NA,NA,NA,NA,NA,NA,NA,NA,NA,NA,NA,NA,NA,NA,NA,NA,NA,NA,NA,NA,NA,NA
NA,NA,NA,NA,NA,debrief,image-keyboard-response,100,783829,0.0-13.0,201,1,2025-05-05T20:25:19Z,b60275e29fe2361ab97ac0ac217840d7,"Mozilla/5.0 (Macintosh; Intel Mac OS X 10_15_7) AppleWebKit/537.36 (KHTML, like Gecko) Chrome/131.0.0.0 Safari/537.36",Macintosh,Chrome,131.0.0.0,OS X,10_15_7,https://5puzkbbxv1.cognition.run/?sona_id=57600,"en-US,en;q=0.9",1lv9k28cjhgtx78,19,"[""White""]",No,Female,NA,No,783815.6000000238,NA,83973,Judg_choice_debrief.png,p,NA,NA,NA,NA,NA,NA,NA,NA,NA,NA,NA,NA,NA,NA,NA,NA,NA,NA,NA,NA,NA,NA,NA
