success,timeout,failed_images,failed_audio,failed_video,screen_id,trial_type,trial_index,time_elapsed,internal_node_id,run_id,condition,recorded_at,source_code_version,user_agent,device,browser,browser_version,platform,platform_version,referer,accept_language,ppt_id,age,race,ethnicity,gender,other_countries,prev_study,exp_duration,view_history,rt,stimulus,response,phase,order,set,effect,t_high,category,d1_best,d2_best,d1_worst1,d2_worst1,d1_worst2,d2_worst2,first_dim,d1_t,d1_c,d1_d,d2_t,d2_c,d2_d,d1_name,d2_name,strategy_response,question_order
TRUE,FALSE,[],[],[],img preload,preload,0,180,0.0-0.0,203,1,2025-05-05T20:52:01Z,b60275e29fe2361ab97ac0ac217840d7,"Mozilla/5.0 (Windows NT 10.0; Win64; x64) AppleWebKit/537.36 (KHTML, like Gecko) Chrome/135.0.0.0 Safari/537.36",WebKit,Chrome,135.0.0.0,Windows,10,https://5puzkbbxv1.cognition.run/?sona_id=54959,"en-US,en;q=0.9",d5raxdys8fb07a6,20,"[""White""]",No,Male,NA,No,895467.8999999762,NA,NA,NA,NA,NA,NA,NA,NA,NA,NA,NA,NA,NA,NA,NA,NA,NA,NA,NA,NA,NA,NA,NA,NA,NA,NA,NA
NA,NA,NA,NA,NA,computer_message,instructions,1,3497,0.0-1.0,203,1,2025-05-05T20:52:01Z,b60275e29fe2361ab97ac0ac217840d7,"Mozilla/5.0 (Windows NT 10.0; Win64; x64) AppleWebKit/537.36 (KHTML, like Gecko) Chrome/135.0.0.0 Safari/537.36",WebKit,Chrome,135.0.0.0,Windows,10,https://5puzkbbxv1.cognition.run/?sona_id=54959,"en-US,en;q=0.9",d5raxdys8fb07a6,20,"[""White""]",No,Male,NA,No,895467.8999999762,"[{""page_index"":0,""viewing_time"":3315}]",3315,NA,NA,NA,NA,NA,NA,NA,NA,NA,NA,NA,NA,NA,NA,NA,NA,NA,NA,NA,NA,NA,NA,NA,NA,NA
TRUE,NA,NA,NA,NA,NA,fullscreen,2,6846,0.0-2.0,203,1,2025-05-05T20:52:01Z,b60275e29fe2361ab97ac0ac217840d7,"Mozilla/5.0 (Windows NT 10.0; Win64; x64) AppleWebKit/537.36 (KHTML, like Gecko) Chrome/135.0.0.0 Safari/537.36",WebKit,Chrome,135.0.0.0,Windows,10,https://5puzkbbxv1.cognition.run/?sona_id=54959,"en-US,en;q=0.9",d5raxdys8fb07a6,20,"[""White""]",No,Male,NA,No,895467.8999999762,NA,2331,NA,NA,NA,NA,NA,NA,NA,NA,NA,NA,NA,NA,NA,NA,NA,NA,NA,NA,NA,NA,NA,NA,NA,NA,NA
NA,NA,NA,NA,NA,choice_instructions,instructions,3,76658,0.0-3.0,203,1,2025-05-05T20:52:01Z,b60275e29fe2361ab97ac0ac217840d7,"Mozilla/5.0 (Windows NT 10.0; Win64; x64) AppleWebKit/537.36 (KHTML, like Gecko) Chrome/135.0.0.0 Safari/537.36",WebKit,Chrome,135.0.0.0,Windows,10,https://5puzkbbxv1.cognition.run/?sona_id=54959,"en-US,en;q=0.9",d5raxdys8fb07a6,20,"[""White""]",No,Male,NA,No,895467.8999999762,"[{""page_index"":0,""viewing_time"":1846},{""page_index"":1,""viewing_time"":5282},{""page_index"":2,""viewing_time"":14133},{""page_index"":3,""viewing_time"":4596},{""page_index"":4,""viewing_time"":4675},{""page_index"":5,""viewing_time"":21823},{""page_index"":6,""viewing_time"":17456}]",69810,NA,NA,NA,NA,NA,NA,NA,NA,NA,NA,NA,NA,NA,NA,NA,NA,NA,NA,NA,NA,NA,NA,NA,NA,NA
NA,NA,NA,NA,NA,choice_trial_setup,html-keyboard-response,4,76961,0.0-4.0-0.0,203,1,2025-05-05T20:52:01Z,b60275e29fe2361ab97ac0ac217840d7,"Mozilla/5.0 (Windows NT 10.0; Win64; x64) AppleWebKit/537.36 (KHTML, like Gecko) Chrome/135.0.0.0 Safari/537.36",WebKit,Chrome,135.0.0.0,Windows,10,https://5puzkbbxv1.cognition.run/?sona_id=54959,"en-US,en;q=0.9",d5raxdys8fb07a6,20,"[""White""]",No,Male,NA,No,895467.8999999762,NA,null,<p></p>,null,choice,wb,binary,catch,null,washing machines,65,70,5,40,null,null,1,NA,NA,NA,NA,NA,NA,NA,NA,NA,NA
NA,NA,NA,NA,NA,choice_trial,survey-html-form,5,88342,0.0-4.0-1.0,203,1,2025-05-05T20:52:01Z,b60275e29fe2361ab97ac0ac217840d7,"Mozilla/5.0 (Windows NT 10.0; Win64; x64) AppleWebKit/537.36 (KHTML, like Gecko) Chrome/135.0.0.0 Safari/537.36",WebKit,Chrome,135.0.0.0,Windows,10,https://5puzkbbxv1.cognition.run/?sona_id=54959,"en-US,en;q=0.9",d5raxdys8fb07a6,20,"[""White""]",No,Male,NA,No,895467.8999999762,NA,11376,NA,"{""product_choice"":""B""}",choice,wb,binary,catch,null,washing machines,65,70,5,40,null,null,1,null,null,null,null,null,null,Average lifespan,Energy savings,NA,NA
NA,NA,NA,NA,NA,choice_trial_setup,html-keyboard-response,6,88650,0.0-4.0-0.1,203,1,2025-05-05T20:52:01Z,b60275e29fe2361ab97ac0ac217840d7,"Mozilla/5.0 (Windows NT 10.0; Win64; x64) AppleWebKit/537.36 (KHTML, like Gecko) Chrome/135.0.0.0 Safari/537.36",WebKit,Chrome,135.0.0.0,Windows,10,https://5puzkbbxv1.cognition.run/?sona_id=54959,"en-US,en;q=0.9",d5raxdys8fb07a6,20,"[""White""]",No,Male,NA,No,895467.8999999762,NA,null,<p></p>,null,choice,dct,trinary,attraction,2,microwave ovens,null,null,null,null,null,null,2,NA,NA,NA,NA,NA,NA,NA,NA,NA,NA
NA,NA,NA,NA,NA,choice_trial,survey-html-form,7,104528,0.0-4.0-1.1,203,1,2025-05-05T20:52:01Z,b60275e29fe2361ab97ac0ac217840d7,"Mozilla/5.0 (Windows NT 10.0; Win64; x64) AppleWebKit/537.36 (KHTML, like Gecko) Chrome/135.0.0.0 Safari/537.36",WebKit,Chrome,135.0.0.0,Windows,10,https://5puzkbbxv1.cognition.run/?sona_id=54959,"en-US,en;q=0.9",d5raxdys8fb07a6,20,"[""White""]",No,Male,NA,No,895467.8999999762,NA,15874,NA,"{""product_choice"":""B""}",choice,dct,trinary,attraction,2,microwave ovens,null,null,null,null,null,null,2,50,60,40,60,50,60,Warranty,Cooking power,NA,NA
NA,NA,NA,NA,NA,choice_trial_setup,html-keyboard-response,8,104835,0.0-4.0-0.2,203,1,2025-05-05T20:52:01Z,b60275e29fe2361ab97ac0ac217840d7,"Mozilla/5.0 (Windows NT 10.0; Win64; x64) AppleWebKit/537.36 (KHTML, like Gecko) Chrome/135.0.0.0 Safari/537.36",WebKit,Chrome,135.0.0.0,Windows,10,https://5puzkbbxv1.cognition.run/?sona_id=54959,"en-US,en;q=0.9",d5raxdys8fb07a6,20,"[""White""]",No,Male,NA,No,895467.8999999762,NA,null,<p></p>,null,choice,tdc,trinary,attraction,2,laptops,null,null,null,null,null,null,2,NA,NA,NA,NA,NA,NA,NA,NA,NA,NA
NA,NA,NA,NA,NA,choice_trial,survey-html-form,9,119182,0.0-4.0-1.2,203,1,2025-05-05T20:52:01Z,b60275e29fe2361ab97ac0ac217840d7,"Mozilla/5.0 (Windows NT 10.0; Win64; x64) AppleWebKit/537.36 (KHTML, like Gecko) Chrome/135.0.0.0 Safari/537.36",WebKit,Chrome,135.0.0.0,Windows,10,https://5puzkbbxv1.cognition.run/?sona_id=54959,"en-US,en;q=0.9",d5raxdys8fb07a6,20,"[""White""]",No,Male,NA,No,895467.8999999762,NA,14345,NA,"{""product_choice"":""C""}",choice,tdc,trinary,attraction,2,laptops,null,null,null,null,null,null,2,50,60,40,60,50,60,Processing speed,Memory (RAM),NA,NA
NA,NA,NA,NA,NA,choice_trial_setup,html-keyboard-response,10,119485,0.0-4.0-0.3,203,1,2025-05-05T20:52:01Z,b60275e29fe2361ab97ac0ac217840d7,"Mozilla/5.0 (Windows NT 10.0; Win64; x64) AppleWebKit/537.36 (KHTML, like Gecko) Chrome/135.0.0.0 Safari/537.36",WebKit,Chrome,135.0.0.0,Windows,10,https://5puzkbbxv1.cognition.run/?sona_id=54959,"en-US,en;q=0.9",d5raxdys8fb07a6,20,"[""White""]",No,Male,NA,No,895467.8999999762,NA,null,<p></p>,null,choice,ct,binary,repulsion,2,microwave ovens,null,null,null,null,null,null,1,NA,NA,NA,NA,NA,NA,NA,NA,NA,NA
NA,NA,NA,NA,NA,choice_trial,survey-html-form,11,128176,0.0-4.0-1.3,203,1,2025-05-05T20:52:01Z,b60275e29fe2361ab97ac0ac217840d7,"Mozilla/5.0 (Windows NT 10.0; Win64; x64) AppleWebKit/537.36 (KHTML, like Gecko) Chrome/135.0.0.0 Safari/537.36",WebKit,Chrome,135.0.0.0,Windows,10,https://5puzkbbxv1.cognition.run/?sona_id=54959,"en-US,en;q=0.9",d5raxdys8fb07a6,20,"[""White""]",No,Male,NA,No,895467.8999999762,NA,8690,NA,"{""product_choice"":""A""}",choice,ct,binary,repulsion,2,microwave ovens,null,null,null,null,null,null,1,30,40,null,100,90,null,Warranty,Cooking power,NA,NA
NA,NA,NA,NA,NA,choice_trial_setup,html-keyboard-response,12,128478,0.0-4.0-0.4,203,1,2025-05-05T20:52:01Z,b60275e29fe2361ab97ac0ac217840d7,"Mozilla/5.0 (Windows NT 10.0; Win64; x64) AppleWebKit/537.36 (KHTML, like Gecko) Chrome/135.0.0.0 Safari/537.36",WebKit,Chrome,135.0.0.0,Windows,10,https://5puzkbbxv1.cognition.run/?sona_id=54959,"en-US,en;q=0.9",d5raxdys8fb07a6,20,"[""White""]",No,Male,NA,No,895467.8999999762,NA,null,<p></p>,null,choice,tcd,trinary,repulsion_A,2,televisions,null,null,null,null,null,null,2,NA,NA,NA,NA,NA,NA,NA,NA,NA,NA
NA,NA,NA,NA,NA,choice_trial,survey-html-form,13,154805,0.0-4.0-1.4,203,1,2025-05-05T20:52:01Z,b60275e29fe2361ab97ac0ac217840d7,"Mozilla/5.0 (Windows NT 10.0; Win64; x64) AppleWebKit/537.36 (KHTML, like Gecko) Chrome/135.0.0.0 Safari/537.36",WebKit,Chrome,135.0.0.0,Windows,10,https://5puzkbbxv1.cognition.run/?sona_id=54959,"en-US,en;q=0.9",d5raxdys8fb07a6,20,"[""White""]",No,Male,NA,No,895467.8999999762,NA,26325,NA,"{""product_choice"":""B""}",choice,tcd,trinary,repulsion_A,2,televisions,null,null,null,null,null,null,2,30,40,20,100,90,100,Screen size,Average lifespan,NA,NA
NA,NA,NA,NA,NA,choice_trial_setup,html-keyboard-response,14,155108,0.0-4.0-0.5,203,1,2025-05-05T20:52:01Z,b60275e29fe2361ab97ac0ac217840d7,"Mozilla/5.0 (Windows NT 10.0; Win64; x64) AppleWebKit/537.36 (KHTML, like Gecko) Chrome/135.0.0.0 Safari/537.36",WebKit,Chrome,135.0.0.0,Windows,10,https://5puzkbbxv1.cognition.run/?sona_id=54959,"en-US,en;q=0.9",d5raxdys8fb07a6,20,"[""White""]",No,Male,NA,No,895467.8999999762,NA,null,<p></p>,null,choice,ct,binary,repulsion,2,washing machines,null,null,null,null,null,null,2,NA,NA,NA,NA,NA,NA,NA,NA,NA,NA
NA,NA,NA,NA,NA,choice_trial,survey-html-form,15,177402,0.0-4.0-1.5,203,1,2025-05-05T20:52:01Z,b60275e29fe2361ab97ac0ac217840d7,"Mozilla/5.0 (Windows NT 10.0; Win64; x64) AppleWebKit/537.36 (KHTML, like Gecko) Chrome/135.0.0.0 Safari/537.36",WebKit,Chrome,135.0.0.0,Windows,10,https://5puzkbbxv1.cognition.run/?sona_id=54959,"en-US,en;q=0.9",d5raxdys8fb07a6,20,"[""White""]",No,Male,NA,No,895467.8999999762,NA,22293,NA,"{""product_choice"":""B""}",choice,ct,binary,repulsion,2,washing machines,null,null,null,null,null,null,2,30,40,null,100,90,null,Average lifespan,Energy savings,NA,NA
NA,NA,NA,NA,NA,choice_trial_setup,html-keyboard-response,16,177719,0.0-4.0-0.6,203,1,2025-05-05T20:52:01Z,b60275e29fe2361ab97ac0ac217840d7,"Mozilla/5.0 (Windows NT 10.0; Win64; x64) AppleWebKit/537.36 (KHTML, like Gecko) Chrome/135.0.0.0 Safari/537.36",WebKit,Chrome,135.0.0.0,Windows,10,https://5puzkbbxv1.cognition.run/?sona_id=54959,"en-US,en;q=0.9",d5raxdys8fb07a6,20,"[""White""]",No,Male,NA,No,895467.8999999762,NA,null,<p></p>,null,choice,ct,binary,attraction,NA,laptops,null,null,null,null,null,null,2,NA,NA,NA,NA,NA,NA,NA,NA,NA,NA
NA,NA,NA,NA,NA,choice_trial,survey-html-form,17,192399,0.0-4.0-1.6,203,1,2025-05-05T20:52:01Z,b60275e29fe2361ab97ac0ac217840d7,"Mozilla/5.0 (Windows NT 10.0; Win64; x64) AppleWebKit/537.36 (KHTML, like Gecko) Chrome/135.0.0.0 Safari/537.36",WebKit,Chrome,135.0.0.0,Windows,10,https://5puzkbbxv1.cognition.run/?sona_id=54959,"en-US,en;q=0.9",d5raxdys8fb07a6,20,"[""White""]",No,Male,NA,No,895467.8999999762,NA,14678,NA,"{""product_choice"":""B""}",choice,ct,binary,attraction,NA,laptops,null,null,null,null,null,null,2,60,50,null,50,60,null,Processing speed,Memory (RAM),NA,NA
NA,NA,NA,NA,NA,choice_trial_setup,html-keyboard-response,18,192706,0.0-4.0-0.7,203,1,2025-05-05T20:52:01Z,b60275e29fe2361ab97ac0ac217840d7,"Mozilla/5.0 (Windows NT 10.0; Win64; x64) AppleWebKit/537.36 (KHTML, like Gecko) Chrome/135.0.0.0 Safari/537.36",WebKit,Chrome,135.0.0.0,Windows,10,https://5puzkbbxv1.cognition.run/?sona_id=54959,"en-US,en;q=0.9",d5raxdys8fb07a6,20,"[""White""]",No,Male,NA,No,895467.8999999762,NA,null,<p></p>,null,choice,ct,binary,repulsion,1,laptops,null,null,null,null,null,null,2,NA,NA,NA,NA,NA,NA,NA,NA,NA,NA
NA,NA,NA,NA,NA,choice_trial,survey-html-form,19,208691,0.0-4.0-1.7,203,1,2025-05-05T20:52:01Z,b60275e29fe2361ab97ac0ac217840d7,"Mozilla/5.0 (Windows NT 10.0; Win64; x64) AppleWebKit/537.36 (KHTML, like Gecko) Chrome/135.0.0.0 Safari/537.36",WebKit,Chrome,135.0.0.0,Windows,10,https://5puzkbbxv1.cognition.run/?sona_id=54959,"en-US,en;q=0.9",d5raxdys8fb07a6,20,"[""White""]",No,Male,NA,No,895467.8999999762,NA,15983,NA,"{""product_choice"":""B""}",choice,ct,binary,repulsion,1,laptops,null,null,null,null,null,null,2,100,90,null,30,40,null,Processing speed,Memory (RAM),NA,NA
NA,NA,NA,NA,NA,choice_trial_setup,html-keyboard-response,20,208993,0.0-4.0-0.8,203,1,2025-05-05T20:52:01Z,b60275e29fe2361ab97ac0ac217840d7,"Mozilla/5.0 (Windows NT 10.0; Win64; x64) AppleWebKit/537.36 (KHTML, like Gecko) Chrome/135.0.0.0 Safari/537.36",WebKit,Chrome,135.0.0.0,Windows,10,https://5puzkbbxv1.cognition.run/?sona_id=54959,"en-US,en;q=0.9",d5raxdys8fb07a6,20,"[""White""]",No,Male,NA,No,895467.8999999762,NA,null,<p></p>,null,choice,ctd,trinary,repulsion_B,1,televisions,null,null,null,null,null,null,1,NA,NA,NA,NA,NA,NA,NA,NA,NA,NA
NA,NA,NA,NA,NA,choice_trial,survey-html-form,21,234176,0.0-4.0-1.8,203,1,2025-05-05T20:52:01Z,b60275e29fe2361ab97ac0ac217840d7,"Mozilla/5.0 (Windows NT 10.0; Win64; x64) AppleWebKit/537.36 (KHTML, like Gecko) Chrome/135.0.0.0 Safari/537.36",WebKit,Chrome,135.0.0.0,Windows,10,https://5puzkbbxv1.cognition.run/?sona_id=54959,"en-US,en;q=0.9",d5raxdys8fb07a6,20,"[""White""]",No,Male,NA,No,895467.8999999762,NA,25181,NA,"{""product_choice"":""B""}",choice,ctd,trinary,repulsion_B,1,televisions,null,null,null,null,null,null,1,90,100,80,40,30,40,Screen size,Average lifespan,NA,NA
NA,NA,NA,NA,NA,choice_trial_setup,html-keyboard-response,22,234479,0.0-4.0-0.9,203,1,2025-05-05T20:52:01Z,b60275e29fe2361ab97ac0ac217840d7,"Mozilla/5.0 (Windows NT 10.0; Win64; x64) AppleWebKit/537.36 (KHTML, like Gecko) Chrome/135.0.0.0 Safari/537.36",WebKit,Chrome,135.0.0.0,Windows,10,https://5puzkbbxv1.cognition.run/?sona_id=54959,"en-US,en;q=0.9",d5raxdys8fb07a6,20,"[""White""]",No,Male,NA,No,895467.8999999762,NA,null,<p></p>,null,choice,bww,trinary,catch,null,microwave ovens,85,80,40,10,15,10,2,NA,NA,NA,NA,NA,NA,NA,NA,NA,NA
NA,NA,NA,NA,NA,choice_trial,survey-html-form,23,255531,0.0-4.0-1.9,203,1,2025-05-05T20:52:01Z,b60275e29fe2361ab97ac0ac217840d7,"Mozilla/5.0 (Windows NT 10.0; Win64; x64) AppleWebKit/537.36 (KHTML, like Gecko) Chrome/135.0.0.0 Safari/537.36",WebKit,Chrome,135.0.0.0,Windows,10,https://5puzkbbxv1.cognition.run/?sona_id=54959,"en-US,en;q=0.9",d5raxdys8fb07a6,20,"[""White""]",No,Male,NA,No,895467.8999999762,NA,21050,NA,"{""product_choice"":""A""}",choice,bww,trinary,catch,null,microwave ovens,85,80,40,10,15,10,2,null,null,null,null,null,null,Warranty,Cooking power,NA,NA
NA,NA,NA,NA,NA,choice_trial_setup,html-keyboard-response,24,255834,0.0-4.0-0.10,203,1,2025-05-05T20:52:01Z,b60275e29fe2361ab97ac0ac217840d7,"Mozilla/5.0 (Windows NT 10.0; Win64; x64) AppleWebKit/537.36 (KHTML, like Gecko) Chrome/135.0.0.0 Safari/537.36",WebKit,Chrome,135.0.0.0,Windows,10,https://5puzkbbxv1.cognition.run/?sona_id=54959,"en-US,en;q=0.9",d5raxdys8fb07a6,20,"[""White""]",No,Male,NA,No,895467.8999999762,NA,null,<p></p>,null,choice,cdt,trinary,repulsion_B,2,laptops,null,null,null,null,null,null,2,NA,NA,NA,NA,NA,NA,NA,NA,NA,NA
NA,NA,NA,NA,NA,choice_trial,survey-html-form,25,290017,0.0-4.0-1.10,203,1,2025-05-05T20:52:01Z,b60275e29fe2361ab97ac0ac217840d7,"Mozilla/5.0 (Windows NT 10.0; Win64; x64) AppleWebKit/537.36 (KHTML, like Gecko) Chrome/135.0.0.0 Safari/537.36",WebKit,Chrome,135.0.0.0,Windows,10,https://5puzkbbxv1.cognition.run/?sona_id=54959,"en-US,en;q=0.9",d5raxdys8fb07a6,20,"[""White""]",No,Male,NA,No,895467.8999999762,NA,34181,NA,"{""product_choice"":""C""}",choice,cdt,trinary,repulsion_B,2,laptops,null,null,null,null,null,null,2,40,30,40,90,100,80,Processing speed,Memory (RAM),NA,NA
NA,NA,NA,NA,NA,choice_trial_setup,html-keyboard-response,26,290320,0.0-4.0-0.11,203,1,2025-05-05T20:52:01Z,b60275e29fe2361ab97ac0ac217840d7,"Mozilla/5.0 (Windows NT 10.0; Win64; x64) AppleWebKit/537.36 (KHTML, like Gecko) Chrome/135.0.0.0 Safari/537.36",WebKit,Chrome,135.0.0.0,Windows,10,https://5puzkbbxv1.cognition.run/?sona_id=54959,"en-US,en;q=0.9",d5raxdys8fb07a6,20,"[""White""]",No,Male,NA,No,895467.8999999762,NA,null,<p></p>,null,choice,cdt,trinary,repulsion_A,2,laptops,null,null,null,null,null,null,2,NA,NA,NA,NA,NA,NA,NA,NA,NA,NA
NA,NA,NA,NA,NA,choice_trial,survey-html-form,27,300916,0.0-4.0-1.11,203,1,2025-05-05T20:52:01Z,b60275e29fe2361ab97ac0ac217840d7,"Mozilla/5.0 (Windows NT 10.0; Win64; x64) AppleWebKit/537.36 (KHTML, like Gecko) Chrome/135.0.0.0 Safari/537.36",WebKit,Chrome,135.0.0.0,Windows,10,https://5puzkbbxv1.cognition.run/?sona_id=54959,"en-US,en;q=0.9",d5raxdys8fb07a6,20,"[""White""]",No,Male,NA,No,895467.8999999762,NA,10594,NA,"{""product_choice"":""A""}",choice,cdt,trinary,repulsion_A,2,laptops,null,null,null,null,null,null,2,30,40,20,100,90,100,Processing speed,Memory (RAM),NA,NA
NA,NA,NA,NA,NA,choice_trial_setup,html-keyboard-response,28,301218,0.0-4.0-0.12,203,1,2025-05-05T20:52:01Z,b60275e29fe2361ab97ac0ac217840d7,"Mozilla/5.0 (Windows NT 10.0; Win64; x64) AppleWebKit/537.36 (KHTML, like Gecko) Chrome/135.0.0.0 Safari/537.36",WebKit,Chrome,135.0.0.0,Windows,10,https://5puzkbbxv1.cognition.run/?sona_id=54959,"en-US,en;q=0.9",d5raxdys8fb07a6,20,"[""White""]",No,Male,NA,No,895467.8999999762,NA,null,<p></p>,null,choice,dct,trinary,attraction,2,televisions,null,null,null,null,null,null,1,NA,NA,NA,NA,NA,NA,NA,NA,NA,NA
NA,NA,NA,NA,NA,choice_trial,survey-html-form,29,317033,0.0-4.0-1.12,203,1,2025-05-05T20:52:01Z,b60275e29fe2361ab97ac0ac217840d7,"Mozilla/5.0 (Windows NT 10.0; Win64; x64) AppleWebKit/537.36 (KHTML, like Gecko) Chrome/135.0.0.0 Safari/537.36",WebKit,Chrome,135.0.0.0,Windows,10,https://5puzkbbxv1.cognition.run/?sona_id=54959,"en-US,en;q=0.9",d5raxdys8fb07a6,20,"[""White""]",No,Male,NA,No,895467.8999999762,NA,15811,NA,"{""product_choice"":""C""}",choice,dct,trinary,attraction,2,televisions,null,null,null,null,null,null,1,50,60,40,60,50,60,Screen size,Average lifespan,NA,NA
NA,NA,NA,NA,NA,choice_trial_setup,html-keyboard-response,30,317343,0.0-4.0-0.13,203,1,2025-05-05T20:52:01Z,b60275e29fe2361ab97ac0ac217840d7,"Mozilla/5.0 (Windows NT 10.0; Win64; x64) AppleWebKit/537.36 (KHTML, like Gecko) Chrome/135.0.0.0 Safari/537.36",WebKit,Chrome,135.0.0.0,Windows,10,https://5puzkbbxv1.cognition.run/?sona_id=54959,"en-US,en;q=0.9",d5raxdys8fb07a6,20,"[""White""]",No,Male,NA,No,895467.8999999762,NA,null,<p></p>,null,choice,cdt,trinary,repulsion_B,2,microwave ovens,null,null,null,null,null,null,2,NA,NA,NA,NA,NA,NA,NA,NA,NA,NA
NA,NA,NA,NA,NA,choice_trial,survey-html-form,31,326282,0.0-4.0-1.13,203,1,2025-05-05T20:52:01Z,b60275e29fe2361ab97ac0ac217840d7,"Mozilla/5.0 (Windows NT 10.0; Win64; x64) AppleWebKit/537.36 (KHTML, like Gecko) Chrome/135.0.0.0 Safari/537.36",WebKit,Chrome,135.0.0.0,Windows,10,https://5puzkbbxv1.cognition.run/?sona_id=54959,"en-US,en;q=0.9",d5raxdys8fb07a6,20,"[""White""]",No,Male,NA,No,895467.8999999762,NA,8937,NA,"{""product_choice"":""C""}",choice,cdt,trinary,repulsion_B,2,microwave ovens,null,null,null,null,null,null,2,40,30,40,90,100,80,Warranty,Cooking power,NA,NA
NA,NA,NA,NA,NA,choice_trial_setup,html-keyboard-response,32,326585,0.0-4.0-0.14,203,1,2025-05-05T20:52:01Z,b60275e29fe2361ab97ac0ac217840d7,"Mozilla/5.0 (Windows NT 10.0; Win64; x64) AppleWebKit/537.36 (KHTML, like Gecko) Chrome/135.0.0.0 Safari/537.36",WebKit,Chrome,135.0.0.0,Windows,10,https://5puzkbbxv1.cognition.run/?sona_id=54959,"en-US,en;q=0.9",d5raxdys8fb07a6,20,"[""White""]",No,Male,NA,No,895467.8999999762,NA,null,<p></p>,null,choice,tdc,trinary,attraction,1,microwave ovens,null,null,null,null,null,null,2,NA,NA,NA,NA,NA,NA,NA,NA,NA,NA
NA,NA,NA,NA,NA,choice_trial,survey-html-form,33,367232,0.0-4.0-1.14,203,1,2025-05-05T20:52:01Z,b60275e29fe2361ab97ac0ac217840d7,"Mozilla/5.0 (Windows NT 10.0; Win64; x64) AppleWebKit/537.36 (KHTML, like Gecko) Chrome/135.0.0.0 Safari/537.36",WebKit,Chrome,135.0.0.0,Windows,10,https://5puzkbbxv1.cognition.run/?sona_id=54959,"en-US,en;q=0.9",d5raxdys8fb07a6,20,"[""White""]",No,Male,NA,No,895467.8999999762,NA,40645,NA,"{""product_choice"":""C""}",choice,tdc,trinary,attraction,1,microwave ovens,null,null,null,null,null,null,2,60,50,60,50,60,40,Warranty,Cooking power,NA,NA
NA,NA,NA,NA,NA,choice_trial_setup,html-keyboard-response,34,367535,0.0-4.0-0.15,203,1,2025-05-05T20:52:01Z,b60275e29fe2361ab97ac0ac217840d7,"Mozilla/5.0 (Windows NT 10.0; Win64; x64) AppleWebKit/537.36 (KHTML, like Gecko) Chrome/135.0.0.0 Safari/537.36",WebKit,Chrome,135.0.0.0,Windows,10,https://5puzkbbxv1.cognition.run/?sona_id=54959,"en-US,en;q=0.9",d5raxdys8fb07a6,20,"[""White""]",No,Male,NA,No,895467.8999999762,NA,null,<p></p>,null,choice,wb,binary,catch,null,televisions,55,65,25,45,null,null,1,NA,NA,NA,NA,NA,NA,NA,NA,NA,NA
NA,NA,NA,NA,NA,choice_trial,survey-html-form,35,381813,0.0-4.0-1.15,203,1,2025-05-05T20:52:01Z,b60275e29fe2361ab97ac0ac217840d7,"Mozilla/5.0 (Windows NT 10.0; Win64; x64) AppleWebKit/537.36 (KHTML, like Gecko) Chrome/135.0.0.0 Safari/537.36",WebKit,Chrome,135.0.0.0,Windows,10,https://5puzkbbxv1.cognition.run/?sona_id=54959,"en-US,en;q=0.9",d5raxdys8fb07a6,20,"[""White""]",No,Male,NA,No,895467.8999999762,NA,14276,NA,"{""product_choice"":""B""}",choice,wb,binary,catch,null,televisions,55,65,25,45,null,null,1,null,null,null,null,null,null,Screen size,Average lifespan,NA,NA
NA,NA,NA,NA,NA,choice_trial_setup,html-keyboard-response,36,382115,0.0-4.0-0.16,203,1,2025-05-05T20:52:01Z,b60275e29fe2361ab97ac0ac217840d7,"Mozilla/5.0 (Windows NT 10.0; Win64; x64) AppleWebKit/537.36 (KHTML, like Gecko) Chrome/135.0.0.0 Safari/537.36",WebKit,Chrome,135.0.0.0,Windows,10,https://5puzkbbxv1.cognition.run/?sona_id=54959,"en-US,en;q=0.9",d5raxdys8fb07a6,20,"[""White""]",No,Male,NA,No,895467.8999999762,NA,null,<p></p>,null,choice,tdc,trinary,repulsion_B,1,microwave ovens,null,null,null,null,null,null,2,NA,NA,NA,NA,NA,NA,NA,NA,NA,NA
NA,NA,NA,NA,NA,choice_trial,survey-html-form,37,396478,0.0-4.0-1.16,203,1,2025-05-05T20:52:01Z,b60275e29fe2361ab97ac0ac217840d7,"Mozilla/5.0 (Windows NT 10.0; Win64; x64) AppleWebKit/537.36 (KHTML, like Gecko) Chrome/135.0.0.0 Safari/537.36",WebKit,Chrome,135.0.0.0,Windows,10,https://5puzkbbxv1.cognition.run/?sona_id=54959,"en-US,en;q=0.9",d5raxdys8fb07a6,20,"[""White""]",No,Male,NA,No,895467.8999999762,NA,14361,NA,"{""product_choice"":""A""}",choice,tdc,trinary,repulsion_B,1,microwave ovens,null,null,null,null,null,null,2,90,100,80,40,30,40,Warranty,Cooking power,NA,NA
NA,NA,NA,NA,NA,choice_trial_setup,html-keyboard-response,38,396782,0.0-4.0-0.17,203,1,2025-05-05T20:52:01Z,b60275e29fe2361ab97ac0ac217840d7,"Mozilla/5.0 (Windows NT 10.0; Win64; x64) AppleWebKit/537.36 (KHTML, like Gecko) Chrome/135.0.0.0 Safari/537.36",WebKit,Chrome,135.0.0.0,Windows,10,https://5puzkbbxv1.cognition.run/?sona_id=54959,"en-US,en;q=0.9",d5raxdys8fb07a6,20,"[""White""]",No,Male,NA,No,895467.8999999762,NA,null,<p></p>,null,choice,wwb,trinary,catch,null,laptops,65,80,5,35,45,15,1,NA,NA,NA,NA,NA,NA,NA,NA,NA,NA
NA,NA,NA,NA,NA,choice_trial,survey-html-form,39,416474,0.0-4.0-1.17,203,1,2025-05-05T20:52:01Z,b60275e29fe2361ab97ac0ac217840d7,"Mozilla/5.0 (Windows NT 10.0; Win64; x64) AppleWebKit/537.36 (KHTML, like Gecko) Chrome/135.0.0.0 Safari/537.36",WebKit,Chrome,135.0.0.0,Windows,10,https://5puzkbbxv1.cognition.run/?sona_id=54959,"en-US,en;q=0.9",d5raxdys8fb07a6,20,"[""White""]",No,Male,NA,No,895467.8999999762,NA,19690,NA,"{""product_choice"":""C""}",choice,wwb,trinary,catch,null,laptops,65,80,5,35,45,15,1,null,null,null,null,null,null,Processing speed,Memory (RAM),NA,NA
NA,NA,NA,NA,NA,choice_trial_setup,html-keyboard-response,40,416779,0.0-4.0-0.18,203,1,2025-05-05T20:52:01Z,b60275e29fe2361ab97ac0ac217840d7,"Mozilla/5.0 (Windows NT 10.0; Win64; x64) AppleWebKit/537.36 (KHTML, like Gecko) Chrome/135.0.0.0 Safari/537.36",WebKit,Chrome,135.0.0.0,Windows,10,https://5puzkbbxv1.cognition.run/?sona_id=54959,"en-US,en;q=0.9",d5raxdys8fb07a6,20,"[""White""]",No,Male,NA,No,895467.8999999762,NA,null,<p></p>,null,choice,wb,binary,catch,null,microwave ovens,50,60,20,45,null,null,2,NA,NA,NA,NA,NA,NA,NA,NA,NA,NA
NA,NA,NA,NA,NA,choice_trial,survey-html-form,41,430883,0.0-4.0-1.18,203,1,2025-05-05T20:52:01Z,b60275e29fe2361ab97ac0ac217840d7,"Mozilla/5.0 (Windows NT 10.0; Win64; x64) AppleWebKit/537.36 (KHTML, like Gecko) Chrome/135.0.0.0 Safari/537.36",WebKit,Chrome,135.0.0.0,Windows,10,https://5puzkbbxv1.cognition.run/?sona_id=54959,"en-US,en;q=0.9",d5raxdys8fb07a6,20,"[""White""]",No,Male,NA,No,895467.8999999762,NA,14101,NA,"{""product_choice"":""B""}",choice,wb,binary,catch,null,microwave ovens,50,60,20,45,null,null,2,null,null,null,null,null,null,Warranty,Cooking power,NA,NA
NA,NA,NA,NA,NA,choice_trial_setup,html-keyboard-response,42,431186,0.0-4.0-0.19,203,1,2025-05-05T20:52:01Z,b60275e29fe2361ab97ac0ac217840d7,"Mozilla/5.0 (Windows NT 10.0; Win64; x64) AppleWebKit/537.36 (KHTML, like Gecko) Chrome/135.0.0.0 Safari/537.36",WebKit,Chrome,135.0.0.0,Windows,10,https://5puzkbbxv1.cognition.run/?sona_id=54959,"en-US,en;q=0.9",d5raxdys8fb07a6,20,"[""White""]",No,Male,NA,No,895467.8999999762,NA,null,<p></p>,null,choice,tcd,trinary,attraction,1,laptops,null,null,null,null,null,null,2,NA,NA,NA,NA,NA,NA,NA,NA,NA,NA
NA,NA,NA,NA,NA,choice_trial,survey-html-form,43,448466,0.0-4.0-1.19,203,1,2025-05-05T20:52:01Z,b60275e29fe2361ab97ac0ac217840d7,"Mozilla/5.0 (Windows NT 10.0; Win64; x64) AppleWebKit/537.36 (KHTML, like Gecko) Chrome/135.0.0.0 Safari/537.36",WebKit,Chrome,135.0.0.0,Windows,10,https://5puzkbbxv1.cognition.run/?sona_id=54959,"en-US,en;q=0.9",d5raxdys8fb07a6,20,"[""White""]",No,Male,NA,No,895467.8999999762,NA,17276,NA,"{""product_choice"":""A""}",choice,tcd,trinary,attraction,1,laptops,null,null,null,null,null,null,2,60,50,60,50,60,40,Processing speed,Memory (RAM),NA,NA
NA,NA,NA,NA,NA,choice_trial_setup,html-keyboard-response,44,448777,0.0-4.0-0.20,203,1,2025-05-05T20:52:01Z,b60275e29fe2361ab97ac0ac217840d7,"Mozilla/5.0 (Windows NT 10.0; Win64; x64) AppleWebKit/537.36 (KHTML, like Gecko) Chrome/135.0.0.0 Safari/537.36",WebKit,Chrome,135.0.0.0,Windows,10,https://5puzkbbxv1.cognition.run/?sona_id=54959,"en-US,en;q=0.9",d5raxdys8fb07a6,20,"[""White""]",No,Male,NA,No,895467.8999999762,NA,null,<p></p>,null,choice,wbw,trinary,catch,null,televisions,70,95,45,5,35,5,2,NA,NA,NA,NA,NA,NA,NA,NA,NA,NA
NA,NA,NA,NA,NA,choice_trial,survey-html-form,45,456584,0.0-4.0-1.20,203,1,2025-05-05T20:52:01Z,b60275e29fe2361ab97ac0ac217840d7,"Mozilla/5.0 (Windows NT 10.0; Win64; x64) AppleWebKit/537.36 (KHTML, like Gecko) Chrome/135.0.0.0 Safari/537.36",WebKit,Chrome,135.0.0.0,Windows,10,https://5puzkbbxv1.cognition.run/?sona_id=54959,"en-US,en;q=0.9",d5raxdys8fb07a6,20,"[""White""]",No,Male,NA,No,895467.8999999762,NA,7804,NA,"{""product_choice"":""B""}",choice,wbw,trinary,catch,null,televisions,70,95,45,5,35,5,2,null,null,null,null,null,null,Screen size,Average lifespan,NA,NA
NA,NA,NA,NA,NA,choice_trial_setup,html-keyboard-response,46,456887,0.0-4.0-0.21,203,1,2025-05-05T20:52:01Z,b60275e29fe2361ab97ac0ac217840d7,"Mozilla/5.0 (Windows NT 10.0; Win64; x64) AppleWebKit/537.36 (KHTML, like Gecko) Chrome/135.0.0.0 Safari/537.36",WebKit,Chrome,135.0.0.0,Windows,10,https://5puzkbbxv1.cognition.run/?sona_id=54959,"en-US,en;q=0.9",d5raxdys8fb07a6,20,"[""White""]",No,Male,NA,No,895467.8999999762,NA,null,<p></p>,null,choice,wb,binary,catch,null,laptops,55,60,20,40,null,null,2,NA,NA,NA,NA,NA,NA,NA,NA,NA,NA
NA,NA,NA,NA,NA,choice_trial,survey-html-form,47,463631,0.0-4.0-1.21,203,1,2025-05-05T20:52:01Z,b60275e29fe2361ab97ac0ac217840d7,"Mozilla/5.0 (Windows NT 10.0; Win64; x64) AppleWebKit/537.36 (KHTML, like Gecko) Chrome/135.0.0.0 Safari/537.36",WebKit,Chrome,135.0.0.0,Windows,10,https://5puzkbbxv1.cognition.run/?sona_id=54959,"en-US,en;q=0.9",d5raxdys8fb07a6,20,"[""White""]",No,Male,NA,No,895467.8999999762,NA,6734,NA,"{""product_choice"":""B""}",choice,wb,binary,catch,null,laptops,55,60,20,40,null,null,2,null,null,null,null,null,null,Processing speed,Memory (RAM),NA,NA
NA,NA,NA,NA,NA,choice_trial_setup,html-keyboard-response,48,463939,0.0-4.0-0.22,203,1,2025-05-05T20:52:01Z,b60275e29fe2361ab97ac0ac217840d7,"Mozilla/5.0 (Windows NT 10.0; Win64; x64) AppleWebKit/537.36 (KHTML, like Gecko) Chrome/135.0.0.0 Safari/537.36",WebKit,Chrome,135.0.0.0,Windows,10,https://5puzkbbxv1.cognition.run/?sona_id=54959,"en-US,en;q=0.9",d5raxdys8fb07a6,20,"[""White""]",No,Male,NA,No,895467.8999999762,NA,null,<p></p>,null,choice,tcd,trinary,repulsion_B,2,washing machines,null,null,null,null,null,null,2,NA,NA,NA,NA,NA,NA,NA,NA,NA,NA
NA,NA,NA,NA,NA,choice_trial,survey-html-form,49,478163,0.0-4.0-1.22,203,1,2025-05-05T20:52:01Z,b60275e29fe2361ab97ac0ac217840d7,"Mozilla/5.0 (Windows NT 10.0; Win64; x64) AppleWebKit/537.36 (KHTML, like Gecko) Chrome/135.0.0.0 Safari/537.36",WebKit,Chrome,135.0.0.0,Windows,10,https://5puzkbbxv1.cognition.run/?sona_id=54959,"en-US,en;q=0.9",d5raxdys8fb07a6,20,"[""White""]",No,Male,NA,No,895467.8999999762,NA,14219,NA,"{""product_choice"":""A""}",choice,tcd,trinary,repulsion_B,2,washing machines,null,null,null,null,null,null,2,40,30,40,90,100,80,Average lifespan,Energy savings,NA,NA
NA,NA,NA,NA,NA,choice_trial_setup,html-keyboard-response,50,478470,0.0-4.0-0.23,203,1,2025-05-05T20:52:01Z,b60275e29fe2361ab97ac0ac217840d7,"Mozilla/5.0 (Windows NT 10.0; Win64; x64) AppleWebKit/537.36 (KHTML, like Gecko) Chrome/135.0.0.0 Safari/537.36",WebKit,Chrome,135.0.0.0,Windows,10,https://5puzkbbxv1.cognition.run/?sona_id=54959,"en-US,en;q=0.9",d5raxdys8fb07a6,20,"[""White""]",No,Male,NA,No,895467.8999999762,NA,null,<p></p>,null,choice,cdt,trinary,repulsion_B,1,laptops,null,null,null,null,null,null,1,NA,NA,NA,NA,NA,NA,NA,NA,NA,NA
NA,NA,NA,NA,NA,choice_trial,survey-html-form,51,501695,0.0-4.0-1.23,203,1,2025-05-05T20:52:01Z,b60275e29fe2361ab97ac0ac217840d7,"Mozilla/5.0 (Windows NT 10.0; Win64; x64) AppleWebKit/537.36 (KHTML, like Gecko) Chrome/135.0.0.0 Safari/537.36",WebKit,Chrome,135.0.0.0,Windows,10,https://5puzkbbxv1.cognition.run/?sona_id=54959,"en-US,en;q=0.9",d5raxdys8fb07a6,20,"[""White""]",No,Male,NA,No,895467.8999999762,NA,23221,NA,"{""product_choice"":""C""}",choice,cdt,trinary,repulsion_B,1,laptops,null,null,null,null,null,null,1,90,100,80,40,30,40,Processing speed,Memory (RAM),NA,NA
NA,NA,NA,NA,NA,choice_trial_setup,html-keyboard-response,52,501997,0.0-4.0-0.24,203,1,2025-05-05T20:52:01Z,b60275e29fe2361ab97ac0ac217840d7,"Mozilla/5.0 (Windows NT 10.0; Win64; x64) AppleWebKit/537.36 (KHTML, like Gecko) Chrome/135.0.0.0 Safari/537.36",WebKit,Chrome,135.0.0.0,Windows,10,https://5puzkbbxv1.cognition.run/?sona_id=54959,"en-US,en;q=0.9",d5raxdys8fb07a6,20,"[""White""]",No,Male,NA,No,895467.8999999762,NA,null,<p></p>,null,choice,tcd,trinary,repulsion_A,1,microwave ovens,null,null,null,null,null,null,1,NA,NA,NA,NA,NA,NA,NA,NA,NA,NA
NA,NA,NA,NA,NA,choice_trial,survey-html-form,53,508442,0.0-4.0-1.24,203,1,2025-05-05T20:52:01Z,b60275e29fe2361ab97ac0ac217840d7,"Mozilla/5.0 (Windows NT 10.0; Win64; x64) AppleWebKit/537.36 (KHTML, like Gecko) Chrome/135.0.0.0 Safari/537.36",WebKit,Chrome,135.0.0.0,Windows,10,https://5puzkbbxv1.cognition.run/?sona_id=54959,"en-US,en;q=0.9",d5raxdys8fb07a6,20,"[""White""]",No,Male,NA,No,895467.8999999762,NA,6442,NA,"{""product_choice"":""B""}",choice,tcd,trinary,repulsion_A,1,microwave ovens,null,null,null,null,null,null,1,100,90,100,30,40,20,Warranty,Cooking power,NA,NA
NA,NA,NA,NA,NA,choice_trial_setup,html-keyboard-response,54,508746,0.0-4.0-0.25,203,1,2025-05-05T20:52:01Z,b60275e29fe2361ab97ac0ac217840d7,"Mozilla/5.0 (Windows NT 10.0; Win64; x64) AppleWebKit/537.36 (KHTML, like Gecko) Chrome/135.0.0.0 Safari/537.36",WebKit,Chrome,135.0.0.0,Windows,10,https://5puzkbbxv1.cognition.run/?sona_id=54959,"en-US,en;q=0.9",d5raxdys8fb07a6,20,"[""White""]",No,Male,NA,No,895467.8999999762,NA,null,<p></p>,null,choice,cdt,trinary,repulsion_B,2,televisions,null,null,null,null,null,null,1,NA,NA,NA,NA,NA,NA,NA,NA,NA,NA
NA,NA,NA,NA,NA,choice_trial,survey-html-form,55,545815,0.0-4.0-1.25,203,1,2025-05-05T20:52:01Z,b60275e29fe2361ab97ac0ac217840d7,"Mozilla/5.0 (Windows NT 10.0; Win64; x64) AppleWebKit/537.36 (KHTML, like Gecko) Chrome/135.0.0.0 Safari/537.36",WebKit,Chrome,135.0.0.0,Windows,10,https://5puzkbbxv1.cognition.run/?sona_id=54959,"en-US,en;q=0.9",d5raxdys8fb07a6,20,"[""White""]",No,Male,NA,No,895467.8999999762,NA,37066,NA,"{""product_choice"":""C""}",choice,cdt,trinary,repulsion_B,2,televisions,null,null,null,null,null,null,1,40,30,40,90,100,80,Screen size,Average lifespan,NA,NA
NA,NA,NA,NA,NA,choice_trial_setup,html-keyboard-response,56,546118,0.0-4.0-0.26,203,1,2025-05-05T20:52:01Z,b60275e29fe2361ab97ac0ac217840d7,"Mozilla/5.0 (Windows NT 10.0; Win64; x64) AppleWebKit/537.36 (KHTML, like Gecko) Chrome/135.0.0.0 Safari/537.36",WebKit,Chrome,135.0.0.0,Windows,10,https://5puzkbbxv1.cognition.run/?sona_id=54959,"en-US,en;q=0.9",d5raxdys8fb07a6,20,"[""White""]",No,Male,NA,No,895467.8999999762,NA,null,<p></p>,null,choice,ct,binary,repulsion,2,laptops,null,null,null,null,null,null,1,NA,NA,NA,NA,NA,NA,NA,NA,NA,NA
NA,NA,NA,NA,NA,choice_trial,survey-html-form,57,554073,0.0-4.0-1.26,203,1,2025-05-05T20:52:01Z,b60275e29fe2361ab97ac0ac217840d7,"Mozilla/5.0 (Windows NT 10.0; Win64; x64) AppleWebKit/537.36 (KHTML, like Gecko) Chrome/135.0.0.0 Safari/537.36",WebKit,Chrome,135.0.0.0,Windows,10,https://5puzkbbxv1.cognition.run/?sona_id=54959,"en-US,en;q=0.9",d5raxdys8fb07a6,20,"[""White""]",No,Male,NA,No,895467.8999999762,NA,7951,NA,"{""product_choice"":""A""}",choice,ct,binary,repulsion,2,laptops,null,null,null,null,null,null,1,30,40,null,100,90,null,Processing speed,Memory (RAM),NA,NA
NA,NA,NA,NA,NA,choice_trial_setup,html-keyboard-response,58,554377,0.0-4.0-0.27,203,1,2025-05-05T20:52:01Z,b60275e29fe2361ab97ac0ac217840d7,"Mozilla/5.0 (Windows NT 10.0; Win64; x64) AppleWebKit/537.36 (KHTML, like Gecko) Chrome/135.0.0.0 Safari/537.36",WebKit,Chrome,135.0.0.0,Windows,10,https://5puzkbbxv1.cognition.run/?sona_id=54959,"en-US,en;q=0.9",d5raxdys8fb07a6,20,"[""White""]",No,Male,NA,No,895467.8999999762,NA,null,<p></p>,null,choice,dct,trinary,attraction,1,televisions,null,null,null,null,null,null,1,NA,NA,NA,NA,NA,NA,NA,NA,NA,NA
NA,NA,NA,NA,NA,choice_trial,survey-html-form,59,572008,0.0-4.0-1.27,203,1,2025-05-05T20:52:01Z,b60275e29fe2361ab97ac0ac217840d7,"Mozilla/5.0 (Windows NT 10.0; Win64; x64) AppleWebKit/537.36 (KHTML, like Gecko) Chrome/135.0.0.0 Safari/537.36",WebKit,Chrome,135.0.0.0,Windows,10,https://5puzkbbxv1.cognition.run/?sona_id=54959,"en-US,en;q=0.9",d5raxdys8fb07a6,20,"[""White""]",No,Male,NA,No,895467.8999999762,NA,17627,NA,"{""product_choice"":""C""}",choice,dct,trinary,attraction,1,televisions,null,null,null,null,null,null,1,60,50,60,50,60,40,Screen size,Average lifespan,NA,NA
NA,NA,NA,NA,NA,choice_trial_setup,html-keyboard-response,60,572312,0.0-4.0-0.28,203,1,2025-05-05T20:52:01Z,b60275e29fe2361ab97ac0ac217840d7,"Mozilla/5.0 (Windows NT 10.0; Win64; x64) AppleWebKit/537.36 (KHTML, like Gecko) Chrome/135.0.0.0 Safari/537.36",WebKit,Chrome,135.0.0.0,Windows,10,https://5puzkbbxv1.cognition.run/?sona_id=54959,"en-US,en;q=0.9",d5raxdys8fb07a6,20,"[""White""]",No,Male,NA,No,895467.8999999762,NA,null,<p></p>,null,choice,tdc,trinary,repulsion_A,1,washing machines,null,null,null,null,null,null,1,NA,NA,NA,NA,NA,NA,NA,NA,NA,NA
NA,NA,NA,NA,NA,choice_trial,survey-html-form,61,588018,0.0-4.0-1.28,203,1,2025-05-05T20:52:01Z,b60275e29fe2361ab97ac0ac217840d7,"Mozilla/5.0 (Windows NT 10.0; Win64; x64) AppleWebKit/537.36 (KHTML, like Gecko) Chrome/135.0.0.0 Safari/537.36",WebKit,Chrome,135.0.0.0,Windows,10,https://5puzkbbxv1.cognition.run/?sona_id=54959,"en-US,en;q=0.9",d5raxdys8fb07a6,20,"[""White""]",No,Male,NA,No,895467.8999999762,NA,15702,NA,"{""product_choice"":""C""}",choice,tdc,trinary,repulsion_A,1,washing machines,null,null,null,null,null,null,1,100,90,100,30,40,20,Average lifespan,Energy savings,NA,NA
NA,NA,NA,NA,NA,choice_trial_setup,html-keyboard-response,62,588322,0.0-4.0-0.29,203,1,2025-05-05T20:52:01Z,b60275e29fe2361ab97ac0ac217840d7,"Mozilla/5.0 (Windows NT 10.0; Win64; x64) AppleWebKit/537.36 (KHTML, like Gecko) Chrome/135.0.0.0 Safari/537.36",WebKit,Chrome,135.0.0.0,Windows,10,https://5puzkbbxv1.cognition.run/?sona_id=54959,"en-US,en;q=0.9",d5raxdys8fb07a6,20,"[""White""]",No,Male,NA,No,895467.8999999762,NA,null,<p></p>,null,choice,tc,binary,repulsion,1,washing machines,null,null,null,null,null,null,1,NA,NA,NA,NA,NA,NA,NA,NA,NA,NA
NA,NA,NA,NA,NA,choice_trial,survey-html-form,63,595089,0.0-4.0-1.29,203,1,2025-05-05T20:52:01Z,b60275e29fe2361ab97ac0ac217840d7,"Mozilla/5.0 (Windows NT 10.0; Win64; x64) AppleWebKit/537.36 (KHTML, like Gecko) Chrome/135.0.0.0 Safari/537.36",WebKit,Chrome,135.0.0.0,Windows,10,https://5puzkbbxv1.cognition.run/?sona_id=54959,"en-US,en;q=0.9",d5raxdys8fb07a6,20,"[""White""]",No,Male,NA,No,895467.8999999762,NA,6764,NA,"{""product_choice"":""B""}",choice,tc,binary,repulsion,1,washing machines,null,null,null,null,null,null,1,100,90,null,30,40,null,Average lifespan,Energy savings,NA,NA
NA,NA,NA,NA,NA,choice_trial_setup,html-keyboard-response,64,595393,0.0-4.0-0.30,203,1,2025-05-05T20:52:01Z,b60275e29fe2361ab97ac0ac217840d7,"Mozilla/5.0 (Windows NT 10.0; Win64; x64) AppleWebKit/537.36 (KHTML, like Gecko) Chrome/135.0.0.0 Safari/537.36",WebKit,Chrome,135.0.0.0,Windows,10,https://5puzkbbxv1.cognition.run/?sona_id=54959,"en-US,en;q=0.9",d5raxdys8fb07a6,20,"[""White""]",No,Male,NA,No,895467.8999999762,NA,null,<p></p>,null,choice,ctd,trinary,repulsion_A,2,microwave ovens,null,null,null,null,null,null,1,NA,NA,NA,NA,NA,NA,NA,NA,NA,NA
NA,NA,NA,NA,NA,choice_trial,survey-html-form,65,601658,0.0-4.0-1.30,203,1,2025-05-05T20:52:01Z,b60275e29fe2361ab97ac0ac217840d7,"Mozilla/5.0 (Windows NT 10.0; Win64; x64) AppleWebKit/537.36 (KHTML, like Gecko) Chrome/135.0.0.0 Safari/537.36",WebKit,Chrome,135.0.0.0,Windows,10,https://5puzkbbxv1.cognition.run/?sona_id=54959,"en-US,en;q=0.9",d5raxdys8fb07a6,20,"[""White""]",No,Male,NA,No,895467.8999999762,NA,6261,NA,"{""product_choice"":""A""}",choice,ctd,trinary,repulsion_A,2,microwave ovens,null,null,null,null,null,null,1,30,40,20,100,90,100,Warranty,Cooking power,NA,NA
NA,NA,NA,NA,NA,choice_trial_setup,html-keyboard-response,66,601961,0.0-4.0-0.31,203,1,2025-05-05T20:52:01Z,b60275e29fe2361ab97ac0ac217840d7,"Mozilla/5.0 (Windows NT 10.0; Win64; x64) AppleWebKit/537.36 (KHTML, like Gecko) Chrome/135.0.0.0 Safari/537.36",WebKit,Chrome,135.0.0.0,Windows,10,https://5puzkbbxv1.cognition.run/?sona_id=54959,"en-US,en;q=0.9",d5raxdys8fb07a6,20,"[""White""]",No,Male,NA,No,895467.8999999762,NA,null,<p></p>,null,choice,dct,trinary,attraction,2,washing machines,null,null,null,null,null,null,1,NA,NA,NA,NA,NA,NA,NA,NA,NA,NA
NA,NA,NA,NA,NA,choice_trial,survey-html-form,67,625286,0.0-4.0-1.31,203,1,2025-05-05T20:52:01Z,b60275e29fe2361ab97ac0ac217840d7,"Mozilla/5.0 (Windows NT 10.0; Win64; x64) AppleWebKit/537.36 (KHTML, like Gecko) Chrome/135.0.0.0 Safari/537.36",WebKit,Chrome,135.0.0.0,Windows,10,https://5puzkbbxv1.cognition.run/?sona_id=54959,"en-US,en;q=0.9",d5raxdys8fb07a6,20,"[""White""]",No,Male,NA,No,895467.8999999762,NA,23320,NA,"{""product_choice"":""C""}",choice,dct,trinary,attraction,2,washing machines,null,null,null,null,null,null,1,50,60,40,60,50,60,Average lifespan,Energy savings,NA,NA
NA,NA,NA,NA,NA,choice_trial_setup,html-keyboard-response,68,625591,0.0-4.0-0.32,203,1,2025-05-05T20:52:01Z,b60275e29fe2361ab97ac0ac217840d7,"Mozilla/5.0 (Windows NT 10.0; Win64; x64) AppleWebKit/537.36 (KHTML, like Gecko) Chrome/135.0.0.0 Safari/537.36",WebKit,Chrome,135.0.0.0,Windows,10,https://5puzkbbxv1.cognition.run/?sona_id=54959,"en-US,en;q=0.9",d5raxdys8fb07a6,20,"[""White""]",No,Male,NA,No,895467.8999999762,NA,null,<p></p>,null,choice,tcd,trinary,repulsion_A,1,laptops,null,null,null,null,null,null,1,NA,NA,NA,NA,NA,NA,NA,NA,NA,NA
NA,NA,NA,NA,NA,choice_trial,survey-html-form,69,633995,0.0-4.0-1.32,203,1,2025-05-05T20:52:01Z,b60275e29fe2361ab97ac0ac217840d7,"Mozilla/5.0 (Windows NT 10.0; Win64; x64) AppleWebKit/537.36 (KHTML, like Gecko) Chrome/135.0.0.0 Safari/537.36",WebKit,Chrome,135.0.0.0,Windows,10,https://5puzkbbxv1.cognition.run/?sona_id=54959,"en-US,en;q=0.9",d5raxdys8fb07a6,20,"[""White""]",No,Male,NA,No,895467.8999999762,NA,8400,NA,"{""product_choice"":""B""}",choice,tcd,trinary,repulsion_A,1,laptops,null,null,null,null,null,null,1,100,90,100,30,40,20,Processing speed,Memory (RAM),NA,NA
NA,NA,NA,NA,NA,choice_trial_setup,html-keyboard-response,70,634298,0.0-4.0-0.33,203,1,2025-05-05T20:52:01Z,b60275e29fe2361ab97ac0ac217840d7,"Mozilla/5.0 (Windows NT 10.0; Win64; x64) AppleWebKit/537.36 (KHTML, like Gecko) Chrome/135.0.0.0 Safari/537.36",WebKit,Chrome,135.0.0.0,Windows,10,https://5puzkbbxv1.cognition.run/?sona_id=54959,"en-US,en;q=0.9",d5raxdys8fb07a6,20,"[""White""]",No,Male,NA,No,895467.8999999762,NA,null,<p></p>,null,choice,ct,binary,attraction,NA,televisions,null,null,null,null,null,null,1,NA,NA,NA,NA,NA,NA,NA,NA,NA,NA
NA,NA,NA,NA,NA,choice_trial,survey-html-form,71,641976,0.0-4.0-1.33,203,1,2025-05-05T20:52:01Z,b60275e29fe2361ab97ac0ac217840d7,"Mozilla/5.0 (Windows NT 10.0; Win64; x64) AppleWebKit/537.36 (KHTML, like Gecko) Chrome/135.0.0.0 Safari/537.36",WebKit,Chrome,135.0.0.0,Windows,10,https://5puzkbbxv1.cognition.run/?sona_id=54959,"en-US,en;q=0.9",d5raxdys8fb07a6,20,"[""White""]",No,Male,NA,No,895467.8999999762,NA,7674,NA,"{""product_choice"":""B""}",choice,ct,binary,attraction,NA,televisions,null,null,null,null,null,null,1,60,50,null,50,60,null,Screen size,Average lifespan,NA,NA
NA,NA,NA,NA,NA,choice_trial_setup,html-keyboard-response,72,642278,0.0-4.0-0.34,203,1,2025-05-05T20:52:01Z,b60275e29fe2361ab97ac0ac217840d7,"Mozilla/5.0 (Windows NT 10.0; Win64; x64) AppleWebKit/537.36 (KHTML, like Gecko) Chrome/135.0.0.0 Safari/537.36",WebKit,Chrome,135.0.0.0,Windows,10,https://5puzkbbxv1.cognition.run/?sona_id=54959,"en-US,en;q=0.9",d5raxdys8fb07a6,20,"[""White""]",No,Male,NA,No,895467.8999999762,NA,null,<p></p>,null,choice,ctd,trinary,attraction,1,washing machines,null,null,null,null,null,null,1,NA,NA,NA,NA,NA,NA,NA,NA,NA,NA
NA,NA,NA,NA,NA,choice_trial,survey-html-form,73,655526,0.0-4.0-1.34,203,1,2025-05-05T20:52:01Z,b60275e29fe2361ab97ac0ac217840d7,"Mozilla/5.0 (Windows NT 10.0; Win64; x64) AppleWebKit/537.36 (KHTML, like Gecko) Chrome/135.0.0.0 Safari/537.36",WebKit,Chrome,135.0.0.0,Windows,10,https://5puzkbbxv1.cognition.run/?sona_id=54959,"en-US,en;q=0.9",d5raxdys8fb07a6,20,"[""White""]",No,Male,NA,No,895467.8999999762,NA,13243,NA,"{""product_choice"":""A""}",choice,ctd,trinary,attraction,1,washing machines,null,null,null,null,null,null,1,60,50,60,50,60,40,Average lifespan,Energy savings,NA,NA
NA,NA,NA,NA,NA,choice_trial_setup,html-keyboard-response,74,655835,0.0-4.0-0.35,203,1,2025-05-05T20:52:01Z,b60275e29fe2361ab97ac0ac217840d7,"Mozilla/5.0 (Windows NT 10.0; Win64; x64) AppleWebKit/537.36 (KHTML, like Gecko) Chrome/135.0.0.0 Safari/537.36",WebKit,Chrome,135.0.0.0,Windows,10,https://5puzkbbxv1.cognition.run/?sona_id=54959,"en-US,en;q=0.9",d5raxdys8fb07a6,20,"[""White""]",No,Male,NA,No,895467.8999999762,NA,null,<p></p>,null,choice,ct,binary,repulsion,2,televisions,null,null,null,null,null,null,2,NA,NA,NA,NA,NA,NA,NA,NA,NA,NA
NA,NA,NA,NA,NA,choice_trial,survey-html-form,75,663640,0.0-4.0-1.35,203,1,2025-05-05T20:52:01Z,b60275e29fe2361ab97ac0ac217840d7,"Mozilla/5.0 (Windows NT 10.0; Win64; x64) AppleWebKit/537.36 (KHTML, like Gecko) Chrome/135.0.0.0 Safari/537.36",WebKit,Chrome,135.0.0.0,Windows,10,https://5puzkbbxv1.cognition.run/?sona_id=54959,"en-US,en;q=0.9",d5raxdys8fb07a6,20,"[""White""]",No,Male,NA,No,895467.8999999762,NA,7802,NA,"{""product_choice"":""A""}",choice,ct,binary,repulsion,2,televisions,null,null,null,null,null,null,2,30,40,null,100,90,null,Screen size,Average lifespan,NA,NA
NA,NA,NA,NA,NA,choice_trial_setup,html-keyboard-response,76,663944,0.0-4.0-0.36,203,1,2025-05-05T20:52:01Z,b60275e29fe2361ab97ac0ac217840d7,"Mozilla/5.0 (Windows NT 10.0; Win64; x64) AppleWebKit/537.36 (KHTML, like Gecko) Chrome/135.0.0.0 Safari/537.36",WebKit,Chrome,135.0.0.0,Windows,10,https://5puzkbbxv1.cognition.run/?sona_id=54959,"en-US,en;q=0.9",d5raxdys8fb07a6,20,"[""White""]",No,Male,NA,No,895467.8999999762,NA,null,<p></p>,null,choice,dtc,trinary,repulsion_A,1,televisions,null,null,null,null,null,null,1,NA,NA,NA,NA,NA,NA,NA,NA,NA,NA
NA,NA,NA,NA,NA,choice_trial,survey-html-form,77,673761,0.0-4.0-1.36,203,1,2025-05-05T20:52:01Z,b60275e29fe2361ab97ac0ac217840d7,"Mozilla/5.0 (Windows NT 10.0; Win64; x64) AppleWebKit/537.36 (KHTML, like Gecko) Chrome/135.0.0.0 Safari/537.36",WebKit,Chrome,135.0.0.0,Windows,10,https://5puzkbbxv1.cognition.run/?sona_id=54959,"en-US,en;q=0.9",d5raxdys8fb07a6,20,"[""White""]",No,Male,NA,No,895467.8999999762,NA,9812,NA,"{""product_choice"":""C""}",choice,dtc,trinary,repulsion_A,1,televisions,null,null,null,null,null,null,1,100,90,100,30,40,20,Screen size,Average lifespan,NA,NA
NA,NA,NA,NA,NA,choice_trial_setup,html-keyboard-response,78,674065,0.0-4.0-0.37,203,1,2025-05-05T20:52:01Z,b60275e29fe2361ab97ac0ac217840d7,"Mozilla/5.0 (Windows NT 10.0; Win64; x64) AppleWebKit/537.36 (KHTML, like Gecko) Chrome/135.0.0.0 Safari/537.36",WebKit,Chrome,135.0.0.0,Windows,10,https://5puzkbbxv1.cognition.run/?sona_id=54959,"en-US,en;q=0.9",d5raxdys8fb07a6,20,"[""White""]",No,Male,NA,No,895467.8999999762,NA,null,<p></p>,null,choice,ct,binary,attraction,NA,microwave ovens,null,null,null,null,null,null,2,NA,NA,NA,NA,NA,NA,NA,NA,NA,NA
NA,NA,NA,NA,NA,choice_trial,survey-html-form,79,687073,0.0-4.0-1.37,203,1,2025-05-05T20:52:01Z,b60275e29fe2361ab97ac0ac217840d7,"Mozilla/5.0 (Windows NT 10.0; Win64; x64) AppleWebKit/537.36 (KHTML, like Gecko) Chrome/135.0.0.0 Safari/537.36",WebKit,Chrome,135.0.0.0,Windows,10,https://5puzkbbxv1.cognition.run/?sona_id=54959,"en-US,en;q=0.9",d5raxdys8fb07a6,20,"[""White""]",No,Male,NA,No,895467.8999999762,NA,13003,NA,"{""product_choice"":""A""}",choice,ct,binary,attraction,NA,microwave ovens,null,null,null,null,null,null,2,60,50,null,50,60,null,Warranty,Cooking power,NA,NA
NA,NA,NA,NA,NA,choice_trial_setup,html-keyboard-response,80,687376,0.0-4.0-0.38,203,1,2025-05-05T20:52:01Z,b60275e29fe2361ab97ac0ac217840d7,"Mozilla/5.0 (Windows NT 10.0; Win64; x64) AppleWebKit/537.36 (KHTML, like Gecko) Chrome/135.0.0.0 Safari/537.36",WebKit,Chrome,135.0.0.0,Windows,10,https://5puzkbbxv1.cognition.run/?sona_id=54959,"en-US,en;q=0.9",d5raxdys8fb07a6,20,"[""White""]",No,Male,NA,No,895467.8999999762,NA,null,<p></p>,null,choice,wbw,trinary,catch,null,washing machines,95,95,45,20,10,15,1,NA,NA,NA,NA,NA,NA,NA,NA,NA,NA
NA,NA,NA,NA,NA,choice_trial,survey-html-form,81,700084,0.0-4.0-1.38,203,1,2025-05-05T20:52:01Z,b60275e29fe2361ab97ac0ac217840d7,"Mozilla/5.0 (Windows NT 10.0; Win64; x64) AppleWebKit/537.36 (KHTML, like Gecko) Chrome/135.0.0.0 Safari/537.36",WebKit,Chrome,135.0.0.0,Windows,10,https://5puzkbbxv1.cognition.run/?sona_id=54959,"en-US,en;q=0.9",d5raxdys8fb07a6,20,"[""White""]",No,Male,NA,No,895467.8999999762,NA,12704,NA,"{""product_choice"":""B""}",choice,wbw,trinary,catch,null,washing machines,95,95,45,20,10,15,1,null,null,null,null,null,null,Average lifespan,Energy savings,NA,NA
NA,NA,NA,NA,NA,choice_trial_setup,html-keyboard-response,82,700404,0.0-4.0-0.39,203,1,2025-05-05T20:52:01Z,b60275e29fe2361ab97ac0ac217840d7,"Mozilla/5.0 (Windows NT 10.0; Win64; x64) AppleWebKit/537.36 (KHTML, like Gecko) Chrome/135.0.0.0 Safari/537.36",WebKit,Chrome,135.0.0.0,Windows,10,https://5puzkbbxv1.cognition.run/?sona_id=54959,"en-US,en;q=0.9",d5raxdys8fb07a6,20,"[""White""]",No,Male,NA,No,895467.8999999762,NA,null,<p></p>,null,choice,ct,binary,attraction,NA,washing machines,null,null,null,null,null,null,1,NA,NA,NA,NA,NA,NA,NA,NA,NA,NA
NA,NA,NA,NA,NA,choice_trial,survey-html-form,83,711074,0.0-4.0-1.39,203,1,2025-05-05T20:52:01Z,b60275e29fe2361ab97ac0ac217840d7,"Mozilla/5.0 (Windows NT 10.0; Win64; x64) AppleWebKit/537.36 (KHTML, like Gecko) Chrome/135.0.0.0 Safari/537.36",WebKit,Chrome,135.0.0.0,Windows,10,https://5puzkbbxv1.cognition.run/?sona_id=54959,"en-US,en;q=0.9",d5raxdys8fb07a6,20,"[""White""]",No,Male,NA,No,895467.8999999762,NA,10666,NA,"{""product_choice"":""A""}",choice,ct,binary,attraction,NA,washing machines,null,null,null,null,null,null,1,60,50,null,50,60,null,Average lifespan,Energy savings,NA,NA
NA,NA,NA,NA,NA,choice_trial_setup,html-keyboard-response,84,711379,0.0-4.0-0.40,203,1,2025-05-05T20:52:01Z,b60275e29fe2361ab97ac0ac217840d7,"Mozilla/5.0 (Windows NT 10.0; Win64; x64) AppleWebKit/537.36 (KHTML, like Gecko) Chrome/135.0.0.0 Safari/537.36",WebKit,Chrome,135.0.0.0,Windows,10,https://5puzkbbxv1.cognition.run/?sona_id=54959,"en-US,en;q=0.9",d5raxdys8fb07a6,20,"[""White""]",No,Male,NA,No,895467.8999999762,NA,null,<p></p>,null,choice,tc,binary,repulsion,1,televisions,null,null,null,null,null,null,2,NA,NA,NA,NA,NA,NA,NA,NA,NA,NA
NA,NA,NA,NA,NA,choice_trial,survey-html-form,85,718120,0.0-4.0-1.40,203,1,2025-05-05T20:52:01Z,b60275e29fe2361ab97ac0ac217840d7,"Mozilla/5.0 (Windows NT 10.0; Win64; x64) AppleWebKit/537.36 (KHTML, like Gecko) Chrome/135.0.0.0 Safari/537.36",WebKit,Chrome,135.0.0.0,Windows,10,https://5puzkbbxv1.cognition.run/?sona_id=54959,"en-US,en;q=0.9",d5raxdys8fb07a6,20,"[""White""]",No,Male,NA,No,895467.8999999762,NA,6737,NA,"{""product_choice"":""B""}",choice,tc,binary,repulsion,1,televisions,null,null,null,null,null,null,2,100,90,null,30,40,null,Screen size,Average lifespan,NA,NA
NA,NA,NA,NA,NA,choice_trial_setup,html-keyboard-response,86,718424,0.0-4.0-0.41,203,1,2025-05-05T20:52:01Z,b60275e29fe2361ab97ac0ac217840d7,"Mozilla/5.0 (Windows NT 10.0; Win64; x64) AppleWebKit/537.36 (KHTML, like Gecko) Chrome/135.0.0.0 Safari/537.36",WebKit,Chrome,135.0.0.0,Windows,10,https://5puzkbbxv1.cognition.run/?sona_id=54959,"en-US,en;q=0.9",d5raxdys8fb07a6,20,"[""White""]",No,Male,NA,No,895467.8999999762,NA,null,<p></p>,null,choice,cdt,trinary,repulsion_A,2,washing machines,null,null,null,null,null,null,1,NA,NA,NA,NA,NA,NA,NA,NA,NA,NA
NA,NA,NA,NA,NA,choice_trial,survey-html-form,87,724437,0.0-4.0-1.41,203,1,2025-05-05T20:52:01Z,b60275e29fe2361ab97ac0ac217840d7,"Mozilla/5.0 (Windows NT 10.0; Win64; x64) AppleWebKit/537.36 (KHTML, like Gecko) Chrome/135.0.0.0 Safari/537.36",WebKit,Chrome,135.0.0.0,Windows,10,https://5puzkbbxv1.cognition.run/?sona_id=54959,"en-US,en;q=0.9",d5raxdys8fb07a6,20,"[""White""]",No,Male,NA,No,895467.8999999762,NA,6008,NA,"{""product_choice"":""A""}",choice,cdt,trinary,repulsion_A,2,washing machines,null,null,null,null,null,null,1,30,40,20,100,90,100,Average lifespan,Energy savings,NA,NA
NA,NA,NA,NA,NA,choice_trial_setup,html-keyboard-response,88,724740,0.0-4.0-0.42,203,1,2025-05-05T20:52:01Z,b60275e29fe2361ab97ac0ac217840d7,"Mozilla/5.0 (Windows NT 10.0; Win64; x64) AppleWebKit/537.36 (KHTML, like Gecko) Chrome/135.0.0.0 Safari/537.36",WebKit,Chrome,135.0.0.0,Windows,10,https://5puzkbbxv1.cognition.run/?sona_id=54959,"en-US,en;q=0.9",d5raxdys8fb07a6,20,"[""White""]",No,Male,NA,No,895467.8999999762,NA,null,<p></p>,null,choice,ctd,trinary,repulsion_B,1,washing machines,null,null,null,null,null,null,2,NA,NA,NA,NA,NA,NA,NA,NA,NA,NA
NA,NA,NA,NA,NA,choice_trial,survey-html-form,89,734832,0.0-4.0-1.42,203,1,2025-05-05T20:52:01Z,b60275e29fe2361ab97ac0ac217840d7,"Mozilla/5.0 (Windows NT 10.0; Win64; x64) AppleWebKit/537.36 (KHTML, like Gecko) Chrome/135.0.0.0 Safari/537.36",WebKit,Chrome,135.0.0.0,Windows,10,https://5puzkbbxv1.cognition.run/?sona_id=54959,"en-US,en;q=0.9",d5raxdys8fb07a6,20,"[""White""]",No,Male,NA,No,895467.8999999762,NA,10087,NA,"{""product_choice"":""B""}",choice,ctd,trinary,repulsion_B,1,washing machines,null,null,null,null,null,null,2,90,100,80,40,30,40,Average lifespan,Energy savings,NA,NA
NA,NA,NA,NA,NA,choice_trial_setup,html-keyboard-response,90,735136,0.0-4.0-0.43,203,1,2025-05-05T20:52:01Z,b60275e29fe2361ab97ac0ac217840d7,"Mozilla/5.0 (Windows NT 10.0; Win64; x64) AppleWebKit/537.36 (KHTML, like Gecko) Chrome/135.0.0.0 Safari/537.36",WebKit,Chrome,135.0.0.0,Windows,10,https://5puzkbbxv1.cognition.run/?sona_id=54959,"en-US,en;q=0.9",d5raxdys8fb07a6,20,"[""White""]",No,Male,NA,No,895467.8999999762,NA,null,<p></p>,null,choice,tc,binary,repulsion,1,microwave ovens,null,null,null,null,null,null,2,NA,NA,NA,NA,NA,NA,NA,NA,NA,NA
NA,NA,NA,NA,NA,choice_trial,survey-html-form,91,743015,0.0-4.0-1.43,203,1,2025-05-05T20:52:01Z,b60275e29fe2361ab97ac0ac217840d7,"Mozilla/5.0 (Windows NT 10.0; Win64; x64) AppleWebKit/537.36 (KHTML, like Gecko) Chrome/135.0.0.0 Safari/537.36",WebKit,Chrome,135.0.0.0,Windows,10,https://5puzkbbxv1.cognition.run/?sona_id=54959,"en-US,en;q=0.9",d5raxdys8fb07a6,20,"[""White""]",No,Male,NA,No,895467.8999999762,NA,7875,NA,"{""product_choice"":""B""}",choice,tc,binary,repulsion,1,microwave ovens,null,null,null,null,null,null,2,100,90,null,30,40,null,Warranty,Cooking power,NA,NA
NA,NA,NA,NA,NA,post_trials_message,html-button-response,92,745247,0.0-5.0,203,1,2025-05-05T20:52:01Z,b60275e29fe2361ab97ac0ac217840d7,"Mozilla/5.0 (Windows NT 10.0; Win64; x64) AppleWebKit/537.36 (KHTML, like Gecko) Chrome/135.0.0.0 Safari/537.36",WebKit,Chrome,135.0.0.0,Windows,10,https://5puzkbbxv1.cognition.run/?sona_id=54959,"en-US,en;q=0.9",d5raxdys8fb07a6,20,"[""White""]",No,Male,NA,No,895467.8999999762,NA,2227,<p> <b>Thank you for your patience!</b></p><p>  The study will be done after completing a brief form. </p>,0,NA,NA,NA,NA,NA,NA,NA,NA,NA,NA,NA,NA,NA,NA,NA,NA,NA,NA,NA,NA,NA,NA,NA
NA,NA,NA,NA,NA,survey_message,survey-text,93,829989,0.0-6.0,203,1,2025-05-05T20:52:01Z,b60275e29fe2361ab97ac0ac217840d7,"Mozilla/5.0 (Windows NT 10.0; Win64; x64) AppleWebKit/537.36 (KHTML, like Gecko) Chrome/135.0.0.0 Safari/537.36",WebKit,Chrome,135.0.0.0,Windows,10,https://5puzkbbxv1.cognition.run/?sona_id=54959,"en-US,en;q=0.9",d5raxdys8fb07a6,20,"[""White""]",No,Male,NA,No,895467.8999999762,NA,84730,NA,"{""Q0"":""Any time an item was listed at a 100 or a 90, I was willing to let it drop in order to increase the quality of the other factor.""}",NA,NA,NA,NA,NA,NA,NA,NA,NA,NA,NA,NA,NA,NA,NA,NA,NA,NA,NA,NA,NA,"Any time an item was listed at a 100 or a 90, I was willing to let it drop in order to increase the quality of the other factor.",NA
NA,NA,NA,NA,NA,demo_age,survey-text,94,833166,0.0-7.0,203,1,2025-05-05T20:52:01Z,b60275e29fe2361ab97ac0ac217840d7,"Mozilla/5.0 (Windows NT 10.0; Win64; x64) AppleWebKit/537.36 (KHTML, like Gecko) Chrome/135.0.0.0 Safari/537.36",WebKit,Chrome,135.0.0.0,Windows,10,https://5puzkbbxv1.cognition.run/?sona_id=54959,"en-US,en;q=0.9",d5raxdys8fb07a6,20,"[""White""]",No,Male,NA,No,895467.8999999762,NA,3171,NA,"{""Q0"":""20""}",NA,NA,NA,NA,NA,NA,NA,NA,NA,NA,NA,NA,NA,NA,NA,NA,NA,NA,NA,NA,NA,NA,NA
NA,NA,NA,NA,NA,demo_race,survey-multi-select,95,835857,0.0-8.0,203,1,2025-05-05T20:52:01Z,b60275e29fe2361ab97ac0ac217840d7,"Mozilla/5.0 (Windows NT 10.0; Win64; x64) AppleWebKit/537.36 (KHTML, like Gecko) Chrome/135.0.0.0 Safari/537.36",WebKit,Chrome,135.0.0.0,Windows,10,https://5puzkbbxv1.cognition.run/?sona_id=54959,"en-US,en;q=0.9",d5raxdys8fb07a6,20,"[""White""]",No,Male,NA,No,895467.8999999762,NA,2678,NA,"{""Q0"":[""White""]}",NA,NA,NA,NA,NA,NA,NA,NA,NA,NA,NA,NA,NA,NA,NA,NA,NA,NA,NA,NA,NA,NA,[0]
NA,NA,NA,NA,NA,demo_ethnicity_gender,survey-multi-choice,96,839282,0.0-9.0,203,1,2025-05-05T20:52:01Z,b60275e29fe2361ab97ac0ac217840d7,"Mozilla/5.0 (Windows NT 10.0; Win64; x64) AppleWebKit/537.36 (KHTML, like Gecko) Chrome/135.0.0.0 Safari/537.36",WebKit,Chrome,135.0.0.0,Windows,10,https://5puzkbbxv1.cognition.run/?sona_id=54959,"en-US,en;q=0.9",d5raxdys8fb07a6,20,"[""White""]",No,Male,NA,No,895467.8999999762,NA,3414,NA,"{""Q0"":""No"",""Q1"":""Male""}",NA,NA,NA,NA,NA,NA,NA,NA,NA,NA,NA,NA,NA,NA,NA,NA,NA,NA,NA,NA,NA,NA,"[0,1]"
NA,NA,NA,NA,NA,demo_countries,survey-text,97,848026,0.0-10.0,203,1,2025-05-05T20:52:01Z,b60275e29fe2361ab97ac0ac217840d7,"Mozilla/5.0 (Windows NT 10.0; Win64; x64) AppleWebKit/537.36 (KHTML, like Gecko) Chrome/135.0.0.0 Safari/537.36",WebKit,Chrome,135.0.0.0,Windows,10,https://5puzkbbxv1.cognition.run/?sona_id=54959,"en-US,en;q=0.9",d5raxdys8fb07a6,20,"[""White""]",No,Male,NA,No,895467.8999999762,NA,8724,NA,"{""Q0"":""NA""}",NA,NA,NA,NA,NA,NA,NA,NA,NA,NA,NA,NA,NA,NA,NA,NA,NA,NA,NA,NA,NA,NA,NA
NA,NA,NA,NA,NA,demo_prev_study,survey-multi-choice,98,874574,0.0-11.0,203,1,2025-05-05T20:52:01Z,b60275e29fe2361ab97ac0ac217840d7,"Mozilla/5.0 (Windows NT 10.0; Win64; x64) AppleWebKit/537.36 (KHTML, like Gecko) Chrome/135.0.0.0 Safari/537.36",WebKit,Chrome,135.0.0.0,Windows,10,https://5puzkbbxv1.cognition.run/?sona_id=54959,"en-US,en;q=0.9",d5raxdys8fb07a6,20,"[""White""]",No,Male,NA,No,895467.8999999762,NA,26542,NA,"{""Q0"":""No""}",NA,NA,NA,NA,NA,NA,NA,NA,NA,NA,NA,NA,NA,NA,NA,NA,NA,NA,NA,NA,NA,NA,[0]
NA,NA,NA,NA,NA,post_survey_message,html-keyboard-response,99,877419,0.0-12.0,203,1,2025-05-05T20:52:01Z,b60275e29fe2361ab97ac0ac217840d7,"Mozilla/5.0 (Windows NT 10.0; Win64; x64) AppleWebKit/537.36 (KHTML, like Gecko) Chrome/135.0.0.0 Safari/537.36",WebKit,Chrome,135.0.0.0,Windows,10,https://5puzkbbxv1.cognition.run/?sona_id=54959,"en-US,en;q=0.9",d5raxdys8fb07a6,20,"[""White""]",No,Male,NA,No,895467.8999999762,NA,2841,NA,j,NA,NA,NA,NA,NA,NA,NA,NA,NA,NA,NA,NA,NA,NA,NA,NA,NA,NA,NA,NA,NA,NA,NA
NA,NA,NA,NA,NA,debrief,image-keyboard-response,100,895466,0.0-13.0,203,1,2025-05-05T20:52:01Z,b60275e29fe2361ab97ac0ac217840d7,"Mozilla/5.0 (Windows NT 10.0; Win64; x64) AppleWebKit/537.36 (KHTML, like Gecko) Chrome/135.0.0.0 Safari/537.36",WebKit,Chrome,135.0.0.0,Windows,10,https://5puzkbbxv1.cognition.run/?sona_id=54959,"en-US,en;q=0.9",d5raxdys8fb07a6,20,"[""White""]",No,Male,NA,No,895467.8999999762,NA,18030,Judg_choice_debrief.png,p,NA,NA,NA,NA,NA,NA,NA,NA,NA,NA,NA,NA,NA,NA,NA,NA,NA,NA,NA,NA,NA,NA,NA
