success,timeout,failed_images,failed_audio,failed_video,screen_id,trial_type,trial_index,time_elapsed,internal_node_id,run_id,condition,recorded_at,source_code_version,user_agent,device,browser,browser_version,platform,platform_version,referer,accept_language,ppt_id,age,race,ethnicity,gender,other_countries,prev_study,exp_duration,view_history,rt,stimulus,response,phase,order,set,effect,t_high,category,d1_best,d2_best,d1_worst1,d2_worst1,d1_worst2,d2_worst2,first_dim,d1_t,d1_c,d1_d,d2_t,d2_c,d2_d,d1_name,d2_name,strategy_response,question_order
TRUE,FALSE,[],[],[],img preload,preload,0,259,0.0-0.0,204,1,2025-05-05T21:07:01Z,b60275e29fe2361ab97ac0ac217840d7,"Mozilla/5.0 (Macintosh; Intel Mac OS X 10_15_7) AppleWebKit/537.36 (KHTML, like Gecko) Chrome/133.0.0.0 Safari/537.36",Macintosh,Chrome,133.0.0.0,OS X,10_15_7,https://5puzkbbxv1.cognition.run/?sona_id=57580,"en-US,en;q=0.9",aq45phebs1ja5mh,21,"[""White""]",No,Female,NA,No,807616.3999999762,NA,NA,NA,NA,NA,NA,NA,NA,NA,NA,NA,NA,NA,NA,NA,NA,NA,NA,NA,NA,NA,NA,NA,NA,NA,NA,NA
NA,NA,NA,NA,NA,computer_message,instructions,1,4662,0.0-1.0,204,1,2025-05-05T21:07:01Z,b60275e29fe2361ab97ac0ac217840d7,"Mozilla/5.0 (Macintosh; Intel Mac OS X 10_15_7) AppleWebKit/537.36 (KHTML, like Gecko) Chrome/133.0.0.0 Safari/537.36",Macintosh,Chrome,133.0.0.0,OS X,10_15_7,https://5puzkbbxv1.cognition.run/?sona_id=57580,"en-US,en;q=0.9",aq45phebs1ja5mh,21,"[""White""]",No,Female,NA,No,807616.3999999762,"[{""page_index"":0,""viewing_time"":4409}]",4410,NA,NA,NA,NA,NA,NA,NA,NA,NA,NA,NA,NA,NA,NA,NA,NA,NA,NA,NA,NA,NA,NA,NA,NA,NA
TRUE,NA,NA,NA,NA,NA,fullscreen,2,8298,0.0-2.0,204,1,2025-05-05T21:07:01Z,b60275e29fe2361ab97ac0ac217840d7,"Mozilla/5.0 (Macintosh; Intel Mac OS X 10_15_7) AppleWebKit/537.36 (KHTML, like Gecko) Chrome/133.0.0.0 Safari/537.36",Macintosh,Chrome,133.0.0.0,OS X,10_15_7,https://5puzkbbxv1.cognition.run/?sona_id=57580,"en-US,en;q=0.9",aq45phebs1ja5mh,21,"[""White""]",No,Female,NA,No,807616.3999999762,NA,2634,NA,NA,NA,NA,NA,NA,NA,NA,NA,NA,NA,NA,NA,NA,NA,NA,NA,NA,NA,NA,NA,NA,NA,NA,NA
NA,NA,NA,NA,NA,choice_instructions,instructions,3,70619,0.0-3.0,204,1,2025-05-05T21:07:01Z,b60275e29fe2361ab97ac0ac217840d7,"Mozilla/5.0 (Macintosh; Intel Mac OS X 10_15_7) AppleWebKit/537.36 (KHTML, like Gecko) Chrome/133.0.0.0 Safari/537.36",Macintosh,Chrome,133.0.0.0,OS X,10_15_7,https://5puzkbbxv1.cognition.run/?sona_id=57580,"en-US,en;q=0.9",aq45phebs1ja5mh,21,"[""White""]",No,Female,NA,No,807616.3999999762,"[{""page_index"":0,""viewing_time"":2123},{""page_index"":1,""viewing_time"":5465},{""page_index"":2,""viewing_time"":7194},{""page_index"":3,""viewing_time"":9647},{""page_index"":4,""viewing_time"":5572},{""page_index"":5,""viewing_time"":15091},{""page_index"":6,""viewing_time"":17245}]",62337,NA,NA,NA,NA,NA,NA,NA,NA,NA,NA,NA,NA,NA,NA,NA,NA,NA,NA,NA,NA,NA,NA,NA,NA,NA
NA,NA,NA,NA,NA,choice_trial_setup,html-keyboard-response,4,70923,0.0-4.0-0.0,204,1,2025-05-05T21:07:01Z,b60275e29fe2361ab97ac0ac217840d7,"Mozilla/5.0 (Macintosh; Intel Mac OS X 10_15_7) AppleWebKit/537.36 (KHTML, like Gecko) Chrome/133.0.0.0 Safari/537.36",Macintosh,Chrome,133.0.0.0,OS X,10_15_7,https://5puzkbbxv1.cognition.run/?sona_id=57580,"en-US,en;q=0.9",aq45phebs1ja5mh,21,"[""White""]",No,Female,NA,No,807616.3999999762,NA,null,<p></p>,null,choice,ctd,trinary,attraction,1,microwave ovens,null,null,null,null,null,null,2,NA,NA,NA,NA,NA,NA,NA,NA,NA,NA
NA,NA,NA,NA,NA,choice_trial,survey-html-form,5,126881,0.0-4.0-1.0,204,1,2025-05-05T21:07:01Z,b60275e29fe2361ab97ac0ac217840d7,"Mozilla/5.0 (Macintosh; Intel Mac OS X 10_15_7) AppleWebKit/537.36 (KHTML, like Gecko) Chrome/133.0.0.0 Safari/537.36",Macintosh,Chrome,133.0.0.0,OS X,10_15_7,https://5puzkbbxv1.cognition.run/?sona_id=57580,"en-US,en;q=0.9",aq45phebs1ja5mh,21,"[""White""]",No,Female,NA,No,807616.3999999762,NA,55949,NA,"{""product_choice"":""B""}",choice,ctd,trinary,attraction,1,microwave ovens,null,null,null,null,null,null,2,60,50,60,50,60,40,Warranty,Cooking power,NA,NA
NA,NA,NA,NA,NA,choice_trial_setup,html-keyboard-response,6,127185,0.0-4.0-0.1,204,1,2025-05-05T21:07:01Z,b60275e29fe2361ab97ac0ac217840d7,"Mozilla/5.0 (Macintosh; Intel Mac OS X 10_15_7) AppleWebKit/537.36 (KHTML, like Gecko) Chrome/133.0.0.0 Safari/537.36",Macintosh,Chrome,133.0.0.0,OS X,10_15_7,https://5puzkbbxv1.cognition.run/?sona_id=57580,"en-US,en;q=0.9",aq45phebs1ja5mh,21,"[""White""]",No,Female,NA,No,807616.3999999762,NA,null,<p></p>,null,choice,ct,binary,attraction,NA,televisions,null,null,null,null,null,null,2,NA,NA,NA,NA,NA,NA,NA,NA,NA,NA
NA,NA,NA,NA,NA,choice_trial,survey-html-form,7,149791,0.0-4.0-1.1,204,1,2025-05-05T21:07:01Z,b60275e29fe2361ab97ac0ac217840d7,"Mozilla/5.0 (Macintosh; Intel Mac OS X 10_15_7) AppleWebKit/537.36 (KHTML, like Gecko) Chrome/133.0.0.0 Safari/537.36",Macintosh,Chrome,133.0.0.0,OS X,10_15_7,https://5puzkbbxv1.cognition.run/?sona_id=57580,"en-US,en;q=0.9",aq45phebs1ja5mh,21,"[""White""]",No,Female,NA,No,807616.3999999762,NA,22603,NA,"{""product_choice"":""A""}",choice,ct,binary,attraction,NA,televisions,null,null,null,null,null,null,2,60,50,null,50,60,null,Screen size,Average lifespan,NA,NA
NA,NA,NA,NA,NA,choice_trial_setup,html-keyboard-response,8,150095,0.0-4.0-0.2,204,1,2025-05-05T21:07:01Z,b60275e29fe2361ab97ac0ac217840d7,"Mozilla/5.0 (Macintosh; Intel Mac OS X 10_15_7) AppleWebKit/537.36 (KHTML, like Gecko) Chrome/133.0.0.0 Safari/537.36",Macintosh,Chrome,133.0.0.0,OS X,10_15_7,https://5puzkbbxv1.cognition.run/?sona_id=57580,"en-US,en;q=0.9",aq45phebs1ja5mh,21,"[""White""]",No,Female,NA,No,807616.3999999762,NA,null,<p></p>,null,choice,ctd,trinary,repulsion_B,2,laptops,null,null,null,null,null,null,1,NA,NA,NA,NA,NA,NA,NA,NA,NA,NA
NA,NA,NA,NA,NA,choice_trial,survey-html-form,9,163171,0.0-4.0-1.2,204,1,2025-05-05T21:07:01Z,b60275e29fe2361ab97ac0ac217840d7,"Mozilla/5.0 (Macintosh; Intel Mac OS X 10_15_7) AppleWebKit/537.36 (KHTML, like Gecko) Chrome/133.0.0.0 Safari/537.36",Macintosh,Chrome,133.0.0.0,OS X,10_15_7,https://5puzkbbxv1.cognition.run/?sona_id=57580,"en-US,en;q=0.9",aq45phebs1ja5mh,21,"[""White""]",No,Female,NA,No,807616.3999999762,NA,13072,NA,"{""product_choice"":""B""}",choice,ctd,trinary,repulsion_B,2,laptops,null,null,null,null,null,null,1,40,30,40,90,100,80,Processing speed,Memory (RAM),NA,NA
NA,NA,NA,NA,NA,choice_trial_setup,html-keyboard-response,10,163475,0.0-4.0-0.3,204,1,2025-05-05T21:07:01Z,b60275e29fe2361ab97ac0ac217840d7,"Mozilla/5.0 (Macintosh; Intel Mac OS X 10_15_7) AppleWebKit/537.36 (KHTML, like Gecko) Chrome/133.0.0.0 Safari/537.36",Macintosh,Chrome,133.0.0.0,OS X,10_15_7,https://5puzkbbxv1.cognition.run/?sona_id=57580,"en-US,en;q=0.9",aq45phebs1ja5mh,21,"[""White""]",No,Female,NA,No,807616.3999999762,NA,null,<p></p>,null,choice,dtc,trinary,repulsion_A,2,washing machines,null,null,null,null,null,null,1,NA,NA,NA,NA,NA,NA,NA,NA,NA,NA
NA,NA,NA,NA,NA,choice_trial,survey-html-form,11,180738,0.0-4.0-1.3,204,1,2025-05-05T21:07:01Z,b60275e29fe2361ab97ac0ac217840d7,"Mozilla/5.0 (Macintosh; Intel Mac OS X 10_15_7) AppleWebKit/537.36 (KHTML, like Gecko) Chrome/133.0.0.0 Safari/537.36",Macintosh,Chrome,133.0.0.0,OS X,10_15_7,https://5puzkbbxv1.cognition.run/?sona_id=57580,"en-US,en;q=0.9",aq45phebs1ja5mh,21,"[""White""]",No,Female,NA,No,807616.3999999762,NA,17260,NA,"{""product_choice"":""B""}",choice,dtc,trinary,repulsion_A,2,washing machines,null,null,null,null,null,null,1,30,40,20,100,90,100,Average lifespan,Energy savings,NA,NA
NA,NA,NA,NA,NA,choice_trial_setup,html-keyboard-response,12,181041,0.0-4.0-0.4,204,1,2025-05-05T21:07:01Z,b60275e29fe2361ab97ac0ac217840d7,"Mozilla/5.0 (Macintosh; Intel Mac OS X 10_15_7) AppleWebKit/537.36 (KHTML, like Gecko) Chrome/133.0.0.0 Safari/537.36",Macintosh,Chrome,133.0.0.0,OS X,10_15_7,https://5puzkbbxv1.cognition.run/?sona_id=57580,"en-US,en;q=0.9",aq45phebs1ja5mh,21,"[""White""]",No,Female,NA,No,807616.3999999762,NA,null,<p></p>,null,choice,ct,binary,repulsion,2,televisions,null,null,null,null,null,null,2,NA,NA,NA,NA,NA,NA,NA,NA,NA,NA
NA,NA,NA,NA,NA,choice_trial,survey-html-form,13,194850,0.0-4.0-1.4,204,1,2025-05-05T21:07:01Z,b60275e29fe2361ab97ac0ac217840d7,"Mozilla/5.0 (Macintosh; Intel Mac OS X 10_15_7) AppleWebKit/537.36 (KHTML, like Gecko) Chrome/133.0.0.0 Safari/537.36",Macintosh,Chrome,133.0.0.0,OS X,10_15_7,https://5puzkbbxv1.cognition.run/?sona_id=57580,"en-US,en;q=0.9",aq45phebs1ja5mh,21,"[""White""]",No,Female,NA,No,807616.3999999762,NA,13806,NA,"{""product_choice"":""A""}",choice,ct,binary,repulsion,2,televisions,null,null,null,null,null,null,2,30,40,null,100,90,null,Screen size,Average lifespan,NA,NA
NA,NA,NA,NA,NA,choice_trial_setup,html-keyboard-response,14,195154,0.0-4.0-0.5,204,1,2025-05-05T21:07:01Z,b60275e29fe2361ab97ac0ac217840d7,"Mozilla/5.0 (Macintosh; Intel Mac OS X 10_15_7) AppleWebKit/537.36 (KHTML, like Gecko) Chrome/133.0.0.0 Safari/537.36",Macintosh,Chrome,133.0.0.0,OS X,10_15_7,https://5puzkbbxv1.cognition.run/?sona_id=57580,"en-US,en;q=0.9",aq45phebs1ja5mh,21,"[""White""]",No,Female,NA,No,807616.3999999762,NA,null,<p></p>,null,choice,bww,trinary,catch,null,laptops,70,85,10,10,30,35,1,NA,NA,NA,NA,NA,NA,NA,NA,NA,NA
NA,NA,NA,NA,NA,choice_trial,survey-html-form,15,214738,0.0-4.0-1.5,204,1,2025-05-05T21:07:01Z,b60275e29fe2361ab97ac0ac217840d7,"Mozilla/5.0 (Macintosh; Intel Mac OS X 10_15_7) AppleWebKit/537.36 (KHTML, like Gecko) Chrome/133.0.0.0 Safari/537.36",Macintosh,Chrome,133.0.0.0,OS X,10_15_7,https://5puzkbbxv1.cognition.run/?sona_id=57580,"en-US,en;q=0.9",aq45phebs1ja5mh,21,"[""White""]",No,Female,NA,No,807616.3999999762,NA,19578,NA,"{""product_choice"":""A""}",choice,bww,trinary,catch,null,laptops,70,85,10,10,30,35,1,null,null,null,null,null,null,Processing speed,Memory (RAM),NA,NA
NA,NA,NA,NA,NA,choice_trial_setup,html-keyboard-response,16,215042,0.0-4.0-0.6,204,1,2025-05-05T21:07:01Z,b60275e29fe2361ab97ac0ac217840d7,"Mozilla/5.0 (Macintosh; Intel Mac OS X 10_15_7) AppleWebKit/537.36 (KHTML, like Gecko) Chrome/133.0.0.0 Safari/537.36",Macintosh,Chrome,133.0.0.0,OS X,10_15_7,https://5puzkbbxv1.cognition.run/?sona_id=57580,"en-US,en;q=0.9",aq45phebs1ja5mh,21,"[""White""]",No,Female,NA,No,807616.3999999762,NA,null,<p></p>,null,choice,tc,binary,repulsion,1,washing machines,null,null,null,null,null,null,1,NA,NA,NA,NA,NA,NA,NA,NA,NA,NA
NA,NA,NA,NA,NA,choice_trial,survey-html-form,17,220219,0.0-4.0-1.6,204,1,2025-05-05T21:07:01Z,b60275e29fe2361ab97ac0ac217840d7,"Mozilla/5.0 (Macintosh; Intel Mac OS X 10_15_7) AppleWebKit/537.36 (KHTML, like Gecko) Chrome/133.0.0.0 Safari/537.36",Macintosh,Chrome,133.0.0.0,OS X,10_15_7,https://5puzkbbxv1.cognition.run/?sona_id=57580,"en-US,en;q=0.9",aq45phebs1ja5mh,21,"[""White""]",No,Female,NA,No,807616.3999999762,NA,5172,NA,"{""product_choice"":""B""}",choice,tc,binary,repulsion,1,washing machines,null,null,null,null,null,null,1,100,90,null,30,40,null,Average lifespan,Energy savings,NA,NA
NA,NA,NA,NA,NA,choice_trial_setup,html-keyboard-response,18,220522,0.0-4.0-0.7,204,1,2025-05-05T21:07:01Z,b60275e29fe2361ab97ac0ac217840d7,"Mozilla/5.0 (Macintosh; Intel Mac OS X 10_15_7) AppleWebKit/537.36 (KHTML, like Gecko) Chrome/133.0.0.0 Safari/537.36",Macintosh,Chrome,133.0.0.0,OS X,10_15_7,https://5puzkbbxv1.cognition.run/?sona_id=57580,"en-US,en;q=0.9",aq45phebs1ja5mh,21,"[""White""]",No,Female,NA,No,807616.3999999762,NA,null,<p></p>,null,choice,tcd,trinary,repulsion_B,2,televisions,null,null,null,null,null,null,1,NA,NA,NA,NA,NA,NA,NA,NA,NA,NA
NA,NA,NA,NA,NA,choice_trial,survey-html-form,19,233399,0.0-4.0-1.7,204,1,2025-05-05T21:07:01Z,b60275e29fe2361ab97ac0ac217840d7,"Mozilla/5.0 (Macintosh; Intel Mac OS X 10_15_7) AppleWebKit/537.36 (KHTML, like Gecko) Chrome/133.0.0.0 Safari/537.36",Macintosh,Chrome,133.0.0.0,OS X,10_15_7,https://5puzkbbxv1.cognition.run/?sona_id=57580,"en-US,en;q=0.9",aq45phebs1ja5mh,21,"[""White""]",No,Female,NA,No,807616.3999999762,NA,12873,NA,"{""product_choice"":""A""}",choice,tcd,trinary,repulsion_B,2,televisions,null,null,null,null,null,null,1,40,30,40,90,100,80,Screen size,Average lifespan,NA,NA
NA,NA,NA,NA,NA,choice_trial_setup,html-keyboard-response,20,233702,0.0-4.0-0.8,204,1,2025-05-05T21:07:01Z,b60275e29fe2361ab97ac0ac217840d7,"Mozilla/5.0 (Macintosh; Intel Mac OS X 10_15_7) AppleWebKit/537.36 (KHTML, like Gecko) Chrome/133.0.0.0 Safari/537.36",Macintosh,Chrome,133.0.0.0,OS X,10_15_7,https://5puzkbbxv1.cognition.run/?sona_id=57580,"en-US,en;q=0.9",aq45phebs1ja5mh,21,"[""White""]",No,Female,NA,No,807616.3999999762,NA,null,<p></p>,null,choice,dct,trinary,attraction,1,televisions,null,null,null,null,null,null,1,NA,NA,NA,NA,NA,NA,NA,NA,NA,NA
NA,NA,NA,NA,NA,choice_trial,survey-html-form,21,243974,0.0-4.0-1.8,204,1,2025-05-05T21:07:01Z,b60275e29fe2361ab97ac0ac217840d7,"Mozilla/5.0 (Macintosh; Intel Mac OS X 10_15_7) AppleWebKit/537.36 (KHTML, like Gecko) Chrome/133.0.0.0 Safari/537.36",Macintosh,Chrome,133.0.0.0,OS X,10_15_7,https://5puzkbbxv1.cognition.run/?sona_id=57580,"en-US,en;q=0.9",aq45phebs1ja5mh,21,"[""White""]",No,Female,NA,No,807616.3999999762,NA,10268,NA,"{""product_choice"":""B""}",choice,dct,trinary,attraction,1,televisions,null,null,null,null,null,null,1,60,50,60,50,60,40,Screen size,Average lifespan,NA,NA
NA,NA,NA,NA,NA,choice_trial_setup,html-keyboard-response,22,244279,0.0-4.0-0.9,204,1,2025-05-05T21:07:01Z,b60275e29fe2361ab97ac0ac217840d7,"Mozilla/5.0 (Macintosh; Intel Mac OS X 10_15_7) AppleWebKit/537.36 (KHTML, like Gecko) Chrome/133.0.0.0 Safari/537.36",Macintosh,Chrome,133.0.0.0,OS X,10_15_7,https://5puzkbbxv1.cognition.run/?sona_id=57580,"en-US,en;q=0.9",aq45phebs1ja5mh,21,"[""White""]",No,Female,NA,No,807616.3999999762,NA,null,<p></p>,null,choice,bw,binary,catch,null,microwave ovens,65,80,45,25,null,null,1,NA,NA,NA,NA,NA,NA,NA,NA,NA,NA
NA,NA,NA,NA,NA,choice_trial,survey-html-form,23,251327,0.0-4.0-1.9,204,1,2025-05-05T21:07:01Z,b60275e29fe2361ab97ac0ac217840d7,"Mozilla/5.0 (Macintosh; Intel Mac OS X 10_15_7) AppleWebKit/537.36 (KHTML, like Gecko) Chrome/133.0.0.0 Safari/537.36",Macintosh,Chrome,133.0.0.0,OS X,10_15_7,https://5puzkbbxv1.cognition.run/?sona_id=57580,"en-US,en;q=0.9",aq45phebs1ja5mh,21,"[""White""]",No,Female,NA,No,807616.3999999762,NA,7045,NA,"{""product_choice"":""A""}",choice,bw,binary,catch,null,microwave ovens,65,80,45,25,null,null,1,null,null,null,null,null,null,Warranty,Cooking power,NA,NA
NA,NA,NA,NA,NA,choice_trial_setup,html-keyboard-response,24,251631,0.0-4.0-0.10,204,1,2025-05-05T21:07:01Z,b60275e29fe2361ab97ac0ac217840d7,"Mozilla/5.0 (Macintosh; Intel Mac OS X 10_15_7) AppleWebKit/537.36 (KHTML, like Gecko) Chrome/133.0.0.0 Safari/537.36",Macintosh,Chrome,133.0.0.0,OS X,10_15_7,https://5puzkbbxv1.cognition.run/?sona_id=57580,"en-US,en;q=0.9",aq45phebs1ja5mh,21,"[""White""]",No,Female,NA,No,807616.3999999762,NA,null,<p></p>,null,choice,wbw,trinary,catch,null,washing machines,65,55,50,10,30,15,2,NA,NA,NA,NA,NA,NA,NA,NA,NA,NA
NA,NA,NA,NA,NA,choice_trial,survey-html-form,25,274426,0.0-4.0-1.10,204,1,2025-05-05T21:07:01Z,b60275e29fe2361ab97ac0ac217840d7,"Mozilla/5.0 (Macintosh; Intel Mac OS X 10_15_7) AppleWebKit/537.36 (KHTML, like Gecko) Chrome/133.0.0.0 Safari/537.36",Macintosh,Chrome,133.0.0.0,OS X,10_15_7,https://5puzkbbxv1.cognition.run/?sona_id=57580,"en-US,en;q=0.9",aq45phebs1ja5mh,21,"[""White""]",No,Female,NA,No,807616.3999999762,NA,22791,NA,"{""product_choice"":""B""}",choice,wbw,trinary,catch,null,washing machines,65,55,50,10,30,15,2,null,null,null,null,null,null,Average lifespan,Energy savings,NA,NA
NA,NA,NA,NA,NA,choice_trial_setup,html-keyboard-response,26,274730,0.0-4.0-0.11,204,1,2025-05-05T21:07:01Z,b60275e29fe2361ab97ac0ac217840d7,"Mozilla/5.0 (Macintosh; Intel Mac OS X 10_15_7) AppleWebKit/537.36 (KHTML, like Gecko) Chrome/133.0.0.0 Safari/537.36",Macintosh,Chrome,133.0.0.0,OS X,10_15_7,https://5puzkbbxv1.cognition.run/?sona_id=57580,"en-US,en;q=0.9",aq45phebs1ja5mh,21,"[""White""]",No,Female,NA,No,807616.3999999762,NA,null,<p></p>,null,choice,cdt,trinary,repulsion_A,2,laptops,null,null,null,null,null,null,2,NA,NA,NA,NA,NA,NA,NA,NA,NA,NA
NA,NA,NA,NA,NA,choice_trial,survey-html-form,27,283307,0.0-4.0-1.11,204,1,2025-05-05T21:07:01Z,b60275e29fe2361ab97ac0ac217840d7,"Mozilla/5.0 (Macintosh; Intel Mac OS X 10_15_7) AppleWebKit/537.36 (KHTML, like Gecko) Chrome/133.0.0.0 Safari/537.36",Macintosh,Chrome,133.0.0.0,OS X,10_15_7,https://5puzkbbxv1.cognition.run/?sona_id=57580,"en-US,en;q=0.9",aq45phebs1ja5mh,21,"[""White""]",No,Female,NA,No,807616.3999999762,NA,8572,NA,"{""product_choice"":""A""}",choice,cdt,trinary,repulsion_A,2,laptops,null,null,null,null,null,null,2,30,40,20,100,90,100,Processing speed,Memory (RAM),NA,NA
NA,NA,NA,NA,NA,choice_trial_setup,html-keyboard-response,28,283610,0.0-4.0-0.12,204,1,2025-05-05T21:07:01Z,b60275e29fe2361ab97ac0ac217840d7,"Mozilla/5.0 (Macintosh; Intel Mac OS X 10_15_7) AppleWebKit/537.36 (KHTML, like Gecko) Chrome/133.0.0.0 Safari/537.36",Macintosh,Chrome,133.0.0.0,OS X,10_15_7,https://5puzkbbxv1.cognition.run/?sona_id=57580,"en-US,en;q=0.9",aq45phebs1ja5mh,21,"[""White""]",No,Female,NA,No,807616.3999999762,NA,null,<p></p>,null,choice,ct,binary,repulsion,2,laptops,null,null,null,null,null,null,1,NA,NA,NA,NA,NA,NA,NA,NA,NA,NA
NA,NA,NA,NA,NA,choice_trial,survey-html-form,29,290764,0.0-4.0-1.12,204,1,2025-05-05T21:07:01Z,b60275e29fe2361ab97ac0ac217840d7,"Mozilla/5.0 (Macintosh; Intel Mac OS X 10_15_7) AppleWebKit/537.36 (KHTML, like Gecko) Chrome/133.0.0.0 Safari/537.36",Macintosh,Chrome,133.0.0.0,OS X,10_15_7,https://5puzkbbxv1.cognition.run/?sona_id=57580,"en-US,en;q=0.9",aq45phebs1ja5mh,21,"[""White""]",No,Female,NA,No,807616.3999999762,NA,7150,NA,"{""product_choice"":""A""}",choice,ct,binary,repulsion,2,laptops,null,null,null,null,null,null,1,30,40,null,100,90,null,Processing speed,Memory (RAM),NA,NA
NA,NA,NA,NA,NA,choice_trial_setup,html-keyboard-response,30,291068,0.0-4.0-0.13,204,1,2025-05-05T21:07:01Z,b60275e29fe2361ab97ac0ac217840d7,"Mozilla/5.0 (Macintosh; Intel Mac OS X 10_15_7) AppleWebKit/537.36 (KHTML, like Gecko) Chrome/133.0.0.0 Safari/537.36",Macintosh,Chrome,133.0.0.0,OS X,10_15_7,https://5puzkbbxv1.cognition.run/?sona_id=57580,"en-US,en;q=0.9",aq45phebs1ja5mh,21,"[""White""]",No,Female,NA,No,807616.3999999762,NA,null,<p></p>,null,choice,tcd,trinary,attraction,2,washing machines,null,null,null,null,null,null,2,NA,NA,NA,NA,NA,NA,NA,NA,NA,NA
NA,NA,NA,NA,NA,choice_trial,survey-html-form,31,306045,0.0-4.0-1.13,204,1,2025-05-05T21:07:01Z,b60275e29fe2361ab97ac0ac217840d7,"Mozilla/5.0 (Macintosh; Intel Mac OS X 10_15_7) AppleWebKit/537.36 (KHTML, like Gecko) Chrome/133.0.0.0 Safari/537.36",Macintosh,Chrome,133.0.0.0,OS X,10_15_7,https://5puzkbbxv1.cognition.run/?sona_id=57580,"en-US,en;q=0.9",aq45phebs1ja5mh,21,"[""White""]",No,Female,NA,No,807616.3999999762,NA,14973,NA,"{""product_choice"":""A""}",choice,tcd,trinary,attraction,2,washing machines,null,null,null,null,null,null,2,50,60,40,60,50,60,Average lifespan,Energy savings,NA,NA
NA,NA,NA,NA,NA,choice_trial_setup,html-keyboard-response,32,306349,0.0-4.0-0.14,204,1,2025-05-05T21:07:01Z,b60275e29fe2361ab97ac0ac217840d7,"Mozilla/5.0 (Macintosh; Intel Mac OS X 10_15_7) AppleWebKit/537.36 (KHTML, like Gecko) Chrome/133.0.0.0 Safari/537.36",Macintosh,Chrome,133.0.0.0,OS X,10_15_7,https://5puzkbbxv1.cognition.run/?sona_id=57580,"en-US,en;q=0.9",aq45phebs1ja5mh,21,"[""White""]",No,Female,NA,No,807616.3999999762,NA,null,<p></p>,null,choice,ct,binary,attraction,NA,laptops,null,null,null,null,null,null,1,NA,NA,NA,NA,NA,NA,NA,NA,NA,NA
NA,NA,NA,NA,NA,choice_trial,survey-html-form,33,316028,0.0-4.0-1.14,204,1,2025-05-05T21:07:01Z,b60275e29fe2361ab97ac0ac217840d7,"Mozilla/5.0 (Macintosh; Intel Mac OS X 10_15_7) AppleWebKit/537.36 (KHTML, like Gecko) Chrome/133.0.0.0 Safari/537.36",Macintosh,Chrome,133.0.0.0,OS X,10_15_7,https://5puzkbbxv1.cognition.run/?sona_id=57580,"en-US,en;q=0.9",aq45phebs1ja5mh,21,"[""White""]",No,Female,NA,No,807616.3999999762,NA,9675,NA,"{""product_choice"":""B""}",choice,ct,binary,attraction,NA,laptops,null,null,null,null,null,null,1,60,50,null,50,60,null,Processing speed,Memory (RAM),NA,NA
NA,NA,NA,NA,NA,choice_trial_setup,html-keyboard-response,34,316330,0.0-4.0-0.15,204,1,2025-05-05T21:07:01Z,b60275e29fe2361ab97ac0ac217840d7,"Mozilla/5.0 (Macintosh; Intel Mac OS X 10_15_7) AppleWebKit/537.36 (KHTML, like Gecko) Chrome/133.0.0.0 Safari/537.36",Macintosh,Chrome,133.0.0.0,OS X,10_15_7,https://5puzkbbxv1.cognition.run/?sona_id=57580,"en-US,en;q=0.9",aq45phebs1ja5mh,21,"[""White""]",No,Female,NA,No,807616.3999999762,NA,null,<p></p>,null,choice,tcd,trinary,repulsion_B,2,microwave ovens,null,null,null,null,null,null,1,NA,NA,NA,NA,NA,NA,NA,NA,NA,NA
NA,NA,NA,NA,NA,choice_trial,survey-html-form,35,322649,0.0-4.0-1.15,204,1,2025-05-05T21:07:01Z,b60275e29fe2361ab97ac0ac217840d7,"Mozilla/5.0 (Macintosh; Intel Mac OS X 10_15_7) AppleWebKit/537.36 (KHTML, like Gecko) Chrome/133.0.0.0 Safari/537.36",Macintosh,Chrome,133.0.0.0,OS X,10_15_7,https://5puzkbbxv1.cognition.run/?sona_id=57580,"en-US,en;q=0.9",aq45phebs1ja5mh,21,"[""White""]",No,Female,NA,No,807616.3999999762,NA,6315,NA,"{""product_choice"":""A""}",choice,tcd,trinary,repulsion_B,2,microwave ovens,null,null,null,null,null,null,1,40,30,40,90,100,80,Warranty,Cooking power,NA,NA
NA,NA,NA,NA,NA,choice_trial_setup,html-keyboard-response,36,322953,0.0-4.0-0.16,204,1,2025-05-05T21:07:01Z,b60275e29fe2361ab97ac0ac217840d7,"Mozilla/5.0 (Macintosh; Intel Mac OS X 10_15_7) AppleWebKit/537.36 (KHTML, like Gecko) Chrome/133.0.0.0 Safari/537.36",Macintosh,Chrome,133.0.0.0,OS X,10_15_7,https://5puzkbbxv1.cognition.run/?sona_id=57580,"en-US,en;q=0.9",aq45phebs1ja5mh,21,"[""White""]",No,Female,NA,No,807616.3999999762,NA,null,<p></p>,null,choice,bww,trinary,catch,null,microwave ovens,55,70,25,30,15,20,1,NA,NA,NA,NA,NA,NA,NA,NA,NA,NA
NA,NA,NA,NA,NA,choice_trial,survey-html-form,37,327281,0.0-4.0-1.16,204,1,2025-05-05T21:07:01Z,b60275e29fe2361ab97ac0ac217840d7,"Mozilla/5.0 (Macintosh; Intel Mac OS X 10_15_7) AppleWebKit/537.36 (KHTML, like Gecko) Chrome/133.0.0.0 Safari/537.36",Macintosh,Chrome,133.0.0.0,OS X,10_15_7,https://5puzkbbxv1.cognition.run/?sona_id=57580,"en-US,en;q=0.9",aq45phebs1ja5mh,21,"[""White""]",No,Female,NA,No,807616.3999999762,NA,4323,NA,"{""product_choice"":""A""}",choice,bww,trinary,catch,null,microwave ovens,55,70,25,30,15,20,1,null,null,null,null,null,null,Warranty,Cooking power,NA,NA
NA,NA,NA,NA,NA,choice_trial_setup,html-keyboard-response,38,327586,0.0-4.0-0.17,204,1,2025-05-05T21:07:01Z,b60275e29fe2361ab97ac0ac217840d7,"Mozilla/5.0 (Macintosh; Intel Mac OS X 10_15_7) AppleWebKit/537.36 (KHTML, like Gecko) Chrome/133.0.0.0 Safari/537.36",Macintosh,Chrome,133.0.0.0,OS X,10_15_7,https://5puzkbbxv1.cognition.run/?sona_id=57580,"en-US,en;q=0.9",aq45phebs1ja5mh,21,"[""White""]",No,Female,NA,No,807616.3999999762,NA,null,<p></p>,null,choice,tdc,trinary,repulsion_A,1,microwave ovens,null,null,null,null,null,null,1,NA,NA,NA,NA,NA,NA,NA,NA,NA,NA
NA,NA,NA,NA,NA,choice_trial,survey-html-form,39,337839,0.0-4.0-1.17,204,1,2025-05-05T21:07:01Z,b60275e29fe2361ab97ac0ac217840d7,"Mozilla/5.0 (Macintosh; Intel Mac OS X 10_15_7) AppleWebKit/537.36 (KHTML, like Gecko) Chrome/133.0.0.0 Safari/537.36",Macintosh,Chrome,133.0.0.0,OS X,10_15_7,https://5puzkbbxv1.cognition.run/?sona_id=57580,"en-US,en;q=0.9",aq45phebs1ja5mh,21,"[""White""]",No,Female,NA,No,807616.3999999762,NA,10248,NA,"{""product_choice"":""A""}",choice,tdc,trinary,repulsion_A,1,microwave ovens,null,null,null,null,null,null,1,100,90,100,30,40,20,Warranty,Cooking power,NA,NA
NA,NA,NA,NA,NA,choice_trial_setup,html-keyboard-response,40,338146,0.0-4.0-0.18,204,1,2025-05-05T21:07:01Z,b60275e29fe2361ab97ac0ac217840d7,"Mozilla/5.0 (Macintosh; Intel Mac OS X 10_15_7) AppleWebKit/537.36 (KHTML, like Gecko) Chrome/133.0.0.0 Safari/537.36",Macintosh,Chrome,133.0.0.0,OS X,10_15_7,https://5puzkbbxv1.cognition.run/?sona_id=57580,"en-US,en;q=0.9",aq45phebs1ja5mh,21,"[""White""]",No,Female,NA,No,807616.3999999762,NA,null,<p></p>,null,choice,tdc,trinary,repulsion_B,1,microwave ovens,null,null,null,null,null,null,2,NA,NA,NA,NA,NA,NA,NA,NA,NA,NA
NA,NA,NA,NA,NA,choice_trial,survey-html-form,41,357875,0.0-4.0-1.18,204,1,2025-05-05T21:07:01Z,b60275e29fe2361ab97ac0ac217840d7,"Mozilla/5.0 (Macintosh; Intel Mac OS X 10_15_7) AppleWebKit/537.36 (KHTML, like Gecko) Chrome/133.0.0.0 Safari/537.36",Macintosh,Chrome,133.0.0.0,OS X,10_15_7,https://5puzkbbxv1.cognition.run/?sona_id=57580,"en-US,en;q=0.9",aq45phebs1ja5mh,21,"[""White""]",No,Female,NA,No,807616.3999999762,NA,19725,NA,"{""product_choice"":""A""}",choice,tdc,trinary,repulsion_B,1,microwave ovens,null,null,null,null,null,null,2,90,100,80,40,30,40,Warranty,Cooking power,NA,NA
NA,NA,NA,NA,NA,choice_trial_setup,html-keyboard-response,42,358180,0.0-4.0-0.19,204,1,2025-05-05T21:07:01Z,b60275e29fe2361ab97ac0ac217840d7,"Mozilla/5.0 (Macintosh; Intel Mac OS X 10_15_7) AppleWebKit/537.36 (KHTML, like Gecko) Chrome/133.0.0.0 Safari/537.36",Macintosh,Chrome,133.0.0.0,OS X,10_15_7,https://5puzkbbxv1.cognition.run/?sona_id=57580,"en-US,en;q=0.9",aq45phebs1ja5mh,21,"[""White""]",No,Female,NA,No,807616.3999999762,NA,null,<p></p>,null,choice,cdt,trinary,repulsion_A,1,televisions,null,null,null,null,null,null,2,NA,NA,NA,NA,NA,NA,NA,NA,NA,NA
NA,NA,NA,NA,NA,choice_trial,survey-html-form,43,369110,0.0-4.0-1.19,204,1,2025-05-05T21:07:01Z,b60275e29fe2361ab97ac0ac217840d7,"Mozilla/5.0 (Macintosh; Intel Mac OS X 10_15_7) AppleWebKit/537.36 (KHTML, like Gecko) Chrome/133.0.0.0 Safari/537.36",Macintosh,Chrome,133.0.0.0,OS X,10_15_7,https://5puzkbbxv1.cognition.run/?sona_id=57580,"en-US,en;q=0.9",aq45phebs1ja5mh,21,"[""White""]",No,Female,NA,No,807616.3999999762,NA,10925,NA,"{""product_choice"":""A""}",choice,cdt,trinary,repulsion_A,1,televisions,null,null,null,null,null,null,2,100,90,100,30,40,20,Screen size,Average lifespan,NA,NA
NA,NA,NA,NA,NA,choice_trial_setup,html-keyboard-response,44,369413,0.0-4.0-0.20,204,1,2025-05-05T21:07:01Z,b60275e29fe2361ab97ac0ac217840d7,"Mozilla/5.0 (Macintosh; Intel Mac OS X 10_15_7) AppleWebKit/537.36 (KHTML, like Gecko) Chrome/133.0.0.0 Safari/537.36",Macintosh,Chrome,133.0.0.0,OS X,10_15_7,https://5puzkbbxv1.cognition.run/?sona_id=57580,"en-US,en;q=0.9",aq45phebs1ja5mh,21,"[""White""]",No,Female,NA,No,807616.3999999762,NA,null,<p></p>,null,choice,dtc,trinary,repulsion_A,2,microwave ovens,null,null,null,null,null,null,1,NA,NA,NA,NA,NA,NA,NA,NA,NA,NA
NA,NA,NA,NA,NA,choice_trial,survey-html-form,45,378002,0.0-4.0-1.20,204,1,2025-05-05T21:07:01Z,b60275e29fe2361ab97ac0ac217840d7,"Mozilla/5.0 (Macintosh; Intel Mac OS X 10_15_7) AppleWebKit/537.36 (KHTML, like Gecko) Chrome/133.0.0.0 Safari/537.36",Macintosh,Chrome,133.0.0.0,OS X,10_15_7,https://5puzkbbxv1.cognition.run/?sona_id=57580,"en-US,en;q=0.9",aq45phebs1ja5mh,21,"[""White""]",No,Female,NA,No,807616.3999999762,NA,8584,NA,"{""product_choice"":""C""}",choice,dtc,trinary,repulsion_A,2,microwave ovens,null,null,null,null,null,null,1,30,40,20,100,90,100,Warranty,Cooking power,NA,NA
NA,NA,NA,NA,NA,choice_trial_setup,html-keyboard-response,46,378306,0.0-4.0-0.21,204,1,2025-05-05T21:07:01Z,b60275e29fe2361ab97ac0ac217840d7,"Mozilla/5.0 (Macintosh; Intel Mac OS X 10_15_7) AppleWebKit/537.36 (KHTML, like Gecko) Chrome/133.0.0.0 Safari/537.36",Macintosh,Chrome,133.0.0.0,OS X,10_15_7,https://5puzkbbxv1.cognition.run/?sona_id=57580,"en-US,en;q=0.9",aq45phebs1ja5mh,21,"[""White""]",No,Female,NA,No,807616.3999999762,NA,null,<p></p>,null,choice,wb,binary,catch,null,televisions,65,70,50,50,null,null,2,NA,NA,NA,NA,NA,NA,NA,NA,NA,NA
NA,NA,NA,NA,NA,choice_trial,survey-html-form,47,386247,0.0-4.0-1.21,204,1,2025-05-05T21:07:01Z,b60275e29fe2361ab97ac0ac217840d7,"Mozilla/5.0 (Macintosh; Intel Mac OS X 10_15_7) AppleWebKit/537.36 (KHTML, like Gecko) Chrome/133.0.0.0 Safari/537.36",Macintosh,Chrome,133.0.0.0,OS X,10_15_7,https://5puzkbbxv1.cognition.run/?sona_id=57580,"en-US,en;q=0.9",aq45phebs1ja5mh,21,"[""White""]",No,Female,NA,No,807616.3999999762,NA,7937,NA,"{""product_choice"":""B""}",choice,wb,binary,catch,null,televisions,65,70,50,50,null,null,2,null,null,null,null,null,null,Screen size,Average lifespan,NA,NA
NA,NA,NA,NA,NA,choice_trial_setup,html-keyboard-response,48,386551,0.0-4.0-0.22,204,1,2025-05-05T21:07:01Z,b60275e29fe2361ab97ac0ac217840d7,"Mozilla/5.0 (Macintosh; Intel Mac OS X 10_15_7) AppleWebKit/537.36 (KHTML, like Gecko) Chrome/133.0.0.0 Safari/537.36",Macintosh,Chrome,133.0.0.0,OS X,10_15_7,https://5puzkbbxv1.cognition.run/?sona_id=57580,"en-US,en;q=0.9",aq45phebs1ja5mh,21,"[""White""]",No,Female,NA,No,807616.3999999762,NA,null,<p></p>,null,choice,tc,binary,repulsion,2,washing machines,null,null,null,null,null,null,1,NA,NA,NA,NA,NA,NA,NA,NA,NA,NA
NA,NA,NA,NA,NA,choice_trial,survey-html-form,49,399378,0.0-4.0-1.22,204,1,2025-05-05T21:07:01Z,b60275e29fe2361ab97ac0ac217840d7,"Mozilla/5.0 (Macintosh; Intel Mac OS X 10_15_7) AppleWebKit/537.36 (KHTML, like Gecko) Chrome/133.0.0.0 Safari/537.36",Macintosh,Chrome,133.0.0.0,OS X,10_15_7,https://5puzkbbxv1.cognition.run/?sona_id=57580,"en-US,en;q=0.9",aq45phebs1ja5mh,21,"[""White""]",No,Female,NA,No,807616.3999999762,NA,12823,NA,"{""product_choice"":""B""}",choice,tc,binary,repulsion,2,washing machines,null,null,null,null,null,null,1,30,40,null,100,90,null,Average lifespan,Energy savings,NA,NA
NA,NA,NA,NA,NA,choice_trial_setup,html-keyboard-response,50,399683,0.0-4.0-0.23,204,1,2025-05-05T21:07:01Z,b60275e29fe2361ab97ac0ac217840d7,"Mozilla/5.0 (Macintosh; Intel Mac OS X 10_15_7) AppleWebKit/537.36 (KHTML, like Gecko) Chrome/133.0.0.0 Safari/537.36",Macintosh,Chrome,133.0.0.0,OS X,10_15_7,https://5puzkbbxv1.cognition.run/?sona_id=57580,"en-US,en;q=0.9",aq45phebs1ja5mh,21,"[""White""]",No,Female,NA,No,807616.3999999762,NA,null,<p></p>,null,choice,dct,trinary,repulsion_B,1,laptops,null,null,null,null,null,null,2,NA,NA,NA,NA,NA,NA,NA,NA,NA,NA
NA,NA,NA,NA,NA,choice_trial,survey-html-form,51,410016,0.0-4.0-1.23,204,1,2025-05-05T21:07:01Z,b60275e29fe2361ab97ac0ac217840d7,"Mozilla/5.0 (Macintosh; Intel Mac OS X 10_15_7) AppleWebKit/537.36 (KHTML, like Gecko) Chrome/133.0.0.0 Safari/537.36",Macintosh,Chrome,133.0.0.0,OS X,10_15_7,https://5puzkbbxv1.cognition.run/?sona_id=57580,"en-US,en;q=0.9",aq45phebs1ja5mh,21,"[""White""]",No,Female,NA,No,807616.3999999762,NA,10327,NA,"{""product_choice"":""C""}",choice,dct,trinary,repulsion_B,1,laptops,null,null,null,null,null,null,2,90,100,80,40,30,40,Processing speed,Memory (RAM),NA,NA
NA,NA,NA,NA,NA,choice_trial_setup,html-keyboard-response,52,410319,0.0-4.0-0.24,204,1,2025-05-05T21:07:01Z,b60275e29fe2361ab97ac0ac217840d7,"Mozilla/5.0 (Macintosh; Intel Mac OS X 10_15_7) AppleWebKit/537.36 (KHTML, like Gecko) Chrome/133.0.0.0 Safari/537.36",Macintosh,Chrome,133.0.0.0,OS X,10_15_7,https://5puzkbbxv1.cognition.run/?sona_id=57580,"en-US,en;q=0.9",aq45phebs1ja5mh,21,"[""White""]",No,Female,NA,No,807616.3999999762,NA,null,<p></p>,null,choice,ctd,trinary,repulsion_B,1,washing machines,null,null,null,null,null,null,2,NA,NA,NA,NA,NA,NA,NA,NA,NA,NA
NA,NA,NA,NA,NA,choice_trial,survey-html-form,53,429311,0.0-4.0-1.24,204,1,2025-05-05T21:07:01Z,b60275e29fe2361ab97ac0ac217840d7,"Mozilla/5.0 (Macintosh; Intel Mac OS X 10_15_7) AppleWebKit/537.36 (KHTML, like Gecko) Chrome/133.0.0.0 Safari/537.36",Macintosh,Chrome,133.0.0.0,OS X,10_15_7,https://5puzkbbxv1.cognition.run/?sona_id=57580,"en-US,en;q=0.9",aq45phebs1ja5mh,21,"[""White""]",No,Female,NA,No,807616.3999999762,NA,18987,NA,"{""product_choice"":""B""}",choice,ctd,trinary,repulsion_B,1,washing machines,null,null,null,null,null,null,2,90,100,80,40,30,40,Average lifespan,Energy savings,NA,NA
NA,NA,NA,NA,NA,choice_trial_setup,html-keyboard-response,54,429616,0.0-4.0-0.25,204,1,2025-05-05T21:07:01Z,b60275e29fe2361ab97ac0ac217840d7,"Mozilla/5.0 (Macintosh; Intel Mac OS X 10_15_7) AppleWebKit/537.36 (KHTML, like Gecko) Chrome/133.0.0.0 Safari/537.36",Macintosh,Chrome,133.0.0.0,OS X,10_15_7,https://5puzkbbxv1.cognition.run/?sona_id=57580,"en-US,en;q=0.9",aq45phebs1ja5mh,21,"[""White""]",No,Female,NA,No,807616.3999999762,NA,null,<p></p>,null,choice,ctd,trinary,repulsion_B,1,televisions,null,null,null,null,null,null,2,NA,NA,NA,NA,NA,NA,NA,NA,NA,NA
NA,NA,NA,NA,NA,choice_trial,survey-html-form,55,435469,0.0-4.0-1.25,204,1,2025-05-05T21:07:01Z,b60275e29fe2361ab97ac0ac217840d7,"Mozilla/5.0 (Macintosh; Intel Mac OS X 10_15_7) AppleWebKit/537.36 (KHTML, like Gecko) Chrome/133.0.0.0 Safari/537.36",Macintosh,Chrome,133.0.0.0,OS X,10_15_7,https://5puzkbbxv1.cognition.run/?sona_id=57580,"en-US,en;q=0.9",aq45phebs1ja5mh,21,"[""White""]",No,Female,NA,No,807616.3999999762,NA,5847,NA,"{""product_choice"":""B""}",choice,ctd,trinary,repulsion_B,1,televisions,null,null,null,null,null,null,2,90,100,80,40,30,40,Screen size,Average lifespan,NA,NA
NA,NA,NA,NA,NA,choice_trial_setup,html-keyboard-response,56,435772,0.0-4.0-0.26,204,1,2025-05-05T21:07:01Z,b60275e29fe2361ab97ac0ac217840d7,"Mozilla/5.0 (Macintosh; Intel Mac OS X 10_15_7) AppleWebKit/537.36 (KHTML, like Gecko) Chrome/133.0.0.0 Safari/537.36",Macintosh,Chrome,133.0.0.0,OS X,10_15_7,https://5puzkbbxv1.cognition.run/?sona_id=57580,"en-US,en;q=0.9",aq45phebs1ja5mh,21,"[""White""]",No,Female,NA,No,807616.3999999762,NA,null,<p></p>,null,choice,ct,binary,repulsion,1,televisions,null,null,null,null,null,null,1,NA,NA,NA,NA,NA,NA,NA,NA,NA,NA
NA,NA,NA,NA,NA,choice_trial,survey-html-form,57,442316,0.0-4.0-1.26,204,1,2025-05-05T21:07:01Z,b60275e29fe2361ab97ac0ac217840d7,"Mozilla/5.0 (Macintosh; Intel Mac OS X 10_15_7) AppleWebKit/537.36 (KHTML, like Gecko) Chrome/133.0.0.0 Safari/537.36",Macintosh,Chrome,133.0.0.0,OS X,10_15_7,https://5puzkbbxv1.cognition.run/?sona_id=57580,"en-US,en;q=0.9",aq45phebs1ja5mh,21,"[""White""]",No,Female,NA,No,807616.3999999762,NA,6538,NA,"{""product_choice"":""A""}",choice,ct,binary,repulsion,1,televisions,null,null,null,null,null,null,1,100,90,null,30,40,null,Screen size,Average lifespan,NA,NA
NA,NA,NA,NA,NA,choice_trial_setup,html-keyboard-response,58,442620,0.0-4.0-0.27,204,1,2025-05-05T21:07:01Z,b60275e29fe2361ab97ac0ac217840d7,"Mozilla/5.0 (Macintosh; Intel Mac OS X 10_15_7) AppleWebKit/537.36 (KHTML, like Gecko) Chrome/133.0.0.0 Safari/537.36",Macintosh,Chrome,133.0.0.0,OS X,10_15_7,https://5puzkbbxv1.cognition.run/?sona_id=57580,"en-US,en;q=0.9",aq45phebs1ja5mh,21,"[""White""]",No,Female,NA,No,807616.3999999762,NA,null,<p></p>,null,choice,tcd,trinary,repulsion_A,2,televisions,null,null,null,null,null,null,1,NA,NA,NA,NA,NA,NA,NA,NA,NA,NA
NA,NA,NA,NA,NA,choice_trial,survey-html-form,59,451263,0.0-4.0-1.27,204,1,2025-05-05T21:07:01Z,b60275e29fe2361ab97ac0ac217840d7,"Mozilla/5.0 (Macintosh; Intel Mac OS X 10_15_7) AppleWebKit/537.36 (KHTML, like Gecko) Chrome/133.0.0.0 Safari/537.36",Macintosh,Chrome,133.0.0.0,OS X,10_15_7,https://5puzkbbxv1.cognition.run/?sona_id=57580,"en-US,en;q=0.9",aq45phebs1ja5mh,21,"[""White""]",No,Female,NA,No,807616.3999999762,NA,8637,NA,"{""product_choice"":""B""}",choice,tcd,trinary,repulsion_A,2,televisions,null,null,null,null,null,null,1,30,40,20,100,90,100,Screen size,Average lifespan,NA,NA
NA,NA,NA,NA,NA,choice_trial_setup,html-keyboard-response,60,451566,0.0-4.0-0.28,204,1,2025-05-05T21:07:01Z,b60275e29fe2361ab97ac0ac217840d7,"Mozilla/5.0 (Macintosh; Intel Mac OS X 10_15_7) AppleWebKit/537.36 (KHTML, like Gecko) Chrome/133.0.0.0 Safari/537.36",Macintosh,Chrome,133.0.0.0,OS X,10_15_7,https://5puzkbbxv1.cognition.run/?sona_id=57580,"en-US,en;q=0.9",aq45phebs1ja5mh,21,"[""White""]",No,Female,NA,No,807616.3999999762,NA,null,<p></p>,null,choice,ct,binary,repulsion,1,microwave ovens,null,null,null,null,null,null,1,NA,NA,NA,NA,NA,NA,NA,NA,NA,NA
NA,NA,NA,NA,NA,choice_trial,survey-html-form,61,458838,0.0-4.0-1.28,204,1,2025-05-05T21:07:01Z,b60275e29fe2361ab97ac0ac217840d7,"Mozilla/5.0 (Macintosh; Intel Mac OS X 10_15_7) AppleWebKit/537.36 (KHTML, like Gecko) Chrome/133.0.0.0 Safari/537.36",Macintosh,Chrome,133.0.0.0,OS X,10_15_7,https://5puzkbbxv1.cognition.run/?sona_id=57580,"en-US,en;q=0.9",aq45phebs1ja5mh,21,"[""White""]",No,Female,NA,No,807616.3999999762,NA,7266,NA,"{""product_choice"":""A""}",choice,ct,binary,repulsion,1,microwave ovens,null,null,null,null,null,null,1,100,90,null,30,40,null,Warranty,Cooking power,NA,NA
NA,NA,NA,NA,NA,choice_trial_setup,html-keyboard-response,62,459143,0.0-4.0-0.29,204,1,2025-05-05T21:07:01Z,b60275e29fe2361ab97ac0ac217840d7,"Mozilla/5.0 (Macintosh; Intel Mac OS X 10_15_7) AppleWebKit/537.36 (KHTML, like Gecko) Chrome/133.0.0.0 Safari/537.36",Macintosh,Chrome,133.0.0.0,OS X,10_15_7,https://5puzkbbxv1.cognition.run/?sona_id=57580,"en-US,en;q=0.9",aq45phebs1ja5mh,21,"[""White""]",No,Female,NA,No,807616.3999999762,NA,null,<p></p>,null,choice,bw,binary,catch,null,washing machines,50,75,25,40,null,null,2,NA,NA,NA,NA,NA,NA,NA,NA,NA,NA
NA,NA,NA,NA,NA,choice_trial,survey-html-form,63,463703,0.0-4.0-1.29,204,1,2025-05-05T21:07:01Z,b60275e29fe2361ab97ac0ac217840d7,"Mozilla/5.0 (Macintosh; Intel Mac OS X 10_15_7) AppleWebKit/537.36 (KHTML, like Gecko) Chrome/133.0.0.0 Safari/537.36",Macintosh,Chrome,133.0.0.0,OS X,10_15_7,https://5puzkbbxv1.cognition.run/?sona_id=57580,"en-US,en;q=0.9",aq45phebs1ja5mh,21,"[""White""]",No,Female,NA,No,807616.3999999762,NA,4553,NA,"{""product_choice"":""A""}",choice,bw,binary,catch,null,washing machines,50,75,25,40,null,null,2,null,null,null,null,null,null,Average lifespan,Energy savings,NA,NA
NA,NA,NA,NA,NA,choice_trial_setup,html-keyboard-response,64,464007,0.0-4.0-0.30,204,1,2025-05-05T21:07:01Z,b60275e29fe2361ab97ac0ac217840d7,"Mozilla/5.0 (Macintosh; Intel Mac OS X 10_15_7) AppleWebKit/537.36 (KHTML, like Gecko) Chrome/133.0.0.0 Safari/537.36",Macintosh,Chrome,133.0.0.0,OS X,10_15_7,https://5puzkbbxv1.cognition.run/?sona_id=57580,"en-US,en;q=0.9",aq45phebs1ja5mh,21,"[""White""]",No,Female,NA,No,807616.3999999762,NA,null,<p></p>,null,choice,ctd,trinary,attraction,2,televisions,null,null,null,null,null,null,2,NA,NA,NA,NA,NA,NA,NA,NA,NA,NA
NA,NA,NA,NA,NA,choice_trial,survey-html-form,65,472110,0.0-4.0-1.30,204,1,2025-05-05T21:07:01Z,b60275e29fe2361ab97ac0ac217840d7,"Mozilla/5.0 (Macintosh; Intel Mac OS X 10_15_7) AppleWebKit/537.36 (KHTML, like Gecko) Chrome/133.0.0.0 Safari/537.36",Macintosh,Chrome,133.0.0.0,OS X,10_15_7,https://5puzkbbxv1.cognition.run/?sona_id=57580,"en-US,en;q=0.9",aq45phebs1ja5mh,21,"[""White""]",No,Female,NA,No,807616.3999999762,NA,8097,NA,"{""product_choice"":""B""}",choice,ctd,trinary,attraction,2,televisions,null,null,null,null,null,null,2,50,60,40,60,50,60,Screen size,Average lifespan,NA,NA
NA,NA,NA,NA,NA,choice_trial_setup,html-keyboard-response,66,472415,0.0-4.0-0.31,204,1,2025-05-05T21:07:01Z,b60275e29fe2361ab97ac0ac217840d7,"Mozilla/5.0 (Macintosh; Intel Mac OS X 10_15_7) AppleWebKit/537.36 (KHTML, like Gecko) Chrome/133.0.0.0 Safari/537.36",Macintosh,Chrome,133.0.0.0,OS X,10_15_7,https://5puzkbbxv1.cognition.run/?sona_id=57580,"en-US,en;q=0.9",aq45phebs1ja5mh,21,"[""White""]",No,Female,NA,No,807616.3999999762,NA,null,<p></p>,null,choice,ct,binary,repulsion,1,laptops,null,null,null,null,null,null,2,NA,NA,NA,NA,NA,NA,NA,NA,NA,NA
NA,NA,NA,NA,NA,choice_trial,survey-html-form,67,477777,0.0-4.0-1.31,204,1,2025-05-05T21:07:01Z,b60275e29fe2361ab97ac0ac217840d7,"Mozilla/5.0 (Macintosh; Intel Mac OS X 10_15_7) AppleWebKit/537.36 (KHTML, like Gecko) Chrome/133.0.0.0 Safari/537.36",Macintosh,Chrome,133.0.0.0,OS X,10_15_7,https://5puzkbbxv1.cognition.run/?sona_id=57580,"en-US,en;q=0.9",aq45phebs1ja5mh,21,"[""White""]",No,Female,NA,No,807616.3999999762,NA,5358,NA,"{""product_choice"":""A""}",choice,ct,binary,repulsion,1,laptops,null,null,null,null,null,null,2,100,90,null,30,40,null,Processing speed,Memory (RAM),NA,NA
NA,NA,NA,NA,NA,choice_trial_setup,html-keyboard-response,68,478083,0.0-4.0-0.32,204,1,2025-05-05T21:07:01Z,b60275e29fe2361ab97ac0ac217840d7,"Mozilla/5.0 (Macintosh; Intel Mac OS X 10_15_7) AppleWebKit/537.36 (KHTML, like Gecko) Chrome/133.0.0.0 Safari/537.36",Macintosh,Chrome,133.0.0.0,OS X,10_15_7,https://5puzkbbxv1.cognition.run/?sona_id=57580,"en-US,en;q=0.9",aq45phebs1ja5mh,21,"[""White""]",No,Female,NA,No,807616.3999999762,NA,null,<p></p>,null,choice,cdt,trinary,repulsion_B,2,washing machines,null,null,null,null,null,null,1,NA,NA,NA,NA,NA,NA,NA,NA,NA,NA
NA,NA,NA,NA,NA,choice_trial,survey-html-form,69,488599,0.0-4.0-1.32,204,1,2025-05-05T21:07:01Z,b60275e29fe2361ab97ac0ac217840d7,"Mozilla/5.0 (Macintosh; Intel Mac OS X 10_15_7) AppleWebKit/537.36 (KHTML, like Gecko) Chrome/133.0.0.0 Safari/537.36",Macintosh,Chrome,133.0.0.0,OS X,10_15_7,https://5puzkbbxv1.cognition.run/?sona_id=57580,"en-US,en;q=0.9",aq45phebs1ja5mh,21,"[""White""]",No,Female,NA,No,807616.3999999762,NA,10508,NA,"{""product_choice"":""C""}",choice,cdt,trinary,repulsion_B,2,washing machines,null,null,null,null,null,null,1,40,30,40,90,100,80,Average lifespan,Energy savings,NA,NA
NA,NA,NA,NA,NA,choice_trial_setup,html-keyboard-response,70,488903,0.0-4.0-0.33,204,1,2025-05-05T21:07:01Z,b60275e29fe2361ab97ac0ac217840d7,"Mozilla/5.0 (Macintosh; Intel Mac OS X 10_15_7) AppleWebKit/537.36 (KHTML, like Gecko) Chrome/133.0.0.0 Safari/537.36",Macintosh,Chrome,133.0.0.0,OS X,10_15_7,https://5puzkbbxv1.cognition.run/?sona_id=57580,"en-US,en;q=0.9",aq45phebs1ja5mh,21,"[""White""]",No,Female,NA,No,807616.3999999762,NA,null,<p></p>,null,choice,ct,binary,attraction,NA,microwave ovens,null,null,null,null,null,null,1,NA,NA,NA,NA,NA,NA,NA,NA,NA,NA
NA,NA,NA,NA,NA,choice_trial,survey-html-form,71,513929,0.0-4.0-1.33,204,1,2025-05-05T21:07:01Z,b60275e29fe2361ab97ac0ac217840d7,"Mozilla/5.0 (Macintosh; Intel Mac OS X 10_15_7) AppleWebKit/537.36 (KHTML, like Gecko) Chrome/133.0.0.0 Safari/537.36",Macintosh,Chrome,133.0.0.0,OS X,10_15_7,https://5puzkbbxv1.cognition.run/?sona_id=57580,"en-US,en;q=0.9",aq45phebs1ja5mh,21,"[""White""]",No,Female,NA,No,807616.3999999762,NA,25019,NA,"{""product_choice"":""B""}",choice,ct,binary,attraction,NA,microwave ovens,null,null,null,null,null,null,1,60,50,null,50,60,null,Warranty,Cooking power,NA,NA
NA,NA,NA,NA,NA,choice_trial_setup,html-keyboard-response,72,514234,0.0-4.0-0.34,204,1,2025-05-05T21:07:01Z,b60275e29fe2361ab97ac0ac217840d7,"Mozilla/5.0 (Macintosh; Intel Mac OS X 10_15_7) AppleWebKit/537.36 (KHTML, like Gecko) Chrome/133.0.0.0 Safari/537.36",Macintosh,Chrome,133.0.0.0,OS X,10_15_7,https://5puzkbbxv1.cognition.run/?sona_id=57580,"en-US,en;q=0.9",aq45phebs1ja5mh,21,"[""White""]",No,Female,NA,No,807616.3999999762,NA,null,<p></p>,null,choice,dtc,trinary,repulsion_A,1,laptops,null,null,null,null,null,null,2,NA,NA,NA,NA,NA,NA,NA,NA,NA,NA
NA,NA,NA,NA,NA,choice_trial,survey-html-form,73,519007,0.0-4.0-1.34,204,1,2025-05-05T21:07:01Z,b60275e29fe2361ab97ac0ac217840d7,"Mozilla/5.0 (Macintosh; Intel Mac OS X 10_15_7) AppleWebKit/537.36 (KHTML, like Gecko) Chrome/133.0.0.0 Safari/537.36",Macintosh,Chrome,133.0.0.0,OS X,10_15_7,https://5puzkbbxv1.cognition.run/?sona_id=57580,"en-US,en;q=0.9",aq45phebs1ja5mh,21,"[""White""]",No,Female,NA,No,807616.3999999762,NA,4767,NA,"{""product_choice"":""C""}",choice,dtc,trinary,repulsion_A,1,laptops,null,null,null,null,null,null,2,100,90,100,30,40,20,Processing speed,Memory (RAM),NA,NA
NA,NA,NA,NA,NA,choice_trial_setup,html-keyboard-response,74,519312,0.0-4.0-0.35,204,1,2025-05-05T21:07:01Z,b60275e29fe2361ab97ac0ac217840d7,"Mozilla/5.0 (Macintosh; Intel Mac OS X 10_15_7) AppleWebKit/537.36 (KHTML, like Gecko) Chrome/133.0.0.0 Safari/537.36",Macintosh,Chrome,133.0.0.0,OS X,10_15_7,https://5puzkbbxv1.cognition.run/?sona_id=57580,"en-US,en;q=0.9",aq45phebs1ja5mh,21,"[""White""]",No,Female,NA,No,807616.3999999762,NA,null,<p></p>,null,choice,dtc,trinary,attraction,1,laptops,null,null,null,null,null,null,2,NA,NA,NA,NA,NA,NA,NA,NA,NA,NA
NA,NA,NA,NA,NA,choice_trial,survey-html-form,75,526417,0.0-4.0-1.35,204,1,2025-05-05T21:07:01Z,b60275e29fe2361ab97ac0ac217840d7,"Mozilla/5.0 (Macintosh; Intel Mac OS X 10_15_7) AppleWebKit/537.36 (KHTML, like Gecko) Chrome/133.0.0.0 Safari/537.36",Macintosh,Chrome,133.0.0.0,OS X,10_15_7,https://5puzkbbxv1.cognition.run/?sona_id=57580,"en-US,en;q=0.9",aq45phebs1ja5mh,21,"[""White""]",No,Female,NA,No,807616.3999999762,NA,7102,NA,"{""product_choice"":""B""}",choice,dtc,trinary,attraction,1,laptops,null,null,null,null,null,null,2,60,50,60,50,60,40,Processing speed,Memory (RAM),NA,NA
NA,NA,NA,NA,NA,choice_trial_setup,html-keyboard-response,76,526723,0.0-4.0-0.36,204,1,2025-05-05T21:07:01Z,b60275e29fe2361ab97ac0ac217840d7,"Mozilla/5.0 (Macintosh; Intel Mac OS X 10_15_7) AppleWebKit/537.36 (KHTML, like Gecko) Chrome/133.0.0.0 Safari/537.36",Macintosh,Chrome,133.0.0.0,OS X,10_15_7,https://5puzkbbxv1.cognition.run/?sona_id=57580,"en-US,en;q=0.9",aq45phebs1ja5mh,21,"[""White""]",No,Female,NA,No,807616.3999999762,NA,null,<p></p>,null,choice,ct,binary,repulsion,2,microwave ovens,null,null,null,null,null,null,2,NA,NA,NA,NA,NA,NA,NA,NA,NA,NA
NA,NA,NA,NA,NA,choice_trial,survey-html-form,77,531362,0.0-4.0-1.36,204,1,2025-05-05T21:07:01Z,b60275e29fe2361ab97ac0ac217840d7,"Mozilla/5.0 (Macintosh; Intel Mac OS X 10_15_7) AppleWebKit/537.36 (KHTML, like Gecko) Chrome/133.0.0.0 Safari/537.36",Macintosh,Chrome,133.0.0.0,OS X,10_15_7,https://5puzkbbxv1.cognition.run/?sona_id=57580,"en-US,en;q=0.9",aq45phebs1ja5mh,21,"[""White""]",No,Female,NA,No,807616.3999999762,NA,4634,NA,"{""product_choice"":""A""}",choice,ct,binary,repulsion,2,microwave ovens,null,null,null,null,null,null,2,30,40,null,100,90,null,Warranty,Cooking power,NA,NA
NA,NA,NA,NA,NA,choice_trial_setup,html-keyboard-response,78,531667,0.0-4.0-0.37,204,1,2025-05-05T21:07:01Z,b60275e29fe2361ab97ac0ac217840d7,"Mozilla/5.0 (Macintosh; Intel Mac OS X 10_15_7) AppleWebKit/537.36 (KHTML, like Gecko) Chrome/133.0.0.0 Safari/537.36",Macintosh,Chrome,133.0.0.0,OS X,10_15_7,https://5puzkbbxv1.cognition.run/?sona_id=57580,"en-US,en;q=0.9",aq45phebs1ja5mh,21,"[""White""]",No,Female,NA,No,807616.3999999762,NA,null,<p></p>,null,choice,tcd,trinary,repulsion_A,1,washing machines,null,null,null,null,null,null,2,NA,NA,NA,NA,NA,NA,NA,NA,NA,NA
NA,NA,NA,NA,NA,choice_trial,survey-html-form,79,538035,0.0-4.0-1.37,204,1,2025-05-05T21:07:01Z,b60275e29fe2361ab97ac0ac217840d7,"Mozilla/5.0 (Macintosh; Intel Mac OS X 10_15_7) AppleWebKit/537.36 (KHTML, like Gecko) Chrome/133.0.0.0 Safari/537.36",Macintosh,Chrome,133.0.0.0,OS X,10_15_7,https://5puzkbbxv1.cognition.run/?sona_id=57580,"en-US,en;q=0.9",aq45phebs1ja5mh,21,"[""White""]",No,Female,NA,No,807616.3999999762,NA,6362,NA,"{""product_choice"":""B""}",choice,tcd,trinary,repulsion_A,1,washing machines,null,null,null,null,null,null,2,100,90,100,30,40,20,Average lifespan,Energy savings,NA,NA
NA,NA,NA,NA,NA,choice_trial_setup,html-keyboard-response,80,538341,0.0-4.0-0.38,204,1,2025-05-05T21:07:01Z,b60275e29fe2361ab97ac0ac217840d7,"Mozilla/5.0 (Macintosh; Intel Mac OS X 10_15_7) AppleWebKit/537.36 (KHTML, like Gecko) Chrome/133.0.0.0 Safari/537.36",Macintosh,Chrome,133.0.0.0,OS X,10_15_7,https://5puzkbbxv1.cognition.run/?sona_id=57580,"en-US,en;q=0.9",aq45phebs1ja5mh,21,"[""White""]",No,Female,NA,No,807616.3999999762,NA,null,<p></p>,null,choice,tcd,trinary,attraction,2,microwave ovens,null,null,null,null,null,null,2,NA,NA,NA,NA,NA,NA,NA,NA,NA,NA
NA,NA,NA,NA,NA,choice_trial,survey-html-form,81,544858,0.0-4.0-1.38,204,1,2025-05-05T21:07:01Z,b60275e29fe2361ab97ac0ac217840d7,"Mozilla/5.0 (Macintosh; Intel Mac OS X 10_15_7) AppleWebKit/537.36 (KHTML, like Gecko) Chrome/133.0.0.0 Safari/537.36",Macintosh,Chrome,133.0.0.0,OS X,10_15_7,https://5puzkbbxv1.cognition.run/?sona_id=57580,"en-US,en;q=0.9",aq45phebs1ja5mh,21,"[""White""]",No,Female,NA,No,807616.3999999762,NA,6510,NA,"{""product_choice"":""B""}",choice,tcd,trinary,attraction,2,microwave ovens,null,null,null,null,null,null,2,50,60,40,60,50,60,Warranty,Cooking power,NA,NA
NA,NA,NA,NA,NA,choice_trial_setup,html-keyboard-response,82,545163,0.0-4.0-0.39,204,1,2025-05-05T21:07:01Z,b60275e29fe2361ab97ac0ac217840d7,"Mozilla/5.0 (Macintosh; Intel Mac OS X 10_15_7) AppleWebKit/537.36 (KHTML, like Gecko) Chrome/133.0.0.0 Safari/537.36",Macintosh,Chrome,133.0.0.0,OS X,10_15_7,https://5puzkbbxv1.cognition.run/?sona_id=57580,"en-US,en;q=0.9",aq45phebs1ja5mh,21,"[""White""]",No,Female,NA,No,807616.3999999762,NA,null,<p></p>,null,choice,tc,binary,attraction,NA,washing machines,null,null,null,null,null,null,1,NA,NA,NA,NA,NA,NA,NA,NA,NA,NA
NA,NA,NA,NA,NA,choice_trial,survey-html-form,83,554047,0.0-4.0-1.39,204,1,2025-05-05T21:07:01Z,b60275e29fe2361ab97ac0ac217840d7,"Mozilla/5.0 (Macintosh; Intel Mac OS X 10_15_7) AppleWebKit/537.36 (KHTML, like Gecko) Chrome/133.0.0.0 Safari/537.36",Macintosh,Chrome,133.0.0.0,OS X,10_15_7,https://5puzkbbxv1.cognition.run/?sona_id=57580,"en-US,en;q=0.9",aq45phebs1ja5mh,21,"[""White""]",No,Female,NA,No,807616.3999999762,NA,8878,NA,"{""product_choice"":""B""}",choice,tc,binary,attraction,NA,washing machines,null,null,null,null,null,null,1,60,50,null,50,60,null,Average lifespan,Energy savings,NA,NA
NA,NA,NA,NA,NA,choice_trial_setup,html-keyboard-response,84,554353,0.0-4.0-0.40,204,1,2025-05-05T21:07:01Z,b60275e29fe2361ab97ac0ac217840d7,"Mozilla/5.0 (Macintosh; Intel Mac OS X 10_15_7) AppleWebKit/537.36 (KHTML, like Gecko) Chrome/133.0.0.0 Safari/537.36",Macintosh,Chrome,133.0.0.0,OS X,10_15_7,https://5puzkbbxv1.cognition.run/?sona_id=57580,"en-US,en;q=0.9",aq45phebs1ja5mh,21,"[""White""]",No,Female,NA,No,807616.3999999762,NA,null,<p></p>,null,choice,bw,binary,catch,null,laptops,95,95,25,50,null,null,2,NA,NA,NA,NA,NA,NA,NA,NA,NA,NA
NA,NA,NA,NA,NA,choice_trial,survey-html-form,85,559487,0.0-4.0-1.40,204,1,2025-05-05T21:07:01Z,b60275e29fe2361ab97ac0ac217840d7,"Mozilla/5.0 (Macintosh; Intel Mac OS X 10_15_7) AppleWebKit/537.36 (KHTML, like Gecko) Chrome/133.0.0.0 Safari/537.36",Macintosh,Chrome,133.0.0.0,OS X,10_15_7,https://5puzkbbxv1.cognition.run/?sona_id=57580,"en-US,en;q=0.9",aq45phebs1ja5mh,21,"[""White""]",No,Female,NA,No,807616.3999999762,NA,5126,NA,"{""product_choice"":""A""}",choice,bw,binary,catch,null,laptops,95,95,25,50,null,null,2,null,null,null,null,null,null,Processing speed,Memory (RAM),NA,NA
NA,NA,NA,NA,NA,choice_trial_setup,html-keyboard-response,86,559791,0.0-4.0-0.41,204,1,2025-05-05T21:07:01Z,b60275e29fe2361ab97ac0ac217840d7,"Mozilla/5.0 (Macintosh; Intel Mac OS X 10_15_7) AppleWebKit/537.36 (KHTML, like Gecko) Chrome/133.0.0.0 Safari/537.36",Macintosh,Chrome,133.0.0.0,OS X,10_15_7,https://5puzkbbxv1.cognition.run/?sona_id=57580,"en-US,en;q=0.9",aq45phebs1ja5mh,21,"[""White""]",No,Female,NA,No,807616.3999999762,NA,null,<p></p>,null,choice,cdt,trinary,attraction,2,laptops,null,null,null,null,null,null,2,NA,NA,NA,NA,NA,NA,NA,NA,NA,NA
NA,NA,NA,NA,NA,choice_trial,survey-html-form,87,570601,0.0-4.0-1.41,204,1,2025-05-05T21:07:01Z,b60275e29fe2361ab97ac0ac217840d7,"Mozilla/5.0 (Macintosh; Intel Mac OS X 10_15_7) AppleWebKit/537.36 (KHTML, like Gecko) Chrome/133.0.0.0 Safari/537.36",Macintosh,Chrome,133.0.0.0,OS X,10_15_7,https://5puzkbbxv1.cognition.run/?sona_id=57580,"en-US,en;q=0.9",aq45phebs1ja5mh,21,"[""White""]",No,Female,NA,No,807616.3999999762,NA,10804,NA,"{""product_choice"":""A""}",choice,cdt,trinary,attraction,2,laptops,null,null,null,null,null,null,2,50,60,40,60,50,60,Processing speed,Memory (RAM),NA,NA
NA,NA,NA,NA,NA,choice_trial_setup,html-keyboard-response,88,570907,0.0-4.0-0.42,204,1,2025-05-05T21:07:01Z,b60275e29fe2361ab97ac0ac217840d7,"Mozilla/5.0 (Macintosh; Intel Mac OS X 10_15_7) AppleWebKit/537.36 (KHTML, like Gecko) Chrome/133.0.0.0 Safari/537.36",Macintosh,Chrome,133.0.0.0,OS X,10_15_7,https://5puzkbbxv1.cognition.run/?sona_id=57580,"en-US,en;q=0.9",aq45phebs1ja5mh,21,"[""White""]",No,Female,NA,No,807616.3999999762,NA,null,<p></p>,null,choice,wbw,trinary,catch,null,televisions,95,95,10,40,15,40,1,NA,NA,NA,NA,NA,NA,NA,NA,NA,NA
NA,NA,NA,NA,NA,choice_trial,survey-html-form,89,575797,0.0-4.0-1.42,204,1,2025-05-05T21:07:01Z,b60275e29fe2361ab97ac0ac217840d7,"Mozilla/5.0 (Macintosh; Intel Mac OS X 10_15_7) AppleWebKit/537.36 (KHTML, like Gecko) Chrome/133.0.0.0 Safari/537.36",Macintosh,Chrome,133.0.0.0,OS X,10_15_7,https://5puzkbbxv1.cognition.run/?sona_id=57580,"en-US,en;q=0.9",aq45phebs1ja5mh,21,"[""White""]",No,Female,NA,No,807616.3999999762,NA,4882,NA,"{""product_choice"":""B""}",choice,wbw,trinary,catch,null,televisions,95,95,10,40,15,40,1,null,null,null,null,null,null,Screen size,Average lifespan,NA,NA
NA,NA,NA,NA,NA,choice_trial_setup,html-keyboard-response,90,576101,0.0-4.0-0.43,204,1,2025-05-05T21:07:01Z,b60275e29fe2361ab97ac0ac217840d7,"Mozilla/5.0 (Macintosh; Intel Mac OS X 10_15_7) AppleWebKit/537.36 (KHTML, like Gecko) Chrome/133.0.0.0 Safari/537.36",Macintosh,Chrome,133.0.0.0,OS X,10_15_7,https://5puzkbbxv1.cognition.run/?sona_id=57580,"en-US,en;q=0.9",aq45phebs1ja5mh,21,"[""White""]",No,Female,NA,No,807616.3999999762,NA,null,<p></p>,null,choice,dct,trinary,attraction,1,washing machines,null,null,null,null,null,null,1,NA,NA,NA,NA,NA,NA,NA,NA,NA,NA
NA,NA,NA,NA,NA,choice_trial,survey-html-form,91,583147,0.0-4.0-1.43,204,1,2025-05-05T21:07:01Z,b60275e29fe2361ab97ac0ac217840d7,"Mozilla/5.0 (Macintosh; Intel Mac OS X 10_15_7) AppleWebKit/537.36 (KHTML, like Gecko) Chrome/133.0.0.0 Safari/537.36",Macintosh,Chrome,133.0.0.0,OS X,10_15_7,https://5puzkbbxv1.cognition.run/?sona_id=57580,"en-US,en;q=0.9",aq45phebs1ja5mh,21,"[""White""]",No,Female,NA,No,807616.3999999762,NA,7041,NA,"{""product_choice"":""B""}",choice,dct,trinary,attraction,1,washing machines,null,null,null,null,null,null,1,60,50,60,50,60,40,Average lifespan,Energy savings,NA,NA
NA,NA,NA,NA,NA,post_trials_message,html-button-response,92,585887,0.0-5.0,204,1,2025-05-05T21:07:01Z,b60275e29fe2361ab97ac0ac217840d7,"Mozilla/5.0 (Macintosh; Intel Mac OS X 10_15_7) AppleWebKit/537.36 (KHTML, like Gecko) Chrome/133.0.0.0 Safari/537.36",Macintosh,Chrome,133.0.0.0,OS X,10_15_7,https://5puzkbbxv1.cognition.run/?sona_id=57580,"en-US,en;q=0.9",aq45phebs1ja5mh,21,"[""White""]",No,Female,NA,No,807616.3999999762,NA,2734,<p> <b>Thank you for your patience!</b></p><p>  The study will be done after completing a brief form. </p>,0,NA,NA,NA,NA,NA,NA,NA,NA,NA,NA,NA,NA,NA,NA,NA,NA,NA,NA,NA,NA,NA,NA,NA
NA,NA,NA,NA,NA,survey_message,survey-text,93,691541,0.0-6.0,204,1,2025-05-05T21:07:01Z,b60275e29fe2361ab97ac0ac217840d7,"Mozilla/5.0 (Macintosh; Intel Mac OS X 10_15_7) AppleWebKit/537.36 (KHTML, like Gecko) Chrome/133.0.0.0 Safari/537.36",Macintosh,Chrome,133.0.0.0,OS X,10_15_7,https://5puzkbbxv1.cognition.run/?sona_id=57580,"en-US,en;q=0.9",aq45phebs1ja5mh,21,"[""White""]",No,Female,NA,No,807616.3999999762,NA,105647,NA,"{""Q0"":""I picked which factor i cared more about for each product, while also taking into account not letting the ratio of the factors get too uneven""}",NA,NA,NA,NA,NA,NA,NA,NA,NA,NA,NA,NA,NA,NA,NA,NA,NA,NA,NA,NA,NA,"I picked which factor i cared more about for each product, while also taking into account not letting the ratio of the factors get too uneven",NA
NA,NA,NA,NA,NA,demo_age,survey-text,94,702188,0.0-7.0,204,1,2025-05-05T21:07:01Z,b60275e29fe2361ab97ac0ac217840d7,"Mozilla/5.0 (Macintosh; Intel Mac OS X 10_15_7) AppleWebKit/537.36 (KHTML, like Gecko) Chrome/133.0.0.0 Safari/537.36",Macintosh,Chrome,133.0.0.0,OS X,10_15_7,https://5puzkbbxv1.cognition.run/?sona_id=57580,"en-US,en;q=0.9",aq45phebs1ja5mh,21,"[""White""]",No,Female,NA,No,807616.3999999762,NA,10642,NA,"{""Q0"":""21""}",NA,NA,NA,NA,NA,NA,NA,NA,NA,NA,NA,NA,NA,NA,NA,NA,NA,NA,NA,NA,NA,NA,NA
NA,NA,NA,NA,NA,demo_race,survey-multi-select,95,705674,0.0-8.0,204,1,2025-05-05T21:07:01Z,b60275e29fe2361ab97ac0ac217840d7,"Mozilla/5.0 (Macintosh; Intel Mac OS X 10_15_7) AppleWebKit/537.36 (KHTML, like Gecko) Chrome/133.0.0.0 Safari/537.36",Macintosh,Chrome,133.0.0.0,OS X,10_15_7,https://5puzkbbxv1.cognition.run/?sona_id=57580,"en-US,en;q=0.9",aq45phebs1ja5mh,21,"[""White""]",No,Female,NA,No,807616.3999999762,NA,3475,NA,"{""Q0"":[""White""]}",NA,NA,NA,NA,NA,NA,NA,NA,NA,NA,NA,NA,NA,NA,NA,NA,NA,NA,NA,NA,NA,NA,[0]
NA,NA,NA,NA,NA,demo_ethnicity_gender,survey-multi-choice,96,710022,0.0-9.0,204,1,2025-05-05T21:07:01Z,b60275e29fe2361ab97ac0ac217840d7,"Mozilla/5.0 (Macintosh; Intel Mac OS X 10_15_7) AppleWebKit/537.36 (KHTML, like Gecko) Chrome/133.0.0.0 Safari/537.36",Macintosh,Chrome,133.0.0.0,OS X,10_15_7,https://5puzkbbxv1.cognition.run/?sona_id=57580,"en-US,en;q=0.9",aq45phebs1ja5mh,21,"[""White""]",No,Female,NA,No,807616.3999999762,NA,4342,NA,"{""Q0"":""No"",""Q1"":""Female""}",NA,NA,NA,NA,NA,NA,NA,NA,NA,NA,NA,NA,NA,NA,NA,NA,NA,NA,NA,NA,NA,NA,"[0,1]"
NA,NA,NA,NA,NA,demo_countries,survey-text,97,717387,0.0-10.0,204,1,2025-05-05T21:07:01Z,b60275e29fe2361ab97ac0ac217840d7,"Mozilla/5.0 (Macintosh; Intel Mac OS X 10_15_7) AppleWebKit/537.36 (KHTML, like Gecko) Chrome/133.0.0.0 Safari/537.36",Macintosh,Chrome,133.0.0.0,OS X,10_15_7,https://5puzkbbxv1.cognition.run/?sona_id=57580,"en-US,en;q=0.9",aq45phebs1ja5mh,21,"[""White""]",No,Female,NA,No,807616.3999999762,NA,7320,NA,"{""Q0"":""NA""}",NA,NA,NA,NA,NA,NA,NA,NA,NA,NA,NA,NA,NA,NA,NA,NA,NA,NA,NA,NA,NA,NA,NA
NA,NA,NA,NA,NA,demo_prev_study,survey-multi-choice,98,724758,0.0-11.0,204,1,2025-05-05T21:07:01Z,b60275e29fe2361ab97ac0ac217840d7,"Mozilla/5.0 (Macintosh; Intel Mac OS X 10_15_7) AppleWebKit/537.36 (KHTML, like Gecko) Chrome/133.0.0.0 Safari/537.36",Macintosh,Chrome,133.0.0.0,OS X,10_15_7,https://5puzkbbxv1.cognition.run/?sona_id=57580,"en-US,en;q=0.9",aq45phebs1ja5mh,21,"[""White""]",No,Female,NA,No,807616.3999999762,NA,7365,NA,"{""Q0"":""No""}",NA,NA,NA,NA,NA,NA,NA,NA,NA,NA,NA,NA,NA,NA,NA,NA,NA,NA,NA,NA,NA,NA,[0]
NA,NA,NA,NA,NA,post_survey_message,html-keyboard-response,99,735221,0.0-12.0,204,1,2025-05-05T21:07:01Z,b60275e29fe2361ab97ac0ac217840d7,"Mozilla/5.0 (Macintosh; Intel Mac OS X 10_15_7) AppleWebKit/537.36 (KHTML, like Gecko) Chrome/133.0.0.0 Safari/537.36",Macintosh,Chrome,133.0.0.0,OS X,10_15_7,https://5puzkbbxv1.cognition.run/?sona_id=57580,"en-US,en;q=0.9",aq45phebs1ja5mh,21,"[""White""]",No,Female,NA,No,807616.3999999762,NA,10456,NA,j,NA,NA,NA,NA,NA,NA,NA,NA,NA,NA,NA,NA,NA,NA,NA,NA,NA,NA,NA,NA,NA,NA,NA
NA,NA,NA,NA,NA,debrief,image-keyboard-response,100,807580,0.0-13.0,204,1,2025-05-05T21:07:01Z,b60275e29fe2361ab97ac0ac217840d7,"Mozilla/5.0 (Macintosh; Intel Mac OS X 10_15_7) AppleWebKit/537.36 (KHTML, like Gecko) Chrome/133.0.0.0 Safari/537.36",Macintosh,Chrome,133.0.0.0,OS X,10_15_7,https://5puzkbbxv1.cognition.run/?sona_id=57580,"en-US,en;q=0.9",aq45phebs1ja5mh,21,"[""White""]",No,Female,NA,No,807616.3999999762,NA,72347,Judg_choice_debrief.png,p,NA,NA,NA,NA,NA,NA,NA,NA,NA,NA,NA,NA,NA,NA,NA,NA,NA,NA,NA,NA,NA,NA,NA
