success,timeout,failed_images,failed_audio,failed_video,screen_id,trial_type,trial_index,time_elapsed,internal_node_id,run_id,condition,recorded_at,source_code_version,user_agent,device,browser,browser_version,platform,platform_version,referer,accept_language,ppt_id,age,race,ethnicity,gender,other_countries,prev_study,exp_duration,view_history,rt,stimulus,response,phase,order,set,effect,t_high,category,d1_best,d2_best,d1_worst1,d2_worst1,d1_worst2,d2_worst2,first_dim,d1_t,d1_c,d1_d,d2_t,d2_c,d2_d,d1_name,d2_name,strategy_response,question_order
TRUE,FALSE,[],[],[],img preload,preload,0,849,0.0-0.0,205,1,2025-05-05T21:31:16Z,b60275e29fe2361ab97ac0ac217840d7,"Mozilla/5.0 (Macintosh; Intel Mac OS X 10_15_7) AppleWebKit/605.1.15 (KHTML, like Gecko) Version/18.1.1 Safari/605.1.15",Macintosh,Safari,18.1.1,OS X,10_15_7,https://5puzkbbxv1.cognition.run/?sona_id=57474,"en-US,en;q=0.9",e3vdunv2eyr0wq8,19,"[""White""]",No,Female,"NA
",No,1754632.0000000002,NA,NA,NA,NA,NA,NA,NA,NA,NA,NA,NA,NA,NA,NA,NA,NA,NA,NA,NA,NA,NA,NA,NA,NA,NA,NA,NA
NA,NA,NA,NA,NA,computer_message,instructions,1,24776,0.0-1.0,205,1,2025-05-05T21:31:16Z,b60275e29fe2361ab97ac0ac217840d7,"Mozilla/5.0 (Macintosh; Intel Mac OS X 10_15_7) AppleWebKit/605.1.15 (KHTML, like Gecko) Version/18.1.1 Safari/605.1.15",Macintosh,Safari,18.1.1,OS X,10_15_7,https://5puzkbbxv1.cognition.run/?sona_id=57474,"en-US,en;q=0.9",e3vdunv2eyr0wq8,19,"[""White""]",No,Female,"NA
",No,1754632.0000000002,"[{""page_index"":0,""viewing_time"":23922}]",23923,NA,NA,NA,NA,NA,NA,NA,NA,NA,NA,NA,NA,NA,NA,NA,NA,NA,NA,NA,NA,NA,NA,NA,NA,NA
TRUE,NA,NA,NA,NA,NA,fullscreen,2,28173,0.0-2.0,205,1,2025-05-05T21:31:16Z,b60275e29fe2361ab97ac0ac217840d7,"Mozilla/5.0 (Macintosh; Intel Mac OS X 10_15_7) AppleWebKit/605.1.15 (KHTML, like Gecko) Version/18.1.1 Safari/605.1.15",Macintosh,Safari,18.1.1,OS X,10_15_7,https://5puzkbbxv1.cognition.run/?sona_id=57474,"en-US,en;q=0.9",e3vdunv2eyr0wq8,19,"[""White""]",No,Female,"NA
",No,1754632.0000000002,NA,2392,NA,NA,NA,NA,NA,NA,NA,NA,NA,NA,NA,NA,NA,NA,NA,NA,NA,NA,NA,NA,NA,NA,NA,NA,NA
NA,NA,NA,NA,NA,choice_instructions,instructions,3,350276,0.0-3.0,205,1,2025-05-05T21:31:16Z,b60275e29fe2361ab97ac0ac217840d7,"Mozilla/5.0 (Macintosh; Intel Mac OS X 10_15_7) AppleWebKit/605.1.15 (KHTML, like Gecko) Version/18.1.1 Safari/605.1.15",Macintosh,Safari,18.1.1,OS X,10_15_7,https://5puzkbbxv1.cognition.run/?sona_id=57474,"en-US,en;q=0.9",e3vdunv2eyr0wq8,19,"[""White""]",No,Female,"NA
",No,1754632.0000000002,"[{""page_index"":0,""viewing_time"":1317},{""page_index"":1,""viewing_time"":4865},{""page_index"":2,""viewing_time"":136653},{""page_index"":3,""viewing_time"":3531},{""page_index"":4,""viewing_time"":63918},{""page_index"":5,""viewing_time"":45916},{""page_index"":6,""viewing_time"":65899}]",322099,NA,NA,NA,NA,NA,NA,NA,NA,NA,NA,NA,NA,NA,NA,NA,NA,NA,NA,NA,NA,NA,NA,NA,NA,NA
NA,NA,NA,NA,NA,choice_trial_setup,html-keyboard-response,4,350579,0.0-4.0-0.0,205,1,2025-05-05T21:31:16Z,b60275e29fe2361ab97ac0ac217840d7,"Mozilla/5.0 (Macintosh; Intel Mac OS X 10_15_7) AppleWebKit/605.1.15 (KHTML, like Gecko) Version/18.1.1 Safari/605.1.15",Macintosh,Safari,18.1.1,OS X,10_15_7,https://5puzkbbxv1.cognition.run/?sona_id=57474,"en-US,en;q=0.9",e3vdunv2eyr0wq8,19,"[""White""]",No,Female,"NA
",No,1754632.0000000002,NA,null,<p></p>,null,choice,ct,binary,attraction,NA,microwave ovens,null,null,null,null,null,null,1,NA,NA,NA,NA,NA,NA,NA,NA,NA,NA
NA,NA,NA,NA,NA,choice_trial,survey-html-form,5,358813,0.0-4.0-1.0,205,1,2025-05-05T21:31:16Z,b60275e29fe2361ab97ac0ac217840d7,"Mozilla/5.0 (Macintosh; Intel Mac OS X 10_15_7) AppleWebKit/605.1.15 (KHTML, like Gecko) Version/18.1.1 Safari/605.1.15",Macintosh,Safari,18.1.1,OS X,10_15_7,https://5puzkbbxv1.cognition.run/?sona_id=57474,"en-US,en;q=0.9",e3vdunv2eyr0wq8,19,"[""White""]",No,Female,"NA
",No,1754632.0000000002,NA,8225,NA,"{""product_choice"":""A""}",choice,ct,binary,attraction,NA,microwave ovens,null,null,null,null,null,null,1,60,50,null,50,60,null,Warranty,Cooking power,NA,NA
NA,NA,NA,NA,NA,choice_trial_setup,html-keyboard-response,6,359115,0.0-4.0-0.1,205,1,2025-05-05T21:31:16Z,b60275e29fe2361ab97ac0ac217840d7,"Mozilla/5.0 (Macintosh; Intel Mac OS X 10_15_7) AppleWebKit/605.1.15 (KHTML, like Gecko) Version/18.1.1 Safari/605.1.15",Macintosh,Safari,18.1.1,OS X,10_15_7,https://5puzkbbxv1.cognition.run/?sona_id=57474,"en-US,en;q=0.9",e3vdunv2eyr0wq8,19,"[""White""]",No,Female,"NA
",No,1754632.0000000002,NA,null,<p></p>,null,choice,tc,binary,repulsion,1,laptops,null,null,null,null,null,null,1,NA,NA,NA,NA,NA,NA,NA,NA,NA,NA
NA,NA,NA,NA,NA,choice_trial,survey-html-form,7,366000,0.0-4.0-1.1,205,1,2025-05-05T21:31:16Z,b60275e29fe2361ab97ac0ac217840d7,"Mozilla/5.0 (Macintosh; Intel Mac OS X 10_15_7) AppleWebKit/605.1.15 (KHTML, like Gecko) Version/18.1.1 Safari/605.1.15",Macintosh,Safari,18.1.1,OS X,10_15_7,https://5puzkbbxv1.cognition.run/?sona_id=57474,"en-US,en;q=0.9",e3vdunv2eyr0wq8,19,"[""White""]",No,Female,"NA
",No,1754632.0000000002,NA,6882,NA,"{""product_choice"":""B""}",choice,tc,binary,repulsion,1,laptops,null,null,null,null,null,null,1,100,90,null,30,40,null,Processing speed,Memory (RAM),NA,NA
NA,NA,NA,NA,NA,choice_trial_setup,html-keyboard-response,8,366303,0.0-4.0-0.2,205,1,2025-05-05T21:31:16Z,b60275e29fe2361ab97ac0ac217840d7,"Mozilla/5.0 (Macintosh; Intel Mac OS X 10_15_7) AppleWebKit/605.1.15 (KHTML, like Gecko) Version/18.1.1 Safari/605.1.15",Macintosh,Safari,18.1.1,OS X,10_15_7,https://5puzkbbxv1.cognition.run/?sona_id=57474,"en-US,en;q=0.9",e3vdunv2eyr0wq8,19,"[""White""]",No,Female,"NA
",No,1754632.0000000002,NA,null,<p></p>,null,choice,tc,binary,repulsion,2,laptops,null,null,null,null,null,null,2,NA,NA,NA,NA,NA,NA,NA,NA,NA,NA
NA,NA,NA,NA,NA,choice_trial,survey-html-form,9,371179,0.0-4.0-1.2,205,1,2025-05-05T21:31:16Z,b60275e29fe2361ab97ac0ac217840d7,"Mozilla/5.0 (Macintosh; Intel Mac OS X 10_15_7) AppleWebKit/605.1.15 (KHTML, like Gecko) Version/18.1.1 Safari/605.1.15",Macintosh,Safari,18.1.1,OS X,10_15_7,https://5puzkbbxv1.cognition.run/?sona_id=57474,"en-US,en;q=0.9",e3vdunv2eyr0wq8,19,"[""White""]",No,Female,"NA
",No,1754632.0000000002,NA,4873,NA,"{""product_choice"":""B""}",choice,tc,binary,repulsion,2,laptops,null,null,null,null,null,null,2,30,40,null,100,90,null,Processing speed,Memory (RAM),NA,NA
NA,NA,NA,NA,NA,choice_trial_setup,html-keyboard-response,10,371481,0.0-4.0-0.3,205,1,2025-05-05T21:31:16Z,b60275e29fe2361ab97ac0ac217840d7,"Mozilla/5.0 (Macintosh; Intel Mac OS X 10_15_7) AppleWebKit/605.1.15 (KHTML, like Gecko) Version/18.1.1 Safari/605.1.15",Macintosh,Safari,18.1.1,OS X,10_15_7,https://5puzkbbxv1.cognition.run/?sona_id=57474,"en-US,en;q=0.9",e3vdunv2eyr0wq8,19,"[""White""]",No,Female,"NA
",No,1754632.0000000002,NA,null,<p></p>,null,choice,ctd,trinary,attraction,2,televisions,null,null,null,null,null,null,2,NA,NA,NA,NA,NA,NA,NA,NA,NA,NA
NA,NA,NA,NA,NA,choice_trial,survey-html-form,11,384893,0.0-4.0-1.3,205,1,2025-05-05T21:31:16Z,b60275e29fe2361ab97ac0ac217840d7,"Mozilla/5.0 (Macintosh; Intel Mac OS X 10_15_7) AppleWebKit/605.1.15 (KHTML, like Gecko) Version/18.1.1 Safari/605.1.15",Macintosh,Safari,18.1.1,OS X,10_15_7,https://5puzkbbxv1.cognition.run/?sona_id=57474,"en-US,en;q=0.9",e3vdunv2eyr0wq8,19,"[""White""]",No,Female,"NA
",No,1754632.0000000002,NA,13408,NA,"{""product_choice"":""B""}",choice,ctd,trinary,attraction,2,televisions,null,null,null,null,null,null,2,50,60,40,60,50,60,Screen size,Average lifespan,NA,NA
NA,NA,NA,NA,NA,choice_trial_setup,html-keyboard-response,12,385197,0.0-4.0-0.4,205,1,2025-05-05T21:31:16Z,b60275e29fe2361ab97ac0ac217840d7,"Mozilla/5.0 (Macintosh; Intel Mac OS X 10_15_7) AppleWebKit/605.1.15 (KHTML, like Gecko) Version/18.1.1 Safari/605.1.15",Macintosh,Safari,18.1.1,OS X,10_15_7,https://5puzkbbxv1.cognition.run/?sona_id=57474,"en-US,en;q=0.9",e3vdunv2eyr0wq8,19,"[""White""]",No,Female,"NA
",No,1754632.0000000002,NA,null,<p></p>,null,choice,bw,binary,catch,null,washing machines,90,85,30,30,null,null,2,NA,NA,NA,NA,NA,NA,NA,NA,NA,NA
NA,NA,NA,NA,NA,choice_trial,survey-html-form,13,392846,0.0-4.0-1.4,205,1,2025-05-05T21:31:16Z,b60275e29fe2361ab97ac0ac217840d7,"Mozilla/5.0 (Macintosh; Intel Mac OS X 10_15_7) AppleWebKit/605.1.15 (KHTML, like Gecko) Version/18.1.1 Safari/605.1.15",Macintosh,Safari,18.1.1,OS X,10_15_7,https://5puzkbbxv1.cognition.run/?sona_id=57474,"en-US,en;q=0.9",e3vdunv2eyr0wq8,19,"[""White""]",No,Female,"NA
",No,1754632.0000000002,NA,7645,NA,"{""product_choice"":""A""}",choice,bw,binary,catch,null,washing machines,90,85,30,30,null,null,2,null,null,null,null,null,null,Average lifespan,Energy savings,NA,NA
NA,NA,NA,NA,NA,choice_trial_setup,html-keyboard-response,14,393148,0.0-4.0-0.5,205,1,2025-05-05T21:31:16Z,b60275e29fe2361ab97ac0ac217840d7,"Mozilla/5.0 (Macintosh; Intel Mac OS X 10_15_7) AppleWebKit/605.1.15 (KHTML, like Gecko) Version/18.1.1 Safari/605.1.15",Macintosh,Safari,18.1.1,OS X,10_15_7,https://5puzkbbxv1.cognition.run/?sona_id=57474,"en-US,en;q=0.9",e3vdunv2eyr0wq8,19,"[""White""]",No,Female,"NA
",No,1754632.0000000002,NA,null,<p></p>,null,choice,ctd,trinary,repulsion_B,1,televisions,null,null,null,null,null,null,2,NA,NA,NA,NA,NA,NA,NA,NA,NA,NA
NA,NA,NA,NA,NA,choice_trial,survey-html-form,15,400261,0.0-4.0-1.5,205,1,2025-05-05T21:31:16Z,b60275e29fe2361ab97ac0ac217840d7,"Mozilla/5.0 (Macintosh; Intel Mac OS X 10_15_7) AppleWebKit/605.1.15 (KHTML, like Gecko) Version/18.1.1 Safari/605.1.15",Macintosh,Safari,18.1.1,OS X,10_15_7,https://5puzkbbxv1.cognition.run/?sona_id=57474,"en-US,en;q=0.9",e3vdunv2eyr0wq8,19,"[""White""]",No,Female,"NA
",No,1754632.0000000002,NA,7111,NA,"{""product_choice"":""B""}",choice,ctd,trinary,repulsion_B,1,televisions,null,null,null,null,null,null,2,90,100,80,40,30,40,Screen size,Average lifespan,NA,NA
NA,NA,NA,NA,NA,choice_trial_setup,html-keyboard-response,16,400564,0.0-4.0-0.6,205,1,2025-05-05T21:31:16Z,b60275e29fe2361ab97ac0ac217840d7,"Mozilla/5.0 (Macintosh; Intel Mac OS X 10_15_7) AppleWebKit/605.1.15 (KHTML, like Gecko) Version/18.1.1 Safari/605.1.15",Macintosh,Safari,18.1.1,OS X,10_15_7,https://5puzkbbxv1.cognition.run/?sona_id=57474,"en-US,en;q=0.9",e3vdunv2eyr0wq8,19,"[""White""]",No,Female,"NA
",No,1754632.0000000002,NA,null,<p></p>,null,choice,wb,binary,catch,null,televisions,55,60,40,20,null,null,2,NA,NA,NA,NA,NA,NA,NA,NA,NA,NA
NA,NA,NA,NA,NA,choice_trial,survey-html-form,17,543721,0.0-4.0-1.6,205,1,2025-05-05T21:31:16Z,b60275e29fe2361ab97ac0ac217840d7,"Mozilla/5.0 (Macintosh; Intel Mac OS X 10_15_7) AppleWebKit/605.1.15 (KHTML, like Gecko) Version/18.1.1 Safari/605.1.15",Macintosh,Safari,18.1.1,OS X,10_15_7,https://5puzkbbxv1.cognition.run/?sona_id=57474,"en-US,en;q=0.9",e3vdunv2eyr0wq8,19,"[""White""]",No,Female,"NA
",No,1754632.0000000002,NA,143153,NA,"{""product_choice"":""B""}",choice,wb,binary,catch,null,televisions,55,60,40,20,null,null,2,null,null,null,null,null,null,Screen size,Average lifespan,NA,NA
NA,NA,NA,NA,NA,choice_trial_setup,html-keyboard-response,18,544026,0.0-4.0-0.7,205,1,2025-05-05T21:31:16Z,b60275e29fe2361ab97ac0ac217840d7,"Mozilla/5.0 (Macintosh; Intel Mac OS X 10_15_7) AppleWebKit/605.1.15 (KHTML, like Gecko) Version/18.1.1 Safari/605.1.15",Macintosh,Safari,18.1.1,OS X,10_15_7,https://5puzkbbxv1.cognition.run/?sona_id=57474,"en-US,en;q=0.9",e3vdunv2eyr0wq8,19,"[""White""]",No,Female,"NA
",No,1754632.0000000002,NA,null,<p></p>,null,choice,tdc,trinary,repulsion_A,2,microwave ovens,null,null,null,null,null,null,1,NA,NA,NA,NA,NA,NA,NA,NA,NA,NA
NA,NA,NA,NA,NA,choice_trial,survey-html-form,19,577664,0.0-4.0-1.7,205,1,2025-05-05T21:31:16Z,b60275e29fe2361ab97ac0ac217840d7,"Mozilla/5.0 (Macintosh; Intel Mac OS X 10_15_7) AppleWebKit/605.1.15 (KHTML, like Gecko) Version/18.1.1 Safari/605.1.15",Macintosh,Safari,18.1.1,OS X,10_15_7,https://5puzkbbxv1.cognition.run/?sona_id=57474,"en-US,en;q=0.9",e3vdunv2eyr0wq8,19,"[""White""]",No,Female,"NA
",No,1754632.0000000002,NA,33634,NA,"{""product_choice"":""C""}",choice,tdc,trinary,repulsion_A,2,microwave ovens,null,null,null,null,null,null,1,30,40,20,100,90,100,Warranty,Cooking power,NA,NA
NA,NA,NA,NA,NA,choice_trial_setup,html-keyboard-response,20,577966,0.0-4.0-0.8,205,1,2025-05-05T21:31:16Z,b60275e29fe2361ab97ac0ac217840d7,"Mozilla/5.0 (Macintosh; Intel Mac OS X 10_15_7) AppleWebKit/605.1.15 (KHTML, like Gecko) Version/18.1.1 Safari/605.1.15",Macintosh,Safari,18.1.1,OS X,10_15_7,https://5puzkbbxv1.cognition.run/?sona_id=57474,"en-US,en;q=0.9",e3vdunv2eyr0wq8,19,"[""White""]",No,Female,"NA
",No,1754632.0000000002,NA,null,<p></p>,null,choice,wbw,trinary,catch,null,televisions,65,80,25,30,40,30,2,NA,NA,NA,NA,NA,NA,NA,NA,NA,NA
NA,NA,NA,NA,NA,choice_trial,survey-html-form,21,582064,0.0-4.0-1.8,205,1,2025-05-05T21:31:16Z,b60275e29fe2361ab97ac0ac217840d7,"Mozilla/5.0 (Macintosh; Intel Mac OS X 10_15_7) AppleWebKit/605.1.15 (KHTML, like Gecko) Version/18.1.1 Safari/605.1.15",Macintosh,Safari,18.1.1,OS X,10_15_7,https://5puzkbbxv1.cognition.run/?sona_id=57474,"en-US,en;q=0.9",e3vdunv2eyr0wq8,19,"[""White""]",No,Female,"NA
",No,1754632.0000000002,NA,4094,NA,"{""product_choice"":""B""}",choice,wbw,trinary,catch,null,televisions,65,80,25,30,40,30,2,null,null,null,null,null,null,Screen size,Average lifespan,NA,NA
NA,NA,NA,NA,NA,choice_trial_setup,html-keyboard-response,22,582366,0.0-4.0-0.9,205,1,2025-05-05T21:31:16Z,b60275e29fe2361ab97ac0ac217840d7,"Mozilla/5.0 (Macintosh; Intel Mac OS X 10_15_7) AppleWebKit/605.1.15 (KHTML, like Gecko) Version/18.1.1 Safari/605.1.15",Macintosh,Safari,18.1.1,OS X,10_15_7,https://5puzkbbxv1.cognition.run/?sona_id=57474,"en-US,en;q=0.9",e3vdunv2eyr0wq8,19,"[""White""]",No,Female,"NA
",No,1754632.0000000002,NA,null,<p></p>,null,choice,tc,binary,repulsion,1,washing machines,null,null,null,null,null,null,2,NA,NA,NA,NA,NA,NA,NA,NA,NA,NA
NA,NA,NA,NA,NA,choice_trial,survey-html-form,23,585813,0.0-4.0-1.9,205,1,2025-05-05T21:31:16Z,b60275e29fe2361ab97ac0ac217840d7,"Mozilla/5.0 (Macintosh; Intel Mac OS X 10_15_7) AppleWebKit/605.1.15 (KHTML, like Gecko) Version/18.1.1 Safari/605.1.15",Macintosh,Safari,18.1.1,OS X,10_15_7,https://5puzkbbxv1.cognition.run/?sona_id=57474,"en-US,en;q=0.9",e3vdunv2eyr0wq8,19,"[""White""]",No,Female,"NA
",No,1754632.0000000002,NA,3443,NA,"{""product_choice"":""B""}",choice,tc,binary,repulsion,1,washing machines,null,null,null,null,null,null,2,100,90,null,30,40,null,Average lifespan,Energy savings,NA,NA
NA,NA,NA,NA,NA,choice_trial_setup,html-keyboard-response,24,586115,0.0-4.0-0.10,205,1,2025-05-05T21:31:16Z,b60275e29fe2361ab97ac0ac217840d7,"Mozilla/5.0 (Macintosh; Intel Mac OS X 10_15_7) AppleWebKit/605.1.15 (KHTML, like Gecko) Version/18.1.1 Safari/605.1.15",Macintosh,Safari,18.1.1,OS X,10_15_7,https://5puzkbbxv1.cognition.run/?sona_id=57474,"en-US,en;q=0.9",e3vdunv2eyr0wq8,19,"[""White""]",No,Female,"NA
",No,1754632.0000000002,NA,null,<p></p>,null,choice,cdt,trinary,repulsion_B,2,washing machines,null,null,null,null,null,null,1,NA,NA,NA,NA,NA,NA,NA,NA,NA,NA
NA,NA,NA,NA,NA,choice_trial,survey-html-form,25,590430,0.0-4.0-1.10,205,1,2025-05-05T21:31:16Z,b60275e29fe2361ab97ac0ac217840d7,"Mozilla/5.0 (Macintosh; Intel Mac OS X 10_15_7) AppleWebKit/605.1.15 (KHTML, like Gecko) Version/18.1.1 Safari/605.1.15",Macintosh,Safari,18.1.1,OS X,10_15_7,https://5puzkbbxv1.cognition.run/?sona_id=57474,"en-US,en;q=0.9",e3vdunv2eyr0wq8,19,"[""White""]",No,Female,"NA
",No,1754632.0000000002,NA,4311,NA,"{""product_choice"":""C""}",choice,cdt,trinary,repulsion_B,2,washing machines,null,null,null,null,null,null,1,40,30,40,90,100,80,Average lifespan,Energy savings,NA,NA
NA,NA,NA,NA,NA,choice_trial_setup,html-keyboard-response,26,590732,0.0-4.0-0.11,205,1,2025-05-05T21:31:16Z,b60275e29fe2361ab97ac0ac217840d7,"Mozilla/5.0 (Macintosh; Intel Mac OS X 10_15_7) AppleWebKit/605.1.15 (KHTML, like Gecko) Version/18.1.1 Safari/605.1.15",Macintosh,Safari,18.1.1,OS X,10_15_7,https://5puzkbbxv1.cognition.run/?sona_id=57474,"en-US,en;q=0.9",e3vdunv2eyr0wq8,19,"[""White""]",No,Female,"NA
",No,1754632.0000000002,NA,null,<p></p>,null,choice,tc,binary,attraction,NA,televisions,null,null,null,null,null,null,1,NA,NA,NA,NA,NA,NA,NA,NA,NA,NA
NA,NA,NA,NA,NA,choice_trial,survey-html-form,27,597745,0.0-4.0-1.11,205,1,2025-05-05T21:31:16Z,b60275e29fe2361ab97ac0ac217840d7,"Mozilla/5.0 (Macintosh; Intel Mac OS X 10_15_7) AppleWebKit/605.1.15 (KHTML, like Gecko) Version/18.1.1 Safari/605.1.15",Macintosh,Safari,18.1.1,OS X,10_15_7,https://5puzkbbxv1.cognition.run/?sona_id=57474,"en-US,en;q=0.9",e3vdunv2eyr0wq8,19,"[""White""]",No,Female,"NA
",No,1754632.0000000002,NA,7011,NA,"{""product_choice"":""B""}",choice,tc,binary,attraction,NA,televisions,null,null,null,null,null,null,1,60,50,null,50,60,null,Screen size,Average lifespan,NA,NA
NA,NA,NA,NA,NA,choice_trial_setup,html-keyboard-response,28,598047,0.0-4.0-0.12,205,1,2025-05-05T21:31:16Z,b60275e29fe2361ab97ac0ac217840d7,"Mozilla/5.0 (Macintosh; Intel Mac OS X 10_15_7) AppleWebKit/605.1.15 (KHTML, like Gecko) Version/18.1.1 Safari/605.1.15",Macintosh,Safari,18.1.1,OS X,10_15_7,https://5puzkbbxv1.cognition.run/?sona_id=57474,"en-US,en;q=0.9",e3vdunv2eyr0wq8,19,"[""White""]",No,Female,"NA
",No,1754632.0000000002,NA,null,<p></p>,null,choice,tc,binary,attraction,NA,washing machines,null,null,null,null,null,null,1,NA,NA,NA,NA,NA,NA,NA,NA,NA,NA
NA,NA,NA,NA,NA,choice_trial,survey-html-form,29,701478,0.0-4.0-1.12,205,1,2025-05-05T21:31:16Z,b60275e29fe2361ab97ac0ac217840d7,"Mozilla/5.0 (Macintosh; Intel Mac OS X 10_15_7) AppleWebKit/605.1.15 (KHTML, like Gecko) Version/18.1.1 Safari/605.1.15",Macintosh,Safari,18.1.1,OS X,10_15_7,https://5puzkbbxv1.cognition.run/?sona_id=57474,"en-US,en;q=0.9",e3vdunv2eyr0wq8,19,"[""White""]",No,Female,"NA
",No,1754632.0000000002,NA,103428,NA,"{""product_choice"":""A""}",choice,tc,binary,attraction,NA,washing machines,null,null,null,null,null,null,1,60,50,null,50,60,null,Average lifespan,Energy savings,NA,NA
NA,NA,NA,NA,NA,choice_trial_setup,html-keyboard-response,30,701782,0.0-4.0-0.13,205,1,2025-05-05T21:31:16Z,b60275e29fe2361ab97ac0ac217840d7,"Mozilla/5.0 (Macintosh; Intel Mac OS X 10_15_7) AppleWebKit/605.1.15 (KHTML, like Gecko) Version/18.1.1 Safari/605.1.15",Macintosh,Safari,18.1.1,OS X,10_15_7,https://5puzkbbxv1.cognition.run/?sona_id=57474,"en-US,en;q=0.9",e3vdunv2eyr0wq8,19,"[""White""]",No,Female,"NA
",No,1754632.0000000002,NA,null,<p></p>,null,choice,dct,trinary,repulsion_B,1,microwave ovens,null,null,null,null,null,null,2,NA,NA,NA,NA,NA,NA,NA,NA,NA,NA
NA,NA,NA,NA,NA,choice_trial,survey-html-form,31,707913,0.0-4.0-1.13,205,1,2025-05-05T21:31:16Z,b60275e29fe2361ab97ac0ac217840d7,"Mozilla/5.0 (Macintosh; Intel Mac OS X 10_15_7) AppleWebKit/605.1.15 (KHTML, like Gecko) Version/18.1.1 Safari/605.1.15",Macintosh,Safari,18.1.1,OS X,10_15_7,https://5puzkbbxv1.cognition.run/?sona_id=57474,"en-US,en;q=0.9",e3vdunv2eyr0wq8,19,"[""White""]",No,Female,"NA
",No,1754632.0000000002,NA,6127,NA,"{""product_choice"":""C""}",choice,dct,trinary,repulsion_B,1,microwave ovens,null,null,null,null,null,null,2,90,100,80,40,30,40,Warranty,Cooking power,NA,NA
NA,NA,NA,NA,NA,choice_trial_setup,html-keyboard-response,32,708215,0.0-4.0-0.14,205,1,2025-05-05T21:31:16Z,b60275e29fe2361ab97ac0ac217840d7,"Mozilla/5.0 (Macintosh; Intel Mac OS X 10_15_7) AppleWebKit/605.1.15 (KHTML, like Gecko) Version/18.1.1 Safari/605.1.15",Macintosh,Safari,18.1.1,OS X,10_15_7,https://5puzkbbxv1.cognition.run/?sona_id=57474,"en-US,en;q=0.9",e3vdunv2eyr0wq8,19,"[""White""]",No,Female,"NA
",No,1754632.0000000002,NA,null,<p></p>,null,choice,ct,binary,repulsion,2,washing machines,null,null,null,null,null,null,1,NA,NA,NA,NA,NA,NA,NA,NA,NA,NA
NA,NA,NA,NA,NA,choice_trial,survey-html-form,33,729412,0.0-4.0-1.14,205,1,2025-05-05T21:31:16Z,b60275e29fe2361ab97ac0ac217840d7,"Mozilla/5.0 (Macintosh; Intel Mac OS X 10_15_7) AppleWebKit/605.1.15 (KHTML, like Gecko) Version/18.1.1 Safari/605.1.15",Macintosh,Safari,18.1.1,OS X,10_15_7,https://5puzkbbxv1.cognition.run/?sona_id=57474,"en-US,en;q=0.9",e3vdunv2eyr0wq8,19,"[""White""]",No,Female,"NA
",No,1754632.0000000002,NA,21194,NA,"{""product_choice"":""A""}",choice,ct,binary,repulsion,2,washing machines,null,null,null,null,null,null,1,30,40,null,100,90,null,Average lifespan,Energy savings,NA,NA
NA,NA,NA,NA,NA,choice_trial_setup,html-keyboard-response,34,729715,0.0-4.0-0.15,205,1,2025-05-05T21:31:16Z,b60275e29fe2361ab97ac0ac217840d7,"Mozilla/5.0 (Macintosh; Intel Mac OS X 10_15_7) AppleWebKit/605.1.15 (KHTML, like Gecko) Version/18.1.1 Safari/605.1.15",Macintosh,Safari,18.1.1,OS X,10_15_7,https://5puzkbbxv1.cognition.run/?sona_id=57474,"en-US,en;q=0.9",e3vdunv2eyr0wq8,19,"[""White""]",No,Female,"NA
",No,1754632.0000000002,NA,null,<p></p>,null,choice,wb,binary,catch,null,microwave ovens,90,60,35,30,null,null,1,NA,NA,NA,NA,NA,NA,NA,NA,NA,NA
NA,NA,NA,NA,NA,choice_trial,survey-html-form,35,841046,0.0-4.0-1.15,205,1,2025-05-05T21:31:16Z,b60275e29fe2361ab97ac0ac217840d7,"Mozilla/5.0 (Macintosh; Intel Mac OS X 10_15_7) AppleWebKit/605.1.15 (KHTML, like Gecko) Version/18.1.1 Safari/605.1.15",Macintosh,Safari,18.1.1,OS X,10_15_7,https://5puzkbbxv1.cognition.run/?sona_id=57474,"en-US,en;q=0.9",e3vdunv2eyr0wq8,19,"[""White""]",No,Female,"NA
",No,1754632.0000000002,NA,111327,NA,"{""product_choice"":""B""}",choice,wb,binary,catch,null,microwave ovens,90,60,35,30,null,null,1,null,null,null,null,null,null,Warranty,Cooking power,NA,NA
NA,NA,NA,NA,NA,choice_trial_setup,html-keyboard-response,36,841349,0.0-4.0-0.16,205,1,2025-05-05T21:31:16Z,b60275e29fe2361ab97ac0ac217840d7,"Mozilla/5.0 (Macintosh; Intel Mac OS X 10_15_7) AppleWebKit/605.1.15 (KHTML, like Gecko) Version/18.1.1 Safari/605.1.15",Macintosh,Safari,18.1.1,OS X,10_15_7,https://5puzkbbxv1.cognition.run/?sona_id=57474,"en-US,en;q=0.9",e3vdunv2eyr0wq8,19,"[""White""]",No,Female,"NA
",No,1754632.0000000002,NA,null,<p></p>,null,choice,wb,binary,catch,null,laptops,65,65,30,15,null,null,1,NA,NA,NA,NA,NA,NA,NA,NA,NA,NA
NA,NA,NA,NA,NA,choice_trial,survey-html-form,37,847580,0.0-4.0-1.16,205,1,2025-05-05T21:31:16Z,b60275e29fe2361ab97ac0ac217840d7,"Mozilla/5.0 (Macintosh; Intel Mac OS X 10_15_7) AppleWebKit/605.1.15 (KHTML, like Gecko) Version/18.1.1 Safari/605.1.15",Macintosh,Safari,18.1.1,OS X,10_15_7,https://5puzkbbxv1.cognition.run/?sona_id=57474,"en-US,en;q=0.9",e3vdunv2eyr0wq8,19,"[""White""]",No,Female,"NA
",No,1754632.0000000002,NA,6227,NA,"{""product_choice"":""B""}",choice,wb,binary,catch,null,laptops,65,65,30,15,null,null,1,null,null,null,null,null,null,Processing speed,Memory (RAM),NA,NA
NA,NA,NA,NA,NA,choice_trial_setup,html-keyboard-response,38,847882,0.0-4.0-0.17,205,1,2025-05-05T21:31:16Z,b60275e29fe2361ab97ac0ac217840d7,"Mozilla/5.0 (Macintosh; Intel Mac OS X 10_15_7) AppleWebKit/605.1.15 (KHTML, like Gecko) Version/18.1.1 Safari/605.1.15",Macintosh,Safari,18.1.1,OS X,10_15_7,https://5puzkbbxv1.cognition.run/?sona_id=57474,"en-US,en;q=0.9",e3vdunv2eyr0wq8,19,"[""White""]",No,Female,"NA
",No,1754632.0000000002,NA,null,<p></p>,null,choice,tcd,trinary,repulsion_A,2,televisions,null,null,null,null,null,null,1,NA,NA,NA,NA,NA,NA,NA,NA,NA,NA
NA,NA,NA,NA,NA,choice_trial,survey-html-form,39,865313,0.0-4.0-1.17,205,1,2025-05-05T21:31:16Z,b60275e29fe2361ab97ac0ac217840d7,"Mozilla/5.0 (Macintosh; Intel Mac OS X 10_15_7) AppleWebKit/605.1.15 (KHTML, like Gecko) Version/18.1.1 Safari/605.1.15",Macintosh,Safari,18.1.1,OS X,10_15_7,https://5puzkbbxv1.cognition.run/?sona_id=57474,"en-US,en;q=0.9",e3vdunv2eyr0wq8,19,"[""White""]",No,Female,"NA
",No,1754632.0000000002,NA,17426,NA,"{""product_choice"":""B""}",choice,tcd,trinary,repulsion_A,2,televisions,null,null,null,null,null,null,1,30,40,20,100,90,100,Screen size,Average lifespan,NA,NA
NA,NA,NA,NA,NA,choice_trial_setup,html-keyboard-response,40,865616,0.0-4.0-0.18,205,1,2025-05-05T21:31:16Z,b60275e29fe2361ab97ac0ac217840d7,"Mozilla/5.0 (Macintosh; Intel Mac OS X 10_15_7) AppleWebKit/605.1.15 (KHTML, like Gecko) Version/18.1.1 Safari/605.1.15",Macintosh,Safari,18.1.1,OS X,10_15_7,https://5puzkbbxv1.cognition.run/?sona_id=57474,"en-US,en;q=0.9",e3vdunv2eyr0wq8,19,"[""White""]",No,Female,"NA
",No,1754632.0000000002,NA,null,<p></p>,null,choice,dct,trinary,repulsion_A,1,washing machines,null,null,null,null,null,null,2,NA,NA,NA,NA,NA,NA,NA,NA,NA,NA
NA,NA,NA,NA,NA,choice_trial,survey-html-form,41,874948,0.0-4.0-1.18,205,1,2025-05-05T21:31:16Z,b60275e29fe2361ab97ac0ac217840d7,"Mozilla/5.0 (Macintosh; Intel Mac OS X 10_15_7) AppleWebKit/605.1.15 (KHTML, like Gecko) Version/18.1.1 Safari/605.1.15",Macintosh,Safari,18.1.1,OS X,10_15_7,https://5puzkbbxv1.cognition.run/?sona_id=57474,"en-US,en;q=0.9",e3vdunv2eyr0wq8,19,"[""White""]",No,Female,"NA
",No,1754632.0000000002,NA,9328,NA,"{""product_choice"":""B""}",choice,dct,trinary,repulsion_A,1,washing machines,null,null,null,null,null,null,2,100,90,100,30,40,20,Average lifespan,Energy savings,NA,NA
NA,NA,NA,NA,NA,choice_trial_setup,html-keyboard-response,42,875251,0.0-4.0-0.19,205,1,2025-05-05T21:31:16Z,b60275e29fe2361ab97ac0ac217840d7,"Mozilla/5.0 (Macintosh; Intel Mac OS X 10_15_7) AppleWebKit/605.1.15 (KHTML, like Gecko) Version/18.1.1 Safari/605.1.15",Macintosh,Safari,18.1.1,OS X,10_15_7,https://5puzkbbxv1.cognition.run/?sona_id=57474,"en-US,en;q=0.9",e3vdunv2eyr0wq8,19,"[""White""]",No,Female,"NA
",No,1754632.0000000002,NA,null,<p></p>,null,choice,wwb,trinary,catch,null,microwave ovens,95,55,35,35,35,30,2,NA,NA,NA,NA,NA,NA,NA,NA,NA,NA
NA,NA,NA,NA,NA,choice_trial,survey-html-form,43,928163,0.0-4.0-1.19,205,1,2025-05-05T21:31:16Z,b60275e29fe2361ab97ac0ac217840d7,"Mozilla/5.0 (Macintosh; Intel Mac OS X 10_15_7) AppleWebKit/605.1.15 (KHTML, like Gecko) Version/18.1.1 Safari/605.1.15",Macintosh,Safari,18.1.1,OS X,10_15_7,https://5puzkbbxv1.cognition.run/?sona_id=57474,"en-US,en;q=0.9",e3vdunv2eyr0wq8,19,"[""White""]",No,Female,"NA
",No,1754632.0000000002,NA,52910,NA,"{""product_choice"":""C""}",choice,wwb,trinary,catch,null,microwave ovens,95,55,35,35,35,30,2,null,null,null,null,null,null,Warranty,Cooking power,NA,NA
NA,NA,NA,NA,NA,choice_trial_setup,html-keyboard-response,44,928465,0.0-4.0-0.20,205,1,2025-05-05T21:31:16Z,b60275e29fe2361ab97ac0ac217840d7,"Mozilla/5.0 (Macintosh; Intel Mac OS X 10_15_7) AppleWebKit/605.1.15 (KHTML, like Gecko) Version/18.1.1 Safari/605.1.15",Macintosh,Safari,18.1.1,OS X,10_15_7,https://5puzkbbxv1.cognition.run/?sona_id=57474,"en-US,en;q=0.9",e3vdunv2eyr0wq8,19,"[""White""]",No,Female,"NA
",No,1754632.0000000002,NA,null,<p></p>,null,choice,dct,trinary,attraction,2,laptops,null,null,null,null,null,null,2,NA,NA,NA,NA,NA,NA,NA,NA,NA,NA
NA,NA,NA,NA,NA,choice_trial,survey-html-form,45,977999,0.0-4.0-1.20,205,1,2025-05-05T21:31:16Z,b60275e29fe2361ab97ac0ac217840d7,"Mozilla/5.0 (Macintosh; Intel Mac OS X 10_15_7) AppleWebKit/605.1.15 (KHTML, like Gecko) Version/18.1.1 Safari/605.1.15",Macintosh,Safari,18.1.1,OS X,10_15_7,https://5puzkbbxv1.cognition.run/?sona_id=57474,"en-US,en;q=0.9",e3vdunv2eyr0wq8,19,"[""White""]",No,Female,"NA
",No,1754632.0000000002,NA,49529,NA,"{""product_choice"":""C""}",choice,dct,trinary,attraction,2,laptops,null,null,null,null,null,null,2,50,60,40,60,50,60,Processing speed,Memory (RAM),NA,NA
NA,NA,NA,NA,NA,choice_trial_setup,html-keyboard-response,46,978302,0.0-4.0-0.21,205,1,2025-05-05T21:31:16Z,b60275e29fe2361ab97ac0ac217840d7,"Mozilla/5.0 (Macintosh; Intel Mac OS X 10_15_7) AppleWebKit/605.1.15 (KHTML, like Gecko) Version/18.1.1 Safari/605.1.15",Macintosh,Safari,18.1.1,OS X,10_15_7,https://5puzkbbxv1.cognition.run/?sona_id=57474,"en-US,en;q=0.9",e3vdunv2eyr0wq8,19,"[""White""]",No,Female,"NA
",No,1754632.0000000002,NA,null,<p></p>,null,choice,tc,binary,attraction,NA,laptops,null,null,null,null,null,null,1,NA,NA,NA,NA,NA,NA,NA,NA,NA,NA
NA,NA,NA,NA,NA,choice_trial,survey-html-form,47,1046519,0.0-4.0-1.21,205,1,2025-05-05T21:31:16Z,b60275e29fe2361ab97ac0ac217840d7,"Mozilla/5.0 (Macintosh; Intel Mac OS X 10_15_7) AppleWebKit/605.1.15 (KHTML, like Gecko) Version/18.1.1 Safari/605.1.15",Macintosh,Safari,18.1.1,OS X,10_15_7,https://5puzkbbxv1.cognition.run/?sona_id=57474,"en-US,en;q=0.9",e3vdunv2eyr0wq8,19,"[""White""]",No,Female,"NA
",No,1754632.0000000002,NA,68213,NA,"{""product_choice"":""B""}",choice,tc,binary,attraction,NA,laptops,null,null,null,null,null,null,1,60,50,null,50,60,null,Processing speed,Memory (RAM),NA,NA
NA,NA,NA,NA,NA,choice_trial_setup,html-keyboard-response,48,1046827,0.0-4.0-0.22,205,1,2025-05-05T21:31:16Z,b60275e29fe2361ab97ac0ac217840d7,"Mozilla/5.0 (Macintosh; Intel Mac OS X 10_15_7) AppleWebKit/605.1.15 (KHTML, like Gecko) Version/18.1.1 Safari/605.1.15",Macintosh,Safari,18.1.1,OS X,10_15_7,https://5puzkbbxv1.cognition.run/?sona_id=57474,"en-US,en;q=0.9",e3vdunv2eyr0wq8,19,"[""White""]",No,Female,"NA
",No,1754632.0000000002,NA,null,<p></p>,null,choice,dtc,trinary,attraction,1,microwave ovens,null,null,null,null,null,null,2,NA,NA,NA,NA,NA,NA,NA,NA,NA,NA
NA,NA,NA,NA,NA,choice_trial,survey-html-form,49,1054631,0.0-4.0-1.22,205,1,2025-05-05T21:31:16Z,b60275e29fe2361ab97ac0ac217840d7,"Mozilla/5.0 (Macintosh; Intel Mac OS X 10_15_7) AppleWebKit/605.1.15 (KHTML, like Gecko) Version/18.1.1 Safari/605.1.15",Macintosh,Safari,18.1.1,OS X,10_15_7,https://5puzkbbxv1.cognition.run/?sona_id=57474,"en-US,en;q=0.9",e3vdunv2eyr0wq8,19,"[""White""]",No,Female,"NA
",No,1754632.0000000002,NA,7800,NA,"{""product_choice"":""C""}",choice,dtc,trinary,attraction,1,microwave ovens,null,null,null,null,null,null,2,60,50,60,50,60,40,Warranty,Cooking power,NA,NA
NA,NA,NA,NA,NA,choice_trial_setup,html-keyboard-response,50,1054933,0.0-4.0-0.23,205,1,2025-05-05T21:31:16Z,b60275e29fe2361ab97ac0ac217840d7,"Mozilla/5.0 (Macintosh; Intel Mac OS X 10_15_7) AppleWebKit/605.1.15 (KHTML, like Gecko) Version/18.1.1 Safari/605.1.15",Macintosh,Safari,18.1.1,OS X,10_15_7,https://5puzkbbxv1.cognition.run/?sona_id=57474,"en-US,en;q=0.9",e3vdunv2eyr0wq8,19,"[""White""]",No,Female,"NA
",No,1754632.0000000002,NA,null,<p></p>,null,choice,dtc,trinary,repulsion_B,1,laptops,null,null,null,null,null,null,2,NA,NA,NA,NA,NA,NA,NA,NA,NA,NA
NA,NA,NA,NA,NA,choice_trial,survey-html-form,51,1175690,0.0-4.0-1.23,205,1,2025-05-05T21:31:16Z,b60275e29fe2361ab97ac0ac217840d7,"Mozilla/5.0 (Macintosh; Intel Mac OS X 10_15_7) AppleWebKit/605.1.15 (KHTML, like Gecko) Version/18.1.1 Safari/605.1.15",Macintosh,Safari,18.1.1,OS X,10_15_7,https://5puzkbbxv1.cognition.run/?sona_id=57474,"en-US,en;q=0.9",e3vdunv2eyr0wq8,19,"[""White""]",No,Female,"NA
",No,1754632.0000000002,NA,120753,NA,"{""product_choice"":""B""}",choice,dtc,trinary,repulsion_B,1,laptops,null,null,null,null,null,null,2,90,100,80,40,30,40,Processing speed,Memory (RAM),NA,NA
NA,NA,NA,NA,NA,choice_trial_setup,html-keyboard-response,52,1175996,0.0-4.0-0.24,205,1,2025-05-05T21:31:16Z,b60275e29fe2361ab97ac0ac217840d7,"Mozilla/5.0 (Macintosh; Intel Mac OS X 10_15_7) AppleWebKit/605.1.15 (KHTML, like Gecko) Version/18.1.1 Safari/605.1.15",Macintosh,Safari,18.1.1,OS X,10_15_7,https://5puzkbbxv1.cognition.run/?sona_id=57474,"en-US,en;q=0.9",e3vdunv2eyr0wq8,19,"[""White""]",No,Female,"NA
",No,1754632.0000000002,NA,null,<p></p>,null,choice,ctd,trinary,attraction,2,washing machines,null,null,null,null,null,null,2,NA,NA,NA,NA,NA,NA,NA,NA,NA,NA
NA,NA,NA,NA,NA,choice_trial,survey-html-form,53,1184550,0.0-4.0-1.24,205,1,2025-05-05T21:31:16Z,b60275e29fe2361ab97ac0ac217840d7,"Mozilla/5.0 (Macintosh; Intel Mac OS X 10_15_7) AppleWebKit/605.1.15 (KHTML, like Gecko) Version/18.1.1 Safari/605.1.15",Macintosh,Safari,18.1.1,OS X,10_15_7,https://5puzkbbxv1.cognition.run/?sona_id=57474,"en-US,en;q=0.9",e3vdunv2eyr0wq8,19,"[""White""]",No,Female,"NA
",No,1754632.0000000002,NA,8549,NA,"{""product_choice"":""A""}",choice,ctd,trinary,attraction,2,washing machines,null,null,null,null,null,null,2,50,60,40,60,50,60,Average lifespan,Energy savings,NA,NA
NA,NA,NA,NA,NA,choice_trial_setup,html-keyboard-response,54,1184853,0.0-4.0-0.25,205,1,2025-05-05T21:31:16Z,b60275e29fe2361ab97ac0ac217840d7,"Mozilla/5.0 (Macintosh; Intel Mac OS X 10_15_7) AppleWebKit/605.1.15 (KHTML, like Gecko) Version/18.1.1 Safari/605.1.15",Macintosh,Safari,18.1.1,OS X,10_15_7,https://5puzkbbxv1.cognition.run/?sona_id=57474,"en-US,en;q=0.9",e3vdunv2eyr0wq8,19,"[""White""]",No,Female,"NA
",No,1754632.0000000002,NA,null,<p></p>,null,choice,cdt,trinary,attraction,2,microwave ovens,null,null,null,null,null,null,2,NA,NA,NA,NA,NA,NA,NA,NA,NA,NA
NA,NA,NA,NA,NA,choice_trial,survey-html-form,55,1199850,0.0-4.0-1.25,205,1,2025-05-05T21:31:16Z,b60275e29fe2361ab97ac0ac217840d7,"Mozilla/5.0 (Macintosh; Intel Mac OS X 10_15_7) AppleWebKit/605.1.15 (KHTML, like Gecko) Version/18.1.1 Safari/605.1.15",Macintosh,Safari,18.1.1,OS X,10_15_7,https://5puzkbbxv1.cognition.run/?sona_id=57474,"en-US,en;q=0.9",e3vdunv2eyr0wq8,19,"[""White""]",No,Female,"NA
",No,1754632.0000000002,NA,14992,NA,"{""product_choice"":""C""}",choice,cdt,trinary,attraction,2,microwave ovens,null,null,null,null,null,null,2,50,60,40,60,50,60,Warranty,Cooking power,NA,NA
NA,NA,NA,NA,NA,choice_trial_setup,html-keyboard-response,56,1200153,0.0-4.0-0.26,205,1,2025-05-05T21:31:16Z,b60275e29fe2361ab97ac0ac217840d7,"Mozilla/5.0 (Macintosh; Intel Mac OS X 10_15_7) AppleWebKit/605.1.15 (KHTML, like Gecko) Version/18.1.1 Safari/605.1.15",Macintosh,Safari,18.1.1,OS X,10_15_7,https://5puzkbbxv1.cognition.run/?sona_id=57474,"en-US,en;q=0.9",e3vdunv2eyr0wq8,19,"[""White""]",No,Female,"NA
",No,1754632.0000000002,NA,null,<p></p>,null,choice,tdc,trinary,repulsion_A,1,televisions,null,null,null,null,null,null,2,NA,NA,NA,NA,NA,NA,NA,NA,NA,NA
NA,NA,NA,NA,NA,choice_trial,survey-html-form,57,1209117,0.0-4.0-1.26,205,1,2025-05-05T21:31:16Z,b60275e29fe2361ab97ac0ac217840d7,"Mozilla/5.0 (Macintosh; Intel Mac OS X 10_15_7) AppleWebKit/605.1.15 (KHTML, like Gecko) Version/18.1.1 Safari/605.1.15",Macintosh,Safari,18.1.1,OS X,10_15_7,https://5puzkbbxv1.cognition.run/?sona_id=57474,"en-US,en;q=0.9",e3vdunv2eyr0wq8,19,"[""White""]",No,Female,"NA
",No,1754632.0000000002,NA,8959,NA,"{""product_choice"":""C""}",choice,tdc,trinary,repulsion_A,1,televisions,null,null,null,null,null,null,2,100,90,100,30,40,20,Screen size,Average lifespan,NA,NA
NA,NA,NA,NA,NA,choice_trial_setup,html-keyboard-response,58,1209421,0.0-4.0-0.27,205,1,2025-05-05T21:31:16Z,b60275e29fe2361ab97ac0ac217840d7,"Mozilla/5.0 (Macintosh; Intel Mac OS X 10_15_7) AppleWebKit/605.1.15 (KHTML, like Gecko) Version/18.1.1 Safari/605.1.15",Macintosh,Safari,18.1.1,OS X,10_15_7,https://5puzkbbxv1.cognition.run/?sona_id=57474,"en-US,en;q=0.9",e3vdunv2eyr0wq8,19,"[""White""]",No,Female,"NA
",No,1754632.0000000002,NA,null,<p></p>,null,choice,ct,binary,repulsion,1,televisions,null,null,null,null,null,null,1,NA,NA,NA,NA,NA,NA,NA,NA,NA,NA
NA,NA,NA,NA,NA,choice_trial,survey-html-form,59,1283071,0.0-4.0-1.27,205,1,2025-05-05T21:31:16Z,b60275e29fe2361ab97ac0ac217840d7,"Mozilla/5.0 (Macintosh; Intel Mac OS X 10_15_7) AppleWebKit/605.1.15 (KHTML, like Gecko) Version/18.1.1 Safari/605.1.15",Macintosh,Safari,18.1.1,OS X,10_15_7,https://5puzkbbxv1.cognition.run/?sona_id=57474,"en-US,en;q=0.9",e3vdunv2eyr0wq8,19,"[""White""]",No,Female,"NA
",No,1754632.0000000002,NA,73646,NA,"{""product_choice"":""A""}",choice,ct,binary,repulsion,1,televisions,null,null,null,null,null,null,1,100,90,null,30,40,null,Screen size,Average lifespan,NA,NA
NA,NA,NA,NA,NA,choice_trial_setup,html-keyboard-response,60,1283377,0.0-4.0-0.28,205,1,2025-05-05T21:31:16Z,b60275e29fe2361ab97ac0ac217840d7,"Mozilla/5.0 (Macintosh; Intel Mac OS X 10_15_7) AppleWebKit/605.1.15 (KHTML, like Gecko) Version/18.1.1 Safari/605.1.15",Macintosh,Safari,18.1.1,OS X,10_15_7,https://5puzkbbxv1.cognition.run/?sona_id=57474,"en-US,en;q=0.9",e3vdunv2eyr0wq8,19,"[""White""]",No,Female,"NA
",No,1754632.0000000002,NA,null,<p></p>,null,choice,tcd,trinary,attraction,1,washing machines,null,null,null,null,null,null,2,NA,NA,NA,NA,NA,NA,NA,NA,NA,NA
NA,NA,NA,NA,NA,choice_trial,survey-html-form,61,1287618,0.0-4.0-1.28,205,1,2025-05-05T21:31:16Z,b60275e29fe2361ab97ac0ac217840d7,"Mozilla/5.0 (Macintosh; Intel Mac OS X 10_15_7) AppleWebKit/605.1.15 (KHTML, like Gecko) Version/18.1.1 Safari/605.1.15",Macintosh,Safari,18.1.1,OS X,10_15_7,https://5puzkbbxv1.cognition.run/?sona_id=57474,"en-US,en;q=0.9",e3vdunv2eyr0wq8,19,"[""White""]",No,Female,"NA
",No,1754632.0000000002,NA,4236,NA,"{""product_choice"":""A""}",choice,tcd,trinary,attraction,1,washing machines,null,null,null,null,null,null,2,60,50,60,50,60,40,Average lifespan,Energy savings,NA,NA
NA,NA,NA,NA,NA,choice_trial_setup,html-keyboard-response,62,1287921,0.0-4.0-0.29,205,1,2025-05-05T21:31:16Z,b60275e29fe2361ab97ac0ac217840d7,"Mozilla/5.0 (Macintosh; Intel Mac OS X 10_15_7) AppleWebKit/605.1.15 (KHTML, like Gecko) Version/18.1.1 Safari/605.1.15",Macintosh,Safari,18.1.1,OS X,10_15_7,https://5puzkbbxv1.cognition.run/?sona_id=57474,"en-US,en;q=0.9",e3vdunv2eyr0wq8,19,"[""White""]",No,Female,"NA
",No,1754632.0000000002,NA,null,<p></p>,null,choice,tc,binary,repulsion,1,microwave ovens,null,null,null,null,null,null,1,NA,NA,NA,NA,NA,NA,NA,NA,NA,NA
NA,NA,NA,NA,NA,choice_trial,survey-html-form,63,1293634,0.0-4.0-1.29,205,1,2025-05-05T21:31:16Z,b60275e29fe2361ab97ac0ac217840d7,"Mozilla/5.0 (Macintosh; Intel Mac OS X 10_15_7) AppleWebKit/605.1.15 (KHTML, like Gecko) Version/18.1.1 Safari/605.1.15",Macintosh,Safari,18.1.1,OS X,10_15_7,https://5puzkbbxv1.cognition.run/?sona_id=57474,"en-US,en;q=0.9",e3vdunv2eyr0wq8,19,"[""White""]",No,Female,"NA
",No,1754632.0000000002,NA,5707,NA,"{""product_choice"":""B""}",choice,tc,binary,repulsion,1,microwave ovens,null,null,null,null,null,null,1,100,90,null,30,40,null,Warranty,Cooking power,NA,NA
NA,NA,NA,NA,NA,choice_trial_setup,html-keyboard-response,64,1293937,0.0-4.0-0.30,205,1,2025-05-05T21:31:16Z,b60275e29fe2361ab97ac0ac217840d7,"Mozilla/5.0 (Macintosh; Intel Mac OS X 10_15_7) AppleWebKit/605.1.15 (KHTML, like Gecko) Version/18.1.1 Safari/605.1.15",Macintosh,Safari,18.1.1,OS X,10_15_7,https://5puzkbbxv1.cognition.run/?sona_id=57474,"en-US,en;q=0.9",e3vdunv2eyr0wq8,19,"[""White""]",No,Female,"NA
",No,1754632.0000000002,NA,null,<p></p>,null,choice,dtc,trinary,repulsion_A,1,laptops,null,null,null,null,null,null,1,NA,NA,NA,NA,NA,NA,NA,NA,NA,NA
NA,NA,NA,NA,NA,choice_trial,survey-html-form,65,1300883,0.0-4.0-1.30,205,1,2025-05-05T21:31:16Z,b60275e29fe2361ab97ac0ac217840d7,"Mozilla/5.0 (Macintosh; Intel Mac OS X 10_15_7) AppleWebKit/605.1.15 (KHTML, like Gecko) Version/18.1.1 Safari/605.1.15",Macintosh,Safari,18.1.1,OS X,10_15_7,https://5puzkbbxv1.cognition.run/?sona_id=57474,"en-US,en;q=0.9",e3vdunv2eyr0wq8,19,"[""White""]",No,Female,"NA
",No,1754632.0000000002,NA,6942,NA,"{""product_choice"":""C""}",choice,dtc,trinary,repulsion_A,1,laptops,null,null,null,null,null,null,1,100,90,100,30,40,20,Processing speed,Memory (RAM),NA,NA
NA,NA,NA,NA,NA,choice_trial_setup,html-keyboard-response,66,1301187,0.0-4.0-0.31,205,1,2025-05-05T21:31:16Z,b60275e29fe2361ab97ac0ac217840d7,"Mozilla/5.0 (Macintosh; Intel Mac OS X 10_15_7) AppleWebKit/605.1.15 (KHTML, like Gecko) Version/18.1.1 Safari/605.1.15",Macintosh,Safari,18.1.1,OS X,10_15_7,https://5puzkbbxv1.cognition.run/?sona_id=57474,"en-US,en;q=0.9",e3vdunv2eyr0wq8,19,"[""White""]",No,Female,"NA
",No,1754632.0000000002,NA,null,<p></p>,null,choice,wwb,trinary,catch,null,washing machines,90,65,20,25,5,5,2,NA,NA,NA,NA,NA,NA,NA,NA,NA,NA
NA,NA,NA,NA,NA,choice_trial,survey-html-form,67,1313736,0.0-4.0-1.31,205,1,2025-05-05T21:31:16Z,b60275e29fe2361ab97ac0ac217840d7,"Mozilla/5.0 (Macintosh; Intel Mac OS X 10_15_7) AppleWebKit/605.1.15 (KHTML, like Gecko) Version/18.1.1 Safari/605.1.15",Macintosh,Safari,18.1.1,OS X,10_15_7,https://5puzkbbxv1.cognition.run/?sona_id=57474,"en-US,en;q=0.9",e3vdunv2eyr0wq8,19,"[""White""]",No,Female,"NA
",No,1754632.0000000002,NA,12544,NA,"{""product_choice"":""C""}",choice,wwb,trinary,catch,null,washing machines,90,65,20,25,5,5,2,null,null,null,null,null,null,Average lifespan,Energy savings,NA,NA
NA,NA,NA,NA,NA,choice_trial_setup,html-keyboard-response,68,1314040,0.0-4.0-0.32,205,1,2025-05-05T21:31:16Z,b60275e29fe2361ab97ac0ac217840d7,"Mozilla/5.0 (Macintosh; Intel Mac OS X 10_15_7) AppleWebKit/605.1.15 (KHTML, like Gecko) Version/18.1.1 Safari/605.1.15",Macintosh,Safari,18.1.1,OS X,10_15_7,https://5puzkbbxv1.cognition.run/?sona_id=57474,"en-US,en;q=0.9",e3vdunv2eyr0wq8,19,"[""White""]",No,Female,"NA
",No,1754632.0000000002,NA,null,<p></p>,null,choice,tcd,trinary,repulsion_B,1,washing machines,null,null,null,null,null,null,2,NA,NA,NA,NA,NA,NA,NA,NA,NA,NA
NA,NA,NA,NA,NA,choice_trial,survey-html-form,69,1319117,0.0-4.0-1.32,205,1,2025-05-05T21:31:16Z,b60275e29fe2361ab97ac0ac217840d7,"Mozilla/5.0 (Macintosh; Intel Mac OS X 10_15_7) AppleWebKit/605.1.15 (KHTML, like Gecko) Version/18.1.1 Safari/605.1.15",Macintosh,Safari,18.1.1,OS X,10_15_7,https://5puzkbbxv1.cognition.run/?sona_id=57474,"en-US,en;q=0.9",e3vdunv2eyr0wq8,19,"[""White""]",No,Female,"NA
",No,1754632.0000000002,NA,5071,NA,"{""product_choice"":""A""}",choice,tcd,trinary,repulsion_B,1,washing machines,null,null,null,null,null,null,2,90,100,80,40,30,40,Average lifespan,Energy savings,NA,NA
NA,NA,NA,NA,NA,choice_trial_setup,html-keyboard-response,70,1319421,0.0-4.0-0.33,205,1,2025-05-05T21:31:16Z,b60275e29fe2361ab97ac0ac217840d7,"Mozilla/5.0 (Macintosh; Intel Mac OS X 10_15_7) AppleWebKit/605.1.15 (KHTML, like Gecko) Version/18.1.1 Safari/605.1.15",Macintosh,Safari,18.1.1,OS X,10_15_7,https://5puzkbbxv1.cognition.run/?sona_id=57474,"en-US,en;q=0.9",e3vdunv2eyr0wq8,19,"[""White""]",No,Female,"NA
",No,1754632.0000000002,NA,null,<p></p>,null,choice,dtc,trinary,repulsion_B,2,laptops,null,null,null,null,null,null,2,NA,NA,NA,NA,NA,NA,NA,NA,NA,NA
NA,NA,NA,NA,NA,choice_trial,survey-html-form,71,1323418,0.0-4.0-1.33,205,1,2025-05-05T21:31:16Z,b60275e29fe2361ab97ac0ac217840d7,"Mozilla/5.0 (Macintosh; Intel Mac OS X 10_15_7) AppleWebKit/605.1.15 (KHTML, like Gecko) Version/18.1.1 Safari/605.1.15",Macintosh,Safari,18.1.1,OS X,10_15_7,https://5puzkbbxv1.cognition.run/?sona_id=57474,"en-US,en;q=0.9",e3vdunv2eyr0wq8,19,"[""White""]",No,Female,"NA
",No,1754632.0000000002,NA,3992,NA,"{""product_choice"":""B""}",choice,dtc,trinary,repulsion_B,2,laptops,null,null,null,null,null,null,2,40,30,40,90,100,80,Processing speed,Memory (RAM),NA,NA
NA,NA,NA,NA,NA,choice_trial_setup,html-keyboard-response,72,1323721,0.0-4.0-0.34,205,1,2025-05-05T21:31:16Z,b60275e29fe2361ab97ac0ac217840d7,"Mozilla/5.0 (Macintosh; Intel Mac OS X 10_15_7) AppleWebKit/605.1.15 (KHTML, like Gecko) Version/18.1.1 Safari/605.1.15",Macintosh,Safari,18.1.1,OS X,10_15_7,https://5puzkbbxv1.cognition.run/?sona_id=57474,"en-US,en;q=0.9",e3vdunv2eyr0wq8,19,"[""White""]",No,Female,"NA
",No,1754632.0000000002,NA,null,<p></p>,null,choice,dct,trinary,repulsion_B,2,televisions,null,null,null,null,null,null,1,NA,NA,NA,NA,NA,NA,NA,NA,NA,NA
NA,NA,NA,NA,NA,choice_trial,survey-html-form,73,1335699,0.0-4.0-1.34,205,1,2025-05-05T21:31:16Z,b60275e29fe2361ab97ac0ac217840d7,"Mozilla/5.0 (Macintosh; Intel Mac OS X 10_15_7) AppleWebKit/605.1.15 (KHTML, like Gecko) Version/18.1.1 Safari/605.1.15",Macintosh,Safari,18.1.1,OS X,10_15_7,https://5puzkbbxv1.cognition.run/?sona_id=57474,"en-US,en;q=0.9",e3vdunv2eyr0wq8,19,"[""White""]",No,Female,"NA
",No,1754632.0000000002,NA,11975,NA,"{""product_choice"":""C""}",choice,dct,trinary,repulsion_B,2,televisions,null,null,null,null,null,null,1,40,30,40,90,100,80,Screen size,Average lifespan,NA,NA
NA,NA,NA,NA,NA,choice_trial_setup,html-keyboard-response,74,1336001,0.0-4.0-0.35,205,1,2025-05-05T21:31:16Z,b60275e29fe2361ab97ac0ac217840d7,"Mozilla/5.0 (Macintosh; Intel Mac OS X 10_15_7) AppleWebKit/605.1.15 (KHTML, like Gecko) Version/18.1.1 Safari/605.1.15",Macintosh,Safari,18.1.1,OS X,10_15_7,https://5puzkbbxv1.cognition.run/?sona_id=57474,"en-US,en;q=0.9",e3vdunv2eyr0wq8,19,"[""White""]",No,Female,"NA
",No,1754632.0000000002,NA,null,<p></p>,null,choice,ct,binary,repulsion,2,microwave ovens,null,null,null,null,null,null,1,NA,NA,NA,NA,NA,NA,NA,NA,NA,NA
NA,NA,NA,NA,NA,choice_trial,survey-html-form,75,1351052,0.0-4.0-1.35,205,1,2025-05-05T21:31:16Z,b60275e29fe2361ab97ac0ac217840d7,"Mozilla/5.0 (Macintosh; Intel Mac OS X 10_15_7) AppleWebKit/605.1.15 (KHTML, like Gecko) Version/18.1.1 Safari/605.1.15",Macintosh,Safari,18.1.1,OS X,10_15_7,https://5puzkbbxv1.cognition.run/?sona_id=57474,"en-US,en;q=0.9",e3vdunv2eyr0wq8,19,"[""White""]",No,Female,"NA
",No,1754632.0000000002,NA,15046,NA,"{""product_choice"":""A""}",choice,ct,binary,repulsion,2,microwave ovens,null,null,null,null,null,null,1,30,40,null,100,90,null,Warranty,Cooking power,NA,NA
NA,NA,NA,NA,NA,choice_trial_setup,html-keyboard-response,76,1351355,0.0-4.0-0.36,205,1,2025-05-05T21:31:16Z,b60275e29fe2361ab97ac0ac217840d7,"Mozilla/5.0 (Macintosh; Intel Mac OS X 10_15_7) AppleWebKit/605.1.15 (KHTML, like Gecko) Version/18.1.1 Safari/605.1.15",Macintosh,Safari,18.1.1,OS X,10_15_7,https://5puzkbbxv1.cognition.run/?sona_id=57474,"en-US,en;q=0.9",e3vdunv2eyr0wq8,19,"[""White""]",No,Female,"NA
",No,1754632.0000000002,NA,null,<p></p>,null,choice,tcd,trinary,repulsion_A,2,laptops,null,null,null,null,null,null,2,NA,NA,NA,NA,NA,NA,NA,NA,NA,NA
NA,NA,NA,NA,NA,choice_trial,survey-html-form,77,1358351,0.0-4.0-1.36,205,1,2025-05-05T21:31:16Z,b60275e29fe2361ab97ac0ac217840d7,"Mozilla/5.0 (Macintosh; Intel Mac OS X 10_15_7) AppleWebKit/605.1.15 (KHTML, like Gecko) Version/18.1.1 Safari/605.1.15",Macintosh,Safari,18.1.1,OS X,10_15_7,https://5puzkbbxv1.cognition.run/?sona_id=57474,"en-US,en;q=0.9",e3vdunv2eyr0wq8,19,"[""White""]",No,Female,"NA
",No,1754632.0000000002,NA,6990,NA,"{""product_choice"":""B""}",choice,tcd,trinary,repulsion_A,2,laptops,null,null,null,null,null,null,2,30,40,20,100,90,100,Processing speed,Memory (RAM),NA,NA
NA,NA,NA,NA,NA,choice_trial_setup,html-keyboard-response,78,1358655,0.0-4.0-0.37,205,1,2025-05-05T21:31:16Z,b60275e29fe2361ab97ac0ac217840d7,"Mozilla/5.0 (Macintosh; Intel Mac OS X 10_15_7) AppleWebKit/605.1.15 (KHTML, like Gecko) Version/18.1.1 Safari/605.1.15",Macintosh,Safari,18.1.1,OS X,10_15_7,https://5puzkbbxv1.cognition.run/?sona_id=57474,"en-US,en;q=0.9",e3vdunv2eyr0wq8,19,"[""White""]",No,Female,"NA
",No,1754632.0000000002,NA,null,<p></p>,null,choice,wbw,trinary,catch,null,laptops,75,75,45,5,15,40,2,NA,NA,NA,NA,NA,NA,NA,NA,NA,NA
NA,NA,NA,NA,NA,choice_trial,survey-html-form,79,1361333,0.0-4.0-1.37,205,1,2025-05-05T21:31:16Z,b60275e29fe2361ab97ac0ac217840d7,"Mozilla/5.0 (Macintosh; Intel Mac OS X 10_15_7) AppleWebKit/605.1.15 (KHTML, like Gecko) Version/18.1.1 Safari/605.1.15",Macintosh,Safari,18.1.1,OS X,10_15_7,https://5puzkbbxv1.cognition.run/?sona_id=57474,"en-US,en;q=0.9",e3vdunv2eyr0wq8,19,"[""White""]",No,Female,"NA
",No,1754632.0000000002,NA,2674,NA,"{""product_choice"":""B""}",choice,wbw,trinary,catch,null,laptops,75,75,45,5,15,40,2,null,null,null,null,null,null,Processing speed,Memory (RAM),NA,NA
NA,NA,NA,NA,NA,choice_trial_setup,html-keyboard-response,80,1361636,0.0-4.0-0.38,205,1,2025-05-05T21:31:16Z,b60275e29fe2361ab97ac0ac217840d7,"Mozilla/5.0 (Macintosh; Intel Mac OS X 10_15_7) AppleWebKit/605.1.15 (KHTML, like Gecko) Version/18.1.1 Safari/605.1.15",Macintosh,Safari,18.1.1,OS X,10_15_7,https://5puzkbbxv1.cognition.run/?sona_id=57474,"en-US,en;q=0.9",e3vdunv2eyr0wq8,19,"[""White""]",No,Female,"NA
",No,1754632.0000000002,NA,null,<p></p>,null,choice,tc,binary,repulsion,2,televisions,null,null,null,null,null,null,1,NA,NA,NA,NA,NA,NA,NA,NA,NA,NA
NA,NA,NA,NA,NA,choice_trial,survey-html-form,81,1364484,0.0-4.0-1.38,205,1,2025-05-05T21:31:16Z,b60275e29fe2361ab97ac0ac217840d7,"Mozilla/5.0 (Macintosh; Intel Mac OS X 10_15_7) AppleWebKit/605.1.15 (KHTML, like Gecko) Version/18.1.1 Safari/605.1.15",Macintosh,Safari,18.1.1,OS X,10_15_7,https://5puzkbbxv1.cognition.run/?sona_id=57474,"en-US,en;q=0.9",e3vdunv2eyr0wq8,19,"[""White""]",No,Female,"NA
",No,1754632.0000000002,NA,2844,NA,"{""product_choice"":""B""}",choice,tc,binary,repulsion,2,televisions,null,null,null,null,null,null,1,30,40,null,100,90,null,Screen size,Average lifespan,NA,NA
NA,NA,NA,NA,NA,choice_trial_setup,html-keyboard-response,82,1364788,0.0-4.0-0.39,205,1,2025-05-05T21:31:16Z,b60275e29fe2361ab97ac0ac217840d7,"Mozilla/5.0 (Macintosh; Intel Mac OS X 10_15_7) AppleWebKit/605.1.15 (KHTML, like Gecko) Version/18.1.1 Safari/605.1.15",Macintosh,Safari,18.1.1,OS X,10_15_7,https://5puzkbbxv1.cognition.run/?sona_id=57474,"en-US,en;q=0.9",e3vdunv2eyr0wq8,19,"[""White""]",No,Female,"NA
",No,1754632.0000000002,NA,null,<p></p>,null,choice,cdt,trinary,repulsion_B,2,microwave ovens,null,null,null,null,null,null,2,NA,NA,NA,NA,NA,NA,NA,NA,NA,NA
NA,NA,NA,NA,NA,choice_trial,survey-html-form,83,1374669,0.0-4.0-1.39,205,1,2025-05-05T21:31:16Z,b60275e29fe2361ab97ac0ac217840d7,"Mozilla/5.0 (Macintosh; Intel Mac OS X 10_15_7) AppleWebKit/605.1.15 (KHTML, like Gecko) Version/18.1.1 Safari/605.1.15",Macintosh,Safari,18.1.1,OS X,10_15_7,https://5puzkbbxv1.cognition.run/?sona_id=57474,"en-US,en;q=0.9",e3vdunv2eyr0wq8,19,"[""White""]",No,Female,"NA
",No,1754632.0000000002,NA,9877,NA,"{""product_choice"":""A""}",choice,cdt,trinary,repulsion_B,2,microwave ovens,null,null,null,null,null,null,2,40,30,40,90,100,80,Warranty,Cooking power,NA,NA
NA,NA,NA,NA,NA,choice_trial_setup,html-keyboard-response,84,1374974,0.0-4.0-0.40,205,1,2025-05-05T21:31:16Z,b60275e29fe2361ab97ac0ac217840d7,"Mozilla/5.0 (Macintosh; Intel Mac OS X 10_15_7) AppleWebKit/605.1.15 (KHTML, like Gecko) Version/18.1.1 Safari/605.1.15",Macintosh,Safari,18.1.1,OS X,10_15_7,https://5puzkbbxv1.cognition.run/?sona_id=57474,"en-US,en;q=0.9",e3vdunv2eyr0wq8,19,"[""White""]",No,Female,"NA
",No,1754632.0000000002,NA,null,<p></p>,null,choice,tdc,trinary,attraction,1,televisions,null,null,null,null,null,null,2,NA,NA,NA,NA,NA,NA,NA,NA,NA,NA
NA,NA,NA,NA,NA,choice_trial,survey-html-form,85,1404453,0.0-4.0-1.40,205,1,2025-05-05T21:31:16Z,b60275e29fe2361ab97ac0ac217840d7,"Mozilla/5.0 (Macintosh; Intel Mac OS X 10_15_7) AppleWebKit/605.1.15 (KHTML, like Gecko) Version/18.1.1 Safari/605.1.15",Macintosh,Safari,18.1.1,OS X,10_15_7,https://5puzkbbxv1.cognition.run/?sona_id=57474,"en-US,en;q=0.9",e3vdunv2eyr0wq8,19,"[""White""]",No,Female,"NA
",No,1754632.0000000002,NA,29473,NA,"{""product_choice"":""C""}",choice,tdc,trinary,attraction,1,televisions,null,null,null,null,null,null,2,60,50,60,50,60,40,Screen size,Average lifespan,NA,NA
NA,NA,NA,NA,NA,choice_trial_setup,html-keyboard-response,86,1404759,0.0-4.0-0.41,205,1,2025-05-05T21:31:16Z,b60275e29fe2361ab97ac0ac217840d7,"Mozilla/5.0 (Macintosh; Intel Mac OS X 10_15_7) AppleWebKit/605.1.15 (KHTML, like Gecko) Version/18.1.1 Safari/605.1.15",Macintosh,Safari,18.1.1,OS X,10_15_7,https://5puzkbbxv1.cognition.run/?sona_id=57474,"en-US,en;q=0.9",e3vdunv2eyr0wq8,19,"[""White""]",No,Female,"NA
",No,1754632.0000000002,NA,null,<p></p>,null,choice,tcd,trinary,repulsion_A,2,washing machines,null,null,null,null,null,null,2,NA,NA,NA,NA,NA,NA,NA,NA,NA,NA
NA,NA,NA,NA,NA,choice_trial,survey-html-form,87,1440302,0.0-4.0-1.41,205,1,2025-05-05T21:31:16Z,b60275e29fe2361ab97ac0ac217840d7,"Mozilla/5.0 (Macintosh; Intel Mac OS X 10_15_7) AppleWebKit/605.1.15 (KHTML, like Gecko) Version/18.1.1 Safari/605.1.15",Macintosh,Safari,18.1.1,OS X,10_15_7,https://5puzkbbxv1.cognition.run/?sona_id=57474,"en-US,en;q=0.9",e3vdunv2eyr0wq8,19,"[""White""]",No,Female,"NA
",No,1754632.0000000002,NA,35538,NA,"{""product_choice"":""B""}",choice,tcd,trinary,repulsion_A,2,washing machines,null,null,null,null,null,null,2,30,40,20,100,90,100,Average lifespan,Energy savings,NA,NA
NA,NA,NA,NA,NA,choice_trial_setup,html-keyboard-response,88,1440606,0.0-4.0-0.42,205,1,2025-05-05T21:31:16Z,b60275e29fe2361ab97ac0ac217840d7,"Mozilla/5.0 (Macintosh; Intel Mac OS X 10_15_7) AppleWebKit/605.1.15 (KHTML, like Gecko) Version/18.1.1 Safari/605.1.15",Macintosh,Safari,18.1.1,OS X,10_15_7,https://5puzkbbxv1.cognition.run/?sona_id=57474,"en-US,en;q=0.9",e3vdunv2eyr0wq8,19,"[""White""]",No,Female,"NA
",No,1754632.0000000002,NA,null,<p></p>,null,choice,tcd,trinary,attraction,1,laptops,null,null,null,null,null,null,2,NA,NA,NA,NA,NA,NA,NA,NA,NA,NA
NA,NA,NA,NA,NA,choice_trial,survey-html-form,89,1461102,0.0-4.0-1.42,205,1,2025-05-05T21:31:16Z,b60275e29fe2361ab97ac0ac217840d7,"Mozilla/5.0 (Macintosh; Intel Mac OS X 10_15_7) AppleWebKit/605.1.15 (KHTML, like Gecko) Version/18.1.1 Safari/605.1.15",Macintosh,Safari,18.1.1,OS X,10_15_7,https://5puzkbbxv1.cognition.run/?sona_id=57474,"en-US,en;q=0.9",e3vdunv2eyr0wq8,19,"[""White""]",No,Female,"NA
",No,1754632.0000000002,NA,20490,NA,"{""product_choice"":""B""}",choice,tcd,trinary,attraction,1,laptops,null,null,null,null,null,null,2,60,50,60,50,60,40,Processing speed,Memory (RAM),NA,NA
NA,NA,NA,NA,NA,choice_trial_setup,html-keyboard-response,90,1461406,0.0-4.0-0.43,205,1,2025-05-05T21:31:16Z,b60275e29fe2361ab97ac0ac217840d7,"Mozilla/5.0 (Macintosh; Intel Mac OS X 10_15_7) AppleWebKit/605.1.15 (KHTML, like Gecko) Version/18.1.1 Safari/605.1.15",Macintosh,Safari,18.1.1,OS X,10_15_7,https://5puzkbbxv1.cognition.run/?sona_id=57474,"en-US,en;q=0.9",e3vdunv2eyr0wq8,19,"[""White""]",No,Female,"NA
",No,1754632.0000000002,NA,null,<p></p>,null,choice,tdc,trinary,repulsion_A,1,microwave ovens,null,null,null,null,null,null,2,NA,NA,NA,NA,NA,NA,NA,NA,NA,NA
NA,NA,NA,NA,NA,choice_trial,survey-html-form,91,1502666,0.0-4.0-1.43,205,1,2025-05-05T21:31:16Z,b60275e29fe2361ab97ac0ac217840d7,"Mozilla/5.0 (Macintosh; Intel Mac OS X 10_15_7) AppleWebKit/605.1.15 (KHTML, like Gecko) Version/18.1.1 Safari/605.1.15",Macintosh,Safari,18.1.1,OS X,10_15_7,https://5puzkbbxv1.cognition.run/?sona_id=57474,"en-US,en;q=0.9",e3vdunv2eyr0wq8,19,"[""White""]",No,Female,"NA
",No,1754632.0000000002,NA,41255,NA,"{""product_choice"":""C""}",choice,tdc,trinary,repulsion_A,1,microwave ovens,null,null,null,null,null,null,2,100,90,100,30,40,20,Warranty,Cooking power,NA,NA
NA,NA,NA,NA,NA,post_trials_message,html-button-response,92,1503783,0.0-5.0,205,1,2025-05-05T21:31:16Z,b60275e29fe2361ab97ac0ac217840d7,"Mozilla/5.0 (Macintosh; Intel Mac OS X 10_15_7) AppleWebKit/605.1.15 (KHTML, like Gecko) Version/18.1.1 Safari/605.1.15",Macintosh,Safari,18.1.1,OS X,10_15_7,https://5puzkbbxv1.cognition.run/?sona_id=57474,"en-US,en;q=0.9",e3vdunv2eyr0wq8,19,"[""White""]",No,Female,"NA
",No,1754632.0000000002,NA,1114,<p> <b>Thank you for your patience!</b></p><p>  The study will be done after completing a brief form. </p>,0,NA,NA,NA,NA,NA,NA,NA,NA,NA,NA,NA,NA,NA,NA,NA,NA,NA,NA,NA,NA,NA,NA,NA
NA,NA,NA,NA,NA,survey_message,survey-text,93,1616193,0.0-6.0,205,1,2025-05-05T21:31:16Z,b60275e29fe2361ab97ac0ac217840d7,"Mozilla/5.0 (Macintosh; Intel Mac OS X 10_15_7) AppleWebKit/605.1.15 (KHTML, like Gecko) Version/18.1.1 Safari/605.1.15",Macintosh,Safari,18.1.1,OS X,10_15_7,https://5puzkbbxv1.cognition.run/?sona_id=57474,"en-US,en;q=0.9",e3vdunv2eyr0wq8,19,"[""White""]",No,Female,"NA
",No,1754632.0000000002,NA,112392,NA,"{""Q0"":""I went to the one that I thought had the most value from both sides. ""}",NA,NA,NA,NA,NA,NA,NA,NA,NA,NA,NA,NA,NA,NA,NA,NA,NA,NA,NA,NA,NA,I went to the one that I thought had the most value from both sides.,NA
NA,NA,NA,NA,NA,demo_age,survey-text,94,1618463,0.0-7.0,205,1,2025-05-05T21:31:16Z,b60275e29fe2361ab97ac0ac217840d7,"Mozilla/5.0 (Macintosh; Intel Mac OS X 10_15_7) AppleWebKit/605.1.15 (KHTML, like Gecko) Version/18.1.1 Safari/605.1.15",Macintosh,Safari,18.1.1,OS X,10_15_7,https://5puzkbbxv1.cognition.run/?sona_id=57474,"en-US,en;q=0.9",e3vdunv2eyr0wq8,19,"[""White""]",No,Female,"NA
",No,1754632.0000000002,NA,2259,NA,"{""Q0"":""19""}",NA,NA,NA,NA,NA,NA,NA,NA,NA,NA,NA,NA,NA,NA,NA,NA,NA,NA,NA,NA,NA,NA,NA
NA,NA,NA,NA,NA,demo_race,survey-multi-select,95,1620904,0.0-8.0,205,1,2025-05-05T21:31:16Z,b60275e29fe2361ab97ac0ac217840d7,"Mozilla/5.0 (Macintosh; Intel Mac OS X 10_15_7) AppleWebKit/605.1.15 (KHTML, like Gecko) Version/18.1.1 Safari/605.1.15",Macintosh,Safari,18.1.1,OS X,10_15_7,https://5puzkbbxv1.cognition.run/?sona_id=57474,"en-US,en;q=0.9",e3vdunv2eyr0wq8,19,"[""White""]",No,Female,"NA
",No,1754632.0000000002,NA,2433,NA,"{""Q0"":[""White""]}",NA,NA,NA,NA,NA,NA,NA,NA,NA,NA,NA,NA,NA,NA,NA,NA,NA,NA,NA,NA,NA,NA,[0]
NA,NA,NA,NA,NA,demo_ethnicity_gender,survey-multi-choice,96,1629670,0.0-9.0,205,1,2025-05-05T21:31:16Z,b60275e29fe2361ab97ac0ac217840d7,"Mozilla/5.0 (Macintosh; Intel Mac OS X 10_15_7) AppleWebKit/605.1.15 (KHTML, like Gecko) Version/18.1.1 Safari/605.1.15",Macintosh,Safari,18.1.1,OS X,10_15_7,https://5puzkbbxv1.cognition.run/?sona_id=57474,"en-US,en;q=0.9",e3vdunv2eyr0wq8,19,"[""White""]",No,Female,"NA
",No,1754632.0000000002,NA,8761,NA,"{""Q0"":""No"",""Q1"":""Female""}",NA,NA,NA,NA,NA,NA,NA,NA,NA,NA,NA,NA,NA,NA,NA,NA,NA,NA,NA,NA,NA,NA,"[0,1]"
NA,NA,NA,NA,NA,demo_countries,survey-text,97,1656642,0.0-10.0,205,1,2025-05-05T21:31:16Z,b60275e29fe2361ab97ac0ac217840d7,"Mozilla/5.0 (Macintosh; Intel Mac OS X 10_15_7) AppleWebKit/605.1.15 (KHTML, like Gecko) Version/18.1.1 Safari/605.1.15",Macintosh,Safari,18.1.1,OS X,10_15_7,https://5puzkbbxv1.cognition.run/?sona_id=57474,"en-US,en;q=0.9",e3vdunv2eyr0wq8,19,"[""White""]",No,Female,"NA
",No,1754632.0000000002,NA,26954,NA,"{""Q0"":""NA\n""}",NA,NA,NA,NA,NA,NA,NA,NA,NA,NA,NA,NA,NA,NA,NA,NA,NA,NA,NA,NA,NA,NA,NA
NA,NA,NA,NA,NA,demo_prev_study,survey-multi-choice,98,1680835,0.0-11.0,205,1,2025-05-05T21:31:16Z,b60275e29fe2361ab97ac0ac217840d7,"Mozilla/5.0 (Macintosh; Intel Mac OS X 10_15_7) AppleWebKit/605.1.15 (KHTML, like Gecko) Version/18.1.1 Safari/605.1.15",Macintosh,Safari,18.1.1,OS X,10_15_7,https://5puzkbbxv1.cognition.run/?sona_id=57474,"en-US,en;q=0.9",e3vdunv2eyr0wq8,19,"[""White""]",No,Female,"NA
",No,1754632.0000000002,NA,24189,NA,"{""Q0"":""No""}",NA,NA,NA,NA,NA,NA,NA,NA,NA,NA,NA,NA,NA,NA,NA,NA,NA,NA,NA,NA,NA,NA,[0]
NA,NA,NA,NA,NA,post_survey_message,html-keyboard-response,99,1690880,0.0-12.0,205,1,2025-05-05T21:31:16Z,b60275e29fe2361ab97ac0ac217840d7,"Mozilla/5.0 (Macintosh; Intel Mac OS X 10_15_7) AppleWebKit/605.1.15 (KHTML, like Gecko) Version/18.1.1 Safari/605.1.15",Macintosh,Safari,18.1.1,OS X,10_15_7,https://5puzkbbxv1.cognition.run/?sona_id=57474,"en-US,en;q=0.9",e3vdunv2eyr0wq8,19,"[""White""]",No,Female,"NA
",No,1754632.0000000002,NA,10039,NA,j,NA,NA,NA,NA,NA,NA,NA,NA,NA,NA,NA,NA,NA,NA,NA,NA,NA,NA,NA,NA,NA,NA,NA
NA,NA,NA,NA,NA,debrief,image-keyboard-response,100,1754629,0.0-13.0,205,1,2025-05-05T21:31:16Z,b60275e29fe2361ab97ac0ac217840d7,"Mozilla/5.0 (Macintosh; Intel Mac OS X 10_15_7) AppleWebKit/605.1.15 (KHTML, like Gecko) Version/18.1.1 Safari/605.1.15",Macintosh,Safari,18.1.1,OS X,10_15_7,https://5puzkbbxv1.cognition.run/?sona_id=57474,"en-US,en;q=0.9",e3vdunv2eyr0wq8,19,"[""White""]",No,Female,"NA
",No,1754632.0000000002,NA,63733,Judg_choice_debrief.png,p,NA,NA,NA,NA,NA,NA,NA,NA,NA,NA,NA,NA,NA,NA,NA,NA,NA,NA,NA,NA,NA,NA,NA
