success,timeout,failed_images,failed_audio,failed_video,screen_id,trial_type,trial_index,time_elapsed,internal_node_id,run_id,condition,recorded_at,source_code_version,user_agent,device,browser,browser_version,platform,platform_version,referer,accept_language,ppt_id,age,race,ethnicity,gender,other_countries,prev_study,exp_duration,view_history,rt,stimulus,response,phase,order,set,effect,t_high,category,d1_best,d2_best,d1_worst1,d2_worst1,d1_worst2,d2_worst2,first_dim,d1_t,d1_c,d1_d,d2_t,d2_c,d2_d,d1_name,d2_name,strategy_response,question_order
TRUE,FALSE,[],[],[],img preload,preload,0,95,0.0-0.0,206,1,2025-05-05T21:37:38Z,b60275e29fe2361ab97ac0ac217840d7,"Mozilla/5.0 (Macintosh; Intel Mac OS X 10_15_7) AppleWebKit/605.1.15 (KHTML, like Gecko) Version/16.5 Safari/605.1.15",Macintosh,Safari,16.5,OS X,10_15_7,https://5puzkbbxv1.cognition.run/?sona_id=57360,"en-US,en;q=0.9",4sfptkf6zgv0vce,18,"[""White""]",No,Female,na,I'm not sure,304216,NA,NA,NA,NA,NA,NA,NA,NA,NA,NA,NA,NA,NA,NA,NA,NA,NA,NA,NA,NA,NA,NA,NA,NA,NA,NA,NA
NA,NA,NA,NA,NA,computer_message,instructions,1,1433,0.0-1.0,206,1,2025-05-05T21:37:38Z,b60275e29fe2361ab97ac0ac217840d7,"Mozilla/5.0 (Macintosh; Intel Mac OS X 10_15_7) AppleWebKit/605.1.15 (KHTML, like Gecko) Version/16.5 Safari/605.1.15",Macintosh,Safari,16.5,OS X,10_15_7,https://5puzkbbxv1.cognition.run/?sona_id=57360,"en-US,en;q=0.9",4sfptkf6zgv0vce,18,"[""White""]",No,Female,na,I'm not sure,304216,"[{""page_index"":0,""viewing_time"":1336}]",1336,NA,NA,NA,NA,NA,NA,NA,NA,NA,NA,NA,NA,NA,NA,NA,NA,NA,NA,NA,NA,NA,NA,NA,NA,NA
TRUE,NA,NA,NA,NA,NA,fullscreen,2,3373,0.0-2.0,206,1,2025-05-05T21:37:38Z,b60275e29fe2361ab97ac0ac217840d7,"Mozilla/5.0 (Macintosh; Intel Mac OS X 10_15_7) AppleWebKit/605.1.15 (KHTML, like Gecko) Version/16.5 Safari/605.1.15",Macintosh,Safari,16.5,OS X,10_15_7,https://5puzkbbxv1.cognition.run/?sona_id=57360,"en-US,en;q=0.9",4sfptkf6zgv0vce,18,"[""White""]",No,Female,na,I'm not sure,304216,NA,934,NA,NA,NA,NA,NA,NA,NA,NA,NA,NA,NA,NA,NA,NA,NA,NA,NA,NA,NA,NA,NA,NA,NA,NA,NA
NA,NA,NA,NA,NA,choice_instructions,instructions,3,24083,0.0-3.0,206,1,2025-05-05T21:37:38Z,b60275e29fe2361ab97ac0ac217840d7,"Mozilla/5.0 (Macintosh; Intel Mac OS X 10_15_7) AppleWebKit/605.1.15 (KHTML, like Gecko) Version/16.5 Safari/605.1.15",Macintosh,Safari,16.5,OS X,10_15_7,https://5puzkbbxv1.cognition.run/?sona_id=57360,"en-US,en;q=0.9",4sfptkf6zgv0vce,18,"[""White""]",No,Female,na,I'm not sure,304216,"[{""page_index"":0,""viewing_time"":825},{""page_index"":1,""viewing_time"":1552},{""page_index"":2,""viewing_time"":1431},{""page_index"":3,""viewing_time"":1936},{""page_index"":4,""viewing_time"":1032},{""page_index"":5,""viewing_time"":10202},{""page_index"":6,""viewing_time"":3732}]",20710,NA,NA,NA,NA,NA,NA,NA,NA,NA,NA,NA,NA,NA,NA,NA,NA,NA,NA,NA,NA,NA,NA,NA,NA,NA
NA,NA,NA,NA,NA,choice_trial_setup,html-keyboard-response,4,24390,0.0-4.0-0.0,206,1,2025-05-05T21:37:38Z,b60275e29fe2361ab97ac0ac217840d7,"Mozilla/5.0 (Macintosh; Intel Mac OS X 10_15_7) AppleWebKit/605.1.15 (KHTML, like Gecko) Version/16.5 Safari/605.1.15",Macintosh,Safari,16.5,OS X,10_15_7,https://5puzkbbxv1.cognition.run/?sona_id=57360,"en-US,en;q=0.9",4sfptkf6zgv0vce,18,"[""White""]",No,Female,na,I'm not sure,304216,NA,null,<p></p>,null,choice,dct,trinary,repulsion_A,1,microwave ovens,null,null,null,null,null,null,1,NA,NA,NA,NA,NA,NA,NA,NA,NA,NA
NA,NA,NA,NA,NA,choice_trial,survey-html-form,5,34056,0.0-4.0-1.0,206,1,2025-05-05T21:37:38Z,b60275e29fe2361ab97ac0ac217840d7,"Mozilla/5.0 (Macintosh; Intel Mac OS X 10_15_7) AppleWebKit/605.1.15 (KHTML, like Gecko) Version/16.5 Safari/605.1.15",Macintosh,Safari,16.5,OS X,10_15_7,https://5puzkbbxv1.cognition.run/?sona_id=57360,"en-US,en;q=0.9",4sfptkf6zgv0vce,18,"[""White""]",No,Female,na,I'm not sure,304216,NA,9659,NA,"{""product_choice"":""B""}",choice,dct,trinary,repulsion_A,1,microwave ovens,null,null,null,null,null,null,1,100,90,100,30,40,20,Warranty,Cooking power,NA,NA
NA,NA,NA,NA,NA,choice_trial_setup,html-keyboard-response,6,34358,0.0-4.0-0.1,206,1,2025-05-05T21:37:38Z,b60275e29fe2361ab97ac0ac217840d7,"Mozilla/5.0 (Macintosh; Intel Mac OS X 10_15_7) AppleWebKit/605.1.15 (KHTML, like Gecko) Version/16.5 Safari/605.1.15",Macintosh,Safari,16.5,OS X,10_15_7,https://5puzkbbxv1.cognition.run/?sona_id=57360,"en-US,en;q=0.9",4sfptkf6zgv0vce,18,"[""White""]",No,Female,na,I'm not sure,304216,NA,null,<p></p>,null,choice,dct,trinary,attraction,2,televisions,null,null,null,null,null,null,2,NA,NA,NA,NA,NA,NA,NA,NA,NA,NA
NA,NA,NA,NA,NA,choice_trial,survey-html-form,7,42920,0.0-4.0-1.1,206,1,2025-05-05T21:37:38Z,b60275e29fe2361ab97ac0ac217840d7,"Mozilla/5.0 (Macintosh; Intel Mac OS X 10_15_7) AppleWebKit/605.1.15 (KHTML, like Gecko) Version/16.5 Safari/605.1.15",Macintosh,Safari,16.5,OS X,10_15_7,https://5puzkbbxv1.cognition.run/?sona_id=57360,"en-US,en;q=0.9",4sfptkf6zgv0vce,18,"[""White""]",No,Female,na,I'm not sure,304216,NA,8559,NA,"{""product_choice"":""C""}",choice,dct,trinary,attraction,2,televisions,null,null,null,null,null,null,2,50,60,40,60,50,60,Screen size,Average lifespan,NA,NA
NA,NA,NA,NA,NA,choice_trial_setup,html-keyboard-response,8,43223,0.0-4.0-0.2,206,1,2025-05-05T21:37:38Z,b60275e29fe2361ab97ac0ac217840d7,"Mozilla/5.0 (Macintosh; Intel Mac OS X 10_15_7) AppleWebKit/605.1.15 (KHTML, like Gecko) Version/16.5 Safari/605.1.15",Macintosh,Safari,16.5,OS X,10_15_7,https://5puzkbbxv1.cognition.run/?sona_id=57360,"en-US,en;q=0.9",4sfptkf6zgv0vce,18,"[""White""]",No,Female,na,I'm not sure,304216,NA,null,<p></p>,null,choice,dtc,trinary,repulsion_B,1,laptops,null,null,null,null,null,null,1,NA,NA,NA,NA,NA,NA,NA,NA,NA,NA
NA,NA,NA,NA,NA,choice_trial,survey-html-form,9,50502,0.0-4.0-1.2,206,1,2025-05-05T21:37:38Z,b60275e29fe2361ab97ac0ac217840d7,"Mozilla/5.0 (Macintosh; Intel Mac OS X 10_15_7) AppleWebKit/605.1.15 (KHTML, like Gecko) Version/16.5 Safari/605.1.15",Macintosh,Safari,16.5,OS X,10_15_7,https://5puzkbbxv1.cognition.run/?sona_id=57360,"en-US,en;q=0.9",4sfptkf6zgv0vce,18,"[""White""]",No,Female,na,I'm not sure,304216,NA,7275,NA,"{""product_choice"":""B""}",choice,dtc,trinary,repulsion_B,1,laptops,null,null,null,null,null,null,1,90,100,80,40,30,40,Processing speed,Memory (RAM),NA,NA
NA,NA,NA,NA,NA,choice_trial_setup,html-keyboard-response,10,50805,0.0-4.0-0.3,206,1,2025-05-05T21:37:38Z,b60275e29fe2361ab97ac0ac217840d7,"Mozilla/5.0 (Macintosh; Intel Mac OS X 10_15_7) AppleWebKit/605.1.15 (KHTML, like Gecko) Version/16.5 Safari/605.1.15",Macintosh,Safari,16.5,OS X,10_15_7,https://5puzkbbxv1.cognition.run/?sona_id=57360,"en-US,en;q=0.9",4sfptkf6zgv0vce,18,"[""White""]",No,Female,na,I'm not sure,304216,NA,null,<p></p>,null,choice,tdc,trinary,repulsion_B,2,televisions,null,null,null,null,null,null,2,NA,NA,NA,NA,NA,NA,NA,NA,NA,NA
NA,NA,NA,NA,NA,choice_trial,survey-html-form,11,65604,0.0-4.0-1.3,206,1,2025-05-05T21:37:38Z,b60275e29fe2361ab97ac0ac217840d7,"Mozilla/5.0 (Macintosh; Intel Mac OS X 10_15_7) AppleWebKit/605.1.15 (KHTML, like Gecko) Version/16.5 Safari/605.1.15",Macintosh,Safari,16.5,OS X,10_15_7,https://5puzkbbxv1.cognition.run/?sona_id=57360,"en-US,en;q=0.9",4sfptkf6zgv0vce,18,"[""White""]",No,Female,na,I'm not sure,304216,NA,14795,NA,"{""product_choice"":""A""}",choice,tdc,trinary,repulsion_B,2,televisions,null,null,null,null,null,null,2,40,30,40,90,100,80,Screen size,Average lifespan,NA,NA
NA,NA,NA,NA,NA,choice_trial_setup,html-keyboard-response,12,65906,0.0-4.0-0.4,206,1,2025-05-05T21:37:38Z,b60275e29fe2361ab97ac0ac217840d7,"Mozilla/5.0 (Macintosh; Intel Mac OS X 10_15_7) AppleWebKit/605.1.15 (KHTML, like Gecko) Version/16.5 Safari/605.1.15",Macintosh,Safari,16.5,OS X,10_15_7,https://5puzkbbxv1.cognition.run/?sona_id=57360,"en-US,en;q=0.9",4sfptkf6zgv0vce,18,"[""White""]",No,Female,na,I'm not sure,304216,NA,null,<p></p>,null,choice,ctd,trinary,attraction,1,microwave ovens,null,null,null,null,null,null,1,NA,NA,NA,NA,NA,NA,NA,NA,NA,NA
NA,NA,NA,NA,NA,choice_trial,survey-html-form,13,74285,0.0-4.0-1.4,206,1,2025-05-05T21:37:38Z,b60275e29fe2361ab97ac0ac217840d7,"Mozilla/5.0 (Macintosh; Intel Mac OS X 10_15_7) AppleWebKit/605.1.15 (KHTML, like Gecko) Version/16.5 Safari/605.1.15",Macintosh,Safari,16.5,OS X,10_15_7,https://5puzkbbxv1.cognition.run/?sona_id=57360,"en-US,en;q=0.9",4sfptkf6zgv0vce,18,"[""White""]",No,Female,na,I'm not sure,304216,NA,8375,NA,"{""product_choice"":""B""}",choice,ctd,trinary,attraction,1,microwave ovens,null,null,null,null,null,null,1,60,50,60,50,60,40,Warranty,Cooking power,NA,NA
NA,NA,NA,NA,NA,choice_trial_setup,html-keyboard-response,14,74589,0.0-4.0-0.5,206,1,2025-05-05T21:37:38Z,b60275e29fe2361ab97ac0ac217840d7,"Mozilla/5.0 (Macintosh; Intel Mac OS X 10_15_7) AppleWebKit/605.1.15 (KHTML, like Gecko) Version/16.5 Safari/605.1.15",Macintosh,Safari,16.5,OS X,10_15_7,https://5puzkbbxv1.cognition.run/?sona_id=57360,"en-US,en;q=0.9",4sfptkf6zgv0vce,18,"[""White""]",No,Female,na,I'm not sure,304216,NA,null,<p></p>,null,choice,dtc,trinary,repulsion_B,2,microwave ovens,null,null,null,null,null,null,1,NA,NA,NA,NA,NA,NA,NA,NA,NA,NA
NA,NA,NA,NA,NA,choice_trial,survey-html-form,15,79170,0.0-4.0-1.5,206,1,2025-05-05T21:37:38Z,b60275e29fe2361ab97ac0ac217840d7,"Mozilla/5.0 (Macintosh; Intel Mac OS X 10_15_7) AppleWebKit/605.1.15 (KHTML, like Gecko) Version/16.5 Safari/605.1.15",Macintosh,Safari,16.5,OS X,10_15_7,https://5puzkbbxv1.cognition.run/?sona_id=57360,"en-US,en;q=0.9",4sfptkf6zgv0vce,18,"[""White""]",No,Female,na,I'm not sure,304216,NA,4577,NA,"{""product_choice"":""A""}",choice,dtc,trinary,repulsion_B,2,microwave ovens,null,null,null,null,null,null,1,40,30,40,90,100,80,Warranty,Cooking power,NA,NA
NA,NA,NA,NA,NA,choice_trial_setup,html-keyboard-response,16,79474,0.0-4.0-0.6,206,1,2025-05-05T21:37:38Z,b60275e29fe2361ab97ac0ac217840d7,"Mozilla/5.0 (Macintosh; Intel Mac OS X 10_15_7) AppleWebKit/605.1.15 (KHTML, like Gecko) Version/16.5 Safari/605.1.15",Macintosh,Safari,16.5,OS X,10_15_7,https://5puzkbbxv1.cognition.run/?sona_id=57360,"en-US,en;q=0.9",4sfptkf6zgv0vce,18,"[""White""]",No,Female,na,I'm not sure,304216,NA,null,<p></p>,null,choice,tc,binary,attraction,NA,washing machines,null,null,null,null,null,null,1,NA,NA,NA,NA,NA,NA,NA,NA,NA,NA
NA,NA,NA,NA,NA,choice_trial,survey-html-form,17,84252,0.0-4.0-1.6,206,1,2025-05-05T21:37:38Z,b60275e29fe2361ab97ac0ac217840d7,"Mozilla/5.0 (Macintosh; Intel Mac OS X 10_15_7) AppleWebKit/605.1.15 (KHTML, like Gecko) Version/16.5 Safari/605.1.15",Macintosh,Safari,16.5,OS X,10_15_7,https://5puzkbbxv1.cognition.run/?sona_id=57360,"en-US,en;q=0.9",4sfptkf6zgv0vce,18,"[""White""]",No,Female,na,I'm not sure,304216,NA,4773,NA,"{""product_choice"":""A""}",choice,tc,binary,attraction,NA,washing machines,null,null,null,null,null,null,1,60,50,null,50,60,null,Average lifespan,Energy savings,NA,NA
NA,NA,NA,NA,NA,choice_trial_setup,html-keyboard-response,18,84556,0.0-4.0-0.7,206,1,2025-05-05T21:37:38Z,b60275e29fe2361ab97ac0ac217840d7,"Mozilla/5.0 (Macintosh; Intel Mac OS X 10_15_7) AppleWebKit/605.1.15 (KHTML, like Gecko) Version/16.5 Safari/605.1.15",Macintosh,Safari,16.5,OS X,10_15_7,https://5puzkbbxv1.cognition.run/?sona_id=57360,"en-US,en;q=0.9",4sfptkf6zgv0vce,18,"[""White""]",No,Female,na,I'm not sure,304216,NA,null,<p></p>,null,choice,tc,binary,attraction,NA,laptops,null,null,null,null,null,null,1,NA,NA,NA,NA,NA,NA,NA,NA,NA,NA
NA,NA,NA,NA,NA,choice_trial,survey-html-form,19,88735,0.0-4.0-1.7,206,1,2025-05-05T21:37:38Z,b60275e29fe2361ab97ac0ac217840d7,"Mozilla/5.0 (Macintosh; Intel Mac OS X 10_15_7) AppleWebKit/605.1.15 (KHTML, like Gecko) Version/16.5 Safari/605.1.15",Macintosh,Safari,16.5,OS X,10_15_7,https://5puzkbbxv1.cognition.run/?sona_id=57360,"en-US,en;q=0.9",4sfptkf6zgv0vce,18,"[""White""]",No,Female,na,I'm not sure,304216,NA,4176,NA,"{""product_choice"":""A""}",choice,tc,binary,attraction,NA,laptops,null,null,null,null,null,null,1,60,50,null,50,60,null,Processing speed,Memory (RAM),NA,NA
NA,NA,NA,NA,NA,choice_trial_setup,html-keyboard-response,20,89039,0.0-4.0-0.8,206,1,2025-05-05T21:37:38Z,b60275e29fe2361ab97ac0ac217840d7,"Mozilla/5.0 (Macintosh; Intel Mac OS X 10_15_7) AppleWebKit/605.1.15 (KHTML, like Gecko) Version/16.5 Safari/605.1.15",Macintosh,Safari,16.5,OS X,10_15_7,https://5puzkbbxv1.cognition.run/?sona_id=57360,"en-US,en;q=0.9",4sfptkf6zgv0vce,18,"[""White""]",No,Female,na,I'm not sure,304216,NA,null,<p></p>,null,choice,cdt,trinary,repulsion_B,2,laptops,null,null,null,null,null,null,2,NA,NA,NA,NA,NA,NA,NA,NA,NA,NA
NA,NA,NA,NA,NA,choice_trial,survey-html-form,21,96022,0.0-4.0-1.8,206,1,2025-05-05T21:37:38Z,b60275e29fe2361ab97ac0ac217840d7,"Mozilla/5.0 (Macintosh; Intel Mac OS X 10_15_7) AppleWebKit/605.1.15 (KHTML, like Gecko) Version/16.5 Safari/605.1.15",Macintosh,Safari,16.5,OS X,10_15_7,https://5puzkbbxv1.cognition.run/?sona_id=57360,"en-US,en;q=0.9",4sfptkf6zgv0vce,18,"[""White""]",No,Female,na,I'm not sure,304216,NA,6978,NA,"{""product_choice"":""C""}",choice,cdt,trinary,repulsion_B,2,laptops,null,null,null,null,null,null,2,40,30,40,90,100,80,Processing speed,Memory (RAM),NA,NA
NA,NA,NA,NA,NA,choice_trial_setup,html-keyboard-response,22,96326,0.0-4.0-0.9,206,1,2025-05-05T21:37:38Z,b60275e29fe2361ab97ac0ac217840d7,"Mozilla/5.0 (Macintosh; Intel Mac OS X 10_15_7) AppleWebKit/605.1.15 (KHTML, like Gecko) Version/16.5 Safari/605.1.15",Macintosh,Safari,16.5,OS X,10_15_7,https://5puzkbbxv1.cognition.run/?sona_id=57360,"en-US,en;q=0.9",4sfptkf6zgv0vce,18,"[""White""]",No,Female,na,I'm not sure,304216,NA,null,<p></p>,null,choice,cdt,trinary,repulsion_A,2,washing machines,null,null,null,null,null,null,2,NA,NA,NA,NA,NA,NA,NA,NA,NA,NA
NA,NA,NA,NA,NA,choice_trial,survey-html-form,23,103520,0.0-4.0-1.9,206,1,2025-05-05T21:37:38Z,b60275e29fe2361ab97ac0ac217840d7,"Mozilla/5.0 (Macintosh; Intel Mac OS X 10_15_7) AppleWebKit/605.1.15 (KHTML, like Gecko) Version/16.5 Safari/605.1.15",Macintosh,Safari,16.5,OS X,10_15_7,https://5puzkbbxv1.cognition.run/?sona_id=57360,"en-US,en;q=0.9",4sfptkf6zgv0vce,18,"[""White""]",No,Female,na,I'm not sure,304216,NA,7189,NA,"{""product_choice"":""C""}",choice,cdt,trinary,repulsion_A,2,washing machines,null,null,null,null,null,null,2,30,40,20,100,90,100,Average lifespan,Energy savings,NA,NA
NA,NA,NA,NA,NA,choice_trial_setup,html-keyboard-response,24,103824,0.0-4.0-0.10,206,1,2025-05-05T21:37:38Z,b60275e29fe2361ab97ac0ac217840d7,"Mozilla/5.0 (Macintosh; Intel Mac OS X 10_15_7) AppleWebKit/605.1.15 (KHTML, like Gecko) Version/16.5 Safari/605.1.15",Macintosh,Safari,16.5,OS X,10_15_7,https://5puzkbbxv1.cognition.run/?sona_id=57360,"en-US,en;q=0.9",4sfptkf6zgv0vce,18,"[""White""]",No,Female,na,I'm not sure,304216,NA,null,<p></p>,null,choice,bw,binary,catch,null,televisions,70,85,30,20,null,null,2,NA,NA,NA,NA,NA,NA,NA,NA,NA,NA
NA,NA,NA,NA,NA,choice_trial,survey-html-form,25,106920,0.0-4.0-1.10,206,1,2025-05-05T21:37:38Z,b60275e29fe2361ab97ac0ac217840d7,"Mozilla/5.0 (Macintosh; Intel Mac OS X 10_15_7) AppleWebKit/605.1.15 (KHTML, like Gecko) Version/16.5 Safari/605.1.15",Macintosh,Safari,16.5,OS X,10_15_7,https://5puzkbbxv1.cognition.run/?sona_id=57360,"en-US,en;q=0.9",4sfptkf6zgv0vce,18,"[""White""]",No,Female,na,I'm not sure,304216,NA,3091,NA,"{""product_choice"":""A""}",choice,bw,binary,catch,null,televisions,70,85,30,20,null,null,2,null,null,null,null,null,null,Screen size,Average lifespan,NA,NA
NA,NA,NA,NA,NA,choice_trial_setup,html-keyboard-response,26,107223,0.0-4.0-0.11,206,1,2025-05-05T21:37:38Z,b60275e29fe2361ab97ac0ac217840d7,"Mozilla/5.0 (Macintosh; Intel Mac OS X 10_15_7) AppleWebKit/605.1.15 (KHTML, like Gecko) Version/16.5 Safari/605.1.15",Macintosh,Safari,16.5,OS X,10_15_7,https://5puzkbbxv1.cognition.run/?sona_id=57360,"en-US,en;q=0.9",4sfptkf6zgv0vce,18,"[""White""]",No,Female,na,I'm not sure,304216,NA,null,<p></p>,null,choice,tcd,trinary,attraction,2,washing machines,null,null,null,null,null,null,2,NA,NA,NA,NA,NA,NA,NA,NA,NA,NA
NA,NA,NA,NA,NA,choice_trial,survey-html-form,27,110469,0.0-4.0-1.11,206,1,2025-05-05T21:37:38Z,b60275e29fe2361ab97ac0ac217840d7,"Mozilla/5.0 (Macintosh; Intel Mac OS X 10_15_7) AppleWebKit/605.1.15 (KHTML, like Gecko) Version/16.5 Safari/605.1.15",Macintosh,Safari,16.5,OS X,10_15_7,https://5puzkbbxv1.cognition.run/?sona_id=57360,"en-US,en;q=0.9",4sfptkf6zgv0vce,18,"[""White""]",No,Female,na,I'm not sure,304216,NA,3242,NA,"{""product_choice"":""C""}",choice,tcd,trinary,attraction,2,washing machines,null,null,null,null,null,null,2,50,60,40,60,50,60,Average lifespan,Energy savings,NA,NA
NA,NA,NA,NA,NA,choice_trial_setup,html-keyboard-response,28,110773,0.0-4.0-0.12,206,1,2025-05-05T21:37:38Z,b60275e29fe2361ab97ac0ac217840d7,"Mozilla/5.0 (Macintosh; Intel Mac OS X 10_15_7) AppleWebKit/605.1.15 (KHTML, like Gecko) Version/16.5 Safari/605.1.15",Macintosh,Safari,16.5,OS X,10_15_7,https://5puzkbbxv1.cognition.run/?sona_id=57360,"en-US,en;q=0.9",4sfptkf6zgv0vce,18,"[""White""]",No,Female,na,I'm not sure,304216,NA,null,<p></p>,null,choice,dct,trinary,repulsion_A,1,televisions,null,null,null,null,null,null,1,NA,NA,NA,NA,NA,NA,NA,NA,NA,NA
NA,NA,NA,NA,NA,choice_trial,survey-html-form,29,117654,0.0-4.0-1.12,206,1,2025-05-05T21:37:38Z,b60275e29fe2361ab97ac0ac217840d7,"Mozilla/5.0 (Macintosh; Intel Mac OS X 10_15_7) AppleWebKit/605.1.15 (KHTML, like Gecko) Version/16.5 Safari/605.1.15",Macintosh,Safari,16.5,OS X,10_15_7,https://5puzkbbxv1.cognition.run/?sona_id=57360,"en-US,en;q=0.9",4sfptkf6zgv0vce,18,"[""White""]",No,Female,na,I'm not sure,304216,NA,6877,NA,"{""product_choice"":""C""}",choice,dct,trinary,repulsion_A,1,televisions,null,null,null,null,null,null,1,100,90,100,30,40,20,Screen size,Average lifespan,NA,NA
NA,NA,NA,NA,NA,choice_trial_setup,html-keyboard-response,30,117957,0.0-4.0-0.13,206,1,2025-05-05T21:37:38Z,b60275e29fe2361ab97ac0ac217840d7,"Mozilla/5.0 (Macintosh; Intel Mac OS X 10_15_7) AppleWebKit/605.1.15 (KHTML, like Gecko) Version/16.5 Safari/605.1.15",Macintosh,Safari,16.5,OS X,10_15_7,https://5puzkbbxv1.cognition.run/?sona_id=57360,"en-US,en;q=0.9",4sfptkf6zgv0vce,18,"[""White""]",No,Female,na,I'm not sure,304216,NA,null,<p></p>,null,choice,ct,binary,repulsion,2,televisions,null,null,null,null,null,null,1,NA,NA,NA,NA,NA,NA,NA,NA,NA,NA
NA,NA,NA,NA,NA,choice_trial,survey-html-form,31,122437,0.0-4.0-1.13,206,1,2025-05-05T21:37:38Z,b60275e29fe2361ab97ac0ac217840d7,"Mozilla/5.0 (Macintosh; Intel Mac OS X 10_15_7) AppleWebKit/605.1.15 (KHTML, like Gecko) Version/16.5 Safari/605.1.15",Macintosh,Safari,16.5,OS X,10_15_7,https://5puzkbbxv1.cognition.run/?sona_id=57360,"en-US,en;q=0.9",4sfptkf6zgv0vce,18,"[""White""]",No,Female,na,I'm not sure,304216,NA,4477,NA,"{""product_choice"":""A""}",choice,ct,binary,repulsion,2,televisions,null,null,null,null,null,null,1,30,40,null,100,90,null,Screen size,Average lifespan,NA,NA
NA,NA,NA,NA,NA,choice_trial_setup,html-keyboard-response,32,122741,0.0-4.0-0.14,206,1,2025-05-05T21:37:38Z,b60275e29fe2361ab97ac0ac217840d7,"Mozilla/5.0 (Macintosh; Intel Mac OS X 10_15_7) AppleWebKit/605.1.15 (KHTML, like Gecko) Version/16.5 Safari/605.1.15",Macintosh,Safari,16.5,OS X,10_15_7,https://5puzkbbxv1.cognition.run/?sona_id=57360,"en-US,en;q=0.9",4sfptkf6zgv0vce,18,"[""White""]",No,Female,na,I'm not sure,304216,NA,null,<p></p>,null,choice,ctd,trinary,repulsion_B,1,televisions,null,null,null,null,null,null,1,NA,NA,NA,NA,NA,NA,NA,NA,NA,NA
NA,NA,NA,NA,NA,choice_trial,survey-html-form,33,132936,0.0-4.0-1.14,206,1,2025-05-05T21:37:38Z,b60275e29fe2361ab97ac0ac217840d7,"Mozilla/5.0 (Macintosh; Intel Mac OS X 10_15_7) AppleWebKit/605.1.15 (KHTML, like Gecko) Version/16.5 Safari/605.1.15",Macintosh,Safari,16.5,OS X,10_15_7,https://5puzkbbxv1.cognition.run/?sona_id=57360,"en-US,en;q=0.9",4sfptkf6zgv0vce,18,"[""White""]",No,Female,na,I'm not sure,304216,NA,10191,NA,"{""product_choice"":""B""}",choice,ctd,trinary,repulsion_B,1,televisions,null,null,null,null,null,null,1,90,100,80,40,30,40,Screen size,Average lifespan,NA,NA
NA,NA,NA,NA,NA,choice_trial_setup,html-keyboard-response,34,133240,0.0-4.0-0.15,206,1,2025-05-05T21:37:38Z,b60275e29fe2361ab97ac0ac217840d7,"Mozilla/5.0 (Macintosh; Intel Mac OS X 10_15_7) AppleWebKit/605.1.15 (KHTML, like Gecko) Version/16.5 Safari/605.1.15",Macintosh,Safari,16.5,OS X,10_15_7,https://5puzkbbxv1.cognition.run/?sona_id=57360,"en-US,en;q=0.9",4sfptkf6zgv0vce,18,"[""White""]",No,Female,na,I'm not sure,304216,NA,null,<p></p>,null,choice,bw,binary,catch,null,laptops,80,65,30,25,null,null,1,NA,NA,NA,NA,NA,NA,NA,NA,NA,NA
NA,NA,NA,NA,NA,choice_trial,survey-html-form,35,135636,0.0-4.0-1.15,206,1,2025-05-05T21:37:38Z,b60275e29fe2361ab97ac0ac217840d7,"Mozilla/5.0 (Macintosh; Intel Mac OS X 10_15_7) AppleWebKit/605.1.15 (KHTML, like Gecko) Version/16.5 Safari/605.1.15",Macintosh,Safari,16.5,OS X,10_15_7,https://5puzkbbxv1.cognition.run/?sona_id=57360,"en-US,en;q=0.9",4sfptkf6zgv0vce,18,"[""White""]",No,Female,na,I'm not sure,304216,NA,2391,NA,"{""product_choice"":""B""}",choice,bw,binary,catch,null,laptops,80,65,30,25,null,null,1,null,null,null,null,null,null,Processing speed,Memory (RAM),NA,NA
NA,NA,NA,NA,NA,choice_trial_setup,html-keyboard-response,36,135939,0.0-4.0-0.16,206,1,2025-05-05T21:37:38Z,b60275e29fe2361ab97ac0ac217840d7,"Mozilla/5.0 (Macintosh; Intel Mac OS X 10_15_7) AppleWebKit/605.1.15 (KHTML, like Gecko) Version/16.5 Safari/605.1.15",Macintosh,Safari,16.5,OS X,10_15_7,https://5puzkbbxv1.cognition.run/?sona_id=57360,"en-US,en;q=0.9",4sfptkf6zgv0vce,18,"[""White""]",No,Female,na,I'm not sure,304216,NA,null,<p></p>,null,choice,tc,binary,attraction,NA,microwave ovens,null,null,null,null,null,null,2,NA,NA,NA,NA,NA,NA,NA,NA,NA,NA
NA,NA,NA,NA,NA,choice_trial,survey-html-form,37,138370,0.0-4.0-1.16,206,1,2025-05-05T21:37:38Z,b60275e29fe2361ab97ac0ac217840d7,"Mozilla/5.0 (Macintosh; Intel Mac OS X 10_15_7) AppleWebKit/605.1.15 (KHTML, like Gecko) Version/16.5 Safari/605.1.15",Macintosh,Safari,16.5,OS X,10_15_7,https://5puzkbbxv1.cognition.run/?sona_id=57360,"en-US,en;q=0.9",4sfptkf6zgv0vce,18,"[""White""]",No,Female,na,I'm not sure,304216,NA,2426,NA,"{""product_choice"":""A""}",choice,tc,binary,attraction,NA,microwave ovens,null,null,null,null,null,null,2,60,50,null,50,60,null,Warranty,Cooking power,NA,NA
NA,NA,NA,NA,NA,choice_trial_setup,html-keyboard-response,38,138674,0.0-4.0-0.17,206,1,2025-05-05T21:37:38Z,b60275e29fe2361ab97ac0ac217840d7,"Mozilla/5.0 (Macintosh; Intel Mac OS X 10_15_7) AppleWebKit/605.1.15 (KHTML, like Gecko) Version/16.5 Safari/605.1.15",Macintosh,Safari,16.5,OS X,10_15_7,https://5puzkbbxv1.cognition.run/?sona_id=57360,"en-US,en;q=0.9",4sfptkf6zgv0vce,18,"[""White""]",No,Female,na,I'm not sure,304216,NA,null,<p></p>,null,choice,wb,binary,catch,null,microwave ovens,65,90,25,25,null,null,2,NA,NA,NA,NA,NA,NA,NA,NA,NA,NA
NA,NA,NA,NA,NA,choice_trial,survey-html-form,39,140869,0.0-4.0-1.17,206,1,2025-05-05T21:37:38Z,b60275e29fe2361ab97ac0ac217840d7,"Mozilla/5.0 (Macintosh; Intel Mac OS X 10_15_7) AppleWebKit/605.1.15 (KHTML, like Gecko) Version/16.5 Safari/605.1.15",Macintosh,Safari,16.5,OS X,10_15_7,https://5puzkbbxv1.cognition.run/?sona_id=57360,"en-US,en;q=0.9",4sfptkf6zgv0vce,18,"[""White""]",No,Female,na,I'm not sure,304216,NA,2193,NA,"{""product_choice"":""B""}",choice,wb,binary,catch,null,microwave ovens,65,90,25,25,null,null,2,null,null,null,null,null,null,Warranty,Cooking power,NA,NA
NA,NA,NA,NA,NA,choice_trial_setup,html-keyboard-response,40,141173,0.0-4.0-0.18,206,1,2025-05-05T21:37:38Z,b60275e29fe2361ab97ac0ac217840d7,"Mozilla/5.0 (Macintosh; Intel Mac OS X 10_15_7) AppleWebKit/605.1.15 (KHTML, like Gecko) Version/16.5 Safari/605.1.15",Macintosh,Safari,16.5,OS X,10_15_7,https://5puzkbbxv1.cognition.run/?sona_id=57360,"en-US,en;q=0.9",4sfptkf6zgv0vce,18,"[""White""]",No,Female,na,I'm not sure,304216,NA,null,<p></p>,null,choice,cdt,trinary,attraction,2,microwave ovens,null,null,null,null,null,null,2,NA,NA,NA,NA,NA,NA,NA,NA,NA,NA
NA,NA,NA,NA,NA,choice_trial,survey-html-form,41,143453,0.0-4.0-1.18,206,1,2025-05-05T21:37:38Z,b60275e29fe2361ab97ac0ac217840d7,"Mozilla/5.0 (Macintosh; Intel Mac OS X 10_15_7) AppleWebKit/605.1.15 (KHTML, like Gecko) Version/16.5 Safari/605.1.15",Macintosh,Safari,16.5,OS X,10_15_7,https://5puzkbbxv1.cognition.run/?sona_id=57360,"en-US,en;q=0.9",4sfptkf6zgv0vce,18,"[""White""]",No,Female,na,I'm not sure,304216,NA,2277,NA,"{""product_choice"":""B""}",choice,cdt,trinary,attraction,2,microwave ovens,null,null,null,null,null,null,2,50,60,40,60,50,60,Warranty,Cooking power,NA,NA
NA,NA,NA,NA,NA,choice_trial_setup,html-keyboard-response,42,143757,0.0-4.0-0.19,206,1,2025-05-05T21:37:38Z,b60275e29fe2361ab97ac0ac217840d7,"Mozilla/5.0 (Macintosh; Intel Mac OS X 10_15_7) AppleWebKit/605.1.15 (KHTML, like Gecko) Version/16.5 Safari/605.1.15",Macintosh,Safari,16.5,OS X,10_15_7,https://5puzkbbxv1.cognition.run/?sona_id=57360,"en-US,en;q=0.9",4sfptkf6zgv0vce,18,"[""White""]",No,Female,na,I'm not sure,304216,NA,null,<p></p>,null,choice,tcd,trinary,repulsion_A,2,laptops,null,null,null,null,null,null,2,NA,NA,NA,NA,NA,NA,NA,NA,NA,NA
NA,NA,NA,NA,NA,choice_trial,survey-html-form,43,145786,0.0-4.0-1.19,206,1,2025-05-05T21:37:38Z,b60275e29fe2361ab97ac0ac217840d7,"Mozilla/5.0 (Macintosh; Intel Mac OS X 10_15_7) AppleWebKit/605.1.15 (KHTML, like Gecko) Version/16.5 Safari/605.1.15",Macintosh,Safari,16.5,OS X,10_15_7,https://5puzkbbxv1.cognition.run/?sona_id=57360,"en-US,en;q=0.9",4sfptkf6zgv0vce,18,"[""White""]",No,Female,na,I'm not sure,304216,NA,2026,NA,"{""product_choice"":""A""}",choice,tcd,trinary,repulsion_A,2,laptops,null,null,null,null,null,null,2,30,40,20,100,90,100,Processing speed,Memory (RAM),NA,NA
NA,NA,NA,NA,NA,choice_trial_setup,html-keyboard-response,44,146090,0.0-4.0-0.20,206,1,2025-05-05T21:37:38Z,b60275e29fe2361ab97ac0ac217840d7,"Mozilla/5.0 (Macintosh; Intel Mac OS X 10_15_7) AppleWebKit/605.1.15 (KHTML, like Gecko) Version/16.5 Safari/605.1.15",Macintosh,Safari,16.5,OS X,10_15_7,https://5puzkbbxv1.cognition.run/?sona_id=57360,"en-US,en;q=0.9",4sfptkf6zgv0vce,18,"[""White""]",No,Female,na,I'm not sure,304216,NA,null,<p></p>,null,choice,tc,binary,repulsion,1,laptops,null,null,null,null,null,null,2,NA,NA,NA,NA,NA,NA,NA,NA,NA,NA
NA,NA,NA,NA,NA,choice_trial,survey-html-form,45,147802,0.0-4.0-1.20,206,1,2025-05-05T21:37:38Z,b60275e29fe2361ab97ac0ac217840d7,"Mozilla/5.0 (Macintosh; Intel Mac OS X 10_15_7) AppleWebKit/605.1.15 (KHTML, like Gecko) Version/16.5 Safari/605.1.15",Macintosh,Safari,16.5,OS X,10_15_7,https://5puzkbbxv1.cognition.run/?sona_id=57360,"en-US,en;q=0.9",4sfptkf6zgv0vce,18,"[""White""]",No,Female,na,I'm not sure,304216,NA,1707,NA,"{""product_choice"":""B""}",choice,tc,binary,repulsion,1,laptops,null,null,null,null,null,null,2,100,90,null,30,40,null,Processing speed,Memory (RAM),NA,NA
NA,NA,NA,NA,NA,choice_trial_setup,html-keyboard-response,46,148106,0.0-4.0-0.21,206,1,2025-05-05T21:37:38Z,b60275e29fe2361ab97ac0ac217840d7,"Mozilla/5.0 (Macintosh; Intel Mac OS X 10_15_7) AppleWebKit/605.1.15 (KHTML, like Gecko) Version/16.5 Safari/605.1.15",Macintosh,Safari,16.5,OS X,10_15_7,https://5puzkbbxv1.cognition.run/?sona_id=57360,"en-US,en;q=0.9",4sfptkf6zgv0vce,18,"[""White""]",No,Female,na,I'm not sure,304216,NA,null,<p></p>,null,choice,ctd,trinary,attraction,2,laptops,null,null,null,null,null,null,2,NA,NA,NA,NA,NA,NA,NA,NA,NA,NA
NA,NA,NA,NA,NA,choice_trial,survey-html-form,47,149903,0.0-4.0-1.21,206,1,2025-05-05T21:37:38Z,b60275e29fe2361ab97ac0ac217840d7,"Mozilla/5.0 (Macintosh; Intel Mac OS X 10_15_7) AppleWebKit/605.1.15 (KHTML, like Gecko) Version/16.5 Safari/605.1.15",Macintosh,Safari,16.5,OS X,10_15_7,https://5puzkbbxv1.cognition.run/?sona_id=57360,"en-US,en;q=0.9",4sfptkf6zgv0vce,18,"[""White""]",No,Female,na,I'm not sure,304216,NA,1792,NA,"{""product_choice"":""B""}",choice,ctd,trinary,attraction,2,laptops,null,null,null,null,null,null,2,50,60,40,60,50,60,Processing speed,Memory (RAM),NA,NA
NA,NA,NA,NA,NA,choice_trial_setup,html-keyboard-response,48,150207,0.0-4.0-0.22,206,1,2025-05-05T21:37:38Z,b60275e29fe2361ab97ac0ac217840d7,"Mozilla/5.0 (Macintosh; Intel Mac OS X 10_15_7) AppleWebKit/605.1.15 (KHTML, like Gecko) Version/16.5 Safari/605.1.15",Macintosh,Safari,16.5,OS X,10_15_7,https://5puzkbbxv1.cognition.run/?sona_id=57360,"en-US,en;q=0.9",4sfptkf6zgv0vce,18,"[""White""]",No,Female,na,I'm not sure,304216,NA,null,<p></p>,null,choice,bw,binary,catch,null,washing machines,65,95,10,20,null,null,1,NA,NA,NA,NA,NA,NA,NA,NA,NA,NA
NA,NA,NA,NA,NA,choice_trial,survey-html-form,49,153086,0.0-4.0-1.22,206,1,2025-05-05T21:37:38Z,b60275e29fe2361ab97ac0ac217840d7,"Mozilla/5.0 (Macintosh; Intel Mac OS X 10_15_7) AppleWebKit/605.1.15 (KHTML, like Gecko) Version/16.5 Safari/605.1.15",Macintosh,Safari,16.5,OS X,10_15_7,https://5puzkbbxv1.cognition.run/?sona_id=57360,"en-US,en;q=0.9",4sfptkf6zgv0vce,18,"[""White""]",No,Female,na,I'm not sure,304216,NA,2874,NA,"{""product_choice"":""A""}",choice,bw,binary,catch,null,washing machines,65,95,10,20,null,null,1,null,null,null,null,null,null,Average lifespan,Energy savings,NA,NA
NA,NA,NA,NA,NA,choice_trial_setup,html-keyboard-response,50,153389,0.0-4.0-0.23,206,1,2025-05-05T21:37:38Z,b60275e29fe2361ab97ac0ac217840d7,"Mozilla/5.0 (Macintosh; Intel Mac OS X 10_15_7) AppleWebKit/605.1.15 (KHTML, like Gecko) Version/16.5 Safari/605.1.15",Macintosh,Safari,16.5,OS X,10_15_7,https://5puzkbbxv1.cognition.run/?sona_id=57360,"en-US,en;q=0.9",4sfptkf6zgv0vce,18,"[""White""]",No,Female,na,I'm not sure,304216,NA,null,<p></p>,null,choice,cdt,trinary,attraction,1,laptops,null,null,null,null,null,null,1,NA,NA,NA,NA,NA,NA,NA,NA,NA,NA
NA,NA,NA,NA,NA,choice_trial,survey-html-form,51,157335,0.0-4.0-1.23,206,1,2025-05-05T21:37:38Z,b60275e29fe2361ab97ac0ac217840d7,"Mozilla/5.0 (Macintosh; Intel Mac OS X 10_15_7) AppleWebKit/605.1.15 (KHTML, like Gecko) Version/16.5 Safari/605.1.15",Macintosh,Safari,16.5,OS X,10_15_7,https://5puzkbbxv1.cognition.run/?sona_id=57360,"en-US,en;q=0.9",4sfptkf6zgv0vce,18,"[""White""]",No,Female,na,I'm not sure,304216,NA,3940,NA,"{""product_choice"":""C""}",choice,cdt,trinary,attraction,1,laptops,null,null,null,null,null,null,1,60,50,60,50,60,40,Processing speed,Memory (RAM),NA,NA
NA,NA,NA,NA,NA,choice_trial_setup,html-keyboard-response,52,157639,0.0-4.0-0.24,206,1,2025-05-05T21:37:38Z,b60275e29fe2361ab97ac0ac217840d7,"Mozilla/5.0 (Macintosh; Intel Mac OS X 10_15_7) AppleWebKit/605.1.15 (KHTML, like Gecko) Version/16.5 Safari/605.1.15",Macintosh,Safari,16.5,OS X,10_15_7,https://5puzkbbxv1.cognition.run/?sona_id=57360,"en-US,en;q=0.9",4sfptkf6zgv0vce,18,"[""White""]",No,Female,na,I'm not sure,304216,NA,null,<p></p>,null,choice,ctd,trinary,repulsion_A,2,televisions,null,null,null,null,null,null,1,NA,NA,NA,NA,NA,NA,NA,NA,NA,NA
NA,NA,NA,NA,NA,choice_trial,survey-html-form,53,162986,0.0-4.0-1.24,206,1,2025-05-05T21:37:38Z,b60275e29fe2361ab97ac0ac217840d7,"Mozilla/5.0 (Macintosh; Intel Mac OS X 10_15_7) AppleWebKit/605.1.15 (KHTML, like Gecko) Version/16.5 Safari/605.1.15",Macintosh,Safari,16.5,OS X,10_15_7,https://5puzkbbxv1.cognition.run/?sona_id=57360,"en-US,en;q=0.9",4sfptkf6zgv0vce,18,"[""White""]",No,Female,na,I'm not sure,304216,NA,5341,NA,"{""product_choice"":""A""}",choice,ctd,trinary,repulsion_A,2,televisions,null,null,null,null,null,null,1,30,40,20,100,90,100,Screen size,Average lifespan,NA,NA
NA,NA,NA,NA,NA,choice_trial_setup,html-keyboard-response,54,163291,0.0-4.0-0.25,206,1,2025-05-05T21:37:38Z,b60275e29fe2361ab97ac0ac217840d7,"Mozilla/5.0 (Macintosh; Intel Mac OS X 10_15_7) AppleWebKit/605.1.15 (KHTML, like Gecko) Version/16.5 Safari/605.1.15",Macintosh,Safari,16.5,OS X,10_15_7,https://5puzkbbxv1.cognition.run/?sona_id=57360,"en-US,en;q=0.9",4sfptkf6zgv0vce,18,"[""White""]",No,Female,na,I'm not sure,304216,NA,null,<p></p>,null,choice,ct,binary,repulsion,1,microwave ovens,null,null,null,null,null,null,1,NA,NA,NA,NA,NA,NA,NA,NA,NA,NA
NA,NA,NA,NA,NA,choice_trial,survey-html-form,55,166204,0.0-4.0-1.25,206,1,2025-05-05T21:37:38Z,b60275e29fe2361ab97ac0ac217840d7,"Mozilla/5.0 (Macintosh; Intel Mac OS X 10_15_7) AppleWebKit/605.1.15 (KHTML, like Gecko) Version/16.5 Safari/605.1.15",Macintosh,Safari,16.5,OS X,10_15_7,https://5puzkbbxv1.cognition.run/?sona_id=57360,"en-US,en;q=0.9",4sfptkf6zgv0vce,18,"[""White""]",No,Female,na,I'm not sure,304216,NA,2907,NA,"{""product_choice"":""A""}",choice,ct,binary,repulsion,1,microwave ovens,null,null,null,null,null,null,1,100,90,null,30,40,null,Warranty,Cooking power,NA,NA
NA,NA,NA,NA,NA,choice_trial_setup,html-keyboard-response,56,166510,0.0-4.0-0.26,206,1,2025-05-05T21:37:38Z,b60275e29fe2361ab97ac0ac217840d7,"Mozilla/5.0 (Macintosh; Intel Mac OS X 10_15_7) AppleWebKit/605.1.15 (KHTML, like Gecko) Version/16.5 Safari/605.1.15",Macintosh,Safari,16.5,OS X,10_15_7,https://5puzkbbxv1.cognition.run/?sona_id=57360,"en-US,en;q=0.9",4sfptkf6zgv0vce,18,"[""White""]",No,Female,na,I'm not sure,304216,NA,null,<p></p>,null,choice,dtc,trinary,repulsion_B,1,washing machines,null,null,null,null,null,null,1,NA,NA,NA,NA,NA,NA,NA,NA,NA,NA
NA,NA,NA,NA,NA,choice_trial,survey-html-form,57,168454,0.0-4.0-1.26,206,1,2025-05-05T21:37:38Z,b60275e29fe2361ab97ac0ac217840d7,"Mozilla/5.0 (Macintosh; Intel Mac OS X 10_15_7) AppleWebKit/605.1.15 (KHTML, like Gecko) Version/16.5 Safari/605.1.15",Macintosh,Safari,16.5,OS X,10_15_7,https://5puzkbbxv1.cognition.run/?sona_id=57360,"en-US,en;q=0.9",4sfptkf6zgv0vce,18,"[""White""]",No,Female,na,I'm not sure,304216,NA,1939,NA,"{""product_choice"":""B""}",choice,dtc,trinary,repulsion_B,1,washing machines,null,null,null,null,null,null,1,90,100,80,40,30,40,Average lifespan,Energy savings,NA,NA
NA,NA,NA,NA,NA,choice_trial_setup,html-keyboard-response,58,168759,0.0-4.0-0.27,206,1,2025-05-05T21:37:38Z,b60275e29fe2361ab97ac0ac217840d7,"Mozilla/5.0 (Macintosh; Intel Mac OS X 10_15_7) AppleWebKit/605.1.15 (KHTML, like Gecko) Version/16.5 Safari/605.1.15",Macintosh,Safari,16.5,OS X,10_15_7,https://5puzkbbxv1.cognition.run/?sona_id=57360,"en-US,en;q=0.9",4sfptkf6zgv0vce,18,"[""White""]",No,Female,na,I'm not sure,304216,NA,null,<p></p>,null,choice,tc,binary,repulsion,1,televisions,null,null,null,null,null,null,2,NA,NA,NA,NA,NA,NA,NA,NA,NA,NA
NA,NA,NA,NA,NA,choice_trial,survey-html-form,59,170670,0.0-4.0-1.27,206,1,2025-05-05T21:37:38Z,b60275e29fe2361ab97ac0ac217840d7,"Mozilla/5.0 (Macintosh; Intel Mac OS X 10_15_7) AppleWebKit/605.1.15 (KHTML, like Gecko) Version/16.5 Safari/605.1.15",Macintosh,Safari,16.5,OS X,10_15_7,https://5puzkbbxv1.cognition.run/?sona_id=57360,"en-US,en;q=0.9",4sfptkf6zgv0vce,18,"[""White""]",No,Female,na,I'm not sure,304216,NA,1908,NA,"{""product_choice"":""B""}",choice,tc,binary,repulsion,1,televisions,null,null,null,null,null,null,2,100,90,null,30,40,null,Screen size,Average lifespan,NA,NA
NA,NA,NA,NA,NA,choice_trial_setup,html-keyboard-response,60,170974,0.0-4.0-0.28,206,1,2025-05-05T21:37:38Z,b60275e29fe2361ab97ac0ac217840d7,"Mozilla/5.0 (Macintosh; Intel Mac OS X 10_15_7) AppleWebKit/605.1.15 (KHTML, like Gecko) Version/16.5 Safari/605.1.15",Macintosh,Safari,16.5,OS X,10_15_7,https://5puzkbbxv1.cognition.run/?sona_id=57360,"en-US,en;q=0.9",4sfptkf6zgv0vce,18,"[""White""]",No,Female,na,I'm not sure,304216,NA,null,<p></p>,null,choice,wwb,trinary,catch,null,washing machines,60,60,45,45,20,40,2,NA,NA,NA,NA,NA,NA,NA,NA,NA,NA
NA,NA,NA,NA,NA,choice_trial,survey-html-form,61,175754,0.0-4.0-1.28,206,1,2025-05-05T21:37:38Z,b60275e29fe2361ab97ac0ac217840d7,"Mozilla/5.0 (Macintosh; Intel Mac OS X 10_15_7) AppleWebKit/605.1.15 (KHTML, like Gecko) Version/16.5 Safari/605.1.15",Macintosh,Safari,16.5,OS X,10_15_7,https://5puzkbbxv1.cognition.run/?sona_id=57360,"en-US,en;q=0.9",4sfptkf6zgv0vce,18,"[""White""]",No,Female,na,I'm not sure,304216,NA,4774,NA,"{""product_choice"":""C""}",choice,wwb,trinary,catch,null,washing machines,60,60,45,45,20,40,2,null,null,null,null,null,null,Average lifespan,Energy savings,NA,NA
NA,NA,NA,NA,NA,choice_trial_setup,html-keyboard-response,62,176059,0.0-4.0-0.29,206,1,2025-05-05T21:37:38Z,b60275e29fe2361ab97ac0ac217840d7,"Mozilla/5.0 (Macintosh; Intel Mac OS X 10_15_7) AppleWebKit/605.1.15 (KHTML, like Gecko) Version/16.5 Safari/605.1.15",Macintosh,Safari,16.5,OS X,10_15_7,https://5puzkbbxv1.cognition.run/?sona_id=57360,"en-US,en;q=0.9",4sfptkf6zgv0vce,18,"[""White""]",No,Female,na,I'm not sure,304216,NA,null,<p></p>,null,choice,ct,binary,repulsion,2,washing machines,null,null,null,null,null,null,1,NA,NA,NA,NA,NA,NA,NA,NA,NA,NA
NA,NA,NA,NA,NA,choice_trial,survey-html-form,63,178789,0.0-4.0-1.29,206,1,2025-05-05T21:37:38Z,b60275e29fe2361ab97ac0ac217840d7,"Mozilla/5.0 (Macintosh; Intel Mac OS X 10_15_7) AppleWebKit/605.1.15 (KHTML, like Gecko) Version/16.5 Safari/605.1.15",Macintosh,Safari,16.5,OS X,10_15_7,https://5puzkbbxv1.cognition.run/?sona_id=57360,"en-US,en;q=0.9",4sfptkf6zgv0vce,18,"[""White""]",No,Female,na,I'm not sure,304216,NA,2725,NA,"{""product_choice"":""A""}",choice,ct,binary,repulsion,2,washing machines,null,null,null,null,null,null,1,30,40,null,100,90,null,Average lifespan,Energy savings,NA,NA
NA,NA,NA,NA,NA,choice_trial_setup,html-keyboard-response,64,179098,0.0-4.0-0.30,206,1,2025-05-05T21:37:38Z,b60275e29fe2361ab97ac0ac217840d7,"Mozilla/5.0 (Macintosh; Intel Mac OS X 10_15_7) AppleWebKit/605.1.15 (KHTML, like Gecko) Version/16.5 Safari/605.1.15",Macintosh,Safari,16.5,OS X,10_15_7,https://5puzkbbxv1.cognition.run/?sona_id=57360,"en-US,en;q=0.9",4sfptkf6zgv0vce,18,"[""White""]",No,Female,na,I'm not sure,304216,NA,null,<p></p>,null,choice,tc,binary,repulsion,2,laptops,null,null,null,null,null,null,2,NA,NA,NA,NA,NA,NA,NA,NA,NA,NA
NA,NA,NA,NA,NA,choice_trial,survey-html-form,65,181388,0.0-4.0-1.30,206,1,2025-05-05T21:37:38Z,b60275e29fe2361ab97ac0ac217840d7,"Mozilla/5.0 (Macintosh; Intel Mac OS X 10_15_7) AppleWebKit/605.1.15 (KHTML, like Gecko) Version/16.5 Safari/605.1.15",Macintosh,Safari,16.5,OS X,10_15_7,https://5puzkbbxv1.cognition.run/?sona_id=57360,"en-US,en;q=0.9",4sfptkf6zgv0vce,18,"[""White""]",No,Female,na,I'm not sure,304216,NA,2285,NA,"{""product_choice"":""B""}",choice,tc,binary,repulsion,2,laptops,null,null,null,null,null,null,2,30,40,null,100,90,null,Processing speed,Memory (RAM),NA,NA
NA,NA,NA,NA,NA,choice_trial_setup,html-keyboard-response,66,181693,0.0-4.0-0.31,206,1,2025-05-05T21:37:38Z,b60275e29fe2361ab97ac0ac217840d7,"Mozilla/5.0 (Macintosh; Intel Mac OS X 10_15_7) AppleWebKit/605.1.15 (KHTML, like Gecko) Version/16.5 Safari/605.1.15",Macintosh,Safari,16.5,OS X,10_15_7,https://5puzkbbxv1.cognition.run/?sona_id=57360,"en-US,en;q=0.9",4sfptkf6zgv0vce,18,"[""White""]",No,Female,na,I'm not sure,304216,NA,null,<p></p>,null,choice,tcd,trinary,repulsion_B,1,microwave ovens,null,null,null,null,null,null,2,NA,NA,NA,NA,NA,NA,NA,NA,NA,NA
NA,NA,NA,NA,NA,choice_trial,survey-html-form,67,184286,0.0-4.0-1.31,206,1,2025-05-05T21:37:38Z,b60275e29fe2361ab97ac0ac217840d7,"Mozilla/5.0 (Macintosh; Intel Mac OS X 10_15_7) AppleWebKit/605.1.15 (KHTML, like Gecko) Version/16.5 Safari/605.1.15",Macintosh,Safari,16.5,OS X,10_15_7,https://5puzkbbxv1.cognition.run/?sona_id=57360,"en-US,en;q=0.9",4sfptkf6zgv0vce,18,"[""White""]",No,Female,na,I'm not sure,304216,NA,2588,NA,"{""product_choice"":""C""}",choice,tcd,trinary,repulsion_B,1,microwave ovens,null,null,null,null,null,null,2,90,100,80,40,30,40,Warranty,Cooking power,NA,NA
NA,NA,NA,NA,NA,choice_trial_setup,html-keyboard-response,68,184590,0.0-4.0-0.32,206,1,2025-05-05T21:37:38Z,b60275e29fe2361ab97ac0ac217840d7,"Mozilla/5.0 (Macintosh; Intel Mac OS X 10_15_7) AppleWebKit/605.1.15 (KHTML, like Gecko) Version/16.5 Safari/605.1.15",Macintosh,Safari,16.5,OS X,10_15_7,https://5puzkbbxv1.cognition.run/?sona_id=57360,"en-US,en;q=0.9",4sfptkf6zgv0vce,18,"[""White""]",No,Female,na,I'm not sure,304216,NA,null,<p></p>,null,choice,bww,trinary,catch,null,laptops,60,65,30,45,30,35,2,NA,NA,NA,NA,NA,NA,NA,NA,NA,NA
NA,NA,NA,NA,NA,choice_trial,survey-html-form,69,186586,0.0-4.0-1.32,206,1,2025-05-05T21:37:38Z,b60275e29fe2361ab97ac0ac217840d7,"Mozilla/5.0 (Macintosh; Intel Mac OS X 10_15_7) AppleWebKit/605.1.15 (KHTML, like Gecko) Version/16.5 Safari/605.1.15",Macintosh,Safari,16.5,OS X,10_15_7,https://5puzkbbxv1.cognition.run/?sona_id=57360,"en-US,en;q=0.9",4sfptkf6zgv0vce,18,"[""White""]",No,Female,na,I'm not sure,304216,NA,1989,NA,"{""product_choice"":""A""}",choice,bww,trinary,catch,null,laptops,60,65,30,45,30,35,2,null,null,null,null,null,null,Processing speed,Memory (RAM),NA,NA
NA,NA,NA,NA,NA,choice_trial_setup,html-keyboard-response,70,186892,0.0-4.0-0.33,206,1,2025-05-05T21:37:38Z,b60275e29fe2361ab97ac0ac217840d7,"Mozilla/5.0 (Macintosh; Intel Mac OS X 10_15_7) AppleWebKit/605.1.15 (KHTML, like Gecko) Version/16.5 Safari/605.1.15",Macintosh,Safari,16.5,OS X,10_15_7,https://5puzkbbxv1.cognition.run/?sona_id=57360,"en-US,en;q=0.9",4sfptkf6zgv0vce,18,"[""White""]",No,Female,na,I'm not sure,304216,NA,null,<p></p>,null,choice,ct,binary,attraction,NA,televisions,null,null,null,null,null,null,1,NA,NA,NA,NA,NA,NA,NA,NA,NA,NA
NA,NA,NA,NA,NA,choice_trial,survey-html-form,71,188824,0.0-4.0-1.33,206,1,2025-05-05T21:37:38Z,b60275e29fe2361ab97ac0ac217840d7,"Mozilla/5.0 (Macintosh; Intel Mac OS X 10_15_7) AppleWebKit/605.1.15 (KHTML, like Gecko) Version/16.5 Safari/605.1.15",Macintosh,Safari,16.5,OS X,10_15_7,https://5puzkbbxv1.cognition.run/?sona_id=57360,"en-US,en;q=0.9",4sfptkf6zgv0vce,18,"[""White""]",No,Female,na,I'm not sure,304216,NA,1926,NA,"{""product_choice"":""B""}",choice,ct,binary,attraction,NA,televisions,null,null,null,null,null,null,1,60,50,null,50,60,null,Screen size,Average lifespan,NA,NA
NA,NA,NA,NA,NA,choice_trial_setup,html-keyboard-response,72,189128,0.0-4.0-0.34,206,1,2025-05-05T21:37:38Z,b60275e29fe2361ab97ac0ac217840d7,"Mozilla/5.0 (Macintosh; Intel Mac OS X 10_15_7) AppleWebKit/605.1.15 (KHTML, like Gecko) Version/16.5 Safari/605.1.15",Macintosh,Safari,16.5,OS X,10_15_7,https://5puzkbbxv1.cognition.run/?sona_id=57360,"en-US,en;q=0.9",4sfptkf6zgv0vce,18,"[""White""]",No,Female,na,I'm not sure,304216,NA,null,<p></p>,null,choice,dtc,trinary,repulsion_A,2,microwave ovens,null,null,null,null,null,null,1,NA,NA,NA,NA,NA,NA,NA,NA,NA,NA
NA,NA,NA,NA,NA,choice_trial,survey-html-form,73,191420,0.0-4.0-1.34,206,1,2025-05-05T21:37:38Z,b60275e29fe2361ab97ac0ac217840d7,"Mozilla/5.0 (Macintosh; Intel Mac OS X 10_15_7) AppleWebKit/605.1.15 (KHTML, like Gecko) Version/16.5 Safari/605.1.15",Macintosh,Safari,16.5,OS X,10_15_7,https://5puzkbbxv1.cognition.run/?sona_id=57360,"en-US,en;q=0.9",4sfptkf6zgv0vce,18,"[""White""]",No,Female,na,I'm not sure,304216,NA,2286,NA,"{""product_choice"":""C""}",choice,dtc,trinary,repulsion_A,2,microwave ovens,null,null,null,null,null,null,1,30,40,20,100,90,100,Warranty,Cooking power,NA,NA
NA,NA,NA,NA,NA,choice_trial_setup,html-keyboard-response,74,191725,0.0-4.0-0.35,206,1,2025-05-05T21:37:38Z,b60275e29fe2361ab97ac0ac217840d7,"Mozilla/5.0 (Macintosh; Intel Mac OS X 10_15_7) AppleWebKit/605.1.15 (KHTML, like Gecko) Version/16.5 Safari/605.1.15",Macintosh,Safari,16.5,OS X,10_15_7,https://5puzkbbxv1.cognition.run/?sona_id=57360,"en-US,en;q=0.9",4sfptkf6zgv0vce,18,"[""White""]",No,Female,na,I'm not sure,304216,NA,null,<p></p>,null,choice,cdt,trinary,attraction,1,televisions,null,null,null,null,null,null,1,NA,NA,NA,NA,NA,NA,NA,NA,NA,NA
NA,NA,NA,NA,NA,choice_trial,survey-html-form,75,196939,0.0-4.0-1.35,206,1,2025-05-05T21:37:38Z,b60275e29fe2361ab97ac0ac217840d7,"Mozilla/5.0 (Macintosh; Intel Mac OS X 10_15_7) AppleWebKit/605.1.15 (KHTML, like Gecko) Version/16.5 Safari/605.1.15",Macintosh,Safari,16.5,OS X,10_15_7,https://5puzkbbxv1.cognition.run/?sona_id=57360,"en-US,en;q=0.9",4sfptkf6zgv0vce,18,"[""White""]",No,Female,na,I'm not sure,304216,NA,5208,NA,"{""product_choice"":""C""}",choice,cdt,trinary,attraction,1,televisions,null,null,null,null,null,null,1,60,50,60,50,60,40,Screen size,Average lifespan,NA,NA
NA,NA,NA,NA,NA,choice_trial_setup,html-keyboard-response,76,197244,0.0-4.0-0.36,206,1,2025-05-05T21:37:38Z,b60275e29fe2361ab97ac0ac217840d7,"Mozilla/5.0 (Macintosh; Intel Mac OS X 10_15_7) AppleWebKit/605.1.15 (KHTML, like Gecko) Version/16.5 Safari/605.1.15",Macintosh,Safari,16.5,OS X,10_15_7,https://5puzkbbxv1.cognition.run/?sona_id=57360,"en-US,en;q=0.9",4sfptkf6zgv0vce,18,"[""White""]",No,Female,na,I'm not sure,304216,NA,null,<p></p>,null,choice,tdc,trinary,repulsion_A,1,washing machines,null,null,null,null,null,null,1,NA,NA,NA,NA,NA,NA,NA,NA,NA,NA
NA,NA,NA,NA,NA,choice_trial,survey-html-form,77,205440,0.0-4.0-1.36,206,1,2025-05-05T21:37:38Z,b60275e29fe2361ab97ac0ac217840d7,"Mozilla/5.0 (Macintosh; Intel Mac OS X 10_15_7) AppleWebKit/605.1.15 (KHTML, like Gecko) Version/16.5 Safari/605.1.15",Macintosh,Safari,16.5,OS X,10_15_7,https://5puzkbbxv1.cognition.run/?sona_id=57360,"en-US,en;q=0.9",4sfptkf6zgv0vce,18,"[""White""]",No,Female,na,I'm not sure,304216,NA,8190,NA,"{""product_choice"":""C""}",choice,tdc,trinary,repulsion_A,1,washing machines,null,null,null,null,null,null,1,100,90,100,30,40,20,Average lifespan,Energy savings,NA,NA
NA,NA,NA,NA,NA,choice_trial_setup,html-keyboard-response,78,205743,0.0-4.0-0.37,206,1,2025-05-05T21:37:38Z,b60275e29fe2361ab97ac0ac217840d7,"Mozilla/5.0 (Macintosh; Intel Mac OS X 10_15_7) AppleWebKit/605.1.15 (KHTML, like Gecko) Version/16.5 Safari/605.1.15",Macintosh,Safari,16.5,OS X,10_15_7,https://5puzkbbxv1.cognition.run/?sona_id=57360,"en-US,en;q=0.9",4sfptkf6zgv0vce,18,"[""White""]",No,Female,na,I'm not sure,304216,NA,null,<p></p>,null,choice,wwb,trinary,catch,null,microwave ovens,65,55,35,20,50,30,2,NA,NA,NA,NA,NA,NA,NA,NA,NA,NA
NA,NA,NA,NA,NA,choice_trial,survey-html-form,79,207918,0.0-4.0-1.37,206,1,2025-05-05T21:37:38Z,b60275e29fe2361ab97ac0ac217840d7,"Mozilla/5.0 (Macintosh; Intel Mac OS X 10_15_7) AppleWebKit/605.1.15 (KHTML, like Gecko) Version/16.5 Safari/605.1.15",Macintosh,Safari,16.5,OS X,10_15_7,https://5puzkbbxv1.cognition.run/?sona_id=57360,"en-US,en;q=0.9",4sfptkf6zgv0vce,18,"[""White""]",No,Female,na,I'm not sure,304216,NA,2168,NA,"{""product_choice"":""B""}",choice,wwb,trinary,catch,null,microwave ovens,65,55,35,20,50,30,2,null,null,null,null,null,null,Warranty,Cooking power,NA,NA
NA,NA,NA,NA,NA,choice_trial_setup,html-keyboard-response,80,208223,0.0-4.0-0.38,206,1,2025-05-05T21:37:38Z,b60275e29fe2361ab97ac0ac217840d7,"Mozilla/5.0 (Macintosh; Intel Mac OS X 10_15_7) AppleWebKit/605.1.15 (KHTML, like Gecko) Version/16.5 Safari/605.1.15",Macintosh,Safari,16.5,OS X,10_15_7,https://5puzkbbxv1.cognition.run/?sona_id=57360,"en-US,en;q=0.9",4sfptkf6zgv0vce,18,"[""White""]",No,Female,na,I'm not sure,304216,NA,null,<p></p>,null,choice,tcd,trinary,repulsion_B,2,washing machines,null,null,null,null,null,null,2,NA,NA,NA,NA,NA,NA,NA,NA,NA,NA
NA,NA,NA,NA,NA,choice_trial,survey-html-form,81,209738,0.0-4.0-1.38,206,1,2025-05-05T21:37:38Z,b60275e29fe2361ab97ac0ac217840d7,"Mozilla/5.0 (Macintosh; Intel Mac OS X 10_15_7) AppleWebKit/605.1.15 (KHTML, like Gecko) Version/16.5 Safari/605.1.15",Macintosh,Safari,16.5,OS X,10_15_7,https://5puzkbbxv1.cognition.run/?sona_id=57360,"en-US,en;q=0.9",4sfptkf6zgv0vce,18,"[""White""]",No,Female,na,I'm not sure,304216,NA,1510,NA,"{""product_choice"":""A""}",choice,tcd,trinary,repulsion_B,2,washing machines,null,null,null,null,null,null,2,40,30,40,90,100,80,Average lifespan,Energy savings,NA,NA
NA,NA,NA,NA,NA,choice_trial_setup,html-keyboard-response,82,210043,0.0-4.0-0.39,206,1,2025-05-05T21:37:38Z,b60275e29fe2361ab97ac0ac217840d7,"Mozilla/5.0 (Macintosh; Intel Mac OS X 10_15_7) AppleWebKit/605.1.15 (KHTML, like Gecko) Version/16.5 Safari/605.1.15",Macintosh,Safari,16.5,OS X,10_15_7,https://5puzkbbxv1.cognition.run/?sona_id=57360,"en-US,en;q=0.9",4sfptkf6zgv0vce,18,"[""White""]",No,Female,na,I'm not sure,304216,NA,null,<p></p>,null,choice,cdt,trinary,repulsion_A,1,laptops,null,null,null,null,null,null,2,NA,NA,NA,NA,NA,NA,NA,NA,NA,NA
NA,NA,NA,NA,NA,choice_trial,survey-html-form,83,213322,0.0-4.0-1.39,206,1,2025-05-05T21:37:38Z,b60275e29fe2361ab97ac0ac217840d7,"Mozilla/5.0 (Macintosh; Intel Mac OS X 10_15_7) AppleWebKit/605.1.15 (KHTML, like Gecko) Version/16.5 Safari/605.1.15",Macintosh,Safari,16.5,OS X,10_15_7,https://5puzkbbxv1.cognition.run/?sona_id=57360,"en-US,en;q=0.9",4sfptkf6zgv0vce,18,"[""White""]",No,Female,na,I'm not sure,304216,NA,3274,NA,"{""product_choice"":""A""}",choice,cdt,trinary,repulsion_A,1,laptops,null,null,null,null,null,null,2,100,90,100,30,40,20,Processing speed,Memory (RAM),NA,NA
NA,NA,NA,NA,NA,choice_trial_setup,html-keyboard-response,84,213628,0.0-4.0-0.40,206,1,2025-05-05T21:37:38Z,b60275e29fe2361ab97ac0ac217840d7,"Mozilla/5.0 (Macintosh; Intel Mac OS X 10_15_7) AppleWebKit/605.1.15 (KHTML, like Gecko) Version/16.5 Safari/605.1.15",Macintosh,Safari,16.5,OS X,10_15_7,https://5puzkbbxv1.cognition.run/?sona_id=57360,"en-US,en;q=0.9",4sfptkf6zgv0vce,18,"[""White""]",No,Female,na,I'm not sure,304216,NA,null,<p></p>,null,choice,tc,binary,repulsion,2,microwave ovens,null,null,null,null,null,null,2,NA,NA,NA,NA,NA,NA,NA,NA,NA,NA
NA,NA,NA,NA,NA,choice_trial,survey-html-form,85,215504,0.0-4.0-1.40,206,1,2025-05-05T21:37:38Z,b60275e29fe2361ab97ac0ac217840d7,"Mozilla/5.0 (Macintosh; Intel Mac OS X 10_15_7) AppleWebKit/605.1.15 (KHTML, like Gecko) Version/16.5 Safari/605.1.15",Macintosh,Safari,16.5,OS X,10_15_7,https://5puzkbbxv1.cognition.run/?sona_id=57360,"en-US,en;q=0.9",4sfptkf6zgv0vce,18,"[""White""]",No,Female,na,I'm not sure,304216,NA,1869,NA,"{""product_choice"":""B""}",choice,tc,binary,repulsion,2,microwave ovens,null,null,null,null,null,null,2,30,40,null,100,90,null,Warranty,Cooking power,NA,NA
NA,NA,NA,NA,NA,choice_trial_setup,html-keyboard-response,86,215809,0.0-4.0-0.41,206,1,2025-05-05T21:37:38Z,b60275e29fe2361ab97ac0ac217840d7,"Mozilla/5.0 (Macintosh; Intel Mac OS X 10_15_7) AppleWebKit/605.1.15 (KHTML, like Gecko) Version/16.5 Safari/605.1.15",Macintosh,Safari,16.5,OS X,10_15_7,https://5puzkbbxv1.cognition.run/?sona_id=57360,"en-US,en;q=0.9",4sfptkf6zgv0vce,18,"[""White""]",No,Female,na,I'm not sure,304216,NA,null,<p></p>,null,choice,tcd,trinary,attraction,1,washing machines,null,null,null,null,null,null,2,NA,NA,NA,NA,NA,NA,NA,NA,NA,NA
NA,NA,NA,NA,NA,choice_trial,survey-html-form,87,219087,0.0-4.0-1.41,206,1,2025-05-05T21:37:38Z,b60275e29fe2361ab97ac0ac217840d7,"Mozilla/5.0 (Macintosh; Intel Mac OS X 10_15_7) AppleWebKit/605.1.15 (KHTML, like Gecko) Version/16.5 Safari/605.1.15",Macintosh,Safari,16.5,OS X,10_15_7,https://5puzkbbxv1.cognition.run/?sona_id=57360,"en-US,en;q=0.9",4sfptkf6zgv0vce,18,"[""White""]",No,Female,na,I'm not sure,304216,NA,3272,NA,"{""product_choice"":""B""}",choice,tcd,trinary,attraction,1,washing machines,null,null,null,null,null,null,2,60,50,60,50,60,40,Average lifespan,Energy savings,NA,NA
NA,NA,NA,NA,NA,choice_trial_setup,html-keyboard-response,88,219393,0.0-4.0-0.42,206,1,2025-05-05T21:37:38Z,b60275e29fe2361ab97ac0ac217840d7,"Mozilla/5.0 (Macintosh; Intel Mac OS X 10_15_7) AppleWebKit/605.1.15 (KHTML, like Gecko) Version/16.5 Safari/605.1.15",Macintosh,Safari,16.5,OS X,10_15_7,https://5puzkbbxv1.cognition.run/?sona_id=57360,"en-US,en;q=0.9",4sfptkf6zgv0vce,18,"[""White""]",No,Female,na,I'm not sure,304216,NA,null,<p></p>,null,choice,wbw,trinary,catch,null,televisions,95,65,40,15,25,25,1,NA,NA,NA,NA,NA,NA,NA,NA,NA,NA
NA,NA,NA,NA,NA,choice_trial,survey-html-form,89,221470,0.0-4.0-1.42,206,1,2025-05-05T21:37:38Z,b60275e29fe2361ab97ac0ac217840d7,"Mozilla/5.0 (Macintosh; Intel Mac OS X 10_15_7) AppleWebKit/605.1.15 (KHTML, like Gecko) Version/16.5 Safari/605.1.15",Macintosh,Safari,16.5,OS X,10_15_7,https://5puzkbbxv1.cognition.run/?sona_id=57360,"en-US,en;q=0.9",4sfptkf6zgv0vce,18,"[""White""]",No,Female,na,I'm not sure,304216,NA,2071,NA,"{""product_choice"":""B""}",choice,wbw,trinary,catch,null,televisions,95,65,40,15,25,25,1,null,null,null,null,null,null,Screen size,Average lifespan,NA,NA
NA,NA,NA,NA,NA,choice_trial_setup,html-keyboard-response,90,221776,0.0-4.0-0.43,206,1,2025-05-05T21:37:38Z,b60275e29fe2361ab97ac0ac217840d7,"Mozilla/5.0 (Macintosh; Intel Mac OS X 10_15_7) AppleWebKit/605.1.15 (KHTML, like Gecko) Version/16.5 Safari/605.1.15",Macintosh,Safari,16.5,OS X,10_15_7,https://5puzkbbxv1.cognition.run/?sona_id=57360,"en-US,en;q=0.9",4sfptkf6zgv0vce,18,"[""White""]",No,Female,na,I'm not sure,304216,NA,null,<p></p>,null,choice,ct,binary,repulsion,1,washing machines,null,null,null,null,null,null,1,NA,NA,NA,NA,NA,NA,NA,NA,NA,NA
NA,NA,NA,NA,NA,choice_trial,survey-html-form,91,223752,0.0-4.0-1.43,206,1,2025-05-05T21:37:38Z,b60275e29fe2361ab97ac0ac217840d7,"Mozilla/5.0 (Macintosh; Intel Mac OS X 10_15_7) AppleWebKit/605.1.15 (KHTML, like Gecko) Version/16.5 Safari/605.1.15",Macintosh,Safari,16.5,OS X,10_15_7,https://5puzkbbxv1.cognition.run/?sona_id=57360,"en-US,en;q=0.9",4sfptkf6zgv0vce,18,"[""White""]",No,Female,na,I'm not sure,304216,NA,1971,NA,"{""product_choice"":""A""}",choice,ct,binary,repulsion,1,washing machines,null,null,null,null,null,null,1,100,90,null,30,40,null,Average lifespan,Energy savings,NA,NA
NA,NA,NA,NA,NA,post_trials_message,html-button-response,92,225034,0.0-5.0,206,1,2025-05-05T21:37:38Z,b60275e29fe2361ab97ac0ac217840d7,"Mozilla/5.0 (Macintosh; Intel Mac OS X 10_15_7) AppleWebKit/605.1.15 (KHTML, like Gecko) Version/16.5 Safari/605.1.15",Macintosh,Safari,16.5,OS X,10_15_7,https://5puzkbbxv1.cognition.run/?sona_id=57360,"en-US,en;q=0.9",4sfptkf6zgv0vce,18,"[""White""]",No,Female,na,I'm not sure,304216,NA,1278,<p> <b>Thank you for your patience!</b></p><p>  The study will be done after completing a brief form. </p>,0,NA,NA,NA,NA,NA,NA,NA,NA,NA,NA,NA,NA,NA,NA,NA,NA,NA,NA,NA,NA,NA,NA,NA
NA,NA,NA,NA,NA,survey_message,survey-text,93,279121,0.0-6.0,206,1,2025-05-05T21:37:38Z,b60275e29fe2361ab97ac0ac217840d7,"Mozilla/5.0 (Macintosh; Intel Mac OS X 10_15_7) AppleWebKit/605.1.15 (KHTML, like Gecko) Version/16.5 Safari/605.1.15",Macintosh,Safari,16.5,OS X,10_15_7,https://5puzkbbxv1.cognition.run/?sona_id=57360,"en-US,en;q=0.9",4sfptkf6zgv0vce,18,"[""White""]",No,Female,na,I'm not sure,304216,NA,54076,NA,"{""Q0"":""I was just kind of looking at the pros and cons, for example a tv with a worse screen shouldn't have a high life, because if the screen is bad it wouldn't make sense to keep it for so long, so I tried to make them kinda even""}",NA,NA,NA,NA,NA,NA,NA,NA,NA,NA,NA,NA,NA,NA,NA,NA,NA,NA,NA,NA,NA,"I was just kind of looking at the pros and cons, for example a tv with a worse screen shouldn't have a high life, because if the screen is bad it wouldn't make sense to keep it for so long, so I tried to make them kinda even",NA
NA,NA,NA,NA,NA,demo_age,survey-text,94,281387,0.0-7.0,206,1,2025-05-05T21:37:38Z,b60275e29fe2361ab97ac0ac217840d7,"Mozilla/5.0 (Macintosh; Intel Mac OS X 10_15_7) AppleWebKit/605.1.15 (KHTML, like Gecko) Version/16.5 Safari/605.1.15",Macintosh,Safari,16.5,OS X,10_15_7,https://5puzkbbxv1.cognition.run/?sona_id=57360,"en-US,en;q=0.9",4sfptkf6zgv0vce,18,"[""White""]",No,Female,na,I'm not sure,304216,NA,2255,NA,"{""Q0"":""18""}",NA,NA,NA,NA,NA,NA,NA,NA,NA,NA,NA,NA,NA,NA,NA,NA,NA,NA,NA,NA,NA,NA,NA
NA,NA,NA,NA,NA,demo_race,survey-multi-select,95,283856,0.0-8.0,206,1,2025-05-05T21:37:38Z,b60275e29fe2361ab97ac0ac217840d7,"Mozilla/5.0 (Macintosh; Intel Mac OS X 10_15_7) AppleWebKit/605.1.15 (KHTML, like Gecko) Version/16.5 Safari/605.1.15",Macintosh,Safari,16.5,OS X,10_15_7,https://5puzkbbxv1.cognition.run/?sona_id=57360,"en-US,en;q=0.9",4sfptkf6zgv0vce,18,"[""White""]",No,Female,na,I'm not sure,304216,NA,2463,NA,"{""Q0"":[""White""]}",NA,NA,NA,NA,NA,NA,NA,NA,NA,NA,NA,NA,NA,NA,NA,NA,NA,NA,NA,NA,NA,NA,[0]
NA,NA,NA,NA,NA,demo_ethnicity_gender,survey-multi-choice,96,286872,0.0-9.0,206,1,2025-05-05T21:37:38Z,b60275e29fe2361ab97ac0ac217840d7,"Mozilla/5.0 (Macintosh; Intel Mac OS X 10_15_7) AppleWebKit/605.1.15 (KHTML, like Gecko) Version/16.5 Safari/605.1.15",Macintosh,Safari,16.5,OS X,10_15_7,https://5puzkbbxv1.cognition.run/?sona_id=57360,"en-US,en;q=0.9",4sfptkf6zgv0vce,18,"[""White""]",No,Female,na,I'm not sure,304216,NA,3010,NA,"{""Q0"":""No"",""Q1"":""Female""}",NA,NA,NA,NA,NA,NA,NA,NA,NA,NA,NA,NA,NA,NA,NA,NA,NA,NA,NA,NA,NA,NA,"[0,1]"
NA,NA,NA,NA,NA,demo_countries,survey-text,97,290955,0.0-10.0,206,1,2025-05-05T21:37:38Z,b60275e29fe2361ab97ac0ac217840d7,"Mozilla/5.0 (Macintosh; Intel Mac OS X 10_15_7) AppleWebKit/605.1.15 (KHTML, like Gecko) Version/16.5 Safari/605.1.15",Macintosh,Safari,16.5,OS X,10_15_7,https://5puzkbbxv1.cognition.run/?sona_id=57360,"en-US,en;q=0.9",4sfptkf6zgv0vce,18,"[""White""]",No,Female,na,I'm not sure,304216,NA,4077,NA,"{""Q0"":""na""}",NA,NA,NA,NA,NA,NA,NA,NA,NA,NA,NA,NA,NA,NA,NA,NA,NA,NA,NA,NA,NA,NA,NA
NA,NA,NA,NA,NA,demo_prev_study,survey-multi-choice,98,298336,0.0-11.0,206,1,2025-05-05T21:37:38Z,b60275e29fe2361ab97ac0ac217840d7,"Mozilla/5.0 (Macintosh; Intel Mac OS X 10_15_7) AppleWebKit/605.1.15 (KHTML, like Gecko) Version/16.5 Safari/605.1.15",Macintosh,Safari,16.5,OS X,10_15_7,https://5puzkbbxv1.cognition.run/?sona_id=57360,"en-US,en;q=0.9",4sfptkf6zgv0vce,18,"[""White""]",No,Female,na,I'm not sure,304216,NA,7376,NA,"{""Q0"":""I'm not sure""}",NA,NA,NA,NA,NA,NA,NA,NA,NA,NA,NA,NA,NA,NA,NA,NA,NA,NA,NA,NA,NA,NA,[0]
NA,NA,NA,NA,NA,post_survey_message,html-keyboard-response,99,301368,0.0-12.0,206,1,2025-05-05T21:37:38Z,b60275e29fe2361ab97ac0ac217840d7,"Mozilla/5.0 (Macintosh; Intel Mac OS X 10_15_7) AppleWebKit/605.1.15 (KHTML, like Gecko) Version/16.5 Safari/605.1.15",Macintosh,Safari,16.5,OS X,10_15_7,https://5puzkbbxv1.cognition.run/?sona_id=57360,"en-US,en;q=0.9",4sfptkf6zgv0vce,18,"[""White""]",No,Female,na,I'm not sure,304216,NA,3025,NA,j,NA,NA,NA,NA,NA,NA,NA,NA,NA,NA,NA,NA,NA,NA,NA,NA,NA,NA,NA,NA,NA,NA,NA
NA,NA,NA,NA,NA,debrief,image-keyboard-response,100,304205,0.0-13.0,206,1,2025-05-05T21:37:38Z,b60275e29fe2361ab97ac0ac217840d7,"Mozilla/5.0 (Macintosh; Intel Mac OS X 10_15_7) AppleWebKit/605.1.15 (KHTML, like Gecko) Version/16.5 Safari/605.1.15",Macintosh,Safari,16.5,OS X,10_15_7,https://5puzkbbxv1.cognition.run/?sona_id=57360,"en-US,en;q=0.9",4sfptkf6zgv0vce,18,"[""White""]",No,Female,na,I'm not sure,304216,NA,2792,Judg_choice_debrief.png,p,NA,NA,NA,NA,NA,NA,NA,NA,NA,NA,NA,NA,NA,NA,NA,NA,NA,NA,NA,NA,NA,NA,NA
