success,timeout,failed_images,failed_audio,failed_video,screen_id,trial_type,trial_index,time_elapsed,internal_node_id,run_id,condition,recorded_at,source_code_version,user_agent,device,browser,browser_version,platform,platform_version,referer,accept_language,ppt_id,age,race,ethnicity,gender,other_countries,prev_study,view_history,rt,stimulus,response,phase,order,set,effect,t_high,category,d1_best,d2_best,d1_worst1,d2_worst1,d1_worst2,d2_worst2,first_dim,d1_t,d1_c,d1_d,d2_t,d2_c,d2_d,d1_name,d2_name,strategy_response,question_order
TRUE,FALSE,[],[],[],img preload,preload,0,669,0.0-0.0,207,1,2025-05-05T21:49:46Z,b60275e29fe2361ab97ac0ac217840d7,"Mozilla/5.0 (iPhone; CPU iPhone OS 18_4_1 like Mac OS X) AppleWebKit/605.1.15 (KHTML, like Gecko) Version/18.4 Mobile/15E148 Safari/604.1",iPhone,Safari,18.4,iOS,18_4_1,https://5puzkbbxv1.cognition.run/?sona_id=53630,"en-US,en;q=0.9",thgcqjus4pel51w,20,"[""White""]",No,Female,NA,I'm not sure,NA,NA,NA,NA,NA,NA,NA,NA,NA,NA,NA,NA,NA,NA,NA,NA,NA,NA,NA,NA,NA,NA,NA,NA,NA,NA,NA
NA,NA,NA,NA,NA,computer_message,instructions,1,3069,0.0-1.0,207,1,2025-05-05T21:49:46Z,b60275e29fe2361ab97ac0ac217840d7,"Mozilla/5.0 (iPhone; CPU iPhone OS 18_4_1 like Mac OS X) AppleWebKit/605.1.15 (KHTML, like Gecko) Version/18.4 Mobile/15E148 Safari/604.1",iPhone,Safari,18.4,iOS,18_4_1,https://5puzkbbxv1.cognition.run/?sona_id=53630,"en-US,en;q=0.9",thgcqjus4pel51w,20,"[""White""]",No,Female,NA,I'm not sure,"[{""page_index"":0,""viewing_time"":2395}]",2395,NA,NA,NA,NA,NA,NA,NA,NA,NA,NA,NA,NA,NA,NA,NA,NA,NA,NA,NA,NA,NA,NA,NA,NA,NA
TRUE,NA,NA,NA,NA,NA,fullscreen,2,5471,0.0-2.0,207,1,2025-05-05T21:49:46Z,b60275e29fe2361ab97ac0ac217840d7,"Mozilla/5.0 (iPhone; CPU iPhone OS 18_4_1 like Mac OS X) AppleWebKit/605.1.15 (KHTML, like Gecko) Version/18.4 Mobile/15E148 Safari/604.1",iPhone,Safari,18.4,iOS,18_4_1,https://5puzkbbxv1.cognition.run/?sona_id=53630,"en-US,en;q=0.9",thgcqjus4pel51w,20,"[""White""]",No,Female,NA,I'm not sure,NA,1397,NA,NA,NA,NA,NA,NA,NA,NA,NA,NA,NA,NA,NA,NA,NA,NA,NA,NA,NA,NA,NA,NA,NA,NA,NA
NA,NA,NA,NA,NA,choice_instructions,instructions,3,64928,0.0-3.0,207,1,2025-05-05T21:49:46Z,b60275e29fe2361ab97ac0ac217840d7,"Mozilla/5.0 (iPhone; CPU iPhone OS 18_4_1 like Mac OS X) AppleWebKit/605.1.15 (KHTML, like Gecko) Version/18.4 Mobile/15E148 Safari/604.1",iPhone,Safari,18.4,iOS,18_4_1,https://5puzkbbxv1.cognition.run/?sona_id=53630,"en-US,en;q=0.9",thgcqjus4pel51w,20,"[""White""]",No,Female,NA,I'm not sure,"[{""page_index"":0,""viewing_time"":997},{""page_index"":1,""viewing_time"":2735},{""page_index"":2,""viewing_time"":3702},{""page_index"":3,""viewing_time"":3852},{""page_index"":4,""viewing_time"":11170},{""page_index"":5,""viewing_time"":27129},{""page_index"":6,""viewing_time"":9871}]",59457,NA,NA,NA,NA,NA,NA,NA,NA,NA,NA,NA,NA,NA,NA,NA,NA,NA,NA,NA,NA,NA,NA,NA,NA,NA
NA,NA,NA,NA,NA,choice_trial_setup,html-keyboard-response,4,65236,0.0-4.0-0.0,207,1,2025-05-05T21:49:46Z,b60275e29fe2361ab97ac0ac217840d7,"Mozilla/5.0 (iPhone; CPU iPhone OS 18_4_1 like Mac OS X) AppleWebKit/605.1.15 (KHTML, like Gecko) Version/18.4 Mobile/15E148 Safari/604.1",iPhone,Safari,18.4,iOS,18_4_1,https://5puzkbbxv1.cognition.run/?sona_id=53630,"en-US,en;q=0.9",thgcqjus4pel51w,20,"[""White""]",No,Female,NA,I'm not sure,NA,null,<p></p>,null,choice,dtc,trinary,attraction,1,laptops,null,null,null,null,null,null,1,NA,NA,NA,NA,NA,NA,NA,NA,NA,NA
NA,NA,NA,NA,NA,choice_trial,survey-html-form,5,76299,0.0-4.0-1.0,207,1,2025-05-05T21:49:46Z,b60275e29fe2361ab97ac0ac217840d7,"Mozilla/5.0 (iPhone; CPU iPhone OS 18_4_1 like Mac OS X) AppleWebKit/605.1.15 (KHTML, like Gecko) Version/18.4 Mobile/15E148 Safari/604.1",iPhone,Safari,18.4,iOS,18_4_1,https://5puzkbbxv1.cognition.run/?sona_id=53630,"en-US,en;q=0.9",thgcqjus4pel51w,20,"[""White""]",No,Female,NA,I'm not sure,NA,11055,NA,"{""product_choice"":""A""}",choice,dtc,trinary,attraction,1,laptops,null,null,null,null,null,null,1,60,50,60,50,60,40,Processing speed,Memory (RAM),NA,NA
NA,NA,NA,NA,NA,choice_trial_setup,html-keyboard-response,6,76603,0.0-4.0-0.1,207,1,2025-05-05T21:49:46Z,b60275e29fe2361ab97ac0ac217840d7,"Mozilla/5.0 (iPhone; CPU iPhone OS 18_4_1 like Mac OS X) AppleWebKit/605.1.15 (KHTML, like Gecko) Version/18.4 Mobile/15E148 Safari/604.1",iPhone,Safari,18.4,iOS,18_4_1,https://5puzkbbxv1.cognition.run/?sona_id=53630,"en-US,en;q=0.9",thgcqjus4pel51w,20,"[""White""]",No,Female,NA,I'm not sure,NA,null,<p></p>,null,choice,bw,binary,catch,null,televisions,50,85,25,25,null,null,1,NA,NA,NA,NA,NA,NA,NA,NA,NA,NA
NA,NA,NA,NA,NA,choice_trial,survey-html-form,7,88227,0.0-4.0-1.1,207,1,2025-05-05T21:49:46Z,b60275e29fe2361ab97ac0ac217840d7,"Mozilla/5.0 (iPhone; CPU iPhone OS 18_4_1 like Mac OS X) AppleWebKit/605.1.15 (KHTML, like Gecko) Version/18.4 Mobile/15E148 Safari/604.1",iPhone,Safari,18.4,iOS,18_4_1,https://5puzkbbxv1.cognition.run/?sona_id=53630,"en-US,en;q=0.9",thgcqjus4pel51w,20,"[""White""]",No,Female,NA,I'm not sure,NA,11619,NA,"{""product_choice"":""A""}",choice,bw,binary,catch,null,televisions,50,85,25,25,null,null,1,null,null,null,null,null,null,Screen size,Average lifespan,NA,NA
NA,NA,NA,NA,NA,choice_trial_setup,html-keyboard-response,8,88530,0.0-4.0-0.2,207,1,2025-05-05T21:49:46Z,b60275e29fe2361ab97ac0ac217840d7,"Mozilla/5.0 (iPhone; CPU iPhone OS 18_4_1 like Mac OS X) AppleWebKit/605.1.15 (KHTML, like Gecko) Version/18.4 Mobile/15E148 Safari/604.1",iPhone,Safari,18.4,iOS,18_4_1,https://5puzkbbxv1.cognition.run/?sona_id=53630,"en-US,en;q=0.9",thgcqjus4pel51w,20,"[""White""]",No,Female,NA,I'm not sure,NA,null,<p></p>,null,choice,bw,binary,catch,null,washing machines,55,55,45,15,null,null,2,NA,NA,NA,NA,NA,NA,NA,NA,NA,NA
NA,NA,NA,NA,NA,choice_trial,survey-html-form,9,103815,0.0-4.0-1.2,207,1,2025-05-05T21:49:46Z,b60275e29fe2361ab97ac0ac217840d7,"Mozilla/5.0 (iPhone; CPU iPhone OS 18_4_1 like Mac OS X) AppleWebKit/605.1.15 (KHTML, like Gecko) Version/18.4 Mobile/15E148 Safari/604.1",iPhone,Safari,18.4,iOS,18_4_1,https://5puzkbbxv1.cognition.run/?sona_id=53630,"en-US,en;q=0.9",thgcqjus4pel51w,20,"[""White""]",No,Female,NA,I'm not sure,NA,15281,NA,"{""product_choice"":""A""}",choice,bw,binary,catch,null,washing machines,55,55,45,15,null,null,2,null,null,null,null,null,null,Average lifespan,Energy savings,NA,NA
NA,NA,NA,NA,NA,choice_trial_setup,html-keyboard-response,10,104119,0.0-4.0-0.3,207,1,2025-05-05T21:49:46Z,b60275e29fe2361ab97ac0ac217840d7,"Mozilla/5.0 (iPhone; CPU iPhone OS 18_4_1 like Mac OS X) AppleWebKit/605.1.15 (KHTML, like Gecko) Version/18.4 Mobile/15E148 Safari/604.1",iPhone,Safari,18.4,iOS,18_4_1,https://5puzkbbxv1.cognition.run/?sona_id=53630,"en-US,en;q=0.9",thgcqjus4pel51w,20,"[""White""]",No,Female,NA,I'm not sure,NA,null,<p></p>,null,choice,tdc,trinary,repulsion_B,2,laptops,null,null,null,null,null,null,1,NA,NA,NA,NA,NA,NA,NA,NA,NA,NA
NA,NA,NA,NA,NA,choice_trial,survey-html-form,11,111920,0.0-4.0-1.3,207,1,2025-05-05T21:49:46Z,b60275e29fe2361ab97ac0ac217840d7,"Mozilla/5.0 (iPhone; CPU iPhone OS 18_4_1 like Mac OS X) AppleWebKit/605.1.15 (KHTML, like Gecko) Version/18.4 Mobile/15E148 Safari/604.1",iPhone,Safari,18.4,iOS,18_4_1,https://5puzkbbxv1.cognition.run/?sona_id=53630,"en-US,en;q=0.9",thgcqjus4pel51w,20,"[""White""]",No,Female,NA,I'm not sure,NA,7796,NA,"{""product_choice"":""C""}",choice,tdc,trinary,repulsion_B,2,laptops,null,null,null,null,null,null,1,40,30,40,90,100,80,Processing speed,Memory (RAM),NA,NA
NA,NA,NA,NA,NA,choice_trial_setup,html-keyboard-response,12,112223,0.0-4.0-0.4,207,1,2025-05-05T21:49:46Z,b60275e29fe2361ab97ac0ac217840d7,"Mozilla/5.0 (iPhone; CPU iPhone OS 18_4_1 like Mac OS X) AppleWebKit/605.1.15 (KHTML, like Gecko) Version/18.4 Mobile/15E148 Safari/604.1",iPhone,Safari,18.4,iOS,18_4_1,https://5puzkbbxv1.cognition.run/?sona_id=53630,"en-US,en;q=0.9",thgcqjus4pel51w,20,"[""White""]",No,Female,NA,I'm not sure,NA,null,<p></p>,null,choice,tdc,trinary,repulsion_A,2,washing machines,null,null,null,null,null,null,1,NA,NA,NA,NA,NA,NA,NA,NA,NA,NA
NA,NA,NA,NA,NA,choice_trial,survey-html-form,13,126792,0.0-4.0-1.4,207,1,2025-05-05T21:49:46Z,b60275e29fe2361ab97ac0ac217840d7,"Mozilla/5.0 (iPhone; CPU iPhone OS 18_4_1 like Mac OS X) AppleWebKit/605.1.15 (KHTML, like Gecko) Version/18.4 Mobile/15E148 Safari/604.1",iPhone,Safari,18.4,iOS,18_4_1,https://5puzkbbxv1.cognition.run/?sona_id=53630,"en-US,en;q=0.9",thgcqjus4pel51w,20,"[""White""]",No,Female,NA,I'm not sure,NA,14564,NA,"{""product_choice"":""C""}",choice,tdc,trinary,repulsion_A,2,washing machines,null,null,null,null,null,null,1,30,40,20,100,90,100,Average lifespan,Energy savings,NA,NA
NA,NA,NA,NA,NA,choice_trial_setup,html-keyboard-response,14,127096,0.0-4.0-0.5,207,1,2025-05-05T21:49:46Z,b60275e29fe2361ab97ac0ac217840d7,"Mozilla/5.0 (iPhone; CPU iPhone OS 18_4_1 like Mac OS X) AppleWebKit/605.1.15 (KHTML, like Gecko) Version/18.4 Mobile/15E148 Safari/604.1",iPhone,Safari,18.4,iOS,18_4_1,https://5puzkbbxv1.cognition.run/?sona_id=53630,"en-US,en;q=0.9",thgcqjus4pel51w,20,"[""White""]",No,Female,NA,I'm not sure,NA,null,<p></p>,null,choice,bw,binary,catch,null,laptops,70,75,50,15,null,null,2,NA,NA,NA,NA,NA,NA,NA,NA,NA,NA
NA,NA,NA,NA,NA,choice_trial,survey-html-form,15,130611,0.0-4.0-1.5,207,1,2025-05-05T21:49:46Z,b60275e29fe2361ab97ac0ac217840d7,"Mozilla/5.0 (iPhone; CPU iPhone OS 18_4_1 like Mac OS X) AppleWebKit/605.1.15 (KHTML, like Gecko) Version/18.4 Mobile/15E148 Safari/604.1",iPhone,Safari,18.4,iOS,18_4_1,https://5puzkbbxv1.cognition.run/?sona_id=53630,"en-US,en;q=0.9",thgcqjus4pel51w,20,"[""White""]",No,Female,NA,I'm not sure,NA,3511,NA,"{""product_choice"":""A""}",choice,bw,binary,catch,null,laptops,70,75,50,15,null,null,2,null,null,null,null,null,null,Processing speed,Memory (RAM),NA,NA
NA,NA,NA,NA,NA,choice_trial_setup,html-keyboard-response,16,130914,0.0-4.0-0.6,207,1,2025-05-05T21:49:46Z,b60275e29fe2361ab97ac0ac217840d7,"Mozilla/5.0 (iPhone; CPU iPhone OS 18_4_1 like Mac OS X) AppleWebKit/605.1.15 (KHTML, like Gecko) Version/18.4 Mobile/15E148 Safari/604.1",iPhone,Safari,18.4,iOS,18_4_1,https://5puzkbbxv1.cognition.run/?sona_id=53630,"en-US,en;q=0.9",thgcqjus4pel51w,20,"[""White""]",No,Female,NA,I'm not sure,NA,null,<p></p>,null,choice,ct,binary,attraction,NA,microwave ovens,null,null,null,null,null,null,2,NA,NA,NA,NA,NA,NA,NA,NA,NA,NA
NA,NA,NA,NA,NA,choice_trial,survey-html-form,17,141781,0.0-4.0-1.6,207,1,2025-05-05T21:49:46Z,b60275e29fe2361ab97ac0ac217840d7,"Mozilla/5.0 (iPhone; CPU iPhone OS 18_4_1 like Mac OS X) AppleWebKit/605.1.15 (KHTML, like Gecko) Version/18.4 Mobile/15E148 Safari/604.1",iPhone,Safari,18.4,iOS,18_4_1,https://5puzkbbxv1.cognition.run/?sona_id=53630,"en-US,en;q=0.9",thgcqjus4pel51w,20,"[""White""]",No,Female,NA,I'm not sure,NA,10862,NA,"{""product_choice"":""A""}",choice,ct,binary,attraction,NA,microwave ovens,null,null,null,null,null,null,2,60,50,null,50,60,null,Warranty,Cooking power,NA,NA
NA,NA,NA,NA,NA,choice_trial_setup,html-keyboard-response,18,142085,0.0-4.0-0.7,207,1,2025-05-05T21:49:46Z,b60275e29fe2361ab97ac0ac217840d7,"Mozilla/5.0 (iPhone; CPU iPhone OS 18_4_1 like Mac OS X) AppleWebKit/605.1.15 (KHTML, like Gecko) Version/18.4 Mobile/15E148 Safari/604.1",iPhone,Safari,18.4,iOS,18_4_1,https://5puzkbbxv1.cognition.run/?sona_id=53630,"en-US,en;q=0.9",thgcqjus4pel51w,20,"[""White""]",No,Female,NA,I'm not sure,NA,null,<p></p>,null,choice,ctd,trinary,repulsion_A,2,microwave ovens,null,null,null,null,null,null,2,NA,NA,NA,NA,NA,NA,NA,NA,NA,NA
NA,NA,NA,NA,NA,choice_trial,survey-html-form,19,154920,0.0-4.0-1.7,207,1,2025-05-05T21:49:46Z,b60275e29fe2361ab97ac0ac217840d7,"Mozilla/5.0 (iPhone; CPU iPhone OS 18_4_1 like Mac OS X) AppleWebKit/605.1.15 (KHTML, like Gecko) Version/18.4 Mobile/15E148 Safari/604.1",iPhone,Safari,18.4,iOS,18_4_1,https://5puzkbbxv1.cognition.run/?sona_id=53630,"en-US,en;q=0.9",thgcqjus4pel51w,20,"[""White""]",No,Female,NA,I'm not sure,NA,12830,NA,"{""product_choice"":""B""}",choice,ctd,trinary,repulsion_A,2,microwave ovens,null,null,null,null,null,null,2,30,40,20,100,90,100,Warranty,Cooking power,NA,NA
NA,NA,NA,NA,NA,choice_trial_setup,html-keyboard-response,20,155224,0.0-4.0-0.8,207,1,2025-05-05T21:49:46Z,b60275e29fe2361ab97ac0ac217840d7,"Mozilla/5.0 (iPhone; CPU iPhone OS 18_4_1 like Mac OS X) AppleWebKit/605.1.15 (KHTML, like Gecko) Version/18.4 Mobile/15E148 Safari/604.1",iPhone,Safari,18.4,iOS,18_4_1,https://5puzkbbxv1.cognition.run/?sona_id=53630,"en-US,en;q=0.9",thgcqjus4pel51w,20,"[""White""]",No,Female,NA,I'm not sure,NA,null,<p></p>,null,choice,tc,binary,repulsion,1,laptops,null,null,null,null,null,null,2,NA,NA,NA,NA,NA,NA,NA,NA,NA,NA
NA,NA,NA,NA,NA,choice_trial,survey-html-form,21,169777,0.0-4.0-1.8,207,1,2025-05-05T21:49:46Z,b60275e29fe2361ab97ac0ac217840d7,"Mozilla/5.0 (iPhone; CPU iPhone OS 18_4_1 like Mac OS X) AppleWebKit/605.1.15 (KHTML, like Gecko) Version/18.4 Mobile/15E148 Safari/604.1",iPhone,Safari,18.4,iOS,18_4_1,https://5puzkbbxv1.cognition.run/?sona_id=53630,"en-US,en;q=0.9",thgcqjus4pel51w,20,"[""White""]",No,Female,NA,I'm not sure,NA,14548,NA,"{""product_choice"":""B""}",choice,tc,binary,repulsion,1,laptops,null,null,null,null,null,null,2,100,90,null,30,40,null,Processing speed,Memory (RAM),NA,NA
NA,NA,NA,NA,NA,choice_trial_setup,html-keyboard-response,22,170080,0.0-4.0-0.9,207,1,2025-05-05T21:49:46Z,b60275e29fe2361ab97ac0ac217840d7,"Mozilla/5.0 (iPhone; CPU iPhone OS 18_4_1 like Mac OS X) AppleWebKit/605.1.15 (KHTML, like Gecko) Version/18.4 Mobile/15E148 Safari/604.1",iPhone,Safari,18.4,iOS,18_4_1,https://5puzkbbxv1.cognition.run/?sona_id=53630,"en-US,en;q=0.9",thgcqjus4pel51w,20,"[""White""]",No,Female,NA,I'm not sure,NA,null,<p></p>,null,choice,ctd,trinary,attraction,1,televisions,null,null,null,null,null,null,2,NA,NA,NA,NA,NA,NA,NA,NA,NA,NA
NA,NA,NA,NA,NA,choice_trial,survey-html-form,23,181983,0.0-4.0-1.9,207,1,2025-05-05T21:49:46Z,b60275e29fe2361ab97ac0ac217840d7,"Mozilla/5.0 (iPhone; CPU iPhone OS 18_4_1 like Mac OS X) AppleWebKit/605.1.15 (KHTML, like Gecko) Version/18.4 Mobile/15E148 Safari/604.1",iPhone,Safari,18.4,iOS,18_4_1,https://5puzkbbxv1.cognition.run/?sona_id=53630,"en-US,en;q=0.9",thgcqjus4pel51w,20,"[""White""]",No,Female,NA,I'm not sure,NA,11899,NA,"{""product_choice"":""A""}",choice,ctd,trinary,attraction,1,televisions,null,null,null,null,null,null,2,60,50,60,50,60,40,Screen size,Average lifespan,NA,NA
NA,NA,NA,NA,NA,choice_trial_setup,html-keyboard-response,24,182287,0.0-4.0-0.10,207,1,2025-05-05T21:49:46Z,b60275e29fe2361ab97ac0ac217840d7,"Mozilla/5.0 (iPhone; CPU iPhone OS 18_4_1 like Mac OS X) AppleWebKit/605.1.15 (KHTML, like Gecko) Version/18.4 Mobile/15E148 Safari/604.1",iPhone,Safari,18.4,iOS,18_4_1,https://5puzkbbxv1.cognition.run/?sona_id=53630,"en-US,en;q=0.9",thgcqjus4pel51w,20,"[""White""]",No,Female,NA,I'm not sure,NA,null,<p></p>,null,choice,ctd,trinary,attraction,1,washing machines,null,null,null,null,null,null,2,NA,NA,NA,NA,NA,NA,NA,NA,NA,NA
NA,NA,NA,NA,NA,choice_trial,survey-html-form,25,190554,0.0-4.0-1.10,207,1,2025-05-05T21:49:46Z,b60275e29fe2361ab97ac0ac217840d7,"Mozilla/5.0 (iPhone; CPU iPhone OS 18_4_1 like Mac OS X) AppleWebKit/605.1.15 (KHTML, like Gecko) Version/18.4 Mobile/15E148 Safari/604.1",iPhone,Safari,18.4,iOS,18_4_1,https://5puzkbbxv1.cognition.run/?sona_id=53630,"en-US,en;q=0.9",thgcqjus4pel51w,20,"[""White""]",No,Female,NA,I'm not sure,NA,8263,NA,"{""product_choice"":""A""}",choice,ctd,trinary,attraction,1,washing machines,null,null,null,null,null,null,2,60,50,60,50,60,40,Average lifespan,Energy savings,NA,NA
NA,NA,NA,NA,NA,choice_trial_setup,html-keyboard-response,26,190858,0.0-4.0-0.11,207,1,2025-05-05T21:49:46Z,b60275e29fe2361ab97ac0ac217840d7,"Mozilla/5.0 (iPhone; CPU iPhone OS 18_4_1 like Mac OS X) AppleWebKit/605.1.15 (KHTML, like Gecko) Version/18.4 Mobile/15E148 Safari/604.1",iPhone,Safari,18.4,iOS,18_4_1,https://5puzkbbxv1.cognition.run/?sona_id=53630,"en-US,en;q=0.9",thgcqjus4pel51w,20,"[""White""]",No,Female,NA,I'm not sure,NA,null,<p></p>,null,choice,ctd,trinary,attraction,1,microwave ovens,null,null,null,null,null,null,2,NA,NA,NA,NA,NA,NA,NA,NA,NA,NA
NA,NA,NA,NA,NA,choice_trial,survey-html-form,27,201393,0.0-4.0-1.11,207,1,2025-05-05T21:49:46Z,b60275e29fe2361ab97ac0ac217840d7,"Mozilla/5.0 (iPhone; CPU iPhone OS 18_4_1 like Mac OS X) AppleWebKit/605.1.15 (KHTML, like Gecko) Version/18.4 Mobile/15E148 Safari/604.1",iPhone,Safari,18.4,iOS,18_4_1,https://5puzkbbxv1.cognition.run/?sona_id=53630,"en-US,en;q=0.9",thgcqjus4pel51w,20,"[""White""]",No,Female,NA,I'm not sure,NA,10531,NA,"{""product_choice"":""A""}",choice,ctd,trinary,attraction,1,microwave ovens,null,null,null,null,null,null,2,60,50,60,50,60,40,Warranty,Cooking power,NA,NA
NA,NA,NA,NA,NA,choice_trial_setup,html-keyboard-response,28,201696,0.0-4.0-0.12,207,1,2025-05-05T21:49:46Z,b60275e29fe2361ab97ac0ac217840d7,"Mozilla/5.0 (iPhone; CPU iPhone OS 18_4_1 like Mac OS X) AppleWebKit/605.1.15 (KHTML, like Gecko) Version/18.4 Mobile/15E148 Safari/604.1",iPhone,Safari,18.4,iOS,18_4_1,https://5puzkbbxv1.cognition.run/?sona_id=53630,"en-US,en;q=0.9",thgcqjus4pel51w,20,"[""White""]",No,Female,NA,I'm not sure,NA,null,<p></p>,null,choice,dct,trinary,repulsion_A,1,microwave ovens,null,null,null,null,null,null,1,NA,NA,NA,NA,NA,NA,NA,NA,NA,NA
NA,NA,NA,NA,NA,choice_trial,survey-html-form,29,256332,0.0-4.0-1.12,207,1,2025-05-05T21:49:46Z,b60275e29fe2361ab97ac0ac217840d7,"Mozilla/5.0 (iPhone; CPU iPhone OS 18_4_1 like Mac OS X) AppleWebKit/605.1.15 (KHTML, like Gecko) Version/18.4 Mobile/15E148 Safari/604.1",iPhone,Safari,18.4,iOS,18_4_1,https://5puzkbbxv1.cognition.run/?sona_id=53630,"en-US,en;q=0.9",thgcqjus4pel51w,20,"[""White""]",No,Female,NA,I'm not sure,NA,54633,NA,"{""product_choice"":""B""}",choice,dct,trinary,repulsion_A,1,microwave ovens,null,null,null,null,null,null,1,100,90,100,30,40,20,Warranty,Cooking power,NA,NA
NA,NA,NA,NA,NA,choice_trial_setup,html-keyboard-response,30,256636,0.0-4.0-0.13,207,1,2025-05-05T21:49:46Z,b60275e29fe2361ab97ac0ac217840d7,"Mozilla/5.0 (iPhone; CPU iPhone OS 18_4_1 like Mac OS X) AppleWebKit/605.1.15 (KHTML, like Gecko) Version/18.4 Mobile/15E148 Safari/604.1",iPhone,Safari,18.4,iOS,18_4_1,https://5puzkbbxv1.cognition.run/?sona_id=53630,"en-US,en;q=0.9",thgcqjus4pel51w,20,"[""White""]",No,Female,NA,I'm not sure,NA,null,<p></p>,null,choice,tc,binary,repulsion,2,microwave ovens,null,null,null,null,null,null,1,NA,NA,NA,NA,NA,NA,NA,NA,NA,NA
NA,NA,NA,NA,NA,choice_trial,survey-html-form,31,260133,0.0-4.0-1.13,207,1,2025-05-05T21:49:46Z,b60275e29fe2361ab97ac0ac217840d7,"Mozilla/5.0 (iPhone; CPU iPhone OS 18_4_1 like Mac OS X) AppleWebKit/605.1.15 (KHTML, like Gecko) Version/18.4 Mobile/15E148 Safari/604.1",iPhone,Safari,18.4,iOS,18_4_1,https://5puzkbbxv1.cognition.run/?sona_id=53630,"en-US,en;q=0.9",thgcqjus4pel51w,20,"[""White""]",No,Female,NA,I'm not sure,NA,3492,NA,"{""product_choice"":""B""}",choice,tc,binary,repulsion,2,microwave ovens,null,null,null,null,null,null,1,30,40,null,100,90,null,Warranty,Cooking power,NA,NA
NA,NA,NA,NA,NA,choice_trial_setup,html-keyboard-response,32,260437,0.0-4.0-0.14,207,1,2025-05-05T21:49:46Z,b60275e29fe2361ab97ac0ac217840d7,"Mozilla/5.0 (iPhone; CPU iPhone OS 18_4_1 like Mac OS X) AppleWebKit/605.1.15 (KHTML, like Gecko) Version/18.4 Mobile/15E148 Safari/604.1",iPhone,Safari,18.4,iOS,18_4_1,https://5puzkbbxv1.cognition.run/?sona_id=53630,"en-US,en;q=0.9",thgcqjus4pel51w,20,"[""White""]",No,Female,NA,I'm not sure,NA,null,<p></p>,null,choice,cdt,trinary,attraction,2,televisions,null,null,null,null,null,null,2,NA,NA,NA,NA,NA,NA,NA,NA,NA,NA
NA,NA,NA,NA,NA,choice_trial,survey-html-form,33,285480,0.0-4.0-1.14,207,1,2025-05-05T21:49:46Z,b60275e29fe2361ab97ac0ac217840d7,"Mozilla/5.0 (iPhone; CPU iPhone OS 18_4_1 like Mac OS X) AppleWebKit/605.1.15 (KHTML, like Gecko) Version/18.4 Mobile/15E148 Safari/604.1",iPhone,Safari,18.4,iOS,18_4_1,https://5puzkbbxv1.cognition.run/?sona_id=53630,"en-US,en;q=0.9",thgcqjus4pel51w,20,"[""White""]",No,Female,NA,I'm not sure,NA,25038,NA,"{""product_choice"":""C""}",choice,cdt,trinary,attraction,2,televisions,null,null,null,null,null,null,2,50,60,40,60,50,60,Screen size,Average lifespan,NA,NA
NA,NA,NA,NA,NA,choice_trial_setup,html-keyboard-response,34,285784,0.0-4.0-0.15,207,1,2025-05-05T21:49:46Z,b60275e29fe2361ab97ac0ac217840d7,"Mozilla/5.0 (iPhone; CPU iPhone OS 18_4_1 like Mac OS X) AppleWebKit/605.1.15 (KHTML, like Gecko) Version/18.4 Mobile/15E148 Safari/604.1",iPhone,Safari,18.4,iOS,18_4_1,https://5puzkbbxv1.cognition.run/?sona_id=53630,"en-US,en;q=0.9",thgcqjus4pel51w,20,"[""White""]",No,Female,NA,I'm not sure,NA,null,<p></p>,null,choice,ct,binary,attraction,NA,laptops,null,null,null,null,null,null,2,NA,NA,NA,NA,NA,NA,NA,NA,NA,NA
NA,NA,NA,NA,NA,choice_trial,survey-html-form,35,289699,0.0-4.0-1.15,207,1,2025-05-05T21:49:46Z,b60275e29fe2361ab97ac0ac217840d7,"Mozilla/5.0 (iPhone; CPU iPhone OS 18_4_1 like Mac OS X) AppleWebKit/605.1.15 (KHTML, like Gecko) Version/18.4 Mobile/15E148 Safari/604.1",iPhone,Safari,18.4,iOS,18_4_1,https://5puzkbbxv1.cognition.run/?sona_id=53630,"en-US,en;q=0.9",thgcqjus4pel51w,20,"[""White""]",No,Female,NA,I'm not sure,NA,3909,NA,"{""product_choice"":""A""}",choice,ct,binary,attraction,NA,laptops,null,null,null,null,null,null,2,60,50,null,50,60,null,Processing speed,Memory (RAM),NA,NA
NA,NA,NA,NA,NA,choice_trial_setup,html-keyboard-response,36,290003,0.0-4.0-0.16,207,1,2025-05-05T21:49:46Z,b60275e29fe2361ab97ac0ac217840d7,"Mozilla/5.0 (iPhone; CPU iPhone OS 18_4_1 like Mac OS X) AppleWebKit/605.1.15 (KHTML, like Gecko) Version/18.4 Mobile/15E148 Safari/604.1",iPhone,Safari,18.4,iOS,18_4_1,https://5puzkbbxv1.cognition.run/?sona_id=53630,"en-US,en;q=0.9",thgcqjus4pel51w,20,"[""White""]",No,Female,NA,I'm not sure,NA,null,<p></p>,null,choice,dct,trinary,attraction,2,washing machines,null,null,null,null,null,null,2,NA,NA,NA,NA,NA,NA,NA,NA,NA,NA
NA,NA,NA,NA,NA,choice_trial,survey-html-form,37,293451,0.0-4.0-1.16,207,1,2025-05-05T21:49:46Z,b60275e29fe2361ab97ac0ac217840d7,"Mozilla/5.0 (iPhone; CPU iPhone OS 18_4_1 like Mac OS X) AppleWebKit/605.1.15 (KHTML, like Gecko) Version/18.4 Mobile/15E148 Safari/604.1",iPhone,Safari,18.4,iOS,18_4_1,https://5puzkbbxv1.cognition.run/?sona_id=53630,"en-US,en;q=0.9",thgcqjus4pel51w,20,"[""White""]",No,Female,NA,I'm not sure,NA,3441,NA,"{""product_choice"":""C""}",choice,dct,trinary,attraction,2,washing machines,null,null,null,null,null,null,2,50,60,40,60,50,60,Average lifespan,Energy savings,NA,NA
NA,NA,NA,NA,NA,choice_trial_setup,html-keyboard-response,38,293755,0.0-4.0-0.17,207,1,2025-05-05T21:49:46Z,b60275e29fe2361ab97ac0ac217840d7,"Mozilla/5.0 (iPhone; CPU iPhone OS 18_4_1 like Mac OS X) AppleWebKit/605.1.15 (KHTML, like Gecko) Version/18.4 Mobile/15E148 Safari/604.1",iPhone,Safari,18.4,iOS,18_4_1,https://5puzkbbxv1.cognition.run/?sona_id=53630,"en-US,en;q=0.9",thgcqjus4pel51w,20,"[""White""]",No,Female,NA,I'm not sure,NA,null,<p></p>,null,choice,dtc,trinary,repulsion_B,2,televisions,null,null,null,null,null,null,1,NA,NA,NA,NA,NA,NA,NA,NA,NA,NA
NA,NA,NA,NA,NA,choice_trial,survey-html-form,39,301673,0.0-4.0-1.17,207,1,2025-05-05T21:49:46Z,b60275e29fe2361ab97ac0ac217840d7,"Mozilla/5.0 (iPhone; CPU iPhone OS 18_4_1 like Mac OS X) AppleWebKit/605.1.15 (KHTML, like Gecko) Version/18.4 Mobile/15E148 Safari/604.1",iPhone,Safari,18.4,iOS,18_4_1,https://5puzkbbxv1.cognition.run/?sona_id=53630,"en-US,en;q=0.9",thgcqjus4pel51w,20,"[""White""]",No,Female,NA,I'm not sure,NA,7912,NA,"{""product_choice"":""B""}",choice,dtc,trinary,repulsion_B,2,televisions,null,null,null,null,null,null,1,40,30,40,90,100,80,Screen size,Average lifespan,NA,NA
NA,NA,NA,NA,NA,choice_trial_setup,html-keyboard-response,40,301977,0.0-4.0-0.18,207,1,2025-05-05T21:49:46Z,b60275e29fe2361ab97ac0ac217840d7,"Mozilla/5.0 (iPhone; CPU iPhone OS 18_4_1 like Mac OS X) AppleWebKit/605.1.15 (KHTML, like Gecko) Version/18.4 Mobile/15E148 Safari/604.1",iPhone,Safari,18.4,iOS,18_4_1,https://5puzkbbxv1.cognition.run/?sona_id=53630,"en-US,en;q=0.9",thgcqjus4pel51w,20,"[""White""]",No,Female,NA,I'm not sure,NA,null,<p></p>,null,choice,cdt,trinary,repulsion_A,1,washing machines,null,null,null,null,null,null,2,NA,NA,NA,NA,NA,NA,NA,NA,NA,NA
NA,NA,NA,NA,NA,choice_trial,survey-html-form,41,311114,0.0-4.0-1.18,207,1,2025-05-05T21:49:46Z,b60275e29fe2361ab97ac0ac217840d7,"Mozilla/5.0 (iPhone; CPU iPhone OS 18_4_1 like Mac OS X) AppleWebKit/605.1.15 (KHTML, like Gecko) Version/18.4 Mobile/15E148 Safari/604.1",iPhone,Safari,18.4,iOS,18_4_1,https://5puzkbbxv1.cognition.run/?sona_id=53630,"en-US,en;q=0.9",thgcqjus4pel51w,20,"[""White""]",No,Female,NA,I'm not sure,NA,9132,NA,"{""product_choice"":""A""}",choice,cdt,trinary,repulsion_A,1,washing machines,null,null,null,null,null,null,2,100,90,100,30,40,20,Average lifespan,Energy savings,NA,NA
NA,NA,NA,NA,NA,choice_trial_setup,html-keyboard-response,42,311418,0.0-4.0-0.19,207,1,2025-05-05T21:49:46Z,b60275e29fe2361ab97ac0ac217840d7,"Mozilla/5.0 (iPhone; CPU iPhone OS 18_4_1 like Mac OS X) AppleWebKit/605.1.15 (KHTML, like Gecko) Version/18.4 Mobile/15E148 Safari/604.1",iPhone,Safari,18.4,iOS,18_4_1,https://5puzkbbxv1.cognition.run/?sona_id=53630,"en-US,en;q=0.9",thgcqjus4pel51w,20,"[""White""]",No,Female,NA,I'm not sure,NA,null,<p></p>,null,choice,ctd,trinary,repulsion_A,2,televisions,null,null,null,null,null,null,1,NA,NA,NA,NA,NA,NA,NA,NA,NA,NA
NA,NA,NA,NA,NA,choice_trial,survey-html-form,43,315581,0.0-4.0-1.19,207,1,2025-05-05T21:49:46Z,b60275e29fe2361ab97ac0ac217840d7,"Mozilla/5.0 (iPhone; CPU iPhone OS 18_4_1 like Mac OS X) AppleWebKit/605.1.15 (KHTML, like Gecko) Version/18.4 Mobile/15E148 Safari/604.1",iPhone,Safari,18.4,iOS,18_4_1,https://5puzkbbxv1.cognition.run/?sona_id=53630,"en-US,en;q=0.9",thgcqjus4pel51w,20,"[""White""]",No,Female,NA,I'm not sure,NA,4156,NA,"{""product_choice"":""A""}",choice,ctd,trinary,repulsion_A,2,televisions,null,null,null,null,null,null,1,30,40,20,100,90,100,Screen size,Average lifespan,NA,NA
NA,NA,NA,NA,NA,choice_trial_setup,html-keyboard-response,44,315885,0.0-4.0-0.20,207,1,2025-05-05T21:49:46Z,b60275e29fe2361ab97ac0ac217840d7,"Mozilla/5.0 (iPhone; CPU iPhone OS 18_4_1 like Mac OS X) AppleWebKit/605.1.15 (KHTML, like Gecko) Version/18.4 Mobile/15E148 Safari/604.1",iPhone,Safari,18.4,iOS,18_4_1,https://5puzkbbxv1.cognition.run/?sona_id=53630,"en-US,en;q=0.9",thgcqjus4pel51w,20,"[""White""]",No,Female,NA,I'm not sure,NA,null,<p></p>,null,choice,dct,trinary,repulsion_A,2,laptops,null,null,null,null,null,null,2,NA,NA,NA,NA,NA,NA,NA,NA,NA,NA
NA,NA,NA,NA,NA,choice_trial,survey-html-form,45,324819,0.0-4.0-1.20,207,1,2025-05-05T21:49:46Z,b60275e29fe2361ab97ac0ac217840d7,"Mozilla/5.0 (iPhone; CPU iPhone OS 18_4_1 like Mac OS X) AppleWebKit/605.1.15 (KHTML, like Gecko) Version/18.4 Mobile/15E148 Safari/604.1",iPhone,Safari,18.4,iOS,18_4_1,https://5puzkbbxv1.cognition.run/?sona_id=53630,"en-US,en;q=0.9",thgcqjus4pel51w,20,"[""White""]",No,Female,NA,I'm not sure,NA,8928,NA,"{""product_choice"":""B""}",choice,dct,trinary,repulsion_A,2,laptops,null,null,null,null,null,null,2,30,40,20,100,90,100,Processing speed,Memory (RAM),NA,NA
NA,NA,NA,NA,NA,choice_trial_setup,html-keyboard-response,46,325123,0.0-4.0-0.21,207,1,2025-05-05T21:49:46Z,b60275e29fe2361ab97ac0ac217840d7,"Mozilla/5.0 (iPhone; CPU iPhone OS 18_4_1 like Mac OS X) AppleWebKit/605.1.15 (KHTML, like Gecko) Version/18.4 Mobile/15E148 Safari/604.1",iPhone,Safari,18.4,iOS,18_4_1,https://5puzkbbxv1.cognition.run/?sona_id=53630,"en-US,en;q=0.9",thgcqjus4pel51w,20,"[""White""]",No,Female,NA,I'm not sure,NA,null,<p></p>,null,choice,tcd,trinary,repulsion_B,1,televisions,null,null,null,null,null,null,1,NA,NA,NA,NA,NA,NA,NA,NA,NA,NA
NA,NA,NA,NA,NA,choice_trial,survey-html-form,47,335024,0.0-4.0-1.21,207,1,2025-05-05T21:49:46Z,b60275e29fe2361ab97ac0ac217840d7,"Mozilla/5.0 (iPhone; CPU iPhone OS 18_4_1 like Mac OS X) AppleWebKit/605.1.15 (KHTML, like Gecko) Version/18.4 Mobile/15E148 Safari/604.1",iPhone,Safari,18.4,iOS,18_4_1,https://5puzkbbxv1.cognition.run/?sona_id=53630,"en-US,en;q=0.9",thgcqjus4pel51w,20,"[""White""]",No,Female,NA,I'm not sure,NA,9896,NA,"{""product_choice"":""A""}",choice,tcd,trinary,repulsion_B,1,televisions,null,null,null,null,null,null,1,90,100,80,40,30,40,Screen size,Average lifespan,NA,NA
NA,NA,NA,NA,NA,choice_trial_setup,html-keyboard-response,48,335328,0.0-4.0-0.22,207,1,2025-05-05T21:49:46Z,b60275e29fe2361ab97ac0ac217840d7,"Mozilla/5.0 (iPhone; CPU iPhone OS 18_4_1 like Mac OS X) AppleWebKit/605.1.15 (KHTML, like Gecko) Version/18.4 Mobile/15E148 Safari/604.1",iPhone,Safari,18.4,iOS,18_4_1,https://5puzkbbxv1.cognition.run/?sona_id=53630,"en-US,en;q=0.9",thgcqjus4pel51w,20,"[""White""]",No,Female,NA,I'm not sure,NA,null,<p></p>,null,choice,dtc,trinary,repulsion_B,1,washing machines,null,null,null,null,null,null,2,NA,NA,NA,NA,NA,NA,NA,NA,NA,NA
NA,NA,NA,NA,NA,choice_trial,survey-html-form,49,351232,0.0-4.0-1.22,207,1,2025-05-05T21:49:46Z,b60275e29fe2361ab97ac0ac217840d7,"Mozilla/5.0 (iPhone; CPU iPhone OS 18_4_1 like Mac OS X) AppleWebKit/605.1.15 (KHTML, like Gecko) Version/18.4 Mobile/15E148 Safari/604.1",iPhone,Safari,18.4,iOS,18_4_1,https://5puzkbbxv1.cognition.run/?sona_id=53630,"en-US,en;q=0.9",thgcqjus4pel51w,20,"[""White""]",No,Female,NA,I'm not sure,NA,15898,NA,"{""product_choice"":""B""}",choice,dtc,trinary,repulsion_B,1,washing machines,null,null,null,null,null,null,2,90,100,80,40,30,40,Average lifespan,Energy savings,NA,NA
NA,NA,NA,NA,NA,choice_trial_setup,html-keyboard-response,50,351537,0.0-4.0-0.23,207,1,2025-05-05T21:49:46Z,b60275e29fe2361ab97ac0ac217840d7,"Mozilla/5.0 (iPhone; CPU iPhone OS 18_4_1 like Mac OS X) AppleWebKit/605.1.15 (KHTML, like Gecko) Version/18.4 Mobile/15E148 Safari/604.1",iPhone,Safari,18.4,iOS,18_4_1,https://5puzkbbxv1.cognition.run/?sona_id=53630,"en-US,en;q=0.9",thgcqjus4pel51w,20,"[""White""]",No,Female,NA,I'm not sure,NA,null,<p></p>,null,choice,cdt,trinary,repulsion_B,1,microwave ovens,null,null,null,null,null,null,1,NA,NA,NA,NA,NA,NA,NA,NA,NA,NA
NA,NA,NA,NA,NA,choice_trial,survey-html-form,51,365708,0.0-4.0-1.23,207,1,2025-05-05T21:49:46Z,b60275e29fe2361ab97ac0ac217840d7,"Mozilla/5.0 (iPhone; CPU iPhone OS 18_4_1 like Mac OS X) AppleWebKit/605.1.15 (KHTML, like Gecko) Version/18.4 Mobile/15E148 Safari/604.1",iPhone,Safari,18.4,iOS,18_4_1,https://5puzkbbxv1.cognition.run/?sona_id=53630,"en-US,en;q=0.9",thgcqjus4pel51w,20,"[""White""]",No,Female,NA,I'm not sure,NA,14165,NA,"{""product_choice"":""C""}",choice,cdt,trinary,repulsion_B,1,microwave ovens,null,null,null,null,null,null,1,90,100,80,40,30,40,Warranty,Cooking power,NA,NA
NA,NA,NA,NA,NA,choice_trial_setup,html-keyboard-response,52,366012,0.0-4.0-0.24,207,1,2025-05-05T21:49:46Z,b60275e29fe2361ab97ac0ac217840d7,"Mozilla/5.0 (iPhone; CPU iPhone OS 18_4_1 like Mac OS X) AppleWebKit/605.1.15 (KHTML, like Gecko) Version/18.4 Mobile/15E148 Safari/604.1",iPhone,Safari,18.4,iOS,18_4_1,https://5puzkbbxv1.cognition.run/?sona_id=53630,"en-US,en;q=0.9",thgcqjus4pel51w,20,"[""White""]",No,Female,NA,I'm not sure,NA,null,<p></p>,null,choice,wbw,trinary,catch,null,laptops,85,65,15,20,25,15,2,NA,NA,NA,NA,NA,NA,NA,NA,NA,NA
NA,NA,NA,NA,NA,choice_trial,survey-html-form,53,369260,0.0-4.0-1.24,207,1,2025-05-05T21:49:46Z,b60275e29fe2361ab97ac0ac217840d7,"Mozilla/5.0 (iPhone; CPU iPhone OS 18_4_1 like Mac OS X) AppleWebKit/605.1.15 (KHTML, like Gecko) Version/18.4 Mobile/15E148 Safari/604.1",iPhone,Safari,18.4,iOS,18_4_1,https://5puzkbbxv1.cognition.run/?sona_id=53630,"en-US,en;q=0.9",thgcqjus4pel51w,20,"[""White""]",No,Female,NA,I'm not sure,NA,3242,NA,"{""product_choice"":""B""}",choice,wbw,trinary,catch,null,laptops,85,65,15,20,25,15,2,null,null,null,null,null,null,Processing speed,Memory (RAM),NA,NA
NA,NA,NA,NA,NA,choice_trial_setup,html-keyboard-response,54,369565,0.0-4.0-0.25,207,1,2025-05-05T21:49:46Z,b60275e29fe2361ab97ac0ac217840d7,"Mozilla/5.0 (iPhone; CPU iPhone OS 18_4_1 like Mac OS X) AppleWebKit/605.1.15 (KHTML, like Gecko) Version/18.4 Mobile/15E148 Safari/604.1",iPhone,Safari,18.4,iOS,18_4_1,https://5puzkbbxv1.cognition.run/?sona_id=53630,"en-US,en;q=0.9",thgcqjus4pel51w,20,"[""White""]",No,Female,NA,I'm not sure,NA,null,<p></p>,null,choice,tdc,trinary,repulsion_B,1,laptops,null,null,null,null,null,null,2,NA,NA,NA,NA,NA,NA,NA,NA,NA,NA
NA,NA,NA,NA,NA,choice_trial,survey-html-form,55,372295,0.0-4.0-1.25,207,1,2025-05-05T21:49:46Z,b60275e29fe2361ab97ac0ac217840d7,"Mozilla/5.0 (iPhone; CPU iPhone OS 18_4_1 like Mac OS X) AppleWebKit/605.1.15 (KHTML, like Gecko) Version/18.4 Mobile/15E148 Safari/604.1",iPhone,Safari,18.4,iOS,18_4_1,https://5puzkbbxv1.cognition.run/?sona_id=53630,"en-US,en;q=0.9",thgcqjus4pel51w,20,"[""White""]",No,Female,NA,I'm not sure,NA,2724,NA,"{""product_choice"":""A""}",choice,tdc,trinary,repulsion_B,1,laptops,null,null,null,null,null,null,2,90,100,80,40,30,40,Processing speed,Memory (RAM),NA,NA
NA,NA,NA,NA,NA,choice_trial_setup,html-keyboard-response,56,372600,0.0-4.0-0.26,207,1,2025-05-05T21:49:46Z,b60275e29fe2361ab97ac0ac217840d7,"Mozilla/5.0 (iPhone; CPU iPhone OS 18_4_1 like Mac OS X) AppleWebKit/605.1.15 (KHTML, like Gecko) Version/18.4 Mobile/15E148 Safari/604.1",iPhone,Safari,18.4,iOS,18_4_1,https://5puzkbbxv1.cognition.run/?sona_id=53630,"en-US,en;q=0.9",thgcqjus4pel51w,20,"[""White""]",No,Female,NA,I'm not sure,NA,null,<p></p>,null,choice,wbw,trinary,catch,null,televisions,80,80,15,45,30,30,1,NA,NA,NA,NA,NA,NA,NA,NA,NA,NA
NA,NA,NA,NA,NA,choice_trial,survey-html-form,57,374997,0.0-4.0-1.26,207,1,2025-05-05T21:49:46Z,b60275e29fe2361ab97ac0ac217840d7,"Mozilla/5.0 (iPhone; CPU iPhone OS 18_4_1 like Mac OS X) AppleWebKit/605.1.15 (KHTML, like Gecko) Version/18.4 Mobile/15E148 Safari/604.1",iPhone,Safari,18.4,iOS,18_4_1,https://5puzkbbxv1.cognition.run/?sona_id=53630,"en-US,en;q=0.9",thgcqjus4pel51w,20,"[""White""]",No,Female,NA,I'm not sure,NA,2390,NA,"{""product_choice"":""B""}",choice,wbw,trinary,catch,null,televisions,80,80,15,45,30,30,1,null,null,null,null,null,null,Screen size,Average lifespan,NA,NA
NA,NA,NA,NA,NA,choice_trial_setup,html-keyboard-response,58,375301,0.0-4.0-0.27,207,1,2025-05-05T21:49:46Z,b60275e29fe2361ab97ac0ac217840d7,"Mozilla/5.0 (iPhone; CPU iPhone OS 18_4_1 like Mac OS X) AppleWebKit/605.1.15 (KHTML, like Gecko) Version/18.4 Mobile/15E148 Safari/604.1",iPhone,Safari,18.4,iOS,18_4_1,https://5puzkbbxv1.cognition.run/?sona_id=53630,"en-US,en;q=0.9",thgcqjus4pel51w,20,"[""White""]",No,Female,NA,I'm not sure,NA,null,<p></p>,null,choice,tc,binary,attraction,NA,televisions,null,null,null,null,null,null,1,NA,NA,NA,NA,NA,NA,NA,NA,NA,NA
NA,NA,NA,NA,NA,choice_trial,survey-html-form,59,378232,0.0-4.0-1.27,207,1,2025-05-05T21:49:46Z,b60275e29fe2361ab97ac0ac217840d7,"Mozilla/5.0 (iPhone; CPU iPhone OS 18_4_1 like Mac OS X) AppleWebKit/605.1.15 (KHTML, like Gecko) Version/18.4 Mobile/15E148 Safari/604.1",iPhone,Safari,18.4,iOS,18_4_1,https://5puzkbbxv1.cognition.run/?sona_id=53630,"en-US,en;q=0.9",thgcqjus4pel51w,20,"[""White""]",No,Female,NA,I'm not sure,NA,2925,NA,"{""product_choice"":""A""}",choice,tc,binary,attraction,NA,televisions,null,null,null,null,null,null,1,60,50,null,50,60,null,Screen size,Average lifespan,NA,NA
NA,NA,NA,NA,NA,choice_trial_setup,html-keyboard-response,60,378537,0.0-4.0-0.28,207,1,2025-05-05T21:49:46Z,b60275e29fe2361ab97ac0ac217840d7,"Mozilla/5.0 (iPhone; CPU iPhone OS 18_4_1 like Mac OS X) AppleWebKit/605.1.15 (KHTML, like Gecko) Version/18.4 Mobile/15E148 Safari/604.1",iPhone,Safari,18.4,iOS,18_4_1,https://5puzkbbxv1.cognition.run/?sona_id=53630,"en-US,en;q=0.9",thgcqjus4pel51w,20,"[""White""]",No,Female,NA,I'm not sure,NA,null,<p></p>,null,choice,cdt,trinary,attraction,2,laptops,null,null,null,null,null,null,2,NA,NA,NA,NA,NA,NA,NA,NA,NA,NA
NA,NA,NA,NA,NA,choice_trial,survey-html-form,61,380550,0.0-4.0-1.28,207,1,2025-05-05T21:49:46Z,b60275e29fe2361ab97ac0ac217840d7,"Mozilla/5.0 (iPhone; CPU iPhone OS 18_4_1 like Mac OS X) AppleWebKit/605.1.15 (KHTML, like Gecko) Version/18.4 Mobile/15E148 Safari/604.1",iPhone,Safari,18.4,iOS,18_4_1,https://5puzkbbxv1.cognition.run/?sona_id=53630,"en-US,en;q=0.9",thgcqjus4pel51w,20,"[""White""]",No,Female,NA,I'm not sure,NA,2006,NA,"{""product_choice"":""A""}",choice,cdt,trinary,attraction,2,laptops,null,null,null,null,null,null,2,50,60,40,60,50,60,Processing speed,Memory (RAM),NA,NA
NA,NA,NA,NA,NA,choice_trial_setup,html-keyboard-response,62,380855,0.0-4.0-0.29,207,1,2025-05-05T21:49:46Z,b60275e29fe2361ab97ac0ac217840d7,"Mozilla/5.0 (iPhone; CPU iPhone OS 18_4_1 like Mac OS X) AppleWebKit/605.1.15 (KHTML, like Gecko) Version/18.4 Mobile/15E148 Safari/604.1",iPhone,Safari,18.4,iOS,18_4_1,https://5puzkbbxv1.cognition.run/?sona_id=53630,"en-US,en;q=0.9",thgcqjus4pel51w,20,"[""White""]",No,Female,NA,I'm not sure,NA,null,<p></p>,null,choice,wbw,trinary,catch,null,washing machines,50,75,20,50,40,35,1,NA,NA,NA,NA,NA,NA,NA,NA,NA,NA
NA,NA,NA,NA,NA,choice_trial,survey-html-form,63,383568,0.0-4.0-1.29,207,1,2025-05-05T21:49:46Z,b60275e29fe2361ab97ac0ac217840d7,"Mozilla/5.0 (iPhone; CPU iPhone OS 18_4_1 like Mac OS X) AppleWebKit/605.1.15 (KHTML, like Gecko) Version/18.4 Mobile/15E148 Safari/604.1",iPhone,Safari,18.4,iOS,18_4_1,https://5puzkbbxv1.cognition.run/?sona_id=53630,"en-US,en;q=0.9",thgcqjus4pel51w,20,"[""White""]",No,Female,NA,I'm not sure,NA,2706,NA,"{""product_choice"":""B""}",choice,wbw,trinary,catch,null,washing machines,50,75,20,50,40,35,1,null,null,null,null,null,null,Average lifespan,Energy savings,NA,NA
NA,NA,NA,NA,NA,choice_trial_setup,html-keyboard-response,64,383873,0.0-4.0-0.30,207,1,2025-05-05T21:49:46Z,b60275e29fe2361ab97ac0ac217840d7,"Mozilla/5.0 (iPhone; CPU iPhone OS 18_4_1 like Mac OS X) AppleWebKit/605.1.15 (KHTML, like Gecko) Version/18.4 Mobile/15E148 Safari/604.1",iPhone,Safari,18.4,iOS,18_4_1,https://5puzkbbxv1.cognition.run/?sona_id=53630,"en-US,en;q=0.9",thgcqjus4pel51w,20,"[""White""]",No,Female,NA,I'm not sure,NA,null,<p></p>,null,choice,wwb,trinary,catch,null,microwave ovens,55,50,5,20,15,10,1,NA,NA,NA,NA,NA,NA,NA,NA,NA,NA
NA,NA,NA,NA,NA,choice_trial,survey-html-form,65,386241,0.0-4.0-1.30,207,1,2025-05-05T21:49:46Z,b60275e29fe2361ab97ac0ac217840d7,"Mozilla/5.0 (iPhone; CPU iPhone OS 18_4_1 like Mac OS X) AppleWebKit/605.1.15 (KHTML, like Gecko) Version/18.4 Mobile/15E148 Safari/604.1",iPhone,Safari,18.4,iOS,18_4_1,https://5puzkbbxv1.cognition.run/?sona_id=53630,"en-US,en;q=0.9",thgcqjus4pel51w,20,"[""White""]",No,Female,NA,I'm not sure,NA,2356,NA,"{""product_choice"":""C""}",choice,wwb,trinary,catch,null,microwave ovens,55,50,5,20,15,10,1,null,null,null,null,null,null,Warranty,Cooking power,NA,NA
NA,NA,NA,NA,NA,choice_trial_setup,html-keyboard-response,66,386547,0.0-4.0-0.31,207,1,2025-05-05T21:49:46Z,b60275e29fe2361ab97ac0ac217840d7,"Mozilla/5.0 (iPhone; CPU iPhone OS 18_4_1 like Mac OS X) AppleWebKit/605.1.15 (KHTML, like Gecko) Version/18.4 Mobile/15E148 Safari/604.1",iPhone,Safari,18.4,iOS,18_4_1,https://5puzkbbxv1.cognition.run/?sona_id=53630,"en-US,en;q=0.9",thgcqjus4pel51w,20,"[""White""]",No,Female,NA,I'm not sure,NA,null,<p></p>,null,choice,cdt,trinary,repulsion_B,2,washing machines,null,null,null,null,null,null,1,NA,NA,NA,NA,NA,NA,NA,NA,NA,NA
NA,NA,NA,NA,NA,choice_trial,survey-html-form,67,389594,0.0-4.0-1.31,207,1,2025-05-05T21:49:46Z,b60275e29fe2361ab97ac0ac217840d7,"Mozilla/5.0 (iPhone; CPU iPhone OS 18_4_1 like Mac OS X) AppleWebKit/605.1.15 (KHTML, like Gecko) Version/18.4 Mobile/15E148 Safari/604.1",iPhone,Safari,18.4,iOS,18_4_1,https://5puzkbbxv1.cognition.run/?sona_id=53630,"en-US,en;q=0.9",thgcqjus4pel51w,20,"[""White""]",No,Female,NA,I'm not sure,NA,3039,NA,"{""product_choice"":""C""}",choice,cdt,trinary,repulsion_B,2,washing machines,null,null,null,null,null,null,1,40,30,40,90,100,80,Average lifespan,Energy savings,NA,NA
NA,NA,NA,NA,NA,choice_trial_setup,html-keyboard-response,68,389899,0.0-4.0-0.32,207,1,2025-05-05T21:49:46Z,b60275e29fe2361ab97ac0ac217840d7,"Mozilla/5.0 (iPhone; CPU iPhone OS 18_4_1 like Mac OS X) AppleWebKit/605.1.15 (KHTML, like Gecko) Version/18.4 Mobile/15E148 Safari/604.1",iPhone,Safari,18.4,iOS,18_4_1,https://5puzkbbxv1.cognition.run/?sona_id=53630,"en-US,en;q=0.9",thgcqjus4pel51w,20,"[""White""]",No,Female,NA,I'm not sure,NA,null,<p></p>,null,choice,tdc,trinary,repulsion_A,1,televisions,null,null,null,null,null,null,1,NA,NA,NA,NA,NA,NA,NA,NA,NA,NA
NA,NA,NA,NA,NA,choice_trial,survey-html-form,69,392625,0.0-4.0-1.32,207,1,2025-05-05T21:49:46Z,b60275e29fe2361ab97ac0ac217840d7,"Mozilla/5.0 (iPhone; CPU iPhone OS 18_4_1 like Mac OS X) AppleWebKit/605.1.15 (KHTML, like Gecko) Version/18.4 Mobile/15E148 Safari/604.1",iPhone,Safari,18.4,iOS,18_4_1,https://5puzkbbxv1.cognition.run/?sona_id=53630,"en-US,en;q=0.9",thgcqjus4pel51w,20,"[""White""]",No,Female,NA,I'm not sure,NA,2718,NA,"{""product_choice"":""C""}",choice,tdc,trinary,repulsion_A,1,televisions,null,null,null,null,null,null,1,100,90,100,30,40,20,Screen size,Average lifespan,NA,NA
NA,NA,NA,NA,NA,choice_trial_setup,html-keyboard-response,70,392931,0.0-4.0-0.33,207,1,2025-05-05T21:49:46Z,b60275e29fe2361ab97ac0ac217840d7,"Mozilla/5.0 (iPhone; CPU iPhone OS 18_4_1 like Mac OS X) AppleWebKit/605.1.15 (KHTML, like Gecko) Version/18.4 Mobile/15E148 Safari/604.1",iPhone,Safari,18.4,iOS,18_4_1,https://5puzkbbxv1.cognition.run/?sona_id=53630,"en-US,en;q=0.9",thgcqjus4pel51w,20,"[""White""]",No,Female,NA,I'm not sure,NA,null,<p></p>,null,choice,dtc,trinary,repulsion_A,1,laptops,null,null,null,null,null,null,2,NA,NA,NA,NA,NA,NA,NA,NA,NA,NA
NA,NA,NA,NA,NA,choice_trial,survey-html-form,71,396532,0.0-4.0-1.33,207,1,2025-05-05T21:49:46Z,b60275e29fe2361ab97ac0ac217840d7,"Mozilla/5.0 (iPhone; CPU iPhone OS 18_4_1 like Mac OS X) AppleWebKit/605.1.15 (KHTML, like Gecko) Version/18.4 Mobile/15E148 Safari/604.1",iPhone,Safari,18.4,iOS,18_4_1,https://5puzkbbxv1.cognition.run/?sona_id=53630,"en-US,en;q=0.9",thgcqjus4pel51w,20,"[""White""]",No,Female,NA,I'm not sure,NA,3594,NA,"{""product_choice"":""C""}",choice,dtc,trinary,repulsion_A,1,laptops,null,null,null,null,null,null,2,100,90,100,30,40,20,Processing speed,Memory (RAM),NA,NA
NA,NA,NA,NA,NA,choice_trial_setup,html-keyboard-response,72,396837,0.0-4.0-0.34,207,1,2025-05-05T21:49:46Z,b60275e29fe2361ab97ac0ac217840d7,"Mozilla/5.0 (iPhone; CPU iPhone OS 18_4_1 like Mac OS X) AppleWebKit/605.1.15 (KHTML, like Gecko) Version/18.4 Mobile/15E148 Safari/604.1",iPhone,Safari,18.4,iOS,18_4_1,https://5puzkbbxv1.cognition.run/?sona_id=53630,"en-US,en;q=0.9",thgcqjus4pel51w,20,"[""White""]",No,Female,NA,I'm not sure,NA,null,<p></p>,null,choice,tcd,trinary,attraction,2,microwave ovens,null,null,null,null,null,null,1,NA,NA,NA,NA,NA,NA,NA,NA,NA,NA
NA,NA,NA,NA,NA,choice_trial,survey-html-form,73,398788,0.0-4.0-1.34,207,1,2025-05-05T21:49:46Z,b60275e29fe2361ab97ac0ac217840d7,"Mozilla/5.0 (iPhone; CPU iPhone OS 18_4_1 like Mac OS X) AppleWebKit/605.1.15 (KHTML, like Gecko) Version/18.4 Mobile/15E148 Safari/604.1",iPhone,Safari,18.4,iOS,18_4_1,https://5puzkbbxv1.cognition.run/?sona_id=53630,"en-US,en;q=0.9",thgcqjus4pel51w,20,"[""White""]",No,Female,NA,I'm not sure,NA,1943,NA,"{""product_choice"":""B""}",choice,tcd,trinary,attraction,2,microwave ovens,null,null,null,null,null,null,1,50,60,40,60,50,60,Warranty,Cooking power,NA,NA
NA,NA,NA,NA,NA,choice_trial_setup,html-keyboard-response,74,399093,0.0-4.0-0.35,207,1,2025-05-05T21:49:46Z,b60275e29fe2361ab97ac0ac217840d7,"Mozilla/5.0 (iPhone; CPU iPhone OS 18_4_1 like Mac OS X) AppleWebKit/605.1.15 (KHTML, like Gecko) Version/18.4 Mobile/15E148 Safari/604.1",iPhone,Safari,18.4,iOS,18_4_1,https://5puzkbbxv1.cognition.run/?sona_id=53630,"en-US,en;q=0.9",thgcqjus4pel51w,20,"[""White""]",No,Female,NA,I'm not sure,NA,null,<p></p>,null,choice,bw,binary,catch,null,microwave ovens,80,70,15,20,null,null,2,NA,NA,NA,NA,NA,NA,NA,NA,NA,NA
NA,NA,NA,NA,NA,choice_trial,survey-html-form,75,402648,0.0-4.0-1.35,207,1,2025-05-05T21:49:46Z,b60275e29fe2361ab97ac0ac217840d7,"Mozilla/5.0 (iPhone; CPU iPhone OS 18_4_1 like Mac OS X) AppleWebKit/605.1.15 (KHTML, like Gecko) Version/18.4 Mobile/15E148 Safari/604.1",iPhone,Safari,18.4,iOS,18_4_1,https://5puzkbbxv1.cognition.run/?sona_id=53630,"en-US,en;q=0.9",thgcqjus4pel51w,20,"[""White""]",No,Female,NA,I'm not sure,NA,3548,NA,"{""product_choice"":""A""}",choice,bw,binary,catch,null,microwave ovens,80,70,15,20,null,null,2,null,null,null,null,null,null,Warranty,Cooking power,NA,NA
NA,NA,NA,NA,NA,choice_trial_setup,html-keyboard-response,76,402953,0.0-4.0-0.36,207,1,2025-05-05T21:49:46Z,b60275e29fe2361ab97ac0ac217840d7,"Mozilla/5.0 (iPhone; CPU iPhone OS 18_4_1 like Mac OS X) AppleWebKit/605.1.15 (KHTML, like Gecko) Version/18.4 Mobile/15E148 Safari/604.1",iPhone,Safari,18.4,iOS,18_4_1,https://5puzkbbxv1.cognition.run/?sona_id=53630,"en-US,en;q=0.9",thgcqjus4pel51w,20,"[""White""]",No,Female,NA,I'm not sure,NA,null,<p></p>,null,choice,tc,binary,repulsion,2,washing machines,null,null,null,null,null,null,1,NA,NA,NA,NA,NA,NA,NA,NA,NA,NA
NA,NA,NA,NA,NA,choice_trial,survey-html-form,77,405387,0.0-4.0-1.36,207,1,2025-05-05T21:49:46Z,b60275e29fe2361ab97ac0ac217840d7,"Mozilla/5.0 (iPhone; CPU iPhone OS 18_4_1 like Mac OS X) AppleWebKit/605.1.15 (KHTML, like Gecko) Version/18.4 Mobile/15E148 Safari/604.1",iPhone,Safari,18.4,iOS,18_4_1,https://5puzkbbxv1.cognition.run/?sona_id=53630,"en-US,en;q=0.9",thgcqjus4pel51w,20,"[""White""]",No,Female,NA,I'm not sure,NA,2426,NA,"{""product_choice"":""B""}",choice,tc,binary,repulsion,2,washing machines,null,null,null,null,null,null,1,30,40,null,100,90,null,Average lifespan,Energy savings,NA,NA
NA,NA,NA,NA,NA,choice_trial_setup,html-keyboard-response,78,405692,0.0-4.0-0.37,207,1,2025-05-05T21:49:46Z,b60275e29fe2361ab97ac0ac217840d7,"Mozilla/5.0 (iPhone; CPU iPhone OS 18_4_1 like Mac OS X) AppleWebKit/605.1.15 (KHTML, like Gecko) Version/18.4 Mobile/15E148 Safari/604.1",iPhone,Safari,18.4,iOS,18_4_1,https://5puzkbbxv1.cognition.run/?sona_id=53630,"en-US,en;q=0.9",thgcqjus4pel51w,20,"[""White""]",No,Female,NA,I'm not sure,NA,null,<p></p>,null,choice,tc,binary,repulsion,1,washing machines,null,null,null,null,null,null,1,NA,NA,NA,NA,NA,NA,NA,NA,NA,NA
NA,NA,NA,NA,NA,choice_trial,survey-html-form,79,409252,0.0-4.0-1.37,207,1,2025-05-05T21:49:46Z,b60275e29fe2361ab97ac0ac217840d7,"Mozilla/5.0 (iPhone; CPU iPhone OS 18_4_1 like Mac OS X) AppleWebKit/605.1.15 (KHTML, like Gecko) Version/18.4 Mobile/15E148 Safari/604.1",iPhone,Safari,18.4,iOS,18_4_1,https://5puzkbbxv1.cognition.run/?sona_id=53630,"en-US,en;q=0.9",thgcqjus4pel51w,20,"[""White""]",No,Female,NA,I'm not sure,NA,3553,NA,"{""product_choice"":""B""}",choice,tc,binary,repulsion,1,washing machines,null,null,null,null,null,null,1,100,90,null,30,40,null,Average lifespan,Energy savings,NA,NA
NA,NA,NA,NA,NA,choice_trial_setup,html-keyboard-response,80,409556,0.0-4.0-0.38,207,1,2025-05-05T21:49:46Z,b60275e29fe2361ab97ac0ac217840d7,"Mozilla/5.0 (iPhone; CPU iPhone OS 18_4_1 like Mac OS X) AppleWebKit/605.1.15 (KHTML, like Gecko) Version/18.4 Mobile/15E148 Safari/604.1",iPhone,Safari,18.4,iOS,18_4_1,https://5puzkbbxv1.cognition.run/?sona_id=53630,"en-US,en;q=0.9",thgcqjus4pel51w,20,"[""White""]",No,Female,NA,I'm not sure,NA,null,<p></p>,null,choice,tc,binary,attraction,NA,washing machines,null,null,null,null,null,null,1,NA,NA,NA,NA,NA,NA,NA,NA,NA,NA
NA,NA,NA,NA,NA,choice_trial,survey-html-form,81,416484,0.0-4.0-1.38,207,1,2025-05-05T21:49:46Z,b60275e29fe2361ab97ac0ac217840d7,"Mozilla/5.0 (iPhone; CPU iPhone OS 18_4_1 like Mac OS X) AppleWebKit/605.1.15 (KHTML, like Gecko) Version/18.4 Mobile/15E148 Safari/604.1",iPhone,Safari,18.4,iOS,18_4_1,https://5puzkbbxv1.cognition.run/?sona_id=53630,"en-US,en;q=0.9",thgcqjus4pel51w,20,"[""White""]",No,Female,NA,I'm not sure,NA,6915,NA,"{""product_choice"":""A""}",choice,tc,binary,attraction,NA,washing machines,null,null,null,null,null,null,1,60,50,null,50,60,null,Average lifespan,Energy savings,NA,NA
NA,NA,NA,NA,NA,choice_trial_setup,html-keyboard-response,82,416788,0.0-4.0-0.39,207,1,2025-05-05T21:49:46Z,b60275e29fe2361ab97ac0ac217840d7,"Mozilla/5.0 (iPhone; CPU iPhone OS 18_4_1 like Mac OS X) AppleWebKit/605.1.15 (KHTML, like Gecko) Version/18.4 Mobile/15E148 Safari/604.1",iPhone,Safari,18.4,iOS,18_4_1,https://5puzkbbxv1.cognition.run/?sona_id=53630,"en-US,en;q=0.9",thgcqjus4pel51w,20,"[""White""]",No,Female,NA,I'm not sure,NA,null,<p></p>,null,choice,dct,trinary,repulsion_B,2,microwave ovens,null,null,null,null,null,null,2,NA,NA,NA,NA,NA,NA,NA,NA,NA,NA
NA,NA,NA,NA,NA,choice_trial,survey-html-form,83,423576,0.0-4.0-1.39,207,1,2025-05-05T21:49:46Z,b60275e29fe2361ab97ac0ac217840d7,"Mozilla/5.0 (iPhone; CPU iPhone OS 18_4_1 like Mac OS X) AppleWebKit/605.1.15 (KHTML, like Gecko) Version/18.4 Mobile/15E148 Safari/604.1",iPhone,Safari,18.4,iOS,18_4_1,https://5puzkbbxv1.cognition.run/?sona_id=53630,"en-US,en;q=0.9",thgcqjus4pel51w,20,"[""White""]",No,Female,NA,I'm not sure,NA,6775,NA,"{""product_choice"":""C""}",choice,dct,trinary,repulsion_B,2,microwave ovens,null,null,null,null,null,null,2,40,30,40,90,100,80,Warranty,Cooking power,NA,NA
NA,NA,NA,NA,NA,choice_trial_setup,html-keyboard-response,84,423881,0.0-4.0-0.40,207,1,2025-05-05T21:49:46Z,b60275e29fe2361ab97ac0ac217840d7,"Mozilla/5.0 (iPhone; CPU iPhone OS 18_4_1 like Mac OS X) AppleWebKit/605.1.15 (KHTML, like Gecko) Version/18.4 Mobile/15E148 Safari/604.1",iPhone,Safari,18.4,iOS,18_4_1,https://5puzkbbxv1.cognition.run/?sona_id=53630,"en-US,en;q=0.9",thgcqjus4pel51w,20,"[""White""]",No,Female,NA,I'm not sure,NA,null,<p></p>,null,choice,tc,binary,repulsion,1,microwave ovens,null,null,null,null,null,null,2,NA,NA,NA,NA,NA,NA,NA,NA,NA,NA
NA,NA,NA,NA,NA,choice_trial,survey-html-form,85,425981,0.0-4.0-1.40,207,1,2025-05-05T21:49:46Z,b60275e29fe2361ab97ac0ac217840d7,"Mozilla/5.0 (iPhone; CPU iPhone OS 18_4_1 like Mac OS X) AppleWebKit/605.1.15 (KHTML, like Gecko) Version/18.4 Mobile/15E148 Safari/604.1",iPhone,Safari,18.4,iOS,18_4_1,https://5puzkbbxv1.cognition.run/?sona_id=53630,"en-US,en;q=0.9",thgcqjus4pel51w,20,"[""White""]",No,Female,NA,I'm not sure,NA,2091,NA,"{""product_choice"":""B""}",choice,tc,binary,repulsion,1,microwave ovens,null,null,null,null,null,null,2,100,90,null,30,40,null,Warranty,Cooking power,NA,NA
NA,NA,NA,NA,NA,choice_trial_setup,html-keyboard-response,86,426287,0.0-4.0-0.41,207,1,2025-05-05T21:49:46Z,b60275e29fe2361ab97ac0ac217840d7,"Mozilla/5.0 (iPhone; CPU iPhone OS 18_4_1 like Mac OS X) AppleWebKit/605.1.15 (KHTML, like Gecko) Version/18.4 Mobile/15E148 Safari/604.1",iPhone,Safari,18.4,iOS,18_4_1,https://5puzkbbxv1.cognition.run/?sona_id=53630,"en-US,en;q=0.9",thgcqjus4pel51w,20,"[""White""]",No,Female,NA,I'm not sure,NA,null,<p></p>,null,choice,tc,binary,repulsion,2,laptops,null,null,null,null,null,null,2,NA,NA,NA,NA,NA,NA,NA,NA,NA,NA
NA,NA,NA,NA,NA,choice_trial,survey-html-form,87,429362,0.0-4.0-1.41,207,1,2025-05-05T21:49:46Z,b60275e29fe2361ab97ac0ac217840d7,"Mozilla/5.0 (iPhone; CPU iPhone OS 18_4_1 like Mac OS X) AppleWebKit/605.1.15 (KHTML, like Gecko) Version/18.4 Mobile/15E148 Safari/604.1",iPhone,Safari,18.4,iOS,18_4_1,https://5puzkbbxv1.cognition.run/?sona_id=53630,"en-US,en;q=0.9",thgcqjus4pel51w,20,"[""White""]",No,Female,NA,I'm not sure,NA,3067,NA,"{""product_choice"":""B""}",choice,tc,binary,repulsion,2,laptops,null,null,null,null,null,null,2,30,40,null,100,90,null,Processing speed,Memory (RAM),NA,NA
NA,NA,NA,NA,NA,choice_trial_setup,html-keyboard-response,88,429668,0.0-4.0-0.42,207,1,2025-05-05T21:49:46Z,b60275e29fe2361ab97ac0ac217840d7,"Mozilla/5.0 (iPhone; CPU iPhone OS 18_4_1 like Mac OS X) AppleWebKit/605.1.15 (KHTML, like Gecko) Version/18.4 Mobile/15E148 Safari/604.1",iPhone,Safari,18.4,iOS,18_4_1,https://5puzkbbxv1.cognition.run/?sona_id=53630,"en-US,en;q=0.9",thgcqjus4pel51w,20,"[""White""]",No,Female,NA,I'm not sure,NA,null,<p></p>,null,choice,tc,binary,repulsion,1,televisions,null,null,null,null,null,null,2,NA,NA,NA,NA,NA,NA,NA,NA,NA,NA
NA,NA,NA,NA,NA,choice_trial,survey-html-form,89,434115,0.0-4.0-1.42,207,1,2025-05-05T21:49:46Z,b60275e29fe2361ab97ac0ac217840d7,"Mozilla/5.0 (iPhone; CPU iPhone OS 18_4_1 like Mac OS X) AppleWebKit/605.1.15 (KHTML, like Gecko) Version/18.4 Mobile/15E148 Safari/604.1",iPhone,Safari,18.4,iOS,18_4_1,https://5puzkbbxv1.cognition.run/?sona_id=53630,"en-US,en;q=0.9",thgcqjus4pel51w,20,"[""White""]",No,Female,NA,I'm not sure,NA,4442,NA,"{""product_choice"":""B""}",choice,tc,binary,repulsion,1,televisions,null,null,null,null,null,null,2,100,90,null,30,40,null,Screen size,Average lifespan,NA,NA
NA,NA,NA,NA,NA,choice_trial_setup,html-keyboard-response,90,434420,0.0-4.0-0.43,207,1,2025-05-05T21:49:46Z,b60275e29fe2361ab97ac0ac217840d7,"Mozilla/5.0 (iPhone; CPU iPhone OS 18_4_1 like Mac OS X) AppleWebKit/605.1.15 (KHTML, like Gecko) Version/18.4 Mobile/15E148 Safari/604.1",iPhone,Safari,18.4,iOS,18_4_1,https://5puzkbbxv1.cognition.run/?sona_id=53630,"en-US,en;q=0.9",thgcqjus4pel51w,20,"[""White""]",No,Female,NA,I'm not sure,NA,null,<p></p>,null,choice,ct,binary,repulsion,2,televisions,null,null,null,null,null,null,1,NA,NA,NA,NA,NA,NA,NA,NA,NA,NA
NA,NA,NA,NA,NA,choice_trial,survey-html-form,91,443769,0.0-4.0-1.43,207,1,2025-05-05T21:49:46Z,b60275e29fe2361ab97ac0ac217840d7,"Mozilla/5.0 (iPhone; CPU iPhone OS 18_4_1 like Mac OS X) AppleWebKit/605.1.15 (KHTML, like Gecko) Version/18.4 Mobile/15E148 Safari/604.1",iPhone,Safari,18.4,iOS,18_4_1,https://5puzkbbxv1.cognition.run/?sona_id=53630,"en-US,en;q=0.9",thgcqjus4pel51w,20,"[""White""]",No,Female,NA,I'm not sure,NA,9341,NA,"{""product_choice"":""A""}",choice,ct,binary,repulsion,2,televisions,null,null,null,null,null,null,1,30,40,null,100,90,null,Screen size,Average lifespan,NA,NA
NA,NA,NA,NA,NA,post_trials_message,html-button-response,92,445384,0.0-5.0,207,1,2025-05-05T21:49:46Z,b60275e29fe2361ab97ac0ac217840d7,"Mozilla/5.0 (iPhone; CPU iPhone OS 18_4_1 like Mac OS X) AppleWebKit/605.1.15 (KHTML, like Gecko) Version/18.4 Mobile/15E148 Safari/604.1",iPhone,Safari,18.4,iOS,18_4_1,https://5puzkbbxv1.cognition.run/?sona_id=53630,"en-US,en;q=0.9",thgcqjus4pel51w,20,"[""White""]",No,Female,NA,I'm not sure,NA,1608,<p> <b>Thank you for your patience!</b></p><p>  The study will be done after completing a brief form. </p>,0,NA,NA,NA,NA,NA,NA,NA,NA,NA,NA,NA,NA,NA,NA,NA,NA,NA,NA,NA,NA,NA,NA,NA
NA,NA,NA,NA,NA,survey_message,survey-text,93,483027,0.0-6.0,207,1,2025-05-05T21:49:46Z,b60275e29fe2361ab97ac0ac217840d7,"Mozilla/5.0 (iPhone; CPU iPhone OS 18_4_1 like Mac OS X) AppleWebKit/605.1.15 (KHTML, like Gecko) Version/18.4 Mobile/15E148 Safari/604.1",iPhone,Safari,18.4,iOS,18_4_1,https://5puzkbbxv1.cognition.run/?sona_id=53630,"en-US,en;q=0.9",thgcqjus4pel51w,20,"[""White""]",No,Female,NA,I'm not sure,NA,37624,NA,"{""Q0"":""I thought what category was most important should be at a higher value of the time, but if its unreasonable, then I will do the best ratio.""}",NA,NA,NA,NA,NA,NA,NA,NA,NA,NA,NA,NA,NA,NA,NA,NA,NA,NA,NA,NA,NA,"I thought what category was most important should be at a higher value of the time, but if its unreasonable, then I will do the best ratio.",NA
NA,NA,NA,NA,NA,demo_age,survey-text,94,489029,0.0-7.0,207,1,2025-05-05T21:49:46Z,b60275e29fe2361ab97ac0ac217840d7,"Mozilla/5.0 (iPhone; CPU iPhone OS 18_4_1 like Mac OS X) AppleWebKit/605.1.15 (KHTML, like Gecko) Version/18.4 Mobile/15E148 Safari/604.1",iPhone,Safari,18.4,iOS,18_4_1,https://5puzkbbxv1.cognition.run/?sona_id=53630,"en-US,en;q=0.9",thgcqjus4pel51w,20,"[""White""]",No,Female,NA,I'm not sure,NA,5990,NA,"{""Q0"":"" 20""}",NA,NA,NA,NA,NA,NA,NA,NA,NA,NA,NA,NA,NA,NA,NA,NA,NA,NA,NA,NA,NA,NA,NA
NA,NA,NA,NA,NA,demo_race,survey-multi-select,95,492484,0.0-8.0,207,1,2025-05-05T21:49:46Z,b60275e29fe2361ab97ac0ac217840d7,"Mozilla/5.0 (iPhone; CPU iPhone OS 18_4_1 like Mac OS X) AppleWebKit/605.1.15 (KHTML, like Gecko) Version/18.4 Mobile/15E148 Safari/604.1",iPhone,Safari,18.4,iOS,18_4_1,https://5puzkbbxv1.cognition.run/?sona_id=53630,"en-US,en;q=0.9",thgcqjus4pel51w,20,"[""White""]",No,Female,NA,I'm not sure,NA,3446,NA,"{""Q0"":[""White""]}",NA,NA,NA,NA,NA,NA,NA,NA,NA,NA,NA,NA,NA,NA,NA,NA,NA,NA,NA,NA,NA,NA,[0]
NA,NA,NA,NA,NA,demo_ethnicity_gender,survey-multi-choice,96,498074,0.0-9.0,207,1,2025-05-05T21:49:46Z,b60275e29fe2361ab97ac0ac217840d7,"Mozilla/5.0 (iPhone; CPU iPhone OS 18_4_1 like Mac OS X) AppleWebKit/605.1.15 (KHTML, like Gecko) Version/18.4 Mobile/15E148 Safari/604.1",iPhone,Safari,18.4,iOS,18_4_1,https://5puzkbbxv1.cognition.run/?sona_id=53630,"en-US,en;q=0.9",thgcqjus4pel51w,20,"[""White""]",No,Female,NA,I'm not sure,NA,5582,NA,"{""Q0"":""No"",""Q1"":""Female""}",NA,NA,NA,NA,NA,NA,NA,NA,NA,NA,NA,NA,NA,NA,NA,NA,NA,NA,NA,NA,NA,NA,"[0,1]"
NA,NA,NA,NA,NA,demo_countries,survey-text,97,503961,0.0-10.0,207,1,2025-05-05T21:49:46Z,b60275e29fe2361ab97ac0ac217840d7,"Mozilla/5.0 (iPhone; CPU iPhone OS 18_4_1 like Mac OS X) AppleWebKit/605.1.15 (KHTML, like Gecko) Version/18.4 Mobile/15E148 Safari/604.1",iPhone,Safari,18.4,iOS,18_4_1,https://5puzkbbxv1.cognition.run/?sona_id=53630,"en-US,en;q=0.9",thgcqjus4pel51w,20,"[""White""]",No,Female,NA,I'm not sure,NA,5878,NA,"{""Q0"":""NA""}",NA,NA,NA,NA,NA,NA,NA,NA,NA,NA,NA,NA,NA,NA,NA,NA,NA,NA,NA,NA,NA,NA,NA
NA,NA,NA,NA,NA,demo_prev_study,survey-multi-choice,98,518940,0.0-11.0,207,1,2025-05-05T21:49:46Z,b60275e29fe2361ab97ac0ac217840d7,"Mozilla/5.0 (iPhone; CPU iPhone OS 18_4_1 like Mac OS X) AppleWebKit/605.1.15 (KHTML, like Gecko) Version/18.4 Mobile/15E148 Safari/604.1",iPhone,Safari,18.4,iOS,18_4_1,https://5puzkbbxv1.cognition.run/?sona_id=53630,"en-US,en;q=0.9",thgcqjus4pel51w,20,"[""White""]",No,Female,NA,I'm not sure,NA,14974,NA,"{""Q0"":""I'm not sure""}",NA,NA,NA,NA,NA,NA,NA,NA,NA,NA,NA,NA,NA,NA,NA,NA,NA,NA,NA,NA,NA,NA,[0]
