success,timeout,failed_images,failed_audio,failed_video,screen_id,trial_type,trial_index,time_elapsed,internal_node_id,run_id,condition,recorded_at,source_code_version,user_agent,device,browser,browser_version,platform,platform_version,referer,accept_language,ppt_id,age,race,ethnicity,gender,other_countries,prev_study,exp_duration,view_history,rt,stimulus,response,phase,order,set,effect,t_high,category,d1_best,d2_best,d1_worst1,d2_worst1,d1_worst2,d2_worst2,first_dim,d1_t,d1_c,d1_d,d2_t,d2_c,d2_d,d1_name,d2_name,strategy_response,question_order
TRUE,FALSE,[],[],[],img preload,preload,0,1073,0.0-0.0,209,1,2025-05-05T22:00:38Z,b60275e29fe2361ab97ac0ac217840d7,"Mozilla/5.0 (X11; CrOS x86_64 14541.0.0) AppleWebKit/537.36 (KHTML, like Gecko) Chrome/126.0.0.0 Safari/537.36",WebKit,Chrome,126.0.0.0,ChromeOS,14541.0.0,https://5puzkbbxv1.cognition.run/?sona_id=58068,"en-US,en;q=0.9",dbbxxvvj4t0v10g,19,"[""Prefer not to say""]",No,Female,NA,No,812548.1000000015,NA,NA,NA,NA,NA,NA,NA,NA,NA,NA,NA,NA,NA,NA,NA,NA,NA,NA,NA,NA,NA,NA,NA,NA,NA,NA,NA
NA,NA,NA,NA,NA,computer_message,instructions,1,7839,0.0-1.0,209,1,2025-05-05T22:00:38Z,b60275e29fe2361ab97ac0ac217840d7,"Mozilla/5.0 (X11; CrOS x86_64 14541.0.0) AppleWebKit/537.36 (KHTML, like Gecko) Chrome/126.0.0.0 Safari/537.36",WebKit,Chrome,126.0.0.0,ChromeOS,14541.0.0,https://5puzkbbxv1.cognition.run/?sona_id=58068,"en-US,en;q=0.9",dbbxxvvj4t0v10g,19,"[""Prefer not to say""]",No,Female,NA,No,812548.1000000015,"[{""page_index"":0,""viewing_time"":6761}]",6762,NA,NA,NA,NA,NA,NA,NA,NA,NA,NA,NA,NA,NA,NA,NA,NA,NA,NA,NA,NA,NA,NA,NA,NA,NA
TRUE,NA,NA,NA,NA,NA,fullscreen,2,334732,0.0-2.0,209,1,2025-05-05T22:00:38Z,b60275e29fe2361ab97ac0ac217840d7,"Mozilla/5.0 (X11; CrOS x86_64 14541.0.0) AppleWebKit/537.36 (KHTML, like Gecko) Chrome/126.0.0.0 Safari/537.36",WebKit,Chrome,126.0.0.0,ChromeOS,14541.0.0,https://5puzkbbxv1.cognition.run/?sona_id=58068,"en-US,en;q=0.9",dbbxxvvj4t0v10g,19,"[""Prefer not to say""]",No,Female,NA,No,812548.1000000015,NA,325887,NA,NA,NA,NA,NA,NA,NA,NA,NA,NA,NA,NA,NA,NA,NA,NA,NA,NA,NA,NA,NA,NA,NA,NA,NA
NA,NA,NA,NA,NA,choice_instructions,instructions,3,387253,0.0-3.0,209,1,2025-05-05T22:00:38Z,b60275e29fe2361ab97ac0ac217840d7,"Mozilla/5.0 (X11; CrOS x86_64 14541.0.0) AppleWebKit/537.36 (KHTML, like Gecko) Chrome/126.0.0.0 Safari/537.36",WebKit,Chrome,126.0.0.0,ChromeOS,14541.0.0,https://5puzkbbxv1.cognition.run/?sona_id=58068,"en-US,en;q=0.9",dbbxxvvj4t0v10g,19,"[""Prefer not to say""]",No,Female,NA,No,812548.1000000015,"[{""page_index"":0,""viewing_time"":2239},{""page_index"":1,""viewing_time"":7466},{""page_index"":2,""viewing_time"":6664},{""page_index"":3,""viewing_time"":11362},{""page_index"":4,""viewing_time"":4177},{""page_index"":5,""viewing_time"":8624},{""page_index"":6,""viewing_time"":11982}]",52515,NA,NA,NA,NA,NA,NA,NA,NA,NA,NA,NA,NA,NA,NA,NA,NA,NA,NA,NA,NA,NA,NA,NA,NA,NA
NA,NA,NA,NA,NA,choice_trial_setup,html-keyboard-response,4,387562,0.0-4.0-0.0,209,1,2025-05-05T22:00:38Z,b60275e29fe2361ab97ac0ac217840d7,"Mozilla/5.0 (X11; CrOS x86_64 14541.0.0) AppleWebKit/537.36 (KHTML, like Gecko) Chrome/126.0.0.0 Safari/537.36",WebKit,Chrome,126.0.0.0,ChromeOS,14541.0.0,https://5puzkbbxv1.cognition.run/?sona_id=58068,"en-US,en;q=0.9",dbbxxvvj4t0v10g,19,"[""Prefer not to say""]",No,Female,NA,No,812548.1000000015,NA,null,<p></p>,null,choice,ct,binary,attraction,NA,laptops,null,null,null,null,null,null,1,NA,NA,NA,NA,NA,NA,NA,NA,NA,NA
NA,NA,NA,NA,NA,choice_trial,survey-html-form,5,407161,0.0-4.0-1.0,209,1,2025-05-05T22:00:38Z,b60275e29fe2361ab97ac0ac217840d7,"Mozilla/5.0 (X11; CrOS x86_64 14541.0.0) AppleWebKit/537.36 (KHTML, like Gecko) Chrome/126.0.0.0 Safari/537.36",WebKit,Chrome,126.0.0.0,ChromeOS,14541.0.0,https://5puzkbbxv1.cognition.run/?sona_id=58068,"en-US,en;q=0.9",dbbxxvvj4t0v10g,19,"[""Prefer not to say""]",No,Female,NA,No,812548.1000000015,NA,19583,NA,"{""product_choice"":""B""}",choice,ct,binary,attraction,NA,laptops,null,null,null,null,null,null,1,60,50,null,50,60,null,Processing speed,Memory (RAM),NA,NA
NA,NA,NA,NA,NA,choice_trial_setup,html-keyboard-response,6,407468,0.0-4.0-0.1,209,1,2025-05-05T22:00:38Z,b60275e29fe2361ab97ac0ac217840d7,"Mozilla/5.0 (X11; CrOS x86_64 14541.0.0) AppleWebKit/537.36 (KHTML, like Gecko) Chrome/126.0.0.0 Safari/537.36",WebKit,Chrome,126.0.0.0,ChromeOS,14541.0.0,https://5puzkbbxv1.cognition.run/?sona_id=58068,"en-US,en;q=0.9",dbbxxvvj4t0v10g,19,"[""Prefer not to say""]",No,Female,NA,No,812548.1000000015,NA,null,<p></p>,null,choice,wbw,trinary,catch,null,televisions,95,95,20,25,35,45,2,NA,NA,NA,NA,NA,NA,NA,NA,NA,NA
NA,NA,NA,NA,NA,choice_trial,survey-html-form,7,418228,0.0-4.0-1.1,209,1,2025-05-05T22:00:38Z,b60275e29fe2361ab97ac0ac217840d7,"Mozilla/5.0 (X11; CrOS x86_64 14541.0.0) AppleWebKit/537.36 (KHTML, like Gecko) Chrome/126.0.0.0 Safari/537.36",WebKit,Chrome,126.0.0.0,ChromeOS,14541.0.0,https://5puzkbbxv1.cognition.run/?sona_id=58068,"en-US,en;q=0.9",dbbxxvvj4t0v10g,19,"[""Prefer not to say""]",No,Female,NA,No,812548.1000000015,NA,10750,NA,"{""product_choice"":""B""}",choice,wbw,trinary,catch,null,televisions,95,95,20,25,35,45,2,null,null,null,null,null,null,Screen size,Average lifespan,NA,NA
NA,NA,NA,NA,NA,choice_trial_setup,html-keyboard-response,8,418533,0.0-4.0-0.2,209,1,2025-05-05T22:00:38Z,b60275e29fe2361ab97ac0ac217840d7,"Mozilla/5.0 (X11; CrOS x86_64 14541.0.0) AppleWebKit/537.36 (KHTML, like Gecko) Chrome/126.0.0.0 Safari/537.36",WebKit,Chrome,126.0.0.0,ChromeOS,14541.0.0,https://5puzkbbxv1.cognition.run/?sona_id=58068,"en-US,en;q=0.9",dbbxxvvj4t0v10g,19,"[""Prefer not to say""]",No,Female,NA,No,812548.1000000015,NA,null,<p></p>,null,choice,ctd,trinary,attraction,1,televisions,null,null,null,null,null,null,2,NA,NA,NA,NA,NA,NA,NA,NA,NA,NA
NA,NA,NA,NA,NA,choice_trial,survey-html-form,9,431480,0.0-4.0-1.2,209,1,2025-05-05T22:00:38Z,b60275e29fe2361ab97ac0ac217840d7,"Mozilla/5.0 (X11; CrOS x86_64 14541.0.0) AppleWebKit/537.36 (KHTML, like Gecko) Chrome/126.0.0.0 Safari/537.36",WebKit,Chrome,126.0.0.0,ChromeOS,14541.0.0,https://5puzkbbxv1.cognition.run/?sona_id=58068,"en-US,en;q=0.9",dbbxxvvj4t0v10g,19,"[""Prefer not to say""]",No,Female,NA,No,812548.1000000015,NA,12939,NA,"{""product_choice"":""A""}",choice,ctd,trinary,attraction,1,televisions,null,null,null,null,null,null,2,60,50,60,50,60,40,Screen size,Average lifespan,NA,NA
NA,NA,NA,NA,NA,choice_trial_setup,html-keyboard-response,10,431786,0.0-4.0-0.3,209,1,2025-05-05T22:00:38Z,b60275e29fe2361ab97ac0ac217840d7,"Mozilla/5.0 (X11; CrOS x86_64 14541.0.0) AppleWebKit/537.36 (KHTML, like Gecko) Chrome/126.0.0.0 Safari/537.36",WebKit,Chrome,126.0.0.0,ChromeOS,14541.0.0,https://5puzkbbxv1.cognition.run/?sona_id=58068,"en-US,en;q=0.9",dbbxxvvj4t0v10g,19,"[""Prefer not to say""]",No,Female,NA,No,812548.1000000015,NA,null,<p></p>,null,choice,wb,binary,catch,null,televisions,70,90,5,35,null,null,2,NA,NA,NA,NA,NA,NA,NA,NA,NA,NA
NA,NA,NA,NA,NA,choice_trial,survey-html-form,11,439345,0.0-4.0-1.3,209,1,2025-05-05T22:00:38Z,b60275e29fe2361ab97ac0ac217840d7,"Mozilla/5.0 (X11; CrOS x86_64 14541.0.0) AppleWebKit/537.36 (KHTML, like Gecko) Chrome/126.0.0.0 Safari/537.36",WebKit,Chrome,126.0.0.0,ChromeOS,14541.0.0,https://5puzkbbxv1.cognition.run/?sona_id=58068,"en-US,en;q=0.9",dbbxxvvj4t0v10g,19,"[""Prefer not to say""]",No,Female,NA,No,812548.1000000015,NA,7547,NA,"{""product_choice"":""B""}",choice,wb,binary,catch,null,televisions,70,90,5,35,null,null,2,null,null,null,null,null,null,Screen size,Average lifespan,NA,NA
NA,NA,NA,NA,NA,choice_trial_setup,html-keyboard-response,12,439651,0.0-4.0-0.4,209,1,2025-05-05T22:00:38Z,b60275e29fe2361ab97ac0ac217840d7,"Mozilla/5.0 (X11; CrOS x86_64 14541.0.0) AppleWebKit/537.36 (KHTML, like Gecko) Chrome/126.0.0.0 Safari/537.36",WebKit,Chrome,126.0.0.0,ChromeOS,14541.0.0,https://5puzkbbxv1.cognition.run/?sona_id=58068,"en-US,en;q=0.9",dbbxxvvj4t0v10g,19,"[""Prefer not to say""]",No,Female,NA,No,812548.1000000015,NA,null,<p></p>,null,choice,wbw,trinary,catch,null,laptops,80,70,15,10,30,50,1,NA,NA,NA,NA,NA,NA,NA,NA,NA,NA
NA,NA,NA,NA,NA,choice_trial,survey-html-form,13,445616,0.0-4.0-1.4,209,1,2025-05-05T22:00:38Z,b60275e29fe2361ab97ac0ac217840d7,"Mozilla/5.0 (X11; CrOS x86_64 14541.0.0) AppleWebKit/537.36 (KHTML, like Gecko) Chrome/126.0.0.0 Safari/537.36",WebKit,Chrome,126.0.0.0,ChromeOS,14541.0.0,https://5puzkbbxv1.cognition.run/?sona_id=58068,"en-US,en;q=0.9",dbbxxvvj4t0v10g,19,"[""Prefer not to say""]",No,Female,NA,No,812548.1000000015,NA,5952,NA,"{""product_choice"":""B""}",choice,wbw,trinary,catch,null,laptops,80,70,15,10,30,50,1,null,null,null,null,null,null,Processing speed,Memory (RAM),NA,NA
NA,NA,NA,NA,NA,choice_trial_setup,html-keyboard-response,14,445920,0.0-4.0-0.5,209,1,2025-05-05T22:00:38Z,b60275e29fe2361ab97ac0ac217840d7,"Mozilla/5.0 (X11; CrOS x86_64 14541.0.0) AppleWebKit/537.36 (KHTML, like Gecko) Chrome/126.0.0.0 Safari/537.36",WebKit,Chrome,126.0.0.0,ChromeOS,14541.0.0,https://5puzkbbxv1.cognition.run/?sona_id=58068,"en-US,en;q=0.9",dbbxxvvj4t0v10g,19,"[""Prefer not to say""]",No,Female,NA,No,812548.1000000015,NA,null,<p></p>,null,choice,wb,binary,catch,null,washing machines,95,65,15,30,null,null,1,NA,NA,NA,NA,NA,NA,NA,NA,NA,NA
NA,NA,NA,NA,NA,choice_trial,survey-html-form,15,451273,0.0-4.0-1.5,209,1,2025-05-05T22:00:38Z,b60275e29fe2361ab97ac0ac217840d7,"Mozilla/5.0 (X11; CrOS x86_64 14541.0.0) AppleWebKit/537.36 (KHTML, like Gecko) Chrome/126.0.0.0 Safari/537.36",WebKit,Chrome,126.0.0.0,ChromeOS,14541.0.0,https://5puzkbbxv1.cognition.run/?sona_id=58068,"en-US,en;q=0.9",dbbxxvvj4t0v10g,19,"[""Prefer not to say""]",No,Female,NA,No,812548.1000000015,NA,5345,NA,"{""product_choice"":""B""}",choice,wb,binary,catch,null,washing machines,95,65,15,30,null,null,1,null,null,null,null,null,null,Average lifespan,Energy savings,NA,NA
NA,NA,NA,NA,NA,choice_trial_setup,html-keyboard-response,16,451577,0.0-4.0-0.6,209,1,2025-05-05T22:00:38Z,b60275e29fe2361ab97ac0ac217840d7,"Mozilla/5.0 (X11; CrOS x86_64 14541.0.0) AppleWebKit/537.36 (KHTML, like Gecko) Chrome/126.0.0.0 Safari/537.36",WebKit,Chrome,126.0.0.0,ChromeOS,14541.0.0,https://5puzkbbxv1.cognition.run/?sona_id=58068,"en-US,en;q=0.9",dbbxxvvj4t0v10g,19,"[""Prefer not to say""]",No,Female,NA,No,812548.1000000015,NA,null,<p></p>,null,choice,tdc,trinary,attraction,1,laptops,null,null,null,null,null,null,1,NA,NA,NA,NA,NA,NA,NA,NA,NA,NA
NA,NA,NA,NA,NA,choice_trial,survey-html-form,17,466071,0.0-4.0-1.6,209,1,2025-05-05T22:00:38Z,b60275e29fe2361ab97ac0ac217840d7,"Mozilla/5.0 (X11; CrOS x86_64 14541.0.0) AppleWebKit/537.36 (KHTML, like Gecko) Chrome/126.0.0.0 Safari/537.36",WebKit,Chrome,126.0.0.0,ChromeOS,14541.0.0,https://5puzkbbxv1.cognition.run/?sona_id=58068,"en-US,en;q=0.9",dbbxxvvj4t0v10g,19,"[""Prefer not to say""]",No,Female,NA,No,812548.1000000015,NA,14483,NA,"{""product_choice"":""A""}",choice,tdc,trinary,attraction,1,laptops,null,null,null,null,null,null,1,60,50,60,50,60,40,Processing speed,Memory (RAM),NA,NA
NA,NA,NA,NA,NA,choice_trial_setup,html-keyboard-response,18,466379,0.0-4.0-0.7,209,1,2025-05-05T22:00:38Z,b60275e29fe2361ab97ac0ac217840d7,"Mozilla/5.0 (X11; CrOS x86_64 14541.0.0) AppleWebKit/537.36 (KHTML, like Gecko) Chrome/126.0.0.0 Safari/537.36",WebKit,Chrome,126.0.0.0,ChromeOS,14541.0.0,https://5puzkbbxv1.cognition.run/?sona_id=58068,"en-US,en;q=0.9",dbbxxvvj4t0v10g,19,"[""Prefer not to say""]",No,Female,NA,No,812548.1000000015,NA,null,<p></p>,null,choice,tc,binary,repulsion,1,washing machines,null,null,null,null,null,null,2,NA,NA,NA,NA,NA,NA,NA,NA,NA,NA
NA,NA,NA,NA,NA,choice_trial,survey-html-form,19,478143,0.0-4.0-1.7,209,1,2025-05-05T22:00:38Z,b60275e29fe2361ab97ac0ac217840d7,"Mozilla/5.0 (X11; CrOS x86_64 14541.0.0) AppleWebKit/537.36 (KHTML, like Gecko) Chrome/126.0.0.0 Safari/537.36",WebKit,Chrome,126.0.0.0,ChromeOS,14541.0.0,https://5puzkbbxv1.cognition.run/?sona_id=58068,"en-US,en;q=0.9",dbbxxvvj4t0v10g,19,"[""Prefer not to say""]",No,Female,NA,No,812548.1000000015,NA,11759,NA,"{""product_choice"":""B""}",choice,tc,binary,repulsion,1,washing machines,null,null,null,null,null,null,2,100,90,null,30,40,null,Average lifespan,Energy savings,NA,NA
NA,NA,NA,NA,NA,choice_trial_setup,html-keyboard-response,20,478449,0.0-4.0-0.8,209,1,2025-05-05T22:00:38Z,b60275e29fe2361ab97ac0ac217840d7,"Mozilla/5.0 (X11; CrOS x86_64 14541.0.0) AppleWebKit/537.36 (KHTML, like Gecko) Chrome/126.0.0.0 Safari/537.36",WebKit,Chrome,126.0.0.0,ChromeOS,14541.0.0,https://5puzkbbxv1.cognition.run/?sona_id=58068,"en-US,en;q=0.9",dbbxxvvj4t0v10g,19,"[""Prefer not to say""]",No,Female,NA,No,812548.1000000015,NA,null,<p></p>,null,choice,ct,binary,attraction,NA,televisions,null,null,null,null,null,null,2,NA,NA,NA,NA,NA,NA,NA,NA,NA,NA
NA,NA,NA,NA,NA,choice_trial,survey-html-form,21,487297,0.0-4.0-1.8,209,1,2025-05-05T22:00:38Z,b60275e29fe2361ab97ac0ac217840d7,"Mozilla/5.0 (X11; CrOS x86_64 14541.0.0) AppleWebKit/537.36 (KHTML, like Gecko) Chrome/126.0.0.0 Safari/537.36",WebKit,Chrome,126.0.0.0,ChromeOS,14541.0.0,https://5puzkbbxv1.cognition.run/?sona_id=58068,"en-US,en;q=0.9",dbbxxvvj4t0v10g,19,"[""Prefer not to say""]",No,Female,NA,No,812548.1000000015,NA,8839,NA,"{""product_choice"":""A""}",choice,ct,binary,attraction,NA,televisions,null,null,null,null,null,null,2,60,50,null,50,60,null,Screen size,Average lifespan,NA,NA
NA,NA,NA,NA,NA,choice_trial_setup,html-keyboard-response,22,487606,0.0-4.0-0.9,209,1,2025-05-05T22:00:38Z,b60275e29fe2361ab97ac0ac217840d7,"Mozilla/5.0 (X11; CrOS x86_64 14541.0.0) AppleWebKit/537.36 (KHTML, like Gecko) Chrome/126.0.0.0 Safari/537.36",WebKit,Chrome,126.0.0.0,ChromeOS,14541.0.0,https://5puzkbbxv1.cognition.run/?sona_id=58068,"en-US,en;q=0.9",dbbxxvvj4t0v10g,19,"[""Prefer not to say""]",No,Female,NA,No,812548.1000000015,NA,null,<p></p>,null,choice,ctd,trinary,attraction,1,washing machines,null,null,null,null,null,null,2,NA,NA,NA,NA,NA,NA,NA,NA,NA,NA
NA,NA,NA,NA,NA,choice_trial,survey-html-form,23,498490,0.0-4.0-1.9,209,1,2025-05-05T22:00:38Z,b60275e29fe2361ab97ac0ac217840d7,"Mozilla/5.0 (X11; CrOS x86_64 14541.0.0) AppleWebKit/537.36 (KHTML, like Gecko) Chrome/126.0.0.0 Safari/537.36",WebKit,Chrome,126.0.0.0,ChromeOS,14541.0.0,https://5puzkbbxv1.cognition.run/?sona_id=58068,"en-US,en;q=0.9",dbbxxvvj4t0v10g,19,"[""Prefer not to say""]",No,Female,NA,No,812548.1000000015,NA,10877,NA,"{""product_choice"":""B""}",choice,ctd,trinary,attraction,1,washing machines,null,null,null,null,null,null,2,60,50,60,50,60,40,Average lifespan,Energy savings,NA,NA
NA,NA,NA,NA,NA,choice_trial_setup,html-keyboard-response,24,498797,0.0-4.0-0.10,209,1,2025-05-05T22:00:38Z,b60275e29fe2361ab97ac0ac217840d7,"Mozilla/5.0 (X11; CrOS x86_64 14541.0.0) AppleWebKit/537.36 (KHTML, like Gecko) Chrome/126.0.0.0 Safari/537.36",WebKit,Chrome,126.0.0.0,ChromeOS,14541.0.0,https://5puzkbbxv1.cognition.run/?sona_id=58068,"en-US,en;q=0.9",dbbxxvvj4t0v10g,19,"[""Prefer not to say""]",No,Female,NA,No,812548.1000000015,NA,null,<p></p>,null,choice,tcd,trinary,repulsion_B,1,televisions,null,null,null,null,null,null,2,NA,NA,NA,NA,NA,NA,NA,NA,NA,NA
NA,NA,NA,NA,NA,choice_trial,survey-html-form,25,510241,0.0-4.0-1.10,209,1,2025-05-05T22:00:38Z,b60275e29fe2361ab97ac0ac217840d7,"Mozilla/5.0 (X11; CrOS x86_64 14541.0.0) AppleWebKit/537.36 (KHTML, like Gecko) Chrome/126.0.0.0 Safari/537.36",WebKit,Chrome,126.0.0.0,ChromeOS,14541.0.0,https://5puzkbbxv1.cognition.run/?sona_id=58068,"en-US,en;q=0.9",dbbxxvvj4t0v10g,19,"[""Prefer not to say""]",No,Female,NA,No,812548.1000000015,NA,11438,NA,"{""product_choice"":""A""}",choice,tcd,trinary,repulsion_B,1,televisions,null,null,null,null,null,null,2,90,100,80,40,30,40,Screen size,Average lifespan,NA,NA
NA,NA,NA,NA,NA,choice_trial_setup,html-keyboard-response,26,510548,0.0-4.0-0.11,209,1,2025-05-05T22:00:38Z,b60275e29fe2361ab97ac0ac217840d7,"Mozilla/5.0 (X11; CrOS x86_64 14541.0.0) AppleWebKit/537.36 (KHTML, like Gecko) Chrome/126.0.0.0 Safari/537.36",WebKit,Chrome,126.0.0.0,ChromeOS,14541.0.0,https://5puzkbbxv1.cognition.run/?sona_id=58068,"en-US,en;q=0.9",dbbxxvvj4t0v10g,19,"[""Prefer not to say""]",No,Female,NA,No,812548.1000000015,NA,null,<p></p>,null,choice,dtc,trinary,repulsion_B,1,microwave ovens,null,null,null,null,null,null,2,NA,NA,NA,NA,NA,NA,NA,NA,NA,NA
NA,NA,NA,NA,NA,choice_trial,survey-html-form,27,520509,0.0-4.0-1.11,209,1,2025-05-05T22:00:38Z,b60275e29fe2361ab97ac0ac217840d7,"Mozilla/5.0 (X11; CrOS x86_64 14541.0.0) AppleWebKit/537.36 (KHTML, like Gecko) Chrome/126.0.0.0 Safari/537.36",WebKit,Chrome,126.0.0.0,ChromeOS,14541.0.0,https://5puzkbbxv1.cognition.run/?sona_id=58068,"en-US,en;q=0.9",dbbxxvvj4t0v10g,19,"[""Prefer not to say""]",No,Female,NA,No,812548.1000000015,NA,9950,NA,"{""product_choice"":""B""}",choice,dtc,trinary,repulsion_B,1,microwave ovens,null,null,null,null,null,null,2,90,100,80,40,30,40,Warranty,Cooking power,NA,NA
NA,NA,NA,NA,NA,choice_trial_setup,html-keyboard-response,28,520813,0.0-4.0-0.12,209,1,2025-05-05T22:00:38Z,b60275e29fe2361ab97ac0ac217840d7,"Mozilla/5.0 (X11; CrOS x86_64 14541.0.0) AppleWebKit/537.36 (KHTML, like Gecko) Chrome/126.0.0.0 Safari/537.36",WebKit,Chrome,126.0.0.0,ChromeOS,14541.0.0,https://5puzkbbxv1.cognition.run/?sona_id=58068,"en-US,en;q=0.9",dbbxxvvj4t0v10g,19,"[""Prefer not to say""]",No,Female,NA,No,812548.1000000015,NA,null,<p></p>,null,choice,dct,trinary,repulsion_A,1,washing machines,null,null,null,null,null,null,1,NA,NA,NA,NA,NA,NA,NA,NA,NA,NA
NA,NA,NA,NA,NA,choice_trial,survey-html-form,29,532065,0.0-4.0-1.12,209,1,2025-05-05T22:00:38Z,b60275e29fe2361ab97ac0ac217840d7,"Mozilla/5.0 (X11; CrOS x86_64 14541.0.0) AppleWebKit/537.36 (KHTML, like Gecko) Chrome/126.0.0.0 Safari/537.36",WebKit,Chrome,126.0.0.0,ChromeOS,14541.0.0,https://5puzkbbxv1.cognition.run/?sona_id=58068,"en-US,en;q=0.9",dbbxxvvj4t0v10g,19,"[""Prefer not to say""]",No,Female,NA,No,812548.1000000015,NA,11240,NA,"{""product_choice"":""C""}",choice,dct,trinary,repulsion_A,1,washing machines,null,null,null,null,null,null,1,100,90,100,30,40,20,Average lifespan,Energy savings,NA,NA
NA,NA,NA,NA,NA,choice_trial_setup,html-keyboard-response,30,532373,0.0-4.0-0.13,209,1,2025-05-05T22:00:38Z,b60275e29fe2361ab97ac0ac217840d7,"Mozilla/5.0 (X11; CrOS x86_64 14541.0.0) AppleWebKit/537.36 (KHTML, like Gecko) Chrome/126.0.0.0 Safari/537.36",WebKit,Chrome,126.0.0.0,ChromeOS,14541.0.0,https://5puzkbbxv1.cognition.run/?sona_id=58068,"en-US,en;q=0.9",dbbxxvvj4t0v10g,19,"[""Prefer not to say""]",No,Female,NA,No,812548.1000000015,NA,null,<p></p>,null,choice,ct,binary,repulsion,2,laptops,null,null,null,null,null,null,2,NA,NA,NA,NA,NA,NA,NA,NA,NA,NA
NA,NA,NA,NA,NA,choice_trial,survey-html-form,31,540461,0.0-4.0-1.13,209,1,2025-05-05T22:00:38Z,b60275e29fe2361ab97ac0ac217840d7,"Mozilla/5.0 (X11; CrOS x86_64 14541.0.0) AppleWebKit/537.36 (KHTML, like Gecko) Chrome/126.0.0.0 Safari/537.36",WebKit,Chrome,126.0.0.0,ChromeOS,14541.0.0,https://5puzkbbxv1.cognition.run/?sona_id=58068,"en-US,en;q=0.9",dbbxxvvj4t0v10g,19,"[""Prefer not to say""]",No,Female,NA,No,812548.1000000015,NA,8079,NA,"{""product_choice"":""A""}",choice,ct,binary,repulsion,2,laptops,null,null,null,null,null,null,2,30,40,null,100,90,null,Processing speed,Memory (RAM),NA,NA
NA,NA,NA,NA,NA,choice_trial_setup,html-keyboard-response,32,540767,0.0-4.0-0.14,209,1,2025-05-05T22:00:38Z,b60275e29fe2361ab97ac0ac217840d7,"Mozilla/5.0 (X11; CrOS x86_64 14541.0.0) AppleWebKit/537.36 (KHTML, like Gecko) Chrome/126.0.0.0 Safari/537.36",WebKit,Chrome,126.0.0.0,ChromeOS,14541.0.0,https://5puzkbbxv1.cognition.run/?sona_id=58068,"en-US,en;q=0.9",dbbxxvvj4t0v10g,19,"[""Prefer not to say""]",No,Female,NA,No,812548.1000000015,NA,null,<p></p>,null,choice,dct,trinary,repulsion_A,1,televisions,null,null,null,null,null,null,2,NA,NA,NA,NA,NA,NA,NA,NA,NA,NA
NA,NA,NA,NA,NA,choice_trial,survey-html-form,33,546294,0.0-4.0-1.14,209,1,2025-05-05T22:00:38Z,b60275e29fe2361ab97ac0ac217840d7,"Mozilla/5.0 (X11; CrOS x86_64 14541.0.0) AppleWebKit/537.36 (KHTML, like Gecko) Chrome/126.0.0.0 Safari/537.36",WebKit,Chrome,126.0.0.0,ChromeOS,14541.0.0,https://5puzkbbxv1.cognition.run/?sona_id=58068,"en-US,en;q=0.9",dbbxxvvj4t0v10g,19,"[""Prefer not to say""]",No,Female,NA,No,812548.1000000015,NA,5515,NA,"{""product_choice"":""B""}",choice,dct,trinary,repulsion_A,1,televisions,null,null,null,null,null,null,2,100,90,100,30,40,20,Screen size,Average lifespan,NA,NA
NA,NA,NA,NA,NA,choice_trial_setup,html-keyboard-response,34,546601,0.0-4.0-0.15,209,1,2025-05-05T22:00:38Z,b60275e29fe2361ab97ac0ac217840d7,"Mozilla/5.0 (X11; CrOS x86_64 14541.0.0) AppleWebKit/537.36 (KHTML, like Gecko) Chrome/126.0.0.0 Safari/537.36",WebKit,Chrome,126.0.0.0,ChromeOS,14541.0.0,https://5puzkbbxv1.cognition.run/?sona_id=58068,"en-US,en;q=0.9",dbbxxvvj4t0v10g,19,"[""Prefer not to say""]",No,Female,NA,No,812548.1000000015,NA,null,<p></p>,null,choice,tdc,trinary,attraction,1,microwave ovens,null,null,null,null,null,null,1,NA,NA,NA,NA,NA,NA,NA,NA,NA,NA
NA,NA,NA,NA,NA,choice_trial,survey-html-form,35,555968,0.0-4.0-1.15,209,1,2025-05-05T22:00:38Z,b60275e29fe2361ab97ac0ac217840d7,"Mozilla/5.0 (X11; CrOS x86_64 14541.0.0) AppleWebKit/537.36 (KHTML, like Gecko) Chrome/126.0.0.0 Safari/537.36",WebKit,Chrome,126.0.0.0,ChromeOS,14541.0.0,https://5puzkbbxv1.cognition.run/?sona_id=58068,"en-US,en;q=0.9",dbbxxvvj4t0v10g,19,"[""Prefer not to say""]",No,Female,NA,No,812548.1000000015,NA,9356,NA,"{""product_choice"":""A""}",choice,tdc,trinary,attraction,1,microwave ovens,null,null,null,null,null,null,1,60,50,60,50,60,40,Warranty,Cooking power,NA,NA
NA,NA,NA,NA,NA,choice_trial_setup,html-keyboard-response,36,556276,0.0-4.0-0.16,209,1,2025-05-05T22:00:38Z,b60275e29fe2361ab97ac0ac217840d7,"Mozilla/5.0 (X11; CrOS x86_64 14541.0.0) AppleWebKit/537.36 (KHTML, like Gecko) Chrome/126.0.0.0 Safari/537.36",WebKit,Chrome,126.0.0.0,ChromeOS,14541.0.0,https://5puzkbbxv1.cognition.run/?sona_id=58068,"en-US,en;q=0.9",dbbxxvvj4t0v10g,19,"[""Prefer not to say""]",No,Female,NA,No,812548.1000000015,NA,null,<p></p>,null,choice,wwb,trinary,catch,null,washing machines,75,60,25,40,20,50,1,NA,NA,NA,NA,NA,NA,NA,NA,NA,NA
NA,NA,NA,NA,NA,choice_trial,survey-html-form,37,561922,0.0-4.0-1.16,209,1,2025-05-05T22:00:38Z,b60275e29fe2361ab97ac0ac217840d7,"Mozilla/5.0 (X11; CrOS x86_64 14541.0.0) AppleWebKit/537.36 (KHTML, like Gecko) Chrome/126.0.0.0 Safari/537.36",WebKit,Chrome,126.0.0.0,ChromeOS,14541.0.0,https://5puzkbbxv1.cognition.run/?sona_id=58068,"en-US,en;q=0.9",dbbxxvvj4t0v10g,19,"[""Prefer not to say""]",No,Female,NA,No,812548.1000000015,NA,5635,NA,"{""product_choice"":""C""}",choice,wwb,trinary,catch,null,washing machines,75,60,25,40,20,50,1,null,null,null,null,null,null,Average lifespan,Energy savings,NA,NA
NA,NA,NA,NA,NA,choice_trial_setup,html-keyboard-response,38,562229,0.0-4.0-0.17,209,1,2025-05-05T22:00:38Z,b60275e29fe2361ab97ac0ac217840d7,"Mozilla/5.0 (X11; CrOS x86_64 14541.0.0) AppleWebKit/537.36 (KHTML, like Gecko) Chrome/126.0.0.0 Safari/537.36",WebKit,Chrome,126.0.0.0,ChromeOS,14541.0.0,https://5puzkbbxv1.cognition.run/?sona_id=58068,"en-US,en;q=0.9",dbbxxvvj4t0v10g,19,"[""Prefer not to say""]",No,Female,NA,No,812548.1000000015,NA,null,<p></p>,null,choice,ct,binary,repulsion,2,televisions,null,null,null,null,null,null,1,NA,NA,NA,NA,NA,NA,NA,NA,NA,NA
NA,NA,NA,NA,NA,choice_trial,survey-html-form,39,568247,0.0-4.0-1.17,209,1,2025-05-05T22:00:38Z,b60275e29fe2361ab97ac0ac217840d7,"Mozilla/5.0 (X11; CrOS x86_64 14541.0.0) AppleWebKit/537.36 (KHTML, like Gecko) Chrome/126.0.0.0 Safari/537.36",WebKit,Chrome,126.0.0.0,ChromeOS,14541.0.0,https://5puzkbbxv1.cognition.run/?sona_id=58068,"en-US,en;q=0.9",dbbxxvvj4t0v10g,19,"[""Prefer not to say""]",No,Female,NA,No,812548.1000000015,NA,6007,NA,"{""product_choice"":""A""}",choice,ct,binary,repulsion,2,televisions,null,null,null,null,null,null,1,30,40,null,100,90,null,Screen size,Average lifespan,NA,NA
NA,NA,NA,NA,NA,choice_trial_setup,html-keyboard-response,40,568553,0.0-4.0-0.18,209,1,2025-05-05T22:00:38Z,b60275e29fe2361ab97ac0ac217840d7,"Mozilla/5.0 (X11; CrOS x86_64 14541.0.0) AppleWebKit/537.36 (KHTML, like Gecko) Chrome/126.0.0.0 Safari/537.36",WebKit,Chrome,126.0.0.0,ChromeOS,14541.0.0,https://5puzkbbxv1.cognition.run/?sona_id=58068,"en-US,en;q=0.9",dbbxxvvj4t0v10g,19,"[""Prefer not to say""]",No,Female,NA,No,812548.1000000015,NA,null,<p></p>,null,choice,ct,binary,repulsion,1,microwave ovens,null,null,null,null,null,null,1,NA,NA,NA,NA,NA,NA,NA,NA,NA,NA
NA,NA,NA,NA,NA,choice_trial,survey-html-form,41,581148,0.0-4.0-1.18,209,1,2025-05-05T22:00:38Z,b60275e29fe2361ab97ac0ac217840d7,"Mozilla/5.0 (X11; CrOS x86_64 14541.0.0) AppleWebKit/537.36 (KHTML, like Gecko) Chrome/126.0.0.0 Safari/537.36",WebKit,Chrome,126.0.0.0,ChromeOS,14541.0.0,https://5puzkbbxv1.cognition.run/?sona_id=58068,"en-US,en;q=0.9",dbbxxvvj4t0v10g,19,"[""Prefer not to say""]",No,Female,NA,No,812548.1000000015,NA,12582,NA,"{""product_choice"":""A""}",choice,ct,binary,repulsion,1,microwave ovens,null,null,null,null,null,null,1,100,90,null,30,40,null,Warranty,Cooking power,NA,NA
NA,NA,NA,NA,NA,choice_trial_setup,html-keyboard-response,42,581457,0.0-4.0-0.19,209,1,2025-05-05T22:00:38Z,b60275e29fe2361ab97ac0ac217840d7,"Mozilla/5.0 (X11; CrOS x86_64 14541.0.0) AppleWebKit/537.36 (KHTML, like Gecko) Chrome/126.0.0.0 Safari/537.36",WebKit,Chrome,126.0.0.0,ChromeOS,14541.0.0,https://5puzkbbxv1.cognition.run/?sona_id=58068,"en-US,en;q=0.9",dbbxxvvj4t0v10g,19,"[""Prefer not to say""]",No,Female,NA,No,812548.1000000015,NA,null,<p></p>,null,choice,cdt,trinary,repulsion_A,2,microwave ovens,null,null,null,null,null,null,2,NA,NA,NA,NA,NA,NA,NA,NA,NA,NA
NA,NA,NA,NA,NA,choice_trial,survey-html-form,43,586631,0.0-4.0-1.19,209,1,2025-05-05T22:00:38Z,b60275e29fe2361ab97ac0ac217840d7,"Mozilla/5.0 (X11; CrOS x86_64 14541.0.0) AppleWebKit/537.36 (KHTML, like Gecko) Chrome/126.0.0.0 Safari/537.36",WebKit,Chrome,126.0.0.0,ChromeOS,14541.0.0,https://5puzkbbxv1.cognition.run/?sona_id=58068,"en-US,en;q=0.9",dbbxxvvj4t0v10g,19,"[""Prefer not to say""]",No,Female,NA,No,812548.1000000015,NA,5165,NA,"{""product_choice"":""A""}",choice,cdt,trinary,repulsion_A,2,microwave ovens,null,null,null,null,null,null,2,30,40,20,100,90,100,Warranty,Cooking power,NA,NA
NA,NA,NA,NA,NA,choice_trial_setup,html-keyboard-response,44,586940,0.0-4.0-0.20,209,1,2025-05-05T22:00:38Z,b60275e29fe2361ab97ac0ac217840d7,"Mozilla/5.0 (X11; CrOS x86_64 14541.0.0) AppleWebKit/537.36 (KHTML, like Gecko) Chrome/126.0.0.0 Safari/537.36",WebKit,Chrome,126.0.0.0,ChromeOS,14541.0.0,https://5puzkbbxv1.cognition.run/?sona_id=58068,"en-US,en;q=0.9",dbbxxvvj4t0v10g,19,"[""Prefer not to say""]",No,Female,NA,No,812548.1000000015,NA,null,<p></p>,null,choice,dct,trinary,repulsion_A,1,laptops,null,null,null,null,null,null,2,NA,NA,NA,NA,NA,NA,NA,NA,NA,NA
NA,NA,NA,NA,NA,choice_trial,survey-html-form,45,593139,0.0-4.0-1.20,209,1,2025-05-05T22:00:38Z,b60275e29fe2361ab97ac0ac217840d7,"Mozilla/5.0 (X11; CrOS x86_64 14541.0.0) AppleWebKit/537.36 (KHTML, like Gecko) Chrome/126.0.0.0 Safari/537.36",WebKit,Chrome,126.0.0.0,ChromeOS,14541.0.0,https://5puzkbbxv1.cognition.run/?sona_id=58068,"en-US,en;q=0.9",dbbxxvvj4t0v10g,19,"[""Prefer not to say""]",No,Female,NA,No,812548.1000000015,NA,6185,NA,"{""product_choice"":""B""}",choice,dct,trinary,repulsion_A,1,laptops,null,null,null,null,null,null,2,100,90,100,30,40,20,Processing speed,Memory (RAM),NA,NA
NA,NA,NA,NA,NA,choice_trial_setup,html-keyboard-response,46,593449,0.0-4.0-0.21,209,1,2025-05-05T22:00:38Z,b60275e29fe2361ab97ac0ac217840d7,"Mozilla/5.0 (X11; CrOS x86_64 14541.0.0) AppleWebKit/537.36 (KHTML, like Gecko) Chrome/126.0.0.0 Safari/537.36",WebKit,Chrome,126.0.0.0,ChromeOS,14541.0.0,https://5puzkbbxv1.cognition.run/?sona_id=58068,"en-US,en;q=0.9",dbbxxvvj4t0v10g,19,"[""Prefer not to say""]",No,Female,NA,No,812548.1000000015,NA,null,<p></p>,null,choice,tcd,trinary,repulsion_A,1,microwave ovens,null,null,null,null,null,null,2,NA,NA,NA,NA,NA,NA,NA,NA,NA,NA
NA,NA,NA,NA,NA,choice_trial,survey-html-form,47,598742,0.0-4.0-1.21,209,1,2025-05-05T22:00:38Z,b60275e29fe2361ab97ac0ac217840d7,"Mozilla/5.0 (X11; CrOS x86_64 14541.0.0) AppleWebKit/537.36 (KHTML, like Gecko) Chrome/126.0.0.0 Safari/537.36",WebKit,Chrome,126.0.0.0,ChromeOS,14541.0.0,https://5puzkbbxv1.cognition.run/?sona_id=58068,"en-US,en;q=0.9",dbbxxvvj4t0v10g,19,"[""Prefer not to say""]",No,Female,NA,No,812548.1000000015,NA,5285,NA,"{""product_choice"":""B""}",choice,tcd,trinary,repulsion_A,1,microwave ovens,null,null,null,null,null,null,2,100,90,100,30,40,20,Warranty,Cooking power,NA,NA
NA,NA,NA,NA,NA,choice_trial_setup,html-keyboard-response,48,599049,0.0-4.0-0.22,209,1,2025-05-05T22:00:38Z,b60275e29fe2361ab97ac0ac217840d7,"Mozilla/5.0 (X11; CrOS x86_64 14541.0.0) AppleWebKit/537.36 (KHTML, like Gecko) Chrome/126.0.0.0 Safari/537.36",WebKit,Chrome,126.0.0.0,ChromeOS,14541.0.0,https://5puzkbbxv1.cognition.run/?sona_id=58068,"en-US,en;q=0.9",dbbxxvvj4t0v10g,19,"[""Prefer not to say""]",No,Female,NA,No,812548.1000000015,NA,null,<p></p>,null,choice,ctd,trinary,repulsion_B,1,washing machines,null,null,null,null,null,null,1,NA,NA,NA,NA,NA,NA,NA,NA,NA,NA
NA,NA,NA,NA,NA,choice_trial,survey-html-form,49,603882,0.0-4.0-1.22,209,1,2025-05-05T22:00:38Z,b60275e29fe2361ab97ac0ac217840d7,"Mozilla/5.0 (X11; CrOS x86_64 14541.0.0) AppleWebKit/537.36 (KHTML, like Gecko) Chrome/126.0.0.0 Safari/537.36",WebKit,Chrome,126.0.0.0,ChromeOS,14541.0.0,https://5puzkbbxv1.cognition.run/?sona_id=58068,"en-US,en;q=0.9",dbbxxvvj4t0v10g,19,"[""Prefer not to say""]",No,Female,NA,No,812548.1000000015,NA,4820,NA,"{""product_choice"":""B""}",choice,ctd,trinary,repulsion_B,1,washing machines,null,null,null,null,null,null,1,90,100,80,40,30,40,Average lifespan,Energy savings,NA,NA
NA,NA,NA,NA,NA,choice_trial_setup,html-keyboard-response,50,604189,0.0-4.0-0.23,209,1,2025-05-05T22:00:38Z,b60275e29fe2361ab97ac0ac217840d7,"Mozilla/5.0 (X11; CrOS x86_64 14541.0.0) AppleWebKit/537.36 (KHTML, like Gecko) Chrome/126.0.0.0 Safari/537.36",WebKit,Chrome,126.0.0.0,ChromeOS,14541.0.0,https://5puzkbbxv1.cognition.run/?sona_id=58068,"en-US,en;q=0.9",dbbxxvvj4t0v10g,19,"[""Prefer not to say""]",No,Female,NA,No,812548.1000000015,NA,null,<p></p>,null,choice,tcd,trinary,attraction,2,televisions,null,null,null,null,null,null,1,NA,NA,NA,NA,NA,NA,NA,NA,NA,NA
NA,NA,NA,NA,NA,choice_trial,survey-html-form,51,611552,0.0-4.0-1.23,209,1,2025-05-05T22:00:38Z,b60275e29fe2361ab97ac0ac217840d7,"Mozilla/5.0 (X11; CrOS x86_64 14541.0.0) AppleWebKit/537.36 (KHTML, like Gecko) Chrome/126.0.0.0 Safari/537.36",WebKit,Chrome,126.0.0.0,ChromeOS,14541.0.0,https://5puzkbbxv1.cognition.run/?sona_id=58068,"en-US,en;q=0.9",dbbxxvvj4t0v10g,19,"[""Prefer not to say""]",No,Female,NA,No,812548.1000000015,NA,7351,NA,"{""product_choice"":""A""}",choice,tcd,trinary,attraction,2,televisions,null,null,null,null,null,null,1,50,60,40,60,50,60,Screen size,Average lifespan,NA,NA
NA,NA,NA,NA,NA,choice_trial_setup,html-keyboard-response,52,611858,0.0-4.0-0.24,209,1,2025-05-05T22:00:38Z,b60275e29fe2361ab97ac0ac217840d7,"Mozilla/5.0 (X11; CrOS x86_64 14541.0.0) AppleWebKit/537.36 (KHTML, like Gecko) Chrome/126.0.0.0 Safari/537.36",WebKit,Chrome,126.0.0.0,ChromeOS,14541.0.0,https://5puzkbbxv1.cognition.run/?sona_id=58068,"en-US,en;q=0.9",dbbxxvvj4t0v10g,19,"[""Prefer not to say""]",No,Female,NA,No,812548.1000000015,NA,null,<p></p>,null,choice,tc,binary,repulsion,2,washing machines,null,null,null,null,null,null,2,NA,NA,NA,NA,NA,NA,NA,NA,NA,NA
NA,NA,NA,NA,NA,choice_trial,survey-html-form,53,616731,0.0-4.0-1.24,209,1,2025-05-05T22:00:38Z,b60275e29fe2361ab97ac0ac217840d7,"Mozilla/5.0 (X11; CrOS x86_64 14541.0.0) AppleWebKit/537.36 (KHTML, like Gecko) Chrome/126.0.0.0 Safari/537.36",WebKit,Chrome,126.0.0.0,ChromeOS,14541.0.0,https://5puzkbbxv1.cognition.run/?sona_id=58068,"en-US,en;q=0.9",dbbxxvvj4t0v10g,19,"[""Prefer not to say""]",No,Female,NA,No,812548.1000000015,NA,4855,NA,"{""product_choice"":""B""}",choice,tc,binary,repulsion,2,washing machines,null,null,null,null,null,null,2,30,40,null,100,90,null,Average lifespan,Energy savings,NA,NA
NA,NA,NA,NA,NA,choice_trial_setup,html-keyboard-response,54,617039,0.0-4.0-0.25,209,1,2025-05-05T22:00:38Z,b60275e29fe2361ab97ac0ac217840d7,"Mozilla/5.0 (X11; CrOS x86_64 14541.0.0) AppleWebKit/537.36 (KHTML, like Gecko) Chrome/126.0.0.0 Safari/537.36",WebKit,Chrome,126.0.0.0,ChromeOS,14541.0.0,https://5puzkbbxv1.cognition.run/?sona_id=58068,"en-US,en;q=0.9",dbbxxvvj4t0v10g,19,"[""Prefer not to say""]",No,Female,NA,No,812548.1000000015,NA,null,<p></p>,null,choice,tcd,trinary,repulsion_A,2,laptops,null,null,null,null,null,null,2,NA,NA,NA,NA,NA,NA,NA,NA,NA,NA
NA,NA,NA,NA,NA,choice_trial,survey-html-form,55,623194,0.0-4.0-1.25,209,1,2025-05-05T22:00:38Z,b60275e29fe2361ab97ac0ac217840d7,"Mozilla/5.0 (X11; CrOS x86_64 14541.0.0) AppleWebKit/537.36 (KHTML, like Gecko) Chrome/126.0.0.0 Safari/537.36",WebKit,Chrome,126.0.0.0,ChromeOS,14541.0.0,https://5puzkbbxv1.cognition.run/?sona_id=58068,"en-US,en;q=0.9",dbbxxvvj4t0v10g,19,"[""Prefer not to say""]",No,Female,NA,No,812548.1000000015,NA,6140,NA,"{""product_choice"":""B""}",choice,tcd,trinary,repulsion_A,2,laptops,null,null,null,null,null,null,2,30,40,20,100,90,100,Processing speed,Memory (RAM),NA,NA
NA,NA,NA,NA,NA,choice_trial_setup,html-keyboard-response,56,623502,0.0-4.0-0.26,209,1,2025-05-05T22:00:38Z,b60275e29fe2361ab97ac0ac217840d7,"Mozilla/5.0 (X11; CrOS x86_64 14541.0.0) AppleWebKit/537.36 (KHTML, like Gecko) Chrome/126.0.0.0 Safari/537.36",WebKit,Chrome,126.0.0.0,ChromeOS,14541.0.0,https://5puzkbbxv1.cognition.run/?sona_id=58068,"en-US,en;q=0.9",dbbxxvvj4t0v10g,19,"[""Prefer not to say""]",No,Female,NA,No,812548.1000000015,NA,null,<p></p>,null,choice,tc,binary,attraction,NA,microwave ovens,null,null,null,null,null,null,1,NA,NA,NA,NA,NA,NA,NA,NA,NA,NA
NA,NA,NA,NA,NA,choice_trial,survey-html-form,57,628692,0.0-4.0-1.26,209,1,2025-05-05T22:00:38Z,b60275e29fe2361ab97ac0ac217840d7,"Mozilla/5.0 (X11; CrOS x86_64 14541.0.0) AppleWebKit/537.36 (KHTML, like Gecko) Chrome/126.0.0.0 Safari/537.36",WebKit,Chrome,126.0.0.0,ChromeOS,14541.0.0,https://5puzkbbxv1.cognition.run/?sona_id=58068,"en-US,en;q=0.9",dbbxxvvj4t0v10g,19,"[""Prefer not to say""]",No,Female,NA,No,812548.1000000015,NA,5178,NA,"{""product_choice"":""B""}",choice,tc,binary,attraction,NA,microwave ovens,null,null,null,null,null,null,1,60,50,null,50,60,null,Warranty,Cooking power,NA,NA
NA,NA,NA,NA,NA,choice_trial_setup,html-keyboard-response,58,628999,0.0-4.0-0.27,209,1,2025-05-05T22:00:38Z,b60275e29fe2361ab97ac0ac217840d7,"Mozilla/5.0 (X11; CrOS x86_64 14541.0.0) AppleWebKit/537.36 (KHTML, like Gecko) Chrome/126.0.0.0 Safari/537.36",WebKit,Chrome,126.0.0.0,ChromeOS,14541.0.0,https://5puzkbbxv1.cognition.run/?sona_id=58068,"en-US,en;q=0.9",dbbxxvvj4t0v10g,19,"[""Prefer not to say""]",No,Female,NA,No,812548.1000000015,NA,null,<p></p>,null,choice,dtc,trinary,repulsion_B,2,microwave ovens,null,null,null,null,null,null,1,NA,NA,NA,NA,NA,NA,NA,NA,NA,NA
NA,NA,NA,NA,NA,choice_trial,survey-html-form,59,632787,0.0-4.0-1.27,209,1,2025-05-05T22:00:38Z,b60275e29fe2361ab97ac0ac217840d7,"Mozilla/5.0 (X11; CrOS x86_64 14541.0.0) AppleWebKit/537.36 (KHTML, like Gecko) Chrome/126.0.0.0 Safari/537.36",WebKit,Chrome,126.0.0.0,ChromeOS,14541.0.0,https://5puzkbbxv1.cognition.run/?sona_id=58068,"en-US,en;q=0.9",dbbxxvvj4t0v10g,19,"[""Prefer not to say""]",No,Female,NA,No,812548.1000000015,NA,3772,NA,"{""product_choice"":""B""}",choice,dtc,trinary,repulsion_B,2,microwave ovens,null,null,null,null,null,null,1,40,30,40,90,100,80,Warranty,Cooking power,NA,NA
NA,NA,NA,NA,NA,choice_trial_setup,html-keyboard-response,60,633095,0.0-4.0-0.28,209,1,2025-05-05T22:00:38Z,b60275e29fe2361ab97ac0ac217840d7,"Mozilla/5.0 (X11; CrOS x86_64 14541.0.0) AppleWebKit/537.36 (KHTML, like Gecko) Chrome/126.0.0.0 Safari/537.36",WebKit,Chrome,126.0.0.0,ChromeOS,14541.0.0,https://5puzkbbxv1.cognition.run/?sona_id=58068,"en-US,en;q=0.9",dbbxxvvj4t0v10g,19,"[""Prefer not to say""]",No,Female,NA,No,812548.1000000015,NA,null,<p></p>,null,choice,tcd,trinary,repulsion_A,2,washing machines,null,null,null,null,null,null,2,NA,NA,NA,NA,NA,NA,NA,NA,NA,NA
NA,NA,NA,NA,NA,choice_trial,survey-html-form,61,636323,0.0-4.0-1.28,209,1,2025-05-05T22:00:38Z,b60275e29fe2361ab97ac0ac217840d7,"Mozilla/5.0 (X11; CrOS x86_64 14541.0.0) AppleWebKit/537.36 (KHTML, like Gecko) Chrome/126.0.0.0 Safari/537.36",WebKit,Chrome,126.0.0.0,ChromeOS,14541.0.0,https://5puzkbbxv1.cognition.run/?sona_id=58068,"en-US,en;q=0.9",dbbxxvvj4t0v10g,19,"[""Prefer not to say""]",No,Female,NA,No,812548.1000000015,NA,3216,NA,"{""product_choice"":""B""}",choice,tcd,trinary,repulsion_A,2,washing machines,null,null,null,null,null,null,2,30,40,20,100,90,100,Average lifespan,Energy savings,NA,NA
NA,NA,NA,NA,NA,choice_trial_setup,html-keyboard-response,62,636629,0.0-4.0-0.29,209,1,2025-05-05T22:00:38Z,b60275e29fe2361ab97ac0ac217840d7,"Mozilla/5.0 (X11; CrOS x86_64 14541.0.0) AppleWebKit/537.36 (KHTML, like Gecko) Chrome/126.0.0.0 Safari/537.36",WebKit,Chrome,126.0.0.0,ChromeOS,14541.0.0,https://5puzkbbxv1.cognition.run/?sona_id=58068,"en-US,en;q=0.9",dbbxxvvj4t0v10g,19,"[""Prefer not to say""]",No,Female,NA,No,812548.1000000015,NA,null,<p></p>,null,choice,tcd,trinary,repulsion_B,2,televisions,null,null,null,null,null,null,1,NA,NA,NA,NA,NA,NA,NA,NA,NA,NA
NA,NA,NA,NA,NA,choice_trial,survey-html-form,63,641910,0.0-4.0-1.29,209,1,2025-05-05T22:00:38Z,b60275e29fe2361ab97ac0ac217840d7,"Mozilla/5.0 (X11; CrOS x86_64 14541.0.0) AppleWebKit/537.36 (KHTML, like Gecko) Chrome/126.0.0.0 Safari/537.36",WebKit,Chrome,126.0.0.0,ChromeOS,14541.0.0,https://5puzkbbxv1.cognition.run/?sona_id=58068,"en-US,en;q=0.9",dbbxxvvj4t0v10g,19,"[""Prefer not to say""]",No,Female,NA,No,812548.1000000015,NA,5272,NA,"{""product_choice"":""A""}",choice,tcd,trinary,repulsion_B,2,televisions,null,null,null,null,null,null,1,40,30,40,90,100,80,Screen size,Average lifespan,NA,NA
NA,NA,NA,NA,NA,choice_trial_setup,html-keyboard-response,64,642219,0.0-4.0-0.30,209,1,2025-05-05T22:00:38Z,b60275e29fe2361ab97ac0ac217840d7,"Mozilla/5.0 (X11; CrOS x86_64 14541.0.0) AppleWebKit/537.36 (KHTML, like Gecko) Chrome/126.0.0.0 Safari/537.36",WebKit,Chrome,126.0.0.0,ChromeOS,14541.0.0,https://5puzkbbxv1.cognition.run/?sona_id=58068,"en-US,en;q=0.9",dbbxxvvj4t0v10g,19,"[""Prefer not to say""]",No,Female,NA,No,812548.1000000015,NA,null,<p></p>,null,choice,tcd,trinary,repulsion_A,2,televisions,null,null,null,null,null,null,2,NA,NA,NA,NA,NA,NA,NA,NA,NA,NA
NA,NA,NA,NA,NA,choice_trial,survey-html-form,65,645898,0.0-4.0-1.30,209,1,2025-05-05T22:00:38Z,b60275e29fe2361ab97ac0ac217840d7,"Mozilla/5.0 (X11; CrOS x86_64 14541.0.0) AppleWebKit/537.36 (KHTML, like Gecko) Chrome/126.0.0.0 Safari/537.36",WebKit,Chrome,126.0.0.0,ChromeOS,14541.0.0,https://5puzkbbxv1.cognition.run/?sona_id=58068,"en-US,en;q=0.9",dbbxxvvj4t0v10g,19,"[""Prefer not to say""]",No,Female,NA,No,812548.1000000015,NA,3660,NA,"{""product_choice"":""B""}",choice,tcd,trinary,repulsion_A,2,televisions,null,null,null,null,null,null,2,30,40,20,100,90,100,Screen size,Average lifespan,NA,NA
NA,NA,NA,NA,NA,choice_trial_setup,html-keyboard-response,66,646206,0.0-4.0-0.31,209,1,2025-05-05T22:00:38Z,b60275e29fe2361ab97ac0ac217840d7,"Mozilla/5.0 (X11; CrOS x86_64 14541.0.0) AppleWebKit/537.36 (KHTML, like Gecko) Chrome/126.0.0.0 Safari/537.36",WebKit,Chrome,126.0.0.0,ChromeOS,14541.0.0,https://5puzkbbxv1.cognition.run/?sona_id=58068,"en-US,en;q=0.9",dbbxxvvj4t0v10g,19,"[""Prefer not to say""]",No,Female,NA,No,812548.1000000015,NA,null,<p></p>,null,choice,tcd,trinary,attraction,2,washing machines,null,null,null,null,null,null,2,NA,NA,NA,NA,NA,NA,NA,NA,NA,NA
NA,NA,NA,NA,NA,choice_trial,survey-html-form,67,655636,0.0-4.0-1.31,209,1,2025-05-05T22:00:38Z,b60275e29fe2361ab97ac0ac217840d7,"Mozilla/5.0 (X11; CrOS x86_64 14541.0.0) AppleWebKit/537.36 (KHTML, like Gecko) Chrome/126.0.0.0 Safari/537.36",WebKit,Chrome,126.0.0.0,ChromeOS,14541.0.0,https://5puzkbbxv1.cognition.run/?sona_id=58068,"en-US,en;q=0.9",dbbxxvvj4t0v10g,19,"[""Prefer not to say""]",No,Female,NA,No,812548.1000000015,NA,9421,NA,"{""product_choice"":""B""}",choice,tcd,trinary,attraction,2,washing machines,null,null,null,null,null,null,2,50,60,40,60,50,60,Average lifespan,Energy savings,NA,NA
NA,NA,NA,NA,NA,choice_trial_setup,html-keyboard-response,68,655947,0.0-4.0-0.32,209,1,2025-05-05T22:00:38Z,b60275e29fe2361ab97ac0ac217840d7,"Mozilla/5.0 (X11; CrOS x86_64 14541.0.0) AppleWebKit/537.36 (KHTML, like Gecko) Chrome/126.0.0.0 Safari/537.36",WebKit,Chrome,126.0.0.0,ChromeOS,14541.0.0,https://5puzkbbxv1.cognition.run/?sona_id=58068,"en-US,en;q=0.9",dbbxxvvj4t0v10g,19,"[""Prefer not to say""]",No,Female,NA,No,812548.1000000015,NA,null,<p></p>,null,choice,dct,trinary,repulsion_B,2,washing machines,null,null,null,null,null,null,1,NA,NA,NA,NA,NA,NA,NA,NA,NA,NA
NA,NA,NA,NA,NA,choice_trial,survey-html-form,69,661161,0.0-4.0-1.32,209,1,2025-05-05T22:00:38Z,b60275e29fe2361ab97ac0ac217840d7,"Mozilla/5.0 (X11; CrOS x86_64 14541.0.0) AppleWebKit/537.36 (KHTML, like Gecko) Chrome/126.0.0.0 Safari/537.36",WebKit,Chrome,126.0.0.0,ChromeOS,14541.0.0,https://5puzkbbxv1.cognition.run/?sona_id=58068,"en-US,en;q=0.9",dbbxxvvj4t0v10g,19,"[""Prefer not to say""]",No,Female,NA,No,812548.1000000015,NA,5202,NA,"{""product_choice"":""C""}",choice,dct,trinary,repulsion_B,2,washing machines,null,null,null,null,null,null,1,40,30,40,90,100,80,Average lifespan,Energy savings,NA,NA
NA,NA,NA,NA,NA,choice_trial_setup,html-keyboard-response,70,661466,0.0-4.0-0.33,209,1,2025-05-05T22:00:38Z,b60275e29fe2361ab97ac0ac217840d7,"Mozilla/5.0 (X11; CrOS x86_64 14541.0.0) AppleWebKit/537.36 (KHTML, like Gecko) Chrome/126.0.0.0 Safari/537.36",WebKit,Chrome,126.0.0.0,ChromeOS,14541.0.0,https://5puzkbbxv1.cognition.run/?sona_id=58068,"en-US,en;q=0.9",dbbxxvvj4t0v10g,19,"[""Prefer not to say""]",No,Female,NA,No,812548.1000000015,NA,null,<p></p>,null,choice,tc,binary,repulsion,1,laptops,null,null,null,null,null,null,2,NA,NA,NA,NA,NA,NA,NA,NA,NA,NA
NA,NA,NA,NA,NA,choice_trial,survey-html-form,71,665329,0.0-4.0-1.33,209,1,2025-05-05T22:00:38Z,b60275e29fe2361ab97ac0ac217840d7,"Mozilla/5.0 (X11; CrOS x86_64 14541.0.0) AppleWebKit/537.36 (KHTML, like Gecko) Chrome/126.0.0.0 Safari/537.36",WebKit,Chrome,126.0.0.0,ChromeOS,14541.0.0,https://5puzkbbxv1.cognition.run/?sona_id=58068,"en-US,en;q=0.9",dbbxxvvj4t0v10g,19,"[""Prefer not to say""]",No,Female,NA,No,812548.1000000015,NA,3849,NA,"{""product_choice"":""B""}",choice,tc,binary,repulsion,1,laptops,null,null,null,null,null,null,2,100,90,null,30,40,null,Processing speed,Memory (RAM),NA,NA
NA,NA,NA,NA,NA,choice_trial_setup,html-keyboard-response,72,665639,0.0-4.0-0.34,209,1,2025-05-05T22:00:38Z,b60275e29fe2361ab97ac0ac217840d7,"Mozilla/5.0 (X11; CrOS x86_64 14541.0.0) AppleWebKit/537.36 (KHTML, like Gecko) Chrome/126.0.0.0 Safari/537.36",WebKit,Chrome,126.0.0.0,ChromeOS,14541.0.0,https://5puzkbbxv1.cognition.run/?sona_id=58068,"en-US,en;q=0.9",dbbxxvvj4t0v10g,19,"[""Prefer not to say""]",No,Female,NA,No,812548.1000000015,NA,null,<p></p>,null,choice,ct,binary,repulsion,2,microwave ovens,null,null,null,null,null,null,1,NA,NA,NA,NA,NA,NA,NA,NA,NA,NA
NA,NA,NA,NA,NA,choice_trial,survey-html-form,73,669054,0.0-4.0-1.34,209,1,2025-05-05T22:00:38Z,b60275e29fe2361ab97ac0ac217840d7,"Mozilla/5.0 (X11; CrOS x86_64 14541.0.0) AppleWebKit/537.36 (KHTML, like Gecko) Chrome/126.0.0.0 Safari/537.36",WebKit,Chrome,126.0.0.0,ChromeOS,14541.0.0,https://5puzkbbxv1.cognition.run/?sona_id=58068,"en-US,en;q=0.9",dbbxxvvj4t0v10g,19,"[""Prefer not to say""]",No,Female,NA,No,812548.1000000015,NA,3405,NA,"{""product_choice"":""A""}",choice,ct,binary,repulsion,2,microwave ovens,null,null,null,null,null,null,1,30,40,null,100,90,null,Warranty,Cooking power,NA,NA
NA,NA,NA,NA,NA,choice_trial_setup,html-keyboard-response,74,669361,0.0-4.0-0.35,209,1,2025-05-05T22:00:38Z,b60275e29fe2361ab97ac0ac217840d7,"Mozilla/5.0 (X11; CrOS x86_64 14541.0.0) AppleWebKit/537.36 (KHTML, like Gecko) Chrome/126.0.0.0 Safari/537.36",WebKit,Chrome,126.0.0.0,ChromeOS,14541.0.0,https://5puzkbbxv1.cognition.run/?sona_id=58068,"en-US,en;q=0.9",dbbxxvvj4t0v10g,19,"[""Prefer not to say""]",No,Female,NA,No,812548.1000000015,NA,null,<p></p>,null,choice,wbw,trinary,catch,null,microwave ovens,80,75,25,15,35,5,2,NA,NA,NA,NA,NA,NA,NA,NA,NA,NA
NA,NA,NA,NA,NA,choice_trial,survey-html-form,75,674084,0.0-4.0-1.35,209,1,2025-05-05T22:00:38Z,b60275e29fe2361ab97ac0ac217840d7,"Mozilla/5.0 (X11; CrOS x86_64 14541.0.0) AppleWebKit/537.36 (KHTML, like Gecko) Chrome/126.0.0.0 Safari/537.36",WebKit,Chrome,126.0.0.0,ChromeOS,14541.0.0,https://5puzkbbxv1.cognition.run/?sona_id=58068,"en-US,en;q=0.9",dbbxxvvj4t0v10g,19,"[""Prefer not to say""]",No,Female,NA,No,812548.1000000015,NA,4710,NA,"{""product_choice"":""B""}",choice,wbw,trinary,catch,null,microwave ovens,80,75,25,15,35,5,2,null,null,null,null,null,null,Warranty,Cooking power,NA,NA
NA,NA,NA,NA,NA,choice_trial_setup,html-keyboard-response,76,674393,0.0-4.0-0.36,209,1,2025-05-05T22:00:38Z,b60275e29fe2361ab97ac0ac217840d7,"Mozilla/5.0 (X11; CrOS x86_64 14541.0.0) AppleWebKit/537.36 (KHTML, like Gecko) Chrome/126.0.0.0 Safari/537.36",WebKit,Chrome,126.0.0.0,ChromeOS,14541.0.0,https://5puzkbbxv1.cognition.run/?sona_id=58068,"en-US,en;q=0.9",dbbxxvvj4t0v10g,19,"[""Prefer not to say""]",No,Female,NA,No,812548.1000000015,NA,null,<p></p>,null,choice,ctd,trinary,repulsion_B,1,laptops,null,null,null,null,null,null,1,NA,NA,NA,NA,NA,NA,NA,NA,NA,NA
NA,NA,NA,NA,NA,choice_trial,survey-html-form,77,678567,0.0-4.0-1.36,209,1,2025-05-05T22:00:38Z,b60275e29fe2361ab97ac0ac217840d7,"Mozilla/5.0 (X11; CrOS x86_64 14541.0.0) AppleWebKit/537.36 (KHTML, like Gecko) Chrome/126.0.0.0 Safari/537.36",WebKit,Chrome,126.0.0.0,ChromeOS,14541.0.0,https://5puzkbbxv1.cognition.run/?sona_id=58068,"en-US,en;q=0.9",dbbxxvvj4t0v10g,19,"[""Prefer not to say""]",No,Female,NA,No,812548.1000000015,NA,4162,NA,"{""product_choice"":""B""}",choice,ctd,trinary,repulsion_B,1,laptops,null,null,null,null,null,null,1,90,100,80,40,30,40,Processing speed,Memory (RAM),NA,NA
NA,NA,NA,NA,NA,choice_trial_setup,html-keyboard-response,78,678874,0.0-4.0-0.37,209,1,2025-05-05T22:00:38Z,b60275e29fe2361ab97ac0ac217840d7,"Mozilla/5.0 (X11; CrOS x86_64 14541.0.0) AppleWebKit/537.36 (KHTML, like Gecko) Chrome/126.0.0.0 Safari/537.36",WebKit,Chrome,126.0.0.0,ChromeOS,14541.0.0,https://5puzkbbxv1.cognition.run/?sona_id=58068,"en-US,en;q=0.9",dbbxxvvj4t0v10g,19,"[""Prefer not to say""]",No,Female,NA,No,812548.1000000015,NA,null,<p></p>,null,choice,tdc,trinary,attraction,2,microwave ovens,null,null,null,null,null,null,1,NA,NA,NA,NA,NA,NA,NA,NA,NA,NA
NA,NA,NA,NA,NA,choice_trial,survey-html-form,79,684903,0.0-4.0-1.37,209,1,2025-05-05T22:00:38Z,b60275e29fe2361ab97ac0ac217840d7,"Mozilla/5.0 (X11; CrOS x86_64 14541.0.0) AppleWebKit/537.36 (KHTML, like Gecko) Chrome/126.0.0.0 Safari/537.36",WebKit,Chrome,126.0.0.0,ChromeOS,14541.0.0,https://5puzkbbxv1.cognition.run/?sona_id=58068,"en-US,en;q=0.9",dbbxxvvj4t0v10g,19,"[""Prefer not to say""]",No,Female,NA,No,812548.1000000015,NA,6021,NA,"{""product_choice"":""A""}",choice,tdc,trinary,attraction,2,microwave ovens,null,null,null,null,null,null,1,50,60,40,60,50,60,Warranty,Cooking power,NA,NA
NA,NA,NA,NA,NA,choice_trial_setup,html-keyboard-response,80,685212,0.0-4.0-0.38,209,1,2025-05-05T22:00:38Z,b60275e29fe2361ab97ac0ac217840d7,"Mozilla/5.0 (X11; CrOS x86_64 14541.0.0) AppleWebKit/537.36 (KHTML, like Gecko) Chrome/126.0.0.0 Safari/537.36",WebKit,Chrome,126.0.0.0,ChromeOS,14541.0.0,https://5puzkbbxv1.cognition.run/?sona_id=58068,"en-US,en;q=0.9",dbbxxvvj4t0v10g,19,"[""Prefer not to say""]",No,Female,NA,No,812548.1000000015,NA,null,<p></p>,null,choice,tc,binary,attraction,NA,washing machines,null,null,null,null,null,null,1,NA,NA,NA,NA,NA,NA,NA,NA,NA,NA
NA,NA,NA,NA,NA,choice_trial,survey-html-form,81,689649,0.0-4.0-1.38,209,1,2025-05-05T22:00:38Z,b60275e29fe2361ab97ac0ac217840d7,"Mozilla/5.0 (X11; CrOS x86_64 14541.0.0) AppleWebKit/537.36 (KHTML, like Gecko) Chrome/126.0.0.0 Safari/537.36",WebKit,Chrome,126.0.0.0,ChromeOS,14541.0.0,https://5puzkbbxv1.cognition.run/?sona_id=58068,"en-US,en;q=0.9",dbbxxvvj4t0v10g,19,"[""Prefer not to say""]",No,Female,NA,No,812548.1000000015,NA,4418,NA,"{""product_choice"":""A""}",choice,tc,binary,attraction,NA,washing machines,null,null,null,null,null,null,1,60,50,null,50,60,null,Average lifespan,Energy savings,NA,NA
NA,NA,NA,NA,NA,choice_trial_setup,html-keyboard-response,82,689960,0.0-4.0-0.39,209,1,2025-05-05T22:00:38Z,b60275e29fe2361ab97ac0ac217840d7,"Mozilla/5.0 (X11; CrOS x86_64 14541.0.0) AppleWebKit/537.36 (KHTML, like Gecko) Chrome/126.0.0.0 Safari/537.36",WebKit,Chrome,126.0.0.0,ChromeOS,14541.0.0,https://5puzkbbxv1.cognition.run/?sona_id=58068,"en-US,en;q=0.9",dbbxxvvj4t0v10g,19,"[""Prefer not to say""]",No,Female,NA,No,812548.1000000015,NA,null,<p></p>,null,choice,dct,trinary,attraction,2,laptops,null,null,null,null,null,null,1,NA,NA,NA,NA,NA,NA,NA,NA,NA,NA
NA,NA,NA,NA,NA,choice_trial,survey-html-form,83,696813,0.0-4.0-1.39,209,1,2025-05-05T22:00:38Z,b60275e29fe2361ab97ac0ac217840d7,"Mozilla/5.0 (X11; CrOS x86_64 14541.0.0) AppleWebKit/537.36 (KHTML, like Gecko) Chrome/126.0.0.0 Safari/537.36",WebKit,Chrome,126.0.0.0,ChromeOS,14541.0.0,https://5puzkbbxv1.cognition.run/?sona_id=58068,"en-US,en;q=0.9",dbbxxvvj4t0v10g,19,"[""Prefer not to say""]",No,Female,NA,No,812548.1000000015,NA,6832,NA,"{""product_choice"":""C""}",choice,dct,trinary,attraction,2,laptops,null,null,null,null,null,null,1,50,60,40,60,50,60,Processing speed,Memory (RAM),NA,NA
NA,NA,NA,NA,NA,choice_trial_setup,html-keyboard-response,84,697123,0.0-4.0-0.40,209,1,2025-05-05T22:00:38Z,b60275e29fe2361ab97ac0ac217840d7,"Mozilla/5.0 (X11; CrOS x86_64 14541.0.0) AppleWebKit/537.36 (KHTML, like Gecko) Chrome/126.0.0.0 Safari/537.36",WebKit,Chrome,126.0.0.0,ChromeOS,14541.0.0,https://5puzkbbxv1.cognition.run/?sona_id=58068,"en-US,en;q=0.9",dbbxxvvj4t0v10g,19,"[""Prefer not to say""]",No,Female,NA,No,812548.1000000015,NA,null,<p></p>,null,choice,wb,binary,catch,null,laptops,95,95,15,10,null,null,1,NA,NA,NA,NA,NA,NA,NA,NA,NA,NA
NA,NA,NA,NA,NA,choice_trial,survey-html-form,85,699368,0.0-4.0-1.40,209,1,2025-05-05T22:00:38Z,b60275e29fe2361ab97ac0ac217840d7,"Mozilla/5.0 (X11; CrOS x86_64 14541.0.0) AppleWebKit/537.36 (KHTML, like Gecko) Chrome/126.0.0.0 Safari/537.36",WebKit,Chrome,126.0.0.0,ChromeOS,14541.0.0,https://5puzkbbxv1.cognition.run/?sona_id=58068,"en-US,en;q=0.9",dbbxxvvj4t0v10g,19,"[""Prefer not to say""]",No,Female,NA,No,812548.1000000015,NA,2230,NA,"{""product_choice"":""B""}",choice,wb,binary,catch,null,laptops,95,95,15,10,null,null,1,null,null,null,null,null,null,Processing speed,Memory (RAM),NA,NA
NA,NA,NA,NA,NA,choice_trial_setup,html-keyboard-response,86,699677,0.0-4.0-0.41,209,1,2025-05-05T22:00:38Z,b60275e29fe2361ab97ac0ac217840d7,"Mozilla/5.0 (X11; CrOS x86_64 14541.0.0) AppleWebKit/537.36 (KHTML, like Gecko) Chrome/126.0.0.0 Safari/537.36",WebKit,Chrome,126.0.0.0,ChromeOS,14541.0.0,https://5puzkbbxv1.cognition.run/?sona_id=58068,"en-US,en;q=0.9",dbbxxvvj4t0v10g,19,"[""Prefer not to say""]",No,Female,NA,No,812548.1000000015,NA,null,<p></p>,null,choice,tcd,trinary,repulsion_B,2,laptops,null,null,null,null,null,null,2,NA,NA,NA,NA,NA,NA,NA,NA,NA,NA
NA,NA,NA,NA,NA,choice_trial,survey-html-form,87,703146,0.0-4.0-1.41,209,1,2025-05-05T22:00:38Z,b60275e29fe2361ab97ac0ac217840d7,"Mozilla/5.0 (X11; CrOS x86_64 14541.0.0) AppleWebKit/537.36 (KHTML, like Gecko) Chrome/126.0.0.0 Safari/537.36",WebKit,Chrome,126.0.0.0,ChromeOS,14541.0.0,https://5puzkbbxv1.cognition.run/?sona_id=58068,"en-US,en;q=0.9",dbbxxvvj4t0v10g,19,"[""Prefer not to say""]",No,Female,NA,No,812548.1000000015,NA,3457,NA,"{""product_choice"":""A""}",choice,tcd,trinary,repulsion_B,2,laptops,null,null,null,null,null,null,2,40,30,40,90,100,80,Processing speed,Memory (RAM),NA,NA
NA,NA,NA,NA,NA,choice_trial_setup,html-keyboard-response,88,703458,0.0-4.0-0.42,209,1,2025-05-05T22:00:38Z,b60275e29fe2361ab97ac0ac217840d7,"Mozilla/5.0 (X11; CrOS x86_64 14541.0.0) AppleWebKit/537.36 (KHTML, like Gecko) Chrome/126.0.0.0 Safari/537.36",WebKit,Chrome,126.0.0.0,ChromeOS,14541.0.0,https://5puzkbbxv1.cognition.run/?sona_id=58068,"en-US,en;q=0.9",dbbxxvvj4t0v10g,19,"[""Prefer not to say""]",No,Female,NA,No,812548.1000000015,NA,null,<p></p>,null,choice,ct,binary,repulsion,1,televisions,null,null,null,null,null,null,2,NA,NA,NA,NA,NA,NA,NA,NA,NA,NA
NA,NA,NA,NA,NA,choice_trial,survey-html-form,89,706932,0.0-4.0-1.42,209,1,2025-05-05T22:00:38Z,b60275e29fe2361ab97ac0ac217840d7,"Mozilla/5.0 (X11; CrOS x86_64 14541.0.0) AppleWebKit/537.36 (KHTML, like Gecko) Chrome/126.0.0.0 Safari/537.36",WebKit,Chrome,126.0.0.0,ChromeOS,14541.0.0,https://5puzkbbxv1.cognition.run/?sona_id=58068,"en-US,en;q=0.9",dbbxxvvj4t0v10g,19,"[""Prefer not to say""]",No,Female,NA,No,812548.1000000015,NA,3462,NA,"{""product_choice"":""A""}",choice,ct,binary,repulsion,1,televisions,null,null,null,null,null,null,2,100,90,null,30,40,null,Screen size,Average lifespan,NA,NA
NA,NA,NA,NA,NA,choice_trial_setup,html-keyboard-response,90,707244,0.0-4.0-0.43,209,1,2025-05-05T22:00:38Z,b60275e29fe2361ab97ac0ac217840d7,"Mozilla/5.0 (X11; CrOS x86_64 14541.0.0) AppleWebKit/537.36 (KHTML, like Gecko) Chrome/126.0.0.0 Safari/537.36",WebKit,Chrome,126.0.0.0,ChromeOS,14541.0.0,https://5puzkbbxv1.cognition.run/?sona_id=58068,"en-US,en;q=0.9",dbbxxvvj4t0v10g,19,"[""Prefer not to say""]",No,Female,NA,No,812548.1000000015,NA,null,<p></p>,null,choice,bw,binary,catch,null,microwave ovens,75,90,15,35,null,null,1,NA,NA,NA,NA,NA,NA,NA,NA,NA,NA
NA,NA,NA,NA,NA,choice_trial,survey-html-form,91,710640,0.0-4.0-1.43,209,1,2025-05-05T22:00:38Z,b60275e29fe2361ab97ac0ac217840d7,"Mozilla/5.0 (X11; CrOS x86_64 14541.0.0) AppleWebKit/537.36 (KHTML, like Gecko) Chrome/126.0.0.0 Safari/537.36",WebKit,Chrome,126.0.0.0,ChromeOS,14541.0.0,https://5puzkbbxv1.cognition.run/?sona_id=58068,"en-US,en;q=0.9",dbbxxvvj4t0v10g,19,"[""Prefer not to say""]",No,Female,NA,No,812548.1000000015,NA,3385,NA,"{""product_choice"":""A""}",choice,bw,binary,catch,null,microwave ovens,75,90,15,35,null,null,1,null,null,null,null,null,null,Warranty,Cooking power,NA,NA
NA,NA,NA,NA,NA,post_trials_message,html-button-response,92,713377,0.0-5.0,209,1,2025-05-05T22:00:38Z,b60275e29fe2361ab97ac0ac217840d7,"Mozilla/5.0 (X11; CrOS x86_64 14541.0.0) AppleWebKit/537.36 (KHTML, like Gecko) Chrome/126.0.0.0 Safari/537.36",WebKit,Chrome,126.0.0.0,ChromeOS,14541.0.0,https://5puzkbbxv1.cognition.run/?sona_id=58068,"en-US,en;q=0.9",dbbxxvvj4t0v10g,19,"[""Prefer not to say""]",No,Female,NA,No,812548.1000000015,NA,2720,<p> <b>Thank you for your patience!</b></p><p>  The study will be done after completing a brief form. </p>,0,NA,NA,NA,NA,NA,NA,NA,NA,NA,NA,NA,NA,NA,NA,NA,NA,NA,NA,NA,NA,NA,NA,NA
NA,NA,NA,NA,NA,survey_message,survey-text,93,775020,0.0-6.0,209,1,2025-05-05T22:00:38Z,b60275e29fe2361ab97ac0ac217840d7,"Mozilla/5.0 (X11; CrOS x86_64 14541.0.0) AppleWebKit/537.36 (KHTML, like Gecko) Chrome/126.0.0.0 Safari/537.36",WebKit,Chrome,126.0.0.0,ChromeOS,14541.0.0,https://5puzkbbxv1.cognition.run/?sona_id=58068,"en-US,en;q=0.9",dbbxxvvj4t0v10g,19,"[""Prefer not to say""]",No,Female,NA,No,812548.1000000015,NA,61627,NA,"{""Q0"":""I went about this task by looking at my options and then comparing them while deciding which component was more important, then looking at the numbers to see what was worth sacrificing to the other components.""}",NA,NA,NA,NA,NA,NA,NA,NA,NA,NA,NA,NA,NA,NA,NA,NA,NA,NA,NA,NA,NA,"I went about this task by looking at my options and then comparing them while deciding which component was more important, then looking at the numbers to see what was worth sacrificing to the other components.",NA
NA,NA,NA,NA,NA,demo_age,survey-text,94,777791,0.0-7.0,209,1,2025-05-05T22:00:38Z,b60275e29fe2361ab97ac0ac217840d7,"Mozilla/5.0 (X11; CrOS x86_64 14541.0.0) AppleWebKit/537.36 (KHTML, like Gecko) Chrome/126.0.0.0 Safari/537.36",WebKit,Chrome,126.0.0.0,ChromeOS,14541.0.0,https://5puzkbbxv1.cognition.run/?sona_id=58068,"en-US,en;q=0.9",dbbxxvvj4t0v10g,19,"[""Prefer not to say""]",No,Female,NA,No,812548.1000000015,NA,2756,NA,"{""Q0"":""19""}",NA,NA,NA,NA,NA,NA,NA,NA,NA,NA,NA,NA,NA,NA,NA,NA,NA,NA,NA,NA,NA,NA,NA
NA,NA,NA,NA,NA,demo_race,survey-multi-select,95,780620,0.0-8.0,209,1,2025-05-05T22:00:38Z,b60275e29fe2361ab97ac0ac217840d7,"Mozilla/5.0 (X11; CrOS x86_64 14541.0.0) AppleWebKit/537.36 (KHTML, like Gecko) Chrome/126.0.0.0 Safari/537.36",WebKit,Chrome,126.0.0.0,ChromeOS,14541.0.0,https://5puzkbbxv1.cognition.run/?sona_id=58068,"en-US,en;q=0.9",dbbxxvvj4t0v10g,19,"[""Prefer not to say""]",No,Female,NA,No,812548.1000000015,NA,2803,NA,"{""Q0"":[""Prefer not to say""]}",NA,NA,NA,NA,NA,NA,NA,NA,NA,NA,NA,NA,NA,NA,NA,NA,NA,NA,NA,NA,NA,NA,[0]
NA,NA,NA,NA,NA,demo_ethnicity_gender,survey-multi-choice,96,785415,0.0-9.0,209,1,2025-05-05T22:00:38Z,b60275e29fe2361ab97ac0ac217840d7,"Mozilla/5.0 (X11; CrOS x86_64 14541.0.0) AppleWebKit/537.36 (KHTML, like Gecko) Chrome/126.0.0.0 Safari/537.36",WebKit,Chrome,126.0.0.0,ChromeOS,14541.0.0,https://5puzkbbxv1.cognition.run/?sona_id=58068,"en-US,en;q=0.9",dbbxxvvj4t0v10g,19,"[""Prefer not to say""]",No,Female,NA,No,812548.1000000015,NA,4778,NA,"{""Q0"":""No"",""Q1"":""Female""}",NA,NA,NA,NA,NA,NA,NA,NA,NA,NA,NA,NA,NA,NA,NA,NA,NA,NA,NA,NA,NA,NA,"[0,1]"
NA,NA,NA,NA,NA,demo_countries,survey-text,97,790359,0.0-10.0,209,1,2025-05-05T22:00:38Z,b60275e29fe2361ab97ac0ac217840d7,"Mozilla/5.0 (X11; CrOS x86_64 14541.0.0) AppleWebKit/537.36 (KHTML, like Gecko) Chrome/126.0.0.0 Safari/537.36",WebKit,Chrome,126.0.0.0,ChromeOS,14541.0.0,https://5puzkbbxv1.cognition.run/?sona_id=58068,"en-US,en;q=0.9",dbbxxvvj4t0v10g,19,"[""Prefer not to say""]",No,Female,NA,No,812548.1000000015,NA,4922,NA,"{""Q0"":""NA""}",NA,NA,NA,NA,NA,NA,NA,NA,NA,NA,NA,NA,NA,NA,NA,NA,NA,NA,NA,NA,NA,NA,NA
NA,NA,NA,NA,NA,demo_prev_study,survey-multi-choice,98,796219,0.0-11.0,209,1,2025-05-05T22:00:38Z,b60275e29fe2361ab97ac0ac217840d7,"Mozilla/5.0 (X11; CrOS x86_64 14541.0.0) AppleWebKit/537.36 (KHTML, like Gecko) Chrome/126.0.0.0 Safari/537.36",WebKit,Chrome,126.0.0.0,ChromeOS,14541.0.0,https://5puzkbbxv1.cognition.run/?sona_id=58068,"en-US,en;q=0.9",dbbxxvvj4t0v10g,19,"[""Prefer not to say""]",No,Female,NA,No,812548.1000000015,NA,5849,NA,"{""Q0"":""No""}",NA,NA,NA,NA,NA,NA,NA,NA,NA,NA,NA,NA,NA,NA,NA,NA,NA,NA,NA,NA,NA,NA,[0]
NA,NA,NA,NA,NA,post_survey_message,html-keyboard-response,99,803771,0.0-12.0,209,1,2025-05-05T22:00:38Z,b60275e29fe2361ab97ac0ac217840d7,"Mozilla/5.0 (X11; CrOS x86_64 14541.0.0) AppleWebKit/537.36 (KHTML, like Gecko) Chrome/126.0.0.0 Safari/537.36",WebKit,Chrome,126.0.0.0,ChromeOS,14541.0.0,https://5puzkbbxv1.cognition.run/?sona_id=58068,"en-US,en;q=0.9",dbbxxvvj4t0v10g,19,"[""Prefer not to say""]",No,Female,NA,No,812548.1000000015,NA,7540,NA,j,NA,NA,NA,NA,NA,NA,NA,NA,NA,NA,NA,NA,NA,NA,NA,NA,NA,NA,NA,NA,NA,NA,NA
NA,NA,NA,NA,NA,debrief,image-keyboard-response,100,812543,0.0-13.0,209,1,2025-05-05T22:00:38Z,b60275e29fe2361ab97ac0ac217840d7,"Mozilla/5.0 (X11; CrOS x86_64 14541.0.0) AppleWebKit/537.36 (KHTML, like Gecko) Chrome/126.0.0.0 Safari/537.36",WebKit,Chrome,126.0.0.0,ChromeOS,14541.0.0,https://5puzkbbxv1.cognition.run/?sona_id=58068,"en-US,en;q=0.9",dbbxxvvj4t0v10g,19,"[""Prefer not to say""]",No,Female,NA,No,812548.1000000015,NA,8705,Judg_choice_debrief.png,p,NA,NA,NA,NA,NA,NA,NA,NA,NA,NA,NA,NA,NA,NA,NA,NA,NA,NA,NA,NA,NA,NA,NA
