success,timeout,failed_images,failed_audio,failed_video,screen_id,trial_type,trial_index,time_elapsed,internal_node_id,run_id,condition,recorded_at,source_code_version,user_agent,device,browser,browser_version,platform,platform_version,referer,accept_language,ppt_id,age,race,ethnicity,gender,other_countries,prev_study,exp_duration,view_history,rt,stimulus,response,phase,order,set,effect,t_high,category,d1_best,d2_best,d1_worst1,d2_worst1,d1_worst2,d2_worst2,first_dim,d1_t,d1_c,d1_d,d2_t,d2_c,d2_d,d1_name,d2_name,strategy_response,question_order
TRUE,FALSE,[],[],[],img preload,preload,0,187,0.0-0.0,210,1,2025-05-05T22:17:46Z,b60275e29fe2361ab97ac0ac217840d7,"Mozilla/5.0 (Macintosh; Intel Mac OS X 10_15_7) AppleWebKit/605.1.15 (KHTML, like Gecko) Version/17.4.1 Safari/605.1.15",Macintosh,Safari,17.4.1,OS X,10_15_7,https://5puzkbbxv1.cognition.run/?sona_id=57656,"en-US,en;q=0.9",3zyyrpbgypf3y0f,21,"[""White""]",No,Female,NA,Yes,413385,NA,NA,NA,NA,NA,NA,NA,NA,NA,NA,NA,NA,NA,NA,NA,NA,NA,NA,NA,NA,NA,NA,NA,NA,NA,NA,NA
NA,NA,NA,NA,NA,computer_message,instructions,1,3476,0.0-1.0,210,1,2025-05-05T22:17:46Z,b60275e29fe2361ab97ac0ac217840d7,"Mozilla/5.0 (Macintosh; Intel Mac OS X 10_15_7) AppleWebKit/605.1.15 (KHTML, like Gecko) Version/17.4.1 Safari/605.1.15",Macintosh,Safari,17.4.1,OS X,10_15_7,https://5puzkbbxv1.cognition.run/?sona_id=57656,"en-US,en;q=0.9",3zyyrpbgypf3y0f,21,"[""White""]",No,Female,NA,Yes,413385,"[{""page_index"":0,""viewing_time"":3287}]",3287,NA,NA,NA,NA,NA,NA,NA,NA,NA,NA,NA,NA,NA,NA,NA,NA,NA,NA,NA,NA,NA,NA,NA,NA,NA
TRUE,NA,NA,NA,NA,NA,fullscreen,2,5976,0.0-2.0,210,1,2025-05-05T22:17:46Z,b60275e29fe2361ab97ac0ac217840d7,"Mozilla/5.0 (Macintosh; Intel Mac OS X 10_15_7) AppleWebKit/605.1.15 (KHTML, like Gecko) Version/17.4.1 Safari/605.1.15",Macintosh,Safari,17.4.1,OS X,10_15_7,https://5puzkbbxv1.cognition.run/?sona_id=57656,"en-US,en;q=0.9",3zyyrpbgypf3y0f,21,"[""White""]",No,Female,NA,Yes,413385,NA,1496,NA,NA,NA,NA,NA,NA,NA,NA,NA,NA,NA,NA,NA,NA,NA,NA,NA,NA,NA,NA,NA,NA,NA,NA,NA
NA,NA,NA,NA,NA,choice_instructions,instructions,3,50274,0.0-3.0,210,1,2025-05-05T22:17:46Z,b60275e29fe2361ab97ac0ac217840d7,"Mozilla/5.0 (Macintosh; Intel Mac OS X 10_15_7) AppleWebKit/605.1.15 (KHTML, like Gecko) Version/17.4.1 Safari/605.1.15",Macintosh,Safari,17.4.1,OS X,10_15_7,https://5puzkbbxv1.cognition.run/?sona_id=57656,"en-US,en;q=0.9",3zyyrpbgypf3y0f,21,"[""White""]",No,Female,NA,Yes,413385,"[{""page_index"":0,""viewing_time"":1047},{""page_index"":1,""viewing_time"":4065},{""page_index"":2,""viewing_time"":4236},{""page_index"":3,""viewing_time"":5348},{""page_index"":4,""viewing_time"":4468},{""page_index"":5,""viewing_time"":17933},{""page_index"":6,""viewing_time"":7201}]",44299,NA,NA,NA,NA,NA,NA,NA,NA,NA,NA,NA,NA,NA,NA,NA,NA,NA,NA,NA,NA,NA,NA,NA,NA,NA
NA,NA,NA,NA,NA,choice_trial_setup,html-keyboard-response,4,50579,0.0-4.0-0.0,210,1,2025-05-05T22:17:46Z,b60275e29fe2361ab97ac0ac217840d7,"Mozilla/5.0 (Macintosh; Intel Mac OS X 10_15_7) AppleWebKit/605.1.15 (KHTML, like Gecko) Version/17.4.1 Safari/605.1.15",Macintosh,Safari,17.4.1,OS X,10_15_7,https://5puzkbbxv1.cognition.run/?sona_id=57656,"en-US,en;q=0.9",3zyyrpbgypf3y0f,21,"[""White""]",No,Female,NA,Yes,413385,NA,null,<p></p>,null,choice,dct,trinary,repulsion_B,2,laptops,null,null,null,null,null,null,1,NA,NA,NA,NA,NA,NA,NA,NA,NA,NA
NA,NA,NA,NA,NA,choice_trial,survey-html-form,5,58160,0.0-4.0-1.0,210,1,2025-05-05T22:17:46Z,b60275e29fe2361ab97ac0ac217840d7,"Mozilla/5.0 (Macintosh; Intel Mac OS X 10_15_7) AppleWebKit/605.1.15 (KHTML, like Gecko) Version/17.4.1 Safari/605.1.15",Macintosh,Safari,17.4.1,OS X,10_15_7,https://5puzkbbxv1.cognition.run/?sona_id=57656,"en-US,en;q=0.9",3zyyrpbgypf3y0f,21,"[""White""]",No,Female,NA,Yes,413385,NA,7575,NA,"{""product_choice"":""C""}",choice,dct,trinary,repulsion_B,2,laptops,null,null,null,null,null,null,1,40,30,40,90,100,80,Processing speed,Memory (RAM),NA,NA
NA,NA,NA,NA,NA,choice_trial_setup,html-keyboard-response,6,58463,0.0-4.0-0.1,210,1,2025-05-05T22:17:46Z,b60275e29fe2361ab97ac0ac217840d7,"Mozilla/5.0 (Macintosh; Intel Mac OS X 10_15_7) AppleWebKit/605.1.15 (KHTML, like Gecko) Version/17.4.1 Safari/605.1.15",Macintosh,Safari,17.4.1,OS X,10_15_7,https://5puzkbbxv1.cognition.run/?sona_id=57656,"en-US,en;q=0.9",3zyyrpbgypf3y0f,21,"[""White""]",No,Female,NA,Yes,413385,NA,null,<p></p>,null,choice,dct,trinary,attraction,1,laptops,null,null,null,null,null,null,1,NA,NA,NA,NA,NA,NA,NA,NA,NA,NA
NA,NA,NA,NA,NA,choice_trial,survey-html-form,7,68660,0.0-4.0-1.1,210,1,2025-05-05T22:17:46Z,b60275e29fe2361ab97ac0ac217840d7,"Mozilla/5.0 (Macintosh; Intel Mac OS X 10_15_7) AppleWebKit/605.1.15 (KHTML, like Gecko) Version/17.4.1 Safari/605.1.15",Macintosh,Safari,17.4.1,OS X,10_15_7,https://5puzkbbxv1.cognition.run/?sona_id=57656,"en-US,en;q=0.9",3zyyrpbgypf3y0f,21,"[""White""]",No,Female,NA,Yes,413385,NA,10193,NA,"{""product_choice"":""C""}",choice,dct,trinary,attraction,1,laptops,null,null,null,null,null,null,1,60,50,60,50,60,40,Processing speed,Memory (RAM),NA,NA
NA,NA,NA,NA,NA,choice_trial_setup,html-keyboard-response,8,68962,0.0-4.0-0.2,210,1,2025-05-05T22:17:46Z,b60275e29fe2361ab97ac0ac217840d7,"Mozilla/5.0 (Macintosh; Intel Mac OS X 10_15_7) AppleWebKit/605.1.15 (KHTML, like Gecko) Version/17.4.1 Safari/605.1.15",Macintosh,Safari,17.4.1,OS X,10_15_7,https://5puzkbbxv1.cognition.run/?sona_id=57656,"en-US,en;q=0.9",3zyyrpbgypf3y0f,21,"[""White""]",No,Female,NA,Yes,413385,NA,null,<p></p>,null,choice,tcd,trinary,repulsion_B,1,laptops,null,null,null,null,null,null,1,NA,NA,NA,NA,NA,NA,NA,NA,NA,NA
NA,NA,NA,NA,NA,choice_trial,survey-html-form,9,75408,0.0-4.0-1.2,210,1,2025-05-05T22:17:46Z,b60275e29fe2361ab97ac0ac217840d7,"Mozilla/5.0 (Macintosh; Intel Mac OS X 10_15_7) AppleWebKit/605.1.15 (KHTML, like Gecko) Version/17.4.1 Safari/605.1.15",Macintosh,Safari,17.4.1,OS X,10_15_7,https://5puzkbbxv1.cognition.run/?sona_id=57656,"en-US,en;q=0.9",3zyyrpbgypf3y0f,21,"[""White""]",No,Female,NA,Yes,413385,NA,6443,NA,"{""product_choice"":""A""}",choice,tcd,trinary,repulsion_B,1,laptops,null,null,null,null,null,null,1,90,100,80,40,30,40,Processing speed,Memory (RAM),NA,NA
NA,NA,NA,NA,NA,choice_trial_setup,html-keyboard-response,10,75711,0.0-4.0-0.3,210,1,2025-05-05T22:17:46Z,b60275e29fe2361ab97ac0ac217840d7,"Mozilla/5.0 (Macintosh; Intel Mac OS X 10_15_7) AppleWebKit/605.1.15 (KHTML, like Gecko) Version/17.4.1 Safari/605.1.15",Macintosh,Safari,17.4.1,OS X,10_15_7,https://5puzkbbxv1.cognition.run/?sona_id=57656,"en-US,en;q=0.9",3zyyrpbgypf3y0f,21,"[""White""]",No,Female,NA,Yes,413385,NA,null,<p></p>,null,choice,dtc,trinary,attraction,2,laptops,null,null,null,null,null,null,2,NA,NA,NA,NA,NA,NA,NA,NA,NA,NA
NA,NA,NA,NA,NA,choice_trial,survey-html-form,11,84409,0.0-4.0-1.3,210,1,2025-05-05T22:17:46Z,b60275e29fe2361ab97ac0ac217840d7,"Mozilla/5.0 (Macintosh; Intel Mac OS X 10_15_7) AppleWebKit/605.1.15 (KHTML, like Gecko) Version/17.4.1 Safari/605.1.15",Macintosh,Safari,17.4.1,OS X,10_15_7,https://5puzkbbxv1.cognition.run/?sona_id=57656,"en-US,en;q=0.9",3zyyrpbgypf3y0f,21,"[""White""]",No,Female,NA,Yes,413385,NA,8695,NA,"{""product_choice"":""C""}",choice,dtc,trinary,attraction,2,laptops,null,null,null,null,null,null,2,50,60,40,60,50,60,Processing speed,Memory (RAM),NA,NA
NA,NA,NA,NA,NA,choice_trial_setup,html-keyboard-response,12,84713,0.0-4.0-0.4,210,1,2025-05-05T22:17:46Z,b60275e29fe2361ab97ac0ac217840d7,"Mozilla/5.0 (Macintosh; Intel Mac OS X 10_15_7) AppleWebKit/605.1.15 (KHTML, like Gecko) Version/17.4.1 Safari/605.1.15",Macintosh,Safari,17.4.1,OS X,10_15_7,https://5puzkbbxv1.cognition.run/?sona_id=57656,"en-US,en;q=0.9",3zyyrpbgypf3y0f,21,"[""White""]",No,Female,NA,Yes,413385,NA,null,<p></p>,null,choice,tc,binary,repulsion,2,washing machines,null,null,null,null,null,null,2,NA,NA,NA,NA,NA,NA,NA,NA,NA,NA
NA,NA,NA,NA,NA,choice_trial,survey-html-form,13,93658,0.0-4.0-1.4,210,1,2025-05-05T22:17:46Z,b60275e29fe2361ab97ac0ac217840d7,"Mozilla/5.0 (Macintosh; Intel Mac OS X 10_15_7) AppleWebKit/605.1.15 (KHTML, like Gecko) Version/17.4.1 Safari/605.1.15",Macintosh,Safari,17.4.1,OS X,10_15_7,https://5puzkbbxv1.cognition.run/?sona_id=57656,"en-US,en;q=0.9",3zyyrpbgypf3y0f,21,"[""White""]",No,Female,NA,Yes,413385,NA,8942,NA,"{""product_choice"":""B""}",choice,tc,binary,repulsion,2,washing machines,null,null,null,null,null,null,2,30,40,null,100,90,null,Average lifespan,Energy savings,NA,NA
NA,NA,NA,NA,NA,choice_trial_setup,html-keyboard-response,14,93962,0.0-4.0-0.5,210,1,2025-05-05T22:17:46Z,b60275e29fe2361ab97ac0ac217840d7,"Mozilla/5.0 (Macintosh; Intel Mac OS X 10_15_7) AppleWebKit/605.1.15 (KHTML, like Gecko) Version/17.4.1 Safari/605.1.15",Macintosh,Safari,17.4.1,OS X,10_15_7,https://5puzkbbxv1.cognition.run/?sona_id=57656,"en-US,en;q=0.9",3zyyrpbgypf3y0f,21,"[""White""]",No,Female,NA,Yes,413385,NA,null,<p></p>,null,choice,tc,binary,attraction,NA,washing machines,null,null,null,null,null,null,2,NA,NA,NA,NA,NA,NA,NA,NA,NA,NA
NA,NA,NA,NA,NA,choice_trial,survey-html-form,15,100424,0.0-4.0-1.5,210,1,2025-05-05T22:17:46Z,b60275e29fe2361ab97ac0ac217840d7,"Mozilla/5.0 (Macintosh; Intel Mac OS X 10_15_7) AppleWebKit/605.1.15 (KHTML, like Gecko) Version/17.4.1 Safari/605.1.15",Macintosh,Safari,17.4.1,OS X,10_15_7,https://5puzkbbxv1.cognition.run/?sona_id=57656,"en-US,en;q=0.9",3zyyrpbgypf3y0f,21,"[""White""]",No,Female,NA,Yes,413385,NA,6460,NA,"{""product_choice"":""B""}",choice,tc,binary,attraction,NA,washing machines,null,null,null,null,null,null,2,60,50,null,50,60,null,Average lifespan,Energy savings,NA,NA
NA,NA,NA,NA,NA,choice_trial_setup,html-keyboard-response,16,100727,0.0-4.0-0.6,210,1,2025-05-05T22:17:46Z,b60275e29fe2361ab97ac0ac217840d7,"Mozilla/5.0 (Macintosh; Intel Mac OS X 10_15_7) AppleWebKit/605.1.15 (KHTML, like Gecko) Version/17.4.1 Safari/605.1.15",Macintosh,Safari,17.4.1,OS X,10_15_7,https://5puzkbbxv1.cognition.run/?sona_id=57656,"en-US,en;q=0.9",3zyyrpbgypf3y0f,21,"[""White""]",No,Female,NA,Yes,413385,NA,null,<p></p>,null,choice,ct,binary,repulsion,2,laptops,null,null,null,null,null,null,1,NA,NA,NA,NA,NA,NA,NA,NA,NA,NA
NA,NA,NA,NA,NA,choice_trial,survey-html-form,17,111793,0.0-4.0-1.6,210,1,2025-05-05T22:17:46Z,b60275e29fe2361ab97ac0ac217840d7,"Mozilla/5.0 (Macintosh; Intel Mac OS X 10_15_7) AppleWebKit/605.1.15 (KHTML, like Gecko) Version/17.4.1 Safari/605.1.15",Macintosh,Safari,17.4.1,OS X,10_15_7,https://5puzkbbxv1.cognition.run/?sona_id=57656,"en-US,en;q=0.9",3zyyrpbgypf3y0f,21,"[""White""]",No,Female,NA,Yes,413385,NA,11062,NA,"{""product_choice"":""A""}",choice,ct,binary,repulsion,2,laptops,null,null,null,null,null,null,1,30,40,null,100,90,null,Processing speed,Memory (RAM),NA,NA
NA,NA,NA,NA,NA,choice_trial_setup,html-keyboard-response,18,112096,0.0-4.0-0.7,210,1,2025-05-05T22:17:46Z,b60275e29fe2361ab97ac0ac217840d7,"Mozilla/5.0 (Macintosh; Intel Mac OS X 10_15_7) AppleWebKit/605.1.15 (KHTML, like Gecko) Version/17.4.1 Safari/605.1.15",Macintosh,Safari,17.4.1,OS X,10_15_7,https://5puzkbbxv1.cognition.run/?sona_id=57656,"en-US,en;q=0.9",3zyyrpbgypf3y0f,21,"[""White""]",No,Female,NA,Yes,413385,NA,null,<p></p>,null,choice,tcd,trinary,attraction,1,televisions,null,null,null,null,null,null,2,NA,NA,NA,NA,NA,NA,NA,NA,NA,NA
NA,NA,NA,NA,NA,choice_trial,survey-html-form,19,120208,0.0-4.0-1.7,210,1,2025-05-05T22:17:46Z,b60275e29fe2361ab97ac0ac217840d7,"Mozilla/5.0 (Macintosh; Intel Mac OS X 10_15_7) AppleWebKit/605.1.15 (KHTML, like Gecko) Version/17.4.1 Safari/605.1.15",Macintosh,Safari,17.4.1,OS X,10_15_7,https://5puzkbbxv1.cognition.run/?sona_id=57656,"en-US,en;q=0.9",3zyyrpbgypf3y0f,21,"[""White""]",No,Female,NA,Yes,413385,NA,8108,NA,"{""product_choice"":""B""}",choice,tcd,trinary,attraction,1,televisions,null,null,null,null,null,null,2,60,50,60,50,60,40,Screen size,Average lifespan,NA,NA
NA,NA,NA,NA,NA,choice_trial_setup,html-keyboard-response,20,120511,0.0-4.0-0.8,210,1,2025-05-05T22:17:46Z,b60275e29fe2361ab97ac0ac217840d7,"Mozilla/5.0 (Macintosh; Intel Mac OS X 10_15_7) AppleWebKit/605.1.15 (KHTML, like Gecko) Version/17.4.1 Safari/605.1.15",Macintosh,Safari,17.4.1,OS X,10_15_7,https://5puzkbbxv1.cognition.run/?sona_id=57656,"en-US,en;q=0.9",3zyyrpbgypf3y0f,21,"[""White""]",No,Female,NA,Yes,413385,NA,null,<p></p>,null,choice,wwb,trinary,catch,null,televisions,70,85,40,35,15,15,1,NA,NA,NA,NA,NA,NA,NA,NA,NA,NA
NA,NA,NA,NA,NA,choice_trial,survey-html-form,21,128607,0.0-4.0-1.8,210,1,2025-05-05T22:17:46Z,b60275e29fe2361ab97ac0ac217840d7,"Mozilla/5.0 (Macintosh; Intel Mac OS X 10_15_7) AppleWebKit/605.1.15 (KHTML, like Gecko) Version/17.4.1 Safari/605.1.15",Macintosh,Safari,17.4.1,OS X,10_15_7,https://5puzkbbxv1.cognition.run/?sona_id=57656,"en-US,en;q=0.9",3zyyrpbgypf3y0f,21,"[""White""]",No,Female,NA,Yes,413385,NA,8091,NA,"{""product_choice"":""C""}",choice,wwb,trinary,catch,null,televisions,70,85,40,35,15,15,1,null,null,null,null,null,null,Screen size,Average lifespan,NA,NA
NA,NA,NA,NA,NA,choice_trial_setup,html-keyboard-response,22,128909,0.0-4.0-0.9,210,1,2025-05-05T22:17:46Z,b60275e29fe2361ab97ac0ac217840d7,"Mozilla/5.0 (Macintosh; Intel Mac OS X 10_15_7) AppleWebKit/605.1.15 (KHTML, like Gecko) Version/17.4.1 Safari/605.1.15",Macintosh,Safari,17.4.1,OS X,10_15_7,https://5puzkbbxv1.cognition.run/?sona_id=57656,"en-US,en;q=0.9",3zyyrpbgypf3y0f,21,"[""White""]",No,Female,NA,Yes,413385,NA,null,<p></p>,null,choice,wbw,trinary,catch,null,washing machines,55,70,45,20,35,40,1,NA,NA,NA,NA,NA,NA,NA,NA,NA,NA
NA,NA,NA,NA,NA,choice_trial,survey-html-form,23,135776,0.0-4.0-1.9,210,1,2025-05-05T22:17:46Z,b60275e29fe2361ab97ac0ac217840d7,"Mozilla/5.0 (Macintosh; Intel Mac OS X 10_15_7) AppleWebKit/605.1.15 (KHTML, like Gecko) Version/17.4.1 Safari/605.1.15",Macintosh,Safari,17.4.1,OS X,10_15_7,https://5puzkbbxv1.cognition.run/?sona_id=57656,"en-US,en;q=0.9",3zyyrpbgypf3y0f,21,"[""White""]",No,Female,NA,Yes,413385,NA,6863,NA,"{""product_choice"":""B""}",choice,wbw,trinary,catch,null,washing machines,55,70,45,20,35,40,1,null,null,null,null,null,null,Average lifespan,Energy savings,NA,NA
NA,NA,NA,NA,NA,choice_trial_setup,html-keyboard-response,24,136080,0.0-4.0-0.10,210,1,2025-05-05T22:17:46Z,b60275e29fe2361ab97ac0ac217840d7,"Mozilla/5.0 (Macintosh; Intel Mac OS X 10_15_7) AppleWebKit/605.1.15 (KHTML, like Gecko) Version/17.4.1 Safari/605.1.15",Macintosh,Safari,17.4.1,OS X,10_15_7,https://5puzkbbxv1.cognition.run/?sona_id=57656,"en-US,en;q=0.9",3zyyrpbgypf3y0f,21,"[""White""]",No,Female,NA,Yes,413385,NA,null,<p></p>,null,choice,ctd,trinary,repulsion_B,1,washing machines,null,null,null,null,null,null,1,NA,NA,NA,NA,NA,NA,NA,NA,NA,NA
NA,NA,NA,NA,NA,choice_trial,survey-html-form,25,148791,0.0-4.0-1.10,210,1,2025-05-05T22:17:46Z,b60275e29fe2361ab97ac0ac217840d7,"Mozilla/5.0 (Macintosh; Intel Mac OS X 10_15_7) AppleWebKit/605.1.15 (KHTML, like Gecko) Version/17.4.1 Safari/605.1.15",Macintosh,Safari,17.4.1,OS X,10_15_7,https://5puzkbbxv1.cognition.run/?sona_id=57656,"en-US,en;q=0.9",3zyyrpbgypf3y0f,21,"[""White""]",No,Female,NA,Yes,413385,NA,12709,NA,"{""product_choice"":""B""}",choice,ctd,trinary,repulsion_B,1,washing machines,null,null,null,null,null,null,1,90,100,80,40,30,40,Average lifespan,Energy savings,NA,NA
NA,NA,NA,NA,NA,choice_trial_setup,html-keyboard-response,26,149095,0.0-4.0-0.11,210,1,2025-05-05T22:17:46Z,b60275e29fe2361ab97ac0ac217840d7,"Mozilla/5.0 (Macintosh; Intel Mac OS X 10_15_7) AppleWebKit/605.1.15 (KHTML, like Gecko) Version/17.4.1 Safari/605.1.15",Macintosh,Safari,17.4.1,OS X,10_15_7,https://5puzkbbxv1.cognition.run/?sona_id=57656,"en-US,en;q=0.9",3zyyrpbgypf3y0f,21,"[""White""]",No,Female,NA,Yes,413385,NA,null,<p></p>,null,choice,dct,trinary,attraction,1,microwave ovens,null,null,null,null,null,null,2,NA,NA,NA,NA,NA,NA,NA,NA,NA,NA
NA,NA,NA,NA,NA,choice_trial,survey-html-form,27,160206,0.0-4.0-1.11,210,1,2025-05-05T22:17:46Z,b60275e29fe2361ab97ac0ac217840d7,"Mozilla/5.0 (Macintosh; Intel Mac OS X 10_15_7) AppleWebKit/605.1.15 (KHTML, like Gecko) Version/17.4.1 Safari/605.1.15",Macintosh,Safari,17.4.1,OS X,10_15_7,https://5puzkbbxv1.cognition.run/?sona_id=57656,"en-US,en;q=0.9",3zyyrpbgypf3y0f,21,"[""White""]",No,Female,NA,Yes,413385,NA,11112,NA,"{""product_choice"":""B""}",choice,dct,trinary,attraction,1,microwave ovens,null,null,null,null,null,null,2,60,50,60,50,60,40,Warranty,Cooking power,NA,NA
NA,NA,NA,NA,NA,choice_trial_setup,html-keyboard-response,28,160508,0.0-4.0-0.12,210,1,2025-05-05T22:17:46Z,b60275e29fe2361ab97ac0ac217840d7,"Mozilla/5.0 (Macintosh; Intel Mac OS X 10_15_7) AppleWebKit/605.1.15 (KHTML, like Gecko) Version/17.4.1 Safari/605.1.15",Macintosh,Safari,17.4.1,OS X,10_15_7,https://5puzkbbxv1.cognition.run/?sona_id=57656,"en-US,en;q=0.9",3zyyrpbgypf3y0f,21,"[""White""]",No,Female,NA,Yes,413385,NA,null,<p></p>,null,choice,tcd,trinary,repulsion_A,2,microwave ovens,null,null,null,null,null,null,1,NA,NA,NA,NA,NA,NA,NA,NA,NA,NA
NA,NA,NA,NA,NA,choice_trial,survey-html-form,29,167501,0.0-4.0-1.12,210,1,2025-05-05T22:17:46Z,b60275e29fe2361ab97ac0ac217840d7,"Mozilla/5.0 (Macintosh; Intel Mac OS X 10_15_7) AppleWebKit/605.1.15 (KHTML, like Gecko) Version/17.4.1 Safari/605.1.15",Macintosh,Safari,17.4.1,OS X,10_15_7,https://5puzkbbxv1.cognition.run/?sona_id=57656,"en-US,en;q=0.9",3zyyrpbgypf3y0f,21,"[""White""]",No,Female,NA,Yes,413385,NA,6990,NA,"{""product_choice"":""B""}",choice,tcd,trinary,repulsion_A,2,microwave ovens,null,null,null,null,null,null,1,30,40,20,100,90,100,Warranty,Cooking power,NA,NA
NA,NA,NA,NA,NA,choice_trial_setup,html-keyboard-response,30,167804,0.0-4.0-0.13,210,1,2025-05-05T22:17:46Z,b60275e29fe2361ab97ac0ac217840d7,"Mozilla/5.0 (Macintosh; Intel Mac OS X 10_15_7) AppleWebKit/605.1.15 (KHTML, like Gecko) Version/17.4.1 Safari/605.1.15",Macintosh,Safari,17.4.1,OS X,10_15_7,https://5puzkbbxv1.cognition.run/?sona_id=57656,"en-US,en;q=0.9",3zyyrpbgypf3y0f,21,"[""White""]",No,Female,NA,Yes,413385,NA,null,<p></p>,null,choice,ct,binary,repulsion,2,microwave ovens,null,null,null,null,null,null,2,NA,NA,NA,NA,NA,NA,NA,NA,NA,NA
NA,NA,NA,NA,NA,choice_trial,survey-html-form,31,172167,0.0-4.0-1.13,210,1,2025-05-05T22:17:46Z,b60275e29fe2361ab97ac0ac217840d7,"Mozilla/5.0 (Macintosh; Intel Mac OS X 10_15_7) AppleWebKit/605.1.15 (KHTML, like Gecko) Version/17.4.1 Safari/605.1.15",Macintosh,Safari,17.4.1,OS X,10_15_7,https://5puzkbbxv1.cognition.run/?sona_id=57656,"en-US,en;q=0.9",3zyyrpbgypf3y0f,21,"[""White""]",No,Female,NA,Yes,413385,NA,4359,NA,"{""product_choice"":""A""}",choice,ct,binary,repulsion,2,microwave ovens,null,null,null,null,null,null,2,30,40,null,100,90,null,Warranty,Cooking power,NA,NA
NA,NA,NA,NA,NA,choice_trial_setup,html-keyboard-response,32,172470,0.0-4.0-0.14,210,1,2025-05-05T22:17:46Z,b60275e29fe2361ab97ac0ac217840d7,"Mozilla/5.0 (Macintosh; Intel Mac OS X 10_15_7) AppleWebKit/605.1.15 (KHTML, like Gecko) Version/17.4.1 Safari/605.1.15",Macintosh,Safari,17.4.1,OS X,10_15_7,https://5puzkbbxv1.cognition.run/?sona_id=57656,"en-US,en;q=0.9",3zyyrpbgypf3y0f,21,"[""White""]",No,Female,NA,Yes,413385,NA,null,<p></p>,null,choice,tdc,trinary,repulsion_A,2,televisions,null,null,null,null,null,null,2,NA,NA,NA,NA,NA,NA,NA,NA,NA,NA
NA,NA,NA,NA,NA,choice_trial,survey-html-form,33,178499,0.0-4.0-1.14,210,1,2025-05-05T22:17:46Z,b60275e29fe2361ab97ac0ac217840d7,"Mozilla/5.0 (Macintosh; Intel Mac OS X 10_15_7) AppleWebKit/605.1.15 (KHTML, like Gecko) Version/17.4.1 Safari/605.1.15",Macintosh,Safari,17.4.1,OS X,10_15_7,https://5puzkbbxv1.cognition.run/?sona_id=57656,"en-US,en;q=0.9",3zyyrpbgypf3y0f,21,"[""White""]",No,Female,NA,Yes,413385,NA,6025,NA,"{""product_choice"":""A""}",choice,tdc,trinary,repulsion_A,2,televisions,null,null,null,null,null,null,2,30,40,20,100,90,100,Screen size,Average lifespan,NA,NA
NA,NA,NA,NA,NA,choice_trial_setup,html-keyboard-response,34,178802,0.0-4.0-0.15,210,1,2025-05-05T22:17:46Z,b60275e29fe2361ab97ac0ac217840d7,"Mozilla/5.0 (Macintosh; Intel Mac OS X 10_15_7) AppleWebKit/605.1.15 (KHTML, like Gecko) Version/17.4.1 Safari/605.1.15",Macintosh,Safari,17.4.1,OS X,10_15_7,https://5puzkbbxv1.cognition.run/?sona_id=57656,"en-US,en;q=0.9",3zyyrpbgypf3y0f,21,"[""White""]",No,Female,NA,Yes,413385,NA,null,<p></p>,null,choice,ctd,trinary,repulsion_A,1,microwave ovens,null,null,null,null,null,null,2,NA,NA,NA,NA,NA,NA,NA,NA,NA,NA
NA,NA,NA,NA,NA,choice_trial,survey-html-form,35,184600,0.0-4.0-1.15,210,1,2025-05-05T22:17:46Z,b60275e29fe2361ab97ac0ac217840d7,"Mozilla/5.0 (Macintosh; Intel Mac OS X 10_15_7) AppleWebKit/605.1.15 (KHTML, like Gecko) Version/17.4.1 Safari/605.1.15",Macintosh,Safari,17.4.1,OS X,10_15_7,https://5puzkbbxv1.cognition.run/?sona_id=57656,"en-US,en;q=0.9",3zyyrpbgypf3y0f,21,"[""White""]",No,Female,NA,Yes,413385,NA,5794,NA,"{""product_choice"":""A""}",choice,ctd,trinary,repulsion_A,1,microwave ovens,null,null,null,null,null,null,2,100,90,100,30,40,20,Warranty,Cooking power,NA,NA
NA,NA,NA,NA,NA,choice_trial_setup,html-keyboard-response,36,184904,0.0-4.0-0.16,210,1,2025-05-05T22:17:46Z,b60275e29fe2361ab97ac0ac217840d7,"Mozilla/5.0 (Macintosh; Intel Mac OS X 10_15_7) AppleWebKit/605.1.15 (KHTML, like Gecko) Version/17.4.1 Safari/605.1.15",Macintosh,Safari,17.4.1,OS X,10_15_7,https://5puzkbbxv1.cognition.run/?sona_id=57656,"en-US,en;q=0.9",3zyyrpbgypf3y0f,21,"[""White""]",No,Female,NA,Yes,413385,NA,null,<p></p>,null,choice,tcd,trinary,repulsion_B,2,microwave ovens,null,null,null,null,null,null,1,NA,NA,NA,NA,NA,NA,NA,NA,NA,NA
NA,NA,NA,NA,NA,choice_trial,survey-html-form,37,191117,0.0-4.0-1.16,210,1,2025-05-05T22:17:46Z,b60275e29fe2361ab97ac0ac217840d7,"Mozilla/5.0 (Macintosh; Intel Mac OS X 10_15_7) AppleWebKit/605.1.15 (KHTML, like Gecko) Version/17.4.1 Safari/605.1.15",Macintosh,Safari,17.4.1,OS X,10_15_7,https://5puzkbbxv1.cognition.run/?sona_id=57656,"en-US,en;q=0.9",3zyyrpbgypf3y0f,21,"[""White""]",No,Female,NA,Yes,413385,NA,6207,NA,"{""product_choice"":""A""}",choice,tcd,trinary,repulsion_B,2,microwave ovens,null,null,null,null,null,null,1,40,30,40,90,100,80,Warranty,Cooking power,NA,NA
NA,NA,NA,NA,NA,choice_trial_setup,html-keyboard-response,38,191421,0.0-4.0-0.17,210,1,2025-05-05T22:17:46Z,b60275e29fe2361ab97ac0ac217840d7,"Mozilla/5.0 (Macintosh; Intel Mac OS X 10_15_7) AppleWebKit/605.1.15 (KHTML, like Gecko) Version/17.4.1 Safari/605.1.15",Macintosh,Safari,17.4.1,OS X,10_15_7,https://5puzkbbxv1.cognition.run/?sona_id=57656,"en-US,en;q=0.9",3zyyrpbgypf3y0f,21,"[""White""]",No,Female,NA,Yes,413385,NA,null,<p></p>,null,choice,ct,binary,repulsion,2,televisions,null,null,null,null,null,null,2,NA,NA,NA,NA,NA,NA,NA,NA,NA,NA
NA,NA,NA,NA,NA,choice_trial,survey-html-form,39,195566,0.0-4.0-1.17,210,1,2025-05-05T22:17:46Z,b60275e29fe2361ab97ac0ac217840d7,"Mozilla/5.0 (Macintosh; Intel Mac OS X 10_15_7) AppleWebKit/605.1.15 (KHTML, like Gecko) Version/17.4.1 Safari/605.1.15",Macintosh,Safari,17.4.1,OS X,10_15_7,https://5puzkbbxv1.cognition.run/?sona_id=57656,"en-US,en;q=0.9",3zyyrpbgypf3y0f,21,"[""White""]",No,Female,NA,Yes,413385,NA,4139,NA,"{""product_choice"":""B""}",choice,ct,binary,repulsion,2,televisions,null,null,null,null,null,null,2,30,40,null,100,90,null,Screen size,Average lifespan,NA,NA
NA,NA,NA,NA,NA,choice_trial_setup,html-keyboard-response,40,195869,0.0-4.0-0.18,210,1,2025-05-05T22:17:46Z,b60275e29fe2361ab97ac0ac217840d7,"Mozilla/5.0 (Macintosh; Intel Mac OS X 10_15_7) AppleWebKit/605.1.15 (KHTML, like Gecko) Version/17.4.1 Safari/605.1.15",Macintosh,Safari,17.4.1,OS X,10_15_7,https://5puzkbbxv1.cognition.run/?sona_id=57656,"en-US,en;q=0.9",3zyyrpbgypf3y0f,21,"[""White""]",No,Female,NA,Yes,413385,NA,null,<p></p>,null,choice,dct,trinary,repulsion_A,1,televisions,null,null,null,null,null,null,2,NA,NA,NA,NA,NA,NA,NA,NA,NA,NA
NA,NA,NA,NA,NA,choice_trial,survey-html-form,41,199599,0.0-4.0-1.18,210,1,2025-05-05T22:17:46Z,b60275e29fe2361ab97ac0ac217840d7,"Mozilla/5.0 (Macintosh; Intel Mac OS X 10_15_7) AppleWebKit/605.1.15 (KHTML, like Gecko) Version/17.4.1 Safari/605.1.15",Macintosh,Safari,17.4.1,OS X,10_15_7,https://5puzkbbxv1.cognition.run/?sona_id=57656,"en-US,en;q=0.9",3zyyrpbgypf3y0f,21,"[""White""]",No,Female,NA,Yes,413385,NA,3724,NA,"{""product_choice"":""B""}",choice,dct,trinary,repulsion_A,1,televisions,null,null,null,null,null,null,2,100,90,100,30,40,20,Screen size,Average lifespan,NA,NA
NA,NA,NA,NA,NA,choice_trial_setup,html-keyboard-response,42,199903,0.0-4.0-0.19,210,1,2025-05-05T22:17:46Z,b60275e29fe2361ab97ac0ac217840d7,"Mozilla/5.0 (Macintosh; Intel Mac OS X 10_15_7) AppleWebKit/605.1.15 (KHTML, like Gecko) Version/17.4.1 Safari/605.1.15",Macintosh,Safari,17.4.1,OS X,10_15_7,https://5puzkbbxv1.cognition.run/?sona_id=57656,"en-US,en;q=0.9",3zyyrpbgypf3y0f,21,"[""White""]",No,Female,NA,Yes,413385,NA,null,<p></p>,null,choice,ct,binary,repulsion,1,televisions,null,null,null,null,null,null,2,NA,NA,NA,NA,NA,NA,NA,NA,NA,NA
NA,NA,NA,NA,NA,choice_trial,survey-html-form,43,203148,0.0-4.0-1.19,210,1,2025-05-05T22:17:46Z,b60275e29fe2361ab97ac0ac217840d7,"Mozilla/5.0 (Macintosh; Intel Mac OS X 10_15_7) AppleWebKit/605.1.15 (KHTML, like Gecko) Version/17.4.1 Safari/605.1.15",Macintosh,Safari,17.4.1,OS X,10_15_7,https://5puzkbbxv1.cognition.run/?sona_id=57656,"en-US,en;q=0.9",3zyyrpbgypf3y0f,21,"[""White""]",No,Female,NA,Yes,413385,NA,3240,NA,"{""product_choice"":""A""}",choice,ct,binary,repulsion,1,televisions,null,null,null,null,null,null,2,100,90,null,30,40,null,Screen size,Average lifespan,NA,NA
NA,NA,NA,NA,NA,choice_trial_setup,html-keyboard-response,44,203451,0.0-4.0-0.20,210,1,2025-05-05T22:17:46Z,b60275e29fe2361ab97ac0ac217840d7,"Mozilla/5.0 (Macintosh; Intel Mac OS X 10_15_7) AppleWebKit/605.1.15 (KHTML, like Gecko) Version/17.4.1 Safari/605.1.15",Macintosh,Safari,17.4.1,OS X,10_15_7,https://5puzkbbxv1.cognition.run/?sona_id=57656,"en-US,en;q=0.9",3zyyrpbgypf3y0f,21,"[""White""]",No,Female,NA,Yes,413385,NA,null,<p></p>,null,choice,wbw,trinary,catch,null,microwave ovens,60,55,35,50,30,40,1,NA,NA,NA,NA,NA,NA,NA,NA,NA,NA
NA,NA,NA,NA,NA,choice_trial,survey-html-form,45,209933,0.0-4.0-1.20,210,1,2025-05-05T22:17:46Z,b60275e29fe2361ab97ac0ac217840d7,"Mozilla/5.0 (Macintosh; Intel Mac OS X 10_15_7) AppleWebKit/605.1.15 (KHTML, like Gecko) Version/17.4.1 Safari/605.1.15",Macintosh,Safari,17.4.1,OS X,10_15_7,https://5puzkbbxv1.cognition.run/?sona_id=57656,"en-US,en;q=0.9",3zyyrpbgypf3y0f,21,"[""White""]",No,Female,NA,Yes,413385,NA,6477,NA,"{""product_choice"":""B""}",choice,wbw,trinary,catch,null,microwave ovens,60,55,35,50,30,40,1,null,null,null,null,null,null,Warranty,Cooking power,NA,NA
NA,NA,NA,NA,NA,choice_trial_setup,html-keyboard-response,46,210237,0.0-4.0-0.21,210,1,2025-05-05T22:17:46Z,b60275e29fe2361ab97ac0ac217840d7,"Mozilla/5.0 (Macintosh; Intel Mac OS X 10_15_7) AppleWebKit/605.1.15 (KHTML, like Gecko) Version/17.4.1 Safari/605.1.15",Macintosh,Safari,17.4.1,OS X,10_15_7,https://5puzkbbxv1.cognition.run/?sona_id=57656,"en-US,en;q=0.9",3zyyrpbgypf3y0f,21,"[""White""]",No,Female,NA,Yes,413385,NA,null,<p></p>,null,choice,bw,binary,catch,null,televisions,75,65,35,10,null,null,1,NA,NA,NA,NA,NA,NA,NA,NA,NA,NA
NA,NA,NA,NA,NA,choice_trial,survey-html-form,47,214615,0.0-4.0-1.21,210,1,2025-05-05T22:17:46Z,b60275e29fe2361ab97ac0ac217840d7,"Mozilla/5.0 (Macintosh; Intel Mac OS X 10_15_7) AppleWebKit/605.1.15 (KHTML, like Gecko) Version/17.4.1 Safari/605.1.15",Macintosh,Safari,17.4.1,OS X,10_15_7,https://5puzkbbxv1.cognition.run/?sona_id=57656,"en-US,en;q=0.9",3zyyrpbgypf3y0f,21,"[""White""]",No,Female,NA,Yes,413385,NA,4372,NA,"{""product_choice"":""A""}",choice,bw,binary,catch,null,televisions,75,65,35,10,null,null,1,null,null,null,null,null,null,Screen size,Average lifespan,NA,NA
NA,NA,NA,NA,NA,choice_trial_setup,html-keyboard-response,48,214918,0.0-4.0-0.22,210,1,2025-05-05T22:17:46Z,b60275e29fe2361ab97ac0ac217840d7,"Mozilla/5.0 (Macintosh; Intel Mac OS X 10_15_7) AppleWebKit/605.1.15 (KHTML, like Gecko) Version/17.4.1 Safari/605.1.15",Macintosh,Safari,17.4.1,OS X,10_15_7,https://5puzkbbxv1.cognition.run/?sona_id=57656,"en-US,en;q=0.9",3zyyrpbgypf3y0f,21,"[""White""]",No,Female,NA,Yes,413385,NA,null,<p></p>,null,choice,dct,trinary,repulsion_A,1,laptops,null,null,null,null,null,null,1,NA,NA,NA,NA,NA,NA,NA,NA,NA,NA
NA,NA,NA,NA,NA,choice_trial,survey-html-form,49,224215,0.0-4.0-1.22,210,1,2025-05-05T22:17:46Z,b60275e29fe2361ab97ac0ac217840d7,"Mozilla/5.0 (Macintosh; Intel Mac OS X 10_15_7) AppleWebKit/605.1.15 (KHTML, like Gecko) Version/17.4.1 Safari/605.1.15",Macintosh,Safari,17.4.1,OS X,10_15_7,https://5puzkbbxv1.cognition.run/?sona_id=57656,"en-US,en;q=0.9",3zyyrpbgypf3y0f,21,"[""White""]",No,Female,NA,Yes,413385,NA,9291,NA,"{""product_choice"":""C""}",choice,dct,trinary,repulsion_A,1,laptops,null,null,null,null,null,null,1,100,90,100,30,40,20,Processing speed,Memory (RAM),NA,NA
NA,NA,NA,NA,NA,choice_trial_setup,html-keyboard-response,50,224519,0.0-4.0-0.23,210,1,2025-05-05T22:17:46Z,b60275e29fe2361ab97ac0ac217840d7,"Mozilla/5.0 (Macintosh; Intel Mac OS X 10_15_7) AppleWebKit/605.1.15 (KHTML, like Gecko) Version/17.4.1 Safari/605.1.15",Macintosh,Safari,17.4.1,OS X,10_15_7,https://5puzkbbxv1.cognition.run/?sona_id=57656,"en-US,en;q=0.9",3zyyrpbgypf3y0f,21,"[""White""]",No,Female,NA,Yes,413385,NA,null,<p></p>,null,choice,cdt,trinary,repulsion_B,1,televisions,null,null,null,null,null,null,1,NA,NA,NA,NA,NA,NA,NA,NA,NA,NA
NA,NA,NA,NA,NA,choice_trial,survey-html-form,51,230514,0.0-4.0-1.23,210,1,2025-05-05T22:17:46Z,b60275e29fe2361ab97ac0ac217840d7,"Mozilla/5.0 (Macintosh; Intel Mac OS X 10_15_7) AppleWebKit/605.1.15 (KHTML, like Gecko) Version/17.4.1 Safari/605.1.15",Macintosh,Safari,17.4.1,OS X,10_15_7,https://5puzkbbxv1.cognition.run/?sona_id=57656,"en-US,en;q=0.9",3zyyrpbgypf3y0f,21,"[""White""]",No,Female,NA,Yes,413385,NA,5991,NA,"{""product_choice"":""C""}",choice,cdt,trinary,repulsion_B,1,televisions,null,null,null,null,null,null,1,90,100,80,40,30,40,Screen size,Average lifespan,NA,NA
NA,NA,NA,NA,NA,choice_trial_setup,html-keyboard-response,52,230818,0.0-4.0-0.24,210,1,2025-05-05T22:17:46Z,b60275e29fe2361ab97ac0ac217840d7,"Mozilla/5.0 (Macintosh; Intel Mac OS X 10_15_7) AppleWebKit/605.1.15 (KHTML, like Gecko) Version/17.4.1 Safari/605.1.15",Macintosh,Safari,17.4.1,OS X,10_15_7,https://5puzkbbxv1.cognition.run/?sona_id=57656,"en-US,en;q=0.9",3zyyrpbgypf3y0f,21,"[""White""]",No,Female,NA,Yes,413385,NA,null,<p></p>,null,choice,ct,binary,attraction,NA,microwave ovens,null,null,null,null,null,null,1,NA,NA,NA,NA,NA,NA,NA,NA,NA,NA
NA,NA,NA,NA,NA,choice_trial,survey-html-form,53,236464,0.0-4.0-1.24,210,1,2025-05-05T22:17:46Z,b60275e29fe2361ab97ac0ac217840d7,"Mozilla/5.0 (Macintosh; Intel Mac OS X 10_15_7) AppleWebKit/605.1.15 (KHTML, like Gecko) Version/17.4.1 Safari/605.1.15",Macintosh,Safari,17.4.1,OS X,10_15_7,https://5puzkbbxv1.cognition.run/?sona_id=57656,"en-US,en;q=0.9",3zyyrpbgypf3y0f,21,"[""White""]",No,Female,NA,Yes,413385,NA,5640,NA,"{""product_choice"":""A""}",choice,ct,binary,attraction,NA,microwave ovens,null,null,null,null,null,null,1,60,50,null,50,60,null,Warranty,Cooking power,NA,NA
NA,NA,NA,NA,NA,choice_trial_setup,html-keyboard-response,54,236768,0.0-4.0-0.25,210,1,2025-05-05T22:17:46Z,b60275e29fe2361ab97ac0ac217840d7,"Mozilla/5.0 (Macintosh; Intel Mac OS X 10_15_7) AppleWebKit/605.1.15 (KHTML, like Gecko) Version/17.4.1 Safari/605.1.15",Macintosh,Safari,17.4.1,OS X,10_15_7,https://5puzkbbxv1.cognition.run/?sona_id=57656,"en-US,en;q=0.9",3zyyrpbgypf3y0f,21,"[""White""]",No,Female,NA,Yes,413385,NA,null,<p></p>,null,choice,ctd,trinary,repulsion_B,2,washing machines,null,null,null,null,null,null,2,NA,NA,NA,NA,NA,NA,NA,NA,NA,NA
NA,NA,NA,NA,NA,choice_trial,survey-html-form,55,240915,0.0-4.0-1.25,210,1,2025-05-05T22:17:46Z,b60275e29fe2361ab97ac0ac217840d7,"Mozilla/5.0 (Macintosh; Intel Mac OS X 10_15_7) AppleWebKit/605.1.15 (KHTML, like Gecko) Version/17.4.1 Safari/605.1.15",Macintosh,Safari,17.4.1,OS X,10_15_7,https://5puzkbbxv1.cognition.run/?sona_id=57656,"en-US,en;q=0.9",3zyyrpbgypf3y0f,21,"[""White""]",No,Female,NA,Yes,413385,NA,4142,NA,"{""product_choice"":""B""}",choice,ctd,trinary,repulsion_B,2,washing machines,null,null,null,null,null,null,2,40,30,40,90,100,80,Average lifespan,Energy savings,NA,NA
NA,NA,NA,NA,NA,choice_trial_setup,html-keyboard-response,56,241218,0.0-4.0-0.26,210,1,2025-05-05T22:17:46Z,b60275e29fe2361ab97ac0ac217840d7,"Mozilla/5.0 (Macintosh; Intel Mac OS X 10_15_7) AppleWebKit/605.1.15 (KHTML, like Gecko) Version/17.4.1 Safari/605.1.15",Macintosh,Safari,17.4.1,OS X,10_15_7,https://5puzkbbxv1.cognition.run/?sona_id=57656,"en-US,en;q=0.9",3zyyrpbgypf3y0f,21,"[""White""]",No,Female,NA,Yes,413385,NA,null,<p></p>,null,choice,bw,binary,catch,null,washing machines,50,55,15,10,null,null,2,NA,NA,NA,NA,NA,NA,NA,NA,NA,NA
NA,NA,NA,NA,NA,choice_trial,survey-html-form,57,245747,0.0-4.0-1.26,210,1,2025-05-05T22:17:46Z,b60275e29fe2361ab97ac0ac217840d7,"Mozilla/5.0 (Macintosh; Intel Mac OS X 10_15_7) AppleWebKit/605.1.15 (KHTML, like Gecko) Version/17.4.1 Safari/605.1.15",Macintosh,Safari,17.4.1,OS X,10_15_7,https://5puzkbbxv1.cognition.run/?sona_id=57656,"en-US,en;q=0.9",3zyyrpbgypf3y0f,21,"[""White""]",No,Female,NA,Yes,413385,NA,4523,NA,"{""product_choice"":""A""}",choice,bw,binary,catch,null,washing machines,50,55,15,10,null,null,2,null,null,null,null,null,null,Average lifespan,Energy savings,NA,NA
NA,NA,NA,NA,NA,choice_trial_setup,html-keyboard-response,58,246052,0.0-4.0-0.27,210,1,2025-05-05T22:17:46Z,b60275e29fe2361ab97ac0ac217840d7,"Mozilla/5.0 (Macintosh; Intel Mac OS X 10_15_7) AppleWebKit/605.1.15 (KHTML, like Gecko) Version/17.4.1 Safari/605.1.15",Macintosh,Safari,17.4.1,OS X,10_15_7,https://5puzkbbxv1.cognition.run/?sona_id=57656,"en-US,en;q=0.9",3zyyrpbgypf3y0f,21,"[""White""]",No,Female,NA,Yes,413385,NA,null,<p></p>,null,choice,tcd,trinary,repulsion_B,1,microwave ovens,null,null,null,null,null,null,1,NA,NA,NA,NA,NA,NA,NA,NA,NA,NA
NA,NA,NA,NA,NA,choice_trial,survey-html-form,59,252398,0.0-4.0-1.27,210,1,2025-05-05T22:17:46Z,b60275e29fe2361ab97ac0ac217840d7,"Mozilla/5.0 (Macintosh; Intel Mac OS X 10_15_7) AppleWebKit/605.1.15 (KHTML, like Gecko) Version/17.4.1 Safari/605.1.15",Macintosh,Safari,17.4.1,OS X,10_15_7,https://5puzkbbxv1.cognition.run/?sona_id=57656,"en-US,en;q=0.9",3zyyrpbgypf3y0f,21,"[""White""]",No,Female,NA,Yes,413385,NA,6340,NA,"{""product_choice"":""A""}",choice,tcd,trinary,repulsion_B,1,microwave ovens,null,null,null,null,null,null,1,90,100,80,40,30,40,Warranty,Cooking power,NA,NA
NA,NA,NA,NA,NA,choice_trial_setup,html-keyboard-response,60,252702,0.0-4.0-0.28,210,1,2025-05-05T22:17:46Z,b60275e29fe2361ab97ac0ac217840d7,"Mozilla/5.0 (Macintosh; Intel Mac OS X 10_15_7) AppleWebKit/605.1.15 (KHTML, like Gecko) Version/17.4.1 Safari/605.1.15",Macintosh,Safari,17.4.1,OS X,10_15_7,https://5puzkbbxv1.cognition.run/?sona_id=57656,"en-US,en;q=0.9",3zyyrpbgypf3y0f,21,"[""White""]",No,Female,NA,Yes,413385,NA,null,<p></p>,null,choice,ctd,trinary,repulsion_B,2,televisions,null,null,null,null,null,null,2,NA,NA,NA,NA,NA,NA,NA,NA,NA,NA
NA,NA,NA,NA,NA,choice_trial,survey-html-form,61,261431,0.0-4.0-1.28,210,1,2025-05-05T22:17:46Z,b60275e29fe2361ab97ac0ac217840d7,"Mozilla/5.0 (Macintosh; Intel Mac OS X 10_15_7) AppleWebKit/605.1.15 (KHTML, like Gecko) Version/17.4.1 Safari/605.1.15",Macintosh,Safari,17.4.1,OS X,10_15_7,https://5puzkbbxv1.cognition.run/?sona_id=57656,"en-US,en;q=0.9",3zyyrpbgypf3y0f,21,"[""White""]",No,Female,NA,Yes,413385,NA,8723,NA,"{""product_choice"":""A""}",choice,ctd,trinary,repulsion_B,2,televisions,null,null,null,null,null,null,2,40,30,40,90,100,80,Screen size,Average lifespan,NA,NA
NA,NA,NA,NA,NA,choice_trial_setup,html-keyboard-response,62,261735,0.0-4.0-0.29,210,1,2025-05-05T22:17:46Z,b60275e29fe2361ab97ac0ac217840d7,"Mozilla/5.0 (Macintosh; Intel Mac OS X 10_15_7) AppleWebKit/605.1.15 (KHTML, like Gecko) Version/17.4.1 Safari/605.1.15",Macintosh,Safari,17.4.1,OS X,10_15_7,https://5puzkbbxv1.cognition.run/?sona_id=57656,"en-US,en;q=0.9",3zyyrpbgypf3y0f,21,"[""White""]",No,Female,NA,Yes,413385,NA,null,<p></p>,null,choice,tcd,trinary,attraction,2,washing machines,null,null,null,null,null,null,1,NA,NA,NA,NA,NA,NA,NA,NA,NA,NA
NA,NA,NA,NA,NA,choice_trial,survey-html-form,63,267997,0.0-4.0-1.29,210,1,2025-05-05T22:17:46Z,b60275e29fe2361ab97ac0ac217840d7,"Mozilla/5.0 (Macintosh; Intel Mac OS X 10_15_7) AppleWebKit/605.1.15 (KHTML, like Gecko) Version/17.4.1 Safari/605.1.15",Macintosh,Safari,17.4.1,OS X,10_15_7,https://5puzkbbxv1.cognition.run/?sona_id=57656,"en-US,en;q=0.9",3zyyrpbgypf3y0f,21,"[""White""]",No,Female,NA,Yes,413385,NA,6256,NA,"{""product_choice"":""B""}",choice,tcd,trinary,attraction,2,washing machines,null,null,null,null,null,null,1,50,60,40,60,50,60,Average lifespan,Energy savings,NA,NA
NA,NA,NA,NA,NA,choice_trial_setup,html-keyboard-response,64,268301,0.0-4.0-0.30,210,1,2025-05-05T22:17:46Z,b60275e29fe2361ab97ac0ac217840d7,"Mozilla/5.0 (Macintosh; Intel Mac OS X 10_15_7) AppleWebKit/605.1.15 (KHTML, like Gecko) Version/17.4.1 Safari/605.1.15",Macintosh,Safari,17.4.1,OS X,10_15_7,https://5puzkbbxv1.cognition.run/?sona_id=57656,"en-US,en;q=0.9",3zyyrpbgypf3y0f,21,"[""White""]",No,Female,NA,Yes,413385,NA,null,<p></p>,null,choice,tc,binary,attraction,NA,laptops,null,null,null,null,null,null,1,NA,NA,NA,NA,NA,NA,NA,NA,NA,NA
NA,NA,NA,NA,NA,choice_trial,survey-html-form,65,272814,0.0-4.0-1.30,210,1,2025-05-05T22:17:46Z,b60275e29fe2361ab97ac0ac217840d7,"Mozilla/5.0 (Macintosh; Intel Mac OS X 10_15_7) AppleWebKit/605.1.15 (KHTML, like Gecko) Version/17.4.1 Safari/605.1.15",Macintosh,Safari,17.4.1,OS X,10_15_7,https://5puzkbbxv1.cognition.run/?sona_id=57656,"en-US,en;q=0.9",3zyyrpbgypf3y0f,21,"[""White""]",No,Female,NA,Yes,413385,NA,4507,NA,"{""product_choice"":""A""}",choice,tc,binary,attraction,NA,laptops,null,null,null,null,null,null,1,60,50,null,50,60,null,Processing speed,Memory (RAM),NA,NA
NA,NA,NA,NA,NA,choice_trial_setup,html-keyboard-response,66,273118,0.0-4.0-0.31,210,1,2025-05-05T22:17:46Z,b60275e29fe2361ab97ac0ac217840d7,"Mozilla/5.0 (Macintosh; Intel Mac OS X 10_15_7) AppleWebKit/605.1.15 (KHTML, like Gecko) Version/17.4.1 Safari/605.1.15",Macintosh,Safari,17.4.1,OS X,10_15_7,https://5puzkbbxv1.cognition.run/?sona_id=57656,"en-US,en;q=0.9",3zyyrpbgypf3y0f,21,"[""White""]",No,Female,NA,Yes,413385,NA,null,<p></p>,null,choice,dtc,trinary,attraction,2,microwave ovens,null,null,null,null,null,null,2,NA,NA,NA,NA,NA,NA,NA,NA,NA,NA
NA,NA,NA,NA,NA,choice_trial,survey-html-form,67,278347,0.0-4.0-1.31,210,1,2025-05-05T22:17:46Z,b60275e29fe2361ab97ac0ac217840d7,"Mozilla/5.0 (Macintosh; Intel Mac OS X 10_15_7) AppleWebKit/605.1.15 (KHTML, like Gecko) Version/17.4.1 Safari/605.1.15",Macintosh,Safari,17.4.1,OS X,10_15_7,https://5puzkbbxv1.cognition.run/?sona_id=57656,"en-US,en;q=0.9",3zyyrpbgypf3y0f,21,"[""White""]",No,Female,NA,Yes,413385,NA,5222,NA,"{""product_choice"":""B""}",choice,dtc,trinary,attraction,2,microwave ovens,null,null,null,null,null,null,2,50,60,40,60,50,60,Warranty,Cooking power,NA,NA
NA,NA,NA,NA,NA,choice_trial_setup,html-keyboard-response,68,278651,0.0-4.0-0.32,210,1,2025-05-05T22:17:46Z,b60275e29fe2361ab97ac0ac217840d7,"Mozilla/5.0 (Macintosh; Intel Mac OS X 10_15_7) AppleWebKit/605.1.15 (KHTML, like Gecko) Version/17.4.1 Safari/605.1.15",Macintosh,Safari,17.4.1,OS X,10_15_7,https://5puzkbbxv1.cognition.run/?sona_id=57656,"en-US,en;q=0.9",3zyyrpbgypf3y0f,21,"[""White""]",No,Female,NA,Yes,413385,NA,null,<p></p>,null,choice,bw,binary,catch,null,laptops,80,85,15,15,null,null,2,NA,NA,NA,NA,NA,NA,NA,NA,NA,NA
NA,NA,NA,NA,NA,choice_trial,survey-html-form,69,283199,0.0-4.0-1.32,210,1,2025-05-05T22:17:46Z,b60275e29fe2361ab97ac0ac217840d7,"Mozilla/5.0 (Macintosh; Intel Mac OS X 10_15_7) AppleWebKit/605.1.15 (KHTML, like Gecko) Version/17.4.1 Safari/605.1.15",Macintosh,Safari,17.4.1,OS X,10_15_7,https://5puzkbbxv1.cognition.run/?sona_id=57656,"en-US,en;q=0.9",3zyyrpbgypf3y0f,21,"[""White""]",No,Female,NA,Yes,413385,NA,4541,NA,"{""product_choice"":""A""}",choice,bw,binary,catch,null,laptops,80,85,15,15,null,null,2,null,null,null,null,null,null,Processing speed,Memory (RAM),NA,NA
NA,NA,NA,NA,NA,choice_trial_setup,html-keyboard-response,70,283505,0.0-4.0-0.33,210,1,2025-05-05T22:17:46Z,b60275e29fe2361ab97ac0ac217840d7,"Mozilla/5.0 (Macintosh; Intel Mac OS X 10_15_7) AppleWebKit/605.1.15 (KHTML, like Gecko) Version/17.4.1 Safari/605.1.15",Macintosh,Safari,17.4.1,OS X,10_15_7,https://5puzkbbxv1.cognition.run/?sona_id=57656,"en-US,en;q=0.9",3zyyrpbgypf3y0f,21,"[""White""]",No,Female,NA,Yes,413385,NA,null,<p></p>,null,choice,dtc,trinary,repulsion_A,2,washing machines,null,null,null,null,null,null,1,NA,NA,NA,NA,NA,NA,NA,NA,NA,NA
NA,NA,NA,NA,NA,choice_trial,survey-html-form,71,289199,0.0-4.0-1.33,210,1,2025-05-05T22:17:46Z,b60275e29fe2361ab97ac0ac217840d7,"Mozilla/5.0 (Macintosh; Intel Mac OS X 10_15_7) AppleWebKit/605.1.15 (KHTML, like Gecko) Version/17.4.1 Safari/605.1.15",Macintosh,Safari,17.4.1,OS X,10_15_7,https://5puzkbbxv1.cognition.run/?sona_id=57656,"en-US,en;q=0.9",3zyyrpbgypf3y0f,21,"[""White""]",No,Female,NA,Yes,413385,NA,5688,NA,"{""product_choice"":""C""}",choice,dtc,trinary,repulsion_A,2,washing machines,null,null,null,null,null,null,1,30,40,20,100,90,100,Average lifespan,Energy savings,NA,NA
NA,NA,NA,NA,NA,choice_trial_setup,html-keyboard-response,72,289503,0.0-4.0-0.34,210,1,2025-05-05T22:17:46Z,b60275e29fe2361ab97ac0ac217840d7,"Mozilla/5.0 (Macintosh; Intel Mac OS X 10_15_7) AppleWebKit/605.1.15 (KHTML, like Gecko) Version/17.4.1 Safari/605.1.15",Macintosh,Safari,17.4.1,OS X,10_15_7,https://5puzkbbxv1.cognition.run/?sona_id=57656,"en-US,en;q=0.9",3zyyrpbgypf3y0f,21,"[""White""]",No,Female,NA,Yes,413385,NA,null,<p></p>,null,choice,ct,binary,repulsion,1,laptops,null,null,null,null,null,null,1,NA,NA,NA,NA,NA,NA,NA,NA,NA,NA
NA,NA,NA,NA,NA,choice_trial,survey-html-form,73,293748,0.0-4.0-1.34,210,1,2025-05-05T22:17:46Z,b60275e29fe2361ab97ac0ac217840d7,"Mozilla/5.0 (Macintosh; Intel Mac OS X 10_15_7) AppleWebKit/605.1.15 (KHTML, like Gecko) Version/17.4.1 Safari/605.1.15",Macintosh,Safari,17.4.1,OS X,10_15_7,https://5puzkbbxv1.cognition.run/?sona_id=57656,"en-US,en;q=0.9",3zyyrpbgypf3y0f,21,"[""White""]",No,Female,NA,Yes,413385,NA,4238,NA,"{""product_choice"":""A""}",choice,ct,binary,repulsion,1,laptops,null,null,null,null,null,null,1,100,90,null,30,40,null,Processing speed,Memory (RAM),NA,NA
NA,NA,NA,NA,NA,choice_trial_setup,html-keyboard-response,74,294053,0.0-4.0-0.35,210,1,2025-05-05T22:17:46Z,b60275e29fe2361ab97ac0ac217840d7,"Mozilla/5.0 (Macintosh; Intel Mac OS X 10_15_7) AppleWebKit/605.1.15 (KHTML, like Gecko) Version/17.4.1 Safari/605.1.15",Macintosh,Safari,17.4.1,OS X,10_15_7,https://5puzkbbxv1.cognition.run/?sona_id=57656,"en-US,en;q=0.9",3zyyrpbgypf3y0f,21,"[""White""]",No,Female,NA,Yes,413385,NA,null,<p></p>,null,choice,bww,trinary,catch,null,laptops,80,50,10,40,50,35,2,NA,NA,NA,NA,NA,NA,NA,NA,NA,NA
NA,NA,NA,NA,NA,choice_trial,survey-html-form,75,300648,0.0-4.0-1.35,210,1,2025-05-05T22:17:46Z,b60275e29fe2361ab97ac0ac217840d7,"Mozilla/5.0 (Macintosh; Intel Mac OS X 10_15_7) AppleWebKit/605.1.15 (KHTML, like Gecko) Version/17.4.1 Safari/605.1.15",Macintosh,Safari,17.4.1,OS X,10_15_7,https://5puzkbbxv1.cognition.run/?sona_id=57656,"en-US,en;q=0.9",3zyyrpbgypf3y0f,21,"[""White""]",No,Female,NA,Yes,413385,NA,6590,NA,"{""product_choice"":""A""}",choice,bww,trinary,catch,null,laptops,80,50,10,40,50,35,2,null,null,null,null,null,null,Processing speed,Memory (RAM),NA,NA
NA,NA,NA,NA,NA,choice_trial_setup,html-keyboard-response,76,300953,0.0-4.0-0.36,210,1,2025-05-05T22:17:46Z,b60275e29fe2361ab97ac0ac217840d7,"Mozilla/5.0 (Macintosh; Intel Mac OS X 10_15_7) AppleWebKit/605.1.15 (KHTML, like Gecko) Version/17.4.1 Safari/605.1.15",Macintosh,Safari,17.4.1,OS X,10_15_7,https://5puzkbbxv1.cognition.run/?sona_id=57656,"en-US,en;q=0.9",3zyyrpbgypf3y0f,21,"[""White""]",No,Female,NA,Yes,413385,NA,null,<p></p>,null,choice,ctd,trinary,repulsion_A,1,washing machines,null,null,null,null,null,null,1,NA,NA,NA,NA,NA,NA,NA,NA,NA,NA
NA,NA,NA,NA,NA,choice_trial,survey-html-form,77,305864,0.0-4.0-1.36,210,1,2025-05-05T22:17:46Z,b60275e29fe2361ab97ac0ac217840d7,"Mozilla/5.0 (Macintosh; Intel Mac OS X 10_15_7) AppleWebKit/605.1.15 (KHTML, like Gecko) Version/17.4.1 Safari/605.1.15",Macintosh,Safari,17.4.1,OS X,10_15_7,https://5puzkbbxv1.cognition.run/?sona_id=57656,"en-US,en;q=0.9",3zyyrpbgypf3y0f,21,"[""White""]",No,Female,NA,Yes,413385,NA,4906,NA,"{""product_choice"":""A""}",choice,ctd,trinary,repulsion_A,1,washing machines,null,null,null,null,null,null,1,100,90,100,30,40,20,Average lifespan,Energy savings,NA,NA
NA,NA,NA,NA,NA,choice_trial_setup,html-keyboard-response,78,306168,0.0-4.0-0.37,210,1,2025-05-05T22:17:46Z,b60275e29fe2361ab97ac0ac217840d7,"Mozilla/5.0 (Macintosh; Intel Mac OS X 10_15_7) AppleWebKit/605.1.15 (KHTML, like Gecko) Version/17.4.1 Safari/605.1.15",Macintosh,Safari,17.4.1,OS X,10_15_7,https://5puzkbbxv1.cognition.run/?sona_id=57656,"en-US,en;q=0.9",3zyyrpbgypf3y0f,21,"[""White""]",No,Female,NA,Yes,413385,NA,null,<p></p>,null,choice,wb,binary,catch,null,microwave ovens,75,65,45,10,null,null,2,NA,NA,NA,NA,NA,NA,NA,NA,NA,NA
NA,NA,NA,NA,NA,choice_trial,survey-html-form,79,310798,0.0-4.0-1.37,210,1,2025-05-05T22:17:46Z,b60275e29fe2361ab97ac0ac217840d7,"Mozilla/5.0 (Macintosh; Intel Mac OS X 10_15_7) AppleWebKit/605.1.15 (KHTML, like Gecko) Version/17.4.1 Safari/605.1.15",Macintosh,Safari,17.4.1,OS X,10_15_7,https://5puzkbbxv1.cognition.run/?sona_id=57656,"en-US,en;q=0.9",3zyyrpbgypf3y0f,21,"[""White""]",No,Female,NA,Yes,413385,NA,4624,NA,"{""product_choice"":""B""}",choice,wb,binary,catch,null,microwave ovens,75,65,45,10,null,null,2,null,null,null,null,null,null,Warranty,Cooking power,NA,NA
NA,NA,NA,NA,NA,choice_trial_setup,html-keyboard-response,80,311103,0.0-4.0-0.38,210,1,2025-05-05T22:17:46Z,b60275e29fe2361ab97ac0ac217840d7,"Mozilla/5.0 (Macintosh; Intel Mac OS X 10_15_7) AppleWebKit/605.1.15 (KHTML, like Gecko) Version/17.4.1 Safari/605.1.15",Macintosh,Safari,17.4.1,OS X,10_15_7,https://5puzkbbxv1.cognition.run/?sona_id=57656,"en-US,en;q=0.9",3zyyrpbgypf3y0f,21,"[""White""]",No,Female,NA,Yes,413385,NA,null,<p></p>,null,choice,tcd,trinary,attraction,2,televisions,null,null,null,null,null,null,2,NA,NA,NA,NA,NA,NA,NA,NA,NA,NA
NA,NA,NA,NA,NA,choice_trial,survey-html-form,81,316480,0.0-4.0-1.38,210,1,2025-05-05T22:17:46Z,b60275e29fe2361ab97ac0ac217840d7,"Mozilla/5.0 (Macintosh; Intel Mac OS X 10_15_7) AppleWebKit/605.1.15 (KHTML, like Gecko) Version/17.4.1 Safari/605.1.15",Macintosh,Safari,17.4.1,OS X,10_15_7,https://5puzkbbxv1.cognition.run/?sona_id=57656,"en-US,en;q=0.9",3zyyrpbgypf3y0f,21,"[""White""]",No,Female,NA,Yes,413385,NA,5372,NA,"{""product_choice"":""A""}",choice,tcd,trinary,attraction,2,televisions,null,null,null,null,null,null,2,50,60,40,60,50,60,Screen size,Average lifespan,NA,NA
NA,NA,NA,NA,NA,choice_trial_setup,html-keyboard-response,82,316784,0.0-4.0-0.39,210,1,2025-05-05T22:17:46Z,b60275e29fe2361ab97ac0ac217840d7,"Mozilla/5.0 (Macintosh; Intel Mac OS X 10_15_7) AppleWebKit/605.1.15 (KHTML, like Gecko) Version/17.4.1 Safari/605.1.15",Macintosh,Safari,17.4.1,OS X,10_15_7,https://5puzkbbxv1.cognition.run/?sona_id=57656,"en-US,en;q=0.9",3zyyrpbgypf3y0f,21,"[""White""]",No,Female,NA,Yes,413385,NA,null,<p></p>,null,choice,tdc,trinary,attraction,1,washing machines,null,null,null,null,null,null,1,NA,NA,NA,NA,NA,NA,NA,NA,NA,NA
NA,NA,NA,NA,NA,choice_trial,survey-html-form,83,325048,0.0-4.0-1.39,210,1,2025-05-05T22:17:46Z,b60275e29fe2361ab97ac0ac217840d7,"Mozilla/5.0 (Macintosh; Intel Mac OS X 10_15_7) AppleWebKit/605.1.15 (KHTML, like Gecko) Version/17.4.1 Safari/605.1.15",Macintosh,Safari,17.4.1,OS X,10_15_7,https://5puzkbbxv1.cognition.run/?sona_id=57656,"en-US,en;q=0.9",3zyyrpbgypf3y0f,21,"[""White""]",No,Female,NA,Yes,413385,NA,8257,NA,"{""product_choice"":""A""}",choice,tdc,trinary,attraction,1,washing machines,null,null,null,null,null,null,1,60,50,60,50,60,40,Average lifespan,Energy savings,NA,NA
NA,NA,NA,NA,NA,choice_trial_setup,html-keyboard-response,84,325352,0.0-4.0-0.40,210,1,2025-05-05T22:17:46Z,b60275e29fe2361ab97ac0ac217840d7,"Mozilla/5.0 (Macintosh; Intel Mac OS X 10_15_7) AppleWebKit/605.1.15 (KHTML, like Gecko) Version/17.4.1 Safari/605.1.15",Macintosh,Safari,17.4.1,OS X,10_15_7,https://5puzkbbxv1.cognition.run/?sona_id=57656,"en-US,en;q=0.9",3zyyrpbgypf3y0f,21,"[""White""]",No,Female,NA,Yes,413385,NA,null,<p></p>,null,choice,tc,binary,repulsion,1,washing machines,null,null,null,null,null,null,1,NA,NA,NA,NA,NA,NA,NA,NA,NA,NA
NA,NA,NA,NA,NA,choice_trial,survey-html-form,85,329914,0.0-4.0-1.40,210,1,2025-05-05T22:17:46Z,b60275e29fe2361ab97ac0ac217840d7,"Mozilla/5.0 (Macintosh; Intel Mac OS X 10_15_7) AppleWebKit/605.1.15 (KHTML, like Gecko) Version/17.4.1 Safari/605.1.15",Macintosh,Safari,17.4.1,OS X,10_15_7,https://5puzkbbxv1.cognition.run/?sona_id=57656,"en-US,en;q=0.9",3zyyrpbgypf3y0f,21,"[""White""]",No,Female,NA,Yes,413385,NA,4556,NA,"{""product_choice"":""B""}",choice,tc,binary,repulsion,1,washing machines,null,null,null,null,null,null,1,100,90,null,30,40,null,Average lifespan,Energy savings,NA,NA
NA,NA,NA,NA,NA,choice_trial_setup,html-keyboard-response,86,330219,0.0-4.0-0.41,210,1,2025-05-05T22:17:46Z,b60275e29fe2361ab97ac0ac217840d7,"Mozilla/5.0 (Macintosh; Intel Mac OS X 10_15_7) AppleWebKit/605.1.15 (KHTML, like Gecko) Version/17.4.1 Safari/605.1.15",Macintosh,Safari,17.4.1,OS X,10_15_7,https://5puzkbbxv1.cognition.run/?sona_id=57656,"en-US,en;q=0.9",3zyyrpbgypf3y0f,21,"[""White""]",No,Female,NA,Yes,413385,NA,null,<p></p>,null,choice,tc,binary,repulsion,1,microwave ovens,null,null,null,null,null,null,1,NA,NA,NA,NA,NA,NA,NA,NA,NA,NA
NA,NA,NA,NA,NA,choice_trial,survey-html-form,87,334630,0.0-4.0-1.41,210,1,2025-05-05T22:17:46Z,b60275e29fe2361ab97ac0ac217840d7,"Mozilla/5.0 (Macintosh; Intel Mac OS X 10_15_7) AppleWebKit/605.1.15 (KHTML, like Gecko) Version/17.4.1 Safari/605.1.15",Macintosh,Safari,17.4.1,OS X,10_15_7,https://5puzkbbxv1.cognition.run/?sona_id=57656,"en-US,en;q=0.9",3zyyrpbgypf3y0f,21,"[""White""]",No,Female,NA,Yes,413385,NA,4405,NA,"{""product_choice"":""B""}",choice,tc,binary,repulsion,1,microwave ovens,null,null,null,null,null,null,1,100,90,null,30,40,null,Warranty,Cooking power,NA,NA
NA,NA,NA,NA,NA,choice_trial_setup,html-keyboard-response,88,334935,0.0-4.0-0.42,210,1,2025-05-05T22:17:46Z,b60275e29fe2361ab97ac0ac217840d7,"Mozilla/5.0 (Macintosh; Intel Mac OS X 10_15_7) AppleWebKit/605.1.15 (KHTML, like Gecko) Version/17.4.1 Safari/605.1.15",Macintosh,Safari,17.4.1,OS X,10_15_7,https://5puzkbbxv1.cognition.run/?sona_id=57656,"en-US,en;q=0.9",3zyyrpbgypf3y0f,21,"[""White""]",No,Female,NA,Yes,413385,NA,null,<p></p>,null,choice,dct,trinary,repulsion_A,2,laptops,null,null,null,null,null,null,2,NA,NA,NA,NA,NA,NA,NA,NA,NA,NA
NA,NA,NA,NA,NA,choice_trial,survey-html-form,89,338830,0.0-4.0-1.42,210,1,2025-05-05T22:17:46Z,b60275e29fe2361ab97ac0ac217840d7,"Mozilla/5.0 (Macintosh; Intel Mac OS X 10_15_7) AppleWebKit/605.1.15 (KHTML, like Gecko) Version/17.4.1 Safari/605.1.15",Macintosh,Safari,17.4.1,OS X,10_15_7,https://5puzkbbxv1.cognition.run/?sona_id=57656,"en-US,en;q=0.9",3zyyrpbgypf3y0f,21,"[""White""]",No,Female,NA,Yes,413385,NA,3888,NA,"{""product_choice"":""B""}",choice,dct,trinary,repulsion_A,2,laptops,null,null,null,null,null,null,2,30,40,20,100,90,100,Processing speed,Memory (RAM),NA,NA
NA,NA,NA,NA,NA,choice_trial_setup,html-keyboard-response,90,339134,0.0-4.0-0.43,210,1,2025-05-05T22:17:46Z,b60275e29fe2361ab97ac0ac217840d7,"Mozilla/5.0 (Macintosh; Intel Mac OS X 10_15_7) AppleWebKit/605.1.15 (KHTML, like Gecko) Version/17.4.1 Safari/605.1.15",Macintosh,Safari,17.4.1,OS X,10_15_7,https://5puzkbbxv1.cognition.run/?sona_id=57656,"en-US,en;q=0.9",3zyyrpbgypf3y0f,21,"[""White""]",No,Female,NA,Yes,413385,NA,null,<p></p>,null,choice,ct,binary,attraction,NA,televisions,null,null,null,null,null,null,2,NA,NA,NA,NA,NA,NA,NA,NA,NA,NA
NA,NA,NA,NA,NA,choice_trial,survey-html-form,91,343230,0.0-4.0-1.43,210,1,2025-05-05T22:17:46Z,b60275e29fe2361ab97ac0ac217840d7,"Mozilla/5.0 (Macintosh; Intel Mac OS X 10_15_7) AppleWebKit/605.1.15 (KHTML, like Gecko) Version/17.4.1 Safari/605.1.15",Macintosh,Safari,17.4.1,OS X,10_15_7,https://5puzkbbxv1.cognition.run/?sona_id=57656,"en-US,en;q=0.9",3zyyrpbgypf3y0f,21,"[""White""]",No,Female,NA,Yes,413385,NA,4090,NA,"{""product_choice"":""A""}",choice,ct,binary,attraction,NA,televisions,null,null,null,null,null,null,2,60,50,null,50,60,null,Screen size,Average lifespan,NA,NA
NA,NA,NA,NA,NA,post_trials_message,html-button-response,92,344597,0.0-5.0,210,1,2025-05-05T22:17:46Z,b60275e29fe2361ab97ac0ac217840d7,"Mozilla/5.0 (Macintosh; Intel Mac OS X 10_15_7) AppleWebKit/605.1.15 (KHTML, like Gecko) Version/17.4.1 Safari/605.1.15",Macintosh,Safari,17.4.1,OS X,10_15_7,https://5puzkbbxv1.cognition.run/?sona_id=57656,"en-US,en;q=0.9",3zyyrpbgypf3y0f,21,"[""White""]",No,Female,NA,Yes,413385,NA,1361,<p> <b>Thank you for your patience!</b></p><p>  The study will be done after completing a brief form. </p>,0,NA,NA,NA,NA,NA,NA,NA,NA,NA,NA,NA,NA,NA,NA,NA,NA,NA,NA,NA,NA,NA,NA,NA
NA,NA,NA,NA,NA,survey_message,survey-text,93,383998,0.0-6.0,210,1,2025-05-05T22:17:46Z,b60275e29fe2361ab97ac0ac217840d7,"Mozilla/5.0 (Macintosh; Intel Mac OS X 10_15_7) AppleWebKit/605.1.15 (KHTML, like Gecko) Version/17.4.1 Safari/605.1.15",Macintosh,Safari,17.4.1,OS X,10_15_7,https://5puzkbbxv1.cognition.run/?sona_id=57656,"en-US,en;q=0.9",3zyyrpbgypf3y0f,21,"[""White""]",No,Female,NA,Yes,413385,NA,39388,NA,"{""Q0"":""I thought of getting the best life span, cooking power, and speed to get the best for what I was \""paying for\"".""}",NA,NA,NA,NA,NA,NA,NA,NA,NA,NA,NA,NA,NA,NA,NA,NA,NA,NA,NA,NA,NA,"I thought of getting the best life span, cooking power, and speed to get the best for what I was ""paying for"".",NA
NA,NA,NA,NA,NA,demo_age,survey-text,94,387197,0.0-7.0,210,1,2025-05-05T22:17:46Z,b60275e29fe2361ab97ac0ac217840d7,"Mozilla/5.0 (Macintosh; Intel Mac OS X 10_15_7) AppleWebKit/605.1.15 (KHTML, like Gecko) Version/17.4.1 Safari/605.1.15",Macintosh,Safari,17.4.1,OS X,10_15_7,https://5puzkbbxv1.cognition.run/?sona_id=57656,"en-US,en;q=0.9",3zyyrpbgypf3y0f,21,"[""White""]",No,Female,NA,Yes,413385,NA,3191,NA,"{""Q0"":""21""}",NA,NA,NA,NA,NA,NA,NA,NA,NA,NA,NA,NA,NA,NA,NA,NA,NA,NA,NA,NA,NA,NA,NA
NA,NA,NA,NA,NA,demo_race,survey-multi-select,95,389682,0.0-8.0,210,1,2025-05-05T22:17:46Z,b60275e29fe2361ab97ac0ac217840d7,"Mozilla/5.0 (Macintosh; Intel Mac OS X 10_15_7) AppleWebKit/605.1.15 (KHTML, like Gecko) Version/17.4.1 Safari/605.1.15",Macintosh,Safari,17.4.1,OS X,10_15_7,https://5puzkbbxv1.cognition.run/?sona_id=57656,"en-US,en;q=0.9",3zyyrpbgypf3y0f,21,"[""White""]",No,Female,NA,Yes,413385,NA,2479,NA,"{""Q0"":[""White""]}",NA,NA,NA,NA,NA,NA,NA,NA,NA,NA,NA,NA,NA,NA,NA,NA,NA,NA,NA,NA,NA,NA,[0]
NA,NA,NA,NA,NA,demo_ethnicity_gender,survey-multi-choice,96,393631,0.0-9.0,210,1,2025-05-05T22:17:46Z,b60275e29fe2361ab97ac0ac217840d7,"Mozilla/5.0 (Macintosh; Intel Mac OS X 10_15_7) AppleWebKit/605.1.15 (KHTML, like Gecko) Version/17.4.1 Safari/605.1.15",Macintosh,Safari,17.4.1,OS X,10_15_7,https://5puzkbbxv1.cognition.run/?sona_id=57656,"en-US,en;q=0.9",3zyyrpbgypf3y0f,21,"[""White""]",No,Female,NA,Yes,413385,NA,3943,NA,"{""Q0"":""No"",""Q1"":""Female""}",NA,NA,NA,NA,NA,NA,NA,NA,NA,NA,NA,NA,NA,NA,NA,NA,NA,NA,NA,NA,NA,NA,"[0,1]"
NA,NA,NA,NA,NA,demo_countries,survey-text,97,399463,0.0-10.0,210,1,2025-05-05T22:17:46Z,b60275e29fe2361ab97ac0ac217840d7,"Mozilla/5.0 (Macintosh; Intel Mac OS X 10_15_7) AppleWebKit/605.1.15 (KHTML, like Gecko) Version/17.4.1 Safari/605.1.15",Macintosh,Safari,17.4.1,OS X,10_15_7,https://5puzkbbxv1.cognition.run/?sona_id=57656,"en-US,en;q=0.9",3zyyrpbgypf3y0f,21,"[""White""]",No,Female,NA,Yes,413385,NA,5828,NA,"{""Q0"":""NA""}",NA,NA,NA,NA,NA,NA,NA,NA,NA,NA,NA,NA,NA,NA,NA,NA,NA,NA,NA,NA,NA,NA,NA
NA,NA,NA,NA,NA,demo_prev_study,survey-multi-choice,98,405013,0.0-11.0,210,1,2025-05-05T22:17:46Z,b60275e29fe2361ab97ac0ac217840d7,"Mozilla/5.0 (Macintosh; Intel Mac OS X 10_15_7) AppleWebKit/605.1.15 (KHTML, like Gecko) Version/17.4.1 Safari/605.1.15",Macintosh,Safari,17.4.1,OS X,10_15_7,https://5puzkbbxv1.cognition.run/?sona_id=57656,"en-US,en;q=0.9",3zyyrpbgypf3y0f,21,"[""White""]",No,Female,NA,Yes,413385,NA,5546,NA,"{""Q0"":""Yes""}",NA,NA,NA,NA,NA,NA,NA,NA,NA,NA,NA,NA,NA,NA,NA,NA,NA,NA,NA,NA,NA,NA,[0]
NA,NA,NA,NA,NA,post_survey_message,html-keyboard-response,99,410010,0.0-12.0,210,1,2025-05-05T22:17:46Z,b60275e29fe2361ab97ac0ac217840d7,"Mozilla/5.0 (Macintosh; Intel Mac OS X 10_15_7) AppleWebKit/605.1.15 (KHTML, like Gecko) Version/17.4.1 Safari/605.1.15",Macintosh,Safari,17.4.1,OS X,10_15_7,https://5puzkbbxv1.cognition.run/?sona_id=57656,"en-US,en;q=0.9",3zyyrpbgypf3y0f,21,"[""White""]",No,Female,NA,Yes,413385,NA,4992,NA,j,NA,NA,NA,NA,NA,NA,NA,NA,NA,NA,NA,NA,NA,NA,NA,NA,NA,NA,NA,NA,NA,NA,NA
NA,NA,NA,NA,NA,debrief,image-keyboard-response,100,413353,0.0-13.0,210,1,2025-05-05T22:17:46Z,b60275e29fe2361ab97ac0ac217840d7,"Mozilla/5.0 (Macintosh; Intel Mac OS X 10_15_7) AppleWebKit/605.1.15 (KHTML, like Gecko) Version/17.4.1 Safari/605.1.15",Macintosh,Safari,17.4.1,OS X,10_15_7,https://5puzkbbxv1.cognition.run/?sona_id=57656,"en-US,en;q=0.9",3zyyrpbgypf3y0f,21,"[""White""]",No,Female,NA,Yes,413385,NA,3311,Judg_choice_debrief.png,p,NA,NA,NA,NA,NA,NA,NA,NA,NA,NA,NA,NA,NA,NA,NA,NA,NA,NA,NA,NA,NA,NA,NA
