success,timeout,failed_images,failed_audio,failed_video,screen_id,trial_type,trial_index,time_elapsed,internal_node_id,run_id,condition,recorded_at,source_code_version,user_agent,device,browser,browser_version,platform,platform_version,referer,accept_language,ppt_id,age,race,ethnicity,gender,other_countries,prev_study,exp_duration,view_history,rt,stimulus,response,phase,order,set,effect,t_high,category,d1_best,d2_best,d1_worst1,d2_worst1,d1_worst2,d2_worst2,first_dim,d1_t,d1_c,d1_d,d2_t,d2_c,d2_d,d1_name,d2_name,strategy_response,question_order
TRUE,FALSE,[],[],[],img preload,preload,0,326,0.0-0.0,211,1,2025-05-05T22:51:28Z,b60275e29fe2361ab97ac0ac217840d7,"Mozilla/5.0 (Macintosh; Intel Mac OS X 10_15_7) AppleWebKit/537.36 (KHTML, like Gecko) Chrome/122.0.0.0 Safari/537.36",Macintosh,Chrome,122.0.0.0,OS X,10_15_7,https://5puzkbbxv1.cognition.run/?sona_id=51129,"en-US,en;q=0.9",g3q7bzl9kx5vj1k,20,"[""White""]",No,Female,"NA
",No,395874,NA,NA,NA,NA,NA,NA,NA,NA,NA,NA,NA,NA,NA,NA,NA,NA,NA,NA,NA,NA,NA,NA,NA,NA,NA,NA,NA
NA,NA,NA,NA,NA,computer_message,instructions,1,2217,0.0-1.0,211,1,2025-05-05T22:51:28Z,b60275e29fe2361ab97ac0ac217840d7,"Mozilla/5.0 (Macintosh; Intel Mac OS X 10_15_7) AppleWebKit/537.36 (KHTML, like Gecko) Chrome/122.0.0.0 Safari/537.36",Macintosh,Chrome,122.0.0.0,OS X,10_15_7,https://5puzkbbxv1.cognition.run/?sona_id=51129,"en-US,en;q=0.9",g3q7bzl9kx5vj1k,20,"[""White""]",No,Female,"NA
",No,395874,"[{""page_index"":0,""viewing_time"":1890}]",1890,NA,NA,NA,NA,NA,NA,NA,NA,NA,NA,NA,NA,NA,NA,NA,NA,NA,NA,NA,NA,NA,NA,NA,NA,NA
TRUE,NA,NA,NA,NA,NA,fullscreen,2,5371,0.0-2.0,211,1,2025-05-05T22:51:28Z,b60275e29fe2361ab97ac0ac217840d7,"Mozilla/5.0 (Macintosh; Intel Mac OS X 10_15_7) AppleWebKit/537.36 (KHTML, like Gecko) Chrome/122.0.0.0 Safari/537.36",Macintosh,Chrome,122.0.0.0,OS X,10_15_7,https://5puzkbbxv1.cognition.run/?sona_id=51129,"en-US,en;q=0.9",g3q7bzl9kx5vj1k,20,"[""White""]",No,Female,"NA
",No,395874,NA,2148,NA,NA,NA,NA,NA,NA,NA,NA,NA,NA,NA,NA,NA,NA,NA,NA,NA,NA,NA,NA,NA,NA,NA,NA,NA
NA,NA,NA,NA,NA,choice_instructions,instructions,3,43500,0.0-3.0,211,1,2025-05-05T22:51:28Z,b60275e29fe2361ab97ac0ac217840d7,"Mozilla/5.0 (Macintosh; Intel Mac OS X 10_15_7) AppleWebKit/537.36 (KHTML, like Gecko) Chrome/122.0.0.0 Safari/537.36",Macintosh,Chrome,122.0.0.0,OS X,10_15_7,https://5puzkbbxv1.cognition.run/?sona_id=51129,"en-US,en;q=0.9",g3q7bzl9kx5vj1k,20,"[""White""]",No,Female,"NA
",No,395874,"[{""page_index"":0,""viewing_time"":1628},{""page_index"":1,""viewing_time"":3200},{""page_index"":2,""viewing_time"":4534},{""page_index"":3,""viewing_time"":4684},{""page_index"":4,""viewing_time"":2817},{""page_index"":5,""viewing_time"":16750},{""page_index"":6,""viewing_time"":4517}]",38129,NA,NA,NA,NA,NA,NA,NA,NA,NA,NA,NA,NA,NA,NA,NA,NA,NA,NA,NA,NA,NA,NA,NA,NA,NA
NA,NA,NA,NA,NA,choice_trial_setup,html-keyboard-response,4,43807,0.0-4.0-0.0,211,1,2025-05-05T22:51:28Z,b60275e29fe2361ab97ac0ac217840d7,"Mozilla/5.0 (Macintosh; Intel Mac OS X 10_15_7) AppleWebKit/537.36 (KHTML, like Gecko) Chrome/122.0.0.0 Safari/537.36",Macintosh,Chrome,122.0.0.0,OS X,10_15_7,https://5puzkbbxv1.cognition.run/?sona_id=51129,"en-US,en;q=0.9",g3q7bzl9kx5vj1k,20,"[""White""]",No,Female,"NA
",No,395874,NA,null,<p></p>,null,choice,bw,binary,catch,null,televisions,60,55,30,5,null,null,1,NA,NA,NA,NA,NA,NA,NA,NA,NA,NA
NA,NA,NA,NA,NA,choice_trial,survey-html-form,5,49236,0.0-4.0-1.0,211,1,2025-05-05T22:51:28Z,b60275e29fe2361ab97ac0ac217840d7,"Mozilla/5.0 (Macintosh; Intel Mac OS X 10_15_7) AppleWebKit/537.36 (KHTML, like Gecko) Chrome/122.0.0.0 Safari/537.36",Macintosh,Chrome,122.0.0.0,OS X,10_15_7,https://5puzkbbxv1.cognition.run/?sona_id=51129,"en-US,en;q=0.9",g3q7bzl9kx5vj1k,20,"[""White""]",No,Female,"NA
",No,395874,NA,5421,NA,"{""product_choice"":""A""}",choice,bw,binary,catch,null,televisions,60,55,30,5,null,null,1,null,null,null,null,null,null,Screen size,Average lifespan,NA,NA
NA,NA,NA,NA,NA,choice_trial_setup,html-keyboard-response,6,49539,0.0-4.0-0.1,211,1,2025-05-05T22:51:28Z,b60275e29fe2361ab97ac0ac217840d7,"Mozilla/5.0 (Macintosh; Intel Mac OS X 10_15_7) AppleWebKit/537.36 (KHTML, like Gecko) Chrome/122.0.0.0 Safari/537.36",Macintosh,Chrome,122.0.0.0,OS X,10_15_7,https://5puzkbbxv1.cognition.run/?sona_id=51129,"en-US,en;q=0.9",g3q7bzl9kx5vj1k,20,"[""White""]",No,Female,"NA
",No,395874,NA,null,<p></p>,null,choice,wwb,trinary,catch,null,televisions,90,60,5,35,5,10,1,NA,NA,NA,NA,NA,NA,NA,NA,NA,NA
NA,NA,NA,NA,NA,choice_trial,survey-html-form,7,55583,0.0-4.0-1.1,211,1,2025-05-05T22:51:28Z,b60275e29fe2361ab97ac0ac217840d7,"Mozilla/5.0 (Macintosh; Intel Mac OS X 10_15_7) AppleWebKit/537.36 (KHTML, like Gecko) Chrome/122.0.0.0 Safari/537.36",Macintosh,Chrome,122.0.0.0,OS X,10_15_7,https://5puzkbbxv1.cognition.run/?sona_id=51129,"en-US,en;q=0.9",g3q7bzl9kx5vj1k,20,"[""White""]",No,Female,"NA
",No,395874,NA,6040,NA,"{""product_choice"":""C""}",choice,wwb,trinary,catch,null,televisions,90,60,5,35,5,10,1,null,null,null,null,null,null,Screen size,Average lifespan,NA,NA
NA,NA,NA,NA,NA,choice_trial_setup,html-keyboard-response,8,55887,0.0-4.0-0.2,211,1,2025-05-05T22:51:28Z,b60275e29fe2361ab97ac0ac217840d7,"Mozilla/5.0 (Macintosh; Intel Mac OS X 10_15_7) AppleWebKit/537.36 (KHTML, like Gecko) Chrome/122.0.0.0 Safari/537.36",Macintosh,Chrome,122.0.0.0,OS X,10_15_7,https://5puzkbbxv1.cognition.run/?sona_id=51129,"en-US,en;q=0.9",g3q7bzl9kx5vj1k,20,"[""White""]",No,Female,"NA
",No,395874,NA,null,<p></p>,null,choice,tc,binary,repulsion,1,washing machines,null,null,null,null,null,null,1,NA,NA,NA,NA,NA,NA,NA,NA,NA,NA
NA,NA,NA,NA,NA,choice_trial,survey-html-form,9,68266,0.0-4.0-1.2,211,1,2025-05-05T22:51:28Z,b60275e29fe2361ab97ac0ac217840d7,"Mozilla/5.0 (Macintosh; Intel Mac OS X 10_15_7) AppleWebKit/537.36 (KHTML, like Gecko) Chrome/122.0.0.0 Safari/537.36",Macintosh,Chrome,122.0.0.0,OS X,10_15_7,https://5puzkbbxv1.cognition.run/?sona_id=51129,"en-US,en;q=0.9",g3q7bzl9kx5vj1k,20,"[""White""]",No,Female,"NA
",No,395874,NA,12376,NA,"{""product_choice"":""B""}",choice,tc,binary,repulsion,1,washing machines,null,null,null,null,null,null,1,100,90,null,30,40,null,Average lifespan,Energy savings,NA,NA
NA,NA,NA,NA,NA,choice_trial_setup,html-keyboard-response,10,68569,0.0-4.0-0.3,211,1,2025-05-05T22:51:28Z,b60275e29fe2361ab97ac0ac217840d7,"Mozilla/5.0 (Macintosh; Intel Mac OS X 10_15_7) AppleWebKit/537.36 (KHTML, like Gecko) Chrome/122.0.0.0 Safari/537.36",Macintosh,Chrome,122.0.0.0,OS X,10_15_7,https://5puzkbbxv1.cognition.run/?sona_id=51129,"en-US,en;q=0.9",g3q7bzl9kx5vj1k,20,"[""White""]",No,Female,"NA
",No,395874,NA,null,<p></p>,null,choice,bw,binary,catch,null,laptops,75,65,40,45,null,null,1,NA,NA,NA,NA,NA,NA,NA,NA,NA,NA
NA,NA,NA,NA,NA,choice_trial,survey-html-form,11,74166,0.0-4.0-1.3,211,1,2025-05-05T22:51:28Z,b60275e29fe2361ab97ac0ac217840d7,"Mozilla/5.0 (Macintosh; Intel Mac OS X 10_15_7) AppleWebKit/537.36 (KHTML, like Gecko) Chrome/122.0.0.0 Safari/537.36",Macintosh,Chrome,122.0.0.0,OS X,10_15_7,https://5puzkbbxv1.cognition.run/?sona_id=51129,"en-US,en;q=0.9",g3q7bzl9kx5vj1k,20,"[""White""]",No,Female,"NA
",No,395874,NA,5593,NA,"{""product_choice"":""A""}",choice,bw,binary,catch,null,laptops,75,65,40,45,null,null,1,null,null,null,null,null,null,Processing speed,Memory (RAM),NA,NA
NA,NA,NA,NA,NA,choice_trial_setup,html-keyboard-response,12,74469,0.0-4.0-0.4,211,1,2025-05-05T22:51:28Z,b60275e29fe2361ab97ac0ac217840d7,"Mozilla/5.0 (Macintosh; Intel Mac OS X 10_15_7) AppleWebKit/537.36 (KHTML, like Gecko) Chrome/122.0.0.0 Safari/537.36",Macintosh,Chrome,122.0.0.0,OS X,10_15_7,https://5puzkbbxv1.cognition.run/?sona_id=51129,"en-US,en;q=0.9",g3q7bzl9kx5vj1k,20,"[""White""]",No,Female,"NA
",No,395874,NA,null,<p></p>,null,choice,dct,trinary,attraction,1,microwave ovens,null,null,null,null,null,null,1,NA,NA,NA,NA,NA,NA,NA,NA,NA,NA
NA,NA,NA,NA,NA,choice_trial,survey-html-form,13,87083,0.0-4.0-1.4,211,1,2025-05-05T22:51:28Z,b60275e29fe2361ab97ac0ac217840d7,"Mozilla/5.0 (Macintosh; Intel Mac OS X 10_15_7) AppleWebKit/537.36 (KHTML, like Gecko) Chrome/122.0.0.0 Safari/537.36",Macintosh,Chrome,122.0.0.0,OS X,10_15_7,https://5puzkbbxv1.cognition.run/?sona_id=51129,"en-US,en;q=0.9",g3q7bzl9kx5vj1k,20,"[""White""]",No,Female,"NA
",No,395874,NA,12611,NA,"{""product_choice"":""B""}",choice,dct,trinary,attraction,1,microwave ovens,null,null,null,null,null,null,1,60,50,60,50,60,40,Warranty,Cooking power,NA,NA
NA,NA,NA,NA,NA,choice_trial_setup,html-keyboard-response,14,87389,0.0-4.0-0.5,211,1,2025-05-05T22:51:28Z,b60275e29fe2361ab97ac0ac217840d7,"Mozilla/5.0 (Macintosh; Intel Mac OS X 10_15_7) AppleWebKit/537.36 (KHTML, like Gecko) Chrome/122.0.0.0 Safari/537.36",Macintosh,Chrome,122.0.0.0,OS X,10_15_7,https://5puzkbbxv1.cognition.run/?sona_id=51129,"en-US,en;q=0.9",g3q7bzl9kx5vj1k,20,"[""White""]",No,Female,"NA
",No,395874,NA,null,<p></p>,null,choice,tdc,trinary,repulsion_B,2,televisions,null,null,null,null,null,null,1,NA,NA,NA,NA,NA,NA,NA,NA,NA,NA
NA,NA,NA,NA,NA,choice_trial,survey-html-form,15,95199,0.0-4.0-1.5,211,1,2025-05-05T22:51:28Z,b60275e29fe2361ab97ac0ac217840d7,"Mozilla/5.0 (Macintosh; Intel Mac OS X 10_15_7) AppleWebKit/537.36 (KHTML, like Gecko) Chrome/122.0.0.0 Safari/537.36",Macintosh,Chrome,122.0.0.0,OS X,10_15_7,https://5puzkbbxv1.cognition.run/?sona_id=51129,"en-US,en;q=0.9",g3q7bzl9kx5vj1k,20,"[""White""]",No,Female,"NA
",No,395874,NA,7805,NA,"{""product_choice"":""A""}",choice,tdc,trinary,repulsion_B,2,televisions,null,null,null,null,null,null,1,40,30,40,90,100,80,Screen size,Average lifespan,NA,NA
NA,NA,NA,NA,NA,choice_trial_setup,html-keyboard-response,16,95502,0.0-4.0-0.6,211,1,2025-05-05T22:51:28Z,b60275e29fe2361ab97ac0ac217840d7,"Mozilla/5.0 (Macintosh; Intel Mac OS X 10_15_7) AppleWebKit/537.36 (KHTML, like Gecko) Chrome/122.0.0.0 Safari/537.36",Macintosh,Chrome,122.0.0.0,OS X,10_15_7,https://5puzkbbxv1.cognition.run/?sona_id=51129,"en-US,en;q=0.9",g3q7bzl9kx5vj1k,20,"[""White""]",No,Female,"NA
",No,395874,NA,null,<p></p>,null,choice,tc,binary,repulsion,2,laptops,null,null,null,null,null,null,1,NA,NA,NA,NA,NA,NA,NA,NA,NA,NA
NA,NA,NA,NA,NA,choice_trial,survey-html-form,17,100866,0.0-4.0-1.6,211,1,2025-05-05T22:51:28Z,b60275e29fe2361ab97ac0ac217840d7,"Mozilla/5.0 (Macintosh; Intel Mac OS X 10_15_7) AppleWebKit/537.36 (KHTML, like Gecko) Chrome/122.0.0.0 Safari/537.36",Macintosh,Chrome,122.0.0.0,OS X,10_15_7,https://5puzkbbxv1.cognition.run/?sona_id=51129,"en-US,en;q=0.9",g3q7bzl9kx5vj1k,20,"[""White""]",No,Female,"NA
",No,395874,NA,5360,NA,"{""product_choice"":""B""}",choice,tc,binary,repulsion,2,laptops,null,null,null,null,null,null,1,30,40,null,100,90,null,Processing speed,Memory (RAM),NA,NA
NA,NA,NA,NA,NA,choice_trial_setup,html-keyboard-response,18,101169,0.0-4.0-0.7,211,1,2025-05-05T22:51:28Z,b60275e29fe2361ab97ac0ac217840d7,"Mozilla/5.0 (Macintosh; Intel Mac OS X 10_15_7) AppleWebKit/537.36 (KHTML, like Gecko) Chrome/122.0.0.0 Safari/537.36",Macintosh,Chrome,122.0.0.0,OS X,10_15_7,https://5puzkbbxv1.cognition.run/?sona_id=51129,"en-US,en;q=0.9",g3q7bzl9kx5vj1k,20,"[""White""]",No,Female,"NA
",No,395874,NA,null,<p></p>,null,choice,ct,binary,attraction,NA,televisions,null,null,null,null,null,null,1,NA,NA,NA,NA,NA,NA,NA,NA,NA,NA
NA,NA,NA,NA,NA,choice_trial,survey-html-form,19,107566,0.0-4.0-1.7,211,1,2025-05-05T22:51:28Z,b60275e29fe2361ab97ac0ac217840d7,"Mozilla/5.0 (Macintosh; Intel Mac OS X 10_15_7) AppleWebKit/537.36 (KHTML, like Gecko) Chrome/122.0.0.0 Safari/537.36",Macintosh,Chrome,122.0.0.0,OS X,10_15_7,https://5puzkbbxv1.cognition.run/?sona_id=51129,"en-US,en;q=0.9",g3q7bzl9kx5vj1k,20,"[""White""]",No,Female,"NA
",No,395874,NA,6394,NA,"{""product_choice"":""A""}",choice,ct,binary,attraction,NA,televisions,null,null,null,null,null,null,1,60,50,null,50,60,null,Screen size,Average lifespan,NA,NA
NA,NA,NA,NA,NA,choice_trial_setup,html-keyboard-response,20,107870,0.0-4.0-0.8,211,1,2025-05-05T22:51:28Z,b60275e29fe2361ab97ac0ac217840d7,"Mozilla/5.0 (Macintosh; Intel Mac OS X 10_15_7) AppleWebKit/537.36 (KHTML, like Gecko) Chrome/122.0.0.0 Safari/537.36",Macintosh,Chrome,122.0.0.0,OS X,10_15_7,https://5puzkbbxv1.cognition.run/?sona_id=51129,"en-US,en;q=0.9",g3q7bzl9kx5vj1k,20,"[""White""]",No,Female,"NA
",No,395874,NA,null,<p></p>,null,choice,cdt,trinary,attraction,2,laptops,null,null,null,null,null,null,1,NA,NA,NA,NA,NA,NA,NA,NA,NA,NA
NA,NA,NA,NA,NA,choice_trial,survey-html-form,21,117984,0.0-4.0-1.8,211,1,2025-05-05T22:51:28Z,b60275e29fe2361ab97ac0ac217840d7,"Mozilla/5.0 (Macintosh; Intel Mac OS X 10_15_7) AppleWebKit/537.36 (KHTML, like Gecko) Chrome/122.0.0.0 Safari/537.36",Macintosh,Chrome,122.0.0.0,OS X,10_15_7,https://5puzkbbxv1.cognition.run/?sona_id=51129,"en-US,en;q=0.9",g3q7bzl9kx5vj1k,20,"[""White""]",No,Female,"NA
",No,395874,NA,10109,NA,"{""product_choice"":""A""}",choice,cdt,trinary,attraction,2,laptops,null,null,null,null,null,null,1,50,60,40,60,50,60,Processing speed,Memory (RAM),NA,NA
NA,NA,NA,NA,NA,choice_trial_setup,html-keyboard-response,22,118288,0.0-4.0-0.9,211,1,2025-05-05T22:51:28Z,b60275e29fe2361ab97ac0ac217840d7,"Mozilla/5.0 (Macintosh; Intel Mac OS X 10_15_7) AppleWebKit/537.36 (KHTML, like Gecko) Chrome/122.0.0.0 Safari/537.36",Macintosh,Chrome,122.0.0.0,OS X,10_15_7,https://5puzkbbxv1.cognition.run/?sona_id=51129,"en-US,en;q=0.9",g3q7bzl9kx5vj1k,20,"[""White""]",No,Female,"NA
",No,395874,NA,null,<p></p>,null,choice,tcd,trinary,repulsion_A,1,washing machines,null,null,null,null,null,null,1,NA,NA,NA,NA,NA,NA,NA,NA,NA,NA
NA,NA,NA,NA,NA,choice_trial,survey-html-form,23,124449,0.0-4.0-1.9,211,1,2025-05-05T22:51:28Z,b60275e29fe2361ab97ac0ac217840d7,"Mozilla/5.0 (Macintosh; Intel Mac OS X 10_15_7) AppleWebKit/537.36 (KHTML, like Gecko) Chrome/122.0.0.0 Safari/537.36",Macintosh,Chrome,122.0.0.0,OS X,10_15_7,https://5puzkbbxv1.cognition.run/?sona_id=51129,"en-US,en;q=0.9",g3q7bzl9kx5vj1k,20,"[""White""]",No,Female,"NA
",No,395874,NA,6156,NA,"{""product_choice"":""A""}",choice,tcd,trinary,repulsion_A,1,washing machines,null,null,null,null,null,null,1,100,90,100,30,40,20,Average lifespan,Energy savings,NA,NA
NA,NA,NA,NA,NA,choice_trial_setup,html-keyboard-response,24,124753,0.0-4.0-0.10,211,1,2025-05-05T22:51:28Z,b60275e29fe2361ab97ac0ac217840d7,"Mozilla/5.0 (Macintosh; Intel Mac OS X 10_15_7) AppleWebKit/537.36 (KHTML, like Gecko) Chrome/122.0.0.0 Safari/537.36",Macintosh,Chrome,122.0.0.0,OS X,10_15_7,https://5puzkbbxv1.cognition.run/?sona_id=51129,"en-US,en;q=0.9",g3q7bzl9kx5vj1k,20,"[""White""]",No,Female,"NA
",No,395874,NA,null,<p></p>,null,choice,wwb,trinary,catch,null,microwave ovens,65,90,40,45,45,5,2,NA,NA,NA,NA,NA,NA,NA,NA,NA,NA
NA,NA,NA,NA,NA,choice_trial,survey-html-form,25,132166,0.0-4.0-1.10,211,1,2025-05-05T22:51:28Z,b60275e29fe2361ab97ac0ac217840d7,"Mozilla/5.0 (Macintosh; Intel Mac OS X 10_15_7) AppleWebKit/537.36 (KHTML, like Gecko) Chrome/122.0.0.0 Safari/537.36",Macintosh,Chrome,122.0.0.0,OS X,10_15_7,https://5puzkbbxv1.cognition.run/?sona_id=51129,"en-US,en;q=0.9",g3q7bzl9kx5vj1k,20,"[""White""]",No,Female,"NA
",No,395874,NA,7407,NA,"{""product_choice"":""C""}",choice,wwb,trinary,catch,null,microwave ovens,65,90,40,45,45,5,2,null,null,null,null,null,null,Warranty,Cooking power,NA,NA
NA,NA,NA,NA,NA,choice_trial_setup,html-keyboard-response,26,132470,0.0-4.0-0.11,211,1,2025-05-05T22:51:28Z,b60275e29fe2361ab97ac0ac217840d7,"Mozilla/5.0 (Macintosh; Intel Mac OS X 10_15_7) AppleWebKit/537.36 (KHTML, like Gecko) Chrome/122.0.0.0 Safari/537.36",Macintosh,Chrome,122.0.0.0,OS X,10_15_7,https://5puzkbbxv1.cognition.run/?sona_id=51129,"en-US,en;q=0.9",g3q7bzl9kx5vj1k,20,"[""White""]",No,Female,"NA
",No,395874,NA,null,<p></p>,null,choice,ctd,trinary,attraction,2,televisions,null,null,null,null,null,null,1,NA,NA,NA,NA,NA,NA,NA,NA,NA,NA
NA,NA,NA,NA,NA,choice_trial,survey-html-form,27,140632,0.0-4.0-1.11,211,1,2025-05-05T22:51:28Z,b60275e29fe2361ab97ac0ac217840d7,"Mozilla/5.0 (Macintosh; Intel Mac OS X 10_15_7) AppleWebKit/537.36 (KHTML, like Gecko) Chrome/122.0.0.0 Safari/537.36",Macintosh,Chrome,122.0.0.0,OS X,10_15_7,https://5puzkbbxv1.cognition.run/?sona_id=51129,"en-US,en;q=0.9",g3q7bzl9kx5vj1k,20,"[""White""]",No,Female,"NA
",No,395874,NA,8158,NA,"{""product_choice"":""B""}",choice,ctd,trinary,attraction,2,televisions,null,null,null,null,null,null,1,50,60,40,60,50,60,Screen size,Average lifespan,NA,NA
NA,NA,NA,NA,NA,choice_trial_setup,html-keyboard-response,28,140936,0.0-4.0-0.12,211,1,2025-05-05T22:51:28Z,b60275e29fe2361ab97ac0ac217840d7,"Mozilla/5.0 (Macintosh; Intel Mac OS X 10_15_7) AppleWebKit/537.36 (KHTML, like Gecko) Chrome/122.0.0.0 Safari/537.36",Macintosh,Chrome,122.0.0.0,OS X,10_15_7,https://5puzkbbxv1.cognition.run/?sona_id=51129,"en-US,en;q=0.9",g3q7bzl9kx5vj1k,20,"[""White""]",No,Female,"NA
",No,395874,NA,null,<p></p>,null,choice,cdt,trinary,repulsion_B,2,laptops,null,null,null,null,null,null,2,NA,NA,NA,NA,NA,NA,NA,NA,NA,NA
NA,NA,NA,NA,NA,choice_trial,survey-html-form,29,146831,0.0-4.0-1.12,211,1,2025-05-05T22:51:28Z,b60275e29fe2361ab97ac0ac217840d7,"Mozilla/5.0 (Macintosh; Intel Mac OS X 10_15_7) AppleWebKit/537.36 (KHTML, like Gecko) Chrome/122.0.0.0 Safari/537.36",Macintosh,Chrome,122.0.0.0,OS X,10_15_7,https://5puzkbbxv1.cognition.run/?sona_id=51129,"en-US,en;q=0.9",g3q7bzl9kx5vj1k,20,"[""White""]",No,Female,"NA
",No,395874,NA,5890,NA,"{""product_choice"":""C""}",choice,cdt,trinary,repulsion_B,2,laptops,null,null,null,null,null,null,2,40,30,40,90,100,80,Processing speed,Memory (RAM),NA,NA
NA,NA,NA,NA,NA,choice_trial_setup,html-keyboard-response,30,147134,0.0-4.0-0.13,211,1,2025-05-05T22:51:28Z,b60275e29fe2361ab97ac0ac217840d7,"Mozilla/5.0 (Macintosh; Intel Mac OS X 10_15_7) AppleWebKit/537.36 (KHTML, like Gecko) Chrome/122.0.0.0 Safari/537.36",Macintosh,Chrome,122.0.0.0,OS X,10_15_7,https://5puzkbbxv1.cognition.run/?sona_id=51129,"en-US,en;q=0.9",g3q7bzl9kx5vj1k,20,"[""White""]",No,Female,"NA
",No,395874,NA,null,<p></p>,null,choice,tc,binary,repulsion,2,televisions,null,null,null,null,null,null,1,NA,NA,NA,NA,NA,NA,NA,NA,NA,NA
NA,NA,NA,NA,NA,choice_trial,survey-html-form,31,152082,0.0-4.0-1.13,211,1,2025-05-05T22:51:28Z,b60275e29fe2361ab97ac0ac217840d7,"Mozilla/5.0 (Macintosh; Intel Mac OS X 10_15_7) AppleWebKit/537.36 (KHTML, like Gecko) Chrome/122.0.0.0 Safari/537.36",Macintosh,Chrome,122.0.0.0,OS X,10_15_7,https://5puzkbbxv1.cognition.run/?sona_id=51129,"en-US,en;q=0.9",g3q7bzl9kx5vj1k,20,"[""White""]",No,Female,"NA
",No,395874,NA,4944,NA,"{""product_choice"":""B""}",choice,tc,binary,repulsion,2,televisions,null,null,null,null,null,null,1,30,40,null,100,90,null,Screen size,Average lifespan,NA,NA
NA,NA,NA,NA,NA,choice_trial_setup,html-keyboard-response,32,152386,0.0-4.0-0.14,211,1,2025-05-05T22:51:28Z,b60275e29fe2361ab97ac0ac217840d7,"Mozilla/5.0 (Macintosh; Intel Mac OS X 10_15_7) AppleWebKit/537.36 (KHTML, like Gecko) Chrome/122.0.0.0 Safari/537.36",Macintosh,Chrome,122.0.0.0,OS X,10_15_7,https://5puzkbbxv1.cognition.run/?sona_id=51129,"en-US,en;q=0.9",g3q7bzl9kx5vj1k,20,"[""White""]",No,Female,"NA
",No,395874,NA,null,<p></p>,null,choice,tcd,trinary,repulsion_A,2,laptops,null,null,null,null,null,null,2,NA,NA,NA,NA,NA,NA,NA,NA,NA,NA
NA,NA,NA,NA,NA,choice_trial,survey-html-form,33,157616,0.0-4.0-1.14,211,1,2025-05-05T22:51:28Z,b60275e29fe2361ab97ac0ac217840d7,"Mozilla/5.0 (Macintosh; Intel Mac OS X 10_15_7) AppleWebKit/537.36 (KHTML, like Gecko) Chrome/122.0.0.0 Safari/537.36",Macintosh,Chrome,122.0.0.0,OS X,10_15_7,https://5puzkbbxv1.cognition.run/?sona_id=51129,"en-US,en;q=0.9",g3q7bzl9kx5vj1k,20,"[""White""]",No,Female,"NA
",No,395874,NA,5225,NA,"{""product_choice"":""B""}",choice,tcd,trinary,repulsion_A,2,laptops,null,null,null,null,null,null,2,30,40,20,100,90,100,Processing speed,Memory (RAM),NA,NA
NA,NA,NA,NA,NA,choice_trial_setup,html-keyboard-response,34,157920,0.0-4.0-0.15,211,1,2025-05-05T22:51:28Z,b60275e29fe2361ab97ac0ac217840d7,"Mozilla/5.0 (Macintosh; Intel Mac OS X 10_15_7) AppleWebKit/537.36 (KHTML, like Gecko) Chrome/122.0.0.0 Safari/537.36",Macintosh,Chrome,122.0.0.0,OS X,10_15_7,https://5puzkbbxv1.cognition.run/?sona_id=51129,"en-US,en;q=0.9",g3q7bzl9kx5vj1k,20,"[""White""]",No,Female,"NA
",No,395874,NA,null,<p></p>,null,choice,bww,trinary,catch,null,washing machines,70,55,40,30,40,30,2,NA,NA,NA,NA,NA,NA,NA,NA,NA,NA
NA,NA,NA,NA,NA,choice_trial,survey-html-form,35,161416,0.0-4.0-1.15,211,1,2025-05-05T22:51:28Z,b60275e29fe2361ab97ac0ac217840d7,"Mozilla/5.0 (Macintosh; Intel Mac OS X 10_15_7) AppleWebKit/537.36 (KHTML, like Gecko) Chrome/122.0.0.0 Safari/537.36",Macintosh,Chrome,122.0.0.0,OS X,10_15_7,https://5puzkbbxv1.cognition.run/?sona_id=51129,"en-US,en;q=0.9",g3q7bzl9kx5vj1k,20,"[""White""]",No,Female,"NA
",No,395874,NA,3490,NA,"{""product_choice"":""A""}",choice,bww,trinary,catch,null,washing machines,70,55,40,30,40,30,2,null,null,null,null,null,null,Average lifespan,Energy savings,NA,NA
NA,NA,NA,NA,NA,choice_trial_setup,html-keyboard-response,36,161720,0.0-4.0-0.16,211,1,2025-05-05T22:51:28Z,b60275e29fe2361ab97ac0ac217840d7,"Mozilla/5.0 (Macintosh; Intel Mac OS X 10_15_7) AppleWebKit/537.36 (KHTML, like Gecko) Chrome/122.0.0.0 Safari/537.36",Macintosh,Chrome,122.0.0.0,OS X,10_15_7,https://5puzkbbxv1.cognition.run/?sona_id=51129,"en-US,en;q=0.9",g3q7bzl9kx5vj1k,20,"[""White""]",No,Female,"NA
",No,395874,NA,null,<p></p>,null,choice,tc,binary,repulsion,2,microwave ovens,null,null,null,null,null,null,2,NA,NA,NA,NA,NA,NA,NA,NA,NA,NA
NA,NA,NA,NA,NA,choice_trial,survey-html-form,37,165015,0.0-4.0-1.16,211,1,2025-05-05T22:51:28Z,b60275e29fe2361ab97ac0ac217840d7,"Mozilla/5.0 (Macintosh; Intel Mac OS X 10_15_7) AppleWebKit/537.36 (KHTML, like Gecko) Chrome/122.0.0.0 Safari/537.36",Macintosh,Chrome,122.0.0.0,OS X,10_15_7,https://5puzkbbxv1.cognition.run/?sona_id=51129,"en-US,en;q=0.9",g3q7bzl9kx5vj1k,20,"[""White""]",No,Female,"NA
",No,395874,NA,3290,NA,"{""product_choice"":""B""}",choice,tc,binary,repulsion,2,microwave ovens,null,null,null,null,null,null,2,30,40,null,100,90,null,Warranty,Cooking power,NA,NA
NA,NA,NA,NA,NA,choice_trial_setup,html-keyboard-response,38,165319,0.0-4.0-0.17,211,1,2025-05-05T22:51:28Z,b60275e29fe2361ab97ac0ac217840d7,"Mozilla/5.0 (Macintosh; Intel Mac OS X 10_15_7) AppleWebKit/537.36 (KHTML, like Gecko) Chrome/122.0.0.0 Safari/537.36",Macintosh,Chrome,122.0.0.0,OS X,10_15_7,https://5puzkbbxv1.cognition.run/?sona_id=51129,"en-US,en;q=0.9",g3q7bzl9kx5vj1k,20,"[""White""]",No,Female,"NA
",No,395874,NA,null,<p></p>,null,choice,ctd,trinary,repulsion_B,2,washing machines,null,null,null,null,null,null,2,NA,NA,NA,NA,NA,NA,NA,NA,NA,NA
NA,NA,NA,NA,NA,choice_trial,survey-html-form,39,169766,0.0-4.0-1.17,211,1,2025-05-05T22:51:28Z,b60275e29fe2361ab97ac0ac217840d7,"Mozilla/5.0 (Macintosh; Intel Mac OS X 10_15_7) AppleWebKit/537.36 (KHTML, like Gecko) Chrome/122.0.0.0 Safari/537.36",Macintosh,Chrome,122.0.0.0,OS X,10_15_7,https://5puzkbbxv1.cognition.run/?sona_id=51129,"en-US,en;q=0.9",g3q7bzl9kx5vj1k,20,"[""White""]",No,Female,"NA
",No,395874,NA,4442,NA,"{""product_choice"":""B""}",choice,ctd,trinary,repulsion_B,2,washing machines,null,null,null,null,null,null,2,40,30,40,90,100,80,Average lifespan,Energy savings,NA,NA
NA,NA,NA,NA,NA,choice_trial_setup,html-keyboard-response,40,170071,0.0-4.0-0.18,211,1,2025-05-05T22:51:28Z,b60275e29fe2361ab97ac0ac217840d7,"Mozilla/5.0 (Macintosh; Intel Mac OS X 10_15_7) AppleWebKit/537.36 (KHTML, like Gecko) Chrome/122.0.0.0 Safari/537.36",Macintosh,Chrome,122.0.0.0,OS X,10_15_7,https://5puzkbbxv1.cognition.run/?sona_id=51129,"en-US,en;q=0.9",g3q7bzl9kx5vj1k,20,"[""White""]",No,Female,"NA
",No,395874,NA,null,<p></p>,null,choice,dtc,trinary,attraction,1,televisions,null,null,null,null,null,null,1,NA,NA,NA,NA,NA,NA,NA,NA,NA,NA
NA,NA,NA,NA,NA,choice_trial,survey-html-form,41,174866,0.0-4.0-1.18,211,1,2025-05-05T22:51:28Z,b60275e29fe2361ab97ac0ac217840d7,"Mozilla/5.0 (Macintosh; Intel Mac OS X 10_15_7) AppleWebKit/537.36 (KHTML, like Gecko) Chrome/122.0.0.0 Safari/537.36",Macintosh,Chrome,122.0.0.0,OS X,10_15_7,https://5puzkbbxv1.cognition.run/?sona_id=51129,"en-US,en;q=0.9",g3q7bzl9kx5vj1k,20,"[""White""]",No,Female,"NA
",No,395874,NA,4791,NA,"{""product_choice"":""B""}",choice,dtc,trinary,attraction,1,televisions,null,null,null,null,null,null,1,60,50,60,50,60,40,Screen size,Average lifespan,NA,NA
NA,NA,NA,NA,NA,choice_trial_setup,html-keyboard-response,42,175170,0.0-4.0-0.19,211,1,2025-05-05T22:51:28Z,b60275e29fe2361ab97ac0ac217840d7,"Mozilla/5.0 (Macintosh; Intel Mac OS X 10_15_7) AppleWebKit/537.36 (KHTML, like Gecko) Chrome/122.0.0.0 Safari/537.36",Macintosh,Chrome,122.0.0.0,OS X,10_15_7,https://5puzkbbxv1.cognition.run/?sona_id=51129,"en-US,en;q=0.9",g3q7bzl9kx5vj1k,20,"[""White""]",No,Female,"NA
",No,395874,NA,null,<p></p>,null,choice,tc,binary,attraction,NA,microwave ovens,null,null,null,null,null,null,2,NA,NA,NA,NA,NA,NA,NA,NA,NA,NA
NA,NA,NA,NA,NA,choice_trial,survey-html-form,43,178682,0.0-4.0-1.19,211,1,2025-05-05T22:51:28Z,b60275e29fe2361ab97ac0ac217840d7,"Mozilla/5.0 (Macintosh; Intel Mac OS X 10_15_7) AppleWebKit/537.36 (KHTML, like Gecko) Chrome/122.0.0.0 Safari/537.36",Macintosh,Chrome,122.0.0.0,OS X,10_15_7,https://5puzkbbxv1.cognition.run/?sona_id=51129,"en-US,en;q=0.9",g3q7bzl9kx5vj1k,20,"[""White""]",No,Female,"NA
",No,395874,NA,3507,NA,"{""product_choice"":""A""}",choice,tc,binary,attraction,NA,microwave ovens,null,null,null,null,null,null,2,60,50,null,50,60,null,Warranty,Cooking power,NA,NA
NA,NA,NA,NA,NA,choice_trial_setup,html-keyboard-response,44,178986,0.0-4.0-0.20,211,1,2025-05-05T22:51:28Z,b60275e29fe2361ab97ac0ac217840d7,"Mozilla/5.0 (Macintosh; Intel Mac OS X 10_15_7) AppleWebKit/537.36 (KHTML, like Gecko) Chrome/122.0.0.0 Safari/537.36",Macintosh,Chrome,122.0.0.0,OS X,10_15_7,https://5puzkbbxv1.cognition.run/?sona_id=51129,"en-US,en;q=0.9",g3q7bzl9kx5vj1k,20,"[""White""]",No,Female,"NA
",No,395874,NA,null,<p></p>,null,choice,ct,binary,attraction,NA,laptops,null,null,null,null,null,null,1,NA,NA,NA,NA,NA,NA,NA,NA,NA,NA
NA,NA,NA,NA,NA,choice_trial,survey-html-form,45,184332,0.0-4.0-1.20,211,1,2025-05-05T22:51:28Z,b60275e29fe2361ab97ac0ac217840d7,"Mozilla/5.0 (Macintosh; Intel Mac OS X 10_15_7) AppleWebKit/537.36 (KHTML, like Gecko) Chrome/122.0.0.0 Safari/537.36",Macintosh,Chrome,122.0.0.0,OS X,10_15_7,https://5puzkbbxv1.cognition.run/?sona_id=51129,"en-US,en;q=0.9",g3q7bzl9kx5vj1k,20,"[""White""]",No,Female,"NA
",No,395874,NA,5341,NA,"{""product_choice"":""A""}",choice,ct,binary,attraction,NA,laptops,null,null,null,null,null,null,1,60,50,null,50,60,null,Processing speed,Memory (RAM),NA,NA
NA,NA,NA,NA,NA,choice_trial_setup,html-keyboard-response,46,184637,0.0-4.0-0.21,211,1,2025-05-05T22:51:28Z,b60275e29fe2361ab97ac0ac217840d7,"Mozilla/5.0 (Macintosh; Intel Mac OS X 10_15_7) AppleWebKit/537.36 (KHTML, like Gecko) Chrome/122.0.0.0 Safari/537.36",Macintosh,Chrome,122.0.0.0,OS X,10_15_7,https://5puzkbbxv1.cognition.run/?sona_id=51129,"en-US,en;q=0.9",g3q7bzl9kx5vj1k,20,"[""White""]",No,Female,"NA
",No,395874,NA,null,<p></p>,null,choice,cdt,trinary,repulsion_A,2,washing machines,null,null,null,null,null,null,1,NA,NA,NA,NA,NA,NA,NA,NA,NA,NA
NA,NA,NA,NA,NA,choice_trial,survey-html-form,47,189065,0.0-4.0-1.21,211,1,2025-05-05T22:51:28Z,b60275e29fe2361ab97ac0ac217840d7,"Mozilla/5.0 (Macintosh; Intel Mac OS X 10_15_7) AppleWebKit/537.36 (KHTML, like Gecko) Chrome/122.0.0.0 Safari/537.36",Macintosh,Chrome,122.0.0.0,OS X,10_15_7,https://5puzkbbxv1.cognition.run/?sona_id=51129,"en-US,en;q=0.9",g3q7bzl9kx5vj1k,20,"[""White""]",No,Female,"NA
",No,395874,NA,4423,NA,"{""product_choice"":""A""}",choice,cdt,trinary,repulsion_A,2,washing machines,null,null,null,null,null,null,1,30,40,20,100,90,100,Average lifespan,Energy savings,NA,NA
NA,NA,NA,NA,NA,choice_trial_setup,html-keyboard-response,48,189369,0.0-4.0-0.22,211,1,2025-05-05T22:51:28Z,b60275e29fe2361ab97ac0ac217840d7,"Mozilla/5.0 (Macintosh; Intel Mac OS X 10_15_7) AppleWebKit/537.36 (KHTML, like Gecko) Chrome/122.0.0.0 Safari/537.36",Macintosh,Chrome,122.0.0.0,OS X,10_15_7,https://5puzkbbxv1.cognition.run/?sona_id=51129,"en-US,en;q=0.9",g3q7bzl9kx5vj1k,20,"[""White""]",No,Female,"NA
",No,395874,NA,null,<p></p>,null,choice,ct,binary,repulsion,2,washing machines,null,null,null,null,null,null,2,NA,NA,NA,NA,NA,NA,NA,NA,NA,NA
NA,NA,NA,NA,NA,choice_trial,survey-html-form,49,194866,0.0-4.0-1.22,211,1,2025-05-05T22:51:28Z,b60275e29fe2361ab97ac0ac217840d7,"Mozilla/5.0 (Macintosh; Intel Mac OS X 10_15_7) AppleWebKit/537.36 (KHTML, like Gecko) Chrome/122.0.0.0 Safari/537.36",Macintosh,Chrome,122.0.0.0,OS X,10_15_7,https://5puzkbbxv1.cognition.run/?sona_id=51129,"en-US,en;q=0.9",g3q7bzl9kx5vj1k,20,"[""White""]",No,Female,"NA
",No,395874,NA,5491,NA,"{""product_choice"":""A""}",choice,ct,binary,repulsion,2,washing machines,null,null,null,null,null,null,2,30,40,null,100,90,null,Average lifespan,Energy savings,NA,NA
NA,NA,NA,NA,NA,choice_trial_setup,html-keyboard-response,50,195171,0.0-4.0-0.23,211,1,2025-05-05T22:51:28Z,b60275e29fe2361ab97ac0ac217840d7,"Mozilla/5.0 (Macintosh; Intel Mac OS X 10_15_7) AppleWebKit/537.36 (KHTML, like Gecko) Chrome/122.0.0.0 Safari/537.36",Macintosh,Chrome,122.0.0.0,OS X,10_15_7,https://5puzkbbxv1.cognition.run/?sona_id=51129,"en-US,en;q=0.9",g3q7bzl9kx5vj1k,20,"[""White""]",No,Female,"NA
",No,395874,NA,null,<p></p>,null,choice,tc,binary,attraction,NA,washing machines,null,null,null,null,null,null,1,NA,NA,NA,NA,NA,NA,NA,NA,NA,NA
NA,NA,NA,NA,NA,choice_trial,survey-html-form,51,201148,0.0-4.0-1.23,211,1,2025-05-05T22:51:28Z,b60275e29fe2361ab97ac0ac217840d7,"Mozilla/5.0 (Macintosh; Intel Mac OS X 10_15_7) AppleWebKit/537.36 (KHTML, like Gecko) Chrome/122.0.0.0 Safari/537.36",Macintosh,Chrome,122.0.0.0,OS X,10_15_7,https://5puzkbbxv1.cognition.run/?sona_id=51129,"en-US,en;q=0.9",g3q7bzl9kx5vj1k,20,"[""White""]",No,Female,"NA
",No,395874,NA,5972,NA,"{""product_choice"":""A""}",choice,tc,binary,attraction,NA,washing machines,null,null,null,null,null,null,1,60,50,null,50,60,null,Average lifespan,Energy savings,NA,NA
NA,NA,NA,NA,NA,choice_trial_setup,html-keyboard-response,52,201452,0.0-4.0-0.24,211,1,2025-05-05T22:51:28Z,b60275e29fe2361ab97ac0ac217840d7,"Mozilla/5.0 (Macintosh; Intel Mac OS X 10_15_7) AppleWebKit/537.36 (KHTML, like Gecko) Chrome/122.0.0.0 Safari/537.36",Macintosh,Chrome,122.0.0.0,OS X,10_15_7,https://5puzkbbxv1.cognition.run/?sona_id=51129,"en-US,en;q=0.9",g3q7bzl9kx5vj1k,20,"[""White""]",No,Female,"NA
",No,395874,NA,null,<p></p>,null,choice,tcd,trinary,attraction,1,washing machines,null,null,null,null,null,null,1,NA,NA,NA,NA,NA,NA,NA,NA,NA,NA
NA,NA,NA,NA,NA,choice_trial,survey-html-form,53,206066,0.0-4.0-1.24,211,1,2025-05-05T22:51:28Z,b60275e29fe2361ab97ac0ac217840d7,"Mozilla/5.0 (Macintosh; Intel Mac OS X 10_15_7) AppleWebKit/537.36 (KHTML, like Gecko) Chrome/122.0.0.0 Safari/537.36",Macintosh,Chrome,122.0.0.0,OS X,10_15_7,https://5puzkbbxv1.cognition.run/?sona_id=51129,"en-US,en;q=0.9",g3q7bzl9kx5vj1k,20,"[""White""]",No,Female,"NA
",No,395874,NA,4607,NA,"{""product_choice"":""A""}",choice,tcd,trinary,attraction,1,washing machines,null,null,null,null,null,null,1,60,50,60,50,60,40,Average lifespan,Energy savings,NA,NA
NA,NA,NA,NA,NA,choice_trial_setup,html-keyboard-response,54,206371,0.0-4.0-0.25,211,1,2025-05-05T22:51:28Z,b60275e29fe2361ab97ac0ac217840d7,"Mozilla/5.0 (Macintosh; Intel Mac OS X 10_15_7) AppleWebKit/537.36 (KHTML, like Gecko) Chrome/122.0.0.0 Safari/537.36",Macintosh,Chrome,122.0.0.0,OS X,10_15_7,https://5puzkbbxv1.cognition.run/?sona_id=51129,"en-US,en;q=0.9",g3q7bzl9kx5vj1k,20,"[""White""]",No,Female,"NA
",No,395874,NA,null,<p></p>,null,choice,dtc,trinary,repulsion_A,2,televisions,null,null,null,null,null,null,1,NA,NA,NA,NA,NA,NA,NA,NA,NA,NA
NA,NA,NA,NA,NA,choice_trial,survey-html-form,55,211532,0.0-4.0-1.25,211,1,2025-05-05T22:51:28Z,b60275e29fe2361ab97ac0ac217840d7,"Mozilla/5.0 (Macintosh; Intel Mac OS X 10_15_7) AppleWebKit/537.36 (KHTML, like Gecko) Chrome/122.0.0.0 Safari/537.36",Macintosh,Chrome,122.0.0.0,OS X,10_15_7,https://5puzkbbxv1.cognition.run/?sona_id=51129,"en-US,en;q=0.9",g3q7bzl9kx5vj1k,20,"[""White""]",No,Female,"NA
",No,395874,NA,5156,NA,"{""product_choice"":""B""}",choice,dtc,trinary,repulsion_A,2,televisions,null,null,null,null,null,null,1,30,40,20,100,90,100,Screen size,Average lifespan,NA,NA
NA,NA,NA,NA,NA,choice_trial_setup,html-keyboard-response,56,211838,0.0-4.0-0.26,211,1,2025-05-05T22:51:28Z,b60275e29fe2361ab97ac0ac217840d7,"Mozilla/5.0 (Macintosh; Intel Mac OS X 10_15_7) AppleWebKit/537.36 (KHTML, like Gecko) Chrome/122.0.0.0 Safari/537.36",Macintosh,Chrome,122.0.0.0,OS X,10_15_7,https://5puzkbbxv1.cognition.run/?sona_id=51129,"en-US,en;q=0.9",g3q7bzl9kx5vj1k,20,"[""White""]",No,Female,"NA
",No,395874,NA,null,<p></p>,null,choice,tdc,trinary,repulsion_B,1,laptops,null,null,null,null,null,null,1,NA,NA,NA,NA,NA,NA,NA,NA,NA,NA
NA,NA,NA,NA,NA,choice_trial,survey-html-form,57,225765,0.0-4.0-1.26,211,1,2025-05-05T22:51:28Z,b60275e29fe2361ab97ac0ac217840d7,"Mozilla/5.0 (Macintosh; Intel Mac OS X 10_15_7) AppleWebKit/537.36 (KHTML, like Gecko) Chrome/122.0.0.0 Safari/537.36",Macintosh,Chrome,122.0.0.0,OS X,10_15_7,https://5puzkbbxv1.cognition.run/?sona_id=51129,"en-US,en;q=0.9",g3q7bzl9kx5vj1k,20,"[""White""]",No,Female,"NA
",No,395874,NA,13921,NA,"{""product_choice"":""A""}",choice,tdc,trinary,repulsion_B,1,laptops,null,null,null,null,null,null,1,90,100,80,40,30,40,Processing speed,Memory (RAM),NA,NA
NA,NA,NA,NA,NA,choice_trial_setup,html-keyboard-response,58,226070,0.0-4.0-0.27,211,1,2025-05-05T22:51:28Z,b60275e29fe2361ab97ac0ac217840d7,"Mozilla/5.0 (Macintosh; Intel Mac OS X 10_15_7) AppleWebKit/537.36 (KHTML, like Gecko) Chrome/122.0.0.0 Safari/537.36",Macintosh,Chrome,122.0.0.0,OS X,10_15_7,https://5puzkbbxv1.cognition.run/?sona_id=51129,"en-US,en;q=0.9",g3q7bzl9kx5vj1k,20,"[""White""]",No,Female,"NA
",No,395874,NA,null,<p></p>,null,choice,tdc,trinary,repulsion_B,1,microwave ovens,null,null,null,null,null,null,1,NA,NA,NA,NA,NA,NA,NA,NA,NA,NA
NA,NA,NA,NA,NA,choice_trial,survey-html-form,59,229465,0.0-4.0-1.27,211,1,2025-05-05T22:51:28Z,b60275e29fe2361ab97ac0ac217840d7,"Mozilla/5.0 (Macintosh; Intel Mac OS X 10_15_7) AppleWebKit/537.36 (KHTML, like Gecko) Chrome/122.0.0.0 Safari/537.36",Macintosh,Chrome,122.0.0.0,OS X,10_15_7,https://5puzkbbxv1.cognition.run/?sona_id=51129,"en-US,en;q=0.9",g3q7bzl9kx5vj1k,20,"[""White""]",No,Female,"NA
",No,395874,NA,3387,NA,"{""product_choice"":""A""}",choice,tdc,trinary,repulsion_B,1,microwave ovens,null,null,null,null,null,null,1,90,100,80,40,30,40,Warranty,Cooking power,NA,NA
NA,NA,NA,NA,NA,choice_trial_setup,html-keyboard-response,60,229770,0.0-4.0-0.28,211,1,2025-05-05T22:51:28Z,b60275e29fe2361ab97ac0ac217840d7,"Mozilla/5.0 (Macintosh; Intel Mac OS X 10_15_7) AppleWebKit/537.36 (KHTML, like Gecko) Chrome/122.0.0.0 Safari/537.36",Macintosh,Chrome,122.0.0.0,OS X,10_15_7,https://5puzkbbxv1.cognition.run/?sona_id=51129,"en-US,en;q=0.9",g3q7bzl9kx5vj1k,20,"[""White""]",No,Female,"NA
",No,395874,NA,null,<p></p>,null,choice,tc,binary,repulsion,1,microwave ovens,null,null,null,null,null,null,2,NA,NA,NA,NA,NA,NA,NA,NA,NA,NA
NA,NA,NA,NA,NA,choice_trial,survey-html-form,61,236598,0.0-4.0-1.28,211,1,2025-05-05T22:51:28Z,b60275e29fe2361ab97ac0ac217840d7,"Mozilla/5.0 (Macintosh; Intel Mac OS X 10_15_7) AppleWebKit/537.36 (KHTML, like Gecko) Chrome/122.0.0.0 Safari/537.36",Macintosh,Chrome,122.0.0.0,OS X,10_15_7,https://5puzkbbxv1.cognition.run/?sona_id=51129,"en-US,en;q=0.9",g3q7bzl9kx5vj1k,20,"[""White""]",No,Female,"NA
",No,395874,NA,6822,NA,"{""product_choice"":""B""}",choice,tc,binary,repulsion,1,microwave ovens,null,null,null,null,null,null,2,100,90,null,30,40,null,Warranty,Cooking power,NA,NA
NA,NA,NA,NA,NA,choice_trial_setup,html-keyboard-response,62,236903,0.0-4.0-0.29,211,1,2025-05-05T22:51:28Z,b60275e29fe2361ab97ac0ac217840d7,"Mozilla/5.0 (Macintosh; Intel Mac OS X 10_15_7) AppleWebKit/537.36 (KHTML, like Gecko) Chrome/122.0.0.0 Safari/537.36",Macintosh,Chrome,122.0.0.0,OS X,10_15_7,https://5puzkbbxv1.cognition.run/?sona_id=51129,"en-US,en;q=0.9",g3q7bzl9kx5vj1k,20,"[""White""]",No,Female,"NA
",No,395874,NA,null,<p></p>,null,choice,wbw,trinary,catch,null,laptops,60,60,5,25,35,50,1,NA,NA,NA,NA,NA,NA,NA,NA,NA,NA
NA,NA,NA,NA,NA,choice_trial,survey-html-form,63,240682,0.0-4.0-1.29,211,1,2025-05-05T22:51:28Z,b60275e29fe2361ab97ac0ac217840d7,"Mozilla/5.0 (Macintosh; Intel Mac OS X 10_15_7) AppleWebKit/537.36 (KHTML, like Gecko) Chrome/122.0.0.0 Safari/537.36",Macintosh,Chrome,122.0.0.0,OS X,10_15_7,https://5puzkbbxv1.cognition.run/?sona_id=51129,"en-US,en;q=0.9",g3q7bzl9kx5vj1k,20,"[""White""]",No,Female,"NA
",No,395874,NA,3770,NA,"{""product_choice"":""B""}",choice,wbw,trinary,catch,null,laptops,60,60,5,25,35,50,1,null,null,null,null,null,null,Processing speed,Memory (RAM),NA,NA
NA,NA,NA,NA,NA,choice_trial_setup,html-keyboard-response,64,240987,0.0-4.0-0.30,211,1,2025-05-05T22:51:28Z,b60275e29fe2361ab97ac0ac217840d7,"Mozilla/5.0 (Macintosh; Intel Mac OS X 10_15_7) AppleWebKit/537.36 (KHTML, like Gecko) Chrome/122.0.0.0 Safari/537.36",Macintosh,Chrome,122.0.0.0,OS X,10_15_7,https://5puzkbbxv1.cognition.run/?sona_id=51129,"en-US,en;q=0.9",g3q7bzl9kx5vj1k,20,"[""White""]",No,Female,"NA
",No,395874,NA,null,<p></p>,null,choice,wb,binary,catch,null,microwave ovens,50,70,25,5,null,null,2,NA,NA,NA,NA,NA,NA,NA,NA,NA,NA
NA,NA,NA,NA,NA,choice_trial,survey-html-form,65,244348,0.0-4.0-1.30,211,1,2025-05-05T22:51:28Z,b60275e29fe2361ab97ac0ac217840d7,"Mozilla/5.0 (Macintosh; Intel Mac OS X 10_15_7) AppleWebKit/537.36 (KHTML, like Gecko) Chrome/122.0.0.0 Safari/537.36",Macintosh,Chrome,122.0.0.0,OS X,10_15_7,https://5puzkbbxv1.cognition.run/?sona_id=51129,"en-US,en;q=0.9",g3q7bzl9kx5vj1k,20,"[""White""]",No,Female,"NA
",No,395874,NA,3355,NA,"{""product_choice"":""B""}",choice,wb,binary,catch,null,microwave ovens,50,70,25,5,null,null,2,null,null,null,null,null,null,Warranty,Cooking power,NA,NA
NA,NA,NA,NA,NA,choice_trial_setup,html-keyboard-response,66,244654,0.0-4.0-0.31,211,1,2025-05-05T22:51:28Z,b60275e29fe2361ab97ac0ac217840d7,"Mozilla/5.0 (Macintosh; Intel Mac OS X 10_15_7) AppleWebKit/537.36 (KHTML, like Gecko) Chrome/122.0.0.0 Safari/537.36",Macintosh,Chrome,122.0.0.0,OS X,10_15_7,https://5puzkbbxv1.cognition.run/?sona_id=51129,"en-US,en;q=0.9",g3q7bzl9kx5vj1k,20,"[""White""]",No,Female,"NA
",No,395874,NA,null,<p></p>,null,choice,tdc,trinary,repulsion_A,1,televisions,null,null,null,null,null,null,1,NA,NA,NA,NA,NA,NA,NA,NA,NA,NA
NA,NA,NA,NA,NA,choice_trial,survey-html-form,67,248831,0.0-4.0-1.31,211,1,2025-05-05T22:51:28Z,b60275e29fe2361ab97ac0ac217840d7,"Mozilla/5.0 (Macintosh; Intel Mac OS X 10_15_7) AppleWebKit/537.36 (KHTML, like Gecko) Chrome/122.0.0.0 Safari/537.36",Macintosh,Chrome,122.0.0.0,OS X,10_15_7,https://5puzkbbxv1.cognition.run/?sona_id=51129,"en-US,en;q=0.9",g3q7bzl9kx5vj1k,20,"[""White""]",No,Female,"NA
",No,395874,NA,4171,NA,"{""product_choice"":""C""}",choice,tdc,trinary,repulsion_A,1,televisions,null,null,null,null,null,null,1,100,90,100,30,40,20,Screen size,Average lifespan,NA,NA
NA,NA,NA,NA,NA,choice_trial_setup,html-keyboard-response,68,249137,0.0-4.0-0.32,211,1,2025-05-05T22:51:28Z,b60275e29fe2361ab97ac0ac217840d7,"Mozilla/5.0 (Macintosh; Intel Mac OS X 10_15_7) AppleWebKit/537.36 (KHTML, like Gecko) Chrome/122.0.0.0 Safari/537.36",Macintosh,Chrome,122.0.0.0,OS X,10_15_7,https://5puzkbbxv1.cognition.run/?sona_id=51129,"en-US,en;q=0.9",g3q7bzl9kx5vj1k,20,"[""White""]",No,Female,"NA
",No,395874,NA,null,<p></p>,null,choice,tc,binary,repulsion,1,laptops,null,null,null,null,null,null,1,NA,NA,NA,NA,NA,NA,NA,NA,NA,NA
NA,NA,NA,NA,NA,choice_trial,survey-html-form,69,253147,0.0-4.0-1.32,211,1,2025-05-05T22:51:28Z,b60275e29fe2361ab97ac0ac217840d7,"Mozilla/5.0 (Macintosh; Intel Mac OS X 10_15_7) AppleWebKit/537.36 (KHTML, like Gecko) Chrome/122.0.0.0 Safari/537.36",Macintosh,Chrome,122.0.0.0,OS X,10_15_7,https://5puzkbbxv1.cognition.run/?sona_id=51129,"en-US,en;q=0.9",g3q7bzl9kx5vj1k,20,"[""White""]",No,Female,"NA
",No,395874,NA,4005,NA,"{""product_choice"":""B""}",choice,tc,binary,repulsion,1,laptops,null,null,null,null,null,null,1,100,90,null,30,40,null,Processing speed,Memory (RAM),NA,NA
NA,NA,NA,NA,NA,choice_trial_setup,html-keyboard-response,70,253452,0.0-4.0-0.33,211,1,2025-05-05T22:51:28Z,b60275e29fe2361ab97ac0ac217840d7,"Mozilla/5.0 (Macintosh; Intel Mac OS X 10_15_7) AppleWebKit/537.36 (KHTML, like Gecko) Chrome/122.0.0.0 Safari/537.36",Macintosh,Chrome,122.0.0.0,OS X,10_15_7,https://5puzkbbxv1.cognition.run/?sona_id=51129,"en-US,en;q=0.9",g3q7bzl9kx5vj1k,20,"[""White""]",No,Female,"NA
",No,395874,NA,null,<p></p>,null,choice,cdt,trinary,repulsion_B,2,microwave ovens,null,null,null,null,null,null,1,NA,NA,NA,NA,NA,NA,NA,NA,NA,NA
NA,NA,NA,NA,NA,choice_trial,survey-html-form,71,257748,0.0-4.0-1.33,211,1,2025-05-05T22:51:28Z,b60275e29fe2361ab97ac0ac217840d7,"Mozilla/5.0 (Macintosh; Intel Mac OS X 10_15_7) AppleWebKit/537.36 (KHTML, like Gecko) Chrome/122.0.0.0 Safari/537.36",Macintosh,Chrome,122.0.0.0,OS X,10_15_7,https://5puzkbbxv1.cognition.run/?sona_id=51129,"en-US,en;q=0.9",g3q7bzl9kx5vj1k,20,"[""White""]",No,Female,"NA
",No,395874,NA,4289,NA,"{""product_choice"":""C""}",choice,cdt,trinary,repulsion_B,2,microwave ovens,null,null,null,null,null,null,1,40,30,40,90,100,80,Warranty,Cooking power,NA,NA
NA,NA,NA,NA,NA,choice_trial_setup,html-keyboard-response,72,258054,0.0-4.0-0.34,211,1,2025-05-05T22:51:28Z,b60275e29fe2361ab97ac0ac217840d7,"Mozilla/5.0 (Macintosh; Intel Mac OS X 10_15_7) AppleWebKit/537.36 (KHTML, like Gecko) Chrome/122.0.0.0 Safari/537.36",Macintosh,Chrome,122.0.0.0,OS X,10_15_7,https://5puzkbbxv1.cognition.run/?sona_id=51129,"en-US,en;q=0.9",g3q7bzl9kx5vj1k,20,"[""White""]",No,Female,"NA
",No,395874,NA,null,<p></p>,null,choice,ctd,trinary,repulsion_A,1,microwave ovens,null,null,null,null,null,null,1,NA,NA,NA,NA,NA,NA,NA,NA,NA,NA
NA,NA,NA,NA,NA,choice_trial,survey-html-form,73,262331,0.0-4.0-1.34,211,1,2025-05-05T22:51:28Z,b60275e29fe2361ab97ac0ac217840d7,"Mozilla/5.0 (Macintosh; Intel Mac OS X 10_15_7) AppleWebKit/537.36 (KHTML, like Gecko) Chrome/122.0.0.0 Safari/537.36",Macintosh,Chrome,122.0.0.0,OS X,10_15_7,https://5puzkbbxv1.cognition.run/?sona_id=51129,"en-US,en;q=0.9",g3q7bzl9kx5vj1k,20,"[""White""]",No,Female,"NA
",No,395874,NA,4271,NA,"{""product_choice"":""A""}",choice,ctd,trinary,repulsion_A,1,microwave ovens,null,null,null,null,null,null,1,100,90,100,30,40,20,Warranty,Cooking power,NA,NA
NA,NA,NA,NA,NA,choice_trial_setup,html-keyboard-response,74,262636,0.0-4.0-0.35,211,1,2025-05-05T22:51:28Z,b60275e29fe2361ab97ac0ac217840d7,"Mozilla/5.0 (Macintosh; Intel Mac OS X 10_15_7) AppleWebKit/537.36 (KHTML, like Gecko) Chrome/122.0.0.0 Safari/537.36",Macintosh,Chrome,122.0.0.0,OS X,10_15_7,https://5puzkbbxv1.cognition.run/?sona_id=51129,"en-US,en;q=0.9",g3q7bzl9kx5vj1k,20,"[""White""]",No,Female,"NA
",No,395874,NA,null,<p></p>,null,choice,tcd,trinary,attraction,2,microwave ovens,null,null,null,null,null,null,2,NA,NA,NA,NA,NA,NA,NA,NA,NA,NA
NA,NA,NA,NA,NA,choice_trial,survey-html-form,75,271564,0.0-4.0-1.35,211,1,2025-05-05T22:51:28Z,b60275e29fe2361ab97ac0ac217840d7,"Mozilla/5.0 (Macintosh; Intel Mac OS X 10_15_7) AppleWebKit/537.36 (KHTML, like Gecko) Chrome/122.0.0.0 Safari/537.36",Macintosh,Chrome,122.0.0.0,OS X,10_15_7,https://5puzkbbxv1.cognition.run/?sona_id=51129,"en-US,en;q=0.9",g3q7bzl9kx5vj1k,20,"[""White""]",No,Female,"NA
",No,395874,NA,8923,NA,"{""product_choice"":""A""}",choice,tcd,trinary,attraction,2,microwave ovens,null,null,null,null,null,null,2,50,60,40,60,50,60,Warranty,Cooking power,NA,NA
NA,NA,NA,NA,NA,choice_trial_setup,html-keyboard-response,76,271869,0.0-4.0-0.36,211,1,2025-05-05T22:51:28Z,b60275e29fe2361ab97ac0ac217840d7,"Mozilla/5.0 (Macintosh; Intel Mac OS X 10_15_7) AppleWebKit/537.36 (KHTML, like Gecko) Chrome/122.0.0.0 Safari/537.36",Macintosh,Chrome,122.0.0.0,OS X,10_15_7,https://5puzkbbxv1.cognition.run/?sona_id=51129,"en-US,en;q=0.9",g3q7bzl9kx5vj1k,20,"[""White""]",No,Female,"NA
",No,395874,NA,null,<p></p>,null,choice,dct,trinary,repulsion_B,1,washing machines,null,null,null,null,null,null,2,NA,NA,NA,NA,NA,NA,NA,NA,NA,NA
NA,NA,NA,NA,NA,choice_trial,survey-html-form,77,279496,0.0-4.0-1.36,211,1,2025-05-05T22:51:28Z,b60275e29fe2361ab97ac0ac217840d7,"Mozilla/5.0 (Macintosh; Intel Mac OS X 10_15_7) AppleWebKit/537.36 (KHTML, like Gecko) Chrome/122.0.0.0 Safari/537.36",Macintosh,Chrome,122.0.0.0,OS X,10_15_7,https://5puzkbbxv1.cognition.run/?sona_id=51129,"en-US,en;q=0.9",g3q7bzl9kx5vj1k,20,"[""White""]",No,Female,"NA
",No,395874,NA,7619,NA,"{""product_choice"":""B""}",choice,dct,trinary,repulsion_B,1,washing machines,null,null,null,null,null,null,2,90,100,80,40,30,40,Average lifespan,Energy savings,NA,NA
NA,NA,NA,NA,NA,choice_trial_setup,html-keyboard-response,78,279802,0.0-4.0-0.37,211,1,2025-05-05T22:51:28Z,b60275e29fe2361ab97ac0ac217840d7,"Mozilla/5.0 (Macintosh; Intel Mac OS X 10_15_7) AppleWebKit/537.36 (KHTML, like Gecko) Chrome/122.0.0.0 Safari/537.36",Macintosh,Chrome,122.0.0.0,OS X,10_15_7,https://5puzkbbxv1.cognition.run/?sona_id=51129,"en-US,en;q=0.9",g3q7bzl9kx5vj1k,20,"[""White""]",No,Female,"NA
",No,395874,NA,null,<p></p>,null,choice,dct,trinary,attraction,1,laptops,null,null,null,null,null,null,2,NA,NA,NA,NA,NA,NA,NA,NA,NA,NA
NA,NA,NA,NA,NA,choice_trial,survey-html-form,79,287832,0.0-4.0-1.37,211,1,2025-05-05T22:51:28Z,b60275e29fe2361ab97ac0ac217840d7,"Mozilla/5.0 (Macintosh; Intel Mac OS X 10_15_7) AppleWebKit/537.36 (KHTML, like Gecko) Chrome/122.0.0.0 Safari/537.36",Macintosh,Chrome,122.0.0.0,OS X,10_15_7,https://5puzkbbxv1.cognition.run/?sona_id=51129,"en-US,en;q=0.9",g3q7bzl9kx5vj1k,20,"[""White""]",No,Female,"NA
",No,395874,NA,8023,NA,"{""product_choice"":""C""}",choice,dct,trinary,attraction,1,laptops,null,null,null,null,null,null,2,60,50,60,50,60,40,Processing speed,Memory (RAM),NA,NA
NA,NA,NA,NA,NA,choice_trial_setup,html-keyboard-response,80,288137,0.0-4.0-0.38,211,1,2025-05-05T22:51:28Z,b60275e29fe2361ab97ac0ac217840d7,"Mozilla/5.0 (Macintosh; Intel Mac OS X 10_15_7) AppleWebKit/537.36 (KHTML, like Gecko) Chrome/122.0.0.0 Safari/537.36",Macintosh,Chrome,122.0.0.0,OS X,10_15_7,https://5puzkbbxv1.cognition.run/?sona_id=51129,"en-US,en;q=0.9",g3q7bzl9kx5vj1k,20,"[""White""]",No,Female,"NA
",No,395874,NA,null,<p></p>,null,choice,bw,binary,catch,null,washing machines,80,85,45,35,null,null,2,NA,NA,NA,NA,NA,NA,NA,NA,NA,NA
NA,NA,NA,NA,NA,choice_trial,survey-html-form,81,291031,0.0-4.0-1.38,211,1,2025-05-05T22:51:28Z,b60275e29fe2361ab97ac0ac217840d7,"Mozilla/5.0 (Macintosh; Intel Mac OS X 10_15_7) AppleWebKit/537.36 (KHTML, like Gecko) Chrome/122.0.0.0 Safari/537.36",Macintosh,Chrome,122.0.0.0,OS X,10_15_7,https://5puzkbbxv1.cognition.run/?sona_id=51129,"en-US,en;q=0.9",g3q7bzl9kx5vj1k,20,"[""White""]",No,Female,"NA
",No,395874,NA,2886,NA,"{""product_choice"":""A""}",choice,bw,binary,catch,null,washing machines,80,85,45,35,null,null,2,null,null,null,null,null,null,Average lifespan,Energy savings,NA,NA
NA,NA,NA,NA,NA,choice_trial_setup,html-keyboard-response,82,291338,0.0-4.0-0.39,211,1,2025-05-05T22:51:28Z,b60275e29fe2361ab97ac0ac217840d7,"Mozilla/5.0 (Macintosh; Intel Mac OS X 10_15_7) AppleWebKit/537.36 (KHTML, like Gecko) Chrome/122.0.0.0 Safari/537.36",Macintosh,Chrome,122.0.0.0,OS X,10_15_7,https://5puzkbbxv1.cognition.run/?sona_id=51129,"en-US,en;q=0.9",g3q7bzl9kx5vj1k,20,"[""White""]",No,Female,"NA
",No,395874,NA,null,<p></p>,null,choice,dct,trinary,attraction,2,washing machines,null,null,null,null,null,null,2,NA,NA,NA,NA,NA,NA,NA,NA,NA,NA
NA,NA,NA,NA,NA,choice_trial,survey-html-form,83,300781,0.0-4.0-1.39,211,1,2025-05-05T22:51:28Z,b60275e29fe2361ab97ac0ac217840d7,"Mozilla/5.0 (Macintosh; Intel Mac OS X 10_15_7) AppleWebKit/537.36 (KHTML, like Gecko) Chrome/122.0.0.0 Safari/537.36",Macintosh,Chrome,122.0.0.0,OS X,10_15_7,https://5puzkbbxv1.cognition.run/?sona_id=51129,"en-US,en;q=0.9",g3q7bzl9kx5vj1k,20,"[""White""]",No,Female,"NA
",No,395874,NA,9437,NA,"{""product_choice"":""B""}",choice,dct,trinary,attraction,2,washing machines,null,null,null,null,null,null,2,50,60,40,60,50,60,Average lifespan,Energy savings,NA,NA
NA,NA,NA,NA,NA,choice_trial_setup,html-keyboard-response,84,301088,0.0-4.0-0.40,211,1,2025-05-05T22:51:28Z,b60275e29fe2361ab97ac0ac217840d7,"Mozilla/5.0 (Macintosh; Intel Mac OS X 10_15_7) AppleWebKit/537.36 (KHTML, like Gecko) Chrome/122.0.0.0 Safari/537.36",Macintosh,Chrome,122.0.0.0,OS X,10_15_7,https://5puzkbbxv1.cognition.run/?sona_id=51129,"en-US,en;q=0.9",g3q7bzl9kx5vj1k,20,"[""White""]",No,Female,"NA
",No,395874,NA,null,<p></p>,null,choice,ct,binary,repulsion,1,televisions,null,null,null,null,null,null,2,NA,NA,NA,NA,NA,NA,NA,NA,NA,NA
NA,NA,NA,NA,NA,choice_trial,survey-html-form,85,304814,0.0-4.0-1.40,211,1,2025-05-05T22:51:28Z,b60275e29fe2361ab97ac0ac217840d7,"Mozilla/5.0 (Macintosh; Intel Mac OS X 10_15_7) AppleWebKit/537.36 (KHTML, like Gecko) Chrome/122.0.0.0 Safari/537.36",Macintosh,Chrome,122.0.0.0,OS X,10_15_7,https://5puzkbbxv1.cognition.run/?sona_id=51129,"en-US,en;q=0.9",g3q7bzl9kx5vj1k,20,"[""White""]",No,Female,"NA
",No,395874,NA,3718,NA,"{""product_choice"":""A""}",choice,ct,binary,repulsion,1,televisions,null,null,null,null,null,null,2,100,90,null,30,40,null,Screen size,Average lifespan,NA,NA
NA,NA,NA,NA,NA,choice_trial_setup,html-keyboard-response,86,305120,0.0-4.0-0.41,211,1,2025-05-05T22:51:28Z,b60275e29fe2361ab97ac0ac217840d7,"Mozilla/5.0 (Macintosh; Intel Mac OS X 10_15_7) AppleWebKit/537.36 (KHTML, like Gecko) Chrome/122.0.0.0 Safari/537.36",Macintosh,Chrome,122.0.0.0,OS X,10_15_7,https://5puzkbbxv1.cognition.run/?sona_id=51129,"en-US,en;q=0.9",g3q7bzl9kx5vj1k,20,"[""White""]",No,Female,"NA
",No,395874,NA,null,<p></p>,null,choice,dtc,trinary,repulsion_B,1,televisions,null,null,null,null,null,null,2,NA,NA,NA,NA,NA,NA,NA,NA,NA,NA
NA,NA,NA,NA,NA,choice_trial,survey-html-form,87,311031,0.0-4.0-1.41,211,1,2025-05-05T22:51:28Z,b60275e29fe2361ab97ac0ac217840d7,"Mozilla/5.0 (Macintosh; Intel Mac OS X 10_15_7) AppleWebKit/537.36 (KHTML, like Gecko) Chrome/122.0.0.0 Safari/537.36",Macintosh,Chrome,122.0.0.0,OS X,10_15_7,https://5puzkbbxv1.cognition.run/?sona_id=51129,"en-US,en;q=0.9",g3q7bzl9kx5vj1k,20,"[""White""]",No,Female,"NA
",No,395874,NA,5904,NA,"{""product_choice"":""B""}",choice,dtc,trinary,repulsion_B,1,televisions,null,null,null,null,null,null,2,90,100,80,40,30,40,Screen size,Average lifespan,NA,NA
NA,NA,NA,NA,NA,choice_trial_setup,html-keyboard-response,88,311337,0.0-4.0-0.42,211,1,2025-05-05T22:51:28Z,b60275e29fe2361ab97ac0ac217840d7,"Mozilla/5.0 (Macintosh; Intel Mac OS X 10_15_7) AppleWebKit/537.36 (KHTML, like Gecko) Chrome/122.0.0.0 Safari/537.36",Macintosh,Chrome,122.0.0.0,OS X,10_15_7,https://5puzkbbxv1.cognition.run/?sona_id=51129,"en-US,en;q=0.9",g3q7bzl9kx5vj1k,20,"[""White""]",No,Female,"NA
",No,395874,NA,null,<p></p>,null,choice,tcd,trinary,repulsion_A,2,microwave ovens,null,null,null,null,null,null,1,NA,NA,NA,NA,NA,NA,NA,NA,NA,NA
NA,NA,NA,NA,NA,choice_trial,survey-html-form,89,315248,0.0-4.0-1.42,211,1,2025-05-05T22:51:28Z,b60275e29fe2361ab97ac0ac217840d7,"Mozilla/5.0 (Macintosh; Intel Mac OS X 10_15_7) AppleWebKit/537.36 (KHTML, like Gecko) Chrome/122.0.0.0 Safari/537.36",Macintosh,Chrome,122.0.0.0,OS X,10_15_7,https://5puzkbbxv1.cognition.run/?sona_id=51129,"en-US,en;q=0.9",g3q7bzl9kx5vj1k,20,"[""White""]",No,Female,"NA
",No,395874,NA,3904,NA,"{""product_choice"":""B""}",choice,tcd,trinary,repulsion_A,2,microwave ovens,null,null,null,null,null,null,1,30,40,20,100,90,100,Warranty,Cooking power,NA,NA
NA,NA,NA,NA,NA,choice_trial_setup,html-keyboard-response,90,315554,0.0-4.0-0.43,211,1,2025-05-05T22:51:28Z,b60275e29fe2361ab97ac0ac217840d7,"Mozilla/5.0 (Macintosh; Intel Mac OS X 10_15_7) AppleWebKit/537.36 (KHTML, like Gecko) Chrome/122.0.0.0 Safari/537.36",Macintosh,Chrome,122.0.0.0,OS X,10_15_7,https://5puzkbbxv1.cognition.run/?sona_id=51129,"en-US,en;q=0.9",g3q7bzl9kx5vj1k,20,"[""White""]",No,Female,"NA
",No,395874,NA,null,<p></p>,null,choice,ctd,trinary,repulsion_A,1,laptops,null,null,null,null,null,null,1,NA,NA,NA,NA,NA,NA,NA,NA,NA,NA
NA,NA,NA,NA,NA,choice_trial,survey-html-form,91,320180,0.0-4.0-1.43,211,1,2025-05-05T22:51:28Z,b60275e29fe2361ab97ac0ac217840d7,"Mozilla/5.0 (Macintosh; Intel Mac OS X 10_15_7) AppleWebKit/537.36 (KHTML, like Gecko) Chrome/122.0.0.0 Safari/537.36",Macintosh,Chrome,122.0.0.0,OS X,10_15_7,https://5puzkbbxv1.cognition.run/?sona_id=51129,"en-US,en;q=0.9",g3q7bzl9kx5vj1k,20,"[""White""]",No,Female,"NA
",No,395874,NA,4620,NA,"{""product_choice"":""A""}",choice,ctd,trinary,repulsion_A,1,laptops,null,null,null,null,null,null,1,100,90,100,30,40,20,Processing speed,Memory (RAM),NA,NA
NA,NA,NA,NA,NA,post_trials_message,html-button-response,92,322983,0.0-5.0,211,1,2025-05-05T22:51:28Z,b60275e29fe2361ab97ac0ac217840d7,"Mozilla/5.0 (Macintosh; Intel Mac OS X 10_15_7) AppleWebKit/537.36 (KHTML, like Gecko) Chrome/122.0.0.0 Safari/537.36",Macintosh,Chrome,122.0.0.0,OS X,10_15_7,https://5puzkbbxv1.cognition.run/?sona_id=51129,"en-US,en;q=0.9",g3q7bzl9kx5vj1k,20,"[""White""]",No,Female,"NA
",No,395874,NA,2794,<p> <b>Thank you for your patience!</b></p><p>  The study will be done after completing a brief form. </p>,0,NA,NA,NA,NA,NA,NA,NA,NA,NA,NA,NA,NA,NA,NA,NA,NA,NA,NA,NA,NA,NA,NA,NA
NA,NA,NA,NA,NA,survey_message,survey-text,93,367101,0.0-6.0,211,1,2025-05-05T22:51:28Z,b60275e29fe2361ab97ac0ac217840d7,"Mozilla/5.0 (Macintosh; Intel Mac OS X 10_15_7) AppleWebKit/537.36 (KHTML, like Gecko) Chrome/122.0.0.0 Safari/537.36",Macintosh,Chrome,122.0.0.0,OS X,10_15_7,https://5puzkbbxv1.cognition.run/?sona_id=51129,"en-US,en;q=0.9",g3q7bzl9kx5vj1k,20,"[""White""]",No,Female,"NA
",No,395874,NA,44109,NA,"{""Q0"":""I chose to pick what appliance had the highest life span, or if it had a mid-high number for both criteria ""}",NA,NA,NA,NA,NA,NA,NA,NA,NA,NA,NA,NA,NA,NA,NA,NA,NA,NA,NA,NA,NA,"I chose to pick what appliance had the highest life span, or if it had a mid-high number for both criteria",NA
NA,NA,NA,NA,NA,demo_age,survey-text,94,369200,0.0-7.0,211,1,2025-05-05T22:51:28Z,b60275e29fe2361ab97ac0ac217840d7,"Mozilla/5.0 (Macintosh; Intel Mac OS X 10_15_7) AppleWebKit/537.36 (KHTML, like Gecko) Chrome/122.0.0.0 Safari/537.36",Macintosh,Chrome,122.0.0.0,OS X,10_15_7,https://5puzkbbxv1.cognition.run/?sona_id=51129,"en-US,en;q=0.9",g3q7bzl9kx5vj1k,20,"[""White""]",No,Female,"NA
",No,395874,NA,2092,NA,"{""Q0"":""20""}",NA,NA,NA,NA,NA,NA,NA,NA,NA,NA,NA,NA,NA,NA,NA,NA,NA,NA,NA,NA,NA,NA,NA
NA,NA,NA,NA,NA,demo_race,survey-multi-select,95,371932,0.0-8.0,211,1,2025-05-05T22:51:28Z,b60275e29fe2361ab97ac0ac217840d7,"Mozilla/5.0 (Macintosh; Intel Mac OS X 10_15_7) AppleWebKit/537.36 (KHTML, like Gecko) Chrome/122.0.0.0 Safari/537.36",Macintosh,Chrome,122.0.0.0,OS X,10_15_7,https://5puzkbbxv1.cognition.run/?sona_id=51129,"en-US,en;q=0.9",g3q7bzl9kx5vj1k,20,"[""White""]",No,Female,"NA
",No,395874,NA,2723,NA,"{""Q0"":[""White""]}",NA,NA,NA,NA,NA,NA,NA,NA,NA,NA,NA,NA,NA,NA,NA,NA,NA,NA,NA,NA,NA,NA,[0]
NA,NA,NA,NA,NA,demo_ethnicity_gender,survey-multi-choice,96,375384,0.0-9.0,211,1,2025-05-05T22:51:28Z,b60275e29fe2361ab97ac0ac217840d7,"Mozilla/5.0 (Macintosh; Intel Mac OS X 10_15_7) AppleWebKit/537.36 (KHTML, like Gecko) Chrome/122.0.0.0 Safari/537.36",Macintosh,Chrome,122.0.0.0,OS X,10_15_7,https://5puzkbbxv1.cognition.run/?sona_id=51129,"en-US,en;q=0.9",g3q7bzl9kx5vj1k,20,"[""White""]",No,Female,"NA
",No,395874,NA,3442,NA,"{""Q0"":""No"",""Q1"":""Female""}",NA,NA,NA,NA,NA,NA,NA,NA,NA,NA,NA,NA,NA,NA,NA,NA,NA,NA,NA,NA,NA,NA,"[0,1]"
NA,NA,NA,NA,NA,demo_countries,survey-text,97,380414,0.0-10.0,211,1,2025-05-05T22:51:28Z,b60275e29fe2361ab97ac0ac217840d7,"Mozilla/5.0 (Macintosh; Intel Mac OS X 10_15_7) AppleWebKit/537.36 (KHTML, like Gecko) Chrome/122.0.0.0 Safari/537.36",Macintosh,Chrome,122.0.0.0,OS X,10_15_7,https://5puzkbbxv1.cognition.run/?sona_id=51129,"en-US,en;q=0.9",g3q7bzl9kx5vj1k,20,"[""White""]",No,Female,"NA
",No,395874,NA,5003,NA,"{""Q0"":""NA\n""}",NA,NA,NA,NA,NA,NA,NA,NA,NA,NA,NA,NA,NA,NA,NA,NA,NA,NA,NA,NA,NA,NA,NA
NA,NA,NA,NA,NA,demo_prev_study,survey-multi-choice,98,386463,0.0-11.0,211,1,2025-05-05T22:51:28Z,b60275e29fe2361ab97ac0ac217840d7,"Mozilla/5.0 (Macintosh; Intel Mac OS X 10_15_7) AppleWebKit/537.36 (KHTML, like Gecko) Chrome/122.0.0.0 Safari/537.36",Macintosh,Chrome,122.0.0.0,OS X,10_15_7,https://5puzkbbxv1.cognition.run/?sona_id=51129,"en-US,en;q=0.9",g3q7bzl9kx5vj1k,20,"[""White""]",No,Female,"NA
",No,395874,NA,6042,NA,"{""Q0"":""No""}",NA,NA,NA,NA,NA,NA,NA,NA,NA,NA,NA,NA,NA,NA,NA,NA,NA,NA,NA,NA,NA,NA,[0]
NA,NA,NA,NA,NA,post_survey_message,html-keyboard-response,99,391101,0.0-12.0,211,1,2025-05-05T22:51:28Z,b60275e29fe2361ab97ac0ac217840d7,"Mozilla/5.0 (Macintosh; Intel Mac OS X 10_15_7) AppleWebKit/537.36 (KHTML, like Gecko) Chrome/122.0.0.0 Safari/537.36",Macintosh,Chrome,122.0.0.0,OS X,10_15_7,https://5puzkbbxv1.cognition.run/?sona_id=51129,"en-US,en;q=0.9",g3q7bzl9kx5vj1k,20,"[""White""]",No,Female,"NA
",No,395874,NA,4628,NA,j,NA,NA,NA,NA,NA,NA,NA,NA,NA,NA,NA,NA,NA,NA,NA,NA,NA,NA,NA,NA,NA,NA,NA
NA,NA,NA,NA,NA,debrief,image-keyboard-response,100,395857,0.0-13.0,211,1,2025-05-05T22:51:28Z,b60275e29fe2361ab97ac0ac217840d7,"Mozilla/5.0 (Macintosh; Intel Mac OS X 10_15_7) AppleWebKit/537.36 (KHTML, like Gecko) Chrome/122.0.0.0 Safari/537.36",Macintosh,Chrome,122.0.0.0,OS X,10_15_7,https://5puzkbbxv1.cognition.run/?sona_id=51129,"en-US,en;q=0.9",g3q7bzl9kx5vj1k,20,"[""White""]",No,Female,"NA
",No,395874,NA,4744,Judg_choice_debrief.png,p,NA,NA,NA,NA,NA,NA,NA,NA,NA,NA,NA,NA,NA,NA,NA,NA,NA,NA,NA,NA,NA,NA,NA
