success,timeout,failed_images,failed_audio,failed_video,screen_id,trial_type,trial_index,time_elapsed,internal_node_id,run_id,condition,recorded_at,source_code_version,user_agent,device,browser,browser_version,platform,platform_version,referer,accept_language,ppt_id,age,race,ethnicity,gender,other_countries,prev_study,exp_duration,view_history,rt,stimulus,response,phase,order,set,effect,t_high,category,d1_best,d2_best,d1_worst1,d2_worst1,d1_worst2,d2_worst2,first_dim,d1_t,d1_c,d1_d,d2_t,d2_c,d2_d,d1_name,d2_name,strategy_response,question_order
TRUE,FALSE,[],[],[],img preload,preload,0,247,0.0-0.0,213,1,2025-05-05T23:19:18Z,b60275e29fe2361ab97ac0ac217840d7,"Mozilla/5.0 (X11; CrOS x86_64 14541.0.0) AppleWebKit/537.36 (KHTML, like Gecko) Chrome/135.0.0.0 Safari/537.36",WebKit,Chrome,135.0.0.0,ChromeOS,14541.0.0,https://5puzkbbxv1.cognition.run/?sona_id=57704,"en-US,en;q=0.9",ctho650wmuu5qy9,19,"[""White""]",No,Female,NA,No,327400.49999999953,NA,NA,NA,NA,NA,NA,NA,NA,NA,NA,NA,NA,NA,NA,NA,NA,NA,NA,NA,NA,NA,NA,NA,NA,NA,NA,NA
NA,NA,NA,NA,NA,computer_message,instructions,1,2986,0.0-1.0,213,1,2025-05-05T23:19:18Z,b60275e29fe2361ab97ac0ac217840d7,"Mozilla/5.0 (X11; CrOS x86_64 14541.0.0) AppleWebKit/537.36 (KHTML, like Gecko) Chrome/135.0.0.0 Safari/537.36",WebKit,Chrome,135.0.0.0,ChromeOS,14541.0.0,https://5puzkbbxv1.cognition.run/?sona_id=57704,"en-US,en;q=0.9",ctho650wmuu5qy9,19,"[""White""]",No,Female,NA,No,327400.49999999953,"[{""page_index"":0,""viewing_time"":2728}]",2729,NA,NA,NA,NA,NA,NA,NA,NA,NA,NA,NA,NA,NA,NA,NA,NA,NA,NA,NA,NA,NA,NA,NA,NA,NA
TRUE,NA,NA,NA,NA,NA,fullscreen,2,5994,0.0-2.0,213,1,2025-05-05T23:19:18Z,b60275e29fe2361ab97ac0ac217840d7,"Mozilla/5.0 (X11; CrOS x86_64 14541.0.0) AppleWebKit/537.36 (KHTML, like Gecko) Chrome/135.0.0.0 Safari/537.36",WebKit,Chrome,135.0.0.0,ChromeOS,14541.0.0,https://5puzkbbxv1.cognition.run/?sona_id=57704,"en-US,en;q=0.9",ctho650wmuu5qy9,19,"[""White""]",No,Female,NA,No,327400.49999999953,NA,2003,NA,NA,NA,NA,NA,NA,NA,NA,NA,NA,NA,NA,NA,NA,NA,NA,NA,NA,NA,NA,NA,NA,NA,NA,NA
NA,NA,NA,NA,NA,choice_instructions,instructions,3,42398,0.0-3.0,213,1,2025-05-05T23:19:18Z,b60275e29fe2361ab97ac0ac217840d7,"Mozilla/5.0 (X11; CrOS x86_64 14541.0.0) AppleWebKit/537.36 (KHTML, like Gecko) Chrome/135.0.0.0 Safari/537.36",WebKit,Chrome,135.0.0.0,ChromeOS,14541.0.0,https://5puzkbbxv1.cognition.run/?sona_id=57704,"en-US,en;q=0.9",ctho650wmuu5qy9,19,"[""White""]",No,Female,NA,No,327400.49999999953,"[{""page_index"":0,""viewing_time"":1186},{""page_index"":1,""viewing_time"":2347},{""page_index"":2,""viewing_time"":2529},{""page_index"":3,""viewing_time"":4196},{""page_index"":4,""viewing_time"":2306},{""page_index"":5,""viewing_time"":10159},{""page_index"":6,""viewing_time"":2063},{""page_index"":5,""viewing_time"":6914},{""page_index"":6,""viewing_time"":4701}]",36401,NA,NA,NA,NA,NA,NA,NA,NA,NA,NA,NA,NA,NA,NA,NA,NA,NA,NA,NA,NA,NA,NA,NA,NA,NA
NA,NA,NA,NA,NA,choice_trial_setup,html-keyboard-response,4,42704,0.0-4.0-0.0,213,1,2025-05-05T23:19:18Z,b60275e29fe2361ab97ac0ac217840d7,"Mozilla/5.0 (X11; CrOS x86_64 14541.0.0) AppleWebKit/537.36 (KHTML, like Gecko) Chrome/135.0.0.0 Safari/537.36",WebKit,Chrome,135.0.0.0,ChromeOS,14541.0.0,https://5puzkbbxv1.cognition.run/?sona_id=57704,"en-US,en;q=0.9",ctho650wmuu5qy9,19,"[""White""]",No,Female,NA,No,327400.49999999953,NA,null,<p></p>,null,choice,ct,binary,repulsion,1,televisions,null,null,null,null,null,null,1,NA,NA,NA,NA,NA,NA,NA,NA,NA,NA
NA,NA,NA,NA,NA,choice_trial,survey-html-form,5,59042,0.0-4.0-1.0,213,1,2025-05-05T23:19:18Z,b60275e29fe2361ab97ac0ac217840d7,"Mozilla/5.0 (X11; CrOS x86_64 14541.0.0) AppleWebKit/537.36 (KHTML, like Gecko) Chrome/135.0.0.0 Safari/537.36",WebKit,Chrome,135.0.0.0,ChromeOS,14541.0.0,https://5puzkbbxv1.cognition.run/?sona_id=57704,"en-US,en;q=0.9",ctho650wmuu5qy9,19,"[""White""]",No,Female,NA,No,327400.49999999953,NA,16327,NA,"{""product_choice"":""A""}",choice,ct,binary,repulsion,1,televisions,null,null,null,null,null,null,1,100,90,null,30,40,null,Screen size,Average lifespan,NA,NA
NA,NA,NA,NA,NA,choice_trial_setup,html-keyboard-response,6,59347,0.0-4.0-0.1,213,1,2025-05-05T23:19:18Z,b60275e29fe2361ab97ac0ac217840d7,"Mozilla/5.0 (X11; CrOS x86_64 14541.0.0) AppleWebKit/537.36 (KHTML, like Gecko) Chrome/135.0.0.0 Safari/537.36",WebKit,Chrome,135.0.0.0,ChromeOS,14541.0.0,https://5puzkbbxv1.cognition.run/?sona_id=57704,"en-US,en;q=0.9",ctho650wmuu5qy9,19,"[""White""]",No,Female,NA,No,327400.49999999953,NA,null,<p></p>,null,choice,dct,trinary,attraction,1,televisions,null,null,null,null,null,null,1,NA,NA,NA,NA,NA,NA,NA,NA,NA,NA
NA,NA,NA,NA,NA,choice_trial,survey-html-form,7,69122,0.0-4.0-1.1,213,1,2025-05-05T23:19:18Z,b60275e29fe2361ab97ac0ac217840d7,"Mozilla/5.0 (X11; CrOS x86_64 14541.0.0) AppleWebKit/537.36 (KHTML, like Gecko) Chrome/135.0.0.0 Safari/537.36",WebKit,Chrome,135.0.0.0,ChromeOS,14541.0.0,https://5puzkbbxv1.cognition.run/?sona_id=57704,"en-US,en;q=0.9",ctho650wmuu5qy9,19,"[""White""]",No,Female,NA,No,327400.49999999953,NA,9770,NA,"{""product_choice"":""B""}",choice,dct,trinary,attraction,1,televisions,null,null,null,null,null,null,1,60,50,60,50,60,40,Screen size,Average lifespan,NA,NA
NA,NA,NA,NA,NA,choice_trial_setup,html-keyboard-response,8,69430,0.0-4.0-0.2,213,1,2025-05-05T23:19:18Z,b60275e29fe2361ab97ac0ac217840d7,"Mozilla/5.0 (X11; CrOS x86_64 14541.0.0) AppleWebKit/537.36 (KHTML, like Gecko) Chrome/135.0.0.0 Safari/537.36",WebKit,Chrome,135.0.0.0,ChromeOS,14541.0.0,https://5puzkbbxv1.cognition.run/?sona_id=57704,"en-US,en;q=0.9",ctho650wmuu5qy9,19,"[""White""]",No,Female,NA,No,327400.49999999953,NA,null,<p></p>,null,choice,bw,binary,catch,null,laptops,60,65,5,40,null,null,2,NA,NA,NA,NA,NA,NA,NA,NA,NA,NA
NA,NA,NA,NA,NA,choice_trial,survey-html-form,9,76368,0.0-4.0-1.2,213,1,2025-05-05T23:19:18Z,b60275e29fe2361ab97ac0ac217840d7,"Mozilla/5.0 (X11; CrOS x86_64 14541.0.0) AppleWebKit/537.36 (KHTML, like Gecko) Chrome/135.0.0.0 Safari/537.36",WebKit,Chrome,135.0.0.0,ChromeOS,14541.0.0,https://5puzkbbxv1.cognition.run/?sona_id=57704,"en-US,en;q=0.9",ctho650wmuu5qy9,19,"[""White""]",No,Female,NA,No,327400.49999999953,NA,6929,NA,"{""product_choice"":""A""}",choice,bw,binary,catch,null,laptops,60,65,5,40,null,null,2,null,null,null,null,null,null,Processing speed,Memory (RAM),NA,NA
NA,NA,NA,NA,NA,choice_trial_setup,html-keyboard-response,10,76672,0.0-4.0-0.3,213,1,2025-05-05T23:19:18Z,b60275e29fe2361ab97ac0ac217840d7,"Mozilla/5.0 (X11; CrOS x86_64 14541.0.0) AppleWebKit/537.36 (KHTML, like Gecko) Chrome/135.0.0.0 Safari/537.36",WebKit,Chrome,135.0.0.0,ChromeOS,14541.0.0,https://5puzkbbxv1.cognition.run/?sona_id=57704,"en-US,en;q=0.9",ctho650wmuu5qy9,19,"[""White""]",No,Female,NA,No,327400.49999999953,NA,null,<p></p>,null,choice,ct,binary,repulsion,1,laptops,null,null,null,null,null,null,1,NA,NA,NA,NA,NA,NA,NA,NA,NA,NA
NA,NA,NA,NA,NA,choice_trial,survey-html-form,11,81224,0.0-4.0-1.3,213,1,2025-05-05T23:19:18Z,b60275e29fe2361ab97ac0ac217840d7,"Mozilla/5.0 (X11; CrOS x86_64 14541.0.0) AppleWebKit/537.36 (KHTML, like Gecko) Chrome/135.0.0.0 Safari/537.36",WebKit,Chrome,135.0.0.0,ChromeOS,14541.0.0,https://5puzkbbxv1.cognition.run/?sona_id=57704,"en-US,en;q=0.9",ctho650wmuu5qy9,19,"[""White""]",No,Female,NA,No,327400.49999999953,NA,4545,NA,"{""product_choice"":""A""}",choice,ct,binary,repulsion,1,laptops,null,null,null,null,null,null,1,100,90,null,30,40,null,Processing speed,Memory (RAM),NA,NA
NA,NA,NA,NA,NA,choice_trial_setup,html-keyboard-response,12,81528,0.0-4.0-0.4,213,1,2025-05-05T23:19:18Z,b60275e29fe2361ab97ac0ac217840d7,"Mozilla/5.0 (X11; CrOS x86_64 14541.0.0) AppleWebKit/537.36 (KHTML, like Gecko) Chrome/135.0.0.0 Safari/537.36",WebKit,Chrome,135.0.0.0,ChromeOS,14541.0.0,https://5puzkbbxv1.cognition.run/?sona_id=57704,"en-US,en;q=0.9",ctho650wmuu5qy9,19,"[""White""]",No,Female,NA,No,327400.49999999953,NA,null,<p></p>,null,choice,ct,binary,attraction,NA,televisions,null,null,null,null,null,null,1,NA,NA,NA,NA,NA,NA,NA,NA,NA,NA
NA,NA,NA,NA,NA,choice_trial,survey-html-form,13,86957,0.0-4.0-1.4,213,1,2025-05-05T23:19:18Z,b60275e29fe2361ab97ac0ac217840d7,"Mozilla/5.0 (X11; CrOS x86_64 14541.0.0) AppleWebKit/537.36 (KHTML, like Gecko) Chrome/135.0.0.0 Safari/537.36",WebKit,Chrome,135.0.0.0,ChromeOS,14541.0.0,https://5puzkbbxv1.cognition.run/?sona_id=57704,"en-US,en;q=0.9",ctho650wmuu5qy9,19,"[""White""]",No,Female,NA,No,327400.49999999953,NA,5424,NA,"{""product_choice"":""B""}",choice,ct,binary,attraction,NA,televisions,null,null,null,null,null,null,1,60,50,null,50,60,null,Screen size,Average lifespan,NA,NA
NA,NA,NA,NA,NA,choice_trial_setup,html-keyboard-response,14,87264,0.0-4.0-0.5,213,1,2025-05-05T23:19:18Z,b60275e29fe2361ab97ac0ac217840d7,"Mozilla/5.0 (X11; CrOS x86_64 14541.0.0) AppleWebKit/537.36 (KHTML, like Gecko) Chrome/135.0.0.0 Safari/537.36",WebKit,Chrome,135.0.0.0,ChromeOS,14541.0.0,https://5puzkbbxv1.cognition.run/?sona_id=57704,"en-US,en;q=0.9",ctho650wmuu5qy9,19,"[""White""]",No,Female,NA,No,327400.49999999953,NA,null,<p></p>,null,choice,ct,binary,repulsion,1,microwave ovens,null,null,null,null,null,null,2,NA,NA,NA,NA,NA,NA,NA,NA,NA,NA
NA,NA,NA,NA,NA,choice_trial,survey-html-form,15,92063,0.0-4.0-1.5,213,1,2025-05-05T23:19:18Z,b60275e29fe2361ab97ac0ac217840d7,"Mozilla/5.0 (X11; CrOS x86_64 14541.0.0) AppleWebKit/537.36 (KHTML, like Gecko) Chrome/135.0.0.0 Safari/537.36",WebKit,Chrome,135.0.0.0,ChromeOS,14541.0.0,https://5puzkbbxv1.cognition.run/?sona_id=57704,"en-US,en;q=0.9",ctho650wmuu5qy9,19,"[""White""]",No,Female,NA,No,327400.49999999953,NA,4792,NA,"{""product_choice"":""A""}",choice,ct,binary,repulsion,1,microwave ovens,null,null,null,null,null,null,2,100,90,null,30,40,null,Warranty,Cooking power,NA,NA
NA,NA,NA,NA,NA,choice_trial_setup,html-keyboard-response,16,92367,0.0-4.0-0.6,213,1,2025-05-05T23:19:18Z,b60275e29fe2361ab97ac0ac217840d7,"Mozilla/5.0 (X11; CrOS x86_64 14541.0.0) AppleWebKit/537.36 (KHTML, like Gecko) Chrome/135.0.0.0 Safari/537.36",WebKit,Chrome,135.0.0.0,ChromeOS,14541.0.0,https://5puzkbbxv1.cognition.run/?sona_id=57704,"en-US,en;q=0.9",ctho650wmuu5qy9,19,"[""White""]",No,Female,NA,No,327400.49999999953,NA,null,<p></p>,null,choice,wwb,trinary,catch,null,washing machines,75,75,45,10,30,50,1,NA,NA,NA,NA,NA,NA,NA,NA,NA,NA
NA,NA,NA,NA,NA,choice_trial,survey-html-form,17,98647,0.0-4.0-1.6,213,1,2025-05-05T23:19:18Z,b60275e29fe2361ab97ac0ac217840d7,"Mozilla/5.0 (X11; CrOS x86_64 14541.0.0) AppleWebKit/537.36 (KHTML, like Gecko) Chrome/135.0.0.0 Safari/537.36",WebKit,Chrome,135.0.0.0,ChromeOS,14541.0.0,https://5puzkbbxv1.cognition.run/?sona_id=57704,"en-US,en;q=0.9",ctho650wmuu5qy9,19,"[""White""]",No,Female,NA,No,327400.49999999953,NA,6273,NA,"{""product_choice"":""C""}",choice,wwb,trinary,catch,null,washing machines,75,75,45,10,30,50,1,null,null,null,null,null,null,Average lifespan,Energy savings,NA,NA
NA,NA,NA,NA,NA,choice_trial_setup,html-keyboard-response,18,98952,0.0-4.0-0.7,213,1,2025-05-05T23:19:18Z,b60275e29fe2361ab97ac0ac217840d7,"Mozilla/5.0 (X11; CrOS x86_64 14541.0.0) AppleWebKit/537.36 (KHTML, like Gecko) Chrome/135.0.0.0 Safari/537.36",WebKit,Chrome,135.0.0.0,ChromeOS,14541.0.0,https://5puzkbbxv1.cognition.run/?sona_id=57704,"en-US,en;q=0.9",ctho650wmuu5qy9,19,"[""White""]",No,Female,NA,No,327400.49999999953,NA,null,<p></p>,null,choice,bw,binary,catch,null,microwave ovens,65,90,25,30,null,null,1,NA,NA,NA,NA,NA,NA,NA,NA,NA,NA
NA,NA,NA,NA,NA,choice_trial,survey-html-form,19,103389,0.0-4.0-1.7,213,1,2025-05-05T23:19:18Z,b60275e29fe2361ab97ac0ac217840d7,"Mozilla/5.0 (X11; CrOS x86_64 14541.0.0) AppleWebKit/537.36 (KHTML, like Gecko) Chrome/135.0.0.0 Safari/537.36",WebKit,Chrome,135.0.0.0,ChromeOS,14541.0.0,https://5puzkbbxv1.cognition.run/?sona_id=57704,"en-US,en;q=0.9",ctho650wmuu5qy9,19,"[""White""]",No,Female,NA,No,327400.49999999953,NA,4428,NA,"{""product_choice"":""A""}",choice,bw,binary,catch,null,microwave ovens,65,90,25,30,null,null,1,null,null,null,null,null,null,Warranty,Cooking power,NA,NA
NA,NA,NA,NA,NA,choice_trial_setup,html-keyboard-response,20,103695,0.0-4.0-0.8,213,1,2025-05-05T23:19:18Z,b60275e29fe2361ab97ac0ac217840d7,"Mozilla/5.0 (X11; CrOS x86_64 14541.0.0) AppleWebKit/537.36 (KHTML, like Gecko) Chrome/135.0.0.0 Safari/537.36",WebKit,Chrome,135.0.0.0,ChromeOS,14541.0.0,https://5puzkbbxv1.cognition.run/?sona_id=57704,"en-US,en;q=0.9",ctho650wmuu5qy9,19,"[""White""]",No,Female,NA,No,327400.49999999953,NA,null,<p></p>,null,choice,ctd,trinary,repulsion_A,1,televisions,null,null,null,null,null,null,1,NA,NA,NA,NA,NA,NA,NA,NA,NA,NA
NA,NA,NA,NA,NA,choice_trial,survey-html-form,21,107958,0.0-4.0-1.8,213,1,2025-05-05T23:19:18Z,b60275e29fe2361ab97ac0ac217840d7,"Mozilla/5.0 (X11; CrOS x86_64 14541.0.0) AppleWebKit/537.36 (KHTML, like Gecko) Chrome/135.0.0.0 Safari/537.36",WebKit,Chrome,135.0.0.0,ChromeOS,14541.0.0,https://5puzkbbxv1.cognition.run/?sona_id=57704,"en-US,en;q=0.9",ctho650wmuu5qy9,19,"[""White""]",No,Female,NA,No,327400.49999999953,NA,4254,NA,"{""product_choice"":""A""}",choice,ctd,trinary,repulsion_A,1,televisions,null,null,null,null,null,null,1,100,90,100,30,40,20,Screen size,Average lifespan,NA,NA
NA,NA,NA,NA,NA,choice_trial_setup,html-keyboard-response,22,108263,0.0-4.0-0.9,213,1,2025-05-05T23:19:18Z,b60275e29fe2361ab97ac0ac217840d7,"Mozilla/5.0 (X11; CrOS x86_64 14541.0.0) AppleWebKit/537.36 (KHTML, like Gecko) Chrome/135.0.0.0 Safari/537.36",WebKit,Chrome,135.0.0.0,ChromeOS,14541.0.0,https://5puzkbbxv1.cognition.run/?sona_id=57704,"en-US,en;q=0.9",ctho650wmuu5qy9,19,"[""White""]",No,Female,NA,No,327400.49999999953,NA,null,<p></p>,null,choice,ctd,trinary,repulsion_A,2,washing machines,null,null,null,null,null,null,2,NA,NA,NA,NA,NA,NA,NA,NA,NA,NA
NA,NA,NA,NA,NA,choice_trial,survey-html-form,23,113086,0.0-4.0-1.9,213,1,2025-05-05T23:19:18Z,b60275e29fe2361ab97ac0ac217840d7,"Mozilla/5.0 (X11; CrOS x86_64 14541.0.0) AppleWebKit/537.36 (KHTML, like Gecko) Chrome/135.0.0.0 Safari/537.36",WebKit,Chrome,135.0.0.0,ChromeOS,14541.0.0,https://5puzkbbxv1.cognition.run/?sona_id=57704,"en-US,en;q=0.9",ctho650wmuu5qy9,19,"[""White""]",No,Female,NA,No,327400.49999999953,NA,4816,NA,"{""product_choice"":""A""}",choice,ctd,trinary,repulsion_A,2,washing machines,null,null,null,null,null,null,2,30,40,20,100,90,100,Average lifespan,Energy savings,NA,NA
NA,NA,NA,NA,NA,choice_trial_setup,html-keyboard-response,24,113391,0.0-4.0-0.10,213,1,2025-05-05T23:19:18Z,b60275e29fe2361ab97ac0ac217840d7,"Mozilla/5.0 (X11; CrOS x86_64 14541.0.0) AppleWebKit/537.36 (KHTML, like Gecko) Chrome/135.0.0.0 Safari/537.36",WebKit,Chrome,135.0.0.0,ChromeOS,14541.0.0,https://5puzkbbxv1.cognition.run/?sona_id=57704,"en-US,en;q=0.9",ctho650wmuu5qy9,19,"[""White""]",No,Female,NA,No,327400.49999999953,NA,null,<p></p>,null,choice,tcd,trinary,repulsion_A,1,laptops,null,null,null,null,null,null,2,NA,NA,NA,NA,NA,NA,NA,NA,NA,NA
NA,NA,NA,NA,NA,choice_trial,survey-html-form,25,120296,0.0-4.0-1.10,213,1,2025-05-05T23:19:18Z,b60275e29fe2361ab97ac0ac217840d7,"Mozilla/5.0 (X11; CrOS x86_64 14541.0.0) AppleWebKit/537.36 (KHTML, like Gecko) Chrome/135.0.0.0 Safari/537.36",WebKit,Chrome,135.0.0.0,ChromeOS,14541.0.0,https://5puzkbbxv1.cognition.run/?sona_id=57704,"en-US,en;q=0.9",ctho650wmuu5qy9,19,"[""White""]",No,Female,NA,No,327400.49999999953,NA,6896,NA,"{""product_choice"":""B""}",choice,tcd,trinary,repulsion_A,1,laptops,null,null,null,null,null,null,2,100,90,100,30,40,20,Processing speed,Memory (RAM),NA,NA
NA,NA,NA,NA,NA,choice_trial_setup,html-keyboard-response,26,120602,0.0-4.0-0.11,213,1,2025-05-05T23:19:18Z,b60275e29fe2361ab97ac0ac217840d7,"Mozilla/5.0 (X11; CrOS x86_64 14541.0.0) AppleWebKit/537.36 (KHTML, like Gecko) Chrome/135.0.0.0 Safari/537.36",WebKit,Chrome,135.0.0.0,ChromeOS,14541.0.0,https://5puzkbbxv1.cognition.run/?sona_id=57704,"en-US,en;q=0.9",ctho650wmuu5qy9,19,"[""White""]",No,Female,NA,No,327400.49999999953,NA,null,<p></p>,null,choice,tdc,trinary,repulsion_A,2,microwave ovens,null,null,null,null,null,null,2,NA,NA,NA,NA,NA,NA,NA,NA,NA,NA
NA,NA,NA,NA,NA,choice_trial,survey-html-form,27,124167,0.0-4.0-1.11,213,1,2025-05-05T23:19:18Z,b60275e29fe2361ab97ac0ac217840d7,"Mozilla/5.0 (X11; CrOS x86_64 14541.0.0) AppleWebKit/537.36 (KHTML, like Gecko) Chrome/135.0.0.0 Safari/537.36",WebKit,Chrome,135.0.0.0,ChromeOS,14541.0.0,https://5puzkbbxv1.cognition.run/?sona_id=57704,"en-US,en;q=0.9",ctho650wmuu5qy9,19,"[""White""]",No,Female,NA,No,327400.49999999953,NA,3559,NA,"{""product_choice"":""C""}",choice,tdc,trinary,repulsion_A,2,microwave ovens,null,null,null,null,null,null,2,30,40,20,100,90,100,Warranty,Cooking power,NA,NA
NA,NA,NA,NA,NA,choice_trial_setup,html-keyboard-response,28,124474,0.0-4.0-0.12,213,1,2025-05-05T23:19:18Z,b60275e29fe2361ab97ac0ac217840d7,"Mozilla/5.0 (X11; CrOS x86_64 14541.0.0) AppleWebKit/537.36 (KHTML, like Gecko) Chrome/135.0.0.0 Safari/537.36",WebKit,Chrome,135.0.0.0,ChromeOS,14541.0.0,https://5puzkbbxv1.cognition.run/?sona_id=57704,"en-US,en;q=0.9",ctho650wmuu5qy9,19,"[""White""]",No,Female,NA,No,327400.49999999953,NA,null,<p></p>,null,choice,dct,trinary,repulsion_A,1,microwave ovens,null,null,null,null,null,null,2,NA,NA,NA,NA,NA,NA,NA,NA,NA,NA
NA,NA,NA,NA,NA,choice_trial,survey-html-form,29,131762,0.0-4.0-1.12,213,1,2025-05-05T23:19:18Z,b60275e29fe2361ab97ac0ac217840d7,"Mozilla/5.0 (X11; CrOS x86_64 14541.0.0) AppleWebKit/537.36 (KHTML, like Gecko) Chrome/135.0.0.0 Safari/537.36",WebKit,Chrome,135.0.0.0,ChromeOS,14541.0.0,https://5puzkbbxv1.cognition.run/?sona_id=57704,"en-US,en;q=0.9",ctho650wmuu5qy9,19,"[""White""]",No,Female,NA,No,327400.49999999953,NA,7278,NA,"{""product_choice"":""B""}",choice,dct,trinary,repulsion_A,1,microwave ovens,null,null,null,null,null,null,2,100,90,100,30,40,20,Warranty,Cooking power,NA,NA
NA,NA,NA,NA,NA,choice_trial_setup,html-keyboard-response,30,132069,0.0-4.0-0.13,213,1,2025-05-05T23:19:18Z,b60275e29fe2361ab97ac0ac217840d7,"Mozilla/5.0 (X11; CrOS x86_64 14541.0.0) AppleWebKit/537.36 (KHTML, like Gecko) Chrome/135.0.0.0 Safari/537.36",WebKit,Chrome,135.0.0.0,ChromeOS,14541.0.0,https://5puzkbbxv1.cognition.run/?sona_id=57704,"en-US,en;q=0.9",ctho650wmuu5qy9,19,"[""White""]",No,Female,NA,No,327400.49999999953,NA,null,<p></p>,null,choice,cdt,trinary,attraction,1,washing machines,null,null,null,null,null,null,2,NA,NA,NA,NA,NA,NA,NA,NA,NA,NA
NA,NA,NA,NA,NA,choice_trial,survey-html-form,31,141208,0.0-4.0-1.13,213,1,2025-05-05T23:19:18Z,b60275e29fe2361ab97ac0ac217840d7,"Mozilla/5.0 (X11; CrOS x86_64 14541.0.0) AppleWebKit/537.36 (KHTML, like Gecko) Chrome/135.0.0.0 Safari/537.36",WebKit,Chrome,135.0.0.0,ChromeOS,14541.0.0,https://5puzkbbxv1.cognition.run/?sona_id=57704,"en-US,en;q=0.9",ctho650wmuu5qy9,19,"[""White""]",No,Female,NA,No,327400.49999999953,NA,9129,NA,"{""product_choice"":""C""}",choice,cdt,trinary,attraction,1,washing machines,null,null,null,null,null,null,2,60,50,60,50,60,40,Average lifespan,Energy savings,NA,NA
NA,NA,NA,NA,NA,choice_trial_setup,html-keyboard-response,32,141514,0.0-4.0-0.14,213,1,2025-05-05T23:19:18Z,b60275e29fe2361ab97ac0ac217840d7,"Mozilla/5.0 (X11; CrOS x86_64 14541.0.0) AppleWebKit/537.36 (KHTML, like Gecko) Chrome/135.0.0.0 Safari/537.36",WebKit,Chrome,135.0.0.0,ChromeOS,14541.0.0,https://5puzkbbxv1.cognition.run/?sona_id=57704,"en-US,en;q=0.9",ctho650wmuu5qy9,19,"[""White""]",No,Female,NA,No,327400.49999999953,NA,null,<p></p>,null,choice,bw,binary,catch,null,televisions,60,65,20,30,null,null,2,NA,NA,NA,NA,NA,NA,NA,NA,NA,NA
NA,NA,NA,NA,NA,choice_trial,survey-html-form,33,145453,0.0-4.0-1.14,213,1,2025-05-05T23:19:18Z,b60275e29fe2361ab97ac0ac217840d7,"Mozilla/5.0 (X11; CrOS x86_64 14541.0.0) AppleWebKit/537.36 (KHTML, like Gecko) Chrome/135.0.0.0 Safari/537.36",WebKit,Chrome,135.0.0.0,ChromeOS,14541.0.0,https://5puzkbbxv1.cognition.run/?sona_id=57704,"en-US,en;q=0.9",ctho650wmuu5qy9,19,"[""White""]",No,Female,NA,No,327400.49999999953,NA,3928,NA,"{""product_choice"":""A""}",choice,bw,binary,catch,null,televisions,60,65,20,30,null,null,2,null,null,null,null,null,null,Screen size,Average lifespan,NA,NA
NA,NA,NA,NA,NA,choice_trial_setup,html-keyboard-response,34,145760,0.0-4.0-0.15,213,1,2025-05-05T23:19:18Z,b60275e29fe2361ab97ac0ac217840d7,"Mozilla/5.0 (X11; CrOS x86_64 14541.0.0) AppleWebKit/537.36 (KHTML, like Gecko) Chrome/135.0.0.0 Safari/537.36",WebKit,Chrome,135.0.0.0,ChromeOS,14541.0.0,https://5puzkbbxv1.cognition.run/?sona_id=57704,"en-US,en;q=0.9",ctho650wmuu5qy9,19,"[""White""]",No,Female,NA,No,327400.49999999953,NA,null,<p></p>,null,choice,tc,binary,attraction,NA,microwave ovens,null,null,null,null,null,null,1,NA,NA,NA,NA,NA,NA,NA,NA,NA,NA
NA,NA,NA,NA,NA,choice_trial,survey-html-form,35,149708,0.0-4.0-1.15,213,1,2025-05-05T23:19:18Z,b60275e29fe2361ab97ac0ac217840d7,"Mozilla/5.0 (X11; CrOS x86_64 14541.0.0) AppleWebKit/537.36 (KHTML, like Gecko) Chrome/135.0.0.0 Safari/537.36",WebKit,Chrome,135.0.0.0,ChromeOS,14541.0.0,https://5puzkbbxv1.cognition.run/?sona_id=57704,"en-US,en;q=0.9",ctho650wmuu5qy9,19,"[""White""]",No,Female,NA,No,327400.49999999953,NA,3939,NA,"{""product_choice"":""B""}",choice,tc,binary,attraction,NA,microwave ovens,null,null,null,null,null,null,1,60,50,null,50,60,null,Warranty,Cooking power,NA,NA
NA,NA,NA,NA,NA,choice_trial_setup,html-keyboard-response,36,150014,0.0-4.0-0.16,213,1,2025-05-05T23:19:18Z,b60275e29fe2361ab97ac0ac217840d7,"Mozilla/5.0 (X11; CrOS x86_64 14541.0.0) AppleWebKit/537.36 (KHTML, like Gecko) Chrome/135.0.0.0 Safari/537.36",WebKit,Chrome,135.0.0.0,ChromeOS,14541.0.0,https://5puzkbbxv1.cognition.run/?sona_id=57704,"en-US,en;q=0.9",ctho650wmuu5qy9,19,"[""White""]",No,Female,NA,No,327400.49999999953,NA,null,<p></p>,null,choice,bw,binary,catch,null,washing machines,90,50,40,5,null,null,2,NA,NA,NA,NA,NA,NA,NA,NA,NA,NA
NA,NA,NA,NA,NA,choice_trial,survey-html-form,37,153593,0.0-4.0-1.16,213,1,2025-05-05T23:19:18Z,b60275e29fe2361ab97ac0ac217840d7,"Mozilla/5.0 (X11; CrOS x86_64 14541.0.0) AppleWebKit/537.36 (KHTML, like Gecko) Chrome/135.0.0.0 Safari/537.36",WebKit,Chrome,135.0.0.0,ChromeOS,14541.0.0,https://5puzkbbxv1.cognition.run/?sona_id=57704,"en-US,en;q=0.9",ctho650wmuu5qy9,19,"[""White""]",No,Female,NA,No,327400.49999999953,NA,3568,NA,"{""product_choice"":""A""}",choice,bw,binary,catch,null,washing machines,90,50,40,5,null,null,2,null,null,null,null,null,null,Average lifespan,Energy savings,NA,NA
NA,NA,NA,NA,NA,choice_trial_setup,html-keyboard-response,38,153903,0.0-4.0-0.17,213,1,2025-05-05T23:19:18Z,b60275e29fe2361ab97ac0ac217840d7,"Mozilla/5.0 (X11; CrOS x86_64 14541.0.0) AppleWebKit/537.36 (KHTML, like Gecko) Chrome/135.0.0.0 Safari/537.36",WebKit,Chrome,135.0.0.0,ChromeOS,14541.0.0,https://5puzkbbxv1.cognition.run/?sona_id=57704,"en-US,en;q=0.9",ctho650wmuu5qy9,19,"[""White""]",No,Female,NA,No,327400.49999999953,NA,null,<p></p>,null,choice,tc,binary,repulsion,1,washing machines,null,null,null,null,null,null,1,NA,NA,NA,NA,NA,NA,NA,NA,NA,NA
NA,NA,NA,NA,NA,choice_trial,survey-html-form,39,156948,0.0-4.0-1.17,213,1,2025-05-05T23:19:18Z,b60275e29fe2361ab97ac0ac217840d7,"Mozilla/5.0 (X11; CrOS x86_64 14541.0.0) AppleWebKit/537.36 (KHTML, like Gecko) Chrome/135.0.0.0 Safari/537.36",WebKit,Chrome,135.0.0.0,ChromeOS,14541.0.0,https://5puzkbbxv1.cognition.run/?sona_id=57704,"en-US,en;q=0.9",ctho650wmuu5qy9,19,"[""White""]",No,Female,NA,No,327400.49999999953,NA,3036,NA,"{""product_choice"":""B""}",choice,tc,binary,repulsion,1,washing machines,null,null,null,null,null,null,1,100,90,null,30,40,null,Average lifespan,Energy savings,NA,NA
NA,NA,NA,NA,NA,choice_trial_setup,html-keyboard-response,40,157259,0.0-4.0-0.18,213,1,2025-05-05T23:19:18Z,b60275e29fe2361ab97ac0ac217840d7,"Mozilla/5.0 (X11; CrOS x86_64 14541.0.0) AppleWebKit/537.36 (KHTML, like Gecko) Chrome/135.0.0.0 Safari/537.36",WebKit,Chrome,135.0.0.0,ChromeOS,14541.0.0,https://5puzkbbxv1.cognition.run/?sona_id=57704,"en-US,en;q=0.9",ctho650wmuu5qy9,19,"[""White""]",No,Female,NA,No,327400.49999999953,NA,null,<p></p>,null,choice,tdc,trinary,repulsion_B,2,microwave ovens,null,null,null,null,null,null,1,NA,NA,NA,NA,NA,NA,NA,NA,NA,NA
NA,NA,NA,NA,NA,choice_trial,survey-html-form,41,161386,0.0-4.0-1.18,213,1,2025-05-05T23:19:18Z,b60275e29fe2361ab97ac0ac217840d7,"Mozilla/5.0 (X11; CrOS x86_64 14541.0.0) AppleWebKit/537.36 (KHTML, like Gecko) Chrome/135.0.0.0 Safari/537.36",WebKit,Chrome,135.0.0.0,ChromeOS,14541.0.0,https://5puzkbbxv1.cognition.run/?sona_id=57704,"en-US,en;q=0.9",ctho650wmuu5qy9,19,"[""White""]",No,Female,NA,No,327400.49999999953,NA,4119,NA,"{""product_choice"":""A""}",choice,tdc,trinary,repulsion_B,2,microwave ovens,null,null,null,null,null,null,1,40,30,40,90,100,80,Warranty,Cooking power,NA,NA
NA,NA,NA,NA,NA,choice_trial_setup,html-keyboard-response,42,161695,0.0-4.0-0.19,213,1,2025-05-05T23:19:18Z,b60275e29fe2361ab97ac0ac217840d7,"Mozilla/5.0 (X11; CrOS x86_64 14541.0.0) AppleWebKit/537.36 (KHTML, like Gecko) Chrome/135.0.0.0 Safari/537.36",WebKit,Chrome,135.0.0.0,ChromeOS,14541.0.0,https://5puzkbbxv1.cognition.run/?sona_id=57704,"en-US,en;q=0.9",ctho650wmuu5qy9,19,"[""White""]",No,Female,NA,No,327400.49999999953,NA,null,<p></p>,null,choice,tcd,trinary,attraction,2,microwave ovens,null,null,null,null,null,null,1,NA,NA,NA,NA,NA,NA,NA,NA,NA,NA
NA,NA,NA,NA,NA,choice_trial,survey-html-form,43,165207,0.0-4.0-1.19,213,1,2025-05-05T23:19:18Z,b60275e29fe2361ab97ac0ac217840d7,"Mozilla/5.0 (X11; CrOS x86_64 14541.0.0) AppleWebKit/537.36 (KHTML, like Gecko) Chrome/135.0.0.0 Safari/537.36",WebKit,Chrome,135.0.0.0,ChromeOS,14541.0.0,https://5puzkbbxv1.cognition.run/?sona_id=57704,"en-US,en;q=0.9",ctho650wmuu5qy9,19,"[""White""]",No,Female,NA,No,327400.49999999953,NA,3503,NA,"{""product_choice"":""A""}",choice,tcd,trinary,attraction,2,microwave ovens,null,null,null,null,null,null,1,50,60,40,60,50,60,Warranty,Cooking power,NA,NA
NA,NA,NA,NA,NA,choice_trial_setup,html-keyboard-response,44,165509,0.0-4.0-0.20,213,1,2025-05-05T23:19:18Z,b60275e29fe2361ab97ac0ac217840d7,"Mozilla/5.0 (X11; CrOS x86_64 14541.0.0) AppleWebKit/537.36 (KHTML, like Gecko) Chrome/135.0.0.0 Safari/537.36",WebKit,Chrome,135.0.0.0,ChromeOS,14541.0.0,https://5puzkbbxv1.cognition.run/?sona_id=57704,"en-US,en;q=0.9",ctho650wmuu5qy9,19,"[""White""]",No,Female,NA,No,327400.49999999953,NA,null,<p></p>,null,choice,ct,binary,repulsion,2,televisions,null,null,null,null,null,null,2,NA,NA,NA,NA,NA,NA,NA,NA,NA,NA
NA,NA,NA,NA,NA,choice_trial,survey-html-form,45,169740,0.0-4.0-1.20,213,1,2025-05-05T23:19:18Z,b60275e29fe2361ab97ac0ac217840d7,"Mozilla/5.0 (X11; CrOS x86_64 14541.0.0) AppleWebKit/537.36 (KHTML, like Gecko) Chrome/135.0.0.0 Safari/537.36",WebKit,Chrome,135.0.0.0,ChromeOS,14541.0.0,https://5puzkbbxv1.cognition.run/?sona_id=57704,"en-US,en;q=0.9",ctho650wmuu5qy9,19,"[""White""]",No,Female,NA,No,327400.49999999953,NA,4222,NA,"{""product_choice"":""A""}",choice,ct,binary,repulsion,2,televisions,null,null,null,null,null,null,2,30,40,null,100,90,null,Screen size,Average lifespan,NA,NA
NA,NA,NA,NA,NA,choice_trial_setup,html-keyboard-response,46,170048,0.0-4.0-0.21,213,1,2025-05-05T23:19:18Z,b60275e29fe2361ab97ac0ac217840d7,"Mozilla/5.0 (X11; CrOS x86_64 14541.0.0) AppleWebKit/537.36 (KHTML, like Gecko) Chrome/135.0.0.0 Safari/537.36",WebKit,Chrome,135.0.0.0,ChromeOS,14541.0.0,https://5puzkbbxv1.cognition.run/?sona_id=57704,"en-US,en;q=0.9",ctho650wmuu5qy9,19,"[""White""]",No,Female,NA,No,327400.49999999953,NA,null,<p></p>,null,choice,dct,trinary,attraction,2,laptops,null,null,null,null,null,null,2,NA,NA,NA,NA,NA,NA,NA,NA,NA,NA
NA,NA,NA,NA,NA,choice_trial,survey-html-form,47,175372,0.0-4.0-1.21,213,1,2025-05-05T23:19:18Z,b60275e29fe2361ab97ac0ac217840d7,"Mozilla/5.0 (X11; CrOS x86_64 14541.0.0) AppleWebKit/537.36 (KHTML, like Gecko) Chrome/135.0.0.0 Safari/537.36",WebKit,Chrome,135.0.0.0,ChromeOS,14541.0.0,https://5puzkbbxv1.cognition.run/?sona_id=57704,"en-US,en;q=0.9",ctho650wmuu5qy9,19,"[""White""]",No,Female,NA,No,327400.49999999953,NA,5314,NA,"{""product_choice"":""C""}",choice,dct,trinary,attraction,2,laptops,null,null,null,null,null,null,2,50,60,40,60,50,60,Processing speed,Memory (RAM),NA,NA
NA,NA,NA,NA,NA,choice_trial_setup,html-keyboard-response,48,175679,0.0-4.0-0.22,213,1,2025-05-05T23:19:18Z,b60275e29fe2361ab97ac0ac217840d7,"Mozilla/5.0 (X11; CrOS x86_64 14541.0.0) AppleWebKit/537.36 (KHTML, like Gecko) Chrome/135.0.0.0 Safari/537.36",WebKit,Chrome,135.0.0.0,ChromeOS,14541.0.0,https://5puzkbbxv1.cognition.run/?sona_id=57704,"en-US,en;q=0.9",ctho650wmuu5qy9,19,"[""White""]",No,Female,NA,No,327400.49999999953,NA,null,<p></p>,null,choice,cdt,trinary,attraction,1,laptops,null,null,null,null,null,null,1,NA,NA,NA,NA,NA,NA,NA,NA,NA,NA
NA,NA,NA,NA,NA,choice_trial,survey-html-form,49,178923,0.0-4.0-1.22,213,1,2025-05-05T23:19:18Z,b60275e29fe2361ab97ac0ac217840d7,"Mozilla/5.0 (X11; CrOS x86_64 14541.0.0) AppleWebKit/537.36 (KHTML, like Gecko) Chrome/135.0.0.0 Safari/537.36",WebKit,Chrome,135.0.0.0,ChromeOS,14541.0.0,https://5puzkbbxv1.cognition.run/?sona_id=57704,"en-US,en;q=0.9",ctho650wmuu5qy9,19,"[""White""]",No,Female,NA,No,327400.49999999953,NA,3233,NA,"{""product_choice"":""C""}",choice,cdt,trinary,attraction,1,laptops,null,null,null,null,null,null,1,60,50,60,50,60,40,Processing speed,Memory (RAM),NA,NA
NA,NA,NA,NA,NA,choice_trial_setup,html-keyboard-response,50,179232,0.0-4.0-0.23,213,1,2025-05-05T23:19:18Z,b60275e29fe2361ab97ac0ac217840d7,"Mozilla/5.0 (X11; CrOS x86_64 14541.0.0) AppleWebKit/537.36 (KHTML, like Gecko) Chrome/135.0.0.0 Safari/537.36",WebKit,Chrome,135.0.0.0,ChromeOS,14541.0.0,https://5puzkbbxv1.cognition.run/?sona_id=57704,"en-US,en;q=0.9",ctho650wmuu5qy9,19,"[""White""]",No,Female,NA,No,327400.49999999953,NA,null,<p></p>,null,choice,ct,binary,repulsion,2,washing machines,null,null,null,null,null,null,1,NA,NA,NA,NA,NA,NA,NA,NA,NA,NA
NA,NA,NA,NA,NA,choice_trial,survey-html-form,51,181918,0.0-4.0-1.23,213,1,2025-05-05T23:19:18Z,b60275e29fe2361ab97ac0ac217840d7,"Mozilla/5.0 (X11; CrOS x86_64 14541.0.0) AppleWebKit/537.36 (KHTML, like Gecko) Chrome/135.0.0.0 Safari/537.36",WebKit,Chrome,135.0.0.0,ChromeOS,14541.0.0,https://5puzkbbxv1.cognition.run/?sona_id=57704,"en-US,en;q=0.9",ctho650wmuu5qy9,19,"[""White""]",No,Female,NA,No,327400.49999999953,NA,2676,NA,"{""product_choice"":""A""}",choice,ct,binary,repulsion,2,washing machines,null,null,null,null,null,null,1,30,40,null,100,90,null,Average lifespan,Energy savings,NA,NA
NA,NA,NA,NA,NA,choice_trial_setup,html-keyboard-response,52,182225,0.0-4.0-0.24,213,1,2025-05-05T23:19:18Z,b60275e29fe2361ab97ac0ac217840d7,"Mozilla/5.0 (X11; CrOS x86_64 14541.0.0) AppleWebKit/537.36 (KHTML, like Gecko) Chrome/135.0.0.0 Safari/537.36",WebKit,Chrome,135.0.0.0,ChromeOS,14541.0.0,https://5puzkbbxv1.cognition.run/?sona_id=57704,"en-US,en;q=0.9",ctho650wmuu5qy9,19,"[""White""]",No,Female,NA,No,327400.49999999953,NA,null,<p></p>,null,choice,cdt,trinary,repulsion_B,2,televisions,null,null,null,null,null,null,2,NA,NA,NA,NA,NA,NA,NA,NA,NA,NA
NA,NA,NA,NA,NA,choice_trial,survey-html-form,53,185487,0.0-4.0-1.24,213,1,2025-05-05T23:19:18Z,b60275e29fe2361ab97ac0ac217840d7,"Mozilla/5.0 (X11; CrOS x86_64 14541.0.0) AppleWebKit/537.36 (KHTML, like Gecko) Chrome/135.0.0.0 Safari/537.36",WebKit,Chrome,135.0.0.0,ChromeOS,14541.0.0,https://5puzkbbxv1.cognition.run/?sona_id=57704,"en-US,en;q=0.9",ctho650wmuu5qy9,19,"[""White""]",No,Female,NA,No,327400.49999999953,NA,3249,NA,"{""product_choice"":""C""}",choice,cdt,trinary,repulsion_B,2,televisions,null,null,null,null,null,null,2,40,30,40,90,100,80,Screen size,Average lifespan,NA,NA
NA,NA,NA,NA,NA,choice_trial_setup,html-keyboard-response,54,185796,0.0-4.0-0.25,213,1,2025-05-05T23:19:18Z,b60275e29fe2361ab97ac0ac217840d7,"Mozilla/5.0 (X11; CrOS x86_64 14541.0.0) AppleWebKit/537.36 (KHTML, like Gecko) Chrome/135.0.0.0 Safari/537.36",WebKit,Chrome,135.0.0.0,ChromeOS,14541.0.0,https://5puzkbbxv1.cognition.run/?sona_id=57704,"en-US,en;q=0.9",ctho650wmuu5qy9,19,"[""White""]",No,Female,NA,No,327400.49999999953,NA,null,<p></p>,null,choice,tcd,trinary,attraction,2,televisions,null,null,null,null,null,null,1,NA,NA,NA,NA,NA,NA,NA,NA,NA,NA
NA,NA,NA,NA,NA,choice_trial,survey-html-form,55,190008,0.0-4.0-1.25,213,1,2025-05-05T23:19:18Z,b60275e29fe2361ab97ac0ac217840d7,"Mozilla/5.0 (X11; CrOS x86_64 14541.0.0) AppleWebKit/537.36 (KHTML, like Gecko) Chrome/135.0.0.0 Safari/537.36",WebKit,Chrome,135.0.0.0,ChromeOS,14541.0.0,https://5puzkbbxv1.cognition.run/?sona_id=57704,"en-US,en;q=0.9",ctho650wmuu5qy9,19,"[""White""]",No,Female,NA,No,327400.49999999953,NA,4201,NA,"{""product_choice"":""A""}",choice,tcd,trinary,attraction,2,televisions,null,null,null,null,null,null,1,50,60,40,60,50,60,Screen size,Average lifespan,NA,NA
NA,NA,NA,NA,NA,choice_trial_setup,html-keyboard-response,56,190315,0.0-4.0-0.26,213,1,2025-05-05T23:19:18Z,b60275e29fe2361ab97ac0ac217840d7,"Mozilla/5.0 (X11; CrOS x86_64 14541.0.0) AppleWebKit/537.36 (KHTML, like Gecko) Chrome/135.0.0.0 Safari/537.36",WebKit,Chrome,135.0.0.0,ChromeOS,14541.0.0,https://5puzkbbxv1.cognition.run/?sona_id=57704,"en-US,en;q=0.9",ctho650wmuu5qy9,19,"[""White""]",No,Female,NA,No,327400.49999999953,NA,null,<p></p>,null,choice,dtc,trinary,attraction,1,microwave ovens,null,null,null,null,null,null,1,NA,NA,NA,NA,NA,NA,NA,NA,NA,NA
NA,NA,NA,NA,NA,choice_trial,survey-html-form,57,197928,0.0-4.0-1.26,213,1,2025-05-05T23:19:18Z,b60275e29fe2361ab97ac0ac217840d7,"Mozilla/5.0 (X11; CrOS x86_64 14541.0.0) AppleWebKit/537.36 (KHTML, like Gecko) Chrome/135.0.0.0 Safari/537.36",WebKit,Chrome,135.0.0.0,ChromeOS,14541.0.0,https://5puzkbbxv1.cognition.run/?sona_id=57704,"en-US,en;q=0.9",ctho650wmuu5qy9,19,"[""White""]",No,Female,NA,No,327400.49999999953,NA,7599,NA,"{""product_choice"":""C""}",choice,dtc,trinary,attraction,1,microwave ovens,null,null,null,null,null,null,1,60,50,60,50,60,40,Warranty,Cooking power,NA,NA
NA,NA,NA,NA,NA,choice_trial_setup,html-keyboard-response,58,198238,0.0-4.0-0.27,213,1,2025-05-05T23:19:18Z,b60275e29fe2361ab97ac0ac217840d7,"Mozilla/5.0 (X11; CrOS x86_64 14541.0.0) AppleWebKit/537.36 (KHTML, like Gecko) Chrome/135.0.0.0 Safari/537.36",WebKit,Chrome,135.0.0.0,ChromeOS,14541.0.0,https://5puzkbbxv1.cognition.run/?sona_id=57704,"en-US,en;q=0.9",ctho650wmuu5qy9,19,"[""White""]",No,Female,NA,No,327400.49999999953,NA,null,<p></p>,null,choice,tcd,trinary,repulsion_B,1,washing machines,null,null,null,null,null,null,1,NA,NA,NA,NA,NA,NA,NA,NA,NA,NA
NA,NA,NA,NA,NA,choice_trial,survey-html-form,59,201569,0.0-4.0-1.27,213,1,2025-05-05T23:19:18Z,b60275e29fe2361ab97ac0ac217840d7,"Mozilla/5.0 (X11; CrOS x86_64 14541.0.0) AppleWebKit/537.36 (KHTML, like Gecko) Chrome/135.0.0.0 Safari/537.36",WebKit,Chrome,135.0.0.0,ChromeOS,14541.0.0,https://5puzkbbxv1.cognition.run/?sona_id=57704,"en-US,en;q=0.9",ctho650wmuu5qy9,19,"[""White""]",No,Female,NA,No,327400.49999999953,NA,3321,NA,"{""product_choice"":""A""}",choice,tcd,trinary,repulsion_B,1,washing machines,null,null,null,null,null,null,1,90,100,80,40,30,40,Average lifespan,Energy savings,NA,NA
NA,NA,NA,NA,NA,choice_trial_setup,html-keyboard-response,60,201878,0.0-4.0-0.28,213,1,2025-05-05T23:19:18Z,b60275e29fe2361ab97ac0ac217840d7,"Mozilla/5.0 (X11; CrOS x86_64 14541.0.0) AppleWebKit/537.36 (KHTML, like Gecko) Chrome/135.0.0.0 Safari/537.36",WebKit,Chrome,135.0.0.0,ChromeOS,14541.0.0,https://5puzkbbxv1.cognition.run/?sona_id=57704,"en-US,en;q=0.9",ctho650wmuu5qy9,19,"[""White""]",No,Female,NA,No,327400.49999999953,NA,null,<p></p>,null,choice,tc,binary,repulsion,2,laptops,null,null,null,null,null,null,2,NA,NA,NA,NA,NA,NA,NA,NA,NA,NA
NA,NA,NA,NA,NA,choice_trial,survey-html-form,61,205017,0.0-4.0-1.28,213,1,2025-05-05T23:19:18Z,b60275e29fe2361ab97ac0ac217840d7,"Mozilla/5.0 (X11; CrOS x86_64 14541.0.0) AppleWebKit/537.36 (KHTML, like Gecko) Chrome/135.0.0.0 Safari/537.36",WebKit,Chrome,135.0.0.0,ChromeOS,14541.0.0,https://5puzkbbxv1.cognition.run/?sona_id=57704,"en-US,en;q=0.9",ctho650wmuu5qy9,19,"[""White""]",No,Female,NA,No,327400.49999999953,NA,3125,NA,"{""product_choice"":""B""}",choice,tc,binary,repulsion,2,laptops,null,null,null,null,null,null,2,30,40,null,100,90,null,Processing speed,Memory (RAM),NA,NA
NA,NA,NA,NA,NA,choice_trial_setup,html-keyboard-response,62,205329,0.0-4.0-0.29,213,1,2025-05-05T23:19:18Z,b60275e29fe2361ab97ac0ac217840d7,"Mozilla/5.0 (X11; CrOS x86_64 14541.0.0) AppleWebKit/537.36 (KHTML, like Gecko) Chrome/135.0.0.0 Safari/537.36",WebKit,Chrome,135.0.0.0,ChromeOS,14541.0.0,https://5puzkbbxv1.cognition.run/?sona_id=57704,"en-US,en;q=0.9",ctho650wmuu5qy9,19,"[""White""]",No,Female,NA,No,327400.49999999953,NA,null,<p></p>,null,choice,wbw,trinary,catch,null,laptops,60,95,5,25,10,20,2,NA,NA,NA,NA,NA,NA,NA,NA,NA,NA
NA,NA,NA,NA,NA,choice_trial,survey-html-form,63,209528,0.0-4.0-1.29,213,1,2025-05-05T23:19:18Z,b60275e29fe2361ab97ac0ac217840d7,"Mozilla/5.0 (X11; CrOS x86_64 14541.0.0) AppleWebKit/537.36 (KHTML, like Gecko) Chrome/135.0.0.0 Safari/537.36",WebKit,Chrome,135.0.0.0,ChromeOS,14541.0.0,https://5puzkbbxv1.cognition.run/?sona_id=57704,"en-US,en;q=0.9",ctho650wmuu5qy9,19,"[""White""]",No,Female,NA,No,327400.49999999953,NA,4186,NA,"{""product_choice"":""B""}",choice,wbw,trinary,catch,null,laptops,60,95,5,25,10,20,2,null,null,null,null,null,null,Processing speed,Memory (RAM),NA,NA
NA,NA,NA,NA,NA,choice_trial_setup,html-keyboard-response,64,209839,0.0-4.0-0.30,213,1,2025-05-05T23:19:18Z,b60275e29fe2361ab97ac0ac217840d7,"Mozilla/5.0 (X11; CrOS x86_64 14541.0.0) AppleWebKit/537.36 (KHTML, like Gecko) Chrome/135.0.0.0 Safari/537.36",WebKit,Chrome,135.0.0.0,ChromeOS,14541.0.0,https://5puzkbbxv1.cognition.run/?sona_id=57704,"en-US,en;q=0.9",ctho650wmuu5qy9,19,"[""White""]",No,Female,NA,No,327400.49999999953,NA,null,<p></p>,null,choice,dtc,trinary,repulsion_B,2,laptops,null,null,null,null,null,null,1,NA,NA,NA,NA,NA,NA,NA,NA,NA,NA
NA,NA,NA,NA,NA,choice_trial,survey-html-form,65,213988,0.0-4.0-1.30,213,1,2025-05-05T23:19:18Z,b60275e29fe2361ab97ac0ac217840d7,"Mozilla/5.0 (X11; CrOS x86_64 14541.0.0) AppleWebKit/537.36 (KHTML, like Gecko) Chrome/135.0.0.0 Safari/537.36",WebKit,Chrome,135.0.0.0,ChromeOS,14541.0.0,https://5puzkbbxv1.cognition.run/?sona_id=57704,"en-US,en;q=0.9",ctho650wmuu5qy9,19,"[""White""]",No,Female,NA,No,327400.49999999953,NA,4137,NA,"{""product_choice"":""B""}",choice,dtc,trinary,repulsion_B,2,laptops,null,null,null,null,null,null,1,40,30,40,90,100,80,Processing speed,Memory (RAM),NA,NA
NA,NA,NA,NA,NA,choice_trial_setup,html-keyboard-response,66,214298,0.0-4.0-0.31,213,1,2025-05-05T23:19:18Z,b60275e29fe2361ab97ac0ac217840d7,"Mozilla/5.0 (X11; CrOS x86_64 14541.0.0) AppleWebKit/537.36 (KHTML, like Gecko) Chrome/135.0.0.0 Safari/537.36",WebKit,Chrome,135.0.0.0,ChromeOS,14541.0.0,https://5puzkbbxv1.cognition.run/?sona_id=57704,"en-US,en;q=0.9",ctho650wmuu5qy9,19,"[""White""]",No,Female,NA,No,327400.49999999953,NA,null,<p></p>,null,choice,tc,binary,attraction,NA,laptops,null,null,null,null,null,null,1,NA,NA,NA,NA,NA,NA,NA,NA,NA,NA
NA,NA,NA,NA,NA,choice_trial,survey-html-form,67,219166,0.0-4.0-1.31,213,1,2025-05-05T23:19:18Z,b60275e29fe2361ab97ac0ac217840d7,"Mozilla/5.0 (X11; CrOS x86_64 14541.0.0) AppleWebKit/537.36 (KHTML, like Gecko) Chrome/135.0.0.0 Safari/537.36",WebKit,Chrome,135.0.0.0,ChromeOS,14541.0.0,https://5puzkbbxv1.cognition.run/?sona_id=57704,"en-US,en;q=0.9",ctho650wmuu5qy9,19,"[""White""]",No,Female,NA,No,327400.49999999953,NA,4857,NA,"{""product_choice"":""A""}",choice,tc,binary,attraction,NA,laptops,null,null,null,null,null,null,1,60,50,null,50,60,null,Processing speed,Memory (RAM),NA,NA
NA,NA,NA,NA,NA,choice_trial_setup,html-keyboard-response,68,219490,0.0-4.0-0.32,213,1,2025-05-05T23:19:18Z,b60275e29fe2361ab97ac0ac217840d7,"Mozilla/5.0 (X11; CrOS x86_64 14541.0.0) AppleWebKit/537.36 (KHTML, like Gecko) Chrome/135.0.0.0 Safari/537.36",WebKit,Chrome,135.0.0.0,ChromeOS,14541.0.0,https://5puzkbbxv1.cognition.run/?sona_id=57704,"en-US,en;q=0.9",ctho650wmuu5qy9,19,"[""White""]",No,Female,NA,No,327400.49999999953,NA,null,<p></p>,null,choice,ct,binary,attraction,NA,washing machines,null,null,null,null,null,null,2,NA,NA,NA,NA,NA,NA,NA,NA,NA,NA
NA,NA,NA,NA,NA,choice_trial,survey-html-form,69,223658,0.0-4.0-1.32,213,1,2025-05-05T23:19:18Z,b60275e29fe2361ab97ac0ac217840d7,"Mozilla/5.0 (X11; CrOS x86_64 14541.0.0) AppleWebKit/537.36 (KHTML, like Gecko) Chrome/135.0.0.0 Safari/537.36",WebKit,Chrome,135.0.0.0,ChromeOS,14541.0.0,https://5puzkbbxv1.cognition.run/?sona_id=57704,"en-US,en;q=0.9",ctho650wmuu5qy9,19,"[""White""]",No,Female,NA,No,327400.49999999953,NA,4147,NA,"{""product_choice"":""B""}",choice,ct,binary,attraction,NA,washing machines,null,null,null,null,null,null,2,60,50,null,50,60,null,Average lifespan,Energy savings,NA,NA
NA,NA,NA,NA,NA,choice_trial_setup,html-keyboard-response,70,223969,0.0-4.0-0.33,213,1,2025-05-05T23:19:18Z,b60275e29fe2361ab97ac0ac217840d7,"Mozilla/5.0 (X11; CrOS x86_64 14541.0.0) AppleWebKit/537.36 (KHTML, like Gecko) Chrome/135.0.0.0 Safari/537.36",WebKit,Chrome,135.0.0.0,ChromeOS,14541.0.0,https://5puzkbbxv1.cognition.run/?sona_id=57704,"en-US,en;q=0.9",ctho650wmuu5qy9,19,"[""White""]",No,Female,NA,No,327400.49999999953,NA,null,<p></p>,null,choice,dct,trinary,repulsion_B,1,laptops,null,null,null,null,null,null,1,NA,NA,NA,NA,NA,NA,NA,NA,NA,NA
NA,NA,NA,NA,NA,choice_trial,survey-html-form,71,227379,0.0-4.0-1.33,213,1,2025-05-05T23:19:18Z,b60275e29fe2361ab97ac0ac217840d7,"Mozilla/5.0 (X11; CrOS x86_64 14541.0.0) AppleWebKit/537.36 (KHTML, like Gecko) Chrome/135.0.0.0 Safari/537.36",WebKit,Chrome,135.0.0.0,ChromeOS,14541.0.0,https://5puzkbbxv1.cognition.run/?sona_id=57704,"en-US,en;q=0.9",ctho650wmuu5qy9,19,"[""White""]",No,Female,NA,No,327400.49999999953,NA,3398,NA,"{""product_choice"":""C""}",choice,dct,trinary,repulsion_B,1,laptops,null,null,null,null,null,null,1,90,100,80,40,30,40,Processing speed,Memory (RAM),NA,NA
NA,NA,NA,NA,NA,choice_trial_setup,html-keyboard-response,72,227689,0.0-4.0-0.34,213,1,2025-05-05T23:19:18Z,b60275e29fe2361ab97ac0ac217840d7,"Mozilla/5.0 (X11; CrOS x86_64 14541.0.0) AppleWebKit/537.36 (KHTML, like Gecko) Chrome/135.0.0.0 Safari/537.36",WebKit,Chrome,135.0.0.0,ChromeOS,14541.0.0,https://5puzkbbxv1.cognition.run/?sona_id=57704,"en-US,en;q=0.9",ctho650wmuu5qy9,19,"[""White""]",No,Female,NA,No,327400.49999999953,NA,null,<p></p>,null,choice,dtc,trinary,repulsion_B,1,microwave ovens,null,null,null,null,null,null,1,NA,NA,NA,NA,NA,NA,NA,NA,NA,NA
NA,NA,NA,NA,NA,choice_trial,survey-html-form,73,230068,0.0-4.0-1.34,213,1,2025-05-05T23:19:18Z,b60275e29fe2361ab97ac0ac217840d7,"Mozilla/5.0 (X11; CrOS x86_64 14541.0.0) AppleWebKit/537.36 (KHTML, like Gecko) Chrome/135.0.0.0 Safari/537.36",WebKit,Chrome,135.0.0.0,ChromeOS,14541.0.0,https://5puzkbbxv1.cognition.run/?sona_id=57704,"en-US,en;q=0.9",ctho650wmuu5qy9,19,"[""White""]",No,Female,NA,No,327400.49999999953,NA,2367,NA,"{""product_choice"":""B""}",choice,dtc,trinary,repulsion_B,1,microwave ovens,null,null,null,null,null,null,1,90,100,80,40,30,40,Warranty,Cooking power,NA,NA
NA,NA,NA,NA,NA,choice_trial_setup,html-keyboard-response,74,230372,0.0-4.0-0.35,213,1,2025-05-05T23:19:18Z,b60275e29fe2361ab97ac0ac217840d7,"Mozilla/5.0 (X11; CrOS x86_64 14541.0.0) AppleWebKit/537.36 (KHTML, like Gecko) Chrome/135.0.0.0 Safari/537.36",WebKit,Chrome,135.0.0.0,ChromeOS,14541.0.0,https://5puzkbbxv1.cognition.run/?sona_id=57704,"en-US,en;q=0.9",ctho650wmuu5qy9,19,"[""White""]",No,Female,NA,No,327400.49999999953,NA,null,<p></p>,null,choice,tcd,trinary,repulsion_A,2,televisions,null,null,null,null,null,null,2,NA,NA,NA,NA,NA,NA,NA,NA,NA,NA
NA,NA,NA,NA,NA,choice_trial,survey-html-form,75,233674,0.0-4.0-1.35,213,1,2025-05-05T23:19:18Z,b60275e29fe2361ab97ac0ac217840d7,"Mozilla/5.0 (X11; CrOS x86_64 14541.0.0) AppleWebKit/537.36 (KHTML, like Gecko) Chrome/135.0.0.0 Safari/537.36",WebKit,Chrome,135.0.0.0,ChromeOS,14541.0.0,https://5puzkbbxv1.cognition.run/?sona_id=57704,"en-US,en;q=0.9",ctho650wmuu5qy9,19,"[""White""]",No,Female,NA,No,327400.49999999953,NA,3289,NA,"{""product_choice"":""B""}",choice,tcd,trinary,repulsion_A,2,televisions,null,null,null,null,null,null,2,30,40,20,100,90,100,Screen size,Average lifespan,NA,NA
NA,NA,NA,NA,NA,choice_trial_setup,html-keyboard-response,76,233986,0.0-4.0-0.36,213,1,2025-05-05T23:19:18Z,b60275e29fe2361ab97ac0ac217840d7,"Mozilla/5.0 (X11; CrOS x86_64 14541.0.0) AppleWebKit/537.36 (KHTML, like Gecko) Chrome/135.0.0.0 Safari/537.36",WebKit,Chrome,135.0.0.0,ChromeOS,14541.0.0,https://5puzkbbxv1.cognition.run/?sona_id=57704,"en-US,en;q=0.9",ctho650wmuu5qy9,19,"[""White""]",No,Female,NA,No,327400.49999999953,NA,null,<p></p>,null,choice,wbw,trinary,catch,null,televisions,50,95,35,50,15,30,2,NA,NA,NA,NA,NA,NA,NA,NA,NA,NA
NA,NA,NA,NA,NA,choice_trial,survey-html-form,77,236839,0.0-4.0-1.36,213,1,2025-05-05T23:19:18Z,b60275e29fe2361ab97ac0ac217840d7,"Mozilla/5.0 (X11; CrOS x86_64 14541.0.0) AppleWebKit/537.36 (KHTML, like Gecko) Chrome/135.0.0.0 Safari/537.36",WebKit,Chrome,135.0.0.0,ChromeOS,14541.0.0,https://5puzkbbxv1.cognition.run/?sona_id=57704,"en-US,en;q=0.9",ctho650wmuu5qy9,19,"[""White""]",No,Female,NA,No,327400.49999999953,NA,2840,NA,"{""product_choice"":""B""}",choice,wbw,trinary,catch,null,televisions,50,95,35,50,15,30,2,null,null,null,null,null,null,Screen size,Average lifespan,NA,NA
NA,NA,NA,NA,NA,choice_trial_setup,html-keyboard-response,78,237150,0.0-4.0-0.37,213,1,2025-05-05T23:19:18Z,b60275e29fe2361ab97ac0ac217840d7,"Mozilla/5.0 (X11; CrOS x86_64 14541.0.0) AppleWebKit/537.36 (KHTML, like Gecko) Chrome/135.0.0.0 Safari/537.36",WebKit,Chrome,135.0.0.0,ChromeOS,14541.0.0,https://5puzkbbxv1.cognition.run/?sona_id=57704,"en-US,en;q=0.9",ctho650wmuu5qy9,19,"[""White""]",No,Female,NA,No,327400.49999999953,NA,null,<p></p>,null,choice,ctd,trinary,repulsion_A,1,washing machines,null,null,null,null,null,null,2,NA,NA,NA,NA,NA,NA,NA,NA,NA,NA
NA,NA,NA,NA,NA,choice_trial,survey-html-form,79,240347,0.0-4.0-1.37,213,1,2025-05-05T23:19:18Z,b60275e29fe2361ab97ac0ac217840d7,"Mozilla/5.0 (X11; CrOS x86_64 14541.0.0) AppleWebKit/537.36 (KHTML, like Gecko) Chrome/135.0.0.0 Safari/537.36",WebKit,Chrome,135.0.0.0,ChromeOS,14541.0.0,https://5puzkbbxv1.cognition.run/?sona_id=57704,"en-US,en;q=0.9",ctho650wmuu5qy9,19,"[""White""]",No,Female,NA,No,327400.49999999953,NA,3191,NA,"{""product_choice"":""A""}",choice,ctd,trinary,repulsion_A,1,washing machines,null,null,null,null,null,null,2,100,90,100,30,40,20,Average lifespan,Energy savings,NA,NA
NA,NA,NA,NA,NA,choice_trial_setup,html-keyboard-response,80,240659,0.0-4.0-0.38,213,1,2025-05-05T23:19:18Z,b60275e29fe2361ab97ac0ac217840d7,"Mozilla/5.0 (X11; CrOS x86_64 14541.0.0) AppleWebKit/537.36 (KHTML, like Gecko) Chrome/135.0.0.0 Safari/537.36",WebKit,Chrome,135.0.0.0,ChromeOS,14541.0.0,https://5puzkbbxv1.cognition.run/?sona_id=57704,"en-US,en;q=0.9",ctho650wmuu5qy9,19,"[""White""]",No,Female,NA,No,327400.49999999953,NA,null,<p></p>,null,choice,ctd,trinary,repulsion_B,2,washing machines,null,null,null,null,null,null,1,NA,NA,NA,NA,NA,NA,NA,NA,NA,NA
NA,NA,NA,NA,NA,choice_trial,survey-html-form,81,245680,0.0-4.0-1.38,213,1,2025-05-05T23:19:18Z,b60275e29fe2361ab97ac0ac217840d7,"Mozilla/5.0 (X11; CrOS x86_64 14541.0.0) AppleWebKit/537.36 (KHTML, like Gecko) Chrome/135.0.0.0 Safari/537.36",WebKit,Chrome,135.0.0.0,ChromeOS,14541.0.0,https://5puzkbbxv1.cognition.run/?sona_id=57704,"en-US,en;q=0.9",ctho650wmuu5qy9,19,"[""White""]",No,Female,NA,No,327400.49999999953,NA,5007,NA,"{""product_choice"":""B""}",choice,ctd,trinary,repulsion_B,2,washing machines,null,null,null,null,null,null,1,40,30,40,90,100,80,Average lifespan,Energy savings,NA,NA
NA,NA,NA,NA,NA,choice_trial_setup,html-keyboard-response,82,245993,0.0-4.0-0.39,213,1,2025-05-05T23:19:18Z,b60275e29fe2361ab97ac0ac217840d7,"Mozilla/5.0 (X11; CrOS x86_64 14541.0.0) AppleWebKit/537.36 (KHTML, like Gecko) Chrome/135.0.0.0 Safari/537.36",WebKit,Chrome,135.0.0.0,ChromeOS,14541.0.0,https://5puzkbbxv1.cognition.run/?sona_id=57704,"en-US,en;q=0.9",ctho650wmuu5qy9,19,"[""White""]",No,Female,NA,No,327400.49999999953,NA,null,<p></p>,null,choice,tc,binary,repulsion,2,microwave ovens,null,null,null,null,null,null,1,NA,NA,NA,NA,NA,NA,NA,NA,NA,NA
NA,NA,NA,NA,NA,choice_trial,survey-html-form,83,248623,0.0-4.0-1.39,213,1,2025-05-05T23:19:18Z,b60275e29fe2361ab97ac0ac217840d7,"Mozilla/5.0 (X11; CrOS x86_64 14541.0.0) AppleWebKit/537.36 (KHTML, like Gecko) Chrome/135.0.0.0 Safari/537.36",WebKit,Chrome,135.0.0.0,ChromeOS,14541.0.0,https://5puzkbbxv1.cognition.run/?sona_id=57704,"en-US,en;q=0.9",ctho650wmuu5qy9,19,"[""White""]",No,Female,NA,No,327400.49999999953,NA,2616,NA,"{""product_choice"":""B""}",choice,tc,binary,repulsion,2,microwave ovens,null,null,null,null,null,null,1,30,40,null,100,90,null,Warranty,Cooking power,NA,NA
NA,NA,NA,NA,NA,choice_trial_setup,html-keyboard-response,84,248934,0.0-4.0-0.40,213,1,2025-05-05T23:19:18Z,b60275e29fe2361ab97ac0ac217840d7,"Mozilla/5.0 (X11; CrOS x86_64 14541.0.0) AppleWebKit/537.36 (KHTML, like Gecko) Chrome/135.0.0.0 Safari/537.36",WebKit,Chrome,135.0.0.0,ChromeOS,14541.0.0,https://5puzkbbxv1.cognition.run/?sona_id=57704,"en-US,en;q=0.9",ctho650wmuu5qy9,19,"[""White""]",No,Female,NA,No,327400.49999999953,NA,null,<p></p>,null,choice,dtc,trinary,repulsion_B,1,televisions,null,null,null,null,null,null,1,NA,NA,NA,NA,NA,NA,NA,NA,NA,NA
NA,NA,NA,NA,NA,choice_trial,survey-html-form,85,251627,0.0-4.0-1.40,213,1,2025-05-05T23:19:18Z,b60275e29fe2361ab97ac0ac217840d7,"Mozilla/5.0 (X11; CrOS x86_64 14541.0.0) AppleWebKit/537.36 (KHTML, like Gecko) Chrome/135.0.0.0 Safari/537.36",WebKit,Chrome,135.0.0.0,ChromeOS,14541.0.0,https://5puzkbbxv1.cognition.run/?sona_id=57704,"en-US,en;q=0.9",ctho650wmuu5qy9,19,"[""White""]",No,Female,NA,No,327400.49999999953,NA,2678,NA,"{""product_choice"":""B""}",choice,dtc,trinary,repulsion_B,1,televisions,null,null,null,null,null,null,1,90,100,80,40,30,40,Screen size,Average lifespan,NA,NA
NA,NA,NA,NA,NA,choice_trial_setup,html-keyboard-response,86,251939,0.0-4.0-0.41,213,1,2025-05-05T23:19:18Z,b60275e29fe2361ab97ac0ac217840d7,"Mozilla/5.0 (X11; CrOS x86_64 14541.0.0) AppleWebKit/537.36 (KHTML, like Gecko) Chrome/135.0.0.0 Safari/537.36",WebKit,Chrome,135.0.0.0,ChromeOS,14541.0.0,https://5puzkbbxv1.cognition.run/?sona_id=57704,"en-US,en;q=0.9",ctho650wmuu5qy9,19,"[""White""]",No,Female,NA,No,327400.49999999953,NA,null,<p></p>,null,choice,bww,trinary,catch,null,microwave ovens,65,95,50,25,25,15,2,NA,NA,NA,NA,NA,NA,NA,NA,NA,NA
NA,NA,NA,NA,NA,choice_trial,survey-html-form,87,254317,0.0-4.0-1.41,213,1,2025-05-05T23:19:18Z,b60275e29fe2361ab97ac0ac217840d7,"Mozilla/5.0 (X11; CrOS x86_64 14541.0.0) AppleWebKit/537.36 (KHTML, like Gecko) Chrome/135.0.0.0 Safari/537.36",WebKit,Chrome,135.0.0.0,ChromeOS,14541.0.0,https://5puzkbbxv1.cognition.run/?sona_id=57704,"en-US,en;q=0.9",ctho650wmuu5qy9,19,"[""White""]",No,Female,NA,No,327400.49999999953,NA,2364,NA,"{""product_choice"":""A""}",choice,bww,trinary,catch,null,microwave ovens,65,95,50,25,25,15,2,null,null,null,null,null,null,Warranty,Cooking power,NA,NA
NA,NA,NA,NA,NA,choice_trial_setup,html-keyboard-response,88,254629,0.0-4.0-0.42,213,1,2025-05-05T23:19:18Z,b60275e29fe2361ab97ac0ac217840d7,"Mozilla/5.0 (X11; CrOS x86_64 14541.0.0) AppleWebKit/537.36 (KHTML, like Gecko) Chrome/135.0.0.0 Safari/537.36",WebKit,Chrome,135.0.0.0,ChromeOS,14541.0.0,https://5puzkbbxv1.cognition.run/?sona_id=57704,"en-US,en;q=0.9",ctho650wmuu5qy9,19,"[""White""]",No,Female,NA,No,327400.49999999953,NA,null,<p></p>,null,choice,tcd,trinary,repulsion_A,2,laptops,null,null,null,null,null,null,1,NA,NA,NA,NA,NA,NA,NA,NA,NA,NA
NA,NA,NA,NA,NA,choice_trial,survey-html-form,89,257697,0.0-4.0-1.42,213,1,2025-05-05T23:19:18Z,b60275e29fe2361ab97ac0ac217840d7,"Mozilla/5.0 (X11; CrOS x86_64 14541.0.0) AppleWebKit/537.36 (KHTML, like Gecko) Chrome/135.0.0.0 Safari/537.36",WebKit,Chrome,135.0.0.0,ChromeOS,14541.0.0,https://5puzkbbxv1.cognition.run/?sona_id=57704,"en-US,en;q=0.9",ctho650wmuu5qy9,19,"[""White""]",No,Female,NA,No,327400.49999999953,NA,3046,NA,"{""product_choice"":""B""}",choice,tcd,trinary,repulsion_A,2,laptops,null,null,null,null,null,null,1,30,40,20,100,90,100,Processing speed,Memory (RAM),NA,NA
NA,NA,NA,NA,NA,choice_trial_setup,html-keyboard-response,90,258012,0.0-4.0-0.43,213,1,2025-05-05T23:19:18Z,b60275e29fe2361ab97ac0ac217840d7,"Mozilla/5.0 (X11; CrOS x86_64 14541.0.0) AppleWebKit/537.36 (KHTML, like Gecko) Chrome/135.0.0.0 Safari/537.36",WebKit,Chrome,135.0.0.0,ChromeOS,14541.0.0,https://5puzkbbxv1.cognition.run/?sona_id=57704,"en-US,en;q=0.9",ctho650wmuu5qy9,19,"[""White""]",No,Female,NA,No,327400.49999999953,NA,null,<p></p>,null,choice,ctd,trinary,attraction,2,washing machines,null,null,null,null,null,null,1,NA,NA,NA,NA,NA,NA,NA,NA,NA,NA
NA,NA,NA,NA,NA,choice_trial,survey-html-form,91,260609,0.0-4.0-1.43,213,1,2025-05-05T23:19:18Z,b60275e29fe2361ab97ac0ac217840d7,"Mozilla/5.0 (X11; CrOS x86_64 14541.0.0) AppleWebKit/537.36 (KHTML, like Gecko) Chrome/135.0.0.0 Safari/537.36",WebKit,Chrome,135.0.0.0,ChromeOS,14541.0.0,https://5puzkbbxv1.cognition.run/?sona_id=57704,"en-US,en;q=0.9",ctho650wmuu5qy9,19,"[""White""]",No,Female,NA,No,327400.49999999953,NA,2579,NA,"{""product_choice"":""B""}",choice,ctd,trinary,attraction,2,washing machines,null,null,null,null,null,null,1,50,60,40,60,50,60,Average lifespan,Energy savings,NA,NA
NA,NA,NA,NA,NA,post_trials_message,html-button-response,92,263502,0.0-5.0,213,1,2025-05-05T23:19:18Z,b60275e29fe2361ab97ac0ac217840d7,"Mozilla/5.0 (X11; CrOS x86_64 14541.0.0) AppleWebKit/537.36 (KHTML, like Gecko) Chrome/135.0.0.0 Safari/537.36",WebKit,Chrome,135.0.0.0,ChromeOS,14541.0.0,https://5puzkbbxv1.cognition.run/?sona_id=57704,"en-US,en;q=0.9",ctho650wmuu5qy9,19,"[""White""]",No,Female,NA,No,327400.49999999953,NA,2877,<p> <b>Thank you for your patience!</b></p><p>  The study will be done after completing a brief form. </p>,0,NA,NA,NA,NA,NA,NA,NA,NA,NA,NA,NA,NA,NA,NA,NA,NA,NA,NA,NA,NA,NA,NA,NA
NA,NA,NA,NA,NA,survey_message,survey-text,93,290973,0.0-6.0,213,1,2025-05-05T23:19:18Z,b60275e29fe2361ab97ac0ac217840d7,"Mozilla/5.0 (X11; CrOS x86_64 14541.0.0) AppleWebKit/537.36 (KHTML, like Gecko) Chrome/135.0.0.0 Safari/537.36",WebKit,Chrome,135.0.0.0,ChromeOS,14541.0.0,https://5puzkbbxv1.cognition.run/?sona_id=57704,"en-US,en;q=0.9",ctho650wmuu5qy9,19,"[""White""]",No,Female,NA,No,327400.49999999953,NA,27448,NA,"{""Q0"":""selected the highest numbers and also the choice where the two qualities had similar numbers""}",NA,NA,NA,NA,NA,NA,NA,NA,NA,NA,NA,NA,NA,NA,NA,NA,NA,NA,NA,NA,NA,selected the highest numbers and also the choice where the two qualities had similar numbers,NA
NA,NA,NA,NA,NA,demo_age,survey-text,94,293947,0.0-7.0,213,1,2025-05-05T23:19:18Z,b60275e29fe2361ab97ac0ac217840d7,"Mozilla/5.0 (X11; CrOS x86_64 14541.0.0) AppleWebKit/537.36 (KHTML, like Gecko) Chrome/135.0.0.0 Safari/537.36",WebKit,Chrome,135.0.0.0,ChromeOS,14541.0.0,https://5puzkbbxv1.cognition.run/?sona_id=57704,"en-US,en;q=0.9",ctho650wmuu5qy9,19,"[""White""]",No,Female,NA,No,327400.49999999953,NA,2948,NA,"{""Q0"":""19""}",NA,NA,NA,NA,NA,NA,NA,NA,NA,NA,NA,NA,NA,NA,NA,NA,NA,NA,NA,NA,NA,NA,NA
NA,NA,NA,NA,NA,demo_race,survey-multi-select,95,298989,0.0-8.0,213,1,2025-05-05T23:19:18Z,b60275e29fe2361ab97ac0ac217840d7,"Mozilla/5.0 (X11; CrOS x86_64 14541.0.0) AppleWebKit/537.36 (KHTML, like Gecko) Chrome/135.0.0.0 Safari/537.36",WebKit,Chrome,135.0.0.0,ChromeOS,14541.0.0,https://5puzkbbxv1.cognition.run/?sona_id=57704,"en-US,en;q=0.9",ctho650wmuu5qy9,19,"[""White""]",No,Female,NA,No,327400.49999999953,NA,5011,NA,"{""Q0"":[""White""]}",NA,NA,NA,NA,NA,NA,NA,NA,NA,NA,NA,NA,NA,NA,NA,NA,NA,NA,NA,NA,NA,NA,[0]
NA,NA,NA,NA,NA,demo_ethnicity_gender,survey-multi-choice,96,303570,0.0-9.0,213,1,2025-05-05T23:19:18Z,b60275e29fe2361ab97ac0ac217840d7,"Mozilla/5.0 (X11; CrOS x86_64 14541.0.0) AppleWebKit/537.36 (KHTML, like Gecko) Chrome/135.0.0.0 Safari/537.36",WebKit,Chrome,135.0.0.0,ChromeOS,14541.0.0,https://5puzkbbxv1.cognition.run/?sona_id=57704,"en-US,en;q=0.9",ctho650wmuu5qy9,19,"[""White""]",No,Female,NA,No,327400.49999999953,NA,4562,NA,"{""Q0"":""No"",""Q1"":""Female""}",NA,NA,NA,NA,NA,NA,NA,NA,NA,NA,NA,NA,NA,NA,NA,NA,NA,NA,NA,NA,NA,NA,"[0,1]"
NA,NA,NA,NA,NA,demo_countries,survey-text,97,311293,0.0-10.0,213,1,2025-05-05T23:19:18Z,b60275e29fe2361ab97ac0ac217840d7,"Mozilla/5.0 (X11; CrOS x86_64 14541.0.0) AppleWebKit/537.36 (KHTML, like Gecko) Chrome/135.0.0.0 Safari/537.36",WebKit,Chrome,135.0.0.0,ChromeOS,14541.0.0,https://5puzkbbxv1.cognition.run/?sona_id=57704,"en-US,en;q=0.9",ctho650wmuu5qy9,19,"[""White""]",No,Female,NA,No,327400.49999999953,NA,7698,NA,"{""Q0"":""NA""}",NA,NA,NA,NA,NA,NA,NA,NA,NA,NA,NA,NA,NA,NA,NA,NA,NA,NA,NA,NA,NA,NA,NA
NA,NA,NA,NA,NA,demo_prev_study,survey-multi-choice,98,319165,0.0-11.0,213,1,2025-05-05T23:19:18Z,b60275e29fe2361ab97ac0ac217840d7,"Mozilla/5.0 (X11; CrOS x86_64 14541.0.0) AppleWebKit/537.36 (KHTML, like Gecko) Chrome/135.0.0.0 Safari/537.36",WebKit,Chrome,135.0.0.0,ChromeOS,14541.0.0,https://5puzkbbxv1.cognition.run/?sona_id=57704,"en-US,en;q=0.9",ctho650wmuu5qy9,19,"[""White""]",No,Female,NA,No,327400.49999999953,NA,7863,NA,"{""Q0"":""No""}",NA,NA,NA,NA,NA,NA,NA,NA,NA,NA,NA,NA,NA,NA,NA,NA,NA,NA,NA,NA,NA,NA,[0]
NA,NA,NA,NA,NA,post_survey_message,html-keyboard-response,99,324273,0.0-12.0,213,1,2025-05-05T23:19:18Z,b60275e29fe2361ab97ac0ac217840d7,"Mozilla/5.0 (X11; CrOS x86_64 14541.0.0) AppleWebKit/537.36 (KHTML, like Gecko) Chrome/135.0.0.0 Safari/537.36",WebKit,Chrome,135.0.0.0,ChromeOS,14541.0.0,https://5puzkbbxv1.cognition.run/?sona_id=57704,"en-US,en;q=0.9",ctho650wmuu5qy9,19,"[""White""]",No,Female,NA,No,327400.49999999953,NA,5092,NA,j,NA,NA,NA,NA,NA,NA,NA,NA,NA,NA,NA,NA,NA,NA,NA,NA,NA,NA,NA,NA,NA,NA,NA
NA,NA,NA,NA,NA,debrief,image-keyboard-response,100,327398,0.0-13.0,213,1,2025-05-05T23:19:18Z,b60275e29fe2361ab97ac0ac217840d7,"Mozilla/5.0 (X11; CrOS x86_64 14541.0.0) AppleWebKit/537.36 (KHTML, like Gecko) Chrome/135.0.0.0 Safari/537.36",WebKit,Chrome,135.0.0.0,ChromeOS,14541.0.0,https://5puzkbbxv1.cognition.run/?sona_id=57704,"en-US,en;q=0.9",ctho650wmuu5qy9,19,"[""White""]",No,Female,NA,No,327400.49999999953,NA,3100,Judg_choice_debrief.png,p,NA,NA,NA,NA,NA,NA,NA,NA,NA,NA,NA,NA,NA,NA,NA,NA,NA,NA,NA,NA,NA,NA,NA
