success,timeout,failed_images,failed_audio,failed_video,screen_id,trial_type,trial_index,time_elapsed,internal_node_id,run_id,condition,recorded_at,source_code_version,user_agent,device,browser,browser_version,platform,platform_version,referer,accept_language,ppt_id,age,race,ethnicity,gender,other_countries,prev_study,exp_duration,view_history,rt,stimulus,response,phase,order,set,effect,t_high,category,d1_best,d2_best,d1_worst1,d2_worst1,d1_worst2,d2_worst2,first_dim,d1_t,d1_c,d1_d,d2_t,d2_c,d2_d,d1_name,d2_name,strategy_response,question_order
TRUE,FALSE,[],[],[],img preload,preload,0,237,0.0-0.0,216,1,2025-05-06T00:41:19Z,b60275e29fe2361ab97ac0ac217840d7,"Mozilla/5.0 (Macintosh; Intel Mac OS X 10_15_7) AppleWebKit/537.36 (KHTML, like Gecko) Chrome/131.0.0.0 Safari/537.36",Macintosh,Chrome,131.0.0.0,OS X,10_15_7,https://5puzkbbxv1.cognition.run/?sona_id=57102,"en-US,en;q=0.9",ye3w0qaz41fqhq9,20,"[""White""]",No,Female,NA,No,702585.4000000954,NA,NA,NA,NA,NA,NA,NA,NA,NA,NA,NA,NA,NA,NA,NA,NA,NA,NA,NA,NA,NA,NA,NA,NA,NA,NA,NA
NA,NA,NA,NA,NA,computer_message,instructions,1,2198,0.0-1.0,216,1,2025-05-06T00:41:19Z,b60275e29fe2361ab97ac0ac217840d7,"Mozilla/5.0 (Macintosh; Intel Mac OS X 10_15_7) AppleWebKit/537.36 (KHTML, like Gecko) Chrome/131.0.0.0 Safari/537.36",Macintosh,Chrome,131.0.0.0,OS X,10_15_7,https://5puzkbbxv1.cognition.run/?sona_id=57102,"en-US,en;q=0.9",ye3w0qaz41fqhq9,20,"[""White""]",No,Female,NA,No,702585.4000000954,"[{""page_index"":0,""viewing_time"":1959}]",1960,NA,NA,NA,NA,NA,NA,NA,NA,NA,NA,NA,NA,NA,NA,NA,NA,NA,NA,NA,NA,NA,NA,NA,NA,NA
TRUE,NA,NA,NA,NA,NA,fullscreen,2,4411,0.0-2.0,216,1,2025-05-06T00:41:19Z,b60275e29fe2361ab97ac0ac217840d7,"Mozilla/5.0 (Macintosh; Intel Mac OS X 10_15_7) AppleWebKit/537.36 (KHTML, like Gecko) Chrome/131.0.0.0 Safari/537.36",Macintosh,Chrome,131.0.0.0,OS X,10_15_7,https://5puzkbbxv1.cognition.run/?sona_id=57102,"en-US,en;q=0.9",ye3w0qaz41fqhq9,20,"[""White""]",No,Female,NA,No,702585.4000000954,NA,1208,NA,NA,NA,NA,NA,NA,NA,NA,NA,NA,NA,NA,NA,NA,NA,NA,NA,NA,NA,NA,NA,NA,NA,NA,NA
NA,NA,NA,NA,NA,choice_instructions,instructions,3,47562,0.0-3.0,216,1,2025-05-06T00:41:19Z,b60275e29fe2361ab97ac0ac217840d7,"Mozilla/5.0 (Macintosh; Intel Mac OS X 10_15_7) AppleWebKit/537.36 (KHTML, like Gecko) Chrome/131.0.0.0 Safari/537.36",Macintosh,Chrome,131.0.0.0,OS X,10_15_7,https://5puzkbbxv1.cognition.run/?sona_id=57102,"en-US,en;q=0.9",ye3w0qaz41fqhq9,20,"[""White""]",No,Female,NA,No,702585.4000000954,"[{""page_index"":0,""viewing_time"":1232},{""page_index"":1,""viewing_time"":4523},{""page_index"":2,""viewing_time"":7002},{""page_index"":3,""viewing_time"":7321},{""page_index"":4,""viewing_time"":3160},{""page_index"":5,""viewing_time"":10914},{""page_index"":6,""viewing_time"":8997}]",43149,NA,NA,NA,NA,NA,NA,NA,NA,NA,NA,NA,NA,NA,NA,NA,NA,NA,NA,NA,NA,NA,NA,NA,NA,NA
NA,NA,NA,NA,NA,choice_trial_setup,html-keyboard-response,4,47867,0.0-4.0-0.0,216,1,2025-05-06T00:41:19Z,b60275e29fe2361ab97ac0ac217840d7,"Mozilla/5.0 (Macintosh; Intel Mac OS X 10_15_7) AppleWebKit/537.36 (KHTML, like Gecko) Chrome/131.0.0.0 Safari/537.36",Macintosh,Chrome,131.0.0.0,OS X,10_15_7,https://5puzkbbxv1.cognition.run/?sona_id=57102,"en-US,en;q=0.9",ye3w0qaz41fqhq9,20,"[""White""]",No,Female,NA,No,702585.4000000954,NA,null,<p></p>,null,choice,ctd,trinary,attraction,2,microwave ovens,null,null,null,null,null,null,1,NA,NA,NA,NA,NA,NA,NA,NA,NA,NA
NA,NA,NA,NA,NA,choice_trial,survey-html-form,5,68570,0.0-4.0-1.0,216,1,2025-05-06T00:41:19Z,b60275e29fe2361ab97ac0ac217840d7,"Mozilla/5.0 (Macintosh; Intel Mac OS X 10_15_7) AppleWebKit/537.36 (KHTML, like Gecko) Chrome/131.0.0.0 Safari/537.36",Macintosh,Chrome,131.0.0.0,OS X,10_15_7,https://5puzkbbxv1.cognition.run/?sona_id=57102,"en-US,en;q=0.9",ye3w0qaz41fqhq9,20,"[""White""]",No,Female,NA,No,702585.4000000954,NA,20698,NA,"{""product_choice"":""B""}",choice,ctd,trinary,attraction,2,microwave ovens,null,null,null,null,null,null,1,50,60,40,60,50,60,Warranty,Cooking power,NA,NA
NA,NA,NA,NA,NA,choice_trial_setup,html-keyboard-response,6,68874,0.0-4.0-0.1,216,1,2025-05-06T00:41:19Z,b60275e29fe2361ab97ac0ac217840d7,"Mozilla/5.0 (Macintosh; Intel Mac OS X 10_15_7) AppleWebKit/537.36 (KHTML, like Gecko) Chrome/131.0.0.0 Safari/537.36",Macintosh,Chrome,131.0.0.0,OS X,10_15_7,https://5puzkbbxv1.cognition.run/?sona_id=57102,"en-US,en;q=0.9",ye3w0qaz41fqhq9,20,"[""White""]",No,Female,NA,No,702585.4000000954,NA,null,<p></p>,null,choice,dtc,trinary,repulsion_B,1,laptops,null,null,null,null,null,null,2,NA,NA,NA,NA,NA,NA,NA,NA,NA,NA
NA,NA,NA,NA,NA,choice_trial,survey-html-form,7,81040,0.0-4.0-1.1,216,1,2025-05-06T00:41:19Z,b60275e29fe2361ab97ac0ac217840d7,"Mozilla/5.0 (Macintosh; Intel Mac OS X 10_15_7) AppleWebKit/537.36 (KHTML, like Gecko) Chrome/131.0.0.0 Safari/537.36",Macintosh,Chrome,131.0.0.0,OS X,10_15_7,https://5puzkbbxv1.cognition.run/?sona_id=57102,"en-US,en;q=0.9",ye3w0qaz41fqhq9,20,"[""White""]",No,Female,NA,No,702585.4000000954,NA,12164,NA,"{""product_choice"":""B""}",choice,dtc,trinary,repulsion_B,1,laptops,null,null,null,null,null,null,2,90,100,80,40,30,40,Processing speed,Memory (RAM),NA,NA
NA,NA,NA,NA,NA,choice_trial_setup,html-keyboard-response,8,81344,0.0-4.0-0.2,216,1,2025-05-06T00:41:19Z,b60275e29fe2361ab97ac0ac217840d7,"Mozilla/5.0 (Macintosh; Intel Mac OS X 10_15_7) AppleWebKit/537.36 (KHTML, like Gecko) Chrome/131.0.0.0 Safari/537.36",Macintosh,Chrome,131.0.0.0,OS X,10_15_7,https://5puzkbbxv1.cognition.run/?sona_id=57102,"en-US,en;q=0.9",ye3w0qaz41fqhq9,20,"[""White""]",No,Female,NA,No,702585.4000000954,NA,null,<p></p>,null,choice,tc,binary,attraction,NA,laptops,null,null,null,null,null,null,2,NA,NA,NA,NA,NA,NA,NA,NA,NA,NA
NA,NA,NA,NA,NA,choice_trial,survey-html-form,9,97710,0.0-4.0-1.2,216,1,2025-05-06T00:41:19Z,b60275e29fe2361ab97ac0ac217840d7,"Mozilla/5.0 (Macintosh; Intel Mac OS X 10_15_7) AppleWebKit/537.36 (KHTML, like Gecko) Chrome/131.0.0.0 Safari/537.36",Macintosh,Chrome,131.0.0.0,OS X,10_15_7,https://5puzkbbxv1.cognition.run/?sona_id=57102,"en-US,en;q=0.9",ye3w0qaz41fqhq9,20,"[""White""]",No,Female,NA,No,702585.4000000954,NA,16362,NA,"{""product_choice"":""B""}",choice,tc,binary,attraction,NA,laptops,null,null,null,null,null,null,2,60,50,null,50,60,null,Processing speed,Memory (RAM),NA,NA
NA,NA,NA,NA,NA,choice_trial_setup,html-keyboard-response,10,98013,0.0-4.0-0.3,216,1,2025-05-06T00:41:19Z,b60275e29fe2361ab97ac0ac217840d7,"Mozilla/5.0 (Macintosh; Intel Mac OS X 10_15_7) AppleWebKit/537.36 (KHTML, like Gecko) Chrome/131.0.0.0 Safari/537.36",Macintosh,Chrome,131.0.0.0,OS X,10_15_7,https://5puzkbbxv1.cognition.run/?sona_id=57102,"en-US,en;q=0.9",ye3w0qaz41fqhq9,20,"[""White""]",No,Female,NA,No,702585.4000000954,NA,null,<p></p>,null,choice,tc,binary,repulsion,1,microwave ovens,null,null,null,null,null,null,1,NA,NA,NA,NA,NA,NA,NA,NA,NA,NA
NA,NA,NA,NA,NA,choice_trial,survey-html-form,11,105462,0.0-4.0-1.3,216,1,2025-05-06T00:41:19Z,b60275e29fe2361ab97ac0ac217840d7,"Mozilla/5.0 (Macintosh; Intel Mac OS X 10_15_7) AppleWebKit/537.36 (KHTML, like Gecko) Chrome/131.0.0.0 Safari/537.36",Macintosh,Chrome,131.0.0.0,OS X,10_15_7,https://5puzkbbxv1.cognition.run/?sona_id=57102,"en-US,en;q=0.9",ye3w0qaz41fqhq9,20,"[""White""]",No,Female,NA,No,702585.4000000954,NA,7446,NA,"{""product_choice"":""B""}",choice,tc,binary,repulsion,1,microwave ovens,null,null,null,null,null,null,1,100,90,null,30,40,null,Warranty,Cooking power,NA,NA
NA,NA,NA,NA,NA,choice_trial_setup,html-keyboard-response,12,105765,0.0-4.0-0.4,216,1,2025-05-06T00:41:19Z,b60275e29fe2361ab97ac0ac217840d7,"Mozilla/5.0 (Macintosh; Intel Mac OS X 10_15_7) AppleWebKit/537.36 (KHTML, like Gecko) Chrome/131.0.0.0 Safari/537.36",Macintosh,Chrome,131.0.0.0,OS X,10_15_7,https://5puzkbbxv1.cognition.run/?sona_id=57102,"en-US,en;q=0.9",ye3w0qaz41fqhq9,20,"[""White""]",No,Female,NA,No,702585.4000000954,NA,null,<p></p>,null,choice,dtc,trinary,repulsion_A,2,washing machines,null,null,null,null,null,null,2,NA,NA,NA,NA,NA,NA,NA,NA,NA,NA
NA,NA,NA,NA,NA,choice_trial,survey-html-form,13,114191,0.0-4.0-1.4,216,1,2025-05-06T00:41:19Z,b60275e29fe2361ab97ac0ac217840d7,"Mozilla/5.0 (Macintosh; Intel Mac OS X 10_15_7) AppleWebKit/537.36 (KHTML, like Gecko) Chrome/131.0.0.0 Safari/537.36",Macintosh,Chrome,131.0.0.0,OS X,10_15_7,https://5puzkbbxv1.cognition.run/?sona_id=57102,"en-US,en;q=0.9",ye3w0qaz41fqhq9,20,"[""White""]",No,Female,NA,No,702585.4000000954,NA,8423,NA,"{""product_choice"":""B""}",choice,dtc,trinary,repulsion_A,2,washing machines,null,null,null,null,null,null,2,30,40,20,100,90,100,Average lifespan,Energy savings,NA,NA
NA,NA,NA,NA,NA,choice_trial_setup,html-keyboard-response,14,114495,0.0-4.0-0.5,216,1,2025-05-06T00:41:19Z,b60275e29fe2361ab97ac0ac217840d7,"Mozilla/5.0 (Macintosh; Intel Mac OS X 10_15_7) AppleWebKit/537.36 (KHTML, like Gecko) Chrome/131.0.0.0 Safari/537.36",Macintosh,Chrome,131.0.0.0,OS X,10_15_7,https://5puzkbbxv1.cognition.run/?sona_id=57102,"en-US,en;q=0.9",ye3w0qaz41fqhq9,20,"[""White""]",No,Female,NA,No,702585.4000000954,NA,null,<p></p>,null,choice,tc,binary,repulsion,2,televisions,null,null,null,null,null,null,1,NA,NA,NA,NA,NA,NA,NA,NA,NA,NA
NA,NA,NA,NA,NA,choice_trial,survey-html-form,15,122222,0.0-4.0-1.5,216,1,2025-05-06T00:41:19Z,b60275e29fe2361ab97ac0ac217840d7,"Mozilla/5.0 (Macintosh; Intel Mac OS X 10_15_7) AppleWebKit/537.36 (KHTML, like Gecko) Chrome/131.0.0.0 Safari/537.36",Macintosh,Chrome,131.0.0.0,OS X,10_15_7,https://5puzkbbxv1.cognition.run/?sona_id=57102,"en-US,en;q=0.9",ye3w0qaz41fqhq9,20,"[""White""]",No,Female,NA,No,702585.4000000954,NA,7724,NA,"{""product_choice"":""A""}",choice,tc,binary,repulsion,2,televisions,null,null,null,null,null,null,1,30,40,null,100,90,null,Screen size,Average lifespan,NA,NA
NA,NA,NA,NA,NA,choice_trial_setup,html-keyboard-response,16,122526,0.0-4.0-0.6,216,1,2025-05-06T00:41:19Z,b60275e29fe2361ab97ac0ac217840d7,"Mozilla/5.0 (Macintosh; Intel Mac OS X 10_15_7) AppleWebKit/537.36 (KHTML, like Gecko) Chrome/131.0.0.0 Safari/537.36",Macintosh,Chrome,131.0.0.0,OS X,10_15_7,https://5puzkbbxv1.cognition.run/?sona_id=57102,"en-US,en;q=0.9",ye3w0qaz41fqhq9,20,"[""White""]",No,Female,NA,No,702585.4000000954,NA,null,<p></p>,null,choice,tcd,trinary,repulsion_A,1,washing machines,null,null,null,null,null,null,1,NA,NA,NA,NA,NA,NA,NA,NA,NA,NA
NA,NA,NA,NA,NA,choice_trial,survey-html-form,17,131942,0.0-4.0-1.6,216,1,2025-05-06T00:41:19Z,b60275e29fe2361ab97ac0ac217840d7,"Mozilla/5.0 (Macintosh; Intel Mac OS X 10_15_7) AppleWebKit/537.36 (KHTML, like Gecko) Chrome/131.0.0.0 Safari/537.36",Macintosh,Chrome,131.0.0.0,OS X,10_15_7,https://5puzkbbxv1.cognition.run/?sona_id=57102,"en-US,en;q=0.9",ye3w0qaz41fqhq9,20,"[""White""]",No,Female,NA,No,702585.4000000954,NA,9413,NA,"{""product_choice"":""B""}",choice,tcd,trinary,repulsion_A,1,washing machines,null,null,null,null,null,null,1,100,90,100,30,40,20,Average lifespan,Energy savings,NA,NA
NA,NA,NA,NA,NA,choice_trial_setup,html-keyboard-response,18,132246,0.0-4.0-0.7,216,1,2025-05-06T00:41:19Z,b60275e29fe2361ab97ac0ac217840d7,"Mozilla/5.0 (Macintosh; Intel Mac OS X 10_15_7) AppleWebKit/537.36 (KHTML, like Gecko) Chrome/131.0.0.0 Safari/537.36",Macintosh,Chrome,131.0.0.0,OS X,10_15_7,https://5puzkbbxv1.cognition.run/?sona_id=57102,"en-US,en;q=0.9",ye3w0qaz41fqhq9,20,"[""White""]",No,Female,NA,No,702585.4000000954,NA,null,<p></p>,null,choice,wbw,trinary,catch,null,microwave ovens,65,90,15,45,20,40,1,NA,NA,NA,NA,NA,NA,NA,NA,NA,NA
NA,NA,NA,NA,NA,choice_trial,survey-html-form,19,138869,0.0-4.0-1.7,216,1,2025-05-06T00:41:19Z,b60275e29fe2361ab97ac0ac217840d7,"Mozilla/5.0 (Macintosh; Intel Mac OS X 10_15_7) AppleWebKit/537.36 (KHTML, like Gecko) Chrome/131.0.0.0 Safari/537.36",Macintosh,Chrome,131.0.0.0,OS X,10_15_7,https://5puzkbbxv1.cognition.run/?sona_id=57102,"en-US,en;q=0.9",ye3w0qaz41fqhq9,20,"[""White""]",No,Female,NA,No,702585.4000000954,NA,6620,NA,"{""product_choice"":""B""}",choice,wbw,trinary,catch,null,microwave ovens,65,90,15,45,20,40,1,null,null,null,null,null,null,Warranty,Cooking power,NA,NA
NA,NA,NA,NA,NA,choice_trial_setup,html-keyboard-response,20,139173,0.0-4.0-0.8,216,1,2025-05-06T00:41:19Z,b60275e29fe2361ab97ac0ac217840d7,"Mozilla/5.0 (Macintosh; Intel Mac OS X 10_15_7) AppleWebKit/537.36 (KHTML, like Gecko) Chrome/131.0.0.0 Safari/537.36",Macintosh,Chrome,131.0.0.0,OS X,10_15_7,https://5puzkbbxv1.cognition.run/?sona_id=57102,"en-US,en;q=0.9",ye3w0qaz41fqhq9,20,"[""White""]",No,Female,NA,No,702585.4000000954,NA,null,<p></p>,null,choice,ctd,trinary,repulsion_B,1,microwave ovens,null,null,null,null,null,null,2,NA,NA,NA,NA,NA,NA,NA,NA,NA,NA
NA,NA,NA,NA,NA,choice_trial,survey-html-form,21,145893,0.0-4.0-1.8,216,1,2025-05-06T00:41:19Z,b60275e29fe2361ab97ac0ac217840d7,"Mozilla/5.0 (Macintosh; Intel Mac OS X 10_15_7) AppleWebKit/537.36 (KHTML, like Gecko) Chrome/131.0.0.0 Safari/537.36",Macintosh,Chrome,131.0.0.0,OS X,10_15_7,https://5puzkbbxv1.cognition.run/?sona_id=57102,"en-US,en;q=0.9",ye3w0qaz41fqhq9,20,"[""White""]",No,Female,NA,No,702585.4000000954,NA,6717,NA,"{""product_choice"":""B""}",choice,ctd,trinary,repulsion_B,1,microwave ovens,null,null,null,null,null,null,2,90,100,80,40,30,40,Warranty,Cooking power,NA,NA
NA,NA,NA,NA,NA,choice_trial_setup,html-keyboard-response,22,146197,0.0-4.0-0.9,216,1,2025-05-06T00:41:19Z,b60275e29fe2361ab97ac0ac217840d7,"Mozilla/5.0 (Macintosh; Intel Mac OS X 10_15_7) AppleWebKit/537.36 (KHTML, like Gecko) Chrome/131.0.0.0 Safari/537.36",Macintosh,Chrome,131.0.0.0,OS X,10_15_7,https://5puzkbbxv1.cognition.run/?sona_id=57102,"en-US,en;q=0.9",ye3w0qaz41fqhq9,20,"[""White""]",No,Female,NA,No,702585.4000000954,NA,null,<p></p>,null,choice,ctd,trinary,attraction,2,televisions,null,null,null,null,null,null,2,NA,NA,NA,NA,NA,NA,NA,NA,NA,NA
NA,NA,NA,NA,NA,choice_trial,survey-html-form,23,155205,0.0-4.0-1.9,216,1,2025-05-06T00:41:19Z,b60275e29fe2361ab97ac0ac217840d7,"Mozilla/5.0 (Macintosh; Intel Mac OS X 10_15_7) AppleWebKit/537.36 (KHTML, like Gecko) Chrome/131.0.0.0 Safari/537.36",Macintosh,Chrome,131.0.0.0,OS X,10_15_7,https://5puzkbbxv1.cognition.run/?sona_id=57102,"en-US,en;q=0.9",ye3w0qaz41fqhq9,20,"[""White""]",No,Female,NA,No,702585.4000000954,NA,9004,NA,"{""product_choice"":""B""}",choice,ctd,trinary,attraction,2,televisions,null,null,null,null,null,null,2,50,60,40,60,50,60,Screen size,Average lifespan,NA,NA
NA,NA,NA,NA,NA,choice_trial_setup,html-keyboard-response,24,155509,0.0-4.0-0.10,216,1,2025-05-06T00:41:19Z,b60275e29fe2361ab97ac0ac217840d7,"Mozilla/5.0 (Macintosh; Intel Mac OS X 10_15_7) AppleWebKit/537.36 (KHTML, like Gecko) Chrome/131.0.0.0 Safari/537.36",Macintosh,Chrome,131.0.0.0,OS X,10_15_7,https://5puzkbbxv1.cognition.run/?sona_id=57102,"en-US,en;q=0.9",ye3w0qaz41fqhq9,20,"[""White""]",No,Female,NA,No,702585.4000000954,NA,null,<p></p>,null,choice,dct,trinary,attraction,2,washing machines,null,null,null,null,null,null,1,NA,NA,NA,NA,NA,NA,NA,NA,NA,NA
NA,NA,NA,NA,NA,choice_trial,survey-html-form,25,165134,0.0-4.0-1.10,216,1,2025-05-06T00:41:19Z,b60275e29fe2361ab97ac0ac217840d7,"Mozilla/5.0 (Macintosh; Intel Mac OS X 10_15_7) AppleWebKit/537.36 (KHTML, like Gecko) Chrome/131.0.0.0 Safari/537.36",Macintosh,Chrome,131.0.0.0,OS X,10_15_7,https://5puzkbbxv1.cognition.run/?sona_id=57102,"en-US,en;q=0.9",ye3w0qaz41fqhq9,20,"[""White""]",No,Female,NA,No,702585.4000000954,NA,9623,NA,"{""product_choice"":""B""}",choice,dct,trinary,attraction,2,washing machines,null,null,null,null,null,null,1,50,60,40,60,50,60,Average lifespan,Energy savings,NA,NA
NA,NA,NA,NA,NA,choice_trial_setup,html-keyboard-response,26,165438,0.0-4.0-0.11,216,1,2025-05-06T00:41:19Z,b60275e29fe2361ab97ac0ac217840d7,"Mozilla/5.0 (Macintosh; Intel Mac OS X 10_15_7) AppleWebKit/537.36 (KHTML, like Gecko) Chrome/131.0.0.0 Safari/537.36",Macintosh,Chrome,131.0.0.0,OS X,10_15_7,https://5puzkbbxv1.cognition.run/?sona_id=57102,"en-US,en;q=0.9",ye3w0qaz41fqhq9,20,"[""White""]",No,Female,NA,No,702585.4000000954,NA,null,<p></p>,null,choice,bww,trinary,catch,null,televisions,70,95,15,20,15,50,1,NA,NA,NA,NA,NA,NA,NA,NA,NA,NA
NA,NA,NA,NA,NA,choice_trial,survey-html-form,27,169365,0.0-4.0-1.11,216,1,2025-05-06T00:41:19Z,b60275e29fe2361ab97ac0ac217840d7,"Mozilla/5.0 (Macintosh; Intel Mac OS X 10_15_7) AppleWebKit/537.36 (KHTML, like Gecko) Chrome/131.0.0.0 Safari/537.36",Macintosh,Chrome,131.0.0.0,OS X,10_15_7,https://5puzkbbxv1.cognition.run/?sona_id=57102,"en-US,en;q=0.9",ye3w0qaz41fqhq9,20,"[""White""]",No,Female,NA,No,702585.4000000954,NA,3924,NA,"{""product_choice"":""A""}",choice,bww,trinary,catch,null,televisions,70,95,15,20,15,50,1,null,null,null,null,null,null,Screen size,Average lifespan,NA,NA
NA,NA,NA,NA,NA,choice_trial_setup,html-keyboard-response,28,169670,0.0-4.0-0.12,216,1,2025-05-06T00:41:19Z,b60275e29fe2361ab97ac0ac217840d7,"Mozilla/5.0 (Macintosh; Intel Mac OS X 10_15_7) AppleWebKit/537.36 (KHTML, like Gecko) Chrome/131.0.0.0 Safari/537.36",Macintosh,Chrome,131.0.0.0,OS X,10_15_7,https://5puzkbbxv1.cognition.run/?sona_id=57102,"en-US,en;q=0.9",ye3w0qaz41fqhq9,20,"[""White""]",No,Female,NA,No,702585.4000000954,NA,null,<p></p>,null,choice,tc,binary,repulsion,1,televisions,null,null,null,null,null,null,1,NA,NA,NA,NA,NA,NA,NA,NA,NA,NA
NA,NA,NA,NA,NA,choice_trial,survey-html-form,29,175052,0.0-4.0-1.12,216,1,2025-05-06T00:41:19Z,b60275e29fe2361ab97ac0ac217840d7,"Mozilla/5.0 (Macintosh; Intel Mac OS X 10_15_7) AppleWebKit/537.36 (KHTML, like Gecko) Chrome/131.0.0.0 Safari/537.36",Macintosh,Chrome,131.0.0.0,OS X,10_15_7,https://5puzkbbxv1.cognition.run/?sona_id=57102,"en-US,en;q=0.9",ye3w0qaz41fqhq9,20,"[""White""]",No,Female,NA,No,702585.4000000954,NA,5379,NA,"{""product_choice"":""B""}",choice,tc,binary,repulsion,1,televisions,null,null,null,null,null,null,1,100,90,null,30,40,null,Screen size,Average lifespan,NA,NA
NA,NA,NA,NA,NA,choice_trial_setup,html-keyboard-response,30,175354,0.0-4.0-0.13,216,1,2025-05-06T00:41:19Z,b60275e29fe2361ab97ac0ac217840d7,"Mozilla/5.0 (Macintosh; Intel Mac OS X 10_15_7) AppleWebKit/537.36 (KHTML, like Gecko) Chrome/131.0.0.0 Safari/537.36",Macintosh,Chrome,131.0.0.0,OS X,10_15_7,https://5puzkbbxv1.cognition.run/?sona_id=57102,"en-US,en;q=0.9",ye3w0qaz41fqhq9,20,"[""White""]",No,Female,NA,No,702585.4000000954,NA,null,<p></p>,null,choice,cdt,trinary,repulsion_A,2,laptops,null,null,null,null,null,null,2,NA,NA,NA,NA,NA,NA,NA,NA,NA,NA
NA,NA,NA,NA,NA,choice_trial,survey-html-form,31,181769,0.0-4.0-1.13,216,1,2025-05-06T00:41:19Z,b60275e29fe2361ab97ac0ac217840d7,"Mozilla/5.0 (Macintosh; Intel Mac OS X 10_15_7) AppleWebKit/537.36 (KHTML, like Gecko) Chrome/131.0.0.0 Safari/537.36",Macintosh,Chrome,131.0.0.0,OS X,10_15_7,https://5puzkbbxv1.cognition.run/?sona_id=57102,"en-US,en;q=0.9",ye3w0qaz41fqhq9,20,"[""White""]",No,Female,NA,No,702585.4000000954,NA,6411,NA,"{""product_choice"":""A""}",choice,cdt,trinary,repulsion_A,2,laptops,null,null,null,null,null,null,2,30,40,20,100,90,100,Processing speed,Memory (RAM),NA,NA
NA,NA,NA,NA,NA,choice_trial_setup,html-keyboard-response,32,182073,0.0-4.0-0.14,216,1,2025-05-06T00:41:19Z,b60275e29fe2361ab97ac0ac217840d7,"Mozilla/5.0 (Macintosh; Intel Mac OS X 10_15_7) AppleWebKit/537.36 (KHTML, like Gecko) Chrome/131.0.0.0 Safari/537.36",Macintosh,Chrome,131.0.0.0,OS X,10_15_7,https://5puzkbbxv1.cognition.run/?sona_id=57102,"en-US,en;q=0.9",ye3w0qaz41fqhq9,20,"[""White""]",No,Female,NA,No,702585.4000000954,NA,null,<p></p>,null,choice,tdc,trinary,repulsion_B,2,laptops,null,null,null,null,null,null,1,NA,NA,NA,NA,NA,NA,NA,NA,NA,NA
NA,NA,NA,NA,NA,choice_trial,survey-html-form,33,194958,0.0-4.0-1.14,216,1,2025-05-06T00:41:19Z,b60275e29fe2361ab97ac0ac217840d7,"Mozilla/5.0 (Macintosh; Intel Mac OS X 10_15_7) AppleWebKit/537.36 (KHTML, like Gecko) Chrome/131.0.0.0 Safari/537.36",Macintosh,Chrome,131.0.0.0,OS X,10_15_7,https://5puzkbbxv1.cognition.run/?sona_id=57102,"en-US,en;q=0.9",ye3w0qaz41fqhq9,20,"[""White""]",No,Female,NA,No,702585.4000000954,NA,12881,NA,"{""product_choice"":""A""}",choice,tdc,trinary,repulsion_B,2,laptops,null,null,null,null,null,null,1,40,30,40,90,100,80,Processing speed,Memory (RAM),NA,NA
NA,NA,NA,NA,NA,choice_trial_setup,html-keyboard-response,34,195262,0.0-4.0-0.15,216,1,2025-05-06T00:41:19Z,b60275e29fe2361ab97ac0ac217840d7,"Mozilla/5.0 (Macintosh; Intel Mac OS X 10_15_7) AppleWebKit/537.36 (KHTML, like Gecko) Chrome/131.0.0.0 Safari/537.36",Macintosh,Chrome,131.0.0.0,OS X,10_15_7,https://5puzkbbxv1.cognition.run/?sona_id=57102,"en-US,en;q=0.9",ye3w0qaz41fqhq9,20,"[""White""]",No,Female,NA,No,702585.4000000954,NA,null,<p></p>,null,choice,bww,trinary,catch,null,washing machines,85,90,20,15,15,25,1,NA,NA,NA,NA,NA,NA,NA,NA,NA,NA
NA,NA,NA,NA,NA,choice_trial,survey-html-form,35,202231,0.0-4.0-1.15,216,1,2025-05-06T00:41:19Z,b60275e29fe2361ab97ac0ac217840d7,"Mozilla/5.0 (Macintosh; Intel Mac OS X 10_15_7) AppleWebKit/537.36 (KHTML, like Gecko) Chrome/131.0.0.0 Safari/537.36",Macintosh,Chrome,131.0.0.0,OS X,10_15_7,https://5puzkbbxv1.cognition.run/?sona_id=57102,"en-US,en;q=0.9",ye3w0qaz41fqhq9,20,"[""White""]",No,Female,NA,No,702585.4000000954,NA,6965,NA,"{""product_choice"":""A""}",choice,bww,trinary,catch,null,washing machines,85,90,20,15,15,25,1,null,null,null,null,null,null,Average lifespan,Energy savings,NA,NA
NA,NA,NA,NA,NA,choice_trial_setup,html-keyboard-response,36,202534,0.0-4.0-0.16,216,1,2025-05-06T00:41:19Z,b60275e29fe2361ab97ac0ac217840d7,"Mozilla/5.0 (Macintosh; Intel Mac OS X 10_15_7) AppleWebKit/537.36 (KHTML, like Gecko) Chrome/131.0.0.0 Safari/537.36",Macintosh,Chrome,131.0.0.0,OS X,10_15_7,https://5puzkbbxv1.cognition.run/?sona_id=57102,"en-US,en;q=0.9",ye3w0qaz41fqhq9,20,"[""White""]",No,Female,NA,No,702585.4000000954,NA,null,<p></p>,null,choice,ctd,trinary,repulsion_A,1,microwave ovens,null,null,null,null,null,null,2,NA,NA,NA,NA,NA,NA,NA,NA,NA,NA
NA,NA,NA,NA,NA,choice_trial,survey-html-form,37,208529,0.0-4.0-1.16,216,1,2025-05-06T00:41:19Z,b60275e29fe2361ab97ac0ac217840d7,"Mozilla/5.0 (Macintosh; Intel Mac OS X 10_15_7) AppleWebKit/537.36 (KHTML, like Gecko) Chrome/131.0.0.0 Safari/537.36",Macintosh,Chrome,131.0.0.0,OS X,10_15_7,https://5puzkbbxv1.cognition.run/?sona_id=57102,"en-US,en;q=0.9",ye3w0qaz41fqhq9,20,"[""White""]",No,Female,NA,No,702585.4000000954,NA,5990,NA,"{""product_choice"":""A""}",choice,ctd,trinary,repulsion_A,1,microwave ovens,null,null,null,null,null,null,2,100,90,100,30,40,20,Warranty,Cooking power,NA,NA
NA,NA,NA,NA,NA,choice_trial_setup,html-keyboard-response,38,208832,0.0-4.0-0.17,216,1,2025-05-06T00:41:19Z,b60275e29fe2361ab97ac0ac217840d7,"Mozilla/5.0 (Macintosh; Intel Mac OS X 10_15_7) AppleWebKit/537.36 (KHTML, like Gecko) Chrome/131.0.0.0 Safari/537.36",Macintosh,Chrome,131.0.0.0,OS X,10_15_7,https://5puzkbbxv1.cognition.run/?sona_id=57102,"en-US,en;q=0.9",ye3w0qaz41fqhq9,20,"[""White""]",No,Female,NA,No,702585.4000000954,NA,null,<p></p>,null,choice,bw,binary,catch,null,washing machines,95,95,50,5,null,null,1,NA,NA,NA,NA,NA,NA,NA,NA,NA,NA
NA,NA,NA,NA,NA,choice_trial,survey-html-form,39,215701,0.0-4.0-1.17,216,1,2025-05-06T00:41:19Z,b60275e29fe2361ab97ac0ac217840d7,"Mozilla/5.0 (Macintosh; Intel Mac OS X 10_15_7) AppleWebKit/537.36 (KHTML, like Gecko) Chrome/131.0.0.0 Safari/537.36",Macintosh,Chrome,131.0.0.0,OS X,10_15_7,https://5puzkbbxv1.cognition.run/?sona_id=57102,"en-US,en;q=0.9",ye3w0qaz41fqhq9,20,"[""White""]",No,Female,NA,No,702585.4000000954,NA,6865,NA,"{""product_choice"":""A""}",choice,bw,binary,catch,null,washing machines,95,95,50,5,null,null,1,null,null,null,null,null,null,Average lifespan,Energy savings,NA,NA
NA,NA,NA,NA,NA,choice_trial_setup,html-keyboard-response,40,216005,0.0-4.0-0.18,216,1,2025-05-06T00:41:19Z,b60275e29fe2361ab97ac0ac217840d7,"Mozilla/5.0 (Macintosh; Intel Mac OS X 10_15_7) AppleWebKit/537.36 (KHTML, like Gecko) Chrome/131.0.0.0 Safari/537.36",Macintosh,Chrome,131.0.0.0,OS X,10_15_7,https://5puzkbbxv1.cognition.run/?sona_id=57102,"en-US,en;q=0.9",ye3w0qaz41fqhq9,20,"[""White""]",No,Female,NA,No,702585.4000000954,NA,null,<p></p>,null,choice,bw,binary,catch,null,laptops,75,90,30,25,null,null,2,NA,NA,NA,NA,NA,NA,NA,NA,NA,NA
NA,NA,NA,NA,NA,choice_trial,survey-html-form,41,219365,0.0-4.0-1.18,216,1,2025-05-06T00:41:19Z,b60275e29fe2361ab97ac0ac217840d7,"Mozilla/5.0 (Macintosh; Intel Mac OS X 10_15_7) AppleWebKit/537.36 (KHTML, like Gecko) Chrome/131.0.0.0 Safari/537.36",Macintosh,Chrome,131.0.0.0,OS X,10_15_7,https://5puzkbbxv1.cognition.run/?sona_id=57102,"en-US,en;q=0.9",ye3w0qaz41fqhq9,20,"[""White""]",No,Female,NA,No,702585.4000000954,NA,3356,NA,"{""product_choice"":""A""}",choice,bw,binary,catch,null,laptops,75,90,30,25,null,null,2,null,null,null,null,null,null,Processing speed,Memory (RAM),NA,NA
NA,NA,NA,NA,NA,choice_trial_setup,html-keyboard-response,42,219669,0.0-4.0-0.19,216,1,2025-05-06T00:41:19Z,b60275e29fe2361ab97ac0ac217840d7,"Mozilla/5.0 (Macintosh; Intel Mac OS X 10_15_7) AppleWebKit/537.36 (KHTML, like Gecko) Chrome/131.0.0.0 Safari/537.36",Macintosh,Chrome,131.0.0.0,OS X,10_15_7,https://5puzkbbxv1.cognition.run/?sona_id=57102,"en-US,en;q=0.9",ye3w0qaz41fqhq9,20,"[""White""]",No,Female,NA,No,702585.4000000954,NA,null,<p></p>,null,choice,ctd,trinary,repulsion_B,1,washing machines,null,null,null,null,null,null,1,NA,NA,NA,NA,NA,NA,NA,NA,NA,NA
NA,NA,NA,NA,NA,choice_trial,survey-html-form,43,229461,0.0-4.0-1.19,216,1,2025-05-06T00:41:19Z,b60275e29fe2361ab97ac0ac217840d7,"Mozilla/5.0 (Macintosh; Intel Mac OS X 10_15_7) AppleWebKit/537.36 (KHTML, like Gecko) Chrome/131.0.0.0 Safari/537.36",Macintosh,Chrome,131.0.0.0,OS X,10_15_7,https://5puzkbbxv1.cognition.run/?sona_id=57102,"en-US,en;q=0.9",ye3w0qaz41fqhq9,20,"[""White""]",No,Female,NA,No,702585.4000000954,NA,9789,NA,"{""product_choice"":""B""}",choice,ctd,trinary,repulsion_B,1,washing machines,null,null,null,null,null,null,1,90,100,80,40,30,40,Average lifespan,Energy savings,NA,NA
NA,NA,NA,NA,NA,choice_trial_setup,html-keyboard-response,44,229764,0.0-4.0-0.20,216,1,2025-05-06T00:41:19Z,b60275e29fe2361ab97ac0ac217840d7,"Mozilla/5.0 (Macintosh; Intel Mac OS X 10_15_7) AppleWebKit/537.36 (KHTML, like Gecko) Chrome/131.0.0.0 Safari/537.36",Macintosh,Chrome,131.0.0.0,OS X,10_15_7,https://5puzkbbxv1.cognition.run/?sona_id=57102,"en-US,en;q=0.9",ye3w0qaz41fqhq9,20,"[""White""]",No,Female,NA,No,702585.4000000954,NA,null,<p></p>,null,choice,dtc,trinary,repulsion_A,2,televisions,null,null,null,null,null,null,2,NA,NA,NA,NA,NA,NA,NA,NA,NA,NA
NA,NA,NA,NA,NA,choice_trial,survey-html-form,45,236939,0.0-4.0-1.20,216,1,2025-05-06T00:41:19Z,b60275e29fe2361ab97ac0ac217840d7,"Mozilla/5.0 (Macintosh; Intel Mac OS X 10_15_7) AppleWebKit/537.36 (KHTML, like Gecko) Chrome/131.0.0.0 Safari/537.36",Macintosh,Chrome,131.0.0.0,OS X,10_15_7,https://5puzkbbxv1.cognition.run/?sona_id=57102,"en-US,en;q=0.9",ye3w0qaz41fqhq9,20,"[""White""]",No,Female,NA,No,702585.4000000954,NA,7172,NA,"{""product_choice"":""C""}",choice,dtc,trinary,repulsion_A,2,televisions,null,null,null,null,null,null,2,30,40,20,100,90,100,Screen size,Average lifespan,NA,NA
NA,NA,NA,NA,NA,choice_trial_setup,html-keyboard-response,46,237243,0.0-4.0-0.21,216,1,2025-05-06T00:41:19Z,b60275e29fe2361ab97ac0ac217840d7,"Mozilla/5.0 (Macintosh; Intel Mac OS X 10_15_7) AppleWebKit/537.36 (KHTML, like Gecko) Chrome/131.0.0.0 Safari/537.36",Macintosh,Chrome,131.0.0.0,OS X,10_15_7,https://5puzkbbxv1.cognition.run/?sona_id=57102,"en-US,en;q=0.9",ye3w0qaz41fqhq9,20,"[""White""]",No,Female,NA,No,702585.4000000954,NA,null,<p></p>,null,choice,dct,trinary,repulsion_A,2,microwave ovens,null,null,null,null,null,null,1,NA,NA,NA,NA,NA,NA,NA,NA,NA,NA
NA,NA,NA,NA,NA,choice_trial,survey-html-form,47,241932,0.0-4.0-1.21,216,1,2025-05-06T00:41:19Z,b60275e29fe2361ab97ac0ac217840d7,"Mozilla/5.0 (Macintosh; Intel Mac OS X 10_15_7) AppleWebKit/537.36 (KHTML, like Gecko) Chrome/131.0.0.0 Safari/537.36",Macintosh,Chrome,131.0.0.0,OS X,10_15_7,https://5puzkbbxv1.cognition.run/?sona_id=57102,"en-US,en;q=0.9",ye3w0qaz41fqhq9,20,"[""White""]",No,Female,NA,No,702585.4000000954,NA,4684,NA,"{""product_choice"":""B""}",choice,dct,trinary,repulsion_A,2,microwave ovens,null,null,null,null,null,null,1,30,40,20,100,90,100,Warranty,Cooking power,NA,NA
NA,NA,NA,NA,NA,choice_trial_setup,html-keyboard-response,48,242237,0.0-4.0-0.22,216,1,2025-05-06T00:41:19Z,b60275e29fe2361ab97ac0ac217840d7,"Mozilla/5.0 (Macintosh; Intel Mac OS X 10_15_7) AppleWebKit/537.36 (KHTML, like Gecko) Chrome/131.0.0.0 Safari/537.36",Macintosh,Chrome,131.0.0.0,OS X,10_15_7,https://5puzkbbxv1.cognition.run/?sona_id=57102,"en-US,en;q=0.9",ye3w0qaz41fqhq9,20,"[""White""]",No,Female,NA,No,702585.4000000954,NA,null,<p></p>,null,choice,dct,trinary,attraction,1,laptops,null,null,null,null,null,null,1,NA,NA,NA,NA,NA,NA,NA,NA,NA,NA
NA,NA,NA,NA,NA,choice_trial,survey-html-form,49,258020,0.0-4.0-1.22,216,1,2025-05-06T00:41:19Z,b60275e29fe2361ab97ac0ac217840d7,"Mozilla/5.0 (Macintosh; Intel Mac OS X 10_15_7) AppleWebKit/537.36 (KHTML, like Gecko) Chrome/131.0.0.0 Safari/537.36",Macintosh,Chrome,131.0.0.0,OS X,10_15_7,https://5puzkbbxv1.cognition.run/?sona_id=57102,"en-US,en;q=0.9",ye3w0qaz41fqhq9,20,"[""White""]",No,Female,NA,No,702585.4000000954,NA,15779,NA,"{""product_choice"":""B""}",choice,dct,trinary,attraction,1,laptops,null,null,null,null,null,null,1,60,50,60,50,60,40,Processing speed,Memory (RAM),NA,NA
NA,NA,NA,NA,NA,choice_trial_setup,html-keyboard-response,50,258324,0.0-4.0-0.23,216,1,2025-05-06T00:41:19Z,b60275e29fe2361ab97ac0ac217840d7,"Mozilla/5.0 (Macintosh; Intel Mac OS X 10_15_7) AppleWebKit/537.36 (KHTML, like Gecko) Chrome/131.0.0.0 Safari/537.36",Macintosh,Chrome,131.0.0.0,OS X,10_15_7,https://5puzkbbxv1.cognition.run/?sona_id=57102,"en-US,en;q=0.9",ye3w0qaz41fqhq9,20,"[""White""]",No,Female,NA,No,702585.4000000954,NA,null,<p></p>,null,choice,dtc,trinary,repulsion_A,1,televisions,null,null,null,null,null,null,2,NA,NA,NA,NA,NA,NA,NA,NA,NA,NA
NA,NA,NA,NA,NA,choice_trial,survey-html-form,51,265115,0.0-4.0-1.23,216,1,2025-05-06T00:41:19Z,b60275e29fe2361ab97ac0ac217840d7,"Mozilla/5.0 (Macintosh; Intel Mac OS X 10_15_7) AppleWebKit/537.36 (KHTML, like Gecko) Chrome/131.0.0.0 Safari/537.36",Macintosh,Chrome,131.0.0.0,OS X,10_15_7,https://5puzkbbxv1.cognition.run/?sona_id=57102,"en-US,en;q=0.9",ye3w0qaz41fqhq9,20,"[""White""]",No,Female,NA,No,702585.4000000954,NA,6787,NA,"{""product_choice"":""B""}",choice,dtc,trinary,repulsion_A,1,televisions,null,null,null,null,null,null,2,100,90,100,30,40,20,Screen size,Average lifespan,NA,NA
NA,NA,NA,NA,NA,choice_trial_setup,html-keyboard-response,52,265421,0.0-4.0-0.24,216,1,2025-05-06T00:41:19Z,b60275e29fe2361ab97ac0ac217840d7,"Mozilla/5.0 (Macintosh; Intel Mac OS X 10_15_7) AppleWebKit/537.36 (KHTML, like Gecko) Chrome/131.0.0.0 Safari/537.36",Macintosh,Chrome,131.0.0.0,OS X,10_15_7,https://5puzkbbxv1.cognition.run/?sona_id=57102,"en-US,en;q=0.9",ye3w0qaz41fqhq9,20,"[""White""]",No,Female,NA,No,702585.4000000954,NA,null,<p></p>,null,choice,tc,binary,repulsion,1,washing machines,null,null,null,null,null,null,1,NA,NA,NA,NA,NA,NA,NA,NA,NA,NA
NA,NA,NA,NA,NA,choice_trial,survey-html-form,53,270722,0.0-4.0-1.24,216,1,2025-05-06T00:41:19Z,b60275e29fe2361ab97ac0ac217840d7,"Mozilla/5.0 (Macintosh; Intel Mac OS X 10_15_7) AppleWebKit/537.36 (KHTML, like Gecko) Chrome/131.0.0.0 Safari/537.36",Macintosh,Chrome,131.0.0.0,OS X,10_15_7,https://5puzkbbxv1.cognition.run/?sona_id=57102,"en-US,en;q=0.9",ye3w0qaz41fqhq9,20,"[""White""]",No,Female,NA,No,702585.4000000954,NA,5297,NA,"{""product_choice"":""A""}",choice,tc,binary,repulsion,1,washing machines,null,null,null,null,null,null,1,100,90,null,30,40,null,Average lifespan,Energy savings,NA,NA
NA,NA,NA,NA,NA,choice_trial_setup,html-keyboard-response,54,271027,0.0-4.0-0.25,216,1,2025-05-06T00:41:19Z,b60275e29fe2361ab97ac0ac217840d7,"Mozilla/5.0 (Macintosh; Intel Mac OS X 10_15_7) AppleWebKit/537.36 (KHTML, like Gecko) Chrome/131.0.0.0 Safari/537.36",Macintosh,Chrome,131.0.0.0,OS X,10_15_7,https://5puzkbbxv1.cognition.run/?sona_id=57102,"en-US,en;q=0.9",ye3w0qaz41fqhq9,20,"[""White""]",No,Female,NA,No,702585.4000000954,NA,null,<p></p>,null,choice,ct,binary,repulsion,1,laptops,null,null,null,null,null,null,1,NA,NA,NA,NA,NA,NA,NA,NA,NA,NA
NA,NA,NA,NA,NA,choice_trial,survey-html-form,55,276416,0.0-4.0-1.25,216,1,2025-05-06T00:41:19Z,b60275e29fe2361ab97ac0ac217840d7,"Mozilla/5.0 (Macintosh; Intel Mac OS X 10_15_7) AppleWebKit/537.36 (KHTML, like Gecko) Chrome/131.0.0.0 Safari/537.36",Macintosh,Chrome,131.0.0.0,OS X,10_15_7,https://5puzkbbxv1.cognition.run/?sona_id=57102,"en-US,en;q=0.9",ye3w0qaz41fqhq9,20,"[""White""]",No,Female,NA,No,702585.4000000954,NA,5385,NA,"{""product_choice"":""A""}",choice,ct,binary,repulsion,1,laptops,null,null,null,null,null,null,1,100,90,null,30,40,null,Processing speed,Memory (RAM),NA,NA
NA,NA,NA,NA,NA,choice_trial_setup,html-keyboard-response,56,276720,0.0-4.0-0.26,216,1,2025-05-06T00:41:19Z,b60275e29fe2361ab97ac0ac217840d7,"Mozilla/5.0 (Macintosh; Intel Mac OS X 10_15_7) AppleWebKit/537.36 (KHTML, like Gecko) Chrome/131.0.0.0 Safari/537.36",Macintosh,Chrome,131.0.0.0,OS X,10_15_7,https://5puzkbbxv1.cognition.run/?sona_id=57102,"en-US,en;q=0.9",ye3w0qaz41fqhq9,20,"[""White""]",No,Female,NA,No,702585.4000000954,NA,null,<p></p>,null,choice,ct,binary,repulsion,2,laptops,null,null,null,null,null,null,2,NA,NA,NA,NA,NA,NA,NA,NA,NA,NA
NA,NA,NA,NA,NA,choice_trial,survey-html-form,57,287716,0.0-4.0-1.26,216,1,2025-05-06T00:41:19Z,b60275e29fe2361ab97ac0ac217840d7,"Mozilla/5.0 (Macintosh; Intel Mac OS X 10_15_7) AppleWebKit/537.36 (KHTML, like Gecko) Chrome/131.0.0.0 Safari/537.36",Macintosh,Chrome,131.0.0.0,OS X,10_15_7,https://5puzkbbxv1.cognition.run/?sona_id=57102,"en-US,en;q=0.9",ye3w0qaz41fqhq9,20,"[""White""]",No,Female,NA,No,702585.4000000954,NA,10992,NA,"{""product_choice"":""B""}",choice,ct,binary,repulsion,2,laptops,null,null,null,null,null,null,2,30,40,null,100,90,null,Processing speed,Memory (RAM),NA,NA
NA,NA,NA,NA,NA,choice_trial_setup,html-keyboard-response,58,288020,0.0-4.0-0.27,216,1,2025-05-06T00:41:19Z,b60275e29fe2361ab97ac0ac217840d7,"Mozilla/5.0 (Macintosh; Intel Mac OS X 10_15_7) AppleWebKit/537.36 (KHTML, like Gecko) Chrome/131.0.0.0 Safari/537.36",Macintosh,Chrome,131.0.0.0,OS X,10_15_7,https://5puzkbbxv1.cognition.run/?sona_id=57102,"en-US,en;q=0.9",ye3w0qaz41fqhq9,20,"[""White""]",No,Female,NA,No,702585.4000000954,NA,null,<p></p>,null,choice,bww,trinary,catch,null,laptops,70,70,5,40,25,20,2,NA,NA,NA,NA,NA,NA,NA,NA,NA,NA
NA,NA,NA,NA,NA,choice_trial,survey-html-form,59,377126,0.0-4.0-1.27,216,1,2025-05-06T00:41:19Z,b60275e29fe2361ab97ac0ac217840d7,"Mozilla/5.0 (Macintosh; Intel Mac OS X 10_15_7) AppleWebKit/537.36 (KHTML, like Gecko) Chrome/131.0.0.0 Safari/537.36",Macintosh,Chrome,131.0.0.0,OS X,10_15_7,https://5puzkbbxv1.cognition.run/?sona_id=57102,"en-US,en;q=0.9",ye3w0qaz41fqhq9,20,"[""White""]",No,Female,NA,No,702585.4000000954,NA,89101,NA,"{""product_choice"":""A""}",choice,bww,trinary,catch,null,laptops,70,70,5,40,25,20,2,null,null,null,null,null,null,Processing speed,Memory (RAM),NA,NA
NA,NA,NA,NA,NA,choice_trial_setup,html-keyboard-response,60,377431,0.0-4.0-0.28,216,1,2025-05-06T00:41:19Z,b60275e29fe2361ab97ac0ac217840d7,"Mozilla/5.0 (Macintosh; Intel Mac OS X 10_15_7) AppleWebKit/537.36 (KHTML, like Gecko) Chrome/131.0.0.0 Safari/537.36",Macintosh,Chrome,131.0.0.0,OS X,10_15_7,https://5puzkbbxv1.cognition.run/?sona_id=57102,"en-US,en;q=0.9",ye3w0qaz41fqhq9,20,"[""White""]",No,Female,NA,No,702585.4000000954,NA,null,<p></p>,null,choice,dct,trinary,attraction,1,washing machines,null,null,null,null,null,null,2,NA,NA,NA,NA,NA,NA,NA,NA,NA,NA
NA,NA,NA,NA,NA,choice_trial,survey-html-form,61,387747,0.0-4.0-1.28,216,1,2025-05-06T00:41:19Z,b60275e29fe2361ab97ac0ac217840d7,"Mozilla/5.0 (Macintosh; Intel Mac OS X 10_15_7) AppleWebKit/537.36 (KHTML, like Gecko) Chrome/131.0.0.0 Safari/537.36",Macintosh,Chrome,131.0.0.0,OS X,10_15_7,https://5puzkbbxv1.cognition.run/?sona_id=57102,"en-US,en;q=0.9",ye3w0qaz41fqhq9,20,"[""White""]",No,Female,NA,No,702585.4000000954,NA,10312,NA,"{""product_choice"":""C""}",choice,dct,trinary,attraction,1,washing machines,null,null,null,null,null,null,2,60,50,60,50,60,40,Average lifespan,Energy savings,NA,NA
NA,NA,NA,NA,NA,choice_trial_setup,html-keyboard-response,62,388052,0.0-4.0-0.29,216,1,2025-05-06T00:41:19Z,b60275e29fe2361ab97ac0ac217840d7,"Mozilla/5.0 (Macintosh; Intel Mac OS X 10_15_7) AppleWebKit/537.36 (KHTML, like Gecko) Chrome/131.0.0.0 Safari/537.36",Macintosh,Chrome,131.0.0.0,OS X,10_15_7,https://5puzkbbxv1.cognition.run/?sona_id=57102,"en-US,en;q=0.9",ye3w0qaz41fqhq9,20,"[""White""]",No,Female,NA,No,702585.4000000954,NA,null,<p></p>,null,choice,tdc,trinary,attraction,1,microwave ovens,null,null,null,null,null,null,2,NA,NA,NA,NA,NA,NA,NA,NA,NA,NA
NA,NA,NA,NA,NA,choice_trial,survey-html-form,63,396252,0.0-4.0-1.29,216,1,2025-05-06T00:41:19Z,b60275e29fe2361ab97ac0ac217840d7,"Mozilla/5.0 (Macintosh; Intel Mac OS X 10_15_7) AppleWebKit/537.36 (KHTML, like Gecko) Chrome/131.0.0.0 Safari/537.36",Macintosh,Chrome,131.0.0.0,OS X,10_15_7,https://5puzkbbxv1.cognition.run/?sona_id=57102,"en-US,en;q=0.9",ye3w0qaz41fqhq9,20,"[""White""]",No,Female,NA,No,702585.4000000954,NA,8195,NA,"{""product_choice"":""C""}",choice,tdc,trinary,attraction,1,microwave ovens,null,null,null,null,null,null,2,60,50,60,50,60,40,Warranty,Cooking power,NA,NA
NA,NA,NA,NA,NA,choice_trial_setup,html-keyboard-response,64,396556,0.0-4.0-0.30,216,1,2025-05-06T00:41:19Z,b60275e29fe2361ab97ac0ac217840d7,"Mozilla/5.0 (Macintosh; Intel Mac OS X 10_15_7) AppleWebKit/537.36 (KHTML, like Gecko) Chrome/131.0.0.0 Safari/537.36",Macintosh,Chrome,131.0.0.0,OS X,10_15_7,https://5puzkbbxv1.cognition.run/?sona_id=57102,"en-US,en;q=0.9",ye3w0qaz41fqhq9,20,"[""White""]",No,Female,NA,No,702585.4000000954,NA,null,<p></p>,null,choice,tc,binary,attraction,NA,televisions,null,null,null,null,null,null,2,NA,NA,NA,NA,NA,NA,NA,NA,NA,NA
NA,NA,NA,NA,NA,choice_trial,survey-html-form,65,401415,0.0-4.0-1.30,216,1,2025-05-06T00:41:19Z,b60275e29fe2361ab97ac0ac217840d7,"Mozilla/5.0 (Macintosh; Intel Mac OS X 10_15_7) AppleWebKit/537.36 (KHTML, like Gecko) Chrome/131.0.0.0 Safari/537.36",Macintosh,Chrome,131.0.0.0,OS X,10_15_7,https://5puzkbbxv1.cognition.run/?sona_id=57102,"en-US,en;q=0.9",ye3w0qaz41fqhq9,20,"[""White""]",No,Female,NA,No,702585.4000000954,NA,4853,NA,"{""product_choice"":""B""}",choice,tc,binary,attraction,NA,televisions,null,null,null,null,null,null,2,60,50,null,50,60,null,Screen size,Average lifespan,NA,NA
NA,NA,NA,NA,NA,choice_trial_setup,html-keyboard-response,66,401720,0.0-4.0-0.31,216,1,2025-05-06T00:41:19Z,b60275e29fe2361ab97ac0ac217840d7,"Mozilla/5.0 (Macintosh; Intel Mac OS X 10_15_7) AppleWebKit/537.36 (KHTML, like Gecko) Chrome/131.0.0.0 Safari/537.36",Macintosh,Chrome,131.0.0.0,OS X,10_15_7,https://5puzkbbxv1.cognition.run/?sona_id=57102,"en-US,en;q=0.9",ye3w0qaz41fqhq9,20,"[""White""]",No,Female,NA,No,702585.4000000954,NA,null,<p></p>,null,choice,tcd,trinary,repulsion_B,2,washing machines,null,null,null,null,null,null,2,NA,NA,NA,NA,NA,NA,NA,NA,NA,NA
NA,NA,NA,NA,NA,choice_trial,survey-html-form,67,409658,0.0-4.0-1.31,216,1,2025-05-06T00:41:19Z,b60275e29fe2361ab97ac0ac217840d7,"Mozilla/5.0 (Macintosh; Intel Mac OS X 10_15_7) AppleWebKit/537.36 (KHTML, like Gecko) Chrome/131.0.0.0 Safari/537.36",Macintosh,Chrome,131.0.0.0,OS X,10_15_7,https://5puzkbbxv1.cognition.run/?sona_id=57102,"en-US,en;q=0.9",ye3w0qaz41fqhq9,20,"[""White""]",No,Female,NA,No,702585.4000000954,NA,7934,NA,"{""product_choice"":""A""}",choice,tcd,trinary,repulsion_B,2,washing machines,null,null,null,null,null,null,2,40,30,40,90,100,80,Average lifespan,Energy savings,NA,NA
NA,NA,NA,NA,NA,choice_trial_setup,html-keyboard-response,68,409964,0.0-4.0-0.32,216,1,2025-05-06T00:41:19Z,b60275e29fe2361ab97ac0ac217840d7,"Mozilla/5.0 (Macintosh; Intel Mac OS X 10_15_7) AppleWebKit/537.36 (KHTML, like Gecko) Chrome/131.0.0.0 Safari/537.36",Macintosh,Chrome,131.0.0.0,OS X,10_15_7,https://5puzkbbxv1.cognition.run/?sona_id=57102,"en-US,en;q=0.9",ye3w0qaz41fqhq9,20,"[""White""]",No,Female,NA,No,702585.4000000954,NA,null,<p></p>,null,choice,tc,binary,repulsion,2,microwave ovens,null,null,null,null,null,null,1,NA,NA,NA,NA,NA,NA,NA,NA,NA,NA
NA,NA,NA,NA,NA,choice_trial,survey-html-form,69,417934,0.0-4.0-1.32,216,1,2025-05-06T00:41:19Z,b60275e29fe2361ab97ac0ac217840d7,"Mozilla/5.0 (Macintosh; Intel Mac OS X 10_15_7) AppleWebKit/537.36 (KHTML, like Gecko) Chrome/131.0.0.0 Safari/537.36",Macintosh,Chrome,131.0.0.0,OS X,10_15_7,https://5puzkbbxv1.cognition.run/?sona_id=57102,"en-US,en;q=0.9",ye3w0qaz41fqhq9,20,"[""White""]",No,Female,NA,No,702585.4000000954,NA,7965,NA,"{""product_choice"":""A""}",choice,tc,binary,repulsion,2,microwave ovens,null,null,null,null,null,null,1,30,40,null,100,90,null,Warranty,Cooking power,NA,NA
NA,NA,NA,NA,NA,choice_trial_setup,html-keyboard-response,70,418239,0.0-4.0-0.33,216,1,2025-05-06T00:41:19Z,b60275e29fe2361ab97ac0ac217840d7,"Mozilla/5.0 (Macintosh; Intel Mac OS X 10_15_7) AppleWebKit/537.36 (KHTML, like Gecko) Chrome/131.0.0.0 Safari/537.36",Macintosh,Chrome,131.0.0.0,OS X,10_15_7,https://5puzkbbxv1.cognition.run/?sona_id=57102,"en-US,en;q=0.9",ye3w0qaz41fqhq9,20,"[""White""]",No,Female,NA,No,702585.4000000954,NA,null,<p></p>,null,choice,dct,trinary,attraction,1,televisions,null,null,null,null,null,null,2,NA,NA,NA,NA,NA,NA,NA,NA,NA,NA
NA,NA,NA,NA,NA,choice_trial,survey-html-form,71,426574,0.0-4.0-1.33,216,1,2025-05-06T00:41:19Z,b60275e29fe2361ab97ac0ac217840d7,"Mozilla/5.0 (Macintosh; Intel Mac OS X 10_15_7) AppleWebKit/537.36 (KHTML, like Gecko) Chrome/131.0.0.0 Safari/537.36",Macintosh,Chrome,131.0.0.0,OS X,10_15_7,https://5puzkbbxv1.cognition.run/?sona_id=57102,"en-US,en;q=0.9",ye3w0qaz41fqhq9,20,"[""White""]",No,Female,NA,No,702585.4000000954,NA,8328,NA,"{""product_choice"":""B""}",choice,dct,trinary,attraction,1,televisions,null,null,null,null,null,null,2,60,50,60,50,60,40,Screen size,Average lifespan,NA,NA
NA,NA,NA,NA,NA,choice_trial_setup,html-keyboard-response,72,426878,0.0-4.0-0.34,216,1,2025-05-06T00:41:19Z,b60275e29fe2361ab97ac0ac217840d7,"Mozilla/5.0 (Macintosh; Intel Mac OS X 10_15_7) AppleWebKit/537.36 (KHTML, like Gecko) Chrome/131.0.0.0 Safari/537.36",Macintosh,Chrome,131.0.0.0,OS X,10_15_7,https://5puzkbbxv1.cognition.run/?sona_id=57102,"en-US,en;q=0.9",ye3w0qaz41fqhq9,20,"[""White""]",No,Female,NA,No,702585.4000000954,NA,null,<p></p>,null,choice,ct,binary,attraction,NA,microwave ovens,null,null,null,null,null,null,1,NA,NA,NA,NA,NA,NA,NA,NA,NA,NA
NA,NA,NA,NA,NA,choice_trial,survey-html-form,73,455648,0.0-4.0-1.34,216,1,2025-05-06T00:41:19Z,b60275e29fe2361ab97ac0ac217840d7,"Mozilla/5.0 (Macintosh; Intel Mac OS X 10_15_7) AppleWebKit/537.36 (KHTML, like Gecko) Chrome/131.0.0.0 Safari/537.36",Macintosh,Chrome,131.0.0.0,OS X,10_15_7,https://5puzkbbxv1.cognition.run/?sona_id=57102,"en-US,en;q=0.9",ye3w0qaz41fqhq9,20,"[""White""]",No,Female,NA,No,702585.4000000954,NA,28767,NA,"{""product_choice"":""A""}",choice,ct,binary,attraction,NA,microwave ovens,null,null,null,null,null,null,1,60,50,null,50,60,null,Warranty,Cooking power,NA,NA
NA,NA,NA,NA,NA,choice_trial_setup,html-keyboard-response,74,455953,0.0-4.0-0.35,216,1,2025-05-06T00:41:19Z,b60275e29fe2361ab97ac0ac217840d7,"Mozilla/5.0 (Macintosh; Intel Mac OS X 10_15_7) AppleWebKit/537.36 (KHTML, like Gecko) Chrome/131.0.0.0 Safari/537.36",Macintosh,Chrome,131.0.0.0,OS X,10_15_7,https://5puzkbbxv1.cognition.run/?sona_id=57102,"en-US,en;q=0.9",ye3w0qaz41fqhq9,20,"[""White""]",No,Female,NA,No,702585.4000000954,NA,null,<p></p>,null,choice,tcd,trinary,repulsion_B,1,televisions,null,null,null,null,null,null,2,NA,NA,NA,NA,NA,NA,NA,NA,NA,NA
NA,NA,NA,NA,NA,choice_trial,survey-html-form,75,462514,0.0-4.0-1.35,216,1,2025-05-06T00:41:19Z,b60275e29fe2361ab97ac0ac217840d7,"Mozilla/5.0 (Macintosh; Intel Mac OS X 10_15_7) AppleWebKit/537.36 (KHTML, like Gecko) Chrome/131.0.0.0 Safari/537.36",Macintosh,Chrome,131.0.0.0,OS X,10_15_7,https://5puzkbbxv1.cognition.run/?sona_id=57102,"en-US,en;q=0.9",ye3w0qaz41fqhq9,20,"[""White""]",No,Female,NA,No,702585.4000000954,NA,6556,NA,"{""product_choice"":""A""}",choice,tcd,trinary,repulsion_B,1,televisions,null,null,null,null,null,null,2,90,100,80,40,30,40,Screen size,Average lifespan,NA,NA
NA,NA,NA,NA,NA,choice_trial_setup,html-keyboard-response,76,462818,0.0-4.0-0.36,216,1,2025-05-06T00:41:19Z,b60275e29fe2361ab97ac0ac217840d7,"Mozilla/5.0 (Macintosh; Intel Mac OS X 10_15_7) AppleWebKit/537.36 (KHTML, like Gecko) Chrome/131.0.0.0 Safari/537.36",Macintosh,Chrome,131.0.0.0,OS X,10_15_7,https://5puzkbbxv1.cognition.run/?sona_id=57102,"en-US,en;q=0.9",ye3w0qaz41fqhq9,20,"[""White""]",No,Female,NA,No,702585.4000000954,NA,null,<p></p>,null,choice,dtc,trinary,attraction,2,laptops,null,null,null,null,null,null,2,NA,NA,NA,NA,NA,NA,NA,NA,NA,NA
NA,NA,NA,NA,NA,choice_trial,survey-html-form,77,470105,0.0-4.0-1.36,216,1,2025-05-06T00:41:19Z,b60275e29fe2361ab97ac0ac217840d7,"Mozilla/5.0 (Macintosh; Intel Mac OS X 10_15_7) AppleWebKit/537.36 (KHTML, like Gecko) Chrome/131.0.0.0 Safari/537.36",Macintosh,Chrome,131.0.0.0,OS X,10_15_7,https://5puzkbbxv1.cognition.run/?sona_id=57102,"en-US,en;q=0.9",ye3w0qaz41fqhq9,20,"[""White""]",No,Female,NA,No,702585.4000000954,NA,7282,NA,"{""product_choice"":""C""}",choice,dtc,trinary,attraction,2,laptops,null,null,null,null,null,null,2,50,60,40,60,50,60,Processing speed,Memory (RAM),NA,NA
NA,NA,NA,NA,NA,choice_trial_setup,html-keyboard-response,78,470409,0.0-4.0-0.37,216,1,2025-05-06T00:41:19Z,b60275e29fe2361ab97ac0ac217840d7,"Mozilla/5.0 (Macintosh; Intel Mac OS X 10_15_7) AppleWebKit/537.36 (KHTML, like Gecko) Chrome/131.0.0.0 Safari/537.36",Macintosh,Chrome,131.0.0.0,OS X,10_15_7,https://5puzkbbxv1.cognition.run/?sona_id=57102,"en-US,en;q=0.9",ye3w0qaz41fqhq9,20,"[""White""]",No,Female,NA,No,702585.4000000954,NA,null,<p></p>,null,choice,cdt,trinary,repulsion_B,2,microwave ovens,null,null,null,null,null,null,1,NA,NA,NA,NA,NA,NA,NA,NA,NA,NA
NA,NA,NA,NA,NA,choice_trial,survey-html-form,79,480627,0.0-4.0-1.37,216,1,2025-05-06T00:41:19Z,b60275e29fe2361ab97ac0ac217840d7,"Mozilla/5.0 (Macintosh; Intel Mac OS X 10_15_7) AppleWebKit/537.36 (KHTML, like Gecko) Chrome/131.0.0.0 Safari/537.36",Macintosh,Chrome,131.0.0.0,OS X,10_15_7,https://5puzkbbxv1.cognition.run/?sona_id=57102,"en-US,en;q=0.9",ye3w0qaz41fqhq9,20,"[""White""]",No,Female,NA,No,702585.4000000954,NA,10211,NA,"{""product_choice"":""C""}",choice,cdt,trinary,repulsion_B,2,microwave ovens,null,null,null,null,null,null,1,40,30,40,90,100,80,Warranty,Cooking power,NA,NA
NA,NA,NA,NA,NA,choice_trial_setup,html-keyboard-response,80,480932,0.0-4.0-0.38,216,1,2025-05-06T00:41:19Z,b60275e29fe2361ab97ac0ac217840d7,"Mozilla/5.0 (Macintosh; Intel Mac OS X 10_15_7) AppleWebKit/537.36 (KHTML, like Gecko) Chrome/131.0.0.0 Safari/537.36",Macintosh,Chrome,131.0.0.0,OS X,10_15_7,https://5puzkbbxv1.cognition.run/?sona_id=57102,"en-US,en;q=0.9",ye3w0qaz41fqhq9,20,"[""White""]",No,Female,NA,No,702585.4000000954,NA,null,<p></p>,null,choice,wb,binary,catch,null,microwave ovens,80,90,50,15,null,null,1,NA,NA,NA,NA,NA,NA,NA,NA,NA,NA
NA,NA,NA,NA,NA,choice_trial,survey-html-form,81,494692,0.0-4.0-1.38,216,1,2025-05-06T00:41:19Z,b60275e29fe2361ab97ac0ac217840d7,"Mozilla/5.0 (Macintosh; Intel Mac OS X 10_15_7) AppleWebKit/537.36 (KHTML, like Gecko) Chrome/131.0.0.0 Safari/537.36",Macintosh,Chrome,131.0.0.0,OS X,10_15_7,https://5puzkbbxv1.cognition.run/?sona_id=57102,"en-US,en;q=0.9",ye3w0qaz41fqhq9,20,"[""White""]",No,Female,NA,No,702585.4000000954,NA,13754,NA,"{""product_choice"":""B""}",choice,wb,binary,catch,null,microwave ovens,80,90,50,15,null,null,1,null,null,null,null,null,null,Warranty,Cooking power,NA,NA
NA,NA,NA,NA,NA,choice_trial_setup,html-keyboard-response,82,494998,0.0-4.0-0.39,216,1,2025-05-06T00:41:19Z,b60275e29fe2361ab97ac0ac217840d7,"Mozilla/5.0 (Macintosh; Intel Mac OS X 10_15_7) AppleWebKit/537.36 (KHTML, like Gecko) Chrome/131.0.0.0 Safari/537.36",Macintosh,Chrome,131.0.0.0,OS X,10_15_7,https://5puzkbbxv1.cognition.run/?sona_id=57102,"en-US,en;q=0.9",ye3w0qaz41fqhq9,20,"[""White""]",No,Female,NA,No,702585.4000000954,NA,null,<p></p>,null,choice,bw,binary,catch,null,televisions,80,80,25,40,null,null,2,NA,NA,NA,NA,NA,NA,NA,NA,NA,NA
NA,NA,NA,NA,NA,choice_trial,survey-html-form,83,505387,0.0-4.0-1.39,216,1,2025-05-06T00:41:19Z,b60275e29fe2361ab97ac0ac217840d7,"Mozilla/5.0 (Macintosh; Intel Mac OS X 10_15_7) AppleWebKit/537.36 (KHTML, like Gecko) Chrome/131.0.0.0 Safari/537.36",Macintosh,Chrome,131.0.0.0,OS X,10_15_7,https://5puzkbbxv1.cognition.run/?sona_id=57102,"en-US,en;q=0.9",ye3w0qaz41fqhq9,20,"[""White""]",No,Female,NA,No,702585.4000000954,NA,10383,NA,"{""product_choice"":""A""}",choice,bw,binary,catch,null,televisions,80,80,25,40,null,null,2,null,null,null,null,null,null,Screen size,Average lifespan,NA,NA
NA,NA,NA,NA,NA,choice_trial_setup,html-keyboard-response,84,505691,0.0-4.0-0.40,216,1,2025-05-06T00:41:19Z,b60275e29fe2361ab97ac0ac217840d7,"Mozilla/5.0 (Macintosh; Intel Mac OS X 10_15_7) AppleWebKit/537.36 (KHTML, like Gecko) Chrome/131.0.0.0 Safari/537.36",Macintosh,Chrome,131.0.0.0,OS X,10_15_7,https://5puzkbbxv1.cognition.run/?sona_id=57102,"en-US,en;q=0.9",ye3w0qaz41fqhq9,20,"[""White""]",No,Female,NA,No,702585.4000000954,NA,null,<p></p>,null,choice,tdc,trinary,repulsion_B,2,televisions,null,null,null,null,null,null,1,NA,NA,NA,NA,NA,NA,NA,NA,NA,NA
NA,NA,NA,NA,NA,choice_trial,survey-html-form,85,546692,0.0-4.0-1.40,216,1,2025-05-06T00:41:19Z,b60275e29fe2361ab97ac0ac217840d7,"Mozilla/5.0 (Macintosh; Intel Mac OS X 10_15_7) AppleWebKit/537.36 (KHTML, like Gecko) Chrome/131.0.0.0 Safari/537.36",Macintosh,Chrome,131.0.0.0,OS X,10_15_7,https://5puzkbbxv1.cognition.run/?sona_id=57102,"en-US,en;q=0.9",ye3w0qaz41fqhq9,20,"[""White""]",No,Female,NA,No,702585.4000000954,NA,40996,NA,"{""product_choice"":""A""}",choice,tdc,trinary,repulsion_B,2,televisions,null,null,null,null,null,null,1,40,30,40,90,100,80,Screen size,Average lifespan,NA,NA
NA,NA,NA,NA,NA,choice_trial_setup,html-keyboard-response,86,546998,0.0-4.0-0.41,216,1,2025-05-06T00:41:19Z,b60275e29fe2361ab97ac0ac217840d7,"Mozilla/5.0 (Macintosh; Intel Mac OS X 10_15_7) AppleWebKit/537.36 (KHTML, like Gecko) Chrome/131.0.0.0 Safari/537.36",Macintosh,Chrome,131.0.0.0,OS X,10_15_7,https://5puzkbbxv1.cognition.run/?sona_id=57102,"en-US,en;q=0.9",ye3w0qaz41fqhq9,20,"[""White""]",No,Female,NA,No,702585.4000000954,NA,null,<p></p>,null,choice,ct,binary,attraction,NA,washing machines,null,null,null,null,null,null,2,NA,NA,NA,NA,NA,NA,NA,NA,NA,NA
NA,NA,NA,NA,NA,choice_trial,survey-html-form,87,550690,0.0-4.0-1.41,216,1,2025-05-06T00:41:19Z,b60275e29fe2361ab97ac0ac217840d7,"Mozilla/5.0 (Macintosh; Intel Mac OS X 10_15_7) AppleWebKit/537.36 (KHTML, like Gecko) Chrome/131.0.0.0 Safari/537.36",Macintosh,Chrome,131.0.0.0,OS X,10_15_7,https://5puzkbbxv1.cognition.run/?sona_id=57102,"en-US,en;q=0.9",ye3w0qaz41fqhq9,20,"[""White""]",No,Female,NA,No,702585.4000000954,NA,3686,NA,"{""product_choice"":""B""}",choice,ct,binary,attraction,NA,washing machines,null,null,null,null,null,null,2,60,50,null,50,60,null,Average lifespan,Energy savings,NA,NA
NA,NA,NA,NA,NA,choice_trial_setup,html-keyboard-response,88,550995,0.0-4.0-0.42,216,1,2025-05-06T00:41:19Z,b60275e29fe2361ab97ac0ac217840d7,"Mozilla/5.0 (Macintosh; Intel Mac OS X 10_15_7) AppleWebKit/537.36 (KHTML, like Gecko) Chrome/131.0.0.0 Safari/537.36",Macintosh,Chrome,131.0.0.0,OS X,10_15_7,https://5puzkbbxv1.cognition.run/?sona_id=57102,"en-US,en;q=0.9",ye3w0qaz41fqhq9,20,"[""White""]",No,Female,NA,No,702585.4000000954,NA,null,<p></p>,null,choice,ct,binary,repulsion,2,washing machines,null,null,null,null,null,null,2,NA,NA,NA,NA,NA,NA,NA,NA,NA,NA
NA,NA,NA,NA,NA,choice_trial,survey-html-form,89,556238,0.0-4.0-1.42,216,1,2025-05-06T00:41:19Z,b60275e29fe2361ab97ac0ac217840d7,"Mozilla/5.0 (Macintosh; Intel Mac OS X 10_15_7) AppleWebKit/537.36 (KHTML, like Gecko) Chrome/131.0.0.0 Safari/537.36",Macintosh,Chrome,131.0.0.0,OS X,10_15_7,https://5puzkbbxv1.cognition.run/?sona_id=57102,"en-US,en;q=0.9",ye3w0qaz41fqhq9,20,"[""White""]",No,Female,NA,No,702585.4000000954,NA,5237,NA,"{""product_choice"":""A""}",choice,ct,binary,repulsion,2,washing machines,null,null,null,null,null,null,2,30,40,null,100,90,null,Average lifespan,Energy savings,NA,NA
NA,NA,NA,NA,NA,choice_trial_setup,html-keyboard-response,90,556543,0.0-4.0-0.43,216,1,2025-05-06T00:41:19Z,b60275e29fe2361ab97ac0ac217840d7,"Mozilla/5.0 (Macintosh; Intel Mac OS X 10_15_7) AppleWebKit/537.36 (KHTML, like Gecko) Chrome/131.0.0.0 Safari/537.36",Macintosh,Chrome,131.0.0.0,OS X,10_15_7,https://5puzkbbxv1.cognition.run/?sona_id=57102,"en-US,en;q=0.9",ye3w0qaz41fqhq9,20,"[""White""]",No,Female,NA,No,702585.4000000954,NA,null,<p></p>,null,choice,tdc,trinary,repulsion_A,1,laptops,null,null,null,null,null,null,1,NA,NA,NA,NA,NA,NA,NA,NA,NA,NA
NA,NA,NA,NA,NA,choice_trial,survey-html-form,91,565063,0.0-4.0-1.43,216,1,2025-05-06T00:41:19Z,b60275e29fe2361ab97ac0ac217840d7,"Mozilla/5.0 (Macintosh; Intel Mac OS X 10_15_7) AppleWebKit/537.36 (KHTML, like Gecko) Chrome/131.0.0.0 Safari/537.36",Macintosh,Chrome,131.0.0.0,OS X,10_15_7,https://5puzkbbxv1.cognition.run/?sona_id=57102,"en-US,en;q=0.9",ye3w0qaz41fqhq9,20,"[""White""]",No,Female,NA,No,702585.4000000954,NA,8513,NA,"{""product_choice"":""C""}",choice,tdc,trinary,repulsion_A,1,laptops,null,null,null,null,null,null,1,100,90,100,30,40,20,Processing speed,Memory (RAM),NA,NA
NA,NA,NA,NA,NA,post_trials_message,html-button-response,92,567080,0.0-5.0,216,1,2025-05-06T00:41:19Z,b60275e29fe2361ab97ac0ac217840d7,"Mozilla/5.0 (Macintosh; Intel Mac OS X 10_15_7) AppleWebKit/537.36 (KHTML, like Gecko) Chrome/131.0.0.0 Safari/537.36",Macintosh,Chrome,131.0.0.0,OS X,10_15_7,https://5puzkbbxv1.cognition.run/?sona_id=57102,"en-US,en;q=0.9",ye3w0qaz41fqhq9,20,"[""White""]",No,Female,NA,No,702585.4000000954,NA,2012,<p> <b>Thank you for your patience!</b></p><p>  The study will be done after completing a brief form. </p>,0,NA,NA,NA,NA,NA,NA,NA,NA,NA,NA,NA,NA,NA,NA,NA,NA,NA,NA,NA,NA,NA,NA,NA
NA,NA,NA,NA,NA,survey_message,survey-text,93,624213,0.0-6.0,216,1,2025-05-06T00:41:19Z,b60275e29fe2361ab97ac0ac217840d7,"Mozilla/5.0 (Macintosh; Intel Mac OS X 10_15_7) AppleWebKit/537.36 (KHTML, like Gecko) Chrome/131.0.0.0 Safari/537.36",Macintosh,Chrome,131.0.0.0,OS X,10_15_7,https://5puzkbbxv1.cognition.run/?sona_id=57102,"en-US,en;q=0.9",ye3w0qaz41fqhq9,20,"[""White""]",No,Female,NA,No,702585.4000000954,NA,57125,NA,"{""Q0"":""When it came to the higher number I chose it based off how long it will help the product last.""}",NA,NA,NA,NA,NA,NA,NA,NA,NA,NA,NA,NA,NA,NA,NA,NA,NA,NA,NA,NA,NA,When it came to the higher number I chose it based off how long it will help the product last.,NA
NA,NA,NA,NA,NA,demo_age,survey-text,94,627064,0.0-7.0,216,1,2025-05-06T00:41:19Z,b60275e29fe2361ab97ac0ac217840d7,"Mozilla/5.0 (Macintosh; Intel Mac OS X 10_15_7) AppleWebKit/537.36 (KHTML, like Gecko) Chrome/131.0.0.0 Safari/537.36",Macintosh,Chrome,131.0.0.0,OS X,10_15_7,https://5puzkbbxv1.cognition.run/?sona_id=57102,"en-US,en;q=0.9",ye3w0qaz41fqhq9,20,"[""White""]",No,Female,NA,No,702585.4000000954,NA,2846,NA,"{""Q0"":""20""}",NA,NA,NA,NA,NA,NA,NA,NA,NA,NA,NA,NA,NA,NA,NA,NA,NA,NA,NA,NA,NA,NA,NA
NA,NA,NA,NA,NA,demo_race,survey-multi-select,95,629572,0.0-8.0,216,1,2025-05-06T00:41:19Z,b60275e29fe2361ab97ac0ac217840d7,"Mozilla/5.0 (Macintosh; Intel Mac OS X 10_15_7) AppleWebKit/537.36 (KHTML, like Gecko) Chrome/131.0.0.0 Safari/537.36",Macintosh,Chrome,131.0.0.0,OS X,10_15_7,https://5puzkbbxv1.cognition.run/?sona_id=57102,"en-US,en;q=0.9",ye3w0qaz41fqhq9,20,"[""White""]",No,Female,NA,No,702585.4000000954,NA,2502,NA,"{""Q0"":[""White""]}",NA,NA,NA,NA,NA,NA,NA,NA,NA,NA,NA,NA,NA,NA,NA,NA,NA,NA,NA,NA,NA,NA,[0]
NA,NA,NA,NA,NA,demo_ethnicity_gender,survey-multi-choice,96,634285,0.0-9.0,216,1,2025-05-06T00:41:19Z,b60275e29fe2361ab97ac0ac217840d7,"Mozilla/5.0 (Macintosh; Intel Mac OS X 10_15_7) AppleWebKit/537.36 (KHTML, like Gecko) Chrome/131.0.0.0 Safari/537.36",Macintosh,Chrome,131.0.0.0,OS X,10_15_7,https://5puzkbbxv1.cognition.run/?sona_id=57102,"en-US,en;q=0.9",ye3w0qaz41fqhq9,20,"[""White""]",No,Female,NA,No,702585.4000000954,NA,4706,NA,"{""Q0"":""No"",""Q1"":""Female""}",NA,NA,NA,NA,NA,NA,NA,NA,NA,NA,NA,NA,NA,NA,NA,NA,NA,NA,NA,NA,NA,NA,"[0,1]"
NA,NA,NA,NA,NA,demo_countries,survey-text,97,640228,0.0-10.0,216,1,2025-05-06T00:41:19Z,b60275e29fe2361ab97ac0ac217840d7,"Mozilla/5.0 (Macintosh; Intel Mac OS X 10_15_7) AppleWebKit/537.36 (KHTML, like Gecko) Chrome/131.0.0.0 Safari/537.36",Macintosh,Chrome,131.0.0.0,OS X,10_15_7,https://5puzkbbxv1.cognition.run/?sona_id=57102,"en-US,en;q=0.9",ye3w0qaz41fqhq9,20,"[""White""]",No,Female,NA,No,702585.4000000954,NA,5929,NA,"{""Q0"":""NA""}",NA,NA,NA,NA,NA,NA,NA,NA,NA,NA,NA,NA,NA,NA,NA,NA,NA,NA,NA,NA,NA,NA,NA
NA,NA,NA,NA,NA,demo_prev_study,survey-multi-choice,98,646718,0.0-11.0,216,1,2025-05-06T00:41:19Z,b60275e29fe2361ab97ac0ac217840d7,"Mozilla/5.0 (Macintosh; Intel Mac OS X 10_15_7) AppleWebKit/537.36 (KHTML, like Gecko) Chrome/131.0.0.0 Safari/537.36",Macintosh,Chrome,131.0.0.0,OS X,10_15_7,https://5puzkbbxv1.cognition.run/?sona_id=57102,"en-US,en;q=0.9",ye3w0qaz41fqhq9,20,"[""White""]",No,Female,NA,No,702585.4000000954,NA,6484,NA,"{""Q0"":""No""}",NA,NA,NA,NA,NA,NA,NA,NA,NA,NA,NA,NA,NA,NA,NA,NA,NA,NA,NA,NA,NA,NA,[0]
NA,NA,NA,NA,NA,post_survey_message,html-keyboard-response,99,653182,0.0-12.0,216,1,2025-05-06T00:41:19Z,b60275e29fe2361ab97ac0ac217840d7,"Mozilla/5.0 (Macintosh; Intel Mac OS X 10_15_7) AppleWebKit/537.36 (KHTML, like Gecko) Chrome/131.0.0.0 Safari/537.36",Macintosh,Chrome,131.0.0.0,OS X,10_15_7,https://5puzkbbxv1.cognition.run/?sona_id=57102,"en-US,en;q=0.9",ye3w0qaz41fqhq9,20,"[""White""]",No,Female,NA,No,702585.4000000954,NA,6459,NA,j,NA,NA,NA,NA,NA,NA,NA,NA,NA,NA,NA,NA,NA,NA,NA,NA,NA,NA,NA,NA,NA,NA,NA
NA,NA,NA,NA,NA,debrief,image-keyboard-response,100,702581,0.0-13.0,216,1,2025-05-06T00:41:19Z,b60275e29fe2361ab97ac0ac217840d7,"Mozilla/5.0 (Macintosh; Intel Mac OS X 10_15_7) AppleWebKit/537.36 (KHTML, like Gecko) Chrome/131.0.0.0 Safari/537.36",Macintosh,Chrome,131.0.0.0,OS X,10_15_7,https://5puzkbbxv1.cognition.run/?sona_id=57102,"en-US,en;q=0.9",ye3w0qaz41fqhq9,20,"[""White""]",No,Female,NA,No,702585.4000000954,NA,49393,Judg_choice_debrief.png,p,NA,NA,NA,NA,NA,NA,NA,NA,NA,NA,NA,NA,NA,NA,NA,NA,NA,NA,NA,NA,NA,NA,NA
