success,timeout,failed_images,failed_audio,failed_video,screen_id,trial_type,trial_index,time_elapsed,internal_node_id,run_id,condition,recorded_at,source_code_version,user_agent,device,browser,browser_version,platform,platform_version,referer,accept_language,ppt_id,age,race,ethnicity,gender,other_countries,prev_study,exp_duration,view_history,rt,stimulus,response,phase,order,set,effect,t_high,category,d1_best,d2_best,d1_worst1,d2_worst1,d1_worst2,d2_worst2,first_dim,d1_t,d1_c,d1_d,d2_t,d2_c,d2_d,d1_name,d2_name,strategy_response,question_order
TRUE,FALSE,[],[],[],img preload,preload,0,432,0.0-0.0,218,1,2025-05-06T00:46:42Z,b60275e29fe2361ab97ac0ac217840d7,"Mozilla/5.0 (Macintosh; Intel Mac OS X 10_15_7) AppleWebKit/537.36 (KHTML, like Gecko) Chrome/130.0.0.0 Safari/537.36",Macintosh,Chrome,130.0.0.0,OS X,10_15_7,https://5puzkbbxv1.cognition.run/?sona_id=57453,"en-US,en;q=0.9",pxuc4gp7ghzvlwf,19,"[""Other""]",No,Female,NA,I'm not sure,834795,NA,NA,NA,NA,NA,NA,NA,NA,NA,NA,NA,NA,NA,NA,NA,NA,NA,NA,NA,NA,NA,NA,NA,NA,NA,NA,NA
NA,NA,NA,NA,NA,computer_message,instructions,1,3068,0.0-1.0,218,1,2025-05-06T00:46:42Z,b60275e29fe2361ab97ac0ac217840d7,"Mozilla/5.0 (Macintosh; Intel Mac OS X 10_15_7) AppleWebKit/537.36 (KHTML, like Gecko) Chrome/130.0.0.0 Safari/537.36",Macintosh,Chrome,130.0.0.0,OS X,10_15_7,https://5puzkbbxv1.cognition.run/?sona_id=57453,"en-US,en;q=0.9",pxuc4gp7ghzvlwf,19,"[""Other""]",No,Female,NA,I'm not sure,834795,"[{""page_index"":0,""viewing_time"":2634}]",2635,NA,NA,NA,NA,NA,NA,NA,NA,NA,NA,NA,NA,NA,NA,NA,NA,NA,NA,NA,NA,NA,NA,NA,NA,NA
TRUE,NA,NA,NA,NA,NA,fullscreen,2,7924,0.0-2.0,218,1,2025-05-06T00:46:42Z,b60275e29fe2361ab97ac0ac217840d7,"Mozilla/5.0 (Macintosh; Intel Mac OS X 10_15_7) AppleWebKit/537.36 (KHTML, like Gecko) Chrome/130.0.0.0 Safari/537.36",Macintosh,Chrome,130.0.0.0,OS X,10_15_7,https://5puzkbbxv1.cognition.run/?sona_id=57453,"en-US,en;q=0.9",pxuc4gp7ghzvlwf,19,"[""Other""]",No,Female,NA,I'm not sure,834795,NA,3854,NA,NA,NA,NA,NA,NA,NA,NA,NA,NA,NA,NA,NA,NA,NA,NA,NA,NA,NA,NA,NA,NA,NA,NA,NA
NA,NA,NA,NA,NA,choice_instructions,instructions,3,93544,0.0-3.0,218,1,2025-05-06T00:46:42Z,b60275e29fe2361ab97ac0ac217840d7,"Mozilla/5.0 (Macintosh; Intel Mac OS X 10_15_7) AppleWebKit/537.36 (KHTML, like Gecko) Chrome/130.0.0.0 Safari/537.36",Macintosh,Chrome,130.0.0.0,OS X,10_15_7,https://5puzkbbxv1.cognition.run/?sona_id=57453,"en-US,en;q=0.9",pxuc4gp7ghzvlwf,19,"[""Other""]",No,Female,NA,I'm not sure,834795,"[{""page_index"":0,""viewing_time"":5156},{""page_index"":1,""viewing_time"":7351},{""page_index"":2,""viewing_time"":9997},{""page_index"":3,""viewing_time"":9456},{""page_index"":4,""viewing_time"":6593},{""page_index"":5,""viewing_time"":28479},{""page_index"":6,""viewing_time"":18587}]",85618,NA,NA,NA,NA,NA,NA,NA,NA,NA,NA,NA,NA,NA,NA,NA,NA,NA,NA,NA,NA,NA,NA,NA,NA,NA
NA,NA,NA,NA,NA,choice_trial_setup,html-keyboard-response,4,93847,0.0-4.0-0.0,218,1,2025-05-06T00:46:42Z,b60275e29fe2361ab97ac0ac217840d7,"Mozilla/5.0 (Macintosh; Intel Mac OS X 10_15_7) AppleWebKit/537.36 (KHTML, like Gecko) Chrome/130.0.0.0 Safari/537.36",Macintosh,Chrome,130.0.0.0,OS X,10_15_7,https://5puzkbbxv1.cognition.run/?sona_id=57453,"en-US,en;q=0.9",pxuc4gp7ghzvlwf,19,"[""Other""]",No,Female,NA,I'm not sure,834795,NA,null,<p></p>,null,choice,wb,binary,catch,null,microwave ovens,50,85,30,45,null,null,1,NA,NA,NA,NA,NA,NA,NA,NA,NA,NA
NA,NA,NA,NA,NA,choice_trial,survey-html-form,5,112318,0.0-4.0-1.0,218,1,2025-05-06T00:46:42Z,b60275e29fe2361ab97ac0ac217840d7,"Mozilla/5.0 (Macintosh; Intel Mac OS X 10_15_7) AppleWebKit/537.36 (KHTML, like Gecko) Chrome/130.0.0.0 Safari/537.36",Macintosh,Chrome,130.0.0.0,OS X,10_15_7,https://5puzkbbxv1.cognition.run/?sona_id=57453,"en-US,en;q=0.9",pxuc4gp7ghzvlwf,19,"[""Other""]",No,Female,NA,I'm not sure,834795,NA,18466,NA,"{""product_choice"":""B""}",choice,wb,binary,catch,null,microwave ovens,50,85,30,45,null,null,1,null,null,null,null,null,null,Warranty,Cooking power,NA,NA
NA,NA,NA,NA,NA,choice_trial_setup,html-keyboard-response,6,112621,0.0-4.0-0.1,218,1,2025-05-06T00:46:42Z,b60275e29fe2361ab97ac0ac217840d7,"Mozilla/5.0 (Macintosh; Intel Mac OS X 10_15_7) AppleWebKit/537.36 (KHTML, like Gecko) Chrome/130.0.0.0 Safari/537.36",Macintosh,Chrome,130.0.0.0,OS X,10_15_7,https://5puzkbbxv1.cognition.run/?sona_id=57453,"en-US,en;q=0.9",pxuc4gp7ghzvlwf,19,"[""Other""]",No,Female,NA,I'm not sure,834795,NA,null,<p></p>,null,choice,ctd,trinary,attraction,2,washing machines,null,null,null,null,null,null,1,NA,NA,NA,NA,NA,NA,NA,NA,NA,NA
NA,NA,NA,NA,NA,choice_trial,survey-html-form,7,127682,0.0-4.0-1.1,218,1,2025-05-06T00:46:42Z,b60275e29fe2361ab97ac0ac217840d7,"Mozilla/5.0 (Macintosh; Intel Mac OS X 10_15_7) AppleWebKit/537.36 (KHTML, like Gecko) Chrome/130.0.0.0 Safari/537.36",Macintosh,Chrome,130.0.0.0,OS X,10_15_7,https://5puzkbbxv1.cognition.run/?sona_id=57453,"en-US,en;q=0.9",pxuc4gp7ghzvlwf,19,"[""Other""]",No,Female,NA,I'm not sure,834795,NA,15058,NA,"{""product_choice"":""B""}",choice,ctd,trinary,attraction,2,washing machines,null,null,null,null,null,null,1,50,60,40,60,50,60,Average lifespan,Energy savings,NA,NA
NA,NA,NA,NA,NA,choice_trial_setup,html-keyboard-response,8,127984,0.0-4.0-0.2,218,1,2025-05-06T00:46:42Z,b60275e29fe2361ab97ac0ac217840d7,"Mozilla/5.0 (Macintosh; Intel Mac OS X 10_15_7) AppleWebKit/537.36 (KHTML, like Gecko) Chrome/130.0.0.0 Safari/537.36",Macintosh,Chrome,130.0.0.0,OS X,10_15_7,https://5puzkbbxv1.cognition.run/?sona_id=57453,"en-US,en;q=0.9",pxuc4gp7ghzvlwf,19,"[""Other""]",No,Female,NA,I'm not sure,834795,NA,null,<p></p>,null,choice,wwb,trinary,catch,null,laptops,85,75,45,10,40,5,1,NA,NA,NA,NA,NA,NA,NA,NA,NA,NA
NA,NA,NA,NA,NA,choice_trial,survey-html-form,9,141636,0.0-4.0-1.2,218,1,2025-05-06T00:46:42Z,b60275e29fe2361ab97ac0ac217840d7,"Mozilla/5.0 (Macintosh; Intel Mac OS X 10_15_7) AppleWebKit/537.36 (KHTML, like Gecko) Chrome/130.0.0.0 Safari/537.36",Macintosh,Chrome,130.0.0.0,OS X,10_15_7,https://5puzkbbxv1.cognition.run/?sona_id=57453,"en-US,en;q=0.9",pxuc4gp7ghzvlwf,19,"[""Other""]",No,Female,NA,I'm not sure,834795,NA,13648,NA,"{""product_choice"":""C""}",choice,wwb,trinary,catch,null,laptops,85,75,45,10,40,5,1,null,null,null,null,null,null,Processing speed,Memory (RAM),NA,NA
NA,NA,NA,NA,NA,choice_trial_setup,html-keyboard-response,10,141938,0.0-4.0-0.3,218,1,2025-05-06T00:46:42Z,b60275e29fe2361ab97ac0ac217840d7,"Mozilla/5.0 (Macintosh; Intel Mac OS X 10_15_7) AppleWebKit/537.36 (KHTML, like Gecko) Chrome/130.0.0.0 Safari/537.36",Macintosh,Chrome,130.0.0.0,OS X,10_15_7,https://5puzkbbxv1.cognition.run/?sona_id=57453,"en-US,en;q=0.9",pxuc4gp7ghzvlwf,19,"[""Other""]",No,Female,NA,I'm not sure,834795,NA,null,<p></p>,null,choice,dct,trinary,attraction,1,televisions,null,null,null,null,null,null,1,NA,NA,NA,NA,NA,NA,NA,NA,NA,NA
NA,NA,NA,NA,NA,choice_trial,survey-html-form,11,149770,0.0-4.0-1.3,218,1,2025-05-06T00:46:42Z,b60275e29fe2361ab97ac0ac217840d7,"Mozilla/5.0 (Macintosh; Intel Mac OS X 10_15_7) AppleWebKit/537.36 (KHTML, like Gecko) Chrome/130.0.0.0 Safari/537.36",Macintosh,Chrome,130.0.0.0,OS X,10_15_7,https://5puzkbbxv1.cognition.run/?sona_id=57453,"en-US,en;q=0.9",pxuc4gp7ghzvlwf,19,"[""Other""]",No,Female,NA,I'm not sure,834795,NA,7829,NA,"{""product_choice"":""B""}",choice,dct,trinary,attraction,1,televisions,null,null,null,null,null,null,1,60,50,60,50,60,40,Screen size,Average lifespan,NA,NA
NA,NA,NA,NA,NA,choice_trial_setup,html-keyboard-response,12,150073,0.0-4.0-0.4,218,1,2025-05-06T00:46:42Z,b60275e29fe2361ab97ac0ac217840d7,"Mozilla/5.0 (Macintosh; Intel Mac OS X 10_15_7) AppleWebKit/537.36 (KHTML, like Gecko) Chrome/130.0.0.0 Safari/537.36",Macintosh,Chrome,130.0.0.0,OS X,10_15_7,https://5puzkbbxv1.cognition.run/?sona_id=57453,"en-US,en;q=0.9",pxuc4gp7ghzvlwf,19,"[""Other""]",No,Female,NA,I'm not sure,834795,NA,null,<p></p>,null,choice,dtc,trinary,repulsion_B,1,televisions,null,null,null,null,null,null,2,NA,NA,NA,NA,NA,NA,NA,NA,NA,NA
NA,NA,NA,NA,NA,choice_trial,survey-html-form,13,168566,0.0-4.0-1.4,218,1,2025-05-06T00:46:42Z,b60275e29fe2361ab97ac0ac217840d7,"Mozilla/5.0 (Macintosh; Intel Mac OS X 10_15_7) AppleWebKit/537.36 (KHTML, like Gecko) Chrome/130.0.0.0 Safari/537.36",Macintosh,Chrome,130.0.0.0,OS X,10_15_7,https://5puzkbbxv1.cognition.run/?sona_id=57453,"en-US,en;q=0.9",pxuc4gp7ghzvlwf,19,"[""Other""]",No,Female,NA,I'm not sure,834795,NA,18490,NA,"{""product_choice"":""B""}",choice,dtc,trinary,repulsion_B,1,televisions,null,null,null,null,null,null,2,90,100,80,40,30,40,Screen size,Average lifespan,NA,NA
NA,NA,NA,NA,NA,choice_trial_setup,html-keyboard-response,14,168869,0.0-4.0-0.5,218,1,2025-05-06T00:46:42Z,b60275e29fe2361ab97ac0ac217840d7,"Mozilla/5.0 (Macintosh; Intel Mac OS X 10_15_7) AppleWebKit/537.36 (KHTML, like Gecko) Chrome/130.0.0.0 Safari/537.36",Macintosh,Chrome,130.0.0.0,OS X,10_15_7,https://5puzkbbxv1.cognition.run/?sona_id=57453,"en-US,en;q=0.9",pxuc4gp7ghzvlwf,19,"[""Other""]",No,Female,NA,I'm not sure,834795,NA,null,<p></p>,null,choice,dtc,trinary,attraction,2,televisions,null,null,null,null,null,null,2,NA,NA,NA,NA,NA,NA,NA,NA,NA,NA
NA,NA,NA,NA,NA,choice_trial,survey-html-form,15,178059,0.0-4.0-1.5,218,1,2025-05-06T00:46:42Z,b60275e29fe2361ab97ac0ac217840d7,"Mozilla/5.0 (Macintosh; Intel Mac OS X 10_15_7) AppleWebKit/537.36 (KHTML, like Gecko) Chrome/130.0.0.0 Safari/537.36",Macintosh,Chrome,130.0.0.0,OS X,10_15_7,https://5puzkbbxv1.cognition.run/?sona_id=57453,"en-US,en;q=0.9",pxuc4gp7ghzvlwf,19,"[""Other""]",No,Female,NA,I'm not sure,834795,NA,9187,NA,"{""product_choice"":""B""}",choice,dtc,trinary,attraction,2,televisions,null,null,null,null,null,null,2,50,60,40,60,50,60,Screen size,Average lifespan,NA,NA
NA,NA,NA,NA,NA,choice_trial_setup,html-keyboard-response,16,178361,0.0-4.0-0.6,218,1,2025-05-06T00:46:42Z,b60275e29fe2361ab97ac0ac217840d7,"Mozilla/5.0 (Macintosh; Intel Mac OS X 10_15_7) AppleWebKit/537.36 (KHTML, like Gecko) Chrome/130.0.0.0 Safari/537.36",Macintosh,Chrome,130.0.0.0,OS X,10_15_7,https://5puzkbbxv1.cognition.run/?sona_id=57453,"en-US,en;q=0.9",pxuc4gp7ghzvlwf,19,"[""Other""]",No,Female,NA,I'm not sure,834795,NA,null,<p></p>,null,choice,ct,binary,repulsion,1,microwave ovens,null,null,null,null,null,null,2,NA,NA,NA,NA,NA,NA,NA,NA,NA,NA
NA,NA,NA,NA,NA,choice_trial,survey-html-form,17,188086,0.0-4.0-1.6,218,1,2025-05-06T00:46:42Z,b60275e29fe2361ab97ac0ac217840d7,"Mozilla/5.0 (Macintosh; Intel Mac OS X 10_15_7) AppleWebKit/537.36 (KHTML, like Gecko) Chrome/130.0.0.0 Safari/537.36",Macintosh,Chrome,130.0.0.0,OS X,10_15_7,https://5puzkbbxv1.cognition.run/?sona_id=57453,"en-US,en;q=0.9",pxuc4gp7ghzvlwf,19,"[""Other""]",No,Female,NA,I'm not sure,834795,NA,9722,NA,"{""product_choice"":""B""}",choice,ct,binary,repulsion,1,microwave ovens,null,null,null,null,null,null,2,100,90,null,30,40,null,Warranty,Cooking power,NA,NA
NA,NA,NA,NA,NA,choice_trial_setup,html-keyboard-response,18,188389,0.0-4.0-0.7,218,1,2025-05-06T00:46:42Z,b60275e29fe2361ab97ac0ac217840d7,"Mozilla/5.0 (Macintosh; Intel Mac OS X 10_15_7) AppleWebKit/537.36 (KHTML, like Gecko) Chrome/130.0.0.0 Safari/537.36",Macintosh,Chrome,130.0.0.0,OS X,10_15_7,https://5puzkbbxv1.cognition.run/?sona_id=57453,"en-US,en;q=0.9",pxuc4gp7ghzvlwf,19,"[""Other""]",No,Female,NA,I'm not sure,834795,NA,null,<p></p>,null,choice,bww,trinary,catch,null,microwave ovens,90,55,50,40,20,20,1,NA,NA,NA,NA,NA,NA,NA,NA,NA,NA
NA,NA,NA,NA,NA,choice_trial,survey-html-form,19,198296,0.0-4.0-1.7,218,1,2025-05-06T00:46:42Z,b60275e29fe2361ab97ac0ac217840d7,"Mozilla/5.0 (Macintosh; Intel Mac OS X 10_15_7) AppleWebKit/537.36 (KHTML, like Gecko) Chrome/130.0.0.0 Safari/537.36",Macintosh,Chrome,130.0.0.0,OS X,10_15_7,https://5puzkbbxv1.cognition.run/?sona_id=57453,"en-US,en;q=0.9",pxuc4gp7ghzvlwf,19,"[""Other""]",No,Female,NA,I'm not sure,834795,NA,9904,NA,"{""product_choice"":""A""}",choice,bww,trinary,catch,null,microwave ovens,90,55,50,40,20,20,1,null,null,null,null,null,null,Warranty,Cooking power,NA,NA
NA,NA,NA,NA,NA,choice_trial_setup,html-keyboard-response,20,198599,0.0-4.0-0.8,218,1,2025-05-06T00:46:42Z,b60275e29fe2361ab97ac0ac217840d7,"Mozilla/5.0 (Macintosh; Intel Mac OS X 10_15_7) AppleWebKit/537.36 (KHTML, like Gecko) Chrome/130.0.0.0 Safari/537.36",Macintosh,Chrome,130.0.0.0,OS X,10_15_7,https://5puzkbbxv1.cognition.run/?sona_id=57453,"en-US,en;q=0.9",pxuc4gp7ghzvlwf,19,"[""Other""]",No,Female,NA,I'm not sure,834795,NA,null,<p></p>,null,choice,tc,binary,repulsion,2,washing machines,null,null,null,null,null,null,1,NA,NA,NA,NA,NA,NA,NA,NA,NA,NA
NA,NA,NA,NA,NA,choice_trial,survey-html-form,21,210101,0.0-4.0-1.8,218,1,2025-05-06T00:46:42Z,b60275e29fe2361ab97ac0ac217840d7,"Mozilla/5.0 (Macintosh; Intel Mac OS X 10_15_7) AppleWebKit/537.36 (KHTML, like Gecko) Chrome/130.0.0.0 Safari/537.36",Macintosh,Chrome,130.0.0.0,OS X,10_15_7,https://5puzkbbxv1.cognition.run/?sona_id=57453,"en-US,en;q=0.9",pxuc4gp7ghzvlwf,19,"[""Other""]",No,Female,NA,I'm not sure,834795,NA,11499,NA,"{""product_choice"":""A""}",choice,tc,binary,repulsion,2,washing machines,null,null,null,null,null,null,1,30,40,null,100,90,null,Average lifespan,Energy savings,NA,NA
NA,NA,NA,NA,NA,choice_trial_setup,html-keyboard-response,22,210405,0.0-4.0-0.9,218,1,2025-05-06T00:46:42Z,b60275e29fe2361ab97ac0ac217840d7,"Mozilla/5.0 (Macintosh; Intel Mac OS X 10_15_7) AppleWebKit/537.36 (KHTML, like Gecko) Chrome/130.0.0.0 Safari/537.36",Macintosh,Chrome,130.0.0.0,OS X,10_15_7,https://5puzkbbxv1.cognition.run/?sona_id=57453,"en-US,en;q=0.9",pxuc4gp7ghzvlwf,19,"[""Other""]",No,Female,NA,I'm not sure,834795,NA,null,<p></p>,null,choice,ctd,trinary,repulsion_B,2,washing machines,null,null,null,null,null,null,1,NA,NA,NA,NA,NA,NA,NA,NA,NA,NA
NA,NA,NA,NA,NA,choice_trial,survey-html-form,23,221326,0.0-4.0-1.9,218,1,2025-05-06T00:46:42Z,b60275e29fe2361ab97ac0ac217840d7,"Mozilla/5.0 (Macintosh; Intel Mac OS X 10_15_7) AppleWebKit/537.36 (KHTML, like Gecko) Chrome/130.0.0.0 Safari/537.36",Macintosh,Chrome,130.0.0.0,OS X,10_15_7,https://5puzkbbxv1.cognition.run/?sona_id=57453,"en-US,en;q=0.9",pxuc4gp7ghzvlwf,19,"[""Other""]",No,Female,NA,I'm not sure,834795,NA,10918,NA,"{""product_choice"":""B""}",choice,ctd,trinary,repulsion_B,2,washing machines,null,null,null,null,null,null,1,40,30,40,90,100,80,Average lifespan,Energy savings,NA,NA
NA,NA,NA,NA,NA,choice_trial_setup,html-keyboard-response,24,221630,0.0-4.0-0.10,218,1,2025-05-06T00:46:42Z,b60275e29fe2361ab97ac0ac217840d7,"Mozilla/5.0 (Macintosh; Intel Mac OS X 10_15_7) AppleWebKit/537.36 (KHTML, like Gecko) Chrome/130.0.0.0 Safari/537.36",Macintosh,Chrome,130.0.0.0,OS X,10_15_7,https://5puzkbbxv1.cognition.run/?sona_id=57453,"en-US,en;q=0.9",pxuc4gp7ghzvlwf,19,"[""Other""]",No,Female,NA,I'm not sure,834795,NA,null,<p></p>,null,choice,ct,binary,repulsion,1,televisions,null,null,null,null,null,null,1,NA,NA,NA,NA,NA,NA,NA,NA,NA,NA
NA,NA,NA,NA,NA,choice_trial,survey-html-form,25,232683,0.0-4.0-1.10,218,1,2025-05-06T00:46:42Z,b60275e29fe2361ab97ac0ac217840d7,"Mozilla/5.0 (Macintosh; Intel Mac OS X 10_15_7) AppleWebKit/537.36 (KHTML, like Gecko) Chrome/130.0.0.0 Safari/537.36",Macintosh,Chrome,130.0.0.0,OS X,10_15_7,https://5puzkbbxv1.cognition.run/?sona_id=57453,"en-US,en;q=0.9",pxuc4gp7ghzvlwf,19,"[""Other""]",No,Female,NA,I'm not sure,834795,NA,11050,NA,"{""product_choice"":""A""}",choice,ct,binary,repulsion,1,televisions,null,null,null,null,null,null,1,100,90,null,30,40,null,Screen size,Average lifespan,NA,NA
NA,NA,NA,NA,NA,choice_trial_setup,html-keyboard-response,26,232986,0.0-4.0-0.11,218,1,2025-05-06T00:46:42Z,b60275e29fe2361ab97ac0ac217840d7,"Mozilla/5.0 (Macintosh; Intel Mac OS X 10_15_7) AppleWebKit/537.36 (KHTML, like Gecko) Chrome/130.0.0.0 Safari/537.36",Macintosh,Chrome,130.0.0.0,OS X,10_15_7,https://5puzkbbxv1.cognition.run/?sona_id=57453,"en-US,en;q=0.9",pxuc4gp7ghzvlwf,19,"[""Other""]",No,Female,NA,I'm not sure,834795,NA,null,<p></p>,null,choice,cdt,trinary,attraction,1,microwave ovens,null,null,null,null,null,null,1,NA,NA,NA,NA,NA,NA,NA,NA,NA,NA
NA,NA,NA,NA,NA,choice_trial,survey-html-form,27,242927,0.0-4.0-1.11,218,1,2025-05-06T00:46:42Z,b60275e29fe2361ab97ac0ac217840d7,"Mozilla/5.0 (Macintosh; Intel Mac OS X 10_15_7) AppleWebKit/537.36 (KHTML, like Gecko) Chrome/130.0.0.0 Safari/537.36",Macintosh,Chrome,130.0.0.0,OS X,10_15_7,https://5puzkbbxv1.cognition.run/?sona_id=57453,"en-US,en;q=0.9",pxuc4gp7ghzvlwf,19,"[""Other""]",No,Female,NA,I'm not sure,834795,NA,9936,NA,"{""product_choice"":""A""}",choice,cdt,trinary,attraction,1,microwave ovens,null,null,null,null,null,null,1,60,50,60,50,60,40,Warranty,Cooking power,NA,NA
NA,NA,NA,NA,NA,choice_trial_setup,html-keyboard-response,28,243231,0.0-4.0-0.12,218,1,2025-05-06T00:46:42Z,b60275e29fe2361ab97ac0ac217840d7,"Mozilla/5.0 (Macintosh; Intel Mac OS X 10_15_7) AppleWebKit/537.36 (KHTML, like Gecko) Chrome/130.0.0.0 Safari/537.36",Macintosh,Chrome,130.0.0.0,OS X,10_15_7,https://5puzkbbxv1.cognition.run/?sona_id=57453,"en-US,en;q=0.9",pxuc4gp7ghzvlwf,19,"[""Other""]",No,Female,NA,I'm not sure,834795,NA,null,<p></p>,null,choice,tc,binary,repulsion,2,televisions,null,null,null,null,null,null,1,NA,NA,NA,NA,NA,NA,NA,NA,NA,NA
NA,NA,NA,NA,NA,choice_trial,survey-html-form,29,256393,0.0-4.0-1.12,218,1,2025-05-06T00:46:42Z,b60275e29fe2361ab97ac0ac217840d7,"Mozilla/5.0 (Macintosh; Intel Mac OS X 10_15_7) AppleWebKit/537.36 (KHTML, like Gecko) Chrome/130.0.0.0 Safari/537.36",Macintosh,Chrome,130.0.0.0,OS X,10_15_7,https://5puzkbbxv1.cognition.run/?sona_id=57453,"en-US,en;q=0.9",pxuc4gp7ghzvlwf,19,"[""Other""]",No,Female,NA,I'm not sure,834795,NA,13158,NA,"{""product_choice"":""A""}",choice,tc,binary,repulsion,2,televisions,null,null,null,null,null,null,1,30,40,null,100,90,null,Screen size,Average lifespan,NA,NA
NA,NA,NA,NA,NA,choice_trial_setup,html-keyboard-response,30,256695,0.0-4.0-0.13,218,1,2025-05-06T00:46:42Z,b60275e29fe2361ab97ac0ac217840d7,"Mozilla/5.0 (Macintosh; Intel Mac OS X 10_15_7) AppleWebKit/537.36 (KHTML, like Gecko) Chrome/130.0.0.0 Safari/537.36",Macintosh,Chrome,130.0.0.0,OS X,10_15_7,https://5puzkbbxv1.cognition.run/?sona_id=57453,"en-US,en;q=0.9",pxuc4gp7ghzvlwf,19,"[""Other""]",No,Female,NA,I'm not sure,834795,NA,null,<p></p>,null,choice,tcd,trinary,repulsion_B,2,microwave ovens,null,null,null,null,null,null,2,NA,NA,NA,NA,NA,NA,NA,NA,NA,NA
NA,NA,NA,NA,NA,choice_trial,survey-html-form,31,265105,0.0-4.0-1.13,218,1,2025-05-06T00:46:42Z,b60275e29fe2361ab97ac0ac217840d7,"Mozilla/5.0 (Macintosh; Intel Mac OS X 10_15_7) AppleWebKit/537.36 (KHTML, like Gecko) Chrome/130.0.0.0 Safari/537.36",Macintosh,Chrome,130.0.0.0,OS X,10_15_7,https://5puzkbbxv1.cognition.run/?sona_id=57453,"en-US,en;q=0.9",pxuc4gp7ghzvlwf,19,"[""Other""]",No,Female,NA,I'm not sure,834795,NA,8406,NA,"{""product_choice"":""B""}",choice,tcd,trinary,repulsion_B,2,microwave ovens,null,null,null,null,null,null,2,40,30,40,90,100,80,Warranty,Cooking power,NA,NA
NA,NA,NA,NA,NA,choice_trial_setup,html-keyboard-response,32,265407,0.0-4.0-0.14,218,1,2025-05-06T00:46:42Z,b60275e29fe2361ab97ac0ac217840d7,"Mozilla/5.0 (Macintosh; Intel Mac OS X 10_15_7) AppleWebKit/537.36 (KHTML, like Gecko) Chrome/130.0.0.0 Safari/537.36",Macintosh,Chrome,130.0.0.0,OS X,10_15_7,https://5puzkbbxv1.cognition.run/?sona_id=57453,"en-US,en;q=0.9",pxuc4gp7ghzvlwf,19,"[""Other""]",No,Female,NA,I'm not sure,834795,NA,null,<p></p>,null,choice,tc,binary,attraction,NA,microwave ovens,null,null,null,null,null,null,1,NA,NA,NA,NA,NA,NA,NA,NA,NA,NA
NA,NA,NA,NA,NA,choice_trial,survey-html-form,33,278506,0.0-4.0-1.14,218,1,2025-05-06T00:46:42Z,b60275e29fe2361ab97ac0ac217840d7,"Mozilla/5.0 (Macintosh; Intel Mac OS X 10_15_7) AppleWebKit/537.36 (KHTML, like Gecko) Chrome/130.0.0.0 Safari/537.36",Macintosh,Chrome,130.0.0.0,OS X,10_15_7,https://5puzkbbxv1.cognition.run/?sona_id=57453,"en-US,en;q=0.9",pxuc4gp7ghzvlwf,19,"[""Other""]",No,Female,NA,I'm not sure,834795,NA,13095,NA,"{""product_choice"":""A""}",choice,tc,binary,attraction,NA,microwave ovens,null,null,null,null,null,null,1,60,50,null,50,60,null,Warranty,Cooking power,NA,NA
NA,NA,NA,NA,NA,choice_trial_setup,html-keyboard-response,34,278809,0.0-4.0-0.15,218,1,2025-05-06T00:46:42Z,b60275e29fe2361ab97ac0ac217840d7,"Mozilla/5.0 (Macintosh; Intel Mac OS X 10_15_7) AppleWebKit/537.36 (KHTML, like Gecko) Chrome/130.0.0.0 Safari/537.36",Macintosh,Chrome,130.0.0.0,OS X,10_15_7,https://5puzkbbxv1.cognition.run/?sona_id=57453,"en-US,en;q=0.9",pxuc4gp7ghzvlwf,19,"[""Other""]",No,Female,NA,I'm not sure,834795,NA,null,<p></p>,null,choice,ct,binary,repulsion,1,laptops,null,null,null,null,null,null,2,NA,NA,NA,NA,NA,NA,NA,NA,NA,NA
NA,NA,NA,NA,NA,choice_trial,survey-html-form,35,286637,0.0-4.0-1.15,218,1,2025-05-06T00:46:42Z,b60275e29fe2361ab97ac0ac217840d7,"Mozilla/5.0 (Macintosh; Intel Mac OS X 10_15_7) AppleWebKit/537.36 (KHTML, like Gecko) Chrome/130.0.0.0 Safari/537.36",Macintosh,Chrome,130.0.0.0,OS X,10_15_7,https://5puzkbbxv1.cognition.run/?sona_id=57453,"en-US,en;q=0.9",pxuc4gp7ghzvlwf,19,"[""Other""]",No,Female,NA,I'm not sure,834795,NA,7823,NA,"{""product_choice"":""A""}",choice,ct,binary,repulsion,1,laptops,null,null,null,null,null,null,2,100,90,null,30,40,null,Processing speed,Memory (RAM),NA,NA
NA,NA,NA,NA,NA,choice_trial_setup,html-keyboard-response,36,286939,0.0-4.0-0.16,218,1,2025-05-06T00:46:42Z,b60275e29fe2361ab97ac0ac217840d7,"Mozilla/5.0 (Macintosh; Intel Mac OS X 10_15_7) AppleWebKit/537.36 (KHTML, like Gecko) Chrome/130.0.0.0 Safari/537.36",Macintosh,Chrome,130.0.0.0,OS X,10_15_7,https://5puzkbbxv1.cognition.run/?sona_id=57453,"en-US,en;q=0.9",pxuc4gp7ghzvlwf,19,"[""Other""]",No,Female,NA,I'm not sure,834795,NA,null,<p></p>,null,choice,dct,trinary,repulsion_B,1,microwave ovens,null,null,null,null,null,null,1,NA,NA,NA,NA,NA,NA,NA,NA,NA,NA
NA,NA,NA,NA,NA,choice_trial,survey-html-form,37,297572,0.0-4.0-1.16,218,1,2025-05-06T00:46:42Z,b60275e29fe2361ab97ac0ac217840d7,"Mozilla/5.0 (Macintosh; Intel Mac OS X 10_15_7) AppleWebKit/537.36 (KHTML, like Gecko) Chrome/130.0.0.0 Safari/537.36",Macintosh,Chrome,130.0.0.0,OS X,10_15_7,https://5puzkbbxv1.cognition.run/?sona_id=57453,"en-US,en;q=0.9",pxuc4gp7ghzvlwf,19,"[""Other""]",No,Female,NA,I'm not sure,834795,NA,10628,NA,"{""product_choice"":""C""}",choice,dct,trinary,repulsion_B,1,microwave ovens,null,null,null,null,null,null,1,90,100,80,40,30,40,Warranty,Cooking power,NA,NA
NA,NA,NA,NA,NA,choice_trial_setup,html-keyboard-response,38,297875,0.0-4.0-0.17,218,1,2025-05-06T00:46:42Z,b60275e29fe2361ab97ac0ac217840d7,"Mozilla/5.0 (Macintosh; Intel Mac OS X 10_15_7) AppleWebKit/537.36 (KHTML, like Gecko) Chrome/130.0.0.0 Safari/537.36",Macintosh,Chrome,130.0.0.0,OS X,10_15_7,https://5puzkbbxv1.cognition.run/?sona_id=57453,"en-US,en;q=0.9",pxuc4gp7ghzvlwf,19,"[""Other""]",No,Female,NA,I'm not sure,834795,NA,null,<p></p>,null,choice,dct,trinary,attraction,1,laptops,null,null,null,null,null,null,1,NA,NA,NA,NA,NA,NA,NA,NA,NA,NA
NA,NA,NA,NA,NA,choice_trial,survey-html-form,39,304046,0.0-4.0-1.17,218,1,2025-05-06T00:46:42Z,b60275e29fe2361ab97ac0ac217840d7,"Mozilla/5.0 (Macintosh; Intel Mac OS X 10_15_7) AppleWebKit/537.36 (KHTML, like Gecko) Chrome/130.0.0.0 Safari/537.36",Macintosh,Chrome,130.0.0.0,OS X,10_15_7,https://5puzkbbxv1.cognition.run/?sona_id=57453,"en-US,en;q=0.9",pxuc4gp7ghzvlwf,19,"[""Other""]",No,Female,NA,I'm not sure,834795,NA,6166,NA,"{""product_choice"":""C""}",choice,dct,trinary,attraction,1,laptops,null,null,null,null,null,null,1,60,50,60,50,60,40,Processing speed,Memory (RAM),NA,NA
NA,NA,NA,NA,NA,choice_trial_setup,html-keyboard-response,40,304348,0.0-4.0-0.18,218,1,2025-05-06T00:46:42Z,b60275e29fe2361ab97ac0ac217840d7,"Mozilla/5.0 (Macintosh; Intel Mac OS X 10_15_7) AppleWebKit/537.36 (KHTML, like Gecko) Chrome/130.0.0.0 Safari/537.36",Macintosh,Chrome,130.0.0.0,OS X,10_15_7,https://5puzkbbxv1.cognition.run/?sona_id=57453,"en-US,en;q=0.9",pxuc4gp7ghzvlwf,19,"[""Other""]",No,Female,NA,I'm not sure,834795,NA,null,<p></p>,null,choice,ctd,trinary,repulsion_B,1,laptops,null,null,null,null,null,null,2,NA,NA,NA,NA,NA,NA,NA,NA,NA,NA
NA,NA,NA,NA,NA,choice_trial,survey-html-form,41,320270,0.0-4.0-1.18,218,1,2025-05-06T00:46:42Z,b60275e29fe2361ab97ac0ac217840d7,"Mozilla/5.0 (Macintosh; Intel Mac OS X 10_15_7) AppleWebKit/537.36 (KHTML, like Gecko) Chrome/130.0.0.0 Safari/537.36",Macintosh,Chrome,130.0.0.0,OS X,10_15_7,https://5puzkbbxv1.cognition.run/?sona_id=57453,"en-US,en;q=0.9",pxuc4gp7ghzvlwf,19,"[""Other""]",No,Female,NA,I'm not sure,834795,NA,15920,NA,"{""product_choice"":""B""}",choice,ctd,trinary,repulsion_B,1,laptops,null,null,null,null,null,null,2,90,100,80,40,30,40,Processing speed,Memory (RAM),NA,NA
NA,NA,NA,NA,NA,choice_trial_setup,html-keyboard-response,42,320574,0.0-4.0-0.19,218,1,2025-05-06T00:46:42Z,b60275e29fe2361ab97ac0ac217840d7,"Mozilla/5.0 (Macintosh; Intel Mac OS X 10_15_7) AppleWebKit/537.36 (KHTML, like Gecko) Chrome/130.0.0.0 Safari/537.36",Macintosh,Chrome,130.0.0.0,OS X,10_15_7,https://5puzkbbxv1.cognition.run/?sona_id=57453,"en-US,en;q=0.9",pxuc4gp7ghzvlwf,19,"[""Other""]",No,Female,NA,I'm not sure,834795,NA,null,<p></p>,null,choice,dct,trinary,repulsion_B,2,laptops,null,null,null,null,null,null,1,NA,NA,NA,NA,NA,NA,NA,NA,NA,NA
NA,NA,NA,NA,NA,choice_trial,survey-html-form,43,328295,0.0-4.0-1.19,218,1,2025-05-06T00:46:42Z,b60275e29fe2361ab97ac0ac217840d7,"Mozilla/5.0 (Macintosh; Intel Mac OS X 10_15_7) AppleWebKit/537.36 (KHTML, like Gecko) Chrome/130.0.0.0 Safari/537.36",Macintosh,Chrome,130.0.0.0,OS X,10_15_7,https://5puzkbbxv1.cognition.run/?sona_id=57453,"en-US,en;q=0.9",pxuc4gp7ghzvlwf,19,"[""Other""]",No,Female,NA,I'm not sure,834795,NA,7718,NA,"{""product_choice"":""A""}",choice,dct,trinary,repulsion_B,2,laptops,null,null,null,null,null,null,1,40,30,40,90,100,80,Processing speed,Memory (RAM),NA,NA
NA,NA,NA,NA,NA,choice_trial_setup,html-keyboard-response,44,328597,0.0-4.0-0.20,218,1,2025-05-06T00:46:42Z,b60275e29fe2361ab97ac0ac217840d7,"Mozilla/5.0 (Macintosh; Intel Mac OS X 10_15_7) AppleWebKit/537.36 (KHTML, like Gecko) Chrome/130.0.0.0 Safari/537.36",Macintosh,Chrome,130.0.0.0,OS X,10_15_7,https://5puzkbbxv1.cognition.run/?sona_id=57453,"en-US,en;q=0.9",pxuc4gp7ghzvlwf,19,"[""Other""]",No,Female,NA,I'm not sure,834795,NA,null,<p></p>,null,choice,dct,trinary,repulsion_A,1,microwave ovens,null,null,null,null,null,null,2,NA,NA,NA,NA,NA,NA,NA,NA,NA,NA
NA,NA,NA,NA,NA,choice_trial,survey-html-form,45,335633,0.0-4.0-1.20,218,1,2025-05-06T00:46:42Z,b60275e29fe2361ab97ac0ac217840d7,"Mozilla/5.0 (Macintosh; Intel Mac OS X 10_15_7) AppleWebKit/537.36 (KHTML, like Gecko) Chrome/130.0.0.0 Safari/537.36",Macintosh,Chrome,130.0.0.0,OS X,10_15_7,https://5puzkbbxv1.cognition.run/?sona_id=57453,"en-US,en;q=0.9",pxuc4gp7ghzvlwf,19,"[""Other""]",No,Female,NA,I'm not sure,834795,NA,7032,NA,"{""product_choice"":""B""}",choice,dct,trinary,repulsion_A,1,microwave ovens,null,null,null,null,null,null,2,100,90,100,30,40,20,Warranty,Cooking power,NA,NA
NA,NA,NA,NA,NA,choice_trial_setup,html-keyboard-response,46,335936,0.0-4.0-0.21,218,1,2025-05-06T00:46:42Z,b60275e29fe2361ab97ac0ac217840d7,"Mozilla/5.0 (Macintosh; Intel Mac OS X 10_15_7) AppleWebKit/537.36 (KHTML, like Gecko) Chrome/130.0.0.0 Safari/537.36",Macintosh,Chrome,130.0.0.0,OS X,10_15_7,https://5puzkbbxv1.cognition.run/?sona_id=57453,"en-US,en;q=0.9",pxuc4gp7ghzvlwf,19,"[""Other""]",No,Female,NA,I'm not sure,834795,NA,null,<p></p>,null,choice,dtc,trinary,attraction,2,laptops,null,null,null,null,null,null,2,NA,NA,NA,NA,NA,NA,NA,NA,NA,NA
NA,NA,NA,NA,NA,choice_trial,survey-html-form,47,341871,0.0-4.0-1.21,218,1,2025-05-06T00:46:42Z,b60275e29fe2361ab97ac0ac217840d7,"Mozilla/5.0 (Macintosh; Intel Mac OS X 10_15_7) AppleWebKit/537.36 (KHTML, like Gecko) Chrome/130.0.0.0 Safari/537.36",Macintosh,Chrome,130.0.0.0,OS X,10_15_7,https://5puzkbbxv1.cognition.run/?sona_id=57453,"en-US,en;q=0.9",pxuc4gp7ghzvlwf,19,"[""Other""]",No,Female,NA,I'm not sure,834795,NA,5930,NA,"{""product_choice"":""B""}",choice,dtc,trinary,attraction,2,laptops,null,null,null,null,null,null,2,50,60,40,60,50,60,Processing speed,Memory (RAM),NA,NA
NA,NA,NA,NA,NA,choice_trial_setup,html-keyboard-response,48,342174,0.0-4.0-0.22,218,1,2025-05-06T00:46:42Z,b60275e29fe2361ab97ac0ac217840d7,"Mozilla/5.0 (Macintosh; Intel Mac OS X 10_15_7) AppleWebKit/537.36 (KHTML, like Gecko) Chrome/130.0.0.0 Safari/537.36",Macintosh,Chrome,130.0.0.0,OS X,10_15_7,https://5puzkbbxv1.cognition.run/?sona_id=57453,"en-US,en;q=0.9",pxuc4gp7ghzvlwf,19,"[""Other""]",No,Female,NA,I'm not sure,834795,NA,null,<p></p>,null,choice,tc,binary,attraction,NA,laptops,null,null,null,null,null,null,1,NA,NA,NA,NA,NA,NA,NA,NA,NA,NA
NA,NA,NA,NA,NA,choice_trial,survey-html-form,49,355359,0.0-4.0-1.22,218,1,2025-05-06T00:46:42Z,b60275e29fe2361ab97ac0ac217840d7,"Mozilla/5.0 (Macintosh; Intel Mac OS X 10_15_7) AppleWebKit/537.36 (KHTML, like Gecko) Chrome/130.0.0.0 Safari/537.36",Macintosh,Chrome,130.0.0.0,OS X,10_15_7,https://5puzkbbxv1.cognition.run/?sona_id=57453,"en-US,en;q=0.9",pxuc4gp7ghzvlwf,19,"[""Other""]",No,Female,NA,I'm not sure,834795,NA,13181,NA,"{""product_choice"":""A""}",choice,tc,binary,attraction,NA,laptops,null,null,null,null,null,null,1,60,50,null,50,60,null,Processing speed,Memory (RAM),NA,NA
NA,NA,NA,NA,NA,choice_trial_setup,html-keyboard-response,50,355662,0.0-4.0-0.23,218,1,2025-05-06T00:46:42Z,b60275e29fe2361ab97ac0ac217840d7,"Mozilla/5.0 (Macintosh; Intel Mac OS X 10_15_7) AppleWebKit/537.36 (KHTML, like Gecko) Chrome/130.0.0.0 Safari/537.36",Macintosh,Chrome,130.0.0.0,OS X,10_15_7,https://5puzkbbxv1.cognition.run/?sona_id=57453,"en-US,en;q=0.9",pxuc4gp7ghzvlwf,19,"[""Other""]",No,Female,NA,I'm not sure,834795,NA,null,<p></p>,null,choice,tc,binary,repulsion,1,washing machines,null,null,null,null,null,null,1,NA,NA,NA,NA,NA,NA,NA,NA,NA,NA
NA,NA,NA,NA,NA,choice_trial,survey-html-form,51,365057,0.0-4.0-1.23,218,1,2025-05-06T00:46:42Z,b60275e29fe2361ab97ac0ac217840d7,"Mozilla/5.0 (Macintosh; Intel Mac OS X 10_15_7) AppleWebKit/537.36 (KHTML, like Gecko) Chrome/130.0.0.0 Safari/537.36",Macintosh,Chrome,130.0.0.0,OS X,10_15_7,https://5puzkbbxv1.cognition.run/?sona_id=57453,"en-US,en;q=0.9",pxuc4gp7ghzvlwf,19,"[""Other""]",No,Female,NA,I'm not sure,834795,NA,9390,NA,"{""product_choice"":""A""}",choice,tc,binary,repulsion,1,washing machines,null,null,null,null,null,null,1,100,90,null,30,40,null,Average lifespan,Energy savings,NA,NA
NA,NA,NA,NA,NA,choice_trial_setup,html-keyboard-response,52,365361,0.0-4.0-0.24,218,1,2025-05-06T00:46:42Z,b60275e29fe2361ab97ac0ac217840d7,"Mozilla/5.0 (Macintosh; Intel Mac OS X 10_15_7) AppleWebKit/537.36 (KHTML, like Gecko) Chrome/130.0.0.0 Safari/537.36",Macintosh,Chrome,130.0.0.0,OS X,10_15_7,https://5puzkbbxv1.cognition.run/?sona_id=57453,"en-US,en;q=0.9",pxuc4gp7ghzvlwf,19,"[""Other""]",No,Female,NA,I'm not sure,834795,NA,null,<p></p>,null,choice,dct,trinary,repulsion_A,1,laptops,null,null,null,null,null,null,1,NA,NA,NA,NA,NA,NA,NA,NA,NA,NA
NA,NA,NA,NA,NA,choice_trial,survey-html-form,53,378196,0.0-4.0-1.24,218,1,2025-05-06T00:46:42Z,b60275e29fe2361ab97ac0ac217840d7,"Mozilla/5.0 (Macintosh; Intel Mac OS X 10_15_7) AppleWebKit/537.36 (KHTML, like Gecko) Chrome/130.0.0.0 Safari/537.36",Macintosh,Chrome,130.0.0.0,OS X,10_15_7,https://5puzkbbxv1.cognition.run/?sona_id=57453,"en-US,en;q=0.9",pxuc4gp7ghzvlwf,19,"[""Other""]",No,Female,NA,I'm not sure,834795,NA,12830,NA,"{""product_choice"":""C""}",choice,dct,trinary,repulsion_A,1,laptops,null,null,null,null,null,null,1,100,90,100,30,40,20,Processing speed,Memory (RAM),NA,NA
NA,NA,NA,NA,NA,choice_trial_setup,html-keyboard-response,54,378500,0.0-4.0-0.25,218,1,2025-05-06T00:46:42Z,b60275e29fe2361ab97ac0ac217840d7,"Mozilla/5.0 (Macintosh; Intel Mac OS X 10_15_7) AppleWebKit/537.36 (KHTML, like Gecko) Chrome/130.0.0.0 Safari/537.36",Macintosh,Chrome,130.0.0.0,OS X,10_15_7,https://5puzkbbxv1.cognition.run/?sona_id=57453,"en-US,en;q=0.9",pxuc4gp7ghzvlwf,19,"[""Other""]",No,Female,NA,I'm not sure,834795,NA,null,<p></p>,null,choice,cdt,trinary,repulsion_A,1,televisions,null,null,null,null,null,null,1,NA,NA,NA,NA,NA,NA,NA,NA,NA,NA
NA,NA,NA,NA,NA,choice_trial,survey-html-form,55,390171,0.0-4.0-1.25,218,1,2025-05-06T00:46:42Z,b60275e29fe2361ab97ac0ac217840d7,"Mozilla/5.0 (Macintosh; Intel Mac OS X 10_15_7) AppleWebKit/537.36 (KHTML, like Gecko) Chrome/130.0.0.0 Safari/537.36",Macintosh,Chrome,130.0.0.0,OS X,10_15_7,https://5puzkbbxv1.cognition.run/?sona_id=57453,"en-US,en;q=0.9",pxuc4gp7ghzvlwf,19,"[""Other""]",No,Female,NA,I'm not sure,834795,NA,11665,NA,"{""product_choice"":""A""}",choice,cdt,trinary,repulsion_A,1,televisions,null,null,null,null,null,null,1,100,90,100,30,40,20,Screen size,Average lifespan,NA,NA
NA,NA,NA,NA,NA,choice_trial_setup,html-keyboard-response,56,390473,0.0-4.0-0.26,218,1,2025-05-06T00:46:42Z,b60275e29fe2361ab97ac0ac217840d7,"Mozilla/5.0 (Macintosh; Intel Mac OS X 10_15_7) AppleWebKit/537.36 (KHTML, like Gecko) Chrome/130.0.0.0 Safari/537.36",Macintosh,Chrome,130.0.0.0,OS X,10_15_7,https://5puzkbbxv1.cognition.run/?sona_id=57453,"en-US,en;q=0.9",pxuc4gp7ghzvlwf,19,"[""Other""]",No,Female,NA,I'm not sure,834795,NA,null,<p></p>,null,choice,dtc,trinary,repulsion_A,2,washing machines,null,null,null,null,null,null,1,NA,NA,NA,NA,NA,NA,NA,NA,NA,NA
NA,NA,NA,NA,NA,choice_trial,survey-html-form,57,399982,0.0-4.0-1.26,218,1,2025-05-06T00:46:42Z,b60275e29fe2361ab97ac0ac217840d7,"Mozilla/5.0 (Macintosh; Intel Mac OS X 10_15_7) AppleWebKit/537.36 (KHTML, like Gecko) Chrome/130.0.0.0 Safari/537.36",Macintosh,Chrome,130.0.0.0,OS X,10_15_7,https://5puzkbbxv1.cognition.run/?sona_id=57453,"en-US,en;q=0.9",pxuc4gp7ghzvlwf,19,"[""Other""]",No,Female,NA,I'm not sure,834795,NA,9505,NA,"{""product_choice"":""C""}",choice,dtc,trinary,repulsion_A,2,washing machines,null,null,null,null,null,null,1,30,40,20,100,90,100,Average lifespan,Energy savings,NA,NA
NA,NA,NA,NA,NA,choice_trial_setup,html-keyboard-response,58,400285,0.0-4.0-0.27,218,1,2025-05-06T00:46:42Z,b60275e29fe2361ab97ac0ac217840d7,"Mozilla/5.0 (Macintosh; Intel Mac OS X 10_15_7) AppleWebKit/537.36 (KHTML, like Gecko) Chrome/130.0.0.0 Safari/537.36",Macintosh,Chrome,130.0.0.0,OS X,10_15_7,https://5puzkbbxv1.cognition.run/?sona_id=57453,"en-US,en;q=0.9",pxuc4gp7ghzvlwf,19,"[""Other""]",No,Female,NA,I'm not sure,834795,NA,null,<p></p>,null,choice,bw,binary,catch,null,televisions,95,70,15,30,null,null,1,NA,NA,NA,NA,NA,NA,NA,NA,NA,NA
NA,NA,NA,NA,NA,choice_trial,survey-html-form,59,410839,0.0-4.0-1.27,218,1,2025-05-06T00:46:42Z,b60275e29fe2361ab97ac0ac217840d7,"Mozilla/5.0 (Macintosh; Intel Mac OS X 10_15_7) AppleWebKit/537.36 (KHTML, like Gecko) Chrome/130.0.0.0 Safari/537.36",Macintosh,Chrome,130.0.0.0,OS X,10_15_7,https://5puzkbbxv1.cognition.run/?sona_id=57453,"en-US,en;q=0.9",pxuc4gp7ghzvlwf,19,"[""Other""]",No,Female,NA,I'm not sure,834795,NA,10552,NA,"{""product_choice"":""A""}",choice,bw,binary,catch,null,televisions,95,70,15,30,null,null,1,null,null,null,null,null,null,Screen size,Average lifespan,NA,NA
NA,NA,NA,NA,NA,choice_trial_setup,html-keyboard-response,60,411142,0.0-4.0-0.28,218,1,2025-05-06T00:46:42Z,b60275e29fe2361ab97ac0ac217840d7,"Mozilla/5.0 (Macintosh; Intel Mac OS X 10_15_7) AppleWebKit/537.36 (KHTML, like Gecko) Chrome/130.0.0.0 Safari/537.36",Macintosh,Chrome,130.0.0.0,OS X,10_15_7,https://5puzkbbxv1.cognition.run/?sona_id=57453,"en-US,en;q=0.9",pxuc4gp7ghzvlwf,19,"[""Other""]",No,Female,NA,I'm not sure,834795,NA,null,<p></p>,null,choice,wb,binary,catch,null,washing machines,70,95,35,35,null,null,1,NA,NA,NA,NA,NA,NA,NA,NA,NA,NA
NA,NA,NA,NA,NA,choice_trial,survey-html-form,61,418849,0.0-4.0-1.28,218,1,2025-05-06T00:46:42Z,b60275e29fe2361ab97ac0ac217840d7,"Mozilla/5.0 (Macintosh; Intel Mac OS X 10_15_7) AppleWebKit/537.36 (KHTML, like Gecko) Chrome/130.0.0.0 Safari/537.36",Macintosh,Chrome,130.0.0.0,OS X,10_15_7,https://5puzkbbxv1.cognition.run/?sona_id=57453,"en-US,en;q=0.9",pxuc4gp7ghzvlwf,19,"[""Other""]",No,Female,NA,I'm not sure,834795,NA,7701,NA,"{""product_choice"":""B""}",choice,wb,binary,catch,null,washing machines,70,95,35,35,null,null,1,null,null,null,null,null,null,Average lifespan,Energy savings,NA,NA
NA,NA,NA,NA,NA,choice_trial_setup,html-keyboard-response,62,419153,0.0-4.0-0.29,218,1,2025-05-06T00:46:42Z,b60275e29fe2361ab97ac0ac217840d7,"Mozilla/5.0 (Macintosh; Intel Mac OS X 10_15_7) AppleWebKit/537.36 (KHTML, like Gecko) Chrome/130.0.0.0 Safari/537.36",Macintosh,Chrome,130.0.0.0,OS X,10_15_7,https://5puzkbbxv1.cognition.run/?sona_id=57453,"en-US,en;q=0.9",pxuc4gp7ghzvlwf,19,"[""Other""]",No,Female,NA,I'm not sure,834795,NA,null,<p></p>,null,choice,dct,trinary,repulsion_B,1,washing machines,null,null,null,null,null,null,2,NA,NA,NA,NA,NA,NA,NA,NA,NA,NA
NA,NA,NA,NA,NA,choice_trial,survey-html-form,63,434375,0.0-4.0-1.29,218,1,2025-05-06T00:46:42Z,b60275e29fe2361ab97ac0ac217840d7,"Mozilla/5.0 (Macintosh; Intel Mac OS X 10_15_7) AppleWebKit/537.36 (KHTML, like Gecko) Chrome/130.0.0.0 Safari/537.36",Macintosh,Chrome,130.0.0.0,OS X,10_15_7,https://5puzkbbxv1.cognition.run/?sona_id=57453,"en-US,en;q=0.9",pxuc4gp7ghzvlwf,19,"[""Other""]",No,Female,NA,I'm not sure,834795,NA,15217,NA,"{""product_choice"":""C""}",choice,dct,trinary,repulsion_B,1,washing machines,null,null,null,null,null,null,2,90,100,80,40,30,40,Average lifespan,Energy savings,NA,NA
NA,NA,NA,NA,NA,choice_trial_setup,html-keyboard-response,64,434679,0.0-4.0-0.30,218,1,2025-05-06T00:46:42Z,b60275e29fe2361ab97ac0ac217840d7,"Mozilla/5.0 (Macintosh; Intel Mac OS X 10_15_7) AppleWebKit/537.36 (KHTML, like Gecko) Chrome/130.0.0.0 Safari/537.36",Macintosh,Chrome,130.0.0.0,OS X,10_15_7,https://5puzkbbxv1.cognition.run/?sona_id=57453,"en-US,en;q=0.9",pxuc4gp7ghzvlwf,19,"[""Other""]",No,Female,NA,I'm not sure,834795,NA,null,<p></p>,null,choice,dct,trinary,repulsion_B,2,televisions,null,null,null,null,null,null,2,NA,NA,NA,NA,NA,NA,NA,NA,NA,NA
NA,NA,NA,NA,NA,choice_trial,survey-html-form,65,445964,0.0-4.0-1.30,218,1,2025-05-06T00:46:42Z,b60275e29fe2361ab97ac0ac217840d7,"Mozilla/5.0 (Macintosh; Intel Mac OS X 10_15_7) AppleWebKit/537.36 (KHTML, like Gecko) Chrome/130.0.0.0 Safari/537.36",Macintosh,Chrome,130.0.0.0,OS X,10_15_7,https://5puzkbbxv1.cognition.run/?sona_id=57453,"en-US,en;q=0.9",pxuc4gp7ghzvlwf,19,"[""Other""]",No,Female,NA,I'm not sure,834795,NA,11280,NA,"{""product_choice"":""C""}",choice,dct,trinary,repulsion_B,2,televisions,null,null,null,null,null,null,2,40,30,40,90,100,80,Screen size,Average lifespan,NA,NA
NA,NA,NA,NA,NA,choice_trial_setup,html-keyboard-response,66,446267,0.0-4.0-0.31,218,1,2025-05-06T00:46:42Z,b60275e29fe2361ab97ac0ac217840d7,"Mozilla/5.0 (Macintosh; Intel Mac OS X 10_15_7) AppleWebKit/537.36 (KHTML, like Gecko) Chrome/130.0.0.0 Safari/537.36",Macintosh,Chrome,130.0.0.0,OS X,10_15_7,https://5puzkbbxv1.cognition.run/?sona_id=57453,"en-US,en;q=0.9",pxuc4gp7ghzvlwf,19,"[""Other""]",No,Female,NA,I'm not sure,834795,NA,null,<p></p>,null,choice,ct,binary,attraction,NA,televisions,null,null,null,null,null,null,1,NA,NA,NA,NA,NA,NA,NA,NA,NA,NA
NA,NA,NA,NA,NA,choice_trial,survey-html-form,67,458470,0.0-4.0-1.31,218,1,2025-05-06T00:46:42Z,b60275e29fe2361ab97ac0ac217840d7,"Mozilla/5.0 (Macintosh; Intel Mac OS X 10_15_7) AppleWebKit/537.36 (KHTML, like Gecko) Chrome/130.0.0.0 Safari/537.36",Macintosh,Chrome,130.0.0.0,OS X,10_15_7,https://5puzkbbxv1.cognition.run/?sona_id=57453,"en-US,en;q=0.9",pxuc4gp7ghzvlwf,19,"[""Other""]",No,Female,NA,I'm not sure,834795,NA,12196,NA,"{""product_choice"":""A""}",choice,ct,binary,attraction,NA,televisions,null,null,null,null,null,null,1,60,50,null,50,60,null,Screen size,Average lifespan,NA,NA
NA,NA,NA,NA,NA,choice_trial_setup,html-keyboard-response,68,458773,0.0-4.0-0.32,218,1,2025-05-06T00:46:42Z,b60275e29fe2361ab97ac0ac217840d7,"Mozilla/5.0 (Macintosh; Intel Mac OS X 10_15_7) AppleWebKit/537.36 (KHTML, like Gecko) Chrome/130.0.0.0 Safari/537.36",Macintosh,Chrome,130.0.0.0,OS X,10_15_7,https://5puzkbbxv1.cognition.run/?sona_id=57453,"en-US,en;q=0.9",pxuc4gp7ghzvlwf,19,"[""Other""]",No,Female,NA,I'm not sure,834795,NA,null,<p></p>,null,choice,ct,binary,repulsion,2,laptops,null,null,null,null,null,null,1,NA,NA,NA,NA,NA,NA,NA,NA,NA,NA
NA,NA,NA,NA,NA,choice_trial,survey-html-form,69,467097,0.0-4.0-1.32,218,1,2025-05-06T00:46:42Z,b60275e29fe2361ab97ac0ac217840d7,"Mozilla/5.0 (Macintosh; Intel Mac OS X 10_15_7) AppleWebKit/537.36 (KHTML, like Gecko) Chrome/130.0.0.0 Safari/537.36",Macintosh,Chrome,130.0.0.0,OS X,10_15_7,https://5puzkbbxv1.cognition.run/?sona_id=57453,"en-US,en;q=0.9",pxuc4gp7ghzvlwf,19,"[""Other""]",No,Female,NA,I'm not sure,834795,NA,8319,NA,"{""product_choice"":""A""}",choice,ct,binary,repulsion,2,laptops,null,null,null,null,null,null,1,30,40,null,100,90,null,Processing speed,Memory (RAM),NA,NA
NA,NA,NA,NA,NA,choice_trial_setup,html-keyboard-response,70,467400,0.0-4.0-0.33,218,1,2025-05-06T00:46:42Z,b60275e29fe2361ab97ac0ac217840d7,"Mozilla/5.0 (Macintosh; Intel Mac OS X 10_15_7) AppleWebKit/537.36 (KHTML, like Gecko) Chrome/130.0.0.0 Safari/537.36",Macintosh,Chrome,130.0.0.0,OS X,10_15_7,https://5puzkbbxv1.cognition.run/?sona_id=57453,"en-US,en;q=0.9",pxuc4gp7ghzvlwf,19,"[""Other""]",No,Female,NA,I'm not sure,834795,NA,null,<p></p>,null,choice,cdt,trinary,repulsion_A,1,washing machines,null,null,null,null,null,null,2,NA,NA,NA,NA,NA,NA,NA,NA,NA,NA
NA,NA,NA,NA,NA,choice_trial,survey-html-form,71,475289,0.0-4.0-1.33,218,1,2025-05-06T00:46:42Z,b60275e29fe2361ab97ac0ac217840d7,"Mozilla/5.0 (Macintosh; Intel Mac OS X 10_15_7) AppleWebKit/537.36 (KHTML, like Gecko) Chrome/130.0.0.0 Safari/537.36",Macintosh,Chrome,130.0.0.0,OS X,10_15_7,https://5puzkbbxv1.cognition.run/?sona_id=57453,"en-US,en;q=0.9",pxuc4gp7ghzvlwf,19,"[""Other""]",No,Female,NA,I'm not sure,834795,NA,7884,NA,"{""product_choice"":""A""}",choice,cdt,trinary,repulsion_A,1,washing machines,null,null,null,null,null,null,2,100,90,100,30,40,20,Average lifespan,Energy savings,NA,NA
NA,NA,NA,NA,NA,choice_trial_setup,html-keyboard-response,72,475592,0.0-4.0-0.34,218,1,2025-05-06T00:46:42Z,b60275e29fe2361ab97ac0ac217840d7,"Mozilla/5.0 (Macintosh; Intel Mac OS X 10_15_7) AppleWebKit/537.36 (KHTML, like Gecko) Chrome/130.0.0.0 Safari/537.36",Macintosh,Chrome,130.0.0.0,OS X,10_15_7,https://5puzkbbxv1.cognition.run/?sona_id=57453,"en-US,en;q=0.9",pxuc4gp7ghzvlwf,19,"[""Other""]",No,Female,NA,I'm not sure,834795,NA,null,<p></p>,null,choice,cdt,trinary,attraction,1,washing machines,null,null,null,null,null,null,2,NA,NA,NA,NA,NA,NA,NA,NA,NA,NA
NA,NA,NA,NA,NA,choice_trial,survey-html-form,73,484121,0.0-4.0-1.34,218,1,2025-05-06T00:46:42Z,b60275e29fe2361ab97ac0ac217840d7,"Mozilla/5.0 (Macintosh; Intel Mac OS X 10_15_7) AppleWebKit/537.36 (KHTML, like Gecko) Chrome/130.0.0.0 Safari/537.36",Macintosh,Chrome,130.0.0.0,OS X,10_15_7,https://5puzkbbxv1.cognition.run/?sona_id=57453,"en-US,en;q=0.9",pxuc4gp7ghzvlwf,19,"[""Other""]",No,Female,NA,I'm not sure,834795,NA,8523,NA,"{""product_choice"":""A""}",choice,cdt,trinary,attraction,1,washing machines,null,null,null,null,null,null,2,60,50,60,50,60,40,Average lifespan,Energy savings,NA,NA
NA,NA,NA,NA,NA,choice_trial_setup,html-keyboard-response,74,484426,0.0-4.0-0.35,218,1,2025-05-06T00:46:42Z,b60275e29fe2361ab97ac0ac217840d7,"Mozilla/5.0 (Macintosh; Intel Mac OS X 10_15_7) AppleWebKit/537.36 (KHTML, like Gecko) Chrome/130.0.0.0 Safari/537.36",Macintosh,Chrome,130.0.0.0,OS X,10_15_7,https://5puzkbbxv1.cognition.run/?sona_id=57453,"en-US,en;q=0.9",pxuc4gp7ghzvlwf,19,"[""Other""]",No,Female,NA,I'm not sure,834795,NA,null,<p></p>,null,choice,tc,binary,repulsion,2,microwave ovens,null,null,null,null,null,null,2,NA,NA,NA,NA,NA,NA,NA,NA,NA,NA
NA,NA,NA,NA,NA,choice_trial,survey-html-form,75,564855,0.0-4.0-1.35,218,1,2025-05-06T00:46:42Z,b60275e29fe2361ab97ac0ac217840d7,"Mozilla/5.0 (Macintosh; Intel Mac OS X 10_15_7) AppleWebKit/537.36 (KHTML, like Gecko) Chrome/130.0.0.0 Safari/537.36",Macintosh,Chrome,130.0.0.0,OS X,10_15_7,https://5puzkbbxv1.cognition.run/?sona_id=57453,"en-US,en;q=0.9",pxuc4gp7ghzvlwf,19,"[""Other""]",No,Female,NA,I'm not sure,834795,NA,80424,NA,"{""product_choice"":""A""}",choice,tc,binary,repulsion,2,microwave ovens,null,null,null,null,null,null,2,30,40,null,100,90,null,Warranty,Cooking power,NA,NA
NA,NA,NA,NA,NA,choice_trial_setup,html-keyboard-response,76,565160,0.0-4.0-0.36,218,1,2025-05-06T00:46:42Z,b60275e29fe2361ab97ac0ac217840d7,"Mozilla/5.0 (Macintosh; Intel Mac OS X 10_15_7) AppleWebKit/537.36 (KHTML, like Gecko) Chrome/130.0.0.0 Safari/537.36",Macintosh,Chrome,130.0.0.0,OS X,10_15_7,https://5puzkbbxv1.cognition.run/?sona_id=57453,"en-US,en;q=0.9",pxuc4gp7ghzvlwf,19,"[""Other""]",No,Female,NA,I'm not sure,834795,NA,null,<p></p>,null,choice,cdt,trinary,attraction,2,microwave ovens,null,null,null,null,null,null,1,NA,NA,NA,NA,NA,NA,NA,NA,NA,NA
NA,NA,NA,NA,NA,choice_trial,survey-html-form,77,574203,0.0-4.0-1.36,218,1,2025-05-06T00:46:42Z,b60275e29fe2361ab97ac0ac217840d7,"Mozilla/5.0 (Macintosh; Intel Mac OS X 10_15_7) AppleWebKit/537.36 (KHTML, like Gecko) Chrome/130.0.0.0 Safari/537.36",Macintosh,Chrome,130.0.0.0,OS X,10_15_7,https://5puzkbbxv1.cognition.run/?sona_id=57453,"en-US,en;q=0.9",pxuc4gp7ghzvlwf,19,"[""Other""]",No,Female,NA,I'm not sure,834795,NA,9038,NA,"{""product_choice"":""C""}",choice,cdt,trinary,attraction,2,microwave ovens,null,null,null,null,null,null,1,50,60,40,60,50,60,Warranty,Cooking power,NA,NA
NA,NA,NA,NA,NA,choice_trial_setup,html-keyboard-response,78,574508,0.0-4.0-0.37,218,1,2025-05-06T00:46:42Z,b60275e29fe2361ab97ac0ac217840d7,"Mozilla/5.0 (Macintosh; Intel Mac OS X 10_15_7) AppleWebKit/537.36 (KHTML, like Gecko) Chrome/130.0.0.0 Safari/537.36",Macintosh,Chrome,130.0.0.0,OS X,10_15_7,https://5puzkbbxv1.cognition.run/?sona_id=57453,"en-US,en;q=0.9",pxuc4gp7ghzvlwf,19,"[""Other""]",No,Female,NA,I'm not sure,834795,NA,null,<p></p>,null,choice,ctd,trinary,repulsion_A,2,laptops,null,null,null,null,null,null,2,NA,NA,NA,NA,NA,NA,NA,NA,NA,NA
NA,NA,NA,NA,NA,choice_trial,survey-html-form,79,586238,0.0-4.0-1.37,218,1,2025-05-06T00:46:42Z,b60275e29fe2361ab97ac0ac217840d7,"Mozilla/5.0 (Macintosh; Intel Mac OS X 10_15_7) AppleWebKit/537.36 (KHTML, like Gecko) Chrome/130.0.0.0 Safari/537.36",Macintosh,Chrome,130.0.0.0,OS X,10_15_7,https://5puzkbbxv1.cognition.run/?sona_id=57453,"en-US,en;q=0.9",pxuc4gp7ghzvlwf,19,"[""Other""]",No,Female,NA,I'm not sure,834795,NA,11724,NA,"{""product_choice"":""A""}",choice,ctd,trinary,repulsion_A,2,laptops,null,null,null,null,null,null,2,30,40,20,100,90,100,Processing speed,Memory (RAM),NA,NA
NA,NA,NA,NA,NA,choice_trial_setup,html-keyboard-response,80,586541,0.0-4.0-0.38,218,1,2025-05-06T00:46:42Z,b60275e29fe2361ab97ac0ac217840d7,"Mozilla/5.0 (Macintosh; Intel Mac OS X 10_15_7) AppleWebKit/537.36 (KHTML, like Gecko) Chrome/130.0.0.0 Safari/537.36",Macintosh,Chrome,130.0.0.0,OS X,10_15_7,https://5puzkbbxv1.cognition.run/?sona_id=57453,"en-US,en;q=0.9",pxuc4gp7ghzvlwf,19,"[""Other""]",No,Female,NA,I'm not sure,834795,NA,null,<p></p>,null,choice,bw,binary,catch,null,laptops,75,90,20,50,null,null,2,NA,NA,NA,NA,NA,NA,NA,NA,NA,NA
NA,NA,NA,NA,NA,choice_trial,survey-html-form,81,592812,0.0-4.0-1.38,218,1,2025-05-06T00:46:42Z,b60275e29fe2361ab97ac0ac217840d7,"Mozilla/5.0 (Macintosh; Intel Mac OS X 10_15_7) AppleWebKit/537.36 (KHTML, like Gecko) Chrome/130.0.0.0 Safari/537.36",Macintosh,Chrome,130.0.0.0,OS X,10_15_7,https://5puzkbbxv1.cognition.run/?sona_id=57453,"en-US,en;q=0.9",pxuc4gp7ghzvlwf,19,"[""Other""]",No,Female,NA,I'm not sure,834795,NA,6264,NA,"{""product_choice"":""A""}",choice,bw,binary,catch,null,laptops,75,90,20,50,null,null,2,null,null,null,null,null,null,Processing speed,Memory (RAM),NA,NA
NA,NA,NA,NA,NA,choice_trial_setup,html-keyboard-response,82,593116,0.0-4.0-0.39,218,1,2025-05-06T00:46:42Z,b60275e29fe2361ab97ac0ac217840d7,"Mozilla/5.0 (Macintosh; Intel Mac OS X 10_15_7) AppleWebKit/537.36 (KHTML, like Gecko) Chrome/130.0.0.0 Safari/537.36",Macintosh,Chrome,130.0.0.0,OS X,10_15_7,https://5puzkbbxv1.cognition.run/?sona_id=57453,"en-US,en;q=0.9",pxuc4gp7ghzvlwf,19,"[""Other""]",No,Female,NA,I'm not sure,834795,NA,null,<p></p>,null,choice,ctd,trinary,repulsion_A,2,televisions,null,null,null,null,null,null,2,NA,NA,NA,NA,NA,NA,NA,NA,NA,NA
NA,NA,NA,NA,NA,choice_trial,survey-html-form,83,605864,0.0-4.0-1.39,218,1,2025-05-06T00:46:42Z,b60275e29fe2361ab97ac0ac217840d7,"Mozilla/5.0 (Macintosh; Intel Mac OS X 10_15_7) AppleWebKit/537.36 (KHTML, like Gecko) Chrome/130.0.0.0 Safari/537.36",Macintosh,Chrome,130.0.0.0,OS X,10_15_7,https://5puzkbbxv1.cognition.run/?sona_id=57453,"en-US,en;q=0.9",pxuc4gp7ghzvlwf,19,"[""Other""]",No,Female,NA,I'm not sure,834795,NA,12742,NA,"{""product_choice"":""A""}",choice,ctd,trinary,repulsion_A,2,televisions,null,null,null,null,null,null,2,30,40,20,100,90,100,Screen size,Average lifespan,NA,NA
NA,NA,NA,NA,NA,choice_trial_setup,html-keyboard-response,84,606168,0.0-4.0-0.40,218,1,2025-05-06T00:46:42Z,b60275e29fe2361ab97ac0ac217840d7,"Mozilla/5.0 (Macintosh; Intel Mac OS X 10_15_7) AppleWebKit/537.36 (KHTML, like Gecko) Chrome/130.0.0.0 Safari/537.36",Macintosh,Chrome,130.0.0.0,OS X,10_15_7,https://5puzkbbxv1.cognition.run/?sona_id=57453,"en-US,en;q=0.9",pxuc4gp7ghzvlwf,19,"[""Other""]",No,Female,NA,I'm not sure,834795,NA,null,<p></p>,null,choice,wwb,trinary,catch,null,washing machines,50,50,10,30,30,5,2,NA,NA,NA,NA,NA,NA,NA,NA,NA,NA
NA,NA,NA,NA,NA,choice_trial,survey-html-form,85,611861,0.0-4.0-1.40,218,1,2025-05-06T00:46:42Z,b60275e29fe2361ab97ac0ac217840d7,"Mozilla/5.0 (Macintosh; Intel Mac OS X 10_15_7) AppleWebKit/537.36 (KHTML, like Gecko) Chrome/130.0.0.0 Safari/537.36",Macintosh,Chrome,130.0.0.0,OS X,10_15_7,https://5puzkbbxv1.cognition.run/?sona_id=57453,"en-US,en;q=0.9",pxuc4gp7ghzvlwf,19,"[""Other""]",No,Female,NA,I'm not sure,834795,NA,5690,NA,"{""product_choice"":""C""}",choice,wwb,trinary,catch,null,washing machines,50,50,10,30,30,5,2,null,null,null,null,null,null,Average lifespan,Energy savings,NA,NA
NA,NA,NA,NA,NA,choice_trial_setup,html-keyboard-response,86,612166,0.0-4.0-0.41,218,1,2025-05-06T00:46:42Z,b60275e29fe2361ab97ac0ac217840d7,"Mozilla/5.0 (Macintosh; Intel Mac OS X 10_15_7) AppleWebKit/537.36 (KHTML, like Gecko) Chrome/130.0.0.0 Safari/537.36",Macintosh,Chrome,130.0.0.0,OS X,10_15_7,https://5puzkbbxv1.cognition.run/?sona_id=57453,"en-US,en;q=0.9",pxuc4gp7ghzvlwf,19,"[""Other""]",No,Female,NA,I'm not sure,834795,NA,null,<p></p>,null,choice,wwb,trinary,catch,null,televisions,65,55,45,40,40,20,2,NA,NA,NA,NA,NA,NA,NA,NA,NA,NA
NA,NA,NA,NA,NA,choice_trial,survey-html-form,87,617097,0.0-4.0-1.41,218,1,2025-05-06T00:46:42Z,b60275e29fe2361ab97ac0ac217840d7,"Mozilla/5.0 (Macintosh; Intel Mac OS X 10_15_7) AppleWebKit/537.36 (KHTML, like Gecko) Chrome/130.0.0.0 Safari/537.36",Macintosh,Chrome,130.0.0.0,OS X,10_15_7,https://5puzkbbxv1.cognition.run/?sona_id=57453,"en-US,en;q=0.9",pxuc4gp7ghzvlwf,19,"[""Other""]",No,Female,NA,I'm not sure,834795,NA,4924,NA,"{""product_choice"":""C""}",choice,wwb,trinary,catch,null,televisions,65,55,45,40,40,20,2,null,null,null,null,null,null,Screen size,Average lifespan,NA,NA
NA,NA,NA,NA,NA,choice_trial_setup,html-keyboard-response,88,617401,0.0-4.0-0.42,218,1,2025-05-06T00:46:42Z,b60275e29fe2361ab97ac0ac217840d7,"Mozilla/5.0 (Macintosh; Intel Mac OS X 10_15_7) AppleWebKit/537.36 (KHTML, like Gecko) Chrome/130.0.0.0 Safari/537.36",Macintosh,Chrome,130.0.0.0,OS X,10_15_7,https://5puzkbbxv1.cognition.run/?sona_id=57453,"en-US,en;q=0.9",pxuc4gp7ghzvlwf,19,"[""Other""]",No,Female,NA,I'm not sure,834795,NA,null,<p></p>,null,choice,dct,trinary,repulsion_A,2,microwave ovens,null,null,null,null,null,null,2,NA,NA,NA,NA,NA,NA,NA,NA,NA,NA
NA,NA,NA,NA,NA,choice_trial,survey-html-form,89,623937,0.0-4.0-1.42,218,1,2025-05-06T00:46:42Z,b60275e29fe2361ab97ac0ac217840d7,"Mozilla/5.0 (Macintosh; Intel Mac OS X 10_15_7) AppleWebKit/537.36 (KHTML, like Gecko) Chrome/130.0.0.0 Safari/537.36",Macintosh,Chrome,130.0.0.0,OS X,10_15_7,https://5puzkbbxv1.cognition.run/?sona_id=57453,"en-US,en;q=0.9",pxuc4gp7ghzvlwf,19,"[""Other""]",No,Female,NA,I'm not sure,834795,NA,6530,NA,"{""product_choice"":""C""}",choice,dct,trinary,repulsion_A,2,microwave ovens,null,null,null,null,null,null,2,30,40,20,100,90,100,Warranty,Cooking power,NA,NA
NA,NA,NA,NA,NA,choice_trial_setup,html-keyboard-response,90,624240,0.0-4.0-0.43,218,1,2025-05-06T00:46:42Z,b60275e29fe2361ab97ac0ac217840d7,"Mozilla/5.0 (Macintosh; Intel Mac OS X 10_15_7) AppleWebKit/537.36 (KHTML, like Gecko) Chrome/130.0.0.0 Safari/537.36",Macintosh,Chrome,130.0.0.0,OS X,10_15_7,https://5puzkbbxv1.cognition.run/?sona_id=57453,"en-US,en;q=0.9",pxuc4gp7ghzvlwf,19,"[""Other""]",No,Female,NA,I'm not sure,834795,NA,null,<p></p>,null,choice,ct,binary,attraction,NA,washing machines,null,null,null,null,null,null,2,NA,NA,NA,NA,NA,NA,NA,NA,NA,NA
NA,NA,NA,NA,NA,choice_trial,survey-html-form,91,629238,0.0-4.0-1.43,218,1,2025-05-06T00:46:42Z,b60275e29fe2361ab97ac0ac217840d7,"Mozilla/5.0 (Macintosh; Intel Mac OS X 10_15_7) AppleWebKit/537.36 (KHTML, like Gecko) Chrome/130.0.0.0 Safari/537.36",Macintosh,Chrome,130.0.0.0,OS X,10_15_7,https://5puzkbbxv1.cognition.run/?sona_id=57453,"en-US,en;q=0.9",pxuc4gp7ghzvlwf,19,"[""Other""]",No,Female,NA,I'm not sure,834795,NA,4991,NA,"{""product_choice"":""A""}",choice,ct,binary,attraction,NA,washing machines,null,null,null,null,null,null,2,60,50,null,50,60,null,Average lifespan,Energy savings,NA,NA
NA,NA,NA,NA,NA,post_trials_message,html-button-response,92,630906,0.0-5.0,218,1,2025-05-06T00:46:42Z,b60275e29fe2361ab97ac0ac217840d7,"Mozilla/5.0 (Macintosh; Intel Mac OS X 10_15_7) AppleWebKit/537.36 (KHTML, like Gecko) Chrome/130.0.0.0 Safari/537.36",Macintosh,Chrome,130.0.0.0,OS X,10_15_7,https://5puzkbbxv1.cognition.run/?sona_id=57453,"en-US,en;q=0.9",pxuc4gp7ghzvlwf,19,"[""Other""]",No,Female,NA,I'm not sure,834795,NA,1665,<p> <b>Thank you for your patience!</b></p><p>  The study will be done after completing a brief form. </p>,0,NA,NA,NA,NA,NA,NA,NA,NA,NA,NA,NA,NA,NA,NA,NA,NA,NA,NA,NA,NA,NA,NA,NA
NA,NA,NA,NA,NA,survey_message,survey-text,93,775178,0.0-6.0,218,1,2025-05-06T00:46:42Z,b60275e29fe2361ab97ac0ac217840d7,"Mozilla/5.0 (Macintosh; Intel Mac OS X 10_15_7) AppleWebKit/537.36 (KHTML, like Gecko) Chrome/130.0.0.0 Safari/537.36",Macintosh,Chrome,130.0.0.0,OS X,10_15_7,https://5puzkbbxv1.cognition.run/?sona_id=57453,"en-US,en;q=0.9",pxuc4gp7ghzvlwf,19,"[""Other""]",No,Female,NA,I'm not sure,834795,NA,144270,NA,"{""Q0"":""I chose the products that I would want to be sold and I was thinking about how I would feel about each product if I was the one buying, and if I was the one selling I would pick the ratio that seems the best compared to the other products. ""}",NA,NA,NA,NA,NA,NA,NA,NA,NA,NA,NA,NA,NA,NA,NA,NA,NA,NA,NA,NA,NA,"I chose the products that I would want to be sold and I was thinking about how I would feel about each product if I was the one buying, and if I was the one selling I would pick the ratio that seems the best compared to the other products.",NA
NA,NA,NA,NA,NA,demo_age,survey-text,94,779768,0.0-7.0,218,1,2025-05-06T00:46:42Z,b60275e29fe2361ab97ac0ac217840d7,"Mozilla/5.0 (Macintosh; Intel Mac OS X 10_15_7) AppleWebKit/537.36 (KHTML, like Gecko) Chrome/130.0.0.0 Safari/537.36",Macintosh,Chrome,130.0.0.0,OS X,10_15_7,https://5puzkbbxv1.cognition.run/?sona_id=57453,"en-US,en;q=0.9",pxuc4gp7ghzvlwf,19,"[""Other""]",No,Female,NA,I'm not sure,834795,NA,4585,NA,"{""Q0"":""19""}",NA,NA,NA,NA,NA,NA,NA,NA,NA,NA,NA,NA,NA,NA,NA,NA,NA,NA,NA,NA,NA,NA,NA
NA,NA,NA,NA,NA,demo_race,survey-multi-select,95,783511,0.0-8.0,218,1,2025-05-06T00:46:42Z,b60275e29fe2361ab97ac0ac217840d7,"Mozilla/5.0 (Macintosh; Intel Mac OS X 10_15_7) AppleWebKit/537.36 (KHTML, like Gecko) Chrome/130.0.0.0 Safari/537.36",Macintosh,Chrome,130.0.0.0,OS X,10_15_7,https://5puzkbbxv1.cognition.run/?sona_id=57453,"en-US,en;q=0.9",pxuc4gp7ghzvlwf,19,"[""Other""]",No,Female,NA,I'm not sure,834795,NA,3739,NA,"{""Q0"":[""Other""]}",NA,NA,NA,NA,NA,NA,NA,NA,NA,NA,NA,NA,NA,NA,NA,NA,NA,NA,NA,NA,NA,NA,[0]
NA,NA,NA,NA,NA,demo_ethnicity_gender,survey-multi-choice,96,787574,0.0-9.0,218,1,2025-05-06T00:46:42Z,b60275e29fe2361ab97ac0ac217840d7,"Mozilla/5.0 (Macintosh; Intel Mac OS X 10_15_7) AppleWebKit/537.36 (KHTML, like Gecko) Chrome/130.0.0.0 Safari/537.36",Macintosh,Chrome,130.0.0.0,OS X,10_15_7,https://5puzkbbxv1.cognition.run/?sona_id=57453,"en-US,en;q=0.9",pxuc4gp7ghzvlwf,19,"[""Other""]",No,Female,NA,I'm not sure,834795,NA,4059,NA,"{""Q0"":""No"",""Q1"":""Female""}",NA,NA,NA,NA,NA,NA,NA,NA,NA,NA,NA,NA,NA,NA,NA,NA,NA,NA,NA,NA,NA,NA,"[0,1]"
NA,NA,NA,NA,NA,demo_countries,survey-text,97,797377,0.0-10.0,218,1,2025-05-06T00:46:42Z,b60275e29fe2361ab97ac0ac217840d7,"Mozilla/5.0 (Macintosh; Intel Mac OS X 10_15_7) AppleWebKit/537.36 (KHTML, like Gecko) Chrome/130.0.0.0 Safari/537.36",Macintosh,Chrome,130.0.0.0,OS X,10_15_7,https://5puzkbbxv1.cognition.run/?sona_id=57453,"en-US,en;q=0.9",pxuc4gp7ghzvlwf,19,"[""Other""]",No,Female,NA,I'm not sure,834795,NA,9793,NA,"{""Q0"":""NA""}",NA,NA,NA,NA,NA,NA,NA,NA,NA,NA,NA,NA,NA,NA,NA,NA,NA,NA,NA,NA,NA,NA,NA
NA,NA,NA,NA,NA,demo_prev_study,survey-multi-choice,98,810884,0.0-11.0,218,1,2025-05-06T00:46:42Z,b60275e29fe2361ab97ac0ac217840d7,"Mozilla/5.0 (Macintosh; Intel Mac OS X 10_15_7) AppleWebKit/537.36 (KHTML, like Gecko) Chrome/130.0.0.0 Safari/537.36",Macintosh,Chrome,130.0.0.0,OS X,10_15_7,https://5puzkbbxv1.cognition.run/?sona_id=57453,"en-US,en;q=0.9",pxuc4gp7ghzvlwf,19,"[""Other""]",No,Female,NA,I'm not sure,834795,NA,13502,NA,"{""Q0"":""I'm not sure""}",NA,NA,NA,NA,NA,NA,NA,NA,NA,NA,NA,NA,NA,NA,NA,NA,NA,NA,NA,NA,NA,NA,[0]
NA,NA,NA,NA,NA,post_survey_message,html-keyboard-response,99,816453,0.0-12.0,218,1,2025-05-06T00:46:42Z,b60275e29fe2361ab97ac0ac217840d7,"Mozilla/5.0 (Macintosh; Intel Mac OS X 10_15_7) AppleWebKit/537.36 (KHTML, like Gecko) Chrome/130.0.0.0 Safari/537.36",Macintosh,Chrome,130.0.0.0,OS X,10_15_7,https://5puzkbbxv1.cognition.run/?sona_id=57453,"en-US,en;q=0.9",pxuc4gp7ghzvlwf,19,"[""Other""]",No,Female,NA,I'm not sure,834795,NA,5566,NA,j,NA,NA,NA,NA,NA,NA,NA,NA,NA,NA,NA,NA,NA,NA,NA,NA,NA,NA,NA,NA,NA,NA,NA
NA,NA,NA,NA,NA,debrief,image-keyboard-response,100,834784,0.0-13.0,218,1,2025-05-06T00:46:42Z,b60275e29fe2361ab97ac0ac217840d7,"Mozilla/5.0 (Macintosh; Intel Mac OS X 10_15_7) AppleWebKit/537.36 (KHTML, like Gecko) Chrome/130.0.0.0 Safari/537.36",Macintosh,Chrome,130.0.0.0,OS X,10_15_7,https://5puzkbbxv1.cognition.run/?sona_id=57453,"en-US,en;q=0.9",pxuc4gp7ghzvlwf,19,"[""Other""]",No,Female,NA,I'm not sure,834795,NA,18323,Judg_choice_debrief.png,p,NA,NA,NA,NA,NA,NA,NA,NA,NA,NA,NA,NA,NA,NA,NA,NA,NA,NA,NA,NA,NA,NA,NA
