success,timeout,failed_images,failed_audio,failed_video,screen_id,trial_type,trial_index,time_elapsed,internal_node_id,run_id,condition,recorded_at,source_code_version,user_agent,device,browser,browser_version,platform,platform_version,referer,accept_language,ppt_id,age,race,ethnicity,gender,other_countries,prev_study,exp_duration,view_history,rt,stimulus,response,phase,order,set,effect,t_high,category,d1_best,d2_best,d1_worst1,d2_worst1,d1_worst2,d2_worst2,first_dim,d1_t,d1_c,d1_d,d2_t,d2_c,d2_d,d1_name,d2_name,strategy_response,question_order
TRUE,FALSE,[],[],[],img preload,preload,0,290,0.0-0.0,219,1,2025-05-06T00:47:19Z,b60275e29fe2361ab97ac0ac217840d7,"Mozilla/5.0 (Macintosh; Intel Mac OS X 10_15_7) AppleWebKit/537.36 (KHTML, like Gecko) Chrome/116.0.0.0 Safari/537.36",Macintosh,Chrome,116.0.0.0,OS X,10_15_7,https://5puzkbbxv1.cognition.run/?sona_id=56954,"en-US,en;q=0.9",2uzd8gtk4ovmqjj,20,"[""White""]",No,Female,NA,No,373847.1000000015,NA,NA,NA,NA,NA,NA,NA,NA,NA,NA,NA,NA,NA,NA,NA,NA,NA,NA,NA,NA,NA,NA,NA,NA,NA,NA,NA
NA,NA,NA,NA,NA,computer_message,instructions,1,2532,0.0-1.0,219,1,2025-05-06T00:47:19Z,b60275e29fe2361ab97ac0ac217840d7,"Mozilla/5.0 (Macintosh; Intel Mac OS X 10_15_7) AppleWebKit/537.36 (KHTML, like Gecko) Chrome/116.0.0.0 Safari/537.36",Macintosh,Chrome,116.0.0.0,OS X,10_15_7,https://5puzkbbxv1.cognition.run/?sona_id=56954,"en-US,en;q=0.9",2uzd8gtk4ovmqjj,20,"[""White""]",No,Female,NA,No,373847.1000000015,"[{""page_index"":0,""viewing_time"":2240}]",2241,NA,NA,NA,NA,NA,NA,NA,NA,NA,NA,NA,NA,NA,NA,NA,NA,NA,NA,NA,NA,NA,NA,NA,NA,NA
TRUE,NA,NA,NA,NA,NA,fullscreen,2,4364,0.0-2.0,219,1,2025-05-06T00:47:19Z,b60275e29fe2361ab97ac0ac217840d7,"Mozilla/5.0 (Macintosh; Intel Mac OS X 10_15_7) AppleWebKit/537.36 (KHTML, like Gecko) Chrome/116.0.0.0 Safari/537.36",Macintosh,Chrome,116.0.0.0,OS X,10_15_7,https://5puzkbbxv1.cognition.run/?sona_id=56954,"en-US,en;q=0.9",2uzd8gtk4ovmqjj,20,"[""White""]",No,Female,NA,No,373847.1000000015,NA,827,NA,NA,NA,NA,NA,NA,NA,NA,NA,NA,NA,NA,NA,NA,NA,NA,NA,NA,NA,NA,NA,NA,NA,NA,NA
NA,NA,NA,NA,NA,choice_instructions,instructions,3,36447,0.0-3.0,219,1,2025-05-06T00:47:19Z,b60275e29fe2361ab97ac0ac217840d7,"Mozilla/5.0 (Macintosh; Intel Mac OS X 10_15_7) AppleWebKit/537.36 (KHTML, like Gecko) Chrome/116.0.0.0 Safari/537.36",Macintosh,Chrome,116.0.0.0,OS X,10_15_7,https://5puzkbbxv1.cognition.run/?sona_id=56954,"en-US,en;q=0.9",2uzd8gtk4ovmqjj,20,"[""White""]",No,Female,NA,No,373847.1000000015,"[{""page_index"":0,""viewing_time"":2082},{""page_index"":1,""viewing_time"":1487},{""page_index"":2,""viewing_time"":5782},{""page_index"":3,""viewing_time"":1332},{""page_index"":4,""viewing_time"":1169},{""page_index"":5,""viewing_time"":18687},{""page_index"":6,""viewing_time"":1542}]",32080,NA,NA,NA,NA,NA,NA,NA,NA,NA,NA,NA,NA,NA,NA,NA,NA,NA,NA,NA,NA,NA,NA,NA,NA,NA
NA,NA,NA,NA,NA,choice_trial_setup,html-keyboard-response,4,36760,0.0-4.0-0.0,219,1,2025-05-06T00:47:19Z,b60275e29fe2361ab97ac0ac217840d7,"Mozilla/5.0 (Macintosh; Intel Mac OS X 10_15_7) AppleWebKit/537.36 (KHTML, like Gecko) Chrome/116.0.0.0 Safari/537.36",Macintosh,Chrome,116.0.0.0,OS X,10_15_7,https://5puzkbbxv1.cognition.run/?sona_id=56954,"en-US,en;q=0.9",2uzd8gtk4ovmqjj,20,"[""White""]",No,Female,NA,No,373847.1000000015,NA,null,<p></p>,null,choice,ct,binary,repulsion,2,televisions,null,null,null,null,null,null,1,NA,NA,NA,NA,NA,NA,NA,NA,NA,NA
NA,NA,NA,NA,NA,choice_trial,survey-html-form,5,46581,0.0-4.0-1.0,219,1,2025-05-06T00:47:19Z,b60275e29fe2361ab97ac0ac217840d7,"Mozilla/5.0 (Macintosh; Intel Mac OS X 10_15_7) AppleWebKit/537.36 (KHTML, like Gecko) Chrome/116.0.0.0 Safari/537.36",Macintosh,Chrome,116.0.0.0,OS X,10_15_7,https://5puzkbbxv1.cognition.run/?sona_id=56954,"en-US,en;q=0.9",2uzd8gtk4ovmqjj,20,"[""White""]",No,Female,NA,No,373847.1000000015,NA,9815,NA,"{""product_choice"":""A""}",choice,ct,binary,repulsion,2,televisions,null,null,null,null,null,null,1,30,40,null,100,90,null,Screen size,Average lifespan,NA,NA
NA,NA,NA,NA,NA,choice_trial_setup,html-keyboard-response,6,46888,0.0-4.0-0.1,219,1,2025-05-06T00:47:19Z,b60275e29fe2361ab97ac0ac217840d7,"Mozilla/5.0 (Macintosh; Intel Mac OS X 10_15_7) AppleWebKit/537.36 (KHTML, like Gecko) Chrome/116.0.0.0 Safari/537.36",Macintosh,Chrome,116.0.0.0,OS X,10_15_7,https://5puzkbbxv1.cognition.run/?sona_id=56954,"en-US,en;q=0.9",2uzd8gtk4ovmqjj,20,"[""White""]",No,Female,NA,No,373847.1000000015,NA,null,<p></p>,null,choice,tcd,trinary,repulsion_A,1,televisions,null,null,null,null,null,null,2,NA,NA,NA,NA,NA,NA,NA,NA,NA,NA
NA,NA,NA,NA,NA,choice_trial,survey-html-form,7,53573,0.0-4.0-1.1,219,1,2025-05-06T00:47:19Z,b60275e29fe2361ab97ac0ac217840d7,"Mozilla/5.0 (Macintosh; Intel Mac OS X 10_15_7) AppleWebKit/537.36 (KHTML, like Gecko) Chrome/116.0.0.0 Safari/537.36",Macintosh,Chrome,116.0.0.0,OS X,10_15_7,https://5puzkbbxv1.cognition.run/?sona_id=56954,"en-US,en;q=0.9",2uzd8gtk4ovmqjj,20,"[""White""]",No,Female,NA,No,373847.1000000015,NA,6682,NA,"{""product_choice"":""B""}",choice,tcd,trinary,repulsion_A,1,televisions,null,null,null,null,null,null,2,100,90,100,30,40,20,Screen size,Average lifespan,NA,NA
NA,NA,NA,NA,NA,choice_trial_setup,html-keyboard-response,8,53881,0.0-4.0-0.2,219,1,2025-05-06T00:47:19Z,b60275e29fe2361ab97ac0ac217840d7,"Mozilla/5.0 (Macintosh; Intel Mac OS X 10_15_7) AppleWebKit/537.36 (KHTML, like Gecko) Chrome/116.0.0.0 Safari/537.36",Macintosh,Chrome,116.0.0.0,OS X,10_15_7,https://5puzkbbxv1.cognition.run/?sona_id=56954,"en-US,en;q=0.9",2uzd8gtk4ovmqjj,20,"[""White""]",No,Female,NA,No,373847.1000000015,NA,null,<p></p>,null,choice,tcd,trinary,attraction,1,laptops,null,null,null,null,null,null,2,NA,NA,NA,NA,NA,NA,NA,NA,NA,NA
NA,NA,NA,NA,NA,choice_trial,survey-html-form,9,64228,0.0-4.0-1.2,219,1,2025-05-06T00:47:19Z,b60275e29fe2361ab97ac0ac217840d7,"Mozilla/5.0 (Macintosh; Intel Mac OS X 10_15_7) AppleWebKit/537.36 (KHTML, like Gecko) Chrome/116.0.0.0 Safari/537.36",Macintosh,Chrome,116.0.0.0,OS X,10_15_7,https://5puzkbbxv1.cognition.run/?sona_id=56954,"en-US,en;q=0.9",2uzd8gtk4ovmqjj,20,"[""White""]",No,Female,NA,No,373847.1000000015,NA,10344,NA,"{""product_choice"":""C""}",choice,tcd,trinary,attraction,1,laptops,null,null,null,null,null,null,2,60,50,60,50,60,40,Processing speed,Memory (RAM),NA,NA
NA,NA,NA,NA,NA,choice_trial_setup,html-keyboard-response,10,64537,0.0-4.0-0.3,219,1,2025-05-06T00:47:19Z,b60275e29fe2361ab97ac0ac217840d7,"Mozilla/5.0 (Macintosh; Intel Mac OS X 10_15_7) AppleWebKit/537.36 (KHTML, like Gecko) Chrome/116.0.0.0 Safari/537.36",Macintosh,Chrome,116.0.0.0,OS X,10_15_7,https://5puzkbbxv1.cognition.run/?sona_id=56954,"en-US,en;q=0.9",2uzd8gtk4ovmqjj,20,"[""White""]",No,Female,NA,No,373847.1000000015,NA,null,<p></p>,null,choice,tdc,trinary,attraction,1,washing machines,null,null,null,null,null,null,1,NA,NA,NA,NA,NA,NA,NA,NA,NA,NA
NA,NA,NA,NA,NA,choice_trial,survey-html-form,11,99146,0.0-4.0-1.3,219,1,2025-05-06T00:47:19Z,b60275e29fe2361ab97ac0ac217840d7,"Mozilla/5.0 (Macintosh; Intel Mac OS X 10_15_7) AppleWebKit/537.36 (KHTML, like Gecko) Chrome/116.0.0.0 Safari/537.36",Macintosh,Chrome,116.0.0.0,OS X,10_15_7,https://5puzkbbxv1.cognition.run/?sona_id=56954,"en-US,en;q=0.9",2uzd8gtk4ovmqjj,20,"[""White""]",No,Female,NA,No,373847.1000000015,NA,34605,NA,"{""product_choice"":""A""}",choice,tdc,trinary,attraction,1,washing machines,null,null,null,null,null,null,1,60,50,60,50,60,40,Average lifespan,Energy savings,NA,NA
NA,NA,NA,NA,NA,choice_trial_setup,html-keyboard-response,12,99455,0.0-4.0-0.4,219,1,2025-05-06T00:47:19Z,b60275e29fe2361ab97ac0ac217840d7,"Mozilla/5.0 (Macintosh; Intel Mac OS X 10_15_7) AppleWebKit/537.36 (KHTML, like Gecko) Chrome/116.0.0.0 Safari/537.36",Macintosh,Chrome,116.0.0.0,OS X,10_15_7,https://5puzkbbxv1.cognition.run/?sona_id=56954,"en-US,en;q=0.9",2uzd8gtk4ovmqjj,20,"[""White""]",No,Female,NA,No,373847.1000000015,NA,null,<p></p>,null,choice,ct,binary,repulsion,1,televisions,null,null,null,null,null,null,1,NA,NA,NA,NA,NA,NA,NA,NA,NA,NA
NA,NA,NA,NA,NA,choice_trial,survey-html-form,13,103150,0.0-4.0-1.4,219,1,2025-05-06T00:47:19Z,b60275e29fe2361ab97ac0ac217840d7,"Mozilla/5.0 (Macintosh; Intel Mac OS X 10_15_7) AppleWebKit/537.36 (KHTML, like Gecko) Chrome/116.0.0.0 Safari/537.36",Macintosh,Chrome,116.0.0.0,OS X,10_15_7,https://5puzkbbxv1.cognition.run/?sona_id=56954,"en-US,en;q=0.9",2uzd8gtk4ovmqjj,20,"[""White""]",No,Female,NA,No,373847.1000000015,NA,3691,NA,"{""product_choice"":""A""}",choice,ct,binary,repulsion,1,televisions,null,null,null,null,null,null,1,100,90,null,30,40,null,Screen size,Average lifespan,NA,NA
NA,NA,NA,NA,NA,choice_trial_setup,html-keyboard-response,14,103456,0.0-4.0-0.5,219,1,2025-05-06T00:47:19Z,b60275e29fe2361ab97ac0ac217840d7,"Mozilla/5.0 (Macintosh; Intel Mac OS X 10_15_7) AppleWebKit/537.36 (KHTML, like Gecko) Chrome/116.0.0.0 Safari/537.36",Macintosh,Chrome,116.0.0.0,OS X,10_15_7,https://5puzkbbxv1.cognition.run/?sona_id=56954,"en-US,en;q=0.9",2uzd8gtk4ovmqjj,20,"[""White""]",No,Female,NA,No,373847.1000000015,NA,null,<p></p>,null,choice,wbw,trinary,catch,null,washing machines,70,60,35,20,5,10,2,NA,NA,NA,NA,NA,NA,NA,NA,NA,NA
NA,NA,NA,NA,NA,choice_trial,survey-html-form,15,118446,0.0-4.0-1.5,219,1,2025-05-06T00:47:19Z,b60275e29fe2361ab97ac0ac217840d7,"Mozilla/5.0 (Macintosh; Intel Mac OS X 10_15_7) AppleWebKit/537.36 (KHTML, like Gecko) Chrome/116.0.0.0 Safari/537.36",Macintosh,Chrome,116.0.0.0,OS X,10_15_7,https://5puzkbbxv1.cognition.run/?sona_id=56954,"en-US,en;q=0.9",2uzd8gtk4ovmqjj,20,"[""White""]",No,Female,NA,No,373847.1000000015,NA,14984,NA,"{""product_choice"":""B""}",choice,wbw,trinary,catch,null,washing machines,70,60,35,20,5,10,2,null,null,null,null,null,null,Average lifespan,Energy savings,NA,NA
NA,NA,NA,NA,NA,choice_trial_setup,html-keyboard-response,16,118752,0.0-4.0-0.6,219,1,2025-05-06T00:47:19Z,b60275e29fe2361ab97ac0ac217840d7,"Mozilla/5.0 (Macintosh; Intel Mac OS X 10_15_7) AppleWebKit/537.36 (KHTML, like Gecko) Chrome/116.0.0.0 Safari/537.36",Macintosh,Chrome,116.0.0.0,OS X,10_15_7,https://5puzkbbxv1.cognition.run/?sona_id=56954,"en-US,en;q=0.9",2uzd8gtk4ovmqjj,20,"[""White""]",No,Female,NA,No,373847.1000000015,NA,null,<p></p>,null,choice,bww,trinary,catch,null,microwave ovens,80,70,15,5,5,15,2,NA,NA,NA,NA,NA,NA,NA,NA,NA,NA
NA,NA,NA,NA,NA,choice_trial,survey-html-form,17,121085,0.0-4.0-1.6,219,1,2025-05-06T00:47:19Z,b60275e29fe2361ab97ac0ac217840d7,"Mozilla/5.0 (Macintosh; Intel Mac OS X 10_15_7) AppleWebKit/537.36 (KHTML, like Gecko) Chrome/116.0.0.0 Safari/537.36",Macintosh,Chrome,116.0.0.0,OS X,10_15_7,https://5puzkbbxv1.cognition.run/?sona_id=56954,"en-US,en;q=0.9",2uzd8gtk4ovmqjj,20,"[""White""]",No,Female,NA,No,373847.1000000015,NA,2328,NA,"{""product_choice"":""B""}",choice,bww,trinary,catch,null,microwave ovens,80,70,15,5,5,15,2,null,null,null,null,null,null,Warranty,Cooking power,NA,NA
NA,NA,NA,NA,NA,choice_trial_setup,html-keyboard-response,18,121392,0.0-4.0-0.7,219,1,2025-05-06T00:47:19Z,b60275e29fe2361ab97ac0ac217840d7,"Mozilla/5.0 (Macintosh; Intel Mac OS X 10_15_7) AppleWebKit/537.36 (KHTML, like Gecko) Chrome/116.0.0.0 Safari/537.36",Macintosh,Chrome,116.0.0.0,OS X,10_15_7,https://5puzkbbxv1.cognition.run/?sona_id=56954,"en-US,en;q=0.9",2uzd8gtk4ovmqjj,20,"[""White""]",No,Female,NA,No,373847.1000000015,NA,null,<p></p>,null,choice,ctd,trinary,repulsion_A,1,washing machines,null,null,null,null,null,null,2,NA,NA,NA,NA,NA,NA,NA,NA,NA,NA
NA,NA,NA,NA,NA,choice_trial,survey-html-form,19,127656,0.0-4.0-1.7,219,1,2025-05-06T00:47:19Z,b60275e29fe2361ab97ac0ac217840d7,"Mozilla/5.0 (Macintosh; Intel Mac OS X 10_15_7) AppleWebKit/537.36 (KHTML, like Gecko) Chrome/116.0.0.0 Safari/537.36",Macintosh,Chrome,116.0.0.0,OS X,10_15_7,https://5puzkbbxv1.cognition.run/?sona_id=56954,"en-US,en;q=0.9",2uzd8gtk4ovmqjj,20,"[""White""]",No,Female,NA,No,373847.1000000015,NA,6260,NA,"{""product_choice"":""B""}",choice,ctd,trinary,repulsion_A,1,washing machines,null,null,null,null,null,null,2,100,90,100,30,40,20,Average lifespan,Energy savings,NA,NA
NA,NA,NA,NA,NA,choice_trial_setup,html-keyboard-response,20,127962,0.0-4.0-0.8,219,1,2025-05-06T00:47:19Z,b60275e29fe2361ab97ac0ac217840d7,"Mozilla/5.0 (Macintosh; Intel Mac OS X 10_15_7) AppleWebKit/537.36 (KHTML, like Gecko) Chrome/116.0.0.0 Safari/537.36",Macintosh,Chrome,116.0.0.0,OS X,10_15_7,https://5puzkbbxv1.cognition.run/?sona_id=56954,"en-US,en;q=0.9",2uzd8gtk4ovmqjj,20,"[""White""]",No,Female,NA,No,373847.1000000015,NA,null,<p></p>,null,choice,cdt,trinary,attraction,2,microwave ovens,null,null,null,null,null,null,2,NA,NA,NA,NA,NA,NA,NA,NA,NA,NA
NA,NA,NA,NA,NA,choice_trial,survey-html-form,21,131229,0.0-4.0-1.8,219,1,2025-05-06T00:47:19Z,b60275e29fe2361ab97ac0ac217840d7,"Mozilla/5.0 (Macintosh; Intel Mac OS X 10_15_7) AppleWebKit/537.36 (KHTML, like Gecko) Chrome/116.0.0.0 Safari/537.36",Macintosh,Chrome,116.0.0.0,OS X,10_15_7,https://5puzkbbxv1.cognition.run/?sona_id=56954,"en-US,en;q=0.9",2uzd8gtk4ovmqjj,20,"[""White""]",No,Female,NA,No,373847.1000000015,NA,3263,NA,"{""product_choice"":""C""}",choice,cdt,trinary,attraction,2,microwave ovens,null,null,null,null,null,null,2,50,60,40,60,50,60,Warranty,Cooking power,NA,NA
NA,NA,NA,NA,NA,choice_trial_setup,html-keyboard-response,22,131536,0.0-4.0-0.9,219,1,2025-05-06T00:47:19Z,b60275e29fe2361ab97ac0ac217840d7,"Mozilla/5.0 (Macintosh; Intel Mac OS X 10_15_7) AppleWebKit/537.36 (KHTML, like Gecko) Chrome/116.0.0.0 Safari/537.36",Macintosh,Chrome,116.0.0.0,OS X,10_15_7,https://5puzkbbxv1.cognition.run/?sona_id=56954,"en-US,en;q=0.9",2uzd8gtk4ovmqjj,20,"[""White""]",No,Female,NA,No,373847.1000000015,NA,null,<p></p>,null,choice,cdt,trinary,repulsion_A,1,microwave ovens,null,null,null,null,null,null,2,NA,NA,NA,NA,NA,NA,NA,NA,NA,NA
NA,NA,NA,NA,NA,choice_trial,survey-html-form,23,135981,0.0-4.0-1.9,219,1,2025-05-06T00:47:19Z,b60275e29fe2361ab97ac0ac217840d7,"Mozilla/5.0 (Macintosh; Intel Mac OS X 10_15_7) AppleWebKit/537.36 (KHTML, like Gecko) Chrome/116.0.0.0 Safari/537.36",Macintosh,Chrome,116.0.0.0,OS X,10_15_7,https://5puzkbbxv1.cognition.run/?sona_id=56954,"en-US,en;q=0.9",2uzd8gtk4ovmqjj,20,"[""White""]",No,Female,NA,No,373847.1000000015,NA,4440,NA,"{""product_choice"":""C""}",choice,cdt,trinary,repulsion_A,1,microwave ovens,null,null,null,null,null,null,2,100,90,100,30,40,20,Warranty,Cooking power,NA,NA
NA,NA,NA,NA,NA,choice_trial_setup,html-keyboard-response,24,136288,0.0-4.0-0.10,219,1,2025-05-06T00:47:19Z,b60275e29fe2361ab97ac0ac217840d7,"Mozilla/5.0 (Macintosh; Intel Mac OS X 10_15_7) AppleWebKit/537.36 (KHTML, like Gecko) Chrome/116.0.0.0 Safari/537.36",Macintosh,Chrome,116.0.0.0,OS X,10_15_7,https://5puzkbbxv1.cognition.run/?sona_id=56954,"en-US,en;q=0.9",2uzd8gtk4ovmqjj,20,"[""White""]",No,Female,NA,No,373847.1000000015,NA,null,<p></p>,null,choice,cdt,trinary,repulsion_B,1,washing machines,null,null,null,null,null,null,1,NA,NA,NA,NA,NA,NA,NA,NA,NA,NA
NA,NA,NA,NA,NA,choice_trial,survey-html-form,25,141284,0.0-4.0-1.10,219,1,2025-05-06T00:47:19Z,b60275e29fe2361ab97ac0ac217840d7,"Mozilla/5.0 (Macintosh; Intel Mac OS X 10_15_7) AppleWebKit/537.36 (KHTML, like Gecko) Chrome/116.0.0.0 Safari/537.36",Macintosh,Chrome,116.0.0.0,OS X,10_15_7,https://5puzkbbxv1.cognition.run/?sona_id=56954,"en-US,en;q=0.9",2uzd8gtk4ovmqjj,20,"[""White""]",No,Female,NA,No,373847.1000000015,NA,4991,NA,"{""product_choice"":""C""}",choice,cdt,trinary,repulsion_B,1,washing machines,null,null,null,null,null,null,1,90,100,80,40,30,40,Average lifespan,Energy savings,NA,NA
NA,NA,NA,NA,NA,choice_trial_setup,html-keyboard-response,26,141595,0.0-4.0-0.11,219,1,2025-05-06T00:47:19Z,b60275e29fe2361ab97ac0ac217840d7,"Mozilla/5.0 (Macintosh; Intel Mac OS X 10_15_7) AppleWebKit/537.36 (KHTML, like Gecko) Chrome/116.0.0.0 Safari/537.36",Macintosh,Chrome,116.0.0.0,OS X,10_15_7,https://5puzkbbxv1.cognition.run/?sona_id=56954,"en-US,en;q=0.9",2uzd8gtk4ovmqjj,20,"[""White""]",No,Female,NA,No,373847.1000000015,NA,null,<p></p>,null,choice,tdc,trinary,repulsion_A,2,washing machines,null,null,null,null,null,null,2,NA,NA,NA,NA,NA,NA,NA,NA,NA,NA
NA,NA,NA,NA,NA,choice_trial,survey-html-form,27,152694,0.0-4.0-1.11,219,1,2025-05-06T00:47:19Z,b60275e29fe2361ab97ac0ac217840d7,"Mozilla/5.0 (Macintosh; Intel Mac OS X 10_15_7) AppleWebKit/537.36 (KHTML, like Gecko) Chrome/116.0.0.0 Safari/537.36",Macintosh,Chrome,116.0.0.0,OS X,10_15_7,https://5puzkbbxv1.cognition.run/?sona_id=56954,"en-US,en;q=0.9",2uzd8gtk4ovmqjj,20,"[""White""]",No,Female,NA,No,373847.1000000015,NA,11095,NA,"{""product_choice"":""C""}",choice,tdc,trinary,repulsion_A,2,washing machines,null,null,null,null,null,null,2,30,40,20,100,90,100,Average lifespan,Energy savings,NA,NA
NA,NA,NA,NA,NA,choice_trial_setup,html-keyboard-response,28,153003,0.0-4.0-0.12,219,1,2025-05-06T00:47:19Z,b60275e29fe2361ab97ac0ac217840d7,"Mozilla/5.0 (Macintosh; Intel Mac OS X 10_15_7) AppleWebKit/537.36 (KHTML, like Gecko) Chrome/116.0.0.0 Safari/537.36",Macintosh,Chrome,116.0.0.0,OS X,10_15_7,https://5puzkbbxv1.cognition.run/?sona_id=56954,"en-US,en;q=0.9",2uzd8gtk4ovmqjj,20,"[""White""]",No,Female,NA,No,373847.1000000015,NA,null,<p></p>,null,choice,dct,trinary,repulsion_B,2,televisions,null,null,null,null,null,null,1,NA,NA,NA,NA,NA,NA,NA,NA,NA,NA
NA,NA,NA,NA,NA,choice_trial,survey-html-form,29,159548,0.0-4.0-1.12,219,1,2025-05-06T00:47:19Z,b60275e29fe2361ab97ac0ac217840d7,"Mozilla/5.0 (Macintosh; Intel Mac OS X 10_15_7) AppleWebKit/537.36 (KHTML, like Gecko) Chrome/116.0.0.0 Safari/537.36",Macintosh,Chrome,116.0.0.0,OS X,10_15_7,https://5puzkbbxv1.cognition.run/?sona_id=56954,"en-US,en;q=0.9",2uzd8gtk4ovmqjj,20,"[""White""]",No,Female,NA,No,373847.1000000015,NA,6541,NA,"{""product_choice"":""B""}",choice,dct,trinary,repulsion_B,2,televisions,null,null,null,null,null,null,1,40,30,40,90,100,80,Screen size,Average lifespan,NA,NA
NA,NA,NA,NA,NA,choice_trial_setup,html-keyboard-response,30,159857,0.0-4.0-0.13,219,1,2025-05-06T00:47:19Z,b60275e29fe2361ab97ac0ac217840d7,"Mozilla/5.0 (Macintosh; Intel Mac OS X 10_15_7) AppleWebKit/537.36 (KHTML, like Gecko) Chrome/116.0.0.0 Safari/537.36",Macintosh,Chrome,116.0.0.0,OS X,10_15_7,https://5puzkbbxv1.cognition.run/?sona_id=56954,"en-US,en;q=0.9",2uzd8gtk4ovmqjj,20,"[""White""]",No,Female,NA,No,373847.1000000015,NA,null,<p></p>,null,choice,wb,binary,catch,null,washing machines,65,60,30,50,null,null,2,NA,NA,NA,NA,NA,NA,NA,NA,NA,NA
NA,NA,NA,NA,NA,choice_trial,survey-html-form,31,162918,0.0-4.0-1.13,219,1,2025-05-06T00:47:19Z,b60275e29fe2361ab97ac0ac217840d7,"Mozilla/5.0 (Macintosh; Intel Mac OS X 10_15_7) AppleWebKit/537.36 (KHTML, like Gecko) Chrome/116.0.0.0 Safari/537.36",Macintosh,Chrome,116.0.0.0,OS X,10_15_7,https://5puzkbbxv1.cognition.run/?sona_id=56954,"en-US,en;q=0.9",2uzd8gtk4ovmqjj,20,"[""White""]",No,Female,NA,No,373847.1000000015,NA,3056,NA,"{""product_choice"":""B""}",choice,wb,binary,catch,null,washing machines,65,60,30,50,null,null,2,null,null,null,null,null,null,Average lifespan,Energy savings,NA,NA
NA,NA,NA,NA,NA,choice_trial_setup,html-keyboard-response,32,163228,0.0-4.0-0.14,219,1,2025-05-06T00:47:19Z,b60275e29fe2361ab97ac0ac217840d7,"Mozilla/5.0 (Macintosh; Intel Mac OS X 10_15_7) AppleWebKit/537.36 (KHTML, like Gecko) Chrome/116.0.0.0 Safari/537.36",Macintosh,Chrome,116.0.0.0,OS X,10_15_7,https://5puzkbbxv1.cognition.run/?sona_id=56954,"en-US,en;q=0.9",2uzd8gtk4ovmqjj,20,"[""White""]",No,Female,NA,No,373847.1000000015,NA,null,<p></p>,null,choice,dtc,trinary,attraction,2,televisions,null,null,null,null,null,null,1,NA,NA,NA,NA,NA,NA,NA,NA,NA,NA
NA,NA,NA,NA,NA,choice_trial,survey-html-form,33,165549,0.0-4.0-1.14,219,1,2025-05-06T00:47:19Z,b60275e29fe2361ab97ac0ac217840d7,"Mozilla/5.0 (Macintosh; Intel Mac OS X 10_15_7) AppleWebKit/537.36 (KHTML, like Gecko) Chrome/116.0.0.0 Safari/537.36",Macintosh,Chrome,116.0.0.0,OS X,10_15_7,https://5puzkbbxv1.cognition.run/?sona_id=56954,"en-US,en;q=0.9",2uzd8gtk4ovmqjj,20,"[""White""]",No,Female,NA,No,373847.1000000015,NA,2318,NA,"{""product_choice"":""B""}",choice,dtc,trinary,attraction,2,televisions,null,null,null,null,null,null,1,50,60,40,60,50,60,Screen size,Average lifespan,NA,NA
NA,NA,NA,NA,NA,choice_trial_setup,html-keyboard-response,34,165857,0.0-4.0-0.15,219,1,2025-05-06T00:47:19Z,b60275e29fe2361ab97ac0ac217840d7,"Mozilla/5.0 (Macintosh; Intel Mac OS X 10_15_7) AppleWebKit/537.36 (KHTML, like Gecko) Chrome/116.0.0.0 Safari/537.36",Macintosh,Chrome,116.0.0.0,OS X,10_15_7,https://5puzkbbxv1.cognition.run/?sona_id=56954,"en-US,en;q=0.9",2uzd8gtk4ovmqjj,20,"[""White""]",No,Female,NA,No,373847.1000000015,NA,null,<p></p>,null,choice,tc,binary,attraction,NA,washing machines,null,null,null,null,null,null,2,NA,NA,NA,NA,NA,NA,NA,NA,NA,NA
NA,NA,NA,NA,NA,choice_trial,survey-html-form,35,168904,0.0-4.0-1.15,219,1,2025-05-06T00:47:19Z,b60275e29fe2361ab97ac0ac217840d7,"Mozilla/5.0 (Macintosh; Intel Mac OS X 10_15_7) AppleWebKit/537.36 (KHTML, like Gecko) Chrome/116.0.0.0 Safari/537.36",Macintosh,Chrome,116.0.0.0,OS X,10_15_7,https://5puzkbbxv1.cognition.run/?sona_id=56954,"en-US,en;q=0.9",2uzd8gtk4ovmqjj,20,"[""White""]",No,Female,NA,No,373847.1000000015,NA,3042,NA,"{""product_choice"":""A""}",choice,tc,binary,attraction,NA,washing machines,null,null,null,null,null,null,2,60,50,null,50,60,null,Average lifespan,Energy savings,NA,NA
NA,NA,NA,NA,NA,choice_trial_setup,html-keyboard-response,36,169211,0.0-4.0-0.16,219,1,2025-05-06T00:47:19Z,b60275e29fe2361ab97ac0ac217840d7,"Mozilla/5.0 (Macintosh; Intel Mac OS X 10_15_7) AppleWebKit/537.36 (KHTML, like Gecko) Chrome/116.0.0.0 Safari/537.36",Macintosh,Chrome,116.0.0.0,OS X,10_15_7,https://5puzkbbxv1.cognition.run/?sona_id=56954,"en-US,en;q=0.9",2uzd8gtk4ovmqjj,20,"[""White""]",No,Female,NA,No,373847.1000000015,NA,null,<p></p>,null,choice,cdt,trinary,repulsion_A,2,microwave ovens,null,null,null,null,null,null,1,NA,NA,NA,NA,NA,NA,NA,NA,NA,NA
NA,NA,NA,NA,NA,choice_trial,survey-html-form,37,173329,0.0-4.0-1.16,219,1,2025-05-06T00:47:19Z,b60275e29fe2361ab97ac0ac217840d7,"Mozilla/5.0 (Macintosh; Intel Mac OS X 10_15_7) AppleWebKit/537.36 (KHTML, like Gecko) Chrome/116.0.0.0 Safari/537.36",Macintosh,Chrome,116.0.0.0,OS X,10_15_7,https://5puzkbbxv1.cognition.run/?sona_id=56954,"en-US,en;q=0.9",2uzd8gtk4ovmqjj,20,"[""White""]",No,Female,NA,No,373847.1000000015,NA,4113,NA,"{""product_choice"":""C""}",choice,cdt,trinary,repulsion_A,2,microwave ovens,null,null,null,null,null,null,1,30,40,20,100,90,100,Warranty,Cooking power,NA,NA
NA,NA,NA,NA,NA,choice_trial_setup,html-keyboard-response,38,173644,0.0-4.0-0.17,219,1,2025-05-06T00:47:19Z,b60275e29fe2361ab97ac0ac217840d7,"Mozilla/5.0 (Macintosh; Intel Mac OS X 10_15_7) AppleWebKit/537.36 (KHTML, like Gecko) Chrome/116.0.0.0 Safari/537.36",Macintosh,Chrome,116.0.0.0,OS X,10_15_7,https://5puzkbbxv1.cognition.run/?sona_id=56954,"en-US,en;q=0.9",2uzd8gtk4ovmqjj,20,"[""White""]",No,Female,NA,No,373847.1000000015,NA,null,<p></p>,null,choice,tc,binary,repulsion,2,laptops,null,null,null,null,null,null,1,NA,NA,NA,NA,NA,NA,NA,NA,NA,NA
NA,NA,NA,NA,NA,choice_trial,survey-html-form,39,177706,0.0-4.0-1.17,219,1,2025-05-06T00:47:19Z,b60275e29fe2361ab97ac0ac217840d7,"Mozilla/5.0 (Macintosh; Intel Mac OS X 10_15_7) AppleWebKit/537.36 (KHTML, like Gecko) Chrome/116.0.0.0 Safari/537.36",Macintosh,Chrome,116.0.0.0,OS X,10_15_7,https://5puzkbbxv1.cognition.run/?sona_id=56954,"en-US,en;q=0.9",2uzd8gtk4ovmqjj,20,"[""White""]",No,Female,NA,No,373847.1000000015,NA,4057,NA,"{""product_choice"":""A""}",choice,tc,binary,repulsion,2,laptops,null,null,null,null,null,null,1,30,40,null,100,90,null,Processing speed,Memory (RAM),NA,NA
NA,NA,NA,NA,NA,choice_trial_setup,html-keyboard-response,40,178019,0.0-4.0-0.18,219,1,2025-05-06T00:47:19Z,b60275e29fe2361ab97ac0ac217840d7,"Mozilla/5.0 (Macintosh; Intel Mac OS X 10_15_7) AppleWebKit/537.36 (KHTML, like Gecko) Chrome/116.0.0.0 Safari/537.36",Macintosh,Chrome,116.0.0.0,OS X,10_15_7,https://5puzkbbxv1.cognition.run/?sona_id=56954,"en-US,en;q=0.9",2uzd8gtk4ovmqjj,20,"[""White""]",No,Female,NA,No,373847.1000000015,NA,null,<p></p>,null,choice,tdc,trinary,attraction,2,laptops,null,null,null,null,null,null,1,NA,NA,NA,NA,NA,NA,NA,NA,NA,NA
NA,NA,NA,NA,NA,choice_trial,survey-html-form,41,180663,0.0-4.0-1.18,219,1,2025-05-06T00:47:19Z,b60275e29fe2361ab97ac0ac217840d7,"Mozilla/5.0 (Macintosh; Intel Mac OS X 10_15_7) AppleWebKit/537.36 (KHTML, like Gecko) Chrome/116.0.0.0 Safari/537.36",Macintosh,Chrome,116.0.0.0,OS X,10_15_7,https://5puzkbbxv1.cognition.run/?sona_id=56954,"en-US,en;q=0.9",2uzd8gtk4ovmqjj,20,"[""White""]",No,Female,NA,No,373847.1000000015,NA,2637,NA,"{""product_choice"":""B""}",choice,tdc,trinary,attraction,2,laptops,null,null,null,null,null,null,1,50,60,40,60,50,60,Processing speed,Memory (RAM),NA,NA
NA,NA,NA,NA,NA,choice_trial_setup,html-keyboard-response,42,180970,0.0-4.0-0.19,219,1,2025-05-06T00:47:19Z,b60275e29fe2361ab97ac0ac217840d7,"Mozilla/5.0 (Macintosh; Intel Mac OS X 10_15_7) AppleWebKit/537.36 (KHTML, like Gecko) Chrome/116.0.0.0 Safari/537.36",Macintosh,Chrome,116.0.0.0,OS X,10_15_7,https://5puzkbbxv1.cognition.run/?sona_id=56954,"en-US,en;q=0.9",2uzd8gtk4ovmqjj,20,"[""White""]",No,Female,NA,No,373847.1000000015,NA,null,<p></p>,null,choice,tcd,trinary,repulsion_A,2,televisions,null,null,null,null,null,null,1,NA,NA,NA,NA,NA,NA,NA,NA,NA,NA
NA,NA,NA,NA,NA,choice_trial,survey-html-form,43,183285,0.0-4.0-1.19,219,1,2025-05-06T00:47:19Z,b60275e29fe2361ab97ac0ac217840d7,"Mozilla/5.0 (Macintosh; Intel Mac OS X 10_15_7) AppleWebKit/537.36 (KHTML, like Gecko) Chrome/116.0.0.0 Safari/537.36",Macintosh,Chrome,116.0.0.0,OS X,10_15_7,https://5puzkbbxv1.cognition.run/?sona_id=56954,"en-US,en;q=0.9",2uzd8gtk4ovmqjj,20,"[""White""]",No,Female,NA,No,373847.1000000015,NA,2309,NA,"{""product_choice"":""C""}",choice,tcd,trinary,repulsion_A,2,televisions,null,null,null,null,null,null,1,30,40,20,100,90,100,Screen size,Average lifespan,NA,NA
NA,NA,NA,NA,NA,choice_trial_setup,html-keyboard-response,44,183596,0.0-4.0-0.20,219,1,2025-05-06T00:47:19Z,b60275e29fe2361ab97ac0ac217840d7,"Mozilla/5.0 (Macintosh; Intel Mac OS X 10_15_7) AppleWebKit/537.36 (KHTML, like Gecko) Chrome/116.0.0.0 Safari/537.36",Macintosh,Chrome,116.0.0.0,OS X,10_15_7,https://5puzkbbxv1.cognition.run/?sona_id=56954,"en-US,en;q=0.9",2uzd8gtk4ovmqjj,20,"[""White""]",No,Female,NA,No,373847.1000000015,NA,null,<p></p>,null,choice,tc,binary,attraction,NA,laptops,null,null,null,null,null,null,1,NA,NA,NA,NA,NA,NA,NA,NA,NA,NA
NA,NA,NA,NA,NA,choice_trial,survey-html-form,45,210811,0.0-4.0-1.20,219,1,2025-05-06T00:47:19Z,b60275e29fe2361ab97ac0ac217840d7,"Mozilla/5.0 (Macintosh; Intel Mac OS X 10_15_7) AppleWebKit/537.36 (KHTML, like Gecko) Chrome/116.0.0.0 Safari/537.36",Macintosh,Chrome,116.0.0.0,OS X,10_15_7,https://5puzkbbxv1.cognition.run/?sona_id=56954,"en-US,en;q=0.9",2uzd8gtk4ovmqjj,20,"[""White""]",No,Female,NA,No,373847.1000000015,NA,27209,NA,"{""product_choice"":""B""}",choice,tc,binary,attraction,NA,laptops,null,null,null,null,null,null,1,60,50,null,50,60,null,Processing speed,Memory (RAM),NA,NA
NA,NA,NA,NA,NA,choice_trial_setup,html-keyboard-response,46,211122,0.0-4.0-0.21,219,1,2025-05-06T00:47:19Z,b60275e29fe2361ab97ac0ac217840d7,"Mozilla/5.0 (Macintosh; Intel Mac OS X 10_15_7) AppleWebKit/537.36 (KHTML, like Gecko) Chrome/116.0.0.0 Safari/537.36",Macintosh,Chrome,116.0.0.0,OS X,10_15_7,https://5puzkbbxv1.cognition.run/?sona_id=56954,"en-US,en;q=0.9",2uzd8gtk4ovmqjj,20,"[""White""]",No,Female,NA,No,373847.1000000015,NA,null,<p></p>,null,choice,dct,trinary,attraction,1,microwave ovens,null,null,null,null,null,null,1,NA,NA,NA,NA,NA,NA,NA,NA,NA,NA
NA,NA,NA,NA,NA,choice_trial,survey-html-form,47,213264,0.0-4.0-1.21,219,1,2025-05-06T00:47:19Z,b60275e29fe2361ab97ac0ac217840d7,"Mozilla/5.0 (Macintosh; Intel Mac OS X 10_15_7) AppleWebKit/537.36 (KHTML, like Gecko) Chrome/116.0.0.0 Safari/537.36",Macintosh,Chrome,116.0.0.0,OS X,10_15_7,https://5puzkbbxv1.cognition.run/?sona_id=56954,"en-US,en;q=0.9",2uzd8gtk4ovmqjj,20,"[""White""]",No,Female,NA,No,373847.1000000015,NA,2136,NA,"{""product_choice"":""B""}",choice,dct,trinary,attraction,1,microwave ovens,null,null,null,null,null,null,1,60,50,60,50,60,40,Warranty,Cooking power,NA,NA
NA,NA,NA,NA,NA,choice_trial_setup,html-keyboard-response,48,213570,0.0-4.0-0.22,219,1,2025-05-06T00:47:19Z,b60275e29fe2361ab97ac0ac217840d7,"Mozilla/5.0 (Macintosh; Intel Mac OS X 10_15_7) AppleWebKit/537.36 (KHTML, like Gecko) Chrome/116.0.0.0 Safari/537.36",Macintosh,Chrome,116.0.0.0,OS X,10_15_7,https://5puzkbbxv1.cognition.run/?sona_id=56954,"en-US,en;q=0.9",2uzd8gtk4ovmqjj,20,"[""White""]",No,Female,NA,No,373847.1000000015,NA,null,<p></p>,null,choice,wb,binary,catch,null,televisions,80,80,50,25,null,null,2,NA,NA,NA,NA,NA,NA,NA,NA,NA,NA
NA,NA,NA,NA,NA,choice_trial,survey-html-form,49,215237,0.0-4.0-1.22,219,1,2025-05-06T00:47:19Z,b60275e29fe2361ab97ac0ac217840d7,"Mozilla/5.0 (Macintosh; Intel Mac OS X 10_15_7) AppleWebKit/537.36 (KHTML, like Gecko) Chrome/116.0.0.0 Safari/537.36",Macintosh,Chrome,116.0.0.0,OS X,10_15_7,https://5puzkbbxv1.cognition.run/?sona_id=56954,"en-US,en;q=0.9",2uzd8gtk4ovmqjj,20,"[""White""]",No,Female,NA,No,373847.1000000015,NA,1659,NA,"{""product_choice"":""B""}",choice,wb,binary,catch,null,televisions,80,80,50,25,null,null,2,null,null,null,null,null,null,Screen size,Average lifespan,NA,NA
NA,NA,NA,NA,NA,choice_trial_setup,html-keyboard-response,50,215549,0.0-4.0-0.23,219,1,2025-05-06T00:47:19Z,b60275e29fe2361ab97ac0ac217840d7,"Mozilla/5.0 (Macintosh; Intel Mac OS X 10_15_7) AppleWebKit/537.36 (KHTML, like Gecko) Chrome/116.0.0.0 Safari/537.36",Macintosh,Chrome,116.0.0.0,OS X,10_15_7,https://5puzkbbxv1.cognition.run/?sona_id=56954,"en-US,en;q=0.9",2uzd8gtk4ovmqjj,20,"[""White""]",No,Female,NA,No,373847.1000000015,NA,null,<p></p>,null,choice,tc,binary,repulsion,2,microwave ovens,null,null,null,null,null,null,1,NA,NA,NA,NA,NA,NA,NA,NA,NA,NA
NA,NA,NA,NA,NA,choice_trial,survey-html-form,51,217211,0.0-4.0-1.23,219,1,2025-05-06T00:47:19Z,b60275e29fe2361ab97ac0ac217840d7,"Mozilla/5.0 (Macintosh; Intel Mac OS X 10_15_7) AppleWebKit/537.36 (KHTML, like Gecko) Chrome/116.0.0.0 Safari/537.36",Macintosh,Chrome,116.0.0.0,OS X,10_15_7,https://5puzkbbxv1.cognition.run/?sona_id=56954,"en-US,en;q=0.9",2uzd8gtk4ovmqjj,20,"[""White""]",No,Female,NA,No,373847.1000000015,NA,1656,NA,"{""product_choice"":""B""}",choice,tc,binary,repulsion,2,microwave ovens,null,null,null,null,null,null,1,30,40,null,100,90,null,Warranty,Cooking power,NA,NA
NA,NA,NA,NA,NA,choice_trial_setup,html-keyboard-response,52,217523,0.0-4.0-0.24,219,1,2025-05-06T00:47:19Z,b60275e29fe2361ab97ac0ac217840d7,"Mozilla/5.0 (Macintosh; Intel Mac OS X 10_15_7) AppleWebKit/537.36 (KHTML, like Gecko) Chrome/116.0.0.0 Safari/537.36",Macintosh,Chrome,116.0.0.0,OS X,10_15_7,https://5puzkbbxv1.cognition.run/?sona_id=56954,"en-US,en;q=0.9",2uzd8gtk4ovmqjj,20,"[""White""]",No,Female,NA,No,373847.1000000015,NA,null,<p></p>,null,choice,ct,binary,repulsion,1,laptops,null,null,null,null,null,null,2,NA,NA,NA,NA,NA,NA,NA,NA,NA,NA
NA,NA,NA,NA,NA,choice_trial,survey-html-form,53,219509,0.0-4.0-1.24,219,1,2025-05-06T00:47:19Z,b60275e29fe2361ab97ac0ac217840d7,"Mozilla/5.0 (Macintosh; Intel Mac OS X 10_15_7) AppleWebKit/537.36 (KHTML, like Gecko) Chrome/116.0.0.0 Safari/537.36",Macintosh,Chrome,116.0.0.0,OS X,10_15_7,https://5puzkbbxv1.cognition.run/?sona_id=56954,"en-US,en;q=0.9",2uzd8gtk4ovmqjj,20,"[""White""]",No,Female,NA,No,373847.1000000015,NA,1980,NA,"{""product_choice"":""B""}",choice,ct,binary,repulsion,1,laptops,null,null,null,null,null,null,2,100,90,null,30,40,null,Processing speed,Memory (RAM),NA,NA
NA,NA,NA,NA,NA,choice_trial_setup,html-keyboard-response,54,219817,0.0-4.0-0.25,219,1,2025-05-06T00:47:19Z,b60275e29fe2361ab97ac0ac217840d7,"Mozilla/5.0 (Macintosh; Intel Mac OS X 10_15_7) AppleWebKit/537.36 (KHTML, like Gecko) Chrome/116.0.0.0 Safari/537.36",Macintosh,Chrome,116.0.0.0,OS X,10_15_7,https://5puzkbbxv1.cognition.run/?sona_id=56954,"en-US,en;q=0.9",2uzd8gtk4ovmqjj,20,"[""White""]",No,Female,NA,No,373847.1000000015,NA,null,<p></p>,null,choice,ctd,trinary,repulsion_B,1,laptops,null,null,null,null,null,null,1,NA,NA,NA,NA,NA,NA,NA,NA,NA,NA
NA,NA,NA,NA,NA,choice_trial,survey-html-form,55,222157,0.0-4.0-1.25,219,1,2025-05-06T00:47:19Z,b60275e29fe2361ab97ac0ac217840d7,"Mozilla/5.0 (Macintosh; Intel Mac OS X 10_15_7) AppleWebKit/537.36 (KHTML, like Gecko) Chrome/116.0.0.0 Safari/537.36",Macintosh,Chrome,116.0.0.0,OS X,10_15_7,https://5puzkbbxv1.cognition.run/?sona_id=56954,"en-US,en;q=0.9",2uzd8gtk4ovmqjj,20,"[""White""]",No,Female,NA,No,373847.1000000015,NA,2334,NA,"{""product_choice"":""B""}",choice,ctd,trinary,repulsion_B,1,laptops,null,null,null,null,null,null,1,90,100,80,40,30,40,Processing speed,Memory (RAM),NA,NA
NA,NA,NA,NA,NA,choice_trial_setup,html-keyboard-response,56,222466,0.0-4.0-0.26,219,1,2025-05-06T00:47:19Z,b60275e29fe2361ab97ac0ac217840d7,"Mozilla/5.0 (Macintosh; Intel Mac OS X 10_15_7) AppleWebKit/537.36 (KHTML, like Gecko) Chrome/116.0.0.0 Safari/537.36",Macintosh,Chrome,116.0.0.0,OS X,10_15_7,https://5puzkbbxv1.cognition.run/?sona_id=56954,"en-US,en;q=0.9",2uzd8gtk4ovmqjj,20,"[""White""]",No,Female,NA,No,373847.1000000015,NA,null,<p></p>,null,choice,bww,trinary,catch,null,televisions,90,55,10,50,25,50,2,NA,NA,NA,NA,NA,NA,NA,NA,NA,NA
NA,NA,NA,NA,NA,choice_trial,survey-html-form,57,225844,0.0-4.0-1.26,219,1,2025-05-06T00:47:19Z,b60275e29fe2361ab97ac0ac217840d7,"Mozilla/5.0 (Macintosh; Intel Mac OS X 10_15_7) AppleWebKit/537.36 (KHTML, like Gecko) Chrome/116.0.0.0 Safari/537.36",Macintosh,Chrome,116.0.0.0,OS X,10_15_7,https://5puzkbbxv1.cognition.run/?sona_id=56954,"en-US,en;q=0.9",2uzd8gtk4ovmqjj,20,"[""White""]",No,Female,NA,No,373847.1000000015,NA,3370,NA,"{""product_choice"":""A""}",choice,bww,trinary,catch,null,televisions,90,55,10,50,25,50,2,null,null,null,null,null,null,Screen size,Average lifespan,NA,NA
NA,NA,NA,NA,NA,choice_trial_setup,html-keyboard-response,58,226157,0.0-4.0-0.27,219,1,2025-05-06T00:47:19Z,b60275e29fe2361ab97ac0ac217840d7,"Mozilla/5.0 (Macintosh; Intel Mac OS X 10_15_7) AppleWebKit/537.36 (KHTML, like Gecko) Chrome/116.0.0.0 Safari/537.36",Macintosh,Chrome,116.0.0.0,OS X,10_15_7,https://5puzkbbxv1.cognition.run/?sona_id=56954,"en-US,en;q=0.9",2uzd8gtk4ovmqjj,20,"[""White""]",No,Female,NA,No,373847.1000000015,NA,null,<p></p>,null,choice,ctd,trinary,repulsion_B,2,washing machines,null,null,null,null,null,null,1,NA,NA,NA,NA,NA,NA,NA,NA,NA,NA
NA,NA,NA,NA,NA,choice_trial,survey-html-form,59,232982,0.0-4.0-1.27,219,1,2025-05-06T00:47:19Z,b60275e29fe2361ab97ac0ac217840d7,"Mozilla/5.0 (Macintosh; Intel Mac OS X 10_15_7) AppleWebKit/537.36 (KHTML, like Gecko) Chrome/116.0.0.0 Safari/537.36",Macintosh,Chrome,116.0.0.0,OS X,10_15_7,https://5puzkbbxv1.cognition.run/?sona_id=56954,"en-US,en;q=0.9",2uzd8gtk4ovmqjj,20,"[""White""]",No,Female,NA,No,373847.1000000015,NA,6817,NA,"{""product_choice"":""B""}",choice,ctd,trinary,repulsion_B,2,washing machines,null,null,null,null,null,null,1,40,30,40,90,100,80,Average lifespan,Energy savings,NA,NA
NA,NA,NA,NA,NA,choice_trial_setup,html-keyboard-response,60,233290,0.0-4.0-0.28,219,1,2025-05-06T00:47:19Z,b60275e29fe2361ab97ac0ac217840d7,"Mozilla/5.0 (Macintosh; Intel Mac OS X 10_15_7) AppleWebKit/537.36 (KHTML, like Gecko) Chrome/116.0.0.0 Safari/537.36",Macintosh,Chrome,116.0.0.0,OS X,10_15_7,https://5puzkbbxv1.cognition.run/?sona_id=56954,"en-US,en;q=0.9",2uzd8gtk4ovmqjj,20,"[""White""]",No,Female,NA,No,373847.1000000015,NA,null,<p></p>,null,choice,tcd,trinary,attraction,2,washing machines,null,null,null,null,null,null,2,NA,NA,NA,NA,NA,NA,NA,NA,NA,NA
NA,NA,NA,NA,NA,choice_trial,survey-html-form,61,242314,0.0-4.0-1.28,219,1,2025-05-06T00:47:19Z,b60275e29fe2361ab97ac0ac217840d7,"Mozilla/5.0 (Macintosh; Intel Mac OS X 10_15_7) AppleWebKit/537.36 (KHTML, like Gecko) Chrome/116.0.0.0 Safari/537.36",Macintosh,Chrome,116.0.0.0,OS X,10_15_7,https://5puzkbbxv1.cognition.run/?sona_id=56954,"en-US,en;q=0.9",2uzd8gtk4ovmqjj,20,"[""White""]",No,Female,NA,No,373847.1000000015,NA,9015,NA,"{""product_choice"":""B""}",choice,tcd,trinary,attraction,2,washing machines,null,null,null,null,null,null,2,50,60,40,60,50,60,Average lifespan,Energy savings,NA,NA
NA,NA,NA,NA,NA,choice_trial_setup,html-keyboard-response,62,242622,0.0-4.0-0.29,219,1,2025-05-06T00:47:19Z,b60275e29fe2361ab97ac0ac217840d7,"Mozilla/5.0 (Macintosh; Intel Mac OS X 10_15_7) AppleWebKit/537.36 (KHTML, like Gecko) Chrome/116.0.0.0 Safari/537.36",Macintosh,Chrome,116.0.0.0,OS X,10_15_7,https://5puzkbbxv1.cognition.run/?sona_id=56954,"en-US,en;q=0.9",2uzd8gtk4ovmqjj,20,"[""White""]",No,Female,NA,No,373847.1000000015,NA,null,<p></p>,null,choice,bw,binary,catch,null,laptops,55,80,15,20,null,null,1,NA,NA,NA,NA,NA,NA,NA,NA,NA,NA
NA,NA,NA,NA,NA,choice_trial,survey-html-form,63,249095,0.0-4.0-1.29,219,1,2025-05-06T00:47:19Z,b60275e29fe2361ab97ac0ac217840d7,"Mozilla/5.0 (Macintosh; Intel Mac OS X 10_15_7) AppleWebKit/537.36 (KHTML, like Gecko) Chrome/116.0.0.0 Safari/537.36",Macintosh,Chrome,116.0.0.0,OS X,10_15_7,https://5puzkbbxv1.cognition.run/?sona_id=56954,"en-US,en;q=0.9",2uzd8gtk4ovmqjj,20,"[""White""]",No,Female,NA,No,373847.1000000015,NA,6464,NA,"{""product_choice"":""A""}",choice,bw,binary,catch,null,laptops,55,80,15,20,null,null,1,null,null,null,null,null,null,Processing speed,Memory (RAM),NA,NA
NA,NA,NA,NA,NA,choice_trial_setup,html-keyboard-response,64,249404,0.0-4.0-0.30,219,1,2025-05-06T00:47:19Z,b60275e29fe2361ab97ac0ac217840d7,"Mozilla/5.0 (Macintosh; Intel Mac OS X 10_15_7) AppleWebKit/537.36 (KHTML, like Gecko) Chrome/116.0.0.0 Safari/537.36",Macintosh,Chrome,116.0.0.0,OS X,10_15_7,https://5puzkbbxv1.cognition.run/?sona_id=56954,"en-US,en;q=0.9",2uzd8gtk4ovmqjj,20,"[""White""]",No,Female,NA,No,373847.1000000015,NA,null,<p></p>,null,choice,ctd,trinary,repulsion_A,2,laptops,null,null,null,null,null,null,2,NA,NA,NA,NA,NA,NA,NA,NA,NA,NA
NA,NA,NA,NA,NA,choice_trial,survey-html-form,65,257021,0.0-4.0-1.30,219,1,2025-05-06T00:47:19Z,b60275e29fe2361ab97ac0ac217840d7,"Mozilla/5.0 (Macintosh; Intel Mac OS X 10_15_7) AppleWebKit/537.36 (KHTML, like Gecko) Chrome/116.0.0.0 Safari/537.36",Macintosh,Chrome,116.0.0.0,OS X,10_15_7,https://5puzkbbxv1.cognition.run/?sona_id=56954,"en-US,en;q=0.9",2uzd8gtk4ovmqjj,20,"[""White""]",No,Female,NA,No,373847.1000000015,NA,7609,NA,"{""product_choice"":""A""}",choice,ctd,trinary,repulsion_A,2,laptops,null,null,null,null,null,null,2,30,40,20,100,90,100,Processing speed,Memory (RAM),NA,NA
NA,NA,NA,NA,NA,choice_trial_setup,html-keyboard-response,66,257332,0.0-4.0-0.31,219,1,2025-05-06T00:47:19Z,b60275e29fe2361ab97ac0ac217840d7,"Mozilla/5.0 (Macintosh; Intel Mac OS X 10_15_7) AppleWebKit/537.36 (KHTML, like Gecko) Chrome/116.0.0.0 Safari/537.36",Macintosh,Chrome,116.0.0.0,OS X,10_15_7,https://5puzkbbxv1.cognition.run/?sona_id=56954,"en-US,en;q=0.9",2uzd8gtk4ovmqjj,20,"[""White""]",No,Female,NA,No,373847.1000000015,NA,null,<p></p>,null,choice,tcd,trinary,attraction,1,televisions,null,null,null,null,null,null,2,NA,NA,NA,NA,NA,NA,NA,NA,NA,NA
NA,NA,NA,NA,NA,choice_trial,survey-html-form,67,284175,0.0-4.0-1.31,219,1,2025-05-06T00:47:19Z,b60275e29fe2361ab97ac0ac217840d7,"Mozilla/5.0 (Macintosh; Intel Mac OS X 10_15_7) AppleWebKit/537.36 (KHTML, like Gecko) Chrome/116.0.0.0 Safari/537.36",Macintosh,Chrome,116.0.0.0,OS X,10_15_7,https://5puzkbbxv1.cognition.run/?sona_id=56954,"en-US,en;q=0.9",2uzd8gtk4ovmqjj,20,"[""White""]",No,Female,NA,No,373847.1000000015,NA,26835,NA,"{""product_choice"":""A""}",choice,tcd,trinary,attraction,1,televisions,null,null,null,null,null,null,2,60,50,60,50,60,40,Screen size,Average lifespan,NA,NA
NA,NA,NA,NA,NA,choice_trial_setup,html-keyboard-response,68,284489,0.0-4.0-0.32,219,1,2025-05-06T00:47:19Z,b60275e29fe2361ab97ac0ac217840d7,"Mozilla/5.0 (Macintosh; Intel Mac OS X 10_15_7) AppleWebKit/537.36 (KHTML, like Gecko) Chrome/116.0.0.0 Safari/537.36",Macintosh,Chrome,116.0.0.0,OS X,10_15_7,https://5puzkbbxv1.cognition.run/?sona_id=56954,"en-US,en;q=0.9",2uzd8gtk4ovmqjj,20,"[""White""]",No,Female,NA,No,373847.1000000015,NA,null,<p></p>,null,choice,ct,binary,attraction,NA,microwave ovens,null,null,null,null,null,null,1,NA,NA,NA,NA,NA,NA,NA,NA,NA,NA
NA,NA,NA,NA,NA,choice_trial,survey-html-form,69,286376,0.0-4.0-1.32,219,1,2025-05-06T00:47:19Z,b60275e29fe2361ab97ac0ac217840d7,"Mozilla/5.0 (Macintosh; Intel Mac OS X 10_15_7) AppleWebKit/537.36 (KHTML, like Gecko) Chrome/116.0.0.0 Safari/537.36",Macintosh,Chrome,116.0.0.0,OS X,10_15_7,https://5puzkbbxv1.cognition.run/?sona_id=56954,"en-US,en;q=0.9",2uzd8gtk4ovmqjj,20,"[""White""]",No,Female,NA,No,373847.1000000015,NA,1880,NA,"{""product_choice"":""A""}",choice,ct,binary,attraction,NA,microwave ovens,null,null,null,null,null,null,1,60,50,null,50,60,null,Warranty,Cooking power,NA,NA
NA,NA,NA,NA,NA,choice_trial_setup,html-keyboard-response,70,286684,0.0-4.0-0.33,219,1,2025-05-06T00:47:19Z,b60275e29fe2361ab97ac0ac217840d7,"Mozilla/5.0 (Macintosh; Intel Mac OS X 10_15_7) AppleWebKit/537.36 (KHTML, like Gecko) Chrome/116.0.0.0 Safari/537.36",Macintosh,Chrome,116.0.0.0,OS X,10_15_7,https://5puzkbbxv1.cognition.run/?sona_id=56954,"en-US,en;q=0.9",2uzd8gtk4ovmqjj,20,"[""White""]",No,Female,NA,No,373847.1000000015,NA,null,<p></p>,null,choice,ct,binary,repulsion,1,microwave ovens,null,null,null,null,null,null,2,NA,NA,NA,NA,NA,NA,NA,NA,NA,NA
NA,NA,NA,NA,NA,choice_trial,survey-html-form,71,288601,0.0-4.0-1.33,219,1,2025-05-06T00:47:19Z,b60275e29fe2361ab97ac0ac217840d7,"Mozilla/5.0 (Macintosh; Intel Mac OS X 10_15_7) AppleWebKit/537.36 (KHTML, like Gecko) Chrome/116.0.0.0 Safari/537.36",Macintosh,Chrome,116.0.0.0,OS X,10_15_7,https://5puzkbbxv1.cognition.run/?sona_id=56954,"en-US,en;q=0.9",2uzd8gtk4ovmqjj,20,"[""White""]",No,Female,NA,No,373847.1000000015,NA,1910,NA,"{""product_choice"":""A""}",choice,ct,binary,repulsion,1,microwave ovens,null,null,null,null,null,null,2,100,90,null,30,40,null,Warranty,Cooking power,NA,NA
NA,NA,NA,NA,NA,choice_trial_setup,html-keyboard-response,72,288911,0.0-4.0-0.34,219,1,2025-05-06T00:47:19Z,b60275e29fe2361ab97ac0ac217840d7,"Mozilla/5.0 (Macintosh; Intel Mac OS X 10_15_7) AppleWebKit/537.36 (KHTML, like Gecko) Chrome/116.0.0.0 Safari/537.36",Macintosh,Chrome,116.0.0.0,OS X,10_15_7,https://5puzkbbxv1.cognition.run/?sona_id=56954,"en-US,en;q=0.9",2uzd8gtk4ovmqjj,20,"[""White""]",No,Female,NA,No,373847.1000000015,NA,null,<p></p>,null,choice,dct,trinary,repulsion_B,2,laptops,null,null,null,null,null,null,2,NA,NA,NA,NA,NA,NA,NA,NA,NA,NA
NA,NA,NA,NA,NA,choice_trial,survey-html-form,73,292110,0.0-4.0-1.34,219,1,2025-05-06T00:47:19Z,b60275e29fe2361ab97ac0ac217840d7,"Mozilla/5.0 (Macintosh; Intel Mac OS X 10_15_7) AppleWebKit/537.36 (KHTML, like Gecko) Chrome/116.0.0.0 Safari/537.36",Macintosh,Chrome,116.0.0.0,OS X,10_15_7,https://5puzkbbxv1.cognition.run/?sona_id=56954,"en-US,en;q=0.9",2uzd8gtk4ovmqjj,20,"[""White""]",No,Female,NA,No,373847.1000000015,NA,3191,NA,"{""product_choice"":""A""}",choice,dct,trinary,repulsion_B,2,laptops,null,null,null,null,null,null,2,40,30,40,90,100,80,Processing speed,Memory (RAM),NA,NA
NA,NA,NA,NA,NA,choice_trial_setup,html-keyboard-response,74,292420,0.0-4.0-0.35,219,1,2025-05-06T00:47:19Z,b60275e29fe2361ab97ac0ac217840d7,"Mozilla/5.0 (Macintosh; Intel Mac OS X 10_15_7) AppleWebKit/537.36 (KHTML, like Gecko) Chrome/116.0.0.0 Safari/537.36",Macintosh,Chrome,116.0.0.0,OS X,10_15_7,https://5puzkbbxv1.cognition.run/?sona_id=56954,"en-US,en;q=0.9",2uzd8gtk4ovmqjj,20,"[""White""]",No,Female,NA,No,373847.1000000015,NA,null,<p></p>,null,choice,bww,trinary,catch,null,laptops,90,85,25,45,20,20,2,NA,NA,NA,NA,NA,NA,NA,NA,NA,NA
NA,NA,NA,NA,NA,choice_trial,survey-html-form,75,294424,0.0-4.0-1.35,219,1,2025-05-06T00:47:19Z,b60275e29fe2361ab97ac0ac217840d7,"Mozilla/5.0 (Macintosh; Intel Mac OS X 10_15_7) AppleWebKit/537.36 (KHTML, like Gecko) Chrome/116.0.0.0 Safari/537.36",Macintosh,Chrome,116.0.0.0,OS X,10_15_7,https://5puzkbbxv1.cognition.run/?sona_id=56954,"en-US,en;q=0.9",2uzd8gtk4ovmqjj,20,"[""White""]",No,Female,NA,No,373847.1000000015,NA,1995,NA,"{""product_choice"":""A""}",choice,bww,trinary,catch,null,laptops,90,85,25,45,20,20,2,null,null,null,null,null,null,Processing speed,Memory (RAM),NA,NA
NA,NA,NA,NA,NA,choice_trial_setup,html-keyboard-response,76,294732,0.0-4.0-0.36,219,1,2025-05-06T00:47:19Z,b60275e29fe2361ab97ac0ac217840d7,"Mozilla/5.0 (Macintosh; Intel Mac OS X 10_15_7) AppleWebKit/537.36 (KHTML, like Gecko) Chrome/116.0.0.0 Safari/537.36",Macintosh,Chrome,116.0.0.0,OS X,10_15_7,https://5puzkbbxv1.cognition.run/?sona_id=56954,"en-US,en;q=0.9",2uzd8gtk4ovmqjj,20,"[""White""]",No,Female,NA,No,373847.1000000015,NA,null,<p></p>,null,choice,wb,binary,catch,null,microwave ovens,95,70,15,15,null,null,1,NA,NA,NA,NA,NA,NA,NA,NA,NA,NA
NA,NA,NA,NA,NA,choice_trial,survey-html-form,77,297274,0.0-4.0-1.36,219,1,2025-05-06T00:47:19Z,b60275e29fe2361ab97ac0ac217840d7,"Mozilla/5.0 (Macintosh; Intel Mac OS X 10_15_7) AppleWebKit/537.36 (KHTML, like Gecko) Chrome/116.0.0.0 Safari/537.36",Macintosh,Chrome,116.0.0.0,OS X,10_15_7,https://5puzkbbxv1.cognition.run/?sona_id=56954,"en-US,en;q=0.9",2uzd8gtk4ovmqjj,20,"[""White""]",No,Female,NA,No,373847.1000000015,NA,2534,NA,"{""product_choice"":""B""}",choice,wb,binary,catch,null,microwave ovens,95,70,15,15,null,null,1,null,null,null,null,null,null,Warranty,Cooking power,NA,NA
NA,NA,NA,NA,NA,choice_trial_setup,html-keyboard-response,78,297589,0.0-4.0-0.37,219,1,2025-05-06T00:47:19Z,b60275e29fe2361ab97ac0ac217840d7,"Mozilla/5.0 (Macintosh; Intel Mac OS X 10_15_7) AppleWebKit/537.36 (KHTML, like Gecko) Chrome/116.0.0.0 Safari/537.36",Macintosh,Chrome,116.0.0.0,OS X,10_15_7,https://5puzkbbxv1.cognition.run/?sona_id=56954,"en-US,en;q=0.9",2uzd8gtk4ovmqjj,20,"[""White""]",No,Female,NA,No,373847.1000000015,NA,null,<p></p>,null,choice,ctd,trinary,repulsion_B,1,televisions,null,null,null,null,null,null,2,NA,NA,NA,NA,NA,NA,NA,NA,NA,NA
NA,NA,NA,NA,NA,choice_trial,survey-html-form,79,299499,0.0-4.0-1.37,219,1,2025-05-06T00:47:19Z,b60275e29fe2361ab97ac0ac217840d7,"Mozilla/5.0 (Macintosh; Intel Mac OS X 10_15_7) AppleWebKit/537.36 (KHTML, like Gecko) Chrome/116.0.0.0 Safari/537.36",Macintosh,Chrome,116.0.0.0,OS X,10_15_7,https://5puzkbbxv1.cognition.run/?sona_id=56954,"en-US,en;q=0.9",2uzd8gtk4ovmqjj,20,"[""White""]",No,Female,NA,No,373847.1000000015,NA,1902,NA,"{""product_choice"":""B""}",choice,ctd,trinary,repulsion_B,1,televisions,null,null,null,null,null,null,2,90,100,80,40,30,40,Screen size,Average lifespan,NA,NA
NA,NA,NA,NA,NA,choice_trial_setup,html-keyboard-response,80,299808,0.0-4.0-0.38,219,1,2025-05-06T00:47:19Z,b60275e29fe2361ab97ac0ac217840d7,"Mozilla/5.0 (Macintosh; Intel Mac OS X 10_15_7) AppleWebKit/537.36 (KHTML, like Gecko) Chrome/116.0.0.0 Safari/537.36",Macintosh,Chrome,116.0.0.0,OS X,10_15_7,https://5puzkbbxv1.cognition.run/?sona_id=56954,"en-US,en;q=0.9",2uzd8gtk4ovmqjj,20,"[""White""]",No,Female,NA,No,373847.1000000015,NA,null,<p></p>,null,choice,tc,binary,attraction,NA,televisions,null,null,null,null,null,null,1,NA,NA,NA,NA,NA,NA,NA,NA,NA,NA
NA,NA,NA,NA,NA,choice_trial,survey-html-form,81,301546,0.0-4.0-1.38,219,1,2025-05-06T00:47:19Z,b60275e29fe2361ab97ac0ac217840d7,"Mozilla/5.0 (Macintosh; Intel Mac OS X 10_15_7) AppleWebKit/537.36 (KHTML, like Gecko) Chrome/116.0.0.0 Safari/537.36",Macintosh,Chrome,116.0.0.0,OS X,10_15_7,https://5puzkbbxv1.cognition.run/?sona_id=56954,"en-US,en;q=0.9",2uzd8gtk4ovmqjj,20,"[""White""]",No,Female,NA,No,373847.1000000015,NA,1730,NA,"{""product_choice"":""B""}",choice,tc,binary,attraction,NA,televisions,null,null,null,null,null,null,1,60,50,null,50,60,null,Screen size,Average lifespan,NA,NA
NA,NA,NA,NA,NA,choice_trial_setup,html-keyboard-response,82,301856,0.0-4.0-0.39,219,1,2025-05-06T00:47:19Z,b60275e29fe2361ab97ac0ac217840d7,"Mozilla/5.0 (Macintosh; Intel Mac OS X 10_15_7) AppleWebKit/537.36 (KHTML, like Gecko) Chrome/116.0.0.0 Safari/537.36",Macintosh,Chrome,116.0.0.0,OS X,10_15_7,https://5puzkbbxv1.cognition.run/?sona_id=56954,"en-US,en;q=0.9",2uzd8gtk4ovmqjj,20,"[""White""]",No,Female,NA,No,373847.1000000015,NA,null,<p></p>,null,choice,ct,binary,repulsion,2,washing machines,null,null,null,null,null,null,2,NA,NA,NA,NA,NA,NA,NA,NA,NA,NA
NA,NA,NA,NA,NA,choice_trial,survey-html-form,83,305534,0.0-4.0-1.39,219,1,2025-05-06T00:47:19Z,b60275e29fe2361ab97ac0ac217840d7,"Mozilla/5.0 (Macintosh; Intel Mac OS X 10_15_7) AppleWebKit/537.36 (KHTML, like Gecko) Chrome/116.0.0.0 Safari/537.36",Macintosh,Chrome,116.0.0.0,OS X,10_15_7,https://5puzkbbxv1.cognition.run/?sona_id=56954,"en-US,en;q=0.9",2uzd8gtk4ovmqjj,20,"[""White""]",No,Female,NA,No,373847.1000000015,NA,3672,NA,"{""product_choice"":""B""}",choice,ct,binary,repulsion,2,washing machines,null,null,null,null,null,null,2,30,40,null,100,90,null,Average lifespan,Energy savings,NA,NA
NA,NA,NA,NA,NA,choice_trial_setup,html-keyboard-response,84,305847,0.0-4.0-0.40,219,1,2025-05-06T00:47:19Z,b60275e29fe2361ab97ac0ac217840d7,"Mozilla/5.0 (Macintosh; Intel Mac OS X 10_15_7) AppleWebKit/537.36 (KHTML, like Gecko) Chrome/116.0.0.0 Safari/537.36",Macintosh,Chrome,116.0.0.0,OS X,10_15_7,https://5puzkbbxv1.cognition.run/?sona_id=56954,"en-US,en;q=0.9",2uzd8gtk4ovmqjj,20,"[""White""]",No,Female,NA,No,373847.1000000015,NA,null,<p></p>,null,choice,dct,trinary,repulsion_B,1,microwave ovens,null,null,null,null,null,null,2,NA,NA,NA,NA,NA,NA,NA,NA,NA,NA
NA,NA,NA,NA,NA,choice_trial,survey-html-form,85,308336,0.0-4.0-1.40,219,1,2025-05-06T00:47:19Z,b60275e29fe2361ab97ac0ac217840d7,"Mozilla/5.0 (Macintosh; Intel Mac OS X 10_15_7) AppleWebKit/537.36 (KHTML, like Gecko) Chrome/116.0.0.0 Safari/537.36",Macintosh,Chrome,116.0.0.0,OS X,10_15_7,https://5puzkbbxv1.cognition.run/?sona_id=56954,"en-US,en;q=0.9",2uzd8gtk4ovmqjj,20,"[""White""]",No,Female,NA,No,373847.1000000015,NA,2480,NA,"{""product_choice"":""B""}",choice,dct,trinary,repulsion_B,1,microwave ovens,null,null,null,null,null,null,2,90,100,80,40,30,40,Warranty,Cooking power,NA,NA
NA,NA,NA,NA,NA,choice_trial_setup,html-keyboard-response,86,308645,0.0-4.0-0.41,219,1,2025-05-06T00:47:19Z,b60275e29fe2361ab97ac0ac217840d7,"Mozilla/5.0 (Macintosh; Intel Mac OS X 10_15_7) AppleWebKit/537.36 (KHTML, like Gecko) Chrome/116.0.0.0 Safari/537.36",Macintosh,Chrome,116.0.0.0,OS X,10_15_7,https://5puzkbbxv1.cognition.run/?sona_id=56954,"en-US,en;q=0.9",2uzd8gtk4ovmqjj,20,"[""White""]",No,Female,NA,No,373847.1000000015,NA,null,<p></p>,null,choice,ct,binary,repulsion,1,washing machines,null,null,null,null,null,null,2,NA,NA,NA,NA,NA,NA,NA,NA,NA,NA
NA,NA,NA,NA,NA,choice_trial,survey-html-form,87,314402,0.0-4.0-1.41,219,1,2025-05-06T00:47:19Z,b60275e29fe2361ab97ac0ac217840d7,"Mozilla/5.0 (Macintosh; Intel Mac OS X 10_15_7) AppleWebKit/537.36 (KHTML, like Gecko) Chrome/116.0.0.0 Safari/537.36",Macintosh,Chrome,116.0.0.0,OS X,10_15_7,https://5puzkbbxv1.cognition.run/?sona_id=56954,"en-US,en;q=0.9",2uzd8gtk4ovmqjj,20,"[""White""]",No,Female,NA,No,373847.1000000015,NA,5749,NA,"{""product_choice"":""A""}",choice,ct,binary,repulsion,1,washing machines,null,null,null,null,null,null,2,100,90,null,30,40,null,Average lifespan,Energy savings,NA,NA
NA,NA,NA,NA,NA,choice_trial_setup,html-keyboard-response,88,314720,0.0-4.0-0.42,219,1,2025-05-06T00:47:19Z,b60275e29fe2361ab97ac0ac217840d7,"Mozilla/5.0 (Macintosh; Intel Mac OS X 10_15_7) AppleWebKit/537.36 (KHTML, like Gecko) Chrome/116.0.0.0 Safari/537.36",Macintosh,Chrome,116.0.0.0,OS X,10_15_7,https://5puzkbbxv1.cognition.run/?sona_id=56954,"en-US,en;q=0.9",2uzd8gtk4ovmqjj,20,"[""White""]",No,Female,NA,No,373847.1000000015,NA,null,<p></p>,null,choice,ctd,trinary,repulsion_B,2,microwave ovens,null,null,null,null,null,null,2,NA,NA,NA,NA,NA,NA,NA,NA,NA,NA
NA,NA,NA,NA,NA,choice_trial,survey-html-form,89,317919,0.0-4.0-1.42,219,1,2025-05-06T00:47:19Z,b60275e29fe2361ab97ac0ac217840d7,"Mozilla/5.0 (Macintosh; Intel Mac OS X 10_15_7) AppleWebKit/537.36 (KHTML, like Gecko) Chrome/116.0.0.0 Safari/537.36",Macintosh,Chrome,116.0.0.0,OS X,10_15_7,https://5puzkbbxv1.cognition.run/?sona_id=56954,"en-US,en;q=0.9",2uzd8gtk4ovmqjj,20,"[""White""]",No,Female,NA,No,373847.1000000015,NA,3191,NA,"{""product_choice"":""B""}",choice,ctd,trinary,repulsion_B,2,microwave ovens,null,null,null,null,null,null,2,40,30,40,90,100,80,Warranty,Cooking power,NA,NA
NA,NA,NA,NA,NA,choice_trial_setup,html-keyboard-response,90,318230,0.0-4.0-0.43,219,1,2025-05-06T00:47:19Z,b60275e29fe2361ab97ac0ac217840d7,"Mozilla/5.0 (Macintosh; Intel Mac OS X 10_15_7) AppleWebKit/537.36 (KHTML, like Gecko) Chrome/116.0.0.0 Safari/537.36",Macintosh,Chrome,116.0.0.0,OS X,10_15_7,https://5puzkbbxv1.cognition.run/?sona_id=56954,"en-US,en;q=0.9",2uzd8gtk4ovmqjj,20,"[""White""]",No,Female,NA,No,373847.1000000015,NA,null,<p></p>,null,choice,tdc,trinary,repulsion_A,1,laptops,null,null,null,null,null,null,1,NA,NA,NA,NA,NA,NA,NA,NA,NA,NA
NA,NA,NA,NA,NA,choice_trial,survey-html-form,91,322995,0.0-4.0-1.43,219,1,2025-05-06T00:47:19Z,b60275e29fe2361ab97ac0ac217840d7,"Mozilla/5.0 (Macintosh; Intel Mac OS X 10_15_7) AppleWebKit/537.36 (KHTML, like Gecko) Chrome/116.0.0.0 Safari/537.36",Macintosh,Chrome,116.0.0.0,OS X,10_15_7,https://5puzkbbxv1.cognition.run/?sona_id=56954,"en-US,en;q=0.9",2uzd8gtk4ovmqjj,20,"[""White""]",No,Female,NA,No,373847.1000000015,NA,4757,NA,"{""product_choice"":""A""}",choice,tdc,trinary,repulsion_A,1,laptops,null,null,null,null,null,null,1,100,90,100,30,40,20,Processing speed,Memory (RAM),NA,NA
NA,NA,NA,NA,NA,post_trials_message,html-button-response,92,325179,0.0-5.0,219,1,2025-05-06T00:47:19Z,b60275e29fe2361ab97ac0ac217840d7,"Mozilla/5.0 (Macintosh; Intel Mac OS X 10_15_7) AppleWebKit/537.36 (KHTML, like Gecko) Chrome/116.0.0.0 Safari/537.36",Macintosh,Chrome,116.0.0.0,OS X,10_15_7,https://5puzkbbxv1.cognition.run/?sona_id=56954,"en-US,en;q=0.9",2uzd8gtk4ovmqjj,20,"[""White""]",No,Female,NA,No,373847.1000000015,NA,2176,<p> <b>Thank you for your patience!</b></p><p>  The study will be done after completing a brief form. </p>,0,NA,NA,NA,NA,NA,NA,NA,NA,NA,NA,NA,NA,NA,NA,NA,NA,NA,NA,NA,NA,NA,NA,NA
NA,NA,NA,NA,NA,survey_message,survey-text,93,345647,0.0-6.0,219,1,2025-05-06T00:47:19Z,b60275e29fe2361ab97ac0ac217840d7,"Mozilla/5.0 (Macintosh; Intel Mac OS X 10_15_7) AppleWebKit/537.36 (KHTML, like Gecko) Chrome/116.0.0.0 Safari/537.36",Macintosh,Chrome,116.0.0.0,OS X,10_15_7,https://5puzkbbxv1.cognition.run/?sona_id=56954,"en-US,en;q=0.9",2uzd8gtk4ovmqjj,20,"[""White""]",No,Female,NA,No,373847.1000000015,NA,20457,NA,"{""Q0"":""I picked whatever felt best in the moment.""}",NA,NA,NA,NA,NA,NA,NA,NA,NA,NA,NA,NA,NA,NA,NA,NA,NA,NA,NA,NA,NA,I picked whatever felt best in the moment.,NA
NA,NA,NA,NA,NA,demo_age,survey-text,94,349123,0.0-7.0,219,1,2025-05-06T00:47:19Z,b60275e29fe2361ab97ac0ac217840d7,"Mozilla/5.0 (Macintosh; Intel Mac OS X 10_15_7) AppleWebKit/537.36 (KHTML, like Gecko) Chrome/116.0.0.0 Safari/537.36",Macintosh,Chrome,116.0.0.0,OS X,10_15_7,https://5puzkbbxv1.cognition.run/?sona_id=56954,"en-US,en;q=0.9",2uzd8gtk4ovmqjj,20,"[""White""]",No,Female,NA,No,373847.1000000015,NA,3466,NA,"{""Q0"":""20""}",NA,NA,NA,NA,NA,NA,NA,NA,NA,NA,NA,NA,NA,NA,NA,NA,NA,NA,NA,NA,NA,NA,NA
NA,NA,NA,NA,NA,demo_race,survey-multi-select,95,351780,0.0-8.0,219,1,2025-05-06T00:47:19Z,b60275e29fe2361ab97ac0ac217840d7,"Mozilla/5.0 (Macintosh; Intel Mac OS X 10_15_7) AppleWebKit/537.36 (KHTML, like Gecko) Chrome/116.0.0.0 Safari/537.36",Macintosh,Chrome,116.0.0.0,OS X,10_15_7,https://5puzkbbxv1.cognition.run/?sona_id=56954,"en-US,en;q=0.9",2uzd8gtk4ovmqjj,20,"[""White""]",No,Female,NA,No,373847.1000000015,NA,2646,NA,"{""Q0"":[""White""]}",NA,NA,NA,NA,NA,NA,NA,NA,NA,NA,NA,NA,NA,NA,NA,NA,NA,NA,NA,NA,NA,NA,[0]
NA,NA,NA,NA,NA,demo_ethnicity_gender,survey-multi-choice,96,356003,0.0-9.0,219,1,2025-05-06T00:47:19Z,b60275e29fe2361ab97ac0ac217840d7,"Mozilla/5.0 (Macintosh; Intel Mac OS X 10_15_7) AppleWebKit/537.36 (KHTML, like Gecko) Chrome/116.0.0.0 Safari/537.36",Macintosh,Chrome,116.0.0.0,OS X,10_15_7,https://5puzkbbxv1.cognition.run/?sona_id=56954,"en-US,en;q=0.9",2uzd8gtk4ovmqjj,20,"[""White""]",No,Female,NA,No,373847.1000000015,NA,4211,NA,"{""Q0"":""No"",""Q1"":""Female""}",NA,NA,NA,NA,NA,NA,NA,NA,NA,NA,NA,NA,NA,NA,NA,NA,NA,NA,NA,NA,NA,NA,"[0,1]"
NA,NA,NA,NA,NA,demo_countries,survey-text,97,361784,0.0-10.0,219,1,2025-05-06T00:47:19Z,b60275e29fe2361ab97ac0ac217840d7,"Mozilla/5.0 (Macintosh; Intel Mac OS X 10_15_7) AppleWebKit/537.36 (KHTML, like Gecko) Chrome/116.0.0.0 Safari/537.36",Macintosh,Chrome,116.0.0.0,OS X,10_15_7,https://5puzkbbxv1.cognition.run/?sona_id=56954,"en-US,en;q=0.9",2uzd8gtk4ovmqjj,20,"[""White""]",No,Female,NA,No,373847.1000000015,NA,5764,NA,"{""Q0"":""NA""}",NA,NA,NA,NA,NA,NA,NA,NA,NA,NA,NA,NA,NA,NA,NA,NA,NA,NA,NA,NA,NA,NA,NA
NA,NA,NA,NA,NA,demo_prev_study,survey-multi-choice,98,367795,0.0-11.0,219,1,2025-05-06T00:47:19Z,b60275e29fe2361ab97ac0ac217840d7,"Mozilla/5.0 (Macintosh; Intel Mac OS X 10_15_7) AppleWebKit/537.36 (KHTML, like Gecko) Chrome/116.0.0.0 Safari/537.36",Macintosh,Chrome,116.0.0.0,OS X,10_15_7,https://5puzkbbxv1.cognition.run/?sona_id=56954,"en-US,en;q=0.9",2uzd8gtk4ovmqjj,20,"[""White""]",No,Female,NA,No,373847.1000000015,NA,6001,NA,"{""Q0"":""No""}",NA,NA,NA,NA,NA,NA,NA,NA,NA,NA,NA,NA,NA,NA,NA,NA,NA,NA,NA,NA,NA,NA,[0]
NA,NA,NA,NA,NA,post_survey_message,html-keyboard-response,99,370411,0.0-12.0,219,1,2025-05-06T00:47:19Z,b60275e29fe2361ab97ac0ac217840d7,"Mozilla/5.0 (Macintosh; Intel Mac OS X 10_15_7) AppleWebKit/537.36 (KHTML, like Gecko) Chrome/116.0.0.0 Safari/537.36",Macintosh,Chrome,116.0.0.0,OS X,10_15_7,https://5puzkbbxv1.cognition.run/?sona_id=56954,"en-US,en;q=0.9",2uzd8gtk4ovmqjj,20,"[""White""]",No,Female,NA,No,373847.1000000015,NA,2605,NA,j,NA,NA,NA,NA,NA,NA,NA,NA,NA,NA,NA,NA,NA,NA,NA,NA,NA,NA,NA,NA,NA,NA,NA
NA,NA,NA,NA,NA,debrief,image-keyboard-response,100,373855,0.0-13.0,219,1,2025-05-06T00:47:19Z,b60275e29fe2361ab97ac0ac217840d7,"Mozilla/5.0 (Macintosh; Intel Mac OS X 10_15_7) AppleWebKit/537.36 (KHTML, like Gecko) Chrome/116.0.0.0 Safari/537.36",Macintosh,Chrome,116.0.0.0,OS X,10_15_7,https://5puzkbbxv1.cognition.run/?sona_id=56954,"en-US,en;q=0.9",2uzd8gtk4ovmqjj,20,"[""White""]",No,Female,NA,No,373847.1000000015,NA,3417,Judg_choice_debrief.png,p,NA,NA,NA,NA,NA,NA,NA,NA,NA,NA,NA,NA,NA,NA,NA,NA,NA,NA,NA,NA,NA,NA,NA
