success,timeout,failed_images,failed_audio,failed_video,screen_id,trial_type,trial_index,time_elapsed,internal_node_id,run_id,condition,recorded_at,source_code_version,user_agent,device,browser,browser_version,platform,platform_version,referer,accept_language,ppt_id,age,race,ethnicity,gender,other_countries,prev_study,exp_duration,view_history,rt,stimulus,response,phase,order,set,effect,t_high,category,d1_best,d2_best,d1_worst1,d2_worst1,d1_worst2,d2_worst2,first_dim,d1_t,d1_c,d1_d,d2_t,d2_c,d2_d,d1_name,d2_name,strategy_response,question_order
TRUE,FALSE,[],[],[],img preload,preload,0,287,0.0-0.0,224,1,2025-05-06T02:32:59Z,b60275e29fe2361ab97ac0ac217840d7,"Mozilla/5.0 (Windows NT 10.0; Win64; x64) AppleWebKit/537.36 (KHTML, like Gecko) Chrome/136.0.0.0 Safari/537.36 Edg/136.0.0.0",WebKit,Edge,136.0.0.0,Windows,10,https://5puzkbbxv1.cognition.run/?sona_id=57850,"en-US,en;q=0.9",jqky8h75s0gqrd8,19,"[""Black or African-American""]",No,Male,"Cameroon- 5, Italy- 2",I'm not sure,1127823.099999994,NA,NA,NA,NA,NA,NA,NA,NA,NA,NA,NA,NA,NA,NA,NA,NA,NA,NA,NA,NA,NA,NA,NA,NA,NA,NA,NA
NA,NA,NA,NA,NA,computer_message,instructions,1,3468,0.0-1.0,224,1,2025-05-06T02:32:59Z,b60275e29fe2361ab97ac0ac217840d7,"Mozilla/5.0 (Windows NT 10.0; Win64; x64) AppleWebKit/537.36 (KHTML, like Gecko) Chrome/136.0.0.0 Safari/537.36 Edg/136.0.0.0",WebKit,Edge,136.0.0.0,Windows,10,https://5puzkbbxv1.cognition.run/?sona_id=57850,"en-US,en;q=0.9",jqky8h75s0gqrd8,19,"[""Black or African-American""]",No,Male,"Cameroon- 5, Italy- 2",I'm not sure,1127823.099999994,"[{""page_index"":0,""viewing_time"":3180}]",3180,NA,NA,NA,NA,NA,NA,NA,NA,NA,NA,NA,NA,NA,NA,NA,NA,NA,NA,NA,NA,NA,NA,NA,NA,NA
TRUE,NA,NA,NA,NA,NA,fullscreen,2,6910,0.0-2.0,224,1,2025-05-06T02:32:59Z,b60275e29fe2361ab97ac0ac217840d7,"Mozilla/5.0 (Windows NT 10.0; Win64; x64) AppleWebKit/537.36 (KHTML, like Gecko) Chrome/136.0.0.0 Safari/537.36 Edg/136.0.0.0",WebKit,Edge,136.0.0.0,Windows,10,https://5puzkbbxv1.cognition.run/?sona_id=57850,"en-US,en;q=0.9",jqky8h75s0gqrd8,19,"[""Black or African-American""]",No,Male,"Cameroon- 5, Italy- 2",I'm not sure,1127823.099999994,NA,2431,NA,NA,NA,NA,NA,NA,NA,NA,NA,NA,NA,NA,NA,NA,NA,NA,NA,NA,NA,NA,NA,NA,NA,NA,NA
NA,NA,NA,NA,NA,choice_instructions,instructions,3,55143,0.0-3.0,224,1,2025-05-06T02:32:59Z,b60275e29fe2361ab97ac0ac217840d7,"Mozilla/5.0 (Windows NT 10.0; Win64; x64) AppleWebKit/537.36 (KHTML, like Gecko) Chrome/136.0.0.0 Safari/537.36 Edg/136.0.0.0",WebKit,Edge,136.0.0.0,Windows,10,https://5puzkbbxv1.cognition.run/?sona_id=57850,"en-US,en;q=0.9",jqky8h75s0gqrd8,19,"[""Black or African-American""]",No,Male,"Cameroon- 5, Italy- 2",I'm not sure,1127823.099999994,"[{""page_index"":0,""viewing_time"":3256},{""page_index"":1,""viewing_time"":3750},{""page_index"":2,""viewing_time"":2182},{""page_index"":3,""viewing_time"":2917},{""page_index"":4,""viewing_time"":1801},{""page_index"":5,""viewing_time"":31202},{""page_index"":6,""viewing_time"":3124}]",48232,NA,NA,NA,NA,NA,NA,NA,NA,NA,NA,NA,NA,NA,NA,NA,NA,NA,NA,NA,NA,NA,NA,NA,NA,NA
NA,NA,NA,NA,NA,choice_trial_setup,html-keyboard-response,4,55446,0.0-4.0-0.0,224,1,2025-05-06T02:32:59Z,b60275e29fe2361ab97ac0ac217840d7,"Mozilla/5.0 (Windows NT 10.0; Win64; x64) AppleWebKit/537.36 (KHTML, like Gecko) Chrome/136.0.0.0 Safari/537.36 Edg/136.0.0.0",WebKit,Edge,136.0.0.0,Windows,10,https://5puzkbbxv1.cognition.run/?sona_id=57850,"en-US,en;q=0.9",jqky8h75s0gqrd8,19,"[""Black or African-American""]",No,Male,"Cameroon- 5, Italy- 2",I'm not sure,1127823.099999994,NA,null,<p></p>,null,choice,tdc,trinary,repulsion_B,2,washing machines,null,null,null,null,null,null,1,NA,NA,NA,NA,NA,NA,NA,NA,NA,NA
NA,NA,NA,NA,NA,choice_trial,survey-html-form,5,69872,0.0-4.0-1.0,224,1,2025-05-06T02:32:59Z,b60275e29fe2361ab97ac0ac217840d7,"Mozilla/5.0 (Windows NT 10.0; Win64; x64) AppleWebKit/537.36 (KHTML, like Gecko) Chrome/136.0.0.0 Safari/537.36 Edg/136.0.0.0",WebKit,Edge,136.0.0.0,Windows,10,https://5puzkbbxv1.cognition.run/?sona_id=57850,"en-US,en;q=0.9",jqky8h75s0gqrd8,19,"[""Black or African-American""]",No,Male,"Cameroon- 5, Italy- 2",I'm not sure,1127823.099999994,NA,14424,NA,"{""product_choice"":""A""}",choice,tdc,trinary,repulsion_B,2,washing machines,null,null,null,null,null,null,1,40,30,40,90,100,80,Average lifespan,Energy savings,NA,NA
NA,NA,NA,NA,NA,choice_trial_setup,html-keyboard-response,6,70174,0.0-4.0-0.1,224,1,2025-05-06T02:32:59Z,b60275e29fe2361ab97ac0ac217840d7,"Mozilla/5.0 (Windows NT 10.0; Win64; x64) AppleWebKit/537.36 (KHTML, like Gecko) Chrome/136.0.0.0 Safari/537.36 Edg/136.0.0.0",WebKit,Edge,136.0.0.0,Windows,10,https://5puzkbbxv1.cognition.run/?sona_id=57850,"en-US,en;q=0.9",jqky8h75s0gqrd8,19,"[""Black or African-American""]",No,Male,"Cameroon- 5, Italy- 2",I'm not sure,1127823.099999994,NA,null,<p></p>,null,choice,cdt,trinary,repulsion_B,1,laptops,null,null,null,null,null,null,1,NA,NA,NA,NA,NA,NA,NA,NA,NA,NA
NA,NA,NA,NA,NA,choice_trial,survey-html-form,7,98778,0.0-4.0-1.1,224,1,2025-05-06T02:32:59Z,b60275e29fe2361ab97ac0ac217840d7,"Mozilla/5.0 (Windows NT 10.0; Win64; x64) AppleWebKit/537.36 (KHTML, like Gecko) Chrome/136.0.0.0 Safari/537.36 Edg/136.0.0.0",WebKit,Edge,136.0.0.0,Windows,10,https://5puzkbbxv1.cognition.run/?sona_id=57850,"en-US,en;q=0.9",jqky8h75s0gqrd8,19,"[""Black or African-American""]",No,Male,"Cameroon- 5, Italy- 2",I'm not sure,1127823.099999994,NA,28602,NA,"{""product_choice"":""C""}",choice,cdt,trinary,repulsion_B,1,laptops,null,null,null,null,null,null,1,90,100,80,40,30,40,Processing speed,Memory (RAM),NA,NA
NA,NA,NA,NA,NA,choice_trial_setup,html-keyboard-response,8,99079,0.0-4.0-0.2,224,1,2025-05-06T02:32:59Z,b60275e29fe2361ab97ac0ac217840d7,"Mozilla/5.0 (Windows NT 10.0; Win64; x64) AppleWebKit/537.36 (KHTML, like Gecko) Chrome/136.0.0.0 Safari/537.36 Edg/136.0.0.0",WebKit,Edge,136.0.0.0,Windows,10,https://5puzkbbxv1.cognition.run/?sona_id=57850,"en-US,en;q=0.9",jqky8h75s0gqrd8,19,"[""Black or African-American""]",No,Male,"Cameroon- 5, Italy- 2",I'm not sure,1127823.099999994,NA,null,<p></p>,null,choice,ctd,trinary,repulsion_A,1,washing machines,null,null,null,null,null,null,1,NA,NA,NA,NA,NA,NA,NA,NA,NA,NA
NA,NA,NA,NA,NA,choice_trial,survey-html-form,9,111033,0.0-4.0-1.2,224,1,2025-05-06T02:32:59Z,b60275e29fe2361ab97ac0ac217840d7,"Mozilla/5.0 (Windows NT 10.0; Win64; x64) AppleWebKit/537.36 (KHTML, like Gecko) Chrome/136.0.0.0 Safari/537.36 Edg/136.0.0.0",WebKit,Edge,136.0.0.0,Windows,10,https://5puzkbbxv1.cognition.run/?sona_id=57850,"en-US,en;q=0.9",jqky8h75s0gqrd8,19,"[""Black or African-American""]",No,Male,"Cameroon- 5, Italy- 2",I'm not sure,1127823.099999994,NA,11952,NA,"{""product_choice"":""A""}",choice,ctd,trinary,repulsion_A,1,washing machines,null,null,null,null,null,null,1,100,90,100,30,40,20,Average lifespan,Energy savings,NA,NA
NA,NA,NA,NA,NA,choice_trial_setup,html-keyboard-response,10,111335,0.0-4.0-0.3,224,1,2025-05-06T02:32:59Z,b60275e29fe2361ab97ac0ac217840d7,"Mozilla/5.0 (Windows NT 10.0; Win64; x64) AppleWebKit/537.36 (KHTML, like Gecko) Chrome/136.0.0.0 Safari/537.36 Edg/136.0.0.0",WebKit,Edge,136.0.0.0,Windows,10,https://5puzkbbxv1.cognition.run/?sona_id=57850,"en-US,en;q=0.9",jqky8h75s0gqrd8,19,"[""Black or African-American""]",No,Male,"Cameroon- 5, Italy- 2",I'm not sure,1127823.099999994,NA,null,<p></p>,null,choice,ct,binary,attraction,NA,laptops,null,null,null,null,null,null,2,NA,NA,NA,NA,NA,NA,NA,NA,NA,NA
NA,NA,NA,NA,NA,choice_trial,survey-html-form,11,134042,0.0-4.0-1.3,224,1,2025-05-06T02:32:59Z,b60275e29fe2361ab97ac0ac217840d7,"Mozilla/5.0 (Windows NT 10.0; Win64; x64) AppleWebKit/537.36 (KHTML, like Gecko) Chrome/136.0.0.0 Safari/537.36 Edg/136.0.0.0",WebKit,Edge,136.0.0.0,Windows,10,https://5puzkbbxv1.cognition.run/?sona_id=57850,"en-US,en;q=0.9",jqky8h75s0gqrd8,19,"[""Black or African-American""]",No,Male,"Cameroon- 5, Italy- 2",I'm not sure,1127823.099999994,NA,22706,NA,"{""product_choice"":""B""}",choice,ct,binary,attraction,NA,laptops,null,null,null,null,null,null,2,60,50,null,50,60,null,Processing speed,Memory (RAM),NA,NA
NA,NA,NA,NA,NA,choice_trial_setup,html-keyboard-response,12,134344,0.0-4.0-0.4,224,1,2025-05-06T02:32:59Z,b60275e29fe2361ab97ac0ac217840d7,"Mozilla/5.0 (Windows NT 10.0; Win64; x64) AppleWebKit/537.36 (KHTML, like Gecko) Chrome/136.0.0.0 Safari/537.36 Edg/136.0.0.0",WebKit,Edge,136.0.0.0,Windows,10,https://5puzkbbxv1.cognition.run/?sona_id=57850,"en-US,en;q=0.9",jqky8h75s0gqrd8,19,"[""Black or African-American""]",No,Male,"Cameroon- 5, Italy- 2",I'm not sure,1127823.099999994,NA,null,<p></p>,null,choice,wbw,trinary,catch,null,televisions,80,90,30,50,5,50,2,NA,NA,NA,NA,NA,NA,NA,NA,NA,NA
NA,NA,NA,NA,NA,choice_trial,survey-html-form,13,142796,0.0-4.0-1.4,224,1,2025-05-06T02:32:59Z,b60275e29fe2361ab97ac0ac217840d7,"Mozilla/5.0 (Windows NT 10.0; Win64; x64) AppleWebKit/537.36 (KHTML, like Gecko) Chrome/136.0.0.0 Safari/537.36 Edg/136.0.0.0",WebKit,Edge,136.0.0.0,Windows,10,https://5puzkbbxv1.cognition.run/?sona_id=57850,"en-US,en;q=0.9",jqky8h75s0gqrd8,19,"[""Black or African-American""]",No,Male,"Cameroon- 5, Italy- 2",I'm not sure,1127823.099999994,NA,8450,NA,"{""product_choice"":""B""}",choice,wbw,trinary,catch,null,televisions,80,90,30,50,5,50,2,null,null,null,null,null,null,Screen size,Average lifespan,NA,NA
NA,NA,NA,NA,NA,choice_trial_setup,html-keyboard-response,14,143099,0.0-4.0-0.5,224,1,2025-05-06T02:32:59Z,b60275e29fe2361ab97ac0ac217840d7,"Mozilla/5.0 (Windows NT 10.0; Win64; x64) AppleWebKit/537.36 (KHTML, like Gecko) Chrome/136.0.0.0 Safari/537.36 Edg/136.0.0.0",WebKit,Edge,136.0.0.0,Windows,10,https://5puzkbbxv1.cognition.run/?sona_id=57850,"en-US,en;q=0.9",jqky8h75s0gqrd8,19,"[""Black or African-American""]",No,Male,"Cameroon- 5, Italy- 2",I'm not sure,1127823.099999994,NA,null,<p></p>,null,choice,cdt,trinary,repulsion_A,1,laptops,null,null,null,null,null,null,1,NA,NA,NA,NA,NA,NA,NA,NA,NA,NA
NA,NA,NA,NA,NA,choice_trial,survey-html-form,15,150395,0.0-4.0-1.5,224,1,2025-05-06T02:32:59Z,b60275e29fe2361ab97ac0ac217840d7,"Mozilla/5.0 (Windows NT 10.0; Win64; x64) AppleWebKit/537.36 (KHTML, like Gecko) Chrome/136.0.0.0 Safari/537.36 Edg/136.0.0.0",WebKit,Edge,136.0.0.0,Windows,10,https://5puzkbbxv1.cognition.run/?sona_id=57850,"en-US,en;q=0.9",jqky8h75s0gqrd8,19,"[""Black or African-American""]",No,Male,"Cameroon- 5, Italy- 2",I'm not sure,1127823.099999994,NA,7294,NA,"{""product_choice"":""A""}",choice,cdt,trinary,repulsion_A,1,laptops,null,null,null,null,null,null,1,100,90,100,30,40,20,Processing speed,Memory (RAM),NA,NA
NA,NA,NA,NA,NA,choice_trial_setup,html-keyboard-response,16,150697,0.0-4.0-0.6,224,1,2025-05-06T02:32:59Z,b60275e29fe2361ab97ac0ac217840d7,"Mozilla/5.0 (Windows NT 10.0; Win64; x64) AppleWebKit/537.36 (KHTML, like Gecko) Chrome/136.0.0.0 Safari/537.36 Edg/136.0.0.0",WebKit,Edge,136.0.0.0,Windows,10,https://5puzkbbxv1.cognition.run/?sona_id=57850,"en-US,en;q=0.9",jqky8h75s0gqrd8,19,"[""Black or African-American""]",No,Male,"Cameroon- 5, Italy- 2",I'm not sure,1127823.099999994,NA,null,<p></p>,null,choice,tdc,trinary,attraction,1,laptops,null,null,null,null,null,null,1,NA,NA,NA,NA,NA,NA,NA,NA,NA,NA
NA,NA,NA,NA,NA,choice_trial,survey-html-form,17,159203,0.0-4.0-1.6,224,1,2025-05-06T02:32:59Z,b60275e29fe2361ab97ac0ac217840d7,"Mozilla/5.0 (Windows NT 10.0; Win64; x64) AppleWebKit/537.36 (KHTML, like Gecko) Chrome/136.0.0.0 Safari/537.36 Edg/136.0.0.0",WebKit,Edge,136.0.0.0,Windows,10,https://5puzkbbxv1.cognition.run/?sona_id=57850,"en-US,en;q=0.9",jqky8h75s0gqrd8,19,"[""Black or African-American""]",No,Male,"Cameroon- 5, Italy- 2",I'm not sure,1127823.099999994,NA,8503,NA,"{""product_choice"":""A""}",choice,tdc,trinary,attraction,1,laptops,null,null,null,null,null,null,1,60,50,60,50,60,40,Processing speed,Memory (RAM),NA,NA
NA,NA,NA,NA,NA,choice_trial_setup,html-keyboard-response,18,159509,0.0-4.0-0.7,224,1,2025-05-06T02:32:59Z,b60275e29fe2361ab97ac0ac217840d7,"Mozilla/5.0 (Windows NT 10.0; Win64; x64) AppleWebKit/537.36 (KHTML, like Gecko) Chrome/136.0.0.0 Safari/537.36 Edg/136.0.0.0",WebKit,Edge,136.0.0.0,Windows,10,https://5puzkbbxv1.cognition.run/?sona_id=57850,"en-US,en;q=0.9",jqky8h75s0gqrd8,19,"[""Black or African-American""]",No,Male,"Cameroon- 5, Italy- 2",I'm not sure,1127823.099999994,NA,null,<p></p>,null,choice,tc,binary,attraction,NA,televisions,null,null,null,null,null,null,2,NA,NA,NA,NA,NA,NA,NA,NA,NA,NA
NA,NA,NA,NA,NA,choice_trial,survey-html-form,19,185522,0.0-4.0-1.7,224,1,2025-05-06T02:32:59Z,b60275e29fe2361ab97ac0ac217840d7,"Mozilla/5.0 (Windows NT 10.0; Win64; x64) AppleWebKit/537.36 (KHTML, like Gecko) Chrome/136.0.0.0 Safari/537.36 Edg/136.0.0.0",WebKit,Edge,136.0.0.0,Windows,10,https://5puzkbbxv1.cognition.run/?sona_id=57850,"en-US,en;q=0.9",jqky8h75s0gqrd8,19,"[""Black or African-American""]",No,Male,"Cameroon- 5, Italy- 2",I'm not sure,1127823.099999994,NA,26011,NA,"{""product_choice"":""A""}",choice,tc,binary,attraction,NA,televisions,null,null,null,null,null,null,2,60,50,null,50,60,null,Screen size,Average lifespan,NA,NA
NA,NA,NA,NA,NA,choice_trial_setup,html-keyboard-response,20,185823,0.0-4.0-0.8,224,1,2025-05-06T02:32:59Z,b60275e29fe2361ab97ac0ac217840d7,"Mozilla/5.0 (Windows NT 10.0; Win64; x64) AppleWebKit/537.36 (KHTML, like Gecko) Chrome/136.0.0.0 Safari/537.36 Edg/136.0.0.0",WebKit,Edge,136.0.0.0,Windows,10,https://5puzkbbxv1.cognition.run/?sona_id=57850,"en-US,en;q=0.9",jqky8h75s0gqrd8,19,"[""Black or African-American""]",No,Male,"Cameroon- 5, Italy- 2",I'm not sure,1127823.099999994,NA,null,<p></p>,null,choice,tc,binary,repulsion,2,laptops,null,null,null,null,null,null,2,NA,NA,NA,NA,NA,NA,NA,NA,NA,NA
NA,NA,NA,NA,NA,choice_trial,survey-html-form,21,194502,0.0-4.0-1.8,224,1,2025-05-06T02:32:59Z,b60275e29fe2361ab97ac0ac217840d7,"Mozilla/5.0 (Windows NT 10.0; Win64; x64) AppleWebKit/537.36 (KHTML, like Gecko) Chrome/136.0.0.0 Safari/537.36 Edg/136.0.0.0",WebKit,Edge,136.0.0.0,Windows,10,https://5puzkbbxv1.cognition.run/?sona_id=57850,"en-US,en;q=0.9",jqky8h75s0gqrd8,19,"[""Black or African-American""]",No,Male,"Cameroon- 5, Italy- 2",I'm not sure,1127823.099999994,NA,8677,NA,"{""product_choice"":""B""}",choice,tc,binary,repulsion,2,laptops,null,null,null,null,null,null,2,30,40,null,100,90,null,Processing speed,Memory (RAM),NA,NA
NA,NA,NA,NA,NA,choice_trial_setup,html-keyboard-response,22,194804,0.0-4.0-0.9,224,1,2025-05-06T02:32:59Z,b60275e29fe2361ab97ac0ac217840d7,"Mozilla/5.0 (Windows NT 10.0; Win64; x64) AppleWebKit/537.36 (KHTML, like Gecko) Chrome/136.0.0.0 Safari/537.36 Edg/136.0.0.0",WebKit,Edge,136.0.0.0,Windows,10,https://5puzkbbxv1.cognition.run/?sona_id=57850,"en-US,en;q=0.9",jqky8h75s0gqrd8,19,"[""Black or African-American""]",No,Male,"Cameroon- 5, Italy- 2",I'm not sure,1127823.099999994,NA,null,<p></p>,null,choice,ct,binary,repulsion,1,microwave ovens,null,null,null,null,null,null,2,NA,NA,NA,NA,NA,NA,NA,NA,NA,NA
NA,NA,NA,NA,NA,choice_trial,survey-html-form,23,203171,0.0-4.0-1.9,224,1,2025-05-06T02:32:59Z,b60275e29fe2361ab97ac0ac217840d7,"Mozilla/5.0 (Windows NT 10.0; Win64; x64) AppleWebKit/537.36 (KHTML, like Gecko) Chrome/136.0.0.0 Safari/537.36 Edg/136.0.0.0",WebKit,Edge,136.0.0.0,Windows,10,https://5puzkbbxv1.cognition.run/?sona_id=57850,"en-US,en;q=0.9",jqky8h75s0gqrd8,19,"[""Black or African-American""]",No,Male,"Cameroon- 5, Italy- 2",I'm not sure,1127823.099999994,NA,8365,NA,"{""product_choice"":""A""}",choice,ct,binary,repulsion,1,microwave ovens,null,null,null,null,null,null,2,100,90,null,30,40,null,Warranty,Cooking power,NA,NA
NA,NA,NA,NA,NA,choice_trial_setup,html-keyboard-response,24,203473,0.0-4.0-0.10,224,1,2025-05-06T02:32:59Z,b60275e29fe2361ab97ac0ac217840d7,"Mozilla/5.0 (Windows NT 10.0; Win64; x64) AppleWebKit/537.36 (KHTML, like Gecko) Chrome/136.0.0.0 Safari/537.36 Edg/136.0.0.0",WebKit,Edge,136.0.0.0,Windows,10,https://5puzkbbxv1.cognition.run/?sona_id=57850,"en-US,en;q=0.9",jqky8h75s0gqrd8,19,"[""Black or African-American""]",No,Male,"Cameroon- 5, Italy- 2",I'm not sure,1127823.099999994,NA,null,<p></p>,null,choice,dct,trinary,repulsion_B,1,washing machines,null,null,null,null,null,null,1,NA,NA,NA,NA,NA,NA,NA,NA,NA,NA
NA,NA,NA,NA,NA,choice_trial,survey-html-form,25,253499,0.0-4.0-1.10,224,1,2025-05-06T02:32:59Z,b60275e29fe2361ab97ac0ac217840d7,"Mozilla/5.0 (Windows NT 10.0; Win64; x64) AppleWebKit/537.36 (KHTML, like Gecko) Chrome/136.0.0.0 Safari/537.36 Edg/136.0.0.0",WebKit,Edge,136.0.0.0,Windows,10,https://5puzkbbxv1.cognition.run/?sona_id=57850,"en-US,en;q=0.9",jqky8h75s0gqrd8,19,"[""Black or African-American""]",No,Male,"Cameroon- 5, Italy- 2",I'm not sure,1127823.099999994,NA,50024,NA,"{""product_choice"":""C""}",choice,dct,trinary,repulsion_B,1,washing machines,null,null,null,null,null,null,1,90,100,80,40,30,40,Average lifespan,Energy savings,NA,NA
NA,NA,NA,NA,NA,choice_trial_setup,html-keyboard-response,26,253801,0.0-4.0-0.11,224,1,2025-05-06T02:32:59Z,b60275e29fe2361ab97ac0ac217840d7,"Mozilla/5.0 (Windows NT 10.0; Win64; x64) AppleWebKit/537.36 (KHTML, like Gecko) Chrome/136.0.0.0 Safari/537.36 Edg/136.0.0.0",WebKit,Edge,136.0.0.0,Windows,10,https://5puzkbbxv1.cognition.run/?sona_id=57850,"en-US,en;q=0.9",jqky8h75s0gqrd8,19,"[""Black or African-American""]",No,Male,"Cameroon- 5, Italy- 2",I'm not sure,1127823.099999994,NA,null,<p></p>,null,choice,cdt,trinary,attraction,2,laptops,null,null,null,null,null,null,2,NA,NA,NA,NA,NA,NA,NA,NA,NA,NA
NA,NA,NA,NA,NA,choice_trial,survey-html-form,27,265759,0.0-4.0-1.11,224,1,2025-05-06T02:32:59Z,b60275e29fe2361ab97ac0ac217840d7,"Mozilla/5.0 (Windows NT 10.0; Win64; x64) AppleWebKit/537.36 (KHTML, like Gecko) Chrome/136.0.0.0 Safari/537.36 Edg/136.0.0.0",WebKit,Edge,136.0.0.0,Windows,10,https://5puzkbbxv1.cognition.run/?sona_id=57850,"en-US,en;q=0.9",jqky8h75s0gqrd8,19,"[""Black or African-American""]",No,Male,"Cameroon- 5, Italy- 2",I'm not sure,1127823.099999994,NA,11956,NA,"{""product_choice"":""A""}",choice,cdt,trinary,attraction,2,laptops,null,null,null,null,null,null,2,50,60,40,60,50,60,Processing speed,Memory (RAM),NA,NA
NA,NA,NA,NA,NA,choice_trial_setup,html-keyboard-response,28,266061,0.0-4.0-0.12,224,1,2025-05-06T02:32:59Z,b60275e29fe2361ab97ac0ac217840d7,"Mozilla/5.0 (Windows NT 10.0; Win64; x64) AppleWebKit/537.36 (KHTML, like Gecko) Chrome/136.0.0.0 Safari/537.36 Edg/136.0.0.0",WebKit,Edge,136.0.0.0,Windows,10,https://5puzkbbxv1.cognition.run/?sona_id=57850,"en-US,en;q=0.9",jqky8h75s0gqrd8,19,"[""Black or African-American""]",No,Male,"Cameroon- 5, Italy- 2",I'm not sure,1127823.099999994,NA,null,<p></p>,null,choice,ct,binary,repulsion,2,televisions,null,null,null,null,null,null,2,NA,NA,NA,NA,NA,NA,NA,NA,NA,NA
NA,NA,NA,NA,NA,choice_trial,survey-html-form,29,278672,0.0-4.0-1.12,224,1,2025-05-06T02:32:59Z,b60275e29fe2361ab97ac0ac217840d7,"Mozilla/5.0 (Windows NT 10.0; Win64; x64) AppleWebKit/537.36 (KHTML, like Gecko) Chrome/136.0.0.0 Safari/537.36 Edg/136.0.0.0",WebKit,Edge,136.0.0.0,Windows,10,https://5puzkbbxv1.cognition.run/?sona_id=57850,"en-US,en;q=0.9",jqky8h75s0gqrd8,19,"[""Black or African-American""]",No,Male,"Cameroon- 5, Italy- 2",I'm not sure,1127823.099999994,NA,12610,NA,"{""product_choice"":""A""}",choice,ct,binary,repulsion,2,televisions,null,null,null,null,null,null,2,30,40,null,100,90,null,Screen size,Average lifespan,NA,NA
NA,NA,NA,NA,NA,choice_trial_setup,html-keyboard-response,30,278974,0.0-4.0-0.13,224,1,2025-05-06T02:32:59Z,b60275e29fe2361ab97ac0ac217840d7,"Mozilla/5.0 (Windows NT 10.0; Win64; x64) AppleWebKit/537.36 (KHTML, like Gecko) Chrome/136.0.0.0 Safari/537.36 Edg/136.0.0.0",WebKit,Edge,136.0.0.0,Windows,10,https://5puzkbbxv1.cognition.run/?sona_id=57850,"en-US,en;q=0.9",jqky8h75s0gqrd8,19,"[""Black or African-American""]",No,Male,"Cameroon- 5, Italy- 2",I'm not sure,1127823.099999994,NA,null,<p></p>,null,choice,cdt,trinary,attraction,1,washing machines,null,null,null,null,null,null,1,NA,NA,NA,NA,NA,NA,NA,NA,NA,NA
NA,NA,NA,NA,NA,choice_trial,survey-html-form,31,298940,0.0-4.0-1.13,224,1,2025-05-06T02:32:59Z,b60275e29fe2361ab97ac0ac217840d7,"Mozilla/5.0 (Windows NT 10.0; Win64; x64) AppleWebKit/537.36 (KHTML, like Gecko) Chrome/136.0.0.0 Safari/537.36 Edg/136.0.0.0",WebKit,Edge,136.0.0.0,Windows,10,https://5puzkbbxv1.cognition.run/?sona_id=57850,"en-US,en;q=0.9",jqky8h75s0gqrd8,19,"[""Black or African-American""]",No,Male,"Cameroon- 5, Italy- 2",I'm not sure,1127823.099999994,NA,19964,NA,"{""product_choice"":""A""}",choice,cdt,trinary,attraction,1,washing machines,null,null,null,null,null,null,1,60,50,60,50,60,40,Average lifespan,Energy savings,NA,NA
NA,NA,NA,NA,NA,choice_trial_setup,html-keyboard-response,32,299243,0.0-4.0-0.14,224,1,2025-05-06T02:32:59Z,b60275e29fe2361ab97ac0ac217840d7,"Mozilla/5.0 (Windows NT 10.0; Win64; x64) AppleWebKit/537.36 (KHTML, like Gecko) Chrome/136.0.0.0 Safari/537.36 Edg/136.0.0.0",WebKit,Edge,136.0.0.0,Windows,10,https://5puzkbbxv1.cognition.run/?sona_id=57850,"en-US,en;q=0.9",jqky8h75s0gqrd8,19,"[""Black or African-American""]",No,Male,"Cameroon- 5, Italy- 2",I'm not sure,1127823.099999994,NA,null,<p></p>,null,choice,bw,binary,catch,null,televisions,60,70,10,45,null,null,1,NA,NA,NA,NA,NA,NA,NA,NA,NA,NA
NA,NA,NA,NA,NA,choice_trial,survey-html-form,33,312773,0.0-4.0-1.14,224,1,2025-05-06T02:32:59Z,b60275e29fe2361ab97ac0ac217840d7,"Mozilla/5.0 (Windows NT 10.0; Win64; x64) AppleWebKit/537.36 (KHTML, like Gecko) Chrome/136.0.0.0 Safari/537.36 Edg/136.0.0.0",WebKit,Edge,136.0.0.0,Windows,10,https://5puzkbbxv1.cognition.run/?sona_id=57850,"en-US,en;q=0.9",jqky8h75s0gqrd8,19,"[""Black or African-American""]",No,Male,"Cameroon- 5, Italy- 2",I'm not sure,1127823.099999994,NA,13528,NA,"{""product_choice"":""A""}",choice,bw,binary,catch,null,televisions,60,70,10,45,null,null,1,null,null,null,null,null,null,Screen size,Average lifespan,NA,NA
NA,NA,NA,NA,NA,choice_trial_setup,html-keyboard-response,34,313074,0.0-4.0-0.15,224,1,2025-05-06T02:32:59Z,b60275e29fe2361ab97ac0ac217840d7,"Mozilla/5.0 (Windows NT 10.0; Win64; x64) AppleWebKit/537.36 (KHTML, like Gecko) Chrome/136.0.0.0 Safari/537.36 Edg/136.0.0.0",WebKit,Edge,136.0.0.0,Windows,10,https://5puzkbbxv1.cognition.run/?sona_id=57850,"en-US,en;q=0.9",jqky8h75s0gqrd8,19,"[""Black or African-American""]",No,Male,"Cameroon- 5, Italy- 2",I'm not sure,1127823.099999994,NA,null,<p></p>,null,choice,dtc,trinary,attraction,2,washing machines,null,null,null,null,null,null,1,NA,NA,NA,NA,NA,NA,NA,NA,NA,NA
NA,NA,NA,NA,NA,choice_trial,survey-html-form,35,324364,0.0-4.0-1.15,224,1,2025-05-06T02:32:59Z,b60275e29fe2361ab97ac0ac217840d7,"Mozilla/5.0 (Windows NT 10.0; Win64; x64) AppleWebKit/537.36 (KHTML, like Gecko) Chrome/136.0.0.0 Safari/537.36 Edg/136.0.0.0",WebKit,Edge,136.0.0.0,Windows,10,https://5puzkbbxv1.cognition.run/?sona_id=57850,"en-US,en;q=0.9",jqky8h75s0gqrd8,19,"[""Black or African-American""]",No,Male,"Cameroon- 5, Italy- 2",I'm not sure,1127823.099999994,NA,11288,NA,"{""product_choice"":""B""}",choice,dtc,trinary,attraction,2,washing machines,null,null,null,null,null,null,1,50,60,40,60,50,60,Average lifespan,Energy savings,NA,NA
NA,NA,NA,NA,NA,choice_trial_setup,html-keyboard-response,36,324666,0.0-4.0-0.16,224,1,2025-05-06T02:32:59Z,b60275e29fe2361ab97ac0ac217840d7,"Mozilla/5.0 (Windows NT 10.0; Win64; x64) AppleWebKit/537.36 (KHTML, like Gecko) Chrome/136.0.0.0 Safari/537.36 Edg/136.0.0.0",WebKit,Edge,136.0.0.0,Windows,10,https://5puzkbbxv1.cognition.run/?sona_id=57850,"en-US,en;q=0.9",jqky8h75s0gqrd8,19,"[""Black or African-American""]",No,Male,"Cameroon- 5, Italy- 2",I'm not sure,1127823.099999994,NA,null,<p></p>,null,choice,tcd,trinary,repulsion_A,1,televisions,null,null,null,null,null,null,1,NA,NA,NA,NA,NA,NA,NA,NA,NA,NA
NA,NA,NA,NA,NA,choice_trial,survey-html-form,37,335807,0.0-4.0-1.16,224,1,2025-05-06T02:32:59Z,b60275e29fe2361ab97ac0ac217840d7,"Mozilla/5.0 (Windows NT 10.0; Win64; x64) AppleWebKit/537.36 (KHTML, like Gecko) Chrome/136.0.0.0 Safari/537.36 Edg/136.0.0.0",WebKit,Edge,136.0.0.0,Windows,10,https://5puzkbbxv1.cognition.run/?sona_id=57850,"en-US,en;q=0.9",jqky8h75s0gqrd8,19,"[""Black or African-American""]",No,Male,"Cameroon- 5, Italy- 2",I'm not sure,1127823.099999994,NA,11139,NA,"{""product_choice"":""B""}",choice,tcd,trinary,repulsion_A,1,televisions,null,null,null,null,null,null,1,100,90,100,30,40,20,Screen size,Average lifespan,NA,NA
NA,NA,NA,NA,NA,choice_trial_setup,html-keyboard-response,38,336108,0.0-4.0-0.17,224,1,2025-05-06T02:32:59Z,b60275e29fe2361ab97ac0ac217840d7,"Mozilla/5.0 (Windows NT 10.0; Win64; x64) AppleWebKit/537.36 (KHTML, like Gecko) Chrome/136.0.0.0 Safari/537.36 Edg/136.0.0.0",WebKit,Edge,136.0.0.0,Windows,10,https://5puzkbbxv1.cognition.run/?sona_id=57850,"en-US,en;q=0.9",jqky8h75s0gqrd8,19,"[""Black or African-American""]",No,Male,"Cameroon- 5, Italy- 2",I'm not sure,1127823.099999994,NA,null,<p></p>,null,choice,cdt,trinary,repulsion_A,2,washing machines,null,null,null,null,null,null,1,NA,NA,NA,NA,NA,NA,NA,NA,NA,NA
NA,NA,NA,NA,NA,choice_trial,survey-html-form,39,345180,0.0-4.0-1.17,224,1,2025-05-06T02:32:59Z,b60275e29fe2361ab97ac0ac217840d7,"Mozilla/5.0 (Windows NT 10.0; Win64; x64) AppleWebKit/537.36 (KHTML, like Gecko) Chrome/136.0.0.0 Safari/537.36 Edg/136.0.0.0",WebKit,Edge,136.0.0.0,Windows,10,https://5puzkbbxv1.cognition.run/?sona_id=57850,"en-US,en;q=0.9",jqky8h75s0gqrd8,19,"[""Black or African-American""]",No,Male,"Cameroon- 5, Italy- 2",I'm not sure,1127823.099999994,NA,9070,NA,"{""product_choice"":""A""}",choice,cdt,trinary,repulsion_A,2,washing machines,null,null,null,null,null,null,1,30,40,20,100,90,100,Average lifespan,Energy savings,NA,NA
NA,NA,NA,NA,NA,choice_trial_setup,html-keyboard-response,40,345483,0.0-4.0-0.18,224,1,2025-05-06T02:32:59Z,b60275e29fe2361ab97ac0ac217840d7,"Mozilla/5.0 (Windows NT 10.0; Win64; x64) AppleWebKit/537.36 (KHTML, like Gecko) Chrome/136.0.0.0 Safari/537.36 Edg/136.0.0.0",WebKit,Edge,136.0.0.0,Windows,10,https://5puzkbbxv1.cognition.run/?sona_id=57850,"en-US,en;q=0.9",jqky8h75s0gqrd8,19,"[""Black or African-American""]",No,Male,"Cameroon- 5, Italy- 2",I'm not sure,1127823.099999994,NA,null,<p></p>,null,choice,wbw,trinary,catch,null,laptops,75,95,20,40,25,45,1,NA,NA,NA,NA,NA,NA,NA,NA,NA,NA
NA,NA,NA,NA,NA,choice_trial,survey-html-form,41,357754,0.0-4.0-1.18,224,1,2025-05-06T02:32:59Z,b60275e29fe2361ab97ac0ac217840d7,"Mozilla/5.0 (Windows NT 10.0; Win64; x64) AppleWebKit/537.36 (KHTML, like Gecko) Chrome/136.0.0.0 Safari/537.36 Edg/136.0.0.0",WebKit,Edge,136.0.0.0,Windows,10,https://5puzkbbxv1.cognition.run/?sona_id=57850,"en-US,en;q=0.9",jqky8h75s0gqrd8,19,"[""Black or African-American""]",No,Male,"Cameroon- 5, Italy- 2",I'm not sure,1127823.099999994,NA,12269,NA,"{""product_choice"":""B""}",choice,wbw,trinary,catch,null,laptops,75,95,20,40,25,45,1,null,null,null,null,null,null,Processing speed,Memory (RAM),NA,NA
NA,NA,NA,NA,NA,choice_trial_setup,html-keyboard-response,42,358062,0.0-4.0-0.19,224,1,2025-05-06T02:32:59Z,b60275e29fe2361ab97ac0ac217840d7,"Mozilla/5.0 (Windows NT 10.0; Win64; x64) AppleWebKit/537.36 (KHTML, like Gecko) Chrome/136.0.0.0 Safari/537.36 Edg/136.0.0.0",WebKit,Edge,136.0.0.0,Windows,10,https://5puzkbbxv1.cognition.run/?sona_id=57850,"en-US,en;q=0.9",jqky8h75s0gqrd8,19,"[""Black or African-American""]",No,Male,"Cameroon- 5, Italy- 2",I'm not sure,1127823.099999994,NA,null,<p></p>,null,choice,tcd,trinary,repulsion_A,2,laptops,null,null,null,null,null,null,1,NA,NA,NA,NA,NA,NA,NA,NA,NA,NA
NA,NA,NA,NA,NA,choice_trial,survey-html-form,43,419323,0.0-4.0-1.19,224,1,2025-05-06T02:32:59Z,b60275e29fe2361ab97ac0ac217840d7,"Mozilla/5.0 (Windows NT 10.0; Win64; x64) AppleWebKit/537.36 (KHTML, like Gecko) Chrome/136.0.0.0 Safari/537.36 Edg/136.0.0.0",WebKit,Edge,136.0.0.0,Windows,10,https://5puzkbbxv1.cognition.run/?sona_id=57850,"en-US,en;q=0.9",jqky8h75s0gqrd8,19,"[""Black or African-American""]",No,Male,"Cameroon- 5, Italy- 2",I'm not sure,1127823.099999994,NA,61259,NA,"{""product_choice"":""B""}",choice,tcd,trinary,repulsion_A,2,laptops,null,null,null,null,null,null,1,30,40,20,100,90,100,Processing speed,Memory (RAM),NA,NA
NA,NA,NA,NA,NA,choice_trial_setup,html-keyboard-response,44,419625,0.0-4.0-0.20,224,1,2025-05-06T02:32:59Z,b60275e29fe2361ab97ac0ac217840d7,"Mozilla/5.0 (Windows NT 10.0; Win64; x64) AppleWebKit/537.36 (KHTML, like Gecko) Chrome/136.0.0.0 Safari/537.36 Edg/136.0.0.0",WebKit,Edge,136.0.0.0,Windows,10,https://5puzkbbxv1.cognition.run/?sona_id=57850,"en-US,en;q=0.9",jqky8h75s0gqrd8,19,"[""Black or African-American""]",No,Male,"Cameroon- 5, Italy- 2",I'm not sure,1127823.099999994,NA,null,<p></p>,null,choice,dct,trinary,repulsion_B,1,televisions,null,null,null,null,null,null,2,NA,NA,NA,NA,NA,NA,NA,NA,NA,NA
NA,NA,NA,NA,NA,choice_trial,survey-html-form,45,426952,0.0-4.0-1.20,224,1,2025-05-06T02:32:59Z,b60275e29fe2361ab97ac0ac217840d7,"Mozilla/5.0 (Windows NT 10.0; Win64; x64) AppleWebKit/537.36 (KHTML, like Gecko) Chrome/136.0.0.0 Safari/537.36 Edg/136.0.0.0",WebKit,Edge,136.0.0.0,Windows,10,https://5puzkbbxv1.cognition.run/?sona_id=57850,"en-US,en;q=0.9",jqky8h75s0gqrd8,19,"[""Black or African-American""]",No,Male,"Cameroon- 5, Italy- 2",I'm not sure,1127823.099999994,NA,7325,NA,"{""product_choice"":""C""}",choice,dct,trinary,repulsion_B,1,televisions,null,null,null,null,null,null,2,90,100,80,40,30,40,Screen size,Average lifespan,NA,NA
NA,NA,NA,NA,NA,choice_trial_setup,html-keyboard-response,46,427255,0.0-4.0-0.21,224,1,2025-05-06T02:32:59Z,b60275e29fe2361ab97ac0ac217840d7,"Mozilla/5.0 (Windows NT 10.0; Win64; x64) AppleWebKit/537.36 (KHTML, like Gecko) Chrome/136.0.0.0 Safari/537.36 Edg/136.0.0.0",WebKit,Edge,136.0.0.0,Windows,10,https://5puzkbbxv1.cognition.run/?sona_id=57850,"en-US,en;q=0.9",jqky8h75s0gqrd8,19,"[""Black or African-American""]",No,Male,"Cameroon- 5, Italy- 2",I'm not sure,1127823.099999994,NA,null,<p></p>,null,choice,cdt,trinary,repulsion_B,2,laptops,null,null,null,null,null,null,2,NA,NA,NA,NA,NA,NA,NA,NA,NA,NA
NA,NA,NA,NA,NA,choice_trial,survey-html-form,47,433091,0.0-4.0-1.21,224,1,2025-05-06T02:32:59Z,b60275e29fe2361ab97ac0ac217840d7,"Mozilla/5.0 (Windows NT 10.0; Win64; x64) AppleWebKit/537.36 (KHTML, like Gecko) Chrome/136.0.0.0 Safari/537.36 Edg/136.0.0.0",WebKit,Edge,136.0.0.0,Windows,10,https://5puzkbbxv1.cognition.run/?sona_id=57850,"en-US,en;q=0.9",jqky8h75s0gqrd8,19,"[""Black or African-American""]",No,Male,"Cameroon- 5, Italy- 2",I'm not sure,1127823.099999994,NA,5833,NA,"{""product_choice"":""C""}",choice,cdt,trinary,repulsion_B,2,laptops,null,null,null,null,null,null,2,40,30,40,90,100,80,Processing speed,Memory (RAM),NA,NA
NA,NA,NA,NA,NA,choice_trial_setup,html-keyboard-response,48,433394,0.0-4.0-0.22,224,1,2025-05-06T02:32:59Z,b60275e29fe2361ab97ac0ac217840d7,"Mozilla/5.0 (Windows NT 10.0; Win64; x64) AppleWebKit/537.36 (KHTML, like Gecko) Chrome/136.0.0.0 Safari/537.36 Edg/136.0.0.0",WebKit,Edge,136.0.0.0,Windows,10,https://5puzkbbxv1.cognition.run/?sona_id=57850,"en-US,en;q=0.9",jqky8h75s0gqrd8,19,"[""Black or African-American""]",No,Male,"Cameroon- 5, Italy- 2",I'm not sure,1127823.099999994,NA,null,<p></p>,null,choice,cdt,trinary,repulsion_B,2,microwave ovens,null,null,null,null,null,null,2,NA,NA,NA,NA,NA,NA,NA,NA,NA,NA
NA,NA,NA,NA,NA,choice_trial,survey-html-form,49,438571,0.0-4.0-1.22,224,1,2025-05-06T02:32:59Z,b60275e29fe2361ab97ac0ac217840d7,"Mozilla/5.0 (Windows NT 10.0; Win64; x64) AppleWebKit/537.36 (KHTML, like Gecko) Chrome/136.0.0.0 Safari/537.36 Edg/136.0.0.0",WebKit,Edge,136.0.0.0,Windows,10,https://5puzkbbxv1.cognition.run/?sona_id=57850,"en-US,en;q=0.9",jqky8h75s0gqrd8,19,"[""Black or African-American""]",No,Male,"Cameroon- 5, Italy- 2",I'm not sure,1127823.099999994,NA,5175,NA,"{""product_choice"":""C""}",choice,cdt,trinary,repulsion_B,2,microwave ovens,null,null,null,null,null,null,2,40,30,40,90,100,80,Warranty,Cooking power,NA,NA
NA,NA,NA,NA,NA,choice_trial_setup,html-keyboard-response,50,438873,0.0-4.0-0.23,224,1,2025-05-06T02:32:59Z,b60275e29fe2361ab97ac0ac217840d7,"Mozilla/5.0 (Windows NT 10.0; Win64; x64) AppleWebKit/537.36 (KHTML, like Gecko) Chrome/136.0.0.0 Safari/537.36 Edg/136.0.0.0",WebKit,Edge,136.0.0.0,Windows,10,https://5puzkbbxv1.cognition.run/?sona_id=57850,"en-US,en;q=0.9",jqky8h75s0gqrd8,19,"[""Black or African-American""]",No,Male,"Cameroon- 5, Italy- 2",I'm not sure,1127823.099999994,NA,null,<p></p>,null,choice,wbw,trinary,catch,null,microwave ovens,85,90,5,50,40,30,2,NA,NA,NA,NA,NA,NA,NA,NA,NA,NA
NA,NA,NA,NA,NA,choice_trial,survey-html-form,51,443291,0.0-4.0-1.23,224,1,2025-05-06T02:32:59Z,b60275e29fe2361ab97ac0ac217840d7,"Mozilla/5.0 (Windows NT 10.0; Win64; x64) AppleWebKit/537.36 (KHTML, like Gecko) Chrome/136.0.0.0 Safari/537.36 Edg/136.0.0.0",WebKit,Edge,136.0.0.0,Windows,10,https://5puzkbbxv1.cognition.run/?sona_id=57850,"en-US,en;q=0.9",jqky8h75s0gqrd8,19,"[""Black or African-American""]",No,Male,"Cameroon- 5, Italy- 2",I'm not sure,1127823.099999994,NA,4415,NA,"{""product_choice"":""B""}",choice,wbw,trinary,catch,null,microwave ovens,85,90,5,50,40,30,2,null,null,null,null,null,null,Warranty,Cooking power,NA,NA
NA,NA,NA,NA,NA,choice_trial_setup,html-keyboard-response,52,443593,0.0-4.0-0.24,224,1,2025-05-06T02:32:59Z,b60275e29fe2361ab97ac0ac217840d7,"Mozilla/5.0 (Windows NT 10.0; Win64; x64) AppleWebKit/537.36 (KHTML, like Gecko) Chrome/136.0.0.0 Safari/537.36 Edg/136.0.0.0",WebKit,Edge,136.0.0.0,Windows,10,https://5puzkbbxv1.cognition.run/?sona_id=57850,"en-US,en;q=0.9",jqky8h75s0gqrd8,19,"[""Black or African-American""]",No,Male,"Cameroon- 5, Italy- 2",I'm not sure,1127823.099999994,NA,null,<p></p>,null,choice,tc,binary,repulsion,1,laptops,null,null,null,null,null,null,1,NA,NA,NA,NA,NA,NA,NA,NA,NA,NA
NA,NA,NA,NA,NA,choice_trial,survey-html-form,53,457953,0.0-4.0-1.24,224,1,2025-05-06T02:32:59Z,b60275e29fe2361ab97ac0ac217840d7,"Mozilla/5.0 (Windows NT 10.0; Win64; x64) AppleWebKit/537.36 (KHTML, like Gecko) Chrome/136.0.0.0 Safari/537.36 Edg/136.0.0.0",WebKit,Edge,136.0.0.0,Windows,10,https://5puzkbbxv1.cognition.run/?sona_id=57850,"en-US,en;q=0.9",jqky8h75s0gqrd8,19,"[""Black or African-American""]",No,Male,"Cameroon- 5, Italy- 2",I'm not sure,1127823.099999994,NA,14358,NA,"{""product_choice"":""B""}",choice,tc,binary,repulsion,1,laptops,null,null,null,null,null,null,1,100,90,null,30,40,null,Processing speed,Memory (RAM),NA,NA
NA,NA,NA,NA,NA,choice_trial_setup,html-keyboard-response,54,458256,0.0-4.0-0.25,224,1,2025-05-06T02:32:59Z,b60275e29fe2361ab97ac0ac217840d7,"Mozilla/5.0 (Windows NT 10.0; Win64; x64) AppleWebKit/537.36 (KHTML, like Gecko) Chrome/136.0.0.0 Safari/537.36 Edg/136.0.0.0",WebKit,Edge,136.0.0.0,Windows,10,https://5puzkbbxv1.cognition.run/?sona_id=57850,"en-US,en;q=0.9",jqky8h75s0gqrd8,19,"[""Black or African-American""]",No,Male,"Cameroon- 5, Italy- 2",I'm not sure,1127823.099999994,NA,null,<p></p>,null,choice,ct,binary,repulsion,2,microwave ovens,null,null,null,null,null,null,1,NA,NA,NA,NA,NA,NA,NA,NA,NA,NA
NA,NA,NA,NA,NA,choice_trial,survey-html-form,55,473527,0.0-4.0-1.25,224,1,2025-05-06T02:32:59Z,b60275e29fe2361ab97ac0ac217840d7,"Mozilla/5.0 (Windows NT 10.0; Win64; x64) AppleWebKit/537.36 (KHTML, like Gecko) Chrome/136.0.0.0 Safari/537.36 Edg/136.0.0.0",WebKit,Edge,136.0.0.0,Windows,10,https://5puzkbbxv1.cognition.run/?sona_id=57850,"en-US,en;q=0.9",jqky8h75s0gqrd8,19,"[""Black or African-American""]",No,Male,"Cameroon- 5, Italy- 2",I'm not sure,1127823.099999994,NA,15269,NA,"{""product_choice"":""A""}",choice,ct,binary,repulsion,2,microwave ovens,null,null,null,null,null,null,1,30,40,null,100,90,null,Warranty,Cooking power,NA,NA
NA,NA,NA,NA,NA,choice_trial_setup,html-keyboard-response,56,473829,0.0-4.0-0.26,224,1,2025-05-06T02:32:59Z,b60275e29fe2361ab97ac0ac217840d7,"Mozilla/5.0 (Windows NT 10.0; Win64; x64) AppleWebKit/537.36 (KHTML, like Gecko) Chrome/136.0.0.0 Safari/537.36 Edg/136.0.0.0",WebKit,Edge,136.0.0.0,Windows,10,https://5puzkbbxv1.cognition.run/?sona_id=57850,"en-US,en;q=0.9",jqky8h75s0gqrd8,19,"[""Black or African-American""]",No,Male,"Cameroon- 5, Italy- 2",I'm not sure,1127823.099999994,NA,null,<p></p>,null,choice,ct,binary,repulsion,1,televisions,null,null,null,null,null,null,2,NA,NA,NA,NA,NA,NA,NA,NA,NA,NA
NA,NA,NA,NA,NA,choice_trial,survey-html-form,57,494403,0.0-4.0-1.26,224,1,2025-05-06T02:32:59Z,b60275e29fe2361ab97ac0ac217840d7,"Mozilla/5.0 (Windows NT 10.0; Win64; x64) AppleWebKit/537.36 (KHTML, like Gecko) Chrome/136.0.0.0 Safari/537.36 Edg/136.0.0.0",WebKit,Edge,136.0.0.0,Windows,10,https://5puzkbbxv1.cognition.run/?sona_id=57850,"en-US,en;q=0.9",jqky8h75s0gqrd8,19,"[""Black or African-American""]",No,Male,"Cameroon- 5, Italy- 2",I'm not sure,1127823.099999994,NA,20572,NA,"{""product_choice"":""A""}",choice,ct,binary,repulsion,1,televisions,null,null,null,null,null,null,2,100,90,null,30,40,null,Screen size,Average lifespan,NA,NA
NA,NA,NA,NA,NA,choice_trial_setup,html-keyboard-response,58,494705,0.0-4.0-0.27,224,1,2025-05-06T02:32:59Z,b60275e29fe2361ab97ac0ac217840d7,"Mozilla/5.0 (Windows NT 10.0; Win64; x64) AppleWebKit/537.36 (KHTML, like Gecko) Chrome/136.0.0.0 Safari/537.36 Edg/136.0.0.0",WebKit,Edge,136.0.0.0,Windows,10,https://5puzkbbxv1.cognition.run/?sona_id=57850,"en-US,en;q=0.9",jqky8h75s0gqrd8,19,"[""Black or African-American""]",No,Male,"Cameroon- 5, Italy- 2",I'm not sure,1127823.099999994,NA,null,<p></p>,null,choice,tcd,trinary,repulsion_A,2,microwave ovens,null,null,null,null,null,null,1,NA,NA,NA,NA,NA,NA,NA,NA,NA,NA
NA,NA,NA,NA,NA,choice_trial,survey-html-form,59,504470,0.0-4.0-1.27,224,1,2025-05-06T02:32:59Z,b60275e29fe2361ab97ac0ac217840d7,"Mozilla/5.0 (Windows NT 10.0; Win64; x64) AppleWebKit/537.36 (KHTML, like Gecko) Chrome/136.0.0.0 Safari/537.36 Edg/136.0.0.0",WebKit,Edge,136.0.0.0,Windows,10,https://5puzkbbxv1.cognition.run/?sona_id=57850,"en-US,en;q=0.9",jqky8h75s0gqrd8,19,"[""Black or African-American""]",No,Male,"Cameroon- 5, Italy- 2",I'm not sure,1127823.099999994,NA,9762,NA,"{""product_choice"":""B""}",choice,tcd,trinary,repulsion_A,2,microwave ovens,null,null,null,null,null,null,1,30,40,20,100,90,100,Warranty,Cooking power,NA,NA
NA,NA,NA,NA,NA,choice_trial_setup,html-keyboard-response,60,504773,0.0-4.0-0.28,224,1,2025-05-06T02:32:59Z,b60275e29fe2361ab97ac0ac217840d7,"Mozilla/5.0 (Windows NT 10.0; Win64; x64) AppleWebKit/537.36 (KHTML, like Gecko) Chrome/136.0.0.0 Safari/537.36 Edg/136.0.0.0",WebKit,Edge,136.0.0.0,Windows,10,https://5puzkbbxv1.cognition.run/?sona_id=57850,"en-US,en;q=0.9",jqky8h75s0gqrd8,19,"[""Black or African-American""]",No,Male,"Cameroon- 5, Italy- 2",I'm not sure,1127823.099999994,NA,null,<p></p>,null,choice,tc,binary,attraction,NA,microwave ovens,null,null,null,null,null,null,2,NA,NA,NA,NA,NA,NA,NA,NA,NA,NA
NA,NA,NA,NA,NA,choice_trial,survey-html-form,61,512944,0.0-4.0-1.28,224,1,2025-05-06T02:32:59Z,b60275e29fe2361ab97ac0ac217840d7,"Mozilla/5.0 (Windows NT 10.0; Win64; x64) AppleWebKit/537.36 (KHTML, like Gecko) Chrome/136.0.0.0 Safari/537.36 Edg/136.0.0.0",WebKit,Edge,136.0.0.0,Windows,10,https://5puzkbbxv1.cognition.run/?sona_id=57850,"en-US,en;q=0.9",jqky8h75s0gqrd8,19,"[""Black or African-American""]",No,Male,"Cameroon- 5, Italy- 2",I'm not sure,1127823.099999994,NA,8168,NA,"{""product_choice"":""A""}",choice,tc,binary,attraction,NA,microwave ovens,null,null,null,null,null,null,2,60,50,null,50,60,null,Warranty,Cooking power,NA,NA
NA,NA,NA,NA,NA,choice_trial_setup,html-keyboard-response,62,513259,0.0-4.0-0.29,224,1,2025-05-06T02:32:59Z,b60275e29fe2361ab97ac0ac217840d7,"Mozilla/5.0 (Windows NT 10.0; Win64; x64) AppleWebKit/537.36 (KHTML, like Gecko) Chrome/136.0.0.0 Safari/537.36 Edg/136.0.0.0",WebKit,Edge,136.0.0.0,Windows,10,https://5puzkbbxv1.cognition.run/?sona_id=57850,"en-US,en;q=0.9",jqky8h75s0gqrd8,19,"[""Black or African-American""]",No,Male,"Cameroon- 5, Italy- 2",I'm not sure,1127823.099999994,NA,null,<p></p>,null,choice,bw,binary,catch,null,microwave ovens,55,95,40,40,null,null,2,NA,NA,NA,NA,NA,NA,NA,NA,NA,NA
NA,NA,NA,NA,NA,choice_trial,survey-html-form,63,528768,0.0-4.0-1.29,224,1,2025-05-06T02:32:59Z,b60275e29fe2361ab97ac0ac217840d7,"Mozilla/5.0 (Windows NT 10.0; Win64; x64) AppleWebKit/537.36 (KHTML, like Gecko) Chrome/136.0.0.0 Safari/537.36 Edg/136.0.0.0",WebKit,Edge,136.0.0.0,Windows,10,https://5puzkbbxv1.cognition.run/?sona_id=57850,"en-US,en;q=0.9",jqky8h75s0gqrd8,19,"[""Black or African-American""]",No,Male,"Cameroon- 5, Italy- 2",I'm not sure,1127823.099999994,NA,15507,NA,"{""product_choice"":""A""}",choice,bw,binary,catch,null,microwave ovens,55,95,40,40,null,null,2,null,null,null,null,null,null,Warranty,Cooking power,NA,NA
NA,NA,NA,NA,NA,choice_trial_setup,html-keyboard-response,64,529072,0.0-4.0-0.30,224,1,2025-05-06T02:32:59Z,b60275e29fe2361ab97ac0ac217840d7,"Mozilla/5.0 (Windows NT 10.0; Win64; x64) AppleWebKit/537.36 (KHTML, like Gecko) Chrome/136.0.0.0 Safari/537.36 Edg/136.0.0.0",WebKit,Edge,136.0.0.0,Windows,10,https://5puzkbbxv1.cognition.run/?sona_id=57850,"en-US,en;q=0.9",jqky8h75s0gqrd8,19,"[""Black or African-American""]",No,Male,"Cameroon- 5, Italy- 2",I'm not sure,1127823.099999994,NA,null,<p></p>,null,choice,dtc,trinary,attraction,1,microwave ovens,null,null,null,null,null,null,1,NA,NA,NA,NA,NA,NA,NA,NA,NA,NA
NA,NA,NA,NA,NA,choice_trial,survey-html-form,65,536217,0.0-4.0-1.30,224,1,2025-05-06T02:32:59Z,b60275e29fe2361ab97ac0ac217840d7,"Mozilla/5.0 (Windows NT 10.0; Win64; x64) AppleWebKit/537.36 (KHTML, like Gecko) Chrome/136.0.0.0 Safari/537.36 Edg/136.0.0.0",WebKit,Edge,136.0.0.0,Windows,10,https://5puzkbbxv1.cognition.run/?sona_id=57850,"en-US,en;q=0.9",jqky8h75s0gqrd8,19,"[""Black or African-American""]",No,Male,"Cameroon- 5, Italy- 2",I'm not sure,1127823.099999994,NA,7142,NA,"{""product_choice"":""B""}",choice,dtc,trinary,attraction,1,microwave ovens,null,null,null,null,null,null,1,60,50,60,50,60,40,Warranty,Cooking power,NA,NA
NA,NA,NA,NA,NA,choice_trial_setup,html-keyboard-response,66,536520,0.0-4.0-0.31,224,1,2025-05-06T02:32:59Z,b60275e29fe2361ab97ac0ac217840d7,"Mozilla/5.0 (Windows NT 10.0; Win64; x64) AppleWebKit/537.36 (KHTML, like Gecko) Chrome/136.0.0.0 Safari/537.36 Edg/136.0.0.0",WebKit,Edge,136.0.0.0,Windows,10,https://5puzkbbxv1.cognition.run/?sona_id=57850,"en-US,en;q=0.9",jqky8h75s0gqrd8,19,"[""Black or African-American""]",No,Male,"Cameroon- 5, Italy- 2",I'm not sure,1127823.099999994,NA,null,<p></p>,null,choice,cdt,trinary,attraction,2,microwave ovens,null,null,null,null,null,null,1,NA,NA,NA,NA,NA,NA,NA,NA,NA,NA
NA,NA,NA,NA,NA,choice_trial,survey-html-form,67,607729,0.0-4.0-1.31,224,1,2025-05-06T02:32:59Z,b60275e29fe2361ab97ac0ac217840d7,"Mozilla/5.0 (Windows NT 10.0; Win64; x64) AppleWebKit/537.36 (KHTML, like Gecko) Chrome/136.0.0.0 Safari/537.36 Edg/136.0.0.0",WebKit,Edge,136.0.0.0,Windows,10,https://5puzkbbxv1.cognition.run/?sona_id=57850,"en-US,en;q=0.9",jqky8h75s0gqrd8,19,"[""Black or African-American""]",No,Male,"Cameroon- 5, Italy- 2",I'm not sure,1127823.099999994,NA,71207,NA,"{""product_choice"":""A""}",choice,cdt,trinary,attraction,2,microwave ovens,null,null,null,null,null,null,1,50,60,40,60,50,60,Warranty,Cooking power,NA,NA
NA,NA,NA,NA,NA,choice_trial_setup,html-keyboard-response,68,608032,0.0-4.0-0.32,224,1,2025-05-06T02:32:59Z,b60275e29fe2361ab97ac0ac217840d7,"Mozilla/5.0 (Windows NT 10.0; Win64; x64) AppleWebKit/537.36 (KHTML, like Gecko) Chrome/136.0.0.0 Safari/537.36 Edg/136.0.0.0",WebKit,Edge,136.0.0.0,Windows,10,https://5puzkbbxv1.cognition.run/?sona_id=57850,"en-US,en;q=0.9",jqky8h75s0gqrd8,19,"[""Black or African-American""]",No,Male,"Cameroon- 5, Italy- 2",I'm not sure,1127823.099999994,NA,null,<p></p>,null,choice,tcd,trinary,repulsion_A,2,televisions,null,null,null,null,null,null,2,NA,NA,NA,NA,NA,NA,NA,NA,NA,NA
NA,NA,NA,NA,NA,choice_trial,survey-html-form,69,614497,0.0-4.0-1.32,224,1,2025-05-06T02:32:59Z,b60275e29fe2361ab97ac0ac217840d7,"Mozilla/5.0 (Windows NT 10.0; Win64; x64) AppleWebKit/537.36 (KHTML, like Gecko) Chrome/136.0.0.0 Safari/537.36 Edg/136.0.0.0",WebKit,Edge,136.0.0.0,Windows,10,https://5puzkbbxv1.cognition.run/?sona_id=57850,"en-US,en;q=0.9",jqky8h75s0gqrd8,19,"[""Black or African-American""]",No,Male,"Cameroon- 5, Italy- 2",I'm not sure,1127823.099999994,NA,6461,NA,"{""product_choice"":""B""}",choice,tcd,trinary,repulsion_A,2,televisions,null,null,null,null,null,null,2,30,40,20,100,90,100,Screen size,Average lifespan,NA,NA
NA,NA,NA,NA,NA,choice_trial_setup,html-keyboard-response,70,614800,0.0-4.0-0.33,224,1,2025-05-06T02:32:59Z,b60275e29fe2361ab97ac0ac217840d7,"Mozilla/5.0 (Windows NT 10.0; Win64; x64) AppleWebKit/537.36 (KHTML, like Gecko) Chrome/136.0.0.0 Safari/537.36 Edg/136.0.0.0",WebKit,Edge,136.0.0.0,Windows,10,https://5puzkbbxv1.cognition.run/?sona_id=57850,"en-US,en;q=0.9",jqky8h75s0gqrd8,19,"[""Black or African-American""]",No,Male,"Cameroon- 5, Italy- 2",I'm not sure,1127823.099999994,NA,null,<p></p>,null,choice,tc,binary,repulsion,1,washing machines,null,null,null,null,null,null,1,NA,NA,NA,NA,NA,NA,NA,NA,NA,NA
NA,NA,NA,NA,NA,choice_trial,survey-html-form,71,621731,0.0-4.0-1.33,224,1,2025-05-06T02:32:59Z,b60275e29fe2361ab97ac0ac217840d7,"Mozilla/5.0 (Windows NT 10.0; Win64; x64) AppleWebKit/537.36 (KHTML, like Gecko) Chrome/136.0.0.0 Safari/537.36 Edg/136.0.0.0",WebKit,Edge,136.0.0.0,Windows,10,https://5puzkbbxv1.cognition.run/?sona_id=57850,"en-US,en;q=0.9",jqky8h75s0gqrd8,19,"[""Black or African-American""]",No,Male,"Cameroon- 5, Italy- 2",I'm not sure,1127823.099999994,NA,6929,NA,"{""product_choice"":""B""}",choice,tc,binary,repulsion,1,washing machines,null,null,null,null,null,null,1,100,90,null,30,40,null,Average lifespan,Energy savings,NA,NA
NA,NA,NA,NA,NA,choice_trial_setup,html-keyboard-response,72,622035,0.0-4.0-0.34,224,1,2025-05-06T02:32:59Z,b60275e29fe2361ab97ac0ac217840d7,"Mozilla/5.0 (Windows NT 10.0; Win64; x64) AppleWebKit/537.36 (KHTML, like Gecko) Chrome/136.0.0.0 Safari/537.36 Edg/136.0.0.0",WebKit,Edge,136.0.0.0,Windows,10,https://5puzkbbxv1.cognition.run/?sona_id=57850,"en-US,en;q=0.9",jqky8h75s0gqrd8,19,"[""Black or African-American""]",No,Male,"Cameroon- 5, Italy- 2",I'm not sure,1127823.099999994,NA,null,<p></p>,null,choice,ctd,trinary,repulsion_A,1,microwave ovens,null,null,null,null,null,null,1,NA,NA,NA,NA,NA,NA,NA,NA,NA,NA
NA,NA,NA,NA,NA,choice_trial,survey-html-form,73,627280,0.0-4.0-1.34,224,1,2025-05-06T02:32:59Z,b60275e29fe2361ab97ac0ac217840d7,"Mozilla/5.0 (Windows NT 10.0; Win64; x64) AppleWebKit/537.36 (KHTML, like Gecko) Chrome/136.0.0.0 Safari/537.36 Edg/136.0.0.0",WebKit,Edge,136.0.0.0,Windows,10,https://5puzkbbxv1.cognition.run/?sona_id=57850,"en-US,en;q=0.9",jqky8h75s0gqrd8,19,"[""Black or African-American""]",No,Male,"Cameroon- 5, Italy- 2",I'm not sure,1127823.099999994,NA,5243,NA,"{""product_choice"":""A""}",choice,ctd,trinary,repulsion_A,1,microwave ovens,null,null,null,null,null,null,1,100,90,100,30,40,20,Warranty,Cooking power,NA,NA
NA,NA,NA,NA,NA,choice_trial_setup,html-keyboard-response,74,627582,0.0-4.0-0.35,224,1,2025-05-06T02:32:59Z,b60275e29fe2361ab97ac0ac217840d7,"Mozilla/5.0 (Windows NT 10.0; Win64; x64) AppleWebKit/537.36 (KHTML, like Gecko) Chrome/136.0.0.0 Safari/537.36 Edg/136.0.0.0",WebKit,Edge,136.0.0.0,Windows,10,https://5puzkbbxv1.cognition.run/?sona_id=57850,"en-US,en;q=0.9",jqky8h75s0gqrd8,19,"[""Black or African-American""]",No,Male,"Cameroon- 5, Italy- 2",I'm not sure,1127823.099999994,NA,null,<p></p>,null,choice,ctd,trinary,repulsion_B,2,televisions,null,null,null,null,null,null,2,NA,NA,NA,NA,NA,NA,NA,NA,NA,NA
NA,NA,NA,NA,NA,choice_trial,survey-html-form,75,631392,0.0-4.0-1.35,224,1,2025-05-06T02:32:59Z,b60275e29fe2361ab97ac0ac217840d7,"Mozilla/5.0 (Windows NT 10.0; Win64; x64) AppleWebKit/537.36 (KHTML, like Gecko) Chrome/136.0.0.0 Safari/537.36 Edg/136.0.0.0",WebKit,Edge,136.0.0.0,Windows,10,https://5puzkbbxv1.cognition.run/?sona_id=57850,"en-US,en;q=0.9",jqky8h75s0gqrd8,19,"[""Black or African-American""]",No,Male,"Cameroon- 5, Italy- 2",I'm not sure,1127823.099999994,NA,3806,NA,"{""product_choice"":""B""}",choice,ctd,trinary,repulsion_B,2,televisions,null,null,null,null,null,null,2,40,30,40,90,100,80,Screen size,Average lifespan,NA,NA
NA,NA,NA,NA,NA,choice_trial_setup,html-keyboard-response,76,631695,0.0-4.0-0.36,224,1,2025-05-06T02:32:59Z,b60275e29fe2361ab97ac0ac217840d7,"Mozilla/5.0 (Windows NT 10.0; Win64; x64) AppleWebKit/537.36 (KHTML, like Gecko) Chrome/136.0.0.0 Safari/537.36 Edg/136.0.0.0",WebKit,Edge,136.0.0.0,Windows,10,https://5puzkbbxv1.cognition.run/?sona_id=57850,"en-US,en;q=0.9",jqky8h75s0gqrd8,19,"[""Black or African-American""]",No,Male,"Cameroon- 5, Italy- 2",I'm not sure,1127823.099999994,NA,null,<p></p>,null,choice,tc,binary,repulsion,2,washing machines,null,null,null,null,null,null,1,NA,NA,NA,NA,NA,NA,NA,NA,NA,NA
NA,NA,NA,NA,NA,choice_trial,survey-html-form,77,640136,0.0-4.0-1.36,224,1,2025-05-06T02:32:59Z,b60275e29fe2361ab97ac0ac217840d7,"Mozilla/5.0 (Windows NT 10.0; Win64; x64) AppleWebKit/537.36 (KHTML, like Gecko) Chrome/136.0.0.0 Safari/537.36 Edg/136.0.0.0",WebKit,Edge,136.0.0.0,Windows,10,https://5puzkbbxv1.cognition.run/?sona_id=57850,"en-US,en;q=0.9",jqky8h75s0gqrd8,19,"[""Black or African-American""]",No,Male,"Cameroon- 5, Italy- 2",I'm not sure,1127823.099999994,NA,8438,NA,"{""product_choice"":""B""}",choice,tc,binary,repulsion,2,washing machines,null,null,null,null,null,null,1,30,40,null,100,90,null,Average lifespan,Energy savings,NA,NA
NA,NA,NA,NA,NA,choice_trial_setup,html-keyboard-response,78,640438,0.0-4.0-0.37,224,1,2025-05-06T02:32:59Z,b60275e29fe2361ab97ac0ac217840d7,"Mozilla/5.0 (Windows NT 10.0; Win64; x64) AppleWebKit/537.36 (KHTML, like Gecko) Chrome/136.0.0.0 Safari/537.36 Edg/136.0.0.0",WebKit,Edge,136.0.0.0,Windows,10,https://5puzkbbxv1.cognition.run/?sona_id=57850,"en-US,en;q=0.9",jqky8h75s0gqrd8,19,"[""Black or African-American""]",No,Male,"Cameroon- 5, Italy- 2",I'm not sure,1127823.099999994,NA,null,<p></p>,null,choice,ct,binary,attraction,NA,washing machines,null,null,null,null,null,null,1,NA,NA,NA,NA,NA,NA,NA,NA,NA,NA
NA,NA,NA,NA,NA,choice_trial,survey-html-form,79,649836,0.0-4.0-1.37,224,1,2025-05-06T02:32:59Z,b60275e29fe2361ab97ac0ac217840d7,"Mozilla/5.0 (Windows NT 10.0; Win64; x64) AppleWebKit/537.36 (KHTML, like Gecko) Chrome/136.0.0.0 Safari/537.36 Edg/136.0.0.0",WebKit,Edge,136.0.0.0,Windows,10,https://5puzkbbxv1.cognition.run/?sona_id=57850,"en-US,en;q=0.9",jqky8h75s0gqrd8,19,"[""Black or African-American""]",No,Male,"Cameroon- 5, Italy- 2",I'm not sure,1127823.099999994,NA,9394,NA,"{""product_choice"":""A""}",choice,ct,binary,attraction,NA,washing machines,null,null,null,null,null,null,1,60,50,null,50,60,null,Average lifespan,Energy savings,NA,NA
NA,NA,NA,NA,NA,choice_trial_setup,html-keyboard-response,80,650139,0.0-4.0-0.38,224,1,2025-05-06T02:32:59Z,b60275e29fe2361ab97ac0ac217840d7,"Mozilla/5.0 (Windows NT 10.0; Win64; x64) AppleWebKit/537.36 (KHTML, like Gecko) Chrome/136.0.0.0 Safari/537.36 Edg/136.0.0.0",WebKit,Edge,136.0.0.0,Windows,10,https://5puzkbbxv1.cognition.run/?sona_id=57850,"en-US,en;q=0.9",jqky8h75s0gqrd8,19,"[""Black or African-American""]",No,Male,"Cameroon- 5, Italy- 2",I'm not sure,1127823.099999994,NA,null,<p></p>,null,choice,dct,trinary,attraction,2,televisions,null,null,null,null,null,null,1,NA,NA,NA,NA,NA,NA,NA,NA,NA,NA
NA,NA,NA,NA,NA,choice_trial,survey-html-form,81,661464,0.0-4.0-1.38,224,1,2025-05-06T02:32:59Z,b60275e29fe2361ab97ac0ac217840d7,"Mozilla/5.0 (Windows NT 10.0; Win64; x64) AppleWebKit/537.36 (KHTML, like Gecko) Chrome/136.0.0.0 Safari/537.36 Edg/136.0.0.0",WebKit,Edge,136.0.0.0,Windows,10,https://5puzkbbxv1.cognition.run/?sona_id=57850,"en-US,en;q=0.9",jqky8h75s0gqrd8,19,"[""Black or African-American""]",No,Male,"Cameroon- 5, Italy- 2",I'm not sure,1127823.099999994,NA,11322,NA,"{""product_choice"":""C""}",choice,dct,trinary,attraction,2,televisions,null,null,null,null,null,null,1,50,60,40,60,50,60,Screen size,Average lifespan,NA,NA
NA,NA,NA,NA,NA,choice_trial_setup,html-keyboard-response,82,661767,0.0-4.0-0.39,224,1,2025-05-06T02:32:59Z,b60275e29fe2361ab97ac0ac217840d7,"Mozilla/5.0 (Windows NT 10.0; Win64; x64) AppleWebKit/537.36 (KHTML, like Gecko) Chrome/136.0.0.0 Safari/537.36 Edg/136.0.0.0",WebKit,Edge,136.0.0.0,Windows,10,https://5puzkbbxv1.cognition.run/?sona_id=57850,"en-US,en;q=0.9",jqky8h75s0gqrd8,19,"[""Black or African-American""]",No,Male,"Cameroon- 5, Italy- 2",I'm not sure,1127823.099999994,NA,null,<p></p>,null,choice,bww,trinary,catch,null,washing machines,50,70,25,25,5,30,1,NA,NA,NA,NA,NA,NA,NA,NA,NA,NA
NA,NA,NA,NA,NA,choice_trial,survey-html-form,83,669673,0.0-4.0-1.39,224,1,2025-05-06T02:32:59Z,b60275e29fe2361ab97ac0ac217840d7,"Mozilla/5.0 (Windows NT 10.0; Win64; x64) AppleWebKit/537.36 (KHTML, like Gecko) Chrome/136.0.0.0 Safari/537.36 Edg/136.0.0.0",WebKit,Edge,136.0.0.0,Windows,10,https://5puzkbbxv1.cognition.run/?sona_id=57850,"en-US,en;q=0.9",jqky8h75s0gqrd8,19,"[""Black or African-American""]",No,Male,"Cameroon- 5, Italy- 2",I'm not sure,1127823.099999994,NA,7903,NA,"{""product_choice"":""A""}",choice,bww,trinary,catch,null,washing machines,50,70,25,25,5,30,1,null,null,null,null,null,null,Average lifespan,Energy savings,NA,NA
NA,NA,NA,NA,NA,choice_trial_setup,html-keyboard-response,84,669975,0.0-4.0-0.40,224,1,2025-05-06T02:32:59Z,b60275e29fe2361ab97ac0ac217840d7,"Mozilla/5.0 (Windows NT 10.0; Win64; x64) AppleWebKit/537.36 (KHTML, like Gecko) Chrome/136.0.0.0 Safari/537.36 Edg/136.0.0.0",WebKit,Edge,136.0.0.0,Windows,10,https://5puzkbbxv1.cognition.run/?sona_id=57850,"en-US,en;q=0.9",jqky8h75s0gqrd8,19,"[""Black or African-American""]",No,Male,"Cameroon- 5, Italy- 2",I'm not sure,1127823.099999994,NA,null,<p></p>,null,choice,bw,binary,catch,null,laptops,50,55,15,50,null,null,1,NA,NA,NA,NA,NA,NA,NA,NA,NA,NA
NA,NA,NA,NA,NA,choice_trial,survey-html-form,85,767310,0.0-4.0-1.40,224,1,2025-05-06T02:32:59Z,b60275e29fe2361ab97ac0ac217840d7,"Mozilla/5.0 (Windows NT 10.0; Win64; x64) AppleWebKit/537.36 (KHTML, like Gecko) Chrome/136.0.0.0 Safari/537.36 Edg/136.0.0.0",WebKit,Edge,136.0.0.0,Windows,10,https://5puzkbbxv1.cognition.run/?sona_id=57850,"en-US,en;q=0.9",jqky8h75s0gqrd8,19,"[""Black or African-American""]",No,Male,"Cameroon- 5, Italy- 2",I'm not sure,1127823.099999994,NA,97330,NA,"{""product_choice"":""A""}",choice,bw,binary,catch,null,laptops,50,55,15,50,null,null,1,null,null,null,null,null,null,Processing speed,Memory (RAM),NA,NA
NA,NA,NA,NA,NA,choice_trial_setup,html-keyboard-response,86,767613,0.0-4.0-0.41,224,1,2025-05-06T02:32:59Z,b60275e29fe2361ab97ac0ac217840d7,"Mozilla/5.0 (Windows NT 10.0; Win64; x64) AppleWebKit/537.36 (KHTML, like Gecko) Chrome/136.0.0.0 Safari/537.36 Edg/136.0.0.0",WebKit,Edge,136.0.0.0,Windows,10,https://5puzkbbxv1.cognition.run/?sona_id=57850,"en-US,en;q=0.9",jqky8h75s0gqrd8,19,"[""Black or African-American""]",No,Male,"Cameroon- 5, Italy- 2",I'm not sure,1127823.099999994,NA,null,<p></p>,null,choice,tdc,trinary,repulsion_B,1,microwave ovens,null,null,null,null,null,null,1,NA,NA,NA,NA,NA,NA,NA,NA,NA,NA
NA,NA,NA,NA,NA,choice_trial,survey-html-form,87,774262,0.0-4.0-1.41,224,1,2025-05-06T02:32:59Z,b60275e29fe2361ab97ac0ac217840d7,"Mozilla/5.0 (Windows NT 10.0; Win64; x64) AppleWebKit/537.36 (KHTML, like Gecko) Chrome/136.0.0.0 Safari/537.36 Edg/136.0.0.0",WebKit,Edge,136.0.0.0,Windows,10,https://5puzkbbxv1.cognition.run/?sona_id=57850,"en-US,en;q=0.9",jqky8h75s0gqrd8,19,"[""Black or African-American""]",No,Male,"Cameroon- 5, Italy- 2",I'm not sure,1127823.099999994,NA,6646,NA,"{""product_choice"":""A""}",choice,tdc,trinary,repulsion_B,1,microwave ovens,null,null,null,null,null,null,1,90,100,80,40,30,40,Warranty,Cooking power,NA,NA
NA,NA,NA,NA,NA,choice_trial_setup,html-keyboard-response,88,774565,0.0-4.0-0.42,224,1,2025-05-06T02:32:59Z,b60275e29fe2361ab97ac0ac217840d7,"Mozilla/5.0 (Windows NT 10.0; Win64; x64) AppleWebKit/537.36 (KHTML, like Gecko) Chrome/136.0.0.0 Safari/537.36 Edg/136.0.0.0",WebKit,Edge,136.0.0.0,Windows,10,https://5puzkbbxv1.cognition.run/?sona_id=57850,"en-US,en;q=0.9",jqky8h75s0gqrd8,19,"[""Black or African-American""]",No,Male,"Cameroon- 5, Italy- 2",I'm not sure,1127823.099999994,NA,null,<p></p>,null,choice,tdc,trinary,attraction,1,televisions,null,null,null,null,null,null,1,NA,NA,NA,NA,NA,NA,NA,NA,NA,NA
NA,NA,NA,NA,NA,choice_trial,survey-html-form,89,792444,0.0-4.0-1.42,224,1,2025-05-06T02:32:59Z,b60275e29fe2361ab97ac0ac217840d7,"Mozilla/5.0 (Windows NT 10.0; Win64; x64) AppleWebKit/537.36 (KHTML, like Gecko) Chrome/136.0.0.0 Safari/537.36 Edg/136.0.0.0",WebKit,Edge,136.0.0.0,Windows,10,https://5puzkbbxv1.cognition.run/?sona_id=57850,"en-US,en;q=0.9",jqky8h75s0gqrd8,19,"[""Black or African-American""]",No,Male,"Cameroon- 5, Italy- 2",I'm not sure,1127823.099999994,NA,17876,NA,"{""product_choice"":""A""}",choice,tdc,trinary,attraction,1,televisions,null,null,null,null,null,null,1,60,50,60,50,60,40,Screen size,Average lifespan,NA,NA
NA,NA,NA,NA,NA,choice_trial_setup,html-keyboard-response,90,792748,0.0-4.0-0.43,224,1,2025-05-06T02:32:59Z,b60275e29fe2361ab97ac0ac217840d7,"Mozilla/5.0 (Windows NT 10.0; Win64; x64) AppleWebKit/537.36 (KHTML, like Gecko) Chrome/136.0.0.0 Safari/537.36 Edg/136.0.0.0",WebKit,Edge,136.0.0.0,Windows,10,https://5puzkbbxv1.cognition.run/?sona_id=57850,"en-US,en;q=0.9",jqky8h75s0gqrd8,19,"[""Black or African-American""]",No,Male,"Cameroon- 5, Italy- 2",I'm not sure,1127823.099999994,NA,null,<p></p>,null,choice,wb,binary,catch,null,washing machines,95,50,45,25,null,null,1,NA,NA,NA,NA,NA,NA,NA,NA,NA,NA
NA,NA,NA,NA,NA,choice_trial,survey-html-form,91,798187,0.0-4.0-1.43,224,1,2025-05-06T02:32:59Z,b60275e29fe2361ab97ac0ac217840d7,"Mozilla/5.0 (Windows NT 10.0; Win64; x64) AppleWebKit/537.36 (KHTML, like Gecko) Chrome/136.0.0.0 Safari/537.36 Edg/136.0.0.0",WebKit,Edge,136.0.0.0,Windows,10,https://5puzkbbxv1.cognition.run/?sona_id=57850,"en-US,en;q=0.9",jqky8h75s0gqrd8,19,"[""Black or African-American""]",No,Male,"Cameroon- 5, Italy- 2",I'm not sure,1127823.099999994,NA,5436,NA,"{""product_choice"":""B""}",choice,wb,binary,catch,null,washing machines,95,50,45,25,null,null,1,null,null,null,null,null,null,Average lifespan,Energy savings,NA,NA
NA,NA,NA,NA,NA,post_trials_message,html-button-response,92,800504,0.0-5.0,224,1,2025-05-06T02:32:59Z,b60275e29fe2361ab97ac0ac217840d7,"Mozilla/5.0 (Windows NT 10.0; Win64; x64) AppleWebKit/537.36 (KHTML, like Gecko) Chrome/136.0.0.0 Safari/537.36 Edg/136.0.0.0",WebKit,Edge,136.0.0.0,Windows,10,https://5puzkbbxv1.cognition.run/?sona_id=57850,"en-US,en;q=0.9",jqky8h75s0gqrd8,19,"[""Black or African-American""]",No,Male,"Cameroon- 5, Italy- 2",I'm not sure,1127823.099999994,NA,2314,<p> <b>Thank you for your patience!</b></p><p>  The study will be done after completing a brief form. </p>,0,NA,NA,NA,NA,NA,NA,NA,NA,NA,NA,NA,NA,NA,NA,NA,NA,NA,NA,NA,NA,NA,NA,NA
NA,NA,NA,NA,NA,survey_message,survey-text,93,989231,0.0-6.0,224,1,2025-05-06T02:32:59Z,b60275e29fe2361ab97ac0ac217840d7,"Mozilla/5.0 (Windows NT 10.0; Win64; x64) AppleWebKit/537.36 (KHTML, like Gecko) Chrome/136.0.0.0 Safari/537.36 Edg/136.0.0.0",WebKit,Edge,136.0.0.0,Windows,10,https://5puzkbbxv1.cognition.run/?sona_id=57850,"en-US,en;q=0.9",jqky8h75s0gqrd8,19,"[""Black or African-American""]",No,Male,"Cameroon- 5, Italy- 2",I'm not sure,1127823.099999994,NA,188719,NA,"{""Q0"":""I mainly try to maximize the use and efficiency I'd get. I also went for more balanced options over options with one really great aspect and one really bad aspect. ""}",NA,NA,NA,NA,NA,NA,NA,NA,NA,NA,NA,NA,NA,NA,NA,NA,NA,NA,NA,NA,NA,I mainly try to maximize the use and efficiency I'd get. I also went for more balanced options over options with one really great aspect and one really bad aspect.,NA
NA,NA,NA,NA,NA,demo_age,survey-text,94,992142,0.0-7.0,224,1,2025-05-06T02:32:59Z,b60275e29fe2361ab97ac0ac217840d7,"Mozilla/5.0 (Windows NT 10.0; Win64; x64) AppleWebKit/537.36 (KHTML, like Gecko) Chrome/136.0.0.0 Safari/537.36 Edg/136.0.0.0",WebKit,Edge,136.0.0.0,Windows,10,https://5puzkbbxv1.cognition.run/?sona_id=57850,"en-US,en;q=0.9",jqky8h75s0gqrd8,19,"[""Black or African-American""]",No,Male,"Cameroon- 5, Italy- 2",I'm not sure,1127823.099999994,NA,2906,NA,"{""Q0"":""19""}",NA,NA,NA,NA,NA,NA,NA,NA,NA,NA,NA,NA,NA,NA,NA,NA,NA,NA,NA,NA,NA,NA,NA
NA,NA,NA,NA,NA,demo_race,survey-multi-select,95,995336,0.0-8.0,224,1,2025-05-06T02:32:59Z,b60275e29fe2361ab97ac0ac217840d7,"Mozilla/5.0 (Windows NT 10.0; Win64; x64) AppleWebKit/537.36 (KHTML, like Gecko) Chrome/136.0.0.0 Safari/537.36 Edg/136.0.0.0",WebKit,Edge,136.0.0.0,Windows,10,https://5puzkbbxv1.cognition.run/?sona_id=57850,"en-US,en;q=0.9",jqky8h75s0gqrd8,19,"[""Black or African-American""]",No,Male,"Cameroon- 5, Italy- 2",I'm not sure,1127823.099999994,NA,3190,NA,"{""Q0"":[""Black or African-American""]}",NA,NA,NA,NA,NA,NA,NA,NA,NA,NA,NA,NA,NA,NA,NA,NA,NA,NA,NA,NA,NA,NA,[0]
NA,NA,NA,NA,NA,demo_ethnicity_gender,survey-multi-choice,96,999446,0.0-9.0,224,1,2025-05-06T02:32:59Z,b60275e29fe2361ab97ac0ac217840d7,"Mozilla/5.0 (Windows NT 10.0; Win64; x64) AppleWebKit/537.36 (KHTML, like Gecko) Chrome/136.0.0.0 Safari/537.36 Edg/136.0.0.0",WebKit,Edge,136.0.0.0,Windows,10,https://5puzkbbxv1.cognition.run/?sona_id=57850,"en-US,en;q=0.9",jqky8h75s0gqrd8,19,"[""Black or African-American""]",No,Male,"Cameroon- 5, Italy- 2",I'm not sure,1127823.099999994,NA,4105,NA,"{""Q0"":""No"",""Q1"":""Male""}",NA,NA,NA,NA,NA,NA,NA,NA,NA,NA,NA,NA,NA,NA,NA,NA,NA,NA,NA,NA,NA,NA,"[0,1]"
NA,NA,NA,NA,NA,demo_countries,survey-text,97,1036232,0.0-10.0,224,1,2025-05-06T02:32:59Z,b60275e29fe2361ab97ac0ac217840d7,"Mozilla/5.0 (Windows NT 10.0; Win64; x64) AppleWebKit/537.36 (KHTML, like Gecko) Chrome/136.0.0.0 Safari/537.36 Edg/136.0.0.0",WebKit,Edge,136.0.0.0,Windows,10,https://5puzkbbxv1.cognition.run/?sona_id=57850,"en-US,en;q=0.9",jqky8h75s0gqrd8,19,"[""Black or African-American""]",No,Male,"Cameroon- 5, Italy- 2",I'm not sure,1127823.099999994,NA,36733,NA,"{""Q0"":""Cameroon- 5, Italy- 2""}",NA,NA,NA,NA,NA,NA,NA,NA,NA,NA,NA,NA,NA,NA,NA,NA,NA,NA,NA,NA,NA,NA,NA
NA,NA,NA,NA,NA,demo_prev_study,survey-multi-choice,98,1043796,0.0-11.0,224,1,2025-05-06T02:32:59Z,b60275e29fe2361ab97ac0ac217840d7,"Mozilla/5.0 (Windows NT 10.0; Win64; x64) AppleWebKit/537.36 (KHTML, like Gecko) Chrome/136.0.0.0 Safari/537.36 Edg/136.0.0.0",WebKit,Edge,136.0.0.0,Windows,10,https://5puzkbbxv1.cognition.run/?sona_id=57850,"en-US,en;q=0.9",jqky8h75s0gqrd8,19,"[""Black or African-American""]",No,Male,"Cameroon- 5, Italy- 2",I'm not sure,1127823.099999994,NA,7559,NA,"{""Q0"":""I'm not sure""}",NA,NA,NA,NA,NA,NA,NA,NA,NA,NA,NA,NA,NA,NA,NA,NA,NA,NA,NA,NA,NA,NA,[0]
NA,NA,NA,NA,NA,post_survey_message,html-keyboard-response,99,1046812,0.0-12.0,224,1,2025-05-06T02:32:59Z,b60275e29fe2361ab97ac0ac217840d7,"Mozilla/5.0 (Windows NT 10.0; Win64; x64) AppleWebKit/537.36 (KHTML, like Gecko) Chrome/136.0.0.0 Safari/537.36 Edg/136.0.0.0",WebKit,Edge,136.0.0.0,Windows,10,https://5puzkbbxv1.cognition.run/?sona_id=57850,"en-US,en;q=0.9",jqky8h75s0gqrd8,19,"[""Black or African-American""]",No,Male,"Cameroon- 5, Italy- 2",I'm not sure,1127823.099999994,NA,3011,NA,j,NA,NA,NA,NA,NA,NA,NA,NA,NA,NA,NA,NA,NA,NA,NA,NA,NA,NA,NA,NA,NA,NA,NA
NA,NA,NA,NA,NA,debrief,image-keyboard-response,100,1127821,0.0-13.0,224,1,2025-05-06T02:32:59Z,b60275e29fe2361ab97ac0ac217840d7,"Mozilla/5.0 (Windows NT 10.0; Win64; x64) AppleWebKit/537.36 (KHTML, like Gecko) Chrome/136.0.0.0 Safari/537.36 Edg/136.0.0.0",WebKit,Edge,136.0.0.0,Windows,10,https://5puzkbbxv1.cognition.run/?sona_id=57850,"en-US,en;q=0.9",jqky8h75s0gqrd8,19,"[""Black or African-American""]",No,Male,"Cameroon- 5, Italy- 2",I'm not sure,1127823.099999994,NA,81006,Judg_choice_debrief.png,p,NA,NA,NA,NA,NA,NA,NA,NA,NA,NA,NA,NA,NA,NA,NA,NA,NA,NA,NA,NA,NA,NA,NA
