success,timeout,failed_images,failed_audio,failed_video,screen_id,trial_type,trial_index,time_elapsed,internal_node_id,run_id,condition,recorded_at,source_code_version,user_agent,device,browser,browser_version,platform,platform_version,referer,accept_language,ppt_id,age,race,ethnicity,gender,other_countries,prev_study,exp_duration,view_history,rt,stimulus,response,phase,order,set,effect,t_high,category,d1_best,d2_best,d1_worst1,d2_worst1,d1_worst2,d2_worst2,first_dim,d1_t,d1_c,d1_d,d2_t,d2_c,d2_d,d1_name,d2_name,strategy_response,question_order
TRUE,FALSE,[],[],[],img preload,preload,0,187,0.0-0.0,225,1,2025-05-06T02:36:10Z,b60275e29fe2361ab97ac0ac217840d7,"Mozilla/5.0 (Macintosh; Intel Mac OS X 10_15_7) AppleWebKit/605.1.15 (KHTML, like Gecko) Version/16.6 Safari/605.1.15",Macintosh,Safari,16.6,OS X,10_15_7,https://5puzkbbxv1.cognition.run/?sona_id=55384,"en-US,en;q=0.9",40qnnygq0fwr02z,18,"[""White""]",No,Female,"England -12 years
america - 6 years",No,365715,NA,NA,NA,NA,NA,NA,NA,NA,NA,NA,NA,NA,NA,NA,NA,NA,NA,NA,NA,NA,NA,NA,NA,NA,NA,NA,NA
NA,NA,NA,NA,NA,computer_message,instructions,1,3129,0.0-1.0,225,1,2025-05-06T02:36:10Z,b60275e29fe2361ab97ac0ac217840d7,"Mozilla/5.0 (Macintosh; Intel Mac OS X 10_15_7) AppleWebKit/605.1.15 (KHTML, like Gecko) Version/16.6 Safari/605.1.15",Macintosh,Safari,16.6,OS X,10_15_7,https://5puzkbbxv1.cognition.run/?sona_id=55384,"en-US,en;q=0.9",40qnnygq0fwr02z,18,"[""White""]",No,Female,"England -12 years
america - 6 years",No,365715,"[{""page_index"":0,""viewing_time"":2940}]",2940,NA,NA,NA,NA,NA,NA,NA,NA,NA,NA,NA,NA,NA,NA,NA,NA,NA,NA,NA,NA,NA,NA,NA,NA,NA
TRUE,NA,NA,NA,NA,NA,fullscreen,2,5117,0.0-2.0,225,1,2025-05-06T02:36:10Z,b60275e29fe2361ab97ac0ac217840d7,"Mozilla/5.0 (Macintosh; Intel Mac OS X 10_15_7) AppleWebKit/605.1.15 (KHTML, like Gecko) Version/16.6 Safari/605.1.15",Macintosh,Safari,16.6,OS X,10_15_7,https://5puzkbbxv1.cognition.run/?sona_id=55384,"en-US,en;q=0.9",40qnnygq0fwr02z,18,"[""White""]",No,Female,"England -12 years
america - 6 years",No,365715,NA,982,NA,NA,NA,NA,NA,NA,NA,NA,NA,NA,NA,NA,NA,NA,NA,NA,NA,NA,NA,NA,NA,NA,NA,NA,NA
NA,NA,NA,NA,NA,choice_instructions,instructions,3,36280,0.0-3.0,225,1,2025-05-06T02:36:10Z,b60275e29fe2361ab97ac0ac217840d7,"Mozilla/5.0 (Macintosh; Intel Mac OS X 10_15_7) AppleWebKit/605.1.15 (KHTML, like Gecko) Version/16.6 Safari/605.1.15",Macintosh,Safari,16.6,OS X,10_15_7,https://5puzkbbxv1.cognition.run/?sona_id=55384,"en-US,en;q=0.9",40qnnygq0fwr02z,18,"[""White""]",No,Female,"England -12 years
america - 6 years",No,365715,"[{""page_index"":0,""viewing_time"":1308},{""page_index"":1,""viewing_time"":2821},{""page_index"":2,""viewing_time"":5400},{""page_index"":3,""viewing_time"":3280},{""page_index"":4,""viewing_time"":3250},{""page_index"":5,""viewing_time"":11335},{""page_index"":6,""viewing_time"":3767}]",31161,NA,NA,NA,NA,NA,NA,NA,NA,NA,NA,NA,NA,NA,NA,NA,NA,NA,NA,NA,NA,NA,NA,NA,NA,NA
NA,NA,NA,NA,NA,choice_trial_setup,html-keyboard-response,4,36587,0.0-4.0-0.0,225,1,2025-05-06T02:36:10Z,b60275e29fe2361ab97ac0ac217840d7,"Mozilla/5.0 (Macintosh; Intel Mac OS X 10_15_7) AppleWebKit/605.1.15 (KHTML, like Gecko) Version/16.6 Safari/605.1.15",Macintosh,Safari,16.6,OS X,10_15_7,https://5puzkbbxv1.cognition.run/?sona_id=55384,"en-US,en;q=0.9",40qnnygq0fwr02z,18,"[""White""]",No,Female,"England -12 years
america - 6 years",No,365715,NA,null,<p></p>,null,choice,tdc,trinary,attraction,1,televisions,null,null,null,null,null,null,1,NA,NA,NA,NA,NA,NA,NA,NA,NA,NA
NA,NA,NA,NA,NA,choice_trial,survey-html-form,5,47149,0.0-4.0-1.0,225,1,2025-05-06T02:36:10Z,b60275e29fe2361ab97ac0ac217840d7,"Mozilla/5.0 (Macintosh; Intel Mac OS X 10_15_7) AppleWebKit/605.1.15 (KHTML, like Gecko) Version/16.6 Safari/605.1.15",Macintosh,Safari,16.6,OS X,10_15_7,https://5puzkbbxv1.cognition.run/?sona_id=55384,"en-US,en;q=0.9",40qnnygq0fwr02z,18,"[""White""]",No,Female,"England -12 years
america - 6 years",No,365715,NA,10555,NA,"{""product_choice"":""C""}",choice,tdc,trinary,attraction,1,televisions,null,null,null,null,null,null,1,60,50,60,50,60,40,Screen size,Average lifespan,NA,NA
NA,NA,NA,NA,NA,choice_trial_setup,html-keyboard-response,6,47452,0.0-4.0-0.1,225,1,2025-05-06T02:36:10Z,b60275e29fe2361ab97ac0ac217840d7,"Mozilla/5.0 (Macintosh; Intel Mac OS X 10_15_7) AppleWebKit/605.1.15 (KHTML, like Gecko) Version/16.6 Safari/605.1.15",Macintosh,Safari,16.6,OS X,10_15_7,https://5puzkbbxv1.cognition.run/?sona_id=55384,"en-US,en;q=0.9",40qnnygq0fwr02z,18,"[""White""]",No,Female,"England -12 years
america - 6 years",No,365715,NA,null,<p></p>,null,choice,dct,trinary,repulsion_A,2,washing machines,null,null,null,null,null,null,2,NA,NA,NA,NA,NA,NA,NA,NA,NA,NA
NA,NA,NA,NA,NA,choice_trial,survey-html-form,7,57268,0.0-4.0-1.1,225,1,2025-05-06T02:36:10Z,b60275e29fe2361ab97ac0ac217840d7,"Mozilla/5.0 (Macintosh; Intel Mac OS X 10_15_7) AppleWebKit/605.1.15 (KHTML, like Gecko) Version/16.6 Safari/605.1.15",Macintosh,Safari,16.6,OS X,10_15_7,https://5puzkbbxv1.cognition.run/?sona_id=55384,"en-US,en;q=0.9",40qnnygq0fwr02z,18,"[""White""]",No,Female,"England -12 years
america - 6 years",No,365715,NA,9814,NA,"{""product_choice"":""B""}",choice,dct,trinary,repulsion_A,2,washing machines,null,null,null,null,null,null,2,30,40,20,100,90,100,Average lifespan,Energy savings,NA,NA
NA,NA,NA,NA,NA,choice_trial_setup,html-keyboard-response,8,57571,0.0-4.0-0.2,225,1,2025-05-06T02:36:10Z,b60275e29fe2361ab97ac0ac217840d7,"Mozilla/5.0 (Macintosh; Intel Mac OS X 10_15_7) AppleWebKit/605.1.15 (KHTML, like Gecko) Version/16.6 Safari/605.1.15",Macintosh,Safari,16.6,OS X,10_15_7,https://5puzkbbxv1.cognition.run/?sona_id=55384,"en-US,en;q=0.9",40qnnygq0fwr02z,18,"[""White""]",No,Female,"England -12 years
america - 6 years",No,365715,NA,null,<p></p>,null,choice,tcd,trinary,repulsion_A,1,laptops,null,null,null,null,null,null,2,NA,NA,NA,NA,NA,NA,NA,NA,NA,NA
NA,NA,NA,NA,NA,choice_trial,survey-html-form,9,63599,0.0-4.0-1.2,225,1,2025-05-06T02:36:10Z,b60275e29fe2361ab97ac0ac217840d7,"Mozilla/5.0 (Macintosh; Intel Mac OS X 10_15_7) AppleWebKit/605.1.15 (KHTML, like Gecko) Version/16.6 Safari/605.1.15",Macintosh,Safari,16.6,OS X,10_15_7,https://5puzkbbxv1.cognition.run/?sona_id=55384,"en-US,en;q=0.9",40qnnygq0fwr02z,18,"[""White""]",No,Female,"England -12 years
america - 6 years",No,365715,NA,6025,NA,"{""product_choice"":""B""}",choice,tcd,trinary,repulsion_A,1,laptops,null,null,null,null,null,null,2,100,90,100,30,40,20,Processing speed,Memory (RAM),NA,NA
NA,NA,NA,NA,NA,choice_trial_setup,html-keyboard-response,10,63901,0.0-4.0-0.3,225,1,2025-05-06T02:36:10Z,b60275e29fe2361ab97ac0ac217840d7,"Mozilla/5.0 (Macintosh; Intel Mac OS X 10_15_7) AppleWebKit/605.1.15 (KHTML, like Gecko) Version/16.6 Safari/605.1.15",Macintosh,Safari,16.6,OS X,10_15_7,https://5puzkbbxv1.cognition.run/?sona_id=55384,"en-US,en;q=0.9",40qnnygq0fwr02z,18,"[""White""]",No,Female,"England -12 years
america - 6 years",No,365715,NA,null,<p></p>,null,choice,wbw,trinary,catch,null,laptops,50,90,20,10,5,45,2,NA,NA,NA,NA,NA,NA,NA,NA,NA,NA
NA,NA,NA,NA,NA,choice_trial,survey-html-form,11,70130,0.0-4.0-1.3,225,1,2025-05-06T02:36:10Z,b60275e29fe2361ab97ac0ac217840d7,"Mozilla/5.0 (Macintosh; Intel Mac OS X 10_15_7) AppleWebKit/605.1.15 (KHTML, like Gecko) Version/16.6 Safari/605.1.15",Macintosh,Safari,16.6,OS X,10_15_7,https://5puzkbbxv1.cognition.run/?sona_id=55384,"en-US,en;q=0.9",40qnnygq0fwr02z,18,"[""White""]",No,Female,"England -12 years
america - 6 years",No,365715,NA,6226,NA,"{""product_choice"":""B""}",choice,wbw,trinary,catch,null,laptops,50,90,20,10,5,45,2,null,null,null,null,null,null,Processing speed,Memory (RAM),NA,NA
NA,NA,NA,NA,NA,choice_trial_setup,html-keyboard-response,12,70432,0.0-4.0-0.4,225,1,2025-05-06T02:36:10Z,b60275e29fe2361ab97ac0ac217840d7,"Mozilla/5.0 (Macintosh; Intel Mac OS X 10_15_7) AppleWebKit/605.1.15 (KHTML, like Gecko) Version/16.6 Safari/605.1.15",Macintosh,Safari,16.6,OS X,10_15_7,https://5puzkbbxv1.cognition.run/?sona_id=55384,"en-US,en;q=0.9",40qnnygq0fwr02z,18,"[""White""]",No,Female,"England -12 years
america - 6 years",No,365715,NA,null,<p></p>,null,choice,tc,binary,repulsion,2,laptops,null,null,null,null,null,null,1,NA,NA,NA,NA,NA,NA,NA,NA,NA,NA
NA,NA,NA,NA,NA,choice_trial,survey-html-form,13,75530,0.0-4.0-1.4,225,1,2025-05-06T02:36:10Z,b60275e29fe2361ab97ac0ac217840d7,"Mozilla/5.0 (Macintosh; Intel Mac OS X 10_15_7) AppleWebKit/605.1.15 (KHTML, like Gecko) Version/16.6 Safari/605.1.15",Macintosh,Safari,16.6,OS X,10_15_7,https://5puzkbbxv1.cognition.run/?sona_id=55384,"en-US,en;q=0.9",40qnnygq0fwr02z,18,"[""White""]",No,Female,"England -12 years
america - 6 years",No,365715,NA,5094,NA,"{""product_choice"":""B""}",choice,tc,binary,repulsion,2,laptops,null,null,null,null,null,null,1,30,40,null,100,90,null,Processing speed,Memory (RAM),NA,NA
NA,NA,NA,NA,NA,choice_trial_setup,html-keyboard-response,14,75831,0.0-4.0-0.5,225,1,2025-05-06T02:36:10Z,b60275e29fe2361ab97ac0ac217840d7,"Mozilla/5.0 (Macintosh; Intel Mac OS X 10_15_7) AppleWebKit/605.1.15 (KHTML, like Gecko) Version/16.6 Safari/605.1.15",Macintosh,Safari,16.6,OS X,10_15_7,https://5puzkbbxv1.cognition.run/?sona_id=55384,"en-US,en;q=0.9",40qnnygq0fwr02z,18,"[""White""]",No,Female,"England -12 years
america - 6 years",No,365715,NA,null,<p></p>,null,choice,cdt,trinary,repulsion_B,2,washing machines,null,null,null,null,null,null,1,NA,NA,NA,NA,NA,NA,NA,NA,NA,NA
NA,NA,NA,NA,NA,choice_trial,survey-html-form,15,83167,0.0-4.0-1.5,225,1,2025-05-06T02:36:10Z,b60275e29fe2361ab97ac0ac217840d7,"Mozilla/5.0 (Macintosh; Intel Mac OS X 10_15_7) AppleWebKit/605.1.15 (KHTML, like Gecko) Version/16.6 Safari/605.1.15",Macintosh,Safari,16.6,OS X,10_15_7,https://5puzkbbxv1.cognition.run/?sona_id=55384,"en-US,en;q=0.9",40qnnygq0fwr02z,18,"[""White""]",No,Female,"England -12 years
america - 6 years",No,365715,NA,7333,NA,"{""product_choice"":""C""}",choice,cdt,trinary,repulsion_B,2,washing machines,null,null,null,null,null,null,1,40,30,40,90,100,80,Average lifespan,Energy savings,NA,NA
NA,NA,NA,NA,NA,choice_trial_setup,html-keyboard-response,16,83469,0.0-4.0-0.6,225,1,2025-05-06T02:36:10Z,b60275e29fe2361ab97ac0ac217840d7,"Mozilla/5.0 (Macintosh; Intel Mac OS X 10_15_7) AppleWebKit/605.1.15 (KHTML, like Gecko) Version/16.6 Safari/605.1.15",Macintosh,Safari,16.6,OS X,10_15_7,https://5puzkbbxv1.cognition.run/?sona_id=55384,"en-US,en;q=0.9",40qnnygq0fwr02z,18,"[""White""]",No,Female,"England -12 years
america - 6 years",No,365715,NA,null,<p></p>,null,choice,dtc,trinary,repulsion_B,1,washing machines,null,null,null,null,null,null,2,NA,NA,NA,NA,NA,NA,NA,NA,NA,NA
NA,NA,NA,NA,NA,choice_trial,survey-html-form,17,89479,0.0-4.0-1.6,225,1,2025-05-06T02:36:10Z,b60275e29fe2361ab97ac0ac217840d7,"Mozilla/5.0 (Macintosh; Intel Mac OS X 10_15_7) AppleWebKit/605.1.15 (KHTML, like Gecko) Version/16.6 Safari/605.1.15",Macintosh,Safari,16.6,OS X,10_15_7,https://5puzkbbxv1.cognition.run/?sona_id=55384,"en-US,en;q=0.9",40qnnygq0fwr02z,18,"[""White""]",No,Female,"England -12 years
america - 6 years",No,365715,NA,6007,NA,"{""product_choice"":""B""}",choice,dtc,trinary,repulsion_B,1,washing machines,null,null,null,null,null,null,2,90,100,80,40,30,40,Average lifespan,Energy savings,NA,NA
NA,NA,NA,NA,NA,choice_trial_setup,html-keyboard-response,18,89781,0.0-4.0-0.7,225,1,2025-05-06T02:36:10Z,b60275e29fe2361ab97ac0ac217840d7,"Mozilla/5.0 (Macintosh; Intel Mac OS X 10_15_7) AppleWebKit/605.1.15 (KHTML, like Gecko) Version/16.6 Safari/605.1.15",Macintosh,Safari,16.6,OS X,10_15_7,https://5puzkbbxv1.cognition.run/?sona_id=55384,"en-US,en;q=0.9",40qnnygq0fwr02z,18,"[""White""]",No,Female,"England -12 years
america - 6 years",No,365715,NA,null,<p></p>,null,choice,tc,binary,repulsion,2,washing machines,null,null,null,null,null,null,1,NA,NA,NA,NA,NA,NA,NA,NA,NA,NA
NA,NA,NA,NA,NA,choice_trial,survey-html-form,19,93066,0.0-4.0-1.7,225,1,2025-05-06T02:36:10Z,b60275e29fe2361ab97ac0ac217840d7,"Mozilla/5.0 (Macintosh; Intel Mac OS X 10_15_7) AppleWebKit/605.1.15 (KHTML, like Gecko) Version/16.6 Safari/605.1.15",Macintosh,Safari,16.6,OS X,10_15_7,https://5puzkbbxv1.cognition.run/?sona_id=55384,"en-US,en;q=0.9",40qnnygq0fwr02z,18,"[""White""]",No,Female,"England -12 years
america - 6 years",No,365715,NA,3280,NA,"{""product_choice"":""B""}",choice,tc,binary,repulsion,2,washing machines,null,null,null,null,null,null,1,30,40,null,100,90,null,Average lifespan,Energy savings,NA,NA
NA,NA,NA,NA,NA,choice_trial_setup,html-keyboard-response,20,93367,0.0-4.0-0.8,225,1,2025-05-06T02:36:10Z,b60275e29fe2361ab97ac0ac217840d7,"Mozilla/5.0 (Macintosh; Intel Mac OS X 10_15_7) AppleWebKit/605.1.15 (KHTML, like Gecko) Version/16.6 Safari/605.1.15",Macintosh,Safari,16.6,OS X,10_15_7,https://5puzkbbxv1.cognition.run/?sona_id=55384,"en-US,en;q=0.9",40qnnygq0fwr02z,18,"[""White""]",No,Female,"England -12 years
america - 6 years",No,365715,NA,null,<p></p>,null,choice,tc,binary,repulsion,2,televisions,null,null,null,null,null,null,2,NA,NA,NA,NA,NA,NA,NA,NA,NA,NA
NA,NA,NA,NA,NA,choice_trial,survey-html-form,21,97532,0.0-4.0-1.8,225,1,2025-05-06T02:36:10Z,b60275e29fe2361ab97ac0ac217840d7,"Mozilla/5.0 (Macintosh; Intel Mac OS X 10_15_7) AppleWebKit/605.1.15 (KHTML, like Gecko) Version/16.6 Safari/605.1.15",Macintosh,Safari,16.6,OS X,10_15_7,https://5puzkbbxv1.cognition.run/?sona_id=55384,"en-US,en;q=0.9",40qnnygq0fwr02z,18,"[""White""]",No,Female,"England -12 years
america - 6 years",No,365715,NA,4161,NA,"{""product_choice"":""B""}",choice,tc,binary,repulsion,2,televisions,null,null,null,null,null,null,2,30,40,null,100,90,null,Screen size,Average lifespan,NA,NA
NA,NA,NA,NA,NA,choice_trial_setup,html-keyboard-response,22,97835,0.0-4.0-0.9,225,1,2025-05-06T02:36:10Z,b60275e29fe2361ab97ac0ac217840d7,"Mozilla/5.0 (Macintosh; Intel Mac OS X 10_15_7) AppleWebKit/605.1.15 (KHTML, like Gecko) Version/16.6 Safari/605.1.15",Macintosh,Safari,16.6,OS X,10_15_7,https://5puzkbbxv1.cognition.run/?sona_id=55384,"en-US,en;q=0.9",40qnnygq0fwr02z,18,"[""White""]",No,Female,"England -12 years
america - 6 years",No,365715,NA,null,<p></p>,null,choice,ctd,trinary,repulsion_B,1,laptops,null,null,null,null,null,null,2,NA,NA,NA,NA,NA,NA,NA,NA,NA,NA
NA,NA,NA,NA,NA,choice_trial,survey-html-form,23,104883,0.0-4.0-1.9,225,1,2025-05-06T02:36:10Z,b60275e29fe2361ab97ac0ac217840d7,"Mozilla/5.0 (Macintosh; Intel Mac OS X 10_15_7) AppleWebKit/605.1.15 (KHTML, like Gecko) Version/16.6 Safari/605.1.15",Macintosh,Safari,16.6,OS X,10_15_7,https://5puzkbbxv1.cognition.run/?sona_id=55384,"en-US,en;q=0.9",40qnnygq0fwr02z,18,"[""White""]",No,Female,"England -12 years
america - 6 years",No,365715,NA,7044,NA,"{""product_choice"":""B""}",choice,ctd,trinary,repulsion_B,1,laptops,null,null,null,null,null,null,2,90,100,80,40,30,40,Processing speed,Memory (RAM),NA,NA
NA,NA,NA,NA,NA,choice_trial_setup,html-keyboard-response,24,105186,0.0-4.0-0.10,225,1,2025-05-06T02:36:10Z,b60275e29fe2361ab97ac0ac217840d7,"Mozilla/5.0 (Macintosh; Intel Mac OS X 10_15_7) AppleWebKit/605.1.15 (KHTML, like Gecko) Version/16.6 Safari/605.1.15",Macintosh,Safari,16.6,OS X,10_15_7,https://5puzkbbxv1.cognition.run/?sona_id=55384,"en-US,en;q=0.9",40qnnygq0fwr02z,18,"[""White""]",No,Female,"England -12 years
america - 6 years",No,365715,NA,null,<p></p>,null,choice,tc,binary,attraction,NA,microwave ovens,null,null,null,null,null,null,2,NA,NA,NA,NA,NA,NA,NA,NA,NA,NA
NA,NA,NA,NA,NA,choice_trial,survey-html-form,25,111932,0.0-4.0-1.10,225,1,2025-05-06T02:36:10Z,b60275e29fe2361ab97ac0ac217840d7,"Mozilla/5.0 (Macintosh; Intel Mac OS X 10_15_7) AppleWebKit/605.1.15 (KHTML, like Gecko) Version/16.6 Safari/605.1.15",Macintosh,Safari,16.6,OS X,10_15_7,https://5puzkbbxv1.cognition.run/?sona_id=55384,"en-US,en;q=0.9",40qnnygq0fwr02z,18,"[""White""]",No,Female,"England -12 years
america - 6 years",No,365715,NA,6746,NA,"{""product_choice"":""A""}",choice,tc,binary,attraction,NA,microwave ovens,null,null,null,null,null,null,2,60,50,null,50,60,null,Warranty,Cooking power,NA,NA
NA,NA,NA,NA,NA,choice_trial_setup,html-keyboard-response,26,112235,0.0-4.0-0.11,225,1,2025-05-06T02:36:10Z,b60275e29fe2361ab97ac0ac217840d7,"Mozilla/5.0 (Macintosh; Intel Mac OS X 10_15_7) AppleWebKit/605.1.15 (KHTML, like Gecko) Version/16.6 Safari/605.1.15",Macintosh,Safari,16.6,OS X,10_15_7,https://5puzkbbxv1.cognition.run/?sona_id=55384,"en-US,en;q=0.9",40qnnygq0fwr02z,18,"[""White""]",No,Female,"England -12 years
america - 6 years",No,365715,NA,null,<p></p>,null,choice,dtc,trinary,repulsion_B,2,microwave ovens,null,null,null,null,null,null,1,NA,NA,NA,NA,NA,NA,NA,NA,NA,NA
NA,NA,NA,NA,NA,choice_trial,survey-html-form,27,118597,0.0-4.0-1.11,225,1,2025-05-06T02:36:10Z,b60275e29fe2361ab97ac0ac217840d7,"Mozilla/5.0 (Macintosh; Intel Mac OS X 10_15_7) AppleWebKit/605.1.15 (KHTML, like Gecko) Version/16.6 Safari/605.1.15",Macintosh,Safari,16.6,OS X,10_15_7,https://5puzkbbxv1.cognition.run/?sona_id=55384,"en-US,en;q=0.9",40qnnygq0fwr02z,18,"[""White""]",No,Female,"England -12 years
america - 6 years",No,365715,NA,6359,NA,"{""product_choice"":""B""}",choice,dtc,trinary,repulsion_B,2,microwave ovens,null,null,null,null,null,null,1,40,30,40,90,100,80,Warranty,Cooking power,NA,NA
NA,NA,NA,NA,NA,choice_trial_setup,html-keyboard-response,28,118898,0.0-4.0-0.12,225,1,2025-05-06T02:36:10Z,b60275e29fe2361ab97ac0ac217840d7,"Mozilla/5.0 (Macintosh; Intel Mac OS X 10_15_7) AppleWebKit/605.1.15 (KHTML, like Gecko) Version/16.6 Safari/605.1.15",Macintosh,Safari,16.6,OS X,10_15_7,https://5puzkbbxv1.cognition.run/?sona_id=55384,"en-US,en;q=0.9",40qnnygq0fwr02z,18,"[""White""]",No,Female,"England -12 years
america - 6 years",No,365715,NA,null,<p></p>,null,choice,ct,binary,repulsion,1,laptops,null,null,null,null,null,null,1,NA,NA,NA,NA,NA,NA,NA,NA,NA,NA
NA,NA,NA,NA,NA,choice_trial,survey-html-form,29,123632,0.0-4.0-1.12,225,1,2025-05-06T02:36:10Z,b60275e29fe2361ab97ac0ac217840d7,"Mozilla/5.0 (Macintosh; Intel Mac OS X 10_15_7) AppleWebKit/605.1.15 (KHTML, like Gecko) Version/16.6 Safari/605.1.15",Macintosh,Safari,16.6,OS X,10_15_7,https://5puzkbbxv1.cognition.run/?sona_id=55384,"en-US,en;q=0.9",40qnnygq0fwr02z,18,"[""White""]",No,Female,"England -12 years
america - 6 years",No,365715,NA,4731,NA,"{""product_choice"":""A""}",choice,ct,binary,repulsion,1,laptops,null,null,null,null,null,null,1,100,90,null,30,40,null,Processing speed,Memory (RAM),NA,NA
NA,NA,NA,NA,NA,choice_trial_setup,html-keyboard-response,30,123934,0.0-4.0-0.13,225,1,2025-05-06T02:36:10Z,b60275e29fe2361ab97ac0ac217840d7,"Mozilla/5.0 (Macintosh; Intel Mac OS X 10_15_7) AppleWebKit/605.1.15 (KHTML, like Gecko) Version/16.6 Safari/605.1.15",Macintosh,Safari,16.6,OS X,10_15_7,https://5puzkbbxv1.cognition.run/?sona_id=55384,"en-US,en;q=0.9",40qnnygq0fwr02z,18,"[""White""]",No,Female,"England -12 years
america - 6 years",No,365715,NA,null,<p></p>,null,choice,tdc,trinary,repulsion_A,1,microwave ovens,null,null,null,null,null,null,1,NA,NA,NA,NA,NA,NA,NA,NA,NA,NA
NA,NA,NA,NA,NA,choice_trial,survey-html-form,31,128967,0.0-4.0-1.13,225,1,2025-05-06T02:36:10Z,b60275e29fe2361ab97ac0ac217840d7,"Mozilla/5.0 (Macintosh; Intel Mac OS X 10_15_7) AppleWebKit/605.1.15 (KHTML, like Gecko) Version/16.6 Safari/605.1.15",Macintosh,Safari,16.6,OS X,10_15_7,https://5puzkbbxv1.cognition.run/?sona_id=55384,"en-US,en;q=0.9",40qnnygq0fwr02z,18,"[""White""]",No,Female,"England -12 years
america - 6 years",No,365715,NA,5028,NA,"{""product_choice"":""A""}",choice,tdc,trinary,repulsion_A,1,microwave ovens,null,null,null,null,null,null,1,100,90,100,30,40,20,Warranty,Cooking power,NA,NA
NA,NA,NA,NA,NA,choice_trial_setup,html-keyboard-response,32,129270,0.0-4.0-0.14,225,1,2025-05-06T02:36:10Z,b60275e29fe2361ab97ac0ac217840d7,"Mozilla/5.0 (Macintosh; Intel Mac OS X 10_15_7) AppleWebKit/605.1.15 (KHTML, like Gecko) Version/16.6 Safari/605.1.15",Macintosh,Safari,16.6,OS X,10_15_7,https://5puzkbbxv1.cognition.run/?sona_id=55384,"en-US,en;q=0.9",40qnnygq0fwr02z,18,"[""White""]",No,Female,"England -12 years
america - 6 years",No,365715,NA,null,<p></p>,null,choice,tdc,trinary,attraction,2,televisions,null,null,null,null,null,null,1,NA,NA,NA,NA,NA,NA,NA,NA,NA,NA
NA,NA,NA,NA,NA,choice_trial,survey-html-form,33,139067,0.0-4.0-1.14,225,1,2025-05-06T02:36:10Z,b60275e29fe2361ab97ac0ac217840d7,"Mozilla/5.0 (Macintosh; Intel Mac OS X 10_15_7) AppleWebKit/605.1.15 (KHTML, like Gecko) Version/16.6 Safari/605.1.15",Macintosh,Safari,16.6,OS X,10_15_7,https://5puzkbbxv1.cognition.run/?sona_id=55384,"en-US,en;q=0.9",40qnnygq0fwr02z,18,"[""White""]",No,Female,"England -12 years
america - 6 years",No,365715,NA,9794,NA,"{""product_choice"":""A""}",choice,tdc,trinary,attraction,2,televisions,null,null,null,null,null,null,1,50,60,40,60,50,60,Screen size,Average lifespan,NA,NA
NA,NA,NA,NA,NA,choice_trial_setup,html-keyboard-response,34,139371,0.0-4.0-0.15,225,1,2025-05-06T02:36:10Z,b60275e29fe2361ab97ac0ac217840d7,"Mozilla/5.0 (Macintosh; Intel Mac OS X 10_15_7) AppleWebKit/605.1.15 (KHTML, like Gecko) Version/16.6 Safari/605.1.15",Macintosh,Safari,16.6,OS X,10_15_7,https://5puzkbbxv1.cognition.run/?sona_id=55384,"en-US,en;q=0.9",40qnnygq0fwr02z,18,"[""White""]",No,Female,"England -12 years
america - 6 years",No,365715,NA,null,<p></p>,null,choice,tcd,trinary,repulsion_A,2,laptops,null,null,null,null,null,null,1,NA,NA,NA,NA,NA,NA,NA,NA,NA,NA
NA,NA,NA,NA,NA,choice_trial,survey-html-form,35,143300,0.0-4.0-1.15,225,1,2025-05-06T02:36:10Z,b60275e29fe2361ab97ac0ac217840d7,"Mozilla/5.0 (Macintosh; Intel Mac OS X 10_15_7) AppleWebKit/605.1.15 (KHTML, like Gecko) Version/16.6 Safari/605.1.15",Macintosh,Safari,16.6,OS X,10_15_7,https://5puzkbbxv1.cognition.run/?sona_id=55384,"en-US,en;q=0.9",40qnnygq0fwr02z,18,"[""White""]",No,Female,"England -12 years
america - 6 years",No,365715,NA,3925,NA,"{""product_choice"":""B""}",choice,tcd,trinary,repulsion_A,2,laptops,null,null,null,null,null,null,1,30,40,20,100,90,100,Processing speed,Memory (RAM),NA,NA
NA,NA,NA,NA,NA,choice_trial_setup,html-keyboard-response,36,143604,0.0-4.0-0.16,225,1,2025-05-06T02:36:10Z,b60275e29fe2361ab97ac0ac217840d7,"Mozilla/5.0 (Macintosh; Intel Mac OS X 10_15_7) AppleWebKit/605.1.15 (KHTML, like Gecko) Version/16.6 Safari/605.1.15",Macintosh,Safari,16.6,OS X,10_15_7,https://5puzkbbxv1.cognition.run/?sona_id=55384,"en-US,en;q=0.9",40qnnygq0fwr02z,18,"[""White""]",No,Female,"England -12 years
america - 6 years",No,365715,NA,null,<p></p>,null,choice,tc,binary,repulsion,1,televisions,null,null,null,null,null,null,1,NA,NA,NA,NA,NA,NA,NA,NA,NA,NA
NA,NA,NA,NA,NA,choice_trial,survey-html-form,37,146598,0.0-4.0-1.16,225,1,2025-05-06T02:36:10Z,b60275e29fe2361ab97ac0ac217840d7,"Mozilla/5.0 (Macintosh; Intel Mac OS X 10_15_7) AppleWebKit/605.1.15 (KHTML, like Gecko) Version/16.6 Safari/605.1.15",Macintosh,Safari,16.6,OS X,10_15_7,https://5puzkbbxv1.cognition.run/?sona_id=55384,"en-US,en;q=0.9",40qnnygq0fwr02z,18,"[""White""]",No,Female,"England -12 years
america - 6 years",No,365715,NA,2990,NA,"{""product_choice"":""B""}",choice,tc,binary,repulsion,1,televisions,null,null,null,null,null,null,1,100,90,null,30,40,null,Screen size,Average lifespan,NA,NA
NA,NA,NA,NA,NA,choice_trial_setup,html-keyboard-response,38,146901,0.0-4.0-0.17,225,1,2025-05-06T02:36:10Z,b60275e29fe2361ab97ac0ac217840d7,"Mozilla/5.0 (Macintosh; Intel Mac OS X 10_15_7) AppleWebKit/605.1.15 (KHTML, like Gecko) Version/16.6 Safari/605.1.15",Macintosh,Safari,16.6,OS X,10_15_7,https://5puzkbbxv1.cognition.run/?sona_id=55384,"en-US,en;q=0.9",40qnnygq0fwr02z,18,"[""White""]",No,Female,"England -12 years
america - 6 years",No,365715,NA,null,<p></p>,null,choice,tcd,trinary,repulsion_B,2,televisions,null,null,null,null,null,null,1,NA,NA,NA,NA,NA,NA,NA,NA,NA,NA
NA,NA,NA,NA,NA,choice_trial,survey-html-form,39,154384,0.0-4.0-1.17,225,1,2025-05-06T02:36:10Z,b60275e29fe2361ab97ac0ac217840d7,"Mozilla/5.0 (Macintosh; Intel Mac OS X 10_15_7) AppleWebKit/605.1.15 (KHTML, like Gecko) Version/16.6 Safari/605.1.15",Macintosh,Safari,16.6,OS X,10_15_7,https://5puzkbbxv1.cognition.run/?sona_id=55384,"en-US,en;q=0.9",40qnnygq0fwr02z,18,"[""White""]",No,Female,"England -12 years
america - 6 years",No,365715,NA,7480,NA,"{""product_choice"":""A""}",choice,tcd,trinary,repulsion_B,2,televisions,null,null,null,null,null,null,1,40,30,40,90,100,80,Screen size,Average lifespan,NA,NA
NA,NA,NA,NA,NA,choice_trial_setup,html-keyboard-response,40,154687,0.0-4.0-0.18,225,1,2025-05-06T02:36:10Z,b60275e29fe2361ab97ac0ac217840d7,"Mozilla/5.0 (Macintosh; Intel Mac OS X 10_15_7) AppleWebKit/605.1.15 (KHTML, like Gecko) Version/16.6 Safari/605.1.15",Macintosh,Safari,16.6,OS X,10_15_7,https://5puzkbbxv1.cognition.run/?sona_id=55384,"en-US,en;q=0.9",40qnnygq0fwr02z,18,"[""White""]",No,Female,"England -12 years
america - 6 years",No,365715,NA,null,<p></p>,null,choice,tdc,trinary,repulsion_B,1,televisions,null,null,null,null,null,null,1,NA,NA,NA,NA,NA,NA,NA,NA,NA,NA
NA,NA,NA,NA,NA,choice_trial,survey-html-form,41,157714,0.0-4.0-1.18,225,1,2025-05-06T02:36:10Z,b60275e29fe2361ab97ac0ac217840d7,"Mozilla/5.0 (Macintosh; Intel Mac OS X 10_15_7) AppleWebKit/605.1.15 (KHTML, like Gecko) Version/16.6 Safari/605.1.15",Macintosh,Safari,16.6,OS X,10_15_7,https://5puzkbbxv1.cognition.run/?sona_id=55384,"en-US,en;q=0.9",40qnnygq0fwr02z,18,"[""White""]",No,Female,"England -12 years
america - 6 years",No,365715,NA,3023,NA,"{""product_choice"":""A""}",choice,tdc,trinary,repulsion_B,1,televisions,null,null,null,null,null,null,1,90,100,80,40,30,40,Screen size,Average lifespan,NA,NA
NA,NA,NA,NA,NA,choice_trial_setup,html-keyboard-response,42,158017,0.0-4.0-0.19,225,1,2025-05-06T02:36:10Z,b60275e29fe2361ab97ac0ac217840d7,"Mozilla/5.0 (Macintosh; Intel Mac OS X 10_15_7) AppleWebKit/605.1.15 (KHTML, like Gecko) Version/16.6 Safari/605.1.15",Macintosh,Safari,16.6,OS X,10_15_7,https://5puzkbbxv1.cognition.run/?sona_id=55384,"en-US,en;q=0.9",40qnnygq0fwr02z,18,"[""White""]",No,Female,"England -12 years
america - 6 years",No,365715,NA,null,<p></p>,null,choice,tc,binary,repulsion,2,microwave ovens,null,null,null,null,null,null,1,NA,NA,NA,NA,NA,NA,NA,NA,NA,NA
NA,NA,NA,NA,NA,choice_trial,survey-html-form,43,163849,0.0-4.0-1.19,225,1,2025-05-06T02:36:10Z,b60275e29fe2361ab97ac0ac217840d7,"Mozilla/5.0 (Macintosh; Intel Mac OS X 10_15_7) AppleWebKit/605.1.15 (KHTML, like Gecko) Version/16.6 Safari/605.1.15",Macintosh,Safari,16.6,OS X,10_15_7,https://5puzkbbxv1.cognition.run/?sona_id=55384,"en-US,en;q=0.9",40qnnygq0fwr02z,18,"[""White""]",No,Female,"England -12 years
america - 6 years",No,365715,NA,5828,NA,"{""product_choice"":""B""}",choice,tc,binary,repulsion,2,microwave ovens,null,null,null,null,null,null,1,30,40,null,100,90,null,Warranty,Cooking power,NA,NA
NA,NA,NA,NA,NA,choice_trial_setup,html-keyboard-response,44,164151,0.0-4.0-0.20,225,1,2025-05-06T02:36:10Z,b60275e29fe2361ab97ac0ac217840d7,"Mozilla/5.0 (Macintosh; Intel Mac OS X 10_15_7) AppleWebKit/605.1.15 (KHTML, like Gecko) Version/16.6 Safari/605.1.15",Macintosh,Safari,16.6,OS X,10_15_7,https://5puzkbbxv1.cognition.run/?sona_id=55384,"en-US,en;q=0.9",40qnnygq0fwr02z,18,"[""White""]",No,Female,"England -12 years
america - 6 years",No,365715,NA,null,<p></p>,null,choice,tdc,trinary,repulsion_A,1,televisions,null,null,null,null,null,null,2,NA,NA,NA,NA,NA,NA,NA,NA,NA,NA
NA,NA,NA,NA,NA,choice_trial,survey-html-form,45,173085,0.0-4.0-1.20,225,1,2025-05-06T02:36:10Z,b60275e29fe2361ab97ac0ac217840d7,"Mozilla/5.0 (Macintosh; Intel Mac OS X 10_15_7) AppleWebKit/605.1.15 (KHTML, like Gecko) Version/16.6 Safari/605.1.15",Macintosh,Safari,16.6,OS X,10_15_7,https://5puzkbbxv1.cognition.run/?sona_id=55384,"en-US,en;q=0.9",40qnnygq0fwr02z,18,"[""White""]",No,Female,"England -12 years
america - 6 years",No,365715,NA,8928,NA,"{""product_choice"":""C""}",choice,tdc,trinary,repulsion_A,1,televisions,null,null,null,null,null,null,2,100,90,100,30,40,20,Screen size,Average lifespan,NA,NA
NA,NA,NA,NA,NA,choice_trial_setup,html-keyboard-response,46,173392,0.0-4.0-0.21,225,1,2025-05-06T02:36:10Z,b60275e29fe2361ab97ac0ac217840d7,"Mozilla/5.0 (Macintosh; Intel Mac OS X 10_15_7) AppleWebKit/605.1.15 (KHTML, like Gecko) Version/16.6 Safari/605.1.15",Macintosh,Safari,16.6,OS X,10_15_7,https://5puzkbbxv1.cognition.run/?sona_id=55384,"en-US,en;q=0.9",40qnnygq0fwr02z,18,"[""White""]",No,Female,"England -12 years
america - 6 years",No,365715,NA,null,<p></p>,null,choice,wb,binary,catch,null,laptops,65,50,45,45,null,null,1,NA,NA,NA,NA,NA,NA,NA,NA,NA,NA
NA,NA,NA,NA,NA,choice_trial,survey-html-form,47,178467,0.0-4.0-1.21,225,1,2025-05-06T02:36:10Z,b60275e29fe2361ab97ac0ac217840d7,"Mozilla/5.0 (Macintosh; Intel Mac OS X 10_15_7) AppleWebKit/605.1.15 (KHTML, like Gecko) Version/16.6 Safari/605.1.15",Macintosh,Safari,16.6,OS X,10_15_7,https://5puzkbbxv1.cognition.run/?sona_id=55384,"en-US,en;q=0.9",40qnnygq0fwr02z,18,"[""White""]",No,Female,"England -12 years
america - 6 years",No,365715,NA,5069,NA,"{""product_choice"":""B""}",choice,wb,binary,catch,null,laptops,65,50,45,45,null,null,1,null,null,null,null,null,null,Processing speed,Memory (RAM),NA,NA
NA,NA,NA,NA,NA,choice_trial_setup,html-keyboard-response,48,178771,0.0-4.0-0.22,225,1,2025-05-06T02:36:10Z,b60275e29fe2361ab97ac0ac217840d7,"Mozilla/5.0 (Macintosh; Intel Mac OS X 10_15_7) AppleWebKit/605.1.15 (KHTML, like Gecko) Version/16.6 Safari/605.1.15",Macintosh,Safari,16.6,OS X,10_15_7,https://5puzkbbxv1.cognition.run/?sona_id=55384,"en-US,en;q=0.9",40qnnygq0fwr02z,18,"[""White""]",No,Female,"England -12 years
america - 6 years",No,365715,NA,null,<p></p>,null,choice,cdt,trinary,attraction,2,washing machines,null,null,null,null,null,null,2,NA,NA,NA,NA,NA,NA,NA,NA,NA,NA
NA,NA,NA,NA,NA,choice_trial,survey-html-form,49,186799,0.0-4.0-1.22,225,1,2025-05-06T02:36:10Z,b60275e29fe2361ab97ac0ac217840d7,"Mozilla/5.0 (Macintosh; Intel Mac OS X 10_15_7) AppleWebKit/605.1.15 (KHTML, like Gecko) Version/16.6 Safari/605.1.15",Macintosh,Safari,16.6,OS X,10_15_7,https://5puzkbbxv1.cognition.run/?sona_id=55384,"en-US,en;q=0.9",40qnnygq0fwr02z,18,"[""White""]",No,Female,"England -12 years
america - 6 years",No,365715,NA,8026,NA,"{""product_choice"":""A""}",choice,cdt,trinary,attraction,2,washing machines,null,null,null,null,null,null,2,50,60,40,60,50,60,Average lifespan,Energy savings,NA,NA
NA,NA,NA,NA,NA,choice_trial_setup,html-keyboard-response,50,187102,0.0-4.0-0.23,225,1,2025-05-06T02:36:10Z,b60275e29fe2361ab97ac0ac217840d7,"Mozilla/5.0 (Macintosh; Intel Mac OS X 10_15_7) AppleWebKit/605.1.15 (KHTML, like Gecko) Version/16.6 Safari/605.1.15",Macintosh,Safari,16.6,OS X,10_15_7,https://5puzkbbxv1.cognition.run/?sona_id=55384,"en-US,en;q=0.9",40qnnygq0fwr02z,18,"[""White""]",No,Female,"England -12 years
america - 6 years",No,365715,NA,null,<p></p>,null,choice,tc,binary,repulsion,1,washing machines,null,null,null,null,null,null,2,NA,NA,NA,NA,NA,NA,NA,NA,NA,NA
NA,NA,NA,NA,NA,choice_trial,survey-html-form,51,190427,0.0-4.0-1.23,225,1,2025-05-06T02:36:10Z,b60275e29fe2361ab97ac0ac217840d7,"Mozilla/5.0 (Macintosh; Intel Mac OS X 10_15_7) AppleWebKit/605.1.15 (KHTML, like Gecko) Version/16.6 Safari/605.1.15",Macintosh,Safari,16.6,OS X,10_15_7,https://5puzkbbxv1.cognition.run/?sona_id=55384,"en-US,en;q=0.9",40qnnygq0fwr02z,18,"[""White""]",No,Female,"England -12 years
america - 6 years",No,365715,NA,3313,NA,"{""product_choice"":""B""}",choice,tc,binary,repulsion,1,washing machines,null,null,null,null,null,null,2,100,90,null,30,40,null,Average lifespan,Energy savings,NA,NA
NA,NA,NA,NA,NA,choice_trial_setup,html-keyboard-response,52,190732,0.0-4.0-0.24,225,1,2025-05-06T02:36:10Z,b60275e29fe2361ab97ac0ac217840d7,"Mozilla/5.0 (Macintosh; Intel Mac OS X 10_15_7) AppleWebKit/605.1.15 (KHTML, like Gecko) Version/16.6 Safari/605.1.15",Macintosh,Safari,16.6,OS X,10_15_7,https://5puzkbbxv1.cognition.run/?sona_id=55384,"en-US,en;q=0.9",40qnnygq0fwr02z,18,"[""White""]",No,Female,"England -12 years
america - 6 years",No,365715,NA,null,<p></p>,null,choice,wwb,trinary,catch,null,televisions,85,55,15,15,5,50,1,NA,NA,NA,NA,NA,NA,NA,NA,NA,NA
NA,NA,NA,NA,NA,choice_trial,survey-html-form,53,193951,0.0-4.0-1.24,225,1,2025-05-06T02:36:10Z,b60275e29fe2361ab97ac0ac217840d7,"Mozilla/5.0 (Macintosh; Intel Mac OS X 10_15_7) AppleWebKit/605.1.15 (KHTML, like Gecko) Version/16.6 Safari/605.1.15",Macintosh,Safari,16.6,OS X,10_15_7,https://5puzkbbxv1.cognition.run/?sona_id=55384,"en-US,en;q=0.9",40qnnygq0fwr02z,18,"[""White""]",No,Female,"England -12 years
america - 6 years",No,365715,NA,3217,NA,"{""product_choice"":""C""}",choice,wwb,trinary,catch,null,televisions,85,55,15,15,5,50,1,null,null,null,null,null,null,Screen size,Average lifespan,NA,NA
NA,NA,NA,NA,NA,choice_trial_setup,html-keyboard-response,54,194254,0.0-4.0-0.25,225,1,2025-05-06T02:36:10Z,b60275e29fe2361ab97ac0ac217840d7,"Mozilla/5.0 (Macintosh; Intel Mac OS X 10_15_7) AppleWebKit/605.1.15 (KHTML, like Gecko) Version/16.6 Safari/605.1.15",Macintosh,Safari,16.6,OS X,10_15_7,https://5puzkbbxv1.cognition.run/?sona_id=55384,"en-US,en;q=0.9",40qnnygq0fwr02z,18,"[""White""]",No,Female,"England -12 years
america - 6 years",No,365715,NA,null,<p></p>,null,choice,wb,binary,catch,null,televisions,55,60,10,45,null,null,2,NA,NA,NA,NA,NA,NA,NA,NA,NA,NA
NA,NA,NA,NA,NA,choice_trial,survey-html-form,55,203669,0.0-4.0-1.25,225,1,2025-05-06T02:36:10Z,b60275e29fe2361ab97ac0ac217840d7,"Mozilla/5.0 (Macintosh; Intel Mac OS X 10_15_7) AppleWebKit/605.1.15 (KHTML, like Gecko) Version/16.6 Safari/605.1.15",Macintosh,Safari,16.6,OS X,10_15_7,https://5puzkbbxv1.cognition.run/?sona_id=55384,"en-US,en;q=0.9",40qnnygq0fwr02z,18,"[""White""]",No,Female,"England -12 years
america - 6 years",No,365715,NA,9410,NA,"{""product_choice"":""B""}",choice,wb,binary,catch,null,televisions,55,60,10,45,null,null,2,null,null,null,null,null,null,Screen size,Average lifespan,NA,NA
NA,NA,NA,NA,NA,choice_trial_setup,html-keyboard-response,56,203971,0.0-4.0-0.26,225,1,2025-05-06T02:36:10Z,b60275e29fe2361ab97ac0ac217840d7,"Mozilla/5.0 (Macintosh; Intel Mac OS X 10_15_7) AppleWebKit/605.1.15 (KHTML, like Gecko) Version/16.6 Safari/605.1.15",Macintosh,Safari,16.6,OS X,10_15_7,https://5puzkbbxv1.cognition.run/?sona_id=55384,"en-US,en;q=0.9",40qnnygq0fwr02z,18,"[""White""]",No,Female,"England -12 years
america - 6 years",No,365715,NA,null,<p></p>,null,choice,bw,binary,catch,null,microwave ovens,90,95,50,20,null,null,2,NA,NA,NA,NA,NA,NA,NA,NA,NA,NA
NA,NA,NA,NA,NA,choice_trial,survey-html-form,57,207368,0.0-4.0-1.26,225,1,2025-05-06T02:36:10Z,b60275e29fe2361ab97ac0ac217840d7,"Mozilla/5.0 (Macintosh; Intel Mac OS X 10_15_7) AppleWebKit/605.1.15 (KHTML, like Gecko) Version/16.6 Safari/605.1.15",Macintosh,Safari,16.6,OS X,10_15_7,https://5puzkbbxv1.cognition.run/?sona_id=55384,"en-US,en;q=0.9",40qnnygq0fwr02z,18,"[""White""]",No,Female,"England -12 years
america - 6 years",No,365715,NA,3392,NA,"{""product_choice"":""A""}",choice,bw,binary,catch,null,microwave ovens,90,95,50,20,null,null,2,null,null,null,null,null,null,Warranty,Cooking power,NA,NA
NA,NA,NA,NA,NA,choice_trial_setup,html-keyboard-response,58,207672,0.0-4.0-0.27,225,1,2025-05-06T02:36:10Z,b60275e29fe2361ab97ac0ac217840d7,"Mozilla/5.0 (Macintosh; Intel Mac OS X 10_15_7) AppleWebKit/605.1.15 (KHTML, like Gecko) Version/16.6 Safari/605.1.15",Macintosh,Safari,16.6,OS X,10_15_7,https://5puzkbbxv1.cognition.run/?sona_id=55384,"en-US,en;q=0.9",40qnnygq0fwr02z,18,"[""White""]",No,Female,"England -12 years
america - 6 years",No,365715,NA,null,<p></p>,null,choice,tdc,trinary,repulsion_A,2,televisions,null,null,null,null,null,null,1,NA,NA,NA,NA,NA,NA,NA,NA,NA,NA
NA,NA,NA,NA,NA,choice_trial,survey-html-form,59,211483,0.0-4.0-1.27,225,1,2025-05-06T02:36:10Z,b60275e29fe2361ab97ac0ac217840d7,"Mozilla/5.0 (Macintosh; Intel Mac OS X 10_15_7) AppleWebKit/605.1.15 (KHTML, like Gecko) Version/16.6 Safari/605.1.15",Macintosh,Safari,16.6,OS X,10_15_7,https://5puzkbbxv1.cognition.run/?sona_id=55384,"en-US,en;q=0.9",40qnnygq0fwr02z,18,"[""White""]",No,Female,"England -12 years
america - 6 years",No,365715,NA,3806,NA,"{""product_choice"":""C""}",choice,tdc,trinary,repulsion_A,2,televisions,null,null,null,null,null,null,1,30,40,20,100,90,100,Screen size,Average lifespan,NA,NA
NA,NA,NA,NA,NA,choice_trial_setup,html-keyboard-response,60,211787,0.0-4.0-0.28,225,1,2025-05-06T02:36:10Z,b60275e29fe2361ab97ac0ac217840d7,"Mozilla/5.0 (Macintosh; Intel Mac OS X 10_15_7) AppleWebKit/605.1.15 (KHTML, like Gecko) Version/16.6 Safari/605.1.15",Macintosh,Safari,16.6,OS X,10_15_7,https://5puzkbbxv1.cognition.run/?sona_id=55384,"en-US,en;q=0.9",40qnnygq0fwr02z,18,"[""White""]",No,Female,"England -12 years
america - 6 years",No,365715,NA,null,<p></p>,null,choice,wb,binary,catch,null,washing machines,95,65,15,10,null,null,2,NA,NA,NA,NA,NA,NA,NA,NA,NA,NA
NA,NA,NA,NA,NA,choice_trial,survey-html-form,61,214153,0.0-4.0-1.28,225,1,2025-05-06T02:36:10Z,b60275e29fe2361ab97ac0ac217840d7,"Mozilla/5.0 (Macintosh; Intel Mac OS X 10_15_7) AppleWebKit/605.1.15 (KHTML, like Gecko) Version/16.6 Safari/605.1.15",Macintosh,Safari,16.6,OS X,10_15_7,https://5puzkbbxv1.cognition.run/?sona_id=55384,"en-US,en;q=0.9",40qnnygq0fwr02z,18,"[""White""]",No,Female,"England -12 years
america - 6 years",No,365715,NA,2362,NA,"{""product_choice"":""B""}",choice,wb,binary,catch,null,washing machines,95,65,15,10,null,null,2,null,null,null,null,null,null,Average lifespan,Energy savings,NA,NA
NA,NA,NA,NA,NA,choice_trial_setup,html-keyboard-response,62,214455,0.0-4.0-0.29,225,1,2025-05-06T02:36:10Z,b60275e29fe2361ab97ac0ac217840d7,"Mozilla/5.0 (Macintosh; Intel Mac OS X 10_15_7) AppleWebKit/605.1.15 (KHTML, like Gecko) Version/16.6 Safari/605.1.15",Macintosh,Safari,16.6,OS X,10_15_7,https://5puzkbbxv1.cognition.run/?sona_id=55384,"en-US,en;q=0.9",40qnnygq0fwr02z,18,"[""White""]",No,Female,"England -12 years
america - 6 years",No,365715,NA,null,<p></p>,null,choice,ct,binary,repulsion,1,microwave ovens,null,null,null,null,null,null,2,NA,NA,NA,NA,NA,NA,NA,NA,NA,NA
NA,NA,NA,NA,NA,choice_trial,survey-html-form,63,216481,0.0-4.0-1.29,225,1,2025-05-06T02:36:10Z,b60275e29fe2361ab97ac0ac217840d7,"Mozilla/5.0 (Macintosh; Intel Mac OS X 10_15_7) AppleWebKit/605.1.15 (KHTML, like Gecko) Version/16.6 Safari/605.1.15",Macintosh,Safari,16.6,OS X,10_15_7,https://5puzkbbxv1.cognition.run/?sona_id=55384,"en-US,en;q=0.9",40qnnygq0fwr02z,18,"[""White""]",No,Female,"England -12 years
america - 6 years",No,365715,NA,2022,NA,"{""product_choice"":""B""}",choice,ct,binary,repulsion,1,microwave ovens,null,null,null,null,null,null,2,100,90,null,30,40,null,Warranty,Cooking power,NA,NA
NA,NA,NA,NA,NA,choice_trial_setup,html-keyboard-response,64,216784,0.0-4.0-0.30,225,1,2025-05-06T02:36:10Z,b60275e29fe2361ab97ac0ac217840d7,"Mozilla/5.0 (Macintosh; Intel Mac OS X 10_15_7) AppleWebKit/605.1.15 (KHTML, like Gecko) Version/16.6 Safari/605.1.15",Macintosh,Safari,16.6,OS X,10_15_7,https://5puzkbbxv1.cognition.run/?sona_id=55384,"en-US,en;q=0.9",40qnnygq0fwr02z,18,"[""White""]",No,Female,"England -12 years
america - 6 years",No,365715,NA,null,<p></p>,null,choice,tdc,trinary,attraction,2,microwave ovens,null,null,null,null,null,null,1,NA,NA,NA,NA,NA,NA,NA,NA,NA,NA
NA,NA,NA,NA,NA,choice_trial,survey-html-form,65,221352,0.0-4.0-1.30,225,1,2025-05-06T02:36:10Z,b60275e29fe2361ab97ac0ac217840d7,"Mozilla/5.0 (Macintosh; Intel Mac OS X 10_15_7) AppleWebKit/605.1.15 (KHTML, like Gecko) Version/16.6 Safari/605.1.15",Macintosh,Safari,16.6,OS X,10_15_7,https://5puzkbbxv1.cognition.run/?sona_id=55384,"en-US,en;q=0.9",40qnnygq0fwr02z,18,"[""White""]",No,Female,"England -12 years
america - 6 years",No,365715,NA,4562,NA,"{""product_choice"":""C""}",choice,tdc,trinary,attraction,2,microwave ovens,null,null,null,null,null,null,1,50,60,40,60,50,60,Warranty,Cooking power,NA,NA
NA,NA,NA,NA,NA,choice_trial_setup,html-keyboard-response,66,221655,0.0-4.0-0.31,225,1,2025-05-06T02:36:10Z,b60275e29fe2361ab97ac0ac217840d7,"Mozilla/5.0 (Macintosh; Intel Mac OS X 10_15_7) AppleWebKit/605.1.15 (KHTML, like Gecko) Version/16.6 Safari/605.1.15",Macintosh,Safari,16.6,OS X,10_15_7,https://5puzkbbxv1.cognition.run/?sona_id=55384,"en-US,en;q=0.9",40qnnygq0fwr02z,18,"[""White""]",No,Female,"England -12 years
america - 6 years",No,365715,NA,null,<p></p>,null,choice,dct,trinary,repulsion_B,2,laptops,null,null,null,null,null,null,1,NA,NA,NA,NA,NA,NA,NA,NA,NA,NA
NA,NA,NA,NA,NA,choice_trial,survey-html-form,67,225283,0.0-4.0-1.31,225,1,2025-05-06T02:36:10Z,b60275e29fe2361ab97ac0ac217840d7,"Mozilla/5.0 (Macintosh; Intel Mac OS X 10_15_7) AppleWebKit/605.1.15 (KHTML, like Gecko) Version/16.6 Safari/605.1.15",Macintosh,Safari,16.6,OS X,10_15_7,https://5puzkbbxv1.cognition.run/?sona_id=55384,"en-US,en;q=0.9",40qnnygq0fwr02z,18,"[""White""]",No,Female,"England -12 years
america - 6 years",No,365715,NA,3624,NA,"{""product_choice"":""C""}",choice,dct,trinary,repulsion_B,2,laptops,null,null,null,null,null,null,1,40,30,40,90,100,80,Processing speed,Memory (RAM),NA,NA
NA,NA,NA,NA,NA,choice_trial_setup,html-keyboard-response,68,225586,0.0-4.0-0.32,225,1,2025-05-06T02:36:10Z,b60275e29fe2361ab97ac0ac217840d7,"Mozilla/5.0 (Macintosh; Intel Mac OS X 10_15_7) AppleWebKit/605.1.15 (KHTML, like Gecko) Version/16.6 Safari/605.1.15",Macintosh,Safari,16.6,OS X,10_15_7,https://5puzkbbxv1.cognition.run/?sona_id=55384,"en-US,en;q=0.9",40qnnygq0fwr02z,18,"[""White""]",No,Female,"England -12 years
america - 6 years",No,365715,NA,null,<p></p>,null,choice,tdc,trinary,attraction,1,microwave ovens,null,null,null,null,null,null,2,NA,NA,NA,NA,NA,NA,NA,NA,NA,NA
NA,NA,NA,NA,NA,choice_trial,survey-html-form,69,233552,0.0-4.0-1.32,225,1,2025-05-06T02:36:10Z,b60275e29fe2361ab97ac0ac217840d7,"Mozilla/5.0 (Macintosh; Intel Mac OS X 10_15_7) AppleWebKit/605.1.15 (KHTML, like Gecko) Version/16.6 Safari/605.1.15",Macintosh,Safari,16.6,OS X,10_15_7,https://5puzkbbxv1.cognition.run/?sona_id=55384,"en-US,en;q=0.9",40qnnygq0fwr02z,18,"[""White""]",No,Female,"England -12 years
america - 6 years",No,365715,NA,7963,NA,"{""product_choice"":""A""}",choice,tdc,trinary,attraction,1,microwave ovens,null,null,null,null,null,null,2,60,50,60,50,60,40,Warranty,Cooking power,NA,NA
NA,NA,NA,NA,NA,choice_trial_setup,html-keyboard-response,70,233854,0.0-4.0-0.33,225,1,2025-05-06T02:36:10Z,b60275e29fe2361ab97ac0ac217840d7,"Mozilla/5.0 (Macintosh; Intel Mac OS X 10_15_7) AppleWebKit/605.1.15 (KHTML, like Gecko) Version/16.6 Safari/605.1.15",Macintosh,Safari,16.6,OS X,10_15_7,https://5puzkbbxv1.cognition.run/?sona_id=55384,"en-US,en;q=0.9",40qnnygq0fwr02z,18,"[""White""]",No,Female,"England -12 years
america - 6 years",No,365715,NA,null,<p></p>,null,choice,tc,binary,attraction,NA,washing machines,null,null,null,null,null,null,2,NA,NA,NA,NA,NA,NA,NA,NA,NA,NA
NA,NA,NA,NA,NA,choice_trial,survey-html-form,71,236969,0.0-4.0-1.33,225,1,2025-05-06T02:36:10Z,b60275e29fe2361ab97ac0ac217840d7,"Mozilla/5.0 (Macintosh; Intel Mac OS X 10_15_7) AppleWebKit/605.1.15 (KHTML, like Gecko) Version/16.6 Safari/605.1.15",Macintosh,Safari,16.6,OS X,10_15_7,https://5puzkbbxv1.cognition.run/?sona_id=55384,"en-US,en;q=0.9",40qnnygq0fwr02z,18,"[""White""]",No,Female,"England -12 years
america - 6 years",No,365715,NA,3114,NA,"{""product_choice"":""A""}",choice,tc,binary,attraction,NA,washing machines,null,null,null,null,null,null,2,60,50,null,50,60,null,Average lifespan,Energy savings,NA,NA
NA,NA,NA,NA,NA,choice_trial_setup,html-keyboard-response,72,237271,0.0-4.0-0.34,225,1,2025-05-06T02:36:10Z,b60275e29fe2361ab97ac0ac217840d7,"Mozilla/5.0 (Macintosh; Intel Mac OS X 10_15_7) AppleWebKit/605.1.15 (KHTML, like Gecko) Version/16.6 Safari/605.1.15",Macintosh,Safari,16.6,OS X,10_15_7,https://5puzkbbxv1.cognition.run/?sona_id=55384,"en-US,en;q=0.9",40qnnygq0fwr02z,18,"[""White""]",No,Female,"England -12 years
america - 6 years",No,365715,NA,null,<p></p>,null,choice,tc,binary,attraction,NA,laptops,null,null,null,null,null,null,1,NA,NA,NA,NA,NA,NA,NA,NA,NA,NA
NA,NA,NA,NA,NA,choice_trial,survey-html-form,73,241632,0.0-4.0-1.34,225,1,2025-05-06T02:36:10Z,b60275e29fe2361ab97ac0ac217840d7,"Mozilla/5.0 (Macintosh; Intel Mac OS X 10_15_7) AppleWebKit/605.1.15 (KHTML, like Gecko) Version/16.6 Safari/605.1.15",Macintosh,Safari,16.6,OS X,10_15_7,https://5puzkbbxv1.cognition.run/?sona_id=55384,"en-US,en;q=0.9",40qnnygq0fwr02z,18,"[""White""]",No,Female,"England -12 years
america - 6 years",No,365715,NA,4356,NA,"{""product_choice"":""B""}",choice,tc,binary,attraction,NA,laptops,null,null,null,null,null,null,1,60,50,null,50,60,null,Processing speed,Memory (RAM),NA,NA
NA,NA,NA,NA,NA,choice_trial_setup,html-keyboard-response,74,241935,0.0-4.0-0.35,225,1,2025-05-06T02:36:10Z,b60275e29fe2361ab97ac0ac217840d7,"Mozilla/5.0 (Macintosh; Intel Mac OS X 10_15_7) AppleWebKit/605.1.15 (KHTML, like Gecko) Version/16.6 Safari/605.1.15",Macintosh,Safari,16.6,OS X,10_15_7,https://5puzkbbxv1.cognition.run/?sona_id=55384,"en-US,en;q=0.9",40qnnygq0fwr02z,18,"[""White""]",No,Female,"England -12 years
america - 6 years",No,365715,NA,null,<p></p>,null,choice,wbw,trinary,catch,null,washing machines,90,65,45,10,10,35,1,NA,NA,NA,NA,NA,NA,NA,NA,NA,NA
NA,NA,NA,NA,NA,choice_trial,survey-html-form,75,244584,0.0-4.0-1.35,225,1,2025-05-06T02:36:10Z,b60275e29fe2361ab97ac0ac217840d7,"Mozilla/5.0 (Macintosh; Intel Mac OS X 10_15_7) AppleWebKit/605.1.15 (KHTML, like Gecko) Version/16.6 Safari/605.1.15",Macintosh,Safari,16.6,OS X,10_15_7,https://5puzkbbxv1.cognition.run/?sona_id=55384,"en-US,en;q=0.9",40qnnygq0fwr02z,18,"[""White""]",No,Female,"England -12 years
america - 6 years",No,365715,NA,2644,NA,"{""product_choice"":""B""}",choice,wbw,trinary,catch,null,washing machines,90,65,45,10,10,35,1,null,null,null,null,null,null,Average lifespan,Energy savings,NA,NA
NA,NA,NA,NA,NA,choice_trial_setup,html-keyboard-response,76,244887,0.0-4.0-0.36,225,1,2025-05-06T02:36:10Z,b60275e29fe2361ab97ac0ac217840d7,"Mozilla/5.0 (Macintosh; Intel Mac OS X 10_15_7) AppleWebKit/605.1.15 (KHTML, like Gecko) Version/16.6 Safari/605.1.15",Macintosh,Safari,16.6,OS X,10_15_7,https://5puzkbbxv1.cognition.run/?sona_id=55384,"en-US,en;q=0.9",40qnnygq0fwr02z,18,"[""White""]",No,Female,"England -12 years
america - 6 years",No,365715,NA,null,<p></p>,null,choice,cdt,trinary,repulsion_A,1,washing machines,null,null,null,null,null,null,1,NA,NA,NA,NA,NA,NA,NA,NA,NA,NA
NA,NA,NA,NA,NA,choice_trial,survey-html-form,77,248182,0.0-4.0-1.36,225,1,2025-05-06T02:36:10Z,b60275e29fe2361ab97ac0ac217840d7,"Mozilla/5.0 (Macintosh; Intel Mac OS X 10_15_7) AppleWebKit/605.1.15 (KHTML, like Gecko) Version/16.6 Safari/605.1.15",Macintosh,Safari,16.6,OS X,10_15_7,https://5puzkbbxv1.cognition.run/?sona_id=55384,"en-US,en;q=0.9",40qnnygq0fwr02z,18,"[""White""]",No,Female,"England -12 years
america - 6 years",No,365715,NA,3291,NA,"{""product_choice"":""A""}",choice,cdt,trinary,repulsion_A,1,washing machines,null,null,null,null,null,null,1,100,90,100,30,40,20,Average lifespan,Energy savings,NA,NA
NA,NA,NA,NA,NA,choice_trial_setup,html-keyboard-response,78,248488,0.0-4.0-0.37,225,1,2025-05-06T02:36:10Z,b60275e29fe2361ab97ac0ac217840d7,"Mozilla/5.0 (Macintosh; Intel Mac OS X 10_15_7) AppleWebKit/605.1.15 (KHTML, like Gecko) Version/16.6 Safari/605.1.15",Macintosh,Safari,16.6,OS X,10_15_7,https://5puzkbbxv1.cognition.run/?sona_id=55384,"en-US,en;q=0.9",40qnnygq0fwr02z,18,"[""White""]",No,Female,"England -12 years
america - 6 years",No,365715,NA,null,<p></p>,null,choice,ctd,trinary,attraction,1,laptops,null,null,null,null,null,null,2,NA,NA,NA,NA,NA,NA,NA,NA,NA,NA
NA,NA,NA,NA,NA,choice_trial,survey-html-form,79,252784,0.0-4.0-1.37,225,1,2025-05-06T02:36:10Z,b60275e29fe2361ab97ac0ac217840d7,"Mozilla/5.0 (Macintosh; Intel Mac OS X 10_15_7) AppleWebKit/605.1.15 (KHTML, like Gecko) Version/16.6 Safari/605.1.15",Macintosh,Safari,16.6,OS X,10_15_7,https://5puzkbbxv1.cognition.run/?sona_id=55384,"en-US,en;q=0.9",40qnnygq0fwr02z,18,"[""White""]",No,Female,"England -12 years
america - 6 years",No,365715,NA,4290,NA,"{""product_choice"":""A""}",choice,ctd,trinary,attraction,1,laptops,null,null,null,null,null,null,2,60,50,60,50,60,40,Processing speed,Memory (RAM),NA,NA
NA,NA,NA,NA,NA,choice_trial_setup,html-keyboard-response,80,253086,0.0-4.0-0.38,225,1,2025-05-06T02:36:10Z,b60275e29fe2361ab97ac0ac217840d7,"Mozilla/5.0 (Macintosh; Intel Mac OS X 10_15_7) AppleWebKit/605.1.15 (KHTML, like Gecko) Version/16.6 Safari/605.1.15",Macintosh,Safari,16.6,OS X,10_15_7,https://5puzkbbxv1.cognition.run/?sona_id=55384,"en-US,en;q=0.9",40qnnygq0fwr02z,18,"[""White""]",No,Female,"England -12 years
america - 6 years",No,365715,NA,null,<p></p>,null,choice,dtc,trinary,attraction,1,washing machines,null,null,null,null,null,null,1,NA,NA,NA,NA,NA,NA,NA,NA,NA,NA
NA,NA,NA,NA,NA,choice_trial,survey-html-form,81,256336,0.0-4.0-1.38,225,1,2025-05-06T02:36:10Z,b60275e29fe2361ab97ac0ac217840d7,"Mozilla/5.0 (Macintosh; Intel Mac OS X 10_15_7) AppleWebKit/605.1.15 (KHTML, like Gecko) Version/16.6 Safari/605.1.15",Macintosh,Safari,16.6,OS X,10_15_7,https://5puzkbbxv1.cognition.run/?sona_id=55384,"en-US,en;q=0.9",40qnnygq0fwr02z,18,"[""White""]",No,Female,"England -12 years
america - 6 years",No,365715,NA,3245,NA,"{""product_choice"":""B""}",choice,dtc,trinary,attraction,1,washing machines,null,null,null,null,null,null,1,60,50,60,50,60,40,Average lifespan,Energy savings,NA,NA
NA,NA,NA,NA,NA,choice_trial_setup,html-keyboard-response,82,256639,0.0-4.0-0.39,225,1,2025-05-06T02:36:10Z,b60275e29fe2361ab97ac0ac217840d7,"Mozilla/5.0 (Macintosh; Intel Mac OS X 10_15_7) AppleWebKit/605.1.15 (KHTML, like Gecko) Version/16.6 Safari/605.1.15",Macintosh,Safari,16.6,OS X,10_15_7,https://5puzkbbxv1.cognition.run/?sona_id=55384,"en-US,en;q=0.9",40qnnygq0fwr02z,18,"[""White""]",No,Female,"England -12 years
america - 6 years",No,365715,NA,null,<p></p>,null,choice,wwb,trinary,catch,null,microwave ovens,70,55,10,50,20,35,2,NA,NA,NA,NA,NA,NA,NA,NA,NA,NA
NA,NA,NA,NA,NA,choice_trial,survey-html-form,83,259766,0.0-4.0-1.39,225,1,2025-05-06T02:36:10Z,b60275e29fe2361ab97ac0ac217840d7,"Mozilla/5.0 (Macintosh; Intel Mac OS X 10_15_7) AppleWebKit/605.1.15 (KHTML, like Gecko) Version/16.6 Safari/605.1.15",Macintosh,Safari,16.6,OS X,10_15_7,https://5puzkbbxv1.cognition.run/?sona_id=55384,"en-US,en;q=0.9",40qnnygq0fwr02z,18,"[""White""]",No,Female,"England -12 years
america - 6 years",No,365715,NA,3120,NA,"{""product_choice"":""C""}",choice,wwb,trinary,catch,null,microwave ovens,70,55,10,50,20,35,2,null,null,null,null,null,null,Warranty,Cooking power,NA,NA
NA,NA,NA,NA,NA,choice_trial_setup,html-keyboard-response,84,260069,0.0-4.0-0.40,225,1,2025-05-06T02:36:10Z,b60275e29fe2361ab97ac0ac217840d7,"Mozilla/5.0 (Macintosh; Intel Mac OS X 10_15_7) AppleWebKit/605.1.15 (KHTML, like Gecko) Version/16.6 Safari/605.1.15",Macintosh,Safari,16.6,OS X,10_15_7,https://5puzkbbxv1.cognition.run/?sona_id=55384,"en-US,en;q=0.9",40qnnygq0fwr02z,18,"[""White""]",No,Female,"England -12 years
america - 6 years",No,365715,NA,null,<p></p>,null,choice,tdc,trinary,attraction,2,laptops,null,null,null,null,null,null,1,NA,NA,NA,NA,NA,NA,NA,NA,NA,NA
NA,NA,NA,NA,NA,choice_trial,survey-html-form,85,263901,0.0-4.0-1.40,225,1,2025-05-06T02:36:10Z,b60275e29fe2361ab97ac0ac217840d7,"Mozilla/5.0 (Macintosh; Intel Mac OS X 10_15_7) AppleWebKit/605.1.15 (KHTML, like Gecko) Version/16.6 Safari/605.1.15",Macintosh,Safari,16.6,OS X,10_15_7,https://5puzkbbxv1.cognition.run/?sona_id=55384,"en-US,en;q=0.9",40qnnygq0fwr02z,18,"[""White""]",No,Female,"England -12 years
america - 6 years",No,365715,NA,3828,NA,"{""product_choice"":""C""}",choice,tdc,trinary,attraction,2,laptops,null,null,null,null,null,null,1,50,60,40,60,50,60,Processing speed,Memory (RAM),NA,NA
NA,NA,NA,NA,NA,choice_trial_setup,html-keyboard-response,86,264205,0.0-4.0-0.41,225,1,2025-05-06T02:36:10Z,b60275e29fe2361ab97ac0ac217840d7,"Mozilla/5.0 (Macintosh; Intel Mac OS X 10_15_7) AppleWebKit/605.1.15 (KHTML, like Gecko) Version/16.6 Safari/605.1.15",Macintosh,Safari,16.6,OS X,10_15_7,https://5puzkbbxv1.cognition.run/?sona_id=55384,"en-US,en;q=0.9",40qnnygq0fwr02z,18,"[""White""]",No,Female,"England -12 years
america - 6 years",No,365715,NA,null,<p></p>,null,choice,dtc,trinary,repulsion_B,1,microwave ovens,null,null,null,null,null,null,1,NA,NA,NA,NA,NA,NA,NA,NA,NA,NA
NA,NA,NA,NA,NA,choice_trial,survey-html-form,87,266883,0.0-4.0-1.41,225,1,2025-05-06T02:36:10Z,b60275e29fe2361ab97ac0ac217840d7,"Mozilla/5.0 (Macintosh; Intel Mac OS X 10_15_7) AppleWebKit/605.1.15 (KHTML, like Gecko) Version/16.6 Safari/605.1.15",Macintosh,Safari,16.6,OS X,10_15_7,https://5puzkbbxv1.cognition.run/?sona_id=55384,"en-US,en;q=0.9",40qnnygq0fwr02z,18,"[""White""]",No,Female,"England -12 years
america - 6 years",No,365715,NA,2674,NA,"{""product_choice"":""B""}",choice,dtc,trinary,repulsion_B,1,microwave ovens,null,null,null,null,null,null,1,90,100,80,40,30,40,Warranty,Cooking power,NA,NA
NA,NA,NA,NA,NA,choice_trial_setup,html-keyboard-response,88,267187,0.0-4.0-0.42,225,1,2025-05-06T02:36:10Z,b60275e29fe2361ab97ac0ac217840d7,"Mozilla/5.0 (Macintosh; Intel Mac OS X 10_15_7) AppleWebKit/605.1.15 (KHTML, like Gecko) Version/16.6 Safari/605.1.15",Macintosh,Safari,16.6,OS X,10_15_7,https://5puzkbbxv1.cognition.run/?sona_id=55384,"en-US,en;q=0.9",40qnnygq0fwr02z,18,"[""White""]",No,Female,"England -12 years
america - 6 years",No,365715,NA,null,<p></p>,null,choice,tdc,trinary,repulsion_A,2,microwave ovens,null,null,null,null,null,null,2,NA,NA,NA,NA,NA,NA,NA,NA,NA,NA
NA,NA,NA,NA,NA,choice_trial,survey-html-form,89,269664,0.0-4.0-1.42,225,1,2025-05-06T02:36:10Z,b60275e29fe2361ab97ac0ac217840d7,"Mozilla/5.0 (Macintosh; Intel Mac OS X 10_15_7) AppleWebKit/605.1.15 (KHTML, like Gecko) Version/16.6 Safari/605.1.15",Macintosh,Safari,16.6,OS X,10_15_7,https://5puzkbbxv1.cognition.run/?sona_id=55384,"en-US,en;q=0.9",40qnnygq0fwr02z,18,"[""White""]",No,Female,"England -12 years
america - 6 years",No,365715,NA,2471,NA,"{""product_choice"":""C""}",choice,tdc,trinary,repulsion_A,2,microwave ovens,null,null,null,null,null,null,2,30,40,20,100,90,100,Warranty,Cooking power,NA,NA
NA,NA,NA,NA,NA,choice_trial_setup,html-keyboard-response,90,269967,0.0-4.0-0.43,225,1,2025-05-06T02:36:10Z,b60275e29fe2361ab97ac0ac217840d7,"Mozilla/5.0 (Macintosh; Intel Mac OS X 10_15_7) AppleWebKit/605.1.15 (KHTML, like Gecko) Version/16.6 Safari/605.1.15",Macintosh,Safari,16.6,OS X,10_15_7,https://5puzkbbxv1.cognition.run/?sona_id=55384,"en-US,en;q=0.9",40qnnygq0fwr02z,18,"[""White""]",No,Female,"England -12 years
america - 6 years",No,365715,NA,null,<p></p>,null,choice,tc,binary,attraction,NA,televisions,null,null,null,null,null,null,2,NA,NA,NA,NA,NA,NA,NA,NA,NA,NA
NA,NA,NA,NA,NA,choice_trial,survey-html-form,91,272399,0.0-4.0-1.43,225,1,2025-05-06T02:36:10Z,b60275e29fe2361ab97ac0ac217840d7,"Mozilla/5.0 (Macintosh; Intel Mac OS X 10_15_7) AppleWebKit/605.1.15 (KHTML, like Gecko) Version/16.6 Safari/605.1.15",Macintosh,Safari,16.6,OS X,10_15_7,https://5puzkbbxv1.cognition.run/?sona_id=55384,"en-US,en;q=0.9",40qnnygq0fwr02z,18,"[""White""]",No,Female,"England -12 years
america - 6 years",No,365715,NA,2429,NA,"{""product_choice"":""B""}",choice,tc,binary,attraction,NA,televisions,null,null,null,null,null,null,2,60,50,null,50,60,null,Screen size,Average lifespan,NA,NA
NA,NA,NA,NA,NA,post_trials_message,html-button-response,92,273998,0.0-5.0,225,1,2025-05-06T02:36:10Z,b60275e29fe2361ab97ac0ac217840d7,"Mozilla/5.0 (Macintosh; Intel Mac OS X 10_15_7) AppleWebKit/605.1.15 (KHTML, like Gecko) Version/16.6 Safari/605.1.15",Macintosh,Safari,16.6,OS X,10_15_7,https://5puzkbbxv1.cognition.run/?sona_id=55384,"en-US,en;q=0.9",40qnnygq0fwr02z,18,"[""White""]",No,Female,"England -12 years
america - 6 years",No,365715,NA,1594,<p> <b>Thank you for your patience!</b></p><p>  The study will be done after completing a brief form. </p>,0,NA,NA,NA,NA,NA,NA,NA,NA,NA,NA,NA,NA,NA,NA,NA,NA,NA,NA,NA,NA,NA,NA,NA
NA,NA,NA,NA,NA,survey_message,survey-text,93,317251,0.0-6.0,225,1,2025-05-06T02:36:10Z,b60275e29fe2361ab97ac0ac217840d7,"Mozilla/5.0 (Macintosh; Intel Mac OS X 10_15_7) AppleWebKit/605.1.15 (KHTML, like Gecko) Version/16.6 Safari/605.1.15",Macintosh,Safari,16.6,OS X,10_15_7,https://5puzkbbxv1.cognition.run/?sona_id=55384,"en-US,en;q=0.9",40qnnygq0fwr02z,18,"[""White""]",No,Female,"England -12 years
america - 6 years",No,365715,NA,43237,NA,"{""Q0"":""I looked at the numbers and picked the one with both numbers higher than the others, so both categories would be high""}",NA,NA,NA,NA,NA,NA,NA,NA,NA,NA,NA,NA,NA,NA,NA,NA,NA,NA,NA,NA,NA,"I looked at the numbers and picked the one with both numbers higher than the others, so both categories would be high",NA
NA,NA,NA,NA,NA,demo_age,survey-text,94,320830,0.0-7.0,225,1,2025-05-06T02:36:10Z,b60275e29fe2361ab97ac0ac217840d7,"Mozilla/5.0 (Macintosh; Intel Mac OS X 10_15_7) AppleWebKit/605.1.15 (KHTML, like Gecko) Version/16.6 Safari/605.1.15",Macintosh,Safari,16.6,OS X,10_15_7,https://5puzkbbxv1.cognition.run/?sona_id=55384,"en-US,en;q=0.9",40qnnygq0fwr02z,18,"[""White""]",No,Female,"England -12 years
america - 6 years",No,365715,NA,3572,NA,"{""Q0"":""18""}",NA,NA,NA,NA,NA,NA,NA,NA,NA,NA,NA,NA,NA,NA,NA,NA,NA,NA,NA,NA,NA,NA,NA
NA,NA,NA,NA,NA,demo_race,survey-multi-select,95,324581,0.0-8.0,225,1,2025-05-06T02:36:10Z,b60275e29fe2361ab97ac0ac217840d7,"Mozilla/5.0 (Macintosh; Intel Mac OS X 10_15_7) AppleWebKit/605.1.15 (KHTML, like Gecko) Version/16.6 Safari/605.1.15",Macintosh,Safari,16.6,OS X,10_15_7,https://5puzkbbxv1.cognition.run/?sona_id=55384,"en-US,en;q=0.9",40qnnygq0fwr02z,18,"[""White""]",No,Female,"England -12 years
america - 6 years",No,365715,NA,3747,NA,"{""Q0"":[""White""]}",NA,NA,NA,NA,NA,NA,NA,NA,NA,NA,NA,NA,NA,NA,NA,NA,NA,NA,NA,NA,NA,NA,[0]
NA,NA,NA,NA,NA,demo_ethnicity_gender,survey-multi-choice,96,328334,0.0-9.0,225,1,2025-05-06T02:36:10Z,b60275e29fe2361ab97ac0ac217840d7,"Mozilla/5.0 (Macintosh; Intel Mac OS X 10_15_7) AppleWebKit/605.1.15 (KHTML, like Gecko) Version/16.6 Safari/605.1.15",Macintosh,Safari,16.6,OS X,10_15_7,https://5puzkbbxv1.cognition.run/?sona_id=55384,"en-US,en;q=0.9",40qnnygq0fwr02z,18,"[""White""]",No,Female,"England -12 years
america - 6 years",No,365715,NA,3750,NA,"{""Q0"":""No"",""Q1"":""Female""}",NA,NA,NA,NA,NA,NA,NA,NA,NA,NA,NA,NA,NA,NA,NA,NA,NA,NA,NA,NA,NA,NA,"[0,1]"
NA,NA,NA,NA,NA,demo_countries,survey-text,97,350690,0.0-10.0,225,1,2025-05-06T02:36:10Z,b60275e29fe2361ab97ac0ac217840d7,"Mozilla/5.0 (Macintosh; Intel Mac OS X 10_15_7) AppleWebKit/605.1.15 (KHTML, like Gecko) Version/16.6 Safari/605.1.15",Macintosh,Safari,16.6,OS X,10_15_7,https://5puzkbbxv1.cognition.run/?sona_id=55384,"en-US,en;q=0.9",40qnnygq0fwr02z,18,"[""White""]",No,Female,"England -12 years
america - 6 years",No,365715,NA,22351,NA,"{""Q0"":""England -12 years\namerica - 6 years""}",NA,NA,NA,NA,NA,NA,NA,NA,NA,NA,NA,NA,NA,NA,NA,NA,NA,NA,NA,NA,NA,NA,NA
NA,NA,NA,NA,NA,demo_prev_study,survey-multi-choice,98,357283,0.0-11.0,225,1,2025-05-06T02:36:10Z,b60275e29fe2361ab97ac0ac217840d7,"Mozilla/5.0 (Macintosh; Intel Mac OS X 10_15_7) AppleWebKit/605.1.15 (KHTML, like Gecko) Version/16.6 Safari/605.1.15",Macintosh,Safari,16.6,OS X,10_15_7,https://5puzkbbxv1.cognition.run/?sona_id=55384,"en-US,en;q=0.9",40qnnygq0fwr02z,18,"[""White""]",No,Female,"England -12 years
america - 6 years",No,365715,NA,6590,NA,"{""Q0"":""No""}",NA,NA,NA,NA,NA,NA,NA,NA,NA,NA,NA,NA,NA,NA,NA,NA,NA,NA,NA,NA,NA,NA,[0]
NA,NA,NA,NA,NA,post_survey_message,html-keyboard-response,99,362554,0.0-12.0,225,1,2025-05-06T02:36:10Z,b60275e29fe2361ab97ac0ac217840d7,"Mozilla/5.0 (Macintosh; Intel Mac OS X 10_15_7) AppleWebKit/605.1.15 (KHTML, like Gecko) Version/16.6 Safari/605.1.15",Macintosh,Safari,16.6,OS X,10_15_7,https://5puzkbbxv1.cognition.run/?sona_id=55384,"en-US,en;q=0.9",40qnnygq0fwr02z,18,"[""White""]",No,Female,"England -12 years
america - 6 years",No,365715,NA,5265,NA,j,NA,NA,NA,NA,NA,NA,NA,NA,NA,NA,NA,NA,NA,NA,NA,NA,NA,NA,NA,NA,NA,NA,NA
NA,NA,NA,NA,NA,debrief,image-keyboard-response,100,365702,0.0-13.0,225,1,2025-05-06T02:36:10Z,b60275e29fe2361ab97ac0ac217840d7,"Mozilla/5.0 (Macintosh; Intel Mac OS X 10_15_7) AppleWebKit/605.1.15 (KHTML, like Gecko) Version/16.6 Safari/605.1.15",Macintosh,Safari,16.6,OS X,10_15_7,https://5puzkbbxv1.cognition.run/?sona_id=55384,"en-US,en;q=0.9",40qnnygq0fwr02z,18,"[""White""]",No,Female,"England -12 years
america - 6 years",No,365715,NA,3106,Judg_choice_debrief.png,p,NA,NA,NA,NA,NA,NA,NA,NA,NA,NA,NA,NA,NA,NA,NA,NA,NA,NA,NA,NA,NA,NA,NA
