success,timeout,failed_images,failed_audio,failed_video,screen_id,trial_type,trial_index,time_elapsed,internal_node_id,run_id,condition,recorded_at,source_code_version,user_agent,device,browser,browser_version,platform,platform_version,referer,accept_language,ppt_id,age,race,ethnicity,gender,other_countries,prev_study,exp_duration,view_history,rt,stimulus,response,phase,order,set,effect,t_high,category,d1_best,d2_best,d1_worst1,d2_worst1,d1_worst2,d2_worst2,first_dim,d1_t,d1_c,d1_d,d2_t,d2_c,d2_d,d1_name,d2_name,strategy_response,question_order
TRUE,FALSE,[],[],[],img preload,preload,0,307,0.0-0.0,226,1,2025-05-06T02:45:31Z,b60275e29fe2361ab97ac0ac217840d7,"Mozilla/5.0 (Macintosh; Intel Mac OS X 10_15_7) AppleWebKit/537.36 (KHTML, like Gecko) Chrome/135.0.0.0 Safari/537.36",Macintosh,Chrome,135.0.0.0,OS X,10_15_7,https://5puzkbbxv1.cognition.run/?sona_id=58249,"en-US,en;q=0.9",ldutrfafmo6mp8p,20,"[""White""]",No,Female,NA,No,1331147.6000000238,NA,NA,NA,NA,NA,NA,NA,NA,NA,NA,NA,NA,NA,NA,NA,NA,NA,NA,NA,NA,NA,NA,NA,NA,NA,NA,NA
NA,NA,NA,NA,NA,computer_message,instructions,1,197304,0.0-1.0,226,1,2025-05-06T02:45:31Z,b60275e29fe2361ab97ac0ac217840d7,"Mozilla/5.0 (Macintosh; Intel Mac OS X 10_15_7) AppleWebKit/537.36 (KHTML, like Gecko) Chrome/135.0.0.0 Safari/537.36",Macintosh,Chrome,135.0.0.0,OS X,10_15_7,https://5puzkbbxv1.cognition.run/?sona_id=58249,"en-US,en;q=0.9",ldutrfafmo6mp8p,20,"[""White""]",No,Female,NA,No,1331147.6000000238,"[{""page_index"":0,""viewing_time"":196989}]",196990,NA,NA,NA,NA,NA,NA,NA,NA,NA,NA,NA,NA,NA,NA,NA,NA,NA,NA,NA,NA,NA,NA,NA,NA,NA
TRUE,NA,NA,NA,NA,NA,fullscreen,2,201927,0.0-2.0,226,1,2025-05-06T02:45:31Z,b60275e29fe2361ab97ac0ac217840d7,"Mozilla/5.0 (Macintosh; Intel Mac OS X 10_15_7) AppleWebKit/537.36 (KHTML, like Gecko) Chrome/135.0.0.0 Safari/537.36",Macintosh,Chrome,135.0.0.0,OS X,10_15_7,https://5puzkbbxv1.cognition.run/?sona_id=58249,"en-US,en;q=0.9",ldutrfafmo6mp8p,20,"[""White""]",No,Female,NA,No,1331147.6000000238,NA,3619,NA,NA,NA,NA,NA,NA,NA,NA,NA,NA,NA,NA,NA,NA,NA,NA,NA,NA,NA,NA,NA,NA,NA,NA,NA
NA,NA,NA,NA,NA,choice_instructions,instructions,3,604390,0.0-3.0,226,1,2025-05-06T02:45:31Z,b60275e29fe2361ab97ac0ac217840d7,"Mozilla/5.0 (Macintosh; Intel Mac OS X 10_15_7) AppleWebKit/537.36 (KHTML, like Gecko) Chrome/135.0.0.0 Safari/537.36",Macintosh,Chrome,135.0.0.0,OS X,10_15_7,https://5puzkbbxv1.cognition.run/?sona_id=58249,"en-US,en;q=0.9",ldutrfafmo6mp8p,20,"[""White""]",No,Female,NA,No,1331147.6000000238,"[{""page_index"":0,""viewing_time"":2576},{""page_index"":1,""viewing_time"":165098},{""page_index"":2,""viewing_time"":24093},{""page_index"":3,""viewing_time"":10199},{""page_index"":4,""viewing_time"":6289},{""page_index"":5,""viewing_time"":23124},{""page_index"":6,""viewing_time"":171072}]",402450,NA,NA,NA,NA,NA,NA,NA,NA,NA,NA,NA,NA,NA,NA,NA,NA,NA,NA,NA,NA,NA,NA,NA,NA,NA
NA,NA,NA,NA,NA,choice_trial_setup,html-keyboard-response,4,604693,0.0-4.0-0.0,226,1,2025-05-06T02:45:31Z,b60275e29fe2361ab97ac0ac217840d7,"Mozilla/5.0 (Macintosh; Intel Mac OS X 10_15_7) AppleWebKit/537.36 (KHTML, like Gecko) Chrome/135.0.0.0 Safari/537.36",Macintosh,Chrome,135.0.0.0,OS X,10_15_7,https://5puzkbbxv1.cognition.run/?sona_id=58249,"en-US,en;q=0.9",ldutrfafmo6mp8p,20,"[""White""]",No,Female,NA,No,1331147.6000000238,NA,null,<p></p>,null,choice,tcd,trinary,repulsion_B,1,microwave ovens,null,null,null,null,null,null,2,NA,NA,NA,NA,NA,NA,NA,NA,NA,NA
NA,NA,NA,NA,NA,choice_trial,survey-html-form,5,621238,0.0-4.0-1.0,226,1,2025-05-06T02:45:31Z,b60275e29fe2361ab97ac0ac217840d7,"Mozilla/5.0 (Macintosh; Intel Mac OS X 10_15_7) AppleWebKit/537.36 (KHTML, like Gecko) Chrome/135.0.0.0 Safari/537.36",Macintosh,Chrome,135.0.0.0,OS X,10_15_7,https://5puzkbbxv1.cognition.run/?sona_id=58249,"en-US,en;q=0.9",ldutrfafmo6mp8p,20,"[""White""]",No,Female,NA,No,1331147.6000000238,NA,16541,NA,"{""product_choice"":""A""}",choice,tcd,trinary,repulsion_B,1,microwave ovens,null,null,null,null,null,null,2,90,100,80,40,30,40,Warranty,Cooking power,NA,NA
NA,NA,NA,NA,NA,choice_trial_setup,html-keyboard-response,6,621541,0.0-4.0-0.1,226,1,2025-05-06T02:45:31Z,b60275e29fe2361ab97ac0ac217840d7,"Mozilla/5.0 (Macintosh; Intel Mac OS X 10_15_7) AppleWebKit/537.36 (KHTML, like Gecko) Chrome/135.0.0.0 Safari/537.36",Macintosh,Chrome,135.0.0.0,OS X,10_15_7,https://5puzkbbxv1.cognition.run/?sona_id=58249,"en-US,en;q=0.9",ldutrfafmo6mp8p,20,"[""White""]",No,Female,NA,No,1331147.6000000238,NA,null,<p></p>,null,choice,tdc,trinary,attraction,1,washing machines,null,null,null,null,null,null,1,NA,NA,NA,NA,NA,NA,NA,NA,NA,NA
NA,NA,NA,NA,NA,choice_trial,survey-html-form,7,634762,0.0-4.0-1.1,226,1,2025-05-06T02:45:31Z,b60275e29fe2361ab97ac0ac217840d7,"Mozilla/5.0 (Macintosh; Intel Mac OS X 10_15_7) AppleWebKit/537.36 (KHTML, like Gecko) Chrome/135.0.0.0 Safari/537.36",Macintosh,Chrome,135.0.0.0,OS X,10_15_7,https://5puzkbbxv1.cognition.run/?sona_id=58249,"en-US,en;q=0.9",ldutrfafmo6mp8p,20,"[""White""]",No,Female,NA,No,1331147.6000000238,NA,13219,NA,"{""product_choice"":""B""}",choice,tdc,trinary,attraction,1,washing machines,null,null,null,null,null,null,1,60,50,60,50,60,40,Average lifespan,Energy savings,NA,NA
NA,NA,NA,NA,NA,choice_trial_setup,html-keyboard-response,8,635065,0.0-4.0-0.2,226,1,2025-05-06T02:45:31Z,b60275e29fe2361ab97ac0ac217840d7,"Mozilla/5.0 (Macintosh; Intel Mac OS X 10_15_7) AppleWebKit/537.36 (KHTML, like Gecko) Chrome/135.0.0.0 Safari/537.36",Macintosh,Chrome,135.0.0.0,OS X,10_15_7,https://5puzkbbxv1.cognition.run/?sona_id=58249,"en-US,en;q=0.9",ldutrfafmo6mp8p,20,"[""White""]",No,Female,NA,No,1331147.6000000238,NA,null,<p></p>,null,choice,dtc,trinary,attraction,2,washing machines,null,null,null,null,null,null,2,NA,NA,NA,NA,NA,NA,NA,NA,NA,NA
NA,NA,NA,NA,NA,choice_trial,survey-html-form,9,645603,0.0-4.0-1.2,226,1,2025-05-06T02:45:31Z,b60275e29fe2361ab97ac0ac217840d7,"Mozilla/5.0 (Macintosh; Intel Mac OS X 10_15_7) AppleWebKit/537.36 (KHTML, like Gecko) Chrome/135.0.0.0 Safari/537.36",Macintosh,Chrome,135.0.0.0,OS X,10_15_7,https://5puzkbbxv1.cognition.run/?sona_id=58249,"en-US,en;q=0.9",ldutrfafmo6mp8p,20,"[""White""]",No,Female,NA,No,1331147.6000000238,NA,10535,NA,"{""product_choice"":""A""}",choice,dtc,trinary,attraction,2,washing machines,null,null,null,null,null,null,2,50,60,40,60,50,60,Average lifespan,Energy savings,NA,NA
NA,NA,NA,NA,NA,choice_trial_setup,html-keyboard-response,10,645906,0.0-4.0-0.3,226,1,2025-05-06T02:45:31Z,b60275e29fe2361ab97ac0ac217840d7,"Mozilla/5.0 (Macintosh; Intel Mac OS X 10_15_7) AppleWebKit/537.36 (KHTML, like Gecko) Chrome/135.0.0.0 Safari/537.36",Macintosh,Chrome,135.0.0.0,OS X,10_15_7,https://5puzkbbxv1.cognition.run/?sona_id=58249,"en-US,en;q=0.9",ldutrfafmo6mp8p,20,"[""White""]",No,Female,NA,No,1331147.6000000238,NA,null,<p></p>,null,choice,dct,trinary,repulsion_B,1,washing machines,null,null,null,null,null,null,1,NA,NA,NA,NA,NA,NA,NA,NA,NA,NA
NA,NA,NA,NA,NA,choice_trial,survey-html-form,11,656967,0.0-4.0-1.3,226,1,2025-05-06T02:45:31Z,b60275e29fe2361ab97ac0ac217840d7,"Mozilla/5.0 (Macintosh; Intel Mac OS X 10_15_7) AppleWebKit/537.36 (KHTML, like Gecko) Chrome/135.0.0.0 Safari/537.36",Macintosh,Chrome,135.0.0.0,OS X,10_15_7,https://5puzkbbxv1.cognition.run/?sona_id=58249,"en-US,en;q=0.9",ldutrfafmo6mp8p,20,"[""White""]",No,Female,NA,No,1331147.6000000238,NA,11058,NA,"{""product_choice"":""C""}",choice,dct,trinary,repulsion_B,1,washing machines,null,null,null,null,null,null,1,90,100,80,40,30,40,Average lifespan,Energy savings,NA,NA
NA,NA,NA,NA,NA,choice_trial_setup,html-keyboard-response,12,657269,0.0-4.0-0.4,226,1,2025-05-06T02:45:31Z,b60275e29fe2361ab97ac0ac217840d7,"Mozilla/5.0 (Macintosh; Intel Mac OS X 10_15_7) AppleWebKit/537.36 (KHTML, like Gecko) Chrome/135.0.0.0 Safari/537.36",Macintosh,Chrome,135.0.0.0,OS X,10_15_7,https://5puzkbbxv1.cognition.run/?sona_id=58249,"en-US,en;q=0.9",ldutrfafmo6mp8p,20,"[""White""]",No,Female,NA,No,1331147.6000000238,NA,null,<p></p>,null,choice,bw,binary,catch,null,washing machines,60,95,25,30,null,null,1,NA,NA,NA,NA,NA,NA,NA,NA,NA,NA
NA,NA,NA,NA,NA,choice_trial,survey-html-form,13,663515,0.0-4.0-1.4,226,1,2025-05-06T02:45:31Z,b60275e29fe2361ab97ac0ac217840d7,"Mozilla/5.0 (Macintosh; Intel Mac OS X 10_15_7) AppleWebKit/537.36 (KHTML, like Gecko) Chrome/135.0.0.0 Safari/537.36",Macintosh,Chrome,135.0.0.0,OS X,10_15_7,https://5puzkbbxv1.cognition.run/?sona_id=58249,"en-US,en;q=0.9",ldutrfafmo6mp8p,20,"[""White""]",No,Female,NA,No,1331147.6000000238,NA,6243,NA,"{""product_choice"":""A""}",choice,bw,binary,catch,null,washing machines,60,95,25,30,null,null,1,null,null,null,null,null,null,Average lifespan,Energy savings,NA,NA
NA,NA,NA,NA,NA,choice_trial_setup,html-keyboard-response,14,663817,0.0-4.0-0.5,226,1,2025-05-06T02:45:31Z,b60275e29fe2361ab97ac0ac217840d7,"Mozilla/5.0 (Macintosh; Intel Mac OS X 10_15_7) AppleWebKit/537.36 (KHTML, like Gecko) Chrome/135.0.0.0 Safari/537.36",Macintosh,Chrome,135.0.0.0,OS X,10_15_7,https://5puzkbbxv1.cognition.run/?sona_id=58249,"en-US,en;q=0.9",ldutrfafmo6mp8p,20,"[""White""]",No,Female,NA,No,1331147.6000000238,NA,null,<p></p>,null,choice,ct,binary,attraction,NA,laptops,null,null,null,null,null,null,2,NA,NA,NA,NA,NA,NA,NA,NA,NA,NA
NA,NA,NA,NA,NA,choice_trial,survey-html-form,15,690707,0.0-4.0-1.5,226,1,2025-05-06T02:45:31Z,b60275e29fe2361ab97ac0ac217840d7,"Mozilla/5.0 (Macintosh; Intel Mac OS X 10_15_7) AppleWebKit/537.36 (KHTML, like Gecko) Chrome/135.0.0.0 Safari/537.36",Macintosh,Chrome,135.0.0.0,OS X,10_15_7,https://5puzkbbxv1.cognition.run/?sona_id=58249,"en-US,en;q=0.9",ldutrfafmo6mp8p,20,"[""White""]",No,Female,NA,No,1331147.6000000238,NA,26887,NA,"{""product_choice"":""B""}",choice,ct,binary,attraction,NA,laptops,null,null,null,null,null,null,2,60,50,null,50,60,null,Processing speed,Memory (RAM),NA,NA
NA,NA,NA,NA,NA,choice_trial_setup,html-keyboard-response,16,691011,0.0-4.0-0.6,226,1,2025-05-06T02:45:31Z,b60275e29fe2361ab97ac0ac217840d7,"Mozilla/5.0 (Macintosh; Intel Mac OS X 10_15_7) AppleWebKit/537.36 (KHTML, like Gecko) Chrome/135.0.0.0 Safari/537.36",Macintosh,Chrome,135.0.0.0,OS X,10_15_7,https://5puzkbbxv1.cognition.run/?sona_id=58249,"en-US,en;q=0.9",ldutrfafmo6mp8p,20,"[""White""]",No,Female,NA,No,1331147.6000000238,NA,null,<p></p>,null,choice,ctd,trinary,repulsion_B,1,laptops,null,null,null,null,null,null,1,NA,NA,NA,NA,NA,NA,NA,NA,NA,NA
NA,NA,NA,NA,NA,choice_trial,survey-html-form,17,702152,0.0-4.0-1.6,226,1,2025-05-06T02:45:31Z,b60275e29fe2361ab97ac0ac217840d7,"Mozilla/5.0 (Macintosh; Intel Mac OS X 10_15_7) AppleWebKit/537.36 (KHTML, like Gecko) Chrome/135.0.0.0 Safari/537.36",Macintosh,Chrome,135.0.0.0,OS X,10_15_7,https://5puzkbbxv1.cognition.run/?sona_id=58249,"en-US,en;q=0.9",ldutrfafmo6mp8p,20,"[""White""]",No,Female,NA,No,1331147.6000000238,NA,11138,NA,"{""product_choice"":""A""}",choice,ctd,trinary,repulsion_B,1,laptops,null,null,null,null,null,null,1,90,100,80,40,30,40,Processing speed,Memory (RAM),NA,NA
NA,NA,NA,NA,NA,choice_trial_setup,html-keyboard-response,18,702455,0.0-4.0-0.7,226,1,2025-05-06T02:45:31Z,b60275e29fe2361ab97ac0ac217840d7,"Mozilla/5.0 (Macintosh; Intel Mac OS X 10_15_7) AppleWebKit/537.36 (KHTML, like Gecko) Chrome/135.0.0.0 Safari/537.36",Macintosh,Chrome,135.0.0.0,OS X,10_15_7,https://5puzkbbxv1.cognition.run/?sona_id=58249,"en-US,en;q=0.9",ldutrfafmo6mp8p,20,"[""White""]",No,Female,NA,No,1331147.6000000238,NA,null,<p></p>,null,choice,wwb,trinary,catch,null,microwave ovens,90,65,30,40,45,5,2,NA,NA,NA,NA,NA,NA,NA,NA,NA,NA
NA,NA,NA,NA,NA,choice_trial,survey-html-form,19,710186,0.0-4.0-1.7,226,1,2025-05-06T02:45:31Z,b60275e29fe2361ab97ac0ac217840d7,"Mozilla/5.0 (Macintosh; Intel Mac OS X 10_15_7) AppleWebKit/537.36 (KHTML, like Gecko) Chrome/135.0.0.0 Safari/537.36",Macintosh,Chrome,135.0.0.0,OS X,10_15_7,https://5puzkbbxv1.cognition.run/?sona_id=58249,"en-US,en;q=0.9",ldutrfafmo6mp8p,20,"[""White""]",No,Female,NA,No,1331147.6000000238,NA,7728,NA,"{""product_choice"":""C""}",choice,wwb,trinary,catch,null,microwave ovens,90,65,30,40,45,5,2,null,null,null,null,null,null,Warranty,Cooking power,NA,NA
NA,NA,NA,NA,NA,choice_trial_setup,html-keyboard-response,20,710488,0.0-4.0-0.8,226,1,2025-05-06T02:45:31Z,b60275e29fe2361ab97ac0ac217840d7,"Mozilla/5.0 (Macintosh; Intel Mac OS X 10_15_7) AppleWebKit/537.36 (KHTML, like Gecko) Chrome/135.0.0.0 Safari/537.36",Macintosh,Chrome,135.0.0.0,OS X,10_15_7,https://5puzkbbxv1.cognition.run/?sona_id=58249,"en-US,en;q=0.9",ldutrfafmo6mp8p,20,"[""White""]",No,Female,NA,No,1331147.6000000238,NA,null,<p></p>,null,choice,dct,trinary,repulsion_B,2,televisions,null,null,null,null,null,null,2,NA,NA,NA,NA,NA,NA,NA,NA,NA,NA
NA,NA,NA,NA,NA,choice_trial,survey-html-form,21,721949,0.0-4.0-1.8,226,1,2025-05-06T02:45:31Z,b60275e29fe2361ab97ac0ac217840d7,"Mozilla/5.0 (Macintosh; Intel Mac OS X 10_15_7) AppleWebKit/537.36 (KHTML, like Gecko) Chrome/135.0.0.0 Safari/537.36",Macintosh,Chrome,135.0.0.0,OS X,10_15_7,https://5puzkbbxv1.cognition.run/?sona_id=58249,"en-US,en;q=0.9",ldutrfafmo6mp8p,20,"[""White""]",No,Female,NA,No,1331147.6000000238,NA,11459,NA,"{""product_choice"":""B""}",choice,dct,trinary,repulsion_B,2,televisions,null,null,null,null,null,null,2,40,30,40,90,100,80,Screen size,Average lifespan,NA,NA
NA,NA,NA,NA,NA,choice_trial_setup,html-keyboard-response,22,722253,0.0-4.0-0.9,226,1,2025-05-06T02:45:31Z,b60275e29fe2361ab97ac0ac217840d7,"Mozilla/5.0 (Macintosh; Intel Mac OS X 10_15_7) AppleWebKit/537.36 (KHTML, like Gecko) Chrome/135.0.0.0 Safari/537.36",Macintosh,Chrome,135.0.0.0,OS X,10_15_7,https://5puzkbbxv1.cognition.run/?sona_id=58249,"en-US,en;q=0.9",ldutrfafmo6mp8p,20,"[""White""]",No,Female,NA,No,1331147.6000000238,NA,null,<p></p>,null,choice,dtc,trinary,repulsion_A,1,televisions,null,null,null,null,null,null,1,NA,NA,NA,NA,NA,NA,NA,NA,NA,NA
NA,NA,NA,NA,NA,choice_trial,survey-html-form,23,733490,0.0-4.0-1.9,226,1,2025-05-06T02:45:31Z,b60275e29fe2361ab97ac0ac217840d7,"Mozilla/5.0 (Macintosh; Intel Mac OS X 10_15_7) AppleWebKit/537.36 (KHTML, like Gecko) Chrome/135.0.0.0 Safari/537.36",Macintosh,Chrome,135.0.0.0,OS X,10_15_7,https://5puzkbbxv1.cognition.run/?sona_id=58249,"en-US,en;q=0.9",ldutrfafmo6mp8p,20,"[""White""]",No,Female,NA,No,1331147.6000000238,NA,11235,NA,"{""product_choice"":""C""}",choice,dtc,trinary,repulsion_A,1,televisions,null,null,null,null,null,null,1,100,90,100,30,40,20,Screen size,Average lifespan,NA,NA
NA,NA,NA,NA,NA,choice_trial_setup,html-keyboard-response,24,733793,0.0-4.0-0.10,226,1,2025-05-06T02:45:31Z,b60275e29fe2361ab97ac0ac217840d7,"Mozilla/5.0 (Macintosh; Intel Mac OS X 10_15_7) AppleWebKit/537.36 (KHTML, like Gecko) Chrome/135.0.0.0 Safari/537.36",Macintosh,Chrome,135.0.0.0,OS X,10_15_7,https://5puzkbbxv1.cognition.run/?sona_id=58249,"en-US,en;q=0.9",ldutrfafmo6mp8p,20,"[""White""]",No,Female,NA,No,1331147.6000000238,NA,null,<p></p>,null,choice,bw,binary,catch,null,televisions,70,75,20,35,null,null,1,NA,NA,NA,NA,NA,NA,NA,NA,NA,NA
NA,NA,NA,NA,NA,choice_trial,survey-html-form,25,740235,0.0-4.0-1.10,226,1,2025-05-06T02:45:31Z,b60275e29fe2361ab97ac0ac217840d7,"Mozilla/5.0 (Macintosh; Intel Mac OS X 10_15_7) AppleWebKit/537.36 (KHTML, like Gecko) Chrome/135.0.0.0 Safari/537.36",Macintosh,Chrome,135.0.0.0,OS X,10_15_7,https://5puzkbbxv1.cognition.run/?sona_id=58249,"en-US,en;q=0.9",ldutrfafmo6mp8p,20,"[""White""]",No,Female,NA,No,1331147.6000000238,NA,6437,NA,"{""product_choice"":""A""}",choice,bw,binary,catch,null,televisions,70,75,20,35,null,null,1,null,null,null,null,null,null,Screen size,Average lifespan,NA,NA
NA,NA,NA,NA,NA,choice_trial_setup,html-keyboard-response,26,740538,0.0-4.0-0.11,226,1,2025-05-06T02:45:31Z,b60275e29fe2361ab97ac0ac217840d7,"Mozilla/5.0 (Macintosh; Intel Mac OS X 10_15_7) AppleWebKit/537.36 (KHTML, like Gecko) Chrome/135.0.0.0 Safari/537.36",Macintosh,Chrome,135.0.0.0,OS X,10_15_7,https://5puzkbbxv1.cognition.run/?sona_id=58249,"en-US,en;q=0.9",ldutrfafmo6mp8p,20,"[""White""]",No,Female,NA,No,1331147.6000000238,NA,null,<p></p>,null,choice,wb,binary,catch,null,microwave ovens,60,95,50,5,null,null,1,NA,NA,NA,NA,NA,NA,NA,NA,NA,NA
NA,NA,NA,NA,NA,choice_trial,survey-html-form,27,753314,0.0-4.0-1.11,226,1,2025-05-06T02:45:31Z,b60275e29fe2361ab97ac0ac217840d7,"Mozilla/5.0 (Macintosh; Intel Mac OS X 10_15_7) AppleWebKit/537.36 (KHTML, like Gecko) Chrome/135.0.0.0 Safari/537.36",Macintosh,Chrome,135.0.0.0,OS X,10_15_7,https://5puzkbbxv1.cognition.run/?sona_id=58249,"en-US,en;q=0.9",ldutrfafmo6mp8p,20,"[""White""]",No,Female,NA,No,1331147.6000000238,NA,12773,NA,"{""product_choice"":""B""}",choice,wb,binary,catch,null,microwave ovens,60,95,50,5,null,null,1,null,null,null,null,null,null,Warranty,Cooking power,NA,NA
NA,NA,NA,NA,NA,choice_trial_setup,html-keyboard-response,28,753617,0.0-4.0-0.12,226,1,2025-05-06T02:45:31Z,b60275e29fe2361ab97ac0ac217840d7,"Mozilla/5.0 (Macintosh; Intel Mac OS X 10_15_7) AppleWebKit/537.36 (KHTML, like Gecko) Chrome/135.0.0.0 Safari/537.36",Macintosh,Chrome,135.0.0.0,OS X,10_15_7,https://5puzkbbxv1.cognition.run/?sona_id=58249,"en-US,en;q=0.9",ldutrfafmo6mp8p,20,"[""White""]",No,Female,NA,No,1331147.6000000238,NA,null,<p></p>,null,choice,ct,binary,repulsion,1,laptops,null,null,null,null,null,null,1,NA,NA,NA,NA,NA,NA,NA,NA,NA,NA
NA,NA,NA,NA,NA,choice_trial,survey-html-form,29,758726,0.0-4.0-1.12,226,1,2025-05-06T02:45:31Z,b60275e29fe2361ab97ac0ac217840d7,"Mozilla/5.0 (Macintosh; Intel Mac OS X 10_15_7) AppleWebKit/537.36 (KHTML, like Gecko) Chrome/135.0.0.0 Safari/537.36",Macintosh,Chrome,135.0.0.0,OS X,10_15_7,https://5puzkbbxv1.cognition.run/?sona_id=58249,"en-US,en;q=0.9",ldutrfafmo6mp8p,20,"[""White""]",No,Female,NA,No,1331147.6000000238,NA,5106,NA,"{""product_choice"":""B""}",choice,ct,binary,repulsion,1,laptops,null,null,null,null,null,null,1,100,90,null,30,40,null,Processing speed,Memory (RAM),NA,NA
NA,NA,NA,NA,NA,choice_trial_setup,html-keyboard-response,30,759029,0.0-4.0-0.13,226,1,2025-05-06T02:45:31Z,b60275e29fe2361ab97ac0ac217840d7,"Mozilla/5.0 (Macintosh; Intel Mac OS X 10_15_7) AppleWebKit/537.36 (KHTML, like Gecko) Chrome/135.0.0.0 Safari/537.36",Macintosh,Chrome,135.0.0.0,OS X,10_15_7,https://5puzkbbxv1.cognition.run/?sona_id=58249,"en-US,en;q=0.9",ldutrfafmo6mp8p,20,"[""White""]",No,Female,NA,No,1331147.6000000238,NA,null,<p></p>,null,choice,tc,binary,repulsion,2,washing machines,null,null,null,null,null,null,2,NA,NA,NA,NA,NA,NA,NA,NA,NA,NA
NA,NA,NA,NA,NA,choice_trial,survey-html-form,31,782129,0.0-4.0-1.13,226,1,2025-05-06T02:45:31Z,b60275e29fe2361ab97ac0ac217840d7,"Mozilla/5.0 (Macintosh; Intel Mac OS X 10_15_7) AppleWebKit/537.36 (KHTML, like Gecko) Chrome/135.0.0.0 Safari/537.36",Macintosh,Chrome,135.0.0.0,OS X,10_15_7,https://5puzkbbxv1.cognition.run/?sona_id=58249,"en-US,en;q=0.9",ldutrfafmo6mp8p,20,"[""White""]",No,Female,NA,No,1331147.6000000238,NA,23097,NA,"{""product_choice"":""B""}",choice,tc,binary,repulsion,2,washing machines,null,null,null,null,null,null,2,30,40,null,100,90,null,Average lifespan,Energy savings,NA,NA
NA,NA,NA,NA,NA,choice_trial_setup,html-keyboard-response,32,782432,0.0-4.0-0.14,226,1,2025-05-06T02:45:31Z,b60275e29fe2361ab97ac0ac217840d7,"Mozilla/5.0 (Macintosh; Intel Mac OS X 10_15_7) AppleWebKit/537.36 (KHTML, like Gecko) Chrome/135.0.0.0 Safari/537.36",Macintosh,Chrome,135.0.0.0,OS X,10_15_7,https://5puzkbbxv1.cognition.run/?sona_id=58249,"en-US,en;q=0.9",ldutrfafmo6mp8p,20,"[""White""]",No,Female,NA,No,1331147.6000000238,NA,null,<p></p>,null,choice,tcd,trinary,repulsion_A,1,microwave ovens,null,null,null,null,null,null,2,NA,NA,NA,NA,NA,NA,NA,NA,NA,NA
NA,NA,NA,NA,NA,choice_trial,survey-html-form,33,805592,0.0-4.0-1.14,226,1,2025-05-06T02:45:31Z,b60275e29fe2361ab97ac0ac217840d7,"Mozilla/5.0 (Macintosh; Intel Mac OS X 10_15_7) AppleWebKit/537.36 (KHTML, like Gecko) Chrome/135.0.0.0 Safari/537.36",Macintosh,Chrome,135.0.0.0,OS X,10_15_7,https://5puzkbbxv1.cognition.run/?sona_id=58249,"en-US,en;q=0.9",ldutrfafmo6mp8p,20,"[""White""]",No,Female,NA,No,1331147.6000000238,NA,23156,NA,"{""product_choice"":""A""}",choice,tcd,trinary,repulsion_A,1,microwave ovens,null,null,null,null,null,null,2,100,90,100,30,40,20,Warranty,Cooking power,NA,NA
NA,NA,NA,NA,NA,choice_trial_setup,html-keyboard-response,34,805895,0.0-4.0-0.15,226,1,2025-05-06T02:45:31Z,b60275e29fe2361ab97ac0ac217840d7,"Mozilla/5.0 (Macintosh; Intel Mac OS X 10_15_7) AppleWebKit/537.36 (KHTML, like Gecko) Chrome/135.0.0.0 Safari/537.36",Macintosh,Chrome,135.0.0.0,OS X,10_15_7,https://5puzkbbxv1.cognition.run/?sona_id=58249,"en-US,en;q=0.9",ldutrfafmo6mp8p,20,"[""White""]",No,Female,NA,No,1331147.6000000238,NA,null,<p></p>,null,choice,tcd,trinary,attraction,2,televisions,null,null,null,null,null,null,1,NA,NA,NA,NA,NA,NA,NA,NA,NA,NA
NA,NA,NA,NA,NA,choice_trial,survey-html-form,35,814381,0.0-4.0-1.15,226,1,2025-05-06T02:45:31Z,b60275e29fe2361ab97ac0ac217840d7,"Mozilla/5.0 (Macintosh; Intel Mac OS X 10_15_7) AppleWebKit/537.36 (KHTML, like Gecko) Chrome/135.0.0.0 Safari/537.36",Macintosh,Chrome,135.0.0.0,OS X,10_15_7,https://5puzkbbxv1.cognition.run/?sona_id=58249,"en-US,en;q=0.9",ldutrfafmo6mp8p,20,"[""White""]",No,Female,NA,No,1331147.6000000238,NA,8482,NA,"{""product_choice"":""A""}",choice,tcd,trinary,attraction,2,televisions,null,null,null,null,null,null,1,50,60,40,60,50,60,Screen size,Average lifespan,NA,NA
NA,NA,NA,NA,NA,choice_trial_setup,html-keyboard-response,36,814684,0.0-4.0-0.16,226,1,2025-05-06T02:45:31Z,b60275e29fe2361ab97ac0ac217840d7,"Mozilla/5.0 (Macintosh; Intel Mac OS X 10_15_7) AppleWebKit/537.36 (KHTML, like Gecko) Chrome/135.0.0.0 Safari/537.36",Macintosh,Chrome,135.0.0.0,OS X,10_15_7,https://5puzkbbxv1.cognition.run/?sona_id=58249,"en-US,en;q=0.9",ldutrfafmo6mp8p,20,"[""White""]",No,Female,NA,No,1331147.6000000238,NA,null,<p></p>,null,choice,ctd,trinary,repulsion_A,2,washing machines,null,null,null,null,null,null,1,NA,NA,NA,NA,NA,NA,NA,NA,NA,NA
NA,NA,NA,NA,NA,choice_trial,survey-html-form,37,835750,0.0-4.0-1.16,226,1,2025-05-06T02:45:31Z,b60275e29fe2361ab97ac0ac217840d7,"Mozilla/5.0 (Macintosh; Intel Mac OS X 10_15_7) AppleWebKit/537.36 (KHTML, like Gecko) Chrome/135.0.0.0 Safari/537.36",Macintosh,Chrome,135.0.0.0,OS X,10_15_7,https://5puzkbbxv1.cognition.run/?sona_id=58249,"en-US,en;q=0.9",ldutrfafmo6mp8p,20,"[""White""]",No,Female,NA,No,1331147.6000000238,NA,21063,NA,"{""product_choice"":""B""}",choice,ctd,trinary,repulsion_A,2,washing machines,null,null,null,null,null,null,1,30,40,20,100,90,100,Average lifespan,Energy savings,NA,NA
NA,NA,NA,NA,NA,choice_trial_setup,html-keyboard-response,38,836054,0.0-4.0-0.17,226,1,2025-05-06T02:45:31Z,b60275e29fe2361ab97ac0ac217840d7,"Mozilla/5.0 (Macintosh; Intel Mac OS X 10_15_7) AppleWebKit/537.36 (KHTML, like Gecko) Chrome/135.0.0.0 Safari/537.36",Macintosh,Chrome,135.0.0.0,OS X,10_15_7,https://5puzkbbxv1.cognition.run/?sona_id=58249,"en-US,en;q=0.9",ldutrfafmo6mp8p,20,"[""White""]",No,Female,NA,No,1331147.6000000238,NA,null,<p></p>,null,choice,tc,binary,attraction,NA,microwave ovens,null,null,null,null,null,null,1,NA,NA,NA,NA,NA,NA,NA,NA,NA,NA
NA,NA,NA,NA,NA,choice_trial,survey-html-form,39,841717,0.0-4.0-1.17,226,1,2025-05-06T02:45:31Z,b60275e29fe2361ab97ac0ac217840d7,"Mozilla/5.0 (Macintosh; Intel Mac OS X 10_15_7) AppleWebKit/537.36 (KHTML, like Gecko) Chrome/135.0.0.0 Safari/537.36",Macintosh,Chrome,135.0.0.0,OS X,10_15_7,https://5puzkbbxv1.cognition.run/?sona_id=58249,"en-US,en;q=0.9",ldutrfafmo6mp8p,20,"[""White""]",No,Female,NA,No,1331147.6000000238,NA,5660,NA,"{""product_choice"":""A""}",choice,tc,binary,attraction,NA,microwave ovens,null,null,null,null,null,null,1,60,50,null,50,60,null,Warranty,Cooking power,NA,NA
NA,NA,NA,NA,NA,choice_trial_setup,html-keyboard-response,40,842019,0.0-4.0-0.18,226,1,2025-05-06T02:45:31Z,b60275e29fe2361ab97ac0ac217840d7,"Mozilla/5.0 (Macintosh; Intel Mac OS X 10_15_7) AppleWebKit/537.36 (KHTML, like Gecko) Chrome/135.0.0.0 Safari/537.36",Macintosh,Chrome,135.0.0.0,OS X,10_15_7,https://5puzkbbxv1.cognition.run/?sona_id=58249,"en-US,en;q=0.9",ldutrfafmo6mp8p,20,"[""White""]",No,Female,NA,No,1331147.6000000238,NA,null,<p></p>,null,choice,dtc,trinary,attraction,2,microwave ovens,null,null,null,null,null,null,1,NA,NA,NA,NA,NA,NA,NA,NA,NA,NA
NA,NA,NA,NA,NA,choice_trial,survey-html-form,41,847532,0.0-4.0-1.18,226,1,2025-05-06T02:45:31Z,b60275e29fe2361ab97ac0ac217840d7,"Mozilla/5.0 (Macintosh; Intel Mac OS X 10_15_7) AppleWebKit/537.36 (KHTML, like Gecko) Chrome/135.0.0.0 Safari/537.36",Macintosh,Chrome,135.0.0.0,OS X,10_15_7,https://5puzkbbxv1.cognition.run/?sona_id=58249,"en-US,en;q=0.9",ldutrfafmo6mp8p,20,"[""White""]",No,Female,NA,No,1331147.6000000238,NA,5511,NA,"{""product_choice"":""C""}",choice,dtc,trinary,attraction,2,microwave ovens,null,null,null,null,null,null,1,50,60,40,60,50,60,Warranty,Cooking power,NA,NA
NA,NA,NA,NA,NA,choice_trial_setup,html-keyboard-response,42,847836,0.0-4.0-0.19,226,1,2025-05-06T02:45:31Z,b60275e29fe2361ab97ac0ac217840d7,"Mozilla/5.0 (Macintosh; Intel Mac OS X 10_15_7) AppleWebKit/537.36 (KHTML, like Gecko) Chrome/135.0.0.0 Safari/537.36",Macintosh,Chrome,135.0.0.0,OS X,10_15_7,https://5puzkbbxv1.cognition.run/?sona_id=58249,"en-US,en;q=0.9",ldutrfafmo6mp8p,20,"[""White""]",No,Female,NA,No,1331147.6000000238,NA,null,<p></p>,null,choice,tc,binary,repulsion,1,microwave ovens,null,null,null,null,null,null,1,NA,NA,NA,NA,NA,NA,NA,NA,NA,NA
NA,NA,NA,NA,NA,choice_trial,survey-html-form,43,853762,0.0-4.0-1.19,226,1,2025-05-06T02:45:31Z,b60275e29fe2361ab97ac0ac217840d7,"Mozilla/5.0 (Macintosh; Intel Mac OS X 10_15_7) AppleWebKit/537.36 (KHTML, like Gecko) Chrome/135.0.0.0 Safari/537.36",Macintosh,Chrome,135.0.0.0,OS X,10_15_7,https://5puzkbbxv1.cognition.run/?sona_id=58249,"en-US,en;q=0.9",ldutrfafmo6mp8p,20,"[""White""]",No,Female,NA,No,1331147.6000000238,NA,5923,NA,"{""product_choice"":""A""}",choice,tc,binary,repulsion,1,microwave ovens,null,null,null,null,null,null,1,100,90,null,30,40,null,Warranty,Cooking power,NA,NA
NA,NA,NA,NA,NA,choice_trial_setup,html-keyboard-response,44,854065,0.0-4.0-0.20,226,1,2025-05-06T02:45:31Z,b60275e29fe2361ab97ac0ac217840d7,"Mozilla/5.0 (Macintosh; Intel Mac OS X 10_15_7) AppleWebKit/537.36 (KHTML, like Gecko) Chrome/135.0.0.0 Safari/537.36",Macintosh,Chrome,135.0.0.0,OS X,10_15_7,https://5puzkbbxv1.cognition.run/?sona_id=58249,"en-US,en;q=0.9",ldutrfafmo6mp8p,20,"[""White""]",No,Female,NA,No,1331147.6000000238,NA,null,<p></p>,null,choice,ct,binary,repulsion,1,washing machines,null,null,null,null,null,null,1,NA,NA,NA,NA,NA,NA,NA,NA,NA,NA
NA,NA,NA,NA,NA,choice_trial,survey-html-form,45,906892,0.0-4.0-1.20,226,1,2025-05-06T02:45:31Z,b60275e29fe2361ab97ac0ac217840d7,"Mozilla/5.0 (Macintosh; Intel Mac OS X 10_15_7) AppleWebKit/537.36 (KHTML, like Gecko) Chrome/135.0.0.0 Safari/537.36",Macintosh,Chrome,135.0.0.0,OS X,10_15_7,https://5puzkbbxv1.cognition.run/?sona_id=58249,"en-US,en;q=0.9",ldutrfafmo6mp8p,20,"[""White""]",No,Female,NA,No,1331147.6000000238,NA,52821,NA,"{""product_choice"":""A""}",choice,ct,binary,repulsion,1,washing machines,null,null,null,null,null,null,1,100,90,null,30,40,null,Average lifespan,Energy savings,NA,NA
NA,NA,NA,NA,NA,choice_trial_setup,html-keyboard-response,46,907194,0.0-4.0-0.21,226,1,2025-05-06T02:45:31Z,b60275e29fe2361ab97ac0ac217840d7,"Mozilla/5.0 (Macintosh; Intel Mac OS X 10_15_7) AppleWebKit/537.36 (KHTML, like Gecko) Chrome/135.0.0.0 Safari/537.36",Macintosh,Chrome,135.0.0.0,OS X,10_15_7,https://5puzkbbxv1.cognition.run/?sona_id=58249,"en-US,en;q=0.9",ldutrfafmo6mp8p,20,"[""White""]",No,Female,NA,No,1331147.6000000238,NA,null,<p></p>,null,choice,ctd,trinary,repulsion_A,1,laptops,null,null,null,null,null,null,1,NA,NA,NA,NA,NA,NA,NA,NA,NA,NA
NA,NA,NA,NA,NA,choice_trial,survey-html-form,47,914699,0.0-4.0-1.21,226,1,2025-05-06T02:45:31Z,b60275e29fe2361ab97ac0ac217840d7,"Mozilla/5.0 (Macintosh; Intel Mac OS X 10_15_7) AppleWebKit/537.36 (KHTML, like Gecko) Chrome/135.0.0.0 Safari/537.36",Macintosh,Chrome,135.0.0.0,OS X,10_15_7,https://5puzkbbxv1.cognition.run/?sona_id=58249,"en-US,en;q=0.9",ldutrfafmo6mp8p,20,"[""White""]",No,Female,NA,No,1331147.6000000238,NA,7502,NA,"{""product_choice"":""B""}",choice,ctd,trinary,repulsion_A,1,laptops,null,null,null,null,null,null,1,100,90,100,30,40,20,Processing speed,Memory (RAM),NA,NA
NA,NA,NA,NA,NA,choice_trial_setup,html-keyboard-response,48,915002,0.0-4.0-0.22,226,1,2025-05-06T02:45:31Z,b60275e29fe2361ab97ac0ac217840d7,"Mozilla/5.0 (Macintosh; Intel Mac OS X 10_15_7) AppleWebKit/537.36 (KHTML, like Gecko) Chrome/135.0.0.0 Safari/537.36",Macintosh,Chrome,135.0.0.0,OS X,10_15_7,https://5puzkbbxv1.cognition.run/?sona_id=58249,"en-US,en;q=0.9",ldutrfafmo6mp8p,20,"[""White""]",No,Female,NA,No,1331147.6000000238,NA,null,<p></p>,null,choice,wb,binary,catch,null,laptops,85,70,35,50,null,null,1,NA,NA,NA,NA,NA,NA,NA,NA,NA,NA
NA,NA,NA,NA,NA,choice_trial,survey-html-form,49,923753,0.0-4.0-1.22,226,1,2025-05-06T02:45:31Z,b60275e29fe2361ab97ac0ac217840d7,"Mozilla/5.0 (Macintosh; Intel Mac OS X 10_15_7) AppleWebKit/537.36 (KHTML, like Gecko) Chrome/135.0.0.0 Safari/537.36",Macintosh,Chrome,135.0.0.0,OS X,10_15_7,https://5puzkbbxv1.cognition.run/?sona_id=58249,"en-US,en;q=0.9",ldutrfafmo6mp8p,20,"[""White""]",No,Female,NA,No,1331147.6000000238,NA,8747,NA,"{""product_choice"":""B""}",choice,wb,binary,catch,null,laptops,85,70,35,50,null,null,1,null,null,null,null,null,null,Processing speed,Memory (RAM),NA,NA
NA,NA,NA,NA,NA,choice_trial_setup,html-keyboard-response,50,924056,0.0-4.0-0.23,226,1,2025-05-06T02:45:31Z,b60275e29fe2361ab97ac0ac217840d7,"Mozilla/5.0 (Macintosh; Intel Mac OS X 10_15_7) AppleWebKit/537.36 (KHTML, like Gecko) Chrome/135.0.0.0 Safari/537.36",Macintosh,Chrome,135.0.0.0,OS X,10_15_7,https://5puzkbbxv1.cognition.run/?sona_id=58249,"en-US,en;q=0.9",ldutrfafmo6mp8p,20,"[""White""]",No,Female,NA,No,1331147.6000000238,NA,null,<p></p>,null,choice,tcd,trinary,repulsion_B,1,televisions,null,null,null,null,null,null,2,NA,NA,NA,NA,NA,NA,NA,NA,NA,NA
NA,NA,NA,NA,NA,choice_trial,survey-html-form,51,942249,0.0-4.0-1.23,226,1,2025-05-06T02:45:31Z,b60275e29fe2361ab97ac0ac217840d7,"Mozilla/5.0 (Macintosh; Intel Mac OS X 10_15_7) AppleWebKit/537.36 (KHTML, like Gecko) Chrome/135.0.0.0 Safari/537.36",Macintosh,Chrome,135.0.0.0,OS X,10_15_7,https://5puzkbbxv1.cognition.run/?sona_id=58249,"en-US,en;q=0.9",ldutrfafmo6mp8p,20,"[""White""]",No,Female,NA,No,1331147.6000000238,NA,18188,NA,"{""product_choice"":""A""}",choice,tcd,trinary,repulsion_B,1,televisions,null,null,null,null,null,null,2,90,100,80,40,30,40,Screen size,Average lifespan,NA,NA
NA,NA,NA,NA,NA,choice_trial_setup,html-keyboard-response,52,942552,0.0-4.0-0.24,226,1,2025-05-06T02:45:31Z,b60275e29fe2361ab97ac0ac217840d7,"Mozilla/5.0 (Macintosh; Intel Mac OS X 10_15_7) AppleWebKit/537.36 (KHTML, like Gecko) Chrome/135.0.0.0 Safari/537.36",Macintosh,Chrome,135.0.0.0,OS X,10_15_7,https://5puzkbbxv1.cognition.run/?sona_id=58249,"en-US,en;q=0.9",ldutrfafmo6mp8p,20,"[""White""]",No,Female,NA,No,1331147.6000000238,NA,null,<p></p>,null,choice,tdc,trinary,attraction,1,laptops,null,null,null,null,null,null,2,NA,NA,NA,NA,NA,NA,NA,NA,NA,NA
NA,NA,NA,NA,NA,choice_trial,survey-html-form,53,946764,0.0-4.0-1.24,226,1,2025-05-06T02:45:31Z,b60275e29fe2361ab97ac0ac217840d7,"Mozilla/5.0 (Macintosh; Intel Mac OS X 10_15_7) AppleWebKit/537.36 (KHTML, like Gecko) Chrome/135.0.0.0 Safari/537.36",Macintosh,Chrome,135.0.0.0,OS X,10_15_7,https://5puzkbbxv1.cognition.run/?sona_id=58249,"en-US,en;q=0.9",ldutrfafmo6mp8p,20,"[""White""]",No,Female,NA,No,1331147.6000000238,NA,4206,NA,"{""product_choice"":""A""}",choice,tdc,trinary,attraction,1,laptops,null,null,null,null,null,null,2,60,50,60,50,60,40,Processing speed,Memory (RAM),NA,NA
NA,NA,NA,NA,NA,choice_trial_setup,html-keyboard-response,54,947067,0.0-4.0-0.25,226,1,2025-05-06T02:45:31Z,b60275e29fe2361ab97ac0ac217840d7,"Mozilla/5.0 (Macintosh; Intel Mac OS X 10_15_7) AppleWebKit/537.36 (KHTML, like Gecko) Chrome/135.0.0.0 Safari/537.36",Macintosh,Chrome,135.0.0.0,OS X,10_15_7,https://5puzkbbxv1.cognition.run/?sona_id=58249,"en-US,en;q=0.9",ldutrfafmo6mp8p,20,"[""White""]",No,Female,NA,No,1331147.6000000238,NA,null,<p></p>,null,choice,tdc,trinary,repulsion_A,2,laptops,null,null,null,null,null,null,1,NA,NA,NA,NA,NA,NA,NA,NA,NA,NA
NA,NA,NA,NA,NA,choice_trial,survey-html-form,55,950438,0.0-4.0-1.25,226,1,2025-05-06T02:45:31Z,b60275e29fe2361ab97ac0ac217840d7,"Mozilla/5.0 (Macintosh; Intel Mac OS X 10_15_7) AppleWebKit/537.36 (KHTML, like Gecko) Chrome/135.0.0.0 Safari/537.36",Macintosh,Chrome,135.0.0.0,OS X,10_15_7,https://5puzkbbxv1.cognition.run/?sona_id=58249,"en-US,en;q=0.9",ldutrfafmo6mp8p,20,"[""White""]",No,Female,NA,No,1331147.6000000238,NA,3368,NA,"{""product_choice"":""A""}",choice,tdc,trinary,repulsion_A,2,laptops,null,null,null,null,null,null,1,30,40,20,100,90,100,Processing speed,Memory (RAM),NA,NA
NA,NA,NA,NA,NA,choice_trial_setup,html-keyboard-response,56,950743,0.0-4.0-0.26,226,1,2025-05-06T02:45:31Z,b60275e29fe2361ab97ac0ac217840d7,"Mozilla/5.0 (Macintosh; Intel Mac OS X 10_15_7) AppleWebKit/537.36 (KHTML, like Gecko) Chrome/135.0.0.0 Safari/537.36",Macintosh,Chrome,135.0.0.0,OS X,10_15_7,https://5puzkbbxv1.cognition.run/?sona_id=58249,"en-US,en;q=0.9",ldutrfafmo6mp8p,20,"[""White""]",No,Female,NA,No,1331147.6000000238,NA,null,<p></p>,null,choice,cdt,trinary,repulsion_A,2,microwave ovens,null,null,null,null,null,null,2,NA,NA,NA,NA,NA,NA,NA,NA,NA,NA
NA,NA,NA,NA,NA,choice_trial,survey-html-form,57,962426,0.0-4.0-1.26,226,1,2025-05-06T02:45:31Z,b60275e29fe2361ab97ac0ac217840d7,"Mozilla/5.0 (Macintosh; Intel Mac OS X 10_15_7) AppleWebKit/537.36 (KHTML, like Gecko) Chrome/135.0.0.0 Safari/537.36",Macintosh,Chrome,135.0.0.0,OS X,10_15_7,https://5puzkbbxv1.cognition.run/?sona_id=58249,"en-US,en;q=0.9",ldutrfafmo6mp8p,20,"[""White""]",No,Female,NA,No,1331147.6000000238,NA,11679,NA,"{""product_choice"":""A""}",choice,cdt,trinary,repulsion_A,2,microwave ovens,null,null,null,null,null,null,2,30,40,20,100,90,100,Warranty,Cooking power,NA,NA
NA,NA,NA,NA,NA,choice_trial_setup,html-keyboard-response,58,962728,0.0-4.0-0.27,226,1,2025-05-06T02:45:31Z,b60275e29fe2361ab97ac0ac217840d7,"Mozilla/5.0 (Macintosh; Intel Mac OS X 10_15_7) AppleWebKit/537.36 (KHTML, like Gecko) Chrome/135.0.0.0 Safari/537.36",Macintosh,Chrome,135.0.0.0,OS X,10_15_7,https://5puzkbbxv1.cognition.run/?sona_id=58249,"en-US,en;q=0.9",ldutrfafmo6mp8p,20,"[""White""]",No,Female,NA,No,1331147.6000000238,NA,null,<p></p>,null,choice,ct,binary,repulsion,2,televisions,null,null,null,null,null,null,2,NA,NA,NA,NA,NA,NA,NA,NA,NA,NA
NA,NA,NA,NA,NA,choice_trial,survey-html-form,59,966916,0.0-4.0-1.27,226,1,2025-05-06T02:45:31Z,b60275e29fe2361ab97ac0ac217840d7,"Mozilla/5.0 (Macintosh; Intel Mac OS X 10_15_7) AppleWebKit/537.36 (KHTML, like Gecko) Chrome/135.0.0.0 Safari/537.36",Macintosh,Chrome,135.0.0.0,OS X,10_15_7,https://5puzkbbxv1.cognition.run/?sona_id=58249,"en-US,en;q=0.9",ldutrfafmo6mp8p,20,"[""White""]",No,Female,NA,No,1331147.6000000238,NA,4183,NA,"{""product_choice"":""B""}",choice,ct,binary,repulsion,2,televisions,null,null,null,null,null,null,2,30,40,null,100,90,null,Screen size,Average lifespan,NA,NA
NA,NA,NA,NA,NA,choice_trial_setup,html-keyboard-response,60,967219,0.0-4.0-0.28,226,1,2025-05-06T02:45:31Z,b60275e29fe2361ab97ac0ac217840d7,"Mozilla/5.0 (Macintosh; Intel Mac OS X 10_15_7) AppleWebKit/537.36 (KHTML, like Gecko) Chrome/135.0.0.0 Safari/537.36",Macintosh,Chrome,135.0.0.0,OS X,10_15_7,https://5puzkbbxv1.cognition.run/?sona_id=58249,"en-US,en;q=0.9",ldutrfafmo6mp8p,20,"[""White""]",No,Female,NA,No,1331147.6000000238,NA,null,<p></p>,null,choice,bww,trinary,catch,null,washing machines,90,50,20,40,5,30,2,NA,NA,NA,NA,NA,NA,NA,NA,NA,NA
NA,NA,NA,NA,NA,choice_trial,survey-html-form,61,976685,0.0-4.0-1.28,226,1,2025-05-06T02:45:31Z,b60275e29fe2361ab97ac0ac217840d7,"Mozilla/5.0 (Macintosh; Intel Mac OS X 10_15_7) AppleWebKit/537.36 (KHTML, like Gecko) Chrome/135.0.0.0 Safari/537.36",Macintosh,Chrome,135.0.0.0,OS X,10_15_7,https://5puzkbbxv1.cognition.run/?sona_id=58249,"en-US,en;q=0.9",ldutrfafmo6mp8p,20,"[""White""]",No,Female,NA,No,1331147.6000000238,NA,9462,NA,"{""product_choice"":""A""}",choice,bww,trinary,catch,null,washing machines,90,50,20,40,5,30,2,null,null,null,null,null,null,Average lifespan,Energy savings,NA,NA
NA,NA,NA,NA,NA,choice_trial_setup,html-keyboard-response,62,976989,0.0-4.0-0.29,226,1,2025-05-06T02:45:31Z,b60275e29fe2361ab97ac0ac217840d7,"Mozilla/5.0 (Macintosh; Intel Mac OS X 10_15_7) AppleWebKit/537.36 (KHTML, like Gecko) Chrome/135.0.0.0 Safari/537.36",Macintosh,Chrome,135.0.0.0,OS X,10_15_7,https://5puzkbbxv1.cognition.run/?sona_id=58249,"en-US,en;q=0.9",ldutrfafmo6mp8p,20,"[""White""]",No,Female,NA,No,1331147.6000000238,NA,null,<p></p>,null,choice,wwb,trinary,catch,null,televisions,85,80,40,30,20,10,1,NA,NA,NA,NA,NA,NA,NA,NA,NA,NA
NA,NA,NA,NA,NA,choice_trial,survey-html-form,63,981438,0.0-4.0-1.29,226,1,2025-05-06T02:45:31Z,b60275e29fe2361ab97ac0ac217840d7,"Mozilla/5.0 (Macintosh; Intel Mac OS X 10_15_7) AppleWebKit/537.36 (KHTML, like Gecko) Chrome/135.0.0.0 Safari/537.36",Macintosh,Chrome,135.0.0.0,OS X,10_15_7,https://5puzkbbxv1.cognition.run/?sona_id=58249,"en-US,en;q=0.9",ldutrfafmo6mp8p,20,"[""White""]",No,Female,NA,No,1331147.6000000238,NA,4445,NA,"{""product_choice"":""C""}",choice,wwb,trinary,catch,null,televisions,85,80,40,30,20,10,1,null,null,null,null,null,null,Screen size,Average lifespan,NA,NA
NA,NA,NA,NA,NA,choice_trial_setup,html-keyboard-response,64,981742,0.0-4.0-0.30,226,1,2025-05-06T02:45:31Z,b60275e29fe2361ab97ac0ac217840d7,"Mozilla/5.0 (Macintosh; Intel Mac OS X 10_15_7) AppleWebKit/537.36 (KHTML, like Gecko) Chrome/135.0.0.0 Safari/537.36",Macintosh,Chrome,135.0.0.0,OS X,10_15_7,https://5puzkbbxv1.cognition.run/?sona_id=58249,"en-US,en;q=0.9",ldutrfafmo6mp8p,20,"[""White""]",No,Female,NA,No,1331147.6000000238,NA,null,<p></p>,null,choice,tc,binary,attraction,NA,washing machines,null,null,null,null,null,null,2,NA,NA,NA,NA,NA,NA,NA,NA,NA,NA
NA,NA,NA,NA,NA,choice_trial,survey-html-form,65,989934,0.0-4.0-1.30,226,1,2025-05-06T02:45:31Z,b60275e29fe2361ab97ac0ac217840d7,"Mozilla/5.0 (Macintosh; Intel Mac OS X 10_15_7) AppleWebKit/537.36 (KHTML, like Gecko) Chrome/135.0.0.0 Safari/537.36",Macintosh,Chrome,135.0.0.0,OS X,10_15_7,https://5puzkbbxv1.cognition.run/?sona_id=58249,"en-US,en;q=0.9",ldutrfafmo6mp8p,20,"[""White""]",No,Female,NA,No,1331147.6000000238,NA,8188,NA,"{""product_choice"":""B""}",choice,tc,binary,attraction,NA,washing machines,null,null,null,null,null,null,2,60,50,null,50,60,null,Average lifespan,Energy savings,NA,NA
NA,NA,NA,NA,NA,choice_trial_setup,html-keyboard-response,66,990237,0.0-4.0-0.31,226,1,2025-05-06T02:45:31Z,b60275e29fe2361ab97ac0ac217840d7,"Mozilla/5.0 (Macintosh; Intel Mac OS X 10_15_7) AppleWebKit/537.36 (KHTML, like Gecko) Chrome/135.0.0.0 Safari/537.36",Macintosh,Chrome,135.0.0.0,OS X,10_15_7,https://5puzkbbxv1.cognition.run/?sona_id=58249,"en-US,en;q=0.9",ldutrfafmo6mp8p,20,"[""White""]",No,Female,NA,No,1331147.6000000238,NA,null,<p></p>,null,choice,dtc,trinary,attraction,2,laptops,null,null,null,null,null,null,1,NA,NA,NA,NA,NA,NA,NA,NA,NA,NA
NA,NA,NA,NA,NA,choice_trial,survey-html-form,67,998785,0.0-4.0-1.31,226,1,2025-05-06T02:45:31Z,b60275e29fe2361ab97ac0ac217840d7,"Mozilla/5.0 (Macintosh; Intel Mac OS X 10_15_7) AppleWebKit/537.36 (KHTML, like Gecko) Chrome/135.0.0.0 Safari/537.36",Macintosh,Chrome,135.0.0.0,OS X,10_15_7,https://5puzkbbxv1.cognition.run/?sona_id=58249,"en-US,en;q=0.9",ldutrfafmo6mp8p,20,"[""White""]",No,Female,NA,No,1331147.6000000238,NA,8542,NA,"{""product_choice"":""C""}",choice,dtc,trinary,attraction,2,laptops,null,null,null,null,null,null,1,50,60,40,60,50,60,Processing speed,Memory (RAM),NA,NA
NA,NA,NA,NA,NA,choice_trial_setup,html-keyboard-response,68,999089,0.0-4.0-0.32,226,1,2025-05-06T02:45:31Z,b60275e29fe2361ab97ac0ac217840d7,"Mozilla/5.0 (Macintosh; Intel Mac OS X 10_15_7) AppleWebKit/537.36 (KHTML, like Gecko) Chrome/135.0.0.0 Safari/537.36",Macintosh,Chrome,135.0.0.0,OS X,10_15_7,https://5puzkbbxv1.cognition.run/?sona_id=58249,"en-US,en;q=0.9",ldutrfafmo6mp8p,20,"[""White""]",No,Female,NA,No,1331147.6000000238,NA,null,<p></p>,null,choice,tdc,trinary,repulsion_B,2,washing machines,null,null,null,null,null,null,1,NA,NA,NA,NA,NA,NA,NA,NA,NA,NA
NA,NA,NA,NA,NA,choice_trial,survey-html-form,69,1010922,0.0-4.0-1.32,226,1,2025-05-06T02:45:31Z,b60275e29fe2361ab97ac0ac217840d7,"Mozilla/5.0 (Macintosh; Intel Mac OS X 10_15_7) AppleWebKit/537.36 (KHTML, like Gecko) Chrome/135.0.0.0 Safari/537.36",Macintosh,Chrome,135.0.0.0,OS X,10_15_7,https://5puzkbbxv1.cognition.run/?sona_id=58249,"en-US,en;q=0.9",ldutrfafmo6mp8p,20,"[""White""]",No,Female,NA,No,1331147.6000000238,NA,11828,NA,"{""product_choice"":""A""}",choice,tdc,trinary,repulsion_B,2,washing machines,null,null,null,null,null,null,1,40,30,40,90,100,80,Average lifespan,Energy savings,NA,NA
NA,NA,NA,NA,NA,choice_trial_setup,html-keyboard-response,70,1011225,0.0-4.0-0.33,226,1,2025-05-06T02:45:31Z,b60275e29fe2361ab97ac0ac217840d7,"Mozilla/5.0 (Macintosh; Intel Mac OS X 10_15_7) AppleWebKit/537.36 (KHTML, like Gecko) Chrome/135.0.0.0 Safari/537.36",Macintosh,Chrome,135.0.0.0,OS X,10_15_7,https://5puzkbbxv1.cognition.run/?sona_id=58249,"en-US,en;q=0.9",ldutrfafmo6mp8p,20,"[""White""]",No,Female,NA,No,1331147.6000000238,NA,null,<p></p>,null,choice,tcd,trinary,attraction,1,microwave ovens,null,null,null,null,null,null,1,NA,NA,NA,NA,NA,NA,NA,NA,NA,NA
NA,NA,NA,NA,NA,choice_trial,survey-html-form,71,1035602,0.0-4.0-1.33,226,1,2025-05-06T02:45:31Z,b60275e29fe2361ab97ac0ac217840d7,"Mozilla/5.0 (Macintosh; Intel Mac OS X 10_15_7) AppleWebKit/537.36 (KHTML, like Gecko) Chrome/135.0.0.0 Safari/537.36",Macintosh,Chrome,135.0.0.0,OS X,10_15_7,https://5puzkbbxv1.cognition.run/?sona_id=58249,"en-US,en;q=0.9",ldutrfafmo6mp8p,20,"[""White""]",No,Female,NA,No,1331147.6000000238,NA,24374,NA,"{""product_choice"":""A""}",choice,tcd,trinary,attraction,1,microwave ovens,null,null,null,null,null,null,1,60,50,60,50,60,40,Warranty,Cooking power,NA,NA
NA,NA,NA,NA,NA,choice_trial_setup,html-keyboard-response,72,1035907,0.0-4.0-0.34,226,1,2025-05-06T02:45:31Z,b60275e29fe2361ab97ac0ac217840d7,"Mozilla/5.0 (Macintosh; Intel Mac OS X 10_15_7) AppleWebKit/537.36 (KHTML, like Gecko) Chrome/135.0.0.0 Safari/537.36",Macintosh,Chrome,135.0.0.0,OS X,10_15_7,https://5puzkbbxv1.cognition.run/?sona_id=58249,"en-US,en;q=0.9",ldutrfafmo6mp8p,20,"[""White""]",No,Female,NA,No,1331147.6000000238,NA,null,<p></p>,null,choice,dtc,trinary,attraction,1,televisions,null,null,null,null,null,null,1,NA,NA,NA,NA,NA,NA,NA,NA,NA,NA
NA,NA,NA,NA,NA,choice_trial,survey-html-form,73,1047637,0.0-4.0-1.34,226,1,2025-05-06T02:45:31Z,b60275e29fe2361ab97ac0ac217840d7,"Mozilla/5.0 (Macintosh; Intel Mac OS X 10_15_7) AppleWebKit/537.36 (KHTML, like Gecko) Chrome/135.0.0.0 Safari/537.36",Macintosh,Chrome,135.0.0.0,OS X,10_15_7,https://5puzkbbxv1.cognition.run/?sona_id=58249,"en-US,en;q=0.9",ldutrfafmo6mp8p,20,"[""White""]",No,Female,NA,No,1331147.6000000238,NA,11726,NA,"{""product_choice"":""C""}",choice,dtc,trinary,attraction,1,televisions,null,null,null,null,null,null,1,60,50,60,50,60,40,Screen size,Average lifespan,NA,NA
NA,NA,NA,NA,NA,choice_trial_setup,html-keyboard-response,74,1047941,0.0-4.0-0.35,226,1,2025-05-06T02:45:31Z,b60275e29fe2361ab97ac0ac217840d7,"Mozilla/5.0 (Macintosh; Intel Mac OS X 10_15_7) AppleWebKit/537.36 (KHTML, like Gecko) Chrome/135.0.0.0 Safari/537.36",Macintosh,Chrome,135.0.0.0,OS X,10_15_7,https://5puzkbbxv1.cognition.run/?sona_id=58249,"en-US,en;q=0.9",ldutrfafmo6mp8p,20,"[""White""]",No,Female,NA,No,1331147.6000000238,NA,null,<p></p>,null,choice,ct,binary,repulsion,1,televisions,null,null,null,null,null,null,2,NA,NA,NA,NA,NA,NA,NA,NA,NA,NA
NA,NA,NA,NA,NA,choice_trial,survey-html-form,75,1053892,0.0-4.0-1.35,226,1,2025-05-06T02:45:31Z,b60275e29fe2361ab97ac0ac217840d7,"Mozilla/5.0 (Macintosh; Intel Mac OS X 10_15_7) AppleWebKit/537.36 (KHTML, like Gecko) Chrome/135.0.0.0 Safari/537.36",Macintosh,Chrome,135.0.0.0,OS X,10_15_7,https://5puzkbbxv1.cognition.run/?sona_id=58249,"en-US,en;q=0.9",ldutrfafmo6mp8p,20,"[""White""]",No,Female,NA,No,1331147.6000000238,NA,5947,NA,"{""product_choice"":""A""}",choice,ct,binary,repulsion,1,televisions,null,null,null,null,null,null,2,100,90,null,30,40,null,Screen size,Average lifespan,NA,NA
NA,NA,NA,NA,NA,choice_trial_setup,html-keyboard-response,76,1054196,0.0-4.0-0.36,226,1,2025-05-06T02:45:31Z,b60275e29fe2361ab97ac0ac217840d7,"Mozilla/5.0 (Macintosh; Intel Mac OS X 10_15_7) AppleWebKit/537.36 (KHTML, like Gecko) Chrome/135.0.0.0 Safari/537.36",Macintosh,Chrome,135.0.0.0,OS X,10_15_7,https://5puzkbbxv1.cognition.run/?sona_id=58249,"en-US,en;q=0.9",ldutrfafmo6mp8p,20,"[""White""]",No,Female,NA,No,1331147.6000000238,NA,null,<p></p>,null,choice,ct,binary,attraction,NA,televisions,null,null,null,null,null,null,1,NA,NA,NA,NA,NA,NA,NA,NA,NA,NA
NA,NA,NA,NA,NA,choice_trial,survey-html-form,77,1060220,0.0-4.0-1.36,226,1,2025-05-06T02:45:31Z,b60275e29fe2361ab97ac0ac217840d7,"Mozilla/5.0 (Macintosh; Intel Mac OS X 10_15_7) AppleWebKit/537.36 (KHTML, like Gecko) Chrome/135.0.0.0 Safari/537.36",Macintosh,Chrome,135.0.0.0,OS X,10_15_7,https://5puzkbbxv1.cognition.run/?sona_id=58249,"en-US,en;q=0.9",ldutrfafmo6mp8p,20,"[""White""]",No,Female,NA,No,1331147.6000000238,NA,6020,NA,"{""product_choice"":""A""}",choice,ct,binary,attraction,NA,televisions,null,null,null,null,null,null,1,60,50,null,50,60,null,Screen size,Average lifespan,NA,NA
NA,NA,NA,NA,NA,choice_trial_setup,html-keyboard-response,78,1060525,0.0-4.0-0.37,226,1,2025-05-06T02:45:31Z,b60275e29fe2361ab97ac0ac217840d7,"Mozilla/5.0 (Macintosh; Intel Mac OS X 10_15_7) AppleWebKit/537.36 (KHTML, like Gecko) Chrome/135.0.0.0 Safari/537.36",Macintosh,Chrome,135.0.0.0,OS X,10_15_7,https://5puzkbbxv1.cognition.run/?sona_id=58249,"en-US,en;q=0.9",ldutrfafmo6mp8p,20,"[""White""]",No,Female,NA,No,1331147.6000000238,NA,null,<p></p>,null,choice,tc,binary,repulsion,2,laptops,null,null,null,null,null,null,2,NA,NA,NA,NA,NA,NA,NA,NA,NA,NA
NA,NA,NA,NA,NA,choice_trial,survey-html-form,79,1068583,0.0-4.0-1.37,226,1,2025-05-06T02:45:31Z,b60275e29fe2361ab97ac0ac217840d7,"Mozilla/5.0 (Macintosh; Intel Mac OS X 10_15_7) AppleWebKit/537.36 (KHTML, like Gecko) Chrome/135.0.0.0 Safari/537.36",Macintosh,Chrome,135.0.0.0,OS X,10_15_7,https://5puzkbbxv1.cognition.run/?sona_id=58249,"en-US,en;q=0.9",ldutrfafmo6mp8p,20,"[""White""]",No,Female,NA,No,1331147.6000000238,NA,8053,NA,"{""product_choice"":""B""}",choice,tc,binary,repulsion,2,laptops,null,null,null,null,null,null,2,30,40,null,100,90,null,Processing speed,Memory (RAM),NA,NA
NA,NA,NA,NA,NA,choice_trial_setup,html-keyboard-response,80,1068887,0.0-4.0-0.38,226,1,2025-05-06T02:45:31Z,b60275e29fe2361ab97ac0ac217840d7,"Mozilla/5.0 (Macintosh; Intel Mac OS X 10_15_7) AppleWebKit/537.36 (KHTML, like Gecko) Chrome/135.0.0.0 Safari/537.36",Macintosh,Chrome,135.0.0.0,OS X,10_15_7,https://5puzkbbxv1.cognition.run/?sona_id=58249,"en-US,en;q=0.9",ldutrfafmo6mp8p,20,"[""White""]",No,Female,NA,No,1331147.6000000238,NA,null,<p></p>,null,choice,tcd,trinary,repulsion_A,1,washing machines,null,null,null,null,null,null,1,NA,NA,NA,NA,NA,NA,NA,NA,NA,NA
NA,NA,NA,NA,NA,choice_trial,survey-html-form,81,1093771,0.0-4.0-1.38,226,1,2025-05-06T02:45:31Z,b60275e29fe2361ab97ac0ac217840d7,"Mozilla/5.0 (Macintosh; Intel Mac OS X 10_15_7) AppleWebKit/537.36 (KHTML, like Gecko) Chrome/135.0.0.0 Safari/537.36",Macintosh,Chrome,135.0.0.0,OS X,10_15_7,https://5puzkbbxv1.cognition.run/?sona_id=58249,"en-US,en;q=0.9",ldutrfafmo6mp8p,20,"[""White""]",No,Female,NA,No,1331147.6000000238,NA,24878,NA,"{""product_choice"":""B""}",choice,tcd,trinary,repulsion_A,1,washing machines,null,null,null,null,null,null,1,100,90,100,30,40,20,Average lifespan,Energy savings,NA,NA
NA,NA,NA,NA,NA,choice_trial_setup,html-keyboard-response,82,1094075,0.0-4.0-0.39,226,1,2025-05-06T02:45:31Z,b60275e29fe2361ab97ac0ac217840d7,"Mozilla/5.0 (Macintosh; Intel Mac OS X 10_15_7) AppleWebKit/537.36 (KHTML, like Gecko) Chrome/135.0.0.0 Safari/537.36",Macintosh,Chrome,135.0.0.0,OS X,10_15_7,https://5puzkbbxv1.cognition.run/?sona_id=58249,"en-US,en;q=0.9",ldutrfafmo6mp8p,20,"[""White""]",No,Female,NA,No,1331147.6000000238,NA,null,<p></p>,null,choice,tcd,trinary,repulsion_A,2,televisions,null,null,null,null,null,null,1,NA,NA,NA,NA,NA,NA,NA,NA,NA,NA
NA,NA,NA,NA,NA,choice_trial,survey-html-form,83,1099522,0.0-4.0-1.39,226,1,2025-05-06T02:45:31Z,b60275e29fe2361ab97ac0ac217840d7,"Mozilla/5.0 (Macintosh; Intel Mac OS X 10_15_7) AppleWebKit/537.36 (KHTML, like Gecko) Chrome/135.0.0.0 Safari/537.36",Macintosh,Chrome,135.0.0.0,OS X,10_15_7,https://5puzkbbxv1.cognition.run/?sona_id=58249,"en-US,en;q=0.9",ldutrfafmo6mp8p,20,"[""White""]",No,Female,NA,No,1331147.6000000238,NA,5442,NA,"{""product_choice"":""B""}",choice,tcd,trinary,repulsion_A,2,televisions,null,null,null,null,null,null,1,30,40,20,100,90,100,Screen size,Average lifespan,NA,NA
NA,NA,NA,NA,NA,choice_trial_setup,html-keyboard-response,84,1099826,0.0-4.0-0.40,226,1,2025-05-06T02:45:31Z,b60275e29fe2361ab97ac0ac217840d7,"Mozilla/5.0 (Macintosh; Intel Mac OS X 10_15_7) AppleWebKit/537.36 (KHTML, like Gecko) Chrome/135.0.0.0 Safari/537.36",Macintosh,Chrome,135.0.0.0,OS X,10_15_7,https://5puzkbbxv1.cognition.run/?sona_id=58249,"en-US,en;q=0.9",ldutrfafmo6mp8p,20,"[""White""]",No,Female,NA,No,1331147.6000000238,NA,null,<p></p>,null,choice,tc,binary,repulsion,2,microwave ovens,null,null,null,null,null,null,2,NA,NA,NA,NA,NA,NA,NA,NA,NA,NA
NA,NA,NA,NA,NA,choice_trial,survey-html-form,85,1105809,0.0-4.0-1.40,226,1,2025-05-06T02:45:31Z,b60275e29fe2361ab97ac0ac217840d7,"Mozilla/5.0 (Macintosh; Intel Mac OS X 10_15_7) AppleWebKit/537.36 (KHTML, like Gecko) Chrome/135.0.0.0 Safari/537.36",Macintosh,Chrome,135.0.0.0,OS X,10_15_7,https://5puzkbbxv1.cognition.run/?sona_id=58249,"en-US,en;q=0.9",ldutrfafmo6mp8p,20,"[""White""]",No,Female,NA,No,1331147.6000000238,NA,5978,NA,"{""product_choice"":""B""}",choice,tc,binary,repulsion,2,microwave ovens,null,null,null,null,null,null,2,30,40,null,100,90,null,Warranty,Cooking power,NA,NA
NA,NA,NA,NA,NA,choice_trial_setup,html-keyboard-response,86,1106113,0.0-4.0-0.41,226,1,2025-05-06T02:45:31Z,b60275e29fe2361ab97ac0ac217840d7,"Mozilla/5.0 (Macintosh; Intel Mac OS X 10_15_7) AppleWebKit/537.36 (KHTML, like Gecko) Chrome/135.0.0.0 Safari/537.36",Macintosh,Chrome,135.0.0.0,OS X,10_15_7,https://5puzkbbxv1.cognition.run/?sona_id=58249,"en-US,en;q=0.9",ldutrfafmo6mp8p,20,"[""White""]",No,Female,NA,No,1331147.6000000238,NA,null,<p></p>,null,choice,dct,trinary,repulsion_B,2,laptops,null,null,null,null,null,null,1,NA,NA,NA,NA,NA,NA,NA,NA,NA,NA
NA,NA,NA,NA,NA,choice_trial,survey-html-form,87,1112769,0.0-4.0-1.41,226,1,2025-05-06T02:45:31Z,b60275e29fe2361ab97ac0ac217840d7,"Mozilla/5.0 (Macintosh; Intel Mac OS X 10_15_7) AppleWebKit/537.36 (KHTML, like Gecko) Chrome/135.0.0.0 Safari/537.36",Macintosh,Chrome,135.0.0.0,OS X,10_15_7,https://5puzkbbxv1.cognition.run/?sona_id=58249,"en-US,en;q=0.9",ldutrfafmo6mp8p,20,"[""White""]",No,Female,NA,No,1331147.6000000238,NA,6651,NA,"{""product_choice"":""C""}",choice,dct,trinary,repulsion_B,2,laptops,null,null,null,null,null,null,1,40,30,40,90,100,80,Processing speed,Memory (RAM),NA,NA
NA,NA,NA,NA,NA,choice_trial_setup,html-keyboard-response,88,1113073,0.0-4.0-0.42,226,1,2025-05-06T02:45:31Z,b60275e29fe2361ab97ac0ac217840d7,"Mozilla/5.0 (Macintosh; Intel Mac OS X 10_15_7) AppleWebKit/537.36 (KHTML, like Gecko) Chrome/135.0.0.0 Safari/537.36",Macintosh,Chrome,135.0.0.0,OS X,10_15_7,https://5puzkbbxv1.cognition.run/?sona_id=58249,"en-US,en;q=0.9",ldutrfafmo6mp8p,20,"[""White""]",No,Female,NA,No,1331147.6000000238,NA,null,<p></p>,null,choice,wbw,trinary,catch,null,laptops,60,65,45,20,20,10,1,NA,NA,NA,NA,NA,NA,NA,NA,NA,NA
NA,NA,NA,NA,NA,choice_trial,survey-html-form,89,1122310,0.0-4.0-1.42,226,1,2025-05-06T02:45:31Z,b60275e29fe2361ab97ac0ac217840d7,"Mozilla/5.0 (Macintosh; Intel Mac OS X 10_15_7) AppleWebKit/537.36 (KHTML, like Gecko) Chrome/135.0.0.0 Safari/537.36",Macintosh,Chrome,135.0.0.0,OS X,10_15_7,https://5puzkbbxv1.cognition.run/?sona_id=58249,"en-US,en;q=0.9",ldutrfafmo6mp8p,20,"[""White""]",No,Female,NA,No,1331147.6000000238,NA,9233,NA,"{""product_choice"":""B""}",choice,wbw,trinary,catch,null,laptops,60,65,45,20,20,10,1,null,null,null,null,null,null,Processing speed,Memory (RAM),NA,NA
NA,NA,NA,NA,NA,choice_trial_setup,html-keyboard-response,90,1122615,0.0-4.0-0.43,226,1,2025-05-06T02:45:31Z,b60275e29fe2361ab97ac0ac217840d7,"Mozilla/5.0 (Macintosh; Intel Mac OS X 10_15_7) AppleWebKit/537.36 (KHTML, like Gecko) Chrome/135.0.0.0 Safari/537.36",Macintosh,Chrome,135.0.0.0,OS X,10_15_7,https://5puzkbbxv1.cognition.run/?sona_id=58249,"en-US,en;q=0.9",ldutrfafmo6mp8p,20,"[""White""]",No,Female,NA,No,1331147.6000000238,NA,null,<p></p>,null,choice,ctd,trinary,repulsion_B,2,microwave ovens,null,null,null,null,null,null,1,NA,NA,NA,NA,NA,NA,NA,NA,NA,NA
NA,NA,NA,NA,NA,choice_trial,survey-html-form,91,1130992,0.0-4.0-1.43,226,1,2025-05-06T02:45:31Z,b60275e29fe2361ab97ac0ac217840d7,"Mozilla/5.0 (Macintosh; Intel Mac OS X 10_15_7) AppleWebKit/537.36 (KHTML, like Gecko) Chrome/135.0.0.0 Safari/537.36",Macintosh,Chrome,135.0.0.0,OS X,10_15_7,https://5puzkbbxv1.cognition.run/?sona_id=58249,"en-US,en;q=0.9",ldutrfafmo6mp8p,20,"[""White""]",No,Female,NA,No,1331147.6000000238,NA,8372,NA,"{""product_choice"":""B""}",choice,ctd,trinary,repulsion_B,2,microwave ovens,null,null,null,null,null,null,1,40,30,40,90,100,80,Warranty,Cooking power,NA,NA
NA,NA,NA,NA,NA,post_trials_message,html-button-response,92,1135841,0.0-5.0,226,1,2025-05-06T02:45:31Z,b60275e29fe2361ab97ac0ac217840d7,"Mozilla/5.0 (Macintosh; Intel Mac OS X 10_15_7) AppleWebKit/537.36 (KHTML, like Gecko) Chrome/135.0.0.0 Safari/537.36",Macintosh,Chrome,135.0.0.0,OS X,10_15_7,https://5puzkbbxv1.cognition.run/?sona_id=58249,"en-US,en;q=0.9",ldutrfafmo6mp8p,20,"[""White""]",No,Female,NA,No,1331147.6000000238,NA,4845,<p> <b>Thank you for your patience!</b></p><p>  The study will be done after completing a brief form. </p>,0,NA,NA,NA,NA,NA,NA,NA,NA,NA,NA,NA,NA,NA,NA,NA,NA,NA,NA,NA,NA,NA,NA,NA
NA,NA,NA,NA,NA,survey_message,survey-text,93,1254757,0.0-6.0,226,1,2025-05-06T02:45:31Z,b60275e29fe2361ab97ac0ac217840d7,"Mozilla/5.0 (Macintosh; Intel Mac OS X 10_15_7) AppleWebKit/537.36 (KHTML, like Gecko) Chrome/135.0.0.0 Safari/537.36",Macintosh,Chrome,135.0.0.0,OS X,10_15_7,https://5puzkbbxv1.cognition.run/?sona_id=58249,"en-US,en;q=0.9",ldutrfafmo6mp8p,20,"[""White""]",No,Female,NA,No,1331147.6000000238,NA,118907,NA,"{""Q0"":""I chose what I felt was more important between the two and geared towards that. If the number of the other choice was becoming very low then i would then raise that side a little bit and lower the side I cared about more just a little amount.""}",NA,NA,NA,NA,NA,NA,NA,NA,NA,NA,NA,NA,NA,NA,NA,NA,NA,NA,NA,NA,NA,I chose what I felt was more important between the two and geared towards that. If the number of the other choice was becoming very low then i would then raise that side a little bit and lower the side I cared about more just a little amount.,NA
NA,NA,NA,NA,NA,demo_age,survey-text,94,1257449,0.0-7.0,226,1,2025-05-06T02:45:31Z,b60275e29fe2361ab97ac0ac217840d7,"Mozilla/5.0 (Macintosh; Intel Mac OS X 10_15_7) AppleWebKit/537.36 (KHTML, like Gecko) Chrome/135.0.0.0 Safari/537.36",Macintosh,Chrome,135.0.0.0,OS X,10_15_7,https://5puzkbbxv1.cognition.run/?sona_id=58249,"en-US,en;q=0.9",ldutrfafmo6mp8p,20,"[""White""]",No,Female,NA,No,1331147.6000000238,NA,2688,NA,"{""Q0"":""20""}",NA,NA,NA,NA,NA,NA,NA,NA,NA,NA,NA,NA,NA,NA,NA,NA,NA,NA,NA,NA,NA,NA,NA
NA,NA,NA,NA,NA,demo_race,survey-multi-select,95,1260210,0.0-8.0,226,1,2025-05-06T02:45:31Z,b60275e29fe2361ab97ac0ac217840d7,"Mozilla/5.0 (Macintosh; Intel Mac OS X 10_15_7) AppleWebKit/537.36 (KHTML, like Gecko) Chrome/135.0.0.0 Safari/537.36",Macintosh,Chrome,135.0.0.0,OS X,10_15_7,https://5puzkbbxv1.cognition.run/?sona_id=58249,"en-US,en;q=0.9",ldutrfafmo6mp8p,20,"[""White""]",No,Female,NA,No,1331147.6000000238,NA,2755,NA,"{""Q0"":[""White""]}",NA,NA,NA,NA,NA,NA,NA,NA,NA,NA,NA,NA,NA,NA,NA,NA,NA,NA,NA,NA,NA,NA,[0]
NA,NA,NA,NA,NA,demo_ethnicity_gender,survey-multi-choice,96,1264240,0.0-9.0,226,1,2025-05-06T02:45:31Z,b60275e29fe2361ab97ac0ac217840d7,"Mozilla/5.0 (Macintosh; Intel Mac OS X 10_15_7) AppleWebKit/537.36 (KHTML, like Gecko) Chrome/135.0.0.0 Safari/537.36",Macintosh,Chrome,135.0.0.0,OS X,10_15_7,https://5puzkbbxv1.cognition.run/?sona_id=58249,"en-US,en;q=0.9",ldutrfafmo6mp8p,20,"[""White""]",No,Female,NA,No,1331147.6000000238,NA,4025,NA,"{""Q0"":""No"",""Q1"":""Female""}",NA,NA,NA,NA,NA,NA,NA,NA,NA,NA,NA,NA,NA,NA,NA,NA,NA,NA,NA,NA,NA,NA,"[0,1]"
NA,NA,NA,NA,NA,demo_countries,survey-text,97,1272753,0.0-10.0,226,1,2025-05-06T02:45:31Z,b60275e29fe2361ab97ac0ac217840d7,"Mozilla/5.0 (Macintosh; Intel Mac OS X 10_15_7) AppleWebKit/537.36 (KHTML, like Gecko) Chrome/135.0.0.0 Safari/537.36",Macintosh,Chrome,135.0.0.0,OS X,10_15_7,https://5puzkbbxv1.cognition.run/?sona_id=58249,"en-US,en;q=0.9",ldutrfafmo6mp8p,20,"[""White""]",No,Female,NA,No,1331147.6000000238,NA,8496,NA,"{""Q0"":""NA""}",NA,NA,NA,NA,NA,NA,NA,NA,NA,NA,NA,NA,NA,NA,NA,NA,NA,NA,NA,NA,NA,NA,NA
NA,NA,NA,NA,NA,demo_prev_study,survey-multi-choice,98,1280550,0.0-11.0,226,1,2025-05-06T02:45:31Z,b60275e29fe2361ab97ac0ac217840d7,"Mozilla/5.0 (Macintosh; Intel Mac OS X 10_15_7) AppleWebKit/537.36 (KHTML, like Gecko) Chrome/135.0.0.0 Safari/537.36",Macintosh,Chrome,135.0.0.0,OS X,10_15_7,https://5puzkbbxv1.cognition.run/?sona_id=58249,"en-US,en;q=0.9",ldutrfafmo6mp8p,20,"[""White""]",No,Female,NA,No,1331147.6000000238,NA,7792,NA,"{""Q0"":""No""}",NA,NA,NA,NA,NA,NA,NA,NA,NA,NA,NA,NA,NA,NA,NA,NA,NA,NA,NA,NA,NA,NA,[0]
NA,NA,NA,NA,NA,post_survey_message,html-keyboard-response,99,1285524,0.0-12.0,226,1,2025-05-06T02:45:31Z,b60275e29fe2361ab97ac0ac217840d7,"Mozilla/5.0 (Macintosh; Intel Mac OS X 10_15_7) AppleWebKit/537.36 (KHTML, like Gecko) Chrome/135.0.0.0 Safari/537.36",Macintosh,Chrome,135.0.0.0,OS X,10_15_7,https://5puzkbbxv1.cognition.run/?sona_id=58249,"en-US,en;q=0.9",ldutrfafmo6mp8p,20,"[""White""]",No,Female,NA,No,1331147.6000000238,NA,4970,NA,j,NA,NA,NA,NA,NA,NA,NA,NA,NA,NA,NA,NA,NA,NA,NA,NA,NA,NA,NA,NA,NA,NA,NA
NA,NA,NA,NA,NA,debrief,image-keyboard-response,100,1331186,0.0-13.0,226,1,2025-05-06T02:45:31Z,b60275e29fe2361ab97ac0ac217840d7,"Mozilla/5.0 (Macintosh; Intel Mac OS X 10_15_7) AppleWebKit/537.36 (KHTML, like Gecko) Chrome/135.0.0.0 Safari/537.36",Macintosh,Chrome,135.0.0.0,OS X,10_15_7,https://5puzkbbxv1.cognition.run/?sona_id=58249,"en-US,en;q=0.9",ldutrfafmo6mp8p,20,"[""White""]",No,Female,NA,No,1331147.6000000238,NA,45656,Judg_choice_debrief.png,p,NA,NA,NA,NA,NA,NA,NA,NA,NA,NA,NA,NA,NA,NA,NA,NA,NA,NA,NA,NA,NA,NA,NA
