success,timeout,failed_images,failed_audio,failed_video,screen_id,trial_type,trial_index,time_elapsed,internal_node_id,run_id,condition,recorded_at,source_code_version,user_agent,device,browser,browser_version,platform,platform_version,referer,accept_language,ppt_id,age,race,ethnicity,gender,other_countries,prev_study,exp_duration,view_history,rt,stimulus,response,phase,order,set,effect,t_high,category,d1_best,d2_best,d1_worst1,d2_worst1,d1_worst2,d2_worst2,first_dim,d1_t,d1_c,d1_d,d2_t,d2_c,d2_d,d1_name,d2_name,strategy_response,question_order
TRUE,FALSE,[],[],[],img preload,preload,0,1272,0.0-0.0,227,1,2025-05-06T02:48:30Z,b60275e29fe2361ab97ac0ac217840d7,"Mozilla/5.0 (Macintosh; Intel Mac OS X 10_15_7) AppleWebKit/605.1.15 (KHTML, like Gecko) Version/17.5 Safari/605.1.15",Macintosh,Safari,17.5,OS X,10_15_7,https://5puzkbbxv1.cognition.run/?sona_id=56931,"en-US,en;q=0.9",orx0gwptnvh5x4p,21,"[""Asian""]",No,Male,Pakistan,No,350155,NA,NA,NA,NA,NA,NA,NA,NA,NA,NA,NA,NA,NA,NA,NA,NA,NA,NA,NA,NA,NA,NA,NA,NA,NA,NA,NA
NA,NA,NA,NA,NA,computer_message,instructions,1,4004,0.0-1.0,227,1,2025-05-06T02:48:30Z,b60275e29fe2361ab97ac0ac217840d7,"Mozilla/5.0 (Macintosh; Intel Mac OS X 10_15_7) AppleWebKit/605.1.15 (KHTML, like Gecko) Version/17.5 Safari/605.1.15",Macintosh,Safari,17.5,OS X,10_15_7,https://5puzkbbxv1.cognition.run/?sona_id=56931,"en-US,en;q=0.9",orx0gwptnvh5x4p,21,"[""Asian""]",No,Male,Pakistan,No,350155,"[{""page_index"":0,""viewing_time"":2728}]",2728,NA,NA,NA,NA,NA,NA,NA,NA,NA,NA,NA,NA,NA,NA,NA,NA,NA,NA,NA,NA,NA,NA,NA,NA,NA
TRUE,NA,NA,NA,NA,NA,fullscreen,2,6392,0.0-2.0,227,1,2025-05-06T02:48:30Z,b60275e29fe2361ab97ac0ac217840d7,"Mozilla/5.0 (Macintosh; Intel Mac OS X 10_15_7) AppleWebKit/605.1.15 (KHTML, like Gecko) Version/17.5 Safari/605.1.15",Macintosh,Safari,17.5,OS X,10_15_7,https://5puzkbbxv1.cognition.run/?sona_id=56931,"en-US,en;q=0.9",orx0gwptnvh5x4p,21,"[""Asian""]",No,Male,Pakistan,No,350155,NA,1381,NA,NA,NA,NA,NA,NA,NA,NA,NA,NA,NA,NA,NA,NA,NA,NA,NA,NA,NA,NA,NA,NA,NA,NA,NA
NA,NA,NA,NA,NA,choice_instructions,instructions,3,45089,0.0-3.0,227,1,2025-05-06T02:48:30Z,b60275e29fe2361ab97ac0ac217840d7,"Mozilla/5.0 (Macintosh; Intel Mac OS X 10_15_7) AppleWebKit/605.1.15 (KHTML, like Gecko) Version/17.5 Safari/605.1.15",Macintosh,Safari,17.5,OS X,10_15_7,https://5puzkbbxv1.cognition.run/?sona_id=56931,"en-US,en;q=0.9",orx0gwptnvh5x4p,21,"[""Asian""]",No,Male,Pakistan,No,350155,"[{""page_index"":0,""viewing_time"":5444},{""page_index"":1,""viewing_time"":2265},{""page_index"":2,""viewing_time"":3384},{""page_index"":3,""viewing_time"":2534},{""page_index"":4,""viewing_time"":1333},{""page_index"":5,""viewing_time"":18534},{""page_index"":6,""viewing_time"":5200}]",38694,NA,NA,NA,NA,NA,NA,NA,NA,NA,NA,NA,NA,NA,NA,NA,NA,NA,NA,NA,NA,NA,NA,NA,NA,NA
NA,NA,NA,NA,NA,choice_trial_setup,html-keyboard-response,4,45395,0.0-4.0-0.0,227,1,2025-05-06T02:48:30Z,b60275e29fe2361ab97ac0ac217840d7,"Mozilla/5.0 (Macintosh; Intel Mac OS X 10_15_7) AppleWebKit/605.1.15 (KHTML, like Gecko) Version/17.5 Safari/605.1.15",Macintosh,Safari,17.5,OS X,10_15_7,https://5puzkbbxv1.cognition.run/?sona_id=56931,"en-US,en;q=0.9",orx0gwptnvh5x4p,21,"[""Asian""]",No,Male,Pakistan,No,350155,NA,null,<p></p>,null,choice,tc,binary,attraction,NA,laptops,null,null,null,null,null,null,1,NA,NA,NA,NA,NA,NA,NA,NA,NA,NA
NA,NA,NA,NA,NA,choice_trial,survey-html-form,5,53857,0.0-4.0-1.0,227,1,2025-05-06T02:48:30Z,b60275e29fe2361ab97ac0ac217840d7,"Mozilla/5.0 (Macintosh; Intel Mac OS X 10_15_7) AppleWebKit/605.1.15 (KHTML, like Gecko) Version/17.5 Safari/605.1.15",Macintosh,Safari,17.5,OS X,10_15_7,https://5puzkbbxv1.cognition.run/?sona_id=56931,"en-US,en;q=0.9",orx0gwptnvh5x4p,21,"[""Asian""]",No,Male,Pakistan,No,350155,NA,8450,NA,"{""product_choice"":""A""}",choice,tc,binary,attraction,NA,laptops,null,null,null,null,null,null,1,60,50,null,50,60,null,Processing speed,Memory (RAM),NA,NA
NA,NA,NA,NA,NA,choice_trial_setup,html-keyboard-response,6,54159,0.0-4.0-0.1,227,1,2025-05-06T02:48:30Z,b60275e29fe2361ab97ac0ac217840d7,"Mozilla/5.0 (Macintosh; Intel Mac OS X 10_15_7) AppleWebKit/605.1.15 (KHTML, like Gecko) Version/17.5 Safari/605.1.15",Macintosh,Safari,17.5,OS X,10_15_7,https://5puzkbbxv1.cognition.run/?sona_id=56931,"en-US,en;q=0.9",orx0gwptnvh5x4p,21,"[""Asian""]",No,Male,Pakistan,No,350155,NA,null,<p></p>,null,choice,cdt,trinary,attraction,1,televisions,null,null,null,null,null,null,1,NA,NA,NA,NA,NA,NA,NA,NA,NA,NA
NA,NA,NA,NA,NA,choice_trial,survey-html-form,7,62459,0.0-4.0-1.1,227,1,2025-05-06T02:48:30Z,b60275e29fe2361ab97ac0ac217840d7,"Mozilla/5.0 (Macintosh; Intel Mac OS X 10_15_7) AppleWebKit/605.1.15 (KHTML, like Gecko) Version/17.5 Safari/605.1.15",Macintosh,Safari,17.5,OS X,10_15_7,https://5puzkbbxv1.cognition.run/?sona_id=56931,"en-US,en;q=0.9",orx0gwptnvh5x4p,21,"[""Asian""]",No,Male,Pakistan,No,350155,NA,8289,NA,"{""product_choice"":""C""}",choice,cdt,trinary,attraction,1,televisions,null,null,null,null,null,null,1,60,50,60,50,60,40,Screen size,Average lifespan,NA,NA
NA,NA,NA,NA,NA,choice_trial_setup,html-keyboard-response,8,62761,0.0-4.0-0.2,227,1,2025-05-06T02:48:30Z,b60275e29fe2361ab97ac0ac217840d7,"Mozilla/5.0 (Macintosh; Intel Mac OS X 10_15_7) AppleWebKit/605.1.15 (KHTML, like Gecko) Version/17.5 Safari/605.1.15",Macintosh,Safari,17.5,OS X,10_15_7,https://5puzkbbxv1.cognition.run/?sona_id=56931,"en-US,en;q=0.9",orx0gwptnvh5x4p,21,"[""Asian""]",No,Male,Pakistan,No,350155,NA,null,<p></p>,null,choice,tc,binary,repulsion,1,laptops,null,null,null,null,null,null,2,NA,NA,NA,NA,NA,NA,NA,NA,NA,NA
NA,NA,NA,NA,NA,choice_trial,survey-html-form,9,69724,0.0-4.0-1.2,227,1,2025-05-06T02:48:30Z,b60275e29fe2361ab97ac0ac217840d7,"Mozilla/5.0 (Macintosh; Intel Mac OS X 10_15_7) AppleWebKit/605.1.15 (KHTML, like Gecko) Version/17.5 Safari/605.1.15",Macintosh,Safari,17.5,OS X,10_15_7,https://5puzkbbxv1.cognition.run/?sona_id=56931,"en-US,en;q=0.9",orx0gwptnvh5x4p,21,"[""Asian""]",No,Male,Pakistan,No,350155,NA,6951,NA,"{""product_choice"":""B""}",choice,tc,binary,repulsion,1,laptops,null,null,null,null,null,null,2,100,90,null,30,40,null,Processing speed,Memory (RAM),NA,NA
NA,NA,NA,NA,NA,choice_trial_setup,html-keyboard-response,10,70027,0.0-4.0-0.3,227,1,2025-05-06T02:48:30Z,b60275e29fe2361ab97ac0ac217840d7,"Mozilla/5.0 (Macintosh; Intel Mac OS X 10_15_7) AppleWebKit/605.1.15 (KHTML, like Gecko) Version/17.5 Safari/605.1.15",Macintosh,Safari,17.5,OS X,10_15_7,https://5puzkbbxv1.cognition.run/?sona_id=56931,"en-US,en;q=0.9",orx0gwptnvh5x4p,21,"[""Asian""]",No,Male,Pakistan,No,350155,NA,null,<p></p>,null,choice,tcd,trinary,repulsion_A,1,microwave ovens,null,null,null,null,null,null,2,NA,NA,NA,NA,NA,NA,NA,NA,NA,NA
NA,NA,NA,NA,NA,choice_trial,survey-html-form,11,74209,0.0-4.0-1.3,227,1,2025-05-06T02:48:30Z,b60275e29fe2361ab97ac0ac217840d7,"Mozilla/5.0 (Macintosh; Intel Mac OS X 10_15_7) AppleWebKit/605.1.15 (KHTML, like Gecko) Version/17.5 Safari/605.1.15",Macintosh,Safari,17.5,OS X,10_15_7,https://5puzkbbxv1.cognition.run/?sona_id=56931,"en-US,en;q=0.9",orx0gwptnvh5x4p,21,"[""Asian""]",No,Male,Pakistan,No,350155,NA,4170,NA,"{""product_choice"":""B""}",choice,tcd,trinary,repulsion_A,1,microwave ovens,null,null,null,null,null,null,2,100,90,100,30,40,20,Warranty,Cooking power,NA,NA
NA,NA,NA,NA,NA,choice_trial_setup,html-keyboard-response,12,74513,0.0-4.0-0.4,227,1,2025-05-06T02:48:30Z,b60275e29fe2361ab97ac0ac217840d7,"Mozilla/5.0 (Macintosh; Intel Mac OS X 10_15_7) AppleWebKit/605.1.15 (KHTML, like Gecko) Version/17.5 Safari/605.1.15",Macintosh,Safari,17.5,OS X,10_15_7,https://5puzkbbxv1.cognition.run/?sona_id=56931,"en-US,en;q=0.9",orx0gwptnvh5x4p,21,"[""Asian""]",No,Male,Pakistan,No,350155,NA,null,<p></p>,null,choice,wb,binary,catch,null,televisions,55,75,30,35,null,null,2,NA,NA,NA,NA,NA,NA,NA,NA,NA,NA
NA,NA,NA,NA,NA,choice_trial,survey-html-form,13,81174,0.0-4.0-1.4,227,1,2025-05-06T02:48:30Z,b60275e29fe2361ab97ac0ac217840d7,"Mozilla/5.0 (Macintosh; Intel Mac OS X 10_15_7) AppleWebKit/605.1.15 (KHTML, like Gecko) Version/17.5 Safari/605.1.15",Macintosh,Safari,17.5,OS X,10_15_7,https://5puzkbbxv1.cognition.run/?sona_id=56931,"en-US,en;q=0.9",orx0gwptnvh5x4p,21,"[""Asian""]",No,Male,Pakistan,No,350155,NA,6650,NA,"{""product_choice"":""B""}",choice,wb,binary,catch,null,televisions,55,75,30,35,null,null,2,null,null,null,null,null,null,Screen size,Average lifespan,NA,NA
NA,NA,NA,NA,NA,choice_trial_setup,html-keyboard-response,14,81478,0.0-4.0-0.5,227,1,2025-05-06T02:48:30Z,b60275e29fe2361ab97ac0ac217840d7,"Mozilla/5.0 (Macintosh; Intel Mac OS X 10_15_7) AppleWebKit/605.1.15 (KHTML, like Gecko) Version/17.5 Safari/605.1.15",Macintosh,Safari,17.5,OS X,10_15_7,https://5puzkbbxv1.cognition.run/?sona_id=56931,"en-US,en;q=0.9",orx0gwptnvh5x4p,21,"[""Asian""]",No,Male,Pakistan,No,350155,NA,null,<p></p>,null,choice,ctd,trinary,repulsion_B,2,laptops,null,null,null,null,null,null,1,NA,NA,NA,NA,NA,NA,NA,NA,NA,NA
NA,NA,NA,NA,NA,choice_trial,survey-html-form,15,87194,0.0-4.0-1.5,227,1,2025-05-06T02:48:30Z,b60275e29fe2361ab97ac0ac217840d7,"Mozilla/5.0 (Macintosh; Intel Mac OS X 10_15_7) AppleWebKit/605.1.15 (KHTML, like Gecko) Version/17.5 Safari/605.1.15",Macintosh,Safari,17.5,OS X,10_15_7,https://5puzkbbxv1.cognition.run/?sona_id=56931,"en-US,en;q=0.9",orx0gwptnvh5x4p,21,"[""Asian""]",No,Male,Pakistan,No,350155,NA,5702,NA,"{""product_choice"":""B""}",choice,ctd,trinary,repulsion_B,2,laptops,null,null,null,null,null,null,1,40,30,40,90,100,80,Processing speed,Memory (RAM),NA,NA
NA,NA,NA,NA,NA,choice_trial_setup,html-keyboard-response,16,87497,0.0-4.0-0.6,227,1,2025-05-06T02:48:30Z,b60275e29fe2361ab97ac0ac217840d7,"Mozilla/5.0 (Macintosh; Intel Mac OS X 10_15_7) AppleWebKit/605.1.15 (KHTML, like Gecko) Version/17.5 Safari/605.1.15",Macintosh,Safari,17.5,OS X,10_15_7,https://5puzkbbxv1.cognition.run/?sona_id=56931,"en-US,en;q=0.9",orx0gwptnvh5x4p,21,"[""Asian""]",No,Male,Pakistan,No,350155,NA,null,<p></p>,null,choice,tc,binary,repulsion,1,washing machines,null,null,null,null,null,null,1,NA,NA,NA,NA,NA,NA,NA,NA,NA,NA
NA,NA,NA,NA,NA,choice_trial,survey-html-form,17,92642,0.0-4.0-1.6,227,1,2025-05-06T02:48:30Z,b60275e29fe2361ab97ac0ac217840d7,"Mozilla/5.0 (Macintosh; Intel Mac OS X 10_15_7) AppleWebKit/605.1.15 (KHTML, like Gecko) Version/17.5 Safari/605.1.15",Macintosh,Safari,17.5,OS X,10_15_7,https://5puzkbbxv1.cognition.run/?sona_id=56931,"en-US,en;q=0.9",orx0gwptnvh5x4p,21,"[""Asian""]",No,Male,Pakistan,No,350155,NA,5133,NA,"{""product_choice"":""B""}",choice,tc,binary,repulsion,1,washing machines,null,null,null,null,null,null,1,100,90,null,30,40,null,Average lifespan,Energy savings,NA,NA
NA,NA,NA,NA,NA,choice_trial_setup,html-keyboard-response,18,92946,0.0-4.0-0.7,227,1,2025-05-06T02:48:30Z,b60275e29fe2361ab97ac0ac217840d7,"Mozilla/5.0 (Macintosh; Intel Mac OS X 10_15_7) AppleWebKit/605.1.15 (KHTML, like Gecko) Version/17.5 Safari/605.1.15",Macintosh,Safari,17.5,OS X,10_15_7,https://5puzkbbxv1.cognition.run/?sona_id=56931,"en-US,en;q=0.9",orx0gwptnvh5x4p,21,"[""Asian""]",No,Male,Pakistan,No,350155,NA,null,<p></p>,null,choice,wb,binary,catch,null,washing machines,60,90,15,10,null,null,2,NA,NA,NA,NA,NA,NA,NA,NA,NA,NA
NA,NA,NA,NA,NA,choice_trial,survey-html-form,19,104092,0.0-4.0-1.7,227,1,2025-05-06T02:48:30Z,b60275e29fe2361ab97ac0ac217840d7,"Mozilla/5.0 (Macintosh; Intel Mac OS X 10_15_7) AppleWebKit/605.1.15 (KHTML, like Gecko) Version/17.5 Safari/605.1.15",Macintosh,Safari,17.5,OS X,10_15_7,https://5puzkbbxv1.cognition.run/?sona_id=56931,"en-US,en;q=0.9",orx0gwptnvh5x4p,21,"[""Asian""]",No,Male,Pakistan,No,350155,NA,11135,NA,"{""product_choice"":""B""}",choice,wb,binary,catch,null,washing machines,60,90,15,10,null,null,2,null,null,null,null,null,null,Average lifespan,Energy savings,NA,NA
NA,NA,NA,NA,NA,choice_trial_setup,html-keyboard-response,20,104395,0.0-4.0-0.8,227,1,2025-05-06T02:48:30Z,b60275e29fe2361ab97ac0ac217840d7,"Mozilla/5.0 (Macintosh; Intel Mac OS X 10_15_7) AppleWebKit/605.1.15 (KHTML, like Gecko) Version/17.5 Safari/605.1.15",Macintosh,Safari,17.5,OS X,10_15_7,https://5puzkbbxv1.cognition.run/?sona_id=56931,"en-US,en;q=0.9",orx0gwptnvh5x4p,21,"[""Asian""]",No,Male,Pakistan,No,350155,NA,null,<p></p>,null,choice,bww,trinary,catch,null,televisions,85,60,25,30,35,50,2,NA,NA,NA,NA,NA,NA,NA,NA,NA,NA
NA,NA,NA,NA,NA,choice_trial,survey-html-form,21,107391,0.0-4.0-1.8,227,1,2025-05-06T02:48:30Z,b60275e29fe2361ab97ac0ac217840d7,"Mozilla/5.0 (Macintosh; Intel Mac OS X 10_15_7) AppleWebKit/605.1.15 (KHTML, like Gecko) Version/17.5 Safari/605.1.15",Macintosh,Safari,17.5,OS X,10_15_7,https://5puzkbbxv1.cognition.run/?sona_id=56931,"en-US,en;q=0.9",orx0gwptnvh5x4p,21,"[""Asian""]",No,Male,Pakistan,No,350155,NA,2985,NA,"{""product_choice"":""A""}",choice,bww,trinary,catch,null,televisions,85,60,25,30,35,50,2,null,null,null,null,null,null,Screen size,Average lifespan,NA,NA
NA,NA,NA,NA,NA,choice_trial_setup,html-keyboard-response,22,107694,0.0-4.0-0.9,227,1,2025-05-06T02:48:30Z,b60275e29fe2361ab97ac0ac217840d7,"Mozilla/5.0 (Macintosh; Intel Mac OS X 10_15_7) AppleWebKit/605.1.15 (KHTML, like Gecko) Version/17.5 Safari/605.1.15",Macintosh,Safari,17.5,OS X,10_15_7,https://5puzkbbxv1.cognition.run/?sona_id=56931,"en-US,en;q=0.9",orx0gwptnvh5x4p,21,"[""Asian""]",No,Male,Pakistan,No,350155,NA,null,<p></p>,null,choice,ctd,trinary,repulsion_B,1,laptops,null,null,null,null,null,null,2,NA,NA,NA,NA,NA,NA,NA,NA,NA,NA
NA,NA,NA,NA,NA,choice_trial,survey-html-form,23,118658,0.0-4.0-1.9,227,1,2025-05-06T02:48:30Z,b60275e29fe2361ab97ac0ac217840d7,"Mozilla/5.0 (Macintosh; Intel Mac OS X 10_15_7) AppleWebKit/605.1.15 (KHTML, like Gecko) Version/17.5 Safari/605.1.15",Macintosh,Safari,17.5,OS X,10_15_7,https://5puzkbbxv1.cognition.run/?sona_id=56931,"en-US,en;q=0.9",orx0gwptnvh5x4p,21,"[""Asian""]",No,Male,Pakistan,No,350155,NA,10953,NA,"{""product_choice"":""B""}",choice,ctd,trinary,repulsion_B,1,laptops,null,null,null,null,null,null,2,90,100,80,40,30,40,Processing speed,Memory (RAM),NA,NA
NA,NA,NA,NA,NA,choice_trial_setup,html-keyboard-response,24,118962,0.0-4.0-0.10,227,1,2025-05-06T02:48:30Z,b60275e29fe2361ab97ac0ac217840d7,"Mozilla/5.0 (Macintosh; Intel Mac OS X 10_15_7) AppleWebKit/605.1.15 (KHTML, like Gecko) Version/17.5 Safari/605.1.15",Macintosh,Safari,17.5,OS X,10_15_7,https://5puzkbbxv1.cognition.run/?sona_id=56931,"en-US,en;q=0.9",orx0gwptnvh5x4p,21,"[""Asian""]",No,Male,Pakistan,No,350155,NA,null,<p></p>,null,choice,tcd,trinary,repulsion_A,1,washing machines,null,null,null,null,null,null,1,NA,NA,NA,NA,NA,NA,NA,NA,NA,NA
NA,NA,NA,NA,NA,choice_trial,survey-html-form,25,121626,0.0-4.0-1.10,227,1,2025-05-06T02:48:30Z,b60275e29fe2361ab97ac0ac217840d7,"Mozilla/5.0 (Macintosh; Intel Mac OS X 10_15_7) AppleWebKit/605.1.15 (KHTML, like Gecko) Version/17.5 Safari/605.1.15",Macintosh,Safari,17.5,OS X,10_15_7,https://5puzkbbxv1.cognition.run/?sona_id=56931,"en-US,en;q=0.9",orx0gwptnvh5x4p,21,"[""Asian""]",No,Male,Pakistan,No,350155,NA,2653,NA,"{""product_choice"":""A""}",choice,tcd,trinary,repulsion_A,1,washing machines,null,null,null,null,null,null,1,100,90,100,30,40,20,Average lifespan,Energy savings,NA,NA
NA,NA,NA,NA,NA,choice_trial_setup,html-keyboard-response,26,121929,0.0-4.0-0.11,227,1,2025-05-06T02:48:30Z,b60275e29fe2361ab97ac0ac217840d7,"Mozilla/5.0 (Macintosh; Intel Mac OS X 10_15_7) AppleWebKit/605.1.15 (KHTML, like Gecko) Version/17.5 Safari/605.1.15",Macintosh,Safari,17.5,OS X,10_15_7,https://5puzkbbxv1.cognition.run/?sona_id=56931,"en-US,en;q=0.9",orx0gwptnvh5x4p,21,"[""Asian""]",No,Male,Pakistan,No,350155,NA,null,<p></p>,null,choice,dct,trinary,attraction,2,televisions,null,null,null,null,null,null,1,NA,NA,NA,NA,NA,NA,NA,NA,NA,NA
NA,NA,NA,NA,NA,choice_trial,survey-html-form,27,124626,0.0-4.0-1.11,227,1,2025-05-06T02:48:30Z,b60275e29fe2361ab97ac0ac217840d7,"Mozilla/5.0 (Macintosh; Intel Mac OS X 10_15_7) AppleWebKit/605.1.15 (KHTML, like Gecko) Version/17.5 Safari/605.1.15",Macintosh,Safari,17.5,OS X,10_15_7,https://5puzkbbxv1.cognition.run/?sona_id=56931,"en-US,en;q=0.9",orx0gwptnvh5x4p,21,"[""Asian""]",No,Male,Pakistan,No,350155,NA,2686,NA,"{""product_choice"":""B""}",choice,dct,trinary,attraction,2,televisions,null,null,null,null,null,null,1,50,60,40,60,50,60,Screen size,Average lifespan,NA,NA
NA,NA,NA,NA,NA,choice_trial_setup,html-keyboard-response,28,124929,0.0-4.0-0.12,227,1,2025-05-06T02:48:30Z,b60275e29fe2361ab97ac0ac217840d7,"Mozilla/5.0 (Macintosh; Intel Mac OS X 10_15_7) AppleWebKit/605.1.15 (KHTML, like Gecko) Version/17.5 Safari/605.1.15",Macintosh,Safari,17.5,OS X,10_15_7,https://5puzkbbxv1.cognition.run/?sona_id=56931,"en-US,en;q=0.9",orx0gwptnvh5x4p,21,"[""Asian""]",No,Male,Pakistan,No,350155,NA,null,<p></p>,null,choice,tdc,trinary,attraction,2,microwave ovens,null,null,null,null,null,null,1,NA,NA,NA,NA,NA,NA,NA,NA,NA,NA
NA,NA,NA,NA,NA,choice_trial,survey-html-form,29,130143,0.0-4.0-1.12,227,1,2025-05-06T02:48:30Z,b60275e29fe2361ab97ac0ac217840d7,"Mozilla/5.0 (Macintosh; Intel Mac OS X 10_15_7) AppleWebKit/605.1.15 (KHTML, like Gecko) Version/17.5 Safari/605.1.15",Macintosh,Safari,17.5,OS X,10_15_7,https://5puzkbbxv1.cognition.run/?sona_id=56931,"en-US,en;q=0.9",orx0gwptnvh5x4p,21,"[""Asian""]",No,Male,Pakistan,No,350155,NA,5205,NA,"{""product_choice"":""A""}",choice,tdc,trinary,attraction,2,microwave ovens,null,null,null,null,null,null,1,50,60,40,60,50,60,Warranty,Cooking power,NA,NA
NA,NA,NA,NA,NA,choice_trial_setup,html-keyboard-response,30,130446,0.0-4.0-0.13,227,1,2025-05-06T02:48:30Z,b60275e29fe2361ab97ac0ac217840d7,"Mozilla/5.0 (Macintosh; Intel Mac OS X 10_15_7) AppleWebKit/605.1.15 (KHTML, like Gecko) Version/17.5 Safari/605.1.15",Macintosh,Safari,17.5,OS X,10_15_7,https://5puzkbbxv1.cognition.run/?sona_id=56931,"en-US,en;q=0.9",orx0gwptnvh5x4p,21,"[""Asian""]",No,Male,Pakistan,No,350155,NA,null,<p></p>,null,choice,dct,trinary,repulsion_A,2,washing machines,null,null,null,null,null,null,1,NA,NA,NA,NA,NA,NA,NA,NA,NA,NA
NA,NA,NA,NA,NA,choice_trial,survey-html-form,31,133309,0.0-4.0-1.13,227,1,2025-05-06T02:48:30Z,b60275e29fe2361ab97ac0ac217840d7,"Mozilla/5.0 (Macintosh; Intel Mac OS X 10_15_7) AppleWebKit/605.1.15 (KHTML, like Gecko) Version/17.5 Safari/605.1.15",Macintosh,Safari,17.5,OS X,10_15_7,https://5puzkbbxv1.cognition.run/?sona_id=56931,"en-US,en;q=0.9",orx0gwptnvh5x4p,21,"[""Asian""]",No,Male,Pakistan,No,350155,NA,2850,NA,"{""product_choice"":""B""}",choice,dct,trinary,repulsion_A,2,washing machines,null,null,null,null,null,null,1,30,40,20,100,90,100,Average lifespan,Energy savings,NA,NA
NA,NA,NA,NA,NA,choice_trial_setup,html-keyboard-response,32,133613,0.0-4.0-0.14,227,1,2025-05-06T02:48:30Z,b60275e29fe2361ab97ac0ac217840d7,"Mozilla/5.0 (Macintosh; Intel Mac OS X 10_15_7) AppleWebKit/605.1.15 (KHTML, like Gecko) Version/17.5 Safari/605.1.15",Macintosh,Safari,17.5,OS X,10_15_7,https://5puzkbbxv1.cognition.run/?sona_id=56931,"en-US,en;q=0.9",orx0gwptnvh5x4p,21,"[""Asian""]",No,Male,Pakistan,No,350155,NA,null,<p></p>,null,choice,tc,binary,attraction,NA,microwave ovens,null,null,null,null,null,null,1,NA,NA,NA,NA,NA,NA,NA,NA,NA,NA
NA,NA,NA,NA,NA,choice_trial,survey-html-form,33,137525,0.0-4.0-1.14,227,1,2025-05-06T02:48:30Z,b60275e29fe2361ab97ac0ac217840d7,"Mozilla/5.0 (Macintosh; Intel Mac OS X 10_15_7) AppleWebKit/605.1.15 (KHTML, like Gecko) Version/17.5 Safari/605.1.15",Macintosh,Safari,17.5,OS X,10_15_7,https://5puzkbbxv1.cognition.run/?sona_id=56931,"en-US,en;q=0.9",orx0gwptnvh5x4p,21,"[""Asian""]",No,Male,Pakistan,No,350155,NA,3899,NA,"{""product_choice"":""B""}",choice,tc,binary,attraction,NA,microwave ovens,null,null,null,null,null,null,1,60,50,null,50,60,null,Warranty,Cooking power,NA,NA
NA,NA,NA,NA,NA,choice_trial_setup,html-keyboard-response,34,137829,0.0-4.0-0.15,227,1,2025-05-06T02:48:30Z,b60275e29fe2361ab97ac0ac217840d7,"Mozilla/5.0 (Macintosh; Intel Mac OS X 10_15_7) AppleWebKit/605.1.15 (KHTML, like Gecko) Version/17.5 Safari/605.1.15",Macintosh,Safari,17.5,OS X,10_15_7,https://5puzkbbxv1.cognition.run/?sona_id=56931,"en-US,en;q=0.9",orx0gwptnvh5x4p,21,"[""Asian""]",No,Male,Pakistan,No,350155,NA,null,<p></p>,null,choice,tc,binary,repulsion,2,laptops,null,null,null,null,null,null,1,NA,NA,NA,NA,NA,NA,NA,NA,NA,NA
NA,NA,NA,NA,NA,choice_trial,survey-html-form,35,140443,0.0-4.0-1.15,227,1,2025-05-06T02:48:30Z,b60275e29fe2361ab97ac0ac217840d7,"Mozilla/5.0 (Macintosh; Intel Mac OS X 10_15_7) AppleWebKit/605.1.15 (KHTML, like Gecko) Version/17.5 Safari/605.1.15",Macintosh,Safari,17.5,OS X,10_15_7,https://5puzkbbxv1.cognition.run/?sona_id=56931,"en-US,en;q=0.9",orx0gwptnvh5x4p,21,"[""Asian""]",No,Male,Pakistan,No,350155,NA,2601,NA,"{""product_choice"":""B""}",choice,tc,binary,repulsion,2,laptops,null,null,null,null,null,null,1,30,40,null,100,90,null,Processing speed,Memory (RAM),NA,NA
NA,NA,NA,NA,NA,choice_trial_setup,html-keyboard-response,36,140747,0.0-4.0-0.16,227,1,2025-05-06T02:48:30Z,b60275e29fe2361ab97ac0ac217840d7,"Mozilla/5.0 (Macintosh; Intel Mac OS X 10_15_7) AppleWebKit/605.1.15 (KHTML, like Gecko) Version/17.5 Safari/605.1.15",Macintosh,Safari,17.5,OS X,10_15_7,https://5puzkbbxv1.cognition.run/?sona_id=56931,"en-US,en;q=0.9",orx0gwptnvh5x4p,21,"[""Asian""]",No,Male,Pakistan,No,350155,NA,null,<p></p>,null,choice,ctd,trinary,attraction,1,washing machines,null,null,null,null,null,null,1,NA,NA,NA,NA,NA,NA,NA,NA,NA,NA
NA,NA,NA,NA,NA,choice_trial,survey-html-form,37,146161,0.0-4.0-1.16,227,1,2025-05-06T02:48:30Z,b60275e29fe2361ab97ac0ac217840d7,"Mozilla/5.0 (Macintosh; Intel Mac OS X 10_15_7) AppleWebKit/605.1.15 (KHTML, like Gecko) Version/17.5 Safari/605.1.15",Macintosh,Safari,17.5,OS X,10_15_7,https://5puzkbbxv1.cognition.run/?sona_id=56931,"en-US,en;q=0.9",orx0gwptnvh5x4p,21,"[""Asian""]",No,Male,Pakistan,No,350155,NA,5400,NA,"{""product_choice"":""A""}",choice,ctd,trinary,attraction,1,washing machines,null,null,null,null,null,null,1,60,50,60,50,60,40,Average lifespan,Energy savings,NA,NA
NA,NA,NA,NA,NA,choice_trial_setup,html-keyboard-response,38,146464,0.0-4.0-0.17,227,1,2025-05-06T02:48:30Z,b60275e29fe2361ab97ac0ac217840d7,"Mozilla/5.0 (Macintosh; Intel Mac OS X 10_15_7) AppleWebKit/605.1.15 (KHTML, like Gecko) Version/17.5 Safari/605.1.15",Macintosh,Safari,17.5,OS X,10_15_7,https://5puzkbbxv1.cognition.run/?sona_id=56931,"en-US,en;q=0.9",orx0gwptnvh5x4p,21,"[""Asian""]",No,Male,Pakistan,No,350155,NA,null,<p></p>,null,choice,ct,binary,repulsion,2,microwave ovens,null,null,null,null,null,null,2,NA,NA,NA,NA,NA,NA,NA,NA,NA,NA
NA,NA,NA,NA,NA,choice_trial,survey-html-form,39,150026,0.0-4.0-1.17,227,1,2025-05-06T02:48:30Z,b60275e29fe2361ab97ac0ac217840d7,"Mozilla/5.0 (Macintosh; Intel Mac OS X 10_15_7) AppleWebKit/605.1.15 (KHTML, like Gecko) Version/17.5 Safari/605.1.15",Macintosh,Safari,17.5,OS X,10_15_7,https://5puzkbbxv1.cognition.run/?sona_id=56931,"en-US,en;q=0.9",orx0gwptnvh5x4p,21,"[""Asian""]",No,Male,Pakistan,No,350155,NA,3550,NA,"{""product_choice"":""B""}",choice,ct,binary,repulsion,2,microwave ovens,null,null,null,null,null,null,2,30,40,null,100,90,null,Warranty,Cooking power,NA,NA
NA,NA,NA,NA,NA,choice_trial_setup,html-keyboard-response,40,150330,0.0-4.0-0.18,227,1,2025-05-06T02:48:30Z,b60275e29fe2361ab97ac0ac217840d7,"Mozilla/5.0 (Macintosh; Intel Mac OS X 10_15_7) AppleWebKit/605.1.15 (KHTML, like Gecko) Version/17.5 Safari/605.1.15",Macintosh,Safari,17.5,OS X,10_15_7,https://5puzkbbxv1.cognition.run/?sona_id=56931,"en-US,en;q=0.9",orx0gwptnvh5x4p,21,"[""Asian""]",No,Male,Pakistan,No,350155,NA,null,<p></p>,null,choice,dct,trinary,repulsion_A,1,televisions,null,null,null,null,null,null,2,NA,NA,NA,NA,NA,NA,NA,NA,NA,NA
NA,NA,NA,NA,NA,choice_trial,survey-html-form,41,158460,0.0-4.0-1.18,227,1,2025-05-06T02:48:30Z,b60275e29fe2361ab97ac0ac217840d7,"Mozilla/5.0 (Macintosh; Intel Mac OS X 10_15_7) AppleWebKit/605.1.15 (KHTML, like Gecko) Version/17.5 Safari/605.1.15",Macintosh,Safari,17.5,OS X,10_15_7,https://5puzkbbxv1.cognition.run/?sona_id=56931,"en-US,en;q=0.9",orx0gwptnvh5x4p,21,"[""Asian""]",No,Male,Pakistan,No,350155,NA,8118,NA,"{""product_choice"":""B""}",choice,dct,trinary,repulsion_A,1,televisions,null,null,null,null,null,null,2,100,90,100,30,40,20,Screen size,Average lifespan,NA,NA
NA,NA,NA,NA,NA,choice_trial_setup,html-keyboard-response,42,158763,0.0-4.0-0.19,227,1,2025-05-06T02:48:30Z,b60275e29fe2361ab97ac0ac217840d7,"Mozilla/5.0 (Macintosh; Intel Mac OS X 10_15_7) AppleWebKit/605.1.15 (KHTML, like Gecko) Version/17.5 Safari/605.1.15",Macintosh,Safari,17.5,OS X,10_15_7,https://5puzkbbxv1.cognition.run/?sona_id=56931,"en-US,en;q=0.9",orx0gwptnvh5x4p,21,"[""Asian""]",No,Male,Pakistan,No,350155,NA,null,<p></p>,null,choice,ct,binary,attraction,NA,televisions,null,null,null,null,null,null,2,NA,NA,NA,NA,NA,NA,NA,NA,NA,NA
NA,NA,NA,NA,NA,choice_trial,survey-html-form,43,161843,0.0-4.0-1.19,227,1,2025-05-06T02:48:30Z,b60275e29fe2361ab97ac0ac217840d7,"Mozilla/5.0 (Macintosh; Intel Mac OS X 10_15_7) AppleWebKit/605.1.15 (KHTML, like Gecko) Version/17.5 Safari/605.1.15",Macintosh,Safari,17.5,OS X,10_15_7,https://5puzkbbxv1.cognition.run/?sona_id=56931,"en-US,en;q=0.9",orx0gwptnvh5x4p,21,"[""Asian""]",No,Male,Pakistan,No,350155,NA,3070,NA,"{""product_choice"":""B""}",choice,ct,binary,attraction,NA,televisions,null,null,null,null,null,null,2,60,50,null,50,60,null,Screen size,Average lifespan,NA,NA
NA,NA,NA,NA,NA,choice_trial_setup,html-keyboard-response,44,162148,0.0-4.0-0.20,227,1,2025-05-06T02:48:30Z,b60275e29fe2361ab97ac0ac217840d7,"Mozilla/5.0 (Macintosh; Intel Mac OS X 10_15_7) AppleWebKit/605.1.15 (KHTML, like Gecko) Version/17.5 Safari/605.1.15",Macintosh,Safari,17.5,OS X,10_15_7,https://5puzkbbxv1.cognition.run/?sona_id=56931,"en-US,en;q=0.9",orx0gwptnvh5x4p,21,"[""Asian""]",No,Male,Pakistan,No,350155,NA,null,<p></p>,null,choice,tdc,trinary,repulsion_A,1,laptops,null,null,null,null,null,null,1,NA,NA,NA,NA,NA,NA,NA,NA,NA,NA
NA,NA,NA,NA,NA,choice_trial,survey-html-form,45,176711,0.0-4.0-1.20,227,1,2025-05-06T02:48:30Z,b60275e29fe2361ab97ac0ac217840d7,"Mozilla/5.0 (Macintosh; Intel Mac OS X 10_15_7) AppleWebKit/605.1.15 (KHTML, like Gecko) Version/17.5 Safari/605.1.15",Macintosh,Safari,17.5,OS X,10_15_7,https://5puzkbbxv1.cognition.run/?sona_id=56931,"en-US,en;q=0.9",orx0gwptnvh5x4p,21,"[""Asian""]",No,Male,Pakistan,No,350155,NA,14553,NA,"{""product_choice"":""A""}",choice,tdc,trinary,repulsion_A,1,laptops,null,null,null,null,null,null,1,100,90,100,30,40,20,Processing speed,Memory (RAM),NA,NA
NA,NA,NA,NA,NA,choice_trial_setup,html-keyboard-response,46,177016,0.0-4.0-0.21,227,1,2025-05-06T02:48:30Z,b60275e29fe2361ab97ac0ac217840d7,"Mozilla/5.0 (Macintosh; Intel Mac OS X 10_15_7) AppleWebKit/605.1.15 (KHTML, like Gecko) Version/17.5 Safari/605.1.15",Macintosh,Safari,17.5,OS X,10_15_7,https://5puzkbbxv1.cognition.run/?sona_id=56931,"en-US,en;q=0.9",orx0gwptnvh5x4p,21,"[""Asian""]",No,Male,Pakistan,No,350155,NA,null,<p></p>,null,choice,bw,binary,catch,null,laptops,90,80,20,15,null,null,2,NA,NA,NA,NA,NA,NA,NA,NA,NA,NA
NA,NA,NA,NA,NA,choice_trial,survey-html-form,47,181344,0.0-4.0-1.21,227,1,2025-05-06T02:48:30Z,b60275e29fe2361ab97ac0ac217840d7,"Mozilla/5.0 (Macintosh; Intel Mac OS X 10_15_7) AppleWebKit/605.1.15 (KHTML, like Gecko) Version/17.5 Safari/605.1.15",Macintosh,Safari,17.5,OS X,10_15_7,https://5puzkbbxv1.cognition.run/?sona_id=56931,"en-US,en;q=0.9",orx0gwptnvh5x4p,21,"[""Asian""]",No,Male,Pakistan,No,350155,NA,4317,NA,"{""product_choice"":""A""}",choice,bw,binary,catch,null,laptops,90,80,20,15,null,null,2,null,null,null,null,null,null,Processing speed,Memory (RAM),NA,NA
NA,NA,NA,NA,NA,choice_trial_setup,html-keyboard-response,48,181648,0.0-4.0-0.22,227,1,2025-05-06T02:48:30Z,b60275e29fe2361ab97ac0ac217840d7,"Mozilla/5.0 (Macintosh; Intel Mac OS X 10_15_7) AppleWebKit/605.1.15 (KHTML, like Gecko) Version/17.5 Safari/605.1.15",Macintosh,Safari,17.5,OS X,10_15_7,https://5puzkbbxv1.cognition.run/?sona_id=56931,"en-US,en;q=0.9",orx0gwptnvh5x4p,21,"[""Asian""]",No,Male,Pakistan,No,350155,NA,null,<p></p>,null,choice,cdt,trinary,attraction,1,laptops,null,null,null,null,null,null,1,NA,NA,NA,NA,NA,NA,NA,NA,NA,NA
NA,NA,NA,NA,NA,choice_trial,survey-html-form,49,187478,0.0-4.0-1.22,227,1,2025-05-06T02:48:30Z,b60275e29fe2361ab97ac0ac217840d7,"Mozilla/5.0 (Macintosh; Intel Mac OS X 10_15_7) AppleWebKit/605.1.15 (KHTML, like Gecko) Version/17.5 Safari/605.1.15",Macintosh,Safari,17.5,OS X,10_15_7,https://5puzkbbxv1.cognition.run/?sona_id=56931,"en-US,en;q=0.9",orx0gwptnvh5x4p,21,"[""Asian""]",No,Male,Pakistan,No,350155,NA,5822,NA,"{""product_choice"":""B""}",choice,cdt,trinary,attraction,1,laptops,null,null,null,null,null,null,1,60,50,60,50,60,40,Processing speed,Memory (RAM),NA,NA
NA,NA,NA,NA,NA,choice_trial_setup,html-keyboard-response,50,187781,0.0-4.0-0.23,227,1,2025-05-06T02:48:30Z,b60275e29fe2361ab97ac0ac217840d7,"Mozilla/5.0 (Macintosh; Intel Mac OS X 10_15_7) AppleWebKit/605.1.15 (KHTML, like Gecko) Version/17.5 Safari/605.1.15",Macintosh,Safari,17.5,OS X,10_15_7,https://5puzkbbxv1.cognition.run/?sona_id=56931,"en-US,en;q=0.9",orx0gwptnvh5x4p,21,"[""Asian""]",No,Male,Pakistan,No,350155,NA,null,<p></p>,null,choice,tc,binary,repulsion,2,televisions,null,null,null,null,null,null,1,NA,NA,NA,NA,NA,NA,NA,NA,NA,NA
NA,NA,NA,NA,NA,choice_trial,survey-html-form,51,200578,0.0-4.0-1.23,227,1,2025-05-06T02:48:30Z,b60275e29fe2361ab97ac0ac217840d7,"Mozilla/5.0 (Macintosh; Intel Mac OS X 10_15_7) AppleWebKit/605.1.15 (KHTML, like Gecko) Version/17.5 Safari/605.1.15",Macintosh,Safari,17.5,OS X,10_15_7,https://5puzkbbxv1.cognition.run/?sona_id=56931,"en-US,en;q=0.9",orx0gwptnvh5x4p,21,"[""Asian""]",No,Male,Pakistan,No,350155,NA,12786,NA,"{""product_choice"":""B""}",choice,tc,binary,repulsion,2,televisions,null,null,null,null,null,null,1,30,40,null,100,90,null,Screen size,Average lifespan,NA,NA
NA,NA,NA,NA,NA,choice_trial_setup,html-keyboard-response,52,200880,0.0-4.0-0.24,227,1,2025-05-06T02:48:30Z,b60275e29fe2361ab97ac0ac217840d7,"Mozilla/5.0 (Macintosh; Intel Mac OS X 10_15_7) AppleWebKit/605.1.15 (KHTML, like Gecko) Version/17.5 Safari/605.1.15",Macintosh,Safari,17.5,OS X,10_15_7,https://5puzkbbxv1.cognition.run/?sona_id=56931,"en-US,en;q=0.9",orx0gwptnvh5x4p,21,"[""Asian""]",No,Male,Pakistan,No,350155,NA,null,<p></p>,null,choice,cdt,trinary,repulsion_B,1,televisions,null,null,null,null,null,null,2,NA,NA,NA,NA,NA,NA,NA,NA,NA,NA
NA,NA,NA,NA,NA,choice_trial,survey-html-form,53,206628,0.0-4.0-1.24,227,1,2025-05-06T02:48:30Z,b60275e29fe2361ab97ac0ac217840d7,"Mozilla/5.0 (Macintosh; Intel Mac OS X 10_15_7) AppleWebKit/605.1.15 (KHTML, like Gecko) Version/17.5 Safari/605.1.15",Macintosh,Safari,17.5,OS X,10_15_7,https://5puzkbbxv1.cognition.run/?sona_id=56931,"en-US,en;q=0.9",orx0gwptnvh5x4p,21,"[""Asian""]",No,Male,Pakistan,No,350155,NA,5740,NA,"{""product_choice"":""A""}",choice,cdt,trinary,repulsion_B,1,televisions,null,null,null,null,null,null,2,90,100,80,40,30,40,Screen size,Average lifespan,NA,NA
NA,NA,NA,NA,NA,choice_trial_setup,html-keyboard-response,54,206932,0.0-4.0-0.25,227,1,2025-05-06T02:48:30Z,b60275e29fe2361ab97ac0ac217840d7,"Mozilla/5.0 (Macintosh; Intel Mac OS X 10_15_7) AppleWebKit/605.1.15 (KHTML, like Gecko) Version/17.5 Safari/605.1.15",Macintosh,Safari,17.5,OS X,10_15_7,https://5puzkbbxv1.cognition.run/?sona_id=56931,"en-US,en;q=0.9",orx0gwptnvh5x4p,21,"[""Asian""]",No,Male,Pakistan,No,350155,NA,null,<p></p>,null,choice,ctd,trinary,attraction,2,laptops,null,null,null,null,null,null,1,NA,NA,NA,NA,NA,NA,NA,NA,NA,NA
NA,NA,NA,NA,NA,choice_trial,survey-html-form,55,214497,0.0-4.0-1.25,227,1,2025-05-06T02:48:30Z,b60275e29fe2361ab97ac0ac217840d7,"Mozilla/5.0 (Macintosh; Intel Mac OS X 10_15_7) AppleWebKit/605.1.15 (KHTML, like Gecko) Version/17.5 Safari/605.1.15",Macintosh,Safari,17.5,OS X,10_15_7,https://5puzkbbxv1.cognition.run/?sona_id=56931,"en-US,en;q=0.9",orx0gwptnvh5x4p,21,"[""Asian""]",No,Male,Pakistan,No,350155,NA,7553,NA,"{""product_choice"":""A""}",choice,ctd,trinary,attraction,2,laptops,null,null,null,null,null,null,1,50,60,40,60,50,60,Processing speed,Memory (RAM),NA,NA
NA,NA,NA,NA,NA,choice_trial_setup,html-keyboard-response,56,214801,0.0-4.0-0.26,227,1,2025-05-06T02:48:30Z,b60275e29fe2361ab97ac0ac217840d7,"Mozilla/5.0 (Macintosh; Intel Mac OS X 10_15_7) AppleWebKit/605.1.15 (KHTML, like Gecko) Version/17.5 Safari/605.1.15",Macintosh,Safari,17.5,OS X,10_15_7,https://5puzkbbxv1.cognition.run/?sona_id=56931,"en-US,en;q=0.9",orx0gwptnvh5x4p,21,"[""Asian""]",No,Male,Pakistan,No,350155,NA,null,<p></p>,null,choice,bw,binary,catch,null,microwave ovens,50,55,20,35,null,null,1,NA,NA,NA,NA,NA,NA,NA,NA,NA,NA
NA,NA,NA,NA,NA,choice_trial,survey-html-form,57,217311,0.0-4.0-1.26,227,1,2025-05-06T02:48:30Z,b60275e29fe2361ab97ac0ac217840d7,"Mozilla/5.0 (Macintosh; Intel Mac OS X 10_15_7) AppleWebKit/605.1.15 (KHTML, like Gecko) Version/17.5 Safari/605.1.15",Macintosh,Safari,17.5,OS X,10_15_7,https://5puzkbbxv1.cognition.run/?sona_id=56931,"en-US,en;q=0.9",orx0gwptnvh5x4p,21,"[""Asian""]",No,Male,Pakistan,No,350155,NA,2501,NA,"{""product_choice"":""A""}",choice,bw,binary,catch,null,microwave ovens,50,55,20,35,null,null,1,null,null,null,null,null,null,Warranty,Cooking power,NA,NA
NA,NA,NA,NA,NA,choice_trial_setup,html-keyboard-response,58,217615,0.0-4.0-0.27,227,1,2025-05-06T02:48:30Z,b60275e29fe2361ab97ac0ac217840d7,"Mozilla/5.0 (Macintosh; Intel Mac OS X 10_15_7) AppleWebKit/605.1.15 (KHTML, like Gecko) Version/17.5 Safari/605.1.15",Macintosh,Safari,17.5,OS X,10_15_7,https://5puzkbbxv1.cognition.run/?sona_id=56931,"en-US,en;q=0.9",orx0gwptnvh5x4p,21,"[""Asian""]",No,Male,Pakistan,No,350155,NA,null,<p></p>,null,choice,bww,trinary,catch,null,microwave ovens,90,55,45,35,35,40,1,NA,NA,NA,NA,NA,NA,NA,NA,NA,NA
NA,NA,NA,NA,NA,choice_trial,survey-html-form,59,221611,0.0-4.0-1.27,227,1,2025-05-06T02:48:30Z,b60275e29fe2361ab97ac0ac217840d7,"Mozilla/5.0 (Macintosh; Intel Mac OS X 10_15_7) AppleWebKit/605.1.15 (KHTML, like Gecko) Version/17.5 Safari/605.1.15",Macintosh,Safari,17.5,OS X,10_15_7,https://5puzkbbxv1.cognition.run/?sona_id=56931,"en-US,en;q=0.9",orx0gwptnvh5x4p,21,"[""Asian""]",No,Male,Pakistan,No,350155,NA,3982,NA,"{""product_choice"":""A""}",choice,bww,trinary,catch,null,microwave ovens,90,55,45,35,35,40,1,null,null,null,null,null,null,Warranty,Cooking power,NA,NA
NA,NA,NA,NA,NA,choice_trial_setup,html-keyboard-response,60,221914,0.0-4.0-0.28,227,1,2025-05-06T02:48:30Z,b60275e29fe2361ab97ac0ac217840d7,"Mozilla/5.0 (Macintosh; Intel Mac OS X 10_15_7) AppleWebKit/605.1.15 (KHTML, like Gecko) Version/17.5 Safari/605.1.15",Macintosh,Safari,17.5,OS X,10_15_7,https://5puzkbbxv1.cognition.run/?sona_id=56931,"en-US,en;q=0.9",orx0gwptnvh5x4p,21,"[""Asian""]",No,Male,Pakistan,No,350155,NA,null,<p></p>,null,choice,dtc,trinary,repulsion_B,1,washing machines,null,null,null,null,null,null,2,NA,NA,NA,NA,NA,NA,NA,NA,NA,NA
NA,NA,NA,NA,NA,choice_trial,survey-html-form,61,227144,0.0-4.0-1.28,227,1,2025-05-06T02:48:30Z,b60275e29fe2361ab97ac0ac217840d7,"Mozilla/5.0 (Macintosh; Intel Mac OS X 10_15_7) AppleWebKit/605.1.15 (KHTML, like Gecko) Version/17.5 Safari/605.1.15",Macintosh,Safari,17.5,OS X,10_15_7,https://5puzkbbxv1.cognition.run/?sona_id=56931,"en-US,en;q=0.9",orx0gwptnvh5x4p,21,"[""Asian""]",No,Male,Pakistan,No,350155,NA,5216,NA,"{""product_choice"":""B""}",choice,dtc,trinary,repulsion_B,1,washing machines,null,null,null,null,null,null,2,90,100,80,40,30,40,Average lifespan,Energy savings,NA,NA
NA,NA,NA,NA,NA,choice_trial_setup,html-keyboard-response,62,227447,0.0-4.0-0.29,227,1,2025-05-06T02:48:30Z,b60275e29fe2361ab97ac0ac217840d7,"Mozilla/5.0 (Macintosh; Intel Mac OS X 10_15_7) AppleWebKit/605.1.15 (KHTML, like Gecko) Version/17.5 Safari/605.1.15",Macintosh,Safari,17.5,OS X,10_15_7,https://5puzkbbxv1.cognition.run/?sona_id=56931,"en-US,en;q=0.9",orx0gwptnvh5x4p,21,"[""Asian""]",No,Male,Pakistan,No,350155,NA,null,<p></p>,null,choice,cdt,trinary,attraction,1,microwave ovens,null,null,null,null,null,null,1,NA,NA,NA,NA,NA,NA,NA,NA,NA,NA
NA,NA,NA,NA,NA,choice_trial,survey-html-form,63,232613,0.0-4.0-1.29,227,1,2025-05-06T02:48:30Z,b60275e29fe2361ab97ac0ac217840d7,"Mozilla/5.0 (Macintosh; Intel Mac OS X 10_15_7) AppleWebKit/605.1.15 (KHTML, like Gecko) Version/17.5 Safari/605.1.15",Macintosh,Safari,17.5,OS X,10_15_7,https://5puzkbbxv1.cognition.run/?sona_id=56931,"en-US,en;q=0.9",orx0gwptnvh5x4p,21,"[""Asian""]",No,Male,Pakistan,No,350155,NA,5153,NA,"{""product_choice"":""A""}",choice,cdt,trinary,attraction,1,microwave ovens,null,null,null,null,null,null,1,60,50,60,50,60,40,Warranty,Cooking power,NA,NA
NA,NA,NA,NA,NA,choice_trial_setup,html-keyboard-response,64,232916,0.0-4.0-0.30,227,1,2025-05-06T02:48:30Z,b60275e29fe2361ab97ac0ac217840d7,"Mozilla/5.0 (Macintosh; Intel Mac OS X 10_15_7) AppleWebKit/605.1.15 (KHTML, like Gecko) Version/17.5 Safari/605.1.15",Macintosh,Safari,17.5,OS X,10_15_7,https://5puzkbbxv1.cognition.run/?sona_id=56931,"en-US,en;q=0.9",orx0gwptnvh5x4p,21,"[""Asian""]",No,Male,Pakistan,No,350155,NA,null,<p></p>,null,choice,ctd,trinary,repulsion_A,2,laptops,null,null,null,null,null,null,2,NA,NA,NA,NA,NA,NA,NA,NA,NA,NA
NA,NA,NA,NA,NA,choice_trial,survey-html-form,65,236528,0.0-4.0-1.30,227,1,2025-05-06T02:48:30Z,b60275e29fe2361ab97ac0ac217840d7,"Mozilla/5.0 (Macintosh; Intel Mac OS X 10_15_7) AppleWebKit/605.1.15 (KHTML, like Gecko) Version/17.5 Safari/605.1.15",Macintosh,Safari,17.5,OS X,10_15_7,https://5puzkbbxv1.cognition.run/?sona_id=56931,"en-US,en;q=0.9",orx0gwptnvh5x4p,21,"[""Asian""]",No,Male,Pakistan,No,350155,NA,3600,NA,"{""product_choice"":""A""}",choice,ctd,trinary,repulsion_A,2,laptops,null,null,null,null,null,null,2,30,40,20,100,90,100,Processing speed,Memory (RAM),NA,NA
NA,NA,NA,NA,NA,choice_trial_setup,html-keyboard-response,66,236833,0.0-4.0-0.31,227,1,2025-05-06T02:48:30Z,b60275e29fe2361ab97ac0ac217840d7,"Mozilla/5.0 (Macintosh; Intel Mac OS X 10_15_7) AppleWebKit/605.1.15 (KHTML, like Gecko) Version/17.5 Safari/605.1.15",Macintosh,Safari,17.5,OS X,10_15_7,https://5puzkbbxv1.cognition.run/?sona_id=56931,"en-US,en;q=0.9",orx0gwptnvh5x4p,21,"[""Asian""]",No,Male,Pakistan,No,350155,NA,null,<p></p>,null,choice,wwb,trinary,catch,null,washing machines,85,50,15,20,35,10,1,NA,NA,NA,NA,NA,NA,NA,NA,NA,NA
NA,NA,NA,NA,NA,choice_trial,survey-html-form,67,240512,0.0-4.0-1.31,227,1,2025-05-06T02:48:30Z,b60275e29fe2361ab97ac0ac217840d7,"Mozilla/5.0 (Macintosh; Intel Mac OS X 10_15_7) AppleWebKit/605.1.15 (KHTML, like Gecko) Version/17.5 Safari/605.1.15",Macintosh,Safari,17.5,OS X,10_15_7,https://5puzkbbxv1.cognition.run/?sona_id=56931,"en-US,en;q=0.9",orx0gwptnvh5x4p,21,"[""Asian""]",No,Male,Pakistan,No,350155,NA,3667,NA,"{""product_choice"":""C""}",choice,wwb,trinary,catch,null,washing machines,85,50,15,20,35,10,1,null,null,null,null,null,null,Average lifespan,Energy savings,NA,NA
NA,NA,NA,NA,NA,choice_trial_setup,html-keyboard-response,68,240817,0.0-4.0-0.32,227,1,2025-05-06T02:48:30Z,b60275e29fe2361ab97ac0ac217840d7,"Mozilla/5.0 (Macintosh; Intel Mac OS X 10_15_7) AppleWebKit/605.1.15 (KHTML, like Gecko) Version/17.5 Safari/605.1.15",Macintosh,Safari,17.5,OS X,10_15_7,https://5puzkbbxv1.cognition.run/?sona_id=56931,"en-US,en;q=0.9",orx0gwptnvh5x4p,21,"[""Asian""]",No,Male,Pakistan,No,350155,NA,null,<p></p>,null,choice,tcd,trinary,repulsion_B,2,microwave ovens,null,null,null,null,null,null,1,NA,NA,NA,NA,NA,NA,NA,NA,NA,NA
NA,NA,NA,NA,NA,choice_trial,survey-html-form,69,244163,0.0-4.0-1.32,227,1,2025-05-06T02:48:30Z,b60275e29fe2361ab97ac0ac217840d7,"Mozilla/5.0 (Macintosh; Intel Mac OS X 10_15_7) AppleWebKit/605.1.15 (KHTML, like Gecko) Version/17.5 Safari/605.1.15",Macintosh,Safari,17.5,OS X,10_15_7,https://5puzkbbxv1.cognition.run/?sona_id=56931,"en-US,en;q=0.9",orx0gwptnvh5x4p,21,"[""Asian""]",No,Male,Pakistan,No,350155,NA,3333,NA,"{""product_choice"":""B""}",choice,tcd,trinary,repulsion_B,2,microwave ovens,null,null,null,null,null,null,1,40,30,40,90,100,80,Warranty,Cooking power,NA,NA
NA,NA,NA,NA,NA,choice_trial_setup,html-keyboard-response,70,244467,0.0-4.0-0.33,227,1,2025-05-06T02:48:30Z,b60275e29fe2361ab97ac0ac217840d7,"Mozilla/5.0 (Macintosh; Intel Mac OS X 10_15_7) AppleWebKit/605.1.15 (KHTML, like Gecko) Version/17.5 Safari/605.1.15",Macintosh,Safari,17.5,OS X,10_15_7,https://5puzkbbxv1.cognition.run/?sona_id=56931,"en-US,en;q=0.9",orx0gwptnvh5x4p,21,"[""Asian""]",No,Male,Pakistan,No,350155,NA,null,<p></p>,null,choice,tc,binary,repulsion,2,washing machines,null,null,null,null,null,null,2,NA,NA,NA,NA,NA,NA,NA,NA,NA,NA
NA,NA,NA,NA,NA,choice_trial,survey-html-form,71,249979,0.0-4.0-1.33,227,1,2025-05-06T02:48:30Z,b60275e29fe2361ab97ac0ac217840d7,"Mozilla/5.0 (Macintosh; Intel Mac OS X 10_15_7) AppleWebKit/605.1.15 (KHTML, like Gecko) Version/17.5 Safari/605.1.15",Macintosh,Safari,17.5,OS X,10_15_7,https://5puzkbbxv1.cognition.run/?sona_id=56931,"en-US,en;q=0.9",orx0gwptnvh5x4p,21,"[""Asian""]",No,Male,Pakistan,No,350155,NA,5500,NA,"{""product_choice"":""A""}",choice,tc,binary,repulsion,2,washing machines,null,null,null,null,null,null,2,30,40,null,100,90,null,Average lifespan,Energy savings,NA,NA
NA,NA,NA,NA,NA,choice_trial_setup,html-keyboard-response,72,250287,0.0-4.0-0.34,227,1,2025-05-06T02:48:30Z,b60275e29fe2361ab97ac0ac217840d7,"Mozilla/5.0 (Macintosh; Intel Mac OS X 10_15_7) AppleWebKit/605.1.15 (KHTML, like Gecko) Version/17.5 Safari/605.1.15",Macintosh,Safari,17.5,OS X,10_15_7,https://5puzkbbxv1.cognition.run/?sona_id=56931,"en-US,en;q=0.9",orx0gwptnvh5x4p,21,"[""Asian""]",No,Male,Pakistan,No,350155,NA,null,<p></p>,null,choice,dct,trinary,attraction,2,washing machines,null,null,null,null,null,null,1,NA,NA,NA,NA,NA,NA,NA,NA,NA,NA
NA,NA,NA,NA,NA,choice_trial,survey-html-form,73,260980,0.0-4.0-1.34,227,1,2025-05-06T02:48:30Z,b60275e29fe2361ab97ac0ac217840d7,"Mozilla/5.0 (Macintosh; Intel Mac OS X 10_15_7) AppleWebKit/605.1.15 (KHTML, like Gecko) Version/17.5 Safari/605.1.15",Macintosh,Safari,17.5,OS X,10_15_7,https://5puzkbbxv1.cognition.run/?sona_id=56931,"en-US,en;q=0.9",orx0gwptnvh5x4p,21,"[""Asian""]",No,Male,Pakistan,No,350155,NA,10679,NA,"{""product_choice"":""B""}",choice,dct,trinary,attraction,2,washing machines,null,null,null,null,null,null,1,50,60,40,60,50,60,Average lifespan,Energy savings,NA,NA
NA,NA,NA,NA,NA,choice_trial_setup,html-keyboard-response,74,261284,0.0-4.0-0.35,227,1,2025-05-06T02:48:30Z,b60275e29fe2361ab97ac0ac217840d7,"Mozilla/5.0 (Macintosh; Intel Mac OS X 10_15_7) AppleWebKit/605.1.15 (KHTML, like Gecko) Version/17.5 Safari/605.1.15",Macintosh,Safari,17.5,OS X,10_15_7,https://5puzkbbxv1.cognition.run/?sona_id=56931,"en-US,en;q=0.9",orx0gwptnvh5x4p,21,"[""Asian""]",No,Male,Pakistan,No,350155,NA,null,<p></p>,null,choice,wbw,trinary,catch,null,laptops,90,65,10,25,5,35,1,NA,NA,NA,NA,NA,NA,NA,NA,NA,NA
NA,NA,NA,NA,NA,choice_trial,survey-html-form,75,264279,0.0-4.0-1.35,227,1,2025-05-06T02:48:30Z,b60275e29fe2361ab97ac0ac217840d7,"Mozilla/5.0 (Macintosh; Intel Mac OS X 10_15_7) AppleWebKit/605.1.15 (KHTML, like Gecko) Version/17.5 Safari/605.1.15",Macintosh,Safari,17.5,OS X,10_15_7,https://5puzkbbxv1.cognition.run/?sona_id=56931,"en-US,en;q=0.9",orx0gwptnvh5x4p,21,"[""Asian""]",No,Male,Pakistan,No,350155,NA,2981,NA,"{""product_choice"":""B""}",choice,wbw,trinary,catch,null,laptops,90,65,10,25,5,35,1,null,null,null,null,null,null,Processing speed,Memory (RAM),NA,NA
NA,NA,NA,NA,NA,choice_trial_setup,html-keyboard-response,76,264583,0.0-4.0-0.36,227,1,2025-05-06T02:48:30Z,b60275e29fe2361ab97ac0ac217840d7,"Mozilla/5.0 (Macintosh; Intel Mac OS X 10_15_7) AppleWebKit/605.1.15 (KHTML, like Gecko) Version/17.5 Safari/605.1.15",Macintosh,Safari,17.5,OS X,10_15_7,https://5puzkbbxv1.cognition.run/?sona_id=56931,"en-US,en;q=0.9",orx0gwptnvh5x4p,21,"[""Asian""]",No,Male,Pakistan,No,350155,NA,null,<p></p>,null,choice,dtc,trinary,repulsion_B,2,washing machines,null,null,null,null,null,null,2,NA,NA,NA,NA,NA,NA,NA,NA,NA,NA
NA,NA,NA,NA,NA,choice_trial,survey-html-form,77,268063,0.0-4.0-1.36,227,1,2025-05-06T02:48:30Z,b60275e29fe2361ab97ac0ac217840d7,"Mozilla/5.0 (Macintosh; Intel Mac OS X 10_15_7) AppleWebKit/605.1.15 (KHTML, like Gecko) Version/17.5 Safari/605.1.15",Macintosh,Safari,17.5,OS X,10_15_7,https://5puzkbbxv1.cognition.run/?sona_id=56931,"en-US,en;q=0.9",orx0gwptnvh5x4p,21,"[""Asian""]",No,Male,Pakistan,No,350155,NA,3469,NA,"{""product_choice"":""B""}",choice,dtc,trinary,repulsion_B,2,washing machines,null,null,null,null,null,null,2,40,30,40,90,100,80,Average lifespan,Energy savings,NA,NA
NA,NA,NA,NA,NA,choice_trial_setup,html-keyboard-response,78,268369,0.0-4.0-0.37,227,1,2025-05-06T02:48:30Z,b60275e29fe2361ab97ac0ac217840d7,"Mozilla/5.0 (Macintosh; Intel Mac OS X 10_15_7) AppleWebKit/605.1.15 (KHTML, like Gecko) Version/17.5 Safari/605.1.15",Macintosh,Safari,17.5,OS X,10_15_7,https://5puzkbbxv1.cognition.run/?sona_id=56931,"en-US,en;q=0.9",orx0gwptnvh5x4p,21,"[""Asian""]",No,Male,Pakistan,No,350155,NA,null,<p></p>,null,choice,tdc,trinary,repulsion_A,2,microwave ovens,null,null,null,null,null,null,2,NA,NA,NA,NA,NA,NA,NA,NA,NA,NA
NA,NA,NA,NA,NA,choice_trial,survey-html-form,79,271997,0.0-4.0-1.37,227,1,2025-05-06T02:48:30Z,b60275e29fe2361ab97ac0ac217840d7,"Mozilla/5.0 (Macintosh; Intel Mac OS X 10_15_7) AppleWebKit/605.1.15 (KHTML, like Gecko) Version/17.5 Safari/605.1.15",Macintosh,Safari,17.5,OS X,10_15_7,https://5puzkbbxv1.cognition.run/?sona_id=56931,"en-US,en;q=0.9",orx0gwptnvh5x4p,21,"[""Asian""]",No,Male,Pakistan,No,350155,NA,3614,NA,"{""product_choice"":""C""}",choice,tdc,trinary,repulsion_A,2,microwave ovens,null,null,null,null,null,null,2,30,40,20,100,90,100,Warranty,Cooking power,NA,NA
NA,NA,NA,NA,NA,choice_trial_setup,html-keyboard-response,80,272302,0.0-4.0-0.38,227,1,2025-05-06T02:48:30Z,b60275e29fe2361ab97ac0ac217840d7,"Mozilla/5.0 (Macintosh; Intel Mac OS X 10_15_7) AppleWebKit/605.1.15 (KHTML, like Gecko) Version/17.5 Safari/605.1.15",Macintosh,Safari,17.5,OS X,10_15_7,https://5puzkbbxv1.cognition.run/?sona_id=56931,"en-US,en;q=0.9",orx0gwptnvh5x4p,21,"[""Asian""]",No,Male,Pakistan,No,350155,NA,null,<p></p>,null,choice,tc,binary,repulsion,1,microwave ovens,null,null,null,null,null,null,2,NA,NA,NA,NA,NA,NA,NA,NA,NA,NA
NA,NA,NA,NA,NA,choice_trial,survey-html-form,81,277829,0.0-4.0-1.38,227,1,2025-05-06T02:48:30Z,b60275e29fe2361ab97ac0ac217840d7,"Mozilla/5.0 (Macintosh; Intel Mac OS X 10_15_7) AppleWebKit/605.1.15 (KHTML, like Gecko) Version/17.5 Safari/605.1.15",Macintosh,Safari,17.5,OS X,10_15_7,https://5puzkbbxv1.cognition.run/?sona_id=56931,"en-US,en;q=0.9",orx0gwptnvh5x4p,21,"[""Asian""]",No,Male,Pakistan,No,350155,NA,5515,NA,"{""product_choice"":""B""}",choice,tc,binary,repulsion,1,microwave ovens,null,null,null,null,null,null,2,100,90,null,30,40,null,Warranty,Cooking power,NA,NA
NA,NA,NA,NA,NA,choice_trial_setup,html-keyboard-response,82,278134,0.0-4.0-0.39,227,1,2025-05-06T02:48:30Z,b60275e29fe2361ab97ac0ac217840d7,"Mozilla/5.0 (Macintosh; Intel Mac OS X 10_15_7) AppleWebKit/605.1.15 (KHTML, like Gecko) Version/17.5 Safari/605.1.15",Macintosh,Safari,17.5,OS X,10_15_7,https://5puzkbbxv1.cognition.run/?sona_id=56931,"en-US,en;q=0.9",orx0gwptnvh5x4p,21,"[""Asian""]",No,Male,Pakistan,No,350155,NA,null,<p></p>,null,choice,tcd,trinary,repulsion_B,2,televisions,null,null,null,null,null,null,2,NA,NA,NA,NA,NA,NA,NA,NA,NA,NA
NA,NA,NA,NA,NA,choice_trial,survey-html-form,83,281578,0.0-4.0-1.39,227,1,2025-05-06T02:48:30Z,b60275e29fe2361ab97ac0ac217840d7,"Mozilla/5.0 (Macintosh; Intel Mac OS X 10_15_7) AppleWebKit/605.1.15 (KHTML, like Gecko) Version/17.5 Safari/605.1.15",Macintosh,Safari,17.5,OS X,10_15_7,https://5puzkbbxv1.cognition.run/?sona_id=56931,"en-US,en;q=0.9",orx0gwptnvh5x4p,21,"[""Asian""]",No,Male,Pakistan,No,350155,NA,3429,NA,"{""product_choice"":""A""}",choice,tcd,trinary,repulsion_B,2,televisions,null,null,null,null,null,null,2,40,30,40,90,100,80,Screen size,Average lifespan,NA,NA
NA,NA,NA,NA,NA,choice_trial_setup,html-keyboard-response,84,281883,0.0-4.0-0.40,227,1,2025-05-06T02:48:30Z,b60275e29fe2361ab97ac0ac217840d7,"Mozilla/5.0 (Macintosh; Intel Mac OS X 10_15_7) AppleWebKit/605.1.15 (KHTML, like Gecko) Version/17.5 Safari/605.1.15",Macintosh,Safari,17.5,OS X,10_15_7,https://5puzkbbxv1.cognition.run/?sona_id=56931,"en-US,en;q=0.9",orx0gwptnvh5x4p,21,"[""Asian""]",No,Male,Pakistan,No,350155,NA,null,<p></p>,null,choice,dtc,trinary,repulsion_A,2,televisions,null,null,null,null,null,null,2,NA,NA,NA,NA,NA,NA,NA,NA,NA,NA
NA,NA,NA,NA,NA,choice_trial,survey-html-form,85,285979,0.0-4.0-1.40,227,1,2025-05-06T02:48:30Z,b60275e29fe2361ab97ac0ac217840d7,"Mozilla/5.0 (Macintosh; Intel Mac OS X 10_15_7) AppleWebKit/605.1.15 (KHTML, like Gecko) Version/17.5 Safari/605.1.15",Macintosh,Safari,17.5,OS X,10_15_7,https://5puzkbbxv1.cognition.run/?sona_id=56931,"en-US,en;q=0.9",orx0gwptnvh5x4p,21,"[""Asian""]",No,Male,Pakistan,No,350155,NA,4083,NA,"{""product_choice"":""C""}",choice,dtc,trinary,repulsion_A,2,televisions,null,null,null,null,null,null,2,30,40,20,100,90,100,Screen size,Average lifespan,NA,NA
NA,NA,NA,NA,NA,choice_trial_setup,html-keyboard-response,86,286282,0.0-4.0-0.41,227,1,2025-05-06T02:48:30Z,b60275e29fe2361ab97ac0ac217840d7,"Mozilla/5.0 (Macintosh; Intel Mac OS X 10_15_7) AppleWebKit/605.1.15 (KHTML, like Gecko) Version/17.5 Safari/605.1.15",Macintosh,Safari,17.5,OS X,10_15_7,https://5puzkbbxv1.cognition.run/?sona_id=56931,"en-US,en;q=0.9",orx0gwptnvh5x4p,21,"[""Asian""]",No,Male,Pakistan,No,350155,NA,null,<p></p>,null,choice,cdt,trinary,repulsion_B,1,microwave ovens,null,null,null,null,null,null,2,NA,NA,NA,NA,NA,NA,NA,NA,NA,NA
NA,NA,NA,NA,NA,choice_trial,survey-html-form,87,291928,0.0-4.0-1.41,227,1,2025-05-06T02:48:30Z,b60275e29fe2361ab97ac0ac217840d7,"Mozilla/5.0 (Macintosh; Intel Mac OS X 10_15_7) AppleWebKit/605.1.15 (KHTML, like Gecko) Version/17.5 Safari/605.1.15",Macintosh,Safari,17.5,OS X,10_15_7,https://5puzkbbxv1.cognition.run/?sona_id=56931,"en-US,en;q=0.9",orx0gwptnvh5x4p,21,"[""Asian""]",No,Male,Pakistan,No,350155,NA,5634,NA,"{""product_choice"":""C""}",choice,cdt,trinary,repulsion_B,1,microwave ovens,null,null,null,null,null,null,2,90,100,80,40,30,40,Warranty,Cooking power,NA,NA
NA,NA,NA,NA,NA,choice_trial_setup,html-keyboard-response,88,292232,0.0-4.0-0.42,227,1,2025-05-06T02:48:30Z,b60275e29fe2361ab97ac0ac217840d7,"Mozilla/5.0 (Macintosh; Intel Mac OS X 10_15_7) AppleWebKit/605.1.15 (KHTML, like Gecko) Version/17.5 Safari/605.1.15",Macintosh,Safari,17.5,OS X,10_15_7,https://5puzkbbxv1.cognition.run/?sona_id=56931,"en-US,en;q=0.9",orx0gwptnvh5x4p,21,"[""Asian""]",No,Male,Pakistan,No,350155,NA,null,<p></p>,null,choice,ct,binary,repulsion,1,televisions,null,null,null,null,null,null,1,NA,NA,NA,NA,NA,NA,NA,NA,NA,NA
NA,NA,NA,NA,NA,choice_trial,survey-html-form,89,295179,0.0-4.0-1.42,227,1,2025-05-06T02:48:30Z,b60275e29fe2361ab97ac0ac217840d7,"Mozilla/5.0 (Macintosh; Intel Mac OS X 10_15_7) AppleWebKit/605.1.15 (KHTML, like Gecko) Version/17.5 Safari/605.1.15",Macintosh,Safari,17.5,OS X,10_15_7,https://5puzkbbxv1.cognition.run/?sona_id=56931,"en-US,en;q=0.9",orx0gwptnvh5x4p,21,"[""Asian""]",No,Male,Pakistan,No,350155,NA,2936,NA,"{""product_choice"":""B""}",choice,ct,binary,repulsion,1,televisions,null,null,null,null,null,null,1,100,90,null,30,40,null,Screen size,Average lifespan,NA,NA
NA,NA,NA,NA,NA,choice_trial_setup,html-keyboard-response,90,295484,0.0-4.0-0.43,227,1,2025-05-06T02:48:30Z,b60275e29fe2361ab97ac0ac217840d7,"Mozilla/5.0 (Macintosh; Intel Mac OS X 10_15_7) AppleWebKit/605.1.15 (KHTML, like Gecko) Version/17.5 Safari/605.1.15",Macintosh,Safari,17.5,OS X,10_15_7,https://5puzkbbxv1.cognition.run/?sona_id=56931,"en-US,en;q=0.9",orx0gwptnvh5x4p,21,"[""Asian""]",No,Male,Pakistan,No,350155,NA,null,<p></p>,null,choice,tc,binary,attraction,NA,washing machines,null,null,null,null,null,null,1,NA,NA,NA,NA,NA,NA,NA,NA,NA,NA
NA,NA,NA,NA,NA,choice_trial,survey-html-form,91,299479,0.0-4.0-1.43,227,1,2025-05-06T02:48:30Z,b60275e29fe2361ab97ac0ac217840d7,"Mozilla/5.0 (Macintosh; Intel Mac OS X 10_15_7) AppleWebKit/605.1.15 (KHTML, like Gecko) Version/17.5 Safari/605.1.15",Macintosh,Safari,17.5,OS X,10_15_7,https://5puzkbbxv1.cognition.run/?sona_id=56931,"en-US,en;q=0.9",orx0gwptnvh5x4p,21,"[""Asian""]",No,Male,Pakistan,No,350155,NA,3982,NA,"{""product_choice"":""A""}",choice,tc,binary,attraction,NA,washing machines,null,null,null,null,null,null,1,60,50,null,50,60,null,Average lifespan,Energy savings,NA,NA
NA,NA,NA,NA,NA,post_trials_message,html-button-response,92,301645,0.0-5.0,227,1,2025-05-06T02:48:30Z,b60275e29fe2361ab97ac0ac217840d7,"Mozilla/5.0 (Macintosh; Intel Mac OS X 10_15_7) AppleWebKit/605.1.15 (KHTML, like Gecko) Version/17.5 Safari/605.1.15",Macintosh,Safari,17.5,OS X,10_15_7,https://5puzkbbxv1.cognition.run/?sona_id=56931,"en-US,en;q=0.9",orx0gwptnvh5x4p,21,"[""Asian""]",No,Male,Pakistan,No,350155,NA,2162,<p> <b>Thank you for your patience!</b></p><p>  The study will be done after completing a brief form. </p>,0,NA,NA,NA,NA,NA,NA,NA,NA,NA,NA,NA,NA,NA,NA,NA,NA,NA,NA,NA,NA,NA,NA,NA
NA,NA,NA,NA,NA,survey_message,survey-text,93,316947,0.0-6.0,227,1,2025-05-06T02:48:30Z,b60275e29fe2361ab97ac0ac217840d7,"Mozilla/5.0 (Macintosh; Intel Mac OS X 10_15_7) AppleWebKit/605.1.15 (KHTML, like Gecko) Version/17.5 Safari/605.1.15",Macintosh,Safari,17.5,OS X,10_15_7,https://5puzkbbxv1.cognition.run/?sona_id=56931,"en-US,en;q=0.9",orx0gwptnvh5x4p,21,"[""Asian""]",No,Male,Pakistan,No,350155,NA,15288,NA,"{""Q0"":""The most balanced approach, some attributes matter more""}",NA,NA,NA,NA,NA,NA,NA,NA,NA,NA,NA,NA,NA,NA,NA,NA,NA,NA,NA,NA,NA,"The most balanced approach, some attributes matter more",NA
NA,NA,NA,NA,NA,demo_age,survey-text,94,319247,0.0-7.0,227,1,2025-05-06T02:48:30Z,b60275e29fe2361ab97ac0ac217840d7,"Mozilla/5.0 (Macintosh; Intel Mac OS X 10_15_7) AppleWebKit/605.1.15 (KHTML, like Gecko) Version/17.5 Safari/605.1.15",Macintosh,Safari,17.5,OS X,10_15_7,https://5puzkbbxv1.cognition.run/?sona_id=56931,"en-US,en;q=0.9",orx0gwptnvh5x4p,21,"[""Asian""]",No,Male,Pakistan,No,350155,NA,2292,NA,"{""Q0"":""21""}",NA,NA,NA,NA,NA,NA,NA,NA,NA,NA,NA,NA,NA,NA,NA,NA,NA,NA,NA,NA,NA,NA,NA
NA,NA,NA,NA,NA,demo_race,survey-multi-select,95,321281,0.0-8.0,227,1,2025-05-06T02:48:30Z,b60275e29fe2361ab97ac0ac217840d7,"Mozilla/5.0 (Macintosh; Intel Mac OS X 10_15_7) AppleWebKit/605.1.15 (KHTML, like Gecko) Version/17.5 Safari/605.1.15",Macintosh,Safari,17.5,OS X,10_15_7,https://5puzkbbxv1.cognition.run/?sona_id=56931,"en-US,en;q=0.9",orx0gwptnvh5x4p,21,"[""Asian""]",No,Male,Pakistan,No,350155,NA,2029,NA,"{""Q0"":[""Asian""]}",NA,NA,NA,NA,NA,NA,NA,NA,NA,NA,NA,NA,NA,NA,NA,NA,NA,NA,NA,NA,NA,NA,[0]
NA,NA,NA,NA,NA,demo_ethnicity_gender,survey-multi-choice,96,324432,0.0-9.0,227,1,2025-05-06T02:48:30Z,b60275e29fe2361ab97ac0ac217840d7,"Mozilla/5.0 (Macintosh; Intel Mac OS X 10_15_7) AppleWebKit/605.1.15 (KHTML, like Gecko) Version/17.5 Safari/605.1.15",Macintosh,Safari,17.5,OS X,10_15_7,https://5puzkbbxv1.cognition.run/?sona_id=56931,"en-US,en;q=0.9",orx0gwptnvh5x4p,21,"[""Asian""]",No,Male,Pakistan,No,350155,NA,3133,NA,"{""Q0"":""No"",""Q1"":""Male""}",NA,NA,NA,NA,NA,NA,NA,NA,NA,NA,NA,NA,NA,NA,NA,NA,NA,NA,NA,NA,NA,NA,"[0,1]"
NA,NA,NA,NA,NA,demo_countries,survey-text,97,330448,0.0-10.0,227,1,2025-05-06T02:48:30Z,b60275e29fe2361ab97ac0ac217840d7,"Mozilla/5.0 (Macintosh; Intel Mac OS X 10_15_7) AppleWebKit/605.1.15 (KHTML, like Gecko) Version/17.5 Safari/605.1.15",Macintosh,Safari,17.5,OS X,10_15_7,https://5puzkbbxv1.cognition.run/?sona_id=56931,"en-US,en;q=0.9",orx0gwptnvh5x4p,21,"[""Asian""]",No,Male,Pakistan,No,350155,NA,6000,NA,"{""Q0"":""Pakistan""}",NA,NA,NA,NA,NA,NA,NA,NA,NA,NA,NA,NA,NA,NA,NA,NA,NA,NA,NA,NA,NA,NA,NA
NA,NA,NA,NA,NA,demo_prev_study,survey-multi-choice,98,334681,0.0-11.0,227,1,2025-05-06T02:48:30Z,b60275e29fe2361ab97ac0ac217840d7,"Mozilla/5.0 (Macintosh; Intel Mac OS X 10_15_7) AppleWebKit/605.1.15 (KHTML, like Gecko) Version/17.5 Safari/605.1.15",Macintosh,Safari,17.5,OS X,10_15_7,https://5puzkbbxv1.cognition.run/?sona_id=56931,"en-US,en;q=0.9",orx0gwptnvh5x4p,21,"[""Asian""]",No,Male,Pakistan,No,350155,NA,4229,NA,"{""Q0"":""No""}",NA,NA,NA,NA,NA,NA,NA,NA,NA,NA,NA,NA,NA,NA,NA,NA,NA,NA,NA,NA,NA,NA,[0]
NA,NA,NA,NA,NA,post_survey_message,html-keyboard-response,99,342551,0.0-12.0,227,1,2025-05-06T02:48:30Z,b60275e29fe2361ab97ac0ac217840d7,"Mozilla/5.0 (Macintosh; Intel Mac OS X 10_15_7) AppleWebKit/605.1.15 (KHTML, like Gecko) Version/17.5 Safari/605.1.15",Macintosh,Safari,17.5,OS X,10_15_7,https://5puzkbbxv1.cognition.run/?sona_id=56931,"en-US,en;q=0.9",orx0gwptnvh5x4p,21,"[""Asian""]",No,Male,Pakistan,No,350155,NA,7853,NA,j,NA,NA,NA,NA,NA,NA,NA,NA,NA,NA,NA,NA,NA,NA,NA,NA,NA,NA,NA,NA,NA,NA,NA
NA,NA,NA,NA,NA,debrief,image-keyboard-response,100,350151,0.0-13.0,227,1,2025-05-06T02:48:30Z,b60275e29fe2361ab97ac0ac217840d7,"Mozilla/5.0 (Macintosh; Intel Mac OS X 10_15_7) AppleWebKit/605.1.15 (KHTML, like Gecko) Version/17.5 Safari/605.1.15",Macintosh,Safari,17.5,OS X,10_15_7,https://5puzkbbxv1.cognition.run/?sona_id=56931,"en-US,en;q=0.9",orx0gwptnvh5x4p,21,"[""Asian""]",No,Male,Pakistan,No,350155,NA,7565,Judg_choice_debrief.png,p,NA,NA,NA,NA,NA,NA,NA,NA,NA,NA,NA,NA,NA,NA,NA,NA,NA,NA,NA,NA,NA,NA,NA
