success,timeout,failed_images,failed_audio,failed_video,screen_id,trial_type,trial_index,time_elapsed,internal_node_id,run_id,condition,recorded_at,source_code_version,user_agent,device,browser,browser_version,platform,platform_version,referer,accept_language,ppt_id,age,race,ethnicity,gender,other_countries,prev_study,exp_duration,view_history,rt,stimulus,response,phase,order,set,effect,t_high,category,d1_best,d2_best,d1_worst1,d2_worst1,d1_worst2,d2_worst2,first_dim,d1_t,d1_c,d1_d,d2_t,d2_c,d2_d,d1_name,d2_name,strategy_response,question_order
TRUE,FALSE,[],[],[],img preload,preload,0,167,0.0-0.0,229,1,2025-05-06T03:37:09Z,b60275e29fe2361ab97ac0ac217840d7,"Mozilla/5.0 (Macintosh; Intel Mac OS X 10_15_7) AppleWebKit/605.1.15 (KHTML, like Gecko) Version/15.1 Safari/605.1.15",Macintosh,Safari,15.1,OS X,10_15_7,https://5puzkbbxv1.cognition.run/?sona_id=57183,"en-US,en;q=0.9",lqp68pm0ff22ju4,19,"[""White""]",No,Female,NA,No,537798,NA,NA,NA,NA,NA,NA,NA,NA,NA,NA,NA,NA,NA,NA,NA,NA,NA,NA,NA,NA,NA,NA,NA,NA,NA,NA,NA
NA,NA,NA,NA,NA,computer_message,instructions,1,7403,0.0-1.0,229,1,2025-05-06T03:37:09Z,b60275e29fe2361ab97ac0ac217840d7,"Mozilla/5.0 (Macintosh; Intel Mac OS X 10_15_7) AppleWebKit/605.1.15 (KHTML, like Gecko) Version/15.1 Safari/605.1.15",Macintosh,Safari,15.1,OS X,10_15_7,https://5puzkbbxv1.cognition.run/?sona_id=57183,"en-US,en;q=0.9",lqp68pm0ff22ju4,19,"[""White""]",No,Female,NA,No,537798,"[{""page_index"":0,""viewing_time"":7233}]",7234,NA,NA,NA,NA,NA,NA,NA,NA,NA,NA,NA,NA,NA,NA,NA,NA,NA,NA,NA,NA,NA,NA,NA,NA,NA
TRUE,NA,NA,NA,NA,NA,fullscreen,2,10403,0.0-2.0,229,1,2025-05-06T03:37:09Z,b60275e29fe2361ab97ac0ac217840d7,"Mozilla/5.0 (Macintosh; Intel Mac OS X 10_15_7) AppleWebKit/605.1.15 (KHTML, like Gecko) Version/15.1 Safari/605.1.15",Macintosh,Safari,15.1,OS X,10_15_7,https://5puzkbbxv1.cognition.run/?sona_id=57183,"en-US,en;q=0.9",lqp68pm0ff22ju4,19,"[""White""]",No,Female,NA,No,537798,NA,1996,NA,NA,NA,NA,NA,NA,NA,NA,NA,NA,NA,NA,NA,NA,NA,NA,NA,NA,NA,NA,NA,NA,NA,NA,NA
NA,NA,NA,NA,NA,choice_instructions,instructions,3,72032,0.0-3.0,229,1,2025-05-06T03:37:09Z,b60275e29fe2361ab97ac0ac217840d7,"Mozilla/5.0 (Macintosh; Intel Mac OS X 10_15_7) AppleWebKit/605.1.15 (KHTML, like Gecko) Version/15.1 Safari/605.1.15",Macintosh,Safari,15.1,OS X,10_15_7,https://5puzkbbxv1.cognition.run/?sona_id=57183,"en-US,en;q=0.9",lqp68pm0ff22ju4,19,"[""White""]",No,Female,NA,No,537798,"[{""page_index"":0,""viewing_time"":1693},{""page_index"":1,""viewing_time"":9635},{""page_index"":2,""viewing_time"":6351},{""page_index"":3,""viewing_time"":11632},{""page_index"":4,""viewing_time"":2101},{""page_index"":5,""viewing_time"":24033},{""page_index"":6,""viewing_time"":6183}]",61628,NA,NA,NA,NA,NA,NA,NA,NA,NA,NA,NA,NA,NA,NA,NA,NA,NA,NA,NA,NA,NA,NA,NA,NA,NA
NA,NA,NA,NA,NA,choice_trial_setup,html-keyboard-response,4,72339,0.0-4.0-0.0,229,1,2025-05-06T03:37:09Z,b60275e29fe2361ab97ac0ac217840d7,"Mozilla/5.0 (Macintosh; Intel Mac OS X 10_15_7) AppleWebKit/605.1.15 (KHTML, like Gecko) Version/15.1 Safari/605.1.15",Macintosh,Safari,15.1,OS X,10_15_7,https://5puzkbbxv1.cognition.run/?sona_id=57183,"en-US,en;q=0.9",lqp68pm0ff22ju4,19,"[""White""]",No,Female,NA,No,537798,NA,null,<p></p>,null,choice,tdc,trinary,attraction,2,laptops,null,null,null,null,null,null,2,NA,NA,NA,NA,NA,NA,NA,NA,NA,NA
NA,NA,NA,NA,NA,choice_trial,survey-html-form,5,98856,0.0-4.0-1.0,229,1,2025-05-06T03:37:09Z,b60275e29fe2361ab97ac0ac217840d7,"Mozilla/5.0 (Macintosh; Intel Mac OS X 10_15_7) AppleWebKit/605.1.15 (KHTML, like Gecko) Version/15.1 Safari/605.1.15",Macintosh,Safari,15.1,OS X,10_15_7,https://5puzkbbxv1.cognition.run/?sona_id=57183,"en-US,en;q=0.9",lqp68pm0ff22ju4,19,"[""White""]",No,Female,NA,No,537798,NA,26511,NA,"{""product_choice"":""C""}",choice,tdc,trinary,attraction,2,laptops,null,null,null,null,null,null,2,50,60,40,60,50,60,Processing speed,Memory (RAM),NA,NA
NA,NA,NA,NA,NA,choice_trial_setup,html-keyboard-response,6,99160,0.0-4.0-0.1,229,1,2025-05-06T03:37:09Z,b60275e29fe2361ab97ac0ac217840d7,"Mozilla/5.0 (Macintosh; Intel Mac OS X 10_15_7) AppleWebKit/605.1.15 (KHTML, like Gecko) Version/15.1 Safari/605.1.15",Macintosh,Safari,15.1,OS X,10_15_7,https://5puzkbbxv1.cognition.run/?sona_id=57183,"en-US,en;q=0.9",lqp68pm0ff22ju4,19,"[""White""]",No,Female,NA,No,537798,NA,null,<p></p>,null,choice,ctd,trinary,repulsion_A,2,washing machines,null,null,null,null,null,null,2,NA,NA,NA,NA,NA,NA,NA,NA,NA,NA
NA,NA,NA,NA,NA,choice_trial,survey-html-form,7,105452,0.0-4.0-1.1,229,1,2025-05-06T03:37:09Z,b60275e29fe2361ab97ac0ac217840d7,"Mozilla/5.0 (Macintosh; Intel Mac OS X 10_15_7) AppleWebKit/605.1.15 (KHTML, like Gecko) Version/15.1 Safari/605.1.15",Macintosh,Safari,15.1,OS X,10_15_7,https://5puzkbbxv1.cognition.run/?sona_id=57183,"en-US,en;q=0.9",lqp68pm0ff22ju4,19,"[""White""]",No,Female,NA,No,537798,NA,6289,NA,"{""product_choice"":""A""}",choice,ctd,trinary,repulsion_A,2,washing machines,null,null,null,null,null,null,2,30,40,20,100,90,100,Average lifespan,Energy savings,NA,NA
NA,NA,NA,NA,NA,choice_trial_setup,html-keyboard-response,8,105756,0.0-4.0-0.2,229,1,2025-05-06T03:37:09Z,b60275e29fe2361ab97ac0ac217840d7,"Mozilla/5.0 (Macintosh; Intel Mac OS X 10_15_7) AppleWebKit/605.1.15 (KHTML, like Gecko) Version/15.1 Safari/605.1.15",Macintosh,Safari,15.1,OS X,10_15_7,https://5puzkbbxv1.cognition.run/?sona_id=57183,"en-US,en;q=0.9",lqp68pm0ff22ju4,19,"[""White""]",No,Female,NA,No,537798,NA,null,<p></p>,null,choice,ctd,trinary,repulsion_A,2,televisions,null,null,null,null,null,null,2,NA,NA,NA,NA,NA,NA,NA,NA,NA,NA
NA,NA,NA,NA,NA,choice_trial,survey-html-form,9,119835,0.0-4.0-1.2,229,1,2025-05-06T03:37:09Z,b60275e29fe2361ab97ac0ac217840d7,"Mozilla/5.0 (Macintosh; Intel Mac OS X 10_15_7) AppleWebKit/605.1.15 (KHTML, like Gecko) Version/15.1 Safari/605.1.15",Macintosh,Safari,15.1,OS X,10_15_7,https://5puzkbbxv1.cognition.run/?sona_id=57183,"en-US,en;q=0.9",lqp68pm0ff22ju4,19,"[""White""]",No,Female,NA,No,537798,NA,14075,NA,"{""product_choice"":""B""}",choice,ctd,trinary,repulsion_A,2,televisions,null,null,null,null,null,null,2,30,40,20,100,90,100,Screen size,Average lifespan,NA,NA
NA,NA,NA,NA,NA,choice_trial_setup,html-keyboard-response,10,120140,0.0-4.0-0.3,229,1,2025-05-06T03:37:09Z,b60275e29fe2361ab97ac0ac217840d7,"Mozilla/5.0 (Macintosh; Intel Mac OS X 10_15_7) AppleWebKit/605.1.15 (KHTML, like Gecko) Version/15.1 Safari/605.1.15",Macintosh,Safari,15.1,OS X,10_15_7,https://5puzkbbxv1.cognition.run/?sona_id=57183,"en-US,en;q=0.9",lqp68pm0ff22ju4,19,"[""White""]",No,Female,NA,No,537798,NA,null,<p></p>,null,choice,dtc,trinary,attraction,1,microwave ovens,null,null,null,null,null,null,1,NA,NA,NA,NA,NA,NA,NA,NA,NA,NA
NA,NA,NA,NA,NA,choice_trial,survey-html-form,11,131719,0.0-4.0-1.3,229,1,2025-05-06T03:37:09Z,b60275e29fe2361ab97ac0ac217840d7,"Mozilla/5.0 (Macintosh; Intel Mac OS X 10_15_7) AppleWebKit/605.1.15 (KHTML, like Gecko) Version/15.1 Safari/605.1.15",Macintosh,Safari,15.1,OS X,10_15_7,https://5puzkbbxv1.cognition.run/?sona_id=57183,"en-US,en;q=0.9",lqp68pm0ff22ju4,19,"[""White""]",No,Female,NA,No,537798,NA,11574,NA,"{""product_choice"":""B""}",choice,dtc,trinary,attraction,1,microwave ovens,null,null,null,null,null,null,1,60,50,60,50,60,40,Warranty,Cooking power,NA,NA
NA,NA,NA,NA,NA,choice_trial_setup,html-keyboard-response,12,132023,0.0-4.0-0.4,229,1,2025-05-06T03:37:09Z,b60275e29fe2361ab97ac0ac217840d7,"Mozilla/5.0 (Macintosh; Intel Mac OS X 10_15_7) AppleWebKit/605.1.15 (KHTML, like Gecko) Version/15.1 Safari/605.1.15",Macintosh,Safari,15.1,OS X,10_15_7,https://5puzkbbxv1.cognition.run/?sona_id=57183,"en-US,en;q=0.9",lqp68pm0ff22ju4,19,"[""White""]",No,Female,NA,No,537798,NA,null,<p></p>,null,choice,tdc,trinary,repulsion_A,1,microwave ovens,null,null,null,null,null,null,2,NA,NA,NA,NA,NA,NA,NA,NA,NA,NA
NA,NA,NA,NA,NA,choice_trial,survey-html-form,13,145409,0.0-4.0-1.4,229,1,2025-05-06T03:37:09Z,b60275e29fe2361ab97ac0ac217840d7,"Mozilla/5.0 (Macintosh; Intel Mac OS X 10_15_7) AppleWebKit/605.1.15 (KHTML, like Gecko) Version/15.1 Safari/605.1.15",Macintosh,Safari,15.1,OS X,10_15_7,https://5puzkbbxv1.cognition.run/?sona_id=57183,"en-US,en;q=0.9",lqp68pm0ff22ju4,19,"[""White""]",No,Female,NA,No,537798,NA,13376,NA,"{""product_choice"":""A""}",choice,tdc,trinary,repulsion_A,1,microwave ovens,null,null,null,null,null,null,2,100,90,100,30,40,20,Warranty,Cooking power,NA,NA
NA,NA,NA,NA,NA,choice_trial_setup,html-keyboard-response,14,145714,0.0-4.0-0.5,229,1,2025-05-06T03:37:09Z,b60275e29fe2361ab97ac0ac217840d7,"Mozilla/5.0 (Macintosh; Intel Mac OS X 10_15_7) AppleWebKit/605.1.15 (KHTML, like Gecko) Version/15.1 Safari/605.1.15",Macintosh,Safari,15.1,OS X,10_15_7,https://5puzkbbxv1.cognition.run/?sona_id=57183,"en-US,en;q=0.9",lqp68pm0ff22ju4,19,"[""White""]",No,Female,NA,No,537798,NA,null,<p></p>,null,choice,tc,binary,repulsion,2,washing machines,null,null,null,null,null,null,2,NA,NA,NA,NA,NA,NA,NA,NA,NA,NA
NA,NA,NA,NA,NA,choice_trial,survey-html-form,15,150932,0.0-4.0-1.5,229,1,2025-05-06T03:37:09Z,b60275e29fe2361ab97ac0ac217840d7,"Mozilla/5.0 (Macintosh; Intel Mac OS X 10_15_7) AppleWebKit/605.1.15 (KHTML, like Gecko) Version/15.1 Safari/605.1.15",Macintosh,Safari,15.1,OS X,10_15_7,https://5puzkbbxv1.cognition.run/?sona_id=57183,"en-US,en;q=0.9",lqp68pm0ff22ju4,19,"[""White""]",No,Female,NA,No,537798,NA,5213,NA,"{""product_choice"":""B""}",choice,tc,binary,repulsion,2,washing machines,null,null,null,null,null,null,2,30,40,null,100,90,null,Average lifespan,Energy savings,NA,NA
NA,NA,NA,NA,NA,choice_trial_setup,html-keyboard-response,16,151235,0.0-4.0-0.6,229,1,2025-05-06T03:37:09Z,b60275e29fe2361ab97ac0ac217840d7,"Mozilla/5.0 (Macintosh; Intel Mac OS X 10_15_7) AppleWebKit/605.1.15 (KHTML, like Gecko) Version/15.1 Safari/605.1.15",Macintosh,Safari,15.1,OS X,10_15_7,https://5puzkbbxv1.cognition.run/?sona_id=57183,"en-US,en;q=0.9",lqp68pm0ff22ju4,19,"[""White""]",No,Female,NA,No,537798,NA,null,<p></p>,null,choice,tc,binary,repulsion,1,laptops,null,null,null,null,null,null,2,NA,NA,NA,NA,NA,NA,NA,NA,NA,NA
NA,NA,NA,NA,NA,choice_trial,survey-html-form,17,157535,0.0-4.0-1.6,229,1,2025-05-06T03:37:09Z,b60275e29fe2361ab97ac0ac217840d7,"Mozilla/5.0 (Macintosh; Intel Mac OS X 10_15_7) AppleWebKit/605.1.15 (KHTML, like Gecko) Version/15.1 Safari/605.1.15",Macintosh,Safari,15.1,OS X,10_15_7,https://5puzkbbxv1.cognition.run/?sona_id=57183,"en-US,en;q=0.9",lqp68pm0ff22ju4,19,"[""White""]",No,Female,NA,No,537798,NA,6295,NA,"{""product_choice"":""A""}",choice,tc,binary,repulsion,1,laptops,null,null,null,null,null,null,2,100,90,null,30,40,null,Processing speed,Memory (RAM),NA,NA
NA,NA,NA,NA,NA,choice_trial_setup,html-keyboard-response,18,157839,0.0-4.0-0.7,229,1,2025-05-06T03:37:09Z,b60275e29fe2361ab97ac0ac217840d7,"Mozilla/5.0 (Macintosh; Intel Mac OS X 10_15_7) AppleWebKit/605.1.15 (KHTML, like Gecko) Version/15.1 Safari/605.1.15",Macintosh,Safari,15.1,OS X,10_15_7,https://5puzkbbxv1.cognition.run/?sona_id=57183,"en-US,en;q=0.9",lqp68pm0ff22ju4,19,"[""White""]",No,Female,NA,No,537798,NA,null,<p></p>,null,choice,ct,binary,repulsion,1,washing machines,null,null,null,null,null,null,2,NA,NA,NA,NA,NA,NA,NA,NA,NA,NA
NA,NA,NA,NA,NA,choice_trial,survey-html-form,19,159801,0.0-4.0-1.7,229,1,2025-05-06T03:37:09Z,b60275e29fe2361ab97ac0ac217840d7,"Mozilla/5.0 (Macintosh; Intel Mac OS X 10_15_7) AppleWebKit/605.1.15 (KHTML, like Gecko) Version/15.1 Safari/605.1.15",Macintosh,Safari,15.1,OS X,10_15_7,https://5puzkbbxv1.cognition.run/?sona_id=57183,"en-US,en;q=0.9",lqp68pm0ff22ju4,19,"[""White""]",No,Female,NA,No,537798,NA,1959,NA,"{""product_choice"":""B""}",choice,ct,binary,repulsion,1,washing machines,null,null,null,null,null,null,2,100,90,null,30,40,null,Average lifespan,Energy savings,NA,NA
NA,NA,NA,NA,NA,choice_trial_setup,html-keyboard-response,20,160106,0.0-4.0-0.8,229,1,2025-05-06T03:37:09Z,b60275e29fe2361ab97ac0ac217840d7,"Mozilla/5.0 (Macintosh; Intel Mac OS X 10_15_7) AppleWebKit/605.1.15 (KHTML, like Gecko) Version/15.1 Safari/605.1.15",Macintosh,Safari,15.1,OS X,10_15_7,https://5puzkbbxv1.cognition.run/?sona_id=57183,"en-US,en;q=0.9",lqp68pm0ff22ju4,19,"[""White""]",No,Female,NA,No,537798,NA,null,<p></p>,null,choice,tcd,trinary,repulsion_A,1,televisions,null,null,null,null,null,null,1,NA,NA,NA,NA,NA,NA,NA,NA,NA,NA
NA,NA,NA,NA,NA,choice_trial,survey-html-form,21,164350,0.0-4.0-1.8,229,1,2025-05-06T03:37:09Z,b60275e29fe2361ab97ac0ac217840d7,"Mozilla/5.0 (Macintosh; Intel Mac OS X 10_15_7) AppleWebKit/605.1.15 (KHTML, like Gecko) Version/15.1 Safari/605.1.15",Macintosh,Safari,15.1,OS X,10_15_7,https://5puzkbbxv1.cognition.run/?sona_id=57183,"en-US,en;q=0.9",lqp68pm0ff22ju4,19,"[""White""]",No,Female,NA,No,537798,NA,4242,NA,"{""product_choice"":""A""}",choice,tcd,trinary,repulsion_A,1,televisions,null,null,null,null,null,null,1,100,90,100,30,40,20,Screen size,Average lifespan,NA,NA
NA,NA,NA,NA,NA,choice_trial_setup,html-keyboard-response,22,164653,0.0-4.0-0.9,229,1,2025-05-06T03:37:09Z,b60275e29fe2361ab97ac0ac217840d7,"Mozilla/5.0 (Macintosh; Intel Mac OS X 10_15_7) AppleWebKit/605.1.15 (KHTML, like Gecko) Version/15.1 Safari/605.1.15",Macintosh,Safari,15.1,OS X,10_15_7,https://5puzkbbxv1.cognition.run/?sona_id=57183,"en-US,en;q=0.9",lqp68pm0ff22ju4,19,"[""White""]",No,Female,NA,No,537798,NA,null,<p></p>,null,choice,tdc,trinary,attraction,1,televisions,null,null,null,null,null,null,2,NA,NA,NA,NA,NA,NA,NA,NA,NA,NA
NA,NA,NA,NA,NA,choice_trial,survey-html-form,23,166968,0.0-4.0-1.9,229,1,2025-05-06T03:37:09Z,b60275e29fe2361ab97ac0ac217840d7,"Mozilla/5.0 (Macintosh; Intel Mac OS X 10_15_7) AppleWebKit/605.1.15 (KHTML, like Gecko) Version/15.1 Safari/605.1.15",Macintosh,Safari,15.1,OS X,10_15_7,https://5puzkbbxv1.cognition.run/?sona_id=57183,"en-US,en;q=0.9",lqp68pm0ff22ju4,19,"[""White""]",No,Female,NA,No,537798,NA,2312,NA,"{""product_choice"":""A""}",choice,tdc,trinary,attraction,1,televisions,null,null,null,null,null,null,2,60,50,60,50,60,40,Screen size,Average lifespan,NA,NA
NA,NA,NA,NA,NA,choice_trial_setup,html-keyboard-response,24,167273,0.0-4.0-0.10,229,1,2025-05-06T03:37:09Z,b60275e29fe2361ab97ac0ac217840d7,"Mozilla/5.0 (Macintosh; Intel Mac OS X 10_15_7) AppleWebKit/605.1.15 (KHTML, like Gecko) Version/15.1 Safari/605.1.15",Macintosh,Safari,15.1,OS X,10_15_7,https://5puzkbbxv1.cognition.run/?sona_id=57183,"en-US,en;q=0.9",lqp68pm0ff22ju4,19,"[""White""]",No,Female,NA,No,537798,NA,null,<p></p>,null,choice,ctd,trinary,attraction,1,laptops,null,null,null,null,null,null,1,NA,NA,NA,NA,NA,NA,NA,NA,NA,NA
NA,NA,NA,NA,NA,choice_trial,survey-html-form,25,179472,0.0-4.0-1.10,229,1,2025-05-06T03:37:09Z,b60275e29fe2361ab97ac0ac217840d7,"Mozilla/5.0 (Macintosh; Intel Mac OS X 10_15_7) AppleWebKit/605.1.15 (KHTML, like Gecko) Version/15.1 Safari/605.1.15",Macintosh,Safari,15.1,OS X,10_15_7,https://5puzkbbxv1.cognition.run/?sona_id=57183,"en-US,en;q=0.9",lqp68pm0ff22ju4,19,"[""White""]",No,Female,NA,No,537798,NA,12197,NA,"{""product_choice"":""B""}",choice,ctd,trinary,attraction,1,laptops,null,null,null,null,null,null,1,60,50,60,50,60,40,Processing speed,Memory (RAM),NA,NA
NA,NA,NA,NA,NA,choice_trial_setup,html-keyboard-response,26,179777,0.0-4.0-0.11,229,1,2025-05-06T03:37:09Z,b60275e29fe2361ab97ac0ac217840d7,"Mozilla/5.0 (Macintosh; Intel Mac OS X 10_15_7) AppleWebKit/605.1.15 (KHTML, like Gecko) Version/15.1 Safari/605.1.15",Macintosh,Safari,15.1,OS X,10_15_7,https://5puzkbbxv1.cognition.run/?sona_id=57183,"en-US,en;q=0.9",lqp68pm0ff22ju4,19,"[""White""]",No,Female,NA,No,537798,NA,null,<p></p>,null,choice,wbw,trinary,catch,null,washing machines,50,75,35,20,20,15,1,NA,NA,NA,NA,NA,NA,NA,NA,NA,NA
NA,NA,NA,NA,NA,choice_trial,survey-html-form,27,188967,0.0-4.0-1.11,229,1,2025-05-06T03:37:09Z,b60275e29fe2361ab97ac0ac217840d7,"Mozilla/5.0 (Macintosh; Intel Mac OS X 10_15_7) AppleWebKit/605.1.15 (KHTML, like Gecko) Version/15.1 Safari/605.1.15",Macintosh,Safari,15.1,OS X,10_15_7,https://5puzkbbxv1.cognition.run/?sona_id=57183,"en-US,en;q=0.9",lqp68pm0ff22ju4,19,"[""White""]",No,Female,NA,No,537798,NA,9186,NA,"{""product_choice"":""B""}",choice,wbw,trinary,catch,null,washing machines,50,75,35,20,20,15,1,null,null,null,null,null,null,Average lifespan,Energy savings,NA,NA
NA,NA,NA,NA,NA,choice_trial_setup,html-keyboard-response,28,189271,0.0-4.0-0.12,229,1,2025-05-06T03:37:09Z,b60275e29fe2361ab97ac0ac217840d7,"Mozilla/5.0 (Macintosh; Intel Mac OS X 10_15_7) AppleWebKit/605.1.15 (KHTML, like Gecko) Version/15.1 Safari/605.1.15",Macintosh,Safari,15.1,OS X,10_15_7,https://5puzkbbxv1.cognition.run/?sona_id=57183,"en-US,en;q=0.9",lqp68pm0ff22ju4,19,"[""White""]",No,Female,NA,No,537798,NA,null,<p></p>,null,choice,tdc,trinary,repulsion_B,1,laptops,null,null,null,null,null,null,1,NA,NA,NA,NA,NA,NA,NA,NA,NA,NA
NA,NA,NA,NA,NA,choice_trial,survey-html-form,29,197084,0.0-4.0-1.12,229,1,2025-05-06T03:37:09Z,b60275e29fe2361ab97ac0ac217840d7,"Mozilla/5.0 (Macintosh; Intel Mac OS X 10_15_7) AppleWebKit/605.1.15 (KHTML, like Gecko) Version/15.1 Safari/605.1.15",Macintosh,Safari,15.1,OS X,10_15_7,https://5puzkbbxv1.cognition.run/?sona_id=57183,"en-US,en;q=0.9",lqp68pm0ff22ju4,19,"[""White""]",No,Female,NA,No,537798,NA,7808,NA,"{""product_choice"":""C""}",choice,tdc,trinary,repulsion_B,1,laptops,null,null,null,null,null,null,1,90,100,80,40,30,40,Processing speed,Memory (RAM),NA,NA
NA,NA,NA,NA,NA,choice_trial_setup,html-keyboard-response,30,197388,0.0-4.0-0.13,229,1,2025-05-06T03:37:09Z,b60275e29fe2361ab97ac0ac217840d7,"Mozilla/5.0 (Macintosh; Intel Mac OS X 10_15_7) AppleWebKit/605.1.15 (KHTML, like Gecko) Version/15.1 Safari/605.1.15",Macintosh,Safari,15.1,OS X,10_15_7,https://5puzkbbxv1.cognition.run/?sona_id=57183,"en-US,en;q=0.9",lqp68pm0ff22ju4,19,"[""White""]",No,Female,NA,No,537798,NA,null,<p></p>,null,choice,tc,binary,attraction,NA,televisions,null,null,null,null,null,null,2,NA,NA,NA,NA,NA,NA,NA,NA,NA,NA
NA,NA,NA,NA,NA,choice_trial,survey-html-form,31,199685,0.0-4.0-1.13,229,1,2025-05-06T03:37:09Z,b60275e29fe2361ab97ac0ac217840d7,"Mozilla/5.0 (Macintosh; Intel Mac OS X 10_15_7) AppleWebKit/605.1.15 (KHTML, like Gecko) Version/15.1 Safari/605.1.15",Macintosh,Safari,15.1,OS X,10_15_7,https://5puzkbbxv1.cognition.run/?sona_id=57183,"en-US,en;q=0.9",lqp68pm0ff22ju4,19,"[""White""]",No,Female,NA,No,537798,NA,2291,NA,"{""product_choice"":""B""}",choice,tc,binary,attraction,NA,televisions,null,null,null,null,null,null,2,60,50,null,50,60,null,Screen size,Average lifespan,NA,NA
NA,NA,NA,NA,NA,choice_trial_setup,html-keyboard-response,32,199989,0.0-4.0-0.14,229,1,2025-05-06T03:37:09Z,b60275e29fe2361ab97ac0ac217840d7,"Mozilla/5.0 (Macintosh; Intel Mac OS X 10_15_7) AppleWebKit/605.1.15 (KHTML, like Gecko) Version/15.1 Safari/605.1.15",Macintosh,Safari,15.1,OS X,10_15_7,https://5puzkbbxv1.cognition.run/?sona_id=57183,"en-US,en;q=0.9",lqp68pm0ff22ju4,19,"[""White""]",No,Female,NA,No,537798,NA,null,<p></p>,null,choice,tdc,trinary,repulsion_B,2,laptops,null,null,null,null,null,null,2,NA,NA,NA,NA,NA,NA,NA,NA,NA,NA
NA,NA,NA,NA,NA,choice_trial,survey-html-form,33,212084,0.0-4.0-1.14,229,1,2025-05-06T03:37:09Z,b60275e29fe2361ab97ac0ac217840d7,"Mozilla/5.0 (Macintosh; Intel Mac OS X 10_15_7) AppleWebKit/605.1.15 (KHTML, like Gecko) Version/15.1 Safari/605.1.15",Macintosh,Safari,15.1,OS X,10_15_7,https://5puzkbbxv1.cognition.run/?sona_id=57183,"en-US,en;q=0.9",lqp68pm0ff22ju4,19,"[""White""]",No,Female,NA,No,537798,NA,12090,NA,"{""product_choice"":""A""}",choice,tdc,trinary,repulsion_B,2,laptops,null,null,null,null,null,null,2,40,30,40,90,100,80,Processing speed,Memory (RAM),NA,NA
NA,NA,NA,NA,NA,choice_trial_setup,html-keyboard-response,34,212389,0.0-4.0-0.15,229,1,2025-05-06T03:37:09Z,b60275e29fe2361ab97ac0ac217840d7,"Mozilla/5.0 (Macintosh; Intel Mac OS X 10_15_7) AppleWebKit/605.1.15 (KHTML, like Gecko) Version/15.1 Safari/605.1.15",Macintosh,Safari,15.1,OS X,10_15_7,https://5puzkbbxv1.cognition.run/?sona_id=57183,"en-US,en;q=0.9",lqp68pm0ff22ju4,19,"[""White""]",No,Female,NA,No,537798,NA,null,<p></p>,null,choice,wb,binary,catch,null,laptops,90,90,10,45,null,null,2,NA,NA,NA,NA,NA,NA,NA,NA,NA,NA
NA,NA,NA,NA,NA,choice_trial,survey-html-form,35,219418,0.0-4.0-1.15,229,1,2025-05-06T03:37:09Z,b60275e29fe2361ab97ac0ac217840d7,"Mozilla/5.0 (Macintosh; Intel Mac OS X 10_15_7) AppleWebKit/605.1.15 (KHTML, like Gecko) Version/15.1 Safari/605.1.15",Macintosh,Safari,15.1,OS X,10_15_7,https://5puzkbbxv1.cognition.run/?sona_id=57183,"en-US,en;q=0.9",lqp68pm0ff22ju4,19,"[""White""]",No,Female,NA,No,537798,NA,7023,NA,"{""product_choice"":""B""}",choice,wb,binary,catch,null,laptops,90,90,10,45,null,null,2,null,null,null,null,null,null,Processing speed,Memory (RAM),NA,NA
NA,NA,NA,NA,NA,choice_trial_setup,html-keyboard-response,36,219722,0.0-4.0-0.16,229,1,2025-05-06T03:37:09Z,b60275e29fe2361ab97ac0ac217840d7,"Mozilla/5.0 (Macintosh; Intel Mac OS X 10_15_7) AppleWebKit/605.1.15 (KHTML, like Gecko) Version/15.1 Safari/605.1.15",Macintosh,Safari,15.1,OS X,10_15_7,https://5puzkbbxv1.cognition.run/?sona_id=57183,"en-US,en;q=0.9",lqp68pm0ff22ju4,19,"[""White""]",No,Female,NA,No,537798,NA,null,<p></p>,null,choice,tcd,trinary,repulsion_A,2,laptops,null,null,null,null,null,null,2,NA,NA,NA,NA,NA,NA,NA,NA,NA,NA
NA,NA,NA,NA,NA,choice_trial,survey-html-form,37,223500,0.0-4.0-1.16,229,1,2025-05-06T03:37:09Z,b60275e29fe2361ab97ac0ac217840d7,"Mozilla/5.0 (Macintosh; Intel Mac OS X 10_15_7) AppleWebKit/605.1.15 (KHTML, like Gecko) Version/15.1 Safari/605.1.15",Macintosh,Safari,15.1,OS X,10_15_7,https://5puzkbbxv1.cognition.run/?sona_id=57183,"en-US,en;q=0.9",lqp68pm0ff22ju4,19,"[""White""]",No,Female,NA,No,537798,NA,3770,NA,"{""product_choice"":""B""}",choice,tcd,trinary,repulsion_A,2,laptops,null,null,null,null,null,null,2,30,40,20,100,90,100,Processing speed,Memory (RAM),NA,NA
NA,NA,NA,NA,NA,choice_trial_setup,html-keyboard-response,38,223804,0.0-4.0-0.17,229,1,2025-05-06T03:37:09Z,b60275e29fe2361ab97ac0ac217840d7,"Mozilla/5.0 (Macintosh; Intel Mac OS X 10_15_7) AppleWebKit/605.1.15 (KHTML, like Gecko) Version/15.1 Safari/605.1.15",Macintosh,Safari,15.1,OS X,10_15_7,https://5puzkbbxv1.cognition.run/?sona_id=57183,"en-US,en;q=0.9",lqp68pm0ff22ju4,19,"[""White""]",No,Female,NA,No,537798,NA,null,<p></p>,null,choice,ct,binary,repulsion,1,televisions,null,null,null,null,null,null,2,NA,NA,NA,NA,NA,NA,NA,NA,NA,NA
NA,NA,NA,NA,NA,choice_trial,survey-html-form,39,226167,0.0-4.0-1.17,229,1,2025-05-06T03:37:09Z,b60275e29fe2361ab97ac0ac217840d7,"Mozilla/5.0 (Macintosh; Intel Mac OS X 10_15_7) AppleWebKit/605.1.15 (KHTML, like Gecko) Version/15.1 Safari/605.1.15",Macintosh,Safari,15.1,OS X,10_15_7,https://5puzkbbxv1.cognition.run/?sona_id=57183,"en-US,en;q=0.9",lqp68pm0ff22ju4,19,"[""White""]",No,Female,NA,No,537798,NA,2358,NA,"{""product_choice"":""B""}",choice,ct,binary,repulsion,1,televisions,null,null,null,null,null,null,2,100,90,null,30,40,null,Screen size,Average lifespan,NA,NA
NA,NA,NA,NA,NA,choice_trial_setup,html-keyboard-response,40,226472,0.0-4.0-0.18,229,1,2025-05-06T03:37:09Z,b60275e29fe2361ab97ac0ac217840d7,"Mozilla/5.0 (Macintosh; Intel Mac OS X 10_15_7) AppleWebKit/605.1.15 (KHTML, like Gecko) Version/15.1 Safari/605.1.15",Macintosh,Safari,15.1,OS X,10_15_7,https://5puzkbbxv1.cognition.run/?sona_id=57183,"en-US,en;q=0.9",lqp68pm0ff22ju4,19,"[""White""]",No,Female,NA,No,537798,NA,null,<p></p>,null,choice,dct,trinary,repulsion_B,2,televisions,null,null,null,null,null,null,2,NA,NA,NA,NA,NA,NA,NA,NA,NA,NA
NA,NA,NA,NA,NA,choice_trial,survey-html-form,41,232434,0.0-4.0-1.18,229,1,2025-05-06T03:37:09Z,b60275e29fe2361ab97ac0ac217840d7,"Mozilla/5.0 (Macintosh; Intel Mac OS X 10_15_7) AppleWebKit/605.1.15 (KHTML, like Gecko) Version/15.1 Safari/605.1.15",Macintosh,Safari,15.1,OS X,10_15_7,https://5puzkbbxv1.cognition.run/?sona_id=57183,"en-US,en;q=0.9",lqp68pm0ff22ju4,19,"[""White""]",No,Female,NA,No,537798,NA,5956,NA,"{""product_choice"":""B""}",choice,dct,trinary,repulsion_B,2,televisions,null,null,null,null,null,null,2,40,30,40,90,100,80,Screen size,Average lifespan,NA,NA
NA,NA,NA,NA,NA,choice_trial_setup,html-keyboard-response,42,232739,0.0-4.0-0.19,229,1,2025-05-06T03:37:09Z,b60275e29fe2361ab97ac0ac217840d7,"Mozilla/5.0 (Macintosh; Intel Mac OS X 10_15_7) AppleWebKit/605.1.15 (KHTML, like Gecko) Version/15.1 Safari/605.1.15",Macintosh,Safari,15.1,OS X,10_15_7,https://5puzkbbxv1.cognition.run/?sona_id=57183,"en-US,en;q=0.9",lqp68pm0ff22ju4,19,"[""White""]",No,Female,NA,No,537798,NA,null,<p></p>,null,choice,tc,binary,repulsion,2,televisions,null,null,null,null,null,null,2,NA,NA,NA,NA,NA,NA,NA,NA,NA,NA
NA,NA,NA,NA,NA,choice_trial,survey-html-form,43,240534,0.0-4.0-1.19,229,1,2025-05-06T03:37:09Z,b60275e29fe2361ab97ac0ac217840d7,"Mozilla/5.0 (Macintosh; Intel Mac OS X 10_15_7) AppleWebKit/605.1.15 (KHTML, like Gecko) Version/15.1 Safari/605.1.15",Macintosh,Safari,15.1,OS X,10_15_7,https://5puzkbbxv1.cognition.run/?sona_id=57183,"en-US,en;q=0.9",lqp68pm0ff22ju4,19,"[""White""]",No,Female,NA,No,537798,NA,7789,NA,"{""product_choice"":""A""}",choice,tc,binary,repulsion,2,televisions,null,null,null,null,null,null,2,30,40,null,100,90,null,Screen size,Average lifespan,NA,NA
NA,NA,NA,NA,NA,choice_trial_setup,html-keyboard-response,44,240838,0.0-4.0-0.20,229,1,2025-05-06T03:37:09Z,b60275e29fe2361ab97ac0ac217840d7,"Mozilla/5.0 (Macintosh; Intel Mac OS X 10_15_7) AppleWebKit/605.1.15 (KHTML, like Gecko) Version/15.1 Safari/605.1.15",Macintosh,Safari,15.1,OS X,10_15_7,https://5puzkbbxv1.cognition.run/?sona_id=57183,"en-US,en;q=0.9",lqp68pm0ff22ju4,19,"[""White""]",No,Female,NA,No,537798,NA,null,<p></p>,null,choice,tcd,trinary,attraction,2,washing machines,null,null,null,null,null,null,1,NA,NA,NA,NA,NA,NA,NA,NA,NA,NA
NA,NA,NA,NA,NA,choice_trial,survey-html-form,45,246616,0.0-4.0-1.20,229,1,2025-05-06T03:37:09Z,b60275e29fe2361ab97ac0ac217840d7,"Mozilla/5.0 (Macintosh; Intel Mac OS X 10_15_7) AppleWebKit/605.1.15 (KHTML, like Gecko) Version/15.1 Safari/605.1.15",Macintosh,Safari,15.1,OS X,10_15_7,https://5puzkbbxv1.cognition.run/?sona_id=57183,"en-US,en;q=0.9",lqp68pm0ff22ju4,19,"[""White""]",No,Female,NA,No,537798,NA,5774,NA,"{""product_choice"":""B""}",choice,tcd,trinary,attraction,2,washing machines,null,null,null,null,null,null,1,50,60,40,60,50,60,Average lifespan,Energy savings,NA,NA
NA,NA,NA,NA,NA,choice_trial_setup,html-keyboard-response,46,246920,0.0-4.0-0.21,229,1,2025-05-06T03:37:09Z,b60275e29fe2361ab97ac0ac217840d7,"Mozilla/5.0 (Macintosh; Intel Mac OS X 10_15_7) AppleWebKit/605.1.15 (KHTML, like Gecko) Version/15.1 Safari/605.1.15",Macintosh,Safari,15.1,OS X,10_15_7,https://5puzkbbxv1.cognition.run/?sona_id=57183,"en-US,en;q=0.9",lqp68pm0ff22ju4,19,"[""White""]",No,Female,NA,No,537798,NA,null,<p></p>,null,choice,wbw,trinary,catch,null,microwave ovens,50,70,50,50,45,20,2,NA,NA,NA,NA,NA,NA,NA,NA,NA,NA
NA,NA,NA,NA,NA,choice_trial,survey-html-form,47,251066,0.0-4.0-1.21,229,1,2025-05-06T03:37:09Z,b60275e29fe2361ab97ac0ac217840d7,"Mozilla/5.0 (Macintosh; Intel Mac OS X 10_15_7) AppleWebKit/605.1.15 (KHTML, like Gecko) Version/15.1 Safari/605.1.15",Macintosh,Safari,15.1,OS X,10_15_7,https://5puzkbbxv1.cognition.run/?sona_id=57183,"en-US,en;q=0.9",lqp68pm0ff22ju4,19,"[""White""]",No,Female,NA,No,537798,NA,4144,NA,"{""product_choice"":""B""}",choice,wbw,trinary,catch,null,microwave ovens,50,70,50,50,45,20,2,null,null,null,null,null,null,Warranty,Cooking power,NA,NA
NA,NA,NA,NA,NA,choice_trial_setup,html-keyboard-response,48,251371,0.0-4.0-0.22,229,1,2025-05-06T03:37:09Z,b60275e29fe2361ab97ac0ac217840d7,"Mozilla/5.0 (Macintosh; Intel Mac OS X 10_15_7) AppleWebKit/605.1.15 (KHTML, like Gecko) Version/15.1 Safari/605.1.15",Macintosh,Safari,15.1,OS X,10_15_7,https://5puzkbbxv1.cognition.run/?sona_id=57183,"en-US,en;q=0.9",lqp68pm0ff22ju4,19,"[""White""]",No,Female,NA,No,537798,NA,null,<p></p>,null,choice,dct,trinary,attraction,2,televisions,null,null,null,null,null,null,2,NA,NA,NA,NA,NA,NA,NA,NA,NA,NA
NA,NA,NA,NA,NA,choice_trial,survey-html-form,49,256668,0.0-4.0-1.22,229,1,2025-05-06T03:37:09Z,b60275e29fe2361ab97ac0ac217840d7,"Mozilla/5.0 (Macintosh; Intel Mac OS X 10_15_7) AppleWebKit/605.1.15 (KHTML, like Gecko) Version/15.1 Safari/605.1.15",Macintosh,Safari,15.1,OS X,10_15_7,https://5puzkbbxv1.cognition.run/?sona_id=57183,"en-US,en;q=0.9",lqp68pm0ff22ju4,19,"[""White""]",No,Female,NA,No,537798,NA,5293,NA,"{""product_choice"":""C""}",choice,dct,trinary,attraction,2,televisions,null,null,null,null,null,null,2,50,60,40,60,50,60,Screen size,Average lifespan,NA,NA
NA,NA,NA,NA,NA,choice_trial_setup,html-keyboard-response,50,256972,0.0-4.0-0.23,229,1,2025-05-06T03:37:09Z,b60275e29fe2361ab97ac0ac217840d7,"Mozilla/5.0 (Macintosh; Intel Mac OS X 10_15_7) AppleWebKit/605.1.15 (KHTML, like Gecko) Version/15.1 Safari/605.1.15",Macintosh,Safari,15.1,OS X,10_15_7,https://5puzkbbxv1.cognition.run/?sona_id=57183,"en-US,en;q=0.9",lqp68pm0ff22ju4,19,"[""White""]",No,Female,NA,No,537798,NA,null,<p></p>,null,choice,tc,binary,repulsion,1,microwave ovens,null,null,null,null,null,null,2,NA,NA,NA,NA,NA,NA,NA,NA,NA,NA
NA,NA,NA,NA,NA,choice_trial,survey-html-form,51,263722,0.0-4.0-1.23,229,1,2025-05-06T03:37:09Z,b60275e29fe2361ab97ac0ac217840d7,"Mozilla/5.0 (Macintosh; Intel Mac OS X 10_15_7) AppleWebKit/605.1.15 (KHTML, like Gecko) Version/15.1 Safari/605.1.15",Macintosh,Safari,15.1,OS X,10_15_7,https://5puzkbbxv1.cognition.run/?sona_id=57183,"en-US,en;q=0.9",lqp68pm0ff22ju4,19,"[""White""]",No,Female,NA,No,537798,NA,6743,NA,"{""product_choice"":""B""}",choice,tc,binary,repulsion,1,microwave ovens,null,null,null,null,null,null,2,100,90,null,30,40,null,Warranty,Cooking power,NA,NA
NA,NA,NA,NA,NA,choice_trial_setup,html-keyboard-response,52,264027,0.0-4.0-0.24,229,1,2025-05-06T03:37:09Z,b60275e29fe2361ab97ac0ac217840d7,"Mozilla/5.0 (Macintosh; Intel Mac OS X 10_15_7) AppleWebKit/605.1.15 (KHTML, like Gecko) Version/15.1 Safari/605.1.15",Macintosh,Safari,15.1,OS X,10_15_7,https://5puzkbbxv1.cognition.run/?sona_id=57183,"en-US,en;q=0.9",lqp68pm0ff22ju4,19,"[""White""]",No,Female,NA,No,537798,NA,null,<p></p>,null,choice,dct,trinary,repulsion_B,1,washing machines,null,null,null,null,null,null,1,NA,NA,NA,NA,NA,NA,NA,NA,NA,NA
NA,NA,NA,NA,NA,choice_trial,survey-html-form,53,272601,0.0-4.0-1.24,229,1,2025-05-06T03:37:09Z,b60275e29fe2361ab97ac0ac217840d7,"Mozilla/5.0 (Macintosh; Intel Mac OS X 10_15_7) AppleWebKit/605.1.15 (KHTML, like Gecko) Version/15.1 Safari/605.1.15",Macintosh,Safari,15.1,OS X,10_15_7,https://5puzkbbxv1.cognition.run/?sona_id=57183,"en-US,en;q=0.9",lqp68pm0ff22ju4,19,"[""White""]",No,Female,NA,No,537798,NA,8567,NA,"{""product_choice"":""B""}",choice,dct,trinary,repulsion_B,1,washing machines,null,null,null,null,null,null,1,90,100,80,40,30,40,Average lifespan,Energy savings,NA,NA
NA,NA,NA,NA,NA,choice_trial_setup,html-keyboard-response,54,272906,0.0-4.0-0.25,229,1,2025-05-06T03:37:09Z,b60275e29fe2361ab97ac0ac217840d7,"Mozilla/5.0 (Macintosh; Intel Mac OS X 10_15_7) AppleWebKit/605.1.15 (KHTML, like Gecko) Version/15.1 Safari/605.1.15",Macintosh,Safari,15.1,OS X,10_15_7,https://5puzkbbxv1.cognition.run/?sona_id=57183,"en-US,en;q=0.9",lqp68pm0ff22ju4,19,"[""White""]",No,Female,NA,No,537798,NA,null,<p></p>,null,choice,bww,trinary,catch,null,laptops,60,85,15,45,50,10,2,NA,NA,NA,NA,NA,NA,NA,NA,NA,NA
NA,NA,NA,NA,NA,choice_trial,survey-html-form,55,290167,0.0-4.0-1.25,229,1,2025-05-06T03:37:09Z,b60275e29fe2361ab97ac0ac217840d7,"Mozilla/5.0 (Macintosh; Intel Mac OS X 10_15_7) AppleWebKit/605.1.15 (KHTML, like Gecko) Version/15.1 Safari/605.1.15",Macintosh,Safari,15.1,OS X,10_15_7,https://5puzkbbxv1.cognition.run/?sona_id=57183,"en-US,en;q=0.9",lqp68pm0ff22ju4,19,"[""White""]",No,Female,NA,No,537798,NA,17255,NA,"{""product_choice"":""A""}",choice,bww,trinary,catch,null,laptops,60,85,15,45,50,10,2,null,null,null,null,null,null,Processing speed,Memory (RAM),NA,NA
NA,NA,NA,NA,NA,choice_trial_setup,html-keyboard-response,56,290473,0.0-4.0-0.26,229,1,2025-05-06T03:37:09Z,b60275e29fe2361ab97ac0ac217840d7,"Mozilla/5.0 (Macintosh; Intel Mac OS X 10_15_7) AppleWebKit/605.1.15 (KHTML, like Gecko) Version/15.1 Safari/605.1.15",Macintosh,Safari,15.1,OS X,10_15_7,https://5puzkbbxv1.cognition.run/?sona_id=57183,"en-US,en;q=0.9",lqp68pm0ff22ju4,19,"[""White""]",No,Female,NA,No,537798,NA,null,<p></p>,null,choice,bw,binary,catch,null,washing machines,85,60,30,45,null,null,1,NA,NA,NA,NA,NA,NA,NA,NA,NA,NA
NA,NA,NA,NA,NA,choice_trial,survey-html-form,57,303252,0.0-4.0-1.26,229,1,2025-05-06T03:37:09Z,b60275e29fe2361ab97ac0ac217840d7,"Mozilla/5.0 (Macintosh; Intel Mac OS X 10_15_7) AppleWebKit/605.1.15 (KHTML, like Gecko) Version/15.1 Safari/605.1.15",Macintosh,Safari,15.1,OS X,10_15_7,https://5puzkbbxv1.cognition.run/?sona_id=57183,"en-US,en;q=0.9",lqp68pm0ff22ju4,19,"[""White""]",No,Female,NA,No,537798,NA,12773,NA,"{""product_choice"":""A""}",choice,bw,binary,catch,null,washing machines,85,60,30,45,null,null,1,null,null,null,null,null,null,Average lifespan,Energy savings,NA,NA
NA,NA,NA,NA,NA,choice_trial_setup,html-keyboard-response,58,303558,0.0-4.0-0.27,229,1,2025-05-06T03:37:09Z,b60275e29fe2361ab97ac0ac217840d7,"Mozilla/5.0 (Macintosh; Intel Mac OS X 10_15_7) AppleWebKit/605.1.15 (KHTML, like Gecko) Version/15.1 Safari/605.1.15",Macintosh,Safari,15.1,OS X,10_15_7,https://5puzkbbxv1.cognition.run/?sona_id=57183,"en-US,en;q=0.9",lqp68pm0ff22ju4,19,"[""White""]",No,Female,NA,No,537798,NA,null,<p></p>,null,choice,cdt,trinary,repulsion_B,1,televisions,null,null,null,null,null,null,2,NA,NA,NA,NA,NA,NA,NA,NA,NA,NA
NA,NA,NA,NA,NA,choice_trial,survey-html-form,59,315716,0.0-4.0-1.27,229,1,2025-05-06T03:37:09Z,b60275e29fe2361ab97ac0ac217840d7,"Mozilla/5.0 (Macintosh; Intel Mac OS X 10_15_7) AppleWebKit/605.1.15 (KHTML, like Gecko) Version/15.1 Safari/605.1.15",Macintosh,Safari,15.1,OS X,10_15_7,https://5puzkbbxv1.cognition.run/?sona_id=57183,"en-US,en;q=0.9",lqp68pm0ff22ju4,19,"[""White""]",No,Female,NA,No,537798,NA,12152,NA,"{""product_choice"":""C""}",choice,cdt,trinary,repulsion_B,1,televisions,null,null,null,null,null,null,2,90,100,80,40,30,40,Screen size,Average lifespan,NA,NA
NA,NA,NA,NA,NA,choice_trial_setup,html-keyboard-response,60,316022,0.0-4.0-0.28,229,1,2025-05-06T03:37:09Z,b60275e29fe2361ab97ac0ac217840d7,"Mozilla/5.0 (Macintosh; Intel Mac OS X 10_15_7) AppleWebKit/605.1.15 (KHTML, like Gecko) Version/15.1 Safari/605.1.15",Macintosh,Safari,15.1,OS X,10_15_7,https://5puzkbbxv1.cognition.run/?sona_id=57183,"en-US,en;q=0.9",lqp68pm0ff22ju4,19,"[""White""]",No,Female,NA,No,537798,NA,null,<p></p>,null,choice,bw,binary,catch,null,microwave ovens,50,55,35,50,null,null,1,NA,NA,NA,NA,NA,NA,NA,NA,NA,NA
NA,NA,NA,NA,NA,choice_trial,survey-html-form,61,321082,0.0-4.0-1.28,229,1,2025-05-06T03:37:09Z,b60275e29fe2361ab97ac0ac217840d7,"Mozilla/5.0 (Macintosh; Intel Mac OS X 10_15_7) AppleWebKit/605.1.15 (KHTML, like Gecko) Version/15.1 Safari/605.1.15",Macintosh,Safari,15.1,OS X,10_15_7,https://5puzkbbxv1.cognition.run/?sona_id=57183,"en-US,en;q=0.9",lqp68pm0ff22ju4,19,"[""White""]",No,Female,NA,No,537798,NA,5051,NA,"{""product_choice"":""A""}",choice,bw,binary,catch,null,microwave ovens,50,55,35,50,null,null,1,null,null,null,null,null,null,Warranty,Cooking power,NA,NA
NA,NA,NA,NA,NA,choice_trial_setup,html-keyboard-response,62,321388,0.0-4.0-0.29,229,1,2025-05-06T03:37:09Z,b60275e29fe2361ab97ac0ac217840d7,"Mozilla/5.0 (Macintosh; Intel Mac OS X 10_15_7) AppleWebKit/605.1.15 (KHTML, like Gecko) Version/15.1 Safari/605.1.15",Macintosh,Safari,15.1,OS X,10_15_7,https://5puzkbbxv1.cognition.run/?sona_id=57183,"en-US,en;q=0.9",lqp68pm0ff22ju4,19,"[""White""]",No,Female,NA,No,537798,NA,null,<p></p>,null,choice,tdc,trinary,attraction,1,washing machines,null,null,null,null,null,null,1,NA,NA,NA,NA,NA,NA,NA,NA,NA,NA
NA,NA,NA,NA,NA,choice_trial,survey-html-form,63,327716,0.0-4.0-1.29,229,1,2025-05-06T03:37:09Z,b60275e29fe2361ab97ac0ac217840d7,"Mozilla/5.0 (Macintosh; Intel Mac OS X 10_15_7) AppleWebKit/605.1.15 (KHTML, like Gecko) Version/15.1 Safari/605.1.15",Macintosh,Safari,15.1,OS X,10_15_7,https://5puzkbbxv1.cognition.run/?sona_id=57183,"en-US,en;q=0.9",lqp68pm0ff22ju4,19,"[""White""]",No,Female,NA,No,537798,NA,6322,NA,"{""product_choice"":""A""}",choice,tdc,trinary,attraction,1,washing machines,null,null,null,null,null,null,1,60,50,60,50,60,40,Average lifespan,Energy savings,NA,NA
NA,NA,NA,NA,NA,choice_trial_setup,html-keyboard-response,64,328023,0.0-4.0-0.30,229,1,2025-05-06T03:37:09Z,b60275e29fe2361ab97ac0ac217840d7,"Mozilla/5.0 (Macintosh; Intel Mac OS X 10_15_7) AppleWebKit/605.1.15 (KHTML, like Gecko) Version/15.1 Safari/605.1.15",Macintosh,Safari,15.1,OS X,10_15_7,https://5puzkbbxv1.cognition.run/?sona_id=57183,"en-US,en;q=0.9",lqp68pm0ff22ju4,19,"[""White""]",No,Female,NA,No,537798,NA,null,<p></p>,null,choice,ct,binary,repulsion,2,laptops,null,null,null,null,null,null,1,NA,NA,NA,NA,NA,NA,NA,NA,NA,NA
NA,NA,NA,NA,NA,choice_trial,survey-html-form,65,330898,0.0-4.0-1.30,229,1,2025-05-06T03:37:09Z,b60275e29fe2361ab97ac0ac217840d7,"Mozilla/5.0 (Macintosh; Intel Mac OS X 10_15_7) AppleWebKit/605.1.15 (KHTML, like Gecko) Version/15.1 Safari/605.1.15",Macintosh,Safari,15.1,OS X,10_15_7,https://5puzkbbxv1.cognition.run/?sona_id=57183,"en-US,en;q=0.9",lqp68pm0ff22ju4,19,"[""White""]",No,Female,NA,No,537798,NA,2865,NA,"{""product_choice"":""B""}",choice,ct,binary,repulsion,2,laptops,null,null,null,null,null,null,1,30,40,null,100,90,null,Processing speed,Memory (RAM),NA,NA
NA,NA,NA,NA,NA,choice_trial_setup,html-keyboard-response,66,331204,0.0-4.0-0.31,229,1,2025-05-06T03:37:09Z,b60275e29fe2361ab97ac0ac217840d7,"Mozilla/5.0 (Macintosh; Intel Mac OS X 10_15_7) AppleWebKit/605.1.15 (KHTML, like Gecko) Version/15.1 Safari/605.1.15",Macintosh,Safari,15.1,OS X,10_15_7,https://5puzkbbxv1.cognition.run/?sona_id=57183,"en-US,en;q=0.9",lqp68pm0ff22ju4,19,"[""White""]",No,Female,NA,No,537798,NA,null,<p></p>,null,choice,ctd,trinary,repulsion_A,2,microwave ovens,null,null,null,null,null,null,1,NA,NA,NA,NA,NA,NA,NA,NA,NA,NA
NA,NA,NA,NA,NA,choice_trial,survey-html-form,67,338953,0.0-4.0-1.31,229,1,2025-05-06T03:37:09Z,b60275e29fe2361ab97ac0ac217840d7,"Mozilla/5.0 (Macintosh; Intel Mac OS X 10_15_7) AppleWebKit/605.1.15 (KHTML, like Gecko) Version/15.1 Safari/605.1.15",Macintosh,Safari,15.1,OS X,10_15_7,https://5puzkbbxv1.cognition.run/?sona_id=57183,"en-US,en;q=0.9",lqp68pm0ff22ju4,19,"[""White""]",No,Female,NA,No,537798,NA,7741,NA,"{""product_choice"":""A""}",choice,ctd,trinary,repulsion_A,2,microwave ovens,null,null,null,null,null,null,1,30,40,20,100,90,100,Warranty,Cooking power,NA,NA
NA,NA,NA,NA,NA,choice_trial_setup,html-keyboard-response,68,339258,0.0-4.0-0.32,229,1,2025-05-06T03:37:09Z,b60275e29fe2361ab97ac0ac217840d7,"Mozilla/5.0 (Macintosh; Intel Mac OS X 10_15_7) AppleWebKit/605.1.15 (KHTML, like Gecko) Version/15.1 Safari/605.1.15",Macintosh,Safari,15.1,OS X,10_15_7,https://5puzkbbxv1.cognition.run/?sona_id=57183,"en-US,en;q=0.9",lqp68pm0ff22ju4,19,"[""White""]",No,Female,NA,No,537798,NA,null,<p></p>,null,choice,tdc,trinary,attraction,2,microwave ovens,null,null,null,null,null,null,1,NA,NA,NA,NA,NA,NA,NA,NA,NA,NA
NA,NA,NA,NA,NA,choice_trial,survey-html-form,69,347736,0.0-4.0-1.32,229,1,2025-05-06T03:37:09Z,b60275e29fe2361ab97ac0ac217840d7,"Mozilla/5.0 (Macintosh; Intel Mac OS X 10_15_7) AppleWebKit/605.1.15 (KHTML, like Gecko) Version/15.1 Safari/605.1.15",Macintosh,Safari,15.1,OS X,10_15_7,https://5puzkbbxv1.cognition.run/?sona_id=57183,"en-US,en;q=0.9",lqp68pm0ff22ju4,19,"[""White""]",No,Female,NA,No,537798,NA,8470,NA,"{""product_choice"":""C""}",choice,tdc,trinary,attraction,2,microwave ovens,null,null,null,null,null,null,1,50,60,40,60,50,60,Warranty,Cooking power,NA,NA
NA,NA,NA,NA,NA,choice_trial_setup,html-keyboard-response,70,348042,0.0-4.0-0.33,229,1,2025-05-06T03:37:09Z,b60275e29fe2361ab97ac0ac217840d7,"Mozilla/5.0 (Macintosh; Intel Mac OS X 10_15_7) AppleWebKit/605.1.15 (KHTML, like Gecko) Version/15.1 Safari/605.1.15",Macintosh,Safari,15.1,OS X,10_15_7,https://5puzkbbxv1.cognition.run/?sona_id=57183,"en-US,en;q=0.9",lqp68pm0ff22ju4,19,"[""White""]",No,Female,NA,No,537798,NA,null,<p></p>,null,choice,bw,binary,catch,null,televisions,75,80,40,15,null,null,2,NA,NA,NA,NA,NA,NA,NA,NA,NA,NA
NA,NA,NA,NA,NA,choice_trial,survey-html-form,71,356401,0.0-4.0-1.33,229,1,2025-05-06T03:37:09Z,b60275e29fe2361ab97ac0ac217840d7,"Mozilla/5.0 (Macintosh; Intel Mac OS X 10_15_7) AppleWebKit/605.1.15 (KHTML, like Gecko) Version/15.1 Safari/605.1.15",Macintosh,Safari,15.1,OS X,10_15_7,https://5puzkbbxv1.cognition.run/?sona_id=57183,"en-US,en;q=0.9",lqp68pm0ff22ju4,19,"[""White""]",No,Female,NA,No,537798,NA,8350,NA,"{""product_choice"":""A""}",choice,bw,binary,catch,null,televisions,75,80,40,15,null,null,2,null,null,null,null,null,null,Screen size,Average lifespan,NA,NA
NA,NA,NA,NA,NA,choice_trial_setup,html-keyboard-response,72,356707,0.0-4.0-0.34,229,1,2025-05-06T03:37:09Z,b60275e29fe2361ab97ac0ac217840d7,"Mozilla/5.0 (Macintosh; Intel Mac OS X 10_15_7) AppleWebKit/605.1.15 (KHTML, like Gecko) Version/15.1 Safari/605.1.15",Macintosh,Safari,15.1,OS X,10_15_7,https://5puzkbbxv1.cognition.run/?sona_id=57183,"en-US,en;q=0.9",lqp68pm0ff22ju4,19,"[""White""]",No,Female,NA,No,537798,NA,null,<p></p>,null,choice,ctd,trinary,repulsion_B,2,microwave ovens,null,null,null,null,null,null,1,NA,NA,NA,NA,NA,NA,NA,NA,NA,NA
NA,NA,NA,NA,NA,choice_trial,survey-html-form,73,363369,0.0-4.0-1.34,229,1,2025-05-06T03:37:09Z,b60275e29fe2361ab97ac0ac217840d7,"Mozilla/5.0 (Macintosh; Intel Mac OS X 10_15_7) AppleWebKit/605.1.15 (KHTML, like Gecko) Version/15.1 Safari/605.1.15",Macintosh,Safari,15.1,OS X,10_15_7,https://5puzkbbxv1.cognition.run/?sona_id=57183,"en-US,en;q=0.9",lqp68pm0ff22ju4,19,"[""White""]",No,Female,NA,No,537798,NA,6654,NA,"{""product_choice"":""B""}",choice,ctd,trinary,repulsion_B,2,microwave ovens,null,null,null,null,null,null,1,40,30,40,90,100,80,Warranty,Cooking power,NA,NA
NA,NA,NA,NA,NA,choice_trial_setup,html-keyboard-response,74,363675,0.0-4.0-0.35,229,1,2025-05-06T03:37:09Z,b60275e29fe2361ab97ac0ac217840d7,"Mozilla/5.0 (Macintosh; Intel Mac OS X 10_15_7) AppleWebKit/605.1.15 (KHTML, like Gecko) Version/15.1 Safari/605.1.15",Macintosh,Safari,15.1,OS X,10_15_7,https://5puzkbbxv1.cognition.run/?sona_id=57183,"en-US,en;q=0.9",lqp68pm0ff22ju4,19,"[""White""]",No,Female,NA,No,537798,NA,null,<p></p>,null,choice,wwb,trinary,catch,null,televisions,65,95,40,30,45,10,1,NA,NA,NA,NA,NA,NA,NA,NA,NA,NA
NA,NA,NA,NA,NA,choice_trial,survey-html-form,75,376454,0.0-4.0-1.35,229,1,2025-05-06T03:37:09Z,b60275e29fe2361ab97ac0ac217840d7,"Mozilla/5.0 (Macintosh; Intel Mac OS X 10_15_7) AppleWebKit/605.1.15 (KHTML, like Gecko) Version/15.1 Safari/605.1.15",Macintosh,Safari,15.1,OS X,10_15_7,https://5puzkbbxv1.cognition.run/?sona_id=57183,"en-US,en;q=0.9",lqp68pm0ff22ju4,19,"[""White""]",No,Female,NA,No,537798,NA,12770,NA,"{""product_choice"":""C""}",choice,wwb,trinary,catch,null,televisions,65,95,40,30,45,10,1,null,null,null,null,null,null,Screen size,Average lifespan,NA,NA
NA,NA,NA,NA,NA,choice_trial_setup,html-keyboard-response,76,376759,0.0-4.0-0.36,229,1,2025-05-06T03:37:09Z,b60275e29fe2361ab97ac0ac217840d7,"Mozilla/5.0 (Macintosh; Intel Mac OS X 10_15_7) AppleWebKit/605.1.15 (KHTML, like Gecko) Version/15.1 Safari/605.1.15",Macintosh,Safari,15.1,OS X,10_15_7,https://5puzkbbxv1.cognition.run/?sona_id=57183,"en-US,en;q=0.9",lqp68pm0ff22ju4,19,"[""White""]",No,Female,NA,No,537798,NA,null,<p></p>,null,choice,ctd,trinary,repulsion_A,1,laptops,null,null,null,null,null,null,2,NA,NA,NA,NA,NA,NA,NA,NA,NA,NA
NA,NA,NA,NA,NA,choice_trial,survey-html-form,77,400154,0.0-4.0-1.36,229,1,2025-05-06T03:37:09Z,b60275e29fe2361ab97ac0ac217840d7,"Mozilla/5.0 (Macintosh; Intel Mac OS X 10_15_7) AppleWebKit/605.1.15 (KHTML, like Gecko) Version/15.1 Safari/605.1.15",Macintosh,Safari,15.1,OS X,10_15_7,https://5puzkbbxv1.cognition.run/?sona_id=57183,"en-US,en;q=0.9",lqp68pm0ff22ju4,19,"[""White""]",No,Female,NA,No,537798,NA,23388,NA,"{""product_choice"":""B""}",choice,ctd,trinary,repulsion_A,1,laptops,null,null,null,null,null,null,2,100,90,100,30,40,20,Processing speed,Memory (RAM),NA,NA
NA,NA,NA,NA,NA,choice_trial_setup,html-keyboard-response,78,400459,0.0-4.0-0.37,229,1,2025-05-06T03:37:09Z,b60275e29fe2361ab97ac0ac217840d7,"Mozilla/5.0 (Macintosh; Intel Mac OS X 10_15_7) AppleWebKit/605.1.15 (KHTML, like Gecko) Version/15.1 Safari/605.1.15",Macintosh,Safari,15.1,OS X,10_15_7,https://5puzkbbxv1.cognition.run/?sona_id=57183,"en-US,en;q=0.9",lqp68pm0ff22ju4,19,"[""White""]",No,Female,NA,No,537798,NA,null,<p></p>,null,choice,tdc,trinary,repulsion_B,2,washing machines,null,null,null,null,null,null,1,NA,NA,NA,NA,NA,NA,NA,NA,NA,NA
NA,NA,NA,NA,NA,choice_trial,survey-html-form,79,404869,0.0-4.0-1.37,229,1,2025-05-06T03:37:09Z,b60275e29fe2361ab97ac0ac217840d7,"Mozilla/5.0 (Macintosh; Intel Mac OS X 10_15_7) AppleWebKit/605.1.15 (KHTML, like Gecko) Version/15.1 Safari/605.1.15",Macintosh,Safari,15.1,OS X,10_15_7,https://5puzkbbxv1.cognition.run/?sona_id=57183,"en-US,en;q=0.9",lqp68pm0ff22ju4,19,"[""White""]",No,Female,NA,No,537798,NA,4403,NA,"{""product_choice"":""A""}",choice,tdc,trinary,repulsion_B,2,washing machines,null,null,null,null,null,null,1,40,30,40,90,100,80,Average lifespan,Energy savings,NA,NA
NA,NA,NA,NA,NA,choice_trial_setup,html-keyboard-response,80,405175,0.0-4.0-0.38,229,1,2025-05-06T03:37:09Z,b60275e29fe2361ab97ac0ac217840d7,"Mozilla/5.0 (Macintosh; Intel Mac OS X 10_15_7) AppleWebKit/605.1.15 (KHTML, like Gecko) Version/15.1 Safari/605.1.15",Macintosh,Safari,15.1,OS X,10_15_7,https://5puzkbbxv1.cognition.run/?sona_id=57183,"en-US,en;q=0.9",lqp68pm0ff22ju4,19,"[""White""]",No,Female,NA,No,537798,NA,null,<p></p>,null,choice,tdc,trinary,repulsion_A,1,washing machines,null,null,null,null,null,null,1,NA,NA,NA,NA,NA,NA,NA,NA,NA,NA
NA,NA,NA,NA,NA,choice_trial,survey-html-form,81,411119,0.0-4.0-1.38,229,1,2025-05-06T03:37:09Z,b60275e29fe2361ab97ac0ac217840d7,"Mozilla/5.0 (Macintosh; Intel Mac OS X 10_15_7) AppleWebKit/605.1.15 (KHTML, like Gecko) Version/15.1 Safari/605.1.15",Macintosh,Safari,15.1,OS X,10_15_7,https://5puzkbbxv1.cognition.run/?sona_id=57183,"en-US,en;q=0.9",lqp68pm0ff22ju4,19,"[""White""]",No,Female,NA,No,537798,NA,5937,NA,"{""product_choice"":""A""}",choice,tdc,trinary,repulsion_A,1,washing machines,null,null,null,null,null,null,1,100,90,100,30,40,20,Average lifespan,Energy savings,NA,NA
NA,NA,NA,NA,NA,choice_trial_setup,html-keyboard-response,82,411423,0.0-4.0-0.39,229,1,2025-05-06T03:37:09Z,b60275e29fe2361ab97ac0ac217840d7,"Mozilla/5.0 (Macintosh; Intel Mac OS X 10_15_7) AppleWebKit/605.1.15 (KHTML, like Gecko) Version/15.1 Safari/605.1.15",Macintosh,Safari,15.1,OS X,10_15_7,https://5puzkbbxv1.cognition.run/?sona_id=57183,"en-US,en;q=0.9",lqp68pm0ff22ju4,19,"[""White""]",No,Female,NA,No,537798,NA,null,<p></p>,null,choice,tc,binary,attraction,NA,washing machines,null,null,null,null,null,null,1,NA,NA,NA,NA,NA,NA,NA,NA,NA,NA
NA,NA,NA,NA,NA,choice_trial,survey-html-form,83,419166,0.0-4.0-1.39,229,1,2025-05-06T03:37:09Z,b60275e29fe2361ab97ac0ac217840d7,"Mozilla/5.0 (Macintosh; Intel Mac OS X 10_15_7) AppleWebKit/605.1.15 (KHTML, like Gecko) Version/15.1 Safari/605.1.15",Macintosh,Safari,15.1,OS X,10_15_7,https://5puzkbbxv1.cognition.run/?sona_id=57183,"en-US,en;q=0.9",lqp68pm0ff22ju4,19,"[""White""]",No,Female,NA,No,537798,NA,7737,NA,"{""product_choice"":""A""}",choice,tc,binary,attraction,NA,washing machines,null,null,null,null,null,null,1,60,50,null,50,60,null,Average lifespan,Energy savings,NA,NA
NA,NA,NA,NA,NA,choice_trial_setup,html-keyboard-response,84,419472,0.0-4.0-0.40,229,1,2025-05-06T03:37:09Z,b60275e29fe2361ab97ac0ac217840d7,"Mozilla/5.0 (Macintosh; Intel Mac OS X 10_15_7) AppleWebKit/605.1.15 (KHTML, like Gecko) Version/15.1 Safari/605.1.15",Macintosh,Safari,15.1,OS X,10_15_7,https://5puzkbbxv1.cognition.run/?sona_id=57183,"en-US,en;q=0.9",lqp68pm0ff22ju4,19,"[""White""]",No,Female,NA,No,537798,NA,null,<p></p>,null,choice,ct,binary,attraction,NA,laptops,null,null,null,null,null,null,2,NA,NA,NA,NA,NA,NA,NA,NA,NA,NA
NA,NA,NA,NA,NA,choice_trial,survey-html-form,85,427133,0.0-4.0-1.40,229,1,2025-05-06T03:37:09Z,b60275e29fe2361ab97ac0ac217840d7,"Mozilla/5.0 (Macintosh; Intel Mac OS X 10_15_7) AppleWebKit/605.1.15 (KHTML, like Gecko) Version/15.1 Safari/605.1.15",Macintosh,Safari,15.1,OS X,10_15_7,https://5puzkbbxv1.cognition.run/?sona_id=57183,"en-US,en;q=0.9",lqp68pm0ff22ju4,19,"[""White""]",No,Female,NA,No,537798,NA,7652,NA,"{""product_choice"":""B""}",choice,ct,binary,attraction,NA,laptops,null,null,null,null,null,null,2,60,50,null,50,60,null,Processing speed,Memory (RAM),NA,NA
NA,NA,NA,NA,NA,choice_trial_setup,html-keyboard-response,86,427438,0.0-4.0-0.41,229,1,2025-05-06T03:37:09Z,b60275e29fe2361ab97ac0ac217840d7,"Mozilla/5.0 (Macintosh; Intel Mac OS X 10_15_7) AppleWebKit/605.1.15 (KHTML, like Gecko) Version/15.1 Safari/605.1.15",Macintosh,Safari,15.1,OS X,10_15_7,https://5puzkbbxv1.cognition.run/?sona_id=57183,"en-US,en;q=0.9",lqp68pm0ff22ju4,19,"[""White""]",No,Female,NA,No,537798,NA,null,<p></p>,null,choice,tc,binary,attraction,NA,microwave ovens,null,null,null,null,null,null,1,NA,NA,NA,NA,NA,NA,NA,NA,NA,NA
NA,NA,NA,NA,NA,choice_trial,survey-html-form,87,433466,0.0-4.0-1.41,229,1,2025-05-06T03:37:09Z,b60275e29fe2361ab97ac0ac217840d7,"Mozilla/5.0 (Macintosh; Intel Mac OS X 10_15_7) AppleWebKit/605.1.15 (KHTML, like Gecko) Version/15.1 Safari/605.1.15",Macintosh,Safari,15.1,OS X,10_15_7,https://5puzkbbxv1.cognition.run/?sona_id=57183,"en-US,en;q=0.9",lqp68pm0ff22ju4,19,"[""White""]",No,Female,NA,No,537798,NA,6017,NA,"{""product_choice"":""A""}",choice,tc,binary,attraction,NA,microwave ovens,null,null,null,null,null,null,1,60,50,null,50,60,null,Warranty,Cooking power,NA,NA
NA,NA,NA,NA,NA,choice_trial_setup,html-keyboard-response,88,433772,0.0-4.0-0.42,229,1,2025-05-06T03:37:09Z,b60275e29fe2361ab97ac0ac217840d7,"Mozilla/5.0 (Macintosh; Intel Mac OS X 10_15_7) AppleWebKit/605.1.15 (KHTML, like Gecko) Version/15.1 Safari/605.1.15",Macintosh,Safari,15.1,OS X,10_15_7,https://5puzkbbxv1.cognition.run/?sona_id=57183,"en-US,en;q=0.9",lqp68pm0ff22ju4,19,"[""White""]",No,Female,NA,No,537798,NA,null,<p></p>,null,choice,ct,binary,repulsion,2,microwave ovens,null,null,null,null,null,null,1,NA,NA,NA,NA,NA,NA,NA,NA,NA,NA
NA,NA,NA,NA,NA,choice_trial,survey-html-form,89,443797,0.0-4.0-1.42,229,1,2025-05-06T03:37:09Z,b60275e29fe2361ab97ac0ac217840d7,"Mozilla/5.0 (Macintosh; Intel Mac OS X 10_15_7) AppleWebKit/605.1.15 (KHTML, like Gecko) Version/15.1 Safari/605.1.15",Macintosh,Safari,15.1,OS X,10_15_7,https://5puzkbbxv1.cognition.run/?sona_id=57183,"en-US,en;q=0.9",lqp68pm0ff22ju4,19,"[""White""]",No,Female,NA,No,537798,NA,10021,NA,"{""product_choice"":""A""}",choice,ct,binary,repulsion,2,microwave ovens,null,null,null,null,null,null,1,30,40,null,100,90,null,Warranty,Cooking power,NA,NA
NA,NA,NA,NA,NA,choice_trial_setup,html-keyboard-response,90,444103,0.0-4.0-0.43,229,1,2025-05-06T03:37:09Z,b60275e29fe2361ab97ac0ac217840d7,"Mozilla/5.0 (Macintosh; Intel Mac OS X 10_15_7) AppleWebKit/605.1.15 (KHTML, like Gecko) Version/15.1 Safari/605.1.15",Macintosh,Safari,15.1,OS X,10_15_7,https://5puzkbbxv1.cognition.run/?sona_id=57183,"en-US,en;q=0.9",lqp68pm0ff22ju4,19,"[""White""]",No,Female,NA,No,537798,NA,null,<p></p>,null,choice,tdc,trinary,repulsion_B,1,microwave ovens,null,null,null,null,null,null,1,NA,NA,NA,NA,NA,NA,NA,NA,NA,NA
NA,NA,NA,NA,NA,choice_trial,survey-html-form,91,447385,0.0-4.0-1.43,229,1,2025-05-06T03:37:09Z,b60275e29fe2361ab97ac0ac217840d7,"Mozilla/5.0 (Macintosh; Intel Mac OS X 10_15_7) AppleWebKit/605.1.15 (KHTML, like Gecko) Version/15.1 Safari/605.1.15",Macintosh,Safari,15.1,OS X,10_15_7,https://5puzkbbxv1.cognition.run/?sona_id=57183,"en-US,en;q=0.9",lqp68pm0ff22ju4,19,"[""White""]",No,Female,NA,No,537798,NA,3272,NA,"{""product_choice"":""C""}",choice,tdc,trinary,repulsion_B,1,microwave ovens,null,null,null,null,null,null,1,90,100,80,40,30,40,Warranty,Cooking power,NA,NA
NA,NA,NA,NA,NA,post_trials_message,html-button-response,92,451216,0.0-5.0,229,1,2025-05-06T03:37:09Z,b60275e29fe2361ab97ac0ac217840d7,"Mozilla/5.0 (Macintosh; Intel Mac OS X 10_15_7) AppleWebKit/605.1.15 (KHTML, like Gecko) Version/15.1 Safari/605.1.15",Macintosh,Safari,15.1,OS X,10_15_7,https://5puzkbbxv1.cognition.run/?sona_id=57183,"en-US,en;q=0.9",lqp68pm0ff22ju4,19,"[""White""]",No,Female,NA,No,537798,NA,3825,<p> <b>Thank you for your patience!</b></p><p>  The study will be done after completing a brief form. </p>,0,NA,NA,NA,NA,NA,NA,NA,NA,NA,NA,NA,NA,NA,NA,NA,NA,NA,NA,NA,NA,NA,NA,NA
NA,NA,NA,NA,NA,survey_message,survey-text,93,497114,0.0-6.0,229,1,2025-05-06T03:37:09Z,b60275e29fe2361ab97ac0ac217840d7,"Mozilla/5.0 (Macintosh; Intel Mac OS X 10_15_7) AppleWebKit/605.1.15 (KHTML, like Gecko) Version/15.1 Safari/605.1.15",Macintosh,Safari,15.1,OS X,10_15_7,https://5puzkbbxv1.cognition.run/?sona_id=57183,"en-US,en;q=0.9",lqp68pm0ff22ju4,19,"[""White""]",No,Female,NA,No,537798,NA,45885,NA,"{""Q0"":""I wanted the best of both options""}",NA,NA,NA,NA,NA,NA,NA,NA,NA,NA,NA,NA,NA,NA,NA,NA,NA,NA,NA,NA,NA,I wanted the best of both options,NA
NA,NA,NA,NA,NA,demo_age,survey-text,94,500131,0.0-7.0,229,1,2025-05-06T03:37:09Z,b60275e29fe2361ab97ac0ac217840d7,"Mozilla/5.0 (Macintosh; Intel Mac OS X 10_15_7) AppleWebKit/605.1.15 (KHTML, like Gecko) Version/15.1 Safari/605.1.15",Macintosh,Safari,15.1,OS X,10_15_7,https://5puzkbbxv1.cognition.run/?sona_id=57183,"en-US,en;q=0.9",lqp68pm0ff22ju4,19,"[""White""]",No,Female,NA,No,537798,NA,3008,NA,"{""Q0"":""19""}",NA,NA,NA,NA,NA,NA,NA,NA,NA,NA,NA,NA,NA,NA,NA,NA,NA,NA,NA,NA,NA,NA,NA
NA,NA,NA,NA,NA,demo_race,survey-multi-select,95,503146,0.0-8.0,229,1,2025-05-06T03:37:09Z,b60275e29fe2361ab97ac0ac217840d7,"Mozilla/5.0 (Macintosh; Intel Mac OS X 10_15_7) AppleWebKit/605.1.15 (KHTML, like Gecko) Version/15.1 Safari/605.1.15",Macintosh,Safari,15.1,OS X,10_15_7,https://5puzkbbxv1.cognition.run/?sona_id=57183,"en-US,en;q=0.9",lqp68pm0ff22ju4,19,"[""White""]",No,Female,NA,No,537798,NA,3008,NA,"{""Q0"":[""White""]}",NA,NA,NA,NA,NA,NA,NA,NA,NA,NA,NA,NA,NA,NA,NA,NA,NA,NA,NA,NA,NA,NA,[0]
NA,NA,NA,NA,NA,demo_ethnicity_gender,survey-multi-choice,96,509401,0.0-9.0,229,1,2025-05-06T03:37:09Z,b60275e29fe2361ab97ac0ac217840d7,"Mozilla/5.0 (Macintosh; Intel Mac OS X 10_15_7) AppleWebKit/605.1.15 (KHTML, like Gecko) Version/15.1 Safari/605.1.15",Macintosh,Safari,15.1,OS X,10_15_7,https://5puzkbbxv1.cognition.run/?sona_id=57183,"en-US,en;q=0.9",lqp68pm0ff22ju4,19,"[""White""]",No,Female,NA,No,537798,NA,6249,NA,"{""Q0"":""No"",""Q1"":""Female""}",NA,NA,NA,NA,NA,NA,NA,NA,NA,NA,NA,NA,NA,NA,NA,NA,NA,NA,NA,NA,NA,NA,"[0,1]"
NA,NA,NA,NA,NA,demo_countries,survey-text,97,518601,0.0-10.0,229,1,2025-05-06T03:37:09Z,b60275e29fe2361ab97ac0ac217840d7,"Mozilla/5.0 (Macintosh; Intel Mac OS X 10_15_7) AppleWebKit/605.1.15 (KHTML, like Gecko) Version/15.1 Safari/605.1.15",Macintosh,Safari,15.1,OS X,10_15_7,https://5puzkbbxv1.cognition.run/?sona_id=57183,"en-US,en;q=0.9",lqp68pm0ff22ju4,19,"[""White""]",No,Female,NA,No,537798,NA,9194,NA,"{""Q0"":""NA""}",NA,NA,NA,NA,NA,NA,NA,NA,NA,NA,NA,NA,NA,NA,NA,NA,NA,NA,NA,NA,NA,NA,NA
NA,NA,NA,NA,NA,demo_prev_study,survey-multi-choice,98,526434,0.0-11.0,229,1,2025-05-06T03:37:09Z,b60275e29fe2361ab97ac0ac217840d7,"Mozilla/5.0 (Macintosh; Intel Mac OS X 10_15_7) AppleWebKit/605.1.15 (KHTML, like Gecko) Version/15.1 Safari/605.1.15",Macintosh,Safari,15.1,OS X,10_15_7,https://5puzkbbxv1.cognition.run/?sona_id=57183,"en-US,en;q=0.9",lqp68pm0ff22ju4,19,"[""White""]",No,Female,NA,No,537798,NA,7827,NA,"{""Q0"":""No""}",NA,NA,NA,NA,NA,NA,NA,NA,NA,NA,NA,NA,NA,NA,NA,NA,NA,NA,NA,NA,NA,NA,[0]
NA,NA,NA,NA,NA,post_survey_message,html-keyboard-response,99,530759,0.0-12.0,229,1,2025-05-06T03:37:09Z,b60275e29fe2361ab97ac0ac217840d7,"Mozilla/5.0 (Macintosh; Intel Mac OS X 10_15_7) AppleWebKit/605.1.15 (KHTML, like Gecko) Version/15.1 Safari/605.1.15",Macintosh,Safari,15.1,OS X,10_15_7,https://5puzkbbxv1.cognition.run/?sona_id=57183,"en-US,en;q=0.9",lqp68pm0ff22ju4,19,"[""White""]",No,Female,NA,No,537798,NA,4319,NA,j,NA,NA,NA,NA,NA,NA,NA,NA,NA,NA,NA,NA,NA,NA,NA,NA,NA,NA,NA,NA,NA,NA,NA
NA,NA,NA,NA,NA,debrief,image-keyboard-response,100,537771,0.0-13.0,229,1,2025-05-06T03:37:09Z,b60275e29fe2361ab97ac0ac217840d7,"Mozilla/5.0 (Macintosh; Intel Mac OS X 10_15_7) AppleWebKit/605.1.15 (KHTML, like Gecko) Version/15.1 Safari/605.1.15",Macintosh,Safari,15.1,OS X,10_15_7,https://5puzkbbxv1.cognition.run/?sona_id=57183,"en-US,en;q=0.9",lqp68pm0ff22ju4,19,"[""White""]",No,Female,NA,No,537798,NA,6967,Judg_choice_debrief.png,p,NA,NA,NA,NA,NA,NA,NA,NA,NA,NA,NA,NA,NA,NA,NA,NA,NA,NA,NA,NA,NA,NA,NA
