success,timeout,failed_images,failed_audio,failed_video,screen_id,trial_type,trial_index,time_elapsed,internal_node_id,run_id,condition,recorded_at,source_code_version,user_agent,device,browser,browser_version,platform,platform_version,referer,accept_language,ppt_id,age,race,ethnicity,gender,other_countries,prev_study,exp_duration,view_history,rt,stimulus,response,phase,order,set,effect,t_high,category,d1_best,d2_best,d1_worst1,d2_worst1,d1_worst2,d2_worst2,first_dim,d1_t,d1_c,d1_d,d2_t,d2_c,d2_d,d1_name,d2_name,strategy_response,question_order
TRUE,FALSE,[],[],[],img preload,preload,0,135,0.0-0.0,233,1,2025-05-06T06:33:22Z,b60275e29fe2361ab97ac0ac217840d7,"Mozilla/5.0 (Macintosh; Intel Mac OS X 10_15_7) AppleWebKit/537.36 (KHTML, like Gecko) Chrome/135.0.0.0 Safari/537.36",Macintosh,Chrome,135.0.0.0,OS X,10_15_7,https://5puzkbbxv1.cognition.run/?sona_id=55672,"en-GB,en-US;q=0.9,en;q=0.8",o5jg09xtkfocabk,20,"[""Asian""]",No,Female,"I lived in Kolkata , a city in India, and then moved to USA for college",I'm not sure,616362.1000003815,NA,NA,NA,NA,NA,NA,NA,NA,NA,NA,NA,NA,NA,NA,NA,NA,NA,NA,NA,NA,NA,NA,NA,NA,NA,NA,NA
NA,NA,NA,NA,NA,computer_message,instructions,1,2962,0.0-1.0,233,1,2025-05-06T06:33:22Z,b60275e29fe2361ab97ac0ac217840d7,"Mozilla/5.0 (Macintosh; Intel Mac OS X 10_15_7) AppleWebKit/537.36 (KHTML, like Gecko) Chrome/135.0.0.0 Safari/537.36",Macintosh,Chrome,135.0.0.0,OS X,10_15_7,https://5puzkbbxv1.cognition.run/?sona_id=55672,"en-GB,en-US;q=0.9,en;q=0.8",o5jg09xtkfocabk,20,"[""Asian""]",No,Female,"I lived in Kolkata , a city in India, and then moved to USA for college",I'm not sure,616362.1000003815,"[{""page_index"":0,""viewing_time"":2827}]",2827,NA,NA,NA,NA,NA,NA,NA,NA,NA,NA,NA,NA,NA,NA,NA,NA,NA,NA,NA,NA,NA,NA,NA,NA,NA
TRUE,NA,NA,NA,NA,NA,fullscreen,2,5276,0.0-2.0,233,1,2025-05-06T06:33:22Z,b60275e29fe2361ab97ac0ac217840d7,"Mozilla/5.0 (Macintosh; Intel Mac OS X 10_15_7) AppleWebKit/537.36 (KHTML, like Gecko) Chrome/135.0.0.0 Safari/537.36",Macintosh,Chrome,135.0.0.0,OS X,10_15_7,https://5puzkbbxv1.cognition.run/?sona_id=55672,"en-GB,en-US;q=0.9,en;q=0.8",o5jg09xtkfocabk,20,"[""Asian""]",No,Female,"I lived in Kolkata , a city in India, and then moved to USA for college",I'm not sure,616362.1000003815,NA,1309,NA,NA,NA,NA,NA,NA,NA,NA,NA,NA,NA,NA,NA,NA,NA,NA,NA,NA,NA,NA,NA,NA,NA,NA,NA
NA,NA,NA,NA,NA,choice_instructions,instructions,3,40864,0.0-3.0,233,1,2025-05-06T06:33:22Z,b60275e29fe2361ab97ac0ac217840d7,"Mozilla/5.0 (Macintosh; Intel Mac OS X 10_15_7) AppleWebKit/537.36 (KHTML, like Gecko) Chrome/135.0.0.0 Safari/537.36",Macintosh,Chrome,135.0.0.0,OS X,10_15_7,https://5puzkbbxv1.cognition.run/?sona_id=55672,"en-GB,en-US;q=0.9,en;q=0.8",o5jg09xtkfocabk,20,"[""Asian""]",No,Female,"I lived in Kolkata , a city in India, and then moved to USA for college",I'm not sure,616362.1000003815,"[{""page_index"":0,""viewing_time"":1334},{""page_index"":1,""viewing_time"":2911},{""page_index"":2,""viewing_time"":3619},{""page_index"":3,""viewing_time"":2168},{""page_index"":4,""viewing_time"":1374},{""page_index"":5,""viewing_time"":19476},{""page_index"":6,""viewing_time"":4704}]",35586,NA,NA,NA,NA,NA,NA,NA,NA,NA,NA,NA,NA,NA,NA,NA,NA,NA,NA,NA,NA,NA,NA,NA,NA,NA
NA,NA,NA,NA,NA,choice_trial_setup,html-keyboard-response,4,41171,0.0-4.0-0.0,233,1,2025-05-06T06:33:22Z,b60275e29fe2361ab97ac0ac217840d7,"Mozilla/5.0 (Macintosh; Intel Mac OS X 10_15_7) AppleWebKit/537.36 (KHTML, like Gecko) Chrome/135.0.0.0 Safari/537.36",Macintosh,Chrome,135.0.0.0,OS X,10_15_7,https://5puzkbbxv1.cognition.run/?sona_id=55672,"en-GB,en-US;q=0.9,en;q=0.8",o5jg09xtkfocabk,20,"[""Asian""]",No,Female,"I lived in Kolkata , a city in India, and then moved to USA for college",I'm not sure,616362.1000003815,NA,null,<p></p>,null,choice,cdt,trinary,repulsion_A,1,laptops,null,null,null,null,null,null,1,NA,NA,NA,NA,NA,NA,NA,NA,NA,NA
NA,NA,NA,NA,NA,choice_trial,survey-html-form,5,49090,0.0-4.0-1.0,233,1,2025-05-06T06:33:22Z,b60275e29fe2361ab97ac0ac217840d7,"Mozilla/5.0 (Macintosh; Intel Mac OS X 10_15_7) AppleWebKit/537.36 (KHTML, like Gecko) Chrome/135.0.0.0 Safari/537.36",Macintosh,Chrome,135.0.0.0,OS X,10_15_7,https://5puzkbbxv1.cognition.run/?sona_id=55672,"en-GB,en-US;q=0.9,en;q=0.8",o5jg09xtkfocabk,20,"[""Asian""]",No,Female,"I lived in Kolkata , a city in India, and then moved to USA for college",I'm not sure,616362.1000003815,NA,7909,NA,"{""product_choice"":""C""}",choice,cdt,trinary,repulsion_A,1,laptops,null,null,null,null,null,null,1,100,90,100,30,40,20,Processing speed,Memory (RAM),NA,NA
NA,NA,NA,NA,NA,choice_trial_setup,html-keyboard-response,6,49392,0.0-4.0-0.1,233,1,2025-05-06T06:33:22Z,b60275e29fe2361ab97ac0ac217840d7,"Mozilla/5.0 (Macintosh; Intel Mac OS X 10_15_7) AppleWebKit/537.36 (KHTML, like Gecko) Chrome/135.0.0.0 Safari/537.36",Macintosh,Chrome,135.0.0.0,OS X,10_15_7,https://5puzkbbxv1.cognition.run/?sona_id=55672,"en-GB,en-US;q=0.9,en;q=0.8",o5jg09xtkfocabk,20,"[""Asian""]",No,Female,"I lived in Kolkata , a city in India, and then moved to USA for college",I'm not sure,616362.1000003815,NA,null,<p></p>,null,choice,cdt,trinary,repulsion_B,1,laptops,null,null,null,null,null,null,1,NA,NA,NA,NA,NA,NA,NA,NA,NA,NA
NA,NA,NA,NA,NA,choice_trial,survey-html-form,7,56345,0.0-4.0-1.1,233,1,2025-05-06T06:33:22Z,b60275e29fe2361ab97ac0ac217840d7,"Mozilla/5.0 (Macintosh; Intel Mac OS X 10_15_7) AppleWebKit/537.36 (KHTML, like Gecko) Chrome/135.0.0.0 Safari/537.36",Macintosh,Chrome,135.0.0.0,OS X,10_15_7,https://5puzkbbxv1.cognition.run/?sona_id=55672,"en-GB,en-US;q=0.9,en;q=0.8",o5jg09xtkfocabk,20,"[""Asian""]",No,Female,"I lived in Kolkata , a city in India, and then moved to USA for college",I'm not sure,616362.1000003815,NA,6951,NA,"{""product_choice"":""A""}",choice,cdt,trinary,repulsion_B,1,laptops,null,null,null,null,null,null,1,90,100,80,40,30,40,Processing speed,Memory (RAM),NA,NA
NA,NA,NA,NA,NA,choice_trial_setup,html-keyboard-response,8,56649,0.0-4.0-0.2,233,1,2025-05-06T06:33:22Z,b60275e29fe2361ab97ac0ac217840d7,"Mozilla/5.0 (Macintosh; Intel Mac OS X 10_15_7) AppleWebKit/537.36 (KHTML, like Gecko) Chrome/135.0.0.0 Safari/537.36",Macintosh,Chrome,135.0.0.0,OS X,10_15_7,https://5puzkbbxv1.cognition.run/?sona_id=55672,"en-GB,en-US;q=0.9,en;q=0.8",o5jg09xtkfocabk,20,"[""Asian""]",No,Female,"I lived in Kolkata , a city in India, and then moved to USA for college",I'm not sure,616362.1000003815,NA,null,<p></p>,null,choice,dtc,trinary,attraction,2,televisions,null,null,null,null,null,null,1,NA,NA,NA,NA,NA,NA,NA,NA,NA,NA
NA,NA,NA,NA,NA,choice_trial,survey-html-form,9,107583,0.0-4.0-1.2,233,1,2025-05-06T06:33:22Z,b60275e29fe2361ab97ac0ac217840d7,"Mozilla/5.0 (Macintosh; Intel Mac OS X 10_15_7) AppleWebKit/537.36 (KHTML, like Gecko) Chrome/135.0.0.0 Safari/537.36",Macintosh,Chrome,135.0.0.0,OS X,10_15_7,https://5puzkbbxv1.cognition.run/?sona_id=55672,"en-GB,en-US;q=0.9,en;q=0.8",o5jg09xtkfocabk,20,"[""Asian""]",No,Female,"I lived in Kolkata , a city in India, and then moved to USA for college",I'm not sure,616362.1000003815,NA,50931,NA,"{""product_choice"":""B""}",choice,dtc,trinary,attraction,2,televisions,null,null,null,null,null,null,1,50,60,40,60,50,60,Screen size,Average lifespan,NA,NA
NA,NA,NA,NA,NA,choice_trial_setup,html-keyboard-response,10,107885,0.0-4.0-0.3,233,1,2025-05-06T06:33:22Z,b60275e29fe2361ab97ac0ac217840d7,"Mozilla/5.0 (Macintosh; Intel Mac OS X 10_15_7) AppleWebKit/537.36 (KHTML, like Gecko) Chrome/135.0.0.0 Safari/537.36",Macintosh,Chrome,135.0.0.0,OS X,10_15_7,https://5puzkbbxv1.cognition.run/?sona_id=55672,"en-GB,en-US;q=0.9,en;q=0.8",o5jg09xtkfocabk,20,"[""Asian""]",No,Female,"I lived in Kolkata , a city in India, and then moved to USA for college",I'm not sure,616362.1000003815,NA,null,<p></p>,null,choice,cdt,trinary,repulsion_B,2,microwave ovens,null,null,null,null,null,null,1,NA,NA,NA,NA,NA,NA,NA,NA,NA,NA
NA,NA,NA,NA,NA,choice_trial,survey-html-form,11,114456,0.0-4.0-1.3,233,1,2025-05-06T06:33:22Z,b60275e29fe2361ab97ac0ac217840d7,"Mozilla/5.0 (Macintosh; Intel Mac OS X 10_15_7) AppleWebKit/537.36 (KHTML, like Gecko) Chrome/135.0.0.0 Safari/537.36",Macintosh,Chrome,135.0.0.0,OS X,10_15_7,https://5puzkbbxv1.cognition.run/?sona_id=55672,"en-GB,en-US;q=0.9,en;q=0.8",o5jg09xtkfocabk,20,"[""Asian""]",No,Female,"I lived in Kolkata , a city in India, and then moved to USA for college",I'm not sure,616362.1000003815,NA,6567,NA,"{""product_choice"":""C""}",choice,cdt,trinary,repulsion_B,2,microwave ovens,null,null,null,null,null,null,1,40,30,40,90,100,80,Warranty,Cooking power,NA,NA
NA,NA,NA,NA,NA,choice_trial_setup,html-keyboard-response,12,114759,0.0-4.0-0.4,233,1,2025-05-06T06:33:22Z,b60275e29fe2361ab97ac0ac217840d7,"Mozilla/5.0 (Macintosh; Intel Mac OS X 10_15_7) AppleWebKit/537.36 (KHTML, like Gecko) Chrome/135.0.0.0 Safari/537.36",Macintosh,Chrome,135.0.0.0,OS X,10_15_7,https://5puzkbbxv1.cognition.run/?sona_id=55672,"en-GB,en-US;q=0.9,en;q=0.8",o5jg09xtkfocabk,20,"[""Asian""]",No,Female,"I lived in Kolkata , a city in India, and then moved to USA for college",I'm not sure,616362.1000003815,NA,null,<p></p>,null,choice,cdt,trinary,repulsion_A,2,microwave ovens,null,null,null,null,null,null,2,NA,NA,NA,NA,NA,NA,NA,NA,NA,NA
NA,NA,NA,NA,NA,choice_trial,survey-html-form,13,126085,0.0-4.0-1.4,233,1,2025-05-06T06:33:22Z,b60275e29fe2361ab97ac0ac217840d7,"Mozilla/5.0 (Macintosh; Intel Mac OS X 10_15_7) AppleWebKit/537.36 (KHTML, like Gecko) Chrome/135.0.0.0 Safari/537.36",Macintosh,Chrome,135.0.0.0,OS X,10_15_7,https://5puzkbbxv1.cognition.run/?sona_id=55672,"en-GB,en-US;q=0.9,en;q=0.8",o5jg09xtkfocabk,20,"[""Asian""]",No,Female,"I lived in Kolkata , a city in India, and then moved to USA for college",I'm not sure,616362.1000003815,NA,11323,NA,"{""product_choice"":""C""}",choice,cdt,trinary,repulsion_A,2,microwave ovens,null,null,null,null,null,null,2,30,40,20,100,90,100,Warranty,Cooking power,NA,NA
NA,NA,NA,NA,NA,choice_trial_setup,html-keyboard-response,14,126389,0.0-4.0-0.5,233,1,2025-05-06T06:33:22Z,b60275e29fe2361ab97ac0ac217840d7,"Mozilla/5.0 (Macintosh; Intel Mac OS X 10_15_7) AppleWebKit/537.36 (KHTML, like Gecko) Chrome/135.0.0.0 Safari/537.36",Macintosh,Chrome,135.0.0.0,OS X,10_15_7,https://5puzkbbxv1.cognition.run/?sona_id=55672,"en-GB,en-US;q=0.9,en;q=0.8",o5jg09xtkfocabk,20,"[""Asian""]",No,Female,"I lived in Kolkata , a city in India, and then moved to USA for college",I'm not sure,616362.1000003815,NA,null,<p></p>,null,choice,ct,binary,repulsion,2,washing machines,null,null,null,null,null,null,2,NA,NA,NA,NA,NA,NA,NA,NA,NA,NA
NA,NA,NA,NA,NA,choice_trial,survey-html-form,15,133850,0.0-4.0-1.5,233,1,2025-05-06T06:33:22Z,b60275e29fe2361ab97ac0ac217840d7,"Mozilla/5.0 (Macintosh; Intel Mac OS X 10_15_7) AppleWebKit/537.36 (KHTML, like Gecko) Chrome/135.0.0.0 Safari/537.36",Macintosh,Chrome,135.0.0.0,OS X,10_15_7,https://5puzkbbxv1.cognition.run/?sona_id=55672,"en-GB,en-US;q=0.9,en;q=0.8",o5jg09xtkfocabk,20,"[""Asian""]",No,Female,"I lived in Kolkata , a city in India, and then moved to USA for college",I'm not sure,616362.1000003815,NA,7458,NA,"{""product_choice"":""A""}",choice,ct,binary,repulsion,2,washing machines,null,null,null,null,null,null,2,30,40,null,100,90,null,Average lifespan,Energy savings,NA,NA
NA,NA,NA,NA,NA,choice_trial_setup,html-keyboard-response,16,134152,0.0-4.0-0.6,233,1,2025-05-06T06:33:22Z,b60275e29fe2361ab97ac0ac217840d7,"Mozilla/5.0 (Macintosh; Intel Mac OS X 10_15_7) AppleWebKit/537.36 (KHTML, like Gecko) Chrome/135.0.0.0 Safari/537.36",Macintosh,Chrome,135.0.0.0,OS X,10_15_7,https://5puzkbbxv1.cognition.run/?sona_id=55672,"en-GB,en-US;q=0.9,en;q=0.8",o5jg09xtkfocabk,20,"[""Asian""]",No,Female,"I lived in Kolkata , a city in India, and then moved to USA for college",I'm not sure,616362.1000003815,NA,null,<p></p>,null,choice,ct,binary,attraction,NA,microwave ovens,null,null,null,null,null,null,2,NA,NA,NA,NA,NA,NA,NA,NA,NA,NA
NA,NA,NA,NA,NA,choice_trial,survey-html-form,17,138107,0.0-4.0-1.6,233,1,2025-05-06T06:33:22Z,b60275e29fe2361ab97ac0ac217840d7,"Mozilla/5.0 (Macintosh; Intel Mac OS X 10_15_7) AppleWebKit/537.36 (KHTML, like Gecko) Chrome/135.0.0.0 Safari/537.36",Macintosh,Chrome,135.0.0.0,OS X,10_15_7,https://5puzkbbxv1.cognition.run/?sona_id=55672,"en-GB,en-US;q=0.9,en;q=0.8",o5jg09xtkfocabk,20,"[""Asian""]",No,Female,"I lived in Kolkata , a city in India, and then moved to USA for college",I'm not sure,616362.1000003815,NA,3953,NA,"{""product_choice"":""A""}",choice,ct,binary,attraction,NA,microwave ovens,null,null,null,null,null,null,2,60,50,null,50,60,null,Warranty,Cooking power,NA,NA
NA,NA,NA,NA,NA,choice_trial_setup,html-keyboard-response,18,138410,0.0-4.0-0.7,233,1,2025-05-06T06:33:22Z,b60275e29fe2361ab97ac0ac217840d7,"Mozilla/5.0 (Macintosh; Intel Mac OS X 10_15_7) AppleWebKit/537.36 (KHTML, like Gecko) Chrome/135.0.0.0 Safari/537.36",Macintosh,Chrome,135.0.0.0,OS X,10_15_7,https://5puzkbbxv1.cognition.run/?sona_id=55672,"en-GB,en-US;q=0.9,en;q=0.8",o5jg09xtkfocabk,20,"[""Asian""]",No,Female,"I lived in Kolkata , a city in India, and then moved to USA for college",I'm not sure,616362.1000003815,NA,null,<p></p>,null,choice,cdt,trinary,repulsion_B,1,microwave ovens,null,null,null,null,null,null,2,NA,NA,NA,NA,NA,NA,NA,NA,NA,NA
NA,NA,NA,NA,NA,choice_trial,survey-html-form,19,144320,0.0-4.0-1.7,233,1,2025-05-06T06:33:22Z,b60275e29fe2361ab97ac0ac217840d7,"Mozilla/5.0 (Macintosh; Intel Mac OS X 10_15_7) AppleWebKit/537.36 (KHTML, like Gecko) Chrome/135.0.0.0 Safari/537.36",Macintosh,Chrome,135.0.0.0,OS X,10_15_7,https://5puzkbbxv1.cognition.run/?sona_id=55672,"en-GB,en-US;q=0.9,en;q=0.8",o5jg09xtkfocabk,20,"[""Asian""]",No,Female,"I lived in Kolkata , a city in India, and then moved to USA for college",I'm not sure,616362.1000003815,NA,5906,NA,"{""product_choice"":""C""}",choice,cdt,trinary,repulsion_B,1,microwave ovens,null,null,null,null,null,null,2,90,100,80,40,30,40,Warranty,Cooking power,NA,NA
NA,NA,NA,NA,NA,choice_trial_setup,html-keyboard-response,20,144622,0.0-4.0-0.8,233,1,2025-05-06T06:33:22Z,b60275e29fe2361ab97ac0ac217840d7,"Mozilla/5.0 (Macintosh; Intel Mac OS X 10_15_7) AppleWebKit/537.36 (KHTML, like Gecko) Chrome/135.0.0.0 Safari/537.36",Macintosh,Chrome,135.0.0.0,OS X,10_15_7,https://5puzkbbxv1.cognition.run/?sona_id=55672,"en-GB,en-US;q=0.9,en;q=0.8",o5jg09xtkfocabk,20,"[""Asian""]",No,Female,"I lived in Kolkata , a city in India, and then moved to USA for college",I'm not sure,616362.1000003815,NA,null,<p></p>,null,choice,tc,binary,attraction,NA,laptops,null,null,null,null,null,null,1,NA,NA,NA,NA,NA,NA,NA,NA,NA,NA
NA,NA,NA,NA,NA,choice_trial,survey-html-form,21,148934,0.0-4.0-1.8,233,1,2025-05-06T06:33:22Z,b60275e29fe2361ab97ac0ac217840d7,"Mozilla/5.0 (Macintosh; Intel Mac OS X 10_15_7) AppleWebKit/537.36 (KHTML, like Gecko) Chrome/135.0.0.0 Safari/537.36",Macintosh,Chrome,135.0.0.0,OS X,10_15_7,https://5puzkbbxv1.cognition.run/?sona_id=55672,"en-GB,en-US;q=0.9,en;q=0.8",o5jg09xtkfocabk,20,"[""Asian""]",No,Female,"I lived in Kolkata , a city in India, and then moved to USA for college",I'm not sure,616362.1000003815,NA,4308,NA,"{""product_choice"":""A""}",choice,tc,binary,attraction,NA,laptops,null,null,null,null,null,null,1,60,50,null,50,60,null,Processing speed,Memory (RAM),NA,NA
NA,NA,NA,NA,NA,choice_trial_setup,html-keyboard-response,22,149238,0.0-4.0-0.9,233,1,2025-05-06T06:33:22Z,b60275e29fe2361ab97ac0ac217840d7,"Mozilla/5.0 (Macintosh; Intel Mac OS X 10_15_7) AppleWebKit/537.36 (KHTML, like Gecko) Chrome/135.0.0.0 Safari/537.36",Macintosh,Chrome,135.0.0.0,OS X,10_15_7,https://5puzkbbxv1.cognition.run/?sona_id=55672,"en-GB,en-US;q=0.9,en;q=0.8",o5jg09xtkfocabk,20,"[""Asian""]",No,Female,"I lived in Kolkata , a city in India, and then moved to USA for college",I'm not sure,616362.1000003815,NA,null,<p></p>,null,choice,bw,binary,catch,null,microwave ovens,75,90,25,5,null,null,1,NA,NA,NA,NA,NA,NA,NA,NA,NA,NA
NA,NA,NA,NA,NA,choice_trial,survey-html-form,23,157815,0.0-4.0-1.9,233,1,2025-05-06T06:33:22Z,b60275e29fe2361ab97ac0ac217840d7,"Mozilla/5.0 (Macintosh; Intel Mac OS X 10_15_7) AppleWebKit/537.36 (KHTML, like Gecko) Chrome/135.0.0.0 Safari/537.36",Macintosh,Chrome,135.0.0.0,OS X,10_15_7,https://5puzkbbxv1.cognition.run/?sona_id=55672,"en-GB,en-US;q=0.9,en;q=0.8",o5jg09xtkfocabk,20,"[""Asian""]",No,Female,"I lived in Kolkata , a city in India, and then moved to USA for college",I'm not sure,616362.1000003815,NA,8573,NA,"{""product_choice"":""A""}",choice,bw,binary,catch,null,microwave ovens,75,90,25,5,null,null,1,null,null,null,null,null,null,Warranty,Cooking power,NA,NA
NA,NA,NA,NA,NA,choice_trial_setup,html-keyboard-response,24,158118,0.0-4.0-0.10,233,1,2025-05-06T06:33:22Z,b60275e29fe2361ab97ac0ac217840d7,"Mozilla/5.0 (Macintosh; Intel Mac OS X 10_15_7) AppleWebKit/537.36 (KHTML, like Gecko) Chrome/135.0.0.0 Safari/537.36",Macintosh,Chrome,135.0.0.0,OS X,10_15_7,https://5puzkbbxv1.cognition.run/?sona_id=55672,"en-GB,en-US;q=0.9,en;q=0.8",o5jg09xtkfocabk,20,"[""Asian""]",No,Female,"I lived in Kolkata , a city in India, and then moved to USA for college",I'm not sure,616362.1000003815,NA,null,<p></p>,null,choice,wwb,trinary,catch,null,microwave ovens,90,80,10,45,50,50,1,NA,NA,NA,NA,NA,NA,NA,NA,NA,NA
NA,NA,NA,NA,NA,choice_trial,survey-html-form,25,167101,0.0-4.0-1.10,233,1,2025-05-06T06:33:22Z,b60275e29fe2361ab97ac0ac217840d7,"Mozilla/5.0 (Macintosh; Intel Mac OS X 10_15_7) AppleWebKit/537.36 (KHTML, like Gecko) Chrome/135.0.0.0 Safari/537.36",Macintosh,Chrome,135.0.0.0,OS X,10_15_7,https://5puzkbbxv1.cognition.run/?sona_id=55672,"en-GB,en-US;q=0.9,en;q=0.8",o5jg09xtkfocabk,20,"[""Asian""]",No,Female,"I lived in Kolkata , a city in India, and then moved to USA for college",I'm not sure,616362.1000003815,NA,8979,NA,"{""product_choice"":""C""}",choice,wwb,trinary,catch,null,microwave ovens,90,80,10,45,50,50,1,null,null,null,null,null,null,Warranty,Cooking power,NA,NA
NA,NA,NA,NA,NA,choice_trial_setup,html-keyboard-response,26,167405,0.0-4.0-0.11,233,1,2025-05-06T06:33:22Z,b60275e29fe2361ab97ac0ac217840d7,"Mozilla/5.0 (Macintosh; Intel Mac OS X 10_15_7) AppleWebKit/537.36 (KHTML, like Gecko) Chrome/135.0.0.0 Safari/537.36",Macintosh,Chrome,135.0.0.0,OS X,10_15_7,https://5puzkbbxv1.cognition.run/?sona_id=55672,"en-GB,en-US;q=0.9,en;q=0.8",o5jg09xtkfocabk,20,"[""Asian""]",No,Female,"I lived in Kolkata , a city in India, and then moved to USA for college",I'm not sure,616362.1000003815,NA,null,<p></p>,null,choice,cdt,trinary,repulsion_B,2,televisions,null,null,null,null,null,null,2,NA,NA,NA,NA,NA,NA,NA,NA,NA,NA
NA,NA,NA,NA,NA,choice_trial,survey-html-form,27,173661,0.0-4.0-1.11,233,1,2025-05-06T06:33:22Z,b60275e29fe2361ab97ac0ac217840d7,"Mozilla/5.0 (Macintosh; Intel Mac OS X 10_15_7) AppleWebKit/537.36 (KHTML, like Gecko) Chrome/135.0.0.0 Safari/537.36",Macintosh,Chrome,135.0.0.0,OS X,10_15_7,https://5puzkbbxv1.cognition.run/?sona_id=55672,"en-GB,en-US;q=0.9,en;q=0.8",o5jg09xtkfocabk,20,"[""Asian""]",No,Female,"I lived in Kolkata , a city in India, and then moved to USA for college",I'm not sure,616362.1000003815,NA,6253,NA,"{""product_choice"":""C""}",choice,cdt,trinary,repulsion_B,2,televisions,null,null,null,null,null,null,2,40,30,40,90,100,80,Screen size,Average lifespan,NA,NA
NA,NA,NA,NA,NA,choice_trial_setup,html-keyboard-response,28,173964,0.0-4.0-0.12,233,1,2025-05-06T06:33:22Z,b60275e29fe2361ab97ac0ac217840d7,"Mozilla/5.0 (Macintosh; Intel Mac OS X 10_15_7) AppleWebKit/537.36 (KHTML, like Gecko) Chrome/135.0.0.0 Safari/537.36",Macintosh,Chrome,135.0.0.0,OS X,10_15_7,https://5puzkbbxv1.cognition.run/?sona_id=55672,"en-GB,en-US;q=0.9,en;q=0.8",o5jg09xtkfocabk,20,"[""Asian""]",No,Female,"I lived in Kolkata , a city in India, and then moved to USA for college",I'm not sure,616362.1000003815,NA,null,<p></p>,null,choice,tdc,trinary,repulsion_A,2,laptops,null,null,null,null,null,null,2,NA,NA,NA,NA,NA,NA,NA,NA,NA,NA
NA,NA,NA,NA,NA,choice_trial,survey-html-form,29,179887,0.0-4.0-1.12,233,1,2025-05-06T06:33:22Z,b60275e29fe2361ab97ac0ac217840d7,"Mozilla/5.0 (Macintosh; Intel Mac OS X 10_15_7) AppleWebKit/537.36 (KHTML, like Gecko) Chrome/135.0.0.0 Safari/537.36",Macintosh,Chrome,135.0.0.0,OS X,10_15_7,https://5puzkbbxv1.cognition.run/?sona_id=55672,"en-GB,en-US;q=0.9,en;q=0.8",o5jg09xtkfocabk,20,"[""Asian""]",No,Female,"I lived in Kolkata , a city in India, and then moved to USA for college",I'm not sure,616362.1000003815,NA,5920,NA,"{""product_choice"":""C""}",choice,tdc,trinary,repulsion_A,2,laptops,null,null,null,null,null,null,2,30,40,20,100,90,100,Processing speed,Memory (RAM),NA,NA
NA,NA,NA,NA,NA,choice_trial_setup,html-keyboard-response,30,180189,0.0-4.0-0.13,233,1,2025-05-06T06:33:22Z,b60275e29fe2361ab97ac0ac217840d7,"Mozilla/5.0 (Macintosh; Intel Mac OS X 10_15_7) AppleWebKit/537.36 (KHTML, like Gecko) Chrome/135.0.0.0 Safari/537.36",Macintosh,Chrome,135.0.0.0,OS X,10_15_7,https://5puzkbbxv1.cognition.run/?sona_id=55672,"en-GB,en-US;q=0.9,en;q=0.8",o5jg09xtkfocabk,20,"[""Asian""]",No,Female,"I lived in Kolkata , a city in India, and then moved to USA for college",I'm not sure,616362.1000003815,NA,null,<p></p>,null,choice,tcd,trinary,repulsion_A,1,microwave ovens,null,null,null,null,null,null,2,NA,NA,NA,NA,NA,NA,NA,NA,NA,NA
NA,NA,NA,NA,NA,choice_trial,survey-html-form,31,225614,0.0-4.0-1.13,233,1,2025-05-06T06:33:22Z,b60275e29fe2361ab97ac0ac217840d7,"Mozilla/5.0 (Macintosh; Intel Mac OS X 10_15_7) AppleWebKit/537.36 (KHTML, like Gecko) Chrome/135.0.0.0 Safari/537.36",Macintosh,Chrome,135.0.0.0,OS X,10_15_7,https://5puzkbbxv1.cognition.run/?sona_id=55672,"en-GB,en-US;q=0.9,en;q=0.8",o5jg09xtkfocabk,20,"[""Asian""]",No,Female,"I lived in Kolkata , a city in India, and then moved to USA for college",I'm not sure,616362.1000003815,NA,45421,NA,"{""product_choice"":""B""}",choice,tcd,trinary,repulsion_A,1,microwave ovens,null,null,null,null,null,null,2,100,90,100,30,40,20,Warranty,Cooking power,NA,NA
NA,NA,NA,NA,NA,choice_trial_setup,html-keyboard-response,32,225919,0.0-4.0-0.14,233,1,2025-05-06T06:33:22Z,b60275e29fe2361ab97ac0ac217840d7,"Mozilla/5.0 (Macintosh; Intel Mac OS X 10_15_7) AppleWebKit/537.36 (KHTML, like Gecko) Chrome/135.0.0.0 Safari/537.36",Macintosh,Chrome,135.0.0.0,OS X,10_15_7,https://5puzkbbxv1.cognition.run/?sona_id=55672,"en-GB,en-US;q=0.9,en;q=0.8",o5jg09xtkfocabk,20,"[""Asian""]",No,Female,"I lived in Kolkata , a city in India, and then moved to USA for college",I'm not sure,616362.1000003815,NA,null,<p></p>,null,choice,wb,binary,catch,null,washing machines,70,90,50,20,null,null,2,NA,NA,NA,NA,NA,NA,NA,NA,NA,NA
NA,NA,NA,NA,NA,choice_trial,survey-html-form,33,229913,0.0-4.0-1.14,233,1,2025-05-06T06:33:22Z,b60275e29fe2361ab97ac0ac217840d7,"Mozilla/5.0 (Macintosh; Intel Mac OS X 10_15_7) AppleWebKit/537.36 (KHTML, like Gecko) Chrome/135.0.0.0 Safari/537.36",Macintosh,Chrome,135.0.0.0,OS X,10_15_7,https://5puzkbbxv1.cognition.run/?sona_id=55672,"en-GB,en-US;q=0.9,en;q=0.8",o5jg09xtkfocabk,20,"[""Asian""]",No,Female,"I lived in Kolkata , a city in India, and then moved to USA for college",I'm not sure,616362.1000003815,NA,3990,NA,"{""product_choice"":""B""}",choice,wb,binary,catch,null,washing machines,70,90,50,20,null,null,2,null,null,null,null,null,null,Average lifespan,Energy savings,NA,NA
NA,NA,NA,NA,NA,choice_trial_setup,html-keyboard-response,34,230216,0.0-4.0-0.15,233,1,2025-05-06T06:33:22Z,b60275e29fe2361ab97ac0ac217840d7,"Mozilla/5.0 (Macintosh; Intel Mac OS X 10_15_7) AppleWebKit/537.36 (KHTML, like Gecko) Chrome/135.0.0.0 Safari/537.36",Macintosh,Chrome,135.0.0.0,OS X,10_15_7,https://5puzkbbxv1.cognition.run/?sona_id=55672,"en-GB,en-US;q=0.9,en;q=0.8",o5jg09xtkfocabk,20,"[""Asian""]",No,Female,"I lived in Kolkata , a city in India, and then moved to USA for college",I'm not sure,616362.1000003815,NA,null,<p></p>,null,choice,wwb,trinary,catch,null,televisions,80,85,10,35,10,50,2,NA,NA,NA,NA,NA,NA,NA,NA,NA,NA
NA,NA,NA,NA,NA,choice_trial,survey-html-form,35,253853,0.0-4.0-1.15,233,1,2025-05-06T06:33:22Z,b60275e29fe2361ab97ac0ac217840d7,"Mozilla/5.0 (Macintosh; Intel Mac OS X 10_15_7) AppleWebKit/537.36 (KHTML, like Gecko) Chrome/135.0.0.0 Safari/537.36",Macintosh,Chrome,135.0.0.0,OS X,10_15_7,https://5puzkbbxv1.cognition.run/?sona_id=55672,"en-GB,en-US;q=0.9,en;q=0.8",o5jg09xtkfocabk,20,"[""Asian""]",No,Female,"I lived in Kolkata , a city in India, and then moved to USA for college",I'm not sure,616362.1000003815,NA,23633,NA,"{""product_choice"":""C""}",choice,wwb,trinary,catch,null,televisions,80,85,10,35,10,50,2,null,null,null,null,null,null,Screen size,Average lifespan,NA,NA
NA,NA,NA,NA,NA,choice_trial_setup,html-keyboard-response,36,254158,0.0-4.0-0.16,233,1,2025-05-06T06:33:22Z,b60275e29fe2361ab97ac0ac217840d7,"Mozilla/5.0 (Macintosh; Intel Mac OS X 10_15_7) AppleWebKit/537.36 (KHTML, like Gecko) Chrome/135.0.0.0 Safari/537.36",Macintosh,Chrome,135.0.0.0,OS X,10_15_7,https://5puzkbbxv1.cognition.run/?sona_id=55672,"en-GB,en-US;q=0.9,en;q=0.8",o5jg09xtkfocabk,20,"[""Asian""]",No,Female,"I lived in Kolkata , a city in India, and then moved to USA for college",I'm not sure,616362.1000003815,NA,null,<p></p>,null,choice,tc,binary,repulsion,1,microwave ovens,null,null,null,null,null,null,1,NA,NA,NA,NA,NA,NA,NA,NA,NA,NA
NA,NA,NA,NA,NA,choice_trial,survey-html-form,37,258150,0.0-4.0-1.16,233,1,2025-05-06T06:33:22Z,b60275e29fe2361ab97ac0ac217840d7,"Mozilla/5.0 (Macintosh; Intel Mac OS X 10_15_7) AppleWebKit/537.36 (KHTML, like Gecko) Chrome/135.0.0.0 Safari/537.36",Macintosh,Chrome,135.0.0.0,OS X,10_15_7,https://5puzkbbxv1.cognition.run/?sona_id=55672,"en-GB,en-US;q=0.9,en;q=0.8",o5jg09xtkfocabk,20,"[""Asian""]",No,Female,"I lived in Kolkata , a city in India, and then moved to USA for college",I'm not sure,616362.1000003815,NA,3987,NA,"{""product_choice"":""B""}",choice,tc,binary,repulsion,1,microwave ovens,null,null,null,null,null,null,1,100,90,null,30,40,null,Warranty,Cooking power,NA,NA
NA,NA,NA,NA,NA,choice_trial_setup,html-keyboard-response,38,258454,0.0-4.0-0.17,233,1,2025-05-06T06:33:22Z,b60275e29fe2361ab97ac0ac217840d7,"Mozilla/5.0 (Macintosh; Intel Mac OS X 10_15_7) AppleWebKit/537.36 (KHTML, like Gecko) Chrome/135.0.0.0 Safari/537.36",Macintosh,Chrome,135.0.0.0,OS X,10_15_7,https://5puzkbbxv1.cognition.run/?sona_id=55672,"en-GB,en-US;q=0.9,en;q=0.8",o5jg09xtkfocabk,20,"[""Asian""]",No,Female,"I lived in Kolkata , a city in India, and then moved to USA for college",I'm not sure,616362.1000003815,NA,null,<p></p>,null,choice,dtc,trinary,repulsion_A,2,washing machines,null,null,null,null,null,null,2,NA,NA,NA,NA,NA,NA,NA,NA,NA,NA
NA,NA,NA,NA,NA,choice_trial,survey-html-form,39,262921,0.0-4.0-1.17,233,1,2025-05-06T06:33:22Z,b60275e29fe2361ab97ac0ac217840d7,"Mozilla/5.0 (Macintosh; Intel Mac OS X 10_15_7) AppleWebKit/537.36 (KHTML, like Gecko) Chrome/135.0.0.0 Safari/537.36",Macintosh,Chrome,135.0.0.0,OS X,10_15_7,https://5puzkbbxv1.cognition.run/?sona_id=55672,"en-GB,en-US;q=0.9,en;q=0.8",o5jg09xtkfocabk,20,"[""Asian""]",No,Female,"I lived in Kolkata , a city in India, and then moved to USA for college",I'm not sure,616362.1000003815,NA,4462,NA,"{""product_choice"":""B""}",choice,dtc,trinary,repulsion_A,2,washing machines,null,null,null,null,null,null,2,30,40,20,100,90,100,Average lifespan,Energy savings,NA,NA
NA,NA,NA,NA,NA,choice_trial_setup,html-keyboard-response,40,263224,0.0-4.0-0.18,233,1,2025-05-06T06:33:22Z,b60275e29fe2361ab97ac0ac217840d7,"Mozilla/5.0 (Macintosh; Intel Mac OS X 10_15_7) AppleWebKit/537.36 (KHTML, like Gecko) Chrome/135.0.0.0 Safari/537.36",Macintosh,Chrome,135.0.0.0,OS X,10_15_7,https://5puzkbbxv1.cognition.run/?sona_id=55672,"en-GB,en-US;q=0.9,en;q=0.8",o5jg09xtkfocabk,20,"[""Asian""]",No,Female,"I lived in Kolkata , a city in India, and then moved to USA for college",I'm not sure,616362.1000003815,NA,null,<p></p>,null,choice,cdt,trinary,attraction,1,washing machines,null,null,null,null,null,null,1,NA,NA,NA,NA,NA,NA,NA,NA,NA,NA
NA,NA,NA,NA,NA,choice_trial,survey-html-form,41,345446,0.0-4.0-1.18,233,1,2025-05-06T06:33:22Z,b60275e29fe2361ab97ac0ac217840d7,"Mozilla/5.0 (Macintosh; Intel Mac OS X 10_15_7) AppleWebKit/537.36 (KHTML, like Gecko) Chrome/135.0.0.0 Safari/537.36",Macintosh,Chrome,135.0.0.0,OS X,10_15_7,https://5puzkbbxv1.cognition.run/?sona_id=55672,"en-GB,en-US;q=0.9,en;q=0.8",o5jg09xtkfocabk,20,"[""Asian""]",No,Female,"I lived in Kolkata , a city in India, and then moved to USA for college",I'm not sure,616362.1000003815,NA,82218,NA,"{""product_choice"":""C""}",choice,cdt,trinary,attraction,1,washing machines,null,null,null,null,null,null,1,60,50,60,50,60,40,Average lifespan,Energy savings,NA,NA
NA,NA,NA,NA,NA,choice_trial_setup,html-keyboard-response,42,345753,0.0-4.0-0.19,233,1,2025-05-06T06:33:22Z,b60275e29fe2361ab97ac0ac217840d7,"Mozilla/5.0 (Macintosh; Intel Mac OS X 10_15_7) AppleWebKit/537.36 (KHTML, like Gecko) Chrome/135.0.0.0 Safari/537.36",Macintosh,Chrome,135.0.0.0,OS X,10_15_7,https://5puzkbbxv1.cognition.run/?sona_id=55672,"en-GB,en-US;q=0.9,en;q=0.8",o5jg09xtkfocabk,20,"[""Asian""]",No,Female,"I lived in Kolkata , a city in India, and then moved to USA for college",I'm not sure,616362.1000003815,NA,null,<p></p>,null,choice,wb,binary,catch,null,televisions,50,55,50,45,null,null,1,NA,NA,NA,NA,NA,NA,NA,NA,NA,NA
NA,NA,NA,NA,NA,choice_trial,survey-html-form,43,350697,0.0-4.0-1.19,233,1,2025-05-06T06:33:22Z,b60275e29fe2361ab97ac0ac217840d7,"Mozilla/5.0 (Macintosh; Intel Mac OS X 10_15_7) AppleWebKit/537.36 (KHTML, like Gecko) Chrome/135.0.0.0 Safari/537.36",Macintosh,Chrome,135.0.0.0,OS X,10_15_7,https://5puzkbbxv1.cognition.run/?sona_id=55672,"en-GB,en-US;q=0.9,en;q=0.8",o5jg09xtkfocabk,20,"[""Asian""]",No,Female,"I lived in Kolkata , a city in India, and then moved to USA for college",I'm not sure,616362.1000003815,NA,4941,NA,"{""product_choice"":""A""}",choice,wb,binary,catch,null,televisions,50,55,50,45,null,null,1,null,null,null,null,null,null,Screen size,Average lifespan,NA,NA
NA,NA,NA,NA,NA,choice_trial_setup,html-keyboard-response,44,351001,0.0-4.0-0.20,233,1,2025-05-06T06:33:22Z,b60275e29fe2361ab97ac0ac217840d7,"Mozilla/5.0 (Macintosh; Intel Mac OS X 10_15_7) AppleWebKit/537.36 (KHTML, like Gecko) Chrome/135.0.0.0 Safari/537.36",Macintosh,Chrome,135.0.0.0,OS X,10_15_7,https://5puzkbbxv1.cognition.run/?sona_id=55672,"en-GB,en-US;q=0.9,en;q=0.8",o5jg09xtkfocabk,20,"[""Asian""]",No,Female,"I lived in Kolkata , a city in India, and then moved to USA for college",I'm not sure,616362.1000003815,NA,null,<p></p>,null,choice,tc,binary,attraction,NA,televisions,null,null,null,null,null,null,2,NA,NA,NA,NA,NA,NA,NA,NA,NA,NA
NA,NA,NA,NA,NA,choice_trial,survey-html-form,45,358319,0.0-4.0-1.20,233,1,2025-05-06T06:33:22Z,b60275e29fe2361ab97ac0ac217840d7,"Mozilla/5.0 (Macintosh; Intel Mac OS X 10_15_7) AppleWebKit/537.36 (KHTML, like Gecko) Chrome/135.0.0.0 Safari/537.36",Macintosh,Chrome,135.0.0.0,OS X,10_15_7,https://5puzkbbxv1.cognition.run/?sona_id=55672,"en-GB,en-US;q=0.9,en;q=0.8",o5jg09xtkfocabk,20,"[""Asian""]",No,Female,"I lived in Kolkata , a city in India, and then moved to USA for college",I'm not sure,616362.1000003815,NA,7316,NA,"{""product_choice"":""A""}",choice,tc,binary,attraction,NA,televisions,null,null,null,null,null,null,2,60,50,null,50,60,null,Screen size,Average lifespan,NA,NA
NA,NA,NA,NA,NA,choice_trial_setup,html-keyboard-response,46,358623,0.0-4.0-0.21,233,1,2025-05-06T06:33:22Z,b60275e29fe2361ab97ac0ac217840d7,"Mozilla/5.0 (Macintosh; Intel Mac OS X 10_15_7) AppleWebKit/537.36 (KHTML, like Gecko) Chrome/135.0.0.0 Safari/537.36",Macintosh,Chrome,135.0.0.0,OS X,10_15_7,https://5puzkbbxv1.cognition.run/?sona_id=55672,"en-GB,en-US;q=0.9,en;q=0.8",o5jg09xtkfocabk,20,"[""Asian""]",No,Female,"I lived in Kolkata , a city in India, and then moved to USA for college",I'm not sure,616362.1000003815,NA,null,<p></p>,null,choice,tc,binary,repulsion,2,televisions,null,null,null,null,null,null,1,NA,NA,NA,NA,NA,NA,NA,NA,NA,NA
NA,NA,NA,NA,NA,choice_trial,survey-html-form,47,372240,0.0-4.0-1.21,233,1,2025-05-06T06:33:22Z,b60275e29fe2361ab97ac0ac217840d7,"Mozilla/5.0 (Macintosh; Intel Mac OS X 10_15_7) AppleWebKit/537.36 (KHTML, like Gecko) Chrome/135.0.0.0 Safari/537.36",Macintosh,Chrome,135.0.0.0,OS X,10_15_7,https://5puzkbbxv1.cognition.run/?sona_id=55672,"en-GB,en-US;q=0.9,en;q=0.8",o5jg09xtkfocabk,20,"[""Asian""]",No,Female,"I lived in Kolkata , a city in India, and then moved to USA for college",I'm not sure,616362.1000003815,NA,13612,NA,"{""product_choice"":""B""}",choice,tc,binary,repulsion,2,televisions,null,null,null,null,null,null,1,30,40,null,100,90,null,Screen size,Average lifespan,NA,NA
NA,NA,NA,NA,NA,choice_trial_setup,html-keyboard-response,48,372544,0.0-4.0-0.22,233,1,2025-05-06T06:33:22Z,b60275e29fe2361ab97ac0ac217840d7,"Mozilla/5.0 (Macintosh; Intel Mac OS X 10_15_7) AppleWebKit/537.36 (KHTML, like Gecko) Chrome/135.0.0.0 Safari/537.36",Macintosh,Chrome,135.0.0.0,OS X,10_15_7,https://5puzkbbxv1.cognition.run/?sona_id=55672,"en-GB,en-US;q=0.9,en;q=0.8",o5jg09xtkfocabk,20,"[""Asian""]",No,Female,"I lived in Kolkata , a city in India, and then moved to USA for college",I'm not sure,616362.1000003815,NA,null,<p></p>,null,choice,tc,binary,repulsion,2,microwave ovens,null,null,null,null,null,null,2,NA,NA,NA,NA,NA,NA,NA,NA,NA,NA
NA,NA,NA,NA,NA,choice_trial,survey-html-form,49,375447,0.0-4.0-1.22,233,1,2025-05-06T06:33:22Z,b60275e29fe2361ab97ac0ac217840d7,"Mozilla/5.0 (Macintosh; Intel Mac OS X 10_15_7) AppleWebKit/537.36 (KHTML, like Gecko) Chrome/135.0.0.0 Safari/537.36",Macintosh,Chrome,135.0.0.0,OS X,10_15_7,https://5puzkbbxv1.cognition.run/?sona_id=55672,"en-GB,en-US;q=0.9,en;q=0.8",o5jg09xtkfocabk,20,"[""Asian""]",No,Female,"I lived in Kolkata , a city in India, and then moved to USA for college",I'm not sure,616362.1000003815,NA,2899,NA,"{""product_choice"":""A""}",choice,tc,binary,repulsion,2,microwave ovens,null,null,null,null,null,null,2,30,40,null,100,90,null,Warranty,Cooking power,NA,NA
NA,NA,NA,NA,NA,choice_trial_setup,html-keyboard-response,50,375750,0.0-4.0-0.23,233,1,2025-05-06T06:33:22Z,b60275e29fe2361ab97ac0ac217840d7,"Mozilla/5.0 (Macintosh; Intel Mac OS X 10_15_7) AppleWebKit/537.36 (KHTML, like Gecko) Chrome/135.0.0.0 Safari/537.36",Macintosh,Chrome,135.0.0.0,OS X,10_15_7,https://5puzkbbxv1.cognition.run/?sona_id=55672,"en-GB,en-US;q=0.9,en;q=0.8",o5jg09xtkfocabk,20,"[""Asian""]",No,Female,"I lived in Kolkata , a city in India, and then moved to USA for college",I'm not sure,616362.1000003815,NA,null,<p></p>,null,choice,dtc,trinary,repulsion_A,1,televisions,null,null,null,null,null,null,1,NA,NA,NA,NA,NA,NA,NA,NA,NA,NA
NA,NA,NA,NA,NA,choice_trial,survey-html-form,51,382282,0.0-4.0-1.23,233,1,2025-05-06T06:33:22Z,b60275e29fe2361ab97ac0ac217840d7,"Mozilla/5.0 (Macintosh; Intel Mac OS X 10_15_7) AppleWebKit/537.36 (KHTML, like Gecko) Chrome/135.0.0.0 Safari/537.36",Macintosh,Chrome,135.0.0.0,OS X,10_15_7,https://5puzkbbxv1.cognition.run/?sona_id=55672,"en-GB,en-US;q=0.9,en;q=0.8",o5jg09xtkfocabk,20,"[""Asian""]",No,Female,"I lived in Kolkata , a city in India, and then moved to USA for college",I'm not sure,616362.1000003815,NA,6528,NA,"{""product_choice"":""B""}",choice,dtc,trinary,repulsion_A,1,televisions,null,null,null,null,null,null,1,100,90,100,30,40,20,Screen size,Average lifespan,NA,NA
NA,NA,NA,NA,NA,choice_trial_setup,html-keyboard-response,52,382587,0.0-4.0-0.24,233,1,2025-05-06T06:33:22Z,b60275e29fe2361ab97ac0ac217840d7,"Mozilla/5.0 (Macintosh; Intel Mac OS X 10_15_7) AppleWebKit/537.36 (KHTML, like Gecko) Chrome/135.0.0.0 Safari/537.36",Macintosh,Chrome,135.0.0.0,OS X,10_15_7,https://5puzkbbxv1.cognition.run/?sona_id=55672,"en-GB,en-US;q=0.9,en;q=0.8",o5jg09xtkfocabk,20,"[""Asian""]",No,Female,"I lived in Kolkata , a city in India, and then moved to USA for college",I'm not sure,616362.1000003815,NA,null,<p></p>,null,choice,cdt,trinary,repulsion_B,1,washing machines,null,null,null,null,null,null,2,NA,NA,NA,NA,NA,NA,NA,NA,NA,NA
NA,NA,NA,NA,NA,choice_trial,survey-html-form,53,398457,0.0-4.0-1.24,233,1,2025-05-06T06:33:22Z,b60275e29fe2361ab97ac0ac217840d7,"Mozilla/5.0 (Macintosh; Intel Mac OS X 10_15_7) AppleWebKit/537.36 (KHTML, like Gecko) Chrome/135.0.0.0 Safari/537.36",Macintosh,Chrome,135.0.0.0,OS X,10_15_7,https://5puzkbbxv1.cognition.run/?sona_id=55672,"en-GB,en-US;q=0.9,en;q=0.8",o5jg09xtkfocabk,20,"[""Asian""]",No,Female,"I lived in Kolkata , a city in India, and then moved to USA for college",I'm not sure,616362.1000003815,NA,15866,NA,"{""product_choice"":""C""}",choice,cdt,trinary,repulsion_B,1,washing machines,null,null,null,null,null,null,2,90,100,80,40,30,40,Average lifespan,Energy savings,NA,NA
NA,NA,NA,NA,NA,choice_trial_setup,html-keyboard-response,54,398766,0.0-4.0-0.25,233,1,2025-05-06T06:33:22Z,b60275e29fe2361ab97ac0ac217840d7,"Mozilla/5.0 (Macintosh; Intel Mac OS X 10_15_7) AppleWebKit/537.36 (KHTML, like Gecko) Chrome/135.0.0.0 Safari/537.36",Macintosh,Chrome,135.0.0.0,OS X,10_15_7,https://5puzkbbxv1.cognition.run/?sona_id=55672,"en-GB,en-US;q=0.9,en;q=0.8",o5jg09xtkfocabk,20,"[""Asian""]",No,Female,"I lived in Kolkata , a city in India, and then moved to USA for college",I'm not sure,616362.1000003815,NA,null,<p></p>,null,choice,ct,binary,repulsion,1,laptops,null,null,null,null,null,null,2,NA,NA,NA,NA,NA,NA,NA,NA,NA,NA
NA,NA,NA,NA,NA,choice_trial,survey-html-form,55,404957,0.0-4.0-1.25,233,1,2025-05-06T06:33:22Z,b60275e29fe2361ab97ac0ac217840d7,"Mozilla/5.0 (Macintosh; Intel Mac OS X 10_15_7) AppleWebKit/537.36 (KHTML, like Gecko) Chrome/135.0.0.0 Safari/537.36",Macintosh,Chrome,135.0.0.0,OS X,10_15_7,https://5puzkbbxv1.cognition.run/?sona_id=55672,"en-GB,en-US;q=0.9,en;q=0.8",o5jg09xtkfocabk,20,"[""Asian""]",No,Female,"I lived in Kolkata , a city in India, and then moved to USA for college",I'm not sure,616362.1000003815,NA,6187,NA,"{""product_choice"":""B""}",choice,ct,binary,repulsion,1,laptops,null,null,null,null,null,null,2,100,90,null,30,40,null,Processing speed,Memory (RAM),NA,NA
NA,NA,NA,NA,NA,choice_trial_setup,html-keyboard-response,56,405262,0.0-4.0-0.26,233,1,2025-05-06T06:33:22Z,b60275e29fe2361ab97ac0ac217840d7,"Mozilla/5.0 (Macintosh; Intel Mac OS X 10_15_7) AppleWebKit/537.36 (KHTML, like Gecko) Chrome/135.0.0.0 Safari/537.36",Macintosh,Chrome,135.0.0.0,OS X,10_15_7,https://5puzkbbxv1.cognition.run/?sona_id=55672,"en-GB,en-US;q=0.9,en;q=0.8",o5jg09xtkfocabk,20,"[""Asian""]",No,Female,"I lived in Kolkata , a city in India, and then moved to USA for college",I'm not sure,616362.1000003815,NA,null,<p></p>,null,choice,dct,trinary,attraction,2,laptops,null,null,null,null,null,null,2,NA,NA,NA,NA,NA,NA,NA,NA,NA,NA
NA,NA,NA,NA,NA,choice_trial,survey-html-form,57,408858,0.0-4.0-1.26,233,1,2025-05-06T06:33:22Z,b60275e29fe2361ab97ac0ac217840d7,"Mozilla/5.0 (Macintosh; Intel Mac OS X 10_15_7) AppleWebKit/537.36 (KHTML, like Gecko) Chrome/135.0.0.0 Safari/537.36",Macintosh,Chrome,135.0.0.0,OS X,10_15_7,https://5puzkbbxv1.cognition.run/?sona_id=55672,"en-GB,en-US;q=0.9,en;q=0.8",o5jg09xtkfocabk,20,"[""Asian""]",No,Female,"I lived in Kolkata , a city in India, and then moved to USA for college",I'm not sure,616362.1000003815,NA,3592,NA,"{""product_choice"":""B""}",choice,dct,trinary,attraction,2,laptops,null,null,null,null,null,null,2,50,60,40,60,50,60,Processing speed,Memory (RAM),NA,NA
NA,NA,NA,NA,NA,choice_trial_setup,html-keyboard-response,58,409161,0.0-4.0-0.27,233,1,2025-05-06T06:33:22Z,b60275e29fe2361ab97ac0ac217840d7,"Mozilla/5.0 (Macintosh; Intel Mac OS X 10_15_7) AppleWebKit/537.36 (KHTML, like Gecko) Chrome/135.0.0.0 Safari/537.36",Macintosh,Chrome,135.0.0.0,OS X,10_15_7,https://5puzkbbxv1.cognition.run/?sona_id=55672,"en-GB,en-US;q=0.9,en;q=0.8",o5jg09xtkfocabk,20,"[""Asian""]",No,Female,"I lived in Kolkata , a city in India, and then moved to USA for college",I'm not sure,616362.1000003815,NA,null,<p></p>,null,choice,dtc,trinary,repulsion_B,1,televisions,null,null,null,null,null,null,2,NA,NA,NA,NA,NA,NA,NA,NA,NA,NA
NA,NA,NA,NA,NA,choice_trial,survey-html-form,59,415134,0.0-4.0-1.27,233,1,2025-05-06T06:33:22Z,b60275e29fe2361ab97ac0ac217840d7,"Mozilla/5.0 (Macintosh; Intel Mac OS X 10_15_7) AppleWebKit/537.36 (KHTML, like Gecko) Chrome/135.0.0.0 Safari/537.36",Macintosh,Chrome,135.0.0.0,OS X,10_15_7,https://5puzkbbxv1.cognition.run/?sona_id=55672,"en-GB,en-US;q=0.9,en;q=0.8",o5jg09xtkfocabk,20,"[""Asian""]",No,Female,"I lived in Kolkata , a city in India, and then moved to USA for college",I'm not sure,616362.1000003815,NA,5969,NA,"{""product_choice"":""B""}",choice,dtc,trinary,repulsion_B,1,televisions,null,null,null,null,null,null,2,90,100,80,40,30,40,Screen size,Average lifespan,NA,NA
NA,NA,NA,NA,NA,choice_trial_setup,html-keyboard-response,60,415438,0.0-4.0-0.28,233,1,2025-05-06T06:33:22Z,b60275e29fe2361ab97ac0ac217840d7,"Mozilla/5.0 (Macintosh; Intel Mac OS X 10_15_7) AppleWebKit/537.36 (KHTML, like Gecko) Chrome/135.0.0.0 Safari/537.36",Macintosh,Chrome,135.0.0.0,OS X,10_15_7,https://5puzkbbxv1.cognition.run/?sona_id=55672,"en-GB,en-US;q=0.9,en;q=0.8",o5jg09xtkfocabk,20,"[""Asian""]",No,Female,"I lived in Kolkata , a city in India, and then moved to USA for college",I'm not sure,616362.1000003815,NA,null,<p></p>,null,choice,tc,binary,repulsion,2,laptops,null,null,null,null,null,null,2,NA,NA,NA,NA,NA,NA,NA,NA,NA,NA
NA,NA,NA,NA,NA,choice_trial,survey-html-form,61,419640,0.0-4.0-1.28,233,1,2025-05-06T06:33:22Z,b60275e29fe2361ab97ac0ac217840d7,"Mozilla/5.0 (Macintosh; Intel Mac OS X 10_15_7) AppleWebKit/537.36 (KHTML, like Gecko) Chrome/135.0.0.0 Safari/537.36",Macintosh,Chrome,135.0.0.0,OS X,10_15_7,https://5puzkbbxv1.cognition.run/?sona_id=55672,"en-GB,en-US;q=0.9,en;q=0.8",o5jg09xtkfocabk,20,"[""Asian""]",No,Female,"I lived in Kolkata , a city in India, and then moved to USA for college",I'm not sure,616362.1000003815,NA,4197,NA,"{""product_choice"":""B""}",choice,tc,binary,repulsion,2,laptops,null,null,null,null,null,null,2,30,40,null,100,90,null,Processing speed,Memory (RAM),NA,NA
NA,NA,NA,NA,NA,choice_trial_setup,html-keyboard-response,62,419944,0.0-4.0-0.29,233,1,2025-05-06T06:33:22Z,b60275e29fe2361ab97ac0ac217840d7,"Mozilla/5.0 (Macintosh; Intel Mac OS X 10_15_7) AppleWebKit/537.36 (KHTML, like Gecko) Chrome/135.0.0.0 Safari/537.36",Macintosh,Chrome,135.0.0.0,OS X,10_15_7,https://5puzkbbxv1.cognition.run/?sona_id=55672,"en-GB,en-US;q=0.9,en;q=0.8",o5jg09xtkfocabk,20,"[""Asian""]",No,Female,"I lived in Kolkata , a city in India, and then moved to USA for college",I'm not sure,616362.1000003815,NA,null,<p></p>,null,choice,ct,binary,attraction,NA,washing machines,null,null,null,null,null,null,1,NA,NA,NA,NA,NA,NA,NA,NA,NA,NA
NA,NA,NA,NA,NA,choice_trial,survey-html-form,63,424576,0.0-4.0-1.29,233,1,2025-05-06T06:33:22Z,b60275e29fe2361ab97ac0ac217840d7,"Mozilla/5.0 (Macintosh; Intel Mac OS X 10_15_7) AppleWebKit/537.36 (KHTML, like Gecko) Chrome/135.0.0.0 Safari/537.36",Macintosh,Chrome,135.0.0.0,OS X,10_15_7,https://5puzkbbxv1.cognition.run/?sona_id=55672,"en-GB,en-US;q=0.9,en;q=0.8",o5jg09xtkfocabk,20,"[""Asian""]",No,Female,"I lived in Kolkata , a city in India, and then moved to USA for college",I'm not sure,616362.1000003815,NA,4627,NA,"{""product_choice"":""B""}",choice,ct,binary,attraction,NA,washing machines,null,null,null,null,null,null,1,60,50,null,50,60,null,Average lifespan,Energy savings,NA,NA
NA,NA,NA,NA,NA,choice_trial_setup,html-keyboard-response,64,424879,0.0-4.0-0.30,233,1,2025-05-06T06:33:22Z,b60275e29fe2361ab97ac0ac217840d7,"Mozilla/5.0 (Macintosh; Intel Mac OS X 10_15_7) AppleWebKit/537.36 (KHTML, like Gecko) Chrome/135.0.0.0 Safari/537.36",Macintosh,Chrome,135.0.0.0,OS X,10_15_7,https://5puzkbbxv1.cognition.run/?sona_id=55672,"en-GB,en-US;q=0.9,en;q=0.8",o5jg09xtkfocabk,20,"[""Asian""]",No,Female,"I lived in Kolkata , a city in India, and then moved to USA for college",I'm not sure,616362.1000003815,NA,null,<p></p>,null,choice,tdc,trinary,attraction,1,televisions,null,null,null,null,null,null,2,NA,NA,NA,NA,NA,NA,NA,NA,NA,NA
NA,NA,NA,NA,NA,choice_trial,survey-html-form,65,429063,0.0-4.0-1.30,233,1,2025-05-06T06:33:22Z,b60275e29fe2361ab97ac0ac217840d7,"Mozilla/5.0 (Macintosh; Intel Mac OS X 10_15_7) AppleWebKit/537.36 (KHTML, like Gecko) Chrome/135.0.0.0 Safari/537.36",Macintosh,Chrome,135.0.0.0,OS X,10_15_7,https://5puzkbbxv1.cognition.run/?sona_id=55672,"en-GB,en-US;q=0.9,en;q=0.8",o5jg09xtkfocabk,20,"[""Asian""]",No,Female,"I lived in Kolkata , a city in India, and then moved to USA for college",I'm not sure,616362.1000003815,NA,4182,NA,"{""product_choice"":""A""}",choice,tdc,trinary,attraction,1,televisions,null,null,null,null,null,null,2,60,50,60,50,60,40,Screen size,Average lifespan,NA,NA
NA,NA,NA,NA,NA,choice_trial_setup,html-keyboard-response,66,429366,0.0-4.0-0.31,233,1,2025-05-06T06:33:22Z,b60275e29fe2361ab97ac0ac217840d7,"Mozilla/5.0 (Macintosh; Intel Mac OS X 10_15_7) AppleWebKit/537.36 (KHTML, like Gecko) Chrome/135.0.0.0 Safari/537.36",Macintosh,Chrome,135.0.0.0,OS X,10_15_7,https://5puzkbbxv1.cognition.run/?sona_id=55672,"en-GB,en-US;q=0.9,en;q=0.8",o5jg09xtkfocabk,20,"[""Asian""]",No,Female,"I lived in Kolkata , a city in India, and then moved to USA for college",I'm not sure,616362.1000003815,NA,null,<p></p>,null,choice,wbw,trinary,catch,null,laptops,50,60,30,20,35,5,1,NA,NA,NA,NA,NA,NA,NA,NA,NA,NA
NA,NA,NA,NA,NA,choice_trial,survey-html-form,67,435555,0.0-4.0-1.31,233,1,2025-05-06T06:33:22Z,b60275e29fe2361ab97ac0ac217840d7,"Mozilla/5.0 (Macintosh; Intel Mac OS X 10_15_7) AppleWebKit/537.36 (KHTML, like Gecko) Chrome/135.0.0.0 Safari/537.36",Macintosh,Chrome,135.0.0.0,OS X,10_15_7,https://5puzkbbxv1.cognition.run/?sona_id=55672,"en-GB,en-US;q=0.9,en;q=0.8",o5jg09xtkfocabk,20,"[""Asian""]",No,Female,"I lived in Kolkata , a city in India, and then moved to USA for college",I'm not sure,616362.1000003815,NA,6184,NA,"{""product_choice"":""B""}",choice,wbw,trinary,catch,null,laptops,50,60,30,20,35,5,1,null,null,null,null,null,null,Processing speed,Memory (RAM),NA,NA
NA,NA,NA,NA,NA,choice_trial_setup,html-keyboard-response,68,435858,0.0-4.0-0.32,233,1,2025-05-06T06:33:22Z,b60275e29fe2361ab97ac0ac217840d7,"Mozilla/5.0 (Macintosh; Intel Mac OS X 10_15_7) AppleWebKit/537.36 (KHTML, like Gecko) Chrome/135.0.0.0 Safari/537.36",Macintosh,Chrome,135.0.0.0,OS X,10_15_7,https://5puzkbbxv1.cognition.run/?sona_id=55672,"en-GB,en-US;q=0.9,en;q=0.8",o5jg09xtkfocabk,20,"[""Asian""]",No,Female,"I lived in Kolkata , a city in India, and then moved to USA for college",I'm not sure,616362.1000003815,NA,null,<p></p>,null,choice,cdt,trinary,attraction,2,microwave ovens,null,null,null,null,null,null,2,NA,NA,NA,NA,NA,NA,NA,NA,NA,NA
NA,NA,NA,NA,NA,choice_trial,survey-html-form,69,439714,0.0-4.0-1.32,233,1,2025-05-06T06:33:22Z,b60275e29fe2361ab97ac0ac217840d7,"Mozilla/5.0 (Macintosh; Intel Mac OS X 10_15_7) AppleWebKit/537.36 (KHTML, like Gecko) Chrome/135.0.0.0 Safari/537.36",Macintosh,Chrome,135.0.0.0,OS X,10_15_7,https://5puzkbbxv1.cognition.run/?sona_id=55672,"en-GB,en-US;q=0.9,en;q=0.8",o5jg09xtkfocabk,20,"[""Asian""]",No,Female,"I lived in Kolkata , a city in India, and then moved to USA for college",I'm not sure,616362.1000003815,NA,3851,NA,"{""product_choice"":""A""}",choice,cdt,trinary,attraction,2,microwave ovens,null,null,null,null,null,null,2,50,60,40,60,50,60,Warranty,Cooking power,NA,NA
NA,NA,NA,NA,NA,choice_trial_setup,html-keyboard-response,70,440019,0.0-4.0-0.33,233,1,2025-05-06T06:33:22Z,b60275e29fe2361ab97ac0ac217840d7,"Mozilla/5.0 (Macintosh; Intel Mac OS X 10_15_7) AppleWebKit/537.36 (KHTML, like Gecko) Chrome/135.0.0.0 Safari/537.36",Macintosh,Chrome,135.0.0.0,OS X,10_15_7,https://5puzkbbxv1.cognition.run/?sona_id=55672,"en-GB,en-US;q=0.9,en;q=0.8",o5jg09xtkfocabk,20,"[""Asian""]",No,Female,"I lived in Kolkata , a city in India, and then moved to USA for college",I'm not sure,616362.1000003815,NA,null,<p></p>,null,choice,ct,binary,repulsion,1,washing machines,null,null,null,null,null,null,1,NA,NA,NA,NA,NA,NA,NA,NA,NA,NA
NA,NA,NA,NA,NA,choice_trial,survey-html-form,71,442860,0.0-4.0-1.33,233,1,2025-05-06T06:33:22Z,b60275e29fe2361ab97ac0ac217840d7,"Mozilla/5.0 (Macintosh; Intel Mac OS X 10_15_7) AppleWebKit/537.36 (KHTML, like Gecko) Chrome/135.0.0.0 Safari/537.36",Macintosh,Chrome,135.0.0.0,OS X,10_15_7,https://5puzkbbxv1.cognition.run/?sona_id=55672,"en-GB,en-US;q=0.9,en;q=0.8",o5jg09xtkfocabk,20,"[""Asian""]",No,Female,"I lived in Kolkata , a city in India, and then moved to USA for college",I'm not sure,616362.1000003815,NA,2836,NA,"{""product_choice"":""B""}",choice,ct,binary,repulsion,1,washing machines,null,null,null,null,null,null,1,100,90,null,30,40,null,Average lifespan,Energy savings,NA,NA
NA,NA,NA,NA,NA,choice_trial_setup,html-keyboard-response,72,443164,0.0-4.0-0.34,233,1,2025-05-06T06:33:22Z,b60275e29fe2361ab97ac0ac217840d7,"Mozilla/5.0 (Macintosh; Intel Mac OS X 10_15_7) AppleWebKit/537.36 (KHTML, like Gecko) Chrome/135.0.0.0 Safari/537.36",Macintosh,Chrome,135.0.0.0,OS X,10_15_7,https://5puzkbbxv1.cognition.run/?sona_id=55672,"en-GB,en-US;q=0.9,en;q=0.8",o5jg09xtkfocabk,20,"[""Asian""]",No,Female,"I lived in Kolkata , a city in India, and then moved to USA for college",I'm not sure,616362.1000003815,NA,null,<p></p>,null,choice,tdc,trinary,repulsion_A,1,washing machines,null,null,null,null,null,null,2,NA,NA,NA,NA,NA,NA,NA,NA,NA,NA
NA,NA,NA,NA,NA,choice_trial,survey-html-form,73,450646,0.0-4.0-1.34,233,1,2025-05-06T06:33:22Z,b60275e29fe2361ab97ac0ac217840d7,"Mozilla/5.0 (Macintosh; Intel Mac OS X 10_15_7) AppleWebKit/537.36 (KHTML, like Gecko) Chrome/135.0.0.0 Safari/537.36",Macintosh,Chrome,135.0.0.0,OS X,10_15_7,https://5puzkbbxv1.cognition.run/?sona_id=55672,"en-GB,en-US;q=0.9,en;q=0.8",o5jg09xtkfocabk,20,"[""Asian""]",No,Female,"I lived in Kolkata , a city in India, and then moved to USA for college",I'm not sure,616362.1000003815,NA,7477,NA,"{""product_choice"":""A""}",choice,tdc,trinary,repulsion_A,1,washing machines,null,null,null,null,null,null,2,100,90,100,30,40,20,Average lifespan,Energy savings,NA,NA
NA,NA,NA,NA,NA,choice_trial_setup,html-keyboard-response,74,450950,0.0-4.0-0.35,233,1,2025-05-06T06:33:22Z,b60275e29fe2361ab97ac0ac217840d7,"Mozilla/5.0 (Macintosh; Intel Mac OS X 10_15_7) AppleWebKit/537.36 (KHTML, like Gecko) Chrome/135.0.0.0 Safari/537.36",Macintosh,Chrome,135.0.0.0,OS X,10_15_7,https://5puzkbbxv1.cognition.run/?sona_id=55672,"en-GB,en-US;q=0.9,en;q=0.8",o5jg09xtkfocabk,20,"[""Asian""]",No,Female,"I lived in Kolkata , a city in India, and then moved to USA for college",I'm not sure,616362.1000003815,NA,null,<p></p>,null,choice,cdt,trinary,attraction,1,microwave ovens,null,null,null,null,null,null,2,NA,NA,NA,NA,NA,NA,NA,NA,NA,NA
NA,NA,NA,NA,NA,choice_trial,survey-html-form,75,464065,0.0-4.0-1.35,233,1,2025-05-06T06:33:22Z,b60275e29fe2361ab97ac0ac217840d7,"Mozilla/5.0 (Macintosh; Intel Mac OS X 10_15_7) AppleWebKit/537.36 (KHTML, like Gecko) Chrome/135.0.0.0 Safari/537.36",Macintosh,Chrome,135.0.0.0,OS X,10_15_7,https://5puzkbbxv1.cognition.run/?sona_id=55672,"en-GB,en-US;q=0.9,en;q=0.8",o5jg09xtkfocabk,20,"[""Asian""]",No,Female,"I lived in Kolkata , a city in India, and then moved to USA for college",I'm not sure,616362.1000003815,NA,13111,NA,"{""product_choice"":""A""}",choice,cdt,trinary,attraction,1,microwave ovens,null,null,null,null,null,null,2,60,50,60,50,60,40,Warranty,Cooking power,NA,NA
NA,NA,NA,NA,NA,choice_trial_setup,html-keyboard-response,76,464369,0.0-4.0-0.36,233,1,2025-05-06T06:33:22Z,b60275e29fe2361ab97ac0ac217840d7,"Mozilla/5.0 (Macintosh; Intel Mac OS X 10_15_7) AppleWebKit/537.36 (KHTML, like Gecko) Chrome/135.0.0.0 Safari/537.36",Macintosh,Chrome,135.0.0.0,OS X,10_15_7,https://5puzkbbxv1.cognition.run/?sona_id=55672,"en-GB,en-US;q=0.9,en;q=0.8",o5jg09xtkfocabk,20,"[""Asian""]",No,Female,"I lived in Kolkata , a city in India, and then moved to USA for college",I'm not sure,616362.1000003815,NA,null,<p></p>,null,choice,cdt,trinary,attraction,1,laptops,null,null,null,null,null,null,2,NA,NA,NA,NA,NA,NA,NA,NA,NA,NA
NA,NA,NA,NA,NA,choice_trial,survey-html-form,77,468094,0.0-4.0-1.36,233,1,2025-05-06T06:33:22Z,b60275e29fe2361ab97ac0ac217840d7,"Mozilla/5.0 (Macintosh; Intel Mac OS X 10_15_7) AppleWebKit/537.36 (KHTML, like Gecko) Chrome/135.0.0.0 Safari/537.36",Macintosh,Chrome,135.0.0.0,OS X,10_15_7,https://5puzkbbxv1.cognition.run/?sona_id=55672,"en-GB,en-US;q=0.9,en;q=0.8",o5jg09xtkfocabk,20,"[""Asian""]",No,Female,"I lived in Kolkata , a city in India, and then moved to USA for college",I'm not sure,616362.1000003815,NA,3722,NA,"{""product_choice"":""C""}",choice,cdt,trinary,attraction,1,laptops,null,null,null,null,null,null,2,60,50,60,50,60,40,Processing speed,Memory (RAM),NA,NA
NA,NA,NA,NA,NA,choice_trial_setup,html-keyboard-response,78,468400,0.0-4.0-0.37,233,1,2025-05-06T06:33:22Z,b60275e29fe2361ab97ac0ac217840d7,"Mozilla/5.0 (Macintosh; Intel Mac OS X 10_15_7) AppleWebKit/537.36 (KHTML, like Gecko) Chrome/135.0.0.0 Safari/537.36",Macintosh,Chrome,135.0.0.0,OS X,10_15_7,https://5puzkbbxv1.cognition.run/?sona_id=55672,"en-GB,en-US;q=0.9,en;q=0.8",o5jg09xtkfocabk,20,"[""Asian""]",No,Female,"I lived in Kolkata , a city in India, and then moved to USA for college",I'm not sure,616362.1000003815,NA,null,<p></p>,null,choice,ct,binary,repulsion,1,televisions,null,null,null,null,null,null,2,NA,NA,NA,NA,NA,NA,NA,NA,NA,NA
NA,NA,NA,NA,NA,choice_trial,survey-html-form,79,475417,0.0-4.0-1.37,233,1,2025-05-06T06:33:22Z,b60275e29fe2361ab97ac0ac217840d7,"Mozilla/5.0 (Macintosh; Intel Mac OS X 10_15_7) AppleWebKit/537.36 (KHTML, like Gecko) Chrome/135.0.0.0 Safari/537.36",Macintosh,Chrome,135.0.0.0,OS X,10_15_7,https://5puzkbbxv1.cognition.run/?sona_id=55672,"en-GB,en-US;q=0.9,en;q=0.8",o5jg09xtkfocabk,20,"[""Asian""]",No,Female,"I lived in Kolkata , a city in India, and then moved to USA for college",I'm not sure,616362.1000003815,NA,7012,NA,"{""product_choice"":""B""}",choice,ct,binary,repulsion,1,televisions,null,null,null,null,null,null,2,100,90,null,30,40,null,Screen size,Average lifespan,NA,NA
NA,NA,NA,NA,NA,choice_trial_setup,html-keyboard-response,80,475720,0.0-4.0-0.38,233,1,2025-05-06T06:33:22Z,b60275e29fe2361ab97ac0ac217840d7,"Mozilla/5.0 (Macintosh; Intel Mac OS X 10_15_7) AppleWebKit/537.36 (KHTML, like Gecko) Chrome/135.0.0.0 Safari/537.36",Macintosh,Chrome,135.0.0.0,OS X,10_15_7,https://5puzkbbxv1.cognition.run/?sona_id=55672,"en-GB,en-US;q=0.9,en;q=0.8",o5jg09xtkfocabk,20,"[""Asian""]",No,Female,"I lived in Kolkata , a city in India, and then moved to USA for college",I'm not sure,616362.1000003815,NA,null,<p></p>,null,choice,cdt,trinary,repulsion_B,2,laptops,null,null,null,null,null,null,1,NA,NA,NA,NA,NA,NA,NA,NA,NA,NA
NA,NA,NA,NA,NA,choice_trial,survey-html-form,81,493351,0.0-4.0-1.38,233,1,2025-05-06T06:33:22Z,b60275e29fe2361ab97ac0ac217840d7,"Mozilla/5.0 (Macintosh; Intel Mac OS X 10_15_7) AppleWebKit/537.36 (KHTML, like Gecko) Chrome/135.0.0.0 Safari/537.36",Macintosh,Chrome,135.0.0.0,OS X,10_15_7,https://5puzkbbxv1.cognition.run/?sona_id=55672,"en-GB,en-US;q=0.9,en;q=0.8",o5jg09xtkfocabk,20,"[""Asian""]",No,Female,"I lived in Kolkata , a city in India, and then moved to USA for college",I'm not sure,616362.1000003815,NA,17626,NA,"{""product_choice"":""A""}",choice,cdt,trinary,repulsion_B,2,laptops,null,null,null,null,null,null,1,40,30,40,90,100,80,Processing speed,Memory (RAM),NA,NA
NA,NA,NA,NA,NA,choice_trial_setup,html-keyboard-response,82,493656,0.0-4.0-0.39,233,1,2025-05-06T06:33:22Z,b60275e29fe2361ab97ac0ac217840d7,"Mozilla/5.0 (Macintosh; Intel Mac OS X 10_15_7) AppleWebKit/537.36 (KHTML, like Gecko) Chrome/135.0.0.0 Safari/537.36",Macintosh,Chrome,135.0.0.0,OS X,10_15_7,https://5puzkbbxv1.cognition.run/?sona_id=55672,"en-GB,en-US;q=0.9,en;q=0.8",o5jg09xtkfocabk,20,"[""Asian""]",No,Female,"I lived in Kolkata , a city in India, and then moved to USA for college",I'm not sure,616362.1000003815,NA,null,<p></p>,null,choice,dct,trinary,repulsion_A,2,televisions,null,null,null,null,null,null,2,NA,NA,NA,NA,NA,NA,NA,NA,NA,NA
NA,NA,NA,NA,NA,choice_trial,survey-html-form,83,500984,0.0-4.0-1.39,233,1,2025-05-06T06:33:22Z,b60275e29fe2361ab97ac0ac217840d7,"Mozilla/5.0 (Macintosh; Intel Mac OS X 10_15_7) AppleWebKit/537.36 (KHTML, like Gecko) Chrome/135.0.0.0 Safari/537.36",Macintosh,Chrome,135.0.0.0,OS X,10_15_7,https://5puzkbbxv1.cognition.run/?sona_id=55672,"en-GB,en-US;q=0.9,en;q=0.8",o5jg09xtkfocabk,20,"[""Asian""]",No,Female,"I lived in Kolkata , a city in India, and then moved to USA for college",I'm not sure,616362.1000003815,NA,7322,NA,"{""product_choice"":""C""}",choice,dct,trinary,repulsion_A,2,televisions,null,null,null,null,null,null,2,30,40,20,100,90,100,Screen size,Average lifespan,NA,NA
NA,NA,NA,NA,NA,choice_trial_setup,html-keyboard-response,84,501288,0.0-4.0-0.40,233,1,2025-05-06T06:33:22Z,b60275e29fe2361ab97ac0ac217840d7,"Mozilla/5.0 (Macintosh; Intel Mac OS X 10_15_7) AppleWebKit/537.36 (KHTML, like Gecko) Chrome/135.0.0.0 Safari/537.36",Macintosh,Chrome,135.0.0.0,OS X,10_15_7,https://5puzkbbxv1.cognition.run/?sona_id=55672,"en-GB,en-US;q=0.9,en;q=0.8",o5jg09xtkfocabk,20,"[""Asian""]",No,Female,"I lived in Kolkata , a city in India, and then moved to USA for college",I'm not sure,616362.1000003815,NA,null,<p></p>,null,choice,tdc,trinary,attraction,2,washing machines,null,null,null,null,null,null,1,NA,NA,NA,NA,NA,NA,NA,NA,NA,NA
NA,NA,NA,NA,NA,choice_trial,survey-html-form,85,504737,0.0-4.0-1.40,233,1,2025-05-06T06:33:22Z,b60275e29fe2361ab97ac0ac217840d7,"Mozilla/5.0 (Macintosh; Intel Mac OS X 10_15_7) AppleWebKit/537.36 (KHTML, like Gecko) Chrome/135.0.0.0 Safari/537.36",Macintosh,Chrome,135.0.0.0,OS X,10_15_7,https://5puzkbbxv1.cognition.run/?sona_id=55672,"en-GB,en-US;q=0.9,en;q=0.8",o5jg09xtkfocabk,20,"[""Asian""]",No,Female,"I lived in Kolkata , a city in India, and then moved to USA for college",I'm not sure,616362.1000003815,NA,3441,NA,"{""product_choice"":""C""}",choice,tdc,trinary,attraction,2,washing machines,null,null,null,null,null,null,1,50,60,40,60,50,60,Average lifespan,Energy savings,NA,NA
NA,NA,NA,NA,NA,choice_trial_setup,html-keyboard-response,86,505041,0.0-4.0-0.41,233,1,2025-05-06T06:33:22Z,b60275e29fe2361ab97ac0ac217840d7,"Mozilla/5.0 (Macintosh; Intel Mac OS X 10_15_7) AppleWebKit/537.36 (KHTML, like Gecko) Chrome/135.0.0.0 Safari/537.36",Macintosh,Chrome,135.0.0.0,OS X,10_15_7,https://5puzkbbxv1.cognition.run/?sona_id=55672,"en-GB,en-US;q=0.9,en;q=0.8",o5jg09xtkfocabk,20,"[""Asian""]",No,Female,"I lived in Kolkata , a city in India, and then moved to USA for college",I'm not sure,616362.1000003815,NA,null,<p></p>,null,choice,tcd,trinary,repulsion_B,2,washing machines,null,null,null,null,null,null,1,NA,NA,NA,NA,NA,NA,NA,NA,NA,NA
NA,NA,NA,NA,NA,choice_trial,survey-html-form,87,509362,0.0-4.0-1.41,233,1,2025-05-06T06:33:22Z,b60275e29fe2361ab97ac0ac217840d7,"Mozilla/5.0 (Macintosh; Intel Mac OS X 10_15_7) AppleWebKit/537.36 (KHTML, like Gecko) Chrome/135.0.0.0 Safari/537.36",Macintosh,Chrome,135.0.0.0,OS X,10_15_7,https://5puzkbbxv1.cognition.run/?sona_id=55672,"en-GB,en-US;q=0.9,en;q=0.8",o5jg09xtkfocabk,20,"[""Asian""]",No,Female,"I lived in Kolkata , a city in India, and then moved to USA for college",I'm not sure,616362.1000003815,NA,4316,NA,"{""product_choice"":""A""}",choice,tcd,trinary,repulsion_B,2,washing machines,null,null,null,null,null,null,1,40,30,40,90,100,80,Average lifespan,Energy savings,NA,NA
NA,NA,NA,NA,NA,choice_trial_setup,html-keyboard-response,88,509665,0.0-4.0-0.42,233,1,2025-05-06T06:33:22Z,b60275e29fe2361ab97ac0ac217840d7,"Mozilla/5.0 (Macintosh; Intel Mac OS X 10_15_7) AppleWebKit/537.36 (KHTML, like Gecko) Chrome/135.0.0.0 Safari/537.36",Macintosh,Chrome,135.0.0.0,OS X,10_15_7,https://5puzkbbxv1.cognition.run/?sona_id=55672,"en-GB,en-US;q=0.9,en;q=0.8",o5jg09xtkfocabk,20,"[""Asian""]",No,Female,"I lived in Kolkata , a city in India, and then moved to USA for college",I'm not sure,616362.1000003815,NA,null,<p></p>,null,choice,wb,binary,catch,null,laptops,85,55,30,45,null,null,2,NA,NA,NA,NA,NA,NA,NA,NA,NA,NA
NA,NA,NA,NA,NA,choice_trial,survey-html-form,89,512517,0.0-4.0-1.42,233,1,2025-05-06T06:33:22Z,b60275e29fe2361ab97ac0ac217840d7,"Mozilla/5.0 (Macintosh; Intel Mac OS X 10_15_7) AppleWebKit/537.36 (KHTML, like Gecko) Chrome/135.0.0.0 Safari/537.36",Macintosh,Chrome,135.0.0.0,OS X,10_15_7,https://5puzkbbxv1.cognition.run/?sona_id=55672,"en-GB,en-US;q=0.9,en;q=0.8",o5jg09xtkfocabk,20,"[""Asian""]",No,Female,"I lived in Kolkata , a city in India, and then moved to USA for college",I'm not sure,616362.1000003815,NA,2847,NA,"{""product_choice"":""B""}",choice,wb,binary,catch,null,laptops,85,55,30,45,null,null,2,null,null,null,null,null,null,Processing speed,Memory (RAM),NA,NA
NA,NA,NA,NA,NA,choice_trial_setup,html-keyboard-response,90,512819,0.0-4.0-0.43,233,1,2025-05-06T06:33:22Z,b60275e29fe2361ab97ac0ac217840d7,"Mozilla/5.0 (Macintosh; Intel Mac OS X 10_15_7) AppleWebKit/537.36 (KHTML, like Gecko) Chrome/135.0.0.0 Safari/537.36",Macintosh,Chrome,135.0.0.0,OS X,10_15_7,https://5puzkbbxv1.cognition.run/?sona_id=55672,"en-GB,en-US;q=0.9,en;q=0.8",o5jg09xtkfocabk,20,"[""Asian""]",No,Female,"I lived in Kolkata , a city in India, and then moved to USA for college",I'm not sure,616362.1000003815,NA,null,<p></p>,null,choice,wbw,trinary,catch,null,washing machines,85,70,5,35,35,40,1,NA,NA,NA,NA,NA,NA,NA,NA,NA,NA
NA,NA,NA,NA,NA,choice_trial,survey-html-form,91,515698,0.0-4.0-1.43,233,1,2025-05-06T06:33:22Z,b60275e29fe2361ab97ac0ac217840d7,"Mozilla/5.0 (Macintosh; Intel Mac OS X 10_15_7) AppleWebKit/537.36 (KHTML, like Gecko) Chrome/135.0.0.0 Safari/537.36",Macintosh,Chrome,135.0.0.0,OS X,10_15_7,https://5puzkbbxv1.cognition.run/?sona_id=55672,"en-GB,en-US;q=0.9,en;q=0.8",o5jg09xtkfocabk,20,"[""Asian""]",No,Female,"I lived in Kolkata , a city in India, and then moved to USA for college",I'm not sure,616362.1000003815,NA,2874,NA,"{""product_choice"":""B""}",choice,wbw,trinary,catch,null,washing machines,85,70,5,35,35,40,1,null,null,null,null,null,null,Average lifespan,Energy savings,NA,NA
NA,NA,NA,NA,NA,post_trials_message,html-button-response,92,518894,0.0-5.0,233,1,2025-05-06T06:33:22Z,b60275e29fe2361ab97ac0ac217840d7,"Mozilla/5.0 (Macintosh; Intel Mac OS X 10_15_7) AppleWebKit/537.36 (KHTML, like Gecko) Chrome/135.0.0.0 Safari/537.36",Macintosh,Chrome,135.0.0.0,OS X,10_15_7,https://5puzkbbxv1.cognition.run/?sona_id=55672,"en-GB,en-US;q=0.9,en;q=0.8",o5jg09xtkfocabk,20,"[""Asian""]",No,Female,"I lived in Kolkata , a city in India, and then moved to USA for college",I'm not sure,616362.1000003815,NA,3190,<p> <b>Thank you for your patience!</b></p><p>  The study will be done after completing a brief form. </p>,0,NA,NA,NA,NA,NA,NA,NA,NA,NA,NA,NA,NA,NA,NA,NA,NA,NA,NA,NA,NA,NA,NA,NA
NA,NA,NA,NA,NA,survey_message,survey-text,93,557949,0.0-6.0,233,1,2025-05-06T06:33:22Z,b60275e29fe2361ab97ac0ac217840d7,"Mozilla/5.0 (Macintosh; Intel Mac OS X 10_15_7) AppleWebKit/537.36 (KHTML, like Gecko) Chrome/135.0.0.0 Safari/537.36",Macintosh,Chrome,135.0.0.0,OS X,10_15_7,https://5puzkbbxv1.cognition.run/?sona_id=55672,"en-GB,en-US;q=0.9,en;q=0.8",o5jg09xtkfocabk,20,"[""Asian""]",No,Female,"I lived in Kolkata , a city in India, and then moved to USA for college",I'm not sure,616362.1000003815,NA,39047,NA,"{""Q0"":""depending on the products, i chose the factors that are most important to me in making a decision , and i correlated those numbers that seemed like the best option to me and picked them""}",NA,NA,NA,NA,NA,NA,NA,NA,NA,NA,NA,NA,NA,NA,NA,NA,NA,NA,NA,NA,NA,"depending on the products, i chose the factors that are most important to me in making a decision , and i correlated those numbers that seemed like the best option to me and picked them",NA
NA,NA,NA,NA,NA,demo_age,survey-text,94,560977,0.0-7.0,233,1,2025-05-06T06:33:22Z,b60275e29fe2361ab97ac0ac217840d7,"Mozilla/5.0 (Macintosh; Intel Mac OS X 10_15_7) AppleWebKit/537.36 (KHTML, like Gecko) Chrome/135.0.0.0 Safari/537.36",Macintosh,Chrome,135.0.0.0,OS X,10_15_7,https://5puzkbbxv1.cognition.run/?sona_id=55672,"en-GB,en-US;q=0.9,en;q=0.8",o5jg09xtkfocabk,20,"[""Asian""]",No,Female,"I lived in Kolkata , a city in India, and then moved to USA for college",I'm not sure,616362.1000003815,NA,3024,NA,"{""Q0"":""20""}",NA,NA,NA,NA,NA,NA,NA,NA,NA,NA,NA,NA,NA,NA,NA,NA,NA,NA,NA,NA,NA,NA,NA
NA,NA,NA,NA,NA,demo_race,survey-multi-select,95,563485,0.0-8.0,233,1,2025-05-06T06:33:22Z,b60275e29fe2361ab97ac0ac217840d7,"Mozilla/5.0 (Macintosh; Intel Mac OS X 10_15_7) AppleWebKit/537.36 (KHTML, like Gecko) Chrome/135.0.0.0 Safari/537.36",Macintosh,Chrome,135.0.0.0,OS X,10_15_7,https://5puzkbbxv1.cognition.run/?sona_id=55672,"en-GB,en-US;q=0.9,en;q=0.8",o5jg09xtkfocabk,20,"[""Asian""]",No,Female,"I lived in Kolkata , a city in India, and then moved to USA for college",I'm not sure,616362.1000003815,NA,2499,NA,"{""Q0"":[""Asian""]}",NA,NA,NA,NA,NA,NA,NA,NA,NA,NA,NA,NA,NA,NA,NA,NA,NA,NA,NA,NA,NA,NA,[0]
NA,NA,NA,NA,NA,demo_ethnicity_gender,survey-multi-choice,96,566758,0.0-9.0,233,1,2025-05-06T06:33:22Z,b60275e29fe2361ab97ac0ac217840d7,"Mozilla/5.0 (Macintosh; Intel Mac OS X 10_15_7) AppleWebKit/537.36 (KHTML, like Gecko) Chrome/135.0.0.0 Safari/537.36",Macintosh,Chrome,135.0.0.0,OS X,10_15_7,https://5puzkbbxv1.cognition.run/?sona_id=55672,"en-GB,en-US;q=0.9,en;q=0.8",o5jg09xtkfocabk,20,"[""Asian""]",No,Female,"I lived in Kolkata , a city in India, and then moved to USA for college",I'm not sure,616362.1000003815,NA,3269,NA,"{""Q0"":""No"",""Q1"":""Female""}",NA,NA,NA,NA,NA,NA,NA,NA,NA,NA,NA,NA,NA,NA,NA,NA,NA,NA,NA,NA,NA,NA,"[0,1]"
NA,NA,NA,NA,NA,demo_countries,survey-text,97,600701,0.0-10.0,233,1,2025-05-06T06:33:22Z,b60275e29fe2361ab97ac0ac217840d7,"Mozilla/5.0 (Macintosh; Intel Mac OS X 10_15_7) AppleWebKit/537.36 (KHTML, like Gecko) Chrome/135.0.0.0 Safari/537.36",Macintosh,Chrome,135.0.0.0,OS X,10_15_7,https://5puzkbbxv1.cognition.run/?sona_id=55672,"en-GB,en-US;q=0.9,en;q=0.8",o5jg09xtkfocabk,20,"[""Asian""]",No,Female,"I lived in Kolkata , a city in India, and then moved to USA for college",I'm not sure,616362.1000003815,NA,33914,NA,"{""Q0"":""I lived in Kolkata , a city in India, and then moved to USA for college ""}",NA,NA,NA,NA,NA,NA,NA,NA,NA,NA,NA,NA,NA,NA,NA,NA,NA,NA,NA,NA,NA,NA,NA
NA,NA,NA,NA,NA,demo_prev_study,survey-multi-choice,98,605695,0.0-11.0,233,1,2025-05-06T06:33:22Z,b60275e29fe2361ab97ac0ac217840d7,"Mozilla/5.0 (Macintosh; Intel Mac OS X 10_15_7) AppleWebKit/537.36 (KHTML, like Gecko) Chrome/135.0.0.0 Safari/537.36",Macintosh,Chrome,135.0.0.0,OS X,10_15_7,https://5puzkbbxv1.cognition.run/?sona_id=55672,"en-GB,en-US;q=0.9,en;q=0.8",o5jg09xtkfocabk,20,"[""Asian""]",No,Female,"I lived in Kolkata , a city in India, and then moved to USA for college",I'm not sure,616362.1000003815,NA,4991,NA,"{""Q0"":""I'm not sure""}",NA,NA,NA,NA,NA,NA,NA,NA,NA,NA,NA,NA,NA,NA,NA,NA,NA,NA,NA,NA,NA,NA,[0]
NA,NA,NA,NA,NA,post_survey_message,html-keyboard-response,99,611417,0.0-12.0,233,1,2025-05-06T06:33:22Z,b60275e29fe2361ab97ac0ac217840d7,"Mozilla/5.0 (Macintosh; Intel Mac OS X 10_15_7) AppleWebKit/537.36 (KHTML, like Gecko) Chrome/135.0.0.0 Safari/537.36",Macintosh,Chrome,135.0.0.0,OS X,10_15_7,https://5puzkbbxv1.cognition.run/?sona_id=55672,"en-GB,en-US;q=0.9,en;q=0.8",o5jg09xtkfocabk,20,"[""Asian""]",No,Female,"I lived in Kolkata , a city in India, and then moved to USA for college",I'm not sure,616362.1000003815,NA,5719,NA,j,NA,NA,NA,NA,NA,NA,NA,NA,NA,NA,NA,NA,NA,NA,NA,NA,NA,NA,NA,NA,NA,NA,NA
NA,NA,NA,NA,NA,debrief,image-keyboard-response,100,616360,0.0-13.0,233,1,2025-05-06T06:33:22Z,b60275e29fe2361ab97ac0ac217840d7,"Mozilla/5.0 (Macintosh; Intel Mac OS X 10_15_7) AppleWebKit/537.36 (KHTML, like Gecko) Chrome/135.0.0.0 Safari/537.36",Macintosh,Chrome,135.0.0.0,OS X,10_15_7,https://5puzkbbxv1.cognition.run/?sona_id=55672,"en-GB,en-US;q=0.9,en;q=0.8",o5jg09xtkfocabk,20,"[""Asian""]",No,Female,"I lived in Kolkata , a city in India, and then moved to USA for college",I'm not sure,616362.1000003815,NA,4932,Judg_choice_debrief.png,p,NA,NA,NA,NA,NA,NA,NA,NA,NA,NA,NA,NA,NA,NA,NA,NA,NA,NA,NA,NA,NA,NA,NA
