success,timeout,failed_images,failed_audio,failed_video,screen_id,trial_type,trial_index,time_elapsed,internal_node_id,run_id,condition,recorded_at,source_code_version,user_agent,device,browser,browser_version,platform,platform_version,referer,accept_language,ppt_id,age,race,ethnicity,gender,other_countries,prev_study,exp_duration,view_history,rt,stimulus,response,phase,order,set,effect,t_high,category,d1_best,d2_best,d1_worst1,d2_worst1,d1_worst2,d2_worst2,first_dim,d1_t,d1_c,d1_d,d2_t,d2_c,d2_d,d1_name,d2_name,strategy_response,question_order
TRUE,FALSE,[],[],[],img preload,preload,0,402,0.0-0.0,244,1,2025-05-06T15:22:46Z,b60275e29fe2361ab97ac0ac217840d7,"Mozilla/5.0 (Windows NT 10.0; Win64; x64) AppleWebKit/537.36 (KHTML, like Gecko) Chrome/122.0.0.0 Safari/537.36",WebKit,Chrome,122.0.0.0,Windows,10,https://5puzkbbxv1.cognition.run/?sona_id=57579,"en-US,en;q=0.9",q0xkyu3vn3mglvr,22,"[""White""]",No,Male,NA,No,443034.8999999999,NA,NA,NA,NA,NA,NA,NA,NA,NA,NA,NA,NA,NA,NA,NA,NA,NA,NA,NA,NA,NA,NA,NA,NA,NA,NA,NA
NA,NA,NA,NA,NA,computer_message,instructions,1,3261,0.0-1.0,244,1,2025-05-06T15:22:46Z,b60275e29fe2361ab97ac0ac217840d7,"Mozilla/5.0 (Windows NT 10.0; Win64; x64) AppleWebKit/537.36 (KHTML, like Gecko) Chrome/122.0.0.0 Safari/537.36",WebKit,Chrome,122.0.0.0,Windows,10,https://5puzkbbxv1.cognition.run/?sona_id=57579,"en-US,en;q=0.9",q0xkyu3vn3mglvr,22,"[""White""]",No,Male,NA,No,443034.8999999999,"[{""page_index"":0,""viewing_time"":2856}]",2857,NA,NA,NA,NA,NA,NA,NA,NA,NA,NA,NA,NA,NA,NA,NA,NA,NA,NA,NA,NA,NA,NA,NA,NA,NA
TRUE,NA,NA,NA,NA,NA,fullscreen,2,21340,0.0-2.0,244,1,2025-05-06T15:22:46Z,b60275e29fe2361ab97ac0ac217840d7,"Mozilla/5.0 (Windows NT 10.0; Win64; x64) AppleWebKit/537.36 (KHTML, like Gecko) Chrome/122.0.0.0 Safari/537.36",WebKit,Chrome,122.0.0.0,Windows,10,https://5puzkbbxv1.cognition.run/?sona_id=57579,"en-US,en;q=0.9",q0xkyu3vn3mglvr,22,"[""White""]",No,Male,NA,No,443034.8999999999,NA,17066,NA,NA,NA,NA,NA,NA,NA,NA,NA,NA,NA,NA,NA,NA,NA,NA,NA,NA,NA,NA,NA,NA,NA,NA,NA
NA,NA,NA,NA,NA,choice_instructions,instructions,3,62357,0.0-3.0,244,1,2025-05-06T15:22:46Z,b60275e29fe2361ab97ac0ac217840d7,"Mozilla/5.0 (Windows NT 10.0; Win64; x64) AppleWebKit/537.36 (KHTML, like Gecko) Chrome/122.0.0.0 Safari/537.36",WebKit,Chrome,122.0.0.0,Windows,10,https://5puzkbbxv1.cognition.run/?sona_id=57579,"en-US,en;q=0.9",q0xkyu3vn3mglvr,22,"[""White""]",No,Male,NA,No,443034.8999999999,"[{""page_index"":0,""viewing_time"":1884},{""page_index"":1,""viewing_time"":1621},{""page_index"":2,""viewing_time"":1795},{""page_index"":1,""viewing_time"":1647},{""page_index"":2,""viewing_time"":4121},{""page_index"":3,""viewing_time"":11680},{""page_index"":4,""viewing_time"":1874},{""page_index"":5,""viewing_time"":11872},{""page_index"":6,""viewing_time"":4522}]",41016,NA,NA,NA,NA,NA,NA,NA,NA,NA,NA,NA,NA,NA,NA,NA,NA,NA,NA,NA,NA,NA,NA,NA,NA,NA
NA,NA,NA,NA,NA,choice_trial_setup,html-keyboard-response,4,62662,0.0-4.0-0.0,244,1,2025-05-06T15:22:46Z,b60275e29fe2361ab97ac0ac217840d7,"Mozilla/5.0 (Windows NT 10.0; Win64; x64) AppleWebKit/537.36 (KHTML, like Gecko) Chrome/122.0.0.0 Safari/537.36",WebKit,Chrome,122.0.0.0,Windows,10,https://5puzkbbxv1.cognition.run/?sona_id=57579,"en-US,en;q=0.9",q0xkyu3vn3mglvr,22,"[""White""]",No,Male,NA,No,443034.8999999999,NA,null,<p></p>,null,choice,ct,binary,repulsion,1,microwave ovens,null,null,null,null,null,null,1,NA,NA,NA,NA,NA,NA,NA,NA,NA,NA
NA,NA,NA,NA,NA,choice_trial,survey-html-form,5,72248,0.0-4.0-1.0,244,1,2025-05-06T15:22:46Z,b60275e29fe2361ab97ac0ac217840d7,"Mozilla/5.0 (Windows NT 10.0; Win64; x64) AppleWebKit/537.36 (KHTML, like Gecko) Chrome/122.0.0.0 Safari/537.36",WebKit,Chrome,122.0.0.0,Windows,10,https://5puzkbbxv1.cognition.run/?sona_id=57579,"en-US,en;q=0.9",q0xkyu3vn3mglvr,22,"[""White""]",No,Male,NA,No,443034.8999999999,NA,9582,NA,"{""product_choice"":""B""}",choice,ct,binary,repulsion,1,microwave ovens,null,null,null,null,null,null,1,100,90,null,30,40,null,Warranty,Cooking power,NA,NA
NA,NA,NA,NA,NA,choice_trial_setup,html-keyboard-response,6,72551,0.0-4.0-0.1,244,1,2025-05-06T15:22:46Z,b60275e29fe2361ab97ac0ac217840d7,"Mozilla/5.0 (Windows NT 10.0; Win64; x64) AppleWebKit/537.36 (KHTML, like Gecko) Chrome/122.0.0.0 Safari/537.36",WebKit,Chrome,122.0.0.0,Windows,10,https://5puzkbbxv1.cognition.run/?sona_id=57579,"en-US,en;q=0.9",q0xkyu3vn3mglvr,22,"[""White""]",No,Male,NA,No,443034.8999999999,NA,null,<p></p>,null,choice,tc,binary,repulsion,1,laptops,null,null,null,null,null,null,2,NA,NA,NA,NA,NA,NA,NA,NA,NA,NA
NA,NA,NA,NA,NA,choice_trial,survey-html-form,7,75524,0.0-4.0-1.1,244,1,2025-05-06T15:22:46Z,b60275e29fe2361ab97ac0ac217840d7,"Mozilla/5.0 (Windows NT 10.0; Win64; x64) AppleWebKit/537.36 (KHTML, like Gecko) Chrome/122.0.0.0 Safari/537.36",WebKit,Chrome,122.0.0.0,Windows,10,https://5puzkbbxv1.cognition.run/?sona_id=57579,"en-US,en;q=0.9",q0xkyu3vn3mglvr,22,"[""White""]",No,Male,NA,No,443034.8999999999,NA,2970,NA,"{""product_choice"":""A""}",choice,tc,binary,repulsion,1,laptops,null,null,null,null,null,null,2,100,90,null,30,40,null,Processing speed,Memory (RAM),NA,NA
NA,NA,NA,NA,NA,choice_trial_setup,html-keyboard-response,8,75837,0.0-4.0-0.2,244,1,2025-05-06T15:22:46Z,b60275e29fe2361ab97ac0ac217840d7,"Mozilla/5.0 (Windows NT 10.0; Win64; x64) AppleWebKit/537.36 (KHTML, like Gecko) Chrome/122.0.0.0 Safari/537.36",WebKit,Chrome,122.0.0.0,Windows,10,https://5puzkbbxv1.cognition.run/?sona_id=57579,"en-US,en;q=0.9",q0xkyu3vn3mglvr,22,"[""White""]",No,Male,NA,No,443034.8999999999,NA,null,<p></p>,null,choice,ct,binary,attraction,NA,washing machines,null,null,null,null,null,null,1,NA,NA,NA,NA,NA,NA,NA,NA,NA,NA
NA,NA,NA,NA,NA,choice_trial,survey-html-form,9,77050,0.0-4.0-1.2,244,1,2025-05-06T15:22:46Z,b60275e29fe2361ab97ac0ac217840d7,"Mozilla/5.0 (Windows NT 10.0; Win64; x64) AppleWebKit/537.36 (KHTML, like Gecko) Chrome/122.0.0.0 Safari/537.36",WebKit,Chrome,122.0.0.0,Windows,10,https://5puzkbbxv1.cognition.run/?sona_id=57579,"en-US,en;q=0.9",q0xkyu3vn3mglvr,22,"[""White""]",No,Male,NA,No,443034.8999999999,NA,1211,NA,"{""product_choice"":""A""}",choice,ct,binary,attraction,NA,washing machines,null,null,null,null,null,null,1,60,50,null,50,60,null,Average lifespan,Energy savings,NA,NA
NA,NA,NA,NA,NA,choice_trial_setup,html-keyboard-response,10,77355,0.0-4.0-0.3,244,1,2025-05-06T15:22:46Z,b60275e29fe2361ab97ac0ac217840d7,"Mozilla/5.0 (Windows NT 10.0; Win64; x64) AppleWebKit/537.36 (KHTML, like Gecko) Chrome/122.0.0.0 Safari/537.36",WebKit,Chrome,122.0.0.0,Windows,10,https://5puzkbbxv1.cognition.run/?sona_id=57579,"en-US,en;q=0.9",q0xkyu3vn3mglvr,22,"[""White""]",No,Male,NA,No,443034.8999999999,NA,null,<p></p>,null,choice,ctd,trinary,repulsion_B,1,microwave ovens,null,null,null,null,null,null,1,NA,NA,NA,NA,NA,NA,NA,NA,NA,NA
NA,NA,NA,NA,NA,choice_trial,survey-html-form,11,78790,0.0-4.0-1.3,244,1,2025-05-06T15:22:46Z,b60275e29fe2361ab97ac0ac217840d7,"Mozilla/5.0 (Windows NT 10.0; Win64; x64) AppleWebKit/537.36 (KHTML, like Gecko) Chrome/122.0.0.0 Safari/537.36",WebKit,Chrome,122.0.0.0,Windows,10,https://5puzkbbxv1.cognition.run/?sona_id=57579,"en-US,en;q=0.9",q0xkyu3vn3mglvr,22,"[""White""]",No,Male,NA,No,443034.8999999999,NA,1433,NA,"{""product_choice"":""B""}",choice,ctd,trinary,repulsion_B,1,microwave ovens,null,null,null,null,null,null,1,90,100,80,40,30,40,Warranty,Cooking power,NA,NA
NA,NA,NA,NA,NA,choice_trial_setup,html-keyboard-response,12,79092,0.0-4.0-0.4,244,1,2025-05-06T15:22:46Z,b60275e29fe2361ab97ac0ac217840d7,"Mozilla/5.0 (Windows NT 10.0; Win64; x64) AppleWebKit/537.36 (KHTML, like Gecko) Chrome/122.0.0.0 Safari/537.36",WebKit,Chrome,122.0.0.0,Windows,10,https://5puzkbbxv1.cognition.run/?sona_id=57579,"en-US,en;q=0.9",q0xkyu3vn3mglvr,22,"[""White""]",No,Male,NA,No,443034.8999999999,NA,null,<p></p>,null,choice,dtc,trinary,attraction,2,laptops,null,null,null,null,null,null,1,NA,NA,NA,NA,NA,NA,NA,NA,NA,NA
NA,NA,NA,NA,NA,choice_trial,survey-html-form,13,84620,0.0-4.0-1.4,244,1,2025-05-06T15:22:46Z,b60275e29fe2361ab97ac0ac217840d7,"Mozilla/5.0 (Windows NT 10.0; Win64; x64) AppleWebKit/537.36 (KHTML, like Gecko) Chrome/122.0.0.0 Safari/537.36",WebKit,Chrome,122.0.0.0,Windows,10,https://5puzkbbxv1.cognition.run/?sona_id=57579,"en-US,en;q=0.9",q0xkyu3vn3mglvr,22,"[""White""]",No,Male,NA,No,443034.8999999999,NA,5525,NA,"{""product_choice"":""B""}",choice,dtc,trinary,attraction,2,laptops,null,null,null,null,null,null,1,50,60,40,60,50,60,Processing speed,Memory (RAM),NA,NA
NA,NA,NA,NA,NA,choice_trial_setup,html-keyboard-response,14,84923,0.0-4.0-0.5,244,1,2025-05-06T15:22:46Z,b60275e29fe2361ab97ac0ac217840d7,"Mozilla/5.0 (Windows NT 10.0; Win64; x64) AppleWebKit/537.36 (KHTML, like Gecko) Chrome/122.0.0.0 Safari/537.36",WebKit,Chrome,122.0.0.0,Windows,10,https://5puzkbbxv1.cognition.run/?sona_id=57579,"en-US,en;q=0.9",q0xkyu3vn3mglvr,22,"[""White""]",No,Male,NA,No,443034.8999999999,NA,null,<p></p>,null,choice,ct,binary,repulsion,2,microwave ovens,null,null,null,null,null,null,1,NA,NA,NA,NA,NA,NA,NA,NA,NA,NA
NA,NA,NA,NA,NA,choice_trial,survey-html-form,15,88572,0.0-4.0-1.5,244,1,2025-05-06T15:22:46Z,b60275e29fe2361ab97ac0ac217840d7,"Mozilla/5.0 (Windows NT 10.0; Win64; x64) AppleWebKit/537.36 (KHTML, like Gecko) Chrome/122.0.0.0 Safari/537.36",WebKit,Chrome,122.0.0.0,Windows,10,https://5puzkbbxv1.cognition.run/?sona_id=57579,"en-US,en;q=0.9",q0xkyu3vn3mglvr,22,"[""White""]",No,Male,NA,No,443034.8999999999,NA,3646,NA,"{""product_choice"":""B""}",choice,ct,binary,repulsion,2,microwave ovens,null,null,null,null,null,null,1,30,40,null,100,90,null,Warranty,Cooking power,NA,NA
NA,NA,NA,NA,NA,choice_trial_setup,html-keyboard-response,16,88875,0.0-4.0-0.6,244,1,2025-05-06T15:22:46Z,b60275e29fe2361ab97ac0ac217840d7,"Mozilla/5.0 (Windows NT 10.0; Win64; x64) AppleWebKit/537.36 (KHTML, like Gecko) Chrome/122.0.0.0 Safari/537.36",WebKit,Chrome,122.0.0.0,Windows,10,https://5puzkbbxv1.cognition.run/?sona_id=57579,"en-US,en;q=0.9",q0xkyu3vn3mglvr,22,"[""White""]",No,Male,NA,No,443034.8999999999,NA,null,<p></p>,null,choice,wbw,trinary,catch,null,washing machines,60,75,45,5,10,25,2,NA,NA,NA,NA,NA,NA,NA,NA,NA,NA
NA,NA,NA,NA,NA,choice_trial,survey-html-form,17,99942,0.0-4.0-1.6,244,1,2025-05-06T15:22:46Z,b60275e29fe2361ab97ac0ac217840d7,"Mozilla/5.0 (Windows NT 10.0; Win64; x64) AppleWebKit/537.36 (KHTML, like Gecko) Chrome/122.0.0.0 Safari/537.36",WebKit,Chrome,122.0.0.0,Windows,10,https://5puzkbbxv1.cognition.run/?sona_id=57579,"en-US,en;q=0.9",q0xkyu3vn3mglvr,22,"[""White""]",No,Male,NA,No,443034.8999999999,NA,11062,NA,"{""product_choice"":""B""}",choice,wbw,trinary,catch,null,washing machines,60,75,45,5,10,25,2,null,null,null,null,null,null,Average lifespan,Energy savings,NA,NA
NA,NA,NA,NA,NA,choice_trial_setup,html-keyboard-response,18,100244,0.0-4.0-0.7,244,1,2025-05-06T15:22:46Z,b60275e29fe2361ab97ac0ac217840d7,"Mozilla/5.0 (Windows NT 10.0; Win64; x64) AppleWebKit/537.36 (KHTML, like Gecko) Chrome/122.0.0.0 Safari/537.36",WebKit,Chrome,122.0.0.0,Windows,10,https://5puzkbbxv1.cognition.run/?sona_id=57579,"en-US,en;q=0.9",q0xkyu3vn3mglvr,22,"[""White""]",No,Male,NA,No,443034.8999999999,NA,null,<p></p>,null,choice,dtc,trinary,repulsion_B,1,laptops,null,null,null,null,null,null,1,NA,NA,NA,NA,NA,NA,NA,NA,NA,NA
NA,NA,NA,NA,NA,choice_trial,survey-html-form,19,104502,0.0-4.0-1.7,244,1,2025-05-06T15:22:46Z,b60275e29fe2361ab97ac0ac217840d7,"Mozilla/5.0 (Windows NT 10.0; Win64; x64) AppleWebKit/537.36 (KHTML, like Gecko) Chrome/122.0.0.0 Safari/537.36",WebKit,Chrome,122.0.0.0,Windows,10,https://5puzkbbxv1.cognition.run/?sona_id=57579,"en-US,en;q=0.9",q0xkyu3vn3mglvr,22,"[""White""]",No,Male,NA,No,443034.8999999999,NA,4254,NA,"{""product_choice"":""B""}",choice,dtc,trinary,repulsion_B,1,laptops,null,null,null,null,null,null,1,90,100,80,40,30,40,Processing speed,Memory (RAM),NA,NA
NA,NA,NA,NA,NA,choice_trial_setup,html-keyboard-response,20,104804,0.0-4.0-0.8,244,1,2025-05-06T15:22:46Z,b60275e29fe2361ab97ac0ac217840d7,"Mozilla/5.0 (Windows NT 10.0; Win64; x64) AppleWebKit/537.36 (KHTML, like Gecko) Chrome/122.0.0.0 Safari/537.36",WebKit,Chrome,122.0.0.0,Windows,10,https://5puzkbbxv1.cognition.run/?sona_id=57579,"en-US,en;q=0.9",q0xkyu3vn3mglvr,22,"[""White""]",No,Male,NA,No,443034.8999999999,NA,null,<p></p>,null,choice,ctd,trinary,repulsion_A,1,microwave ovens,null,null,null,null,null,null,1,NA,NA,NA,NA,NA,NA,NA,NA,NA,NA
NA,NA,NA,NA,NA,choice_trial,survey-html-form,21,110293,0.0-4.0-1.8,244,1,2025-05-06T15:22:46Z,b60275e29fe2361ab97ac0ac217840d7,"Mozilla/5.0 (Windows NT 10.0; Win64; x64) AppleWebKit/537.36 (KHTML, like Gecko) Chrome/122.0.0.0 Safari/537.36",WebKit,Chrome,122.0.0.0,Windows,10,https://5puzkbbxv1.cognition.run/?sona_id=57579,"en-US,en;q=0.9",q0xkyu3vn3mglvr,22,"[""White""]",No,Male,NA,No,443034.8999999999,NA,5486,NA,"{""product_choice"":""B""}",choice,ctd,trinary,repulsion_A,1,microwave ovens,null,null,null,null,null,null,1,100,90,100,30,40,20,Warranty,Cooking power,NA,NA
NA,NA,NA,NA,NA,choice_trial_setup,html-keyboard-response,22,110596,0.0-4.0-0.9,244,1,2025-05-06T15:22:46Z,b60275e29fe2361ab97ac0ac217840d7,"Mozilla/5.0 (Windows NT 10.0; Win64; x64) AppleWebKit/537.36 (KHTML, like Gecko) Chrome/122.0.0.0 Safari/537.36",WebKit,Chrome,122.0.0.0,Windows,10,https://5puzkbbxv1.cognition.run/?sona_id=57579,"en-US,en;q=0.9",q0xkyu3vn3mglvr,22,"[""White""]",No,Male,NA,No,443034.8999999999,NA,null,<p></p>,null,choice,tcd,trinary,attraction,1,microwave ovens,null,null,null,null,null,null,2,NA,NA,NA,NA,NA,NA,NA,NA,NA,NA
NA,NA,NA,NA,NA,choice_trial,survey-html-form,23,120402,0.0-4.0-1.9,244,1,2025-05-06T15:22:46Z,b60275e29fe2361ab97ac0ac217840d7,"Mozilla/5.0 (Windows NT 10.0; Win64; x64) AppleWebKit/537.36 (KHTML, like Gecko) Chrome/122.0.0.0 Safari/537.36",WebKit,Chrome,122.0.0.0,Windows,10,https://5puzkbbxv1.cognition.run/?sona_id=57579,"en-US,en;q=0.9",q0xkyu3vn3mglvr,22,"[""White""]",No,Male,NA,No,443034.8999999999,NA,9803,NA,"{""product_choice"":""B""}",choice,tcd,trinary,attraction,1,microwave ovens,null,null,null,null,null,null,2,60,50,60,50,60,40,Warranty,Cooking power,NA,NA
NA,NA,NA,NA,NA,choice_trial_setup,html-keyboard-response,24,120705,0.0-4.0-0.10,244,1,2025-05-06T15:22:46Z,b60275e29fe2361ab97ac0ac217840d7,"Mozilla/5.0 (Windows NT 10.0; Win64; x64) AppleWebKit/537.36 (KHTML, like Gecko) Chrome/122.0.0.0 Safari/537.36",WebKit,Chrome,122.0.0.0,Windows,10,https://5puzkbbxv1.cognition.run/?sona_id=57579,"en-US,en;q=0.9",q0xkyu3vn3mglvr,22,"[""White""]",No,Male,NA,No,443034.8999999999,NA,null,<p></p>,null,choice,wwb,trinary,catch,null,laptops,85,50,20,10,25,40,1,NA,NA,NA,NA,NA,NA,NA,NA,NA,NA
NA,NA,NA,NA,NA,choice_trial,survey-html-form,25,126114,0.0-4.0-1.10,244,1,2025-05-06T15:22:46Z,b60275e29fe2361ab97ac0ac217840d7,"Mozilla/5.0 (Windows NT 10.0; Win64; x64) AppleWebKit/537.36 (KHTML, like Gecko) Chrome/122.0.0.0 Safari/537.36",WebKit,Chrome,122.0.0.0,Windows,10,https://5puzkbbxv1.cognition.run/?sona_id=57579,"en-US,en;q=0.9",q0xkyu3vn3mglvr,22,"[""White""]",No,Male,NA,No,443034.8999999999,NA,5404,NA,"{""product_choice"":""C""}",choice,wwb,trinary,catch,null,laptops,85,50,20,10,25,40,1,null,null,null,null,null,null,Processing speed,Memory (RAM),NA,NA
NA,NA,NA,NA,NA,choice_trial_setup,html-keyboard-response,26,126416,0.0-4.0-0.11,244,1,2025-05-06T15:22:46Z,b60275e29fe2361ab97ac0ac217840d7,"Mozilla/5.0 (Windows NT 10.0; Win64; x64) AppleWebKit/537.36 (KHTML, like Gecko) Chrome/122.0.0.0 Safari/537.36",WebKit,Chrome,122.0.0.0,Windows,10,https://5puzkbbxv1.cognition.run/?sona_id=57579,"en-US,en;q=0.9",q0xkyu3vn3mglvr,22,"[""White""]",No,Male,NA,No,443034.8999999999,NA,null,<p></p>,null,choice,tdc,trinary,attraction,1,televisions,null,null,null,null,null,null,2,NA,NA,NA,NA,NA,NA,NA,NA,NA,NA
NA,NA,NA,NA,NA,choice_trial,survey-html-form,27,131920,0.0-4.0-1.11,244,1,2025-05-06T15:22:46Z,b60275e29fe2361ab97ac0ac217840d7,"Mozilla/5.0 (Windows NT 10.0; Win64; x64) AppleWebKit/537.36 (KHTML, like Gecko) Chrome/122.0.0.0 Safari/537.36",WebKit,Chrome,122.0.0.0,Windows,10,https://5puzkbbxv1.cognition.run/?sona_id=57579,"en-US,en;q=0.9",q0xkyu3vn3mglvr,22,"[""White""]",No,Male,NA,No,443034.8999999999,NA,5500,NA,"{""product_choice"":""A""}",choice,tdc,trinary,attraction,1,televisions,null,null,null,null,null,null,2,60,50,60,50,60,40,Screen size,Average lifespan,NA,NA
NA,NA,NA,NA,NA,choice_trial_setup,html-keyboard-response,28,132224,0.0-4.0-0.12,244,1,2025-05-06T15:22:46Z,b60275e29fe2361ab97ac0ac217840d7,"Mozilla/5.0 (Windows NT 10.0; Win64; x64) AppleWebKit/537.36 (KHTML, like Gecko) Chrome/122.0.0.0 Safari/537.36",WebKit,Chrome,122.0.0.0,Windows,10,https://5puzkbbxv1.cognition.run/?sona_id=57579,"en-US,en;q=0.9",q0xkyu3vn3mglvr,22,"[""White""]",No,Male,NA,No,443034.8999999999,NA,null,<p></p>,null,choice,dtc,trinary,repulsion_B,2,washing machines,null,null,null,null,null,null,2,NA,NA,NA,NA,NA,NA,NA,NA,NA,NA
NA,NA,NA,NA,NA,choice_trial,survey-html-form,29,137622,0.0-4.0-1.12,244,1,2025-05-06T15:22:46Z,b60275e29fe2361ab97ac0ac217840d7,"Mozilla/5.0 (Windows NT 10.0; Win64; x64) AppleWebKit/537.36 (KHTML, like Gecko) Chrome/122.0.0.0 Safari/537.36",WebKit,Chrome,122.0.0.0,Windows,10,https://5puzkbbxv1.cognition.run/?sona_id=57579,"en-US,en;q=0.9",q0xkyu3vn3mglvr,22,"[""White""]",No,Male,NA,No,443034.8999999999,NA,5396,NA,"{""product_choice"":""B""}",choice,dtc,trinary,repulsion_B,2,washing machines,null,null,null,null,null,null,2,40,30,40,90,100,80,Average lifespan,Energy savings,NA,NA
NA,NA,NA,NA,NA,choice_trial_setup,html-keyboard-response,30,137925,0.0-4.0-0.13,244,1,2025-05-06T15:22:46Z,b60275e29fe2361ab97ac0ac217840d7,"Mozilla/5.0 (Windows NT 10.0; Win64; x64) AppleWebKit/537.36 (KHTML, like Gecko) Chrome/122.0.0.0 Safari/537.36",WebKit,Chrome,122.0.0.0,Windows,10,https://5puzkbbxv1.cognition.run/?sona_id=57579,"en-US,en;q=0.9",q0xkyu3vn3mglvr,22,"[""White""]",No,Male,NA,No,443034.8999999999,NA,null,<p></p>,null,choice,wwb,trinary,catch,null,microwave ovens,80,85,15,10,45,5,2,NA,NA,NA,NA,NA,NA,NA,NA,NA,NA
NA,NA,NA,NA,NA,choice_trial,survey-html-form,31,143894,0.0-4.0-1.13,244,1,2025-05-06T15:22:46Z,b60275e29fe2361ab97ac0ac217840d7,"Mozilla/5.0 (Windows NT 10.0; Win64; x64) AppleWebKit/537.36 (KHTML, like Gecko) Chrome/122.0.0.0 Safari/537.36",WebKit,Chrome,122.0.0.0,Windows,10,https://5puzkbbxv1.cognition.run/?sona_id=57579,"en-US,en;q=0.9",q0xkyu3vn3mglvr,22,"[""White""]",No,Male,NA,No,443034.8999999999,NA,5965,NA,"{""product_choice"":""C""}",choice,wwb,trinary,catch,null,microwave ovens,80,85,15,10,45,5,2,null,null,null,null,null,null,Warranty,Cooking power,NA,NA
NA,NA,NA,NA,NA,choice_trial_setup,html-keyboard-response,32,144197,0.0-4.0-0.14,244,1,2025-05-06T15:22:46Z,b60275e29fe2361ab97ac0ac217840d7,"Mozilla/5.0 (Windows NT 10.0; Win64; x64) AppleWebKit/537.36 (KHTML, like Gecko) Chrome/122.0.0.0 Safari/537.36",WebKit,Chrome,122.0.0.0,Windows,10,https://5puzkbbxv1.cognition.run/?sona_id=57579,"en-US,en;q=0.9",q0xkyu3vn3mglvr,22,"[""White""]",No,Male,NA,No,443034.8999999999,NA,null,<p></p>,null,choice,tc,binary,repulsion,2,washing machines,null,null,null,null,null,null,1,NA,NA,NA,NA,NA,NA,NA,NA,NA,NA
NA,NA,NA,NA,NA,choice_trial,survey-html-form,33,150460,0.0-4.0-1.14,244,1,2025-05-06T15:22:46Z,b60275e29fe2361ab97ac0ac217840d7,"Mozilla/5.0 (Windows NT 10.0; Win64; x64) AppleWebKit/537.36 (KHTML, like Gecko) Chrome/122.0.0.0 Safari/537.36",WebKit,Chrome,122.0.0.0,Windows,10,https://5puzkbbxv1.cognition.run/?sona_id=57579,"en-US,en;q=0.9",q0xkyu3vn3mglvr,22,"[""White""]",No,Male,NA,No,443034.8999999999,NA,6260,NA,"{""product_choice"":""B""}",choice,tc,binary,repulsion,2,washing machines,null,null,null,null,null,null,1,30,40,null,100,90,null,Average lifespan,Energy savings,NA,NA
NA,NA,NA,NA,NA,choice_trial_setup,html-keyboard-response,34,150763,0.0-4.0-0.15,244,1,2025-05-06T15:22:46Z,b60275e29fe2361ab97ac0ac217840d7,"Mozilla/5.0 (Windows NT 10.0; Win64; x64) AppleWebKit/537.36 (KHTML, like Gecko) Chrome/122.0.0.0 Safari/537.36",WebKit,Chrome,122.0.0.0,Windows,10,https://5puzkbbxv1.cognition.run/?sona_id=57579,"en-US,en;q=0.9",q0xkyu3vn3mglvr,22,"[""White""]",No,Male,NA,No,443034.8999999999,NA,null,<p></p>,null,choice,tcd,trinary,repulsion_B,1,televisions,null,null,null,null,null,null,2,NA,NA,NA,NA,NA,NA,NA,NA,NA,NA
NA,NA,NA,NA,NA,choice_trial,survey-html-form,35,157670,0.0-4.0-1.15,244,1,2025-05-06T15:22:46Z,b60275e29fe2361ab97ac0ac217840d7,"Mozilla/5.0 (Windows NT 10.0; Win64; x64) AppleWebKit/537.36 (KHTML, like Gecko) Chrome/122.0.0.0 Safari/537.36",WebKit,Chrome,122.0.0.0,Windows,10,https://5puzkbbxv1.cognition.run/?sona_id=57579,"en-US,en;q=0.9",q0xkyu3vn3mglvr,22,"[""White""]",No,Male,NA,No,443034.8999999999,NA,6904,NA,"{""product_choice"":""A""}",choice,tcd,trinary,repulsion_B,1,televisions,null,null,null,null,null,null,2,90,100,80,40,30,40,Screen size,Average lifespan,NA,NA
NA,NA,NA,NA,NA,choice_trial_setup,html-keyboard-response,36,157973,0.0-4.0-0.16,244,1,2025-05-06T15:22:46Z,b60275e29fe2361ab97ac0ac217840d7,"Mozilla/5.0 (Windows NT 10.0; Win64; x64) AppleWebKit/537.36 (KHTML, like Gecko) Chrome/122.0.0.0 Safari/537.36",WebKit,Chrome,122.0.0.0,Windows,10,https://5puzkbbxv1.cognition.run/?sona_id=57579,"en-US,en;q=0.9",q0xkyu3vn3mglvr,22,"[""White""]",No,Male,NA,No,443034.8999999999,NA,null,<p></p>,null,choice,cdt,trinary,repulsion_B,2,laptops,null,null,null,null,null,null,1,NA,NA,NA,NA,NA,NA,NA,NA,NA,NA
NA,NA,NA,NA,NA,choice_trial,survey-html-form,37,167490,0.0-4.0-1.16,244,1,2025-05-06T15:22:46Z,b60275e29fe2361ab97ac0ac217840d7,"Mozilla/5.0 (Windows NT 10.0; Win64; x64) AppleWebKit/537.36 (KHTML, like Gecko) Chrome/122.0.0.0 Safari/537.36",WebKit,Chrome,122.0.0.0,Windows,10,https://5puzkbbxv1.cognition.run/?sona_id=57579,"en-US,en;q=0.9",q0xkyu3vn3mglvr,22,"[""White""]",No,Male,NA,No,443034.8999999999,NA,9513,NA,"{""product_choice"":""C""}",choice,cdt,trinary,repulsion_B,2,laptops,null,null,null,null,null,null,1,40,30,40,90,100,80,Processing speed,Memory (RAM),NA,NA
NA,NA,NA,NA,NA,choice_trial_setup,html-keyboard-response,38,167793,0.0-4.0-0.17,244,1,2025-05-06T15:22:46Z,b60275e29fe2361ab97ac0ac217840d7,"Mozilla/5.0 (Windows NT 10.0; Win64; x64) AppleWebKit/537.36 (KHTML, like Gecko) Chrome/122.0.0.0 Safari/537.36",WebKit,Chrome,122.0.0.0,Windows,10,https://5puzkbbxv1.cognition.run/?sona_id=57579,"en-US,en;q=0.9",q0xkyu3vn3mglvr,22,"[""White""]",No,Male,NA,No,443034.8999999999,NA,null,<p></p>,null,choice,tcd,trinary,repulsion_A,2,microwave ovens,null,null,null,null,null,null,2,NA,NA,NA,NA,NA,NA,NA,NA,NA,NA
NA,NA,NA,NA,NA,choice_trial,survey-html-form,39,179330,0.0-4.0-1.17,244,1,2025-05-06T15:22:46Z,b60275e29fe2361ab97ac0ac217840d7,"Mozilla/5.0 (Windows NT 10.0; Win64; x64) AppleWebKit/537.36 (KHTML, like Gecko) Chrome/122.0.0.0 Safari/537.36",WebKit,Chrome,122.0.0.0,Windows,10,https://5puzkbbxv1.cognition.run/?sona_id=57579,"en-US,en;q=0.9",q0xkyu3vn3mglvr,22,"[""White""]",No,Male,NA,No,443034.8999999999,NA,11534,NA,"{""product_choice"":""A""}",choice,tcd,trinary,repulsion_A,2,microwave ovens,null,null,null,null,null,null,2,30,40,20,100,90,100,Warranty,Cooking power,NA,NA
NA,NA,NA,NA,NA,choice_trial_setup,html-keyboard-response,40,179633,0.0-4.0-0.18,244,1,2025-05-06T15:22:46Z,b60275e29fe2361ab97ac0ac217840d7,"Mozilla/5.0 (Windows NT 10.0; Win64; x64) AppleWebKit/537.36 (KHTML, like Gecko) Chrome/122.0.0.0 Safari/537.36",WebKit,Chrome,122.0.0.0,Windows,10,https://5puzkbbxv1.cognition.run/?sona_id=57579,"en-US,en;q=0.9",q0xkyu3vn3mglvr,22,"[""White""]",No,Male,NA,No,443034.8999999999,NA,null,<p></p>,null,choice,ct,binary,attraction,NA,televisions,null,null,null,null,null,null,2,NA,NA,NA,NA,NA,NA,NA,NA,NA,NA
NA,NA,NA,NA,NA,choice_trial,survey-html-form,41,188640,0.0-4.0-1.18,244,1,2025-05-06T15:22:46Z,b60275e29fe2361ab97ac0ac217840d7,"Mozilla/5.0 (Windows NT 10.0; Win64; x64) AppleWebKit/537.36 (KHTML, like Gecko) Chrome/122.0.0.0 Safari/537.36",WebKit,Chrome,122.0.0.0,Windows,10,https://5puzkbbxv1.cognition.run/?sona_id=57579,"en-US,en;q=0.9",q0xkyu3vn3mglvr,22,"[""White""]",No,Male,NA,No,443034.8999999999,NA,9005,NA,"{""product_choice"":""A""}",choice,ct,binary,attraction,NA,televisions,null,null,null,null,null,null,2,60,50,null,50,60,null,Screen size,Average lifespan,NA,NA
NA,NA,NA,NA,NA,choice_trial_setup,html-keyboard-response,42,188944,0.0-4.0-0.19,244,1,2025-05-06T15:22:46Z,b60275e29fe2361ab97ac0ac217840d7,"Mozilla/5.0 (Windows NT 10.0; Win64; x64) AppleWebKit/537.36 (KHTML, like Gecko) Chrome/122.0.0.0 Safari/537.36",WebKit,Chrome,122.0.0.0,Windows,10,https://5puzkbbxv1.cognition.run/?sona_id=57579,"en-US,en;q=0.9",q0xkyu3vn3mglvr,22,"[""White""]",No,Male,NA,No,443034.8999999999,NA,null,<p></p>,null,choice,cdt,trinary,repulsion_A,2,washing machines,null,null,null,null,null,null,2,NA,NA,NA,NA,NA,NA,NA,NA,NA,NA
NA,NA,NA,NA,NA,choice_trial,survey-html-form,43,191854,0.0-4.0-1.19,244,1,2025-05-06T15:22:46Z,b60275e29fe2361ab97ac0ac217840d7,"Mozilla/5.0 (Windows NT 10.0; Win64; x64) AppleWebKit/537.36 (KHTML, like Gecko) Chrome/122.0.0.0 Safari/537.36",WebKit,Chrome,122.0.0.0,Windows,10,https://5puzkbbxv1.cognition.run/?sona_id=57579,"en-US,en;q=0.9",q0xkyu3vn3mglvr,22,"[""White""]",No,Male,NA,No,443034.8999999999,NA,2905,NA,"{""product_choice"":""C""}",choice,cdt,trinary,repulsion_A,2,washing machines,null,null,null,null,null,null,2,30,40,20,100,90,100,Average lifespan,Energy savings,NA,NA
NA,NA,NA,NA,NA,choice_trial_setup,html-keyboard-response,44,192157,0.0-4.0-0.20,244,1,2025-05-06T15:22:46Z,b60275e29fe2361ab97ac0ac217840d7,"Mozilla/5.0 (Windows NT 10.0; Win64; x64) AppleWebKit/537.36 (KHTML, like Gecko) Chrome/122.0.0.0 Safari/537.36",WebKit,Chrome,122.0.0.0,Windows,10,https://5puzkbbxv1.cognition.run/?sona_id=57579,"en-US,en;q=0.9",q0xkyu3vn3mglvr,22,"[""White""]",No,Male,NA,No,443034.8999999999,NA,null,<p></p>,null,choice,dtc,trinary,repulsion_B,2,televisions,null,null,null,null,null,null,2,NA,NA,NA,NA,NA,NA,NA,NA,NA,NA
NA,NA,NA,NA,NA,choice_trial,survey-html-form,45,195968,0.0-4.0-1.20,244,1,2025-05-06T15:22:46Z,b60275e29fe2361ab97ac0ac217840d7,"Mozilla/5.0 (Windows NT 10.0; Win64; x64) AppleWebKit/537.36 (KHTML, like Gecko) Chrome/122.0.0.0 Safari/537.36",WebKit,Chrome,122.0.0.0,Windows,10,https://5puzkbbxv1.cognition.run/?sona_id=57579,"en-US,en;q=0.9",q0xkyu3vn3mglvr,22,"[""White""]",No,Male,NA,No,443034.8999999999,NA,3807,NA,"{""product_choice"":""B""}",choice,dtc,trinary,repulsion_B,2,televisions,null,null,null,null,null,null,2,40,30,40,90,100,80,Screen size,Average lifespan,NA,NA
NA,NA,NA,NA,NA,choice_trial_setup,html-keyboard-response,46,196272,0.0-4.0-0.21,244,1,2025-05-06T15:22:46Z,b60275e29fe2361ab97ac0ac217840d7,"Mozilla/5.0 (Windows NT 10.0; Win64; x64) AppleWebKit/537.36 (KHTML, like Gecko) Chrome/122.0.0.0 Safari/537.36",WebKit,Chrome,122.0.0.0,Windows,10,https://5puzkbbxv1.cognition.run/?sona_id=57579,"en-US,en;q=0.9",q0xkyu3vn3mglvr,22,"[""White""]",No,Male,NA,No,443034.8999999999,NA,null,<p></p>,null,choice,dtc,trinary,repulsion_B,2,microwave ovens,null,null,null,null,null,null,1,NA,NA,NA,NA,NA,NA,NA,NA,NA,NA
NA,NA,NA,NA,NA,choice_trial,survey-html-form,47,199972,0.0-4.0-1.21,244,1,2025-05-06T15:22:46Z,b60275e29fe2361ab97ac0ac217840d7,"Mozilla/5.0 (Windows NT 10.0; Win64; x64) AppleWebKit/537.36 (KHTML, like Gecko) Chrome/122.0.0.0 Safari/537.36",WebKit,Chrome,122.0.0.0,Windows,10,https://5puzkbbxv1.cognition.run/?sona_id=57579,"en-US,en;q=0.9",q0xkyu3vn3mglvr,22,"[""White""]",No,Male,NA,No,443034.8999999999,NA,3697,NA,"{""product_choice"":""C""}",choice,dtc,trinary,repulsion_B,2,microwave ovens,null,null,null,null,null,null,1,40,30,40,90,100,80,Warranty,Cooking power,NA,NA
NA,NA,NA,NA,NA,choice_trial_setup,html-keyboard-response,48,200275,0.0-4.0-0.22,244,1,2025-05-06T15:22:46Z,b60275e29fe2361ab97ac0ac217840d7,"Mozilla/5.0 (Windows NT 10.0; Win64; x64) AppleWebKit/537.36 (KHTML, like Gecko) Chrome/122.0.0.0 Safari/537.36",WebKit,Chrome,122.0.0.0,Windows,10,https://5puzkbbxv1.cognition.run/?sona_id=57579,"en-US,en;q=0.9",q0xkyu3vn3mglvr,22,"[""White""]",No,Male,NA,No,443034.8999999999,NA,null,<p></p>,null,choice,tc,binary,repulsion,2,televisions,null,null,null,null,null,null,1,NA,NA,NA,NA,NA,NA,NA,NA,NA,NA
NA,NA,NA,NA,NA,choice_trial,survey-html-form,49,205677,0.0-4.0-1.22,244,1,2025-05-06T15:22:46Z,b60275e29fe2361ab97ac0ac217840d7,"Mozilla/5.0 (Windows NT 10.0; Win64; x64) AppleWebKit/537.36 (KHTML, like Gecko) Chrome/122.0.0.0 Safari/537.36",WebKit,Chrome,122.0.0.0,Windows,10,https://5puzkbbxv1.cognition.run/?sona_id=57579,"en-US,en;q=0.9",q0xkyu3vn3mglvr,22,"[""White""]",No,Male,NA,No,443034.8999999999,NA,5398,NA,"{""product_choice"":""A""}",choice,tc,binary,repulsion,2,televisions,null,null,null,null,null,null,1,30,40,null,100,90,null,Screen size,Average lifespan,NA,NA
NA,NA,NA,NA,NA,choice_trial_setup,html-keyboard-response,50,205981,0.0-4.0-0.23,244,1,2025-05-06T15:22:46Z,b60275e29fe2361ab97ac0ac217840d7,"Mozilla/5.0 (Windows NT 10.0; Win64; x64) AppleWebKit/537.36 (KHTML, like Gecko) Chrome/122.0.0.0 Safari/537.36",WebKit,Chrome,122.0.0.0,Windows,10,https://5puzkbbxv1.cognition.run/?sona_id=57579,"en-US,en;q=0.9",q0xkyu3vn3mglvr,22,"[""White""]",No,Male,NA,No,443034.8999999999,NA,null,<p></p>,null,choice,cdt,trinary,repulsion_A,2,laptops,null,null,null,null,null,null,1,NA,NA,NA,NA,NA,NA,NA,NA,NA,NA
NA,NA,NA,NA,NA,choice_trial,survey-html-form,51,212250,0.0-4.0-1.23,244,1,2025-05-06T15:22:46Z,b60275e29fe2361ab97ac0ac217840d7,"Mozilla/5.0 (Windows NT 10.0; Win64; x64) AppleWebKit/537.36 (KHTML, like Gecko) Chrome/122.0.0.0 Safari/537.36",WebKit,Chrome,122.0.0.0,Windows,10,https://5puzkbbxv1.cognition.run/?sona_id=57579,"en-US,en;q=0.9",q0xkyu3vn3mglvr,22,"[""White""]",No,Male,NA,No,443034.8999999999,NA,6264,NA,"{""product_choice"":""A""}",choice,cdt,trinary,repulsion_A,2,laptops,null,null,null,null,null,null,1,30,40,20,100,90,100,Processing speed,Memory (RAM),NA,NA
NA,NA,NA,NA,NA,choice_trial_setup,html-keyboard-response,52,212554,0.0-4.0-0.24,244,1,2025-05-06T15:22:46Z,b60275e29fe2361ab97ac0ac217840d7,"Mozilla/5.0 (Windows NT 10.0; Win64; x64) AppleWebKit/537.36 (KHTML, like Gecko) Chrome/122.0.0.0 Safari/537.36",WebKit,Chrome,122.0.0.0,Windows,10,https://5puzkbbxv1.cognition.run/?sona_id=57579,"en-US,en;q=0.9",q0xkyu3vn3mglvr,22,"[""White""]",No,Male,NA,No,443034.8999999999,NA,null,<p></p>,null,choice,dct,trinary,repulsion_A,1,televisions,null,null,null,null,null,null,2,NA,NA,NA,NA,NA,NA,NA,NA,NA,NA
NA,NA,NA,NA,NA,choice_trial,survey-html-form,53,239474,0.0-4.0-1.24,244,1,2025-05-06T15:22:46Z,b60275e29fe2361ab97ac0ac217840d7,"Mozilla/5.0 (Windows NT 10.0; Win64; x64) AppleWebKit/537.36 (KHTML, like Gecko) Chrome/122.0.0.0 Safari/537.36",WebKit,Chrome,122.0.0.0,Windows,10,https://5puzkbbxv1.cognition.run/?sona_id=57579,"en-US,en;q=0.9",q0xkyu3vn3mglvr,22,"[""White""]",No,Male,NA,No,443034.8999999999,NA,26916,NA,"{""product_choice"":""B""}",choice,dct,trinary,repulsion_A,1,televisions,null,null,null,null,null,null,2,100,90,100,30,40,20,Screen size,Average lifespan,NA,NA
NA,NA,NA,NA,NA,choice_trial_setup,html-keyboard-response,54,239778,0.0-4.0-0.25,244,1,2025-05-06T15:22:46Z,b60275e29fe2361ab97ac0ac217840d7,"Mozilla/5.0 (Windows NT 10.0; Win64; x64) AppleWebKit/537.36 (KHTML, like Gecko) Chrome/122.0.0.0 Safari/537.36",WebKit,Chrome,122.0.0.0,Windows,10,https://5puzkbbxv1.cognition.run/?sona_id=57579,"en-US,en;q=0.9",q0xkyu3vn3mglvr,22,"[""White""]",No,Male,NA,No,443034.8999999999,NA,null,<p></p>,null,choice,tdc,trinary,attraction,2,washing machines,null,null,null,null,null,null,1,NA,NA,NA,NA,NA,NA,NA,NA,NA,NA
NA,NA,NA,NA,NA,choice_trial,survey-html-form,55,251137,0.0-4.0-1.25,244,1,2025-05-06T15:22:46Z,b60275e29fe2361ab97ac0ac217840d7,"Mozilla/5.0 (Windows NT 10.0; Win64; x64) AppleWebKit/537.36 (KHTML, like Gecko) Chrome/122.0.0.0 Safari/537.36",WebKit,Chrome,122.0.0.0,Windows,10,https://5puzkbbxv1.cognition.run/?sona_id=57579,"en-US,en;q=0.9",q0xkyu3vn3mglvr,22,"[""White""]",No,Male,NA,No,443034.8999999999,NA,11355,NA,"{""product_choice"":""C""}",choice,tdc,trinary,attraction,2,washing machines,null,null,null,null,null,null,1,50,60,40,60,50,60,Average lifespan,Energy savings,NA,NA
NA,NA,NA,NA,NA,choice_trial_setup,html-keyboard-response,56,251442,0.0-4.0-0.26,244,1,2025-05-06T15:22:46Z,b60275e29fe2361ab97ac0ac217840d7,"Mozilla/5.0 (Windows NT 10.0; Win64; x64) AppleWebKit/537.36 (KHTML, like Gecko) Chrome/122.0.0.0 Safari/537.36",WebKit,Chrome,122.0.0.0,Windows,10,https://5puzkbbxv1.cognition.run/?sona_id=57579,"en-US,en;q=0.9",q0xkyu3vn3mglvr,22,"[""White""]",No,Male,NA,No,443034.8999999999,NA,null,<p></p>,null,choice,tc,binary,repulsion,2,laptops,null,null,null,null,null,null,2,NA,NA,NA,NA,NA,NA,NA,NA,NA,NA
NA,NA,NA,NA,NA,choice_trial,survey-html-form,57,255163,0.0-4.0-1.26,244,1,2025-05-06T15:22:46Z,b60275e29fe2361ab97ac0ac217840d7,"Mozilla/5.0 (Windows NT 10.0; Win64; x64) AppleWebKit/537.36 (KHTML, like Gecko) Chrome/122.0.0.0 Safari/537.36",WebKit,Chrome,122.0.0.0,Windows,10,https://5puzkbbxv1.cognition.run/?sona_id=57579,"en-US,en;q=0.9",q0xkyu3vn3mglvr,22,"[""White""]",No,Male,NA,No,443034.8999999999,NA,3718,NA,"{""product_choice"":""B""}",choice,tc,binary,repulsion,2,laptops,null,null,null,null,null,null,2,30,40,null,100,90,null,Processing speed,Memory (RAM),NA,NA
NA,NA,NA,NA,NA,choice_trial_setup,html-keyboard-response,58,255467,0.0-4.0-0.27,244,1,2025-05-06T15:22:46Z,b60275e29fe2361ab97ac0ac217840d7,"Mozilla/5.0 (Windows NT 10.0; Win64; x64) AppleWebKit/537.36 (KHTML, like Gecko) Chrome/122.0.0.0 Safari/537.36",WebKit,Chrome,122.0.0.0,Windows,10,https://5puzkbbxv1.cognition.run/?sona_id=57579,"en-US,en;q=0.9",q0xkyu3vn3mglvr,22,"[""White""]",No,Male,NA,No,443034.8999999999,NA,null,<p></p>,null,choice,tdc,trinary,attraction,1,washing machines,null,null,null,null,null,null,2,NA,NA,NA,NA,NA,NA,NA,NA,NA,NA
NA,NA,NA,NA,NA,choice_trial,survey-html-form,59,260938,0.0-4.0-1.27,244,1,2025-05-06T15:22:46Z,b60275e29fe2361ab97ac0ac217840d7,"Mozilla/5.0 (Windows NT 10.0; Win64; x64) AppleWebKit/537.36 (KHTML, like Gecko) Chrome/122.0.0.0 Safari/537.36",WebKit,Chrome,122.0.0.0,Windows,10,https://5puzkbbxv1.cognition.run/?sona_id=57579,"en-US,en;q=0.9",q0xkyu3vn3mglvr,22,"[""White""]",No,Male,NA,No,443034.8999999999,NA,5466,NA,"{""product_choice"":""A""}",choice,tdc,trinary,attraction,1,washing machines,null,null,null,null,null,null,2,60,50,60,50,60,40,Average lifespan,Energy savings,NA,NA
NA,NA,NA,NA,NA,choice_trial_setup,html-keyboard-response,60,261243,0.0-4.0-0.28,244,1,2025-05-06T15:22:46Z,b60275e29fe2361ab97ac0ac217840d7,"Mozilla/5.0 (Windows NT 10.0; Win64; x64) AppleWebKit/537.36 (KHTML, like Gecko) Chrome/122.0.0.0 Safari/537.36",WebKit,Chrome,122.0.0.0,Windows,10,https://5puzkbbxv1.cognition.run/?sona_id=57579,"en-US,en;q=0.9",q0xkyu3vn3mglvr,22,"[""White""]",No,Male,NA,No,443034.8999999999,NA,null,<p></p>,null,choice,tdc,trinary,attraction,2,microwave ovens,null,null,null,null,null,null,2,NA,NA,NA,NA,NA,NA,NA,NA,NA,NA
NA,NA,NA,NA,NA,choice_trial,survey-html-form,61,264002,0.0-4.0-1.28,244,1,2025-05-06T15:22:46Z,b60275e29fe2361ab97ac0ac217840d7,"Mozilla/5.0 (Windows NT 10.0; Win64; x64) AppleWebKit/537.36 (KHTML, like Gecko) Chrome/122.0.0.0 Safari/537.36",WebKit,Chrome,122.0.0.0,Windows,10,https://5puzkbbxv1.cognition.run/?sona_id=57579,"en-US,en;q=0.9",q0xkyu3vn3mglvr,22,"[""White""]",No,Male,NA,No,443034.8999999999,NA,2755,NA,"{""product_choice"":""A""}",choice,tdc,trinary,attraction,2,microwave ovens,null,null,null,null,null,null,2,50,60,40,60,50,60,Warranty,Cooking power,NA,NA
NA,NA,NA,NA,NA,choice_trial_setup,html-keyboard-response,62,264306,0.0-4.0-0.29,244,1,2025-05-06T15:22:46Z,b60275e29fe2361ab97ac0ac217840d7,"Mozilla/5.0 (Windows NT 10.0; Win64; x64) AppleWebKit/537.36 (KHTML, like Gecko) Chrome/122.0.0.0 Safari/537.36",WebKit,Chrome,122.0.0.0,Windows,10,https://5puzkbbxv1.cognition.run/?sona_id=57579,"en-US,en;q=0.9",q0xkyu3vn3mglvr,22,"[""White""]",No,Male,NA,No,443034.8999999999,NA,null,<p></p>,null,choice,ctd,trinary,repulsion_A,1,laptops,null,null,null,null,null,null,2,NA,NA,NA,NA,NA,NA,NA,NA,NA,NA
NA,NA,NA,NA,NA,choice_trial,survey-html-form,63,268140,0.0-4.0-1.29,244,1,2025-05-06T15:22:46Z,b60275e29fe2361ab97ac0ac217840d7,"Mozilla/5.0 (Windows NT 10.0; Win64; x64) AppleWebKit/537.36 (KHTML, like Gecko) Chrome/122.0.0.0 Safari/537.36",WebKit,Chrome,122.0.0.0,Windows,10,https://5puzkbbxv1.cognition.run/?sona_id=57579,"en-US,en;q=0.9",q0xkyu3vn3mglvr,22,"[""White""]",No,Male,NA,No,443034.8999999999,NA,3829,NA,"{""product_choice"":""B""}",choice,ctd,trinary,repulsion_A,1,laptops,null,null,null,null,null,null,2,100,90,100,30,40,20,Processing speed,Memory (RAM),NA,NA
NA,NA,NA,NA,NA,choice_trial_setup,html-keyboard-response,64,268443,0.0-4.0-0.30,244,1,2025-05-06T15:22:46Z,b60275e29fe2361ab97ac0ac217840d7,"Mozilla/5.0 (Windows NT 10.0; Win64; x64) AppleWebKit/537.36 (KHTML, like Gecko) Chrome/122.0.0.0 Safari/537.36",WebKit,Chrome,122.0.0.0,Windows,10,https://5puzkbbxv1.cognition.run/?sona_id=57579,"en-US,en;q=0.9",q0xkyu3vn3mglvr,22,"[""White""]",No,Male,NA,No,443034.8999999999,NA,null,<p></p>,null,choice,cdt,trinary,repulsion_A,1,washing machines,null,null,null,null,null,null,2,NA,NA,NA,NA,NA,NA,NA,NA,NA,NA
NA,NA,NA,NA,NA,choice_trial,survey-html-form,65,272098,0.0-4.0-1.30,244,1,2025-05-06T15:22:46Z,b60275e29fe2361ab97ac0ac217840d7,"Mozilla/5.0 (Windows NT 10.0; Win64; x64) AppleWebKit/537.36 (KHTML, like Gecko) Chrome/122.0.0.0 Safari/537.36",WebKit,Chrome,122.0.0.0,Windows,10,https://5puzkbbxv1.cognition.run/?sona_id=57579,"en-US,en;q=0.9",q0xkyu3vn3mglvr,22,"[""White""]",No,Male,NA,No,443034.8999999999,NA,3650,NA,"{""product_choice"":""A""}",choice,cdt,trinary,repulsion_A,1,washing machines,null,null,null,null,null,null,2,100,90,100,30,40,20,Average lifespan,Energy savings,NA,NA
NA,NA,NA,NA,NA,choice_trial_setup,html-keyboard-response,66,272402,0.0-4.0-0.31,244,1,2025-05-06T15:22:46Z,b60275e29fe2361ab97ac0ac217840d7,"Mozilla/5.0 (Windows NT 10.0; Win64; x64) AppleWebKit/537.36 (KHTML, like Gecko) Chrome/122.0.0.0 Safari/537.36",WebKit,Chrome,122.0.0.0,Windows,10,https://5puzkbbxv1.cognition.run/?sona_id=57579,"en-US,en;q=0.9",q0xkyu3vn3mglvr,22,"[""White""]",No,Male,NA,No,443034.8999999999,NA,null,<p></p>,null,choice,wbw,trinary,catch,null,televisions,85,85,15,5,20,40,2,NA,NA,NA,NA,NA,NA,NA,NA,NA,NA
NA,NA,NA,NA,NA,choice_trial,survey-html-form,67,276046,0.0-4.0-1.31,244,1,2025-05-06T15:22:46Z,b60275e29fe2361ab97ac0ac217840d7,"Mozilla/5.0 (Windows NT 10.0; Win64; x64) AppleWebKit/537.36 (KHTML, like Gecko) Chrome/122.0.0.0 Safari/537.36",WebKit,Chrome,122.0.0.0,Windows,10,https://5puzkbbxv1.cognition.run/?sona_id=57579,"en-US,en;q=0.9",q0xkyu3vn3mglvr,22,"[""White""]",No,Male,NA,No,443034.8999999999,NA,3639,NA,"{""product_choice"":""B""}",choice,wbw,trinary,catch,null,televisions,85,85,15,5,20,40,2,null,null,null,null,null,null,Screen size,Average lifespan,NA,NA
NA,NA,NA,NA,NA,choice_trial_setup,html-keyboard-response,68,276350,0.0-4.0-0.32,244,1,2025-05-06T15:22:46Z,b60275e29fe2361ab97ac0ac217840d7,"Mozilla/5.0 (Windows NT 10.0; Win64; x64) AppleWebKit/537.36 (KHTML, like Gecko) Chrome/122.0.0.0 Safari/537.36",WebKit,Chrome,122.0.0.0,Windows,10,https://5puzkbbxv1.cognition.run/?sona_id=57579,"en-US,en;q=0.9",q0xkyu3vn3mglvr,22,"[""White""]",No,Male,NA,No,443034.8999999999,NA,null,<p></p>,null,choice,wb,binary,catch,null,televisions,60,95,20,40,null,null,2,NA,NA,NA,NA,NA,NA,NA,NA,NA,NA
NA,NA,NA,NA,NA,choice_trial,survey-html-form,69,282838,0.0-4.0-1.32,244,1,2025-05-06T15:22:46Z,b60275e29fe2361ab97ac0ac217840d7,"Mozilla/5.0 (Windows NT 10.0; Win64; x64) AppleWebKit/537.36 (KHTML, like Gecko) Chrome/122.0.0.0 Safari/537.36",WebKit,Chrome,122.0.0.0,Windows,10,https://5puzkbbxv1.cognition.run/?sona_id=57579,"en-US,en;q=0.9",q0xkyu3vn3mglvr,22,"[""White""]",No,Male,NA,No,443034.8999999999,NA,6483,NA,"{""product_choice"":""B""}",choice,wb,binary,catch,null,televisions,60,95,20,40,null,null,2,null,null,null,null,null,null,Screen size,Average lifespan,NA,NA
NA,NA,NA,NA,NA,choice_trial_setup,html-keyboard-response,70,283141,0.0-4.0-0.33,244,1,2025-05-06T15:22:46Z,b60275e29fe2361ab97ac0ac217840d7,"Mozilla/5.0 (Windows NT 10.0; Win64; x64) AppleWebKit/537.36 (KHTML, like Gecko) Chrome/122.0.0.0 Safari/537.36",WebKit,Chrome,122.0.0.0,Windows,10,https://5puzkbbxv1.cognition.run/?sona_id=57579,"en-US,en;q=0.9",q0xkyu3vn3mglvr,22,"[""White""]",No,Male,NA,No,443034.8999999999,NA,null,<p></p>,null,choice,ct,binary,repulsion,1,washing machines,null,null,null,null,null,null,1,NA,NA,NA,NA,NA,NA,NA,NA,NA,NA
NA,NA,NA,NA,NA,choice_trial,survey-html-form,71,285448,0.0-4.0-1.33,244,1,2025-05-06T15:22:46Z,b60275e29fe2361ab97ac0ac217840d7,"Mozilla/5.0 (Windows NT 10.0; Win64; x64) AppleWebKit/537.36 (KHTML, like Gecko) Chrome/122.0.0.0 Safari/537.36",WebKit,Chrome,122.0.0.0,Windows,10,https://5puzkbbxv1.cognition.run/?sona_id=57579,"en-US,en;q=0.9",q0xkyu3vn3mglvr,22,"[""White""]",No,Male,NA,No,443034.8999999999,NA,2302,NA,"{""product_choice"":""A""}",choice,ct,binary,repulsion,1,washing machines,null,null,null,null,null,null,1,100,90,null,30,40,null,Average lifespan,Energy savings,NA,NA
NA,NA,NA,NA,NA,choice_trial_setup,html-keyboard-response,72,285753,0.0-4.0-0.34,244,1,2025-05-06T15:22:46Z,b60275e29fe2361ab97ac0ac217840d7,"Mozilla/5.0 (Windows NT 10.0; Win64; x64) AppleWebKit/537.36 (KHTML, like Gecko) Chrome/122.0.0.0 Safari/537.36",WebKit,Chrome,122.0.0.0,Windows,10,https://5puzkbbxv1.cognition.run/?sona_id=57579,"en-US,en;q=0.9",q0xkyu3vn3mglvr,22,"[""White""]",No,Male,NA,No,443034.8999999999,NA,null,<p></p>,null,choice,ctd,trinary,repulsion_A,2,televisions,null,null,null,null,null,null,2,NA,NA,NA,NA,NA,NA,NA,NA,NA,NA
NA,NA,NA,NA,NA,choice_trial,survey-html-form,73,288574,0.0-4.0-1.34,244,1,2025-05-06T15:22:46Z,b60275e29fe2361ab97ac0ac217840d7,"Mozilla/5.0 (Windows NT 10.0; Win64; x64) AppleWebKit/537.36 (KHTML, like Gecko) Chrome/122.0.0.0 Safari/537.36",WebKit,Chrome,122.0.0.0,Windows,10,https://5puzkbbxv1.cognition.run/?sona_id=57579,"en-US,en;q=0.9",q0xkyu3vn3mglvr,22,"[""White""]",No,Male,NA,No,443034.8999999999,NA,2816,NA,"{""product_choice"":""B""}",choice,ctd,trinary,repulsion_A,2,televisions,null,null,null,null,null,null,2,30,40,20,100,90,100,Screen size,Average lifespan,NA,NA
NA,NA,NA,NA,NA,choice_trial_setup,html-keyboard-response,74,288879,0.0-4.0-0.35,244,1,2025-05-06T15:22:46Z,b60275e29fe2361ab97ac0ac217840d7,"Mozilla/5.0 (Windows NT 10.0; Win64; x64) AppleWebKit/537.36 (KHTML, like Gecko) Chrome/122.0.0.0 Safari/537.36",WebKit,Chrome,122.0.0.0,Windows,10,https://5puzkbbxv1.cognition.run/?sona_id=57579,"en-US,en;q=0.9",q0xkyu3vn3mglvr,22,"[""White""]",No,Male,NA,No,443034.8999999999,NA,null,<p></p>,null,choice,bw,binary,catch,null,washing machines,70,50,25,10,null,null,1,NA,NA,NA,NA,NA,NA,NA,NA,NA,NA
NA,NA,NA,NA,NA,choice_trial,survey-html-form,75,291307,0.0-4.0-1.35,244,1,2025-05-06T15:22:46Z,b60275e29fe2361ab97ac0ac217840d7,"Mozilla/5.0 (Windows NT 10.0; Win64; x64) AppleWebKit/537.36 (KHTML, like Gecko) Chrome/122.0.0.0 Safari/537.36",WebKit,Chrome,122.0.0.0,Windows,10,https://5puzkbbxv1.cognition.run/?sona_id=57579,"en-US,en;q=0.9",q0xkyu3vn3mglvr,22,"[""White""]",No,Male,NA,No,443034.8999999999,NA,2423,NA,"{""product_choice"":""A""}",choice,bw,binary,catch,null,washing machines,70,50,25,10,null,null,1,null,null,null,null,null,null,Average lifespan,Energy savings,NA,NA
NA,NA,NA,NA,NA,choice_trial_setup,html-keyboard-response,76,291611,0.0-4.0-0.36,244,1,2025-05-06T15:22:46Z,b60275e29fe2361ab97ac0ac217840d7,"Mozilla/5.0 (Windows NT 10.0; Win64; x64) AppleWebKit/537.36 (KHTML, like Gecko) Chrome/122.0.0.0 Safari/537.36",WebKit,Chrome,122.0.0.0,Windows,10,https://5puzkbbxv1.cognition.run/?sona_id=57579,"en-US,en;q=0.9",q0xkyu3vn3mglvr,22,"[""White""]",No,Male,NA,No,443034.8999999999,NA,null,<p></p>,null,choice,dtc,trinary,attraction,2,televisions,null,null,null,null,null,null,1,NA,NA,NA,NA,NA,NA,NA,NA,NA,NA
NA,NA,NA,NA,NA,choice_trial,survey-html-form,77,294622,0.0-4.0-1.36,244,1,2025-05-06T15:22:46Z,b60275e29fe2361ab97ac0ac217840d7,"Mozilla/5.0 (Windows NT 10.0; Win64; x64) AppleWebKit/537.36 (KHTML, like Gecko) Chrome/122.0.0.0 Safari/537.36",WebKit,Chrome,122.0.0.0,Windows,10,https://5puzkbbxv1.cognition.run/?sona_id=57579,"en-US,en;q=0.9",q0xkyu3vn3mglvr,22,"[""White""]",No,Male,NA,No,443034.8999999999,NA,3005,NA,"{""product_choice"":""B""}",choice,dtc,trinary,attraction,2,televisions,null,null,null,null,null,null,1,50,60,40,60,50,60,Screen size,Average lifespan,NA,NA
NA,NA,NA,NA,NA,choice_trial_setup,html-keyboard-response,78,294928,0.0-4.0-0.37,244,1,2025-05-06T15:22:46Z,b60275e29fe2361ab97ac0ac217840d7,"Mozilla/5.0 (Windows NT 10.0; Win64; x64) AppleWebKit/537.36 (KHTML, like Gecko) Chrome/122.0.0.0 Safari/537.36",WebKit,Chrome,122.0.0.0,Windows,10,https://5puzkbbxv1.cognition.run/?sona_id=57579,"en-US,en;q=0.9",q0xkyu3vn3mglvr,22,"[""White""]",No,Male,NA,No,443034.8999999999,NA,null,<p></p>,null,choice,ct,binary,repulsion,1,televisions,null,null,null,null,null,null,1,NA,NA,NA,NA,NA,NA,NA,NA,NA,NA
NA,NA,NA,NA,NA,choice_trial,survey-html-form,79,298634,0.0-4.0-1.37,244,1,2025-05-06T15:22:46Z,b60275e29fe2361ab97ac0ac217840d7,"Mozilla/5.0 (Windows NT 10.0; Win64; x64) AppleWebKit/537.36 (KHTML, like Gecko) Chrome/122.0.0.0 Safari/537.36",WebKit,Chrome,122.0.0.0,Windows,10,https://5puzkbbxv1.cognition.run/?sona_id=57579,"en-US,en;q=0.9",q0xkyu3vn3mglvr,22,"[""White""]",No,Male,NA,No,443034.8999999999,NA,3701,NA,"{""product_choice"":""A""}",choice,ct,binary,repulsion,1,televisions,null,null,null,null,null,null,1,100,90,null,30,40,null,Screen size,Average lifespan,NA,NA
NA,NA,NA,NA,NA,choice_trial_setup,html-keyboard-response,80,298938,0.0-4.0-0.38,244,1,2025-05-06T15:22:46Z,b60275e29fe2361ab97ac0ac217840d7,"Mozilla/5.0 (Windows NT 10.0; Win64; x64) AppleWebKit/537.36 (KHTML, like Gecko) Chrome/122.0.0.0 Safari/537.36",WebKit,Chrome,122.0.0.0,Windows,10,https://5puzkbbxv1.cognition.run/?sona_id=57579,"en-US,en;q=0.9",q0xkyu3vn3mglvr,22,"[""White""]",No,Male,NA,No,443034.8999999999,NA,null,<p></p>,null,choice,bw,binary,catch,null,microwave ovens,85,60,20,35,null,null,1,NA,NA,NA,NA,NA,NA,NA,NA,NA,NA
NA,NA,NA,NA,NA,choice_trial,survey-html-form,81,303970,0.0-4.0-1.38,244,1,2025-05-06T15:22:46Z,b60275e29fe2361ab97ac0ac217840d7,"Mozilla/5.0 (Windows NT 10.0; Win64; x64) AppleWebKit/537.36 (KHTML, like Gecko) Chrome/122.0.0.0 Safari/537.36",WebKit,Chrome,122.0.0.0,Windows,10,https://5puzkbbxv1.cognition.run/?sona_id=57579,"en-US,en;q=0.9",q0xkyu3vn3mglvr,22,"[""White""]",No,Male,NA,No,443034.8999999999,NA,5026,NA,"{""product_choice"":""A""}",choice,bw,binary,catch,null,microwave ovens,85,60,20,35,null,null,1,null,null,null,null,null,null,Warranty,Cooking power,NA,NA
NA,NA,NA,NA,NA,choice_trial_setup,html-keyboard-response,82,304274,0.0-4.0-0.39,244,1,2025-05-06T15:22:46Z,b60275e29fe2361ab97ac0ac217840d7,"Mozilla/5.0 (Windows NT 10.0; Win64; x64) AppleWebKit/537.36 (KHTML, like Gecko) Chrome/122.0.0.0 Safari/537.36",WebKit,Chrome,122.0.0.0,Windows,10,https://5puzkbbxv1.cognition.run/?sona_id=57579,"en-US,en;q=0.9",q0xkyu3vn3mglvr,22,"[""White""]",No,Male,NA,No,443034.8999999999,NA,null,<p></p>,null,choice,ct,binary,attraction,NA,laptops,null,null,null,null,null,null,2,NA,NA,NA,NA,NA,NA,NA,NA,NA,NA
NA,NA,NA,NA,NA,choice_trial,survey-html-form,83,309862,0.0-4.0-1.39,244,1,2025-05-06T15:22:46Z,b60275e29fe2361ab97ac0ac217840d7,"Mozilla/5.0 (Windows NT 10.0; Win64; x64) AppleWebKit/537.36 (KHTML, like Gecko) Chrome/122.0.0.0 Safari/537.36",WebKit,Chrome,122.0.0.0,Windows,10,https://5puzkbbxv1.cognition.run/?sona_id=57579,"en-US,en;q=0.9",q0xkyu3vn3mglvr,22,"[""White""]",No,Male,NA,No,443034.8999999999,NA,5583,NA,"{""product_choice"":""A""}",choice,ct,binary,attraction,NA,laptops,null,null,null,null,null,null,2,60,50,null,50,60,null,Processing speed,Memory (RAM),NA,NA
NA,NA,NA,NA,NA,choice_trial_setup,html-keyboard-response,84,310166,0.0-4.0-0.40,244,1,2025-05-06T15:22:46Z,b60275e29fe2361ab97ac0ac217840d7,"Mozilla/5.0 (Windows NT 10.0; Win64; x64) AppleWebKit/537.36 (KHTML, like Gecko) Chrome/122.0.0.0 Safari/537.36",WebKit,Chrome,122.0.0.0,Windows,10,https://5puzkbbxv1.cognition.run/?sona_id=57579,"en-US,en;q=0.9",q0xkyu3vn3mglvr,22,"[""White""]",No,Male,NA,No,443034.8999999999,NA,null,<p></p>,null,choice,ctd,trinary,repulsion_B,1,washing machines,null,null,null,null,null,null,2,NA,NA,NA,NA,NA,NA,NA,NA,NA,NA
NA,NA,NA,NA,NA,choice_trial,survey-html-form,85,316060,0.0-4.0-1.40,244,1,2025-05-06T15:22:46Z,b60275e29fe2361ab97ac0ac217840d7,"Mozilla/5.0 (Windows NT 10.0; Win64; x64) AppleWebKit/537.36 (KHTML, like Gecko) Chrome/122.0.0.0 Safari/537.36",WebKit,Chrome,122.0.0.0,Windows,10,https://5puzkbbxv1.cognition.run/?sona_id=57579,"en-US,en;q=0.9",q0xkyu3vn3mglvr,22,"[""White""]",No,Male,NA,No,443034.8999999999,NA,5890,NA,"{""product_choice"":""A""}",choice,ctd,trinary,repulsion_B,1,washing machines,null,null,null,null,null,null,2,90,100,80,40,30,40,Average lifespan,Energy savings,NA,NA
NA,NA,NA,NA,NA,choice_trial_setup,html-keyboard-response,86,316367,0.0-4.0-0.41,244,1,2025-05-06T15:22:46Z,b60275e29fe2361ab97ac0ac217840d7,"Mozilla/5.0 (Windows NT 10.0; Win64; x64) AppleWebKit/537.36 (KHTML, like Gecko) Chrome/122.0.0.0 Safari/537.36",WebKit,Chrome,122.0.0.0,Windows,10,https://5puzkbbxv1.cognition.run/?sona_id=57579,"en-US,en;q=0.9",q0xkyu3vn3mglvr,22,"[""White""]",No,Male,NA,No,443034.8999999999,NA,null,<p></p>,null,choice,ct,binary,attraction,NA,microwave ovens,null,null,null,null,null,null,1,NA,NA,NA,NA,NA,NA,NA,NA,NA,NA
NA,NA,NA,NA,NA,choice_trial,survey-html-form,87,320292,0.0-4.0-1.41,244,1,2025-05-06T15:22:46Z,b60275e29fe2361ab97ac0ac217840d7,"Mozilla/5.0 (Windows NT 10.0; Win64; x64) AppleWebKit/537.36 (KHTML, like Gecko) Chrome/122.0.0.0 Safari/537.36",WebKit,Chrome,122.0.0.0,Windows,10,https://5puzkbbxv1.cognition.run/?sona_id=57579,"en-US,en;q=0.9",q0xkyu3vn3mglvr,22,"[""White""]",No,Male,NA,No,443034.8999999999,NA,3921,NA,"{""product_choice"":""A""}",choice,ct,binary,attraction,NA,microwave ovens,null,null,null,null,null,null,1,60,50,null,50,60,null,Warranty,Cooking power,NA,NA
NA,NA,NA,NA,NA,choice_trial_setup,html-keyboard-response,88,320596,0.0-4.0-0.42,244,1,2025-05-06T15:22:46Z,b60275e29fe2361ab97ac0ac217840d7,"Mozilla/5.0 (Windows NT 10.0; Win64; x64) AppleWebKit/537.36 (KHTML, like Gecko) Chrome/122.0.0.0 Safari/537.36",WebKit,Chrome,122.0.0.0,Windows,10,https://5puzkbbxv1.cognition.run/?sona_id=57579,"en-US,en;q=0.9",q0xkyu3vn3mglvr,22,"[""White""]",No,Male,NA,No,443034.8999999999,NA,null,<p></p>,null,choice,bw,binary,catch,null,laptops,60,50,20,25,null,null,1,NA,NA,NA,NA,NA,NA,NA,NA,NA,NA
NA,NA,NA,NA,NA,choice_trial,survey-html-form,89,326060,0.0-4.0-1.42,244,1,2025-05-06T15:22:46Z,b60275e29fe2361ab97ac0ac217840d7,"Mozilla/5.0 (Windows NT 10.0; Win64; x64) AppleWebKit/537.36 (KHTML, like Gecko) Chrome/122.0.0.0 Safari/537.36",WebKit,Chrome,122.0.0.0,Windows,10,https://5puzkbbxv1.cognition.run/?sona_id=57579,"en-US,en;q=0.9",q0xkyu3vn3mglvr,22,"[""White""]",No,Male,NA,No,443034.8999999999,NA,5457,NA,"{""product_choice"":""A""}",choice,bw,binary,catch,null,laptops,60,50,20,25,null,null,1,null,null,null,null,null,null,Processing speed,Memory (RAM),NA,NA
NA,NA,NA,NA,NA,choice_trial_setup,html-keyboard-response,90,326366,0.0-4.0-0.43,244,1,2025-05-06T15:22:46Z,b60275e29fe2361ab97ac0ac217840d7,"Mozilla/5.0 (Windows NT 10.0; Win64; x64) AppleWebKit/537.36 (KHTML, like Gecko) Chrome/122.0.0.0 Safari/537.36",WebKit,Chrome,122.0.0.0,Windows,10,https://5puzkbbxv1.cognition.run/?sona_id=57579,"en-US,en;q=0.9",q0xkyu3vn3mglvr,22,"[""White""]",No,Male,NA,No,443034.8999999999,NA,null,<p></p>,null,choice,cdt,trinary,attraction,1,laptops,null,null,null,null,null,null,2,NA,NA,NA,NA,NA,NA,NA,NA,NA,NA
NA,NA,NA,NA,NA,choice_trial,survey-html-form,91,330182,0.0-4.0-1.43,244,1,2025-05-06T15:22:46Z,b60275e29fe2361ab97ac0ac217840d7,"Mozilla/5.0 (Windows NT 10.0; Win64; x64) AppleWebKit/537.36 (KHTML, like Gecko) Chrome/122.0.0.0 Safari/537.36",WebKit,Chrome,122.0.0.0,Windows,10,https://5puzkbbxv1.cognition.run/?sona_id=57579,"en-US,en;q=0.9",q0xkyu3vn3mglvr,22,"[""White""]",No,Male,NA,No,443034.8999999999,NA,3812,NA,"{""product_choice"":""C""}",choice,cdt,trinary,attraction,1,laptops,null,null,null,null,null,null,2,60,50,60,50,60,40,Processing speed,Memory (RAM),NA,NA
NA,NA,NA,NA,NA,post_trials_message,html-button-response,92,332344,0.0-5.0,244,1,2025-05-06T15:22:46Z,b60275e29fe2361ab97ac0ac217840d7,"Mozilla/5.0 (Windows NT 10.0; Win64; x64) AppleWebKit/537.36 (KHTML, like Gecko) Chrome/122.0.0.0 Safari/537.36",WebKit,Chrome,122.0.0.0,Windows,10,https://5puzkbbxv1.cognition.run/?sona_id=57579,"en-US,en;q=0.9",q0xkyu3vn3mglvr,22,"[""White""]",No,Male,NA,No,443034.8999999999,NA,2158,<p> <b>Thank you for your patience!</b></p><p>  The study will be done after completing a brief form. </p>,0,NA,NA,NA,NA,NA,NA,NA,NA,NA,NA,NA,NA,NA,NA,NA,NA,NA,NA,NA,NA,NA,NA,NA
NA,NA,NA,NA,NA,survey_message,survey-text,93,394907,0.0-6.0,244,1,2025-05-06T15:22:46Z,b60275e29fe2361ab97ac0ac217840d7,"Mozilla/5.0 (Windows NT 10.0; Win64; x64) AppleWebKit/537.36 (KHTML, like Gecko) Chrome/122.0.0.0 Safari/537.36",WebKit,Chrome,122.0.0.0,Windows,10,https://5puzkbbxv1.cognition.run/?sona_id=57579,"en-US,en;q=0.9",q0xkyu3vn3mglvr,22,"[""White""]",No,Male,NA,No,443034.8999999999,NA,62556,NA,"{""Q0"":""I would stay in line with my previous choices so I was picking similar interests""}",NA,NA,NA,NA,NA,NA,NA,NA,NA,NA,NA,NA,NA,NA,NA,NA,NA,NA,NA,NA,NA,I would stay in line with my previous choices so I was picking similar interests,NA
NA,NA,NA,NA,NA,demo_age,survey-text,94,397171,0.0-7.0,244,1,2025-05-06T15:22:46Z,b60275e29fe2361ab97ac0ac217840d7,"Mozilla/5.0 (Windows NT 10.0; Win64; x64) AppleWebKit/537.36 (KHTML, like Gecko) Chrome/122.0.0.0 Safari/537.36",WebKit,Chrome,122.0.0.0,Windows,10,https://5puzkbbxv1.cognition.run/?sona_id=57579,"en-US,en;q=0.9",q0xkyu3vn3mglvr,22,"[""White""]",No,Male,NA,No,443034.8999999999,NA,2258,NA,"{""Q0"":""22""}",NA,NA,NA,NA,NA,NA,NA,NA,NA,NA,NA,NA,NA,NA,NA,NA,NA,NA,NA,NA,NA,NA,NA
NA,NA,NA,NA,NA,demo_race,survey-multi-select,95,399655,0.0-8.0,244,1,2025-05-06T15:22:46Z,b60275e29fe2361ab97ac0ac217840d7,"Mozilla/5.0 (Windows NT 10.0; Win64; x64) AppleWebKit/537.36 (KHTML, like Gecko) Chrome/122.0.0.0 Safari/537.36",WebKit,Chrome,122.0.0.0,Windows,10,https://5puzkbbxv1.cognition.run/?sona_id=57579,"en-US,en;q=0.9",q0xkyu3vn3mglvr,22,"[""White""]",No,Male,NA,No,443034.8999999999,NA,2477,NA,"{""Q0"":[""White""]}",NA,NA,NA,NA,NA,NA,NA,NA,NA,NA,NA,NA,NA,NA,NA,NA,NA,NA,NA,NA,NA,NA,[0]
NA,NA,NA,NA,NA,demo_ethnicity_gender,survey-multi-choice,96,402813,0.0-9.0,244,1,2025-05-06T15:22:46Z,b60275e29fe2361ab97ac0ac217840d7,"Mozilla/5.0 (Windows NT 10.0; Win64; x64) AppleWebKit/537.36 (KHTML, like Gecko) Chrome/122.0.0.0 Safari/537.36",WebKit,Chrome,122.0.0.0,Windows,10,https://5puzkbbxv1.cognition.run/?sona_id=57579,"en-US,en;q=0.9",q0xkyu3vn3mglvr,22,"[""White""]",No,Male,NA,No,443034.8999999999,NA,3150,NA,"{""Q0"":""No"",""Q1"":""Male""}",NA,NA,NA,NA,NA,NA,NA,NA,NA,NA,NA,NA,NA,NA,NA,NA,NA,NA,NA,NA,NA,NA,"[0,1]"
NA,NA,NA,NA,NA,demo_countries,survey-text,97,408728,0.0-10.0,244,1,2025-05-06T15:22:46Z,b60275e29fe2361ab97ac0ac217840d7,"Mozilla/5.0 (Windows NT 10.0; Win64; x64) AppleWebKit/537.36 (KHTML, like Gecko) Chrome/122.0.0.0 Safari/537.36",WebKit,Chrome,122.0.0.0,Windows,10,https://5puzkbbxv1.cognition.run/?sona_id=57579,"en-US,en;q=0.9",q0xkyu3vn3mglvr,22,"[""White""]",No,Male,NA,No,443034.8999999999,NA,5897,NA,"{""Q0"":""NA""}",NA,NA,NA,NA,NA,NA,NA,NA,NA,NA,NA,NA,NA,NA,NA,NA,NA,NA,NA,NA,NA,NA,NA
NA,NA,NA,NA,NA,demo_prev_study,survey-multi-choice,98,415891,0.0-11.0,244,1,2025-05-06T15:22:46Z,b60275e29fe2361ab97ac0ac217840d7,"Mozilla/5.0 (Windows NT 10.0; Win64; x64) AppleWebKit/537.36 (KHTML, like Gecko) Chrome/122.0.0.0 Safari/537.36",WebKit,Chrome,122.0.0.0,Windows,10,https://5puzkbbxv1.cognition.run/?sona_id=57579,"en-US,en;q=0.9",q0xkyu3vn3mglvr,22,"[""White""]",No,Male,NA,No,443034.8999999999,NA,7157,NA,"{""Q0"":""No""}",NA,NA,NA,NA,NA,NA,NA,NA,NA,NA,NA,NA,NA,NA,NA,NA,NA,NA,NA,NA,NA,NA,[0]
NA,NA,NA,NA,NA,post_survey_message,html-keyboard-response,99,421714,0.0-12.0,244,1,2025-05-06T15:22:46Z,b60275e29fe2361ab97ac0ac217840d7,"Mozilla/5.0 (Windows NT 10.0; Win64; x64) AppleWebKit/537.36 (KHTML, like Gecko) Chrome/122.0.0.0 Safari/537.36",WebKit,Chrome,122.0.0.0,Windows,10,https://5puzkbbxv1.cognition.run/?sona_id=57579,"en-US,en;q=0.9",q0xkyu3vn3mglvr,22,"[""White""]",No,Male,NA,No,443034.8999999999,NA,5817,NA,j,NA,NA,NA,NA,NA,NA,NA,NA,NA,NA,NA,NA,NA,NA,NA,NA,NA,NA,NA,NA,NA,NA,NA
NA,NA,NA,NA,NA,debrief,image-keyboard-response,100,443033,0.0-13.0,244,1,2025-05-06T15:22:46Z,b60275e29fe2361ab97ac0ac217840d7,"Mozilla/5.0 (Windows NT 10.0; Win64; x64) AppleWebKit/537.36 (KHTML, like Gecko) Chrome/122.0.0.0 Safari/537.36",WebKit,Chrome,122.0.0.0,Windows,10,https://5puzkbbxv1.cognition.run/?sona_id=57579,"en-US,en;q=0.9",q0xkyu3vn3mglvr,22,"[""White""]",No,Male,NA,No,443034.8999999999,NA,21315,Judg_choice_debrief.png,p,NA,NA,NA,NA,NA,NA,NA,NA,NA,NA,NA,NA,NA,NA,NA,NA,NA,NA,NA,NA,NA,NA,NA
