success,timeout,failed_images,failed_audio,failed_video,screen_id,trial_type,trial_index,time_elapsed,internal_node_id,run_id,condition,recorded_at,source_code_version,user_agent,device,browser,browser_version,platform,platform_version,referer,accept_language,ppt_id,age,race,ethnicity,gender,other_countries,prev_study,exp_duration,view_history,rt,stimulus,response,phase,order,set,effect,t_high,category,d1_best,d2_best,d1_worst1,d2_worst1,d1_worst2,d2_worst2,first_dim,d1_t,d1_c,d1_d,d2_t,d2_c,d2_d,d1_name,d2_name,strategy_response,question_order
TRUE,FALSE,[],[],[],img preload,preload,0,151,0.0-0.0,247,1,2025-05-06T15:37:55Z,b60275e29fe2361ab97ac0ac217840d7,"Mozilla/5.0 (Macintosh; Intel Mac OS X 10_15_7) AppleWebKit/537.36 (KHTML, like Gecko) Chrome/133.0.0.0 Safari/537.36",Macintosh,Chrome,133.0.0.0,OS X,10_15_7,https://5puzkbbxv1.cognition.run/?sona_id=57530,"en-US,en;q=0.9",0mu088dbbsmj9a8,19,"[""Asian""]",No,Male,N/A,Yes,938940.3999996184,NA,NA,NA,NA,NA,NA,NA,NA,NA,NA,NA,NA,NA,NA,NA,NA,NA,NA,NA,NA,NA,NA,NA,NA,NA,NA,NA
NA,NA,NA,NA,NA,computer_message,instructions,1,3580,0.0-1.0,247,1,2025-05-06T15:37:55Z,b60275e29fe2361ab97ac0ac217840d7,"Mozilla/5.0 (Macintosh; Intel Mac OS X 10_15_7) AppleWebKit/537.36 (KHTML, like Gecko) Chrome/133.0.0.0 Safari/537.36",Macintosh,Chrome,133.0.0.0,OS X,10_15_7,https://5puzkbbxv1.cognition.run/?sona_id=57530,"en-US,en;q=0.9",0mu088dbbsmj9a8,19,"[""Asian""]",No,Male,N/A,Yes,938940.3999996184,"[{""page_index"":0,""viewing_time"":3427}]",3428,NA,NA,NA,NA,NA,NA,NA,NA,NA,NA,NA,NA,NA,NA,NA,NA,NA,NA,NA,NA,NA,NA,NA,NA,NA
TRUE,NA,NA,NA,NA,NA,fullscreen,2,5709,0.0-2.0,247,1,2025-05-06T15:37:55Z,b60275e29fe2361ab97ac0ac217840d7,"Mozilla/5.0 (Macintosh; Intel Mac OS X 10_15_7) AppleWebKit/537.36 (KHTML, like Gecko) Chrome/133.0.0.0 Safari/537.36",Macintosh,Chrome,133.0.0.0,OS X,10_15_7,https://5puzkbbxv1.cognition.run/?sona_id=57530,"en-US,en;q=0.9",0mu088dbbsmj9a8,19,"[""Asian""]",No,Male,N/A,Yes,938940.3999996184,NA,1127,NA,NA,NA,NA,NA,NA,NA,NA,NA,NA,NA,NA,NA,NA,NA,NA,NA,NA,NA,NA,NA,NA,NA,NA,NA
NA,NA,NA,NA,NA,choice_instructions,instructions,3,26206,0.0-3.0,247,1,2025-05-06T15:37:55Z,b60275e29fe2361ab97ac0ac217840d7,"Mozilla/5.0 (Macintosh; Intel Mac OS X 10_15_7) AppleWebKit/537.36 (KHTML, like Gecko) Chrome/133.0.0.0 Safari/537.36",Macintosh,Chrome,133.0.0.0,OS X,10_15_7,https://5puzkbbxv1.cognition.run/?sona_id=57530,"en-US,en;q=0.9",0mu088dbbsmj9a8,19,"[""Asian""]",No,Male,N/A,Yes,938940.3999996184,"[{""page_index"":0,""viewing_time"":1103},{""page_index"":1,""viewing_time"":2190},{""page_index"":2,""viewing_time"":2779},{""page_index"":3,""viewing_time"":1857},{""page_index"":4,""viewing_time"":611},{""page_index"":5,""viewing_time"":7512},{""page_index"":6,""viewing_time"":4444}]",20496,NA,NA,NA,NA,NA,NA,NA,NA,NA,NA,NA,NA,NA,NA,NA,NA,NA,NA,NA,NA,NA,NA,NA,NA,NA
NA,NA,NA,NA,NA,choice_trial_setup,html-keyboard-response,4,26509,0.0-4.0-0.0,247,1,2025-05-06T15:37:55Z,b60275e29fe2361ab97ac0ac217840d7,"Mozilla/5.0 (Macintosh; Intel Mac OS X 10_15_7) AppleWebKit/537.36 (KHTML, like Gecko) Chrome/133.0.0.0 Safari/537.36",Macintosh,Chrome,133.0.0.0,OS X,10_15_7,https://5puzkbbxv1.cognition.run/?sona_id=57530,"en-US,en;q=0.9",0mu088dbbsmj9a8,19,"[""Asian""]",No,Male,N/A,Yes,938940.3999996184,NA,null,<p></p>,null,choice,ct,binary,attraction,NA,washing machines,null,null,null,null,null,null,2,NA,NA,NA,NA,NA,NA,NA,NA,NA,NA
NA,NA,NA,NA,NA,choice_trial,survey-html-form,5,35991,0.0-4.0-1.0,247,1,2025-05-06T15:37:55Z,b60275e29fe2361ab97ac0ac217840d7,"Mozilla/5.0 (Macintosh; Intel Mac OS X 10_15_7) AppleWebKit/537.36 (KHTML, like Gecko) Chrome/133.0.0.0 Safari/537.36",Macintosh,Chrome,133.0.0.0,OS X,10_15_7,https://5puzkbbxv1.cognition.run/?sona_id=57530,"en-US,en;q=0.9",0mu088dbbsmj9a8,19,"[""Asian""]",No,Male,N/A,Yes,938940.3999996184,NA,9477,NA,"{""product_choice"":""B""}",choice,ct,binary,attraction,NA,washing machines,null,null,null,null,null,null,2,60,50,null,50,60,null,Average lifespan,Energy savings,NA,NA
NA,NA,NA,NA,NA,choice_trial_setup,html-keyboard-response,6,36293,0.0-4.0-0.1,247,1,2025-05-06T15:37:55Z,b60275e29fe2361ab97ac0ac217840d7,"Mozilla/5.0 (Macintosh; Intel Mac OS X 10_15_7) AppleWebKit/537.36 (KHTML, like Gecko) Chrome/133.0.0.0 Safari/537.36",Macintosh,Chrome,133.0.0.0,OS X,10_15_7,https://5puzkbbxv1.cognition.run/?sona_id=57530,"en-US,en;q=0.9",0mu088dbbsmj9a8,19,"[""Asian""]",No,Male,N/A,Yes,938940.3999996184,NA,null,<p></p>,null,choice,ct,binary,attraction,NA,microwave ovens,null,null,null,null,null,null,2,NA,NA,NA,NA,NA,NA,NA,NA,NA,NA
NA,NA,NA,NA,NA,choice_trial,survey-html-form,7,44897,0.0-4.0-1.1,247,1,2025-05-06T15:37:55Z,b60275e29fe2361ab97ac0ac217840d7,"Mozilla/5.0 (Macintosh; Intel Mac OS X 10_15_7) AppleWebKit/537.36 (KHTML, like Gecko) Chrome/133.0.0.0 Safari/537.36",Macintosh,Chrome,133.0.0.0,OS X,10_15_7,https://5puzkbbxv1.cognition.run/?sona_id=57530,"en-US,en;q=0.9",0mu088dbbsmj9a8,19,"[""Asian""]",No,Male,N/A,Yes,938940.3999996184,NA,8602,NA,"{""product_choice"":""A""}",choice,ct,binary,attraction,NA,microwave ovens,null,null,null,null,null,null,2,60,50,null,50,60,null,Warranty,Cooking power,NA,NA
NA,NA,NA,NA,NA,choice_trial_setup,html-keyboard-response,8,45201,0.0-4.0-0.2,247,1,2025-05-06T15:37:55Z,b60275e29fe2361ab97ac0ac217840d7,"Mozilla/5.0 (Macintosh; Intel Mac OS X 10_15_7) AppleWebKit/537.36 (KHTML, like Gecko) Chrome/133.0.0.0 Safari/537.36",Macintosh,Chrome,133.0.0.0,OS X,10_15_7,https://5puzkbbxv1.cognition.run/?sona_id=57530,"en-US,en;q=0.9",0mu088dbbsmj9a8,19,"[""Asian""]",No,Male,N/A,Yes,938940.3999996184,NA,null,<p></p>,null,choice,ct,binary,repulsion,2,washing machines,null,null,null,null,null,null,2,NA,NA,NA,NA,NA,NA,NA,NA,NA,NA
NA,NA,NA,NA,NA,choice_trial,survey-html-form,9,63046,0.0-4.0-1.2,247,1,2025-05-06T15:37:55Z,b60275e29fe2361ab97ac0ac217840d7,"Mozilla/5.0 (Macintosh; Intel Mac OS X 10_15_7) AppleWebKit/537.36 (KHTML, like Gecko) Chrome/133.0.0.0 Safari/537.36",Macintosh,Chrome,133.0.0.0,OS X,10_15_7,https://5puzkbbxv1.cognition.run/?sona_id=57530,"en-US,en;q=0.9",0mu088dbbsmj9a8,19,"[""Asian""]",No,Male,N/A,Yes,938940.3999996184,NA,17843,NA,"{""product_choice"":""A""}",choice,ct,binary,repulsion,2,washing machines,null,null,null,null,null,null,2,30,40,null,100,90,null,Average lifespan,Energy savings,NA,NA
NA,NA,NA,NA,NA,choice_trial_setup,html-keyboard-response,10,63349,0.0-4.0-0.3,247,1,2025-05-06T15:37:55Z,b60275e29fe2361ab97ac0ac217840d7,"Mozilla/5.0 (Macintosh; Intel Mac OS X 10_15_7) AppleWebKit/537.36 (KHTML, like Gecko) Chrome/133.0.0.0 Safari/537.36",Macintosh,Chrome,133.0.0.0,OS X,10_15_7,https://5puzkbbxv1.cognition.run/?sona_id=57530,"en-US,en;q=0.9",0mu088dbbsmj9a8,19,"[""Asian""]",No,Male,N/A,Yes,938940.3999996184,NA,null,<p></p>,null,choice,wb,binary,catch,null,televisions,55,80,10,10,null,null,2,NA,NA,NA,NA,NA,NA,NA,NA,NA,NA
NA,NA,NA,NA,NA,choice_trial,survey-html-form,11,98651,0.0-4.0-1.3,247,1,2025-05-06T15:37:55Z,b60275e29fe2361ab97ac0ac217840d7,"Mozilla/5.0 (Macintosh; Intel Mac OS X 10_15_7) AppleWebKit/537.36 (KHTML, like Gecko) Chrome/133.0.0.0 Safari/537.36",Macintosh,Chrome,133.0.0.0,OS X,10_15_7,https://5puzkbbxv1.cognition.run/?sona_id=57530,"en-US,en;q=0.9",0mu088dbbsmj9a8,19,"[""Asian""]",No,Male,N/A,Yes,938940.3999996184,NA,35299,NA,"{""product_choice"":""B""}",choice,wb,binary,catch,null,televisions,55,80,10,10,null,null,2,null,null,null,null,null,null,Screen size,Average lifespan,NA,NA
NA,NA,NA,NA,NA,choice_trial_setup,html-keyboard-response,12,98954,0.0-4.0-0.4,247,1,2025-05-06T15:37:55Z,b60275e29fe2361ab97ac0ac217840d7,"Mozilla/5.0 (Macintosh; Intel Mac OS X 10_15_7) AppleWebKit/537.36 (KHTML, like Gecko) Chrome/133.0.0.0 Safari/537.36",Macintosh,Chrome,133.0.0.0,OS X,10_15_7,https://5puzkbbxv1.cognition.run/?sona_id=57530,"en-US,en;q=0.9",0mu088dbbsmj9a8,19,"[""Asian""]",No,Male,N/A,Yes,938940.3999996184,NA,null,<p></p>,null,choice,wbw,trinary,catch,null,televisions,50,95,30,40,45,40,2,NA,NA,NA,NA,NA,NA,NA,NA,NA,NA
NA,NA,NA,NA,NA,choice_trial,survey-html-form,13,105834,0.0-4.0-1.4,247,1,2025-05-06T15:37:55Z,b60275e29fe2361ab97ac0ac217840d7,"Mozilla/5.0 (Macintosh; Intel Mac OS X 10_15_7) AppleWebKit/537.36 (KHTML, like Gecko) Chrome/133.0.0.0 Safari/537.36",Macintosh,Chrome,133.0.0.0,OS X,10_15_7,https://5puzkbbxv1.cognition.run/?sona_id=57530,"en-US,en;q=0.9",0mu088dbbsmj9a8,19,"[""Asian""]",No,Male,N/A,Yes,938940.3999996184,NA,6878,NA,"{""product_choice"":""B""}",choice,wbw,trinary,catch,null,televisions,50,95,30,40,45,40,2,null,null,null,null,null,null,Screen size,Average lifespan,NA,NA
NA,NA,NA,NA,NA,choice_trial_setup,html-keyboard-response,14,106136,0.0-4.0-0.5,247,1,2025-05-06T15:37:55Z,b60275e29fe2361ab97ac0ac217840d7,"Mozilla/5.0 (Macintosh; Intel Mac OS X 10_15_7) AppleWebKit/537.36 (KHTML, like Gecko) Chrome/133.0.0.0 Safari/537.36",Macintosh,Chrome,133.0.0.0,OS X,10_15_7,https://5puzkbbxv1.cognition.run/?sona_id=57530,"en-US,en;q=0.9",0mu088dbbsmj9a8,19,"[""Asian""]",No,Male,N/A,Yes,938940.3999996184,NA,null,<p></p>,null,choice,wb,binary,catch,null,microwave ovens,80,95,30,45,null,null,2,NA,NA,NA,NA,NA,NA,NA,NA,NA,NA
NA,NA,NA,NA,NA,choice_trial,survey-html-form,15,109949,0.0-4.0-1.5,247,1,2025-05-06T15:37:55Z,b60275e29fe2361ab97ac0ac217840d7,"Mozilla/5.0 (Macintosh; Intel Mac OS X 10_15_7) AppleWebKit/537.36 (KHTML, like Gecko) Chrome/133.0.0.0 Safari/537.36",Macintosh,Chrome,133.0.0.0,OS X,10_15_7,https://5puzkbbxv1.cognition.run/?sona_id=57530,"en-US,en;q=0.9",0mu088dbbsmj9a8,19,"[""Asian""]",No,Male,N/A,Yes,938940.3999996184,NA,3809,NA,"{""product_choice"":""B""}",choice,wb,binary,catch,null,microwave ovens,80,95,30,45,null,null,2,null,null,null,null,null,null,Warranty,Cooking power,NA,NA
NA,NA,NA,NA,NA,choice_trial_setup,html-keyboard-response,16,110250,0.0-4.0-0.6,247,1,2025-05-06T15:37:55Z,b60275e29fe2361ab97ac0ac217840d7,"Mozilla/5.0 (Macintosh; Intel Mac OS X 10_15_7) AppleWebKit/537.36 (KHTML, like Gecko) Chrome/133.0.0.0 Safari/537.36",Macintosh,Chrome,133.0.0.0,OS X,10_15_7,https://5puzkbbxv1.cognition.run/?sona_id=57530,"en-US,en;q=0.9",0mu088dbbsmj9a8,19,"[""Asian""]",No,Male,N/A,Yes,938940.3999996184,NA,null,<p></p>,null,choice,cdt,trinary,repulsion_B,1,microwave ovens,null,null,null,null,null,null,1,NA,NA,NA,NA,NA,NA,NA,NA,NA,NA
NA,NA,NA,NA,NA,choice_trial,survey-html-form,17,116439,0.0-4.0-1.6,247,1,2025-05-06T15:37:55Z,b60275e29fe2361ab97ac0ac217840d7,"Mozilla/5.0 (Macintosh; Intel Mac OS X 10_15_7) AppleWebKit/537.36 (KHTML, like Gecko) Chrome/133.0.0.0 Safari/537.36",Macintosh,Chrome,133.0.0.0,OS X,10_15_7,https://5puzkbbxv1.cognition.run/?sona_id=57530,"en-US,en;q=0.9",0mu088dbbsmj9a8,19,"[""Asian""]",No,Male,N/A,Yes,938940.3999996184,NA,6187,NA,"{""product_choice"":""A""}",choice,cdt,trinary,repulsion_B,1,microwave ovens,null,null,null,null,null,null,1,90,100,80,40,30,40,Warranty,Cooking power,NA,NA
NA,NA,NA,NA,NA,choice_trial_setup,html-keyboard-response,18,116740,0.0-4.0-0.7,247,1,2025-05-06T15:37:55Z,b60275e29fe2361ab97ac0ac217840d7,"Mozilla/5.0 (Macintosh; Intel Mac OS X 10_15_7) AppleWebKit/537.36 (KHTML, like Gecko) Chrome/133.0.0.0 Safari/537.36",Macintosh,Chrome,133.0.0.0,OS X,10_15_7,https://5puzkbbxv1.cognition.run/?sona_id=57530,"en-US,en;q=0.9",0mu088dbbsmj9a8,19,"[""Asian""]",No,Male,N/A,Yes,938940.3999996184,NA,null,<p></p>,null,choice,ctd,trinary,repulsion_B,2,laptops,null,null,null,null,null,null,1,NA,NA,NA,NA,NA,NA,NA,NA,NA,NA
NA,NA,NA,NA,NA,choice_trial,survey-html-form,19,127786,0.0-4.0-1.7,247,1,2025-05-06T15:37:55Z,b60275e29fe2361ab97ac0ac217840d7,"Mozilla/5.0 (Macintosh; Intel Mac OS X 10_15_7) AppleWebKit/537.36 (KHTML, like Gecko) Chrome/133.0.0.0 Safari/537.36",Macintosh,Chrome,133.0.0.0,OS X,10_15_7,https://5puzkbbxv1.cognition.run/?sona_id=57530,"en-US,en;q=0.9",0mu088dbbsmj9a8,19,"[""Asian""]",No,Male,N/A,Yes,938940.3999996184,NA,11044,NA,"{""product_choice"":""B""}",choice,ctd,trinary,repulsion_B,2,laptops,null,null,null,null,null,null,1,40,30,40,90,100,80,Processing speed,Memory (RAM),NA,NA
NA,NA,NA,NA,NA,choice_trial_setup,html-keyboard-response,20,128087,0.0-4.0-0.8,247,1,2025-05-06T15:37:55Z,b60275e29fe2361ab97ac0ac217840d7,"Mozilla/5.0 (Macintosh; Intel Mac OS X 10_15_7) AppleWebKit/537.36 (KHTML, like Gecko) Chrome/133.0.0.0 Safari/537.36",Macintosh,Chrome,133.0.0.0,OS X,10_15_7,https://5puzkbbxv1.cognition.run/?sona_id=57530,"en-US,en;q=0.9",0mu088dbbsmj9a8,19,"[""Asian""]",No,Male,N/A,Yes,938940.3999996184,NA,null,<p></p>,null,choice,wbw,trinary,catch,null,microwave ovens,50,75,35,35,30,35,2,NA,NA,NA,NA,NA,NA,NA,NA,NA,NA
NA,NA,NA,NA,NA,choice_trial,survey-html-form,21,132125,0.0-4.0-1.8,247,1,2025-05-06T15:37:55Z,b60275e29fe2361ab97ac0ac217840d7,"Mozilla/5.0 (Macintosh; Intel Mac OS X 10_15_7) AppleWebKit/537.36 (KHTML, like Gecko) Chrome/133.0.0.0 Safari/537.36",Macintosh,Chrome,133.0.0.0,OS X,10_15_7,https://5puzkbbxv1.cognition.run/?sona_id=57530,"en-US,en;q=0.9",0mu088dbbsmj9a8,19,"[""Asian""]",No,Male,N/A,Yes,938940.3999996184,NA,4037,NA,"{""product_choice"":""B""}",choice,wbw,trinary,catch,null,microwave ovens,50,75,35,35,30,35,2,null,null,null,null,null,null,Warranty,Cooking power,NA,NA
NA,NA,NA,NA,NA,choice_trial_setup,html-keyboard-response,22,132428,0.0-4.0-0.9,247,1,2025-05-06T15:37:55Z,b60275e29fe2361ab97ac0ac217840d7,"Mozilla/5.0 (Macintosh; Intel Mac OS X 10_15_7) AppleWebKit/537.36 (KHTML, like Gecko) Chrome/133.0.0.0 Safari/537.36",Macintosh,Chrome,133.0.0.0,OS X,10_15_7,https://5puzkbbxv1.cognition.run/?sona_id=57530,"en-US,en;q=0.9",0mu088dbbsmj9a8,19,"[""Asian""]",No,Male,N/A,Yes,938940.3999996184,NA,null,<p></p>,null,choice,cdt,trinary,attraction,2,washing machines,null,null,null,null,null,null,2,NA,NA,NA,NA,NA,NA,NA,NA,NA,NA
NA,NA,NA,NA,NA,choice_trial,survey-html-form,23,138355,0.0-4.0-1.9,247,1,2025-05-06T15:37:55Z,b60275e29fe2361ab97ac0ac217840d7,"Mozilla/5.0 (Macintosh; Intel Mac OS X 10_15_7) AppleWebKit/537.36 (KHTML, like Gecko) Chrome/133.0.0.0 Safari/537.36",Macintosh,Chrome,133.0.0.0,OS X,10_15_7,https://5puzkbbxv1.cognition.run/?sona_id=57530,"en-US,en;q=0.9",0mu088dbbsmj9a8,19,"[""Asian""]",No,Male,N/A,Yes,938940.3999996184,NA,5923,NA,"{""product_choice"":""C""}",choice,cdt,trinary,attraction,2,washing machines,null,null,null,null,null,null,2,50,60,40,60,50,60,Average lifespan,Energy savings,NA,NA
NA,NA,NA,NA,NA,choice_trial_setup,html-keyboard-response,24,138657,0.0-4.0-0.10,247,1,2025-05-06T15:37:55Z,b60275e29fe2361ab97ac0ac217840d7,"Mozilla/5.0 (Macintosh; Intel Mac OS X 10_15_7) AppleWebKit/537.36 (KHTML, like Gecko) Chrome/133.0.0.0 Safari/537.36",Macintosh,Chrome,133.0.0.0,OS X,10_15_7,https://5puzkbbxv1.cognition.run/?sona_id=57530,"en-US,en;q=0.9",0mu088dbbsmj9a8,19,"[""Asian""]",No,Male,N/A,Yes,938940.3999996184,NA,null,<p></p>,null,choice,tcd,trinary,attraction,1,washing machines,null,null,null,null,null,null,2,NA,NA,NA,NA,NA,NA,NA,NA,NA,NA
NA,NA,NA,NA,NA,choice_trial,survey-html-form,25,173544,0.0-4.0-1.10,247,1,2025-05-06T15:37:55Z,b60275e29fe2361ab97ac0ac217840d7,"Mozilla/5.0 (Macintosh; Intel Mac OS X 10_15_7) AppleWebKit/537.36 (KHTML, like Gecko) Chrome/133.0.0.0 Safari/537.36",Macintosh,Chrome,133.0.0.0,OS X,10_15_7,https://5puzkbbxv1.cognition.run/?sona_id=57530,"en-US,en;q=0.9",0mu088dbbsmj9a8,19,"[""Asian""]",No,Male,N/A,Yes,938940.3999996184,NA,34884,NA,"{""product_choice"":""A""}",choice,tcd,trinary,attraction,1,washing machines,null,null,null,null,null,null,2,60,50,60,50,60,40,Average lifespan,Energy savings,NA,NA
NA,NA,NA,NA,NA,choice_trial_setup,html-keyboard-response,26,173846,0.0-4.0-0.11,247,1,2025-05-06T15:37:55Z,b60275e29fe2361ab97ac0ac217840d7,"Mozilla/5.0 (Macintosh; Intel Mac OS X 10_15_7) AppleWebKit/537.36 (KHTML, like Gecko) Chrome/133.0.0.0 Safari/537.36",Macintosh,Chrome,133.0.0.0,OS X,10_15_7,https://5puzkbbxv1.cognition.run/?sona_id=57530,"en-US,en;q=0.9",0mu088dbbsmj9a8,19,"[""Asian""]",No,Male,N/A,Yes,938940.3999996184,NA,null,<p></p>,null,choice,ct,binary,attraction,NA,televisions,null,null,null,null,null,null,1,NA,NA,NA,NA,NA,NA,NA,NA,NA,NA
NA,NA,NA,NA,NA,choice_trial,survey-html-form,27,179662,0.0-4.0-1.11,247,1,2025-05-06T15:37:55Z,b60275e29fe2361ab97ac0ac217840d7,"Mozilla/5.0 (Macintosh; Intel Mac OS X 10_15_7) AppleWebKit/537.36 (KHTML, like Gecko) Chrome/133.0.0.0 Safari/537.36",Macintosh,Chrome,133.0.0.0,OS X,10_15_7,https://5puzkbbxv1.cognition.run/?sona_id=57530,"en-US,en;q=0.9",0mu088dbbsmj9a8,19,"[""Asian""]",No,Male,N/A,Yes,938940.3999996184,NA,5816,NA,"{""product_choice"":""A""}",choice,ct,binary,attraction,NA,televisions,null,null,null,null,null,null,1,60,50,null,50,60,null,Screen size,Average lifespan,NA,NA
NA,NA,NA,NA,NA,choice_trial_setup,html-keyboard-response,28,179964,0.0-4.0-0.12,247,1,2025-05-06T15:37:55Z,b60275e29fe2361ab97ac0ac217840d7,"Mozilla/5.0 (Macintosh; Intel Mac OS X 10_15_7) AppleWebKit/537.36 (KHTML, like Gecko) Chrome/133.0.0.0 Safari/537.36",Macintosh,Chrome,133.0.0.0,OS X,10_15_7,https://5puzkbbxv1.cognition.run/?sona_id=57530,"en-US,en;q=0.9",0mu088dbbsmj9a8,19,"[""Asian""]",No,Male,N/A,Yes,938940.3999996184,NA,null,<p></p>,null,choice,tc,binary,repulsion,2,microwave ovens,null,null,null,null,null,null,1,NA,NA,NA,NA,NA,NA,NA,NA,NA,NA
NA,NA,NA,NA,NA,choice_trial,survey-html-form,29,195918,0.0-4.0-1.12,247,1,2025-05-06T15:37:55Z,b60275e29fe2361ab97ac0ac217840d7,"Mozilla/5.0 (Macintosh; Intel Mac OS X 10_15_7) AppleWebKit/537.36 (KHTML, like Gecko) Chrome/133.0.0.0 Safari/537.36",Macintosh,Chrome,133.0.0.0,OS X,10_15_7,https://5puzkbbxv1.cognition.run/?sona_id=57530,"en-US,en;q=0.9",0mu088dbbsmj9a8,19,"[""Asian""]",No,Male,N/A,Yes,938940.3999996184,NA,15953,NA,"{""product_choice"":""A""}",choice,tc,binary,repulsion,2,microwave ovens,null,null,null,null,null,null,1,30,40,null,100,90,null,Warranty,Cooking power,NA,NA
NA,NA,NA,NA,NA,choice_trial_setup,html-keyboard-response,30,196220,0.0-4.0-0.13,247,1,2025-05-06T15:37:55Z,b60275e29fe2361ab97ac0ac217840d7,"Mozilla/5.0 (Macintosh; Intel Mac OS X 10_15_7) AppleWebKit/537.36 (KHTML, like Gecko) Chrome/133.0.0.0 Safari/537.36",Macintosh,Chrome,133.0.0.0,OS X,10_15_7,https://5puzkbbxv1.cognition.run/?sona_id=57530,"en-US,en;q=0.9",0mu088dbbsmj9a8,19,"[""Asian""]",No,Male,N/A,Yes,938940.3999996184,NA,null,<p></p>,null,choice,tcd,trinary,repulsion_B,2,washing machines,null,null,null,null,null,null,2,NA,NA,NA,NA,NA,NA,NA,NA,NA,NA
NA,NA,NA,NA,NA,choice_trial,survey-html-form,31,251698,0.0-4.0-1.13,247,1,2025-05-06T15:37:55Z,b60275e29fe2361ab97ac0ac217840d7,"Mozilla/5.0 (Macintosh; Intel Mac OS X 10_15_7) AppleWebKit/537.36 (KHTML, like Gecko) Chrome/133.0.0.0 Safari/537.36",Macintosh,Chrome,133.0.0.0,OS X,10_15_7,https://5puzkbbxv1.cognition.run/?sona_id=57530,"en-US,en;q=0.9",0mu088dbbsmj9a8,19,"[""Asian""]",No,Male,N/A,Yes,938940.3999996184,NA,55477,NA,"{""product_choice"":""B""}",choice,tcd,trinary,repulsion_B,2,washing machines,null,null,null,null,null,null,2,40,30,40,90,100,80,Average lifespan,Energy savings,NA,NA
NA,NA,NA,NA,NA,choice_trial_setup,html-keyboard-response,32,252000,0.0-4.0-0.14,247,1,2025-05-06T15:37:55Z,b60275e29fe2361ab97ac0ac217840d7,"Mozilla/5.0 (Macintosh; Intel Mac OS X 10_15_7) AppleWebKit/537.36 (KHTML, like Gecko) Chrome/133.0.0.0 Safari/537.36",Macintosh,Chrome,133.0.0.0,OS X,10_15_7,https://5puzkbbxv1.cognition.run/?sona_id=57530,"en-US,en;q=0.9",0mu088dbbsmj9a8,19,"[""Asian""]",No,Male,N/A,Yes,938940.3999996184,NA,null,<p></p>,null,choice,tcd,trinary,repulsion_A,1,televisions,null,null,null,null,null,null,1,NA,NA,NA,NA,NA,NA,NA,NA,NA,NA
NA,NA,NA,NA,NA,choice_trial,survey-html-form,33,262628,0.0-4.0-1.14,247,1,2025-05-06T15:37:55Z,b60275e29fe2361ab97ac0ac217840d7,"Mozilla/5.0 (Macintosh; Intel Mac OS X 10_15_7) AppleWebKit/537.36 (KHTML, like Gecko) Chrome/133.0.0.0 Safari/537.36",Macintosh,Chrome,133.0.0.0,OS X,10_15_7,https://5puzkbbxv1.cognition.run/?sona_id=57530,"en-US,en;q=0.9",0mu088dbbsmj9a8,19,"[""Asian""]",No,Male,N/A,Yes,938940.3999996184,NA,10624,NA,"{""product_choice"":""B""}",choice,tcd,trinary,repulsion_A,1,televisions,null,null,null,null,null,null,1,100,90,100,30,40,20,Screen size,Average lifespan,NA,NA
NA,NA,NA,NA,NA,choice_trial_setup,html-keyboard-response,34,262930,0.0-4.0-0.15,247,1,2025-05-06T15:37:55Z,b60275e29fe2361ab97ac0ac217840d7,"Mozilla/5.0 (Macintosh; Intel Mac OS X 10_15_7) AppleWebKit/537.36 (KHTML, like Gecko) Chrome/133.0.0.0 Safari/537.36",Macintosh,Chrome,133.0.0.0,OS X,10_15_7,https://5puzkbbxv1.cognition.run/?sona_id=57530,"en-US,en;q=0.9",0mu088dbbsmj9a8,19,"[""Asian""]",No,Male,N/A,Yes,938940.3999996184,NA,null,<p></p>,null,choice,tdc,trinary,attraction,1,microwave ovens,null,null,null,null,null,null,2,NA,NA,NA,NA,NA,NA,NA,NA,NA,NA
NA,NA,NA,NA,NA,choice_trial,survey-html-form,35,272557,0.0-4.0-1.15,247,1,2025-05-06T15:37:55Z,b60275e29fe2361ab97ac0ac217840d7,"Mozilla/5.0 (Macintosh; Intel Mac OS X 10_15_7) AppleWebKit/537.36 (KHTML, like Gecko) Chrome/133.0.0.0 Safari/537.36",Macintosh,Chrome,133.0.0.0,OS X,10_15_7,https://5puzkbbxv1.cognition.run/?sona_id=57530,"en-US,en;q=0.9",0mu088dbbsmj9a8,19,"[""Asian""]",No,Male,N/A,Yes,938940.3999996184,NA,9624,NA,"{""product_choice"":""C""}",choice,tdc,trinary,attraction,1,microwave ovens,null,null,null,null,null,null,2,60,50,60,50,60,40,Warranty,Cooking power,NA,NA
NA,NA,NA,NA,NA,choice_trial_setup,html-keyboard-response,36,272859,0.0-4.0-0.16,247,1,2025-05-06T15:37:55Z,b60275e29fe2361ab97ac0ac217840d7,"Mozilla/5.0 (Macintosh; Intel Mac OS X 10_15_7) AppleWebKit/537.36 (KHTML, like Gecko) Chrome/133.0.0.0 Safari/537.36",Macintosh,Chrome,133.0.0.0,OS X,10_15_7,https://5puzkbbxv1.cognition.run/?sona_id=57530,"en-US,en;q=0.9",0mu088dbbsmj9a8,19,"[""Asian""]",No,Male,N/A,Yes,938940.3999996184,NA,null,<p></p>,null,choice,tdc,trinary,repulsion_A,1,washing machines,null,null,null,null,null,null,1,NA,NA,NA,NA,NA,NA,NA,NA,NA,NA
NA,NA,NA,NA,NA,choice_trial,survey-html-form,37,277586,0.0-4.0-1.16,247,1,2025-05-06T15:37:55Z,b60275e29fe2361ab97ac0ac217840d7,"Mozilla/5.0 (Macintosh; Intel Mac OS X 10_15_7) AppleWebKit/537.36 (KHTML, like Gecko) Chrome/133.0.0.0 Safari/537.36",Macintosh,Chrome,133.0.0.0,OS X,10_15_7,https://5puzkbbxv1.cognition.run/?sona_id=57530,"en-US,en;q=0.9",0mu088dbbsmj9a8,19,"[""Asian""]",No,Male,N/A,Yes,938940.3999996184,NA,4723,NA,"{""product_choice"":""A""}",choice,tdc,trinary,repulsion_A,1,washing machines,null,null,null,null,null,null,1,100,90,100,30,40,20,Average lifespan,Energy savings,NA,NA
NA,NA,NA,NA,NA,choice_trial_setup,html-keyboard-response,38,277888,0.0-4.0-0.17,247,1,2025-05-06T15:37:55Z,b60275e29fe2361ab97ac0ac217840d7,"Mozilla/5.0 (Macintosh; Intel Mac OS X 10_15_7) AppleWebKit/537.36 (KHTML, like Gecko) Chrome/133.0.0.0 Safari/537.36",Macintosh,Chrome,133.0.0.0,OS X,10_15_7,https://5puzkbbxv1.cognition.run/?sona_id=57530,"en-US,en;q=0.9",0mu088dbbsmj9a8,19,"[""Asian""]",No,Male,N/A,Yes,938940.3999996184,NA,null,<p></p>,null,choice,cdt,trinary,repulsion_A,2,washing machines,null,null,null,null,null,null,1,NA,NA,NA,NA,NA,NA,NA,NA,NA,NA
NA,NA,NA,NA,NA,choice_trial,survey-html-form,39,286530,0.0-4.0-1.17,247,1,2025-05-06T15:37:55Z,b60275e29fe2361ab97ac0ac217840d7,"Mozilla/5.0 (Macintosh; Intel Mac OS X 10_15_7) AppleWebKit/537.36 (KHTML, like Gecko) Chrome/133.0.0.0 Safari/537.36",Macintosh,Chrome,133.0.0.0,OS X,10_15_7,https://5puzkbbxv1.cognition.run/?sona_id=57530,"en-US,en;q=0.9",0mu088dbbsmj9a8,19,"[""Asian""]",No,Male,N/A,Yes,938940.3999996184,NA,8640,NA,"{""product_choice"":""A""}",choice,cdt,trinary,repulsion_A,2,washing machines,null,null,null,null,null,null,1,30,40,20,100,90,100,Average lifespan,Energy savings,NA,NA
NA,NA,NA,NA,NA,choice_trial_setup,html-keyboard-response,40,286833,0.0-4.0-0.18,247,1,2025-05-06T15:37:55Z,b60275e29fe2361ab97ac0ac217840d7,"Mozilla/5.0 (Macintosh; Intel Mac OS X 10_15_7) AppleWebKit/537.36 (KHTML, like Gecko) Chrome/133.0.0.0 Safari/537.36",Macintosh,Chrome,133.0.0.0,OS X,10_15_7,https://5puzkbbxv1.cognition.run/?sona_id=57530,"en-US,en;q=0.9",0mu088dbbsmj9a8,19,"[""Asian""]",No,Male,N/A,Yes,938940.3999996184,NA,null,<p></p>,null,choice,tdc,trinary,repulsion_A,2,microwave ovens,null,null,null,null,null,null,2,NA,NA,NA,NA,NA,NA,NA,NA,NA,NA
NA,NA,NA,NA,NA,choice_trial,survey-html-form,41,297460,0.0-4.0-1.18,247,1,2025-05-06T15:37:55Z,b60275e29fe2361ab97ac0ac217840d7,"Mozilla/5.0 (Macintosh; Intel Mac OS X 10_15_7) AppleWebKit/537.36 (KHTML, like Gecko) Chrome/133.0.0.0 Safari/537.36",Macintosh,Chrome,133.0.0.0,OS X,10_15_7,https://5puzkbbxv1.cognition.run/?sona_id=57530,"en-US,en;q=0.9",0mu088dbbsmj9a8,19,"[""Asian""]",No,Male,N/A,Yes,938940.3999996184,NA,10623,NA,"{""product_choice"":""A""}",choice,tdc,trinary,repulsion_A,2,microwave ovens,null,null,null,null,null,null,2,30,40,20,100,90,100,Warranty,Cooking power,NA,NA
NA,NA,NA,NA,NA,choice_trial_setup,html-keyboard-response,42,297763,0.0-4.0-0.19,247,1,2025-05-06T15:37:55Z,b60275e29fe2361ab97ac0ac217840d7,"Mozilla/5.0 (Macintosh; Intel Mac OS X 10_15_7) AppleWebKit/537.36 (KHTML, like Gecko) Chrome/133.0.0.0 Safari/537.36",Macintosh,Chrome,133.0.0.0,OS X,10_15_7,https://5puzkbbxv1.cognition.run/?sona_id=57530,"en-US,en;q=0.9",0mu088dbbsmj9a8,19,"[""Asian""]",No,Male,N/A,Yes,938940.3999996184,NA,null,<p></p>,null,choice,tdc,trinary,repulsion_A,2,televisions,null,null,null,null,null,null,2,NA,NA,NA,NA,NA,NA,NA,NA,NA,NA
NA,NA,NA,NA,NA,choice_trial,survey-html-form,43,329758,0.0-4.0-1.19,247,1,2025-05-06T15:37:55Z,b60275e29fe2361ab97ac0ac217840d7,"Mozilla/5.0 (Macintosh; Intel Mac OS X 10_15_7) AppleWebKit/537.36 (KHTML, like Gecko) Chrome/133.0.0.0 Safari/537.36",Macintosh,Chrome,133.0.0.0,OS X,10_15_7,https://5puzkbbxv1.cognition.run/?sona_id=57530,"en-US,en;q=0.9",0mu088dbbsmj9a8,19,"[""Asian""]",No,Male,N/A,Yes,938940.3999996184,NA,31991,NA,"{""product_choice"":""A""}",choice,tdc,trinary,repulsion_A,2,televisions,null,null,null,null,null,null,2,30,40,20,100,90,100,Screen size,Average lifespan,NA,NA
NA,NA,NA,NA,NA,choice_trial_setup,html-keyboard-response,44,330059,0.0-4.0-0.20,247,1,2025-05-06T15:37:55Z,b60275e29fe2361ab97ac0ac217840d7,"Mozilla/5.0 (Macintosh; Intel Mac OS X 10_15_7) AppleWebKit/537.36 (KHTML, like Gecko) Chrome/133.0.0.0 Safari/537.36",Macintosh,Chrome,133.0.0.0,OS X,10_15_7,https://5puzkbbxv1.cognition.run/?sona_id=57530,"en-US,en;q=0.9",0mu088dbbsmj9a8,19,"[""Asian""]",No,Male,N/A,Yes,938940.3999996184,NA,null,<p></p>,null,choice,dct,trinary,repulsion_B,1,washing machines,null,null,null,null,null,null,2,NA,NA,NA,NA,NA,NA,NA,NA,NA,NA
NA,NA,NA,NA,NA,choice_trial,survey-html-form,45,333913,0.0-4.0-1.20,247,1,2025-05-06T15:37:55Z,b60275e29fe2361ab97ac0ac217840d7,"Mozilla/5.0 (Macintosh; Intel Mac OS X 10_15_7) AppleWebKit/537.36 (KHTML, like Gecko) Chrome/133.0.0.0 Safari/537.36",Macintosh,Chrome,133.0.0.0,OS X,10_15_7,https://5puzkbbxv1.cognition.run/?sona_id=57530,"en-US,en;q=0.9",0mu088dbbsmj9a8,19,"[""Asian""]",No,Male,N/A,Yes,938940.3999996184,NA,3852,NA,"{""product_choice"":""B""}",choice,dct,trinary,repulsion_B,1,washing machines,null,null,null,null,null,null,2,90,100,80,40,30,40,Average lifespan,Energy savings,NA,NA
NA,NA,NA,NA,NA,choice_trial_setup,html-keyboard-response,46,334216,0.0-4.0-0.21,247,1,2025-05-06T15:37:55Z,b60275e29fe2361ab97ac0ac217840d7,"Mozilla/5.0 (Macintosh; Intel Mac OS X 10_15_7) AppleWebKit/537.36 (KHTML, like Gecko) Chrome/133.0.0.0 Safari/537.36",Macintosh,Chrome,133.0.0.0,OS X,10_15_7,https://5puzkbbxv1.cognition.run/?sona_id=57530,"en-US,en;q=0.9",0mu088dbbsmj9a8,19,"[""Asian""]",No,Male,N/A,Yes,938940.3999996184,NA,null,<p></p>,null,choice,tdc,trinary,attraction,1,laptops,null,null,null,null,null,null,2,NA,NA,NA,NA,NA,NA,NA,NA,NA,NA
NA,NA,NA,NA,NA,choice_trial,survey-html-form,47,338165,0.0-4.0-1.21,247,1,2025-05-06T15:37:55Z,b60275e29fe2361ab97ac0ac217840d7,"Mozilla/5.0 (Macintosh; Intel Mac OS X 10_15_7) AppleWebKit/537.36 (KHTML, like Gecko) Chrome/133.0.0.0 Safari/537.36",Macintosh,Chrome,133.0.0.0,OS X,10_15_7,https://5puzkbbxv1.cognition.run/?sona_id=57530,"en-US,en;q=0.9",0mu088dbbsmj9a8,19,"[""Asian""]",No,Male,N/A,Yes,938940.3999996184,NA,3945,NA,"{""product_choice"":""C""}",choice,tdc,trinary,attraction,1,laptops,null,null,null,null,null,null,2,60,50,60,50,60,40,Processing speed,Memory (RAM),NA,NA
NA,NA,NA,NA,NA,choice_trial_setup,html-keyboard-response,48,338467,0.0-4.0-0.22,247,1,2025-05-06T15:37:55Z,b60275e29fe2361ab97ac0ac217840d7,"Mozilla/5.0 (Macintosh; Intel Mac OS X 10_15_7) AppleWebKit/537.36 (KHTML, like Gecko) Chrome/133.0.0.0 Safari/537.36",Macintosh,Chrome,133.0.0.0,OS X,10_15_7,https://5puzkbbxv1.cognition.run/?sona_id=57530,"en-US,en;q=0.9",0mu088dbbsmj9a8,19,"[""Asian""]",No,Male,N/A,Yes,938940.3999996184,NA,null,<p></p>,null,choice,ctd,trinary,repulsion_B,2,televisions,null,null,null,null,null,null,2,NA,NA,NA,NA,NA,NA,NA,NA,NA,NA
NA,NA,NA,NA,NA,choice_trial,survey-html-form,49,341841,0.0-4.0-1.22,247,1,2025-05-06T15:37:55Z,b60275e29fe2361ab97ac0ac217840d7,"Mozilla/5.0 (Macintosh; Intel Mac OS X 10_15_7) AppleWebKit/537.36 (KHTML, like Gecko) Chrome/133.0.0.0 Safari/537.36",Macintosh,Chrome,133.0.0.0,OS X,10_15_7,https://5puzkbbxv1.cognition.run/?sona_id=57530,"en-US,en;q=0.9",0mu088dbbsmj9a8,19,"[""Asian""]",No,Male,N/A,Yes,938940.3999996184,NA,3368,NA,"{""product_choice"":""A""}",choice,ctd,trinary,repulsion_B,2,televisions,null,null,null,null,null,null,2,40,30,40,90,100,80,Screen size,Average lifespan,NA,NA
NA,NA,NA,NA,NA,choice_trial_setup,html-keyboard-response,50,342144,0.0-4.0-0.23,247,1,2025-05-06T15:37:55Z,b60275e29fe2361ab97ac0ac217840d7,"Mozilla/5.0 (Macintosh; Intel Mac OS X 10_15_7) AppleWebKit/537.36 (KHTML, like Gecko) Chrome/133.0.0.0 Safari/537.36",Macintosh,Chrome,133.0.0.0,OS X,10_15_7,https://5puzkbbxv1.cognition.run/?sona_id=57530,"en-US,en;q=0.9",0mu088dbbsmj9a8,19,"[""Asian""]",No,Male,N/A,Yes,938940.3999996184,NA,null,<p></p>,null,choice,ct,binary,repulsion,2,laptops,null,null,null,null,null,null,1,NA,NA,NA,NA,NA,NA,NA,NA,NA,NA
NA,NA,NA,NA,NA,choice_trial,survey-html-form,51,345907,0.0-4.0-1.23,247,1,2025-05-06T15:37:55Z,b60275e29fe2361ab97ac0ac217840d7,"Mozilla/5.0 (Macintosh; Intel Mac OS X 10_15_7) AppleWebKit/537.36 (KHTML, like Gecko) Chrome/133.0.0.0 Safari/537.36",Macintosh,Chrome,133.0.0.0,OS X,10_15_7,https://5puzkbbxv1.cognition.run/?sona_id=57530,"en-US,en;q=0.9",0mu088dbbsmj9a8,19,"[""Asian""]",No,Male,N/A,Yes,938940.3999996184,NA,3760,NA,"{""product_choice"":""A""}",choice,ct,binary,repulsion,2,laptops,null,null,null,null,null,null,1,30,40,null,100,90,null,Processing speed,Memory (RAM),NA,NA
NA,NA,NA,NA,NA,choice_trial_setup,html-keyboard-response,52,346209,0.0-4.0-0.24,247,1,2025-05-06T15:37:55Z,b60275e29fe2361ab97ac0ac217840d7,"Mozilla/5.0 (Macintosh; Intel Mac OS X 10_15_7) AppleWebKit/537.36 (KHTML, like Gecko) Chrome/133.0.0.0 Safari/537.36",Macintosh,Chrome,133.0.0.0,OS X,10_15_7,https://5puzkbbxv1.cognition.run/?sona_id=57530,"en-US,en;q=0.9",0mu088dbbsmj9a8,19,"[""Asian""]",No,Male,N/A,Yes,938940.3999996184,NA,null,<p></p>,null,choice,ct,binary,repulsion,2,televisions,null,null,null,null,null,null,1,NA,NA,NA,NA,NA,NA,NA,NA,NA,NA
NA,NA,NA,NA,NA,choice_trial,survey-html-form,53,350143,0.0-4.0-1.24,247,1,2025-05-06T15:37:55Z,b60275e29fe2361ab97ac0ac217840d7,"Mozilla/5.0 (Macintosh; Intel Mac OS X 10_15_7) AppleWebKit/537.36 (KHTML, like Gecko) Chrome/133.0.0.0 Safari/537.36",Macintosh,Chrome,133.0.0.0,OS X,10_15_7,https://5puzkbbxv1.cognition.run/?sona_id=57530,"en-US,en;q=0.9",0mu088dbbsmj9a8,19,"[""Asian""]",No,Male,N/A,Yes,938940.3999996184,NA,3929,NA,"{""product_choice"":""B""}",choice,ct,binary,repulsion,2,televisions,null,null,null,null,null,null,1,30,40,null,100,90,null,Screen size,Average lifespan,NA,NA
NA,NA,NA,NA,NA,choice_trial_setup,html-keyboard-response,54,350446,0.0-4.0-0.25,247,1,2025-05-06T15:37:55Z,b60275e29fe2361ab97ac0ac217840d7,"Mozilla/5.0 (Macintosh; Intel Mac OS X 10_15_7) AppleWebKit/537.36 (KHTML, like Gecko) Chrome/133.0.0.0 Safari/537.36",Macintosh,Chrome,133.0.0.0,OS X,10_15_7,https://5puzkbbxv1.cognition.run/?sona_id=57530,"en-US,en;q=0.9",0mu088dbbsmj9a8,19,"[""Asian""]",No,Male,N/A,Yes,938940.3999996184,NA,null,<p></p>,null,choice,ctd,trinary,attraction,2,microwave ovens,null,null,null,null,null,null,1,NA,NA,NA,NA,NA,NA,NA,NA,NA,NA
NA,NA,NA,NA,NA,choice_trial,survey-html-form,55,355204,0.0-4.0-1.25,247,1,2025-05-06T15:37:55Z,b60275e29fe2361ab97ac0ac217840d7,"Mozilla/5.0 (Macintosh; Intel Mac OS X 10_15_7) AppleWebKit/537.36 (KHTML, like Gecko) Chrome/133.0.0.0 Safari/537.36",Macintosh,Chrome,133.0.0.0,OS X,10_15_7,https://5puzkbbxv1.cognition.run/?sona_id=57530,"en-US,en;q=0.9",0mu088dbbsmj9a8,19,"[""Asian""]",No,Male,N/A,Yes,938940.3999996184,NA,4752,NA,"{""product_choice"":""B""}",choice,ctd,trinary,attraction,2,microwave ovens,null,null,null,null,null,null,1,50,60,40,60,50,60,Warranty,Cooking power,NA,NA
NA,NA,NA,NA,NA,choice_trial_setup,html-keyboard-response,56,355506,0.0-4.0-0.26,247,1,2025-05-06T15:37:55Z,b60275e29fe2361ab97ac0ac217840d7,"Mozilla/5.0 (Macintosh; Intel Mac OS X 10_15_7) AppleWebKit/537.36 (KHTML, like Gecko) Chrome/133.0.0.0 Safari/537.36",Macintosh,Chrome,133.0.0.0,OS X,10_15_7,https://5puzkbbxv1.cognition.run/?sona_id=57530,"en-US,en;q=0.9",0mu088dbbsmj9a8,19,"[""Asian""]",No,Male,N/A,Yes,938940.3999996184,NA,null,<p></p>,null,choice,dtc,trinary,repulsion_A,1,microwave ovens,null,null,null,null,null,null,2,NA,NA,NA,NA,NA,NA,NA,NA,NA,NA
NA,NA,NA,NA,NA,choice_trial,survey-html-form,57,417623,0.0-4.0-1.26,247,1,2025-05-06T15:37:55Z,b60275e29fe2361ab97ac0ac217840d7,"Mozilla/5.0 (Macintosh; Intel Mac OS X 10_15_7) AppleWebKit/537.36 (KHTML, like Gecko) Chrome/133.0.0.0 Safari/537.36",Macintosh,Chrome,133.0.0.0,OS X,10_15_7,https://5puzkbbxv1.cognition.run/?sona_id=57530,"en-US,en;q=0.9",0mu088dbbsmj9a8,19,"[""Asian""]",No,Male,N/A,Yes,938940.3999996184,NA,62113,NA,"{""product_choice"":""C""}",choice,dtc,trinary,repulsion_A,1,microwave ovens,null,null,null,null,null,null,2,100,90,100,30,40,20,Warranty,Cooking power,NA,NA
NA,NA,NA,NA,NA,choice_trial_setup,html-keyboard-response,58,417925,0.0-4.0-0.27,247,1,2025-05-06T15:37:55Z,b60275e29fe2361ab97ac0ac217840d7,"Mozilla/5.0 (Macintosh; Intel Mac OS X 10_15_7) AppleWebKit/537.36 (KHTML, like Gecko) Chrome/133.0.0.0 Safari/537.36",Macintosh,Chrome,133.0.0.0,OS X,10_15_7,https://5puzkbbxv1.cognition.run/?sona_id=57530,"en-US,en;q=0.9",0mu088dbbsmj9a8,19,"[""Asian""]",No,Male,N/A,Yes,938940.3999996184,NA,null,<p></p>,null,choice,wwb,trinary,catch,null,laptops,50,80,5,50,45,35,2,NA,NA,NA,NA,NA,NA,NA,NA,NA,NA
NA,NA,NA,NA,NA,choice_trial,survey-html-form,59,428672,0.0-4.0-1.27,247,1,2025-05-06T15:37:55Z,b60275e29fe2361ab97ac0ac217840d7,"Mozilla/5.0 (Macintosh; Intel Mac OS X 10_15_7) AppleWebKit/537.36 (KHTML, like Gecko) Chrome/133.0.0.0 Safari/537.36",Macintosh,Chrome,133.0.0.0,OS X,10_15_7,https://5puzkbbxv1.cognition.run/?sona_id=57530,"en-US,en;q=0.9",0mu088dbbsmj9a8,19,"[""Asian""]",No,Male,N/A,Yes,938940.3999996184,NA,10743,NA,"{""product_choice"":""C""}",choice,wwb,trinary,catch,null,laptops,50,80,5,50,45,35,2,null,null,null,null,null,null,Processing speed,Memory (RAM),NA,NA
NA,NA,NA,NA,NA,choice_trial_setup,html-keyboard-response,60,428975,0.0-4.0-0.28,247,1,2025-05-06T15:37:55Z,b60275e29fe2361ab97ac0ac217840d7,"Mozilla/5.0 (Macintosh; Intel Mac OS X 10_15_7) AppleWebKit/537.36 (KHTML, like Gecko) Chrome/133.0.0.0 Safari/537.36",Macintosh,Chrome,133.0.0.0,OS X,10_15_7,https://5puzkbbxv1.cognition.run/?sona_id=57530,"en-US,en;q=0.9",0mu088dbbsmj9a8,19,"[""Asian""]",No,Male,N/A,Yes,938940.3999996184,NA,null,<p></p>,null,choice,tdc,trinary,repulsion_B,1,laptops,null,null,null,null,null,null,2,NA,NA,NA,NA,NA,NA,NA,NA,NA,NA
NA,NA,NA,NA,NA,choice_trial,survey-html-form,61,433401,0.0-4.0-1.28,247,1,2025-05-06T15:37:55Z,b60275e29fe2361ab97ac0ac217840d7,"Mozilla/5.0 (Macintosh; Intel Mac OS X 10_15_7) AppleWebKit/537.36 (KHTML, like Gecko) Chrome/133.0.0.0 Safari/537.36",Macintosh,Chrome,133.0.0.0,OS X,10_15_7,https://5puzkbbxv1.cognition.run/?sona_id=57530,"en-US,en;q=0.9",0mu088dbbsmj9a8,19,"[""Asian""]",No,Male,N/A,Yes,938940.3999996184,NA,4421,NA,"{""product_choice"":""C""}",choice,tdc,trinary,repulsion_B,1,laptops,null,null,null,null,null,null,2,90,100,80,40,30,40,Processing speed,Memory (RAM),NA,NA
NA,NA,NA,NA,NA,choice_trial_setup,html-keyboard-response,62,433703,0.0-4.0-0.29,247,1,2025-05-06T15:37:55Z,b60275e29fe2361ab97ac0ac217840d7,"Mozilla/5.0 (Macintosh; Intel Mac OS X 10_15_7) AppleWebKit/537.36 (KHTML, like Gecko) Chrome/133.0.0.0 Safari/537.36",Macintosh,Chrome,133.0.0.0,OS X,10_15_7,https://5puzkbbxv1.cognition.run/?sona_id=57530,"en-US,en;q=0.9",0mu088dbbsmj9a8,19,"[""Asian""]",No,Male,N/A,Yes,938940.3999996184,NA,null,<p></p>,null,choice,tdc,trinary,repulsion_B,2,microwave ovens,null,null,null,null,null,null,2,NA,NA,NA,NA,NA,NA,NA,NA,NA,NA
NA,NA,NA,NA,NA,choice_trial,survey-html-form,63,485024,0.0-4.0-1.29,247,1,2025-05-06T15:37:55Z,b60275e29fe2361ab97ac0ac217840d7,"Mozilla/5.0 (Macintosh; Intel Mac OS X 10_15_7) AppleWebKit/537.36 (KHTML, like Gecko) Chrome/133.0.0.0 Safari/537.36",Macintosh,Chrome,133.0.0.0,OS X,10_15_7,https://5puzkbbxv1.cognition.run/?sona_id=57530,"en-US,en;q=0.9",0mu088dbbsmj9a8,19,"[""Asian""]",No,Male,N/A,Yes,938940.3999996184,NA,51316,NA,"{""product_choice"":""C""}",choice,tdc,trinary,repulsion_B,2,microwave ovens,null,null,null,null,null,null,2,40,30,40,90,100,80,Warranty,Cooking power,NA,NA
NA,NA,NA,NA,NA,choice_trial_setup,html-keyboard-response,64,485327,0.0-4.0-0.30,247,1,2025-05-06T15:37:55Z,b60275e29fe2361ab97ac0ac217840d7,"Mozilla/5.0 (Macintosh; Intel Mac OS X 10_15_7) AppleWebKit/537.36 (KHTML, like Gecko) Chrome/133.0.0.0 Safari/537.36",Macintosh,Chrome,133.0.0.0,OS X,10_15_7,https://5puzkbbxv1.cognition.run/?sona_id=57530,"en-US,en;q=0.9",0mu088dbbsmj9a8,19,"[""Asian""]",No,Male,N/A,Yes,938940.3999996184,NA,null,<p></p>,null,choice,tdc,trinary,attraction,1,televisions,null,null,null,null,null,null,1,NA,NA,NA,NA,NA,NA,NA,NA,NA,NA
NA,NA,NA,NA,NA,choice_trial,survey-html-form,65,501449,0.0-4.0-1.30,247,1,2025-05-06T15:37:55Z,b60275e29fe2361ab97ac0ac217840d7,"Mozilla/5.0 (Macintosh; Intel Mac OS X 10_15_7) AppleWebKit/537.36 (KHTML, like Gecko) Chrome/133.0.0.0 Safari/537.36",Macintosh,Chrome,133.0.0.0,OS X,10_15_7,https://5puzkbbxv1.cognition.run/?sona_id=57530,"en-US,en;q=0.9",0mu088dbbsmj9a8,19,"[""Asian""]",No,Male,N/A,Yes,938940.3999996184,NA,16118,NA,"{""product_choice"":""C""}",choice,tdc,trinary,attraction,1,televisions,null,null,null,null,null,null,1,60,50,60,50,60,40,Screen size,Average lifespan,NA,NA
NA,NA,NA,NA,NA,choice_trial_setup,html-keyboard-response,66,501751,0.0-4.0-0.31,247,1,2025-05-06T15:37:55Z,b60275e29fe2361ab97ac0ac217840d7,"Mozilla/5.0 (Macintosh; Intel Mac OS X 10_15_7) AppleWebKit/537.36 (KHTML, like Gecko) Chrome/133.0.0.0 Safari/537.36",Macintosh,Chrome,133.0.0.0,OS X,10_15_7,https://5puzkbbxv1.cognition.run/?sona_id=57530,"en-US,en;q=0.9",0mu088dbbsmj9a8,19,"[""Asian""]",No,Male,N/A,Yes,938940.3999996184,NA,null,<p></p>,null,choice,tdc,trinary,repulsion_A,2,laptops,null,null,null,null,null,null,1,NA,NA,NA,NA,NA,NA,NA,NA,NA,NA
NA,NA,NA,NA,NA,choice_trial,survey-html-form,67,524026,0.0-4.0-1.31,247,1,2025-05-06T15:37:55Z,b60275e29fe2361ab97ac0ac217840d7,"Mozilla/5.0 (Macintosh; Intel Mac OS X 10_15_7) AppleWebKit/537.36 (KHTML, like Gecko) Chrome/133.0.0.0 Safari/537.36",Macintosh,Chrome,133.0.0.0,OS X,10_15_7,https://5puzkbbxv1.cognition.run/?sona_id=57530,"en-US,en;q=0.9",0mu088dbbsmj9a8,19,"[""Asian""]",No,Male,N/A,Yes,938940.3999996184,NA,22273,NA,"{""product_choice"":""A""}",choice,tdc,trinary,repulsion_A,2,laptops,null,null,null,null,null,null,1,30,40,20,100,90,100,Processing speed,Memory (RAM),NA,NA
NA,NA,NA,NA,NA,choice_trial_setup,html-keyboard-response,68,524329,0.0-4.0-0.32,247,1,2025-05-06T15:37:55Z,b60275e29fe2361ab97ac0ac217840d7,"Mozilla/5.0 (Macintosh; Intel Mac OS X 10_15_7) AppleWebKit/537.36 (KHTML, like Gecko) Chrome/133.0.0.0 Safari/537.36",Macintosh,Chrome,133.0.0.0,OS X,10_15_7,https://5puzkbbxv1.cognition.run/?sona_id=57530,"en-US,en;q=0.9",0mu088dbbsmj9a8,19,"[""Asian""]",No,Male,N/A,Yes,938940.3999996184,NA,null,<p></p>,null,choice,bw,binary,catch,null,laptops,70,80,5,50,null,null,2,NA,NA,NA,NA,NA,NA,NA,NA,NA,NA
NA,NA,NA,NA,NA,choice_trial,survey-html-form,69,564122,0.0-4.0-1.32,247,1,2025-05-06T15:37:55Z,b60275e29fe2361ab97ac0ac217840d7,"Mozilla/5.0 (Macintosh; Intel Mac OS X 10_15_7) AppleWebKit/537.36 (KHTML, like Gecko) Chrome/133.0.0.0 Safari/537.36",Macintosh,Chrome,133.0.0.0,OS X,10_15_7,https://5puzkbbxv1.cognition.run/?sona_id=57530,"en-US,en;q=0.9",0mu088dbbsmj9a8,19,"[""Asian""]",No,Male,N/A,Yes,938940.3999996184,NA,39787,NA,"{""product_choice"":""A""}",choice,bw,binary,catch,null,laptops,70,80,5,50,null,null,2,null,null,null,null,null,null,Processing speed,Memory (RAM),NA,NA
NA,NA,NA,NA,NA,choice_trial_setup,html-keyboard-response,70,564424,0.0-4.0-0.33,247,1,2025-05-06T15:37:55Z,b60275e29fe2361ab97ac0ac217840d7,"Mozilla/5.0 (Macintosh; Intel Mac OS X 10_15_7) AppleWebKit/537.36 (KHTML, like Gecko) Chrome/133.0.0.0 Safari/537.36",Macintosh,Chrome,133.0.0.0,OS X,10_15_7,https://5puzkbbxv1.cognition.run/?sona_id=57530,"en-US,en;q=0.9",0mu088dbbsmj9a8,19,"[""Asian""]",No,Male,N/A,Yes,938940.3999996184,NA,null,<p></p>,null,choice,tc,binary,repulsion,1,laptops,null,null,null,null,null,null,2,NA,NA,NA,NA,NA,NA,NA,NA,NA,NA
NA,NA,NA,NA,NA,choice_trial,survey-html-form,71,579547,0.0-4.0-1.33,247,1,2025-05-06T15:37:55Z,b60275e29fe2361ab97ac0ac217840d7,"Mozilla/5.0 (Macintosh; Intel Mac OS X 10_15_7) AppleWebKit/537.36 (KHTML, like Gecko) Chrome/133.0.0.0 Safari/537.36",Macintosh,Chrome,133.0.0.0,OS X,10_15_7,https://5puzkbbxv1.cognition.run/?sona_id=57530,"en-US,en;q=0.9",0mu088dbbsmj9a8,19,"[""Asian""]",No,Male,N/A,Yes,938940.3999996184,NA,15119,NA,"{""product_choice"":""A""}",choice,tc,binary,repulsion,1,laptops,null,null,null,null,null,null,2,100,90,null,30,40,null,Processing speed,Memory (RAM),NA,NA
NA,NA,NA,NA,NA,choice_trial_setup,html-keyboard-response,72,579850,0.0-4.0-0.34,247,1,2025-05-06T15:37:55Z,b60275e29fe2361ab97ac0ac217840d7,"Mozilla/5.0 (Macintosh; Intel Mac OS X 10_15_7) AppleWebKit/537.36 (KHTML, like Gecko) Chrome/133.0.0.0 Safari/537.36",Macintosh,Chrome,133.0.0.0,OS X,10_15_7,https://5puzkbbxv1.cognition.run/?sona_id=57530,"en-US,en;q=0.9",0mu088dbbsmj9a8,19,"[""Asian""]",No,Male,N/A,Yes,938940.3999996184,NA,null,<p></p>,null,choice,tdc,trinary,attraction,2,televisions,null,null,null,null,null,null,2,NA,NA,NA,NA,NA,NA,NA,NA,NA,NA
NA,NA,NA,NA,NA,choice_trial,survey-html-form,73,587998,0.0-4.0-1.34,247,1,2025-05-06T15:37:55Z,b60275e29fe2361ab97ac0ac217840d7,"Mozilla/5.0 (Macintosh; Intel Mac OS X 10_15_7) AppleWebKit/537.36 (KHTML, like Gecko) Chrome/133.0.0.0 Safari/537.36",Macintosh,Chrome,133.0.0.0,OS X,10_15_7,https://5puzkbbxv1.cognition.run/?sona_id=57530,"en-US,en;q=0.9",0mu088dbbsmj9a8,19,"[""Asian""]",No,Male,N/A,Yes,938940.3999996184,NA,8143,NA,"{""product_choice"":""A""}",choice,tdc,trinary,attraction,2,televisions,null,null,null,null,null,null,2,50,60,40,60,50,60,Screen size,Average lifespan,NA,NA
NA,NA,NA,NA,NA,choice_trial_setup,html-keyboard-response,74,588300,0.0-4.0-0.35,247,1,2025-05-06T15:37:55Z,b60275e29fe2361ab97ac0ac217840d7,"Mozilla/5.0 (Macintosh; Intel Mac OS X 10_15_7) AppleWebKit/537.36 (KHTML, like Gecko) Chrome/133.0.0.0 Safari/537.36",Macintosh,Chrome,133.0.0.0,OS X,10_15_7,https://5puzkbbxv1.cognition.run/?sona_id=57530,"en-US,en;q=0.9",0mu088dbbsmj9a8,19,"[""Asian""]",No,Male,N/A,Yes,938940.3999996184,NA,null,<p></p>,null,choice,wbw,trinary,catch,null,washing machines,60,95,35,10,5,30,2,NA,NA,NA,NA,NA,NA,NA,NA,NA,NA
NA,NA,NA,NA,NA,choice_trial,survey-html-form,75,652141,0.0-4.0-1.35,247,1,2025-05-06T15:37:55Z,b60275e29fe2361ab97ac0ac217840d7,"Mozilla/5.0 (Macintosh; Intel Mac OS X 10_15_7) AppleWebKit/537.36 (KHTML, like Gecko) Chrome/133.0.0.0 Safari/537.36",Macintosh,Chrome,133.0.0.0,OS X,10_15_7,https://5puzkbbxv1.cognition.run/?sona_id=57530,"en-US,en;q=0.9",0mu088dbbsmj9a8,19,"[""Asian""]",No,Male,N/A,Yes,938940.3999996184,NA,63836,NA,"{""product_choice"":""B""}",choice,wbw,trinary,catch,null,washing machines,60,95,35,10,5,30,2,null,null,null,null,null,null,Average lifespan,Energy savings,NA,NA
NA,NA,NA,NA,NA,choice_trial_setup,html-keyboard-response,76,652444,0.0-4.0-0.36,247,1,2025-05-06T15:37:55Z,b60275e29fe2361ab97ac0ac217840d7,"Mozilla/5.0 (Macintosh; Intel Mac OS X 10_15_7) AppleWebKit/537.36 (KHTML, like Gecko) Chrome/133.0.0.0 Safari/537.36",Macintosh,Chrome,133.0.0.0,OS X,10_15_7,https://5puzkbbxv1.cognition.run/?sona_id=57530,"en-US,en;q=0.9",0mu088dbbsmj9a8,19,"[""Asian""]",No,Male,N/A,Yes,938940.3999996184,NA,null,<p></p>,null,choice,ct,binary,repulsion,1,televisions,null,null,null,null,null,null,2,NA,NA,NA,NA,NA,NA,NA,NA,NA,NA
NA,NA,NA,NA,NA,choice_trial,survey-html-form,77,657708,0.0-4.0-1.36,247,1,2025-05-06T15:37:55Z,b60275e29fe2361ab97ac0ac217840d7,"Mozilla/5.0 (Macintosh; Intel Mac OS X 10_15_7) AppleWebKit/537.36 (KHTML, like Gecko) Chrome/133.0.0.0 Safari/537.36",Macintosh,Chrome,133.0.0.0,OS X,10_15_7,https://5puzkbbxv1.cognition.run/?sona_id=57530,"en-US,en;q=0.9",0mu088dbbsmj9a8,19,"[""Asian""]",No,Male,N/A,Yes,938940.3999996184,NA,5262,NA,"{""product_choice"":""A""}",choice,ct,binary,repulsion,1,televisions,null,null,null,null,null,null,2,100,90,null,30,40,null,Screen size,Average lifespan,NA,NA
NA,NA,NA,NA,NA,choice_trial_setup,html-keyboard-response,78,658011,0.0-4.0-0.37,247,1,2025-05-06T15:37:55Z,b60275e29fe2361ab97ac0ac217840d7,"Mozilla/5.0 (Macintosh; Intel Mac OS X 10_15_7) AppleWebKit/537.36 (KHTML, like Gecko) Chrome/133.0.0.0 Safari/537.36",Macintosh,Chrome,133.0.0.0,OS X,10_15_7,https://5puzkbbxv1.cognition.run/?sona_id=57530,"en-US,en;q=0.9",0mu088dbbsmj9a8,19,"[""Asian""]",No,Male,N/A,Yes,938940.3999996184,NA,null,<p></p>,null,choice,ctd,trinary,repulsion_A,1,laptops,null,null,null,null,null,null,2,NA,NA,NA,NA,NA,NA,NA,NA,NA,NA
NA,NA,NA,NA,NA,choice_trial,survey-html-form,79,686631,0.0-4.0-1.37,247,1,2025-05-06T15:37:55Z,b60275e29fe2361ab97ac0ac217840d7,"Mozilla/5.0 (Macintosh; Intel Mac OS X 10_15_7) AppleWebKit/537.36 (KHTML, like Gecko) Chrome/133.0.0.0 Safari/537.36",Macintosh,Chrome,133.0.0.0,OS X,10_15_7,https://5puzkbbxv1.cognition.run/?sona_id=57530,"en-US,en;q=0.9",0mu088dbbsmj9a8,19,"[""Asian""]",No,Male,N/A,Yes,938940.3999996184,NA,28614,NA,"{""product_choice"":""B""}",choice,ctd,trinary,repulsion_A,1,laptops,null,null,null,null,null,null,2,100,90,100,30,40,20,Processing speed,Memory (RAM),NA,NA
NA,NA,NA,NA,NA,choice_trial_setup,html-keyboard-response,80,686935,0.0-4.0-0.38,247,1,2025-05-06T15:37:55Z,b60275e29fe2361ab97ac0ac217840d7,"Mozilla/5.0 (Macintosh; Intel Mac OS X 10_15_7) AppleWebKit/537.36 (KHTML, like Gecko) Chrome/133.0.0.0 Safari/537.36",Macintosh,Chrome,133.0.0.0,OS X,10_15_7,https://5puzkbbxv1.cognition.run/?sona_id=57530,"en-US,en;q=0.9",0mu088dbbsmj9a8,19,"[""Asian""]",No,Male,N/A,Yes,938940.3999996184,NA,null,<p></p>,null,choice,tc,binary,repulsion,1,microwave ovens,null,null,null,null,null,null,1,NA,NA,NA,NA,NA,NA,NA,NA,NA,NA
NA,NA,NA,NA,NA,choice_trial,survey-html-form,81,834458,0.0-4.0-1.38,247,1,2025-05-06T15:37:55Z,b60275e29fe2361ab97ac0ac217840d7,"Mozilla/5.0 (Macintosh; Intel Mac OS X 10_15_7) AppleWebKit/537.36 (KHTML, like Gecko) Chrome/133.0.0.0 Safari/537.36",Macintosh,Chrome,133.0.0.0,OS X,10_15_7,https://5puzkbbxv1.cognition.run/?sona_id=57530,"en-US,en;q=0.9",0mu088dbbsmj9a8,19,"[""Asian""]",No,Male,N/A,Yes,938940.3999996184,NA,147517,NA,"{""product_choice"":""B""}",choice,tc,binary,repulsion,1,microwave ovens,null,null,null,null,null,null,1,100,90,null,30,40,null,Warranty,Cooking power,NA,NA
NA,NA,NA,NA,NA,choice_trial_setup,html-keyboard-response,82,834760,0.0-4.0-0.39,247,1,2025-05-06T15:37:55Z,b60275e29fe2361ab97ac0ac217840d7,"Mozilla/5.0 (Macintosh; Intel Mac OS X 10_15_7) AppleWebKit/537.36 (KHTML, like Gecko) Chrome/133.0.0.0 Safari/537.36",Macintosh,Chrome,133.0.0.0,OS X,10_15_7,https://5puzkbbxv1.cognition.run/?sona_id=57530,"en-US,en;q=0.9",0mu088dbbsmj9a8,19,"[""Asian""]",No,Male,N/A,Yes,938940.3999996184,NA,null,<p></p>,null,choice,ct,binary,repulsion,1,washing machines,null,null,null,null,null,null,2,NA,NA,NA,NA,NA,NA,NA,NA,NA,NA
NA,NA,NA,NA,NA,choice_trial,survey-html-form,83,839342,0.0-4.0-1.39,247,1,2025-05-06T15:37:55Z,b60275e29fe2361ab97ac0ac217840d7,"Mozilla/5.0 (Macintosh; Intel Mac OS X 10_15_7) AppleWebKit/537.36 (KHTML, like Gecko) Chrome/133.0.0.0 Safari/537.36",Macintosh,Chrome,133.0.0.0,OS X,10_15_7,https://5puzkbbxv1.cognition.run/?sona_id=57530,"en-US,en;q=0.9",0mu088dbbsmj9a8,19,"[""Asian""]",No,Male,N/A,Yes,938940.3999996184,NA,4580,NA,"{""product_choice"":""B""}",choice,ct,binary,repulsion,1,washing machines,null,null,null,null,null,null,2,100,90,null,30,40,null,Average lifespan,Energy savings,NA,NA
NA,NA,NA,NA,NA,choice_trial_setup,html-keyboard-response,84,839646,0.0-4.0-0.40,247,1,2025-05-06T15:37:55Z,b60275e29fe2361ab97ac0ac217840d7,"Mozilla/5.0 (Macintosh; Intel Mac OS X 10_15_7) AppleWebKit/537.36 (KHTML, like Gecko) Chrome/133.0.0.0 Safari/537.36",Macintosh,Chrome,133.0.0.0,OS X,10_15_7,https://5puzkbbxv1.cognition.run/?sona_id=57530,"en-US,en;q=0.9",0mu088dbbsmj9a8,19,"[""Asian""]",No,Male,N/A,Yes,938940.3999996184,NA,null,<p></p>,null,choice,ct,binary,attraction,NA,laptops,null,null,null,null,null,null,2,NA,NA,NA,NA,NA,NA,NA,NA,NA,NA
NA,NA,NA,NA,NA,choice_trial,survey-html-form,85,842985,0.0-4.0-1.40,247,1,2025-05-06T15:37:55Z,b60275e29fe2361ab97ac0ac217840d7,"Mozilla/5.0 (Macintosh; Intel Mac OS X 10_15_7) AppleWebKit/537.36 (KHTML, like Gecko) Chrome/133.0.0.0 Safari/537.36",Macintosh,Chrome,133.0.0.0,OS X,10_15_7,https://5puzkbbxv1.cognition.run/?sona_id=57530,"en-US,en;q=0.9",0mu088dbbsmj9a8,19,"[""Asian""]",No,Male,N/A,Yes,938940.3999996184,NA,3334,NA,"{""product_choice"":""B""}",choice,ct,binary,attraction,NA,laptops,null,null,null,null,null,null,2,60,50,null,50,60,null,Processing speed,Memory (RAM),NA,NA
NA,NA,NA,NA,NA,choice_trial_setup,html-keyboard-response,86,843288,0.0-4.0-0.41,247,1,2025-05-06T15:37:55Z,b60275e29fe2361ab97ac0ac217840d7,"Mozilla/5.0 (Macintosh; Intel Mac OS X 10_15_7) AppleWebKit/537.36 (KHTML, like Gecko) Chrome/133.0.0.0 Safari/537.36",Macintosh,Chrome,133.0.0.0,OS X,10_15_7,https://5puzkbbxv1.cognition.run/?sona_id=57530,"en-US,en;q=0.9",0mu088dbbsmj9a8,19,"[""Asian""]",No,Male,N/A,Yes,938940.3999996184,NA,null,<p></p>,null,choice,wb,binary,catch,null,washing machines,85,75,35,40,null,null,1,NA,NA,NA,NA,NA,NA,NA,NA,NA,NA
NA,NA,NA,NA,NA,choice_trial,survey-html-form,87,846942,0.0-4.0-1.41,247,1,2025-05-06T15:37:55Z,b60275e29fe2361ab97ac0ac217840d7,"Mozilla/5.0 (Macintosh; Intel Mac OS X 10_15_7) AppleWebKit/537.36 (KHTML, like Gecko) Chrome/133.0.0.0 Safari/537.36",Macintosh,Chrome,133.0.0.0,OS X,10_15_7,https://5puzkbbxv1.cognition.run/?sona_id=57530,"en-US,en;q=0.9",0mu088dbbsmj9a8,19,"[""Asian""]",No,Male,N/A,Yes,938940.3999996184,NA,3648,NA,"{""product_choice"":""B""}",choice,wb,binary,catch,null,washing machines,85,75,35,40,null,null,1,null,null,null,null,null,null,Average lifespan,Energy savings,NA,NA
NA,NA,NA,NA,NA,choice_trial_setup,html-keyboard-response,88,847245,0.0-4.0-0.42,247,1,2025-05-06T15:37:55Z,b60275e29fe2361ab97ac0ac217840d7,"Mozilla/5.0 (Macintosh; Intel Mac OS X 10_15_7) AppleWebKit/537.36 (KHTML, like Gecko) Chrome/133.0.0.0 Safari/537.36",Macintosh,Chrome,133.0.0.0,OS X,10_15_7,https://5puzkbbxv1.cognition.run/?sona_id=57530,"en-US,en;q=0.9",0mu088dbbsmj9a8,19,"[""Asian""]",No,Male,N/A,Yes,938940.3999996184,NA,null,<p></p>,null,choice,dtc,trinary,repulsion_B,1,televisions,null,null,null,null,null,null,2,NA,NA,NA,NA,NA,NA,NA,NA,NA,NA
NA,NA,NA,NA,NA,choice_trial,survey-html-form,89,851562,0.0-4.0-1.42,247,1,2025-05-06T15:37:55Z,b60275e29fe2361ab97ac0ac217840d7,"Mozilla/5.0 (Macintosh; Intel Mac OS X 10_15_7) AppleWebKit/537.36 (KHTML, like Gecko) Chrome/133.0.0.0 Safari/537.36",Macintosh,Chrome,133.0.0.0,OS X,10_15_7,https://5puzkbbxv1.cognition.run/?sona_id=57530,"en-US,en;q=0.9",0mu088dbbsmj9a8,19,"[""Asian""]",No,Male,N/A,Yes,938940.3999996184,NA,4313,NA,"{""product_choice"":""B""}",choice,dtc,trinary,repulsion_B,1,televisions,null,null,null,null,null,null,2,90,100,80,40,30,40,Screen size,Average lifespan,NA,NA
NA,NA,NA,NA,NA,choice_trial_setup,html-keyboard-response,90,851864,0.0-4.0-0.43,247,1,2025-05-06T15:37:55Z,b60275e29fe2361ab97ac0ac217840d7,"Mozilla/5.0 (Macintosh; Intel Mac OS X 10_15_7) AppleWebKit/537.36 (KHTML, like Gecko) Chrome/133.0.0.0 Safari/537.36",Macintosh,Chrome,133.0.0.0,OS X,10_15_7,https://5puzkbbxv1.cognition.run/?sona_id=57530,"en-US,en;q=0.9",0mu088dbbsmj9a8,19,"[""Asian""]",No,Male,N/A,Yes,938940.3999996184,NA,null,<p></p>,null,choice,ctd,trinary,attraction,2,laptops,null,null,null,null,null,null,2,NA,NA,NA,NA,NA,NA,NA,NA,NA,NA
NA,NA,NA,NA,NA,choice_trial,survey-html-form,91,857543,0.0-4.0-1.43,247,1,2025-05-06T15:37:55Z,b60275e29fe2361ab97ac0ac217840d7,"Mozilla/5.0 (Macintosh; Intel Mac OS X 10_15_7) AppleWebKit/537.36 (KHTML, like Gecko) Chrome/133.0.0.0 Safari/537.36",Macintosh,Chrome,133.0.0.0,OS X,10_15_7,https://5puzkbbxv1.cognition.run/?sona_id=57530,"en-US,en;q=0.9",0mu088dbbsmj9a8,19,"[""Asian""]",No,Male,N/A,Yes,938940.3999996184,NA,5677,NA,"{""product_choice"":""A""}",choice,ctd,trinary,attraction,2,laptops,null,null,null,null,null,null,2,50,60,40,60,50,60,Processing speed,Memory (RAM),NA,NA
NA,NA,NA,NA,NA,post_trials_message,html-button-response,92,858705,0.0-5.0,247,1,2025-05-06T15:37:55Z,b60275e29fe2361ab97ac0ac217840d7,"Mozilla/5.0 (Macintosh; Intel Mac OS X 10_15_7) AppleWebKit/537.36 (KHTML, like Gecko) Chrome/133.0.0.0 Safari/537.36",Macintosh,Chrome,133.0.0.0,OS X,10_15_7,https://5puzkbbxv1.cognition.run/?sona_id=57530,"en-US,en;q=0.9",0mu088dbbsmj9a8,19,"[""Asian""]",No,Male,N/A,Yes,938940.3999996184,NA,1160,<p> <b>Thank you for your patience!</b></p><p>  The study will be done after completing a brief form. </p>,0,NA,NA,NA,NA,NA,NA,NA,NA,NA,NA,NA,NA,NA,NA,NA,NA,NA,NA,NA,NA,NA,NA,NA
NA,NA,NA,NA,NA,survey_message,survey-text,93,908397,0.0-6.0,247,1,2025-05-06T15:37:55Z,b60275e29fe2361ab97ac0ac217840d7,"Mozilla/5.0 (Macintosh; Intel Mac OS X 10_15_7) AppleWebKit/537.36 (KHTML, like Gecko) Chrome/133.0.0.0 Safari/537.36",Macintosh,Chrome,133.0.0.0,OS X,10_15_7,https://5puzkbbxv1.cognition.run/?sona_id=57530,"en-US,en;q=0.9",0mu088dbbsmj9a8,19,"[""Asian""]",No,Male,N/A,Yes,938940.3999996184,NA,49690,NA,"{""Q0"":""Generally, I valued if the product does what it was supposed to do the most, and next things like sustainability, unless the difference was too high to where it would be significant. ""}",NA,NA,NA,NA,NA,NA,NA,NA,NA,NA,NA,NA,NA,NA,NA,NA,NA,NA,NA,NA,NA,"Generally, I valued if the product does what it was supposed to do the most, and next things like sustainability, unless the difference was too high to where it would be significant.",NA
NA,NA,NA,NA,NA,demo_age,survey-text,94,911250,0.0-7.0,247,1,2025-05-06T15:37:55Z,b60275e29fe2361ab97ac0ac217840d7,"Mozilla/5.0 (Macintosh; Intel Mac OS X 10_15_7) AppleWebKit/537.36 (KHTML, like Gecko) Chrome/133.0.0.0 Safari/537.36",Macintosh,Chrome,133.0.0.0,OS X,10_15_7,https://5puzkbbxv1.cognition.run/?sona_id=57530,"en-US,en;q=0.9",0mu088dbbsmj9a8,19,"[""Asian""]",No,Male,N/A,Yes,938940.3999996184,NA,2851,NA,"{""Q0"":""19""}",NA,NA,NA,NA,NA,NA,NA,NA,NA,NA,NA,NA,NA,NA,NA,NA,NA,NA,NA,NA,NA,NA,NA
NA,NA,NA,NA,NA,demo_race,survey-multi-select,95,913064,0.0-8.0,247,1,2025-05-06T15:37:55Z,b60275e29fe2361ab97ac0ac217840d7,"Mozilla/5.0 (Macintosh; Intel Mac OS X 10_15_7) AppleWebKit/537.36 (KHTML, like Gecko) Chrome/133.0.0.0 Safari/537.36",Macintosh,Chrome,133.0.0.0,OS X,10_15_7,https://5puzkbbxv1.cognition.run/?sona_id=57530,"en-US,en;q=0.9",0mu088dbbsmj9a8,19,"[""Asian""]",No,Male,N/A,Yes,938940.3999996184,NA,1811,NA,"{""Q0"":[""Asian""]}",NA,NA,NA,NA,NA,NA,NA,NA,NA,NA,NA,NA,NA,NA,NA,NA,NA,NA,NA,NA,NA,NA,[0]
NA,NA,NA,NA,NA,demo_ethnicity_gender,survey-multi-choice,96,917300,0.0-9.0,247,1,2025-05-06T15:37:55Z,b60275e29fe2361ab97ac0ac217840d7,"Mozilla/5.0 (Macintosh; Intel Mac OS X 10_15_7) AppleWebKit/537.36 (KHTML, like Gecko) Chrome/133.0.0.0 Safari/537.36",Macintosh,Chrome,133.0.0.0,OS X,10_15_7,https://5puzkbbxv1.cognition.run/?sona_id=57530,"en-US,en;q=0.9",0mu088dbbsmj9a8,19,"[""Asian""]",No,Male,N/A,Yes,938940.3999996184,NA,4233,NA,"{""Q0"":""No"",""Q1"":""Male""}",NA,NA,NA,NA,NA,NA,NA,NA,NA,NA,NA,NA,NA,NA,NA,NA,NA,NA,NA,NA,NA,NA,"[0,1]"
NA,NA,NA,NA,NA,demo_countries,survey-text,97,922510,0.0-10.0,247,1,2025-05-06T15:37:55Z,b60275e29fe2361ab97ac0ac217840d7,"Mozilla/5.0 (Macintosh; Intel Mac OS X 10_15_7) AppleWebKit/537.36 (KHTML, like Gecko) Chrome/133.0.0.0 Safari/537.36",Macintosh,Chrome,133.0.0.0,OS X,10_15_7,https://5puzkbbxv1.cognition.run/?sona_id=57530,"en-US,en;q=0.9",0mu088dbbsmj9a8,19,"[""Asian""]",No,Male,N/A,Yes,938940.3999996184,NA,5204,NA,"{""Q0"":""N/A""}",NA,NA,NA,NA,NA,NA,NA,NA,NA,NA,NA,NA,NA,NA,NA,NA,NA,NA,NA,NA,NA,NA,NA
NA,NA,NA,NA,NA,demo_prev_study,survey-multi-choice,98,929258,0.0-11.0,247,1,2025-05-06T15:37:55Z,b60275e29fe2361ab97ac0ac217840d7,"Mozilla/5.0 (Macintosh; Intel Mac OS X 10_15_7) AppleWebKit/537.36 (KHTML, like Gecko) Chrome/133.0.0.0 Safari/537.36",Macintosh,Chrome,133.0.0.0,OS X,10_15_7,https://5puzkbbxv1.cognition.run/?sona_id=57530,"en-US,en;q=0.9",0mu088dbbsmj9a8,19,"[""Asian""]",No,Male,N/A,Yes,938940.3999996184,NA,6746,NA,"{""Q0"":""Yes""}",NA,NA,NA,NA,NA,NA,NA,NA,NA,NA,NA,NA,NA,NA,NA,NA,NA,NA,NA,NA,NA,NA,[0]
NA,NA,NA,NA,NA,post_survey_message,html-keyboard-response,99,933149,0.0-12.0,247,1,2025-05-06T15:37:55Z,b60275e29fe2361ab97ac0ac217840d7,"Mozilla/5.0 (Macintosh; Intel Mac OS X 10_15_7) AppleWebKit/537.36 (KHTML, like Gecko) Chrome/133.0.0.0 Safari/537.36",Macintosh,Chrome,133.0.0.0,OS X,10_15_7,https://5puzkbbxv1.cognition.run/?sona_id=57530,"en-US,en;q=0.9",0mu088dbbsmj9a8,19,"[""Asian""]",No,Male,N/A,Yes,938940.3999996184,NA,3889,NA,j,NA,NA,NA,NA,NA,NA,NA,NA,NA,NA,NA,NA,NA,NA,NA,NA,NA,NA,NA,NA,NA,NA,NA
NA,NA,NA,NA,NA,debrief,image-keyboard-response,100,938937,0.0-13.0,247,1,2025-05-06T15:37:55Z,b60275e29fe2361ab97ac0ac217840d7,"Mozilla/5.0 (Macintosh; Intel Mac OS X 10_15_7) AppleWebKit/537.36 (KHTML, like Gecko) Chrome/133.0.0.0 Safari/537.36",Macintosh,Chrome,133.0.0.0,OS X,10_15_7,https://5puzkbbxv1.cognition.run/?sona_id=57530,"en-US,en;q=0.9",0mu088dbbsmj9a8,19,"[""Asian""]",No,Male,N/A,Yes,938940.3999996184,NA,5782,Judg_choice_debrief.png,p,NA,NA,NA,NA,NA,NA,NA,NA,NA,NA,NA,NA,NA,NA,NA,NA,NA,NA,NA,NA,NA,NA,NA
