success,timeout,failed_images,failed_audio,failed_video,screen_id,trial_type,trial_index,time_elapsed,internal_node_id,run_id,condition,recorded_at,source_code_version,user_agent,device,browser,browser_version,platform,platform_version,referer,accept_language,ppt_id,age,race,ethnicity,gender,other_countries,prev_study,exp_duration,view_history,rt,stimulus,response,phase,order,set,effect,t_high,category,d1_best,d2_best,d1_worst1,d2_worst1,d1_worst2,d2_worst2,first_dim,d1_t,d1_c,d1_d,d2_t,d2_c,d2_d,d1_name,d2_name,strategy_response,question_order
TRUE,FALSE,[],[],[],img preload,preload,0,358,0.0-0.0,248,1,2025-05-06T15:45:41Z,b60275e29fe2361ab97ac0ac217840d7,"Mozilla/5.0 (Windows NT 10.0; Win64; x64) AppleWebKit/537.36 (KHTML, like Gecko) Chrome/135.0.0.0 Safari/537.36",WebKit,Chrome,135.0.0.0,Windows,10,https://5puzkbbxv1.cognition.run/?sona_id=56812,"en-US,en;q=0.9",wlo7cr93ssxa7fq,23,"[""White""]",No,Male,NA,Yes,424719.5,NA,NA,NA,NA,NA,NA,NA,NA,NA,NA,NA,NA,NA,NA,NA,NA,NA,NA,NA,NA,NA,NA,NA,NA,NA,NA,NA
NA,NA,NA,NA,NA,computer_message,instructions,1,3212,0.0-1.0,248,1,2025-05-06T15:45:41Z,b60275e29fe2361ab97ac0ac217840d7,"Mozilla/5.0 (Windows NT 10.0; Win64; x64) AppleWebKit/537.36 (KHTML, like Gecko) Chrome/135.0.0.0 Safari/537.36",WebKit,Chrome,135.0.0.0,Windows,10,https://5puzkbbxv1.cognition.run/?sona_id=56812,"en-US,en;q=0.9",wlo7cr93ssxa7fq,23,"[""White""]",No,Male,NA,Yes,424719.5,"[{""page_index"":0,""viewing_time"":2852}]",2852,NA,NA,NA,NA,NA,NA,NA,NA,NA,NA,NA,NA,NA,NA,NA,NA,NA,NA,NA,NA,NA,NA,NA,NA,NA
TRUE,NA,NA,NA,NA,NA,fullscreen,2,5263,0.0-2.0,248,1,2025-05-06T15:45:41Z,b60275e29fe2361ab97ac0ac217840d7,"Mozilla/5.0 (Windows NT 10.0; Win64; x64) AppleWebKit/537.36 (KHTML, like Gecko) Chrome/135.0.0.0 Safari/537.36",WebKit,Chrome,135.0.0.0,Windows,10,https://5puzkbbxv1.cognition.run/?sona_id=56812,"en-US,en;q=0.9",wlo7cr93ssxa7fq,23,"[""White""]",No,Male,NA,Yes,424719.5,NA,1041,NA,NA,NA,NA,NA,NA,NA,NA,NA,NA,NA,NA,NA,NA,NA,NA,NA,NA,NA,NA,NA,NA,NA,NA,NA
NA,NA,NA,NA,NA,choice_instructions,instructions,3,42244,0.0-3.0,248,1,2025-05-06T15:45:41Z,b60275e29fe2361ab97ac0ac217840d7,"Mozilla/5.0 (Windows NT 10.0; Win64; x64) AppleWebKit/537.36 (KHTML, like Gecko) Chrome/135.0.0.0 Safari/537.36",WebKit,Chrome,135.0.0.0,Windows,10,https://5puzkbbxv1.cognition.run/?sona_id=56812,"en-US,en;q=0.9",wlo7cr93ssxa7fq,23,"[""White""]",No,Male,NA,Yes,424719.5,"[{""page_index"":0,""viewing_time"":1250},{""page_index"":1,""viewing_time"":1209},{""page_index"":2,""viewing_time"":4633},{""page_index"":3,""viewing_time"":2048},{""page_index"":4,""viewing_time"":1556},{""page_index"":5,""viewing_time"":24501},{""page_index"":6,""viewing_time"":1784}]",36980,NA,NA,NA,NA,NA,NA,NA,NA,NA,NA,NA,NA,NA,NA,NA,NA,NA,NA,NA,NA,NA,NA,NA,NA,NA
NA,NA,NA,NA,NA,choice_trial_setup,html-keyboard-response,4,42550,0.0-4.0-0.0,248,1,2025-05-06T15:45:41Z,b60275e29fe2361ab97ac0ac217840d7,"Mozilla/5.0 (Windows NT 10.0; Win64; x64) AppleWebKit/537.36 (KHTML, like Gecko) Chrome/135.0.0.0 Safari/537.36",WebKit,Chrome,135.0.0.0,Windows,10,https://5puzkbbxv1.cognition.run/?sona_id=56812,"en-US,en;q=0.9",wlo7cr93ssxa7fq,23,"[""White""]",No,Male,NA,Yes,424719.5,NA,null,<p></p>,null,choice,dct,trinary,repulsion_B,1,laptops,null,null,null,null,null,null,1,NA,NA,NA,NA,NA,NA,NA,NA,NA,NA
NA,NA,NA,NA,NA,choice_trial,survey-html-form,5,58627,0.0-4.0-1.0,248,1,2025-05-06T15:45:41Z,b60275e29fe2361ab97ac0ac217840d7,"Mozilla/5.0 (Windows NT 10.0; Win64; x64) AppleWebKit/537.36 (KHTML, like Gecko) Chrome/135.0.0.0 Safari/537.36",WebKit,Chrome,135.0.0.0,Windows,10,https://5puzkbbxv1.cognition.run/?sona_id=56812,"en-US,en;q=0.9",wlo7cr93ssxa7fq,23,"[""White""]",No,Male,NA,Yes,424719.5,NA,16071,NA,"{""product_choice"":""C""}",choice,dct,trinary,repulsion_B,1,laptops,null,null,null,null,null,null,1,90,100,80,40,30,40,Processing speed,Memory (RAM),NA,NA
NA,NA,NA,NA,NA,choice_trial_setup,html-keyboard-response,6,58930,0.0-4.0-0.1,248,1,2025-05-06T15:45:41Z,b60275e29fe2361ab97ac0ac217840d7,"Mozilla/5.0 (Windows NT 10.0; Win64; x64) AppleWebKit/537.36 (KHTML, like Gecko) Chrome/135.0.0.0 Safari/537.36",WebKit,Chrome,135.0.0.0,Windows,10,https://5puzkbbxv1.cognition.run/?sona_id=56812,"en-US,en;q=0.9",wlo7cr93ssxa7fq,23,"[""White""]",No,Male,NA,Yes,424719.5,NA,null,<p></p>,null,choice,tc,binary,repulsion,1,microwave ovens,null,null,null,null,null,null,1,NA,NA,NA,NA,NA,NA,NA,NA,NA,NA
NA,NA,NA,NA,NA,choice_trial,survey-html-form,7,65907,0.0-4.0-1.1,248,1,2025-05-06T15:45:41Z,b60275e29fe2361ab97ac0ac217840d7,"Mozilla/5.0 (Windows NT 10.0; Win64; x64) AppleWebKit/537.36 (KHTML, like Gecko) Chrome/135.0.0.0 Safari/537.36",WebKit,Chrome,135.0.0.0,Windows,10,https://5puzkbbxv1.cognition.run/?sona_id=56812,"en-US,en;q=0.9",wlo7cr93ssxa7fq,23,"[""White""]",No,Male,NA,Yes,424719.5,NA,6976,NA,"{""product_choice"":""A""}",choice,tc,binary,repulsion,1,microwave ovens,null,null,null,null,null,null,1,100,90,null,30,40,null,Warranty,Cooking power,NA,NA
NA,NA,NA,NA,NA,choice_trial_setup,html-keyboard-response,8,66214,0.0-4.0-0.2,248,1,2025-05-06T15:45:41Z,b60275e29fe2361ab97ac0ac217840d7,"Mozilla/5.0 (Windows NT 10.0; Win64; x64) AppleWebKit/537.36 (KHTML, like Gecko) Chrome/135.0.0.0 Safari/537.36",WebKit,Chrome,135.0.0.0,Windows,10,https://5puzkbbxv1.cognition.run/?sona_id=56812,"en-US,en;q=0.9",wlo7cr93ssxa7fq,23,"[""White""]",No,Male,NA,Yes,424719.5,NA,null,<p></p>,null,choice,bww,trinary,catch,null,laptops,70,55,25,30,30,20,1,NA,NA,NA,NA,NA,NA,NA,NA,NA,NA
NA,NA,NA,NA,NA,choice_trial,survey-html-form,9,74643,0.0-4.0-1.2,248,1,2025-05-06T15:45:41Z,b60275e29fe2361ab97ac0ac217840d7,"Mozilla/5.0 (Windows NT 10.0; Win64; x64) AppleWebKit/537.36 (KHTML, like Gecko) Chrome/135.0.0.0 Safari/537.36",WebKit,Chrome,135.0.0.0,Windows,10,https://5puzkbbxv1.cognition.run/?sona_id=56812,"en-US,en;q=0.9",wlo7cr93ssxa7fq,23,"[""White""]",No,Male,NA,Yes,424719.5,NA,8427,NA,"{""product_choice"":""A""}",choice,bww,trinary,catch,null,laptops,70,55,25,30,30,20,1,null,null,null,null,null,null,Processing speed,Memory (RAM),NA,NA
NA,NA,NA,NA,NA,choice_trial_setup,html-keyboard-response,10,74948,0.0-4.0-0.3,248,1,2025-05-06T15:45:41Z,b60275e29fe2361ab97ac0ac217840d7,"Mozilla/5.0 (Windows NT 10.0; Win64; x64) AppleWebKit/537.36 (KHTML, like Gecko) Chrome/135.0.0.0 Safari/537.36",WebKit,Chrome,135.0.0.0,Windows,10,https://5puzkbbxv1.cognition.run/?sona_id=56812,"en-US,en;q=0.9",wlo7cr93ssxa7fq,23,"[""White""]",No,Male,NA,Yes,424719.5,NA,null,<p></p>,null,choice,tcd,trinary,attraction,1,washing machines,null,null,null,null,null,null,2,NA,NA,NA,NA,NA,NA,NA,NA,NA,NA
NA,NA,NA,NA,NA,choice_trial,survey-html-form,11,82006,0.0-4.0-1.3,248,1,2025-05-06T15:45:41Z,b60275e29fe2361ab97ac0ac217840d7,"Mozilla/5.0 (Windows NT 10.0; Win64; x64) AppleWebKit/537.36 (KHTML, like Gecko) Chrome/135.0.0.0 Safari/537.36",WebKit,Chrome,135.0.0.0,Windows,10,https://5puzkbbxv1.cognition.run/?sona_id=56812,"en-US,en;q=0.9",wlo7cr93ssxa7fq,23,"[""White""]",No,Male,NA,Yes,424719.5,NA,7057,NA,"{""product_choice"":""A""}",choice,tcd,trinary,attraction,1,washing machines,null,null,null,null,null,null,2,60,50,60,50,60,40,Average lifespan,Energy savings,NA,NA
NA,NA,NA,NA,NA,choice_trial_setup,html-keyboard-response,12,82314,0.0-4.0-0.4,248,1,2025-05-06T15:45:41Z,b60275e29fe2361ab97ac0ac217840d7,"Mozilla/5.0 (Windows NT 10.0; Win64; x64) AppleWebKit/537.36 (KHTML, like Gecko) Chrome/135.0.0.0 Safari/537.36",WebKit,Chrome,135.0.0.0,Windows,10,https://5puzkbbxv1.cognition.run/?sona_id=56812,"en-US,en;q=0.9",wlo7cr93ssxa7fq,23,"[""White""]",No,Male,NA,Yes,424719.5,NA,null,<p></p>,null,choice,tcd,trinary,attraction,1,microwave ovens,null,null,null,null,null,null,1,NA,NA,NA,NA,NA,NA,NA,NA,NA,NA
NA,NA,NA,NA,NA,choice_trial,survey-html-form,13,89613,0.0-4.0-1.4,248,1,2025-05-06T15:45:41Z,b60275e29fe2361ab97ac0ac217840d7,"Mozilla/5.0 (Windows NT 10.0; Win64; x64) AppleWebKit/537.36 (KHTML, like Gecko) Chrome/135.0.0.0 Safari/537.36",WebKit,Chrome,135.0.0.0,Windows,10,https://5puzkbbxv1.cognition.run/?sona_id=56812,"en-US,en;q=0.9",wlo7cr93ssxa7fq,23,"[""White""]",No,Male,NA,Yes,424719.5,NA,7298,NA,"{""product_choice"":""A""}",choice,tcd,trinary,attraction,1,microwave ovens,null,null,null,null,null,null,1,60,50,60,50,60,40,Warranty,Cooking power,NA,NA
NA,NA,NA,NA,NA,choice_trial_setup,html-keyboard-response,14,89915,0.0-4.0-0.5,248,1,2025-05-06T15:45:41Z,b60275e29fe2361ab97ac0ac217840d7,"Mozilla/5.0 (Windows NT 10.0; Win64; x64) AppleWebKit/537.36 (KHTML, like Gecko) Chrome/135.0.0.0 Safari/537.36",WebKit,Chrome,135.0.0.0,Windows,10,https://5puzkbbxv1.cognition.run/?sona_id=56812,"en-US,en;q=0.9",wlo7cr93ssxa7fq,23,"[""White""]",No,Male,NA,Yes,424719.5,NA,null,<p></p>,null,choice,cdt,trinary,repulsion_A,2,microwave ovens,null,null,null,null,null,null,1,NA,NA,NA,NA,NA,NA,NA,NA,NA,NA
NA,NA,NA,NA,NA,choice_trial,survey-html-form,15,95089,0.0-4.0-1.5,248,1,2025-05-06T15:45:41Z,b60275e29fe2361ab97ac0ac217840d7,"Mozilla/5.0 (Windows NT 10.0; Win64; x64) AppleWebKit/537.36 (KHTML, like Gecko) Chrome/135.0.0.0 Safari/537.36",WebKit,Chrome,135.0.0.0,Windows,10,https://5puzkbbxv1.cognition.run/?sona_id=56812,"en-US,en;q=0.9",wlo7cr93ssxa7fq,23,"[""White""]",No,Male,NA,Yes,424719.5,NA,5172,NA,"{""product_choice"":""A""}",choice,cdt,trinary,repulsion_A,2,microwave ovens,null,null,null,null,null,null,1,30,40,20,100,90,100,Warranty,Cooking power,NA,NA
NA,NA,NA,NA,NA,choice_trial_setup,html-keyboard-response,16,95397,0.0-4.0-0.6,248,1,2025-05-06T15:45:41Z,b60275e29fe2361ab97ac0ac217840d7,"Mozilla/5.0 (Windows NT 10.0; Win64; x64) AppleWebKit/537.36 (KHTML, like Gecko) Chrome/135.0.0.0 Safari/537.36",WebKit,Chrome,135.0.0.0,Windows,10,https://5puzkbbxv1.cognition.run/?sona_id=56812,"en-US,en;q=0.9",wlo7cr93ssxa7fq,23,"[""White""]",No,Male,NA,Yes,424719.5,NA,null,<p></p>,null,choice,ctd,trinary,attraction,1,laptops,null,null,null,null,null,null,1,NA,NA,NA,NA,NA,NA,NA,NA,NA,NA
NA,NA,NA,NA,NA,choice_trial,survey-html-form,17,103797,0.0-4.0-1.6,248,1,2025-05-06T15:45:41Z,b60275e29fe2361ab97ac0ac217840d7,"Mozilla/5.0 (Windows NT 10.0; Win64; x64) AppleWebKit/537.36 (KHTML, like Gecko) Chrome/135.0.0.0 Safari/537.36",WebKit,Chrome,135.0.0.0,Windows,10,https://5puzkbbxv1.cognition.run/?sona_id=56812,"en-US,en;q=0.9",wlo7cr93ssxa7fq,23,"[""White""]",No,Male,NA,Yes,424719.5,NA,8398,NA,"{""product_choice"":""A""}",choice,ctd,trinary,attraction,1,laptops,null,null,null,null,null,null,1,60,50,60,50,60,40,Processing speed,Memory (RAM),NA,NA
NA,NA,NA,NA,NA,choice_trial_setup,html-keyboard-response,18,104100,0.0-4.0-0.7,248,1,2025-05-06T15:45:41Z,b60275e29fe2361ab97ac0ac217840d7,"Mozilla/5.0 (Windows NT 10.0; Win64; x64) AppleWebKit/537.36 (KHTML, like Gecko) Chrome/135.0.0.0 Safari/537.36",WebKit,Chrome,135.0.0.0,Windows,10,https://5puzkbbxv1.cognition.run/?sona_id=56812,"en-US,en;q=0.9",wlo7cr93ssxa7fq,23,"[""White""]",No,Male,NA,Yes,424719.5,NA,null,<p></p>,null,choice,ct,binary,attraction,NA,laptops,null,null,null,null,null,null,1,NA,NA,NA,NA,NA,NA,NA,NA,NA,NA
NA,NA,NA,NA,NA,choice_trial,survey-html-form,19,109589,0.0-4.0-1.7,248,1,2025-05-06T15:45:41Z,b60275e29fe2361ab97ac0ac217840d7,"Mozilla/5.0 (Windows NT 10.0; Win64; x64) AppleWebKit/537.36 (KHTML, like Gecko) Chrome/135.0.0.0 Safari/537.36",WebKit,Chrome,135.0.0.0,Windows,10,https://5puzkbbxv1.cognition.run/?sona_id=56812,"en-US,en;q=0.9",wlo7cr93ssxa7fq,23,"[""White""]",No,Male,NA,Yes,424719.5,NA,5488,NA,"{""product_choice"":""A""}",choice,ct,binary,attraction,NA,laptops,null,null,null,null,null,null,1,60,50,null,50,60,null,Processing speed,Memory (RAM),NA,NA
NA,NA,NA,NA,NA,choice_trial_setup,html-keyboard-response,20,109890,0.0-4.0-0.8,248,1,2025-05-06T15:45:41Z,b60275e29fe2361ab97ac0ac217840d7,"Mozilla/5.0 (Windows NT 10.0; Win64; x64) AppleWebKit/537.36 (KHTML, like Gecko) Chrome/135.0.0.0 Safari/537.36",WebKit,Chrome,135.0.0.0,Windows,10,https://5puzkbbxv1.cognition.run/?sona_id=56812,"en-US,en;q=0.9",wlo7cr93ssxa7fq,23,"[""White""]",No,Male,NA,Yes,424719.5,NA,null,<p></p>,null,choice,ct,binary,repulsion,1,laptops,null,null,null,null,null,null,1,NA,NA,NA,NA,NA,NA,NA,NA,NA,NA
NA,NA,NA,NA,NA,choice_trial,survey-html-form,21,113502,0.0-4.0-1.8,248,1,2025-05-06T15:45:41Z,b60275e29fe2361ab97ac0ac217840d7,"Mozilla/5.0 (Windows NT 10.0; Win64; x64) AppleWebKit/537.36 (KHTML, like Gecko) Chrome/135.0.0.0 Safari/537.36",WebKit,Chrome,135.0.0.0,Windows,10,https://5puzkbbxv1.cognition.run/?sona_id=56812,"en-US,en;q=0.9",wlo7cr93ssxa7fq,23,"[""White""]",No,Male,NA,Yes,424719.5,NA,3611,NA,"{""product_choice"":""A""}",choice,ct,binary,repulsion,1,laptops,null,null,null,null,null,null,1,100,90,null,30,40,null,Processing speed,Memory (RAM),NA,NA
NA,NA,NA,NA,NA,choice_trial_setup,html-keyboard-response,22,113803,0.0-4.0-0.9,248,1,2025-05-06T15:45:41Z,b60275e29fe2361ab97ac0ac217840d7,"Mozilla/5.0 (Windows NT 10.0; Win64; x64) AppleWebKit/537.36 (KHTML, like Gecko) Chrome/135.0.0.0 Safari/537.36",WebKit,Chrome,135.0.0.0,Windows,10,https://5puzkbbxv1.cognition.run/?sona_id=56812,"en-US,en;q=0.9",wlo7cr93ssxa7fq,23,"[""White""]",No,Male,NA,Yes,424719.5,NA,null,<p></p>,null,choice,dct,trinary,repulsion_A,2,washing machines,null,null,null,null,null,null,1,NA,NA,NA,NA,NA,NA,NA,NA,NA,NA
NA,NA,NA,NA,NA,choice_trial,survey-html-form,23,118848,0.0-4.0-1.9,248,1,2025-05-06T15:45:41Z,b60275e29fe2361ab97ac0ac217840d7,"Mozilla/5.0 (Windows NT 10.0; Win64; x64) AppleWebKit/537.36 (KHTML, like Gecko) Chrome/135.0.0.0 Safari/537.36",WebKit,Chrome,135.0.0.0,Windows,10,https://5puzkbbxv1.cognition.run/?sona_id=56812,"en-US,en;q=0.9",wlo7cr93ssxa7fq,23,"[""White""]",No,Male,NA,Yes,424719.5,NA,5040,NA,"{""product_choice"":""B""}",choice,dct,trinary,repulsion_A,2,washing machines,null,null,null,null,null,null,1,30,40,20,100,90,100,Average lifespan,Energy savings,NA,NA
NA,NA,NA,NA,NA,choice_trial_setup,html-keyboard-response,24,119150,0.0-4.0-0.10,248,1,2025-05-06T15:45:41Z,b60275e29fe2361ab97ac0ac217840d7,"Mozilla/5.0 (Windows NT 10.0; Win64; x64) AppleWebKit/537.36 (KHTML, like Gecko) Chrome/135.0.0.0 Safari/537.36",WebKit,Chrome,135.0.0.0,Windows,10,https://5puzkbbxv1.cognition.run/?sona_id=56812,"en-US,en;q=0.9",wlo7cr93ssxa7fq,23,"[""White""]",No,Male,NA,Yes,424719.5,NA,null,<p></p>,null,choice,tcd,trinary,attraction,2,televisions,null,null,null,null,null,null,2,NA,NA,NA,NA,NA,NA,NA,NA,NA,NA
NA,NA,NA,NA,NA,choice_trial,survey-html-form,25,125386,0.0-4.0-1.10,248,1,2025-05-06T15:45:41Z,b60275e29fe2361ab97ac0ac217840d7,"Mozilla/5.0 (Windows NT 10.0; Win64; x64) AppleWebKit/537.36 (KHTML, like Gecko) Chrome/135.0.0.0 Safari/537.36",WebKit,Chrome,135.0.0.0,Windows,10,https://5puzkbbxv1.cognition.run/?sona_id=56812,"en-US,en;q=0.9",wlo7cr93ssxa7fq,23,"[""White""]",No,Male,NA,Yes,424719.5,NA,6235,NA,"{""product_choice"":""A""}",choice,tcd,trinary,attraction,2,televisions,null,null,null,null,null,null,2,50,60,40,60,50,60,Screen size,Average lifespan,NA,NA
NA,NA,NA,NA,NA,choice_trial_setup,html-keyboard-response,26,125692,0.0-4.0-0.11,248,1,2025-05-06T15:45:41Z,b60275e29fe2361ab97ac0ac217840d7,"Mozilla/5.0 (Windows NT 10.0; Win64; x64) AppleWebKit/537.36 (KHTML, like Gecko) Chrome/135.0.0.0 Safari/537.36",WebKit,Chrome,135.0.0.0,Windows,10,https://5puzkbbxv1.cognition.run/?sona_id=56812,"en-US,en;q=0.9",wlo7cr93ssxa7fq,23,"[""White""]",No,Male,NA,Yes,424719.5,NA,null,<p></p>,null,choice,dtc,trinary,repulsion_B,1,microwave ovens,null,null,null,null,null,null,2,NA,NA,NA,NA,NA,NA,NA,NA,NA,NA
NA,NA,NA,NA,NA,choice_trial,survey-html-form,27,129744,0.0-4.0-1.11,248,1,2025-05-06T15:45:41Z,b60275e29fe2361ab97ac0ac217840d7,"Mozilla/5.0 (Windows NT 10.0; Win64; x64) AppleWebKit/537.36 (KHTML, like Gecko) Chrome/135.0.0.0 Safari/537.36",WebKit,Chrome,135.0.0.0,Windows,10,https://5puzkbbxv1.cognition.run/?sona_id=56812,"en-US,en;q=0.9",wlo7cr93ssxa7fq,23,"[""White""]",No,Male,NA,Yes,424719.5,NA,4050,NA,"{""product_choice"":""C""}",choice,dtc,trinary,repulsion_B,1,microwave ovens,null,null,null,null,null,null,2,90,100,80,40,30,40,Warranty,Cooking power,NA,NA
NA,NA,NA,NA,NA,choice_trial_setup,html-keyboard-response,28,130046,0.0-4.0-0.12,248,1,2025-05-06T15:45:41Z,b60275e29fe2361ab97ac0ac217840d7,"Mozilla/5.0 (Windows NT 10.0; Win64; x64) AppleWebKit/537.36 (KHTML, like Gecko) Chrome/135.0.0.0 Safari/537.36",WebKit,Chrome,135.0.0.0,Windows,10,https://5puzkbbxv1.cognition.run/?sona_id=56812,"en-US,en;q=0.9",wlo7cr93ssxa7fq,23,"[""White""]",No,Male,NA,Yes,424719.5,NA,null,<p></p>,null,choice,bw,binary,catch,null,laptops,75,60,15,50,null,null,1,NA,NA,NA,NA,NA,NA,NA,NA,NA,NA
NA,NA,NA,NA,NA,choice_trial,survey-html-form,29,135752,0.0-4.0-1.12,248,1,2025-05-06T15:45:41Z,b60275e29fe2361ab97ac0ac217840d7,"Mozilla/5.0 (Windows NT 10.0; Win64; x64) AppleWebKit/537.36 (KHTML, like Gecko) Chrome/135.0.0.0 Safari/537.36",WebKit,Chrome,135.0.0.0,Windows,10,https://5puzkbbxv1.cognition.run/?sona_id=56812,"en-US,en;q=0.9",wlo7cr93ssxa7fq,23,"[""White""]",No,Male,NA,Yes,424719.5,NA,5704,NA,"{""product_choice"":""A""}",choice,bw,binary,catch,null,laptops,75,60,15,50,null,null,1,null,null,null,null,null,null,Processing speed,Memory (RAM),NA,NA
NA,NA,NA,NA,NA,choice_trial_setup,html-keyboard-response,30,136060,0.0-4.0-0.13,248,1,2025-05-06T15:45:41Z,b60275e29fe2361ab97ac0ac217840d7,"Mozilla/5.0 (Windows NT 10.0; Win64; x64) AppleWebKit/537.36 (KHTML, like Gecko) Chrome/135.0.0.0 Safari/537.36",WebKit,Chrome,135.0.0.0,Windows,10,https://5puzkbbxv1.cognition.run/?sona_id=56812,"en-US,en;q=0.9",wlo7cr93ssxa7fq,23,"[""White""]",No,Male,NA,Yes,424719.5,NA,null,<p></p>,null,choice,bw,binary,catch,null,washing machines,50,70,20,50,null,null,2,NA,NA,NA,NA,NA,NA,NA,NA,NA,NA
NA,NA,NA,NA,NA,choice_trial,survey-html-form,31,139069,0.0-4.0-1.13,248,1,2025-05-06T15:45:41Z,b60275e29fe2361ab97ac0ac217840d7,"Mozilla/5.0 (Windows NT 10.0; Win64; x64) AppleWebKit/537.36 (KHTML, like Gecko) Chrome/135.0.0.0 Safari/537.36",WebKit,Chrome,135.0.0.0,Windows,10,https://5puzkbbxv1.cognition.run/?sona_id=56812,"en-US,en;q=0.9",wlo7cr93ssxa7fq,23,"[""White""]",No,Male,NA,Yes,424719.5,NA,3008,NA,"{""product_choice"":""A""}",choice,bw,binary,catch,null,washing machines,50,70,20,50,null,null,2,null,null,null,null,null,null,Average lifespan,Energy savings,NA,NA
NA,NA,NA,NA,NA,choice_trial_setup,html-keyboard-response,32,139372,0.0-4.0-0.14,248,1,2025-05-06T15:45:41Z,b60275e29fe2361ab97ac0ac217840d7,"Mozilla/5.0 (Windows NT 10.0; Win64; x64) AppleWebKit/537.36 (KHTML, like Gecko) Chrome/135.0.0.0 Safari/537.36",WebKit,Chrome,135.0.0.0,Windows,10,https://5puzkbbxv1.cognition.run/?sona_id=56812,"en-US,en;q=0.9",wlo7cr93ssxa7fq,23,"[""White""]",No,Male,NA,Yes,424719.5,NA,null,<p></p>,null,choice,wbw,trinary,catch,null,washing machines,95,90,5,45,50,20,2,NA,NA,NA,NA,NA,NA,NA,NA,NA,NA
NA,NA,NA,NA,NA,choice_trial,survey-html-form,33,142879,0.0-4.0-1.14,248,1,2025-05-06T15:45:41Z,b60275e29fe2361ab97ac0ac217840d7,"Mozilla/5.0 (Windows NT 10.0; Win64; x64) AppleWebKit/537.36 (KHTML, like Gecko) Chrome/135.0.0.0 Safari/537.36",WebKit,Chrome,135.0.0.0,Windows,10,https://5puzkbbxv1.cognition.run/?sona_id=56812,"en-US,en;q=0.9",wlo7cr93ssxa7fq,23,"[""White""]",No,Male,NA,Yes,424719.5,NA,3505,NA,"{""product_choice"":""B""}",choice,wbw,trinary,catch,null,washing machines,95,90,5,45,50,20,2,null,null,null,null,null,null,Average lifespan,Energy savings,NA,NA
NA,NA,NA,NA,NA,choice_trial_setup,html-keyboard-response,34,143185,0.0-4.0-0.15,248,1,2025-05-06T15:45:41Z,b60275e29fe2361ab97ac0ac217840d7,"Mozilla/5.0 (Windows NT 10.0; Win64; x64) AppleWebKit/537.36 (KHTML, like Gecko) Chrome/135.0.0.0 Safari/537.36",WebKit,Chrome,135.0.0.0,Windows,10,https://5puzkbbxv1.cognition.run/?sona_id=56812,"en-US,en;q=0.9",wlo7cr93ssxa7fq,23,"[""White""]",No,Male,NA,Yes,424719.5,NA,null,<p></p>,null,choice,dct,trinary,repulsion_A,1,televisions,null,null,null,null,null,null,1,NA,NA,NA,NA,NA,NA,NA,NA,NA,NA
NA,NA,NA,NA,NA,choice_trial,survey-html-form,35,148345,0.0-4.0-1.15,248,1,2025-05-06T15:45:41Z,b60275e29fe2361ab97ac0ac217840d7,"Mozilla/5.0 (Windows NT 10.0; Win64; x64) AppleWebKit/537.36 (KHTML, like Gecko) Chrome/135.0.0.0 Safari/537.36",WebKit,Chrome,135.0.0.0,Windows,10,https://5puzkbbxv1.cognition.run/?sona_id=56812,"en-US,en;q=0.9",wlo7cr93ssxa7fq,23,"[""White""]",No,Male,NA,Yes,424719.5,NA,5158,NA,"{""product_choice"":""B""}",choice,dct,trinary,repulsion_A,1,televisions,null,null,null,null,null,null,1,100,90,100,30,40,20,Screen size,Average lifespan,NA,NA
NA,NA,NA,NA,NA,choice_trial_setup,html-keyboard-response,36,148653,0.0-4.0-0.16,248,1,2025-05-06T15:45:41Z,b60275e29fe2361ab97ac0ac217840d7,"Mozilla/5.0 (Windows NT 10.0; Win64; x64) AppleWebKit/537.36 (KHTML, like Gecko) Chrome/135.0.0.0 Safari/537.36",WebKit,Chrome,135.0.0.0,Windows,10,https://5puzkbbxv1.cognition.run/?sona_id=56812,"en-US,en;q=0.9",wlo7cr93ssxa7fq,23,"[""White""]",No,Male,NA,Yes,424719.5,NA,null,<p></p>,null,choice,tcd,trinary,repulsion_A,1,laptops,null,null,null,null,null,null,2,NA,NA,NA,NA,NA,NA,NA,NA,NA,NA
NA,NA,NA,NA,NA,choice_trial,survey-html-form,37,152541,0.0-4.0-1.16,248,1,2025-05-06T15:45:41Z,b60275e29fe2361ab97ac0ac217840d7,"Mozilla/5.0 (Windows NT 10.0; Win64; x64) AppleWebKit/537.36 (KHTML, like Gecko) Chrome/135.0.0.0 Safari/537.36",WebKit,Chrome,135.0.0.0,Windows,10,https://5puzkbbxv1.cognition.run/?sona_id=56812,"en-US,en;q=0.9",wlo7cr93ssxa7fq,23,"[""White""]",No,Male,NA,Yes,424719.5,NA,3886,NA,"{""product_choice"":""A""}",choice,tcd,trinary,repulsion_A,1,laptops,null,null,null,null,null,null,2,100,90,100,30,40,20,Processing speed,Memory (RAM),NA,NA
NA,NA,NA,NA,NA,choice_trial_setup,html-keyboard-response,38,152847,0.0-4.0-0.17,248,1,2025-05-06T15:45:41Z,b60275e29fe2361ab97ac0ac217840d7,"Mozilla/5.0 (Windows NT 10.0; Win64; x64) AppleWebKit/537.36 (KHTML, like Gecko) Chrome/135.0.0.0 Safari/537.36",WebKit,Chrome,135.0.0.0,Windows,10,https://5puzkbbxv1.cognition.run/?sona_id=56812,"en-US,en;q=0.9",wlo7cr93ssxa7fq,23,"[""White""]",No,Male,NA,Yes,424719.5,NA,null,<p></p>,null,choice,ctd,trinary,repulsion_B,2,laptops,null,null,null,null,null,null,1,NA,NA,NA,NA,NA,NA,NA,NA,NA,NA
NA,NA,NA,NA,NA,choice_trial,survey-html-form,39,158612,0.0-4.0-1.17,248,1,2025-05-06T15:45:41Z,b60275e29fe2361ab97ac0ac217840d7,"Mozilla/5.0 (Windows NT 10.0; Win64; x64) AppleWebKit/537.36 (KHTML, like Gecko) Chrome/135.0.0.0 Safari/537.36",WebKit,Chrome,135.0.0.0,Windows,10,https://5puzkbbxv1.cognition.run/?sona_id=56812,"en-US,en;q=0.9",wlo7cr93ssxa7fq,23,"[""White""]",No,Male,NA,Yes,424719.5,NA,5764,NA,"{""product_choice"":""B""}",choice,ctd,trinary,repulsion_B,2,laptops,null,null,null,null,null,null,1,40,30,40,90,100,80,Processing speed,Memory (RAM),NA,NA
NA,NA,NA,NA,NA,choice_trial_setup,html-keyboard-response,40,158922,0.0-4.0-0.18,248,1,2025-05-06T15:45:41Z,b60275e29fe2361ab97ac0ac217840d7,"Mozilla/5.0 (Windows NT 10.0; Win64; x64) AppleWebKit/537.36 (KHTML, like Gecko) Chrome/135.0.0.0 Safari/537.36",WebKit,Chrome,135.0.0.0,Windows,10,https://5puzkbbxv1.cognition.run/?sona_id=56812,"en-US,en;q=0.9",wlo7cr93ssxa7fq,23,"[""White""]",No,Male,NA,Yes,424719.5,NA,null,<p></p>,null,choice,tcd,trinary,repulsion_A,1,microwave ovens,null,null,null,null,null,null,1,NA,NA,NA,NA,NA,NA,NA,NA,NA,NA
NA,NA,NA,NA,NA,choice_trial,survey-html-form,41,163160,0.0-4.0-1.18,248,1,2025-05-06T15:45:41Z,b60275e29fe2361ab97ac0ac217840d7,"Mozilla/5.0 (Windows NT 10.0; Win64; x64) AppleWebKit/537.36 (KHTML, like Gecko) Chrome/135.0.0.0 Safari/537.36",WebKit,Chrome,135.0.0.0,Windows,10,https://5puzkbbxv1.cognition.run/?sona_id=56812,"en-US,en;q=0.9",wlo7cr93ssxa7fq,23,"[""White""]",No,Male,NA,Yes,424719.5,NA,4236,NA,"{""product_choice"":""A""}",choice,tcd,trinary,repulsion_A,1,microwave ovens,null,null,null,null,null,null,1,100,90,100,30,40,20,Warranty,Cooking power,NA,NA
NA,NA,NA,NA,NA,choice_trial_setup,html-keyboard-response,42,163464,0.0-4.0-0.19,248,1,2025-05-06T15:45:41Z,b60275e29fe2361ab97ac0ac217840d7,"Mozilla/5.0 (Windows NT 10.0; Win64; x64) AppleWebKit/537.36 (KHTML, like Gecko) Chrome/135.0.0.0 Safari/537.36",WebKit,Chrome,135.0.0.0,Windows,10,https://5puzkbbxv1.cognition.run/?sona_id=56812,"en-US,en;q=0.9",wlo7cr93ssxa7fq,23,"[""White""]",No,Male,NA,Yes,424719.5,NA,null,<p></p>,null,choice,cdt,trinary,attraction,1,televisions,null,null,null,null,null,null,2,NA,NA,NA,NA,NA,NA,NA,NA,NA,NA
NA,NA,NA,NA,NA,choice_trial,survey-html-form,43,167048,0.0-4.0-1.19,248,1,2025-05-06T15:45:41Z,b60275e29fe2361ab97ac0ac217840d7,"Mozilla/5.0 (Windows NT 10.0; Win64; x64) AppleWebKit/537.36 (KHTML, like Gecko) Chrome/135.0.0.0 Safari/537.36",WebKit,Chrome,135.0.0.0,Windows,10,https://5puzkbbxv1.cognition.run/?sona_id=56812,"en-US,en;q=0.9",wlo7cr93ssxa7fq,23,"[""White""]",No,Male,NA,Yes,424719.5,NA,3582,NA,"{""product_choice"":""A""}",choice,cdt,trinary,attraction,1,televisions,null,null,null,null,null,null,2,60,50,60,50,60,40,Screen size,Average lifespan,NA,NA
NA,NA,NA,NA,NA,choice_trial_setup,html-keyboard-response,44,167351,0.0-4.0-0.20,248,1,2025-05-06T15:45:41Z,b60275e29fe2361ab97ac0ac217840d7,"Mozilla/5.0 (Windows NT 10.0; Win64; x64) AppleWebKit/537.36 (KHTML, like Gecko) Chrome/135.0.0.0 Safari/537.36",WebKit,Chrome,135.0.0.0,Windows,10,https://5puzkbbxv1.cognition.run/?sona_id=56812,"en-US,en;q=0.9",wlo7cr93ssxa7fq,23,"[""White""]",No,Male,NA,Yes,424719.5,NA,null,<p></p>,null,choice,ct,binary,repulsion,2,microwave ovens,null,null,null,null,null,null,1,NA,NA,NA,NA,NA,NA,NA,NA,NA,NA
NA,NA,NA,NA,NA,choice_trial,survey-html-form,45,170620,0.0-4.0-1.20,248,1,2025-05-06T15:45:41Z,b60275e29fe2361ab97ac0ac217840d7,"Mozilla/5.0 (Windows NT 10.0; Win64; x64) AppleWebKit/537.36 (KHTML, like Gecko) Chrome/135.0.0.0 Safari/537.36",WebKit,Chrome,135.0.0.0,Windows,10,https://5puzkbbxv1.cognition.run/?sona_id=56812,"en-US,en;q=0.9",wlo7cr93ssxa7fq,23,"[""White""]",No,Male,NA,Yes,424719.5,NA,3268,NA,"{""product_choice"":""A""}",choice,ct,binary,repulsion,2,microwave ovens,null,null,null,null,null,null,1,30,40,null,100,90,null,Warranty,Cooking power,NA,NA
NA,NA,NA,NA,NA,choice_trial_setup,html-keyboard-response,46,170929,0.0-4.0-0.21,248,1,2025-05-06T15:45:41Z,b60275e29fe2361ab97ac0ac217840d7,"Mozilla/5.0 (Windows NT 10.0; Win64; x64) AppleWebKit/537.36 (KHTML, like Gecko) Chrome/135.0.0.0 Safari/537.36",WebKit,Chrome,135.0.0.0,Windows,10,https://5puzkbbxv1.cognition.run/?sona_id=56812,"en-US,en;q=0.9",wlo7cr93ssxa7fq,23,"[""White""]",No,Male,NA,Yes,424719.5,NA,null,<p></p>,null,choice,tc,binary,repulsion,1,televisions,null,null,null,null,null,null,2,NA,NA,NA,NA,NA,NA,NA,NA,NA,NA
NA,NA,NA,NA,NA,choice_trial,survey-html-form,47,176895,0.0-4.0-1.21,248,1,2025-05-06T15:45:41Z,b60275e29fe2361ab97ac0ac217840d7,"Mozilla/5.0 (Windows NT 10.0; Win64; x64) AppleWebKit/537.36 (KHTML, like Gecko) Chrome/135.0.0.0 Safari/537.36",WebKit,Chrome,135.0.0.0,Windows,10,https://5puzkbbxv1.cognition.run/?sona_id=56812,"en-US,en;q=0.9",wlo7cr93ssxa7fq,23,"[""White""]",No,Male,NA,Yes,424719.5,NA,5964,NA,"{""product_choice"":""B""}",choice,tc,binary,repulsion,1,televisions,null,null,null,null,null,null,2,100,90,null,30,40,null,Screen size,Average lifespan,NA,NA
NA,NA,NA,NA,NA,choice_trial_setup,html-keyboard-response,48,177203,0.0-4.0-0.22,248,1,2025-05-06T15:45:41Z,b60275e29fe2361ab97ac0ac217840d7,"Mozilla/5.0 (Windows NT 10.0; Win64; x64) AppleWebKit/537.36 (KHTML, like Gecko) Chrome/135.0.0.0 Safari/537.36",WebKit,Chrome,135.0.0.0,Windows,10,https://5puzkbbxv1.cognition.run/?sona_id=56812,"en-US,en;q=0.9",wlo7cr93ssxa7fq,23,"[""White""]",No,Male,NA,Yes,424719.5,NA,null,<p></p>,null,choice,tc,binary,attraction,NA,washing machines,null,null,null,null,null,null,1,NA,NA,NA,NA,NA,NA,NA,NA,NA,NA
NA,NA,NA,NA,NA,choice_trial,survey-html-form,49,181322,0.0-4.0-1.22,248,1,2025-05-06T15:45:41Z,b60275e29fe2361ab97ac0ac217840d7,"Mozilla/5.0 (Windows NT 10.0; Win64; x64) AppleWebKit/537.36 (KHTML, like Gecko) Chrome/135.0.0.0 Safari/537.36",WebKit,Chrome,135.0.0.0,Windows,10,https://5puzkbbxv1.cognition.run/?sona_id=56812,"en-US,en;q=0.9",wlo7cr93ssxa7fq,23,"[""White""]",No,Male,NA,Yes,424719.5,NA,4114,NA,"{""product_choice"":""B""}",choice,tc,binary,attraction,NA,washing machines,null,null,null,null,null,null,1,60,50,null,50,60,null,Average lifespan,Energy savings,NA,NA
NA,NA,NA,NA,NA,choice_trial_setup,html-keyboard-response,50,181626,0.0-4.0-0.23,248,1,2025-05-06T15:45:41Z,b60275e29fe2361ab97ac0ac217840d7,"Mozilla/5.0 (Windows NT 10.0; Win64; x64) AppleWebKit/537.36 (KHTML, like Gecko) Chrome/135.0.0.0 Safari/537.36",WebKit,Chrome,135.0.0.0,Windows,10,https://5puzkbbxv1.cognition.run/?sona_id=56812,"en-US,en;q=0.9",wlo7cr93ssxa7fq,23,"[""White""]",No,Male,NA,Yes,424719.5,NA,null,<p></p>,null,choice,tdc,trinary,attraction,2,washing machines,null,null,null,null,null,null,2,NA,NA,NA,NA,NA,NA,NA,NA,NA,NA
NA,NA,NA,NA,NA,choice_trial,survey-html-form,51,184372,0.0-4.0-1.23,248,1,2025-05-06T15:45:41Z,b60275e29fe2361ab97ac0ac217840d7,"Mozilla/5.0 (Windows NT 10.0; Win64; x64) AppleWebKit/537.36 (KHTML, like Gecko) Chrome/135.0.0.0 Safari/537.36",WebKit,Chrome,135.0.0.0,Windows,10,https://5puzkbbxv1.cognition.run/?sona_id=56812,"en-US,en;q=0.9",wlo7cr93ssxa7fq,23,"[""White""]",No,Male,NA,Yes,424719.5,NA,2743,NA,"{""product_choice"":""C""}",choice,tdc,trinary,attraction,2,washing machines,null,null,null,null,null,null,2,50,60,40,60,50,60,Average lifespan,Energy savings,NA,NA
NA,NA,NA,NA,NA,choice_trial_setup,html-keyboard-response,52,184676,0.0-4.0-0.24,248,1,2025-05-06T15:45:41Z,b60275e29fe2361ab97ac0ac217840d7,"Mozilla/5.0 (Windows NT 10.0; Win64; x64) AppleWebKit/537.36 (KHTML, like Gecko) Chrome/135.0.0.0 Safari/537.36",WebKit,Chrome,135.0.0.0,Windows,10,https://5puzkbbxv1.cognition.run/?sona_id=56812,"en-US,en;q=0.9",wlo7cr93ssxa7fq,23,"[""White""]",No,Male,NA,Yes,424719.5,NA,null,<p></p>,null,choice,tc,binary,repulsion,2,washing machines,null,null,null,null,null,null,1,NA,NA,NA,NA,NA,NA,NA,NA,NA,NA
NA,NA,NA,NA,NA,choice_trial,survey-html-form,53,188220,0.0-4.0-1.24,248,1,2025-05-06T15:45:41Z,b60275e29fe2361ab97ac0ac217840d7,"Mozilla/5.0 (Windows NT 10.0; Win64; x64) AppleWebKit/537.36 (KHTML, like Gecko) Chrome/135.0.0.0 Safari/537.36",WebKit,Chrome,135.0.0.0,Windows,10,https://5puzkbbxv1.cognition.run/?sona_id=56812,"en-US,en;q=0.9",wlo7cr93ssxa7fq,23,"[""White""]",No,Male,NA,Yes,424719.5,NA,3542,NA,"{""product_choice"":""B""}",choice,tc,binary,repulsion,2,washing machines,null,null,null,null,null,null,1,30,40,null,100,90,null,Average lifespan,Energy savings,NA,NA
NA,NA,NA,NA,NA,choice_trial_setup,html-keyboard-response,54,188528,0.0-4.0-0.25,248,1,2025-05-06T15:45:41Z,b60275e29fe2361ab97ac0ac217840d7,"Mozilla/5.0 (Windows NT 10.0; Win64; x64) AppleWebKit/537.36 (KHTML, like Gecko) Chrome/135.0.0.0 Safari/537.36",WebKit,Chrome,135.0.0.0,Windows,10,https://5puzkbbxv1.cognition.run/?sona_id=56812,"en-US,en;q=0.9",wlo7cr93ssxa7fq,23,"[""White""]",No,Male,NA,Yes,424719.5,NA,null,<p></p>,null,choice,bw,binary,catch,null,microwave ovens,90,85,35,45,null,null,2,NA,NA,NA,NA,NA,NA,NA,NA,NA,NA
NA,NA,NA,NA,NA,choice_trial,survey-html-form,55,191442,0.0-4.0-1.25,248,1,2025-05-06T15:45:41Z,b60275e29fe2361ab97ac0ac217840d7,"Mozilla/5.0 (Windows NT 10.0; Win64; x64) AppleWebKit/537.36 (KHTML, like Gecko) Chrome/135.0.0.0 Safari/537.36",WebKit,Chrome,135.0.0.0,Windows,10,https://5puzkbbxv1.cognition.run/?sona_id=56812,"en-US,en;q=0.9",wlo7cr93ssxa7fq,23,"[""White""]",No,Male,NA,Yes,424719.5,NA,2913,NA,"{""product_choice"":""A""}",choice,bw,binary,catch,null,microwave ovens,90,85,35,45,null,null,2,null,null,null,null,null,null,Warranty,Cooking power,NA,NA
NA,NA,NA,NA,NA,choice_trial_setup,html-keyboard-response,56,191751,0.0-4.0-0.26,248,1,2025-05-06T15:45:41Z,b60275e29fe2361ab97ac0ac217840d7,"Mozilla/5.0 (Windows NT 10.0; Win64; x64) AppleWebKit/537.36 (KHTML, like Gecko) Chrome/135.0.0.0 Safari/537.36",WebKit,Chrome,135.0.0.0,Windows,10,https://5puzkbbxv1.cognition.run/?sona_id=56812,"en-US,en;q=0.9",wlo7cr93ssxa7fq,23,"[""White""]",No,Male,NA,Yes,424719.5,NA,null,<p></p>,null,choice,tdc,trinary,repulsion_B,2,washing machines,null,null,null,null,null,null,2,NA,NA,NA,NA,NA,NA,NA,NA,NA,NA
NA,NA,NA,NA,NA,choice_trial,survey-html-form,57,196213,0.0-4.0-1.26,248,1,2025-05-06T15:45:41Z,b60275e29fe2361ab97ac0ac217840d7,"Mozilla/5.0 (Windows NT 10.0; Win64; x64) AppleWebKit/537.36 (KHTML, like Gecko) Chrome/135.0.0.0 Safari/537.36",WebKit,Chrome,135.0.0.0,Windows,10,https://5puzkbbxv1.cognition.run/?sona_id=56812,"en-US,en;q=0.9",wlo7cr93ssxa7fq,23,"[""White""]",No,Male,NA,Yes,424719.5,NA,4459,NA,"{""product_choice"":""A""}",choice,tdc,trinary,repulsion_B,2,washing machines,null,null,null,null,null,null,2,40,30,40,90,100,80,Average lifespan,Energy savings,NA,NA
NA,NA,NA,NA,NA,choice_trial_setup,html-keyboard-response,58,196514,0.0-4.0-0.27,248,1,2025-05-06T15:45:41Z,b60275e29fe2361ab97ac0ac217840d7,"Mozilla/5.0 (Windows NT 10.0; Win64; x64) AppleWebKit/537.36 (KHTML, like Gecko) Chrome/135.0.0.0 Safari/537.36",WebKit,Chrome,135.0.0.0,Windows,10,https://5puzkbbxv1.cognition.run/?sona_id=56812,"en-US,en;q=0.9",wlo7cr93ssxa7fq,23,"[""White""]",No,Male,NA,Yes,424719.5,NA,null,<p></p>,null,choice,dct,trinary,repulsion_B,2,televisions,null,null,null,null,null,null,2,NA,NA,NA,NA,NA,NA,NA,NA,NA,NA
NA,NA,NA,NA,NA,choice_trial,survey-html-form,59,200084,0.0-4.0-1.27,248,1,2025-05-06T15:45:41Z,b60275e29fe2361ab97ac0ac217840d7,"Mozilla/5.0 (Windows NT 10.0; Win64; x64) AppleWebKit/537.36 (KHTML, like Gecko) Chrome/135.0.0.0 Safari/537.36",WebKit,Chrome,135.0.0.0,Windows,10,https://5puzkbbxv1.cognition.run/?sona_id=56812,"en-US,en;q=0.9",wlo7cr93ssxa7fq,23,"[""White""]",No,Male,NA,Yes,424719.5,NA,3568,NA,"{""product_choice"":""C""}",choice,dct,trinary,repulsion_B,2,televisions,null,null,null,null,null,null,2,40,30,40,90,100,80,Screen size,Average lifespan,NA,NA
NA,NA,NA,NA,NA,choice_trial_setup,html-keyboard-response,60,200392,0.0-4.0-0.28,248,1,2025-05-06T15:45:41Z,b60275e29fe2361ab97ac0ac217840d7,"Mozilla/5.0 (Windows NT 10.0; Win64; x64) AppleWebKit/537.36 (KHTML, like Gecko) Chrome/135.0.0.0 Safari/537.36",WebKit,Chrome,135.0.0.0,Windows,10,https://5puzkbbxv1.cognition.run/?sona_id=56812,"en-US,en;q=0.9",wlo7cr93ssxa7fq,23,"[""White""]",No,Male,NA,Yes,424719.5,NA,null,<p></p>,null,choice,wbw,trinary,catch,null,televisions,55,75,10,30,5,45,2,NA,NA,NA,NA,NA,NA,NA,NA,NA,NA
NA,NA,NA,NA,NA,choice_trial,survey-html-form,61,203560,0.0-4.0-1.28,248,1,2025-05-06T15:45:41Z,b60275e29fe2361ab97ac0ac217840d7,"Mozilla/5.0 (Windows NT 10.0; Win64; x64) AppleWebKit/537.36 (KHTML, like Gecko) Chrome/135.0.0.0 Safari/537.36",WebKit,Chrome,135.0.0.0,Windows,10,https://5puzkbbxv1.cognition.run/?sona_id=56812,"en-US,en;q=0.9",wlo7cr93ssxa7fq,23,"[""White""]",No,Male,NA,Yes,424719.5,NA,3166,NA,"{""product_choice"":""B""}",choice,wbw,trinary,catch,null,televisions,55,75,10,30,5,45,2,null,null,null,null,null,null,Screen size,Average lifespan,NA,NA
NA,NA,NA,NA,NA,choice_trial_setup,html-keyboard-response,62,203866,0.0-4.0-0.29,248,1,2025-05-06T15:45:41Z,b60275e29fe2361ab97ac0ac217840d7,"Mozilla/5.0 (Windows NT 10.0; Win64; x64) AppleWebKit/537.36 (KHTML, like Gecko) Chrome/135.0.0.0 Safari/537.36",WebKit,Chrome,135.0.0.0,Windows,10,https://5puzkbbxv1.cognition.run/?sona_id=56812,"en-US,en;q=0.9",wlo7cr93ssxa7fq,23,"[""White""]",No,Male,NA,Yes,424719.5,NA,null,<p></p>,null,choice,ct,binary,repulsion,2,televisions,null,null,null,null,null,null,1,NA,NA,NA,NA,NA,NA,NA,NA,NA,NA
NA,NA,NA,NA,NA,choice_trial,survey-html-form,63,207531,0.0-4.0-1.29,248,1,2025-05-06T15:45:41Z,b60275e29fe2361ab97ac0ac217840d7,"Mozilla/5.0 (Windows NT 10.0; Win64; x64) AppleWebKit/537.36 (KHTML, like Gecko) Chrome/135.0.0.0 Safari/537.36",WebKit,Chrome,135.0.0.0,Windows,10,https://5puzkbbxv1.cognition.run/?sona_id=56812,"en-US,en;q=0.9",wlo7cr93ssxa7fq,23,"[""White""]",No,Male,NA,Yes,424719.5,NA,3662,NA,"{""product_choice"":""A""}",choice,ct,binary,repulsion,2,televisions,null,null,null,null,null,null,1,30,40,null,100,90,null,Screen size,Average lifespan,NA,NA
NA,NA,NA,NA,NA,choice_trial_setup,html-keyboard-response,64,207833,0.0-4.0-0.30,248,1,2025-05-06T15:45:41Z,b60275e29fe2361ab97ac0ac217840d7,"Mozilla/5.0 (Windows NT 10.0; Win64; x64) AppleWebKit/537.36 (KHTML, like Gecko) Chrome/135.0.0.0 Safari/537.36",WebKit,Chrome,135.0.0.0,Windows,10,https://5puzkbbxv1.cognition.run/?sona_id=56812,"en-US,en;q=0.9",wlo7cr93ssxa7fq,23,"[""White""]",No,Male,NA,Yes,424719.5,NA,null,<p></p>,null,choice,cdt,trinary,repulsion_A,2,laptops,null,null,null,null,null,null,2,NA,NA,NA,NA,NA,NA,NA,NA,NA,NA
NA,NA,NA,NA,NA,choice_trial,survey-html-form,65,210867,0.0-4.0-1.30,248,1,2025-05-06T15:45:41Z,b60275e29fe2361ab97ac0ac217840d7,"Mozilla/5.0 (Windows NT 10.0; Win64; x64) AppleWebKit/537.36 (KHTML, like Gecko) Chrome/135.0.0.0 Safari/537.36",WebKit,Chrome,135.0.0.0,Windows,10,https://5puzkbbxv1.cognition.run/?sona_id=56812,"en-US,en;q=0.9",wlo7cr93ssxa7fq,23,"[""White""]",No,Male,NA,Yes,424719.5,NA,3032,NA,"{""product_choice"":""A""}",choice,cdt,trinary,repulsion_A,2,laptops,null,null,null,null,null,null,2,30,40,20,100,90,100,Processing speed,Memory (RAM),NA,NA
NA,NA,NA,NA,NA,choice_trial_setup,html-keyboard-response,66,211175,0.0-4.0-0.31,248,1,2025-05-06T15:45:41Z,b60275e29fe2361ab97ac0ac217840d7,"Mozilla/5.0 (Windows NT 10.0; Win64; x64) AppleWebKit/537.36 (KHTML, like Gecko) Chrome/135.0.0.0 Safari/537.36",WebKit,Chrome,135.0.0.0,Windows,10,https://5puzkbbxv1.cognition.run/?sona_id=56812,"en-US,en;q=0.9",wlo7cr93ssxa7fq,23,"[""White""]",No,Male,NA,Yes,424719.5,NA,null,<p></p>,null,choice,ctd,trinary,repulsion_A,1,washing machines,null,null,null,null,null,null,2,NA,NA,NA,NA,NA,NA,NA,NA,NA,NA
NA,NA,NA,NA,NA,choice_trial,survey-html-form,67,213982,0.0-4.0-1.31,248,1,2025-05-06T15:45:41Z,b60275e29fe2361ab97ac0ac217840d7,"Mozilla/5.0 (Windows NT 10.0; Win64; x64) AppleWebKit/537.36 (KHTML, like Gecko) Chrome/135.0.0.0 Safari/537.36",WebKit,Chrome,135.0.0.0,Windows,10,https://5puzkbbxv1.cognition.run/?sona_id=56812,"en-US,en;q=0.9",wlo7cr93ssxa7fq,23,"[""White""]",No,Male,NA,Yes,424719.5,NA,2805,NA,"{""product_choice"":""A""}",choice,ctd,trinary,repulsion_A,1,washing machines,null,null,null,null,null,null,2,100,90,100,30,40,20,Average lifespan,Energy savings,NA,NA
NA,NA,NA,NA,NA,choice_trial_setup,html-keyboard-response,68,214287,0.0-4.0-0.32,248,1,2025-05-06T15:45:41Z,b60275e29fe2361ab97ac0ac217840d7,"Mozilla/5.0 (Windows NT 10.0; Win64; x64) AppleWebKit/537.36 (KHTML, like Gecko) Chrome/135.0.0.0 Safari/537.36",WebKit,Chrome,135.0.0.0,Windows,10,https://5puzkbbxv1.cognition.run/?sona_id=56812,"en-US,en;q=0.9",wlo7cr93ssxa7fq,23,"[""White""]",No,Male,NA,Yes,424719.5,NA,null,<p></p>,null,choice,ctd,trinary,attraction,2,laptops,null,null,null,null,null,null,2,NA,NA,NA,NA,NA,NA,NA,NA,NA,NA
NA,NA,NA,NA,NA,choice_trial,survey-html-form,69,216400,0.0-4.0-1.32,248,1,2025-05-06T15:45:41Z,b60275e29fe2361ab97ac0ac217840d7,"Mozilla/5.0 (Windows NT 10.0; Win64; x64) AppleWebKit/537.36 (KHTML, like Gecko) Chrome/135.0.0.0 Safari/537.36",WebKit,Chrome,135.0.0.0,Windows,10,https://5puzkbbxv1.cognition.run/?sona_id=56812,"en-US,en;q=0.9",wlo7cr93ssxa7fq,23,"[""White""]",No,Male,NA,Yes,424719.5,NA,2110,NA,"{""product_choice"":""B""}",choice,ctd,trinary,attraction,2,laptops,null,null,null,null,null,null,2,50,60,40,60,50,60,Processing speed,Memory (RAM),NA,NA
NA,NA,NA,NA,NA,choice_trial_setup,html-keyboard-response,70,216705,0.0-4.0-0.33,248,1,2025-05-06T15:45:41Z,b60275e29fe2361ab97ac0ac217840d7,"Mozilla/5.0 (Windows NT 10.0; Win64; x64) AppleWebKit/537.36 (KHTML, like Gecko) Chrome/135.0.0.0 Safari/537.36",WebKit,Chrome,135.0.0.0,Windows,10,https://5puzkbbxv1.cognition.run/?sona_id=56812,"en-US,en;q=0.9",wlo7cr93ssxa7fq,23,"[""White""]",No,Male,NA,Yes,424719.5,NA,null,<p></p>,null,choice,dct,trinary,repulsion_B,2,microwave ovens,null,null,null,null,null,null,1,NA,NA,NA,NA,NA,NA,NA,NA,NA,NA
NA,NA,NA,NA,NA,choice_trial,survey-html-form,71,220045,0.0-4.0-1.33,248,1,2025-05-06T15:45:41Z,b60275e29fe2361ab97ac0ac217840d7,"Mozilla/5.0 (Windows NT 10.0; Win64; x64) AppleWebKit/537.36 (KHTML, like Gecko) Chrome/135.0.0.0 Safari/537.36",WebKit,Chrome,135.0.0.0,Windows,10,https://5puzkbbxv1.cognition.run/?sona_id=56812,"en-US,en;q=0.9",wlo7cr93ssxa7fq,23,"[""White""]",No,Male,NA,Yes,424719.5,NA,3338,NA,"{""product_choice"":""C""}",choice,dct,trinary,repulsion_B,2,microwave ovens,null,null,null,null,null,null,1,40,30,40,90,100,80,Warranty,Cooking power,NA,NA
NA,NA,NA,NA,NA,choice_trial_setup,html-keyboard-response,72,220349,0.0-4.0-0.34,248,1,2025-05-06T15:45:41Z,b60275e29fe2361ab97ac0ac217840d7,"Mozilla/5.0 (Windows NT 10.0; Win64; x64) AppleWebKit/537.36 (KHTML, like Gecko) Chrome/135.0.0.0 Safari/537.36",WebKit,Chrome,135.0.0.0,Windows,10,https://5puzkbbxv1.cognition.run/?sona_id=56812,"en-US,en;q=0.9",wlo7cr93ssxa7fq,23,"[""White""]",No,Male,NA,Yes,424719.5,NA,null,<p></p>,null,choice,bw,binary,catch,null,televisions,75,50,20,40,null,null,1,NA,NA,NA,NA,NA,NA,NA,NA,NA,NA
NA,NA,NA,NA,NA,choice_trial,survey-html-form,73,223101,0.0-4.0-1.34,248,1,2025-05-06T15:45:41Z,b60275e29fe2361ab97ac0ac217840d7,"Mozilla/5.0 (Windows NT 10.0; Win64; x64) AppleWebKit/537.36 (KHTML, like Gecko) Chrome/135.0.0.0 Safari/537.36",WebKit,Chrome,135.0.0.0,Windows,10,https://5puzkbbxv1.cognition.run/?sona_id=56812,"en-US,en;q=0.9",wlo7cr93ssxa7fq,23,"[""White""]",No,Male,NA,Yes,424719.5,NA,2749,NA,"{""product_choice"":""A""}",choice,bw,binary,catch,null,televisions,75,50,20,40,null,null,1,null,null,null,null,null,null,Screen size,Average lifespan,NA,NA
NA,NA,NA,NA,NA,choice_trial_setup,html-keyboard-response,74,223410,0.0-4.0-0.35,248,1,2025-05-06T15:45:41Z,b60275e29fe2361ab97ac0ac217840d7,"Mozilla/5.0 (Windows NT 10.0; Win64; x64) AppleWebKit/537.36 (KHTML, like Gecko) Chrome/135.0.0.0 Safari/537.36",WebKit,Chrome,135.0.0.0,Windows,10,https://5puzkbbxv1.cognition.run/?sona_id=56812,"en-US,en;q=0.9",wlo7cr93ssxa7fq,23,"[""White""]",No,Male,NA,Yes,424719.5,NA,null,<p></p>,null,choice,wbw,trinary,catch,null,microwave ovens,95,50,5,40,10,35,2,NA,NA,NA,NA,NA,NA,NA,NA,NA,NA
NA,NA,NA,NA,NA,choice_trial,survey-html-form,75,225676,0.0-4.0-1.35,248,1,2025-05-06T15:45:41Z,b60275e29fe2361ab97ac0ac217840d7,"Mozilla/5.0 (Windows NT 10.0; Win64; x64) AppleWebKit/537.36 (KHTML, like Gecko) Chrome/135.0.0.0 Safari/537.36",WebKit,Chrome,135.0.0.0,Windows,10,https://5puzkbbxv1.cognition.run/?sona_id=56812,"en-US,en;q=0.9",wlo7cr93ssxa7fq,23,"[""White""]",No,Male,NA,Yes,424719.5,NA,2264,NA,"{""product_choice"":""B""}",choice,wbw,trinary,catch,null,microwave ovens,95,50,5,40,10,35,2,null,null,null,null,null,null,Warranty,Cooking power,NA,NA
NA,NA,NA,NA,NA,choice_trial_setup,html-keyboard-response,76,225984,0.0-4.0-0.36,248,1,2025-05-06T15:45:41Z,b60275e29fe2361ab97ac0ac217840d7,"Mozilla/5.0 (Windows NT 10.0; Win64; x64) AppleWebKit/537.36 (KHTML, like Gecko) Chrome/135.0.0.0 Safari/537.36",WebKit,Chrome,135.0.0.0,Windows,10,https://5puzkbbxv1.cognition.run/?sona_id=56812,"en-US,en;q=0.9",wlo7cr93ssxa7fq,23,"[""White""]",No,Male,NA,Yes,424719.5,NA,null,<p></p>,null,choice,ct,binary,attraction,NA,microwave ovens,null,null,null,null,null,null,1,NA,NA,NA,NA,NA,NA,NA,NA,NA,NA
NA,NA,NA,NA,NA,choice_trial,survey-html-form,77,228985,0.0-4.0-1.36,248,1,2025-05-06T15:45:41Z,b60275e29fe2361ab97ac0ac217840d7,"Mozilla/5.0 (Windows NT 10.0; Win64; x64) AppleWebKit/537.36 (KHTML, like Gecko) Chrome/135.0.0.0 Safari/537.36",WebKit,Chrome,135.0.0.0,Windows,10,https://5puzkbbxv1.cognition.run/?sona_id=56812,"en-US,en;q=0.9",wlo7cr93ssxa7fq,23,"[""White""]",No,Male,NA,Yes,424719.5,NA,2998,NA,"{""product_choice"":""B""}",choice,ct,binary,attraction,NA,microwave ovens,null,null,null,null,null,null,1,60,50,null,50,60,null,Warranty,Cooking power,NA,NA
NA,NA,NA,NA,NA,choice_trial_setup,html-keyboard-response,78,229290,0.0-4.0-0.37,248,1,2025-05-06T15:45:41Z,b60275e29fe2361ab97ac0ac217840d7,"Mozilla/5.0 (Windows NT 10.0; Win64; x64) AppleWebKit/537.36 (KHTML, like Gecko) Chrome/135.0.0.0 Safari/537.36",WebKit,Chrome,135.0.0.0,Windows,10,https://5puzkbbxv1.cognition.run/?sona_id=56812,"en-US,en;q=0.9",wlo7cr93ssxa7fq,23,"[""White""]",No,Male,NA,Yes,424719.5,NA,null,<p></p>,null,choice,tdc,trinary,repulsion_B,1,washing machines,null,null,null,null,null,null,1,NA,NA,NA,NA,NA,NA,NA,NA,NA,NA
NA,NA,NA,NA,NA,choice_trial,survey-html-form,79,233216,0.0-4.0-1.37,248,1,2025-05-06T15:45:41Z,b60275e29fe2361ab97ac0ac217840d7,"Mozilla/5.0 (Windows NT 10.0; Win64; x64) AppleWebKit/537.36 (KHTML, like Gecko) Chrome/135.0.0.0 Safari/537.36",WebKit,Chrome,135.0.0.0,Windows,10,https://5puzkbbxv1.cognition.run/?sona_id=56812,"en-US,en;q=0.9",wlo7cr93ssxa7fq,23,"[""White""]",No,Male,NA,Yes,424719.5,NA,3923,NA,"{""product_choice"":""A""}",choice,tdc,trinary,repulsion_B,1,washing machines,null,null,null,null,null,null,1,90,100,80,40,30,40,Average lifespan,Energy savings,NA,NA
NA,NA,NA,NA,NA,choice_trial_setup,html-keyboard-response,80,233522,0.0-4.0-0.38,248,1,2025-05-06T15:45:41Z,b60275e29fe2361ab97ac0ac217840d7,"Mozilla/5.0 (Windows NT 10.0; Win64; x64) AppleWebKit/537.36 (KHTML, like Gecko) Chrome/135.0.0.0 Safari/537.36",WebKit,Chrome,135.0.0.0,Windows,10,https://5puzkbbxv1.cognition.run/?sona_id=56812,"en-US,en;q=0.9",wlo7cr93ssxa7fq,23,"[""White""]",No,Male,NA,Yes,424719.5,NA,null,<p></p>,null,choice,tdc,trinary,repulsion_A,2,televisions,null,null,null,null,null,null,1,NA,NA,NA,NA,NA,NA,NA,NA,NA,NA
NA,NA,NA,NA,NA,choice_trial,survey-html-form,81,236820,0.0-4.0-1.38,248,1,2025-05-06T15:45:41Z,b60275e29fe2361ab97ac0ac217840d7,"Mozilla/5.0 (Windows NT 10.0; Win64; x64) AppleWebKit/537.36 (KHTML, like Gecko) Chrome/135.0.0.0 Safari/537.36",WebKit,Chrome,135.0.0.0,Windows,10,https://5puzkbbxv1.cognition.run/?sona_id=56812,"en-US,en;q=0.9",wlo7cr93ssxa7fq,23,"[""White""]",No,Male,NA,Yes,424719.5,NA,3295,NA,"{""product_choice"":""C""}",choice,tdc,trinary,repulsion_A,2,televisions,null,null,null,null,null,null,1,30,40,20,100,90,100,Screen size,Average lifespan,NA,NA
NA,NA,NA,NA,NA,choice_trial_setup,html-keyboard-response,82,237131,0.0-4.0-0.39,248,1,2025-05-06T15:45:41Z,b60275e29fe2361ab97ac0ac217840d7,"Mozilla/5.0 (Windows NT 10.0; Win64; x64) AppleWebKit/537.36 (KHTML, like Gecko) Chrome/135.0.0.0 Safari/537.36",WebKit,Chrome,135.0.0.0,Windows,10,https://5puzkbbxv1.cognition.run/?sona_id=56812,"en-US,en;q=0.9",wlo7cr93ssxa7fq,23,"[""White""]",No,Male,NA,Yes,424719.5,NA,null,<p></p>,null,choice,tc,binary,repulsion,2,laptops,null,null,null,null,null,null,1,NA,NA,NA,NA,NA,NA,NA,NA,NA,NA
NA,NA,NA,NA,NA,choice_trial,survey-html-form,83,240027,0.0-4.0-1.39,248,1,2025-05-06T15:45:41Z,b60275e29fe2361ab97ac0ac217840d7,"Mozilla/5.0 (Windows NT 10.0; Win64; x64) AppleWebKit/537.36 (KHTML, like Gecko) Chrome/135.0.0.0 Safari/537.36",WebKit,Chrome,135.0.0.0,Windows,10,https://5puzkbbxv1.cognition.run/?sona_id=56812,"en-US,en;q=0.9",wlo7cr93ssxa7fq,23,"[""White""]",No,Male,NA,Yes,424719.5,NA,2891,NA,"{""product_choice"":""B""}",choice,tc,binary,repulsion,2,laptops,null,null,null,null,null,null,1,30,40,null,100,90,null,Processing speed,Memory (RAM),NA,NA
NA,NA,NA,NA,NA,choice_trial_setup,html-keyboard-response,84,240338,0.0-4.0-0.40,248,1,2025-05-06T15:45:41Z,b60275e29fe2361ab97ac0ac217840d7,"Mozilla/5.0 (Windows NT 10.0; Win64; x64) AppleWebKit/537.36 (KHTML, like Gecko) Chrome/135.0.0.0 Safari/537.36",WebKit,Chrome,135.0.0.0,Windows,10,https://5puzkbbxv1.cognition.run/?sona_id=56812,"en-US,en;q=0.9",wlo7cr93ssxa7fq,23,"[""White""]",No,Male,NA,Yes,424719.5,NA,null,<p></p>,null,choice,dct,trinary,attraction,2,microwave ovens,null,null,null,null,null,null,1,NA,NA,NA,NA,NA,NA,NA,NA,NA,NA
NA,NA,NA,NA,NA,choice_trial,survey-html-form,85,245602,0.0-4.0-1.40,248,1,2025-05-06T15:45:41Z,b60275e29fe2361ab97ac0ac217840d7,"Mozilla/5.0 (Windows NT 10.0; Win64; x64) AppleWebKit/537.36 (KHTML, like Gecko) Chrome/135.0.0.0 Safari/537.36",WebKit,Chrome,135.0.0.0,Windows,10,https://5puzkbbxv1.cognition.run/?sona_id=56812,"en-US,en;q=0.9",wlo7cr93ssxa7fq,23,"[""White""]",No,Male,NA,Yes,424719.5,NA,5261,NA,"{""product_choice"":""B""}",choice,dct,trinary,attraction,2,microwave ovens,null,null,null,null,null,null,1,50,60,40,60,50,60,Warranty,Cooking power,NA,NA
NA,NA,NA,NA,NA,choice_trial_setup,html-keyboard-response,86,245911,0.0-4.0-0.41,248,1,2025-05-06T15:45:41Z,b60275e29fe2361ab97ac0ac217840d7,"Mozilla/5.0 (Windows NT 10.0; Win64; x64) AppleWebKit/537.36 (KHTML, like Gecko) Chrome/135.0.0.0 Safari/537.36",WebKit,Chrome,135.0.0.0,Windows,10,https://5puzkbbxv1.cognition.run/?sona_id=56812,"en-US,en;q=0.9",wlo7cr93ssxa7fq,23,"[""White""]",No,Male,NA,Yes,424719.5,NA,null,<p></p>,null,choice,cdt,trinary,repulsion_B,1,televisions,null,null,null,null,null,null,2,NA,NA,NA,NA,NA,NA,NA,NA,NA,NA
NA,NA,NA,NA,NA,choice_trial,survey-html-form,87,249700,0.0-4.0-1.41,248,1,2025-05-06T15:45:41Z,b60275e29fe2361ab97ac0ac217840d7,"Mozilla/5.0 (Windows NT 10.0; Win64; x64) AppleWebKit/537.36 (KHTML, like Gecko) Chrome/135.0.0.0 Safari/537.36",WebKit,Chrome,135.0.0.0,Windows,10,https://5puzkbbxv1.cognition.run/?sona_id=56812,"en-US,en;q=0.9",wlo7cr93ssxa7fq,23,"[""White""]",No,Male,NA,Yes,424719.5,NA,3786,NA,"{""product_choice"":""C""}",choice,cdt,trinary,repulsion_B,1,televisions,null,null,null,null,null,null,2,90,100,80,40,30,40,Screen size,Average lifespan,NA,NA
NA,NA,NA,NA,NA,choice_trial_setup,html-keyboard-response,88,250010,0.0-4.0-0.42,248,1,2025-05-06T15:45:41Z,b60275e29fe2361ab97ac0ac217840d7,"Mozilla/5.0 (Windows NT 10.0; Win64; x64) AppleWebKit/537.36 (KHTML, like Gecko) Chrome/135.0.0.0 Safari/537.36",WebKit,Chrome,135.0.0.0,Windows,10,https://5puzkbbxv1.cognition.run/?sona_id=56812,"en-US,en;q=0.9",wlo7cr93ssxa7fq,23,"[""White""]",No,Male,NA,Yes,424719.5,NA,null,<p></p>,null,choice,ct,binary,repulsion,1,washing machines,null,null,null,null,null,null,2,NA,NA,NA,NA,NA,NA,NA,NA,NA,NA
NA,NA,NA,NA,NA,choice_trial,survey-html-form,89,252421,0.0-4.0-1.42,248,1,2025-05-06T15:45:41Z,b60275e29fe2361ab97ac0ac217840d7,"Mozilla/5.0 (Windows NT 10.0; Win64; x64) AppleWebKit/537.36 (KHTML, like Gecko) Chrome/135.0.0.0 Safari/537.36",WebKit,Chrome,135.0.0.0,Windows,10,https://5puzkbbxv1.cognition.run/?sona_id=56812,"en-US,en;q=0.9",wlo7cr93ssxa7fq,23,"[""White""]",No,Male,NA,Yes,424719.5,NA,2407,NA,"{""product_choice"":""A""}",choice,ct,binary,repulsion,1,washing machines,null,null,null,null,null,null,2,100,90,null,30,40,null,Average lifespan,Energy savings,NA,NA
NA,NA,NA,NA,NA,choice_trial_setup,html-keyboard-response,90,252724,0.0-4.0-0.43,248,1,2025-05-06T15:45:41Z,b60275e29fe2361ab97ac0ac217840d7,"Mozilla/5.0 (Windows NT 10.0; Win64; x64) AppleWebKit/537.36 (KHTML, like Gecko) Chrome/135.0.0.0 Safari/537.36",WebKit,Chrome,135.0.0.0,Windows,10,https://5puzkbbxv1.cognition.run/?sona_id=56812,"en-US,en;q=0.9",wlo7cr93ssxa7fq,23,"[""White""]",No,Male,NA,Yes,424719.5,NA,null,<p></p>,null,choice,tc,binary,attraction,NA,televisions,null,null,null,null,null,null,1,NA,NA,NA,NA,NA,NA,NA,NA,NA,NA
NA,NA,NA,NA,NA,choice_trial,survey-html-form,91,255490,0.0-4.0-1.43,248,1,2025-05-06T15:45:41Z,b60275e29fe2361ab97ac0ac217840d7,"Mozilla/5.0 (Windows NT 10.0; Win64; x64) AppleWebKit/537.36 (KHTML, like Gecko) Chrome/135.0.0.0 Safari/537.36",WebKit,Chrome,135.0.0.0,Windows,10,https://5puzkbbxv1.cognition.run/?sona_id=56812,"en-US,en;q=0.9",wlo7cr93ssxa7fq,23,"[""White""]",No,Male,NA,Yes,424719.5,NA,2764,NA,"{""product_choice"":""B""}",choice,tc,binary,attraction,NA,televisions,null,null,null,null,null,null,1,60,50,null,50,60,null,Screen size,Average lifespan,NA,NA
NA,NA,NA,NA,NA,post_trials_message,html-button-response,92,256528,0.0-5.0,248,1,2025-05-06T15:45:41Z,b60275e29fe2361ab97ac0ac217840d7,"Mozilla/5.0 (Windows NT 10.0; Win64; x64) AppleWebKit/537.36 (KHTML, like Gecko) Chrome/135.0.0.0 Safari/537.36",WebKit,Chrome,135.0.0.0,Windows,10,https://5puzkbbxv1.cognition.run/?sona_id=56812,"en-US,en;q=0.9",wlo7cr93ssxa7fq,23,"[""White""]",No,Male,NA,Yes,424719.5,NA,1035,<p> <b>Thank you for your patience!</b></p><p>  The study will be done after completing a brief form. </p>,0,NA,NA,NA,NA,NA,NA,NA,NA,NA,NA,NA,NA,NA,NA,NA,NA,NA,NA,NA,NA,NA,NA,NA
NA,NA,NA,NA,NA,survey_message,survey-text,93,395051,0.0-6.0,248,1,2025-05-06T15:45:41Z,b60275e29fe2361ab97ac0ac217840d7,"Mozilla/5.0 (Windows NT 10.0; Win64; x64) AppleWebKit/537.36 (KHTML, like Gecko) Chrome/135.0.0.0 Safari/537.36",WebKit,Chrome,135.0.0.0,Windows,10,https://5puzkbbxv1.cognition.run/?sona_id=56812,"en-US,en;q=0.9",wlo7cr93ssxa7fq,23,"[""White""]",No,Male,NA,Yes,424719.5,NA,138512,NA,"{""Q0"":""For many of the selections, I went with the options that have an even split. I also tried to value which variable I cared about the most between the two. For example, cooking power for the microwave was not as important to me so I was ok with taken the lower value at times if there was not a good enough even balance between the two variables. ""}",NA,NA,NA,NA,NA,NA,NA,NA,NA,NA,NA,NA,NA,NA,NA,NA,NA,NA,NA,NA,NA,"For many of the selections, I went with the options that have an even split. I also tried to value which variable I cared about the most between the two. For example, cooking power for the microwave was not as important to me so I was ok with taken the lower value at times if there was not a good enough even balance between the two variables.",NA
NA,NA,NA,NA,NA,demo_age,survey-text,94,400026,0.0-7.0,248,1,2025-05-06T15:45:41Z,b60275e29fe2361ab97ac0ac217840d7,"Mozilla/5.0 (Windows NT 10.0; Win64; x64) AppleWebKit/537.36 (KHTML, like Gecko) Chrome/135.0.0.0 Safari/537.36",WebKit,Chrome,135.0.0.0,Windows,10,https://5puzkbbxv1.cognition.run/?sona_id=56812,"en-US,en;q=0.9",wlo7cr93ssxa7fq,23,"[""White""]",No,Male,NA,Yes,424719.5,NA,4970,NA,"{""Q0"":""23""}",NA,NA,NA,NA,NA,NA,NA,NA,NA,NA,NA,NA,NA,NA,NA,NA,NA,NA,NA,NA,NA,NA,NA
NA,NA,NA,NA,NA,demo_race,survey-multi-select,95,403320,0.0-8.0,248,1,2025-05-06T15:45:41Z,b60275e29fe2361ab97ac0ac217840d7,"Mozilla/5.0 (Windows NT 10.0; Win64; x64) AppleWebKit/537.36 (KHTML, like Gecko) Chrome/135.0.0.0 Safari/537.36",WebKit,Chrome,135.0.0.0,Windows,10,https://5puzkbbxv1.cognition.run/?sona_id=56812,"en-US,en;q=0.9",wlo7cr93ssxa7fq,23,"[""White""]",No,Male,NA,Yes,424719.5,NA,3289,NA,"{""Q0"":[""White""]}",NA,NA,NA,NA,NA,NA,NA,NA,NA,NA,NA,NA,NA,NA,NA,NA,NA,NA,NA,NA,NA,NA,[0]
NA,NA,NA,NA,NA,demo_ethnicity_gender,survey-multi-choice,96,407317,0.0-9.0,248,1,2025-05-06T15:45:41Z,b60275e29fe2361ab97ac0ac217840d7,"Mozilla/5.0 (Windows NT 10.0; Win64; x64) AppleWebKit/537.36 (KHTML, like Gecko) Chrome/135.0.0.0 Safari/537.36",WebKit,Chrome,135.0.0.0,Windows,10,https://5puzkbbxv1.cognition.run/?sona_id=56812,"en-US,en;q=0.9",wlo7cr93ssxa7fq,23,"[""White""]",No,Male,NA,Yes,424719.5,NA,3994,NA,"{""Q0"":""No"",""Q1"":""Male""}",NA,NA,NA,NA,NA,NA,NA,NA,NA,NA,NA,NA,NA,NA,NA,NA,NA,NA,NA,NA,NA,NA,"[0,1]"
NA,NA,NA,NA,NA,demo_countries,survey-text,97,412480,0.0-10.0,248,1,2025-05-06T15:45:41Z,b60275e29fe2361ab97ac0ac217840d7,"Mozilla/5.0 (Windows NT 10.0; Win64; x64) AppleWebKit/537.36 (KHTML, like Gecko) Chrome/135.0.0.0 Safari/537.36",WebKit,Chrome,135.0.0.0,Windows,10,https://5puzkbbxv1.cognition.run/?sona_id=56812,"en-US,en;q=0.9",wlo7cr93ssxa7fq,23,"[""White""]",No,Male,NA,Yes,424719.5,NA,5155,NA,"{""Q0"":""NA""}",NA,NA,NA,NA,NA,NA,NA,NA,NA,NA,NA,NA,NA,NA,NA,NA,NA,NA,NA,NA,NA,NA,NA
NA,NA,NA,NA,NA,demo_prev_study,survey-multi-choice,98,417776,0.0-11.0,248,1,2025-05-06T15:45:41Z,b60275e29fe2361ab97ac0ac217840d7,"Mozilla/5.0 (Windows NT 10.0; Win64; x64) AppleWebKit/537.36 (KHTML, like Gecko) Chrome/135.0.0.0 Safari/537.36",WebKit,Chrome,135.0.0.0,Windows,10,https://5puzkbbxv1.cognition.run/?sona_id=56812,"en-US,en;q=0.9",wlo7cr93ssxa7fq,23,"[""White""]",No,Male,NA,Yes,424719.5,NA,5293,NA,"{""Q0"":""Yes""}",NA,NA,NA,NA,NA,NA,NA,NA,NA,NA,NA,NA,NA,NA,NA,NA,NA,NA,NA,NA,NA,NA,[0]
NA,NA,NA,NA,NA,post_survey_message,html-keyboard-response,99,421330,0.0-12.0,248,1,2025-05-06T15:45:41Z,b60275e29fe2361ab97ac0ac217840d7,"Mozilla/5.0 (Windows NT 10.0; Win64; x64) AppleWebKit/537.36 (KHTML, like Gecko) Chrome/135.0.0.0 Safari/537.36",WebKit,Chrome,135.0.0.0,Windows,10,https://5puzkbbxv1.cognition.run/?sona_id=56812,"en-US,en;q=0.9",wlo7cr93ssxa7fq,23,"[""White""]",No,Male,NA,Yes,424719.5,NA,3548,NA,j,NA,NA,NA,NA,NA,NA,NA,NA,NA,NA,NA,NA,NA,NA,NA,NA,NA,NA,NA,NA,NA,NA,NA
NA,NA,NA,NA,NA,debrief,image-keyboard-response,100,424742,0.0-13.0,248,1,2025-05-06T15:45:41Z,b60275e29fe2361ab97ac0ac217840d7,"Mozilla/5.0 (Windows NT 10.0; Win64; x64) AppleWebKit/537.36 (KHTML, like Gecko) Chrome/135.0.0.0 Safari/537.36",WebKit,Chrome,135.0.0.0,Windows,10,https://5puzkbbxv1.cognition.run/?sona_id=56812,"en-US,en;q=0.9",wlo7cr93ssxa7fq,23,"[""White""]",No,Male,NA,Yes,424719.5,NA,3409,Judg_choice_debrief.png,p,NA,NA,NA,NA,NA,NA,NA,NA,NA,NA,NA,NA,NA,NA,NA,NA,NA,NA,NA,NA,NA,NA,NA
