success,timeout,failed_images,failed_audio,failed_video,screen_id,trial_type,trial_index,time_elapsed,internal_node_id,run_id,condition,recorded_at,source_code_version,user_agent,device,browser,browser_version,platform,platform_version,referer,accept_language,ppt_id,age,race,ethnicity,gender,other_countries,prev_study,exp_duration,view_history,rt,stimulus,response,phase,order,set,effect,t_high,category,d1_best,d2_best,d1_worst1,d2_worst1,d1_worst2,d2_worst2,first_dim,d1_t,d1_c,d1_d,d2_t,d2_c,d2_d,d1_name,d2_name,strategy_response,question_order
TRUE,FALSE,[],[],[],img preload,preload,0,17,0.0-0.0,251,1,2025-05-06T15:56:39Z,b60275e29fe2361ab97ac0ac217840d7,"Mozilla/5.0 (Macintosh; Intel Mac OS X 10_15_7) AppleWebKit/605.1.15 (KHTML, like Gecko) Version/17.5 Safari/605.1.15",Macintosh,Safari,17.5,OS X,10_15_7,https://5puzkbbxv1.cognition.run/?sona_id=55732,"en-US,en;q=0.9",7gfrd5nw9kuv8lv,18,"[""Black or African-American""]",Yes,Female,NA,I'm not sure,1297378,NA,NA,NA,NA,NA,NA,NA,NA,NA,NA,NA,NA,NA,NA,NA,NA,NA,NA,NA,NA,NA,NA,NA,NA,NA,NA,NA
NA,NA,NA,NA,NA,computer_message,instructions,1,4392,0.0-1.0,251,1,2025-05-06T15:56:39Z,b60275e29fe2361ab97ac0ac217840d7,"Mozilla/5.0 (Macintosh; Intel Mac OS X 10_15_7) AppleWebKit/605.1.15 (KHTML, like Gecko) Version/17.5 Safari/605.1.15",Macintosh,Safari,17.5,OS X,10_15_7,https://5puzkbbxv1.cognition.run/?sona_id=55732,"en-US,en;q=0.9",7gfrd5nw9kuv8lv,18,"[""Black or African-American""]",Yes,Female,NA,I'm not sure,1297378,"[{""page_index"":0,""viewing_time"":4372}]",4373,NA,NA,NA,NA,NA,NA,NA,NA,NA,NA,NA,NA,NA,NA,NA,NA,NA,NA,NA,NA,NA,NA,NA,NA,NA
TRUE,NA,NA,NA,NA,NA,fullscreen,2,54801,0.0-2.0,251,1,2025-05-06T15:56:39Z,b60275e29fe2361ab97ac0ac217840d7,"Mozilla/5.0 (Macintosh; Intel Mac OS X 10_15_7) AppleWebKit/605.1.15 (KHTML, like Gecko) Version/17.5 Safari/605.1.15",Macintosh,Safari,17.5,OS X,10_15_7,https://5puzkbbxv1.cognition.run/?sona_id=55732,"en-US,en;q=0.9",7gfrd5nw9kuv8lv,18,"[""Black or African-American""]",Yes,Female,NA,I'm not sure,1297378,NA,49402,NA,NA,NA,NA,NA,NA,NA,NA,NA,NA,NA,NA,NA,NA,NA,NA,NA,NA,NA,NA,NA,NA,NA,NA,NA
NA,NA,NA,NA,NA,choice_instructions,instructions,3,152511,0.0-3.0,251,1,2025-05-06T15:56:39Z,b60275e29fe2361ab97ac0ac217840d7,"Mozilla/5.0 (Macintosh; Intel Mac OS X 10_15_7) AppleWebKit/605.1.15 (KHTML, like Gecko) Version/17.5 Safari/605.1.15",Macintosh,Safari,17.5,OS X,10_15_7,https://5puzkbbxv1.cognition.run/?sona_id=55732,"en-US,en;q=0.9",7gfrd5nw9kuv8lv,18,"[""Black or African-American""]",Yes,Female,NA,I'm not sure,1297378,"[{""page_index"":0,""viewing_time"":1920},{""page_index"":1,""viewing_time"":4568},{""page_index"":2,""viewing_time"":6198},{""page_index"":3,""viewing_time"":5683},{""page_index"":4,""viewing_time"":2624},{""page_index"":5,""viewing_time"":16724},{""page_index"":6,""viewing_time"":59991}]",97708,NA,NA,NA,NA,NA,NA,NA,NA,NA,NA,NA,NA,NA,NA,NA,NA,NA,NA,NA,NA,NA,NA,NA,NA,NA
NA,NA,NA,NA,NA,choice_trial_setup,html-keyboard-response,4,152818,0.0-4.0-0.0,251,1,2025-05-06T15:56:39Z,b60275e29fe2361ab97ac0ac217840d7,"Mozilla/5.0 (Macintosh; Intel Mac OS X 10_15_7) AppleWebKit/605.1.15 (KHTML, like Gecko) Version/17.5 Safari/605.1.15",Macintosh,Safari,17.5,OS X,10_15_7,https://5puzkbbxv1.cognition.run/?sona_id=55732,"en-US,en;q=0.9",7gfrd5nw9kuv8lv,18,"[""Black or African-American""]",Yes,Female,NA,I'm not sure,1297378,NA,null,<p></p>,null,choice,dct,trinary,repulsion_A,2,laptops,null,null,null,null,null,null,2,NA,NA,NA,NA,NA,NA,NA,NA,NA,NA
NA,NA,NA,NA,NA,choice_trial,survey-html-form,5,172833,0.0-4.0-1.0,251,1,2025-05-06T15:56:39Z,b60275e29fe2361ab97ac0ac217840d7,"Mozilla/5.0 (Macintosh; Intel Mac OS X 10_15_7) AppleWebKit/605.1.15 (KHTML, like Gecko) Version/17.5 Safari/605.1.15",Macintosh,Safari,17.5,OS X,10_15_7,https://5puzkbbxv1.cognition.run/?sona_id=55732,"en-US,en;q=0.9",7gfrd5nw9kuv8lv,18,"[""Black or African-American""]",Yes,Female,NA,I'm not sure,1297378,NA,20010,NA,"{""product_choice"":""B""}",choice,dct,trinary,repulsion_A,2,laptops,null,null,null,null,null,null,2,30,40,20,100,90,100,Processing speed,Memory (RAM),NA,NA
NA,NA,NA,NA,NA,choice_trial_setup,html-keyboard-response,6,173139,0.0-4.0-0.1,251,1,2025-05-06T15:56:39Z,b60275e29fe2361ab97ac0ac217840d7,"Mozilla/5.0 (Macintosh; Intel Mac OS X 10_15_7) AppleWebKit/605.1.15 (KHTML, like Gecko) Version/17.5 Safari/605.1.15",Macintosh,Safari,17.5,OS X,10_15_7,https://5puzkbbxv1.cognition.run/?sona_id=55732,"en-US,en;q=0.9",7gfrd5nw9kuv8lv,18,"[""Black or African-American""]",Yes,Female,NA,I'm not sure,1297378,NA,null,<p></p>,null,choice,tc,binary,attraction,NA,laptops,null,null,null,null,null,null,1,NA,NA,NA,NA,NA,NA,NA,NA,NA,NA
NA,NA,NA,NA,NA,choice_trial,survey-html-form,7,184478,0.0-4.0-1.1,251,1,2025-05-06T15:56:39Z,b60275e29fe2361ab97ac0ac217840d7,"Mozilla/5.0 (Macintosh; Intel Mac OS X 10_15_7) AppleWebKit/605.1.15 (KHTML, like Gecko) Version/17.5 Safari/605.1.15",Macintosh,Safari,17.5,OS X,10_15_7,https://5puzkbbxv1.cognition.run/?sona_id=55732,"en-US,en;q=0.9",7gfrd5nw9kuv8lv,18,"[""Black or African-American""]",Yes,Female,NA,I'm not sure,1297378,NA,11335,NA,"{""product_choice"":""A""}",choice,tc,binary,attraction,NA,laptops,null,null,null,null,null,null,1,60,50,null,50,60,null,Processing speed,Memory (RAM),NA,NA
NA,NA,NA,NA,NA,choice_trial_setup,html-keyboard-response,8,184781,0.0-4.0-0.2,251,1,2025-05-06T15:56:39Z,b60275e29fe2361ab97ac0ac217840d7,"Mozilla/5.0 (Macintosh; Intel Mac OS X 10_15_7) AppleWebKit/605.1.15 (KHTML, like Gecko) Version/17.5 Safari/605.1.15",Macintosh,Safari,17.5,OS X,10_15_7,https://5puzkbbxv1.cognition.run/?sona_id=55732,"en-US,en;q=0.9",7gfrd5nw9kuv8lv,18,"[""Black or African-American""]",Yes,Female,NA,I'm not sure,1297378,NA,null,<p></p>,null,choice,wbw,trinary,catch,null,televisions,70,85,40,15,45,15,2,NA,NA,NA,NA,NA,NA,NA,NA,NA,NA
NA,NA,NA,NA,NA,choice_trial,survey-html-form,9,196490,0.0-4.0-1.2,251,1,2025-05-06T15:56:39Z,b60275e29fe2361ab97ac0ac217840d7,"Mozilla/5.0 (Macintosh; Intel Mac OS X 10_15_7) AppleWebKit/605.1.15 (KHTML, like Gecko) Version/17.5 Safari/605.1.15",Macintosh,Safari,17.5,OS X,10_15_7,https://5puzkbbxv1.cognition.run/?sona_id=55732,"en-US,en;q=0.9",7gfrd5nw9kuv8lv,18,"[""Black or African-American""]",Yes,Female,NA,I'm not sure,1297378,NA,11706,NA,"{""product_choice"":""B""}",choice,wbw,trinary,catch,null,televisions,70,85,40,15,45,15,2,null,null,null,null,null,null,Screen size,Average lifespan,NA,NA
NA,NA,NA,NA,NA,choice_trial_setup,html-keyboard-response,10,196792,0.0-4.0-0.3,251,1,2025-05-06T15:56:39Z,b60275e29fe2361ab97ac0ac217840d7,"Mozilla/5.0 (Macintosh; Intel Mac OS X 10_15_7) AppleWebKit/605.1.15 (KHTML, like Gecko) Version/17.5 Safari/605.1.15",Macintosh,Safari,17.5,OS X,10_15_7,https://5puzkbbxv1.cognition.run/?sona_id=55732,"en-US,en;q=0.9",7gfrd5nw9kuv8lv,18,"[""Black or African-American""]",Yes,Female,NA,I'm not sure,1297378,NA,null,<p></p>,null,choice,tc,binary,attraction,NA,televisions,null,null,null,null,null,null,2,NA,NA,NA,NA,NA,NA,NA,NA,NA,NA
NA,NA,NA,NA,NA,choice_trial,survey-html-form,11,202853,0.0-4.0-1.3,251,1,2025-05-06T15:56:39Z,b60275e29fe2361ab97ac0ac217840d7,"Mozilla/5.0 (Macintosh; Intel Mac OS X 10_15_7) AppleWebKit/605.1.15 (KHTML, like Gecko) Version/17.5 Safari/605.1.15",Macintosh,Safari,17.5,OS X,10_15_7,https://5puzkbbxv1.cognition.run/?sona_id=55732,"en-US,en;q=0.9",7gfrd5nw9kuv8lv,18,"[""Black or African-American""]",Yes,Female,NA,I'm not sure,1297378,NA,6057,NA,"{""product_choice"":""B""}",choice,tc,binary,attraction,NA,televisions,null,null,null,null,null,null,2,60,50,null,50,60,null,Screen size,Average lifespan,NA,NA
NA,NA,NA,NA,NA,choice_trial_setup,html-keyboard-response,12,203156,0.0-4.0-0.4,251,1,2025-05-06T15:56:39Z,b60275e29fe2361ab97ac0ac217840d7,"Mozilla/5.0 (Macintosh; Intel Mac OS X 10_15_7) AppleWebKit/605.1.15 (KHTML, like Gecko) Version/17.5 Safari/605.1.15",Macintosh,Safari,17.5,OS X,10_15_7,https://5puzkbbxv1.cognition.run/?sona_id=55732,"en-US,en;q=0.9",7gfrd5nw9kuv8lv,18,"[""Black or African-American""]",Yes,Female,NA,I'm not sure,1297378,NA,null,<p></p>,null,choice,ctd,trinary,attraction,2,microwave ovens,null,null,null,null,null,null,1,NA,NA,NA,NA,NA,NA,NA,NA,NA,NA
NA,NA,NA,NA,NA,choice_trial,survey-html-form,13,214776,0.0-4.0-1.4,251,1,2025-05-06T15:56:39Z,b60275e29fe2361ab97ac0ac217840d7,"Mozilla/5.0 (Macintosh; Intel Mac OS X 10_15_7) AppleWebKit/605.1.15 (KHTML, like Gecko) Version/17.5 Safari/605.1.15",Macintosh,Safari,17.5,OS X,10_15_7,https://5puzkbbxv1.cognition.run/?sona_id=55732,"en-US,en;q=0.9",7gfrd5nw9kuv8lv,18,"[""Black or African-American""]",Yes,Female,NA,I'm not sure,1297378,NA,11615,NA,"{""product_choice"":""B""}",choice,ctd,trinary,attraction,2,microwave ovens,null,null,null,null,null,null,1,50,60,40,60,50,60,Warranty,Cooking power,NA,NA
NA,NA,NA,NA,NA,choice_trial_setup,html-keyboard-response,14,215078,0.0-4.0-0.5,251,1,2025-05-06T15:56:39Z,b60275e29fe2361ab97ac0ac217840d7,"Mozilla/5.0 (Macintosh; Intel Mac OS X 10_15_7) AppleWebKit/605.1.15 (KHTML, like Gecko) Version/17.5 Safari/605.1.15",Macintosh,Safari,17.5,OS X,10_15_7,https://5puzkbbxv1.cognition.run/?sona_id=55732,"en-US,en;q=0.9",7gfrd5nw9kuv8lv,18,"[""Black or African-American""]",Yes,Female,NA,I'm not sure,1297378,NA,null,<p></p>,null,choice,ctd,trinary,repulsion_A,1,televisions,null,null,null,null,null,null,1,NA,NA,NA,NA,NA,NA,NA,NA,NA,NA
NA,NA,NA,NA,NA,choice_trial,survey-html-form,15,223514,0.0-4.0-1.5,251,1,2025-05-06T15:56:39Z,b60275e29fe2361ab97ac0ac217840d7,"Mozilla/5.0 (Macintosh; Intel Mac OS X 10_15_7) AppleWebKit/605.1.15 (KHTML, like Gecko) Version/17.5 Safari/605.1.15",Macintosh,Safari,17.5,OS X,10_15_7,https://5puzkbbxv1.cognition.run/?sona_id=55732,"en-US,en;q=0.9",7gfrd5nw9kuv8lv,18,"[""Black or African-American""]",Yes,Female,NA,I'm not sure,1297378,NA,8432,NA,"{""product_choice"":""A""}",choice,ctd,trinary,repulsion_A,1,televisions,null,null,null,null,null,null,1,100,90,100,30,40,20,Screen size,Average lifespan,NA,NA
NA,NA,NA,NA,NA,choice_trial_setup,html-keyboard-response,16,223817,0.0-4.0-0.6,251,1,2025-05-06T15:56:39Z,b60275e29fe2361ab97ac0ac217840d7,"Mozilla/5.0 (Macintosh; Intel Mac OS X 10_15_7) AppleWebKit/605.1.15 (KHTML, like Gecko) Version/17.5 Safari/605.1.15",Macintosh,Safari,17.5,OS X,10_15_7,https://5puzkbbxv1.cognition.run/?sona_id=55732,"en-US,en;q=0.9",7gfrd5nw9kuv8lv,18,"[""Black or African-American""]",Yes,Female,NA,I'm not sure,1297378,NA,null,<p></p>,null,choice,dtc,trinary,attraction,1,washing machines,null,null,null,null,null,null,1,NA,NA,NA,NA,NA,NA,NA,NA,NA,NA
NA,NA,NA,NA,NA,choice_trial,survey-html-form,17,238333,0.0-4.0-1.6,251,1,2025-05-06T15:56:39Z,b60275e29fe2361ab97ac0ac217840d7,"Mozilla/5.0 (Macintosh; Intel Mac OS X 10_15_7) AppleWebKit/605.1.15 (KHTML, like Gecko) Version/17.5 Safari/605.1.15",Macintosh,Safari,17.5,OS X,10_15_7,https://5puzkbbxv1.cognition.run/?sona_id=55732,"en-US,en;q=0.9",7gfrd5nw9kuv8lv,18,"[""Black or African-American""]",Yes,Female,NA,I'm not sure,1297378,NA,14511,NA,"{""product_choice"":""B""}",choice,dtc,trinary,attraction,1,washing machines,null,null,null,null,null,null,1,60,50,60,50,60,40,Average lifespan,Energy savings,NA,NA
NA,NA,NA,NA,NA,choice_trial_setup,html-keyboard-response,18,238637,0.0-4.0-0.7,251,1,2025-05-06T15:56:39Z,b60275e29fe2361ab97ac0ac217840d7,"Mozilla/5.0 (Macintosh; Intel Mac OS X 10_15_7) AppleWebKit/605.1.15 (KHTML, like Gecko) Version/17.5 Safari/605.1.15",Macintosh,Safari,17.5,OS X,10_15_7,https://5puzkbbxv1.cognition.run/?sona_id=55732,"en-US,en;q=0.9",7gfrd5nw9kuv8lv,18,"[""Black or African-American""]",Yes,Female,NA,I'm not sure,1297378,NA,null,<p></p>,null,choice,tcd,trinary,repulsion_B,2,washing machines,null,null,null,null,null,null,2,NA,NA,NA,NA,NA,NA,NA,NA,NA,NA
NA,NA,NA,NA,NA,choice_trial,survey-html-form,19,251184,0.0-4.0-1.7,251,1,2025-05-06T15:56:39Z,b60275e29fe2361ab97ac0ac217840d7,"Mozilla/5.0 (Macintosh; Intel Mac OS X 10_15_7) AppleWebKit/605.1.15 (KHTML, like Gecko) Version/17.5 Safari/605.1.15",Macintosh,Safari,17.5,OS X,10_15_7,https://5puzkbbxv1.cognition.run/?sona_id=55732,"en-US,en;q=0.9",7gfrd5nw9kuv8lv,18,"[""Black or African-American""]",Yes,Female,NA,I'm not sure,1297378,NA,12543,NA,"{""product_choice"":""A""}",choice,tcd,trinary,repulsion_B,2,washing machines,null,null,null,null,null,null,2,40,30,40,90,100,80,Average lifespan,Energy savings,NA,NA
NA,NA,NA,NA,NA,choice_trial_setup,html-keyboard-response,20,251487,0.0-4.0-0.8,251,1,2025-05-06T15:56:39Z,b60275e29fe2361ab97ac0ac217840d7,"Mozilla/5.0 (Macintosh; Intel Mac OS X 10_15_7) AppleWebKit/605.1.15 (KHTML, like Gecko) Version/17.5 Safari/605.1.15",Macintosh,Safari,17.5,OS X,10_15_7,https://5puzkbbxv1.cognition.run/?sona_id=55732,"en-US,en;q=0.9",7gfrd5nw9kuv8lv,18,"[""Black or African-American""]",Yes,Female,NA,I'm not sure,1297378,NA,null,<p></p>,null,choice,tdc,trinary,repulsion_B,2,microwave ovens,null,null,null,null,null,null,1,NA,NA,NA,NA,NA,NA,NA,NA,NA,NA
NA,NA,NA,NA,NA,choice_trial,survey-html-form,21,260923,0.0-4.0-1.8,251,1,2025-05-06T15:56:39Z,b60275e29fe2361ab97ac0ac217840d7,"Mozilla/5.0 (Macintosh; Intel Mac OS X 10_15_7) AppleWebKit/605.1.15 (KHTML, like Gecko) Version/17.5 Safari/605.1.15",Macintosh,Safari,17.5,OS X,10_15_7,https://5puzkbbxv1.cognition.run/?sona_id=55732,"en-US,en;q=0.9",7gfrd5nw9kuv8lv,18,"[""Black or African-American""]",Yes,Female,NA,I'm not sure,1297378,NA,9432,NA,"{""product_choice"":""A""}",choice,tdc,trinary,repulsion_B,2,microwave ovens,null,null,null,null,null,null,1,40,30,40,90,100,80,Warranty,Cooking power,NA,NA
NA,NA,NA,NA,NA,choice_trial_setup,html-keyboard-response,22,261227,0.0-4.0-0.9,251,1,2025-05-06T15:56:39Z,b60275e29fe2361ab97ac0ac217840d7,"Mozilla/5.0 (Macintosh; Intel Mac OS X 10_15_7) AppleWebKit/605.1.15 (KHTML, like Gecko) Version/17.5 Safari/605.1.15",Macintosh,Safari,17.5,OS X,10_15_7,https://5puzkbbxv1.cognition.run/?sona_id=55732,"en-US,en;q=0.9",7gfrd5nw9kuv8lv,18,"[""Black or African-American""]",Yes,Female,NA,I'm not sure,1297378,NA,null,<p></p>,null,choice,dtc,trinary,repulsion_A,1,laptops,null,null,null,null,null,null,1,NA,NA,NA,NA,NA,NA,NA,NA,NA,NA
NA,NA,NA,NA,NA,choice_trial,survey-html-form,23,271302,0.0-4.0-1.9,251,1,2025-05-06T15:56:39Z,b60275e29fe2361ab97ac0ac217840d7,"Mozilla/5.0 (Macintosh; Intel Mac OS X 10_15_7) AppleWebKit/605.1.15 (KHTML, like Gecko) Version/17.5 Safari/605.1.15",Macintosh,Safari,17.5,OS X,10_15_7,https://5puzkbbxv1.cognition.run/?sona_id=55732,"en-US,en;q=0.9",7gfrd5nw9kuv8lv,18,"[""Black or African-American""]",Yes,Female,NA,I'm not sure,1297378,NA,10072,NA,"{""product_choice"":""C""}",choice,dtc,trinary,repulsion_A,1,laptops,null,null,null,null,null,null,1,100,90,100,30,40,20,Processing speed,Memory (RAM),NA,NA
NA,NA,NA,NA,NA,choice_trial_setup,html-keyboard-response,24,271606,0.0-4.0-0.10,251,1,2025-05-06T15:56:39Z,b60275e29fe2361ab97ac0ac217840d7,"Mozilla/5.0 (Macintosh; Intel Mac OS X 10_15_7) AppleWebKit/605.1.15 (KHTML, like Gecko) Version/17.5 Safari/605.1.15",Macintosh,Safari,17.5,OS X,10_15_7,https://5puzkbbxv1.cognition.run/?sona_id=55732,"en-US,en;q=0.9",7gfrd5nw9kuv8lv,18,"[""Black or African-American""]",Yes,Female,NA,I'm not sure,1297378,NA,null,<p></p>,null,choice,tc,binary,attraction,NA,microwave ovens,null,null,null,null,null,null,1,NA,NA,NA,NA,NA,NA,NA,NA,NA,NA
NA,NA,NA,NA,NA,choice_trial,survey-html-form,25,365267,0.0-4.0-1.10,251,1,2025-05-06T15:56:39Z,b60275e29fe2361ab97ac0ac217840d7,"Mozilla/5.0 (Macintosh; Intel Mac OS X 10_15_7) AppleWebKit/605.1.15 (KHTML, like Gecko) Version/17.5 Safari/605.1.15",Macintosh,Safari,17.5,OS X,10_15_7,https://5puzkbbxv1.cognition.run/?sona_id=55732,"en-US,en;q=0.9",7gfrd5nw9kuv8lv,18,"[""Black or African-American""]",Yes,Female,NA,I'm not sure,1297378,NA,93658,NA,"{""product_choice"":""B""}",choice,tc,binary,attraction,NA,microwave ovens,null,null,null,null,null,null,1,60,50,null,50,60,null,Warranty,Cooking power,NA,NA
NA,NA,NA,NA,NA,choice_trial_setup,html-keyboard-response,26,365571,0.0-4.0-0.11,251,1,2025-05-06T15:56:39Z,b60275e29fe2361ab97ac0ac217840d7,"Mozilla/5.0 (Macintosh; Intel Mac OS X 10_15_7) AppleWebKit/605.1.15 (KHTML, like Gecko) Version/17.5 Safari/605.1.15",Macintosh,Safari,17.5,OS X,10_15_7,https://5puzkbbxv1.cognition.run/?sona_id=55732,"en-US,en;q=0.9",7gfrd5nw9kuv8lv,18,"[""Black or African-American""]",Yes,Female,NA,I'm not sure,1297378,NA,null,<p></p>,null,choice,ctd,trinary,repulsion_A,2,televisions,null,null,null,null,null,null,1,NA,NA,NA,NA,NA,NA,NA,NA,NA,NA
NA,NA,NA,NA,NA,choice_trial,survey-html-form,27,377013,0.0-4.0-1.11,251,1,2025-05-06T15:56:39Z,b60275e29fe2361ab97ac0ac217840d7,"Mozilla/5.0 (Macintosh; Intel Mac OS X 10_15_7) AppleWebKit/605.1.15 (KHTML, like Gecko) Version/17.5 Safari/605.1.15",Macintosh,Safari,17.5,OS X,10_15_7,https://5puzkbbxv1.cognition.run/?sona_id=55732,"en-US,en;q=0.9",7gfrd5nw9kuv8lv,18,"[""Black or African-American""]",Yes,Female,NA,I'm not sure,1297378,NA,11438,NA,"{""product_choice"":""A""}",choice,ctd,trinary,repulsion_A,2,televisions,null,null,null,null,null,null,1,30,40,20,100,90,100,Screen size,Average lifespan,NA,NA
NA,NA,NA,NA,NA,choice_trial_setup,html-keyboard-response,28,377316,0.0-4.0-0.12,251,1,2025-05-06T15:56:39Z,b60275e29fe2361ab97ac0ac217840d7,"Mozilla/5.0 (Macintosh; Intel Mac OS X 10_15_7) AppleWebKit/605.1.15 (KHTML, like Gecko) Version/17.5 Safari/605.1.15",Macintosh,Safari,17.5,OS X,10_15_7,https://5puzkbbxv1.cognition.run/?sona_id=55732,"en-US,en;q=0.9",7gfrd5nw9kuv8lv,18,"[""Black or African-American""]",Yes,Female,NA,I'm not sure,1297378,NA,null,<p></p>,null,choice,ct,binary,repulsion,2,washing machines,null,null,null,null,null,null,2,NA,NA,NA,NA,NA,NA,NA,NA,NA,NA
NA,NA,NA,NA,NA,choice_trial,survey-html-form,29,382492,0.0-4.0-1.12,251,1,2025-05-06T15:56:39Z,b60275e29fe2361ab97ac0ac217840d7,"Mozilla/5.0 (Macintosh; Intel Mac OS X 10_15_7) AppleWebKit/605.1.15 (KHTML, like Gecko) Version/17.5 Safari/605.1.15",Macintosh,Safari,17.5,OS X,10_15_7,https://5puzkbbxv1.cognition.run/?sona_id=55732,"en-US,en;q=0.9",7gfrd5nw9kuv8lv,18,"[""Black or African-American""]",Yes,Female,NA,I'm not sure,1297378,NA,5171,NA,"{""product_choice"":""A""}",choice,ct,binary,repulsion,2,washing machines,null,null,null,null,null,null,2,30,40,null,100,90,null,Average lifespan,Energy savings,NA,NA
NA,NA,NA,NA,NA,choice_trial_setup,html-keyboard-response,30,382795,0.0-4.0-0.13,251,1,2025-05-06T15:56:39Z,b60275e29fe2361ab97ac0ac217840d7,"Mozilla/5.0 (Macintosh; Intel Mac OS X 10_15_7) AppleWebKit/605.1.15 (KHTML, like Gecko) Version/17.5 Safari/605.1.15",Macintosh,Safari,17.5,OS X,10_15_7,https://5puzkbbxv1.cognition.run/?sona_id=55732,"en-US,en;q=0.9",7gfrd5nw9kuv8lv,18,"[""Black or African-American""]",Yes,Female,NA,I'm not sure,1297378,NA,null,<p></p>,null,choice,dct,trinary,repulsion_A,1,microwave ovens,null,null,null,null,null,null,2,NA,NA,NA,NA,NA,NA,NA,NA,NA,NA
NA,NA,NA,NA,NA,choice_trial,survey-html-form,31,391180,0.0-4.0-1.13,251,1,2025-05-06T15:56:39Z,b60275e29fe2361ab97ac0ac217840d7,"Mozilla/5.0 (Macintosh; Intel Mac OS X 10_15_7) AppleWebKit/605.1.15 (KHTML, like Gecko) Version/17.5 Safari/605.1.15",Macintosh,Safari,17.5,OS X,10_15_7,https://5puzkbbxv1.cognition.run/?sona_id=55732,"en-US,en;q=0.9",7gfrd5nw9kuv8lv,18,"[""Black or African-American""]",Yes,Female,NA,I'm not sure,1297378,NA,8380,NA,"{""product_choice"":""B""}",choice,dct,trinary,repulsion_A,1,microwave ovens,null,null,null,null,null,null,2,100,90,100,30,40,20,Warranty,Cooking power,NA,NA
NA,NA,NA,NA,NA,choice_trial_setup,html-keyboard-response,32,391483,0.0-4.0-0.14,251,1,2025-05-06T15:56:39Z,b60275e29fe2361ab97ac0ac217840d7,"Mozilla/5.0 (Macintosh; Intel Mac OS X 10_15_7) AppleWebKit/605.1.15 (KHTML, like Gecko) Version/17.5 Safari/605.1.15",Macintosh,Safari,17.5,OS X,10_15_7,https://5puzkbbxv1.cognition.run/?sona_id=55732,"en-US,en;q=0.9",7gfrd5nw9kuv8lv,18,"[""Black or African-American""]",Yes,Female,NA,I'm not sure,1297378,NA,null,<p></p>,null,choice,ct,binary,repulsion,2,televisions,null,null,null,null,null,null,2,NA,NA,NA,NA,NA,NA,NA,NA,NA,NA
NA,NA,NA,NA,NA,choice_trial,survey-html-form,33,395811,0.0-4.0-1.14,251,1,2025-05-06T15:56:39Z,b60275e29fe2361ab97ac0ac217840d7,"Mozilla/5.0 (Macintosh; Intel Mac OS X 10_15_7) AppleWebKit/605.1.15 (KHTML, like Gecko) Version/17.5 Safari/605.1.15",Macintosh,Safari,17.5,OS X,10_15_7,https://5puzkbbxv1.cognition.run/?sona_id=55732,"en-US,en;q=0.9",7gfrd5nw9kuv8lv,18,"[""Black or African-American""]",Yes,Female,NA,I'm not sure,1297378,NA,4323,NA,"{""product_choice"":""B""}",choice,ct,binary,repulsion,2,televisions,null,null,null,null,null,null,2,30,40,null,100,90,null,Screen size,Average lifespan,NA,NA
NA,NA,NA,NA,NA,choice_trial_setup,html-keyboard-response,34,396115,0.0-4.0-0.15,251,1,2025-05-06T15:56:39Z,b60275e29fe2361ab97ac0ac217840d7,"Mozilla/5.0 (Macintosh; Intel Mac OS X 10_15_7) AppleWebKit/605.1.15 (KHTML, like Gecko) Version/17.5 Safari/605.1.15",Macintosh,Safari,17.5,OS X,10_15_7,https://5puzkbbxv1.cognition.run/?sona_id=55732,"en-US,en;q=0.9",7gfrd5nw9kuv8lv,18,"[""Black or African-American""]",Yes,Female,NA,I'm not sure,1297378,NA,null,<p></p>,null,choice,tdc,trinary,repulsion_B,2,laptops,null,null,null,null,null,null,1,NA,NA,NA,NA,NA,NA,NA,NA,NA,NA
NA,NA,NA,NA,NA,choice_trial,survey-html-form,35,402484,0.0-4.0-1.15,251,1,2025-05-06T15:56:39Z,b60275e29fe2361ab97ac0ac217840d7,"Mozilla/5.0 (Macintosh; Intel Mac OS X 10_15_7) AppleWebKit/605.1.15 (KHTML, like Gecko) Version/17.5 Safari/605.1.15",Macintosh,Safari,17.5,OS X,10_15_7,https://5puzkbbxv1.cognition.run/?sona_id=55732,"en-US,en;q=0.9",7gfrd5nw9kuv8lv,18,"[""Black or African-American""]",Yes,Female,NA,I'm not sure,1297378,NA,6364,NA,"{""product_choice"":""A""}",choice,tdc,trinary,repulsion_B,2,laptops,null,null,null,null,null,null,1,40,30,40,90,100,80,Processing speed,Memory (RAM),NA,NA
NA,NA,NA,NA,NA,choice_trial_setup,html-keyboard-response,36,402787,0.0-4.0-0.16,251,1,2025-05-06T15:56:39Z,b60275e29fe2361ab97ac0ac217840d7,"Mozilla/5.0 (Macintosh; Intel Mac OS X 10_15_7) AppleWebKit/605.1.15 (KHTML, like Gecko) Version/17.5 Safari/605.1.15",Macintosh,Safari,17.5,OS X,10_15_7,https://5puzkbbxv1.cognition.run/?sona_id=55732,"en-US,en;q=0.9",7gfrd5nw9kuv8lv,18,"[""Black or African-American""]",Yes,Female,NA,I'm not sure,1297378,NA,null,<p></p>,null,choice,ctd,trinary,attraction,1,laptops,null,null,null,null,null,null,2,NA,NA,NA,NA,NA,NA,NA,NA,NA,NA
NA,NA,NA,NA,NA,choice_trial,survey-html-form,37,417777,0.0-4.0-1.16,251,1,2025-05-06T15:56:39Z,b60275e29fe2361ab97ac0ac217840d7,"Mozilla/5.0 (Macintosh; Intel Mac OS X 10_15_7) AppleWebKit/605.1.15 (KHTML, like Gecko) Version/17.5 Safari/605.1.15",Macintosh,Safari,17.5,OS X,10_15_7,https://5puzkbbxv1.cognition.run/?sona_id=55732,"en-US,en;q=0.9",7gfrd5nw9kuv8lv,18,"[""Black or African-American""]",Yes,Female,NA,I'm not sure,1297378,NA,14985,NA,"{""product_choice"":""B""}",choice,ctd,trinary,attraction,1,laptops,null,null,null,null,null,null,2,60,50,60,50,60,40,Processing speed,Memory (RAM),NA,NA
NA,NA,NA,NA,NA,choice_trial_setup,html-keyboard-response,38,418080,0.0-4.0-0.17,251,1,2025-05-06T15:56:39Z,b60275e29fe2361ab97ac0ac217840d7,"Mozilla/5.0 (Macintosh; Intel Mac OS X 10_15_7) AppleWebKit/605.1.15 (KHTML, like Gecko) Version/17.5 Safari/605.1.15",Macintosh,Safari,17.5,OS X,10_15_7,https://5puzkbbxv1.cognition.run/?sona_id=55732,"en-US,en;q=0.9",7gfrd5nw9kuv8lv,18,"[""Black or African-American""]",Yes,Female,NA,I'm not sure,1297378,NA,null,<p></p>,null,choice,ct,binary,repulsion,2,microwave ovens,null,null,null,null,null,null,1,NA,NA,NA,NA,NA,NA,NA,NA,NA,NA
NA,NA,NA,NA,NA,choice_trial,survey-html-form,39,430986,0.0-4.0-1.17,251,1,2025-05-06T15:56:39Z,b60275e29fe2361ab97ac0ac217840d7,"Mozilla/5.0 (Macintosh; Intel Mac OS X 10_15_7) AppleWebKit/605.1.15 (KHTML, like Gecko) Version/17.5 Safari/605.1.15",Macintosh,Safari,17.5,OS X,10_15_7,https://5puzkbbxv1.cognition.run/?sona_id=55732,"en-US,en;q=0.9",7gfrd5nw9kuv8lv,18,"[""Black or African-American""]",Yes,Female,NA,I'm not sure,1297378,NA,12902,NA,"{""product_choice"":""A""}",choice,ct,binary,repulsion,2,microwave ovens,null,null,null,null,null,null,1,30,40,null,100,90,null,Warranty,Cooking power,NA,NA
NA,NA,NA,NA,NA,choice_trial_setup,html-keyboard-response,40,431290,0.0-4.0-0.18,251,1,2025-05-06T15:56:39Z,b60275e29fe2361ab97ac0ac217840d7,"Mozilla/5.0 (Macintosh; Intel Mac OS X 10_15_7) AppleWebKit/605.1.15 (KHTML, like Gecko) Version/17.5 Safari/605.1.15",Macintosh,Safari,17.5,OS X,10_15_7,https://5puzkbbxv1.cognition.run/?sona_id=55732,"en-US,en;q=0.9",7gfrd5nw9kuv8lv,18,"[""Black or African-American""]",Yes,Female,NA,I'm not sure,1297378,NA,null,<p></p>,null,choice,bw,binary,catch,null,televisions,55,50,5,25,null,null,2,NA,NA,NA,NA,NA,NA,NA,NA,NA,NA
NA,NA,NA,NA,NA,choice_trial,survey-html-form,41,441300,0.0-4.0-1.18,251,1,2025-05-06T15:56:39Z,b60275e29fe2361ab97ac0ac217840d7,"Mozilla/5.0 (Macintosh; Intel Mac OS X 10_15_7) AppleWebKit/605.1.15 (KHTML, like Gecko) Version/17.5 Safari/605.1.15",Macintosh,Safari,17.5,OS X,10_15_7,https://5puzkbbxv1.cognition.run/?sona_id=55732,"en-US,en;q=0.9",7gfrd5nw9kuv8lv,18,"[""Black or African-American""]",Yes,Female,NA,I'm not sure,1297378,NA,10005,NA,"{""product_choice"":""A""}",choice,bw,binary,catch,null,televisions,55,50,5,25,null,null,2,null,null,null,null,null,null,Screen size,Average lifespan,NA,NA
NA,NA,NA,NA,NA,choice_trial_setup,html-keyboard-response,42,441604,0.0-4.0-0.19,251,1,2025-05-06T15:56:39Z,b60275e29fe2361ab97ac0ac217840d7,"Mozilla/5.0 (Macintosh; Intel Mac OS X 10_15_7) AppleWebKit/605.1.15 (KHTML, like Gecko) Version/17.5 Safari/605.1.15",Macintosh,Safari,17.5,OS X,10_15_7,https://5puzkbbxv1.cognition.run/?sona_id=55732,"en-US,en;q=0.9",7gfrd5nw9kuv8lv,18,"[""Black or African-American""]",Yes,Female,NA,I'm not sure,1297378,NA,null,<p></p>,null,choice,tcd,trinary,attraction,1,microwave ovens,null,null,null,null,null,null,1,NA,NA,NA,NA,NA,NA,NA,NA,NA,NA
NA,NA,NA,NA,NA,choice_trial,survey-html-form,43,737667,0.0-4.0-1.19,251,1,2025-05-06T15:56:39Z,b60275e29fe2361ab97ac0ac217840d7,"Mozilla/5.0 (Macintosh; Intel Mac OS X 10_15_7) AppleWebKit/605.1.15 (KHTML, like Gecko) Version/17.5 Safari/605.1.15",Macintosh,Safari,17.5,OS X,10_15_7,https://5puzkbbxv1.cognition.run/?sona_id=55732,"en-US,en;q=0.9",7gfrd5nw9kuv8lv,18,"[""Black or African-American""]",Yes,Female,NA,I'm not sure,1297378,NA,296059,NA,"{""product_choice"":""B""}",choice,tcd,trinary,attraction,1,microwave ovens,null,null,null,null,null,null,1,60,50,60,50,60,40,Warranty,Cooking power,NA,NA
NA,NA,NA,NA,NA,choice_trial_setup,html-keyboard-response,44,737972,0.0-4.0-0.20,251,1,2025-05-06T15:56:39Z,b60275e29fe2361ab97ac0ac217840d7,"Mozilla/5.0 (Macintosh; Intel Mac OS X 10_15_7) AppleWebKit/605.1.15 (KHTML, like Gecko) Version/17.5 Safari/605.1.15",Macintosh,Safari,17.5,OS X,10_15_7,https://5puzkbbxv1.cognition.run/?sona_id=55732,"en-US,en;q=0.9",7gfrd5nw9kuv8lv,18,"[""Black or African-American""]",Yes,Female,NA,I'm not sure,1297378,NA,null,<p></p>,null,choice,dtc,trinary,repulsion_B,1,laptops,null,null,null,null,null,null,2,NA,NA,NA,NA,NA,NA,NA,NA,NA,NA
NA,NA,NA,NA,NA,choice_trial,survey-html-form,45,748372,0.0-4.0-1.20,251,1,2025-05-06T15:56:39Z,b60275e29fe2361ab97ac0ac217840d7,"Mozilla/5.0 (Macintosh; Intel Mac OS X 10_15_7) AppleWebKit/605.1.15 (KHTML, like Gecko) Version/17.5 Safari/605.1.15",Macintosh,Safari,17.5,OS X,10_15_7,https://5puzkbbxv1.cognition.run/?sona_id=55732,"en-US,en;q=0.9",7gfrd5nw9kuv8lv,18,"[""Black or African-American""]",Yes,Female,NA,I'm not sure,1297378,NA,10393,NA,"{""product_choice"":""B""}",choice,dtc,trinary,repulsion_B,1,laptops,null,null,null,null,null,null,2,90,100,80,40,30,40,Processing speed,Memory (RAM),NA,NA
NA,NA,NA,NA,NA,choice_trial_setup,html-keyboard-response,46,748675,0.0-4.0-0.21,251,1,2025-05-06T15:56:39Z,b60275e29fe2361ab97ac0ac217840d7,"Mozilla/5.0 (Macintosh; Intel Mac OS X 10_15_7) AppleWebKit/605.1.15 (KHTML, like Gecko) Version/17.5 Safari/605.1.15",Macintosh,Safari,17.5,OS X,10_15_7,https://5puzkbbxv1.cognition.run/?sona_id=55732,"en-US,en;q=0.9",7gfrd5nw9kuv8lv,18,"[""Black or African-American""]",Yes,Female,NA,I'm not sure,1297378,NA,null,<p></p>,null,choice,ct,binary,repulsion,2,laptops,null,null,null,null,null,null,2,NA,NA,NA,NA,NA,NA,NA,NA,NA,NA
NA,NA,NA,NA,NA,choice_trial,survey-html-form,47,753991,0.0-4.0-1.21,251,1,2025-05-06T15:56:39Z,b60275e29fe2361ab97ac0ac217840d7,"Mozilla/5.0 (Macintosh; Intel Mac OS X 10_15_7) AppleWebKit/605.1.15 (KHTML, like Gecko) Version/17.5 Safari/605.1.15",Macintosh,Safari,17.5,OS X,10_15_7,https://5puzkbbxv1.cognition.run/?sona_id=55732,"en-US,en;q=0.9",7gfrd5nw9kuv8lv,18,"[""Black or African-American""]",Yes,Female,NA,I'm not sure,1297378,NA,5311,NA,"{""product_choice"":""A""}",choice,ct,binary,repulsion,2,laptops,null,null,null,null,null,null,2,30,40,null,100,90,null,Processing speed,Memory (RAM),NA,NA
NA,NA,NA,NA,NA,choice_trial_setup,html-keyboard-response,48,754295,0.0-4.0-0.22,251,1,2025-05-06T15:56:39Z,b60275e29fe2361ab97ac0ac217840d7,"Mozilla/5.0 (Macintosh; Intel Mac OS X 10_15_7) AppleWebKit/605.1.15 (KHTML, like Gecko) Version/17.5 Safari/605.1.15",Macintosh,Safari,17.5,OS X,10_15_7,https://5puzkbbxv1.cognition.run/?sona_id=55732,"en-US,en;q=0.9",7gfrd5nw9kuv8lv,18,"[""Black or African-American""]",Yes,Female,NA,I'm not sure,1297378,NA,null,<p></p>,null,choice,bw,binary,catch,null,laptops,90,55,30,30,null,null,2,NA,NA,NA,NA,NA,NA,NA,NA,NA,NA
NA,NA,NA,NA,NA,choice_trial,survey-html-form,49,757865,0.0-4.0-1.22,251,1,2025-05-06T15:56:39Z,b60275e29fe2361ab97ac0ac217840d7,"Mozilla/5.0 (Macintosh; Intel Mac OS X 10_15_7) AppleWebKit/605.1.15 (KHTML, like Gecko) Version/17.5 Safari/605.1.15",Macintosh,Safari,17.5,OS X,10_15_7,https://5puzkbbxv1.cognition.run/?sona_id=55732,"en-US,en;q=0.9",7gfrd5nw9kuv8lv,18,"[""Black or African-American""]",Yes,Female,NA,I'm not sure,1297378,NA,3565,NA,"{""product_choice"":""A""}",choice,bw,binary,catch,null,laptops,90,55,30,30,null,null,2,null,null,null,null,null,null,Processing speed,Memory (RAM),NA,NA
NA,NA,NA,NA,NA,choice_trial_setup,html-keyboard-response,50,758169,0.0-4.0-0.23,251,1,2025-05-06T15:56:39Z,b60275e29fe2361ab97ac0ac217840d7,"Mozilla/5.0 (Macintosh; Intel Mac OS X 10_15_7) AppleWebKit/605.1.15 (KHTML, like Gecko) Version/17.5 Safari/605.1.15",Macintosh,Safari,17.5,OS X,10_15_7,https://5puzkbbxv1.cognition.run/?sona_id=55732,"en-US,en;q=0.9",7gfrd5nw9kuv8lv,18,"[""Black or African-American""]",Yes,Female,NA,I'm not sure,1297378,NA,null,<p></p>,null,choice,wwb,trinary,catch,null,laptops,75,55,20,45,50,25,2,NA,NA,NA,NA,NA,NA,NA,NA,NA,NA
NA,NA,NA,NA,NA,choice_trial,survey-html-form,51,761236,0.0-4.0-1.23,251,1,2025-05-06T15:56:39Z,b60275e29fe2361ab97ac0ac217840d7,"Mozilla/5.0 (Macintosh; Intel Mac OS X 10_15_7) AppleWebKit/605.1.15 (KHTML, like Gecko) Version/17.5 Safari/605.1.15",Macintosh,Safari,17.5,OS X,10_15_7,https://5puzkbbxv1.cognition.run/?sona_id=55732,"en-US,en;q=0.9",7gfrd5nw9kuv8lv,18,"[""Black or African-American""]",Yes,Female,NA,I'm not sure,1297378,NA,3063,NA,"{""product_choice"":""C""}",choice,wwb,trinary,catch,null,laptops,75,55,20,45,50,25,2,null,null,null,null,null,null,Processing speed,Memory (RAM),NA,NA
NA,NA,NA,NA,NA,choice_trial_setup,html-keyboard-response,52,761540,0.0-4.0-0.24,251,1,2025-05-06T15:56:39Z,b60275e29fe2361ab97ac0ac217840d7,"Mozilla/5.0 (Macintosh; Intel Mac OS X 10_15_7) AppleWebKit/605.1.15 (KHTML, like Gecko) Version/17.5 Safari/605.1.15",Macintosh,Safari,17.5,OS X,10_15_7,https://5puzkbbxv1.cognition.run/?sona_id=55732,"en-US,en;q=0.9",7gfrd5nw9kuv8lv,18,"[""Black or African-American""]",Yes,Female,NA,I'm not sure,1297378,NA,null,<p></p>,null,choice,tdc,trinary,repulsion_A,2,washing machines,null,null,null,null,null,null,2,NA,NA,NA,NA,NA,NA,NA,NA,NA,NA
NA,NA,NA,NA,NA,choice_trial,survey-html-form,53,766132,0.0-4.0-1.24,251,1,2025-05-06T15:56:39Z,b60275e29fe2361ab97ac0ac217840d7,"Mozilla/5.0 (Macintosh; Intel Mac OS X 10_15_7) AppleWebKit/605.1.15 (KHTML, like Gecko) Version/17.5 Safari/605.1.15",Macintosh,Safari,17.5,OS X,10_15_7,https://5puzkbbxv1.cognition.run/?sona_id=55732,"en-US,en;q=0.9",7gfrd5nw9kuv8lv,18,"[""Black or African-American""]",Yes,Female,NA,I'm not sure,1297378,NA,4586,NA,"{""product_choice"":""C""}",choice,tdc,trinary,repulsion_A,2,washing machines,null,null,null,null,null,null,2,30,40,20,100,90,100,Average lifespan,Energy savings,NA,NA
NA,NA,NA,NA,NA,choice_trial_setup,html-keyboard-response,54,766436,0.0-4.0-0.25,251,1,2025-05-06T15:56:39Z,b60275e29fe2361ab97ac0ac217840d7,"Mozilla/5.0 (Macintosh; Intel Mac OS X 10_15_7) AppleWebKit/605.1.15 (KHTML, like Gecko) Version/17.5 Safari/605.1.15",Macintosh,Safari,17.5,OS X,10_15_7,https://5puzkbbxv1.cognition.run/?sona_id=55732,"en-US,en;q=0.9",7gfrd5nw9kuv8lv,18,"[""Black or African-American""]",Yes,Female,NA,I'm not sure,1297378,NA,null,<p></p>,null,choice,dtc,trinary,repulsion_A,1,washing machines,null,null,null,null,null,null,2,NA,NA,NA,NA,NA,NA,NA,NA,NA,NA
NA,NA,NA,NA,NA,choice_trial,survey-html-form,55,771168,0.0-4.0-1.25,251,1,2025-05-06T15:56:39Z,b60275e29fe2361ab97ac0ac217840d7,"Mozilla/5.0 (Macintosh; Intel Mac OS X 10_15_7) AppleWebKit/605.1.15 (KHTML, like Gecko) Version/17.5 Safari/605.1.15",Macintosh,Safari,17.5,OS X,10_15_7,https://5puzkbbxv1.cognition.run/?sona_id=55732,"en-US,en;q=0.9",7gfrd5nw9kuv8lv,18,"[""Black or African-American""]",Yes,Female,NA,I'm not sure,1297378,NA,4727,NA,"{""product_choice"":""C""}",choice,dtc,trinary,repulsion_A,1,washing machines,null,null,null,null,null,null,2,100,90,100,30,40,20,Average lifespan,Energy savings,NA,NA
NA,NA,NA,NA,NA,choice_trial_setup,html-keyboard-response,56,771471,0.0-4.0-0.26,251,1,2025-05-06T15:56:39Z,b60275e29fe2361ab97ac0ac217840d7,"Mozilla/5.0 (Macintosh; Intel Mac OS X 10_15_7) AppleWebKit/605.1.15 (KHTML, like Gecko) Version/17.5 Safari/605.1.15",Macintosh,Safari,17.5,OS X,10_15_7,https://5puzkbbxv1.cognition.run/?sona_id=55732,"en-US,en;q=0.9",7gfrd5nw9kuv8lv,18,"[""Black or African-American""]",Yes,Female,NA,I'm not sure,1297378,NA,null,<p></p>,null,choice,dct,trinary,attraction,1,televisions,null,null,null,null,null,null,1,NA,NA,NA,NA,NA,NA,NA,NA,NA,NA
NA,NA,NA,NA,NA,choice_trial,survey-html-form,57,776142,0.0-4.0-1.26,251,1,2025-05-06T15:56:39Z,b60275e29fe2361ab97ac0ac217840d7,"Mozilla/5.0 (Macintosh; Intel Mac OS X 10_15_7) AppleWebKit/605.1.15 (KHTML, like Gecko) Version/17.5 Safari/605.1.15",Macintosh,Safari,17.5,OS X,10_15_7,https://5puzkbbxv1.cognition.run/?sona_id=55732,"en-US,en;q=0.9",7gfrd5nw9kuv8lv,18,"[""Black or African-American""]",Yes,Female,NA,I'm not sure,1297378,NA,4666,NA,"{""product_choice"":""B""}",choice,dct,trinary,attraction,1,televisions,null,null,null,null,null,null,1,60,50,60,50,60,40,Screen size,Average lifespan,NA,NA
NA,NA,NA,NA,NA,choice_trial_setup,html-keyboard-response,58,776447,0.0-4.0-0.27,251,1,2025-05-06T15:56:39Z,b60275e29fe2361ab97ac0ac217840d7,"Mozilla/5.0 (Macintosh; Intel Mac OS X 10_15_7) AppleWebKit/605.1.15 (KHTML, like Gecko) Version/17.5 Safari/605.1.15",Macintosh,Safari,17.5,OS X,10_15_7,https://5puzkbbxv1.cognition.run/?sona_id=55732,"en-US,en;q=0.9",7gfrd5nw9kuv8lv,18,"[""Black or African-American""]",Yes,Female,NA,I'm not sure,1297378,NA,null,<p></p>,null,choice,dct,trinary,repulsion_B,1,microwave ovens,null,null,null,null,null,null,2,NA,NA,NA,NA,NA,NA,NA,NA,NA,NA
NA,NA,NA,NA,NA,choice_trial,survey-html-form,59,781651,0.0-4.0-1.27,251,1,2025-05-06T15:56:39Z,b60275e29fe2361ab97ac0ac217840d7,"Mozilla/5.0 (Macintosh; Intel Mac OS X 10_15_7) AppleWebKit/605.1.15 (KHTML, like Gecko) Version/17.5 Safari/605.1.15",Macintosh,Safari,17.5,OS X,10_15_7,https://5puzkbbxv1.cognition.run/?sona_id=55732,"en-US,en;q=0.9",7gfrd5nw9kuv8lv,18,"[""Black or African-American""]",Yes,Female,NA,I'm not sure,1297378,NA,5199,NA,"{""product_choice"":""C""}",choice,dct,trinary,repulsion_B,1,microwave ovens,null,null,null,null,null,null,2,90,100,80,40,30,40,Warranty,Cooking power,NA,NA
NA,NA,NA,NA,NA,choice_trial_setup,html-keyboard-response,60,781955,0.0-4.0-0.28,251,1,2025-05-06T15:56:39Z,b60275e29fe2361ab97ac0ac217840d7,"Mozilla/5.0 (Macintosh; Intel Mac OS X 10_15_7) AppleWebKit/605.1.15 (KHTML, like Gecko) Version/17.5 Safari/605.1.15",Macintosh,Safari,17.5,OS X,10_15_7,https://5puzkbbxv1.cognition.run/?sona_id=55732,"en-US,en;q=0.9",7gfrd5nw9kuv8lv,18,"[""Black or African-American""]",Yes,Female,NA,I'm not sure,1297378,NA,null,<p></p>,null,choice,bw,binary,catch,null,washing machines,90,60,30,25,null,null,2,NA,NA,NA,NA,NA,NA,NA,NA,NA,NA
NA,NA,NA,NA,NA,choice_trial,survey-html-form,61,785549,0.0-4.0-1.28,251,1,2025-05-06T15:56:39Z,b60275e29fe2361ab97ac0ac217840d7,"Mozilla/5.0 (Macintosh; Intel Mac OS X 10_15_7) AppleWebKit/605.1.15 (KHTML, like Gecko) Version/17.5 Safari/605.1.15",Macintosh,Safari,17.5,OS X,10_15_7,https://5puzkbbxv1.cognition.run/?sona_id=55732,"en-US,en;q=0.9",7gfrd5nw9kuv8lv,18,"[""Black or African-American""]",Yes,Female,NA,I'm not sure,1297378,NA,3587,NA,"{""product_choice"":""A""}",choice,bw,binary,catch,null,washing machines,90,60,30,25,null,null,2,null,null,null,null,null,null,Average lifespan,Energy savings,NA,NA
NA,NA,NA,NA,NA,choice_trial_setup,html-keyboard-response,62,785854,0.0-4.0-0.29,251,1,2025-05-06T15:56:39Z,b60275e29fe2361ab97ac0ac217840d7,"Mozilla/5.0 (Macintosh; Intel Mac OS X 10_15_7) AppleWebKit/605.1.15 (KHTML, like Gecko) Version/17.5 Safari/605.1.15",Macintosh,Safari,17.5,OS X,10_15_7,https://5puzkbbxv1.cognition.run/?sona_id=55732,"en-US,en;q=0.9",7gfrd5nw9kuv8lv,18,"[""Black or African-American""]",Yes,Female,NA,I'm not sure,1297378,NA,null,<p></p>,null,choice,tc,binary,repulsion,1,televisions,null,null,null,null,null,null,1,NA,NA,NA,NA,NA,NA,NA,NA,NA,NA
NA,NA,NA,NA,NA,choice_trial,survey-html-form,63,789462,0.0-4.0-1.29,251,1,2025-05-06T15:56:39Z,b60275e29fe2361ab97ac0ac217840d7,"Mozilla/5.0 (Macintosh; Intel Mac OS X 10_15_7) AppleWebKit/605.1.15 (KHTML, like Gecko) Version/17.5 Safari/605.1.15",Macintosh,Safari,17.5,OS X,10_15_7,https://5puzkbbxv1.cognition.run/?sona_id=55732,"en-US,en;q=0.9",7gfrd5nw9kuv8lv,18,"[""Black or African-American""]",Yes,Female,NA,I'm not sure,1297378,NA,3604,NA,"{""product_choice"":""B""}",choice,tc,binary,repulsion,1,televisions,null,null,null,null,null,null,1,100,90,null,30,40,null,Screen size,Average lifespan,NA,NA
NA,NA,NA,NA,NA,choice_trial_setup,html-keyboard-response,64,789765,0.0-4.0-0.30,251,1,2025-05-06T15:56:39Z,b60275e29fe2361ab97ac0ac217840d7,"Mozilla/5.0 (Macintosh; Intel Mac OS X 10_15_7) AppleWebKit/605.1.15 (KHTML, like Gecko) Version/17.5 Safari/605.1.15",Macintosh,Safari,17.5,OS X,10_15_7,https://5puzkbbxv1.cognition.run/?sona_id=55732,"en-US,en;q=0.9",7gfrd5nw9kuv8lv,18,"[""Black or African-American""]",Yes,Female,NA,I'm not sure,1297378,NA,null,<p></p>,null,choice,tc,binary,repulsion,1,microwave ovens,null,null,null,null,null,null,1,NA,NA,NA,NA,NA,NA,NA,NA,NA,NA
NA,NA,NA,NA,NA,choice_trial,survey-html-form,65,794908,0.0-4.0-1.30,251,1,2025-05-06T15:56:39Z,b60275e29fe2361ab97ac0ac217840d7,"Mozilla/5.0 (Macintosh; Intel Mac OS X 10_15_7) AppleWebKit/605.1.15 (KHTML, like Gecko) Version/17.5 Safari/605.1.15",Macintosh,Safari,17.5,OS X,10_15_7,https://5puzkbbxv1.cognition.run/?sona_id=55732,"en-US,en;q=0.9",7gfrd5nw9kuv8lv,18,"[""Black or African-American""]",Yes,Female,NA,I'm not sure,1297378,NA,5137,NA,"{""product_choice"":""B""}",choice,tc,binary,repulsion,1,microwave ovens,null,null,null,null,null,null,1,100,90,null,30,40,null,Warranty,Cooking power,NA,NA
NA,NA,NA,NA,NA,choice_trial_setup,html-keyboard-response,66,795214,0.0-4.0-0.31,251,1,2025-05-06T15:56:39Z,b60275e29fe2361ab97ac0ac217840d7,"Mozilla/5.0 (Macintosh; Intel Mac OS X 10_15_7) AppleWebKit/605.1.15 (KHTML, like Gecko) Version/17.5 Safari/605.1.15",Macintosh,Safari,17.5,OS X,10_15_7,https://5puzkbbxv1.cognition.run/?sona_id=55732,"en-US,en;q=0.9",7gfrd5nw9kuv8lv,18,"[""Black or African-American""]",Yes,Female,NA,I'm not sure,1297378,NA,null,<p></p>,null,choice,bww,trinary,catch,null,microwave ovens,55,65,5,5,15,20,1,NA,NA,NA,NA,NA,NA,NA,NA,NA,NA
NA,NA,NA,NA,NA,choice_trial,survey-html-form,67,798766,0.0-4.0-1.31,251,1,2025-05-06T15:56:39Z,b60275e29fe2361ab97ac0ac217840d7,"Mozilla/5.0 (Macintosh; Intel Mac OS X 10_15_7) AppleWebKit/605.1.15 (KHTML, like Gecko) Version/17.5 Safari/605.1.15",Macintosh,Safari,17.5,OS X,10_15_7,https://5puzkbbxv1.cognition.run/?sona_id=55732,"en-US,en;q=0.9",7gfrd5nw9kuv8lv,18,"[""Black or African-American""]",Yes,Female,NA,I'm not sure,1297378,NA,3546,NA,"{""product_choice"":""A""}",choice,bww,trinary,catch,null,microwave ovens,55,65,5,5,15,20,1,null,null,null,null,null,null,Warranty,Cooking power,NA,NA
NA,NA,NA,NA,NA,choice_trial_setup,html-keyboard-response,68,799071,0.0-4.0-0.32,251,1,2025-05-06T15:56:39Z,b60275e29fe2361ab97ac0ac217840d7,"Mozilla/5.0 (Macintosh; Intel Mac OS X 10_15_7) AppleWebKit/605.1.15 (KHTML, like Gecko) Version/17.5 Safari/605.1.15",Macintosh,Safari,17.5,OS X,10_15_7,https://5puzkbbxv1.cognition.run/?sona_id=55732,"en-US,en;q=0.9",7gfrd5nw9kuv8lv,18,"[""Black or African-American""]",Yes,Female,NA,I'm not sure,1297378,NA,null,<p></p>,null,choice,wb,binary,catch,null,microwave ovens,95,95,15,50,null,null,1,NA,NA,NA,NA,NA,NA,NA,NA,NA,NA
NA,NA,NA,NA,NA,choice_trial,survey-html-form,69,802862,0.0-4.0-1.32,251,1,2025-05-06T15:56:39Z,b60275e29fe2361ab97ac0ac217840d7,"Mozilla/5.0 (Macintosh; Intel Mac OS X 10_15_7) AppleWebKit/605.1.15 (KHTML, like Gecko) Version/17.5 Safari/605.1.15",Macintosh,Safari,17.5,OS X,10_15_7,https://5puzkbbxv1.cognition.run/?sona_id=55732,"en-US,en;q=0.9",7gfrd5nw9kuv8lv,18,"[""Black or African-American""]",Yes,Female,NA,I'm not sure,1297378,NA,3786,NA,"{""product_choice"":""B""}",choice,wb,binary,catch,null,microwave ovens,95,95,15,50,null,null,1,null,null,null,null,null,null,Warranty,Cooking power,NA,NA
NA,NA,NA,NA,NA,choice_trial_setup,html-keyboard-response,70,803166,0.0-4.0-0.33,251,1,2025-05-06T15:56:39Z,b60275e29fe2361ab97ac0ac217840d7,"Mozilla/5.0 (Macintosh; Intel Mac OS X 10_15_7) AppleWebKit/605.1.15 (KHTML, like Gecko) Version/17.5 Safari/605.1.15",Macintosh,Safari,17.5,OS X,10_15_7,https://5puzkbbxv1.cognition.run/?sona_id=55732,"en-US,en;q=0.9",7gfrd5nw9kuv8lv,18,"[""Black or African-American""]",Yes,Female,NA,I'm not sure,1297378,NA,null,<p></p>,null,choice,dct,trinary,repulsion_B,1,washing machines,null,null,null,null,null,null,2,NA,NA,NA,NA,NA,NA,NA,NA,NA,NA
NA,NA,NA,NA,NA,choice_trial,survey-html-form,71,809653,0.0-4.0-1.33,251,1,2025-05-06T15:56:39Z,b60275e29fe2361ab97ac0ac217840d7,"Mozilla/5.0 (Macintosh; Intel Mac OS X 10_15_7) AppleWebKit/605.1.15 (KHTML, like Gecko) Version/17.5 Safari/605.1.15",Macintosh,Safari,17.5,OS X,10_15_7,https://5puzkbbxv1.cognition.run/?sona_id=55732,"en-US,en;q=0.9",7gfrd5nw9kuv8lv,18,"[""Black or African-American""]",Yes,Female,NA,I'm not sure,1297378,NA,6481,NA,"{""product_choice"":""C""}",choice,dct,trinary,repulsion_B,1,washing machines,null,null,null,null,null,null,2,90,100,80,40,30,40,Average lifespan,Energy savings,NA,NA
NA,NA,NA,NA,NA,choice_trial_setup,html-keyboard-response,72,809958,0.0-4.0-0.34,251,1,2025-05-06T15:56:39Z,b60275e29fe2361ab97ac0ac217840d7,"Mozilla/5.0 (Macintosh; Intel Mac OS X 10_15_7) AppleWebKit/605.1.15 (KHTML, like Gecko) Version/17.5 Safari/605.1.15",Macintosh,Safari,17.5,OS X,10_15_7,https://5puzkbbxv1.cognition.run/?sona_id=55732,"en-US,en;q=0.9",7gfrd5nw9kuv8lv,18,"[""Black or African-American""]",Yes,Female,NA,I'm not sure,1297378,NA,null,<p></p>,null,choice,dtc,trinary,attraction,2,washing machines,null,null,null,null,null,null,2,NA,NA,NA,NA,NA,NA,NA,NA,NA,NA
NA,NA,NA,NA,NA,choice_trial,survey-html-form,73,816507,0.0-4.0-1.34,251,1,2025-05-06T15:56:39Z,b60275e29fe2361ab97ac0ac217840d7,"Mozilla/5.0 (Macintosh; Intel Mac OS X 10_15_7) AppleWebKit/605.1.15 (KHTML, like Gecko) Version/17.5 Safari/605.1.15",Macintosh,Safari,17.5,OS X,10_15_7,https://5puzkbbxv1.cognition.run/?sona_id=55732,"en-US,en;q=0.9",7gfrd5nw9kuv8lv,18,"[""Black or African-American""]",Yes,Female,NA,I'm not sure,1297378,NA,6544,NA,"{""product_choice"":""C""}",choice,dtc,trinary,attraction,2,washing machines,null,null,null,null,null,null,2,50,60,40,60,50,60,Average lifespan,Energy savings,NA,NA
NA,NA,NA,NA,NA,choice_trial_setup,html-keyboard-response,74,816812,0.0-4.0-0.35,251,1,2025-05-06T15:56:39Z,b60275e29fe2361ab97ac0ac217840d7,"Mozilla/5.0 (Macintosh; Intel Mac OS X 10_15_7) AppleWebKit/605.1.15 (KHTML, like Gecko) Version/17.5 Safari/605.1.15",Macintosh,Safari,17.5,OS X,10_15_7,https://5puzkbbxv1.cognition.run/?sona_id=55732,"en-US,en;q=0.9",7gfrd5nw9kuv8lv,18,"[""Black or African-American""]",Yes,Female,NA,I'm not sure,1297378,NA,null,<p></p>,null,choice,tdc,trinary,repulsion_B,2,televisions,null,null,null,null,null,null,2,NA,NA,NA,NA,NA,NA,NA,NA,NA,NA
NA,NA,NA,NA,NA,choice_trial,survey-html-form,75,824550,0.0-4.0-1.35,251,1,2025-05-06T15:56:39Z,b60275e29fe2361ab97ac0ac217840d7,"Mozilla/5.0 (Macintosh; Intel Mac OS X 10_15_7) AppleWebKit/605.1.15 (KHTML, like Gecko) Version/17.5 Safari/605.1.15",Macintosh,Safari,17.5,OS X,10_15_7,https://5puzkbbxv1.cognition.run/?sona_id=55732,"en-US,en;q=0.9",7gfrd5nw9kuv8lv,18,"[""Black or African-American""]",Yes,Female,NA,I'm not sure,1297378,NA,7733,NA,"{""product_choice"":""C""}",choice,tdc,trinary,repulsion_B,2,televisions,null,null,null,null,null,null,2,40,30,40,90,100,80,Screen size,Average lifespan,NA,NA
NA,NA,NA,NA,NA,choice_trial_setup,html-keyboard-response,76,824854,0.0-4.0-0.36,251,1,2025-05-06T15:56:39Z,b60275e29fe2361ab97ac0ac217840d7,"Mozilla/5.0 (Macintosh; Intel Mac OS X 10_15_7) AppleWebKit/605.1.15 (KHTML, like Gecko) Version/17.5 Safari/605.1.15",Macintosh,Safari,17.5,OS X,10_15_7,https://5puzkbbxv1.cognition.run/?sona_id=55732,"en-US,en;q=0.9",7gfrd5nw9kuv8lv,18,"[""Black or African-American""]",Yes,Female,NA,I'm not sure,1297378,NA,null,<p></p>,null,choice,tc,binary,repulsion,1,washing machines,null,null,null,null,null,null,2,NA,NA,NA,NA,NA,NA,NA,NA,NA,NA
NA,NA,NA,NA,NA,choice_trial,survey-html-form,77,835644,0.0-4.0-1.36,251,1,2025-05-06T15:56:39Z,b60275e29fe2361ab97ac0ac217840d7,"Mozilla/5.0 (Macintosh; Intel Mac OS X 10_15_7) AppleWebKit/605.1.15 (KHTML, like Gecko) Version/17.5 Safari/605.1.15",Macintosh,Safari,17.5,OS X,10_15_7,https://5puzkbbxv1.cognition.run/?sona_id=55732,"en-US,en;q=0.9",7gfrd5nw9kuv8lv,18,"[""Black or African-American""]",Yes,Female,NA,I'm not sure,1297378,NA,10785,NA,"{""product_choice"":""A""}",choice,tc,binary,repulsion,1,washing machines,null,null,null,null,null,null,2,100,90,null,30,40,null,Average lifespan,Energy savings,NA,NA
NA,NA,NA,NA,NA,choice_trial_setup,html-keyboard-response,78,835949,0.0-4.0-0.37,251,1,2025-05-06T15:56:39Z,b60275e29fe2361ab97ac0ac217840d7,"Mozilla/5.0 (Macintosh; Intel Mac OS X 10_15_7) AppleWebKit/605.1.15 (KHTML, like Gecko) Version/17.5 Safari/605.1.15",Macintosh,Safari,17.5,OS X,10_15_7,https://5puzkbbxv1.cognition.run/?sona_id=55732,"en-US,en;q=0.9",7gfrd5nw9kuv8lv,18,"[""Black or African-American""]",Yes,Female,NA,I'm not sure,1297378,NA,null,<p></p>,null,choice,tc,binary,attraction,NA,washing machines,null,null,null,null,null,null,2,NA,NA,NA,NA,NA,NA,NA,NA,NA,NA
NA,NA,NA,NA,NA,choice_trial,survey-html-form,79,840100,0.0-4.0-1.37,251,1,2025-05-06T15:56:39Z,b60275e29fe2361ab97ac0ac217840d7,"Mozilla/5.0 (Macintosh; Intel Mac OS X 10_15_7) AppleWebKit/605.1.15 (KHTML, like Gecko) Version/17.5 Safari/605.1.15",Macintosh,Safari,17.5,OS X,10_15_7,https://5puzkbbxv1.cognition.run/?sona_id=55732,"en-US,en;q=0.9",7gfrd5nw9kuv8lv,18,"[""Black or African-American""]",Yes,Female,NA,I'm not sure,1297378,NA,4146,NA,"{""product_choice"":""A""}",choice,tc,binary,attraction,NA,washing machines,null,null,null,null,null,null,2,60,50,null,50,60,null,Average lifespan,Energy savings,NA,NA
NA,NA,NA,NA,NA,choice_trial_setup,html-keyboard-response,80,840404,0.0-4.0-0.38,251,1,2025-05-06T15:56:39Z,b60275e29fe2361ab97ac0ac217840d7,"Mozilla/5.0 (Macintosh; Intel Mac OS X 10_15_7) AppleWebKit/605.1.15 (KHTML, like Gecko) Version/17.5 Safari/605.1.15",Macintosh,Safari,17.5,OS X,10_15_7,https://5puzkbbxv1.cognition.run/?sona_id=55732,"en-US,en;q=0.9",7gfrd5nw9kuv8lv,18,"[""Black or African-American""]",Yes,Female,NA,I'm not sure,1297378,NA,null,<p></p>,null,choice,tc,binary,repulsion,1,laptops,null,null,null,null,null,null,1,NA,NA,NA,NA,NA,NA,NA,NA,NA,NA
NA,NA,NA,NA,NA,choice_trial,survey-html-form,81,847345,0.0-4.0-1.38,251,1,2025-05-06T15:56:39Z,b60275e29fe2361ab97ac0ac217840d7,"Mozilla/5.0 (Macintosh; Intel Mac OS X 10_15_7) AppleWebKit/605.1.15 (KHTML, like Gecko) Version/17.5 Safari/605.1.15",Macintosh,Safari,17.5,OS X,10_15_7,https://5puzkbbxv1.cognition.run/?sona_id=55732,"en-US,en;q=0.9",7gfrd5nw9kuv8lv,18,"[""Black or African-American""]",Yes,Female,NA,I'm not sure,1297378,NA,6936,NA,"{""product_choice"":""B""}",choice,tc,binary,repulsion,1,laptops,null,null,null,null,null,null,1,100,90,null,30,40,null,Processing speed,Memory (RAM),NA,NA
NA,NA,NA,NA,NA,choice_trial_setup,html-keyboard-response,82,847650,0.0-4.0-0.39,251,1,2025-05-06T15:56:39Z,b60275e29fe2361ab97ac0ac217840d7,"Mozilla/5.0 (Macintosh; Intel Mac OS X 10_15_7) AppleWebKit/605.1.15 (KHTML, like Gecko) Version/17.5 Safari/605.1.15",Macintosh,Safari,17.5,OS X,10_15_7,https://5puzkbbxv1.cognition.run/?sona_id=55732,"en-US,en;q=0.9",7gfrd5nw9kuv8lv,18,"[""Black or African-American""]",Yes,Female,NA,I'm not sure,1297378,NA,null,<p></p>,null,choice,wbw,trinary,catch,null,washing machines,85,95,45,35,15,15,1,NA,NA,NA,NA,NA,NA,NA,NA,NA,NA
NA,NA,NA,NA,NA,choice_trial,survey-html-form,83,852741,0.0-4.0-1.39,251,1,2025-05-06T15:56:39Z,b60275e29fe2361ab97ac0ac217840d7,"Mozilla/5.0 (Macintosh; Intel Mac OS X 10_15_7) AppleWebKit/605.1.15 (KHTML, like Gecko) Version/17.5 Safari/605.1.15",Macintosh,Safari,17.5,OS X,10_15_7,https://5puzkbbxv1.cognition.run/?sona_id=55732,"en-US,en;q=0.9",7gfrd5nw9kuv8lv,18,"[""Black or African-American""]",Yes,Female,NA,I'm not sure,1297378,NA,5086,NA,"{""product_choice"":""B""}",choice,wbw,trinary,catch,null,washing machines,85,95,45,35,15,15,1,null,null,null,null,null,null,Average lifespan,Energy savings,NA,NA
NA,NA,NA,NA,NA,choice_trial_setup,html-keyboard-response,84,853045,0.0-4.0-0.40,251,1,2025-05-06T15:56:39Z,b60275e29fe2361ab97ac0ac217840d7,"Mozilla/5.0 (Macintosh; Intel Mac OS X 10_15_7) AppleWebKit/605.1.15 (KHTML, like Gecko) Version/17.5 Safari/605.1.15",Macintosh,Safari,17.5,OS X,10_15_7,https://5puzkbbxv1.cognition.run/?sona_id=55732,"en-US,en;q=0.9",7gfrd5nw9kuv8lv,18,"[""Black or African-American""]",Yes,Female,NA,I'm not sure,1297378,NA,null,<p></p>,null,choice,tcd,trinary,attraction,2,televisions,null,null,null,null,null,null,2,NA,NA,NA,NA,NA,NA,NA,NA,NA,NA
NA,NA,NA,NA,NA,choice_trial,survey-html-form,85,923161,0.0-4.0-1.40,251,1,2025-05-06T15:56:39Z,b60275e29fe2361ab97ac0ac217840d7,"Mozilla/5.0 (Macintosh; Intel Mac OS X 10_15_7) AppleWebKit/605.1.15 (KHTML, like Gecko) Version/17.5 Safari/605.1.15",Macintosh,Safari,17.5,OS X,10_15_7,https://5puzkbbxv1.cognition.run/?sona_id=55732,"en-US,en;q=0.9",7gfrd5nw9kuv8lv,18,"[""Black or African-American""]",Yes,Female,NA,I'm not sure,1297378,NA,70104,NA,"{""product_choice"":""A""}",choice,tcd,trinary,attraction,2,televisions,null,null,null,null,null,null,2,50,60,40,60,50,60,Screen size,Average lifespan,NA,NA
NA,NA,NA,NA,NA,choice_trial_setup,html-keyboard-response,86,923467,0.0-4.0-0.41,251,1,2025-05-06T15:56:39Z,b60275e29fe2361ab97ac0ac217840d7,"Mozilla/5.0 (Macintosh; Intel Mac OS X 10_15_7) AppleWebKit/605.1.15 (KHTML, like Gecko) Version/17.5 Safari/605.1.15",Macintosh,Safari,17.5,OS X,10_15_7,https://5puzkbbxv1.cognition.run/?sona_id=55732,"en-US,en;q=0.9",7gfrd5nw9kuv8lv,18,"[""Black or African-American""]",Yes,Female,NA,I'm not sure,1297378,NA,null,<p></p>,null,choice,tdc,trinary,repulsion_A,2,microwave ovens,null,null,null,null,null,null,2,NA,NA,NA,NA,NA,NA,NA,NA,NA,NA
NA,NA,NA,NA,NA,choice_trial,survey-html-form,87,927760,0.0-4.0-1.41,251,1,2025-05-06T15:56:39Z,b60275e29fe2361ab97ac0ac217840d7,"Mozilla/5.0 (Macintosh; Intel Mac OS X 10_15_7) AppleWebKit/605.1.15 (KHTML, like Gecko) Version/17.5 Safari/605.1.15",Macintosh,Safari,17.5,OS X,10_15_7,https://5puzkbbxv1.cognition.run/?sona_id=55732,"en-US,en;q=0.9",7gfrd5nw9kuv8lv,18,"[""Black or African-American""]",Yes,Female,NA,I'm not sure,1297378,NA,4287,NA,"{""product_choice"":""C""}",choice,tdc,trinary,repulsion_A,2,microwave ovens,null,null,null,null,null,null,2,30,40,20,100,90,100,Warranty,Cooking power,NA,NA
NA,NA,NA,NA,NA,choice_trial_setup,html-keyboard-response,88,928063,0.0-4.0-0.42,251,1,2025-05-06T15:56:39Z,b60275e29fe2361ab97ac0ac217840d7,"Mozilla/5.0 (Macintosh; Intel Mac OS X 10_15_7) AppleWebKit/605.1.15 (KHTML, like Gecko) Version/17.5 Safari/605.1.15",Macintosh,Safari,17.5,OS X,10_15_7,https://5puzkbbxv1.cognition.run/?sona_id=55732,"en-US,en;q=0.9",7gfrd5nw9kuv8lv,18,"[""Black or African-American""]",Yes,Female,NA,I'm not sure,1297378,NA,null,<p></p>,null,choice,tcd,trinary,attraction,2,laptops,null,null,null,null,null,null,1,NA,NA,NA,NA,NA,NA,NA,NA,NA,NA
NA,NA,NA,NA,NA,choice_trial,survey-html-form,89,1276942,0.0-4.0-1.42,251,1,2025-05-06T15:56:39Z,b60275e29fe2361ab97ac0ac217840d7,"Mozilla/5.0 (Macintosh; Intel Mac OS X 10_15_7) AppleWebKit/605.1.15 (KHTML, like Gecko) Version/17.5 Safari/605.1.15",Macintosh,Safari,17.5,OS X,10_15_7,https://5puzkbbxv1.cognition.run/?sona_id=55732,"en-US,en;q=0.9",7gfrd5nw9kuv8lv,18,"[""Black or African-American""]",Yes,Female,NA,I'm not sure,1297378,NA,266873,NA,"{""product_choice"":""B""}",choice,tcd,trinary,attraction,2,laptops,null,null,null,null,null,null,1,50,60,40,60,50,60,Processing speed,Memory (RAM),NA,NA
NA,NA,NA,NA,NA,choice_trial_setup,html-keyboard-response,90,1277248,0.0-4.0-0.43,251,1,2025-05-06T15:56:39Z,b60275e29fe2361ab97ac0ac217840d7,"Mozilla/5.0 (Macintosh; Intel Mac OS X 10_15_7) AppleWebKit/605.1.15 (KHTML, like Gecko) Version/17.5 Safari/605.1.15",Macintosh,Safari,17.5,OS X,10_15_7,https://5puzkbbxv1.cognition.run/?sona_id=55732,"en-US,en;q=0.9",7gfrd5nw9kuv8lv,18,"[""Black or African-American""]",Yes,Female,NA,I'm not sure,1297378,NA,null,<p></p>,null,choice,dtc,trinary,repulsion_B,1,televisions,null,null,null,null,null,null,1,NA,NA,NA,NA,NA,NA,NA,NA,NA,NA
NA,NA,NA,NA,NA,choice_trial,survey-html-form,91,1282349,0.0-4.0-1.43,251,1,2025-05-06T15:56:39Z,b60275e29fe2361ab97ac0ac217840d7,"Mozilla/5.0 (Macintosh; Intel Mac OS X 10_15_7) AppleWebKit/605.1.15 (KHTML, like Gecko) Version/17.5 Safari/605.1.15",Macintosh,Safari,17.5,OS X,10_15_7,https://5puzkbbxv1.cognition.run/?sona_id=55732,"en-US,en;q=0.9",7gfrd5nw9kuv8lv,18,"[""Black or African-American""]",Yes,Female,NA,I'm not sure,1297378,NA,5093,NA,"{""product_choice"":""B""}",choice,dtc,trinary,repulsion_B,1,televisions,null,null,null,null,null,null,1,90,100,80,40,30,40,Screen size,Average lifespan,NA,NA
NA,NA,NA,NA,NA,post_trials_message,html-button-response,92,1284741,0.0-5.0,251,1,2025-05-06T15:56:39Z,b60275e29fe2361ab97ac0ac217840d7,"Mozilla/5.0 (Macintosh; Intel Mac OS X 10_15_7) AppleWebKit/605.1.15 (KHTML, like Gecko) Version/17.5 Safari/605.1.15",Macintosh,Safari,17.5,OS X,10_15_7,https://5puzkbbxv1.cognition.run/?sona_id=55732,"en-US,en;q=0.9",7gfrd5nw9kuv8lv,18,"[""Black or African-American""]",Yes,Female,NA,I'm not sure,1297378,NA,2388,<p> <b>Thank you for your patience!</b></p><p>  The study will be done after completing a brief form. </p>,0,NA,NA,NA,NA,NA,NA,NA,NA,NA,NA,NA,NA,NA,NA,NA,NA,NA,NA,NA,NA,NA,NA,NA
NA,NA,NA,NA,NA,survey_message,survey-text,93,1341626,0.0-6.0,251,1,2025-05-06T15:56:39Z,b60275e29fe2361ab97ac0ac217840d7,"Mozilla/5.0 (Macintosh; Intel Mac OS X 10_15_7) AppleWebKit/605.1.15 (KHTML, like Gecko) Version/17.5 Safari/605.1.15",Macintosh,Safari,17.5,OS X,10_15_7,https://5puzkbbxv1.cognition.run/?sona_id=55732,"en-US,en;q=0.9",7gfrd5nw9kuv8lv,18,"[""Black or African-American""]",Yes,Female,NA,I'm not sure,1297378,NA,56869,NA,"{""Q0"":""I felt like how long something lasts is more important so I made sure to choose something that moves at a fast speed, and is durable but when it was durability vs. screen size i easily chose longer durability over a bigger screen""}",NA,NA,NA,NA,NA,NA,NA,NA,NA,NA,NA,NA,NA,NA,NA,NA,NA,NA,NA,NA,NA,"I felt like how long something lasts is more important so I made sure to choose something that moves at a fast speed, and is durable but when it was durability vs. screen size i easily chose longer durability over a bigger screen",NA
NA,NA,NA,NA,NA,demo_age,survey-text,94,1344313,0.0-7.0,251,1,2025-05-06T15:56:39Z,b60275e29fe2361ab97ac0ac217840d7,"Mozilla/5.0 (Macintosh; Intel Mac OS X 10_15_7) AppleWebKit/605.1.15 (KHTML, like Gecko) Version/17.5 Safari/605.1.15",Macintosh,Safari,17.5,OS X,10_15_7,https://5puzkbbxv1.cognition.run/?sona_id=55732,"en-US,en;q=0.9",7gfrd5nw9kuv8lv,18,"[""Black or African-American""]",Yes,Female,NA,I'm not sure,1297378,NA,2678,NA,"{""Q0"":""18""}",NA,NA,NA,NA,NA,NA,NA,NA,NA,NA,NA,NA,NA,NA,NA,NA,NA,NA,NA,NA,NA,NA,NA
NA,NA,NA,NA,NA,demo_race,survey-multi-select,95,1349569,0.0-8.0,251,1,2025-05-06T15:56:39Z,b60275e29fe2361ab97ac0ac217840d7,"Mozilla/5.0 (Macintosh; Intel Mac OS X 10_15_7) AppleWebKit/605.1.15 (KHTML, like Gecko) Version/17.5 Safari/605.1.15",Macintosh,Safari,17.5,OS X,10_15_7,https://5puzkbbxv1.cognition.run/?sona_id=55732,"en-US,en;q=0.9",7gfrd5nw9kuv8lv,18,"[""Black or African-American""]",Yes,Female,NA,I'm not sure,1297378,NA,5251,NA,"{""Q0"":[""Black or African-American""]}",NA,NA,NA,NA,NA,NA,NA,NA,NA,NA,NA,NA,NA,NA,NA,NA,NA,NA,NA,NA,NA,NA,[0]
NA,NA,NA,NA,NA,demo_ethnicity_gender,survey-multi-choice,96,1354638,0.0-9.0,251,1,2025-05-06T15:56:39Z,b60275e29fe2361ab97ac0ac217840d7,"Mozilla/5.0 (Macintosh; Intel Mac OS X 10_15_7) AppleWebKit/605.1.15 (KHTML, like Gecko) Version/17.5 Safari/605.1.15",Macintosh,Safari,17.5,OS X,10_15_7,https://5puzkbbxv1.cognition.run/?sona_id=55732,"en-US,en;q=0.9",7gfrd5nw9kuv8lv,18,"[""Black or African-American""]",Yes,Female,NA,I'm not sure,1297378,NA,5063,NA,"{""Q0"":""Yes"",""Q1"":""Female""}",NA,NA,NA,NA,NA,NA,NA,NA,NA,NA,NA,NA,NA,NA,NA,NA,NA,NA,NA,NA,NA,NA,"[0,1]"
NA,NA,NA,NA,NA,demo_countries,survey-text,97,1360703,0.0-10.0,251,1,2025-05-06T15:56:39Z,b60275e29fe2361ab97ac0ac217840d7,"Mozilla/5.0 (Macintosh; Intel Mac OS X 10_15_7) AppleWebKit/605.1.15 (KHTML, like Gecko) Version/17.5 Safari/605.1.15",Macintosh,Safari,17.5,OS X,10_15_7,https://5puzkbbxv1.cognition.run/?sona_id=55732,"en-US,en;q=0.9",7gfrd5nw9kuv8lv,18,"[""Black or African-American""]",Yes,Female,NA,I'm not sure,1297378,NA,6060,NA,"{""Q0"":""NA""}",NA,NA,NA,NA,NA,NA,NA,NA,NA,NA,NA,NA,NA,NA,NA,NA,NA,NA,NA,NA,NA,NA,NA
NA,NA,NA,NA,NA,demo_prev_study,survey-multi-choice,98,1368768,0.0-11.0,251,1,2025-05-06T15:56:39Z,b60275e29fe2361ab97ac0ac217840d7,"Mozilla/5.0 (Macintosh; Intel Mac OS X 10_15_7) AppleWebKit/605.1.15 (KHTML, like Gecko) Version/17.5 Safari/605.1.15",Macintosh,Safari,17.5,OS X,10_15_7,https://5puzkbbxv1.cognition.run/?sona_id=55732,"en-US,en;q=0.9",7gfrd5nw9kuv8lv,18,"[""Black or African-American""]",Yes,Female,NA,I'm not sure,1297378,NA,8060,NA,"{""Q0"":""I'm not sure""}",NA,NA,NA,NA,NA,NA,NA,NA,NA,NA,NA,NA,NA,NA,NA,NA,NA,NA,NA,NA,NA,NA,[0]
NA,NA,NA,NA,NA,post_survey_message,html-keyboard-response,99,1373609,0.0-12.0,251,1,2025-05-06T15:56:39Z,b60275e29fe2361ab97ac0ac217840d7,"Mozilla/5.0 (Macintosh; Intel Mac OS X 10_15_7) AppleWebKit/605.1.15 (KHTML, like Gecko) Version/17.5 Safari/605.1.15",Macintosh,Safari,17.5,OS X,10_15_7,https://5puzkbbxv1.cognition.run/?sona_id=55732,"en-US,en;q=0.9",7gfrd5nw9kuv8lv,18,"[""Black or African-American""]",Yes,Female,NA,I'm not sure,1297378,NA,4834,NA,j,NA,NA,NA,NA,NA,NA,NA,NA,NA,NA,NA,NA,NA,NA,NA,NA,NA,NA,NA,NA,NA,NA,NA
NA,NA,NA,NA,NA,debrief,image-keyboard-response,100,1379365,0.0-13.0,251,1,2025-05-06T15:56:39Z,b60275e29fe2361ab97ac0ac217840d7,"Mozilla/5.0 (Macintosh; Intel Mac OS X 10_15_7) AppleWebKit/605.1.15 (KHTML, like Gecko) Version/17.5 Safari/605.1.15",Macintosh,Safari,17.5,OS X,10_15_7,https://5puzkbbxv1.cognition.run/?sona_id=55732,"en-US,en;q=0.9",7gfrd5nw9kuv8lv,18,"[""Black or African-American""]",Yes,Female,NA,I'm not sure,1297378,NA,5727,Judg_choice_debrief.png,p,NA,NA,NA,NA,NA,NA,NA,NA,NA,NA,NA,NA,NA,NA,NA,NA,NA,NA,NA,NA,NA,NA,NA
