success,timeout,failed_images,failed_audio,failed_video,screen_id,trial_type,trial_index,time_elapsed,internal_node_id,run_id,condition,recorded_at,source_code_version,user_agent,device,browser,browser_version,platform,platform_version,referer,accept_language,ppt_id,age,race,ethnicity,gender,other_countries,prev_study,exp_duration,view_history,rt,stimulus,response,phase,order,set,effect,t_high,category,d1_best,d2_best,d1_worst1,d2_worst1,d1_worst2,d2_worst2,first_dim,d1_t,d1_c,d1_d,d2_t,d2_c,d2_d,d1_name,d2_name,strategy_response,question_order
TRUE,FALSE,[],[],[],img preload,preload,0,239,0.0-0.0,262,1,2025-05-06T20:11:38Z,b60275e29fe2361ab97ac0ac217840d7,"Mozilla/5.0 (Macintosh; Intel Mac OS X 10_15_7) AppleWebKit/605.1.15 (KHTML, like Gecko) Version/17.3 Safari/605.1.15",Macintosh,Safari,17.3,OS X,10_15_7,https://5puzkbbxv1.cognition.run/?sona_id=56249,"en-US,en;q=0.9",nl7ohgnx1c2hsc9,19,"[""White""]",No,Female,"NA
",Yes,578737.0000000001,NA,NA,NA,NA,NA,NA,NA,NA,NA,NA,NA,NA,NA,NA,NA,NA,NA,NA,NA,NA,NA,NA,NA,NA,NA,NA,NA
NA,NA,NA,NA,NA,computer_message,instructions,1,3495,0.0-1.0,262,1,2025-05-06T20:11:38Z,b60275e29fe2361ab97ac0ac217840d7,"Mozilla/5.0 (Macintosh; Intel Mac OS X 10_15_7) AppleWebKit/605.1.15 (KHTML, like Gecko) Version/17.3 Safari/605.1.15",Macintosh,Safari,17.3,OS X,10_15_7,https://5puzkbbxv1.cognition.run/?sona_id=56249,"en-US,en;q=0.9",nl7ohgnx1c2hsc9,19,"[""White""]",No,Female,"NA
",Yes,578737.0000000001,"[{""page_index"":0,""viewing_time"":3252}]",3252,NA,NA,NA,NA,NA,NA,NA,NA,NA,NA,NA,NA,NA,NA,NA,NA,NA,NA,NA,NA,NA,NA,NA,NA,NA
TRUE,NA,NA,NA,NA,NA,fullscreen,2,6166,0.0-2.0,262,1,2025-05-06T20:11:38Z,b60275e29fe2361ab97ac0ac217840d7,"Mozilla/5.0 (Macintosh; Intel Mac OS X 10_15_7) AppleWebKit/605.1.15 (KHTML, like Gecko) Version/17.3 Safari/605.1.15",Macintosh,Safari,17.3,OS X,10_15_7,https://5puzkbbxv1.cognition.run/?sona_id=56249,"en-US,en;q=0.9",nl7ohgnx1c2hsc9,19,"[""White""]",No,Female,"NA
",Yes,578737.0000000001,NA,1665,NA,NA,NA,NA,NA,NA,NA,NA,NA,NA,NA,NA,NA,NA,NA,NA,NA,NA,NA,NA,NA,NA,NA,NA,NA
NA,NA,NA,NA,NA,choice_instructions,instructions,3,47895,0.0-3.0,262,1,2025-05-06T20:11:38Z,b60275e29fe2361ab97ac0ac217840d7,"Mozilla/5.0 (Macintosh; Intel Mac OS X 10_15_7) AppleWebKit/605.1.15 (KHTML, like Gecko) Version/17.3 Safari/605.1.15",Macintosh,Safari,17.3,OS X,10_15_7,https://5puzkbbxv1.cognition.run/?sona_id=56249,"en-US,en;q=0.9",nl7ohgnx1c2hsc9,19,"[""White""]",No,Female,"NA
",Yes,578737.0000000001,"[{""page_index"":0,""viewing_time"":1210},{""page_index"":1,""viewing_time"":3734},{""page_index"":2,""viewing_time"":22599},{""page_index"":3,""viewing_time"":1885},{""page_index"":4,""viewing_time"":1516},{""page_index"":5,""viewing_time"":5033},{""page_index"":6,""viewing_time"":5750}]",41727,NA,NA,NA,NA,NA,NA,NA,NA,NA,NA,NA,NA,NA,NA,NA,NA,NA,NA,NA,NA,NA,NA,NA,NA,NA
NA,NA,NA,NA,NA,choice_trial_setup,html-keyboard-response,4,48199,0.0-4.0-0.0,262,1,2025-05-06T20:11:38Z,b60275e29fe2361ab97ac0ac217840d7,"Mozilla/5.0 (Macintosh; Intel Mac OS X 10_15_7) AppleWebKit/605.1.15 (KHTML, like Gecko) Version/17.3 Safari/605.1.15",Macintosh,Safari,17.3,OS X,10_15_7,https://5puzkbbxv1.cognition.run/?sona_id=56249,"en-US,en;q=0.9",nl7ohgnx1c2hsc9,19,"[""White""]",No,Female,"NA
",Yes,578737.0000000001,NA,null,<p></p>,null,choice,cdt,trinary,attraction,1,microwave ovens,null,null,null,null,null,null,1,NA,NA,NA,NA,NA,NA,NA,NA,NA,NA
NA,NA,NA,NA,NA,choice_trial,survey-html-form,5,66351,0.0-4.0-1.0,262,1,2025-05-06T20:11:38Z,b60275e29fe2361ab97ac0ac217840d7,"Mozilla/5.0 (Macintosh; Intel Mac OS X 10_15_7) AppleWebKit/605.1.15 (KHTML, like Gecko) Version/17.3 Safari/605.1.15",Macintosh,Safari,17.3,OS X,10_15_7,https://5puzkbbxv1.cognition.run/?sona_id=56249,"en-US,en;q=0.9",nl7ohgnx1c2hsc9,19,"[""White""]",No,Female,"NA
",Yes,578737.0000000001,NA,18147,NA,"{""product_choice"":""A""}",choice,cdt,trinary,attraction,1,microwave ovens,null,null,null,null,null,null,1,60,50,60,50,60,40,Warranty,Cooking power,NA,NA
NA,NA,NA,NA,NA,choice_trial_setup,html-keyboard-response,6,66655,0.0-4.0-0.1,262,1,2025-05-06T20:11:38Z,b60275e29fe2361ab97ac0ac217840d7,"Mozilla/5.0 (Macintosh; Intel Mac OS X 10_15_7) AppleWebKit/605.1.15 (KHTML, like Gecko) Version/17.3 Safari/605.1.15",Macintosh,Safari,17.3,OS X,10_15_7,https://5puzkbbxv1.cognition.run/?sona_id=56249,"en-US,en;q=0.9",nl7ohgnx1c2hsc9,19,"[""White""]",No,Female,"NA
",Yes,578737.0000000001,NA,null,<p></p>,null,choice,tc,binary,attraction,NA,washing machines,null,null,null,null,null,null,1,NA,NA,NA,NA,NA,NA,NA,NA,NA,NA
NA,NA,NA,NA,NA,choice_trial,survey-html-form,7,85149,0.0-4.0-1.1,262,1,2025-05-06T20:11:38Z,b60275e29fe2361ab97ac0ac217840d7,"Mozilla/5.0 (Macintosh; Intel Mac OS X 10_15_7) AppleWebKit/605.1.15 (KHTML, like Gecko) Version/17.3 Safari/605.1.15",Macintosh,Safari,17.3,OS X,10_15_7,https://5puzkbbxv1.cognition.run/?sona_id=56249,"en-US,en;q=0.9",nl7ohgnx1c2hsc9,19,"[""White""]",No,Female,"NA
",Yes,578737.0000000001,NA,18491,NA,"{""product_choice"":""A""}",choice,tc,binary,attraction,NA,washing machines,null,null,null,null,null,null,1,60,50,null,50,60,null,Average lifespan,Energy savings,NA,NA
NA,NA,NA,NA,NA,choice_trial_setup,html-keyboard-response,8,85452,0.0-4.0-0.2,262,1,2025-05-06T20:11:38Z,b60275e29fe2361ab97ac0ac217840d7,"Mozilla/5.0 (Macintosh; Intel Mac OS X 10_15_7) AppleWebKit/605.1.15 (KHTML, like Gecko) Version/17.3 Safari/605.1.15",Macintosh,Safari,17.3,OS X,10_15_7,https://5puzkbbxv1.cognition.run/?sona_id=56249,"en-US,en;q=0.9",nl7ohgnx1c2hsc9,19,"[""White""]",No,Female,"NA
",Yes,578737.0000000001,NA,null,<p></p>,null,choice,ct,binary,repulsion,2,microwave ovens,null,null,null,null,null,null,2,NA,NA,NA,NA,NA,NA,NA,NA,NA,NA
NA,NA,NA,NA,NA,choice_trial,survey-html-form,9,92114,0.0-4.0-1.2,262,1,2025-05-06T20:11:38Z,b60275e29fe2361ab97ac0ac217840d7,"Mozilla/5.0 (Macintosh; Intel Mac OS X 10_15_7) AppleWebKit/605.1.15 (KHTML, like Gecko) Version/17.3 Safari/605.1.15",Macintosh,Safari,17.3,OS X,10_15_7,https://5puzkbbxv1.cognition.run/?sona_id=56249,"en-US,en;q=0.9",nl7ohgnx1c2hsc9,19,"[""White""]",No,Female,"NA
",Yes,578737.0000000001,NA,6660,NA,"{""product_choice"":""B""}",choice,ct,binary,repulsion,2,microwave ovens,null,null,null,null,null,null,2,30,40,null,100,90,null,Warranty,Cooking power,NA,NA
NA,NA,NA,NA,NA,choice_trial_setup,html-keyboard-response,10,92417,0.0-4.0-0.3,262,1,2025-05-06T20:11:38Z,b60275e29fe2361ab97ac0ac217840d7,"Mozilla/5.0 (Macintosh; Intel Mac OS X 10_15_7) AppleWebKit/605.1.15 (KHTML, like Gecko) Version/17.3 Safari/605.1.15",Macintosh,Safari,17.3,OS X,10_15_7,https://5puzkbbxv1.cognition.run/?sona_id=56249,"en-US,en;q=0.9",nl7ohgnx1c2hsc9,19,"[""White""]",No,Female,"NA
",Yes,578737.0000000001,NA,null,<p></p>,null,choice,ctd,trinary,repulsion_A,2,televisions,null,null,null,null,null,null,2,NA,NA,NA,NA,NA,NA,NA,NA,NA,NA
NA,NA,NA,NA,NA,choice_trial,survey-html-form,11,102898,0.0-4.0-1.3,262,1,2025-05-06T20:11:38Z,b60275e29fe2361ab97ac0ac217840d7,"Mozilla/5.0 (Macintosh; Intel Mac OS X 10_15_7) AppleWebKit/605.1.15 (KHTML, like Gecko) Version/17.3 Safari/605.1.15",Macintosh,Safari,17.3,OS X,10_15_7,https://5puzkbbxv1.cognition.run/?sona_id=56249,"en-US,en;q=0.9",nl7ohgnx1c2hsc9,19,"[""White""]",No,Female,"NA
",Yes,578737.0000000001,NA,10478,NA,"{""product_choice"":""B""}",choice,ctd,trinary,repulsion_A,2,televisions,null,null,null,null,null,null,2,30,40,20,100,90,100,Screen size,Average lifespan,NA,NA
NA,NA,NA,NA,NA,choice_trial_setup,html-keyboard-response,12,103201,0.0-4.0-0.4,262,1,2025-05-06T20:11:38Z,b60275e29fe2361ab97ac0ac217840d7,"Mozilla/5.0 (Macintosh; Intel Mac OS X 10_15_7) AppleWebKit/605.1.15 (KHTML, like Gecko) Version/17.3 Safari/605.1.15",Macintosh,Safari,17.3,OS X,10_15_7,https://5puzkbbxv1.cognition.run/?sona_id=56249,"en-US,en;q=0.9",nl7ohgnx1c2hsc9,19,"[""White""]",No,Female,"NA
",Yes,578737.0000000001,NA,null,<p></p>,null,choice,tc,binary,repulsion,2,televisions,null,null,null,null,null,null,1,NA,NA,NA,NA,NA,NA,NA,NA,NA,NA
NA,NA,NA,NA,NA,choice_trial,survey-html-form,13,108432,0.0-4.0-1.4,262,1,2025-05-06T20:11:38Z,b60275e29fe2361ab97ac0ac217840d7,"Mozilla/5.0 (Macintosh; Intel Mac OS X 10_15_7) AppleWebKit/605.1.15 (KHTML, like Gecko) Version/17.3 Safari/605.1.15",Macintosh,Safari,17.3,OS X,10_15_7,https://5puzkbbxv1.cognition.run/?sona_id=56249,"en-US,en;q=0.9",nl7ohgnx1c2hsc9,19,"[""White""]",No,Female,"NA
",Yes,578737.0000000001,NA,5227,NA,"{""product_choice"":""A""}",choice,tc,binary,repulsion,2,televisions,null,null,null,null,null,null,1,30,40,null,100,90,null,Screen size,Average lifespan,NA,NA
NA,NA,NA,NA,NA,choice_trial_setup,html-keyboard-response,14,108735,0.0-4.0-0.5,262,1,2025-05-06T20:11:38Z,b60275e29fe2361ab97ac0ac217840d7,"Mozilla/5.0 (Macintosh; Intel Mac OS X 10_15_7) AppleWebKit/605.1.15 (KHTML, like Gecko) Version/17.3 Safari/605.1.15",Macintosh,Safari,17.3,OS X,10_15_7,https://5puzkbbxv1.cognition.run/?sona_id=56249,"en-US,en;q=0.9",nl7ohgnx1c2hsc9,19,"[""White""]",No,Female,"NA
",Yes,578737.0000000001,NA,null,<p></p>,null,choice,wwb,trinary,catch,null,televisions,95,55,45,10,25,40,2,NA,NA,NA,NA,NA,NA,NA,NA,NA,NA
NA,NA,NA,NA,NA,choice_trial,survey-html-form,15,126400,0.0-4.0-1.5,262,1,2025-05-06T20:11:38Z,b60275e29fe2361ab97ac0ac217840d7,"Mozilla/5.0 (Macintosh; Intel Mac OS X 10_15_7) AppleWebKit/605.1.15 (KHTML, like Gecko) Version/17.3 Safari/605.1.15",Macintosh,Safari,17.3,OS X,10_15_7,https://5puzkbbxv1.cognition.run/?sona_id=56249,"en-US,en;q=0.9",nl7ohgnx1c2hsc9,19,"[""White""]",No,Female,"NA
",Yes,578737.0000000001,NA,17662,NA,"{""product_choice"":""C""}",choice,wwb,trinary,catch,null,televisions,95,55,45,10,25,40,2,null,null,null,null,null,null,Screen size,Average lifespan,NA,NA
NA,NA,NA,NA,NA,choice_trial_setup,html-keyboard-response,16,126703,0.0-4.0-0.6,262,1,2025-05-06T20:11:38Z,b60275e29fe2361ab97ac0ac217840d7,"Mozilla/5.0 (Macintosh; Intel Mac OS X 10_15_7) AppleWebKit/605.1.15 (KHTML, like Gecko) Version/17.3 Safari/605.1.15",Macintosh,Safari,17.3,OS X,10_15_7,https://5puzkbbxv1.cognition.run/?sona_id=56249,"en-US,en;q=0.9",nl7ohgnx1c2hsc9,19,"[""White""]",No,Female,"NA
",Yes,578737.0000000001,NA,null,<p></p>,null,choice,bww,trinary,catch,null,laptops,70,95,30,10,45,5,1,NA,NA,NA,NA,NA,NA,NA,NA,NA,NA
NA,NA,NA,NA,NA,choice_trial,survey-html-form,17,133099,0.0-4.0-1.6,262,1,2025-05-06T20:11:38Z,b60275e29fe2361ab97ac0ac217840d7,"Mozilla/5.0 (Macintosh; Intel Mac OS X 10_15_7) AppleWebKit/605.1.15 (KHTML, like Gecko) Version/17.3 Safari/605.1.15",Macintosh,Safari,17.3,OS X,10_15_7,https://5puzkbbxv1.cognition.run/?sona_id=56249,"en-US,en;q=0.9",nl7ohgnx1c2hsc9,19,"[""White""]",No,Female,"NA
",Yes,578737.0000000001,NA,6393,NA,"{""product_choice"":""A""}",choice,bww,trinary,catch,null,laptops,70,95,30,10,45,5,1,null,null,null,null,null,null,Processing speed,Memory (RAM),NA,NA
NA,NA,NA,NA,NA,choice_trial_setup,html-keyboard-response,18,133402,0.0-4.0-0.7,262,1,2025-05-06T20:11:38Z,b60275e29fe2361ab97ac0ac217840d7,"Mozilla/5.0 (Macintosh; Intel Mac OS X 10_15_7) AppleWebKit/605.1.15 (KHTML, like Gecko) Version/17.3 Safari/605.1.15",Macintosh,Safari,17.3,OS X,10_15_7,https://5puzkbbxv1.cognition.run/?sona_id=56249,"en-US,en;q=0.9",nl7ohgnx1c2hsc9,19,"[""White""]",No,Female,"NA
",Yes,578737.0000000001,NA,null,<p></p>,null,choice,cdt,trinary,repulsion_A,2,microwave ovens,null,null,null,null,null,null,2,NA,NA,NA,NA,NA,NA,NA,NA,NA,NA
NA,NA,NA,NA,NA,choice_trial,survey-html-form,19,144383,0.0-4.0-1.7,262,1,2025-05-06T20:11:38Z,b60275e29fe2361ab97ac0ac217840d7,"Mozilla/5.0 (Macintosh; Intel Mac OS X 10_15_7) AppleWebKit/605.1.15 (KHTML, like Gecko) Version/17.3 Safari/605.1.15",Macintosh,Safari,17.3,OS X,10_15_7,https://5puzkbbxv1.cognition.run/?sona_id=56249,"en-US,en;q=0.9",nl7ohgnx1c2hsc9,19,"[""White""]",No,Female,"NA
",Yes,578737.0000000001,NA,10979,NA,"{""product_choice"":""A""}",choice,cdt,trinary,repulsion_A,2,microwave ovens,null,null,null,null,null,null,2,30,40,20,100,90,100,Warranty,Cooking power,NA,NA
NA,NA,NA,NA,NA,choice_trial_setup,html-keyboard-response,20,144687,0.0-4.0-0.8,262,1,2025-05-06T20:11:38Z,b60275e29fe2361ab97ac0ac217840d7,"Mozilla/5.0 (Macintosh; Intel Mac OS X 10_15_7) AppleWebKit/605.1.15 (KHTML, like Gecko) Version/17.3 Safari/605.1.15",Macintosh,Safari,17.3,OS X,10_15_7,https://5puzkbbxv1.cognition.run/?sona_id=56249,"en-US,en;q=0.9",nl7ohgnx1c2hsc9,19,"[""White""]",No,Female,"NA
",Yes,578737.0000000001,NA,null,<p></p>,null,choice,ct,binary,repulsion,2,laptops,null,null,null,null,null,null,1,NA,NA,NA,NA,NA,NA,NA,NA,NA,NA
NA,NA,NA,NA,NA,choice_trial,survey-html-form,21,155563,0.0-4.0-1.8,262,1,2025-05-06T20:11:38Z,b60275e29fe2361ab97ac0ac217840d7,"Mozilla/5.0 (Macintosh; Intel Mac OS X 10_15_7) AppleWebKit/605.1.15 (KHTML, like Gecko) Version/17.3 Safari/605.1.15",Macintosh,Safari,17.3,OS X,10_15_7,https://5puzkbbxv1.cognition.run/?sona_id=56249,"en-US,en;q=0.9",nl7ohgnx1c2hsc9,19,"[""White""]",No,Female,"NA
",Yes,578737.0000000001,NA,10874,NA,"{""product_choice"":""A""}",choice,ct,binary,repulsion,2,laptops,null,null,null,null,null,null,1,30,40,null,100,90,null,Processing speed,Memory (RAM),NA,NA
NA,NA,NA,NA,NA,choice_trial_setup,html-keyboard-response,22,155866,0.0-4.0-0.9,262,1,2025-05-06T20:11:38Z,b60275e29fe2361ab97ac0ac217840d7,"Mozilla/5.0 (Macintosh; Intel Mac OS X 10_15_7) AppleWebKit/605.1.15 (KHTML, like Gecko) Version/17.3 Safari/605.1.15",Macintosh,Safari,17.3,OS X,10_15_7,https://5puzkbbxv1.cognition.run/?sona_id=56249,"en-US,en;q=0.9",nl7ohgnx1c2hsc9,19,"[""White""]",No,Female,"NA
",Yes,578737.0000000001,NA,null,<p></p>,null,choice,dtc,trinary,attraction,2,televisions,null,null,null,null,null,null,1,NA,NA,NA,NA,NA,NA,NA,NA,NA,NA
NA,NA,NA,NA,NA,choice_trial,survey-html-form,23,163399,0.0-4.0-1.9,262,1,2025-05-06T20:11:38Z,b60275e29fe2361ab97ac0ac217840d7,"Mozilla/5.0 (Macintosh; Intel Mac OS X 10_15_7) AppleWebKit/605.1.15 (KHTML, like Gecko) Version/17.3 Safari/605.1.15",Macintosh,Safari,17.3,OS X,10_15_7,https://5puzkbbxv1.cognition.run/?sona_id=56249,"en-US,en;q=0.9",nl7ohgnx1c2hsc9,19,"[""White""]",No,Female,"NA
",Yes,578737.0000000001,NA,7531,NA,"{""product_choice"":""B""}",choice,dtc,trinary,attraction,2,televisions,null,null,null,null,null,null,1,50,60,40,60,50,60,Screen size,Average lifespan,NA,NA
NA,NA,NA,NA,NA,choice_trial_setup,html-keyboard-response,24,163702,0.0-4.0-0.10,262,1,2025-05-06T20:11:38Z,b60275e29fe2361ab97ac0ac217840d7,"Mozilla/5.0 (Macintosh; Intel Mac OS X 10_15_7) AppleWebKit/605.1.15 (KHTML, like Gecko) Version/17.3 Safari/605.1.15",Macintosh,Safari,17.3,OS X,10_15_7,https://5puzkbbxv1.cognition.run/?sona_id=56249,"en-US,en;q=0.9",nl7ohgnx1c2hsc9,19,"[""White""]",No,Female,"NA
",Yes,578737.0000000001,NA,null,<p></p>,null,choice,tc,binary,repulsion,2,washing machines,null,null,null,null,null,null,1,NA,NA,NA,NA,NA,NA,NA,NA,NA,NA
NA,NA,NA,NA,NA,choice_trial,survey-html-form,25,183418,0.0-4.0-1.10,262,1,2025-05-06T20:11:38Z,b60275e29fe2361ab97ac0ac217840d7,"Mozilla/5.0 (Macintosh; Intel Mac OS X 10_15_7) AppleWebKit/605.1.15 (KHTML, like Gecko) Version/17.3 Safari/605.1.15",Macintosh,Safari,17.3,OS X,10_15_7,https://5puzkbbxv1.cognition.run/?sona_id=56249,"en-US,en;q=0.9",nl7ohgnx1c2hsc9,19,"[""White""]",No,Female,"NA
",Yes,578737.0000000001,NA,19712,NA,"{""product_choice"":""B""}",choice,tc,binary,repulsion,2,washing machines,null,null,null,null,null,null,1,30,40,null,100,90,null,Average lifespan,Energy savings,NA,NA
NA,NA,NA,NA,NA,choice_trial_setup,html-keyboard-response,26,183721,0.0-4.0-0.11,262,1,2025-05-06T20:11:38Z,b60275e29fe2361ab97ac0ac217840d7,"Mozilla/5.0 (Macintosh; Intel Mac OS X 10_15_7) AppleWebKit/605.1.15 (KHTML, like Gecko) Version/17.3 Safari/605.1.15",Macintosh,Safari,17.3,OS X,10_15_7,https://5puzkbbxv1.cognition.run/?sona_id=56249,"en-US,en;q=0.9",nl7ohgnx1c2hsc9,19,"[""White""]",No,Female,"NA
",Yes,578737.0000000001,NA,null,<p></p>,null,choice,tcd,trinary,repulsion_A,1,washing machines,null,null,null,null,null,null,2,NA,NA,NA,NA,NA,NA,NA,NA,NA,NA
NA,NA,NA,NA,NA,choice_trial,survey-html-form,27,192165,0.0-4.0-1.11,262,1,2025-05-06T20:11:38Z,b60275e29fe2361ab97ac0ac217840d7,"Mozilla/5.0 (Macintosh; Intel Mac OS X 10_15_7) AppleWebKit/605.1.15 (KHTML, like Gecko) Version/17.3 Safari/605.1.15",Macintosh,Safari,17.3,OS X,10_15_7,https://5puzkbbxv1.cognition.run/?sona_id=56249,"en-US,en;q=0.9",nl7ohgnx1c2hsc9,19,"[""White""]",No,Female,"NA
",Yes,578737.0000000001,NA,8440,NA,"{""product_choice"":""B""}",choice,tcd,trinary,repulsion_A,1,washing machines,null,null,null,null,null,null,2,100,90,100,30,40,20,Average lifespan,Energy savings,NA,NA
NA,NA,NA,NA,NA,choice_trial_setup,html-keyboard-response,28,192468,0.0-4.0-0.12,262,1,2025-05-06T20:11:38Z,b60275e29fe2361ab97ac0ac217840d7,"Mozilla/5.0 (Macintosh; Intel Mac OS X 10_15_7) AppleWebKit/605.1.15 (KHTML, like Gecko) Version/17.3 Safari/605.1.15",Macintosh,Safari,17.3,OS X,10_15_7,https://5puzkbbxv1.cognition.run/?sona_id=56249,"en-US,en;q=0.9",nl7ohgnx1c2hsc9,19,"[""White""]",No,Female,"NA
",Yes,578737.0000000001,NA,null,<p></p>,null,choice,ct,binary,repulsion,1,washing machines,null,null,null,null,null,null,1,NA,NA,NA,NA,NA,NA,NA,NA,NA,NA
NA,NA,NA,NA,NA,choice_trial,survey-html-form,29,201649,0.0-4.0-1.12,262,1,2025-05-06T20:11:38Z,b60275e29fe2361ab97ac0ac217840d7,"Mozilla/5.0 (Macintosh; Intel Mac OS X 10_15_7) AppleWebKit/605.1.15 (KHTML, like Gecko) Version/17.3 Safari/605.1.15",Macintosh,Safari,17.3,OS X,10_15_7,https://5puzkbbxv1.cognition.run/?sona_id=56249,"en-US,en;q=0.9",nl7ohgnx1c2hsc9,19,"[""White""]",No,Female,"NA
",Yes,578737.0000000001,NA,9179,NA,"{""product_choice"":""B""}",choice,ct,binary,repulsion,1,washing machines,null,null,null,null,null,null,1,100,90,null,30,40,null,Average lifespan,Energy savings,NA,NA
NA,NA,NA,NA,NA,choice_trial_setup,html-keyboard-response,30,201952,0.0-4.0-0.13,262,1,2025-05-06T20:11:38Z,b60275e29fe2361ab97ac0ac217840d7,"Mozilla/5.0 (Macintosh; Intel Mac OS X 10_15_7) AppleWebKit/605.1.15 (KHTML, like Gecko) Version/17.3 Safari/605.1.15",Macintosh,Safari,17.3,OS X,10_15_7,https://5puzkbbxv1.cognition.run/?sona_id=56249,"en-US,en;q=0.9",nl7ohgnx1c2hsc9,19,"[""White""]",No,Female,"NA
",Yes,578737.0000000001,NA,null,<p></p>,null,choice,wbw,trinary,catch,null,microwave ovens,90,95,45,50,25,5,2,NA,NA,NA,NA,NA,NA,NA,NA,NA,NA
NA,NA,NA,NA,NA,choice_trial,survey-html-form,31,211199,0.0-4.0-1.13,262,1,2025-05-06T20:11:38Z,b60275e29fe2361ab97ac0ac217840d7,"Mozilla/5.0 (Macintosh; Intel Mac OS X 10_15_7) AppleWebKit/605.1.15 (KHTML, like Gecko) Version/17.3 Safari/605.1.15",Macintosh,Safari,17.3,OS X,10_15_7,https://5puzkbbxv1.cognition.run/?sona_id=56249,"en-US,en;q=0.9",nl7ohgnx1c2hsc9,19,"[""White""]",No,Female,"NA
",Yes,578737.0000000001,NA,9244,NA,"{""product_choice"":""B""}",choice,wbw,trinary,catch,null,microwave ovens,90,95,45,50,25,5,2,null,null,null,null,null,null,Warranty,Cooking power,NA,NA
NA,NA,NA,NA,NA,choice_trial_setup,html-keyboard-response,32,211503,0.0-4.0-0.14,262,1,2025-05-06T20:11:38Z,b60275e29fe2361ab97ac0ac217840d7,"Mozilla/5.0 (Macintosh; Intel Mac OS X 10_15_7) AppleWebKit/605.1.15 (KHTML, like Gecko) Version/17.3 Safari/605.1.15",Macintosh,Safari,17.3,OS X,10_15_7,https://5puzkbbxv1.cognition.run/?sona_id=56249,"en-US,en;q=0.9",nl7ohgnx1c2hsc9,19,"[""White""]",No,Female,"NA
",Yes,578737.0000000001,NA,null,<p></p>,null,choice,bw,binary,catch,null,televisions,95,95,35,50,null,null,2,NA,NA,NA,NA,NA,NA,NA,NA,NA,NA
NA,NA,NA,NA,NA,choice_trial,survey-html-form,33,215916,0.0-4.0-1.14,262,1,2025-05-06T20:11:38Z,b60275e29fe2361ab97ac0ac217840d7,"Mozilla/5.0 (Macintosh; Intel Mac OS X 10_15_7) AppleWebKit/605.1.15 (KHTML, like Gecko) Version/17.3 Safari/605.1.15",Macintosh,Safari,17.3,OS X,10_15_7,https://5puzkbbxv1.cognition.run/?sona_id=56249,"en-US,en;q=0.9",nl7ohgnx1c2hsc9,19,"[""White""]",No,Female,"NA
",Yes,578737.0000000001,NA,4409,NA,"{""product_choice"":""A""}",choice,bw,binary,catch,null,televisions,95,95,35,50,null,null,2,null,null,null,null,null,null,Screen size,Average lifespan,NA,NA
NA,NA,NA,NA,NA,choice_trial_setup,html-keyboard-response,34,216219,0.0-4.0-0.15,262,1,2025-05-06T20:11:38Z,b60275e29fe2361ab97ac0ac217840d7,"Mozilla/5.0 (Macintosh; Intel Mac OS X 10_15_7) AppleWebKit/605.1.15 (KHTML, like Gecko) Version/17.3 Safari/605.1.15",Macintosh,Safari,17.3,OS X,10_15_7,https://5puzkbbxv1.cognition.run/?sona_id=56249,"en-US,en;q=0.9",nl7ohgnx1c2hsc9,19,"[""White""]",No,Female,"NA
",Yes,578737.0000000001,NA,null,<p></p>,null,choice,ctd,trinary,attraction,1,televisions,null,null,null,null,null,null,1,NA,NA,NA,NA,NA,NA,NA,NA,NA,NA
NA,NA,NA,NA,NA,choice_trial,survey-html-form,35,225215,0.0-4.0-1.15,262,1,2025-05-06T20:11:38Z,b60275e29fe2361ab97ac0ac217840d7,"Mozilla/5.0 (Macintosh; Intel Mac OS X 10_15_7) AppleWebKit/605.1.15 (KHTML, like Gecko) Version/17.3 Safari/605.1.15",Macintosh,Safari,17.3,OS X,10_15_7,https://5puzkbbxv1.cognition.run/?sona_id=56249,"en-US,en;q=0.9",nl7ohgnx1c2hsc9,19,"[""White""]",No,Female,"NA
",Yes,578737.0000000001,NA,8993,NA,"{""product_choice"":""B""}",choice,ctd,trinary,attraction,1,televisions,null,null,null,null,null,null,1,60,50,60,50,60,40,Screen size,Average lifespan,NA,NA
NA,NA,NA,NA,NA,choice_trial_setup,html-keyboard-response,36,225519,0.0-4.0-0.16,262,1,2025-05-06T20:11:38Z,b60275e29fe2361ab97ac0ac217840d7,"Mozilla/5.0 (Macintosh; Intel Mac OS X 10_15_7) AppleWebKit/605.1.15 (KHTML, like Gecko) Version/17.3 Safari/605.1.15",Macintosh,Safari,17.3,OS X,10_15_7,https://5puzkbbxv1.cognition.run/?sona_id=56249,"en-US,en;q=0.9",nl7ohgnx1c2hsc9,19,"[""White""]",No,Female,"NA
",Yes,578737.0000000001,NA,null,<p></p>,null,choice,cdt,trinary,repulsion_B,2,laptops,null,null,null,null,null,null,1,NA,NA,NA,NA,NA,NA,NA,NA,NA,NA
NA,NA,NA,NA,NA,choice_trial,survey-html-form,37,238150,0.0-4.0-1.16,262,1,2025-05-06T20:11:38Z,b60275e29fe2361ab97ac0ac217840d7,"Mozilla/5.0 (Macintosh; Intel Mac OS X 10_15_7) AppleWebKit/605.1.15 (KHTML, like Gecko) Version/17.3 Safari/605.1.15",Macintosh,Safari,17.3,OS X,10_15_7,https://5puzkbbxv1.cognition.run/?sona_id=56249,"en-US,en;q=0.9",nl7ohgnx1c2hsc9,19,"[""White""]",No,Female,"NA
",Yes,578737.0000000001,NA,12627,NA,"{""product_choice"":""C""}",choice,cdt,trinary,repulsion_B,2,laptops,null,null,null,null,null,null,1,40,30,40,90,100,80,Processing speed,Memory (RAM),NA,NA
NA,NA,NA,NA,NA,choice_trial_setup,html-keyboard-response,38,238453,0.0-4.0-0.17,262,1,2025-05-06T20:11:38Z,b60275e29fe2361ab97ac0ac217840d7,"Mozilla/5.0 (Macintosh; Intel Mac OS X 10_15_7) AppleWebKit/605.1.15 (KHTML, like Gecko) Version/17.3 Safari/605.1.15",Macintosh,Safari,17.3,OS X,10_15_7,https://5puzkbbxv1.cognition.run/?sona_id=56249,"en-US,en;q=0.9",nl7ohgnx1c2hsc9,19,"[""White""]",No,Female,"NA
",Yes,578737.0000000001,NA,null,<p></p>,null,choice,tdc,trinary,attraction,2,washing machines,null,null,null,null,null,null,1,NA,NA,NA,NA,NA,NA,NA,NA,NA,NA
NA,NA,NA,NA,NA,choice_trial,survey-html-form,39,245182,0.0-4.0-1.17,262,1,2025-05-06T20:11:38Z,b60275e29fe2361ab97ac0ac217840d7,"Mozilla/5.0 (Macintosh; Intel Mac OS X 10_15_7) AppleWebKit/605.1.15 (KHTML, like Gecko) Version/17.3 Safari/605.1.15",Macintosh,Safari,17.3,OS X,10_15_7,https://5puzkbbxv1.cognition.run/?sona_id=56249,"en-US,en;q=0.9",nl7ohgnx1c2hsc9,19,"[""White""]",No,Female,"NA
",Yes,578737.0000000001,NA,6725,NA,"{""product_choice"":""A""}",choice,tdc,trinary,attraction,2,washing machines,null,null,null,null,null,null,1,50,60,40,60,50,60,Average lifespan,Energy savings,NA,NA
NA,NA,NA,NA,NA,choice_trial_setup,html-keyboard-response,40,245485,0.0-4.0-0.18,262,1,2025-05-06T20:11:38Z,b60275e29fe2361ab97ac0ac217840d7,"Mozilla/5.0 (Macintosh; Intel Mac OS X 10_15_7) AppleWebKit/605.1.15 (KHTML, like Gecko) Version/17.3 Safari/605.1.15",Macintosh,Safari,17.3,OS X,10_15_7,https://5puzkbbxv1.cognition.run/?sona_id=56249,"en-US,en;q=0.9",nl7ohgnx1c2hsc9,19,"[""White""]",No,Female,"NA
",Yes,578737.0000000001,NA,null,<p></p>,null,choice,ct,binary,attraction,NA,microwave ovens,null,null,null,null,null,null,2,NA,NA,NA,NA,NA,NA,NA,NA,NA,NA
NA,NA,NA,NA,NA,choice_trial,survey-html-form,41,259666,0.0-4.0-1.18,262,1,2025-05-06T20:11:38Z,b60275e29fe2361ab97ac0ac217840d7,"Mozilla/5.0 (Macintosh; Intel Mac OS X 10_15_7) AppleWebKit/605.1.15 (KHTML, like Gecko) Version/17.3 Safari/605.1.15",Macintosh,Safari,17.3,OS X,10_15_7,https://5puzkbbxv1.cognition.run/?sona_id=56249,"en-US,en;q=0.9",nl7ohgnx1c2hsc9,19,"[""White""]",No,Female,"NA
",Yes,578737.0000000001,NA,14178,NA,"{""product_choice"":""A""}",choice,ct,binary,attraction,NA,microwave ovens,null,null,null,null,null,null,2,60,50,null,50,60,null,Warranty,Cooking power,NA,NA
NA,NA,NA,NA,NA,choice_trial_setup,html-keyboard-response,42,259970,0.0-4.0-0.19,262,1,2025-05-06T20:11:38Z,b60275e29fe2361ab97ac0ac217840d7,"Mozilla/5.0 (Macintosh; Intel Mac OS X 10_15_7) AppleWebKit/605.1.15 (KHTML, like Gecko) Version/17.3 Safari/605.1.15",Macintosh,Safari,17.3,OS X,10_15_7,https://5puzkbbxv1.cognition.run/?sona_id=56249,"en-US,en;q=0.9",nl7ohgnx1c2hsc9,19,"[""White""]",No,Female,"NA
",Yes,578737.0000000001,NA,null,<p></p>,null,choice,ctd,trinary,repulsion_A,1,televisions,null,null,null,null,null,null,2,NA,NA,NA,NA,NA,NA,NA,NA,NA,NA
NA,NA,NA,NA,NA,choice_trial,survey-html-form,43,265367,0.0-4.0-1.19,262,1,2025-05-06T20:11:38Z,b60275e29fe2361ab97ac0ac217840d7,"Mozilla/5.0 (Macintosh; Intel Mac OS X 10_15_7) AppleWebKit/605.1.15 (KHTML, like Gecko) Version/17.3 Safari/605.1.15",Macintosh,Safari,17.3,OS X,10_15_7,https://5puzkbbxv1.cognition.run/?sona_id=56249,"en-US,en;q=0.9",nl7ohgnx1c2hsc9,19,"[""White""]",No,Female,"NA
",Yes,578737.0000000001,NA,5393,NA,"{""product_choice"":""A""}",choice,ctd,trinary,repulsion_A,1,televisions,null,null,null,null,null,null,2,100,90,100,30,40,20,Screen size,Average lifespan,NA,NA
NA,NA,NA,NA,NA,choice_trial_setup,html-keyboard-response,44,265669,0.0-4.0-0.20,262,1,2025-05-06T20:11:38Z,b60275e29fe2361ab97ac0ac217840d7,"Mozilla/5.0 (Macintosh; Intel Mac OS X 10_15_7) AppleWebKit/605.1.15 (KHTML, like Gecko) Version/17.3 Safari/605.1.15",Macintosh,Safari,17.3,OS X,10_15_7,https://5puzkbbxv1.cognition.run/?sona_id=56249,"en-US,en;q=0.9",nl7ohgnx1c2hsc9,19,"[""White""]",No,Female,"NA
",Yes,578737.0000000001,NA,null,<p></p>,null,choice,cdt,trinary,repulsion_B,1,laptops,null,null,null,null,null,null,2,NA,NA,NA,NA,NA,NA,NA,NA,NA,NA
NA,NA,NA,NA,NA,choice_trial,survey-html-form,45,283450,0.0-4.0-1.20,262,1,2025-05-06T20:11:38Z,b60275e29fe2361ab97ac0ac217840d7,"Mozilla/5.0 (Macintosh; Intel Mac OS X 10_15_7) AppleWebKit/605.1.15 (KHTML, like Gecko) Version/17.3 Safari/605.1.15",Macintosh,Safari,17.3,OS X,10_15_7,https://5puzkbbxv1.cognition.run/?sona_id=56249,"en-US,en;q=0.9",nl7ohgnx1c2hsc9,19,"[""White""]",No,Female,"NA
",Yes,578737.0000000001,NA,17777,NA,"{""product_choice"":""C""}",choice,cdt,trinary,repulsion_B,1,laptops,null,null,null,null,null,null,2,90,100,80,40,30,40,Processing speed,Memory (RAM),NA,NA
NA,NA,NA,NA,NA,choice_trial_setup,html-keyboard-response,46,283753,0.0-4.0-0.21,262,1,2025-05-06T20:11:38Z,b60275e29fe2361ab97ac0ac217840d7,"Mozilla/5.0 (Macintosh; Intel Mac OS X 10_15_7) AppleWebKit/605.1.15 (KHTML, like Gecko) Version/17.3 Safari/605.1.15",Macintosh,Safari,17.3,OS X,10_15_7,https://5puzkbbxv1.cognition.run/?sona_id=56249,"en-US,en;q=0.9",nl7ohgnx1c2hsc9,19,"[""White""]",No,Female,"NA
",Yes,578737.0000000001,NA,null,<p></p>,null,choice,cdt,trinary,repulsion_A,2,laptops,null,null,null,null,null,null,2,NA,NA,NA,NA,NA,NA,NA,NA,NA,NA
NA,NA,NA,NA,NA,choice_trial,survey-html-form,47,288298,0.0-4.0-1.21,262,1,2025-05-06T20:11:38Z,b60275e29fe2361ab97ac0ac217840d7,"Mozilla/5.0 (Macintosh; Intel Mac OS X 10_15_7) AppleWebKit/605.1.15 (KHTML, like Gecko) Version/17.3 Safari/605.1.15",Macintosh,Safari,17.3,OS X,10_15_7,https://5puzkbbxv1.cognition.run/?sona_id=56249,"en-US,en;q=0.9",nl7ohgnx1c2hsc9,19,"[""White""]",No,Female,"NA
",Yes,578737.0000000001,NA,4541,NA,"{""product_choice"":""C""}",choice,cdt,trinary,repulsion_A,2,laptops,null,null,null,null,null,null,2,30,40,20,100,90,100,Processing speed,Memory (RAM),NA,NA
NA,NA,NA,NA,NA,choice_trial_setup,html-keyboard-response,48,288602,0.0-4.0-0.22,262,1,2025-05-06T20:11:38Z,b60275e29fe2361ab97ac0ac217840d7,"Mozilla/5.0 (Macintosh; Intel Mac OS X 10_15_7) AppleWebKit/605.1.15 (KHTML, like Gecko) Version/17.3 Safari/605.1.15",Macintosh,Safari,17.3,OS X,10_15_7,https://5puzkbbxv1.cognition.run/?sona_id=56249,"en-US,en;q=0.9",nl7ohgnx1c2hsc9,19,"[""White""]",No,Female,"NA
",Yes,578737.0000000001,NA,null,<p></p>,null,choice,bw,binary,catch,null,laptops,65,70,35,10,null,null,2,NA,NA,NA,NA,NA,NA,NA,NA,NA,NA
NA,NA,NA,NA,NA,choice_trial,survey-html-form,49,301532,0.0-4.0-1.22,262,1,2025-05-06T20:11:38Z,b60275e29fe2361ab97ac0ac217840d7,"Mozilla/5.0 (Macintosh; Intel Mac OS X 10_15_7) AppleWebKit/605.1.15 (KHTML, like Gecko) Version/17.3 Safari/605.1.15",Macintosh,Safari,17.3,OS X,10_15_7,https://5puzkbbxv1.cognition.run/?sona_id=56249,"en-US,en;q=0.9",nl7ohgnx1c2hsc9,19,"[""White""]",No,Female,"NA
",Yes,578737.0000000001,NA,12926,NA,"{""product_choice"":""A""}",choice,bw,binary,catch,null,laptops,65,70,35,10,null,null,2,null,null,null,null,null,null,Processing speed,Memory (RAM),NA,NA
NA,NA,NA,NA,NA,choice_trial_setup,html-keyboard-response,50,301836,0.0-4.0-0.23,262,1,2025-05-06T20:11:38Z,b60275e29fe2361ab97ac0ac217840d7,"Mozilla/5.0 (Macintosh; Intel Mac OS X 10_15_7) AppleWebKit/605.1.15 (KHTML, like Gecko) Version/17.3 Safari/605.1.15",Macintosh,Safari,17.3,OS X,10_15_7,https://5puzkbbxv1.cognition.run/?sona_id=56249,"en-US,en;q=0.9",nl7ohgnx1c2hsc9,19,"[""White""]",No,Female,"NA
",Yes,578737.0000000001,NA,null,<p></p>,null,choice,wwb,trinary,catch,null,washing machines,55,70,30,15,10,50,2,NA,NA,NA,NA,NA,NA,NA,NA,NA,NA
NA,NA,NA,NA,NA,choice_trial,survey-html-form,51,323083,0.0-4.0-1.23,262,1,2025-05-06T20:11:38Z,b60275e29fe2361ab97ac0ac217840d7,"Mozilla/5.0 (Macintosh; Intel Mac OS X 10_15_7) AppleWebKit/605.1.15 (KHTML, like Gecko) Version/17.3 Safari/605.1.15",Macintosh,Safari,17.3,OS X,10_15_7,https://5puzkbbxv1.cognition.run/?sona_id=56249,"en-US,en;q=0.9",nl7ohgnx1c2hsc9,19,"[""White""]",No,Female,"NA
",Yes,578737.0000000001,NA,21242,NA,"{""product_choice"":""C""}",choice,wwb,trinary,catch,null,washing machines,55,70,30,15,10,50,2,null,null,null,null,null,null,Average lifespan,Energy savings,NA,NA
NA,NA,NA,NA,NA,choice_trial_setup,html-keyboard-response,52,323386,0.0-4.0-0.24,262,1,2025-05-06T20:11:38Z,b60275e29fe2361ab97ac0ac217840d7,"Mozilla/5.0 (Macintosh; Intel Mac OS X 10_15_7) AppleWebKit/605.1.15 (KHTML, like Gecko) Version/17.3 Safari/605.1.15",Macintosh,Safari,17.3,OS X,10_15_7,https://5puzkbbxv1.cognition.run/?sona_id=56249,"en-US,en;q=0.9",nl7ohgnx1c2hsc9,19,"[""White""]",No,Female,"NA
",Yes,578737.0000000001,NA,null,<p></p>,null,choice,wb,binary,catch,null,washing machines,90,75,5,20,null,null,1,NA,NA,NA,NA,NA,NA,NA,NA,NA,NA
NA,NA,NA,NA,NA,choice_trial,survey-html-form,53,326231,0.0-4.0-1.24,262,1,2025-05-06T20:11:38Z,b60275e29fe2361ab97ac0ac217840d7,"Mozilla/5.0 (Macintosh; Intel Mac OS X 10_15_7) AppleWebKit/605.1.15 (KHTML, like Gecko) Version/17.3 Safari/605.1.15",Macintosh,Safari,17.3,OS X,10_15_7,https://5puzkbbxv1.cognition.run/?sona_id=56249,"en-US,en;q=0.9",nl7ohgnx1c2hsc9,19,"[""White""]",No,Female,"NA
",Yes,578737.0000000001,NA,2841,NA,"{""product_choice"":""B""}",choice,wb,binary,catch,null,washing machines,90,75,5,20,null,null,1,null,null,null,null,null,null,Average lifespan,Energy savings,NA,NA
NA,NA,NA,NA,NA,choice_trial_setup,html-keyboard-response,54,326534,0.0-4.0-0.25,262,1,2025-05-06T20:11:38Z,b60275e29fe2361ab97ac0ac217840d7,"Mozilla/5.0 (Macintosh; Intel Mac OS X 10_15_7) AppleWebKit/605.1.15 (KHTML, like Gecko) Version/17.3 Safari/605.1.15",Macintosh,Safari,17.3,OS X,10_15_7,https://5puzkbbxv1.cognition.run/?sona_id=56249,"en-US,en;q=0.9",nl7ohgnx1c2hsc9,19,"[""White""]",No,Female,"NA
",Yes,578737.0000000001,NA,null,<p></p>,null,choice,cdt,trinary,repulsion_B,2,washing machines,null,null,null,null,null,null,1,NA,NA,NA,NA,NA,NA,NA,NA,NA,NA
NA,NA,NA,NA,NA,choice_trial,survey-html-form,55,329998,0.0-4.0-1.25,262,1,2025-05-06T20:11:38Z,b60275e29fe2361ab97ac0ac217840d7,"Mozilla/5.0 (Macintosh; Intel Mac OS X 10_15_7) AppleWebKit/605.1.15 (KHTML, like Gecko) Version/17.3 Safari/605.1.15",Macintosh,Safari,17.3,OS X,10_15_7,https://5puzkbbxv1.cognition.run/?sona_id=56249,"en-US,en;q=0.9",nl7ohgnx1c2hsc9,19,"[""White""]",No,Female,"NA
",Yes,578737.0000000001,NA,3460,NA,"{""product_choice"":""C""}",choice,cdt,trinary,repulsion_B,2,washing machines,null,null,null,null,null,null,1,40,30,40,90,100,80,Average lifespan,Energy savings,NA,NA
NA,NA,NA,NA,NA,choice_trial_setup,html-keyboard-response,56,330302,0.0-4.0-0.26,262,1,2025-05-06T20:11:38Z,b60275e29fe2361ab97ac0ac217840d7,"Mozilla/5.0 (Macintosh; Intel Mac OS X 10_15_7) AppleWebKit/605.1.15 (KHTML, like Gecko) Version/17.3 Safari/605.1.15",Macintosh,Safari,17.3,OS X,10_15_7,https://5puzkbbxv1.cognition.run/?sona_id=56249,"en-US,en;q=0.9",nl7ohgnx1c2hsc9,19,"[""White""]",No,Female,"NA
",Yes,578737.0000000001,NA,null,<p></p>,null,choice,tcd,trinary,repulsion_B,2,televisions,null,null,null,null,null,null,2,NA,NA,NA,NA,NA,NA,NA,NA,NA,NA
NA,NA,NA,NA,NA,choice_trial,survey-html-form,57,341381,0.0-4.0-1.26,262,1,2025-05-06T20:11:38Z,b60275e29fe2361ab97ac0ac217840d7,"Mozilla/5.0 (Macintosh; Intel Mac OS X 10_15_7) AppleWebKit/605.1.15 (KHTML, like Gecko) Version/17.3 Safari/605.1.15",Macintosh,Safari,17.3,OS X,10_15_7,https://5puzkbbxv1.cognition.run/?sona_id=56249,"en-US,en;q=0.9",nl7ohgnx1c2hsc9,19,"[""White""]",No,Female,"NA
",Yes,578737.0000000001,NA,11074,NA,"{""product_choice"":""B""}",choice,tcd,trinary,repulsion_B,2,televisions,null,null,null,null,null,null,2,40,30,40,90,100,80,Screen size,Average lifespan,NA,NA
NA,NA,NA,NA,NA,choice_trial_setup,html-keyboard-response,58,341689,0.0-4.0-0.27,262,1,2025-05-06T20:11:38Z,b60275e29fe2361ab97ac0ac217840d7,"Mozilla/5.0 (Macintosh; Intel Mac OS X 10_15_7) AppleWebKit/605.1.15 (KHTML, like Gecko) Version/17.3 Safari/605.1.15",Macintosh,Safari,17.3,OS X,10_15_7,https://5puzkbbxv1.cognition.run/?sona_id=56249,"en-US,en;q=0.9",nl7ohgnx1c2hsc9,19,"[""White""]",No,Female,"NA
",Yes,578737.0000000001,NA,null,<p></p>,null,choice,tc,binary,attraction,NA,televisions,null,null,null,null,null,null,2,NA,NA,NA,NA,NA,NA,NA,NA,NA,NA
NA,NA,NA,NA,NA,choice_trial,survey-html-form,59,349700,0.0-4.0-1.27,262,1,2025-05-06T20:11:38Z,b60275e29fe2361ab97ac0ac217840d7,"Mozilla/5.0 (Macintosh; Intel Mac OS X 10_15_7) AppleWebKit/605.1.15 (KHTML, like Gecko) Version/17.3 Safari/605.1.15",Macintosh,Safari,17.3,OS X,10_15_7,https://5puzkbbxv1.cognition.run/?sona_id=56249,"en-US,en;q=0.9",nl7ohgnx1c2hsc9,19,"[""White""]",No,Female,"NA
",Yes,578737.0000000001,NA,8007,NA,"{""product_choice"":""B""}",choice,tc,binary,attraction,NA,televisions,null,null,null,null,null,null,2,60,50,null,50,60,null,Screen size,Average lifespan,NA,NA
NA,NA,NA,NA,NA,choice_trial_setup,html-keyboard-response,60,350004,0.0-4.0-0.28,262,1,2025-05-06T20:11:38Z,b60275e29fe2361ab97ac0ac217840d7,"Mozilla/5.0 (Macintosh; Intel Mac OS X 10_15_7) AppleWebKit/605.1.15 (KHTML, like Gecko) Version/17.3 Safari/605.1.15",Macintosh,Safari,17.3,OS X,10_15_7,https://5puzkbbxv1.cognition.run/?sona_id=56249,"en-US,en;q=0.9",nl7ohgnx1c2hsc9,19,"[""White""]",No,Female,"NA
",Yes,578737.0000000001,NA,null,<p></p>,null,choice,ct,binary,attraction,NA,laptops,null,null,null,null,null,null,1,NA,NA,NA,NA,NA,NA,NA,NA,NA,NA
NA,NA,NA,NA,NA,choice_trial,survey-html-form,61,360816,0.0-4.0-1.28,262,1,2025-05-06T20:11:38Z,b60275e29fe2361ab97ac0ac217840d7,"Mozilla/5.0 (Macintosh; Intel Mac OS X 10_15_7) AppleWebKit/605.1.15 (KHTML, like Gecko) Version/17.3 Safari/605.1.15",Macintosh,Safari,17.3,OS X,10_15_7,https://5puzkbbxv1.cognition.run/?sona_id=56249,"en-US,en;q=0.9",nl7ohgnx1c2hsc9,19,"[""White""]",No,Female,"NA
",Yes,578737.0000000001,NA,10808,NA,"{""product_choice"":""A""}",choice,ct,binary,attraction,NA,laptops,null,null,null,null,null,null,1,60,50,null,50,60,null,Processing speed,Memory (RAM),NA,NA
NA,NA,NA,NA,NA,choice_trial_setup,html-keyboard-response,62,361120,0.0-4.0-0.29,262,1,2025-05-06T20:11:38Z,b60275e29fe2361ab97ac0ac217840d7,"Mozilla/5.0 (Macintosh; Intel Mac OS X 10_15_7) AppleWebKit/605.1.15 (KHTML, like Gecko) Version/17.3 Safari/605.1.15",Macintosh,Safari,17.3,OS X,10_15_7,https://5puzkbbxv1.cognition.run/?sona_id=56249,"en-US,en;q=0.9",nl7ohgnx1c2hsc9,19,"[""White""]",No,Female,"NA
",Yes,578737.0000000001,NA,null,<p></p>,null,choice,dct,trinary,repulsion_B,1,televisions,null,null,null,null,null,null,2,NA,NA,NA,NA,NA,NA,NA,NA,NA,NA
NA,NA,NA,NA,NA,choice_trial,survey-html-form,63,384900,0.0-4.0-1.29,262,1,2025-05-06T20:11:38Z,b60275e29fe2361ab97ac0ac217840d7,"Mozilla/5.0 (Macintosh; Intel Mac OS X 10_15_7) AppleWebKit/605.1.15 (KHTML, like Gecko) Version/17.3 Safari/605.1.15",Macintosh,Safari,17.3,OS X,10_15_7,https://5puzkbbxv1.cognition.run/?sona_id=56249,"en-US,en;q=0.9",nl7ohgnx1c2hsc9,19,"[""White""]",No,Female,"NA
",Yes,578737.0000000001,NA,23774,NA,"{""product_choice"":""C""}",choice,dct,trinary,repulsion_B,1,televisions,null,null,null,null,null,null,2,90,100,80,40,30,40,Screen size,Average lifespan,NA,NA
NA,NA,NA,NA,NA,choice_trial_setup,html-keyboard-response,64,385203,0.0-4.0-0.30,262,1,2025-05-06T20:11:38Z,b60275e29fe2361ab97ac0ac217840d7,"Mozilla/5.0 (Macintosh; Intel Mac OS X 10_15_7) AppleWebKit/605.1.15 (KHTML, like Gecko) Version/17.3 Safari/605.1.15",Macintosh,Safari,17.3,OS X,10_15_7,https://5puzkbbxv1.cognition.run/?sona_id=56249,"en-US,en;q=0.9",nl7ohgnx1c2hsc9,19,"[""White""]",No,Female,"NA
",Yes,578737.0000000001,NA,null,<p></p>,null,choice,dct,trinary,repulsion_B,1,microwave ovens,null,null,null,null,null,null,1,NA,NA,NA,NA,NA,NA,NA,NA,NA,NA
NA,NA,NA,NA,NA,choice_trial,survey-html-form,65,389417,0.0-4.0-1.30,262,1,2025-05-06T20:11:38Z,b60275e29fe2361ab97ac0ac217840d7,"Mozilla/5.0 (Macintosh; Intel Mac OS X 10_15_7) AppleWebKit/605.1.15 (KHTML, like Gecko) Version/17.3 Safari/605.1.15",Macintosh,Safari,17.3,OS X,10_15_7,https://5puzkbbxv1.cognition.run/?sona_id=56249,"en-US,en;q=0.9",nl7ohgnx1c2hsc9,19,"[""White""]",No,Female,"NA
",Yes,578737.0000000001,NA,4210,NA,"{""product_choice"":""C""}",choice,dct,trinary,repulsion_B,1,microwave ovens,null,null,null,null,null,null,1,90,100,80,40,30,40,Warranty,Cooking power,NA,NA
NA,NA,NA,NA,NA,choice_trial_setup,html-keyboard-response,66,389721,0.0-4.0-0.31,262,1,2025-05-06T20:11:38Z,b60275e29fe2361ab97ac0ac217840d7,"Mozilla/5.0 (Macintosh; Intel Mac OS X 10_15_7) AppleWebKit/605.1.15 (KHTML, like Gecko) Version/17.3 Safari/605.1.15",Macintosh,Safari,17.3,OS X,10_15_7,https://5puzkbbxv1.cognition.run/?sona_id=56249,"en-US,en;q=0.9",nl7ohgnx1c2hsc9,19,"[""White""]",No,Female,"NA
",Yes,578737.0000000001,NA,null,<p></p>,null,choice,dtc,trinary,repulsion_A,2,washing machines,null,null,null,null,null,null,1,NA,NA,NA,NA,NA,NA,NA,NA,NA,NA
NA,NA,NA,NA,NA,choice_trial,survey-html-form,67,403599,0.0-4.0-1.31,262,1,2025-05-06T20:11:38Z,b60275e29fe2361ab97ac0ac217840d7,"Mozilla/5.0 (Macintosh; Intel Mac OS X 10_15_7) AppleWebKit/605.1.15 (KHTML, like Gecko) Version/17.3 Safari/605.1.15",Macintosh,Safari,17.3,OS X,10_15_7,https://5puzkbbxv1.cognition.run/?sona_id=56249,"en-US,en;q=0.9",nl7ohgnx1c2hsc9,19,"[""White""]",No,Female,"NA
",Yes,578737.0000000001,NA,13874,NA,"{""product_choice"":""C""}",choice,dtc,trinary,repulsion_A,2,washing machines,null,null,null,null,null,null,1,30,40,20,100,90,100,Average lifespan,Energy savings,NA,NA
NA,NA,NA,NA,NA,choice_trial_setup,html-keyboard-response,68,403903,0.0-4.0-0.32,262,1,2025-05-06T20:11:38Z,b60275e29fe2361ab97ac0ac217840d7,"Mozilla/5.0 (Macintosh; Intel Mac OS X 10_15_7) AppleWebKit/605.1.15 (KHTML, like Gecko) Version/17.3 Safari/605.1.15",Macintosh,Safari,17.3,OS X,10_15_7,https://5puzkbbxv1.cognition.run/?sona_id=56249,"en-US,en;q=0.9",nl7ohgnx1c2hsc9,19,"[""White""]",No,Female,"NA
",Yes,578737.0000000001,NA,null,<p></p>,null,choice,dct,trinary,attraction,1,washing machines,null,null,null,null,null,null,1,NA,NA,NA,NA,NA,NA,NA,NA,NA,NA
NA,NA,NA,NA,NA,choice_trial,survey-html-form,69,408782,0.0-4.0-1.32,262,1,2025-05-06T20:11:38Z,b60275e29fe2361ab97ac0ac217840d7,"Mozilla/5.0 (Macintosh; Intel Mac OS X 10_15_7) AppleWebKit/605.1.15 (KHTML, like Gecko) Version/17.3 Safari/605.1.15",Macintosh,Safari,17.3,OS X,10_15_7,https://5puzkbbxv1.cognition.run/?sona_id=56249,"en-US,en;q=0.9",nl7ohgnx1c2hsc9,19,"[""White""]",No,Female,"NA
",Yes,578737.0000000001,NA,4874,NA,"{""product_choice"":""C""}",choice,dct,trinary,attraction,1,washing machines,null,null,null,null,null,null,1,60,50,60,50,60,40,Average lifespan,Energy savings,NA,NA
NA,NA,NA,NA,NA,choice_trial_setup,html-keyboard-response,70,409086,0.0-4.0-0.33,262,1,2025-05-06T20:11:38Z,b60275e29fe2361ab97ac0ac217840d7,"Mozilla/5.0 (Macintosh; Intel Mac OS X 10_15_7) AppleWebKit/605.1.15 (KHTML, like Gecko) Version/17.3 Safari/605.1.15",Macintosh,Safari,17.3,OS X,10_15_7,https://5puzkbbxv1.cognition.run/?sona_id=56249,"en-US,en;q=0.9",nl7ohgnx1c2hsc9,19,"[""White""]",No,Female,"NA
",Yes,578737.0000000001,NA,null,<p></p>,null,choice,ctd,trinary,attraction,2,laptops,null,null,null,null,null,null,2,NA,NA,NA,NA,NA,NA,NA,NA,NA,NA
NA,NA,NA,NA,NA,choice_trial,survey-html-form,71,414616,0.0-4.0-1.33,262,1,2025-05-06T20:11:38Z,b60275e29fe2361ab97ac0ac217840d7,"Mozilla/5.0 (Macintosh; Intel Mac OS X 10_15_7) AppleWebKit/605.1.15 (KHTML, like Gecko) Version/17.3 Safari/605.1.15",Macintosh,Safari,17.3,OS X,10_15_7,https://5puzkbbxv1.cognition.run/?sona_id=56249,"en-US,en;q=0.9",nl7ohgnx1c2hsc9,19,"[""White""]",No,Female,"NA
",Yes,578737.0000000001,NA,5525,NA,"{""product_choice"":""B""}",choice,ctd,trinary,attraction,2,laptops,null,null,null,null,null,null,2,50,60,40,60,50,60,Processing speed,Memory (RAM),NA,NA
NA,NA,NA,NA,NA,choice_trial_setup,html-keyboard-response,72,414919,0.0-4.0-0.34,262,1,2025-05-06T20:11:38Z,b60275e29fe2361ab97ac0ac217840d7,"Mozilla/5.0 (Macintosh; Intel Mac OS X 10_15_7) AppleWebKit/605.1.15 (KHTML, like Gecko) Version/17.3 Safari/605.1.15",Macintosh,Safari,17.3,OS X,10_15_7,https://5puzkbbxv1.cognition.run/?sona_id=56249,"en-US,en;q=0.9",nl7ohgnx1c2hsc9,19,"[""White""]",No,Female,"NA
",Yes,578737.0000000001,NA,null,<p></p>,null,choice,dtc,trinary,repulsion_A,1,laptops,null,null,null,null,null,null,1,NA,NA,NA,NA,NA,NA,NA,NA,NA,NA
NA,NA,NA,NA,NA,choice_trial,survey-html-form,73,420432,0.0-4.0-1.34,262,1,2025-05-06T20:11:38Z,b60275e29fe2361ab97ac0ac217840d7,"Mozilla/5.0 (Macintosh; Intel Mac OS X 10_15_7) AppleWebKit/605.1.15 (KHTML, like Gecko) Version/17.3 Safari/605.1.15",Macintosh,Safari,17.3,OS X,10_15_7,https://5puzkbbxv1.cognition.run/?sona_id=56249,"en-US,en;q=0.9",nl7ohgnx1c2hsc9,19,"[""White""]",No,Female,"NA
",Yes,578737.0000000001,NA,5509,NA,"{""product_choice"":""B""}",choice,dtc,trinary,repulsion_A,1,laptops,null,null,null,null,null,null,1,100,90,100,30,40,20,Processing speed,Memory (RAM),NA,NA
NA,NA,NA,NA,NA,choice_trial_setup,html-keyboard-response,74,420736,0.0-4.0-0.35,262,1,2025-05-06T20:11:38Z,b60275e29fe2361ab97ac0ac217840d7,"Mozilla/5.0 (Macintosh; Intel Mac OS X 10_15_7) AppleWebKit/605.1.15 (KHTML, like Gecko) Version/17.3 Safari/605.1.15",Macintosh,Safari,17.3,OS X,10_15_7,https://5puzkbbxv1.cognition.run/?sona_id=56249,"en-US,en;q=0.9",nl7ohgnx1c2hsc9,19,"[""White""]",No,Female,"NA
",Yes,578737.0000000001,NA,null,<p></p>,null,choice,bw,binary,catch,null,microwave ovens,80,75,30,10,null,null,2,NA,NA,NA,NA,NA,NA,NA,NA,NA,NA
NA,NA,NA,NA,NA,choice_trial,survey-html-form,75,425115,0.0-4.0-1.35,262,1,2025-05-06T20:11:38Z,b60275e29fe2361ab97ac0ac217840d7,"Mozilla/5.0 (Macintosh; Intel Mac OS X 10_15_7) AppleWebKit/605.1.15 (KHTML, like Gecko) Version/17.3 Safari/605.1.15",Macintosh,Safari,17.3,OS X,10_15_7,https://5puzkbbxv1.cognition.run/?sona_id=56249,"en-US,en;q=0.9",nl7ohgnx1c2hsc9,19,"[""White""]",No,Female,"NA
",Yes,578737.0000000001,NA,4375,NA,"{""product_choice"":""A""}",choice,bw,binary,catch,null,microwave ovens,80,75,30,10,null,null,2,null,null,null,null,null,null,Warranty,Cooking power,NA,NA
NA,NA,NA,NA,NA,choice_trial_setup,html-keyboard-response,76,425418,0.0-4.0-0.36,262,1,2025-05-06T20:11:38Z,b60275e29fe2361ab97ac0ac217840d7,"Mozilla/5.0 (Macintosh; Intel Mac OS X 10_15_7) AppleWebKit/605.1.15 (KHTML, like Gecko) Version/17.3 Safari/605.1.15",Macintosh,Safari,17.3,OS X,10_15_7,https://5puzkbbxv1.cognition.run/?sona_id=56249,"en-US,en;q=0.9",nl7ohgnx1c2hsc9,19,"[""White""]",No,Female,"NA
",Yes,578737.0000000001,NA,null,<p></p>,null,choice,ct,binary,repulsion,1,microwave ovens,null,null,null,null,null,null,1,NA,NA,NA,NA,NA,NA,NA,NA,NA,NA
NA,NA,NA,NA,NA,choice_trial,survey-html-form,77,441315,0.0-4.0-1.36,262,1,2025-05-06T20:11:38Z,b60275e29fe2361ab97ac0ac217840d7,"Mozilla/5.0 (Macintosh; Intel Mac OS X 10_15_7) AppleWebKit/605.1.15 (KHTML, like Gecko) Version/17.3 Safari/605.1.15",Macintosh,Safari,17.3,OS X,10_15_7,https://5puzkbbxv1.cognition.run/?sona_id=56249,"en-US,en;q=0.9",nl7ohgnx1c2hsc9,19,"[""White""]",No,Female,"NA
",Yes,578737.0000000001,NA,15892,NA,"{""product_choice"":""A""}",choice,ct,binary,repulsion,1,microwave ovens,null,null,null,null,null,null,1,100,90,null,30,40,null,Warranty,Cooking power,NA,NA
NA,NA,NA,NA,NA,choice_trial_setup,html-keyboard-response,78,441618,0.0-4.0-0.37,262,1,2025-05-06T20:11:38Z,b60275e29fe2361ab97ac0ac217840d7,"Mozilla/5.0 (Macintosh; Intel Mac OS X 10_15_7) AppleWebKit/605.1.15 (KHTML, like Gecko) Version/17.3 Safari/605.1.15",Macintosh,Safari,17.3,OS X,10_15_7,https://5puzkbbxv1.cognition.run/?sona_id=56249,"en-US,en;q=0.9",nl7ohgnx1c2hsc9,19,"[""White""]",No,Female,"NA
",Yes,578737.0000000001,NA,null,<p></p>,null,choice,tc,binary,repulsion,1,televisions,null,null,null,null,null,null,2,NA,NA,NA,NA,NA,NA,NA,NA,NA,NA
NA,NA,NA,NA,NA,choice_trial,survey-html-form,79,445217,0.0-4.0-1.37,262,1,2025-05-06T20:11:38Z,b60275e29fe2361ab97ac0ac217840d7,"Mozilla/5.0 (Macintosh; Intel Mac OS X 10_15_7) AppleWebKit/605.1.15 (KHTML, like Gecko) Version/17.3 Safari/605.1.15",Macintosh,Safari,17.3,OS X,10_15_7,https://5puzkbbxv1.cognition.run/?sona_id=56249,"en-US,en;q=0.9",nl7ohgnx1c2hsc9,19,"[""White""]",No,Female,"NA
",Yes,578737.0000000001,NA,3595,NA,"{""product_choice"":""B""}",choice,tc,binary,repulsion,1,televisions,null,null,null,null,null,null,2,100,90,null,30,40,null,Screen size,Average lifespan,NA,NA
NA,NA,NA,NA,NA,choice_trial_setup,html-keyboard-response,80,445523,0.0-4.0-0.38,262,1,2025-05-06T20:11:38Z,b60275e29fe2361ab97ac0ac217840d7,"Mozilla/5.0 (Macintosh; Intel Mac OS X 10_15_7) AppleWebKit/605.1.15 (KHTML, like Gecko) Version/17.3 Safari/605.1.15",Macintosh,Safari,17.3,OS X,10_15_7,https://5puzkbbxv1.cognition.run/?sona_id=56249,"en-US,en;q=0.9",nl7ohgnx1c2hsc9,19,"[""White""]",No,Female,"NA
",Yes,578737.0000000001,NA,null,<p></p>,null,choice,cdt,trinary,attraction,2,microwave ovens,null,null,null,null,null,null,2,NA,NA,NA,NA,NA,NA,NA,NA,NA,NA
NA,NA,NA,NA,NA,choice_trial,survey-html-form,81,496935,0.0-4.0-1.38,262,1,2025-05-06T20:11:38Z,b60275e29fe2361ab97ac0ac217840d7,"Mozilla/5.0 (Macintosh; Intel Mac OS X 10_15_7) AppleWebKit/605.1.15 (KHTML, like Gecko) Version/17.3 Safari/605.1.15",Macintosh,Safari,17.3,OS X,10_15_7,https://5puzkbbxv1.cognition.run/?sona_id=56249,"en-US,en;q=0.9",nl7ohgnx1c2hsc9,19,"[""White""]",No,Female,"NA
",Yes,578737.0000000001,NA,51406,NA,"{""product_choice"":""C""}",choice,cdt,trinary,attraction,2,microwave ovens,null,null,null,null,null,null,2,50,60,40,60,50,60,Warranty,Cooking power,NA,NA
NA,NA,NA,NA,NA,choice_trial_setup,html-keyboard-response,82,497241,0.0-4.0-0.39,262,1,2025-05-06T20:11:38Z,b60275e29fe2361ab97ac0ac217840d7,"Mozilla/5.0 (Macintosh; Intel Mac OS X 10_15_7) AppleWebKit/605.1.15 (KHTML, like Gecko) Version/17.3 Safari/605.1.15",Macintosh,Safari,17.3,OS X,10_15_7,https://5puzkbbxv1.cognition.run/?sona_id=56249,"en-US,en;q=0.9",nl7ohgnx1c2hsc9,19,"[""White""]",No,Female,"NA
",Yes,578737.0000000001,NA,null,<p></p>,null,choice,cdt,trinary,attraction,1,laptops,null,null,null,null,null,null,1,NA,NA,NA,NA,NA,NA,NA,NA,NA,NA
NA,NA,NA,NA,NA,choice_trial,survey-html-form,83,502150,0.0-4.0-1.39,262,1,2025-05-06T20:11:38Z,b60275e29fe2361ab97ac0ac217840d7,"Mozilla/5.0 (Macintosh; Intel Mac OS X 10_15_7) AppleWebKit/605.1.15 (KHTML, like Gecko) Version/17.3 Safari/605.1.15",Macintosh,Safari,17.3,OS X,10_15_7,https://5puzkbbxv1.cognition.run/?sona_id=56249,"en-US,en;q=0.9",nl7ohgnx1c2hsc9,19,"[""White""]",No,Female,"NA
",Yes,578737.0000000001,NA,4903,NA,"{""product_choice"":""C""}",choice,cdt,trinary,attraction,1,laptops,null,null,null,null,null,null,1,60,50,60,50,60,40,Processing speed,Memory (RAM),NA,NA
NA,NA,NA,NA,NA,choice_trial_setup,html-keyboard-response,84,502455,0.0-4.0-0.40,262,1,2025-05-06T20:11:38Z,b60275e29fe2361ab97ac0ac217840d7,"Mozilla/5.0 (Macintosh; Intel Mac OS X 10_15_7) AppleWebKit/605.1.15 (KHTML, like Gecko) Version/17.3 Safari/605.1.15",Macintosh,Safari,17.3,OS X,10_15_7,https://5puzkbbxv1.cognition.run/?sona_id=56249,"en-US,en;q=0.9",nl7ohgnx1c2hsc9,19,"[""White""]",No,Female,"NA
",Yes,578737.0000000001,NA,null,<p></p>,null,choice,ctd,trinary,repulsion_A,1,microwave ovens,null,null,null,null,null,null,1,NA,NA,NA,NA,NA,NA,NA,NA,NA,NA
NA,NA,NA,NA,NA,choice_trial,survey-html-form,85,507283,0.0-4.0-1.40,262,1,2025-05-06T20:11:38Z,b60275e29fe2361ab97ac0ac217840d7,"Mozilla/5.0 (Macintosh; Intel Mac OS X 10_15_7) AppleWebKit/605.1.15 (KHTML, like Gecko) Version/17.3 Safari/605.1.15",Macintosh,Safari,17.3,OS X,10_15_7,https://5puzkbbxv1.cognition.run/?sona_id=56249,"en-US,en;q=0.9",nl7ohgnx1c2hsc9,19,"[""White""]",No,Female,"NA
",Yes,578737.0000000001,NA,4823,NA,"{""product_choice"":""A""}",choice,ctd,trinary,repulsion_A,1,microwave ovens,null,null,null,null,null,null,1,100,90,100,30,40,20,Warranty,Cooking power,NA,NA
NA,NA,NA,NA,NA,choice_trial_setup,html-keyboard-response,86,507587,0.0-4.0-0.41,262,1,2025-05-06T20:11:38Z,b60275e29fe2361ab97ac0ac217840d7,"Mozilla/5.0 (Macintosh; Intel Mac OS X 10_15_7) AppleWebKit/605.1.15 (KHTML, like Gecko) Version/17.3 Safari/605.1.15",Macintosh,Safari,17.3,OS X,10_15_7,https://5puzkbbxv1.cognition.run/?sona_id=56249,"en-US,en;q=0.9",nl7ohgnx1c2hsc9,19,"[""White""]",No,Female,"NA
",Yes,578737.0000000001,NA,null,<p></p>,null,choice,ctd,trinary,repulsion_B,2,microwave ovens,null,null,null,null,null,null,1,NA,NA,NA,NA,NA,NA,NA,NA,NA,NA
NA,NA,NA,NA,NA,choice_trial,survey-html-form,87,516584,0.0-4.0-1.41,262,1,2025-05-06T20:11:38Z,b60275e29fe2361ab97ac0ac217840d7,"Mozilla/5.0 (Macintosh; Intel Mac OS X 10_15_7) AppleWebKit/605.1.15 (KHTML, like Gecko) Version/17.3 Safari/605.1.15",Macintosh,Safari,17.3,OS X,10_15_7,https://5puzkbbxv1.cognition.run/?sona_id=56249,"en-US,en;q=0.9",nl7ohgnx1c2hsc9,19,"[""White""]",No,Female,"NA
",Yes,578737.0000000001,NA,8992,NA,"{""product_choice"":""B""}",choice,ctd,trinary,repulsion_B,2,microwave ovens,null,null,null,null,null,null,1,40,30,40,90,100,80,Warranty,Cooking power,NA,NA
NA,NA,NA,NA,NA,choice_trial_setup,html-keyboard-response,88,516888,0.0-4.0-0.42,262,1,2025-05-06T20:11:38Z,b60275e29fe2361ab97ac0ac217840d7,"Mozilla/5.0 (Macintosh; Intel Mac OS X 10_15_7) AppleWebKit/605.1.15 (KHTML, like Gecko) Version/17.3 Safari/605.1.15",Macintosh,Safari,17.3,OS X,10_15_7,https://5puzkbbxv1.cognition.run/?sona_id=56249,"en-US,en;q=0.9",nl7ohgnx1c2hsc9,19,"[""White""]",No,Female,"NA
",Yes,578737.0000000001,NA,null,<p></p>,null,choice,ct,binary,repulsion,1,laptops,null,null,null,null,null,null,2,NA,NA,NA,NA,NA,NA,NA,NA,NA,NA
NA,NA,NA,NA,NA,choice_trial,survey-html-form,89,521582,0.0-4.0-1.42,262,1,2025-05-06T20:11:38Z,b60275e29fe2361ab97ac0ac217840d7,"Mozilla/5.0 (Macintosh; Intel Mac OS X 10_15_7) AppleWebKit/605.1.15 (KHTML, like Gecko) Version/17.3 Safari/605.1.15",Macintosh,Safari,17.3,OS X,10_15_7,https://5puzkbbxv1.cognition.run/?sona_id=56249,"en-US,en;q=0.9",nl7ohgnx1c2hsc9,19,"[""White""]",No,Female,"NA
",Yes,578737.0000000001,NA,4689,NA,"{""product_choice"":""B""}",choice,ct,binary,repulsion,1,laptops,null,null,null,null,null,null,2,100,90,null,30,40,null,Processing speed,Memory (RAM),NA,NA
NA,NA,NA,NA,NA,choice_trial_setup,html-keyboard-response,90,521886,0.0-4.0-0.43,262,1,2025-05-06T20:11:38Z,b60275e29fe2361ab97ac0ac217840d7,"Mozilla/5.0 (Macintosh; Intel Mac OS X 10_15_7) AppleWebKit/605.1.15 (KHTML, like Gecko) Version/17.3 Safari/605.1.15",Macintosh,Safari,17.3,OS X,10_15_7,https://5puzkbbxv1.cognition.run/?sona_id=56249,"en-US,en;q=0.9",nl7ohgnx1c2hsc9,19,"[""White""]",No,Female,"NA
",Yes,578737.0000000001,NA,null,<p></p>,null,choice,dtc,trinary,repulsion_B,1,washing machines,null,null,null,null,null,null,1,NA,NA,NA,NA,NA,NA,NA,NA,NA,NA
NA,NA,NA,NA,NA,choice_trial,survey-html-form,91,528332,0.0-4.0-1.43,262,1,2025-05-06T20:11:38Z,b60275e29fe2361ab97ac0ac217840d7,"Mozilla/5.0 (Macintosh; Intel Mac OS X 10_15_7) AppleWebKit/605.1.15 (KHTML, like Gecko) Version/17.3 Safari/605.1.15",Macintosh,Safari,17.3,OS X,10_15_7,https://5puzkbbxv1.cognition.run/?sona_id=56249,"en-US,en;q=0.9",nl7ohgnx1c2hsc9,19,"[""White""]",No,Female,"NA
",Yes,578737.0000000001,NA,6441,NA,"{""product_choice"":""C""}",choice,dtc,trinary,repulsion_B,1,washing machines,null,null,null,null,null,null,1,90,100,80,40,30,40,Average lifespan,Energy savings,NA,NA
NA,NA,NA,NA,NA,post_trials_message,html-button-response,92,529882,0.0-5.0,262,1,2025-05-06T20:11:38Z,b60275e29fe2361ab97ac0ac217840d7,"Mozilla/5.0 (Macintosh; Intel Mac OS X 10_15_7) AppleWebKit/605.1.15 (KHTML, like Gecko) Version/17.3 Safari/605.1.15",Macintosh,Safari,17.3,OS X,10_15_7,https://5puzkbbxv1.cognition.run/?sona_id=56249,"en-US,en;q=0.9",nl7ohgnx1c2hsc9,19,"[""White""]",No,Female,"NA
",Yes,578737.0000000001,NA,1545,<p> <b>Thank you for your patience!</b></p><p>  The study will be done after completing a brief form. </p>,0,NA,NA,NA,NA,NA,NA,NA,NA,NA,NA,NA,NA,NA,NA,NA,NA,NA,NA,NA,NA,NA,NA,NA
NA,NA,NA,NA,NA,survey_message,survey-text,93,549617,0.0-6.0,262,1,2025-05-06T20:11:38Z,b60275e29fe2361ab97ac0ac217840d7,"Mozilla/5.0 (Macintosh; Intel Mac OS X 10_15_7) AppleWebKit/605.1.15 (KHTML, like Gecko) Version/17.3 Safari/605.1.15",Macintosh,Safari,17.3,OS X,10_15_7,https://5puzkbbxv1.cognition.run/?sona_id=56249,"en-US,en;q=0.9",nl7ohgnx1c2hsc9,19,"[""White""]",No,Female,"NA
",Yes,578737.0000000001,NA,19722,NA,"{""Q0"":""I just picked the highest combo of numbers ""}",NA,NA,NA,NA,NA,NA,NA,NA,NA,NA,NA,NA,NA,NA,NA,NA,NA,NA,NA,NA,NA,I just picked the highest combo of numbers,NA
NA,NA,NA,NA,NA,demo_age,survey-text,94,552214,0.0-7.0,262,1,2025-05-06T20:11:38Z,b60275e29fe2361ab97ac0ac217840d7,"Mozilla/5.0 (Macintosh; Intel Mac OS X 10_15_7) AppleWebKit/605.1.15 (KHTML, like Gecko) Version/17.3 Safari/605.1.15",Macintosh,Safari,17.3,OS X,10_15_7,https://5puzkbbxv1.cognition.run/?sona_id=56249,"en-US,en;q=0.9",nl7ohgnx1c2hsc9,19,"[""White""]",No,Female,"NA
",Yes,578737.0000000001,NA,2589,NA,"{""Q0"":""19""}",NA,NA,NA,NA,NA,NA,NA,NA,NA,NA,NA,NA,NA,NA,NA,NA,NA,NA,NA,NA,NA,NA,NA
NA,NA,NA,NA,NA,demo_race,survey-multi-select,95,554535,0.0-8.0,262,1,2025-05-06T20:11:38Z,b60275e29fe2361ab97ac0ac217840d7,"Mozilla/5.0 (Macintosh; Intel Mac OS X 10_15_7) AppleWebKit/605.1.15 (KHTML, like Gecko) Version/17.3 Safari/605.1.15",Macintosh,Safari,17.3,OS X,10_15_7,https://5puzkbbxv1.cognition.run/?sona_id=56249,"en-US,en;q=0.9",nl7ohgnx1c2hsc9,19,"[""White""]",No,Female,"NA
",Yes,578737.0000000001,NA,2316,NA,"{""Q0"":[""White""]}",NA,NA,NA,NA,NA,NA,NA,NA,NA,NA,NA,NA,NA,NA,NA,NA,NA,NA,NA,NA,NA,NA,[0]
NA,NA,NA,NA,NA,demo_ethnicity_gender,survey-multi-choice,96,558851,0.0-9.0,262,1,2025-05-06T20:11:38Z,b60275e29fe2361ab97ac0ac217840d7,"Mozilla/5.0 (Macintosh; Intel Mac OS X 10_15_7) AppleWebKit/605.1.15 (KHTML, like Gecko) Version/17.3 Safari/605.1.15",Macintosh,Safari,17.3,OS X,10_15_7,https://5puzkbbxv1.cognition.run/?sona_id=56249,"en-US,en;q=0.9",nl7ohgnx1c2hsc9,19,"[""White""]",No,Female,"NA
",Yes,578737.0000000001,NA,4310,NA,"{""Q0"":""No"",""Q1"":""Female""}",NA,NA,NA,NA,NA,NA,NA,NA,NA,NA,NA,NA,NA,NA,NA,NA,NA,NA,NA,NA,NA,NA,"[0,1]"
NA,NA,NA,NA,NA,demo_countries,survey-text,97,566434,0.0-10.0,262,1,2025-05-06T20:11:38Z,b60275e29fe2361ab97ac0ac217840d7,"Mozilla/5.0 (Macintosh; Intel Mac OS X 10_15_7) AppleWebKit/605.1.15 (KHTML, like Gecko) Version/17.3 Safari/605.1.15",Macintosh,Safari,17.3,OS X,10_15_7,https://5puzkbbxv1.cognition.run/?sona_id=56249,"en-US,en;q=0.9",nl7ohgnx1c2hsc9,19,"[""White""]",No,Female,"NA
",Yes,578737.0000000001,NA,7579,NA,"{""Q0"":""NA\n""}",NA,NA,NA,NA,NA,NA,NA,NA,NA,NA,NA,NA,NA,NA,NA,NA,NA,NA,NA,NA,NA,NA,NA
NA,NA,NA,NA,NA,demo_prev_study,survey-multi-choice,98,571849,0.0-11.0,262,1,2025-05-06T20:11:38Z,b60275e29fe2361ab97ac0ac217840d7,"Mozilla/5.0 (Macintosh; Intel Mac OS X 10_15_7) AppleWebKit/605.1.15 (KHTML, like Gecko) Version/17.3 Safari/605.1.15",Macintosh,Safari,17.3,OS X,10_15_7,https://5puzkbbxv1.cognition.run/?sona_id=56249,"en-US,en;q=0.9",nl7ohgnx1c2hsc9,19,"[""White""]",No,Female,"NA
",Yes,578737.0000000001,NA,5411,NA,"{""Q0"":""Yes""}",NA,NA,NA,NA,NA,NA,NA,NA,NA,NA,NA,NA,NA,NA,NA,NA,NA,NA,NA,NA,NA,NA,[0]
NA,NA,NA,NA,NA,post_survey_message,html-keyboard-response,99,575608,0.0-12.0,262,1,2025-05-06T20:11:38Z,b60275e29fe2361ab97ac0ac217840d7,"Mozilla/5.0 (Macintosh; Intel Mac OS X 10_15_7) AppleWebKit/605.1.15 (KHTML, like Gecko) Version/17.3 Safari/605.1.15",Macintosh,Safari,17.3,OS X,10_15_7,https://5puzkbbxv1.cognition.run/?sona_id=56249,"en-US,en;q=0.9",nl7ohgnx1c2hsc9,19,"[""White""]",No,Female,"NA
",Yes,578737.0000000001,NA,3754,NA,j,NA,NA,NA,NA,NA,NA,NA,NA,NA,NA,NA,NA,NA,NA,NA,NA,NA,NA,NA,NA,NA,NA,NA
NA,NA,NA,NA,NA,debrief,image-keyboard-response,100,578736,0.0-13.0,262,1,2025-05-06T20:11:38Z,b60275e29fe2361ab97ac0ac217840d7,"Mozilla/5.0 (Macintosh; Intel Mac OS X 10_15_7) AppleWebKit/605.1.15 (KHTML, like Gecko) Version/17.3 Safari/605.1.15",Macintosh,Safari,17.3,OS X,10_15_7,https://5puzkbbxv1.cognition.run/?sona_id=56249,"en-US,en;q=0.9",nl7ohgnx1c2hsc9,19,"[""White""]",No,Female,"NA
",Yes,578737.0000000001,NA,3108,Judg_choice_debrief.png,p,NA,NA,NA,NA,NA,NA,NA,NA,NA,NA,NA,NA,NA,NA,NA,NA,NA,NA,NA,NA,NA,NA,NA
