success,timeout,failed_images,failed_audio,failed_video,screen_id,trial_type,trial_index,time_elapsed,internal_node_id,run_id,condition,recorded_at,source_code_version,user_agent,device,browser,browser_version,platform,platform_version,referer,accept_language,ppt_id,age,race,ethnicity,gender,other_countries,prev_study,exp_duration,view_history,rt,stimulus,response,phase,order,set,effect,t_high,category,d1_best,d2_best,d1_worst1,d2_worst1,d1_worst2,d2_worst2,first_dim,d1_t,d1_c,d1_d,d2_t,d2_c,d2_d,d1_name,d2_name,strategy_response,question_order
TRUE,FALSE,[],[],[],img preload,preload,0,316,0.0-0.0,263,1,2025-05-06T20:24:22Z,b60275e29fe2361ab97ac0ac217840d7,"Mozilla/5.0 (Macintosh; Intel Mac OS X 10_15_7) AppleWebKit/605.1.15 (KHTML, like Gecko) Version/17.3.1 Safari/605.1.15",Macintosh,Safari,17.3.1,OS X,10_15_7,https://5puzkbbxv1.cognition.run/?sona_id=54400,"en-US,en;q=0.9",kbwx1tez1w7cm7j,19,"[""White""]",No,Female,NA,Yes,332624,NA,NA,NA,NA,NA,NA,NA,NA,NA,NA,NA,NA,NA,NA,NA,NA,NA,NA,NA,NA,NA,NA,NA,NA,NA,NA,NA
NA,NA,NA,NA,NA,computer_message,instructions,1,1884,0.0-1.0,263,1,2025-05-06T20:24:22Z,b60275e29fe2361ab97ac0ac217840d7,"Mozilla/5.0 (Macintosh; Intel Mac OS X 10_15_7) AppleWebKit/605.1.15 (KHTML, like Gecko) Version/17.3.1 Safari/605.1.15",Macintosh,Safari,17.3.1,OS X,10_15_7,https://5puzkbbxv1.cognition.run/?sona_id=54400,"en-US,en;q=0.9",kbwx1tez1w7cm7j,19,"[""White""]",No,Female,NA,Yes,332624,"[{""page_index"":0,""viewing_time"":1565}]",1565,NA,NA,NA,NA,NA,NA,NA,NA,NA,NA,NA,NA,NA,NA,NA,NA,NA,NA,NA,NA,NA,NA,NA,NA,NA
TRUE,NA,NA,NA,NA,NA,fullscreen,2,3988,0.0-2.0,263,1,2025-05-06T20:24:22Z,b60275e29fe2361ab97ac0ac217840d7,"Mozilla/5.0 (Macintosh; Intel Mac OS X 10_15_7) AppleWebKit/605.1.15 (KHTML, like Gecko) Version/17.3.1 Safari/605.1.15",Macintosh,Safari,17.3.1,OS X,10_15_7,https://5puzkbbxv1.cognition.run/?sona_id=54400,"en-US,en;q=0.9",kbwx1tez1w7cm7j,19,"[""White""]",No,Female,NA,Yes,332624,NA,1100,NA,NA,NA,NA,NA,NA,NA,NA,NA,NA,NA,NA,NA,NA,NA,NA,NA,NA,NA,NA,NA,NA,NA,NA,NA
NA,NA,NA,NA,NA,choice_instructions,instructions,3,59426,0.0-3.0,263,1,2025-05-06T20:24:22Z,b60275e29fe2361ab97ac0ac217840d7,"Mozilla/5.0 (Macintosh; Intel Mac OS X 10_15_7) AppleWebKit/605.1.15 (KHTML, like Gecko) Version/17.3.1 Safari/605.1.15",Macintosh,Safari,17.3.1,OS X,10_15_7,https://5puzkbbxv1.cognition.run/?sona_id=54400,"en-US,en;q=0.9",kbwx1tez1w7cm7j,19,"[""White""]",No,Female,NA,Yes,332624,"[{""page_index"":0,""viewing_time"":1212},{""page_index"":1,""viewing_time"":2784},{""page_index"":2,""viewing_time"":9157},{""page_index"":3,""viewing_time"":33260},{""page_index"":4,""viewing_time"":1469},{""page_index"":5,""viewing_time"":4536},{""page_index"":6,""viewing_time"":3013}]",55431,NA,NA,NA,NA,NA,NA,NA,NA,NA,NA,NA,NA,NA,NA,NA,NA,NA,NA,NA,NA,NA,NA,NA,NA,NA
NA,NA,NA,NA,NA,choice_trial_setup,html-keyboard-response,4,59731,0.0-4.0-0.0,263,1,2025-05-06T20:24:22Z,b60275e29fe2361ab97ac0ac217840d7,"Mozilla/5.0 (Macintosh; Intel Mac OS X 10_15_7) AppleWebKit/605.1.15 (KHTML, like Gecko) Version/17.3.1 Safari/605.1.15",Macintosh,Safari,17.3.1,OS X,10_15_7,https://5puzkbbxv1.cognition.run/?sona_id=54400,"en-US,en;q=0.9",kbwx1tez1w7cm7j,19,"[""White""]",No,Female,NA,Yes,332624,NA,null,<p></p>,null,choice,ctd,trinary,repulsion_A,1,laptops,null,null,null,null,null,null,2,NA,NA,NA,NA,NA,NA,NA,NA,NA,NA
NA,NA,NA,NA,NA,choice_trial,survey-html-form,5,72314,0.0-4.0-1.0,263,1,2025-05-06T20:24:22Z,b60275e29fe2361ab97ac0ac217840d7,"Mozilla/5.0 (Macintosh; Intel Mac OS X 10_15_7) AppleWebKit/605.1.15 (KHTML, like Gecko) Version/17.3.1 Safari/605.1.15",Macintosh,Safari,17.3.1,OS X,10_15_7,https://5puzkbbxv1.cognition.run/?sona_id=54400,"en-US,en;q=0.9",kbwx1tez1w7cm7j,19,"[""White""]",No,Female,NA,Yes,332624,NA,12576,NA,"{""product_choice"":""A""}",choice,ctd,trinary,repulsion_A,1,laptops,null,null,null,null,null,null,2,100,90,100,30,40,20,Processing speed,Memory (RAM),NA,NA
NA,NA,NA,NA,NA,choice_trial_setup,html-keyboard-response,6,72617,0.0-4.0-0.1,263,1,2025-05-06T20:24:22Z,b60275e29fe2361ab97ac0ac217840d7,"Mozilla/5.0 (Macintosh; Intel Mac OS X 10_15_7) AppleWebKit/605.1.15 (KHTML, like Gecko) Version/17.3.1 Safari/605.1.15",Macintosh,Safari,17.3.1,OS X,10_15_7,https://5puzkbbxv1.cognition.run/?sona_id=54400,"en-US,en;q=0.9",kbwx1tez1w7cm7j,19,"[""White""]",No,Female,NA,Yes,332624,NA,null,<p></p>,null,choice,tcd,trinary,repulsion_A,2,televisions,null,null,null,null,null,null,1,NA,NA,NA,NA,NA,NA,NA,NA,NA,NA
NA,NA,NA,NA,NA,choice_trial,survey-html-form,7,80011,0.0-4.0-1.1,263,1,2025-05-06T20:24:22Z,b60275e29fe2361ab97ac0ac217840d7,"Mozilla/5.0 (Macintosh; Intel Mac OS X 10_15_7) AppleWebKit/605.1.15 (KHTML, like Gecko) Version/17.3.1 Safari/605.1.15",Macintosh,Safari,17.3.1,OS X,10_15_7,https://5puzkbbxv1.cognition.run/?sona_id=54400,"en-US,en;q=0.9",kbwx1tez1w7cm7j,19,"[""White""]",No,Female,NA,Yes,332624,NA,7391,NA,"{""product_choice"":""B""}",choice,tcd,trinary,repulsion_A,2,televisions,null,null,null,null,null,null,1,30,40,20,100,90,100,Screen size,Average lifespan,NA,NA
NA,NA,NA,NA,NA,choice_trial_setup,html-keyboard-response,8,80314,0.0-4.0-0.2,263,1,2025-05-06T20:24:22Z,b60275e29fe2361ab97ac0ac217840d7,"Mozilla/5.0 (Macintosh; Intel Mac OS X 10_15_7) AppleWebKit/605.1.15 (KHTML, like Gecko) Version/17.3.1 Safari/605.1.15",Macintosh,Safari,17.3.1,OS X,10_15_7,https://5puzkbbxv1.cognition.run/?sona_id=54400,"en-US,en;q=0.9",kbwx1tez1w7cm7j,19,"[""White""]",No,Female,NA,Yes,332624,NA,null,<p></p>,null,choice,dct,trinary,repulsion_A,2,washing machines,null,null,null,null,null,null,2,NA,NA,NA,NA,NA,NA,NA,NA,NA,NA
NA,NA,NA,NA,NA,choice_trial,survey-html-form,9,91330,0.0-4.0-1.2,263,1,2025-05-06T20:24:22Z,b60275e29fe2361ab97ac0ac217840d7,"Mozilla/5.0 (Macintosh; Intel Mac OS X 10_15_7) AppleWebKit/605.1.15 (KHTML, like Gecko) Version/17.3.1 Safari/605.1.15",Macintosh,Safari,17.3.1,OS X,10_15_7,https://5puzkbbxv1.cognition.run/?sona_id=54400,"en-US,en;q=0.9",kbwx1tez1w7cm7j,19,"[""White""]",No,Female,NA,Yes,332624,NA,11012,NA,"{""product_choice"":""B""}",choice,dct,trinary,repulsion_A,2,washing machines,null,null,null,null,null,null,2,30,40,20,100,90,100,Average lifespan,Energy savings,NA,NA
NA,NA,NA,NA,NA,choice_trial_setup,html-keyboard-response,10,91632,0.0-4.0-0.3,263,1,2025-05-06T20:24:22Z,b60275e29fe2361ab97ac0ac217840d7,"Mozilla/5.0 (Macintosh; Intel Mac OS X 10_15_7) AppleWebKit/605.1.15 (KHTML, like Gecko) Version/17.3.1 Safari/605.1.15",Macintosh,Safari,17.3.1,OS X,10_15_7,https://5puzkbbxv1.cognition.run/?sona_id=54400,"en-US,en;q=0.9",kbwx1tez1w7cm7j,19,"[""White""]",No,Female,NA,Yes,332624,NA,null,<p></p>,null,choice,dct,trinary,repulsion_A,2,microwave ovens,null,null,null,null,null,null,2,NA,NA,NA,NA,NA,NA,NA,NA,NA,NA
NA,NA,NA,NA,NA,choice_trial,survey-html-form,11,99712,0.0-4.0-1.3,263,1,2025-05-06T20:24:22Z,b60275e29fe2361ab97ac0ac217840d7,"Mozilla/5.0 (Macintosh; Intel Mac OS X 10_15_7) AppleWebKit/605.1.15 (KHTML, like Gecko) Version/17.3.1 Safari/605.1.15",Macintosh,Safari,17.3.1,OS X,10_15_7,https://5puzkbbxv1.cognition.run/?sona_id=54400,"en-US,en;q=0.9",kbwx1tez1w7cm7j,19,"[""White""]",No,Female,NA,Yes,332624,NA,8076,NA,"{""product_choice"":""C""}",choice,dct,trinary,repulsion_A,2,microwave ovens,null,null,null,null,null,null,2,30,40,20,100,90,100,Warranty,Cooking power,NA,NA
NA,NA,NA,NA,NA,choice_trial_setup,html-keyboard-response,12,100015,0.0-4.0-0.4,263,1,2025-05-06T20:24:22Z,b60275e29fe2361ab97ac0ac217840d7,"Mozilla/5.0 (Macintosh; Intel Mac OS X 10_15_7) AppleWebKit/605.1.15 (KHTML, like Gecko) Version/17.3.1 Safari/605.1.15",Macintosh,Safari,17.3.1,OS X,10_15_7,https://5puzkbbxv1.cognition.run/?sona_id=54400,"en-US,en;q=0.9",kbwx1tez1w7cm7j,19,"[""White""]",No,Female,NA,Yes,332624,NA,null,<p></p>,null,choice,wb,binary,catch,null,laptops,60,95,5,45,null,null,2,NA,NA,NA,NA,NA,NA,NA,NA,NA,NA
NA,NA,NA,NA,NA,choice_trial,survey-html-form,13,103795,0.0-4.0-1.4,263,1,2025-05-06T20:24:22Z,b60275e29fe2361ab97ac0ac217840d7,"Mozilla/5.0 (Macintosh; Intel Mac OS X 10_15_7) AppleWebKit/605.1.15 (KHTML, like Gecko) Version/17.3.1 Safari/605.1.15",Macintosh,Safari,17.3.1,OS X,10_15_7,https://5puzkbbxv1.cognition.run/?sona_id=54400,"en-US,en;q=0.9",kbwx1tez1w7cm7j,19,"[""White""]",No,Female,NA,Yes,332624,NA,3777,NA,"{""product_choice"":""B""}",choice,wb,binary,catch,null,laptops,60,95,5,45,null,null,2,null,null,null,null,null,null,Processing speed,Memory (RAM),NA,NA
NA,NA,NA,NA,NA,choice_trial_setup,html-keyboard-response,14,104098,0.0-4.0-0.5,263,1,2025-05-06T20:24:22Z,b60275e29fe2361ab97ac0ac217840d7,"Mozilla/5.0 (Macintosh; Intel Mac OS X 10_15_7) AppleWebKit/605.1.15 (KHTML, like Gecko) Version/17.3.1 Safari/605.1.15",Macintosh,Safari,17.3.1,OS X,10_15_7,https://5puzkbbxv1.cognition.run/?sona_id=54400,"en-US,en;q=0.9",kbwx1tez1w7cm7j,19,"[""White""]",No,Female,NA,Yes,332624,NA,null,<p></p>,null,choice,ct,binary,repulsion,1,televisions,null,null,null,null,null,null,1,NA,NA,NA,NA,NA,NA,NA,NA,NA,NA
NA,NA,NA,NA,NA,choice_trial,survey-html-form,15,106745,0.0-4.0-1.5,263,1,2025-05-06T20:24:22Z,b60275e29fe2361ab97ac0ac217840d7,"Mozilla/5.0 (Macintosh; Intel Mac OS X 10_15_7) AppleWebKit/605.1.15 (KHTML, like Gecko) Version/17.3.1 Safari/605.1.15",Macintosh,Safari,17.3.1,OS X,10_15_7,https://5puzkbbxv1.cognition.run/?sona_id=54400,"en-US,en;q=0.9",kbwx1tez1w7cm7j,19,"[""White""]",No,Female,NA,Yes,332624,NA,2643,NA,"{""product_choice"":""B""}",choice,ct,binary,repulsion,1,televisions,null,null,null,null,null,null,1,100,90,null,30,40,null,Screen size,Average lifespan,NA,NA
NA,NA,NA,NA,NA,choice_trial_setup,html-keyboard-response,16,107048,0.0-4.0-0.6,263,1,2025-05-06T20:24:22Z,b60275e29fe2361ab97ac0ac217840d7,"Mozilla/5.0 (Macintosh; Intel Mac OS X 10_15_7) AppleWebKit/605.1.15 (KHTML, like Gecko) Version/17.3.1 Safari/605.1.15",Macintosh,Safari,17.3.1,OS X,10_15_7,https://5puzkbbxv1.cognition.run/?sona_id=54400,"en-US,en;q=0.9",kbwx1tez1w7cm7j,19,"[""White""]",No,Female,NA,Yes,332624,NA,null,<p></p>,null,choice,tc,binary,repulsion,2,laptops,null,null,null,null,null,null,1,NA,NA,NA,NA,NA,NA,NA,NA,NA,NA
NA,NA,NA,NA,NA,choice_trial,survey-html-form,17,110028,0.0-4.0-1.6,263,1,2025-05-06T20:24:22Z,b60275e29fe2361ab97ac0ac217840d7,"Mozilla/5.0 (Macintosh; Intel Mac OS X 10_15_7) AppleWebKit/605.1.15 (KHTML, like Gecko) Version/17.3.1 Safari/605.1.15",Macintosh,Safari,17.3.1,OS X,10_15_7,https://5puzkbbxv1.cognition.run/?sona_id=54400,"en-US,en;q=0.9",kbwx1tez1w7cm7j,19,"[""White""]",No,Female,NA,Yes,332624,NA,2976,NA,"{""product_choice"":""A""}",choice,tc,binary,repulsion,2,laptops,null,null,null,null,null,null,1,30,40,null,100,90,null,Processing speed,Memory (RAM),NA,NA
NA,NA,NA,NA,NA,choice_trial_setup,html-keyboard-response,18,110330,0.0-4.0-0.7,263,1,2025-05-06T20:24:22Z,b60275e29fe2361ab97ac0ac217840d7,"Mozilla/5.0 (Macintosh; Intel Mac OS X 10_15_7) AppleWebKit/605.1.15 (KHTML, like Gecko) Version/17.3.1 Safari/605.1.15",Macintosh,Safari,17.3.1,OS X,10_15_7,https://5puzkbbxv1.cognition.run/?sona_id=54400,"en-US,en;q=0.9",kbwx1tez1w7cm7j,19,"[""White""]",No,Female,NA,Yes,332624,NA,null,<p></p>,null,choice,bww,trinary,catch,null,washing machines,95,95,20,15,40,15,2,NA,NA,NA,NA,NA,NA,NA,NA,NA,NA
NA,NA,NA,NA,NA,choice_trial,survey-html-form,19,115932,0.0-4.0-1.7,263,1,2025-05-06T20:24:22Z,b60275e29fe2361ab97ac0ac217840d7,"Mozilla/5.0 (Macintosh; Intel Mac OS X 10_15_7) AppleWebKit/605.1.15 (KHTML, like Gecko) Version/17.3.1 Safari/605.1.15",Macintosh,Safari,17.3.1,OS X,10_15_7,https://5puzkbbxv1.cognition.run/?sona_id=54400,"en-US,en;q=0.9",kbwx1tez1w7cm7j,19,"[""White""]",No,Female,NA,Yes,332624,NA,5598,NA,"{""product_choice"":""A""}",choice,bww,trinary,catch,null,washing machines,95,95,20,15,40,15,2,null,null,null,null,null,null,Average lifespan,Energy savings,NA,NA
NA,NA,NA,NA,NA,choice_trial_setup,html-keyboard-response,20,116235,0.0-4.0-0.8,263,1,2025-05-06T20:24:22Z,b60275e29fe2361ab97ac0ac217840d7,"Mozilla/5.0 (Macintosh; Intel Mac OS X 10_15_7) AppleWebKit/605.1.15 (KHTML, like Gecko) Version/17.3.1 Safari/605.1.15",Macintosh,Safari,17.3.1,OS X,10_15_7,https://5puzkbbxv1.cognition.run/?sona_id=54400,"en-US,en;q=0.9",kbwx1tez1w7cm7j,19,"[""White""]",No,Female,NA,Yes,332624,NA,null,<p></p>,null,choice,ctd,trinary,repulsion_B,1,washing machines,null,null,null,null,null,null,2,NA,NA,NA,NA,NA,NA,NA,NA,NA,NA
NA,NA,NA,NA,NA,choice_trial,survey-html-form,21,122079,0.0-4.0-1.8,263,1,2025-05-06T20:24:22Z,b60275e29fe2361ab97ac0ac217840d7,"Mozilla/5.0 (Macintosh; Intel Mac OS X 10_15_7) AppleWebKit/605.1.15 (KHTML, like Gecko) Version/17.3.1 Safari/605.1.15",Macintosh,Safari,17.3.1,OS X,10_15_7,https://5puzkbbxv1.cognition.run/?sona_id=54400,"en-US,en;q=0.9",kbwx1tez1w7cm7j,19,"[""White""]",No,Female,NA,Yes,332624,NA,5841,NA,"{""product_choice"":""A""}",choice,ctd,trinary,repulsion_B,1,washing machines,null,null,null,null,null,null,2,90,100,80,40,30,40,Average lifespan,Energy savings,NA,NA
NA,NA,NA,NA,NA,choice_trial_setup,html-keyboard-response,22,122382,0.0-4.0-0.9,263,1,2025-05-06T20:24:22Z,b60275e29fe2361ab97ac0ac217840d7,"Mozilla/5.0 (Macintosh; Intel Mac OS X 10_15_7) AppleWebKit/605.1.15 (KHTML, like Gecko) Version/17.3.1 Safari/605.1.15",Macintosh,Safari,17.3.1,OS X,10_15_7,https://5puzkbbxv1.cognition.run/?sona_id=54400,"en-US,en;q=0.9",kbwx1tez1w7cm7j,19,"[""White""]",No,Female,NA,Yes,332624,NA,null,<p></p>,null,choice,wwb,trinary,catch,null,microwave ovens,95,90,35,40,35,35,1,NA,NA,NA,NA,NA,NA,NA,NA,NA,NA
NA,NA,NA,NA,NA,choice_trial,survey-html-form,23,126429,0.0-4.0-1.9,263,1,2025-05-06T20:24:22Z,b60275e29fe2361ab97ac0ac217840d7,"Mozilla/5.0 (Macintosh; Intel Mac OS X 10_15_7) AppleWebKit/605.1.15 (KHTML, like Gecko) Version/17.3.1 Safari/605.1.15",Macintosh,Safari,17.3.1,OS X,10_15_7,https://5puzkbbxv1.cognition.run/?sona_id=54400,"en-US,en;q=0.9",kbwx1tez1w7cm7j,19,"[""White""]",No,Female,NA,Yes,332624,NA,4043,NA,"{""product_choice"":""C""}",choice,wwb,trinary,catch,null,microwave ovens,95,90,35,40,35,35,1,null,null,null,null,null,null,Warranty,Cooking power,NA,NA
NA,NA,NA,NA,NA,choice_trial_setup,html-keyboard-response,24,126732,0.0-4.0-0.10,263,1,2025-05-06T20:24:22Z,b60275e29fe2361ab97ac0ac217840d7,"Mozilla/5.0 (Macintosh; Intel Mac OS X 10_15_7) AppleWebKit/605.1.15 (KHTML, like Gecko) Version/17.3.1 Safari/605.1.15",Macintosh,Safari,17.3.1,OS X,10_15_7,https://5puzkbbxv1.cognition.run/?sona_id=54400,"en-US,en;q=0.9",kbwx1tez1w7cm7j,19,"[""White""]",No,Female,NA,Yes,332624,NA,null,<p></p>,null,choice,ct,binary,repulsion,1,washing machines,null,null,null,null,null,null,1,NA,NA,NA,NA,NA,NA,NA,NA,NA,NA
NA,NA,NA,NA,NA,choice_trial,survey-html-form,25,130562,0.0-4.0-1.10,263,1,2025-05-06T20:24:22Z,b60275e29fe2361ab97ac0ac217840d7,"Mozilla/5.0 (Macintosh; Intel Mac OS X 10_15_7) AppleWebKit/605.1.15 (KHTML, like Gecko) Version/17.3.1 Safari/605.1.15",Macintosh,Safari,17.3.1,OS X,10_15_7,https://5puzkbbxv1.cognition.run/?sona_id=54400,"en-US,en;q=0.9",kbwx1tez1w7cm7j,19,"[""White""]",No,Female,NA,Yes,332624,NA,3826,NA,"{""product_choice"":""B""}",choice,ct,binary,repulsion,1,washing machines,null,null,null,null,null,null,1,100,90,null,30,40,null,Average lifespan,Energy savings,NA,NA
NA,NA,NA,NA,NA,choice_trial_setup,html-keyboard-response,26,130864,0.0-4.0-0.11,263,1,2025-05-06T20:24:22Z,b60275e29fe2361ab97ac0ac217840d7,"Mozilla/5.0 (Macintosh; Intel Mac OS X 10_15_7) AppleWebKit/605.1.15 (KHTML, like Gecko) Version/17.3.1 Safari/605.1.15",Macintosh,Safari,17.3.1,OS X,10_15_7,https://5puzkbbxv1.cognition.run/?sona_id=54400,"en-US,en;q=0.9",kbwx1tez1w7cm7j,19,"[""White""]",No,Female,NA,Yes,332624,NA,null,<p></p>,null,choice,bw,binary,catch,null,washing machines,75,90,35,45,null,null,2,NA,NA,NA,NA,NA,NA,NA,NA,NA,NA
NA,NA,NA,NA,NA,choice_trial,survey-html-form,27,135213,0.0-4.0-1.11,263,1,2025-05-06T20:24:22Z,b60275e29fe2361ab97ac0ac217840d7,"Mozilla/5.0 (Macintosh; Intel Mac OS X 10_15_7) AppleWebKit/605.1.15 (KHTML, like Gecko) Version/17.3.1 Safari/605.1.15",Macintosh,Safari,17.3.1,OS X,10_15_7,https://5puzkbbxv1.cognition.run/?sona_id=54400,"en-US,en;q=0.9",kbwx1tez1w7cm7j,19,"[""White""]",No,Female,NA,Yes,332624,NA,4345,NA,"{""product_choice"":""A""}",choice,bw,binary,catch,null,washing machines,75,90,35,45,null,null,2,null,null,null,null,null,null,Average lifespan,Energy savings,NA,NA
NA,NA,NA,NA,NA,choice_trial_setup,html-keyboard-response,28,135515,0.0-4.0-0.12,263,1,2025-05-06T20:24:22Z,b60275e29fe2361ab97ac0ac217840d7,"Mozilla/5.0 (Macintosh; Intel Mac OS X 10_15_7) AppleWebKit/605.1.15 (KHTML, like Gecko) Version/17.3.1 Safari/605.1.15",Macintosh,Safari,17.3.1,OS X,10_15_7,https://5puzkbbxv1.cognition.run/?sona_id=54400,"en-US,en;q=0.9",kbwx1tez1w7cm7j,19,"[""White""]",No,Female,NA,Yes,332624,NA,null,<p></p>,null,choice,dtc,trinary,repulsion_A,1,televisions,null,null,null,null,null,null,1,NA,NA,NA,NA,NA,NA,NA,NA,NA,NA
NA,NA,NA,NA,NA,choice_trial,survey-html-form,29,138279,0.0-4.0-1.12,263,1,2025-05-06T20:24:22Z,b60275e29fe2361ab97ac0ac217840d7,"Mozilla/5.0 (Macintosh; Intel Mac OS X 10_15_7) AppleWebKit/605.1.15 (KHTML, like Gecko) Version/17.3.1 Safari/605.1.15",Macintosh,Safari,17.3.1,OS X,10_15_7,https://5puzkbbxv1.cognition.run/?sona_id=54400,"en-US,en;q=0.9",kbwx1tez1w7cm7j,19,"[""White""]",No,Female,NA,Yes,332624,NA,2760,NA,"{""product_choice"":""B""}",choice,dtc,trinary,repulsion_A,1,televisions,null,null,null,null,null,null,1,100,90,100,30,40,20,Screen size,Average lifespan,NA,NA
NA,NA,NA,NA,NA,choice_trial_setup,html-keyboard-response,30,138581,0.0-4.0-0.13,263,1,2025-05-06T20:24:22Z,b60275e29fe2361ab97ac0ac217840d7,"Mozilla/5.0 (Macintosh; Intel Mac OS X 10_15_7) AppleWebKit/605.1.15 (KHTML, like Gecko) Version/17.3.1 Safari/605.1.15",Macintosh,Safari,17.3.1,OS X,10_15_7,https://5puzkbbxv1.cognition.run/?sona_id=54400,"en-US,en;q=0.9",kbwx1tez1w7cm7j,19,"[""White""]",No,Female,NA,Yes,332624,NA,null,<p></p>,null,choice,dtc,trinary,repulsion_A,1,washing machines,null,null,null,null,null,null,2,NA,NA,NA,NA,NA,NA,NA,NA,NA,NA
NA,NA,NA,NA,NA,choice_trial,survey-html-form,31,144462,0.0-4.0-1.13,263,1,2025-05-06T20:24:22Z,b60275e29fe2361ab97ac0ac217840d7,"Mozilla/5.0 (Macintosh; Intel Mac OS X 10_15_7) AppleWebKit/605.1.15 (KHTML, like Gecko) Version/17.3.1 Safari/605.1.15",Macintosh,Safari,17.3.1,OS X,10_15_7,https://5puzkbbxv1.cognition.run/?sona_id=54400,"en-US,en;q=0.9",kbwx1tez1w7cm7j,19,"[""White""]",No,Female,NA,Yes,332624,NA,5876,NA,"{""product_choice"":""B""}",choice,dtc,trinary,repulsion_A,1,washing machines,null,null,null,null,null,null,2,100,90,100,30,40,20,Average lifespan,Energy savings,NA,NA
NA,NA,NA,NA,NA,choice_trial_setup,html-keyboard-response,32,144765,0.0-4.0-0.14,263,1,2025-05-06T20:24:22Z,b60275e29fe2361ab97ac0ac217840d7,"Mozilla/5.0 (Macintosh; Intel Mac OS X 10_15_7) AppleWebKit/605.1.15 (KHTML, like Gecko) Version/17.3.1 Safari/605.1.15",Macintosh,Safari,17.3.1,OS X,10_15_7,https://5puzkbbxv1.cognition.run/?sona_id=54400,"en-US,en;q=0.9",kbwx1tez1w7cm7j,19,"[""White""]",No,Female,NA,Yes,332624,NA,null,<p></p>,null,choice,ct,binary,repulsion,2,televisions,null,null,null,null,null,null,2,NA,NA,NA,NA,NA,NA,NA,NA,NA,NA
NA,NA,NA,NA,NA,choice_trial,survey-html-form,33,150162,0.0-4.0-1.14,263,1,2025-05-06T20:24:22Z,b60275e29fe2361ab97ac0ac217840d7,"Mozilla/5.0 (Macintosh; Intel Mac OS X 10_15_7) AppleWebKit/605.1.15 (KHTML, like Gecko) Version/17.3.1 Safari/605.1.15",Macintosh,Safari,17.3.1,OS X,10_15_7,https://5puzkbbxv1.cognition.run/?sona_id=54400,"en-US,en;q=0.9",kbwx1tez1w7cm7j,19,"[""White""]",No,Female,NA,Yes,332624,NA,5393,NA,"{""product_choice"":""B""}",choice,ct,binary,repulsion,2,televisions,null,null,null,null,null,null,2,30,40,null,100,90,null,Screen size,Average lifespan,NA,NA
NA,NA,NA,NA,NA,choice_trial_setup,html-keyboard-response,34,150466,0.0-4.0-0.15,263,1,2025-05-06T20:24:22Z,b60275e29fe2361ab97ac0ac217840d7,"Mozilla/5.0 (Macintosh; Intel Mac OS X 10_15_7) AppleWebKit/605.1.15 (KHTML, like Gecko) Version/17.3.1 Safari/605.1.15",Macintosh,Safari,17.3.1,OS X,10_15_7,https://5puzkbbxv1.cognition.run/?sona_id=54400,"en-US,en;q=0.9",kbwx1tez1w7cm7j,19,"[""White""]",No,Female,NA,Yes,332624,NA,null,<p></p>,null,choice,ct,binary,repulsion,2,microwave ovens,null,null,null,null,null,null,1,NA,NA,NA,NA,NA,NA,NA,NA,NA,NA
NA,NA,NA,NA,NA,choice_trial,survey-html-form,35,152430,0.0-4.0-1.15,263,1,2025-05-06T20:24:22Z,b60275e29fe2361ab97ac0ac217840d7,"Mozilla/5.0 (Macintosh; Intel Mac OS X 10_15_7) AppleWebKit/605.1.15 (KHTML, like Gecko) Version/17.3.1 Safari/605.1.15",Macintosh,Safari,17.3.1,OS X,10_15_7,https://5puzkbbxv1.cognition.run/?sona_id=54400,"en-US,en;q=0.9",kbwx1tez1w7cm7j,19,"[""White""]",No,Female,NA,Yes,332624,NA,1958,NA,"{""product_choice"":""B""}",choice,ct,binary,repulsion,2,microwave ovens,null,null,null,null,null,null,1,30,40,null,100,90,null,Warranty,Cooking power,NA,NA
NA,NA,NA,NA,NA,choice_trial_setup,html-keyboard-response,36,152733,0.0-4.0-0.16,263,1,2025-05-06T20:24:22Z,b60275e29fe2361ab97ac0ac217840d7,"Mozilla/5.0 (Macintosh; Intel Mac OS X 10_15_7) AppleWebKit/605.1.15 (KHTML, like Gecko) Version/17.3.1 Safari/605.1.15",Macintosh,Safari,17.3.1,OS X,10_15_7,https://5puzkbbxv1.cognition.run/?sona_id=54400,"en-US,en;q=0.9",kbwx1tez1w7cm7j,19,"[""White""]",No,Female,NA,Yes,332624,NA,null,<p></p>,null,choice,tc,binary,attraction,NA,washing machines,null,null,null,null,null,null,1,NA,NA,NA,NA,NA,NA,NA,NA,NA,NA
NA,NA,NA,NA,NA,choice_trial,survey-html-form,37,154263,0.0-4.0-1.16,263,1,2025-05-06T20:24:22Z,b60275e29fe2361ab97ac0ac217840d7,"Mozilla/5.0 (Macintosh; Intel Mac OS X 10_15_7) AppleWebKit/605.1.15 (KHTML, like Gecko) Version/17.3.1 Safari/605.1.15",Macintosh,Safari,17.3.1,OS X,10_15_7,https://5puzkbbxv1.cognition.run/?sona_id=54400,"en-US,en;q=0.9",kbwx1tez1w7cm7j,19,"[""White""]",No,Female,NA,Yes,332624,NA,1527,NA,"{""product_choice"":""A""}",choice,tc,binary,attraction,NA,washing machines,null,null,null,null,null,null,1,60,50,null,50,60,null,Average lifespan,Energy savings,NA,NA
NA,NA,NA,NA,NA,choice_trial_setup,html-keyboard-response,38,154566,0.0-4.0-0.17,263,1,2025-05-06T20:24:22Z,b60275e29fe2361ab97ac0ac217840d7,"Mozilla/5.0 (Macintosh; Intel Mac OS X 10_15_7) AppleWebKit/605.1.15 (KHTML, like Gecko) Version/17.3.1 Safari/605.1.15",Macintosh,Safari,17.3.1,OS X,10_15_7,https://5puzkbbxv1.cognition.run/?sona_id=54400,"en-US,en;q=0.9",kbwx1tez1w7cm7j,19,"[""White""]",No,Female,NA,Yes,332624,NA,null,<p></p>,null,choice,tcd,trinary,repulsion_B,1,microwave ovens,null,null,null,null,null,null,2,NA,NA,NA,NA,NA,NA,NA,NA,NA,NA
NA,NA,NA,NA,NA,choice_trial,survey-html-form,39,160180,0.0-4.0-1.17,263,1,2025-05-06T20:24:22Z,b60275e29fe2361ab97ac0ac217840d7,"Mozilla/5.0 (Macintosh; Intel Mac OS X 10_15_7) AppleWebKit/605.1.15 (KHTML, like Gecko) Version/17.3.1 Safari/605.1.15",Macintosh,Safari,17.3.1,OS X,10_15_7,https://5puzkbbxv1.cognition.run/?sona_id=54400,"en-US,en;q=0.9",kbwx1tez1w7cm7j,19,"[""White""]",No,Female,NA,Yes,332624,NA,5612,NA,"{""product_choice"":""A""}",choice,tcd,trinary,repulsion_B,1,microwave ovens,null,null,null,null,null,null,2,90,100,80,40,30,40,Warranty,Cooking power,NA,NA
NA,NA,NA,NA,NA,choice_trial_setup,html-keyboard-response,40,160484,0.0-4.0-0.18,263,1,2025-05-06T20:24:22Z,b60275e29fe2361ab97ac0ac217840d7,"Mozilla/5.0 (Macintosh; Intel Mac OS X 10_15_7) AppleWebKit/605.1.15 (KHTML, like Gecko) Version/17.3.1 Safari/605.1.15",Macintosh,Safari,17.3.1,OS X,10_15_7,https://5puzkbbxv1.cognition.run/?sona_id=54400,"en-US,en;q=0.9",kbwx1tez1w7cm7j,19,"[""White""]",No,Female,NA,Yes,332624,NA,null,<p></p>,null,choice,wbw,trinary,catch,null,televisions,85,55,25,15,45,5,1,NA,NA,NA,NA,NA,NA,NA,NA,NA,NA
NA,NA,NA,NA,NA,choice_trial,survey-html-form,41,163081,0.0-4.0-1.18,263,1,2025-05-06T20:24:22Z,b60275e29fe2361ab97ac0ac217840d7,"Mozilla/5.0 (Macintosh; Intel Mac OS X 10_15_7) AppleWebKit/605.1.15 (KHTML, like Gecko) Version/17.3.1 Safari/605.1.15",Macintosh,Safari,17.3.1,OS X,10_15_7,https://5puzkbbxv1.cognition.run/?sona_id=54400,"en-US,en;q=0.9",kbwx1tez1w7cm7j,19,"[""White""]",No,Female,NA,Yes,332624,NA,2592,NA,"{""product_choice"":""B""}",choice,wbw,trinary,catch,null,televisions,85,55,25,15,45,5,1,null,null,null,null,null,null,Screen size,Average lifespan,NA,NA
NA,NA,NA,NA,NA,choice_trial_setup,html-keyboard-response,42,163383,0.0-4.0-0.19,263,1,2025-05-06T20:24:22Z,b60275e29fe2361ab97ac0ac217840d7,"Mozilla/5.0 (Macintosh; Intel Mac OS X 10_15_7) AppleWebKit/605.1.15 (KHTML, like Gecko) Version/17.3.1 Safari/605.1.15",Macintosh,Safari,17.3.1,OS X,10_15_7,https://5puzkbbxv1.cognition.run/?sona_id=54400,"en-US,en;q=0.9",kbwx1tez1w7cm7j,19,"[""White""]",No,Female,NA,Yes,332624,NA,null,<p></p>,null,choice,dtc,trinary,attraction,2,washing machines,null,null,null,null,null,null,1,NA,NA,NA,NA,NA,NA,NA,NA,NA,NA
NA,NA,NA,NA,NA,choice_trial,survey-html-form,43,170031,0.0-4.0-1.19,263,1,2025-05-06T20:24:22Z,b60275e29fe2361ab97ac0ac217840d7,"Mozilla/5.0 (Macintosh; Intel Mac OS X 10_15_7) AppleWebKit/605.1.15 (KHTML, like Gecko) Version/17.3.1 Safari/605.1.15",Macintosh,Safari,17.3.1,OS X,10_15_7,https://5puzkbbxv1.cognition.run/?sona_id=54400,"en-US,en;q=0.9",kbwx1tez1w7cm7j,19,"[""White""]",No,Female,NA,Yes,332624,NA,6642,NA,"{""product_choice"":""C""}",choice,dtc,trinary,attraction,2,washing machines,null,null,null,null,null,null,1,50,60,40,60,50,60,Average lifespan,Energy savings,NA,NA
NA,NA,NA,NA,NA,choice_trial_setup,html-keyboard-response,44,170334,0.0-4.0-0.20,263,1,2025-05-06T20:24:22Z,b60275e29fe2361ab97ac0ac217840d7,"Mozilla/5.0 (Macintosh; Intel Mac OS X 10_15_7) AppleWebKit/605.1.15 (KHTML, like Gecko) Version/17.3.1 Safari/605.1.15",Macintosh,Safari,17.3.1,OS X,10_15_7,https://5puzkbbxv1.cognition.run/?sona_id=54400,"en-US,en;q=0.9",kbwx1tez1w7cm7j,19,"[""White""]",No,Female,NA,Yes,332624,NA,null,<p></p>,null,choice,tcd,trinary,attraction,1,televisions,null,null,null,null,null,null,2,NA,NA,NA,NA,NA,NA,NA,NA,NA,NA
NA,NA,NA,NA,NA,choice_trial,survey-html-form,45,175899,0.0-4.0-1.20,263,1,2025-05-06T20:24:22Z,b60275e29fe2361ab97ac0ac217840d7,"Mozilla/5.0 (Macintosh; Intel Mac OS X 10_15_7) AppleWebKit/605.1.15 (KHTML, like Gecko) Version/17.3.1 Safari/605.1.15",Macintosh,Safari,17.3.1,OS X,10_15_7,https://5puzkbbxv1.cognition.run/?sona_id=54400,"en-US,en;q=0.9",kbwx1tez1w7cm7j,19,"[""White""]",No,Female,NA,Yes,332624,NA,5561,NA,"{""product_choice"":""B""}",choice,tcd,trinary,attraction,1,televisions,null,null,null,null,null,null,2,60,50,60,50,60,40,Screen size,Average lifespan,NA,NA
NA,NA,NA,NA,NA,choice_trial_setup,html-keyboard-response,46,176203,0.0-4.0-0.21,263,1,2025-05-06T20:24:22Z,b60275e29fe2361ab97ac0ac217840d7,"Mozilla/5.0 (Macintosh; Intel Mac OS X 10_15_7) AppleWebKit/605.1.15 (KHTML, like Gecko) Version/17.3.1 Safari/605.1.15",Macintosh,Safari,17.3.1,OS X,10_15_7,https://5puzkbbxv1.cognition.run/?sona_id=54400,"en-US,en;q=0.9",kbwx1tez1w7cm7j,19,"[""White""]",No,Female,NA,Yes,332624,NA,null,<p></p>,null,choice,cdt,trinary,attraction,2,laptops,null,null,null,null,null,null,1,NA,NA,NA,NA,NA,NA,NA,NA,NA,NA
NA,NA,NA,NA,NA,choice_trial,survey-html-form,47,180215,0.0-4.0-1.21,263,1,2025-05-06T20:24:22Z,b60275e29fe2361ab97ac0ac217840d7,"Mozilla/5.0 (Macintosh; Intel Mac OS X 10_15_7) AppleWebKit/605.1.15 (KHTML, like Gecko) Version/17.3.1 Safari/605.1.15",Macintosh,Safari,17.3.1,OS X,10_15_7,https://5puzkbbxv1.cognition.run/?sona_id=54400,"en-US,en;q=0.9",kbwx1tez1w7cm7j,19,"[""White""]",No,Female,NA,Yes,332624,NA,4008,NA,"{""product_choice"":""A""}",choice,cdt,trinary,attraction,2,laptops,null,null,null,null,null,null,1,50,60,40,60,50,60,Processing speed,Memory (RAM),NA,NA
NA,NA,NA,NA,NA,choice_trial_setup,html-keyboard-response,48,180518,0.0-4.0-0.22,263,1,2025-05-06T20:24:22Z,b60275e29fe2361ab97ac0ac217840d7,"Mozilla/5.0 (Macintosh; Intel Mac OS X 10_15_7) AppleWebKit/605.1.15 (KHTML, like Gecko) Version/17.3.1 Safari/605.1.15",Macintosh,Safari,17.3.1,OS X,10_15_7,https://5puzkbbxv1.cognition.run/?sona_id=54400,"en-US,en;q=0.9",kbwx1tez1w7cm7j,19,"[""White""]",No,Female,NA,Yes,332624,NA,null,<p></p>,null,choice,ctd,trinary,repulsion_B,2,laptops,null,null,null,null,null,null,2,NA,NA,NA,NA,NA,NA,NA,NA,NA,NA
NA,NA,NA,NA,NA,choice_trial,survey-html-form,49,185297,0.0-4.0-1.22,263,1,2025-05-06T20:24:22Z,b60275e29fe2361ab97ac0ac217840d7,"Mozilla/5.0 (Macintosh; Intel Mac OS X 10_15_7) AppleWebKit/605.1.15 (KHTML, like Gecko) Version/17.3.1 Safari/605.1.15",Macintosh,Safari,17.3.1,OS X,10_15_7,https://5puzkbbxv1.cognition.run/?sona_id=54400,"en-US,en;q=0.9",kbwx1tez1w7cm7j,19,"[""White""]",No,Female,NA,Yes,332624,NA,4774,NA,"{""product_choice"":""B""}",choice,ctd,trinary,repulsion_B,2,laptops,null,null,null,null,null,null,2,40,30,40,90,100,80,Processing speed,Memory (RAM),NA,NA
NA,NA,NA,NA,NA,choice_trial_setup,html-keyboard-response,50,185600,0.0-4.0-0.23,263,1,2025-05-06T20:24:22Z,b60275e29fe2361ab97ac0ac217840d7,"Mozilla/5.0 (Macintosh; Intel Mac OS X 10_15_7) AppleWebKit/605.1.15 (KHTML, like Gecko) Version/17.3.1 Safari/605.1.15",Macintosh,Safari,17.3.1,OS X,10_15_7,https://5puzkbbxv1.cognition.run/?sona_id=54400,"en-US,en;q=0.9",kbwx1tez1w7cm7j,19,"[""White""]",No,Female,NA,Yes,332624,NA,null,<p></p>,null,choice,dtc,trinary,attraction,2,microwave ovens,null,null,null,null,null,null,2,NA,NA,NA,NA,NA,NA,NA,NA,NA,NA
NA,NA,NA,NA,NA,choice_trial,survey-html-form,51,190163,0.0-4.0-1.23,263,1,2025-05-06T20:24:22Z,b60275e29fe2361ab97ac0ac217840d7,"Mozilla/5.0 (Macintosh; Intel Mac OS X 10_15_7) AppleWebKit/605.1.15 (KHTML, like Gecko) Version/17.3.1 Safari/605.1.15",Macintosh,Safari,17.3.1,OS X,10_15_7,https://5puzkbbxv1.cognition.run/?sona_id=54400,"en-US,en;q=0.9",kbwx1tez1w7cm7j,19,"[""White""]",No,Female,NA,Yes,332624,NA,4557,NA,"{""product_choice"":""B""}",choice,dtc,trinary,attraction,2,microwave ovens,null,null,null,null,null,null,2,50,60,40,60,50,60,Warranty,Cooking power,NA,NA
NA,NA,NA,NA,NA,choice_trial_setup,html-keyboard-response,52,190466,0.0-4.0-0.24,263,1,2025-05-06T20:24:22Z,b60275e29fe2361ab97ac0ac217840d7,"Mozilla/5.0 (Macintosh; Intel Mac OS X 10_15_7) AppleWebKit/605.1.15 (KHTML, like Gecko) Version/17.3.1 Safari/605.1.15",Macintosh,Safari,17.3.1,OS X,10_15_7,https://5puzkbbxv1.cognition.run/?sona_id=54400,"en-US,en;q=0.9",kbwx1tez1w7cm7j,19,"[""White""]",No,Female,NA,Yes,332624,NA,null,<p></p>,null,choice,ct,binary,attraction,NA,laptops,null,null,null,null,null,null,1,NA,NA,NA,NA,NA,NA,NA,NA,NA,NA
NA,NA,NA,NA,NA,choice_trial,survey-html-form,53,194146,0.0-4.0-1.24,263,1,2025-05-06T20:24:22Z,b60275e29fe2361ab97ac0ac217840d7,"Mozilla/5.0 (Macintosh; Intel Mac OS X 10_15_7) AppleWebKit/605.1.15 (KHTML, like Gecko) Version/17.3.1 Safari/605.1.15",Macintosh,Safari,17.3.1,OS X,10_15_7,https://5puzkbbxv1.cognition.run/?sona_id=54400,"en-US,en;q=0.9",kbwx1tez1w7cm7j,19,"[""White""]",No,Female,NA,Yes,332624,NA,3676,NA,"{""product_choice"":""B""}",choice,ct,binary,attraction,NA,laptops,null,null,null,null,null,null,1,60,50,null,50,60,null,Processing speed,Memory (RAM),NA,NA
NA,NA,NA,NA,NA,choice_trial_setup,html-keyboard-response,54,194450,0.0-4.0-0.25,263,1,2025-05-06T20:24:22Z,b60275e29fe2361ab97ac0ac217840d7,"Mozilla/5.0 (Macintosh; Intel Mac OS X 10_15_7) AppleWebKit/605.1.15 (KHTML, like Gecko) Version/17.3.1 Safari/605.1.15",Macintosh,Safari,17.3.1,OS X,10_15_7,https://5puzkbbxv1.cognition.run/?sona_id=54400,"en-US,en;q=0.9",kbwx1tez1w7cm7j,19,"[""White""]",No,Female,NA,Yes,332624,NA,null,<p></p>,null,choice,tcd,trinary,attraction,1,microwave ovens,null,null,null,null,null,null,1,NA,NA,NA,NA,NA,NA,NA,NA,NA,NA
NA,NA,NA,NA,NA,choice_trial,survey-html-form,55,197314,0.0-4.0-1.25,263,1,2025-05-06T20:24:22Z,b60275e29fe2361ab97ac0ac217840d7,"Mozilla/5.0 (Macintosh; Intel Mac OS X 10_15_7) AppleWebKit/605.1.15 (KHTML, like Gecko) Version/17.3.1 Safari/605.1.15",Macintosh,Safari,17.3.1,OS X,10_15_7,https://5puzkbbxv1.cognition.run/?sona_id=54400,"en-US,en;q=0.9",kbwx1tez1w7cm7j,19,"[""White""]",No,Female,NA,Yes,332624,NA,2859,NA,"{""product_choice"":""A""}",choice,tcd,trinary,attraction,1,microwave ovens,null,null,null,null,null,null,1,60,50,60,50,60,40,Warranty,Cooking power,NA,NA
NA,NA,NA,NA,NA,choice_trial_setup,html-keyboard-response,56,197617,0.0-4.0-0.26,263,1,2025-05-06T20:24:22Z,b60275e29fe2361ab97ac0ac217840d7,"Mozilla/5.0 (Macintosh; Intel Mac OS X 10_15_7) AppleWebKit/605.1.15 (KHTML, like Gecko) Version/17.3.1 Safari/605.1.15",Macintosh,Safari,17.3.1,OS X,10_15_7,https://5puzkbbxv1.cognition.run/?sona_id=54400,"en-US,en;q=0.9",kbwx1tez1w7cm7j,19,"[""White""]",No,Female,NA,Yes,332624,NA,null,<p></p>,null,choice,tcd,trinary,repulsion_A,1,microwave ovens,null,null,null,null,null,null,1,NA,NA,NA,NA,NA,NA,NA,NA,NA,NA
NA,NA,NA,NA,NA,choice_trial,survey-html-form,57,202381,0.0-4.0-1.26,263,1,2025-05-06T20:24:22Z,b60275e29fe2361ab97ac0ac217840d7,"Mozilla/5.0 (Macintosh; Intel Mac OS X 10_15_7) AppleWebKit/605.1.15 (KHTML, like Gecko) Version/17.3.1 Safari/605.1.15",Macintosh,Safari,17.3.1,OS X,10_15_7,https://5puzkbbxv1.cognition.run/?sona_id=54400,"en-US,en;q=0.9",kbwx1tez1w7cm7j,19,"[""White""]",No,Female,NA,Yes,332624,NA,4760,NA,"{""product_choice"":""B""}",choice,tcd,trinary,repulsion_A,1,microwave ovens,null,null,null,null,null,null,1,100,90,100,30,40,20,Warranty,Cooking power,NA,NA
NA,NA,NA,NA,NA,choice_trial_setup,html-keyboard-response,58,202684,0.0-4.0-0.27,263,1,2025-05-06T20:24:22Z,b60275e29fe2361ab97ac0ac217840d7,"Mozilla/5.0 (Macintosh; Intel Mac OS X 10_15_7) AppleWebKit/605.1.15 (KHTML, like Gecko) Version/17.3.1 Safari/605.1.15",Macintosh,Safari,17.3.1,OS X,10_15_7,https://5puzkbbxv1.cognition.run/?sona_id=54400,"en-US,en;q=0.9",kbwx1tez1w7cm7j,19,"[""White""]",No,Female,NA,Yes,332624,NA,null,<p></p>,null,choice,ctd,trinary,attraction,1,laptops,null,null,null,null,null,null,2,NA,NA,NA,NA,NA,NA,NA,NA,NA,NA
NA,NA,NA,NA,NA,choice_trial,survey-html-form,59,206046,0.0-4.0-1.27,263,1,2025-05-06T20:24:22Z,b60275e29fe2361ab97ac0ac217840d7,"Mozilla/5.0 (Macintosh; Intel Mac OS X 10_15_7) AppleWebKit/605.1.15 (KHTML, like Gecko) Version/17.3.1 Safari/605.1.15",Macintosh,Safari,17.3.1,OS X,10_15_7,https://5puzkbbxv1.cognition.run/?sona_id=54400,"en-US,en;q=0.9",kbwx1tez1w7cm7j,19,"[""White""]",No,Female,NA,Yes,332624,NA,3357,NA,"{""product_choice"":""A""}",choice,ctd,trinary,attraction,1,laptops,null,null,null,null,null,null,2,60,50,60,50,60,40,Processing speed,Memory (RAM),NA,NA
NA,NA,NA,NA,NA,choice_trial_setup,html-keyboard-response,60,206349,0.0-4.0-0.28,263,1,2025-05-06T20:24:22Z,b60275e29fe2361ab97ac0ac217840d7,"Mozilla/5.0 (Macintosh; Intel Mac OS X 10_15_7) AppleWebKit/605.1.15 (KHTML, like Gecko) Version/17.3.1 Safari/605.1.15",Macintosh,Safari,17.3.1,OS X,10_15_7,https://5puzkbbxv1.cognition.run/?sona_id=54400,"en-US,en;q=0.9",kbwx1tez1w7cm7j,19,"[""White""]",No,Female,NA,Yes,332624,NA,null,<p></p>,null,choice,dct,trinary,repulsion_B,2,washing machines,null,null,null,null,null,null,2,NA,NA,NA,NA,NA,NA,NA,NA,NA,NA
NA,NA,NA,NA,NA,choice_trial,survey-html-form,61,209532,0.0-4.0-1.28,263,1,2025-05-06T20:24:22Z,b60275e29fe2361ab97ac0ac217840d7,"Mozilla/5.0 (Macintosh; Intel Mac OS X 10_15_7) AppleWebKit/605.1.15 (KHTML, like Gecko) Version/17.3.1 Safari/605.1.15",Macintosh,Safari,17.3.1,OS X,10_15_7,https://5puzkbbxv1.cognition.run/?sona_id=54400,"en-US,en;q=0.9",kbwx1tez1w7cm7j,19,"[""White""]",No,Female,NA,Yes,332624,NA,3179,NA,"{""product_choice"":""C""}",choice,dct,trinary,repulsion_B,2,washing machines,null,null,null,null,null,null,2,40,30,40,90,100,80,Average lifespan,Energy savings,NA,NA
NA,NA,NA,NA,NA,choice_trial_setup,html-keyboard-response,62,209835,0.0-4.0-0.29,263,1,2025-05-06T20:24:22Z,b60275e29fe2361ab97ac0ac217840d7,"Mozilla/5.0 (Macintosh; Intel Mac OS X 10_15_7) AppleWebKit/605.1.15 (KHTML, like Gecko) Version/17.3.1 Safari/605.1.15",Macintosh,Safari,17.3.1,OS X,10_15_7,https://5puzkbbxv1.cognition.run/?sona_id=54400,"en-US,en;q=0.9",kbwx1tez1w7cm7j,19,"[""White""]",No,Female,NA,Yes,332624,NA,null,<p></p>,null,choice,ctd,trinary,repulsion_B,2,televisions,null,null,null,null,null,null,2,NA,NA,NA,NA,NA,NA,NA,NA,NA,NA
NA,NA,NA,NA,NA,choice_trial,survey-html-form,63,211980,0.0-4.0-1.29,263,1,2025-05-06T20:24:22Z,b60275e29fe2361ab97ac0ac217840d7,"Mozilla/5.0 (Macintosh; Intel Mac OS X 10_15_7) AppleWebKit/605.1.15 (KHTML, like Gecko) Version/17.3.1 Safari/605.1.15",Macintosh,Safari,17.3.1,OS X,10_15_7,https://5puzkbbxv1.cognition.run/?sona_id=54400,"en-US,en;q=0.9",kbwx1tez1w7cm7j,19,"[""White""]",No,Female,NA,Yes,332624,NA,2139,NA,"{""product_choice"":""A""}",choice,ctd,trinary,repulsion_B,2,televisions,null,null,null,null,null,null,2,40,30,40,90,100,80,Screen size,Average lifespan,NA,NA
NA,NA,NA,NA,NA,choice_trial_setup,html-keyboard-response,64,212283,0.0-4.0-0.30,263,1,2025-05-06T20:24:22Z,b60275e29fe2361ab97ac0ac217840d7,"Mozilla/5.0 (Macintosh; Intel Mac OS X 10_15_7) AppleWebKit/605.1.15 (KHTML, like Gecko) Version/17.3.1 Safari/605.1.15",Macintosh,Safari,17.3.1,OS X,10_15_7,https://5puzkbbxv1.cognition.run/?sona_id=54400,"en-US,en;q=0.9",kbwx1tez1w7cm7j,19,"[""White""]",No,Female,NA,Yes,332624,NA,null,<p></p>,null,choice,tcd,trinary,repulsion_A,2,laptops,null,null,null,null,null,null,1,NA,NA,NA,NA,NA,NA,NA,NA,NA,NA
NA,NA,NA,NA,NA,choice_trial,survey-html-form,65,216130,0.0-4.0-1.30,263,1,2025-05-06T20:24:22Z,b60275e29fe2361ab97ac0ac217840d7,"Mozilla/5.0 (Macintosh; Intel Mac OS X 10_15_7) AppleWebKit/605.1.15 (KHTML, like Gecko) Version/17.3.1 Safari/605.1.15",Macintosh,Safari,17.3.1,OS X,10_15_7,https://5puzkbbxv1.cognition.run/?sona_id=54400,"en-US,en;q=0.9",kbwx1tez1w7cm7j,19,"[""White""]",No,Female,NA,Yes,332624,NA,3841,NA,"{""product_choice"":""A""}",choice,tcd,trinary,repulsion_A,2,laptops,null,null,null,null,null,null,1,30,40,20,100,90,100,Processing speed,Memory (RAM),NA,NA
NA,NA,NA,NA,NA,choice_trial_setup,html-keyboard-response,66,216434,0.0-4.0-0.31,263,1,2025-05-06T20:24:22Z,b60275e29fe2361ab97ac0ac217840d7,"Mozilla/5.0 (Macintosh; Intel Mac OS X 10_15_7) AppleWebKit/605.1.15 (KHTML, like Gecko) Version/17.3.1 Safari/605.1.15",Macintosh,Safari,17.3.1,OS X,10_15_7,https://5puzkbbxv1.cognition.run/?sona_id=54400,"en-US,en;q=0.9",kbwx1tez1w7cm7j,19,"[""White""]",No,Female,NA,Yes,332624,NA,null,<p></p>,null,choice,cdt,trinary,attraction,2,televisions,null,null,null,null,null,null,1,NA,NA,NA,NA,NA,NA,NA,NA,NA,NA
NA,NA,NA,NA,NA,choice_trial,survey-html-form,67,219713,0.0-4.0-1.31,263,1,2025-05-06T20:24:22Z,b60275e29fe2361ab97ac0ac217840d7,"Mozilla/5.0 (Macintosh; Intel Mac OS X 10_15_7) AppleWebKit/605.1.15 (KHTML, like Gecko) Version/17.3.1 Safari/605.1.15",Macintosh,Safari,17.3.1,OS X,10_15_7,https://5puzkbbxv1.cognition.run/?sona_id=54400,"en-US,en;q=0.9",kbwx1tez1w7cm7j,19,"[""White""]",No,Female,NA,Yes,332624,NA,3273,NA,"{""product_choice"":""A""}",choice,cdt,trinary,attraction,2,televisions,null,null,null,null,null,null,1,50,60,40,60,50,60,Screen size,Average lifespan,NA,NA
NA,NA,NA,NA,NA,choice_trial_setup,html-keyboard-response,68,220016,0.0-4.0-0.32,263,1,2025-05-06T20:24:22Z,b60275e29fe2361ab97ac0ac217840d7,"Mozilla/5.0 (Macintosh; Intel Mac OS X 10_15_7) AppleWebKit/605.1.15 (KHTML, like Gecko) Version/17.3.1 Safari/605.1.15",Macintosh,Safari,17.3.1,OS X,10_15_7,https://5puzkbbxv1.cognition.run/?sona_id=54400,"en-US,en;q=0.9",kbwx1tez1w7cm7j,19,"[""White""]",No,Female,NA,Yes,332624,NA,null,<p></p>,null,choice,ct,binary,attraction,NA,televisions,null,null,null,null,null,null,1,NA,NA,NA,NA,NA,NA,NA,NA,NA,NA
NA,NA,NA,NA,NA,choice_trial,survey-html-form,69,222481,0.0-4.0-1.32,263,1,2025-05-06T20:24:22Z,b60275e29fe2361ab97ac0ac217840d7,"Mozilla/5.0 (Macintosh; Intel Mac OS X 10_15_7) AppleWebKit/605.1.15 (KHTML, like Gecko) Version/17.3.1 Safari/605.1.15",Macintosh,Safari,17.3.1,OS X,10_15_7,https://5puzkbbxv1.cognition.run/?sona_id=54400,"en-US,en;q=0.9",kbwx1tez1w7cm7j,19,"[""White""]",No,Female,NA,Yes,332624,NA,2459,NA,"{""product_choice"":""B""}",choice,ct,binary,attraction,NA,televisions,null,null,null,null,null,null,1,60,50,null,50,60,null,Screen size,Average lifespan,NA,NA
NA,NA,NA,NA,NA,choice_trial_setup,html-keyboard-response,70,222784,0.0-4.0-0.33,263,1,2025-05-06T20:24:22Z,b60275e29fe2361ab97ac0ac217840d7,"Mozilla/5.0 (Macintosh; Intel Mac OS X 10_15_7) AppleWebKit/605.1.15 (KHTML, like Gecko) Version/17.3.1 Safari/605.1.15",Macintosh,Safari,17.3.1,OS X,10_15_7,https://5puzkbbxv1.cognition.run/?sona_id=54400,"en-US,en;q=0.9",kbwx1tez1w7cm7j,19,"[""White""]",No,Female,NA,Yes,332624,NA,null,<p></p>,null,choice,tcd,trinary,repulsion_B,2,microwave ovens,null,null,null,null,null,null,1,NA,NA,NA,NA,NA,NA,NA,NA,NA,NA
NA,NA,NA,NA,NA,choice_trial,survey-html-form,71,226948,0.0-4.0-1.33,263,1,2025-05-06T20:24:22Z,b60275e29fe2361ab97ac0ac217840d7,"Mozilla/5.0 (Macintosh; Intel Mac OS X 10_15_7) AppleWebKit/605.1.15 (KHTML, like Gecko) Version/17.3.1 Safari/605.1.15",Macintosh,Safari,17.3.1,OS X,10_15_7,https://5puzkbbxv1.cognition.run/?sona_id=54400,"en-US,en;q=0.9",kbwx1tez1w7cm7j,19,"[""White""]",No,Female,NA,Yes,332624,NA,4158,NA,"{""product_choice"":""B""}",choice,tcd,trinary,repulsion_B,2,microwave ovens,null,null,null,null,null,null,1,40,30,40,90,100,80,Warranty,Cooking power,NA,NA
NA,NA,NA,NA,NA,choice_trial_setup,html-keyboard-response,72,227251,0.0-4.0-0.34,263,1,2025-05-06T20:24:22Z,b60275e29fe2361ab97ac0ac217840d7,"Mozilla/5.0 (Macintosh; Intel Mac OS X 10_15_7) AppleWebKit/605.1.15 (KHTML, like Gecko) Version/17.3.1 Safari/605.1.15",Macintosh,Safari,17.3.1,OS X,10_15_7,https://5puzkbbxv1.cognition.run/?sona_id=54400,"en-US,en;q=0.9",kbwx1tez1w7cm7j,19,"[""White""]",No,Female,NA,Yes,332624,NA,null,<p></p>,null,choice,tc,binary,attraction,NA,microwave ovens,null,null,null,null,null,null,1,NA,NA,NA,NA,NA,NA,NA,NA,NA,NA
NA,NA,NA,NA,NA,choice_trial,survey-html-form,73,231696,0.0-4.0-1.34,263,1,2025-05-06T20:24:22Z,b60275e29fe2361ab97ac0ac217840d7,"Mozilla/5.0 (Macintosh; Intel Mac OS X 10_15_7) AppleWebKit/605.1.15 (KHTML, like Gecko) Version/17.3.1 Safari/605.1.15",Macintosh,Safari,17.3.1,OS X,10_15_7,https://5puzkbbxv1.cognition.run/?sona_id=54400,"en-US,en;q=0.9",kbwx1tez1w7cm7j,19,"[""White""]",No,Female,NA,Yes,332624,NA,4439,NA,"{""product_choice"":""B""}",choice,tc,binary,attraction,NA,microwave ovens,null,null,null,null,null,null,1,60,50,null,50,60,null,Warranty,Cooking power,NA,NA
NA,NA,NA,NA,NA,choice_trial_setup,html-keyboard-response,74,232000,0.0-4.0-0.35,263,1,2025-05-06T20:24:22Z,b60275e29fe2361ab97ac0ac217840d7,"Mozilla/5.0 (Macintosh; Intel Mac OS X 10_15_7) AppleWebKit/605.1.15 (KHTML, like Gecko) Version/17.3.1 Safari/605.1.15",Macintosh,Safari,17.3.1,OS X,10_15_7,https://5puzkbbxv1.cognition.run/?sona_id=54400,"en-US,en;q=0.9",kbwx1tez1w7cm7j,19,"[""White""]",No,Female,NA,Yes,332624,NA,null,<p></p>,null,choice,ctd,trinary,attraction,1,washing machines,null,null,null,null,null,null,2,NA,NA,NA,NA,NA,NA,NA,NA,NA,NA
NA,NA,NA,NA,NA,choice_trial,survey-html-form,75,236031,0.0-4.0-1.35,263,1,2025-05-06T20:24:22Z,b60275e29fe2361ab97ac0ac217840d7,"Mozilla/5.0 (Macintosh; Intel Mac OS X 10_15_7) AppleWebKit/605.1.15 (KHTML, like Gecko) Version/17.3.1 Safari/605.1.15",Macintosh,Safari,17.3.1,OS X,10_15_7,https://5puzkbbxv1.cognition.run/?sona_id=54400,"en-US,en;q=0.9",kbwx1tez1w7cm7j,19,"[""White""]",No,Female,NA,Yes,332624,NA,4024,NA,"{""product_choice"":""B""}",choice,ctd,trinary,attraction,1,washing machines,null,null,null,null,null,null,2,60,50,60,50,60,40,Average lifespan,Energy savings,NA,NA
NA,NA,NA,NA,NA,choice_trial_setup,html-keyboard-response,76,236334,0.0-4.0-0.36,263,1,2025-05-06T20:24:22Z,b60275e29fe2361ab97ac0ac217840d7,"Mozilla/5.0 (Macintosh; Intel Mac OS X 10_15_7) AppleWebKit/605.1.15 (KHTML, like Gecko) Version/17.3.1 Safari/605.1.15",Macintosh,Safari,17.3.1,OS X,10_15_7,https://5puzkbbxv1.cognition.run/?sona_id=54400,"en-US,en;q=0.9",kbwx1tez1w7cm7j,19,"[""White""]",No,Female,NA,Yes,332624,NA,null,<p></p>,null,choice,bw,binary,catch,null,microwave ovens,90,85,20,45,null,null,1,NA,NA,NA,NA,NA,NA,NA,NA,NA,NA
NA,NA,NA,NA,NA,choice_trial,survey-html-form,77,239066,0.0-4.0-1.36,263,1,2025-05-06T20:24:22Z,b60275e29fe2361ab97ac0ac217840d7,"Mozilla/5.0 (Macintosh; Intel Mac OS X 10_15_7) AppleWebKit/605.1.15 (KHTML, like Gecko) Version/17.3.1 Safari/605.1.15",Macintosh,Safari,17.3.1,OS X,10_15_7,https://5puzkbbxv1.cognition.run/?sona_id=54400,"en-US,en;q=0.9",kbwx1tez1w7cm7j,19,"[""White""]",No,Female,NA,Yes,332624,NA,2718,NA,"{""product_choice"":""A""}",choice,bw,binary,catch,null,microwave ovens,90,85,20,45,null,null,1,null,null,null,null,null,null,Warranty,Cooking power,NA,NA
NA,NA,NA,NA,NA,choice_trial_setup,html-keyboard-response,78,239371,0.0-4.0-0.37,263,1,2025-05-06T20:24:22Z,b60275e29fe2361ab97ac0ac217840d7,"Mozilla/5.0 (Macintosh; Intel Mac OS X 10_15_7) AppleWebKit/605.1.15 (KHTML, like Gecko) Version/17.3.1 Safari/605.1.15",Macintosh,Safari,17.3.1,OS X,10_15_7,https://5puzkbbxv1.cognition.run/?sona_id=54400,"en-US,en;q=0.9",kbwx1tez1w7cm7j,19,"[""White""]",No,Female,NA,Yes,332624,NA,null,<p></p>,null,choice,ct,binary,repulsion,1,laptops,null,null,null,null,null,null,2,NA,NA,NA,NA,NA,NA,NA,NA,NA,NA
NA,NA,NA,NA,NA,choice_trial,survey-html-form,79,245364,0.0-4.0-1.37,263,1,2025-05-06T20:24:22Z,b60275e29fe2361ab97ac0ac217840d7,"Mozilla/5.0 (Macintosh; Intel Mac OS X 10_15_7) AppleWebKit/605.1.15 (KHTML, like Gecko) Version/17.3.1 Safari/605.1.15",Macintosh,Safari,17.3.1,OS X,10_15_7,https://5puzkbbxv1.cognition.run/?sona_id=54400,"en-US,en;q=0.9",kbwx1tez1w7cm7j,19,"[""White""]",No,Female,NA,Yes,332624,NA,5987,NA,"{""product_choice"":""A""}",choice,ct,binary,repulsion,1,laptops,null,null,null,null,null,null,2,100,90,null,30,40,null,Processing speed,Memory (RAM),NA,NA
NA,NA,NA,NA,NA,choice_trial_setup,html-keyboard-response,80,245668,0.0-4.0-0.38,263,1,2025-05-06T20:24:22Z,b60275e29fe2361ab97ac0ac217840d7,"Mozilla/5.0 (Macintosh; Intel Mac OS X 10_15_7) AppleWebKit/605.1.15 (KHTML, like Gecko) Version/17.3.1 Safari/605.1.15",Macintosh,Safari,17.3.1,OS X,10_15_7,https://5puzkbbxv1.cognition.run/?sona_id=54400,"en-US,en;q=0.9",kbwx1tez1w7cm7j,19,"[""White""]",No,Female,NA,Yes,332624,NA,null,<p></p>,null,choice,tdc,trinary,repulsion_B,1,televisions,null,null,null,null,null,null,2,NA,NA,NA,NA,NA,NA,NA,NA,NA,NA
NA,NA,NA,NA,NA,choice_trial,survey-html-form,81,250247,0.0-4.0-1.38,263,1,2025-05-06T20:24:22Z,b60275e29fe2361ab97ac0ac217840d7,"Mozilla/5.0 (Macintosh; Intel Mac OS X 10_15_7) AppleWebKit/605.1.15 (KHTML, like Gecko) Version/17.3.1 Safari/605.1.15",Macintosh,Safari,17.3.1,OS X,10_15_7,https://5puzkbbxv1.cognition.run/?sona_id=54400,"en-US,en;q=0.9",kbwx1tez1w7cm7j,19,"[""White""]",No,Female,NA,Yes,332624,NA,4574,NA,"{""product_choice"":""C""}",choice,tdc,trinary,repulsion_B,1,televisions,null,null,null,null,null,null,2,90,100,80,40,30,40,Screen size,Average lifespan,NA,NA
NA,NA,NA,NA,NA,choice_trial_setup,html-keyboard-response,82,250551,0.0-4.0-0.39,263,1,2025-05-06T20:24:22Z,b60275e29fe2361ab97ac0ac217840d7,"Mozilla/5.0 (Macintosh; Intel Mac OS X 10_15_7) AppleWebKit/605.1.15 (KHTML, like Gecko) Version/17.3.1 Safari/605.1.15",Macintosh,Safari,17.3.1,OS X,10_15_7,https://5puzkbbxv1.cognition.run/?sona_id=54400,"en-US,en;q=0.9",kbwx1tez1w7cm7j,19,"[""White""]",No,Female,NA,Yes,332624,NA,null,<p></p>,null,choice,wbw,trinary,catch,null,laptops,85,55,10,20,20,20,2,NA,NA,NA,NA,NA,NA,NA,NA,NA,NA
NA,NA,NA,NA,NA,choice_trial,survey-html-form,83,253148,0.0-4.0-1.39,263,1,2025-05-06T20:24:22Z,b60275e29fe2361ab97ac0ac217840d7,"Mozilla/5.0 (Macintosh; Intel Mac OS X 10_15_7) AppleWebKit/605.1.15 (KHTML, like Gecko) Version/17.3.1 Safari/605.1.15",Macintosh,Safari,17.3.1,OS X,10_15_7,https://5puzkbbxv1.cognition.run/?sona_id=54400,"en-US,en;q=0.9",kbwx1tez1w7cm7j,19,"[""White""]",No,Female,NA,Yes,332624,NA,2590,NA,"{""product_choice"":""B""}",choice,wbw,trinary,catch,null,laptops,85,55,10,20,20,20,2,null,null,null,null,null,null,Processing speed,Memory (RAM),NA,NA
NA,NA,NA,NA,NA,choice_trial_setup,html-keyboard-response,84,253452,0.0-4.0-0.40,263,1,2025-05-06T20:24:22Z,b60275e29fe2361ab97ac0ac217840d7,"Mozilla/5.0 (Macintosh; Intel Mac OS X 10_15_7) AppleWebKit/605.1.15 (KHTML, like Gecko) Version/17.3.1 Safari/605.1.15",Macintosh,Safari,17.3.1,OS X,10_15_7,https://5puzkbbxv1.cognition.run/?sona_id=54400,"en-US,en;q=0.9",kbwx1tez1w7cm7j,19,"[""White""]",No,Female,NA,Yes,332624,NA,null,<p></p>,null,choice,tc,binary,repulsion,1,microwave ovens,null,null,null,null,null,null,2,NA,NA,NA,NA,NA,NA,NA,NA,NA,NA
NA,NA,NA,NA,NA,choice_trial,survey-html-form,85,255563,0.0-4.0-1.40,263,1,2025-05-06T20:24:22Z,b60275e29fe2361ab97ac0ac217840d7,"Mozilla/5.0 (Macintosh; Intel Mac OS X 10_15_7) AppleWebKit/605.1.15 (KHTML, like Gecko) Version/17.3.1 Safari/605.1.15",Macintosh,Safari,17.3.1,OS X,10_15_7,https://5puzkbbxv1.cognition.run/?sona_id=54400,"en-US,en;q=0.9",kbwx1tez1w7cm7j,19,"[""White""]",No,Female,NA,Yes,332624,NA,2104,NA,"{""product_choice"":""A""}",choice,tc,binary,repulsion,1,microwave ovens,null,null,null,null,null,null,2,100,90,null,30,40,null,Warranty,Cooking power,NA,NA
NA,NA,NA,NA,NA,choice_trial_setup,html-keyboard-response,86,255867,0.0-4.0-0.41,263,1,2025-05-06T20:24:22Z,b60275e29fe2361ab97ac0ac217840d7,"Mozilla/5.0 (Macintosh; Intel Mac OS X 10_15_7) AppleWebKit/605.1.15 (KHTML, like Gecko) Version/17.3.1 Safari/605.1.15",Macintosh,Safari,17.3.1,OS X,10_15_7,https://5puzkbbxv1.cognition.run/?sona_id=54400,"en-US,en;q=0.9",kbwx1tez1w7cm7j,19,"[""White""]",No,Female,NA,Yes,332624,NA,null,<p></p>,null,choice,bw,binary,catch,null,televisions,60,50,15,10,null,null,2,NA,NA,NA,NA,NA,NA,NA,NA,NA,NA
NA,NA,NA,NA,NA,choice_trial,survey-html-form,87,259131,0.0-4.0-1.41,263,1,2025-05-06T20:24:22Z,b60275e29fe2361ab97ac0ac217840d7,"Mozilla/5.0 (Macintosh; Intel Mac OS X 10_15_7) AppleWebKit/605.1.15 (KHTML, like Gecko) Version/17.3.1 Safari/605.1.15",Macintosh,Safari,17.3.1,OS X,10_15_7,https://5puzkbbxv1.cognition.run/?sona_id=54400,"en-US,en;q=0.9",kbwx1tez1w7cm7j,19,"[""White""]",No,Female,NA,Yes,332624,NA,3257,NA,"{""product_choice"":""A""}",choice,bw,binary,catch,null,televisions,60,50,15,10,null,null,2,null,null,null,null,null,null,Screen size,Average lifespan,NA,NA
NA,NA,NA,NA,NA,choice_trial_setup,html-keyboard-response,88,259434,0.0-4.0-0.42,263,1,2025-05-06T20:24:22Z,b60275e29fe2361ab97ac0ac217840d7,"Mozilla/5.0 (Macintosh; Intel Mac OS X 10_15_7) AppleWebKit/605.1.15 (KHTML, like Gecko) Version/17.3.1 Safari/605.1.15",Macintosh,Safari,17.3.1,OS X,10_15_7,https://5puzkbbxv1.cognition.run/?sona_id=54400,"en-US,en;q=0.9",kbwx1tez1w7cm7j,19,"[""White""]",No,Female,NA,Yes,332624,NA,null,<p></p>,null,choice,tc,binary,repulsion,2,washing machines,null,null,null,null,null,null,2,NA,NA,NA,NA,NA,NA,NA,NA,NA,NA
NA,NA,NA,NA,NA,choice_trial,survey-html-form,89,261532,0.0-4.0-1.42,263,1,2025-05-06T20:24:22Z,b60275e29fe2361ab97ac0ac217840d7,"Mozilla/5.0 (Macintosh; Intel Mac OS X 10_15_7) AppleWebKit/605.1.15 (KHTML, like Gecko) Version/17.3.1 Safari/605.1.15",Macintosh,Safari,17.3.1,OS X,10_15_7,https://5puzkbbxv1.cognition.run/?sona_id=54400,"en-US,en;q=0.9",kbwx1tez1w7cm7j,19,"[""White""]",No,Female,NA,Yes,332624,NA,2090,NA,"{""product_choice"":""A""}",choice,tc,binary,repulsion,2,washing machines,null,null,null,null,null,null,2,30,40,null,100,90,null,Average lifespan,Energy savings,NA,NA
NA,NA,NA,NA,NA,choice_trial_setup,html-keyboard-response,90,261836,0.0-4.0-0.43,263,1,2025-05-06T20:24:22Z,b60275e29fe2361ab97ac0ac217840d7,"Mozilla/5.0 (Macintosh; Intel Mac OS X 10_15_7) AppleWebKit/605.1.15 (KHTML, like Gecko) Version/17.3.1 Safari/605.1.15",Macintosh,Safari,17.3.1,OS X,10_15_7,https://5puzkbbxv1.cognition.run/?sona_id=54400,"en-US,en;q=0.9",kbwx1tez1w7cm7j,19,"[""White""]",No,Female,NA,Yes,332624,NA,null,<p></p>,null,choice,tdc,trinary,repulsion_B,1,laptops,null,null,null,null,null,null,1,NA,NA,NA,NA,NA,NA,NA,NA,NA,NA
NA,NA,NA,NA,NA,choice_trial,survey-html-form,91,263682,0.0-4.0-1.43,263,1,2025-05-06T20:24:22Z,b60275e29fe2361ab97ac0ac217840d7,"Mozilla/5.0 (Macintosh; Intel Mac OS X 10_15_7) AppleWebKit/605.1.15 (KHTML, like Gecko) Version/17.3.1 Safari/605.1.15",Macintosh,Safari,17.3.1,OS X,10_15_7,https://5puzkbbxv1.cognition.run/?sona_id=54400,"en-US,en;q=0.9",kbwx1tez1w7cm7j,19,"[""White""]",No,Female,NA,Yes,332624,NA,1840,NA,"{""product_choice"":""C""}",choice,tdc,trinary,repulsion_B,1,laptops,null,null,null,null,null,null,1,90,100,80,40,30,40,Processing speed,Memory (RAM),NA,NA
NA,NA,NA,NA,NA,post_trials_message,html-button-response,92,265231,0.0-5.0,263,1,2025-05-06T20:24:22Z,b60275e29fe2361ab97ac0ac217840d7,"Mozilla/5.0 (Macintosh; Intel Mac OS X 10_15_7) AppleWebKit/605.1.15 (KHTML, like Gecko) Version/17.3.1 Safari/605.1.15",Macintosh,Safari,17.3.1,OS X,10_15_7,https://5puzkbbxv1.cognition.run/?sona_id=54400,"en-US,en;q=0.9",kbwx1tez1w7cm7j,19,"[""White""]",No,Female,NA,Yes,332624,NA,1546,<p> <b>Thank you for your patience!</b></p><p>  The study will be done after completing a brief form. </p>,0,NA,NA,NA,NA,NA,NA,NA,NA,NA,NA,NA,NA,NA,NA,NA,NA,NA,NA,NA,NA,NA,NA,NA
NA,NA,NA,NA,NA,survey_message,survey-text,93,302932,0.0-6.0,263,1,2025-05-06T20:24:22Z,b60275e29fe2361ab97ac0ac217840d7,"Mozilla/5.0 (Macintosh; Intel Mac OS X 10_15_7) AppleWebKit/605.1.15 (KHTML, like Gecko) Version/17.3.1 Safari/605.1.15",Macintosh,Safari,17.3.1,OS X,10_15_7,https://5puzkbbxv1.cognition.run/?sona_id=54400,"en-US,en;q=0.9",kbwx1tez1w7cm7j,19,"[""White""]",No,Female,NA,Yes,332624,NA,37691,NA,"{""Q0"":""I liked when something that would benefit me immediately was higher ranked. When I saw the number 100 however, I was more tempted to select that one.""}",NA,NA,NA,NA,NA,NA,NA,NA,NA,NA,NA,NA,NA,NA,NA,NA,NA,NA,NA,NA,NA,"I liked when something that would benefit me immediately was higher ranked. When I saw the number 100 however, I was more tempted to select that one.",NA
NA,NA,NA,NA,NA,demo_age,survey-text,94,304919,0.0-7.0,263,1,2025-05-06T20:24:22Z,b60275e29fe2361ab97ac0ac217840d7,"Mozilla/5.0 (Macintosh; Intel Mac OS X 10_15_7) AppleWebKit/605.1.15 (KHTML, like Gecko) Version/17.3.1 Safari/605.1.15",Macintosh,Safari,17.3.1,OS X,10_15_7,https://5puzkbbxv1.cognition.run/?sona_id=54400,"en-US,en;q=0.9",kbwx1tez1w7cm7j,19,"[""White""]",No,Female,NA,Yes,332624,NA,1981,NA,"{""Q0"":""19""}",NA,NA,NA,NA,NA,NA,NA,NA,NA,NA,NA,NA,NA,NA,NA,NA,NA,NA,NA,NA,NA,NA,NA
NA,NA,NA,NA,NA,demo_race,survey-multi-select,95,308449,0.0-8.0,263,1,2025-05-06T20:24:22Z,b60275e29fe2361ab97ac0ac217840d7,"Mozilla/5.0 (Macintosh; Intel Mac OS X 10_15_7) AppleWebKit/605.1.15 (KHTML, like Gecko) Version/17.3.1 Safari/605.1.15",Macintosh,Safari,17.3.1,OS X,10_15_7,https://5puzkbbxv1.cognition.run/?sona_id=54400,"en-US,en;q=0.9",kbwx1tez1w7cm7j,19,"[""White""]",No,Female,NA,Yes,332624,NA,3525,NA,"{""Q0"":[""White""]}",NA,NA,NA,NA,NA,NA,NA,NA,NA,NA,NA,NA,NA,NA,NA,NA,NA,NA,NA,NA,NA,NA,[0]
NA,NA,NA,NA,NA,demo_ethnicity_gender,survey-multi-choice,96,312200,0.0-9.0,263,1,2025-05-06T20:24:22Z,b60275e29fe2361ab97ac0ac217840d7,"Mozilla/5.0 (Macintosh; Intel Mac OS X 10_15_7) AppleWebKit/605.1.15 (KHTML, like Gecko) Version/17.3.1 Safari/605.1.15",Macintosh,Safari,17.3.1,OS X,10_15_7,https://5puzkbbxv1.cognition.run/?sona_id=54400,"en-US,en;q=0.9",kbwx1tez1w7cm7j,19,"[""White""]",No,Female,NA,Yes,332624,NA,3745,NA,"{""Q0"":""No"",""Q1"":""Female""}",NA,NA,NA,NA,NA,NA,NA,NA,NA,NA,NA,NA,NA,NA,NA,NA,NA,NA,NA,NA,NA,NA,"[0,1]"
NA,NA,NA,NA,NA,demo_countries,survey-text,97,316499,0.0-10.0,263,1,2025-05-06T20:24:22Z,b60275e29fe2361ab97ac0ac217840d7,"Mozilla/5.0 (Macintosh; Intel Mac OS X 10_15_7) AppleWebKit/605.1.15 (KHTML, like Gecko) Version/17.3.1 Safari/605.1.15",Macintosh,Safari,17.3.1,OS X,10_15_7,https://5puzkbbxv1.cognition.run/?sona_id=54400,"en-US,en;q=0.9",kbwx1tez1w7cm7j,19,"[""White""]",No,Female,NA,Yes,332624,NA,4295,NA,"{""Q0"":""NA""}",NA,NA,NA,NA,NA,NA,NA,NA,NA,NA,NA,NA,NA,NA,NA,NA,NA,NA,NA,NA,NA,NA,NA
NA,NA,NA,NA,NA,demo_prev_study,survey-multi-choice,98,325949,0.0-11.0,263,1,2025-05-06T20:24:22Z,b60275e29fe2361ab97ac0ac217840d7,"Mozilla/5.0 (Macintosh; Intel Mac OS X 10_15_7) AppleWebKit/605.1.15 (KHTML, like Gecko) Version/17.3.1 Safari/605.1.15",Macintosh,Safari,17.3.1,OS X,10_15_7,https://5puzkbbxv1.cognition.run/?sona_id=54400,"en-US,en;q=0.9",kbwx1tez1w7cm7j,19,"[""White""]",No,Female,NA,Yes,332624,NA,9447,NA,"{""Q0"":""Yes""}",NA,NA,NA,NA,NA,NA,NA,NA,NA,NA,NA,NA,NA,NA,NA,NA,NA,NA,NA,NA,NA,NA,[0]
NA,NA,NA,NA,NA,post_survey_message,html-keyboard-response,99,329626,0.0-12.0,263,1,2025-05-06T20:24:22Z,b60275e29fe2361ab97ac0ac217840d7,"Mozilla/5.0 (Macintosh; Intel Mac OS X 10_15_7) AppleWebKit/605.1.15 (KHTML, like Gecko) Version/17.3.1 Safari/605.1.15",Macintosh,Safari,17.3.1,OS X,10_15_7,https://5puzkbbxv1.cognition.run/?sona_id=54400,"en-US,en;q=0.9",kbwx1tez1w7cm7j,19,"[""White""]",No,Female,NA,Yes,332624,NA,3672,NA,j,NA,NA,NA,NA,NA,NA,NA,NA,NA,NA,NA,NA,NA,NA,NA,NA,NA,NA,NA,NA,NA,NA,NA
NA,NA,NA,NA,NA,debrief,image-keyboard-response,100,332619,0.0-13.0,263,1,2025-05-06T20:24:22Z,b60275e29fe2361ab97ac0ac217840d7,"Mozilla/5.0 (Macintosh; Intel Mac OS X 10_15_7) AppleWebKit/605.1.15 (KHTML, like Gecko) Version/17.3.1 Safari/605.1.15",Macintosh,Safari,17.3.1,OS X,10_15_7,https://5puzkbbxv1.cognition.run/?sona_id=54400,"en-US,en;q=0.9",kbwx1tez1w7cm7j,19,"[""White""]",No,Female,NA,Yes,332624,NA,2960,Judg_choice_debrief.png,p,NA,NA,NA,NA,NA,NA,NA,NA,NA,NA,NA,NA,NA,NA,NA,NA,NA,NA,NA,NA,NA,NA,NA
