success,timeout,failed_images,failed_audio,failed_video,screen_id,trial_type,trial_index,time_elapsed,internal_node_id,run_id,condition,recorded_at,source_code_version,user_agent,device,browser,browser_version,platform,platform_version,referer,accept_language,ppt_id,age,race,ethnicity,gender,other_countries,prev_study,exp_duration,view_history,rt,stimulus,response,phase,order,set,effect,t_high,category,d1_best,d2_best,d1_worst1,d2_worst1,d1_worst2,d2_worst2,first_dim,d1_t,d1_c,d1_d,d2_t,d2_c,d2_d,d1_name,d2_name,strategy_response,question_order
TRUE,FALSE,[],[],[],img preload,preload,0,99,0.0-0.0,265,1,2025-05-06T21:32:54Z,b60275e29fe2361ab97ac0ac217840d7,"Mozilla/5.0 (Macintosh; Intel Mac OS X 10_15_7) AppleWebKit/605.1.15 (KHTML, like Gecko) Version/18.3 Safari/605.1.15",Macintosh,Safari,18.3,OS X,10_15_7,https://5puzkbbxv1.cognition.run/?sona_id=57967,"en-US,en;q=0.9",nb13yc31os9wqlh,20,"[""White""]",No,Female,"The Netherlands - 2, US - 18",No,442749,NA,NA,NA,NA,NA,NA,NA,NA,NA,NA,NA,NA,NA,NA,NA,NA,NA,NA,NA,NA,NA,NA,NA,NA,NA,NA,NA
NA,NA,NA,NA,NA,computer_message,instructions,1,1266,0.0-1.0,265,1,2025-05-06T21:32:54Z,b60275e29fe2361ab97ac0ac217840d7,"Mozilla/5.0 (Macintosh; Intel Mac OS X 10_15_7) AppleWebKit/605.1.15 (KHTML, like Gecko) Version/18.3 Safari/605.1.15",Macintosh,Safari,18.3,OS X,10_15_7,https://5puzkbbxv1.cognition.run/?sona_id=57967,"en-US,en;q=0.9",nb13yc31os9wqlh,20,"[""White""]",No,Female,"The Netherlands - 2, US - 18",No,442749,"[{""page_index"":0,""viewing_time"":1165}]",1166,NA,NA,NA,NA,NA,NA,NA,NA,NA,NA,NA,NA,NA,NA,NA,NA,NA,NA,NA,NA,NA,NA,NA,NA,NA
TRUE,NA,NA,NA,NA,NA,fullscreen,2,3386,0.0-2.0,265,1,2025-05-06T21:32:54Z,b60275e29fe2361ab97ac0ac217840d7,"Mozilla/5.0 (Macintosh; Intel Mac OS X 10_15_7) AppleWebKit/605.1.15 (KHTML, like Gecko) Version/18.3 Safari/605.1.15",Macintosh,Safari,18.3,OS X,10_15_7,https://5puzkbbxv1.cognition.run/?sona_id=57967,"en-US,en;q=0.9",nb13yc31os9wqlh,20,"[""White""]",No,Female,"The Netherlands - 2, US - 18",No,442749,NA,1116,NA,NA,NA,NA,NA,NA,NA,NA,NA,NA,NA,NA,NA,NA,NA,NA,NA,NA,NA,NA,NA,NA,NA,NA,NA
NA,NA,NA,NA,NA,choice_instructions,instructions,3,50433,0.0-3.0,265,1,2025-05-06T21:32:54Z,b60275e29fe2361ab97ac0ac217840d7,"Mozilla/5.0 (Macintosh; Intel Mac OS X 10_15_7) AppleWebKit/605.1.15 (KHTML, like Gecko) Version/18.3 Safari/605.1.15",Macintosh,Safari,18.3,OS X,10_15_7,https://5puzkbbxv1.cognition.run/?sona_id=57967,"en-US,en;q=0.9",nb13yc31os9wqlh,20,"[""White""]",No,Female,"The Netherlands - 2, US - 18",No,442749,"[{""page_index"":0,""viewing_time"":879},{""page_index"":1,""viewing_time"":2717},{""page_index"":2,""viewing_time"":8367},{""page_index"":3,""viewing_time"":7899},{""page_index"":4,""viewing_time"":3150},{""page_index"":5,""viewing_time"":22066},{""page_index"":6,""viewing_time"":1968}]",47046,NA,NA,NA,NA,NA,NA,NA,NA,NA,NA,NA,NA,NA,NA,NA,NA,NA,NA,NA,NA,NA,NA,NA,NA,NA
NA,NA,NA,NA,NA,choice_trial_setup,html-keyboard-response,4,50741,0.0-4.0-0.0,265,1,2025-05-06T21:32:54Z,b60275e29fe2361ab97ac0ac217840d7,"Mozilla/5.0 (Macintosh; Intel Mac OS X 10_15_7) AppleWebKit/605.1.15 (KHTML, like Gecko) Version/18.3 Safari/605.1.15",Macintosh,Safari,18.3,OS X,10_15_7,https://5puzkbbxv1.cognition.run/?sona_id=57967,"en-US,en;q=0.9",nb13yc31os9wqlh,20,"[""White""]",No,Female,"The Netherlands - 2, US - 18",No,442749,NA,null,<p></p>,null,choice,ct,binary,attraction,NA,laptops,null,null,null,null,null,null,1,NA,NA,NA,NA,NA,NA,NA,NA,NA,NA
NA,NA,NA,NA,NA,choice_trial,survey-html-form,5,59102,0.0-4.0-1.0,265,1,2025-05-06T21:32:54Z,b60275e29fe2361ab97ac0ac217840d7,"Mozilla/5.0 (Macintosh; Intel Mac OS X 10_15_7) AppleWebKit/605.1.15 (KHTML, like Gecko) Version/18.3 Safari/605.1.15",Macintosh,Safari,18.3,OS X,10_15_7,https://5puzkbbxv1.cognition.run/?sona_id=57967,"en-US,en;q=0.9",nb13yc31os9wqlh,20,"[""White""]",No,Female,"The Netherlands - 2, US - 18",No,442749,NA,8356,NA,"{""product_choice"":""B""}",choice,ct,binary,attraction,NA,laptops,null,null,null,null,null,null,1,60,50,null,50,60,null,Processing speed,Memory (RAM),NA,NA
NA,NA,NA,NA,NA,choice_trial_setup,html-keyboard-response,6,59404,0.0-4.0-0.1,265,1,2025-05-06T21:32:54Z,b60275e29fe2361ab97ac0ac217840d7,"Mozilla/5.0 (Macintosh; Intel Mac OS X 10_15_7) AppleWebKit/605.1.15 (KHTML, like Gecko) Version/18.3 Safari/605.1.15",Macintosh,Safari,18.3,OS X,10_15_7,https://5puzkbbxv1.cognition.run/?sona_id=57967,"en-US,en;q=0.9",nb13yc31os9wqlh,20,"[""White""]",No,Female,"The Netherlands - 2, US - 18",No,442749,NA,null,<p></p>,null,choice,bw,binary,catch,null,washing machines,70,90,35,45,null,null,1,NA,NA,NA,NA,NA,NA,NA,NA,NA,NA
NA,NA,NA,NA,NA,choice_trial,survey-html-form,7,65234,0.0-4.0-1.1,265,1,2025-05-06T21:32:54Z,b60275e29fe2361ab97ac0ac217840d7,"Mozilla/5.0 (Macintosh; Intel Mac OS X 10_15_7) AppleWebKit/605.1.15 (KHTML, like Gecko) Version/18.3 Safari/605.1.15",Macintosh,Safari,18.3,OS X,10_15_7,https://5puzkbbxv1.cognition.run/?sona_id=57967,"en-US,en;q=0.9",nb13yc31os9wqlh,20,"[""White""]",No,Female,"The Netherlands - 2, US - 18",No,442749,NA,5827,NA,"{""product_choice"":""A""}",choice,bw,binary,catch,null,washing machines,70,90,35,45,null,null,1,null,null,null,null,null,null,Average lifespan,Energy savings,NA,NA
NA,NA,NA,NA,NA,choice_trial_setup,html-keyboard-response,8,65536,0.0-4.0-0.2,265,1,2025-05-06T21:32:54Z,b60275e29fe2361ab97ac0ac217840d7,"Mozilla/5.0 (Macintosh; Intel Mac OS X 10_15_7) AppleWebKit/605.1.15 (KHTML, like Gecko) Version/18.3 Safari/605.1.15",Macintosh,Safari,18.3,OS X,10_15_7,https://5puzkbbxv1.cognition.run/?sona_id=57967,"en-US,en;q=0.9",nb13yc31os9wqlh,20,"[""White""]",No,Female,"The Netherlands - 2, US - 18",No,442749,NA,null,<p></p>,null,choice,ct,binary,attraction,NA,microwave ovens,null,null,null,null,null,null,1,NA,NA,NA,NA,NA,NA,NA,NA,NA,NA
NA,NA,NA,NA,NA,choice_trial,survey-html-form,9,72049,0.0-4.0-1.2,265,1,2025-05-06T21:32:54Z,b60275e29fe2361ab97ac0ac217840d7,"Mozilla/5.0 (Macintosh; Intel Mac OS X 10_15_7) AppleWebKit/605.1.15 (KHTML, like Gecko) Version/18.3 Safari/605.1.15",Macintosh,Safari,18.3,OS X,10_15_7,https://5puzkbbxv1.cognition.run/?sona_id=57967,"en-US,en;q=0.9",nb13yc31os9wqlh,20,"[""White""]",No,Female,"The Netherlands - 2, US - 18",No,442749,NA,6510,NA,"{""product_choice"":""A""}",choice,ct,binary,attraction,NA,microwave ovens,null,null,null,null,null,null,1,60,50,null,50,60,null,Warranty,Cooking power,NA,NA
NA,NA,NA,NA,NA,choice_trial_setup,html-keyboard-response,10,72350,0.0-4.0-0.3,265,1,2025-05-06T21:32:54Z,b60275e29fe2361ab97ac0ac217840d7,"Mozilla/5.0 (Macintosh; Intel Mac OS X 10_15_7) AppleWebKit/605.1.15 (KHTML, like Gecko) Version/18.3 Safari/605.1.15",Macintosh,Safari,18.3,OS X,10_15_7,https://5puzkbbxv1.cognition.run/?sona_id=57967,"en-US,en;q=0.9",nb13yc31os9wqlh,20,"[""White""]",No,Female,"The Netherlands - 2, US - 18",No,442749,NA,null,<p></p>,null,choice,ct,binary,repulsion,1,laptops,null,null,null,null,null,null,1,NA,NA,NA,NA,NA,NA,NA,NA,NA,NA
NA,NA,NA,NA,NA,choice_trial,survey-html-form,11,81500,0.0-4.0-1.3,265,1,2025-05-06T21:32:54Z,b60275e29fe2361ab97ac0ac217840d7,"Mozilla/5.0 (Macintosh; Intel Mac OS X 10_15_7) AppleWebKit/605.1.15 (KHTML, like Gecko) Version/18.3 Safari/605.1.15",Macintosh,Safari,18.3,OS X,10_15_7,https://5puzkbbxv1.cognition.run/?sona_id=57967,"en-US,en;q=0.9",nb13yc31os9wqlh,20,"[""White""]",No,Female,"The Netherlands - 2, US - 18",No,442749,NA,9150,NA,"{""product_choice"":""A""}",choice,ct,binary,repulsion,1,laptops,null,null,null,null,null,null,1,100,90,null,30,40,null,Processing speed,Memory (RAM),NA,NA
NA,NA,NA,NA,NA,choice_trial_setup,html-keyboard-response,12,81803,0.0-4.0-0.4,265,1,2025-05-06T21:32:54Z,b60275e29fe2361ab97ac0ac217840d7,"Mozilla/5.0 (Macintosh; Intel Mac OS X 10_15_7) AppleWebKit/605.1.15 (KHTML, like Gecko) Version/18.3 Safari/605.1.15",Macintosh,Safari,18.3,OS X,10_15_7,https://5puzkbbxv1.cognition.run/?sona_id=57967,"en-US,en;q=0.9",nb13yc31os9wqlh,20,"[""White""]",No,Female,"The Netherlands - 2, US - 18",No,442749,NA,null,<p></p>,null,choice,ct,binary,repulsion,2,microwave ovens,null,null,null,null,null,null,1,NA,NA,NA,NA,NA,NA,NA,NA,NA,NA
NA,NA,NA,NA,NA,choice_trial,survey-html-form,13,93866,0.0-4.0-1.4,265,1,2025-05-06T21:32:54Z,b60275e29fe2361ab97ac0ac217840d7,"Mozilla/5.0 (Macintosh; Intel Mac OS X 10_15_7) AppleWebKit/605.1.15 (KHTML, like Gecko) Version/18.3 Safari/605.1.15",Macintosh,Safari,18.3,OS X,10_15_7,https://5puzkbbxv1.cognition.run/?sona_id=57967,"en-US,en;q=0.9",nb13yc31os9wqlh,20,"[""White""]",No,Female,"The Netherlands - 2, US - 18",No,442749,NA,12061,NA,"{""product_choice"":""A""}",choice,ct,binary,repulsion,2,microwave ovens,null,null,null,null,null,null,1,30,40,null,100,90,null,Warranty,Cooking power,NA,NA
NA,NA,NA,NA,NA,choice_trial_setup,html-keyboard-response,14,94170,0.0-4.0-0.5,265,1,2025-05-06T21:32:54Z,b60275e29fe2361ab97ac0ac217840d7,"Mozilla/5.0 (Macintosh; Intel Mac OS X 10_15_7) AppleWebKit/605.1.15 (KHTML, like Gecko) Version/18.3 Safari/605.1.15",Macintosh,Safari,18.3,OS X,10_15_7,https://5puzkbbxv1.cognition.run/?sona_id=57967,"en-US,en;q=0.9",nb13yc31os9wqlh,20,"[""White""]",No,Female,"The Netherlands - 2, US - 18",No,442749,NA,null,<p></p>,null,choice,wbw,trinary,catch,null,washing machines,90,60,25,5,45,15,1,NA,NA,NA,NA,NA,NA,NA,NA,NA,NA
NA,NA,NA,NA,NA,choice_trial,survey-html-form,15,99500,0.0-4.0-1.5,265,1,2025-05-06T21:32:54Z,b60275e29fe2361ab97ac0ac217840d7,"Mozilla/5.0 (Macintosh; Intel Mac OS X 10_15_7) AppleWebKit/605.1.15 (KHTML, like Gecko) Version/18.3 Safari/605.1.15",Macintosh,Safari,18.3,OS X,10_15_7,https://5puzkbbxv1.cognition.run/?sona_id=57967,"en-US,en;q=0.9",nb13yc31os9wqlh,20,"[""White""]",No,Female,"The Netherlands - 2, US - 18",No,442749,NA,5328,NA,"{""product_choice"":""B""}",choice,wbw,trinary,catch,null,washing machines,90,60,25,5,45,15,1,null,null,null,null,null,null,Average lifespan,Energy savings,NA,NA
NA,NA,NA,NA,NA,choice_trial_setup,html-keyboard-response,16,99803,0.0-4.0-0.6,265,1,2025-05-06T21:32:54Z,b60275e29fe2361ab97ac0ac217840d7,"Mozilla/5.0 (Macintosh; Intel Mac OS X 10_15_7) AppleWebKit/605.1.15 (KHTML, like Gecko) Version/18.3 Safari/605.1.15",Macintosh,Safari,18.3,OS X,10_15_7,https://5puzkbbxv1.cognition.run/?sona_id=57967,"en-US,en;q=0.9",nb13yc31os9wqlh,20,"[""White""]",No,Female,"The Netherlands - 2, US - 18",No,442749,NA,null,<p></p>,null,choice,tc,binary,repulsion,2,laptops,null,null,null,null,null,null,2,NA,NA,NA,NA,NA,NA,NA,NA,NA,NA
NA,NA,NA,NA,NA,choice_trial,survey-html-form,17,111250,0.0-4.0-1.6,265,1,2025-05-06T21:32:54Z,b60275e29fe2361ab97ac0ac217840d7,"Mozilla/5.0 (Macintosh; Intel Mac OS X 10_15_7) AppleWebKit/605.1.15 (KHTML, like Gecko) Version/18.3 Safari/605.1.15",Macintosh,Safari,18.3,OS X,10_15_7,https://5puzkbbxv1.cognition.run/?sona_id=57967,"en-US,en;q=0.9",nb13yc31os9wqlh,20,"[""White""]",No,Female,"The Netherlands - 2, US - 18",No,442749,NA,11443,NA,"{""product_choice"":""B""}",choice,tc,binary,repulsion,2,laptops,null,null,null,null,null,null,2,30,40,null,100,90,null,Processing speed,Memory (RAM),NA,NA
NA,NA,NA,NA,NA,choice_trial_setup,html-keyboard-response,18,111553,0.0-4.0-0.7,265,1,2025-05-06T21:32:54Z,b60275e29fe2361ab97ac0ac217840d7,"Mozilla/5.0 (Macintosh; Intel Mac OS X 10_15_7) AppleWebKit/605.1.15 (KHTML, like Gecko) Version/18.3 Safari/605.1.15",Macintosh,Safari,18.3,OS X,10_15_7,https://5puzkbbxv1.cognition.run/?sona_id=57967,"en-US,en;q=0.9",nb13yc31os9wqlh,20,"[""White""]",No,Female,"The Netherlands - 2, US - 18",No,442749,NA,null,<p></p>,null,choice,cdt,trinary,attraction,1,laptops,null,null,null,null,null,null,1,NA,NA,NA,NA,NA,NA,NA,NA,NA,NA
NA,NA,NA,NA,NA,choice_trial,survey-html-form,19,124301,0.0-4.0-1.7,265,1,2025-05-06T21:32:54Z,b60275e29fe2361ab97ac0ac217840d7,"Mozilla/5.0 (Macintosh; Intel Mac OS X 10_15_7) AppleWebKit/605.1.15 (KHTML, like Gecko) Version/18.3 Safari/605.1.15",Macintosh,Safari,18.3,OS X,10_15_7,https://5puzkbbxv1.cognition.run/?sona_id=57967,"en-US,en;q=0.9",nb13yc31os9wqlh,20,"[""White""]",No,Female,"The Netherlands - 2, US - 18",No,442749,NA,12745,NA,"{""product_choice"":""C""}",choice,cdt,trinary,attraction,1,laptops,null,null,null,null,null,null,1,60,50,60,50,60,40,Processing speed,Memory (RAM),NA,NA
NA,NA,NA,NA,NA,choice_trial_setup,html-keyboard-response,20,124604,0.0-4.0-0.8,265,1,2025-05-06T21:32:54Z,b60275e29fe2361ab97ac0ac217840d7,"Mozilla/5.0 (Macintosh; Intel Mac OS X 10_15_7) AppleWebKit/605.1.15 (KHTML, like Gecko) Version/18.3 Safari/605.1.15",Macintosh,Safari,18.3,OS X,10_15_7,https://5puzkbbxv1.cognition.run/?sona_id=57967,"en-US,en;q=0.9",nb13yc31os9wqlh,20,"[""White""]",No,Female,"The Netherlands - 2, US - 18",No,442749,NA,null,<p></p>,null,choice,bw,binary,catch,null,laptops,50,70,35,50,null,null,1,NA,NA,NA,NA,NA,NA,NA,NA,NA,NA
NA,NA,NA,NA,NA,choice_trial,survey-html-form,21,129084,0.0-4.0-1.8,265,1,2025-05-06T21:32:54Z,b60275e29fe2361ab97ac0ac217840d7,"Mozilla/5.0 (Macintosh; Intel Mac OS X 10_15_7) AppleWebKit/605.1.15 (KHTML, like Gecko) Version/18.3 Safari/605.1.15",Macintosh,Safari,18.3,OS X,10_15_7,https://5puzkbbxv1.cognition.run/?sona_id=57967,"en-US,en;q=0.9",nb13yc31os9wqlh,20,"[""White""]",No,Female,"The Netherlands - 2, US - 18",No,442749,NA,4476,NA,"{""product_choice"":""A""}",choice,bw,binary,catch,null,laptops,50,70,35,50,null,null,1,null,null,null,null,null,null,Processing speed,Memory (RAM),NA,NA
NA,NA,NA,NA,NA,choice_trial_setup,html-keyboard-response,22,129387,0.0-4.0-0.9,265,1,2025-05-06T21:32:54Z,b60275e29fe2361ab97ac0ac217840d7,"Mozilla/5.0 (Macintosh; Intel Mac OS X 10_15_7) AppleWebKit/605.1.15 (KHTML, like Gecko) Version/18.3 Safari/605.1.15",Macintosh,Safari,18.3,OS X,10_15_7,https://5puzkbbxv1.cognition.run/?sona_id=57967,"en-US,en;q=0.9",nb13yc31os9wqlh,20,"[""White""]",No,Female,"The Netherlands - 2, US - 18",No,442749,NA,null,<p></p>,null,choice,tc,binary,repulsion,1,televisions,null,null,null,null,null,null,2,NA,NA,NA,NA,NA,NA,NA,NA,NA,NA
NA,NA,NA,NA,NA,choice_trial,survey-html-form,23,140116,0.0-4.0-1.9,265,1,2025-05-06T21:32:54Z,b60275e29fe2361ab97ac0ac217840d7,"Mozilla/5.0 (Macintosh; Intel Mac OS X 10_15_7) AppleWebKit/605.1.15 (KHTML, like Gecko) Version/18.3 Safari/605.1.15",Macintosh,Safari,18.3,OS X,10_15_7,https://5puzkbbxv1.cognition.run/?sona_id=57967,"en-US,en;q=0.9",nb13yc31os9wqlh,20,"[""White""]",No,Female,"The Netherlands - 2, US - 18",No,442749,NA,10725,NA,"{""product_choice"":""A""}",choice,tc,binary,repulsion,1,televisions,null,null,null,null,null,null,2,100,90,null,30,40,null,Screen size,Average lifespan,NA,NA
NA,NA,NA,NA,NA,choice_trial_setup,html-keyboard-response,24,140419,0.0-4.0-0.10,265,1,2025-05-06T21:32:54Z,b60275e29fe2361ab97ac0ac217840d7,"Mozilla/5.0 (Macintosh; Intel Mac OS X 10_15_7) AppleWebKit/605.1.15 (KHTML, like Gecko) Version/18.3 Safari/605.1.15",Macintosh,Safari,18.3,OS X,10_15_7,https://5puzkbbxv1.cognition.run/?sona_id=57967,"en-US,en;q=0.9",nb13yc31os9wqlh,20,"[""White""]",No,Female,"The Netherlands - 2, US - 18",No,442749,NA,null,<p></p>,null,choice,cdt,trinary,attraction,2,microwave ovens,null,null,null,null,null,null,1,NA,NA,NA,NA,NA,NA,NA,NA,NA,NA
NA,NA,NA,NA,NA,choice_trial,survey-html-form,25,148117,0.0-4.0-1.10,265,1,2025-05-06T21:32:54Z,b60275e29fe2361ab97ac0ac217840d7,"Mozilla/5.0 (Macintosh; Intel Mac OS X 10_15_7) AppleWebKit/605.1.15 (KHTML, like Gecko) Version/18.3 Safari/605.1.15",Macintosh,Safari,18.3,OS X,10_15_7,https://5puzkbbxv1.cognition.run/?sona_id=57967,"en-US,en;q=0.9",nb13yc31os9wqlh,20,"[""White""]",No,Female,"The Netherlands - 2, US - 18",No,442749,NA,7694,NA,"{""product_choice"":""C""}",choice,cdt,trinary,attraction,2,microwave ovens,null,null,null,null,null,null,1,50,60,40,60,50,60,Warranty,Cooking power,NA,NA
NA,NA,NA,NA,NA,choice_trial_setup,html-keyboard-response,26,148419,0.0-4.0-0.11,265,1,2025-05-06T21:32:54Z,b60275e29fe2361ab97ac0ac217840d7,"Mozilla/5.0 (Macintosh; Intel Mac OS X 10_15_7) AppleWebKit/605.1.15 (KHTML, like Gecko) Version/18.3 Safari/605.1.15",Macintosh,Safari,18.3,OS X,10_15_7,https://5puzkbbxv1.cognition.run/?sona_id=57967,"en-US,en;q=0.9",nb13yc31os9wqlh,20,"[""White""]",No,Female,"The Netherlands - 2, US - 18",No,442749,NA,null,<p></p>,null,choice,ctd,trinary,attraction,2,televisions,null,null,null,null,null,null,2,NA,NA,NA,NA,NA,NA,NA,NA,NA,NA
NA,NA,NA,NA,NA,choice_trial,survey-html-form,27,162416,0.0-4.0-1.11,265,1,2025-05-06T21:32:54Z,b60275e29fe2361ab97ac0ac217840d7,"Mozilla/5.0 (Macintosh; Intel Mac OS X 10_15_7) AppleWebKit/605.1.15 (KHTML, like Gecko) Version/18.3 Safari/605.1.15",Macintosh,Safari,18.3,OS X,10_15_7,https://5puzkbbxv1.cognition.run/?sona_id=57967,"en-US,en;q=0.9",nb13yc31os9wqlh,20,"[""White""]",No,Female,"The Netherlands - 2, US - 18",No,442749,NA,13994,NA,"{""product_choice"":""B""}",choice,ctd,trinary,attraction,2,televisions,null,null,null,null,null,null,2,50,60,40,60,50,60,Screen size,Average lifespan,NA,NA
NA,NA,NA,NA,NA,choice_trial_setup,html-keyboard-response,28,162720,0.0-4.0-0.12,265,1,2025-05-06T21:32:54Z,b60275e29fe2361ab97ac0ac217840d7,"Mozilla/5.0 (Macintosh; Intel Mac OS X 10_15_7) AppleWebKit/605.1.15 (KHTML, like Gecko) Version/18.3 Safari/605.1.15",Macintosh,Safari,18.3,OS X,10_15_7,https://5puzkbbxv1.cognition.run/?sona_id=57967,"en-US,en;q=0.9",nb13yc31os9wqlh,20,"[""White""]",No,Female,"The Netherlands - 2, US - 18",No,442749,NA,null,<p></p>,null,choice,dct,trinary,repulsion_A,2,televisions,null,null,null,null,null,null,2,NA,NA,NA,NA,NA,NA,NA,NA,NA,NA
NA,NA,NA,NA,NA,choice_trial,survey-html-form,29,170199,0.0-4.0-1.12,265,1,2025-05-06T21:32:54Z,b60275e29fe2361ab97ac0ac217840d7,"Mozilla/5.0 (Macintosh; Intel Mac OS X 10_15_7) AppleWebKit/605.1.15 (KHTML, like Gecko) Version/18.3 Safari/605.1.15",Macintosh,Safari,18.3,OS X,10_15_7,https://5puzkbbxv1.cognition.run/?sona_id=57967,"en-US,en;q=0.9",nb13yc31os9wqlh,20,"[""White""]",No,Female,"The Netherlands - 2, US - 18",No,442749,NA,7477,NA,"{""product_choice"":""C""}",choice,dct,trinary,repulsion_A,2,televisions,null,null,null,null,null,null,2,30,40,20,100,90,100,Screen size,Average lifespan,NA,NA
NA,NA,NA,NA,NA,choice_trial_setup,html-keyboard-response,30,170501,0.0-4.0-0.13,265,1,2025-05-06T21:32:54Z,b60275e29fe2361ab97ac0ac217840d7,"Mozilla/5.0 (Macintosh; Intel Mac OS X 10_15_7) AppleWebKit/605.1.15 (KHTML, like Gecko) Version/18.3 Safari/605.1.15",Macintosh,Safari,18.3,OS X,10_15_7,https://5puzkbbxv1.cognition.run/?sona_id=57967,"en-US,en;q=0.9",nb13yc31os9wqlh,20,"[""White""]",No,Female,"The Netherlands - 2, US - 18",No,442749,NA,null,<p></p>,null,choice,dct,trinary,repulsion_A,2,microwave ovens,null,null,null,null,null,null,1,NA,NA,NA,NA,NA,NA,NA,NA,NA,NA
NA,NA,NA,NA,NA,choice_trial,survey-html-form,31,179149,0.0-4.0-1.13,265,1,2025-05-06T21:32:54Z,b60275e29fe2361ab97ac0ac217840d7,"Mozilla/5.0 (Macintosh; Intel Mac OS X 10_15_7) AppleWebKit/605.1.15 (KHTML, like Gecko) Version/18.3 Safari/605.1.15",Macintosh,Safari,18.3,OS X,10_15_7,https://5puzkbbxv1.cognition.run/?sona_id=57967,"en-US,en;q=0.9",nb13yc31os9wqlh,20,"[""White""]",No,Female,"The Netherlands - 2, US - 18",No,442749,NA,8645,NA,"{""product_choice"":""C""}",choice,dct,trinary,repulsion_A,2,microwave ovens,null,null,null,null,null,null,1,30,40,20,100,90,100,Warranty,Cooking power,NA,NA
NA,NA,NA,NA,NA,choice_trial_setup,html-keyboard-response,32,179452,0.0-4.0-0.14,265,1,2025-05-06T21:32:54Z,b60275e29fe2361ab97ac0ac217840d7,"Mozilla/5.0 (Macintosh; Intel Mac OS X 10_15_7) AppleWebKit/605.1.15 (KHTML, like Gecko) Version/18.3 Safari/605.1.15",Macintosh,Safari,18.3,OS X,10_15_7,https://5puzkbbxv1.cognition.run/?sona_id=57967,"en-US,en;q=0.9",nb13yc31os9wqlh,20,"[""White""]",No,Female,"The Netherlands - 2, US - 18",No,442749,NA,null,<p></p>,null,choice,dtc,trinary,attraction,1,televisions,null,null,null,null,null,null,2,NA,NA,NA,NA,NA,NA,NA,NA,NA,NA
NA,NA,NA,NA,NA,choice_trial,survey-html-form,33,188416,0.0-4.0-1.14,265,1,2025-05-06T21:32:54Z,b60275e29fe2361ab97ac0ac217840d7,"Mozilla/5.0 (Macintosh; Intel Mac OS X 10_15_7) AppleWebKit/605.1.15 (KHTML, like Gecko) Version/18.3 Safari/605.1.15",Macintosh,Safari,18.3,OS X,10_15_7,https://5puzkbbxv1.cognition.run/?sona_id=57967,"en-US,en;q=0.9",nb13yc31os9wqlh,20,"[""White""]",No,Female,"The Netherlands - 2, US - 18",No,442749,NA,8961,NA,"{""product_choice"":""B""}",choice,dtc,trinary,attraction,1,televisions,null,null,null,null,null,null,2,60,50,60,50,60,40,Screen size,Average lifespan,NA,NA
NA,NA,NA,NA,NA,choice_trial_setup,html-keyboard-response,34,188719,0.0-4.0-0.15,265,1,2025-05-06T21:32:54Z,b60275e29fe2361ab97ac0ac217840d7,"Mozilla/5.0 (Macintosh; Intel Mac OS X 10_15_7) AppleWebKit/605.1.15 (KHTML, like Gecko) Version/18.3 Safari/605.1.15",Macintosh,Safari,18.3,OS X,10_15_7,https://5puzkbbxv1.cognition.run/?sona_id=57967,"en-US,en;q=0.9",nb13yc31os9wqlh,20,"[""White""]",No,Female,"The Netherlands - 2, US - 18",No,442749,NA,null,<p></p>,null,choice,wwb,trinary,catch,null,televisions,55,75,25,20,35,5,1,NA,NA,NA,NA,NA,NA,NA,NA,NA,NA
NA,NA,NA,NA,NA,choice_trial,survey-html-form,35,195348,0.0-4.0-1.15,265,1,2025-05-06T21:32:54Z,b60275e29fe2361ab97ac0ac217840d7,"Mozilla/5.0 (Macintosh; Intel Mac OS X 10_15_7) AppleWebKit/605.1.15 (KHTML, like Gecko) Version/18.3 Safari/605.1.15",Macintosh,Safari,18.3,OS X,10_15_7,https://5puzkbbxv1.cognition.run/?sona_id=57967,"en-US,en;q=0.9",nb13yc31os9wqlh,20,"[""White""]",No,Female,"The Netherlands - 2, US - 18",No,442749,NA,6627,NA,"{""product_choice"":""C""}",choice,wwb,trinary,catch,null,televisions,55,75,25,20,35,5,1,null,null,null,null,null,null,Screen size,Average lifespan,NA,NA
NA,NA,NA,NA,NA,choice_trial_setup,html-keyboard-response,36,195651,0.0-4.0-0.16,265,1,2025-05-06T21:32:54Z,b60275e29fe2361ab97ac0ac217840d7,"Mozilla/5.0 (Macintosh; Intel Mac OS X 10_15_7) AppleWebKit/605.1.15 (KHTML, like Gecko) Version/18.3 Safari/605.1.15",Macintosh,Safari,18.3,OS X,10_15_7,https://5puzkbbxv1.cognition.run/?sona_id=57967,"en-US,en;q=0.9",nb13yc31os9wqlh,20,"[""White""]",No,Female,"The Netherlands - 2, US - 18",No,442749,NA,null,<p></p>,null,choice,tc,binary,repulsion,2,televisions,null,null,null,null,null,null,2,NA,NA,NA,NA,NA,NA,NA,NA,NA,NA
NA,NA,NA,NA,NA,choice_trial,survey-html-form,37,200865,0.0-4.0-1.16,265,1,2025-05-06T21:32:54Z,b60275e29fe2361ab97ac0ac217840d7,"Mozilla/5.0 (Macintosh; Intel Mac OS X 10_15_7) AppleWebKit/605.1.15 (KHTML, like Gecko) Version/18.3 Safari/605.1.15",Macintosh,Safari,18.3,OS X,10_15_7,https://5puzkbbxv1.cognition.run/?sona_id=57967,"en-US,en;q=0.9",nb13yc31os9wqlh,20,"[""White""]",No,Female,"The Netherlands - 2, US - 18",No,442749,NA,5211,NA,"{""product_choice"":""B""}",choice,tc,binary,repulsion,2,televisions,null,null,null,null,null,null,2,30,40,null,100,90,null,Screen size,Average lifespan,NA,NA
NA,NA,NA,NA,NA,choice_trial_setup,html-keyboard-response,38,201168,0.0-4.0-0.17,265,1,2025-05-06T21:32:54Z,b60275e29fe2361ab97ac0ac217840d7,"Mozilla/5.0 (Macintosh; Intel Mac OS X 10_15_7) AppleWebKit/605.1.15 (KHTML, like Gecko) Version/18.3 Safari/605.1.15",Macintosh,Safari,18.3,OS X,10_15_7,https://5puzkbbxv1.cognition.run/?sona_id=57967,"en-US,en;q=0.9",nb13yc31os9wqlh,20,"[""White""]",No,Female,"The Netherlands - 2, US - 18",No,442749,NA,null,<p></p>,null,choice,ctd,trinary,attraction,2,washing machines,null,null,null,null,null,null,2,NA,NA,NA,NA,NA,NA,NA,NA,NA,NA
NA,NA,NA,NA,NA,choice_trial,survey-html-form,39,208465,0.0-4.0-1.17,265,1,2025-05-06T21:32:54Z,b60275e29fe2361ab97ac0ac217840d7,"Mozilla/5.0 (Macintosh; Intel Mac OS X 10_15_7) AppleWebKit/605.1.15 (KHTML, like Gecko) Version/18.3 Safari/605.1.15",Macintosh,Safari,18.3,OS X,10_15_7,https://5puzkbbxv1.cognition.run/?sona_id=57967,"en-US,en;q=0.9",nb13yc31os9wqlh,20,"[""White""]",No,Female,"The Netherlands - 2, US - 18",No,442749,NA,7293,NA,"{""product_choice"":""A""}",choice,ctd,trinary,attraction,2,washing machines,null,null,null,null,null,null,2,50,60,40,60,50,60,Average lifespan,Energy savings,NA,NA
NA,NA,NA,NA,NA,choice_trial_setup,html-keyboard-response,40,208767,0.0-4.0-0.18,265,1,2025-05-06T21:32:54Z,b60275e29fe2361ab97ac0ac217840d7,"Mozilla/5.0 (Macintosh; Intel Mac OS X 10_15_7) AppleWebKit/605.1.15 (KHTML, like Gecko) Version/18.3 Safari/605.1.15",Macintosh,Safari,18.3,OS X,10_15_7,https://5puzkbbxv1.cognition.run/?sona_id=57967,"en-US,en;q=0.9",nb13yc31os9wqlh,20,"[""White""]",No,Female,"The Netherlands - 2, US - 18",No,442749,NA,null,<p></p>,null,choice,bw,binary,catch,null,microwave ovens,85,90,50,5,null,null,1,NA,NA,NA,NA,NA,NA,NA,NA,NA,NA
NA,NA,NA,NA,NA,choice_trial,survey-html-form,41,213715,0.0-4.0-1.18,265,1,2025-05-06T21:32:54Z,b60275e29fe2361ab97ac0ac217840d7,"Mozilla/5.0 (Macintosh; Intel Mac OS X 10_15_7) AppleWebKit/605.1.15 (KHTML, like Gecko) Version/18.3 Safari/605.1.15",Macintosh,Safari,18.3,OS X,10_15_7,https://5puzkbbxv1.cognition.run/?sona_id=57967,"en-US,en;q=0.9",nb13yc31os9wqlh,20,"[""White""]",No,Female,"The Netherlands - 2, US - 18",No,442749,NA,4944,NA,"{""product_choice"":""A""}",choice,bw,binary,catch,null,microwave ovens,85,90,50,5,null,null,1,null,null,null,null,null,null,Warranty,Cooking power,NA,NA
NA,NA,NA,NA,NA,choice_trial_setup,html-keyboard-response,42,214018,0.0-4.0-0.19,265,1,2025-05-06T21:32:54Z,b60275e29fe2361ab97ac0ac217840d7,"Mozilla/5.0 (Macintosh; Intel Mac OS X 10_15_7) AppleWebKit/605.1.15 (KHTML, like Gecko) Version/18.3 Safari/605.1.15",Macintosh,Safari,18.3,OS X,10_15_7,https://5puzkbbxv1.cognition.run/?sona_id=57967,"en-US,en;q=0.9",nb13yc31os9wqlh,20,"[""White""]",No,Female,"The Netherlands - 2, US - 18",No,442749,NA,null,<p></p>,null,choice,tc,binary,attraction,NA,washing machines,null,null,null,null,null,null,2,NA,NA,NA,NA,NA,NA,NA,NA,NA,NA
NA,NA,NA,NA,NA,choice_trial,survey-html-form,43,222065,0.0-4.0-1.19,265,1,2025-05-06T21:32:54Z,b60275e29fe2361ab97ac0ac217840d7,"Mozilla/5.0 (Macintosh; Intel Mac OS X 10_15_7) AppleWebKit/605.1.15 (KHTML, like Gecko) Version/18.3 Safari/605.1.15",Macintosh,Safari,18.3,OS X,10_15_7,https://5puzkbbxv1.cognition.run/?sona_id=57967,"en-US,en;q=0.9",nb13yc31os9wqlh,20,"[""White""]",No,Female,"The Netherlands - 2, US - 18",No,442749,NA,8043,NA,"{""product_choice"":""A""}",choice,tc,binary,attraction,NA,washing machines,null,null,null,null,null,null,2,60,50,null,50,60,null,Average lifespan,Energy savings,NA,NA
NA,NA,NA,NA,NA,choice_trial_setup,html-keyboard-response,44,222367,0.0-4.0-0.20,265,1,2025-05-06T21:32:54Z,b60275e29fe2361ab97ac0ac217840d7,"Mozilla/5.0 (Macintosh; Intel Mac OS X 10_15_7) AppleWebKit/605.1.15 (KHTML, like Gecko) Version/18.3 Safari/605.1.15",Macintosh,Safari,18.3,OS X,10_15_7,https://5puzkbbxv1.cognition.run/?sona_id=57967,"en-US,en;q=0.9",nb13yc31os9wqlh,20,"[""White""]",No,Female,"The Netherlands - 2, US - 18",No,442749,NA,null,<p></p>,null,choice,tcd,trinary,attraction,1,microwave ovens,null,null,null,null,null,null,2,NA,NA,NA,NA,NA,NA,NA,NA,NA,NA
NA,NA,NA,NA,NA,choice_trial,survey-html-form,45,227682,0.0-4.0-1.20,265,1,2025-05-06T21:32:54Z,b60275e29fe2361ab97ac0ac217840d7,"Mozilla/5.0 (Macintosh; Intel Mac OS X 10_15_7) AppleWebKit/605.1.15 (KHTML, like Gecko) Version/18.3 Safari/605.1.15",Macintosh,Safari,18.3,OS X,10_15_7,https://5puzkbbxv1.cognition.run/?sona_id=57967,"en-US,en;q=0.9",nb13yc31os9wqlh,20,"[""White""]",No,Female,"The Netherlands - 2, US - 18",No,442749,NA,5311,NA,"{""product_choice"":""B""}",choice,tcd,trinary,attraction,1,microwave ovens,null,null,null,null,null,null,2,60,50,60,50,60,40,Warranty,Cooking power,NA,NA
NA,NA,NA,NA,NA,choice_trial_setup,html-keyboard-response,46,227985,0.0-4.0-0.21,265,1,2025-05-06T21:32:54Z,b60275e29fe2361ab97ac0ac217840d7,"Mozilla/5.0 (Macintosh; Intel Mac OS X 10_15_7) AppleWebKit/605.1.15 (KHTML, like Gecko) Version/18.3 Safari/605.1.15",Macintosh,Safari,18.3,OS X,10_15_7,https://5puzkbbxv1.cognition.run/?sona_id=57967,"en-US,en;q=0.9",nb13yc31os9wqlh,20,"[""White""]",No,Female,"The Netherlands - 2, US - 18",No,442749,NA,null,<p></p>,null,choice,tcd,trinary,repulsion_A,1,laptops,null,null,null,null,null,null,1,NA,NA,NA,NA,NA,NA,NA,NA,NA,NA
NA,NA,NA,NA,NA,choice_trial,survey-html-form,47,236065,0.0-4.0-1.21,265,1,2025-05-06T21:32:54Z,b60275e29fe2361ab97ac0ac217840d7,"Mozilla/5.0 (Macintosh; Intel Mac OS X 10_15_7) AppleWebKit/605.1.15 (KHTML, like Gecko) Version/18.3 Safari/605.1.15",Macintosh,Safari,18.3,OS X,10_15_7,https://5puzkbbxv1.cognition.run/?sona_id=57967,"en-US,en;q=0.9",nb13yc31os9wqlh,20,"[""White""]",No,Female,"The Netherlands - 2, US - 18",No,442749,NA,8077,NA,"{""product_choice"":""B""}",choice,tcd,trinary,repulsion_A,1,laptops,null,null,null,null,null,null,1,100,90,100,30,40,20,Processing speed,Memory (RAM),NA,NA
NA,NA,NA,NA,NA,choice_trial_setup,html-keyboard-response,48,236375,0.0-4.0-0.22,265,1,2025-05-06T21:32:54Z,b60275e29fe2361ab97ac0ac217840d7,"Mozilla/5.0 (Macintosh; Intel Mac OS X 10_15_7) AppleWebKit/605.1.15 (KHTML, like Gecko) Version/18.3 Safari/605.1.15",Macintosh,Safari,18.3,OS X,10_15_7,https://5puzkbbxv1.cognition.run/?sona_id=57967,"en-US,en;q=0.9",nb13yc31os9wqlh,20,"[""White""]",No,Female,"The Netherlands - 2, US - 18",No,442749,NA,null,<p></p>,null,choice,cdt,trinary,repulsion_B,1,washing machines,null,null,null,null,null,null,2,NA,NA,NA,NA,NA,NA,NA,NA,NA,NA
NA,NA,NA,NA,NA,choice_trial,survey-html-form,49,243066,0.0-4.0-1.22,265,1,2025-05-06T21:32:54Z,b60275e29fe2361ab97ac0ac217840d7,"Mozilla/5.0 (Macintosh; Intel Mac OS X 10_15_7) AppleWebKit/605.1.15 (KHTML, like Gecko) Version/18.3 Safari/605.1.15",Macintosh,Safari,18.3,OS X,10_15_7,https://5puzkbbxv1.cognition.run/?sona_id=57967,"en-US,en;q=0.9",nb13yc31os9wqlh,20,"[""White""]",No,Female,"The Netherlands - 2, US - 18",No,442749,NA,6686,NA,"{""product_choice"":""C""}",choice,cdt,trinary,repulsion_B,1,washing machines,null,null,null,null,null,null,2,90,100,80,40,30,40,Average lifespan,Energy savings,NA,NA
NA,NA,NA,NA,NA,choice_trial_setup,html-keyboard-response,50,243369,0.0-4.0-0.23,265,1,2025-05-06T21:32:54Z,b60275e29fe2361ab97ac0ac217840d7,"Mozilla/5.0 (Macintosh; Intel Mac OS X 10_15_7) AppleWebKit/605.1.15 (KHTML, like Gecko) Version/18.3 Safari/605.1.15",Macintosh,Safari,18.3,OS X,10_15_7,https://5puzkbbxv1.cognition.run/?sona_id=57967,"en-US,en;q=0.9",nb13yc31os9wqlh,20,"[""White""]",No,Female,"The Netherlands - 2, US - 18",No,442749,NA,null,<p></p>,null,choice,dct,trinary,repulsion_A,2,washing machines,null,null,null,null,null,null,1,NA,NA,NA,NA,NA,NA,NA,NA,NA,NA
NA,NA,NA,NA,NA,choice_trial,survey-html-form,51,250999,0.0-4.0-1.23,265,1,2025-05-06T21:32:54Z,b60275e29fe2361ab97ac0ac217840d7,"Mozilla/5.0 (Macintosh; Intel Mac OS X 10_15_7) AppleWebKit/605.1.15 (KHTML, like Gecko) Version/18.3 Safari/605.1.15",Macintosh,Safari,18.3,OS X,10_15_7,https://5puzkbbxv1.cognition.run/?sona_id=57967,"en-US,en;q=0.9",nb13yc31os9wqlh,20,"[""White""]",No,Female,"The Netherlands - 2, US - 18",No,442749,NA,7625,NA,"{""product_choice"":""C""}",choice,dct,trinary,repulsion_A,2,washing machines,null,null,null,null,null,null,1,30,40,20,100,90,100,Average lifespan,Energy savings,NA,NA
NA,NA,NA,NA,NA,choice_trial_setup,html-keyboard-response,52,251302,0.0-4.0-0.24,265,1,2025-05-06T21:32:54Z,b60275e29fe2361ab97ac0ac217840d7,"Mozilla/5.0 (Macintosh; Intel Mac OS X 10_15_7) AppleWebKit/605.1.15 (KHTML, like Gecko) Version/18.3 Safari/605.1.15",Macintosh,Safari,18.3,OS X,10_15_7,https://5puzkbbxv1.cognition.run/?sona_id=57967,"en-US,en;q=0.9",nb13yc31os9wqlh,20,"[""White""]",No,Female,"The Netherlands - 2, US - 18",No,442749,NA,null,<p></p>,null,choice,ct,binary,repulsion,1,microwave ovens,null,null,null,null,null,null,1,NA,NA,NA,NA,NA,NA,NA,NA,NA,NA
NA,NA,NA,NA,NA,choice_trial,survey-html-form,53,257465,0.0-4.0-1.24,265,1,2025-05-06T21:32:54Z,b60275e29fe2361ab97ac0ac217840d7,"Mozilla/5.0 (Macintosh; Intel Mac OS X 10_15_7) AppleWebKit/605.1.15 (KHTML, like Gecko) Version/18.3 Safari/605.1.15",Macintosh,Safari,18.3,OS X,10_15_7,https://5puzkbbxv1.cognition.run/?sona_id=57967,"en-US,en;q=0.9",nb13yc31os9wqlh,20,"[""White""]",No,Female,"The Netherlands - 2, US - 18",No,442749,NA,6160,NA,"{""product_choice"":""A""}",choice,ct,binary,repulsion,1,microwave ovens,null,null,null,null,null,null,1,100,90,null,30,40,null,Warranty,Cooking power,NA,NA
NA,NA,NA,NA,NA,choice_trial_setup,html-keyboard-response,54,257769,0.0-4.0-0.25,265,1,2025-05-06T21:32:54Z,b60275e29fe2361ab97ac0ac217840d7,"Mozilla/5.0 (Macintosh; Intel Mac OS X 10_15_7) AppleWebKit/605.1.15 (KHTML, like Gecko) Version/18.3 Safari/605.1.15",Macintosh,Safari,18.3,OS X,10_15_7,https://5puzkbbxv1.cognition.run/?sona_id=57967,"en-US,en;q=0.9",nb13yc31os9wqlh,20,"[""White""]",No,Female,"The Netherlands - 2, US - 18",No,442749,NA,null,<p></p>,null,choice,tcd,trinary,repulsion_A,1,televisions,null,null,null,null,null,null,2,NA,NA,NA,NA,NA,NA,NA,NA,NA,NA
NA,NA,NA,NA,NA,choice_trial,survey-html-form,55,266666,0.0-4.0-1.25,265,1,2025-05-06T21:32:54Z,b60275e29fe2361ab97ac0ac217840d7,"Mozilla/5.0 (Macintosh; Intel Mac OS X 10_15_7) AppleWebKit/605.1.15 (KHTML, like Gecko) Version/18.3 Safari/605.1.15",Macintosh,Safari,18.3,OS X,10_15_7,https://5puzkbbxv1.cognition.run/?sona_id=57967,"en-US,en;q=0.9",nb13yc31os9wqlh,20,"[""White""]",No,Female,"The Netherlands - 2, US - 18",No,442749,NA,8894,NA,"{""product_choice"":""B""}",choice,tcd,trinary,repulsion_A,1,televisions,null,null,null,null,null,null,2,100,90,100,30,40,20,Screen size,Average lifespan,NA,NA
NA,NA,NA,NA,NA,choice_trial_setup,html-keyboard-response,56,266969,0.0-4.0-0.26,265,1,2025-05-06T21:32:54Z,b60275e29fe2361ab97ac0ac217840d7,"Mozilla/5.0 (Macintosh; Intel Mac OS X 10_15_7) AppleWebKit/605.1.15 (KHTML, like Gecko) Version/18.3 Safari/605.1.15",Macintosh,Safari,18.3,OS X,10_15_7,https://5puzkbbxv1.cognition.run/?sona_id=57967,"en-US,en;q=0.9",nb13yc31os9wqlh,20,"[""White""]",No,Female,"The Netherlands - 2, US - 18",No,442749,NA,null,<p></p>,null,choice,tdc,trinary,attraction,2,laptops,null,null,null,null,null,null,2,NA,NA,NA,NA,NA,NA,NA,NA,NA,NA
NA,NA,NA,NA,NA,choice_trial,survey-html-form,57,272348,0.0-4.0-1.26,265,1,2025-05-06T21:32:54Z,b60275e29fe2361ab97ac0ac217840d7,"Mozilla/5.0 (Macintosh; Intel Mac OS X 10_15_7) AppleWebKit/605.1.15 (KHTML, like Gecko) Version/18.3 Safari/605.1.15",Macintosh,Safari,18.3,OS X,10_15_7,https://5puzkbbxv1.cognition.run/?sona_id=57967,"en-US,en;q=0.9",nb13yc31os9wqlh,20,"[""White""]",No,Female,"The Netherlands - 2, US - 18",No,442749,NA,5376,NA,"{""product_choice"":""A""}",choice,tdc,trinary,attraction,2,laptops,null,null,null,null,null,null,2,50,60,40,60,50,60,Processing speed,Memory (RAM),NA,NA
NA,NA,NA,NA,NA,choice_trial_setup,html-keyboard-response,58,272651,0.0-4.0-0.27,265,1,2025-05-06T21:32:54Z,b60275e29fe2361ab97ac0ac217840d7,"Mozilla/5.0 (Macintosh; Intel Mac OS X 10_15_7) AppleWebKit/605.1.15 (KHTML, like Gecko) Version/18.3 Safari/605.1.15",Macintosh,Safari,18.3,OS X,10_15_7,https://5puzkbbxv1.cognition.run/?sona_id=57967,"en-US,en;q=0.9",nb13yc31os9wqlh,20,"[""White""]",No,Female,"The Netherlands - 2, US - 18",No,442749,NA,null,<p></p>,null,choice,ctd,trinary,repulsion_A,1,washing machines,null,null,null,null,null,null,1,NA,NA,NA,NA,NA,NA,NA,NA,NA,NA
NA,NA,NA,NA,NA,choice_trial,survey-html-form,59,277582,0.0-4.0-1.27,265,1,2025-05-06T21:32:54Z,b60275e29fe2361ab97ac0ac217840d7,"Mozilla/5.0 (Macintosh; Intel Mac OS X 10_15_7) AppleWebKit/605.1.15 (KHTML, like Gecko) Version/18.3 Safari/605.1.15",Macintosh,Safari,18.3,OS X,10_15_7,https://5puzkbbxv1.cognition.run/?sona_id=57967,"en-US,en;q=0.9",nb13yc31os9wqlh,20,"[""White""]",No,Female,"The Netherlands - 2, US - 18",No,442749,NA,4928,NA,"{""product_choice"":""A""}",choice,ctd,trinary,repulsion_A,1,washing machines,null,null,null,null,null,null,1,100,90,100,30,40,20,Average lifespan,Energy savings,NA,NA
NA,NA,NA,NA,NA,choice_trial_setup,html-keyboard-response,60,277885,0.0-4.0-0.28,265,1,2025-05-06T21:32:54Z,b60275e29fe2361ab97ac0ac217840d7,"Mozilla/5.0 (Macintosh; Intel Mac OS X 10_15_7) AppleWebKit/605.1.15 (KHTML, like Gecko) Version/18.3 Safari/605.1.15",Macintosh,Safari,18.3,OS X,10_15_7,https://5puzkbbxv1.cognition.run/?sona_id=57967,"en-US,en;q=0.9",nb13yc31os9wqlh,20,"[""White""]",No,Female,"The Netherlands - 2, US - 18",No,442749,NA,null,<p></p>,null,choice,tc,binary,repulsion,2,washing machines,null,null,null,null,null,null,2,NA,NA,NA,NA,NA,NA,NA,NA,NA,NA
NA,NA,NA,NA,NA,choice_trial,survey-html-form,61,282382,0.0-4.0-1.28,265,1,2025-05-06T21:32:54Z,b60275e29fe2361ab97ac0ac217840d7,"Mozilla/5.0 (Macintosh; Intel Mac OS X 10_15_7) AppleWebKit/605.1.15 (KHTML, like Gecko) Version/18.3 Safari/605.1.15",Macintosh,Safari,18.3,OS X,10_15_7,https://5puzkbbxv1.cognition.run/?sona_id=57967,"en-US,en;q=0.9",nb13yc31os9wqlh,20,"[""White""]",No,Female,"The Netherlands - 2, US - 18",No,442749,NA,4493,NA,"{""product_choice"":""B""}",choice,tc,binary,repulsion,2,washing machines,null,null,null,null,null,null,2,30,40,null,100,90,null,Average lifespan,Energy savings,NA,NA
NA,NA,NA,NA,NA,choice_trial_setup,html-keyboard-response,62,282686,0.0-4.0-0.29,265,1,2025-05-06T21:32:54Z,b60275e29fe2361ab97ac0ac217840d7,"Mozilla/5.0 (Macintosh; Intel Mac OS X 10_15_7) AppleWebKit/605.1.15 (KHTML, like Gecko) Version/18.3 Safari/605.1.15",Macintosh,Safari,18.3,OS X,10_15_7,https://5puzkbbxv1.cognition.run/?sona_id=57967,"en-US,en;q=0.9",nb13yc31os9wqlh,20,"[""White""]",No,Female,"The Netherlands - 2, US - 18",No,442749,NA,null,<p></p>,null,choice,bw,binary,catch,null,televisions,70,50,25,35,null,null,1,NA,NA,NA,NA,NA,NA,NA,NA,NA,NA
NA,NA,NA,NA,NA,choice_trial,survey-html-form,63,285583,0.0-4.0-1.29,265,1,2025-05-06T21:32:54Z,b60275e29fe2361ab97ac0ac217840d7,"Mozilla/5.0 (Macintosh; Intel Mac OS X 10_15_7) AppleWebKit/605.1.15 (KHTML, like Gecko) Version/18.3 Safari/605.1.15",Macintosh,Safari,18.3,OS X,10_15_7,https://5puzkbbxv1.cognition.run/?sona_id=57967,"en-US,en;q=0.9",nb13yc31os9wqlh,20,"[""White""]",No,Female,"The Netherlands - 2, US - 18",No,442749,NA,2893,NA,"{""product_choice"":""A""}",choice,bw,binary,catch,null,televisions,70,50,25,35,null,null,1,null,null,null,null,null,null,Screen size,Average lifespan,NA,NA
NA,NA,NA,NA,NA,choice_trial_setup,html-keyboard-response,64,285887,0.0-4.0-0.30,265,1,2025-05-06T21:32:54Z,b60275e29fe2361ab97ac0ac217840d7,"Mozilla/5.0 (Macintosh; Intel Mac OS X 10_15_7) AppleWebKit/605.1.15 (KHTML, like Gecko) Version/18.3 Safari/605.1.15",Macintosh,Safari,18.3,OS X,10_15_7,https://5puzkbbxv1.cognition.run/?sona_id=57967,"en-US,en;q=0.9",nb13yc31os9wqlh,20,"[""White""]",No,Female,"The Netherlands - 2, US - 18",No,442749,NA,null,<p></p>,null,choice,ct,binary,attraction,NA,televisions,null,null,null,null,null,null,1,NA,NA,NA,NA,NA,NA,NA,NA,NA,NA
NA,NA,NA,NA,NA,choice_trial,survey-html-form,65,291264,0.0-4.0-1.30,265,1,2025-05-06T21:32:54Z,b60275e29fe2361ab97ac0ac217840d7,"Mozilla/5.0 (Macintosh; Intel Mac OS X 10_15_7) AppleWebKit/605.1.15 (KHTML, like Gecko) Version/18.3 Safari/605.1.15",Macintosh,Safari,18.3,OS X,10_15_7,https://5puzkbbxv1.cognition.run/?sona_id=57967,"en-US,en;q=0.9",nb13yc31os9wqlh,20,"[""White""]",No,Female,"The Netherlands - 2, US - 18",No,442749,NA,5375,NA,"{""product_choice"":""A""}",choice,ct,binary,attraction,NA,televisions,null,null,null,null,null,null,1,60,50,null,50,60,null,Screen size,Average lifespan,NA,NA
NA,NA,NA,NA,NA,choice_trial_setup,html-keyboard-response,66,291568,0.0-4.0-0.31,265,1,2025-05-06T21:32:54Z,b60275e29fe2361ab97ac0ac217840d7,"Mozilla/5.0 (Macintosh; Intel Mac OS X 10_15_7) AppleWebKit/605.1.15 (KHTML, like Gecko) Version/18.3 Safari/605.1.15",Macintosh,Safari,18.3,OS X,10_15_7,https://5puzkbbxv1.cognition.run/?sona_id=57967,"en-US,en;q=0.9",nb13yc31os9wqlh,20,"[""White""]",No,Female,"The Netherlands - 2, US - 18",No,442749,NA,null,<p></p>,null,choice,dtc,trinary,repulsion_B,2,televisions,null,null,null,null,null,null,2,NA,NA,NA,NA,NA,NA,NA,NA,NA,NA
NA,NA,NA,NA,NA,choice_trial,survey-html-form,67,296864,0.0-4.0-1.31,265,1,2025-05-06T21:32:54Z,b60275e29fe2361ab97ac0ac217840d7,"Mozilla/5.0 (Macintosh; Intel Mac OS X 10_15_7) AppleWebKit/605.1.15 (KHTML, like Gecko) Version/18.3 Safari/605.1.15",Macintosh,Safari,18.3,OS X,10_15_7,https://5puzkbbxv1.cognition.run/?sona_id=57967,"en-US,en;q=0.9",nb13yc31os9wqlh,20,"[""White""]",No,Female,"The Netherlands - 2, US - 18",No,442749,NA,5292,NA,"{""product_choice"":""B""}",choice,dtc,trinary,repulsion_B,2,televisions,null,null,null,null,null,null,2,40,30,40,90,100,80,Screen size,Average lifespan,NA,NA
NA,NA,NA,NA,NA,choice_trial_setup,html-keyboard-response,68,297168,0.0-4.0-0.32,265,1,2025-05-06T21:32:54Z,b60275e29fe2361ab97ac0ac217840d7,"Mozilla/5.0 (Macintosh; Intel Mac OS X 10_15_7) AppleWebKit/605.1.15 (KHTML, like Gecko) Version/18.3 Safari/605.1.15",Macintosh,Safari,18.3,OS X,10_15_7,https://5puzkbbxv1.cognition.run/?sona_id=57967,"en-US,en;q=0.9",nb13yc31os9wqlh,20,"[""White""]",No,Female,"The Netherlands - 2, US - 18",No,442749,NA,null,<p></p>,null,choice,ctd,trinary,repulsion_B,1,microwave ovens,null,null,null,null,null,null,1,NA,NA,NA,NA,NA,NA,NA,NA,NA,NA
NA,NA,NA,NA,NA,choice_trial,survey-html-form,69,303581,0.0-4.0-1.32,265,1,2025-05-06T21:32:54Z,b60275e29fe2361ab97ac0ac217840d7,"Mozilla/5.0 (Macintosh; Intel Mac OS X 10_15_7) AppleWebKit/605.1.15 (KHTML, like Gecko) Version/18.3 Safari/605.1.15",Macintosh,Safari,18.3,OS X,10_15_7,https://5puzkbbxv1.cognition.run/?sona_id=57967,"en-US,en;q=0.9",nb13yc31os9wqlh,20,"[""White""]",No,Female,"The Netherlands - 2, US - 18",No,442749,NA,6409,NA,"{""product_choice"":""B""}",choice,ctd,trinary,repulsion_B,1,microwave ovens,null,null,null,null,null,null,1,90,100,80,40,30,40,Warranty,Cooking power,NA,NA
NA,NA,NA,NA,NA,choice_trial_setup,html-keyboard-response,70,303884,0.0-4.0-0.33,265,1,2025-05-06T21:32:54Z,b60275e29fe2361ab97ac0ac217840d7,"Mozilla/5.0 (Macintosh; Intel Mac OS X 10_15_7) AppleWebKit/605.1.15 (KHTML, like Gecko) Version/18.3 Safari/605.1.15",Macintosh,Safari,18.3,OS X,10_15_7,https://5puzkbbxv1.cognition.run/?sona_id=57967,"en-US,en;q=0.9",nb13yc31os9wqlh,20,"[""White""]",No,Female,"The Netherlands - 2, US - 18",No,442749,NA,null,<p></p>,null,choice,wwb,trinary,catch,null,laptops,65,90,15,10,20,25,2,NA,NA,NA,NA,NA,NA,NA,NA,NA,NA
NA,NA,NA,NA,NA,choice_trial,survey-html-form,71,307014,0.0-4.0-1.33,265,1,2025-05-06T21:32:54Z,b60275e29fe2361ab97ac0ac217840d7,"Mozilla/5.0 (Macintosh; Intel Mac OS X 10_15_7) AppleWebKit/605.1.15 (KHTML, like Gecko) Version/18.3 Safari/605.1.15",Macintosh,Safari,18.3,OS X,10_15_7,https://5puzkbbxv1.cognition.run/?sona_id=57967,"en-US,en;q=0.9",nb13yc31os9wqlh,20,"[""White""]",No,Female,"The Netherlands - 2, US - 18",No,442749,NA,3125,NA,"{""product_choice"":""C""}",choice,wwb,trinary,catch,null,laptops,65,90,15,10,20,25,2,null,null,null,null,null,null,Processing speed,Memory (RAM),NA,NA
NA,NA,NA,NA,NA,choice_trial_setup,html-keyboard-response,72,307318,0.0-4.0-0.34,265,1,2025-05-06T21:32:54Z,b60275e29fe2361ab97ac0ac217840d7,"Mozilla/5.0 (Macintosh; Intel Mac OS X 10_15_7) AppleWebKit/605.1.15 (KHTML, like Gecko) Version/18.3 Safari/605.1.15",Macintosh,Safari,18.3,OS X,10_15_7,https://5puzkbbxv1.cognition.run/?sona_id=57967,"en-US,en;q=0.9",nb13yc31os9wqlh,20,"[""White""]",No,Female,"The Netherlands - 2, US - 18",No,442749,NA,null,<p></p>,null,choice,tdc,trinary,repulsion_A,1,microwave ovens,null,null,null,null,null,null,2,NA,NA,NA,NA,NA,NA,NA,NA,NA,NA
NA,NA,NA,NA,NA,choice_trial,survey-html-form,73,316381,0.0-4.0-1.34,265,1,2025-05-06T21:32:54Z,b60275e29fe2361ab97ac0ac217840d7,"Mozilla/5.0 (Macintosh; Intel Mac OS X 10_15_7) AppleWebKit/605.1.15 (KHTML, like Gecko) Version/18.3 Safari/605.1.15",Macintosh,Safari,18.3,OS X,10_15_7,https://5puzkbbxv1.cognition.run/?sona_id=57967,"en-US,en;q=0.9",nb13yc31os9wqlh,20,"[""White""]",No,Female,"The Netherlands - 2, US - 18",No,442749,NA,9059,NA,"{""product_choice"":""C""}",choice,tdc,trinary,repulsion_A,1,microwave ovens,null,null,null,null,null,null,2,100,90,100,30,40,20,Warranty,Cooking power,NA,NA
NA,NA,NA,NA,NA,choice_trial_setup,html-keyboard-response,74,316684,0.0-4.0-0.35,265,1,2025-05-06T21:32:54Z,b60275e29fe2361ab97ac0ac217840d7,"Mozilla/5.0 (Macintosh; Intel Mac OS X 10_15_7) AppleWebKit/605.1.15 (KHTML, like Gecko) Version/18.3 Safari/605.1.15",Macintosh,Safari,18.3,OS X,10_15_7,https://5puzkbbxv1.cognition.run/?sona_id=57967,"en-US,en;q=0.9",nb13yc31os9wqlh,20,"[""White""]",No,Female,"The Netherlands - 2, US - 18",No,442749,NA,null,<p></p>,null,choice,tcd,trinary,attraction,1,washing machines,null,null,null,null,null,null,2,NA,NA,NA,NA,NA,NA,NA,NA,NA,NA
NA,NA,NA,NA,NA,choice_trial,survey-html-form,75,325731,0.0-4.0-1.35,265,1,2025-05-06T21:32:54Z,b60275e29fe2361ab97ac0ac217840d7,"Mozilla/5.0 (Macintosh; Intel Mac OS X 10_15_7) AppleWebKit/605.1.15 (KHTML, like Gecko) Version/18.3 Safari/605.1.15",Macintosh,Safari,18.3,OS X,10_15_7,https://5puzkbbxv1.cognition.run/?sona_id=57967,"en-US,en;q=0.9",nb13yc31os9wqlh,20,"[""White""]",No,Female,"The Netherlands - 2, US - 18",No,442749,NA,9043,NA,"{""product_choice"":""B""}",choice,tcd,trinary,attraction,1,washing machines,null,null,null,null,null,null,2,60,50,60,50,60,40,Average lifespan,Energy savings,NA,NA
NA,NA,NA,NA,NA,choice_trial_setup,html-keyboard-response,76,326034,0.0-4.0-0.36,265,1,2025-05-06T21:32:54Z,b60275e29fe2361ab97ac0ac217840d7,"Mozilla/5.0 (Macintosh; Intel Mac OS X 10_15_7) AppleWebKit/605.1.15 (KHTML, like Gecko) Version/18.3 Safari/605.1.15",Macintosh,Safari,18.3,OS X,10_15_7,https://5puzkbbxv1.cognition.run/?sona_id=57967,"en-US,en;q=0.9",nb13yc31os9wqlh,20,"[""White""]",No,Female,"The Netherlands - 2, US - 18",No,442749,NA,null,<p></p>,null,choice,cdt,trinary,repulsion_B,1,televisions,null,null,null,null,null,null,1,NA,NA,NA,NA,NA,NA,NA,NA,NA,NA
NA,NA,NA,NA,NA,choice_trial,survey-html-form,77,332415,0.0-4.0-1.36,265,1,2025-05-06T21:32:54Z,b60275e29fe2361ab97ac0ac217840d7,"Mozilla/5.0 (Macintosh; Intel Mac OS X 10_15_7) AppleWebKit/605.1.15 (KHTML, like Gecko) Version/18.3 Safari/605.1.15",Macintosh,Safari,18.3,OS X,10_15_7,https://5puzkbbxv1.cognition.run/?sona_id=57967,"en-US,en;q=0.9",nb13yc31os9wqlh,20,"[""White""]",No,Female,"The Netherlands - 2, US - 18",No,442749,NA,6370,NA,"{""product_choice"":""C""}",choice,cdt,trinary,repulsion_B,1,televisions,null,null,null,null,null,null,1,90,100,80,40,30,40,Screen size,Average lifespan,NA,NA
NA,NA,NA,NA,NA,choice_trial_setup,html-keyboard-response,78,332720,0.0-4.0-0.37,265,1,2025-05-06T21:32:54Z,b60275e29fe2361ab97ac0ac217840d7,"Mozilla/5.0 (Macintosh; Intel Mac OS X 10_15_7) AppleWebKit/605.1.15 (KHTML, like Gecko) Version/18.3 Safari/605.1.15",Macintosh,Safari,18.3,OS X,10_15_7,https://5puzkbbxv1.cognition.run/?sona_id=57967,"en-US,en;q=0.9",nb13yc31os9wqlh,20,"[""White""]",No,Female,"The Netherlands - 2, US - 18",No,442749,NA,null,<p></p>,null,choice,dct,trinary,repulsion_B,2,laptops,null,null,null,null,null,null,2,NA,NA,NA,NA,NA,NA,NA,NA,NA,NA
NA,NA,NA,NA,NA,choice_trial,survey-html-form,79,337647,0.0-4.0-1.37,265,1,2025-05-06T21:32:54Z,b60275e29fe2361ab97ac0ac217840d7,"Mozilla/5.0 (Macintosh; Intel Mac OS X 10_15_7) AppleWebKit/605.1.15 (KHTML, like Gecko) Version/18.3 Safari/605.1.15",Macintosh,Safari,18.3,OS X,10_15_7,https://5puzkbbxv1.cognition.run/?sona_id=57967,"en-US,en;q=0.9",nb13yc31os9wqlh,20,"[""White""]",No,Female,"The Netherlands - 2, US - 18",No,442749,NA,4923,NA,"{""product_choice"":""C""}",choice,dct,trinary,repulsion_B,2,laptops,null,null,null,null,null,null,2,40,30,40,90,100,80,Processing speed,Memory (RAM),NA,NA
NA,NA,NA,NA,NA,choice_trial_setup,html-keyboard-response,80,337951,0.0-4.0-0.38,265,1,2025-05-06T21:32:54Z,b60275e29fe2361ab97ac0ac217840d7,"Mozilla/5.0 (Macintosh; Intel Mac OS X 10_15_7) AppleWebKit/605.1.15 (KHTML, like Gecko) Version/18.3 Safari/605.1.15",Macintosh,Safari,18.3,OS X,10_15_7,https://5puzkbbxv1.cognition.run/?sona_id=57967,"en-US,en;q=0.9",nb13yc31os9wqlh,20,"[""White""]",No,Female,"The Netherlands - 2, US - 18",No,442749,NA,null,<p></p>,null,choice,tc,binary,repulsion,1,washing machines,null,null,null,null,null,null,1,NA,NA,NA,NA,NA,NA,NA,NA,NA,NA
NA,NA,NA,NA,NA,choice_trial,survey-html-form,81,342979,0.0-4.0-1.38,265,1,2025-05-06T21:32:54Z,b60275e29fe2361ab97ac0ac217840d7,"Mozilla/5.0 (Macintosh; Intel Mac OS X 10_15_7) AppleWebKit/605.1.15 (KHTML, like Gecko) Version/18.3 Safari/605.1.15",Macintosh,Safari,18.3,OS X,10_15_7,https://5puzkbbxv1.cognition.run/?sona_id=57967,"en-US,en;q=0.9",nb13yc31os9wqlh,20,"[""White""]",No,Female,"The Netherlands - 2, US - 18",No,442749,NA,5024,NA,"{""product_choice"":""B""}",choice,tc,binary,repulsion,1,washing machines,null,null,null,null,null,null,1,100,90,null,30,40,null,Average lifespan,Energy savings,NA,NA
NA,NA,NA,NA,NA,choice_trial_setup,html-keyboard-response,82,343282,0.0-4.0-0.39,265,1,2025-05-06T21:32:54Z,b60275e29fe2361ab97ac0ac217840d7,"Mozilla/5.0 (Macintosh; Intel Mac OS X 10_15_7) AppleWebKit/605.1.15 (KHTML, like Gecko) Version/18.3 Safari/605.1.15",Macintosh,Safari,18.3,OS X,10_15_7,https://5puzkbbxv1.cognition.run/?sona_id=57967,"en-US,en;q=0.9",nb13yc31os9wqlh,20,"[""White""]",No,Female,"The Netherlands - 2, US - 18",No,442749,NA,null,<p></p>,null,choice,tdc,trinary,repulsion_B,2,microwave ovens,null,null,null,null,null,null,2,NA,NA,NA,NA,NA,NA,NA,NA,NA,NA
NA,NA,NA,NA,NA,choice_trial,survey-html-form,83,349030,0.0-4.0-1.39,265,1,2025-05-06T21:32:54Z,b60275e29fe2361ab97ac0ac217840d7,"Mozilla/5.0 (Macintosh; Intel Mac OS X 10_15_7) AppleWebKit/605.1.15 (KHTML, like Gecko) Version/18.3 Safari/605.1.15",Macintosh,Safari,18.3,OS X,10_15_7,https://5puzkbbxv1.cognition.run/?sona_id=57967,"en-US,en;q=0.9",nb13yc31os9wqlh,20,"[""White""]",No,Female,"The Netherlands - 2, US - 18",No,442749,NA,5745,NA,"{""product_choice"":""A""}",choice,tdc,trinary,repulsion_B,2,microwave ovens,null,null,null,null,null,null,2,40,30,40,90,100,80,Warranty,Cooking power,NA,NA
NA,NA,NA,NA,NA,choice_trial_setup,html-keyboard-response,84,349333,0.0-4.0-0.40,265,1,2025-05-06T21:32:54Z,b60275e29fe2361ab97ac0ac217840d7,"Mozilla/5.0 (Macintosh; Intel Mac OS X 10_15_7) AppleWebKit/605.1.15 (KHTML, like Gecko) Version/18.3 Safari/605.1.15",Macintosh,Safari,18.3,OS X,10_15_7,https://5puzkbbxv1.cognition.run/?sona_id=57967,"en-US,en;q=0.9",nb13yc31os9wqlh,20,"[""White""]",No,Female,"The Netherlands - 2, US - 18",No,442749,NA,null,<p></p>,null,choice,cdt,trinary,repulsion_B,2,washing machines,null,null,null,null,null,null,1,NA,NA,NA,NA,NA,NA,NA,NA,NA,NA
NA,NA,NA,NA,NA,choice_trial,survey-html-form,85,355597,0.0-4.0-1.40,265,1,2025-05-06T21:32:54Z,b60275e29fe2361ab97ac0ac217840d7,"Mozilla/5.0 (Macintosh; Intel Mac OS X 10_15_7) AppleWebKit/605.1.15 (KHTML, like Gecko) Version/18.3 Safari/605.1.15",Macintosh,Safari,18.3,OS X,10_15_7,https://5puzkbbxv1.cognition.run/?sona_id=57967,"en-US,en;q=0.9",nb13yc31os9wqlh,20,"[""White""]",No,Female,"The Netherlands - 2, US - 18",No,442749,NA,6259,NA,"{""product_choice"":""C""}",choice,cdt,trinary,repulsion_B,2,washing machines,null,null,null,null,null,null,1,40,30,40,90,100,80,Average lifespan,Energy savings,NA,NA
NA,NA,NA,NA,NA,choice_trial_setup,html-keyboard-response,86,355900,0.0-4.0-0.41,265,1,2025-05-06T21:32:54Z,b60275e29fe2361ab97ac0ac217840d7,"Mozilla/5.0 (Macintosh; Intel Mac OS X 10_15_7) AppleWebKit/605.1.15 (KHTML, like Gecko) Version/18.3 Safari/605.1.15",Macintosh,Safari,18.3,OS X,10_15_7,https://5puzkbbxv1.cognition.run/?sona_id=57967,"en-US,en;q=0.9",nb13yc31os9wqlh,20,"[""White""]",No,Female,"The Netherlands - 2, US - 18",No,442749,NA,null,<p></p>,null,choice,wbw,trinary,catch,null,microwave ovens,90,50,35,5,50,30,1,NA,NA,NA,NA,NA,NA,NA,NA,NA,NA
NA,NA,NA,NA,NA,choice_trial,survey-html-form,87,360347,0.0-4.0-1.41,265,1,2025-05-06T21:32:54Z,b60275e29fe2361ab97ac0ac217840d7,"Mozilla/5.0 (Macintosh; Intel Mac OS X 10_15_7) AppleWebKit/605.1.15 (KHTML, like Gecko) Version/18.3 Safari/605.1.15",Macintosh,Safari,18.3,OS X,10_15_7,https://5puzkbbxv1.cognition.run/?sona_id=57967,"en-US,en;q=0.9",nb13yc31os9wqlh,20,"[""White""]",No,Female,"The Netherlands - 2, US - 18",No,442749,NA,4442,NA,"{""product_choice"":""B""}",choice,wbw,trinary,catch,null,microwave ovens,90,50,35,5,50,30,1,null,null,null,null,null,null,Warranty,Cooking power,NA,NA
NA,NA,NA,NA,NA,choice_trial_setup,html-keyboard-response,88,360650,0.0-4.0-0.42,265,1,2025-05-06T21:32:54Z,b60275e29fe2361ab97ac0ac217840d7,"Mozilla/5.0 (Macintosh; Intel Mac OS X 10_15_7) AppleWebKit/605.1.15 (KHTML, like Gecko) Version/18.3 Safari/605.1.15",Macintosh,Safari,18.3,OS X,10_15_7,https://5puzkbbxv1.cognition.run/?sona_id=57967,"en-US,en;q=0.9",nb13yc31os9wqlh,20,"[""White""]",No,Female,"The Netherlands - 2, US - 18",No,442749,NA,null,<p></p>,null,choice,tdc,trinary,repulsion_B,1,laptops,null,null,null,null,null,null,2,NA,NA,NA,NA,NA,NA,NA,NA,NA,NA
NA,NA,NA,NA,NA,choice_trial,survey-html-form,89,366029,0.0-4.0-1.42,265,1,2025-05-06T21:32:54Z,b60275e29fe2361ab97ac0ac217840d7,"Mozilla/5.0 (Macintosh; Intel Mac OS X 10_15_7) AppleWebKit/605.1.15 (KHTML, like Gecko) Version/18.3 Safari/605.1.15",Macintosh,Safari,18.3,OS X,10_15_7,https://5puzkbbxv1.cognition.run/?sona_id=57967,"en-US,en;q=0.9",nb13yc31os9wqlh,20,"[""White""]",No,Female,"The Netherlands - 2, US - 18",No,442749,NA,5375,NA,"{""product_choice"":""A""}",choice,tdc,trinary,repulsion_B,1,laptops,null,null,null,null,null,null,2,90,100,80,40,30,40,Processing speed,Memory (RAM),NA,NA
NA,NA,NA,NA,NA,choice_trial_setup,html-keyboard-response,90,366332,0.0-4.0-0.43,265,1,2025-05-06T21:32:54Z,b60275e29fe2361ab97ac0ac217840d7,"Mozilla/5.0 (Macintosh; Intel Mac OS X 10_15_7) AppleWebKit/605.1.15 (KHTML, like Gecko) Version/18.3 Safari/605.1.15",Macintosh,Safari,18.3,OS X,10_15_7,https://5puzkbbxv1.cognition.run/?sona_id=57967,"en-US,en;q=0.9",nb13yc31os9wqlh,20,"[""White""]",No,Female,"The Netherlands - 2, US - 18",No,442749,NA,null,<p></p>,null,choice,dct,trinary,repulsion_A,2,laptops,null,null,null,null,null,null,2,NA,NA,NA,NA,NA,NA,NA,NA,NA,NA
NA,NA,NA,NA,NA,choice_trial,survey-html-form,91,371563,0.0-4.0-1.43,265,1,2025-05-06T21:32:54Z,b60275e29fe2361ab97ac0ac217840d7,"Mozilla/5.0 (Macintosh; Intel Mac OS X 10_15_7) AppleWebKit/605.1.15 (KHTML, like Gecko) Version/18.3 Safari/605.1.15",Macintosh,Safari,18.3,OS X,10_15_7,https://5puzkbbxv1.cognition.run/?sona_id=57967,"en-US,en;q=0.9",nb13yc31os9wqlh,20,"[""White""]",No,Female,"The Netherlands - 2, US - 18",No,442749,NA,5227,NA,"{""product_choice"":""B""}",choice,dct,trinary,repulsion_A,2,laptops,null,null,null,null,null,null,2,30,40,20,100,90,100,Processing speed,Memory (RAM),NA,NA
NA,NA,NA,NA,NA,post_trials_message,html-button-response,92,373329,0.0-5.0,265,1,2025-05-06T21:32:54Z,b60275e29fe2361ab97ac0ac217840d7,"Mozilla/5.0 (Macintosh; Intel Mac OS X 10_15_7) AppleWebKit/605.1.15 (KHTML, like Gecko) Version/18.3 Safari/605.1.15",Macintosh,Safari,18.3,OS X,10_15_7,https://5puzkbbxv1.cognition.run/?sona_id=57967,"en-US,en;q=0.9",nb13yc31os9wqlh,20,"[""White""]",No,Female,"The Netherlands - 2, US - 18",No,442749,NA,1761,<p> <b>Thank you for your patience!</b></p><p>  The study will be done after completing a brief form. </p>,0,NA,NA,NA,NA,NA,NA,NA,NA,NA,NA,NA,NA,NA,NA,NA,NA,NA,NA,NA,NA,NA,NA,NA
NA,NA,NA,NA,NA,survey_message,survey-text,93,400366,0.0-6.0,265,1,2025-05-06T21:32:54Z,b60275e29fe2361ab97ac0ac217840d7,"Mozilla/5.0 (Macintosh; Intel Mac OS X 10_15_7) AppleWebKit/605.1.15 (KHTML, like Gecko) Version/18.3 Safari/605.1.15",Macintosh,Safari,18.3,OS X,10_15_7,https://5puzkbbxv1.cognition.run/?sona_id=57967,"en-US,en;q=0.9",nb13yc31os9wqlh,20,"[""White""]",No,Female,"The Netherlands - 2, US - 18",No,442749,NA,27015,NA,"{""Q0"":""I don't care about warranties, the other products I cared about both issues so I would choose highest overall scores""}",NA,NA,NA,NA,NA,NA,NA,NA,NA,NA,NA,NA,NA,NA,NA,NA,NA,NA,NA,NA,NA,"I don't care about warranties, the other products I cared about both issues so I would choose highest overall scores",NA
NA,NA,NA,NA,NA,demo_age,survey-text,94,402996,0.0-7.0,265,1,2025-05-06T21:32:54Z,b60275e29fe2361ab97ac0ac217840d7,"Mozilla/5.0 (Macintosh; Intel Mac OS X 10_15_7) AppleWebKit/605.1.15 (KHTML, like Gecko) Version/18.3 Safari/605.1.15",Macintosh,Safari,18.3,OS X,10_15_7,https://5puzkbbxv1.cognition.run/?sona_id=57967,"en-US,en;q=0.9",nb13yc31os9wqlh,20,"[""White""]",No,Female,"The Netherlands - 2, US - 18",No,442749,NA,2620,NA,"{""Q0"":""20""}",NA,NA,NA,NA,NA,NA,NA,NA,NA,NA,NA,NA,NA,NA,NA,NA,NA,NA,NA,NA,NA,NA,NA
NA,NA,NA,NA,NA,demo_race,survey-multi-select,95,405400,0.0-8.0,265,1,2025-05-06T21:32:54Z,b60275e29fe2361ab97ac0ac217840d7,"Mozilla/5.0 (Macintosh; Intel Mac OS X 10_15_7) AppleWebKit/605.1.15 (KHTML, like Gecko) Version/18.3 Safari/605.1.15",Macintosh,Safari,18.3,OS X,10_15_7,https://5puzkbbxv1.cognition.run/?sona_id=57967,"en-US,en;q=0.9",nb13yc31os9wqlh,20,"[""White""]",No,Female,"The Netherlands - 2, US - 18",No,442749,NA,2399,NA,"{""Q0"":[""White""]}",NA,NA,NA,NA,NA,NA,NA,NA,NA,NA,NA,NA,NA,NA,NA,NA,NA,NA,NA,NA,NA,NA,[0]
NA,NA,NA,NA,NA,demo_ethnicity_gender,survey-multi-choice,96,409364,0.0-9.0,265,1,2025-05-06T21:32:54Z,b60275e29fe2361ab97ac0ac217840d7,"Mozilla/5.0 (Macintosh; Intel Mac OS X 10_15_7) AppleWebKit/605.1.15 (KHTML, like Gecko) Version/18.3 Safari/605.1.15",Macintosh,Safari,18.3,OS X,10_15_7,https://5puzkbbxv1.cognition.run/?sona_id=57967,"en-US,en;q=0.9",nb13yc31os9wqlh,20,"[""White""]",No,Female,"The Netherlands - 2, US - 18",No,442749,NA,3958,NA,"{""Q0"":""No"",""Q1"":""Female""}",NA,NA,NA,NA,NA,NA,NA,NA,NA,NA,NA,NA,NA,NA,NA,NA,NA,NA,NA,NA,NA,NA,"[0,1]"
NA,NA,NA,NA,NA,demo_countries,survey-text,97,423370,0.0-10.0,265,1,2025-05-06T21:32:54Z,b60275e29fe2361ab97ac0ac217840d7,"Mozilla/5.0 (Macintosh; Intel Mac OS X 10_15_7) AppleWebKit/605.1.15 (KHTML, like Gecko) Version/18.3 Safari/605.1.15",Macintosh,Safari,18.3,OS X,10_15_7,https://5puzkbbxv1.cognition.run/?sona_id=57967,"en-US,en;q=0.9",nb13yc31os9wqlh,20,"[""White""]",No,Female,"The Netherlands - 2, US - 18",No,442749,NA,14001,NA,"{""Q0"":""The Netherlands - 2, US - 18""}",NA,NA,NA,NA,NA,NA,NA,NA,NA,NA,NA,NA,NA,NA,NA,NA,NA,NA,NA,NA,NA,NA,NA
NA,NA,NA,NA,NA,demo_prev_study,survey-multi-choice,98,426845,0.0-11.0,265,1,2025-05-06T21:32:54Z,b60275e29fe2361ab97ac0ac217840d7,"Mozilla/5.0 (Macintosh; Intel Mac OS X 10_15_7) AppleWebKit/605.1.15 (KHTML, like Gecko) Version/18.3 Safari/605.1.15",Macintosh,Safari,18.3,OS X,10_15_7,https://5puzkbbxv1.cognition.run/?sona_id=57967,"en-US,en;q=0.9",nb13yc31os9wqlh,20,"[""White""]",No,Female,"The Netherlands - 2, US - 18",No,442749,NA,3470,NA,"{""Q0"":""No""}",NA,NA,NA,NA,NA,NA,NA,NA,NA,NA,NA,NA,NA,NA,NA,NA,NA,NA,NA,NA,NA,NA,[0]
NA,NA,NA,NA,NA,post_survey_message,html-keyboard-response,99,430010,0.0-12.0,265,1,2025-05-06T21:32:54Z,b60275e29fe2361ab97ac0ac217840d7,"Mozilla/5.0 (Macintosh; Intel Mac OS X 10_15_7) AppleWebKit/605.1.15 (KHTML, like Gecko) Version/18.3 Safari/605.1.15",Macintosh,Safari,18.3,OS X,10_15_7,https://5puzkbbxv1.cognition.run/?sona_id=57967,"en-US,en;q=0.9",nb13yc31os9wqlh,20,"[""White""]",No,Female,"The Netherlands - 2, US - 18",No,442749,NA,3161,NA,j,NA,NA,NA,NA,NA,NA,NA,NA,NA,NA,NA,NA,NA,NA,NA,NA,NA,NA,NA,NA,NA,NA,NA
NA,NA,NA,NA,NA,debrief,image-keyboard-response,100,442743,0.0-13.0,265,1,2025-05-06T21:32:54Z,b60275e29fe2361ab97ac0ac217840d7,"Mozilla/5.0 (Macintosh; Intel Mac OS X 10_15_7) AppleWebKit/605.1.15 (KHTML, like Gecko) Version/18.3 Safari/605.1.15",Macintosh,Safari,18.3,OS X,10_15_7,https://5puzkbbxv1.cognition.run/?sona_id=57967,"en-US,en;q=0.9",nb13yc31os9wqlh,20,"[""White""]",No,Female,"The Netherlands - 2, US - 18",No,442749,NA,12703,Judg_choice_debrief.png,p,NA,NA,NA,NA,NA,NA,NA,NA,NA,NA,NA,NA,NA,NA,NA,NA,NA,NA,NA,NA,NA,NA,NA
