success,timeout,failed_images,failed_audio,failed_video,screen_id,trial_type,trial_index,time_elapsed,internal_node_id,run_id,condition,recorded_at,source_code_version,user_agent,device,browser,browser_version,platform,platform_version,referer,accept_language,ppt_id,age,race,ethnicity,gender,other_countries,prev_study,view_history,rt,stimulus,response,phase,order,set,effect,t_high,category,d1_best,d2_best,d1_worst1,d2_worst1,d1_worst2,d2_worst2,first_dim,d1_t,d1_c,d1_d,d2_t,d2_c,d2_d,d1_name,d2_name,strategy_response,question_order
TRUE,FALSE,[],[],[],img preload,preload,0,186,0.0-0.0,266,1,2025-05-06T21:53:43Z,b60275e29fe2361ab97ac0ac217840d7,"Mozilla/5.0 (X11; CrOS x86_64 14541.0.0) AppleWebKit/537.36 (KHTML, like Gecko) Chrome/134.0.0.0 Safari/537.36",WebKit,Chrome,134.0.0.0,ChromeOS,14541.0.0,https://5puzkbbxv1.cognition.run/?sona_id=57181,"en-US,en;q=0.9",w7femy1pog3wdbl,21,"[""White""]",No,Male,none,No,NA,NA,NA,NA,NA,NA,NA,NA,NA,NA,NA,NA,NA,NA,NA,NA,NA,NA,NA,NA,NA,NA,NA,NA,NA,NA,NA
NA,NA,NA,NA,NA,computer_message,instructions,1,7264,0.0-1.0,266,1,2025-05-06T21:53:43Z,b60275e29fe2361ab97ac0ac217840d7,"Mozilla/5.0 (X11; CrOS x86_64 14541.0.0) AppleWebKit/537.36 (KHTML, like Gecko) Chrome/134.0.0.0 Safari/537.36",WebKit,Chrome,134.0.0.0,ChromeOS,14541.0.0,https://5puzkbbxv1.cognition.run/?sona_id=57181,"en-US,en;q=0.9",w7femy1pog3wdbl,21,"[""White""]",No,Male,none,No,"[{""page_index"":0,""viewing_time"":7075}]",7076,NA,NA,NA,NA,NA,NA,NA,NA,NA,NA,NA,NA,NA,NA,NA,NA,NA,NA,NA,NA,NA,NA,NA,NA,NA
TRUE,NA,NA,NA,NA,NA,fullscreen,2,11041,0.0-2.0,266,1,2025-05-06T21:53:43Z,b60275e29fe2361ab97ac0ac217840d7,"Mozilla/5.0 (X11; CrOS x86_64 14541.0.0) AppleWebKit/537.36 (KHTML, like Gecko) Chrome/134.0.0.0 Safari/537.36",WebKit,Chrome,134.0.0.0,ChromeOS,14541.0.0,https://5puzkbbxv1.cognition.run/?sona_id=57181,"en-US,en;q=0.9",w7femy1pog3wdbl,21,"[""White""]",No,Male,none,No,NA,2772,NA,NA,NA,NA,NA,NA,NA,NA,NA,NA,NA,NA,NA,NA,NA,NA,NA,NA,NA,NA,NA,NA,NA,NA,NA
NA,NA,NA,NA,NA,choice_instructions,instructions,3,74934,0.0-3.0,266,1,2025-05-06T21:53:43Z,b60275e29fe2361ab97ac0ac217840d7,"Mozilla/5.0 (X11; CrOS x86_64 14541.0.0) AppleWebKit/537.36 (KHTML, like Gecko) Chrome/134.0.0.0 Safari/537.36",WebKit,Chrome,134.0.0.0,ChromeOS,14541.0.0,https://5puzkbbxv1.cognition.run/?sona_id=57181,"en-US,en;q=0.9",w7femy1pog3wdbl,21,"[""White""]",No,Male,none,No,"[{""page_index"":0,""viewing_time"":1697},{""page_index"":1,""viewing_time"":6524},{""page_index"":2,""viewing_time"":1261},{""page_index"":3,""viewing_time"":1727},{""page_index"":2,""viewing_time"":6699},{""page_index"":3,""viewing_time"":9879},{""page_index"":4,""viewing_time"":6299},{""page_index"":5,""viewing_time"":18199},{""page_index"":6,""viewing_time"":11608}]",63892,NA,NA,NA,NA,NA,NA,NA,NA,NA,NA,NA,NA,NA,NA,NA,NA,NA,NA,NA,NA,NA,NA,NA,NA,NA
NA,NA,NA,NA,NA,choice_trial_setup,html-keyboard-response,4,75241,0.0-4.0-0.0,266,1,2025-05-06T21:53:43Z,b60275e29fe2361ab97ac0ac217840d7,"Mozilla/5.0 (X11; CrOS x86_64 14541.0.0) AppleWebKit/537.36 (KHTML, like Gecko) Chrome/134.0.0.0 Safari/537.36",WebKit,Chrome,134.0.0.0,ChromeOS,14541.0.0,https://5puzkbbxv1.cognition.run/?sona_id=57181,"en-US,en;q=0.9",w7femy1pog3wdbl,21,"[""White""]",No,Male,none,No,NA,null,<p></p>,null,choice,tc,binary,attraction,NA,washing machines,null,null,null,null,null,null,1,NA,NA,NA,NA,NA,NA,NA,NA,NA,NA
NA,NA,NA,NA,NA,choice_trial,survey-html-form,5,90212,0.0-4.0-1.0,266,1,2025-05-06T21:53:43Z,b60275e29fe2361ab97ac0ac217840d7,"Mozilla/5.0 (X11; CrOS x86_64 14541.0.0) AppleWebKit/537.36 (KHTML, like Gecko) Chrome/134.0.0.0 Safari/537.36",WebKit,Chrome,134.0.0.0,ChromeOS,14541.0.0,https://5puzkbbxv1.cognition.run/?sona_id=57181,"en-US,en;q=0.9",w7femy1pog3wdbl,21,"[""White""]",No,Male,none,No,NA,14966,NA,"{""product_choice"":""A""}",choice,tc,binary,attraction,NA,washing machines,null,null,null,null,null,null,1,60,50,null,50,60,null,Average lifespan,Energy savings,NA,NA
NA,NA,NA,NA,NA,choice_trial_setup,html-keyboard-response,6,90517,0.0-4.0-0.1,266,1,2025-05-06T21:53:43Z,b60275e29fe2361ab97ac0ac217840d7,"Mozilla/5.0 (X11; CrOS x86_64 14541.0.0) AppleWebKit/537.36 (KHTML, like Gecko) Chrome/134.0.0.0 Safari/537.36",WebKit,Chrome,134.0.0.0,ChromeOS,14541.0.0,https://5puzkbbxv1.cognition.run/?sona_id=57181,"en-US,en;q=0.9",w7femy1pog3wdbl,21,"[""White""]",No,Male,none,No,NA,null,<p></p>,null,choice,tcd,trinary,attraction,2,microwave ovens,null,null,null,null,null,null,2,NA,NA,NA,NA,NA,NA,NA,NA,NA,NA
NA,NA,NA,NA,NA,choice_trial,survey-html-form,7,102187,0.0-4.0-1.1,266,1,2025-05-06T21:53:43Z,b60275e29fe2361ab97ac0ac217840d7,"Mozilla/5.0 (X11; CrOS x86_64 14541.0.0) AppleWebKit/537.36 (KHTML, like Gecko) Chrome/134.0.0.0 Safari/537.36",WebKit,Chrome,134.0.0.0,ChromeOS,14541.0.0,https://5puzkbbxv1.cognition.run/?sona_id=57181,"en-US,en;q=0.9",w7femy1pog3wdbl,21,"[""White""]",No,Male,none,No,NA,11665,NA,"{""product_choice"":""B""}",choice,tcd,trinary,attraction,2,microwave ovens,null,null,null,null,null,null,2,50,60,40,60,50,60,Warranty,Cooking power,NA,NA
NA,NA,NA,NA,NA,choice_trial_setup,html-keyboard-response,8,102493,0.0-4.0-0.2,266,1,2025-05-06T21:53:43Z,b60275e29fe2361ab97ac0ac217840d7,"Mozilla/5.0 (X11; CrOS x86_64 14541.0.0) AppleWebKit/537.36 (KHTML, like Gecko) Chrome/134.0.0.0 Safari/537.36",WebKit,Chrome,134.0.0.0,ChromeOS,14541.0.0,https://5puzkbbxv1.cognition.run/?sona_id=57181,"en-US,en;q=0.9",w7femy1pog3wdbl,21,"[""White""]",No,Male,none,No,NA,null,<p></p>,null,choice,tdc,trinary,attraction,2,televisions,null,null,null,null,null,null,2,NA,NA,NA,NA,NA,NA,NA,NA,NA,NA
NA,NA,NA,NA,NA,choice_trial,survey-html-form,9,112485,0.0-4.0-1.2,266,1,2025-05-06T21:53:43Z,b60275e29fe2361ab97ac0ac217840d7,"Mozilla/5.0 (X11; CrOS x86_64 14541.0.0) AppleWebKit/537.36 (KHTML, like Gecko) Chrome/134.0.0.0 Safari/537.36",WebKit,Chrome,134.0.0.0,ChromeOS,14541.0.0,https://5puzkbbxv1.cognition.run/?sona_id=57181,"en-US,en;q=0.9",w7femy1pog3wdbl,21,"[""White""]",No,Male,none,No,NA,9987,NA,"{""product_choice"":""C""}",choice,tdc,trinary,attraction,2,televisions,null,null,null,null,null,null,2,50,60,40,60,50,60,Screen size,Average lifespan,NA,NA
NA,NA,NA,NA,NA,choice_trial_setup,html-keyboard-response,10,112789,0.0-4.0-0.3,266,1,2025-05-06T21:53:43Z,b60275e29fe2361ab97ac0ac217840d7,"Mozilla/5.0 (X11; CrOS x86_64 14541.0.0) AppleWebKit/537.36 (KHTML, like Gecko) Chrome/134.0.0.0 Safari/537.36",WebKit,Chrome,134.0.0.0,ChromeOS,14541.0.0,https://5puzkbbxv1.cognition.run/?sona_id=57181,"en-US,en;q=0.9",w7femy1pog3wdbl,21,"[""White""]",No,Male,none,No,NA,null,<p></p>,null,choice,tcd,trinary,attraction,1,televisions,null,null,null,null,null,null,1,NA,NA,NA,NA,NA,NA,NA,NA,NA,NA
NA,NA,NA,NA,NA,choice_trial,survey-html-form,11,123616,0.0-4.0-1.3,266,1,2025-05-06T21:53:43Z,b60275e29fe2361ab97ac0ac217840d7,"Mozilla/5.0 (X11; CrOS x86_64 14541.0.0) AppleWebKit/537.36 (KHTML, like Gecko) Chrome/134.0.0.0 Safari/537.36",WebKit,Chrome,134.0.0.0,ChromeOS,14541.0.0,https://5puzkbbxv1.cognition.run/?sona_id=57181,"en-US,en;q=0.9",w7femy1pog3wdbl,21,"[""White""]",No,Male,none,No,NA,10822,NA,"{""product_choice"":""A""}",choice,tcd,trinary,attraction,1,televisions,null,null,null,null,null,null,1,60,50,60,50,60,40,Screen size,Average lifespan,NA,NA
NA,NA,NA,NA,NA,choice_trial_setup,html-keyboard-response,12,123921,0.0-4.0-0.4,266,1,2025-05-06T21:53:43Z,b60275e29fe2361ab97ac0ac217840d7,"Mozilla/5.0 (X11; CrOS x86_64 14541.0.0) AppleWebKit/537.36 (KHTML, like Gecko) Chrome/134.0.0.0 Safari/537.36",WebKit,Chrome,134.0.0.0,ChromeOS,14541.0.0,https://5puzkbbxv1.cognition.run/?sona_id=57181,"en-US,en;q=0.9",w7femy1pog3wdbl,21,"[""White""]",No,Male,none,No,NA,null,<p></p>,null,choice,tcd,trinary,repulsion_A,1,microwave ovens,null,null,null,null,null,null,2,NA,NA,NA,NA,NA,NA,NA,NA,NA,NA
NA,NA,NA,NA,NA,choice_trial,survey-html-form,13,135553,0.0-4.0-1.4,266,1,2025-05-06T21:53:43Z,b60275e29fe2361ab97ac0ac217840d7,"Mozilla/5.0 (X11; CrOS x86_64 14541.0.0) AppleWebKit/537.36 (KHTML, like Gecko) Chrome/134.0.0.0 Safari/537.36",WebKit,Chrome,134.0.0.0,ChromeOS,14541.0.0,https://5puzkbbxv1.cognition.run/?sona_id=57181,"en-US,en;q=0.9",w7femy1pog3wdbl,21,"[""White""]",No,Male,none,No,NA,11627,NA,"{""product_choice"":""B""}",choice,tcd,trinary,repulsion_A,1,microwave ovens,null,null,null,null,null,null,2,100,90,100,30,40,20,Warranty,Cooking power,NA,NA
NA,NA,NA,NA,NA,choice_trial_setup,html-keyboard-response,14,135859,0.0-4.0-0.5,266,1,2025-05-06T21:53:43Z,b60275e29fe2361ab97ac0ac217840d7,"Mozilla/5.0 (X11; CrOS x86_64 14541.0.0) AppleWebKit/537.36 (KHTML, like Gecko) Chrome/134.0.0.0 Safari/537.36",WebKit,Chrome,134.0.0.0,ChromeOS,14541.0.0,https://5puzkbbxv1.cognition.run/?sona_id=57181,"en-US,en;q=0.9",w7femy1pog3wdbl,21,"[""White""]",No,Male,none,No,NA,null,<p></p>,null,choice,dtc,trinary,repulsion_A,1,laptops,null,null,null,null,null,null,1,NA,NA,NA,NA,NA,NA,NA,NA,NA,NA
NA,NA,NA,NA,NA,choice_trial,survey-html-form,15,141900,0.0-4.0-1.5,266,1,2025-05-06T21:53:43Z,b60275e29fe2361ab97ac0ac217840d7,"Mozilla/5.0 (X11; CrOS x86_64 14541.0.0) AppleWebKit/537.36 (KHTML, like Gecko) Chrome/134.0.0.0 Safari/537.36",WebKit,Chrome,134.0.0.0,ChromeOS,14541.0.0,https://5puzkbbxv1.cognition.run/?sona_id=57181,"en-US,en;q=0.9",w7femy1pog3wdbl,21,"[""White""]",No,Male,none,No,NA,6035,NA,"{""product_choice"":""C""}",choice,dtc,trinary,repulsion_A,1,laptops,null,null,null,null,null,null,1,100,90,100,30,40,20,Processing speed,Memory (RAM),NA,NA
NA,NA,NA,NA,NA,choice_trial_setup,html-keyboard-response,16,142205,0.0-4.0-0.6,266,1,2025-05-06T21:53:43Z,b60275e29fe2361ab97ac0ac217840d7,"Mozilla/5.0 (X11; CrOS x86_64 14541.0.0) AppleWebKit/537.36 (KHTML, like Gecko) Chrome/134.0.0.0 Safari/537.36",WebKit,Chrome,134.0.0.0,ChromeOS,14541.0.0,https://5puzkbbxv1.cognition.run/?sona_id=57181,"en-US,en;q=0.9",w7femy1pog3wdbl,21,"[""White""]",No,Male,none,No,NA,null,<p></p>,null,choice,bw,binary,catch,null,microwave ovens,95,90,15,40,null,null,2,NA,NA,NA,NA,NA,NA,NA,NA,NA,NA
NA,NA,NA,NA,NA,choice_trial,survey-html-form,17,151000,0.0-4.0-1.6,266,1,2025-05-06T21:53:43Z,b60275e29fe2361ab97ac0ac217840d7,"Mozilla/5.0 (X11; CrOS x86_64 14541.0.0) AppleWebKit/537.36 (KHTML, like Gecko) Chrome/134.0.0.0 Safari/537.36",WebKit,Chrome,134.0.0.0,ChromeOS,14541.0.0,https://5puzkbbxv1.cognition.run/?sona_id=57181,"en-US,en;q=0.9",w7femy1pog3wdbl,21,"[""White""]",No,Male,none,No,NA,8788,NA,"{""product_choice"":""A""}",choice,bw,binary,catch,null,microwave ovens,95,90,15,40,null,null,2,null,null,null,null,null,null,Warranty,Cooking power,NA,NA
NA,NA,NA,NA,NA,choice_trial_setup,html-keyboard-response,18,151305,0.0-4.0-0.7,266,1,2025-05-06T21:53:43Z,b60275e29fe2361ab97ac0ac217840d7,"Mozilla/5.0 (X11; CrOS x86_64 14541.0.0) AppleWebKit/537.36 (KHTML, like Gecko) Chrome/134.0.0.0 Safari/537.36",WebKit,Chrome,134.0.0.0,ChromeOS,14541.0.0,https://5puzkbbxv1.cognition.run/?sona_id=57181,"en-US,en;q=0.9",w7femy1pog3wdbl,21,"[""White""]",No,Male,none,No,NA,null,<p></p>,null,choice,ctd,trinary,repulsion_B,2,televisions,null,null,null,null,null,null,2,NA,NA,NA,NA,NA,NA,NA,NA,NA,NA
NA,NA,NA,NA,NA,choice_trial,survey-html-form,19,158759,0.0-4.0-1.7,266,1,2025-05-06T21:53:43Z,b60275e29fe2361ab97ac0ac217840d7,"Mozilla/5.0 (X11; CrOS x86_64 14541.0.0) AppleWebKit/537.36 (KHTML, like Gecko) Chrome/134.0.0.0 Safari/537.36",WebKit,Chrome,134.0.0.0,ChromeOS,14541.0.0,https://5puzkbbxv1.cognition.run/?sona_id=57181,"en-US,en;q=0.9",w7femy1pog3wdbl,21,"[""White""]",No,Male,none,No,NA,7448,NA,"{""product_choice"":""B""}",choice,ctd,trinary,repulsion_B,2,televisions,null,null,null,null,null,null,2,40,30,40,90,100,80,Screen size,Average lifespan,NA,NA
NA,NA,NA,NA,NA,choice_trial_setup,html-keyboard-response,20,159064,0.0-4.0-0.8,266,1,2025-05-06T21:53:43Z,b60275e29fe2361ab97ac0ac217840d7,"Mozilla/5.0 (X11; CrOS x86_64 14541.0.0) AppleWebKit/537.36 (KHTML, like Gecko) Chrome/134.0.0.0 Safari/537.36",WebKit,Chrome,134.0.0.0,ChromeOS,14541.0.0,https://5puzkbbxv1.cognition.run/?sona_id=57181,"en-US,en;q=0.9",w7femy1pog3wdbl,21,"[""White""]",No,Male,none,No,NA,null,<p></p>,null,choice,tdc,trinary,attraction,1,laptops,null,null,null,null,null,null,2,NA,NA,NA,NA,NA,NA,NA,NA,NA,NA
NA,NA,NA,NA,NA,choice_trial,survey-html-form,21,166078,0.0-4.0-1.8,266,1,2025-05-06T21:53:43Z,b60275e29fe2361ab97ac0ac217840d7,"Mozilla/5.0 (X11; CrOS x86_64 14541.0.0) AppleWebKit/537.36 (KHTML, like Gecko) Chrome/134.0.0.0 Safari/537.36",WebKit,Chrome,134.0.0.0,ChromeOS,14541.0.0,https://5puzkbbxv1.cognition.run/?sona_id=57181,"en-US,en;q=0.9",w7femy1pog3wdbl,21,"[""White""]",No,Male,none,No,NA,7010,NA,"{""product_choice"":""C""}",choice,tdc,trinary,attraction,1,laptops,null,null,null,null,null,null,2,60,50,60,50,60,40,Processing speed,Memory (RAM),NA,NA
NA,NA,NA,NA,NA,choice_trial_setup,html-keyboard-response,22,166384,0.0-4.0-0.9,266,1,2025-05-06T21:53:43Z,b60275e29fe2361ab97ac0ac217840d7,"Mozilla/5.0 (X11; CrOS x86_64 14541.0.0) AppleWebKit/537.36 (KHTML, like Gecko) Chrome/134.0.0.0 Safari/537.36",WebKit,Chrome,134.0.0.0,ChromeOS,14541.0.0,https://5puzkbbxv1.cognition.run/?sona_id=57181,"en-US,en;q=0.9",w7femy1pog3wdbl,21,"[""White""]",No,Male,none,No,NA,null,<p></p>,null,choice,dtc,trinary,repulsion_B,2,laptops,null,null,null,null,null,null,1,NA,NA,NA,NA,NA,NA,NA,NA,NA,NA
NA,NA,NA,NA,NA,choice_trial,survey-html-form,23,173996,0.0-4.0-1.9,266,1,2025-05-06T21:53:43Z,b60275e29fe2361ab97ac0ac217840d7,"Mozilla/5.0 (X11; CrOS x86_64 14541.0.0) AppleWebKit/537.36 (KHTML, like Gecko) Chrome/134.0.0.0 Safari/537.36",WebKit,Chrome,134.0.0.0,ChromeOS,14541.0.0,https://5puzkbbxv1.cognition.run/?sona_id=57181,"en-US,en;q=0.9",w7femy1pog3wdbl,21,"[""White""]",No,Male,none,No,NA,7604,NA,"{""product_choice"":""B""}",choice,dtc,trinary,repulsion_B,2,laptops,null,null,null,null,null,null,1,40,30,40,90,100,80,Processing speed,Memory (RAM),NA,NA
NA,NA,NA,NA,NA,choice_trial_setup,html-keyboard-response,24,174301,0.0-4.0-0.10,266,1,2025-05-06T21:53:43Z,b60275e29fe2361ab97ac0ac217840d7,"Mozilla/5.0 (X11; CrOS x86_64 14541.0.0) AppleWebKit/537.36 (KHTML, like Gecko) Chrome/134.0.0.0 Safari/537.36",WebKit,Chrome,134.0.0.0,ChromeOS,14541.0.0,https://5puzkbbxv1.cognition.run/?sona_id=57181,"en-US,en;q=0.9",w7femy1pog3wdbl,21,"[""White""]",No,Male,none,No,NA,null,<p></p>,null,choice,ct,binary,attraction,NA,televisions,null,null,null,null,null,null,2,NA,NA,NA,NA,NA,NA,NA,NA,NA,NA
NA,NA,NA,NA,NA,choice_trial,survey-html-form,25,180140,0.0-4.0-1.10,266,1,2025-05-06T21:53:43Z,b60275e29fe2361ab97ac0ac217840d7,"Mozilla/5.0 (X11; CrOS x86_64 14541.0.0) AppleWebKit/537.36 (KHTML, like Gecko) Chrome/134.0.0.0 Safari/537.36",WebKit,Chrome,134.0.0.0,ChromeOS,14541.0.0,https://5puzkbbxv1.cognition.run/?sona_id=57181,"en-US,en;q=0.9",w7femy1pog3wdbl,21,"[""White""]",No,Male,none,No,NA,5833,NA,"{""product_choice"":""B""}",choice,ct,binary,attraction,NA,televisions,null,null,null,null,null,null,2,60,50,null,50,60,null,Screen size,Average lifespan,NA,NA
NA,NA,NA,NA,NA,choice_trial_setup,html-keyboard-response,26,180445,0.0-4.0-0.11,266,1,2025-05-06T21:53:43Z,b60275e29fe2361ab97ac0ac217840d7,"Mozilla/5.0 (X11; CrOS x86_64 14541.0.0) AppleWebKit/537.36 (KHTML, like Gecko) Chrome/134.0.0.0 Safari/537.36",WebKit,Chrome,134.0.0.0,ChromeOS,14541.0.0,https://5puzkbbxv1.cognition.run/?sona_id=57181,"en-US,en;q=0.9",w7femy1pog3wdbl,21,"[""White""]",No,Male,none,No,NA,null,<p></p>,null,choice,ct,binary,repulsion,1,washing machines,null,null,null,null,null,null,1,NA,NA,NA,NA,NA,NA,NA,NA,NA,NA
NA,NA,NA,NA,NA,choice_trial,survey-html-form,27,190197,0.0-4.0-1.11,266,1,2025-05-06T21:53:43Z,b60275e29fe2361ab97ac0ac217840d7,"Mozilla/5.0 (X11; CrOS x86_64 14541.0.0) AppleWebKit/537.36 (KHTML, like Gecko) Chrome/134.0.0.0 Safari/537.36",WebKit,Chrome,134.0.0.0,ChromeOS,14541.0.0,https://5puzkbbxv1.cognition.run/?sona_id=57181,"en-US,en;q=0.9",w7femy1pog3wdbl,21,"[""White""]",No,Male,none,No,NA,9745,NA,"{""product_choice"":""B""}",choice,ct,binary,repulsion,1,washing machines,null,null,null,null,null,null,1,100,90,null,30,40,null,Average lifespan,Energy savings,NA,NA
NA,NA,NA,NA,NA,choice_trial_setup,html-keyboard-response,28,190505,0.0-4.0-0.12,266,1,2025-05-06T21:53:43Z,b60275e29fe2361ab97ac0ac217840d7,"Mozilla/5.0 (X11; CrOS x86_64 14541.0.0) AppleWebKit/537.36 (KHTML, like Gecko) Chrome/134.0.0.0 Safari/537.36",WebKit,Chrome,134.0.0.0,ChromeOS,14541.0.0,https://5puzkbbxv1.cognition.run/?sona_id=57181,"en-US,en;q=0.9",w7femy1pog3wdbl,21,"[""White""]",No,Male,none,No,NA,null,<p></p>,null,choice,wwb,trinary,catch,null,washing machines,90,80,25,30,25,10,2,NA,NA,NA,NA,NA,NA,NA,NA,NA,NA
NA,NA,NA,NA,NA,choice_trial,survey-html-form,29,197567,0.0-4.0-1.12,266,1,2025-05-06T21:53:43Z,b60275e29fe2361ab97ac0ac217840d7,"Mozilla/5.0 (X11; CrOS x86_64 14541.0.0) AppleWebKit/537.36 (KHTML, like Gecko) Chrome/134.0.0.0 Safari/537.36",WebKit,Chrome,134.0.0.0,ChromeOS,14541.0.0,https://5puzkbbxv1.cognition.run/?sona_id=57181,"en-US,en;q=0.9",w7femy1pog3wdbl,21,"[""White""]",No,Male,none,No,NA,7056,NA,"{""product_choice"":""C""}",choice,wwb,trinary,catch,null,washing machines,90,80,25,30,25,10,2,null,null,null,null,null,null,Average lifespan,Energy savings,NA,NA
NA,NA,NA,NA,NA,choice_trial_setup,html-keyboard-response,30,197873,0.0-4.0-0.13,266,1,2025-05-06T21:53:43Z,b60275e29fe2361ab97ac0ac217840d7,"Mozilla/5.0 (X11; CrOS x86_64 14541.0.0) AppleWebKit/537.36 (KHTML, like Gecko) Chrome/134.0.0.0 Safari/537.36",WebKit,Chrome,134.0.0.0,ChromeOS,14541.0.0,https://5puzkbbxv1.cognition.run/?sona_id=57181,"en-US,en;q=0.9",w7femy1pog3wdbl,21,"[""White""]",No,Male,none,No,NA,null,<p></p>,null,choice,ct,binary,repulsion,1,televisions,null,null,null,null,null,null,1,NA,NA,NA,NA,NA,NA,NA,NA,NA,NA
NA,NA,NA,NA,NA,choice_trial,survey-html-form,31,203159,0.0-4.0-1.13,266,1,2025-05-06T21:53:43Z,b60275e29fe2361ab97ac0ac217840d7,"Mozilla/5.0 (X11; CrOS x86_64 14541.0.0) AppleWebKit/537.36 (KHTML, like Gecko) Chrome/134.0.0.0 Safari/537.36",WebKit,Chrome,134.0.0.0,ChromeOS,14541.0.0,https://5puzkbbxv1.cognition.run/?sona_id=57181,"en-US,en;q=0.9",w7femy1pog3wdbl,21,"[""White""]",No,Male,none,No,NA,5280,NA,"{""product_choice"":""A""}",choice,ct,binary,repulsion,1,televisions,null,null,null,null,null,null,1,100,90,null,30,40,null,Screen size,Average lifespan,NA,NA
NA,NA,NA,NA,NA,choice_trial_setup,html-keyboard-response,32,203465,0.0-4.0-0.14,266,1,2025-05-06T21:53:43Z,b60275e29fe2361ab97ac0ac217840d7,"Mozilla/5.0 (X11; CrOS x86_64 14541.0.0) AppleWebKit/537.36 (KHTML, like Gecko) Chrome/134.0.0.0 Safari/537.36",WebKit,Chrome,134.0.0.0,ChromeOS,14541.0.0,https://5puzkbbxv1.cognition.run/?sona_id=57181,"en-US,en;q=0.9",w7femy1pog3wdbl,21,"[""White""]",No,Male,none,No,NA,null,<p></p>,null,choice,bww,trinary,catch,null,televisions,50,95,35,10,30,45,2,NA,NA,NA,NA,NA,NA,NA,NA,NA,NA
NA,NA,NA,NA,NA,choice_trial,survey-html-form,33,208167,0.0-4.0-1.14,266,1,2025-05-06T21:53:43Z,b60275e29fe2361ab97ac0ac217840d7,"Mozilla/5.0 (X11; CrOS x86_64 14541.0.0) AppleWebKit/537.36 (KHTML, like Gecko) Chrome/134.0.0.0 Safari/537.36",WebKit,Chrome,134.0.0.0,ChromeOS,14541.0.0,https://5puzkbbxv1.cognition.run/?sona_id=57181,"en-US,en;q=0.9",w7femy1pog3wdbl,21,"[""White""]",No,Male,none,No,NA,4696,NA,"{""product_choice"":""A""}",choice,bww,trinary,catch,null,televisions,50,95,35,10,30,45,2,null,null,null,null,null,null,Screen size,Average lifespan,NA,NA
NA,NA,NA,NA,NA,choice_trial_setup,html-keyboard-response,34,208474,0.0-4.0-0.15,266,1,2025-05-06T21:53:43Z,b60275e29fe2361ab97ac0ac217840d7,"Mozilla/5.0 (X11; CrOS x86_64 14541.0.0) AppleWebKit/537.36 (KHTML, like Gecko) Chrome/134.0.0.0 Safari/537.36",WebKit,Chrome,134.0.0.0,ChromeOS,14541.0.0,https://5puzkbbxv1.cognition.run/?sona_id=57181,"en-US,en;q=0.9",w7femy1pog3wdbl,21,"[""White""]",No,Male,none,No,NA,null,<p></p>,null,choice,dtc,trinary,repulsion_A,2,televisions,null,null,null,null,null,null,2,NA,NA,NA,NA,NA,NA,NA,NA,NA,NA
NA,NA,NA,NA,NA,choice_trial,survey-html-form,35,221359,0.0-4.0-1.15,266,1,2025-05-06T21:53:43Z,b60275e29fe2361ab97ac0ac217840d7,"Mozilla/5.0 (X11; CrOS x86_64 14541.0.0) AppleWebKit/537.36 (KHTML, like Gecko) Chrome/134.0.0.0 Safari/537.36",WebKit,Chrome,134.0.0.0,ChromeOS,14541.0.0,https://5puzkbbxv1.cognition.run/?sona_id=57181,"en-US,en;q=0.9",w7femy1pog3wdbl,21,"[""White""]",No,Male,none,No,NA,12878,NA,"{""product_choice"":""C""}",choice,dtc,trinary,repulsion_A,2,televisions,null,null,null,null,null,null,2,30,40,20,100,90,100,Screen size,Average lifespan,NA,NA
NA,NA,NA,NA,NA,choice_trial_setup,html-keyboard-response,36,221666,0.0-4.0-0.16,266,1,2025-05-06T21:53:43Z,b60275e29fe2361ab97ac0ac217840d7,"Mozilla/5.0 (X11; CrOS x86_64 14541.0.0) AppleWebKit/537.36 (KHTML, like Gecko) Chrome/134.0.0.0 Safari/537.36",WebKit,Chrome,134.0.0.0,ChromeOS,14541.0.0,https://5puzkbbxv1.cognition.run/?sona_id=57181,"en-US,en;q=0.9",w7femy1pog3wdbl,21,"[""White""]",No,Male,none,No,NA,null,<p></p>,null,choice,ctd,trinary,repulsion_B,2,microwave ovens,null,null,null,null,null,null,2,NA,NA,NA,NA,NA,NA,NA,NA,NA,NA
NA,NA,NA,NA,NA,choice_trial,survey-html-form,37,225523,0.0-4.0-1.16,266,1,2025-05-06T21:53:43Z,b60275e29fe2361ab97ac0ac217840d7,"Mozilla/5.0 (X11; CrOS x86_64 14541.0.0) AppleWebKit/537.36 (KHTML, like Gecko) Chrome/134.0.0.0 Safari/537.36",WebKit,Chrome,134.0.0.0,ChromeOS,14541.0.0,https://5puzkbbxv1.cognition.run/?sona_id=57181,"en-US,en;q=0.9",w7femy1pog3wdbl,21,"[""White""]",No,Male,none,No,NA,3852,NA,"{""product_choice"":""B""}",choice,ctd,trinary,repulsion_B,2,microwave ovens,null,null,null,null,null,null,2,40,30,40,90,100,80,Warranty,Cooking power,NA,NA
NA,NA,NA,NA,NA,choice_trial_setup,html-keyboard-response,38,225830,0.0-4.0-0.17,266,1,2025-05-06T21:53:43Z,b60275e29fe2361ab97ac0ac217840d7,"Mozilla/5.0 (X11; CrOS x86_64 14541.0.0) AppleWebKit/537.36 (KHTML, like Gecko) Chrome/134.0.0.0 Safari/537.36",WebKit,Chrome,134.0.0.0,ChromeOS,14541.0.0,https://5puzkbbxv1.cognition.run/?sona_id=57181,"en-US,en;q=0.9",w7femy1pog3wdbl,21,"[""White""]",No,Male,none,No,NA,null,<p></p>,null,choice,ct,binary,repulsion,1,microwave ovens,null,null,null,null,null,null,1,NA,NA,NA,NA,NA,NA,NA,NA,NA,NA
NA,NA,NA,NA,NA,choice_trial,survey-html-form,39,228852,0.0-4.0-1.17,266,1,2025-05-06T21:53:43Z,b60275e29fe2361ab97ac0ac217840d7,"Mozilla/5.0 (X11; CrOS x86_64 14541.0.0) AppleWebKit/537.36 (KHTML, like Gecko) Chrome/134.0.0.0 Safari/537.36",WebKit,Chrome,134.0.0.0,ChromeOS,14541.0.0,https://5puzkbbxv1.cognition.run/?sona_id=57181,"en-US,en;q=0.9",w7femy1pog3wdbl,21,"[""White""]",No,Male,none,No,NA,3014,NA,"{""product_choice"":""A""}",choice,ct,binary,repulsion,1,microwave ovens,null,null,null,null,null,null,1,100,90,null,30,40,null,Warranty,Cooking power,NA,NA
NA,NA,NA,NA,NA,choice_trial_setup,html-keyboard-response,40,229159,0.0-4.0-0.18,266,1,2025-05-06T21:53:43Z,b60275e29fe2361ab97ac0ac217840d7,"Mozilla/5.0 (X11; CrOS x86_64 14541.0.0) AppleWebKit/537.36 (KHTML, like Gecko) Chrome/134.0.0.0 Safari/537.36",WebKit,Chrome,134.0.0.0,ChromeOS,14541.0.0,https://5puzkbbxv1.cognition.run/?sona_id=57181,"en-US,en;q=0.9",w7femy1pog3wdbl,21,"[""White""]",No,Male,none,No,NA,null,<p></p>,null,choice,dtc,trinary,attraction,1,microwave ovens,null,null,null,null,null,null,1,NA,NA,NA,NA,NA,NA,NA,NA,NA,NA
NA,NA,NA,NA,NA,choice_trial,survey-html-form,41,233685,0.0-4.0-1.18,266,1,2025-05-06T21:53:43Z,b60275e29fe2361ab97ac0ac217840d7,"Mozilla/5.0 (X11; CrOS x86_64 14541.0.0) AppleWebKit/537.36 (KHTML, like Gecko) Chrome/134.0.0.0 Safari/537.36",WebKit,Chrome,134.0.0.0,ChromeOS,14541.0.0,https://5puzkbbxv1.cognition.run/?sona_id=57181,"en-US,en;q=0.9",w7femy1pog3wdbl,21,"[""White""]",No,Male,none,No,NA,4520,NA,"{""product_choice"":""C""}",choice,dtc,trinary,attraction,1,microwave ovens,null,null,null,null,null,null,1,60,50,60,50,60,40,Warranty,Cooking power,NA,NA
NA,NA,NA,NA,NA,choice_trial_setup,html-keyboard-response,42,233992,0.0-4.0-0.19,266,1,2025-05-06T21:53:43Z,b60275e29fe2361ab97ac0ac217840d7,"Mozilla/5.0 (X11; CrOS x86_64 14541.0.0) AppleWebKit/537.36 (KHTML, like Gecko) Chrome/134.0.0.0 Safari/537.36",WebKit,Chrome,134.0.0.0,ChromeOS,14541.0.0,https://5puzkbbxv1.cognition.run/?sona_id=57181,"en-US,en;q=0.9",w7femy1pog3wdbl,21,"[""White""]",No,Male,none,No,NA,null,<p></p>,null,choice,dtc,trinary,repulsion_A,2,laptops,null,null,null,null,null,null,2,NA,NA,NA,NA,NA,NA,NA,NA,NA,NA
NA,NA,NA,NA,NA,choice_trial,survey-html-form,43,238073,0.0-4.0-1.19,266,1,2025-05-06T21:53:43Z,b60275e29fe2361ab97ac0ac217840d7,"Mozilla/5.0 (X11; CrOS x86_64 14541.0.0) AppleWebKit/537.36 (KHTML, like Gecko) Chrome/134.0.0.0 Safari/537.36",WebKit,Chrome,134.0.0.0,ChromeOS,14541.0.0,https://5puzkbbxv1.cognition.run/?sona_id=57181,"en-US,en;q=0.9",w7femy1pog3wdbl,21,"[""White""]",No,Male,none,No,NA,4075,NA,"{""product_choice"":""C""}",choice,dtc,trinary,repulsion_A,2,laptops,null,null,null,null,null,null,2,30,40,20,100,90,100,Processing speed,Memory (RAM),NA,NA
NA,NA,NA,NA,NA,choice_trial_setup,html-keyboard-response,44,238380,0.0-4.0-0.20,266,1,2025-05-06T21:53:43Z,b60275e29fe2361ab97ac0ac217840d7,"Mozilla/5.0 (X11; CrOS x86_64 14541.0.0) AppleWebKit/537.36 (KHTML, like Gecko) Chrome/134.0.0.0 Safari/537.36",WebKit,Chrome,134.0.0.0,ChromeOS,14541.0.0,https://5puzkbbxv1.cognition.run/?sona_id=57181,"en-US,en;q=0.9",w7femy1pog3wdbl,21,"[""White""]",No,Male,none,No,NA,null,<p></p>,null,choice,cdt,trinary,repulsion_B,2,washing machines,null,null,null,null,null,null,2,NA,NA,NA,NA,NA,NA,NA,NA,NA,NA
NA,NA,NA,NA,NA,choice_trial,survey-html-form,45,246345,0.0-4.0-1.20,266,1,2025-05-06T21:53:43Z,b60275e29fe2361ab97ac0ac217840d7,"Mozilla/5.0 (X11; CrOS x86_64 14541.0.0) AppleWebKit/537.36 (KHTML, like Gecko) Chrome/134.0.0.0 Safari/537.36",WebKit,Chrome,134.0.0.0,ChromeOS,14541.0.0,https://5puzkbbxv1.cognition.run/?sona_id=57181,"en-US,en;q=0.9",w7femy1pog3wdbl,21,"[""White""]",No,Male,none,No,NA,7960,NA,"{""product_choice"":""C""}",choice,cdt,trinary,repulsion_B,2,washing machines,null,null,null,null,null,null,2,40,30,40,90,100,80,Average lifespan,Energy savings,NA,NA
NA,NA,NA,NA,NA,choice_trial_setup,html-keyboard-response,46,246653,0.0-4.0-0.21,266,1,2025-05-06T21:53:43Z,b60275e29fe2361ab97ac0ac217840d7,"Mozilla/5.0 (X11; CrOS x86_64 14541.0.0) AppleWebKit/537.36 (KHTML, like Gecko) Chrome/134.0.0.0 Safari/537.36",WebKit,Chrome,134.0.0.0,ChromeOS,14541.0.0,https://5puzkbbxv1.cognition.run/?sona_id=57181,"en-US,en;q=0.9",w7femy1pog3wdbl,21,"[""White""]",No,Male,none,No,NA,null,<p></p>,null,choice,ct,binary,repulsion,1,laptops,null,null,null,null,null,null,1,NA,NA,NA,NA,NA,NA,NA,NA,NA,NA
NA,NA,NA,NA,NA,choice_trial,survey-html-form,47,253188,0.0-4.0-1.21,266,1,2025-05-06T21:53:43Z,b60275e29fe2361ab97ac0ac217840d7,"Mozilla/5.0 (X11; CrOS x86_64 14541.0.0) AppleWebKit/537.36 (KHTML, like Gecko) Chrome/134.0.0.0 Safari/537.36",WebKit,Chrome,134.0.0.0,ChromeOS,14541.0.0,https://5puzkbbxv1.cognition.run/?sona_id=57181,"en-US,en;q=0.9",w7femy1pog3wdbl,21,"[""White""]",No,Male,none,No,NA,6528,NA,"{""product_choice"":""A""}",choice,ct,binary,repulsion,1,laptops,null,null,null,null,null,null,1,100,90,null,30,40,null,Processing speed,Memory (RAM),NA,NA
NA,NA,NA,NA,NA,choice_trial_setup,html-keyboard-response,48,253494,0.0-4.0-0.22,266,1,2025-05-06T21:53:43Z,b60275e29fe2361ab97ac0ac217840d7,"Mozilla/5.0 (X11; CrOS x86_64 14541.0.0) AppleWebKit/537.36 (KHTML, like Gecko) Chrome/134.0.0.0 Safari/537.36",WebKit,Chrome,134.0.0.0,ChromeOS,14541.0.0,https://5puzkbbxv1.cognition.run/?sona_id=57181,"en-US,en;q=0.9",w7femy1pog3wdbl,21,"[""White""]",No,Male,none,No,NA,null,<p></p>,null,choice,tcd,trinary,attraction,2,washing machines,null,null,null,null,null,null,1,NA,NA,NA,NA,NA,NA,NA,NA,NA,NA
NA,NA,NA,NA,NA,choice_trial,survey-html-form,49,259196,0.0-4.0-1.22,266,1,2025-05-06T21:53:43Z,b60275e29fe2361ab97ac0ac217840d7,"Mozilla/5.0 (X11; CrOS x86_64 14541.0.0) AppleWebKit/537.36 (KHTML, like Gecko) Chrome/134.0.0.0 Safari/537.36",WebKit,Chrome,134.0.0.0,ChromeOS,14541.0.0,https://5puzkbbxv1.cognition.run/?sona_id=57181,"en-US,en;q=0.9",w7femy1pog3wdbl,21,"[""White""]",No,Male,none,No,NA,5695,NA,"{""product_choice"":""B""}",choice,tcd,trinary,attraction,2,washing machines,null,null,null,null,null,null,1,50,60,40,60,50,60,Average lifespan,Energy savings,NA,NA
NA,NA,NA,NA,NA,choice_trial_setup,html-keyboard-response,50,259504,0.0-4.0-0.23,266,1,2025-05-06T21:53:43Z,b60275e29fe2361ab97ac0ac217840d7,"Mozilla/5.0 (X11; CrOS x86_64 14541.0.0) AppleWebKit/537.36 (KHTML, like Gecko) Chrome/134.0.0.0 Safari/537.36",WebKit,Chrome,134.0.0.0,ChromeOS,14541.0.0,https://5puzkbbxv1.cognition.run/?sona_id=57181,"en-US,en;q=0.9",w7femy1pog3wdbl,21,"[""White""]",No,Male,none,No,NA,null,<p></p>,null,choice,bww,trinary,catch,null,microwave ovens,65,85,10,40,15,20,2,NA,NA,NA,NA,NA,NA,NA,NA,NA,NA
NA,NA,NA,NA,NA,choice_trial,survey-html-form,51,262885,0.0-4.0-1.23,266,1,2025-05-06T21:53:43Z,b60275e29fe2361ab97ac0ac217840d7,"Mozilla/5.0 (X11; CrOS x86_64 14541.0.0) AppleWebKit/537.36 (KHTML, like Gecko) Chrome/134.0.0.0 Safari/537.36",WebKit,Chrome,134.0.0.0,ChromeOS,14541.0.0,https://5puzkbbxv1.cognition.run/?sona_id=57181,"en-US,en;q=0.9",w7femy1pog3wdbl,21,"[""White""]",No,Male,none,No,NA,3374,NA,"{""product_choice"":""A""}",choice,bww,trinary,catch,null,microwave ovens,65,85,10,40,15,20,2,null,null,null,null,null,null,Warranty,Cooking power,NA,NA
NA,NA,NA,NA,NA,choice_trial_setup,html-keyboard-response,52,263193,0.0-4.0-0.24,266,1,2025-05-06T21:53:43Z,b60275e29fe2361ab97ac0ac217840d7,"Mozilla/5.0 (X11; CrOS x86_64 14541.0.0) AppleWebKit/537.36 (KHTML, like Gecko) Chrome/134.0.0.0 Safari/537.36",WebKit,Chrome,134.0.0.0,ChromeOS,14541.0.0,https://5puzkbbxv1.cognition.run/?sona_id=57181,"en-US,en;q=0.9",w7femy1pog3wdbl,21,"[""White""]",No,Male,none,No,NA,null,<p></p>,null,choice,wb,binary,catch,null,laptops,90,75,30,40,null,null,2,NA,NA,NA,NA,NA,NA,NA,NA,NA,NA
NA,NA,NA,NA,NA,choice_trial,survey-html-form,53,267011,0.0-4.0-1.24,266,1,2025-05-06T21:53:43Z,b60275e29fe2361ab97ac0ac217840d7,"Mozilla/5.0 (X11; CrOS x86_64 14541.0.0) AppleWebKit/537.36 (KHTML, like Gecko) Chrome/134.0.0.0 Safari/537.36",WebKit,Chrome,134.0.0.0,ChromeOS,14541.0.0,https://5puzkbbxv1.cognition.run/?sona_id=57181,"en-US,en;q=0.9",w7femy1pog3wdbl,21,"[""White""]",No,Male,none,No,NA,3812,NA,"{""product_choice"":""B""}",choice,wb,binary,catch,null,laptops,90,75,30,40,null,null,2,null,null,null,null,null,null,Processing speed,Memory (RAM),NA,NA
NA,NA,NA,NA,NA,choice_trial_setup,html-keyboard-response,54,267318,0.0-4.0-0.25,266,1,2025-05-06T21:53:43Z,b60275e29fe2361ab97ac0ac217840d7,"Mozilla/5.0 (X11; CrOS x86_64 14541.0.0) AppleWebKit/537.36 (KHTML, like Gecko) Chrome/134.0.0.0 Safari/537.36",WebKit,Chrome,134.0.0.0,ChromeOS,14541.0.0,https://5puzkbbxv1.cognition.run/?sona_id=57181,"en-US,en;q=0.9",w7femy1pog3wdbl,21,"[""White""]",No,Male,none,No,NA,null,<p></p>,null,choice,tc,binary,repulsion,2,washing machines,null,null,null,null,null,null,1,NA,NA,NA,NA,NA,NA,NA,NA,NA,NA
NA,NA,NA,NA,NA,choice_trial,survey-html-form,55,277327,0.0-4.0-1.25,266,1,2025-05-06T21:53:43Z,b60275e29fe2361ab97ac0ac217840d7,"Mozilla/5.0 (X11; CrOS x86_64 14541.0.0) AppleWebKit/537.36 (KHTML, like Gecko) Chrome/134.0.0.0 Safari/537.36",WebKit,Chrome,134.0.0.0,ChromeOS,14541.0.0,https://5puzkbbxv1.cognition.run/?sona_id=57181,"en-US,en;q=0.9",w7femy1pog3wdbl,21,"[""White""]",No,Male,none,No,NA,10000,NA,"{""product_choice"":""B""}",choice,tc,binary,repulsion,2,washing machines,null,null,null,null,null,null,1,30,40,null,100,90,null,Average lifespan,Energy savings,NA,NA
NA,NA,NA,NA,NA,choice_trial_setup,html-keyboard-response,56,277636,0.0-4.0-0.26,266,1,2025-05-06T21:53:43Z,b60275e29fe2361ab97ac0ac217840d7,"Mozilla/5.0 (X11; CrOS x86_64 14541.0.0) AppleWebKit/537.36 (KHTML, like Gecko) Chrome/134.0.0.0 Safari/537.36",WebKit,Chrome,134.0.0.0,ChromeOS,14541.0.0,https://5puzkbbxv1.cognition.run/?sona_id=57181,"en-US,en;q=0.9",w7femy1pog3wdbl,21,"[""White""]",No,Male,none,No,NA,null,<p></p>,null,choice,wb,binary,catch,null,washing machines,70,75,20,20,null,null,1,NA,NA,NA,NA,NA,NA,NA,NA,NA,NA
NA,NA,NA,NA,NA,choice_trial,survey-html-form,57,287565,0.0-4.0-1.26,266,1,2025-05-06T21:53:43Z,b60275e29fe2361ab97ac0ac217840d7,"Mozilla/5.0 (X11; CrOS x86_64 14541.0.0) AppleWebKit/537.36 (KHTML, like Gecko) Chrome/134.0.0.0 Safari/537.36",WebKit,Chrome,134.0.0.0,ChromeOS,14541.0.0,https://5puzkbbxv1.cognition.run/?sona_id=57181,"en-US,en;q=0.9",w7femy1pog3wdbl,21,"[""White""]",No,Male,none,No,NA,9922,NA,"{""product_choice"":""B""}",choice,wb,binary,catch,null,washing machines,70,75,20,20,null,null,1,null,null,null,null,null,null,Average lifespan,Energy savings,NA,NA
NA,NA,NA,NA,NA,choice_trial_setup,html-keyboard-response,58,287874,0.0-4.0-0.27,266,1,2025-05-06T21:53:43Z,b60275e29fe2361ab97ac0ac217840d7,"Mozilla/5.0 (X11; CrOS x86_64 14541.0.0) AppleWebKit/537.36 (KHTML, like Gecko) Chrome/134.0.0.0 Safari/537.36",WebKit,Chrome,134.0.0.0,ChromeOS,14541.0.0,https://5puzkbbxv1.cognition.run/?sona_id=57181,"en-US,en;q=0.9",w7femy1pog3wdbl,21,"[""White""]",No,Male,none,No,NA,null,<p></p>,null,choice,bw,binary,catch,null,televisions,50,80,40,20,null,null,2,NA,NA,NA,NA,NA,NA,NA,NA,NA,NA
NA,NA,NA,NA,NA,choice_trial,survey-html-form,59,291060,0.0-4.0-1.27,266,1,2025-05-06T21:53:43Z,b60275e29fe2361ab97ac0ac217840d7,"Mozilla/5.0 (X11; CrOS x86_64 14541.0.0) AppleWebKit/537.36 (KHTML, like Gecko) Chrome/134.0.0.0 Safari/537.36",WebKit,Chrome,134.0.0.0,ChromeOS,14541.0.0,https://5puzkbbxv1.cognition.run/?sona_id=57181,"en-US,en;q=0.9",w7femy1pog3wdbl,21,"[""White""]",No,Male,none,No,NA,3177,NA,"{""product_choice"":""A""}",choice,bw,binary,catch,null,televisions,50,80,40,20,null,null,2,null,null,null,null,null,null,Screen size,Average lifespan,NA,NA
NA,NA,NA,NA,NA,choice_trial_setup,html-keyboard-response,60,291368,0.0-4.0-0.28,266,1,2025-05-06T21:53:43Z,b60275e29fe2361ab97ac0ac217840d7,"Mozilla/5.0 (X11; CrOS x86_64 14541.0.0) AppleWebKit/537.36 (KHTML, like Gecko) Chrome/134.0.0.0 Safari/537.36",WebKit,Chrome,134.0.0.0,ChromeOS,14541.0.0,https://5puzkbbxv1.cognition.run/?sona_id=57181,"en-US,en;q=0.9",w7femy1pog3wdbl,21,"[""White""]",No,Male,none,No,NA,null,<p></p>,null,choice,tdc,trinary,repulsion_B,1,laptops,null,null,null,null,null,null,2,NA,NA,NA,NA,NA,NA,NA,NA,NA,NA
NA,NA,NA,NA,NA,choice_trial,survey-html-form,61,297472,0.0-4.0-1.28,266,1,2025-05-06T21:53:43Z,b60275e29fe2361ab97ac0ac217840d7,"Mozilla/5.0 (X11; CrOS x86_64 14541.0.0) AppleWebKit/537.36 (KHTML, like Gecko) Chrome/134.0.0.0 Safari/537.36",WebKit,Chrome,134.0.0.0,ChromeOS,14541.0.0,https://5puzkbbxv1.cognition.run/?sona_id=57181,"en-US,en;q=0.9",w7femy1pog3wdbl,21,"[""White""]",No,Male,none,No,NA,6098,NA,"{""product_choice"":""A""}",choice,tdc,trinary,repulsion_B,1,laptops,null,null,null,null,null,null,2,90,100,80,40,30,40,Processing speed,Memory (RAM),NA,NA
NA,NA,NA,NA,NA,choice_trial_setup,html-keyboard-response,62,297781,0.0-4.0-0.29,266,1,2025-05-06T21:53:43Z,b60275e29fe2361ab97ac0ac217840d7,"Mozilla/5.0 (X11; CrOS x86_64 14541.0.0) AppleWebKit/537.36 (KHTML, like Gecko) Chrome/134.0.0.0 Safari/537.36",WebKit,Chrome,134.0.0.0,ChromeOS,14541.0.0,https://5puzkbbxv1.cognition.run/?sona_id=57181,"en-US,en;q=0.9",w7femy1pog3wdbl,21,"[""White""]",No,Male,none,No,NA,null,<p></p>,null,choice,ct,binary,repulsion,2,televisions,null,null,null,null,null,null,2,NA,NA,NA,NA,NA,NA,NA,NA,NA,NA
NA,NA,NA,NA,NA,choice_trial,survey-html-form,63,305079,0.0-4.0-1.29,266,1,2025-05-06T21:53:43Z,b60275e29fe2361ab97ac0ac217840d7,"Mozilla/5.0 (X11; CrOS x86_64 14541.0.0) AppleWebKit/537.36 (KHTML, like Gecko) Chrome/134.0.0.0 Safari/537.36",WebKit,Chrome,134.0.0.0,ChromeOS,14541.0.0,https://5puzkbbxv1.cognition.run/?sona_id=57181,"en-US,en;q=0.9",w7femy1pog3wdbl,21,"[""White""]",No,Male,none,No,NA,7288,NA,"{""product_choice"":""A""}",choice,ct,binary,repulsion,2,televisions,null,null,null,null,null,null,2,30,40,null,100,90,null,Screen size,Average lifespan,NA,NA
NA,NA,NA,NA,NA,choice_trial_setup,html-keyboard-response,64,305388,0.0-4.0-0.30,266,1,2025-05-06T21:53:43Z,b60275e29fe2361ab97ac0ac217840d7,"Mozilla/5.0 (X11; CrOS x86_64 14541.0.0) AppleWebKit/537.36 (KHTML, like Gecko) Chrome/134.0.0.0 Safari/537.36",WebKit,Chrome,134.0.0.0,ChromeOS,14541.0.0,https://5puzkbbxv1.cognition.run/?sona_id=57181,"en-US,en;q=0.9",w7femy1pog3wdbl,21,"[""White""]",No,Male,none,No,NA,null,<p></p>,null,choice,ct,binary,repulsion,2,microwave ovens,null,null,null,null,null,null,1,NA,NA,NA,NA,NA,NA,NA,NA,NA,NA
NA,NA,NA,NA,NA,choice_trial,survey-html-form,65,308728,0.0-4.0-1.30,266,1,2025-05-06T21:53:43Z,b60275e29fe2361ab97ac0ac217840d7,"Mozilla/5.0 (X11; CrOS x86_64 14541.0.0) AppleWebKit/537.36 (KHTML, like Gecko) Chrome/134.0.0.0 Safari/537.36",WebKit,Chrome,134.0.0.0,ChromeOS,14541.0.0,https://5puzkbbxv1.cognition.run/?sona_id=57181,"en-US,en;q=0.9",w7femy1pog3wdbl,21,"[""White""]",No,Male,none,No,NA,3333,NA,"{""product_choice"":""A""}",choice,ct,binary,repulsion,2,microwave ovens,null,null,null,null,null,null,1,30,40,null,100,90,null,Warranty,Cooking power,NA,NA
NA,NA,NA,NA,NA,choice_trial_setup,html-keyboard-response,66,309037,0.0-4.0-0.31,266,1,2025-05-06T21:53:43Z,b60275e29fe2361ab97ac0ac217840d7,"Mozilla/5.0 (X11; CrOS x86_64 14541.0.0) AppleWebKit/537.36 (KHTML, like Gecko) Chrome/134.0.0.0 Safari/537.36",WebKit,Chrome,134.0.0.0,ChromeOS,14541.0.0,https://5puzkbbxv1.cognition.run/?sona_id=57181,"en-US,en;q=0.9",w7femy1pog3wdbl,21,"[""White""]",No,Male,none,No,NA,null,<p></p>,null,choice,dct,trinary,repulsion_B,1,microwave ovens,null,null,null,null,null,null,2,NA,NA,NA,NA,NA,NA,NA,NA,NA,NA
NA,NA,NA,NA,NA,choice_trial,survey-html-form,67,312522,0.0-4.0-1.31,266,1,2025-05-06T21:53:43Z,b60275e29fe2361ab97ac0ac217840d7,"Mozilla/5.0 (X11; CrOS x86_64 14541.0.0) AppleWebKit/537.36 (KHTML, like Gecko) Chrome/134.0.0.0 Safari/537.36",WebKit,Chrome,134.0.0.0,ChromeOS,14541.0.0,https://5puzkbbxv1.cognition.run/?sona_id=57181,"en-US,en;q=0.9",w7femy1pog3wdbl,21,"[""White""]",No,Male,none,No,NA,3475,NA,"{""product_choice"":""C""}",choice,dct,trinary,repulsion_B,1,microwave ovens,null,null,null,null,null,null,2,90,100,80,40,30,40,Warranty,Cooking power,NA,NA
NA,NA,NA,NA,NA,choice_trial_setup,html-keyboard-response,68,312830,0.0-4.0-0.32,266,1,2025-05-06T21:53:43Z,b60275e29fe2361ab97ac0ac217840d7,"Mozilla/5.0 (X11; CrOS x86_64 14541.0.0) AppleWebKit/537.36 (KHTML, like Gecko) Chrome/134.0.0.0 Safari/537.36",WebKit,Chrome,134.0.0.0,ChromeOS,14541.0.0,https://5puzkbbxv1.cognition.run/?sona_id=57181,"en-US,en;q=0.9",w7femy1pog3wdbl,21,"[""White""]",No,Male,none,No,NA,null,<p></p>,null,choice,ct,binary,repulsion,2,laptops,null,null,null,null,null,null,2,NA,NA,NA,NA,NA,NA,NA,NA,NA,NA
NA,NA,NA,NA,NA,choice_trial,survey-html-form,69,316219,0.0-4.0-1.32,266,1,2025-05-06T21:53:43Z,b60275e29fe2361ab97ac0ac217840d7,"Mozilla/5.0 (X11; CrOS x86_64 14541.0.0) AppleWebKit/537.36 (KHTML, like Gecko) Chrome/134.0.0.0 Safari/537.36",WebKit,Chrome,134.0.0.0,ChromeOS,14541.0.0,https://5puzkbbxv1.cognition.run/?sona_id=57181,"en-US,en;q=0.9",w7femy1pog3wdbl,21,"[""White""]",No,Male,none,No,NA,3380,NA,"{""product_choice"":""A""}",choice,ct,binary,repulsion,2,laptops,null,null,null,null,null,null,2,30,40,null,100,90,null,Processing speed,Memory (RAM),NA,NA
NA,NA,NA,NA,NA,choice_trial_setup,html-keyboard-response,70,316525,0.0-4.0-0.33,266,1,2025-05-06T21:53:43Z,b60275e29fe2361ab97ac0ac217840d7,"Mozilla/5.0 (X11; CrOS x86_64 14541.0.0) AppleWebKit/537.36 (KHTML, like Gecko) Chrome/134.0.0.0 Safari/537.36",WebKit,Chrome,134.0.0.0,ChromeOS,14541.0.0,https://5puzkbbxv1.cognition.run/?sona_id=57181,"en-US,en;q=0.9",w7femy1pog3wdbl,21,"[""White""]",No,Male,none,No,NA,null,<p></p>,null,choice,dct,trinary,repulsion_B,1,washing machines,null,null,null,null,null,null,1,NA,NA,NA,NA,NA,NA,NA,NA,NA,NA
NA,NA,NA,NA,NA,choice_trial,survey-html-form,71,320857,0.0-4.0-1.33,266,1,2025-05-06T21:53:43Z,b60275e29fe2361ab97ac0ac217840d7,"Mozilla/5.0 (X11; CrOS x86_64 14541.0.0) AppleWebKit/537.36 (KHTML, like Gecko) Chrome/134.0.0.0 Safari/537.36",WebKit,Chrome,134.0.0.0,ChromeOS,14541.0.0,https://5puzkbbxv1.cognition.run/?sona_id=57181,"en-US,en;q=0.9",w7femy1pog3wdbl,21,"[""White""]",No,Male,none,No,NA,4321,NA,"{""product_choice"":""B""}",choice,dct,trinary,repulsion_B,1,washing machines,null,null,null,null,null,null,1,90,100,80,40,30,40,Average lifespan,Energy savings,NA,NA
NA,NA,NA,NA,NA,choice_trial_setup,html-keyboard-response,72,321168,0.0-4.0-0.34,266,1,2025-05-06T21:53:43Z,b60275e29fe2361ab97ac0ac217840d7,"Mozilla/5.0 (X11; CrOS x86_64 14541.0.0) AppleWebKit/537.36 (KHTML, like Gecko) Chrome/134.0.0.0 Safari/537.36",WebKit,Chrome,134.0.0.0,ChromeOS,14541.0.0,https://5puzkbbxv1.cognition.run/?sona_id=57181,"en-US,en;q=0.9",w7femy1pog3wdbl,21,"[""White""]",No,Male,none,No,NA,null,<p></p>,null,choice,tcd,trinary,attraction,1,washing machines,null,null,null,null,null,null,1,NA,NA,NA,NA,NA,NA,NA,NA,NA,NA
NA,NA,NA,NA,NA,choice_trial,survey-html-form,73,326698,0.0-4.0-1.34,266,1,2025-05-06T21:53:43Z,b60275e29fe2361ab97ac0ac217840d7,"Mozilla/5.0 (X11; CrOS x86_64 14541.0.0) AppleWebKit/537.36 (KHTML, like Gecko) Chrome/134.0.0.0 Safari/537.36",WebKit,Chrome,134.0.0.0,ChromeOS,14541.0.0,https://5puzkbbxv1.cognition.run/?sona_id=57181,"en-US,en;q=0.9",w7femy1pog3wdbl,21,"[""White""]",No,Male,none,No,NA,5520,NA,"{""product_choice"":""A""}",choice,tcd,trinary,attraction,1,washing machines,null,null,null,null,null,null,1,60,50,60,50,60,40,Average lifespan,Energy savings,NA,NA
NA,NA,NA,NA,NA,choice_trial_setup,html-keyboard-response,74,327009,0.0-4.0-0.35,266,1,2025-05-06T21:53:43Z,b60275e29fe2361ab97ac0ac217840d7,"Mozilla/5.0 (X11; CrOS x86_64 14541.0.0) AppleWebKit/537.36 (KHTML, like Gecko) Chrome/134.0.0.0 Safari/537.36",WebKit,Chrome,134.0.0.0,ChromeOS,14541.0.0,https://5puzkbbxv1.cognition.run/?sona_id=57181,"en-US,en;q=0.9",w7femy1pog3wdbl,21,"[""White""]",No,Male,none,No,NA,null,<p></p>,null,choice,ctd,trinary,repulsion_A,2,washing machines,null,null,null,null,null,null,1,NA,NA,NA,NA,NA,NA,NA,NA,NA,NA
NA,NA,NA,NA,NA,choice_trial,survey-html-form,75,331590,0.0-4.0-1.35,266,1,2025-05-06T21:53:43Z,b60275e29fe2361ab97ac0ac217840d7,"Mozilla/5.0 (X11; CrOS x86_64 14541.0.0) AppleWebKit/537.36 (KHTML, like Gecko) Chrome/134.0.0.0 Safari/537.36",WebKit,Chrome,134.0.0.0,ChromeOS,14541.0.0,https://5puzkbbxv1.cognition.run/?sona_id=57181,"en-US,en;q=0.9",w7femy1pog3wdbl,21,"[""White""]",No,Male,none,No,NA,4575,NA,"{""product_choice"":""A""}",choice,ctd,trinary,repulsion_A,2,washing machines,null,null,null,null,null,null,1,30,40,20,100,90,100,Average lifespan,Energy savings,NA,NA
NA,NA,NA,NA,NA,choice_trial_setup,html-keyboard-response,76,331901,0.0-4.0-0.36,266,1,2025-05-06T21:53:43Z,b60275e29fe2361ab97ac0ac217840d7,"Mozilla/5.0 (X11; CrOS x86_64 14541.0.0) AppleWebKit/537.36 (KHTML, like Gecko) Chrome/134.0.0.0 Safari/537.36",WebKit,Chrome,134.0.0.0,ChromeOS,14541.0.0,https://5puzkbbxv1.cognition.run/?sona_id=57181,"en-US,en;q=0.9",w7femy1pog3wdbl,21,"[""White""]",No,Male,none,No,NA,null,<p></p>,null,choice,tc,binary,attraction,NA,laptops,null,null,null,null,null,null,2,NA,NA,NA,NA,NA,NA,NA,NA,NA,NA
NA,NA,NA,NA,NA,choice_trial,survey-html-form,77,336967,0.0-4.0-1.36,266,1,2025-05-06T21:53:43Z,b60275e29fe2361ab97ac0ac217840d7,"Mozilla/5.0 (X11; CrOS x86_64 14541.0.0) AppleWebKit/537.36 (KHTML, like Gecko) Chrome/134.0.0.0 Safari/537.36",WebKit,Chrome,134.0.0.0,ChromeOS,14541.0.0,https://5puzkbbxv1.cognition.run/?sona_id=57181,"en-US,en;q=0.9",w7femy1pog3wdbl,21,"[""White""]",No,Male,none,No,NA,5059,NA,"{""product_choice"":""B""}",choice,tc,binary,attraction,NA,laptops,null,null,null,null,null,null,2,60,50,null,50,60,null,Processing speed,Memory (RAM),NA,NA
NA,NA,NA,NA,NA,choice_trial_setup,html-keyboard-response,78,337277,0.0-4.0-0.37,266,1,2025-05-06T21:53:43Z,b60275e29fe2361ab97ac0ac217840d7,"Mozilla/5.0 (X11; CrOS x86_64 14541.0.0) AppleWebKit/537.36 (KHTML, like Gecko) Chrome/134.0.0.0 Safari/537.36",WebKit,Chrome,134.0.0.0,ChromeOS,14541.0.0,https://5puzkbbxv1.cognition.run/?sona_id=57181,"en-US,en;q=0.9",w7femy1pog3wdbl,21,"[""White""]",No,Male,none,No,NA,null,<p></p>,null,choice,tcd,trinary,repulsion_A,1,televisions,null,null,null,null,null,null,1,NA,NA,NA,NA,NA,NA,NA,NA,NA,NA
NA,NA,NA,NA,NA,choice_trial,survey-html-form,79,341341,0.0-4.0-1.37,266,1,2025-05-06T21:53:43Z,b60275e29fe2361ab97ac0ac217840d7,"Mozilla/5.0 (X11; CrOS x86_64 14541.0.0) AppleWebKit/537.36 (KHTML, like Gecko) Chrome/134.0.0.0 Safari/537.36",WebKit,Chrome,134.0.0.0,ChromeOS,14541.0.0,https://5puzkbbxv1.cognition.run/?sona_id=57181,"en-US,en;q=0.9",w7femy1pog3wdbl,21,"[""White""]",No,Male,none,No,NA,4057,NA,"{""product_choice"":""A""}",choice,tcd,trinary,repulsion_A,1,televisions,null,null,null,null,null,null,1,100,90,100,30,40,20,Screen size,Average lifespan,NA,NA
NA,NA,NA,NA,NA,choice_trial_setup,html-keyboard-response,80,341652,0.0-4.0-0.38,266,1,2025-05-06T21:53:43Z,b60275e29fe2361ab97ac0ac217840d7,"Mozilla/5.0 (X11; CrOS x86_64 14541.0.0) AppleWebKit/537.36 (KHTML, like Gecko) Chrome/134.0.0.0 Safari/537.36",WebKit,Chrome,134.0.0.0,ChromeOS,14541.0.0,https://5puzkbbxv1.cognition.run/?sona_id=57181,"en-US,en;q=0.9",w7femy1pog3wdbl,21,"[""White""]",No,Male,none,No,NA,null,<p></p>,null,choice,cdt,trinary,repulsion_B,1,televisions,null,null,null,null,null,null,1,NA,NA,NA,NA,NA,NA,NA,NA,NA,NA
NA,NA,NA,NA,NA,choice_trial,survey-html-form,81,349017,0.0-4.0-1.38,266,1,2025-05-06T21:53:43Z,b60275e29fe2361ab97ac0ac217840d7,"Mozilla/5.0 (X11; CrOS x86_64 14541.0.0) AppleWebKit/537.36 (KHTML, like Gecko) Chrome/134.0.0.0 Safari/537.36",WebKit,Chrome,134.0.0.0,ChromeOS,14541.0.0,https://5puzkbbxv1.cognition.run/?sona_id=57181,"en-US,en;q=0.9",w7femy1pog3wdbl,21,"[""White""]",No,Male,none,No,NA,7355,NA,"{""product_choice"":""C""}",choice,cdt,trinary,repulsion_B,1,televisions,null,null,null,null,null,null,1,90,100,80,40,30,40,Screen size,Average lifespan,NA,NA
NA,NA,NA,NA,NA,choice_trial_setup,html-keyboard-response,82,349328,0.0-4.0-0.39,266,1,2025-05-06T21:53:43Z,b60275e29fe2361ab97ac0ac217840d7,"Mozilla/5.0 (X11; CrOS x86_64 14541.0.0) AppleWebKit/537.36 (KHTML, like Gecko) Chrome/134.0.0.0 Safari/537.36",WebKit,Chrome,134.0.0.0,ChromeOS,14541.0.0,https://5puzkbbxv1.cognition.run/?sona_id=57181,"en-US,en;q=0.9",w7femy1pog3wdbl,21,"[""White""]",No,Male,none,No,NA,null,<p></p>,null,choice,wbw,trinary,catch,null,laptops,70,95,40,45,15,30,1,NA,NA,NA,NA,NA,NA,NA,NA,NA,NA
NA,NA,NA,NA,NA,choice_trial,survey-html-form,83,353287,0.0-4.0-1.39,266,1,2025-05-06T21:53:43Z,b60275e29fe2361ab97ac0ac217840d7,"Mozilla/5.0 (X11; CrOS x86_64 14541.0.0) AppleWebKit/537.36 (KHTML, like Gecko) Chrome/134.0.0.0 Safari/537.36",WebKit,Chrome,134.0.0.0,ChromeOS,14541.0.0,https://5puzkbbxv1.cognition.run/?sona_id=57181,"en-US,en;q=0.9",w7femy1pog3wdbl,21,"[""White""]",No,Male,none,No,NA,3947,NA,"{""product_choice"":""B""}",choice,wbw,trinary,catch,null,laptops,70,95,40,45,15,30,1,null,null,null,null,null,null,Processing speed,Memory (RAM),NA,NA
NA,NA,NA,NA,NA,choice_trial_setup,html-keyboard-response,84,353598,0.0-4.0-0.40,266,1,2025-05-06T21:53:43Z,b60275e29fe2361ab97ac0ac217840d7,"Mozilla/5.0 (X11; CrOS x86_64 14541.0.0) AppleWebKit/537.36 (KHTML, like Gecko) Chrome/134.0.0.0 Safari/537.36",WebKit,Chrome,134.0.0.0,ChromeOS,14541.0.0,https://5puzkbbxv1.cognition.run/?sona_id=57181,"en-US,en;q=0.9",w7femy1pog3wdbl,21,"[""White""]",No,Male,none,No,NA,null,<p></p>,null,choice,cdt,trinary,attraction,2,laptops,null,null,null,null,null,null,1,NA,NA,NA,NA,NA,NA,NA,NA,NA,NA
NA,NA,NA,NA,NA,choice_trial,survey-html-form,85,359149,0.0-4.0-1.40,266,1,2025-05-06T21:53:43Z,b60275e29fe2361ab97ac0ac217840d7,"Mozilla/5.0 (X11; CrOS x86_64 14541.0.0) AppleWebKit/537.36 (KHTML, like Gecko) Chrome/134.0.0.0 Safari/537.36",WebKit,Chrome,134.0.0.0,ChromeOS,14541.0.0,https://5puzkbbxv1.cognition.run/?sona_id=57181,"en-US,en;q=0.9",w7femy1pog3wdbl,21,"[""White""]",No,Male,none,No,NA,5544,NA,"{""product_choice"":""C""}",choice,cdt,trinary,attraction,2,laptops,null,null,null,null,null,null,1,50,60,40,60,50,60,Processing speed,Memory (RAM),NA,NA
NA,NA,NA,NA,NA,choice_trial_setup,html-keyboard-response,86,359459,0.0-4.0-0.41,266,1,2025-05-06T21:53:43Z,b60275e29fe2361ab97ac0ac217840d7,"Mozilla/5.0 (X11; CrOS x86_64 14541.0.0) AppleWebKit/537.36 (KHTML, like Gecko) Chrome/134.0.0.0 Safari/537.36",WebKit,Chrome,134.0.0.0,ChromeOS,14541.0.0,https://5puzkbbxv1.cognition.run/?sona_id=57181,"en-US,en;q=0.9",w7femy1pog3wdbl,21,"[""White""]",No,Male,none,No,NA,null,<p></p>,null,choice,tdc,trinary,repulsion_A,1,washing machines,null,null,null,null,null,null,1,NA,NA,NA,NA,NA,NA,NA,NA,NA,NA
NA,NA,NA,NA,NA,choice_trial,survey-html-form,87,362683,0.0-4.0-1.41,266,1,2025-05-06T21:53:43Z,b60275e29fe2361ab97ac0ac217840d7,"Mozilla/5.0 (X11; CrOS x86_64 14541.0.0) AppleWebKit/537.36 (KHTML, like Gecko) Chrome/134.0.0.0 Safari/537.36",WebKit,Chrome,134.0.0.0,ChromeOS,14541.0.0,https://5puzkbbxv1.cognition.run/?sona_id=57181,"en-US,en;q=0.9",w7femy1pog3wdbl,21,"[""White""]",No,Male,none,No,NA,3212,NA,"{""product_choice"":""A""}",choice,tdc,trinary,repulsion_A,1,washing machines,null,null,null,null,null,null,1,100,90,100,30,40,20,Average lifespan,Energy savings,NA,NA
NA,NA,NA,NA,NA,choice_trial_setup,html-keyboard-response,88,362995,0.0-4.0-0.42,266,1,2025-05-06T21:53:43Z,b60275e29fe2361ab97ac0ac217840d7,"Mozilla/5.0 (X11; CrOS x86_64 14541.0.0) AppleWebKit/537.36 (KHTML, like Gecko) Chrome/134.0.0.0 Safari/537.36",WebKit,Chrome,134.0.0.0,ChromeOS,14541.0.0,https://5puzkbbxv1.cognition.run/?sona_id=57181,"en-US,en;q=0.9",w7femy1pog3wdbl,21,"[""White""]",No,Male,none,No,NA,null,<p></p>,null,choice,dtc,trinary,repulsion_A,2,microwave ovens,null,null,null,null,null,null,1,NA,NA,NA,NA,NA,NA,NA,NA,NA,NA
NA,NA,NA,NA,NA,choice_trial,survey-html-form,89,370174,0.0-4.0-1.42,266,1,2025-05-06T21:53:43Z,b60275e29fe2361ab97ac0ac217840d7,"Mozilla/5.0 (X11; CrOS x86_64 14541.0.0) AppleWebKit/537.36 (KHTML, like Gecko) Chrome/134.0.0.0 Safari/537.36",WebKit,Chrome,134.0.0.0,ChromeOS,14541.0.0,https://5puzkbbxv1.cognition.run/?sona_id=57181,"en-US,en;q=0.9",w7femy1pog3wdbl,21,"[""White""]",No,Male,none,No,NA,7171,NA,"{""product_choice"":""C""}",choice,dtc,trinary,repulsion_A,2,microwave ovens,null,null,null,null,null,null,1,30,40,20,100,90,100,Warranty,Cooking power,NA,NA
NA,NA,NA,NA,NA,choice_trial_setup,html-keyboard-response,90,370484,0.0-4.0-0.43,266,1,2025-05-06T21:53:43Z,b60275e29fe2361ab97ac0ac217840d7,"Mozilla/5.0 (X11; CrOS x86_64 14541.0.0) AppleWebKit/537.36 (KHTML, like Gecko) Chrome/134.0.0.0 Safari/537.36",WebKit,Chrome,134.0.0.0,ChromeOS,14541.0.0,https://5puzkbbxv1.cognition.run/?sona_id=57181,"en-US,en;q=0.9",w7femy1pog3wdbl,21,"[""White""]",No,Male,none,No,NA,null,<p></p>,null,choice,ct,binary,attraction,NA,microwave ovens,null,null,null,null,null,null,1,NA,NA,NA,NA,NA,NA,NA,NA,NA,NA
NA,NA,NA,NA,NA,choice_trial,survey-html-form,91,374530,0.0-4.0-1.43,266,1,2025-05-06T21:53:43Z,b60275e29fe2361ab97ac0ac217840d7,"Mozilla/5.0 (X11; CrOS x86_64 14541.0.0) AppleWebKit/537.36 (KHTML, like Gecko) Chrome/134.0.0.0 Safari/537.36",WebKit,Chrome,134.0.0.0,ChromeOS,14541.0.0,https://5puzkbbxv1.cognition.run/?sona_id=57181,"en-US,en;q=0.9",w7femy1pog3wdbl,21,"[""White""]",No,Male,none,No,NA,4034,NA,"{""product_choice"":""B""}",choice,ct,binary,attraction,NA,microwave ovens,null,null,null,null,null,null,1,60,50,null,50,60,null,Warranty,Cooking power,NA,NA
NA,NA,NA,NA,NA,post_trials_message,html-button-response,92,378247,0.0-5.0,266,1,2025-05-06T21:53:43Z,b60275e29fe2361ab97ac0ac217840d7,"Mozilla/5.0 (X11; CrOS x86_64 14541.0.0) AppleWebKit/537.36 (KHTML, like Gecko) Chrome/134.0.0.0 Safari/537.36",WebKit,Chrome,134.0.0.0,ChromeOS,14541.0.0,https://5puzkbbxv1.cognition.run/?sona_id=57181,"en-US,en;q=0.9",w7femy1pog3wdbl,21,"[""White""]",No,Male,none,No,NA,3704,<p> <b>Thank you for your patience!</b></p><p>  The study will be done after completing a brief form. </p>,0,NA,NA,NA,NA,NA,NA,NA,NA,NA,NA,NA,NA,NA,NA,NA,NA,NA,NA,NA,NA,NA,NA,NA
NA,NA,NA,NA,NA,survey_message,survey-text,93,432131,0.0-6.0,266,1,2025-05-06T21:53:43Z,b60275e29fe2361ab97ac0ac217840d7,"Mozilla/5.0 (X11; CrOS x86_64 14541.0.0) AppleWebKit/537.36 (KHTML, like Gecko) Chrome/134.0.0.0 Safari/537.36",WebKit,Chrome,134.0.0.0,ChromeOS,14541.0.0,https://5puzkbbxv1.cognition.run/?sona_id=57181,"en-US,en;q=0.9",w7femy1pog3wdbl,21,"[""White""]",No,Male,none,No,NA,53875,NA,"{""Q0"":""made sure to select the highest sum for each product and then it was pretty arbitrary from there.""}",NA,NA,NA,NA,NA,NA,NA,NA,NA,NA,NA,NA,NA,NA,NA,NA,NA,NA,NA,NA,NA,made sure to select the highest sum for each product and then it was pretty arbitrary from there.,NA
NA,NA,NA,NA,NA,demo_age,survey-text,94,435965,0.0-7.0,266,1,2025-05-06T21:53:43Z,b60275e29fe2361ab97ac0ac217840d7,"Mozilla/5.0 (X11; CrOS x86_64 14541.0.0) AppleWebKit/537.36 (KHTML, like Gecko) Chrome/134.0.0.0 Safari/537.36",WebKit,Chrome,134.0.0.0,ChromeOS,14541.0.0,https://5puzkbbxv1.cognition.run/?sona_id=57181,"en-US,en;q=0.9",w7femy1pog3wdbl,21,"[""White""]",No,Male,none,No,NA,3828,NA,"{""Q0"":""21""}",NA,NA,NA,NA,NA,NA,NA,NA,NA,NA,NA,NA,NA,NA,NA,NA,NA,NA,NA,NA,NA,NA,NA
NA,NA,NA,NA,NA,demo_race,survey-multi-select,95,438365,0.0-8.0,266,1,2025-05-06T21:53:43Z,b60275e29fe2361ab97ac0ac217840d7,"Mozilla/5.0 (X11; CrOS x86_64 14541.0.0) AppleWebKit/537.36 (KHTML, like Gecko) Chrome/134.0.0.0 Safari/537.36",WebKit,Chrome,134.0.0.0,ChromeOS,14541.0.0,https://5puzkbbxv1.cognition.run/?sona_id=57181,"en-US,en;q=0.9",w7femy1pog3wdbl,21,"[""White""]",No,Male,none,No,NA,2392,NA,"{""Q0"":[""White""]}",NA,NA,NA,NA,NA,NA,NA,NA,NA,NA,NA,NA,NA,NA,NA,NA,NA,NA,NA,NA,NA,NA,[0]
NA,NA,NA,NA,NA,demo_ethnicity_gender,survey-multi-choice,96,444033,0.0-9.0,266,1,2025-05-06T21:53:43Z,b60275e29fe2361ab97ac0ac217840d7,"Mozilla/5.0 (X11; CrOS x86_64 14541.0.0) AppleWebKit/537.36 (KHTML, like Gecko) Chrome/134.0.0.0 Safari/537.36",WebKit,Chrome,134.0.0.0,ChromeOS,14541.0.0,https://5puzkbbxv1.cognition.run/?sona_id=57181,"en-US,en;q=0.9",w7femy1pog3wdbl,21,"[""White""]",No,Male,none,No,NA,5653,NA,"{""Q0"":""No"",""Q1"":""Male""}",NA,NA,NA,NA,NA,NA,NA,NA,NA,NA,NA,NA,NA,NA,NA,NA,NA,NA,NA,NA,NA,NA,"[0,1]"
NA,NA,NA,NA,NA,demo_countries,survey-text,97,454179,0.0-10.0,266,1,2025-05-06T21:53:43Z,b60275e29fe2361ab97ac0ac217840d7,"Mozilla/5.0 (X11; CrOS x86_64 14541.0.0) AppleWebKit/537.36 (KHTML, like Gecko) Chrome/134.0.0.0 Safari/537.36",WebKit,Chrome,134.0.0.0,ChromeOS,14541.0.0,https://5puzkbbxv1.cognition.run/?sona_id=57181,"en-US,en;q=0.9",w7femy1pog3wdbl,21,"[""White""]",No,Male,none,No,NA,10106,NA,"{""Q0"":""none""}",NA,NA,NA,NA,NA,NA,NA,NA,NA,NA,NA,NA,NA,NA,NA,NA,NA,NA,NA,NA,NA,NA,NA
NA,NA,NA,NA,NA,demo_prev_study,survey-multi-choice,98,460840,0.0-11.0,266,1,2025-05-06T21:53:43Z,b60275e29fe2361ab97ac0ac217840d7,"Mozilla/5.0 (X11; CrOS x86_64 14541.0.0) AppleWebKit/537.36 (KHTML, like Gecko) Chrome/134.0.0.0 Safari/537.36",WebKit,Chrome,134.0.0.0,ChromeOS,14541.0.0,https://5puzkbbxv1.cognition.run/?sona_id=57181,"en-US,en;q=0.9",w7femy1pog3wdbl,21,"[""White""]",No,Male,none,No,NA,6655,NA,"{""Q0"":""No""}",NA,NA,NA,NA,NA,NA,NA,NA,NA,NA,NA,NA,NA,NA,NA,NA,NA,NA,NA,NA,NA,NA,[0]
NA,NA,NA,NA,NA,post_survey_message,html-keyboard-response,99,467732,0.0-12.0,266,1,2025-05-06T21:53:43Z,b60275e29fe2361ab97ac0ac217840d7,"Mozilla/5.0 (X11; CrOS x86_64 14541.0.0) AppleWebKit/537.36 (KHTML, like Gecko) Chrome/134.0.0.0 Safari/537.36",WebKit,Chrome,134.0.0.0,ChromeOS,14541.0.0,https://5puzkbbxv1.cognition.run/?sona_id=57181,"en-US,en;q=0.9",w7femy1pog3wdbl,21,"[""White""]",No,Male,none,No,NA,6880,NA,j,NA,NA,NA,NA,NA,NA,NA,NA,NA,NA,NA,NA,NA,NA,NA,NA,NA,NA,NA,NA,NA,NA,NA
