success,timeout,failed_images,failed_audio,failed_video,screen_id,trial_type,trial_index,time_elapsed,internal_node_id,run_id,condition,recorded_at,source_code_version,user_agent,device,browser,browser_version,platform,platform_version,referer,accept_language,ppt_id,age,race,ethnicity,gender,other_countries,prev_study,exp_duration,view_history,rt,stimulus,response,phase,order,set,effect,t_high,category,d1_best,d2_best,d1_worst1,d2_worst1,d1_worst2,d2_worst2,first_dim,d1_t,d1_c,d1_d,d2_t,d2_c,d2_d,d1_name,d2_name,strategy_response,question_order
TRUE,FALSE,[],[],[],img preload,preload,0,112,0.0-0.0,269,1,2025-05-06T23:32:10Z,b60275e29fe2361ab97ac0ac217840d7,"Mozilla/5.0 (Macintosh; Intel Mac OS X 10_15_7) AppleWebKit/605.1.15 (KHTML, like Gecko) Version/18.3 Safari/605.1.15",Macintosh,Safari,18.3,OS X,10_15_7,https://5puzkbbxv1.cognition.run/?sona_id=51661,"en-US,en;q=0.9",m4rrp69ne7mmxdt,19,"[""White""]",No,Male,America,No,426362,NA,NA,NA,NA,NA,NA,NA,NA,NA,NA,NA,NA,NA,NA,NA,NA,NA,NA,NA,NA,NA,NA,NA,NA,NA,NA,NA
NA,NA,NA,NA,NA,computer_message,instructions,1,8586,0.0-1.0,269,1,2025-05-06T23:32:10Z,b60275e29fe2361ab97ac0ac217840d7,"Mozilla/5.0 (Macintosh; Intel Mac OS X 10_15_7) AppleWebKit/605.1.15 (KHTML, like Gecko) Version/18.3 Safari/605.1.15",Macintosh,Safari,18.3,OS X,10_15_7,https://5puzkbbxv1.cognition.run/?sona_id=51661,"en-US,en;q=0.9",m4rrp69ne7mmxdt,19,"[""White""]",No,Male,America,No,426362,"[{""page_index"":0,""viewing_time"":8472}]",8473,NA,NA,NA,NA,NA,NA,NA,NA,NA,NA,NA,NA,NA,NA,NA,NA,NA,NA,NA,NA,NA,NA,NA,NA,NA
TRUE,NA,NA,NA,NA,NA,fullscreen,2,11471,0.0-2.0,269,1,2025-05-06T23:32:10Z,b60275e29fe2361ab97ac0ac217840d7,"Mozilla/5.0 (Macintosh; Intel Mac OS X 10_15_7) AppleWebKit/605.1.15 (KHTML, like Gecko) Version/18.3 Safari/605.1.15",Macintosh,Safari,18.3,OS X,10_15_7,https://5puzkbbxv1.cognition.run/?sona_id=51661,"en-US,en;q=0.9",m4rrp69ne7mmxdt,19,"[""White""]",No,Male,America,No,426362,NA,1879,NA,NA,NA,NA,NA,NA,NA,NA,NA,NA,NA,NA,NA,NA,NA,NA,NA,NA,NA,NA,NA,NA,NA,NA,NA
NA,NA,NA,NA,NA,choice_instructions,instructions,3,57618,0.0-3.0,269,1,2025-05-06T23:32:10Z,b60275e29fe2361ab97ac0ac217840d7,"Mozilla/5.0 (Macintosh; Intel Mac OS X 10_15_7) AppleWebKit/605.1.15 (KHTML, like Gecko) Version/18.3 Safari/605.1.15",Macintosh,Safari,18.3,OS X,10_15_7,https://5puzkbbxv1.cognition.run/?sona_id=51661,"en-US,en;q=0.9",m4rrp69ne7mmxdt,19,"[""White""]",No,Male,America,No,426362,"[{""page_index"":0,""viewing_time"":1745},{""page_index"":1,""viewing_time"":4066},{""page_index"":2,""viewing_time"":4582},{""page_index"":3,""viewing_time"":7734},{""page_index"":4,""viewing_time"":5400},{""page_index"":5,""viewing_time"":20717},{""page_index"":6,""viewing_time"":1901}]",46145,NA,NA,NA,NA,NA,NA,NA,NA,NA,NA,NA,NA,NA,NA,NA,NA,NA,NA,NA,NA,NA,NA,NA,NA,NA
NA,NA,NA,NA,NA,choice_trial_setup,html-keyboard-response,4,57925,0.0-4.0-0.0,269,1,2025-05-06T23:32:10Z,b60275e29fe2361ab97ac0ac217840d7,"Mozilla/5.0 (Macintosh; Intel Mac OS X 10_15_7) AppleWebKit/605.1.15 (KHTML, like Gecko) Version/18.3 Safari/605.1.15",Macintosh,Safari,18.3,OS X,10_15_7,https://5puzkbbxv1.cognition.run/?sona_id=51661,"en-US,en;q=0.9",m4rrp69ne7mmxdt,19,"[""White""]",No,Male,America,No,426362,NA,null,<p></p>,null,choice,ct,binary,attraction,NA,televisions,null,null,null,null,null,null,1,NA,NA,NA,NA,NA,NA,NA,NA,NA,NA
NA,NA,NA,NA,NA,choice_trial,survey-html-form,5,64703,0.0-4.0-1.0,269,1,2025-05-06T23:32:10Z,b60275e29fe2361ab97ac0ac217840d7,"Mozilla/5.0 (Macintosh; Intel Mac OS X 10_15_7) AppleWebKit/605.1.15 (KHTML, like Gecko) Version/18.3 Safari/605.1.15",Macintosh,Safari,18.3,OS X,10_15_7,https://5puzkbbxv1.cognition.run/?sona_id=51661,"en-US,en;q=0.9",m4rrp69ne7mmxdt,19,"[""White""]",No,Male,America,No,426362,NA,6773,NA,"{""product_choice"":""A""}",choice,ct,binary,attraction,NA,televisions,null,null,null,null,null,null,1,60,50,null,50,60,null,Screen size,Average lifespan,NA,NA
NA,NA,NA,NA,NA,choice_trial_setup,html-keyboard-response,6,65007,0.0-4.0-0.1,269,1,2025-05-06T23:32:10Z,b60275e29fe2361ab97ac0ac217840d7,"Mozilla/5.0 (Macintosh; Intel Mac OS X 10_15_7) AppleWebKit/605.1.15 (KHTML, like Gecko) Version/18.3 Safari/605.1.15",Macintosh,Safari,18.3,OS X,10_15_7,https://5puzkbbxv1.cognition.run/?sona_id=51661,"en-US,en;q=0.9",m4rrp69ne7mmxdt,19,"[""White""]",No,Male,America,No,426362,NA,null,<p></p>,null,choice,dtc,trinary,attraction,1,televisions,null,null,null,null,null,null,2,NA,NA,NA,NA,NA,NA,NA,NA,NA,NA
NA,NA,NA,NA,NA,choice_trial,survey-html-form,7,71216,0.0-4.0-1.1,269,1,2025-05-06T23:32:10Z,b60275e29fe2361ab97ac0ac217840d7,"Mozilla/5.0 (Macintosh; Intel Mac OS X 10_15_7) AppleWebKit/605.1.15 (KHTML, like Gecko) Version/18.3 Safari/605.1.15",Macintosh,Safari,18.3,OS X,10_15_7,https://5puzkbbxv1.cognition.run/?sona_id=51661,"en-US,en;q=0.9",m4rrp69ne7mmxdt,19,"[""White""]",No,Male,America,No,426362,NA,6206,NA,"{""product_choice"":""C""}",choice,dtc,trinary,attraction,1,televisions,null,null,null,null,null,null,2,60,50,60,50,60,40,Screen size,Average lifespan,NA,NA
NA,NA,NA,NA,NA,choice_trial_setup,html-keyboard-response,8,71517,0.0-4.0-0.2,269,1,2025-05-06T23:32:10Z,b60275e29fe2361ab97ac0ac217840d7,"Mozilla/5.0 (Macintosh; Intel Mac OS X 10_15_7) AppleWebKit/605.1.15 (KHTML, like Gecko) Version/18.3 Safari/605.1.15",Macintosh,Safari,18.3,OS X,10_15_7,https://5puzkbbxv1.cognition.run/?sona_id=51661,"en-US,en;q=0.9",m4rrp69ne7mmxdt,19,"[""White""]",No,Male,America,No,426362,NA,null,<p></p>,null,choice,tc,binary,repulsion,2,laptops,null,null,null,null,null,null,2,NA,NA,NA,NA,NA,NA,NA,NA,NA,NA
NA,NA,NA,NA,NA,choice_trial,survey-html-form,9,81193,0.0-4.0-1.2,269,1,2025-05-06T23:32:10Z,b60275e29fe2361ab97ac0ac217840d7,"Mozilla/5.0 (Macintosh; Intel Mac OS X 10_15_7) AppleWebKit/605.1.15 (KHTML, like Gecko) Version/18.3 Safari/605.1.15",Macintosh,Safari,18.3,OS X,10_15_7,https://5puzkbbxv1.cognition.run/?sona_id=51661,"en-US,en;q=0.9",m4rrp69ne7mmxdt,19,"[""White""]",No,Male,America,No,426362,NA,9732,NA,"{""product_choice"":""A""}",choice,tc,binary,repulsion,2,laptops,null,null,null,null,null,null,2,30,40,null,100,90,null,Processing speed,Memory (RAM),NA,NA
NA,NA,NA,NA,NA,choice_trial_setup,html-keyboard-response,10,81497,0.0-4.0-0.3,269,1,2025-05-06T23:32:10Z,b60275e29fe2361ab97ac0ac217840d7,"Mozilla/5.0 (Macintosh; Intel Mac OS X 10_15_7) AppleWebKit/605.1.15 (KHTML, like Gecko) Version/18.3 Safari/605.1.15",Macintosh,Safari,18.3,OS X,10_15_7,https://5puzkbbxv1.cognition.run/?sona_id=51661,"en-US,en;q=0.9",m4rrp69ne7mmxdt,19,"[""White""]",No,Male,America,No,426362,NA,null,<p></p>,null,choice,tdc,trinary,repulsion_A,1,washing machines,null,null,null,null,null,null,2,NA,NA,NA,NA,NA,NA,NA,NA,NA,NA
NA,NA,NA,NA,NA,choice_trial,survey-html-form,11,88277,0.0-4.0-1.3,269,1,2025-05-06T23:32:10Z,b60275e29fe2361ab97ac0ac217840d7,"Mozilla/5.0 (Macintosh; Intel Mac OS X 10_15_7) AppleWebKit/605.1.15 (KHTML, like Gecko) Version/18.3 Safari/605.1.15",Macintosh,Safari,18.3,OS X,10_15_7,https://5puzkbbxv1.cognition.run/?sona_id=51661,"en-US,en;q=0.9",m4rrp69ne7mmxdt,19,"[""White""]",No,Male,America,No,426362,NA,6776,NA,"{""product_choice"":""C""}",choice,tdc,trinary,repulsion_A,1,washing machines,null,null,null,null,null,null,2,100,90,100,30,40,20,Average lifespan,Energy savings,NA,NA
NA,NA,NA,NA,NA,choice_trial_setup,html-keyboard-response,12,88580,0.0-4.0-0.4,269,1,2025-05-06T23:32:10Z,b60275e29fe2361ab97ac0ac217840d7,"Mozilla/5.0 (Macintosh; Intel Mac OS X 10_15_7) AppleWebKit/605.1.15 (KHTML, like Gecko) Version/18.3 Safari/605.1.15",Macintosh,Safari,18.3,OS X,10_15_7,https://5puzkbbxv1.cognition.run/?sona_id=51661,"en-US,en;q=0.9",m4rrp69ne7mmxdt,19,"[""White""]",No,Male,America,No,426362,NA,null,<p></p>,null,choice,bw,binary,catch,null,televisions,55,55,45,40,null,null,1,NA,NA,NA,NA,NA,NA,NA,NA,NA,NA
NA,NA,NA,NA,NA,choice_trial,survey-html-form,13,98440,0.0-4.0-1.4,269,1,2025-05-06T23:32:10Z,b60275e29fe2361ab97ac0ac217840d7,"Mozilla/5.0 (Macintosh; Intel Mac OS X 10_15_7) AppleWebKit/605.1.15 (KHTML, like Gecko) Version/18.3 Safari/605.1.15",Macintosh,Safari,18.3,OS X,10_15_7,https://5puzkbbxv1.cognition.run/?sona_id=51661,"en-US,en;q=0.9",m4rrp69ne7mmxdt,19,"[""White""]",No,Male,America,No,426362,NA,9856,NA,"{""product_choice"":""A""}",choice,bw,binary,catch,null,televisions,55,55,45,40,null,null,1,null,null,null,null,null,null,Screen size,Average lifespan,NA,NA
NA,NA,NA,NA,NA,choice_trial_setup,html-keyboard-response,14,98741,0.0-4.0-0.5,269,1,2025-05-06T23:32:10Z,b60275e29fe2361ab97ac0ac217840d7,"Mozilla/5.0 (Macintosh; Intel Mac OS X 10_15_7) AppleWebKit/605.1.15 (KHTML, like Gecko) Version/18.3 Safari/605.1.15",Macintosh,Safari,18.3,OS X,10_15_7,https://5puzkbbxv1.cognition.run/?sona_id=51661,"en-US,en;q=0.9",m4rrp69ne7mmxdt,19,"[""White""]",No,Male,America,No,426362,NA,null,<p></p>,null,choice,wwb,trinary,catch,null,microwave ovens,65,50,35,40,10,45,1,NA,NA,NA,NA,NA,NA,NA,NA,NA,NA
NA,NA,NA,NA,NA,choice_trial,survey-html-form,15,105293,0.0-4.0-1.5,269,1,2025-05-06T23:32:10Z,b60275e29fe2361ab97ac0ac217840d7,"Mozilla/5.0 (Macintosh; Intel Mac OS X 10_15_7) AppleWebKit/605.1.15 (KHTML, like Gecko) Version/18.3 Safari/605.1.15",Macintosh,Safari,18.3,OS X,10_15_7,https://5puzkbbxv1.cognition.run/?sona_id=51661,"en-US,en;q=0.9",m4rrp69ne7mmxdt,19,"[""White""]",No,Male,America,No,426362,NA,6549,NA,"{""product_choice"":""C""}",choice,wwb,trinary,catch,null,microwave ovens,65,50,35,40,10,45,1,null,null,null,null,null,null,Warranty,Cooking power,NA,NA
NA,NA,NA,NA,NA,choice_trial_setup,html-keyboard-response,16,105595,0.0-4.0-0.6,269,1,2025-05-06T23:32:10Z,b60275e29fe2361ab97ac0ac217840d7,"Mozilla/5.0 (Macintosh; Intel Mac OS X 10_15_7) AppleWebKit/605.1.15 (KHTML, like Gecko) Version/18.3 Safari/605.1.15",Macintosh,Safari,18.3,OS X,10_15_7,https://5puzkbbxv1.cognition.run/?sona_id=51661,"en-US,en;q=0.9",m4rrp69ne7mmxdt,19,"[""White""]",No,Male,America,No,426362,NA,null,<p></p>,null,choice,tc,binary,attraction,NA,laptops,null,null,null,null,null,null,2,NA,NA,NA,NA,NA,NA,NA,NA,NA,NA
NA,NA,NA,NA,NA,choice_trial,survey-html-form,17,112393,0.0-4.0-1.6,269,1,2025-05-06T23:32:10Z,b60275e29fe2361ab97ac0ac217840d7,"Mozilla/5.0 (Macintosh; Intel Mac OS X 10_15_7) AppleWebKit/605.1.15 (KHTML, like Gecko) Version/18.3 Safari/605.1.15",Macintosh,Safari,18.3,OS X,10_15_7,https://5puzkbbxv1.cognition.run/?sona_id=51661,"en-US,en;q=0.9",m4rrp69ne7mmxdt,19,"[""White""]",No,Male,America,No,426362,NA,6794,NA,"{""product_choice"":""B""}",choice,tc,binary,attraction,NA,laptops,null,null,null,null,null,null,2,60,50,null,50,60,null,Processing speed,Memory (RAM),NA,NA
NA,NA,NA,NA,NA,choice_trial_setup,html-keyboard-response,18,112696,0.0-4.0-0.7,269,1,2025-05-06T23:32:10Z,b60275e29fe2361ab97ac0ac217840d7,"Mozilla/5.0 (Macintosh; Intel Mac OS X 10_15_7) AppleWebKit/605.1.15 (KHTML, like Gecko) Version/18.3 Safari/605.1.15",Macintosh,Safari,18.3,OS X,10_15_7,https://5puzkbbxv1.cognition.run/?sona_id=51661,"en-US,en;q=0.9",m4rrp69ne7mmxdt,19,"[""White""]",No,Male,America,No,426362,NA,null,<p></p>,null,choice,ct,binary,repulsion,1,televisions,null,null,null,null,null,null,2,NA,NA,NA,NA,NA,NA,NA,NA,NA,NA
NA,NA,NA,NA,NA,choice_trial,survey-html-form,19,117442,0.0-4.0-1.7,269,1,2025-05-06T23:32:10Z,b60275e29fe2361ab97ac0ac217840d7,"Mozilla/5.0 (Macintosh; Intel Mac OS X 10_15_7) AppleWebKit/605.1.15 (KHTML, like Gecko) Version/18.3 Safari/605.1.15",Macintosh,Safari,18.3,OS X,10_15_7,https://5puzkbbxv1.cognition.run/?sona_id=51661,"en-US,en;q=0.9",m4rrp69ne7mmxdt,19,"[""White""]",No,Male,America,No,426362,NA,4743,NA,"{""product_choice"":""A""}",choice,ct,binary,repulsion,1,televisions,null,null,null,null,null,null,2,100,90,null,30,40,null,Screen size,Average lifespan,NA,NA
NA,NA,NA,NA,NA,choice_trial_setup,html-keyboard-response,20,117744,0.0-4.0-0.8,269,1,2025-05-06T23:32:10Z,b60275e29fe2361ab97ac0ac217840d7,"Mozilla/5.0 (Macintosh; Intel Mac OS X 10_15_7) AppleWebKit/605.1.15 (KHTML, like Gecko) Version/18.3 Safari/605.1.15",Macintosh,Safari,18.3,OS X,10_15_7,https://5puzkbbxv1.cognition.run/?sona_id=51661,"en-US,en;q=0.9",m4rrp69ne7mmxdt,19,"[""White""]",No,Male,America,No,426362,NA,null,<p></p>,null,choice,cdt,trinary,repulsion_A,2,microwave ovens,null,null,null,null,null,null,2,NA,NA,NA,NA,NA,NA,NA,NA,NA,NA
NA,NA,NA,NA,NA,choice_trial,survey-html-form,21,126108,0.0-4.0-1.8,269,1,2025-05-06T23:32:10Z,b60275e29fe2361ab97ac0ac217840d7,"Mozilla/5.0 (Macintosh; Intel Mac OS X 10_15_7) AppleWebKit/605.1.15 (KHTML, like Gecko) Version/18.3 Safari/605.1.15",Macintosh,Safari,18.3,OS X,10_15_7,https://5puzkbbxv1.cognition.run/?sona_id=51661,"en-US,en;q=0.9",m4rrp69ne7mmxdt,19,"[""White""]",No,Male,America,No,426362,NA,8361,NA,"{""product_choice"":""A""}",choice,cdt,trinary,repulsion_A,2,microwave ovens,null,null,null,null,null,null,2,30,40,20,100,90,100,Warranty,Cooking power,NA,NA
NA,NA,NA,NA,NA,choice_trial_setup,html-keyboard-response,22,126411,0.0-4.0-0.9,269,1,2025-05-06T23:32:10Z,b60275e29fe2361ab97ac0ac217840d7,"Mozilla/5.0 (Macintosh; Intel Mac OS X 10_15_7) AppleWebKit/605.1.15 (KHTML, like Gecko) Version/18.3 Safari/605.1.15",Macintosh,Safari,18.3,OS X,10_15_7,https://5puzkbbxv1.cognition.run/?sona_id=51661,"en-US,en;q=0.9",m4rrp69ne7mmxdt,19,"[""White""]",No,Male,America,No,426362,NA,null,<p></p>,null,choice,tc,binary,repulsion,1,microwave ovens,null,null,null,null,null,null,1,NA,NA,NA,NA,NA,NA,NA,NA,NA,NA
NA,NA,NA,NA,NA,choice_trial,survey-html-form,23,134277,0.0-4.0-1.9,269,1,2025-05-06T23:32:10Z,b60275e29fe2361ab97ac0ac217840d7,"Mozilla/5.0 (Macintosh; Intel Mac OS X 10_15_7) AppleWebKit/605.1.15 (KHTML, like Gecko) Version/18.3 Safari/605.1.15",Macintosh,Safari,18.3,OS X,10_15_7,https://5puzkbbxv1.cognition.run/?sona_id=51661,"en-US,en;q=0.9",m4rrp69ne7mmxdt,19,"[""White""]",No,Male,America,No,426362,NA,7862,NA,"{""product_choice"":""B""}",choice,tc,binary,repulsion,1,microwave ovens,null,null,null,null,null,null,1,100,90,null,30,40,null,Warranty,Cooking power,NA,NA
NA,NA,NA,NA,NA,choice_trial_setup,html-keyboard-response,24,134581,0.0-4.0-0.10,269,1,2025-05-06T23:32:10Z,b60275e29fe2361ab97ac0ac217840d7,"Mozilla/5.0 (Macintosh; Intel Mac OS X 10_15_7) AppleWebKit/605.1.15 (KHTML, like Gecko) Version/18.3 Safari/605.1.15",Macintosh,Safari,18.3,OS X,10_15_7,https://5puzkbbxv1.cognition.run/?sona_id=51661,"en-US,en;q=0.9",m4rrp69ne7mmxdt,19,"[""White""]",No,Male,America,No,426362,NA,null,<p></p>,null,choice,ctd,trinary,attraction,1,microwave ovens,null,null,null,null,null,null,2,NA,NA,NA,NA,NA,NA,NA,NA,NA,NA
NA,NA,NA,NA,NA,choice_trial,survey-html-form,25,142526,0.0-4.0-1.10,269,1,2025-05-06T23:32:10Z,b60275e29fe2361ab97ac0ac217840d7,"Mozilla/5.0 (Macintosh; Intel Mac OS X 10_15_7) AppleWebKit/605.1.15 (KHTML, like Gecko) Version/18.3 Safari/605.1.15",Macintosh,Safari,18.3,OS X,10_15_7,https://5puzkbbxv1.cognition.run/?sona_id=51661,"en-US,en;q=0.9",m4rrp69ne7mmxdt,19,"[""White""]",No,Male,America,No,426362,NA,7941,NA,"{""product_choice"":""A""}",choice,ctd,trinary,attraction,1,microwave ovens,null,null,null,null,null,null,2,60,50,60,50,60,40,Warranty,Cooking power,NA,NA
NA,NA,NA,NA,NA,choice_trial_setup,html-keyboard-response,26,142829,0.0-4.0-0.11,269,1,2025-05-06T23:32:10Z,b60275e29fe2361ab97ac0ac217840d7,"Mozilla/5.0 (Macintosh; Intel Mac OS X 10_15_7) AppleWebKit/605.1.15 (KHTML, like Gecko) Version/18.3 Safari/605.1.15",Macintosh,Safari,18.3,OS X,10_15_7,https://5puzkbbxv1.cognition.run/?sona_id=51661,"en-US,en;q=0.9",m4rrp69ne7mmxdt,19,"[""White""]",No,Male,America,No,426362,NA,null,<p></p>,null,choice,wb,binary,catch,null,laptops,95,50,50,45,null,null,1,NA,NA,NA,NA,NA,NA,NA,NA,NA,NA
NA,NA,NA,NA,NA,choice_trial,survey-html-form,27,147842,0.0-4.0-1.11,269,1,2025-05-06T23:32:10Z,b60275e29fe2361ab97ac0ac217840d7,"Mozilla/5.0 (Macintosh; Intel Mac OS X 10_15_7) AppleWebKit/605.1.15 (KHTML, like Gecko) Version/18.3 Safari/605.1.15",Macintosh,Safari,18.3,OS X,10_15_7,https://5puzkbbxv1.cognition.run/?sona_id=51661,"en-US,en;q=0.9",m4rrp69ne7mmxdt,19,"[""White""]",No,Male,America,No,426362,NA,5009,NA,"{""product_choice"":""B""}",choice,wb,binary,catch,null,laptops,95,50,50,45,null,null,1,null,null,null,null,null,null,Processing speed,Memory (RAM),NA,NA
NA,NA,NA,NA,NA,choice_trial_setup,html-keyboard-response,28,148145,0.0-4.0-0.12,269,1,2025-05-06T23:32:10Z,b60275e29fe2361ab97ac0ac217840d7,"Mozilla/5.0 (Macintosh; Intel Mac OS X 10_15_7) AppleWebKit/605.1.15 (KHTML, like Gecko) Version/18.3 Safari/605.1.15",Macintosh,Safari,18.3,OS X,10_15_7,https://5puzkbbxv1.cognition.run/?sona_id=51661,"en-US,en;q=0.9",m4rrp69ne7mmxdt,19,"[""White""]",No,Male,America,No,426362,NA,null,<p></p>,null,choice,tcd,trinary,repulsion_B,2,washing machines,null,null,null,null,null,null,1,NA,NA,NA,NA,NA,NA,NA,NA,NA,NA
NA,NA,NA,NA,NA,choice_trial,survey-html-form,29,155325,0.0-4.0-1.12,269,1,2025-05-06T23:32:10Z,b60275e29fe2361ab97ac0ac217840d7,"Mozilla/5.0 (Macintosh; Intel Mac OS X 10_15_7) AppleWebKit/605.1.15 (KHTML, like Gecko) Version/18.3 Safari/605.1.15",Macintosh,Safari,18.3,OS X,10_15_7,https://5puzkbbxv1.cognition.run/?sona_id=51661,"en-US,en;q=0.9",m4rrp69ne7mmxdt,19,"[""White""]",No,Male,America,No,426362,NA,7176,NA,"{""product_choice"":""B""}",choice,tcd,trinary,repulsion_B,2,washing machines,null,null,null,null,null,null,1,40,30,40,90,100,80,Average lifespan,Energy savings,NA,NA
NA,NA,NA,NA,NA,choice_trial_setup,html-keyboard-response,30,155628,0.0-4.0-0.13,269,1,2025-05-06T23:32:10Z,b60275e29fe2361ab97ac0ac217840d7,"Mozilla/5.0 (Macintosh; Intel Mac OS X 10_15_7) AppleWebKit/605.1.15 (KHTML, like Gecko) Version/18.3 Safari/605.1.15",Macintosh,Safari,18.3,OS X,10_15_7,https://5puzkbbxv1.cognition.run/?sona_id=51661,"en-US,en;q=0.9",m4rrp69ne7mmxdt,19,"[""White""]",No,Male,America,No,426362,NA,null,<p></p>,null,choice,tcd,trinary,attraction,1,washing machines,null,null,null,null,null,null,1,NA,NA,NA,NA,NA,NA,NA,NA,NA,NA
NA,NA,NA,NA,NA,choice_trial,survey-html-form,31,164108,0.0-4.0-1.13,269,1,2025-05-06T23:32:10Z,b60275e29fe2361ab97ac0ac217840d7,"Mozilla/5.0 (Macintosh; Intel Mac OS X 10_15_7) AppleWebKit/605.1.15 (KHTML, like Gecko) Version/18.3 Safari/605.1.15",Macintosh,Safari,18.3,OS X,10_15_7,https://5puzkbbxv1.cognition.run/?sona_id=51661,"en-US,en;q=0.9",m4rrp69ne7mmxdt,19,"[""White""]",No,Male,America,No,426362,NA,8476,NA,"{""product_choice"":""A""}",choice,tcd,trinary,attraction,1,washing machines,null,null,null,null,null,null,1,60,50,60,50,60,40,Average lifespan,Energy savings,NA,NA
NA,NA,NA,NA,NA,choice_trial_setup,html-keyboard-response,32,164412,0.0-4.0-0.14,269,1,2025-05-06T23:32:10Z,b60275e29fe2361ab97ac0ac217840d7,"Mozilla/5.0 (Macintosh; Intel Mac OS X 10_15_7) AppleWebKit/605.1.15 (KHTML, like Gecko) Version/18.3 Safari/605.1.15",Macintosh,Safari,18.3,OS X,10_15_7,https://5puzkbbxv1.cognition.run/?sona_id=51661,"en-US,en;q=0.9",m4rrp69ne7mmxdt,19,"[""White""]",No,Male,America,No,426362,NA,null,<p></p>,null,choice,ctd,trinary,repulsion_A,2,televisions,null,null,null,null,null,null,1,NA,NA,NA,NA,NA,NA,NA,NA,NA,NA
NA,NA,NA,NA,NA,choice_trial,survey-html-form,33,170975,0.0-4.0-1.14,269,1,2025-05-06T23:32:10Z,b60275e29fe2361ab97ac0ac217840d7,"Mozilla/5.0 (Macintosh; Intel Mac OS X 10_15_7) AppleWebKit/605.1.15 (KHTML, like Gecko) Version/18.3 Safari/605.1.15",Macintosh,Safari,18.3,OS X,10_15_7,https://5puzkbbxv1.cognition.run/?sona_id=51661,"en-US,en;q=0.9",m4rrp69ne7mmxdt,19,"[""White""]",No,Male,America,No,426362,NA,6559,NA,"{""product_choice"":""A""}",choice,ctd,trinary,repulsion_A,2,televisions,null,null,null,null,null,null,1,30,40,20,100,90,100,Screen size,Average lifespan,NA,NA
NA,NA,NA,NA,NA,choice_trial_setup,html-keyboard-response,34,171279,0.0-4.0-0.15,269,1,2025-05-06T23:32:10Z,b60275e29fe2361ab97ac0ac217840d7,"Mozilla/5.0 (Macintosh; Intel Mac OS X 10_15_7) AppleWebKit/605.1.15 (KHTML, like Gecko) Version/18.3 Safari/605.1.15",Macintosh,Safari,18.3,OS X,10_15_7,https://5puzkbbxv1.cognition.run/?sona_id=51661,"en-US,en;q=0.9",m4rrp69ne7mmxdt,19,"[""White""]",No,Male,America,No,426362,NA,null,<p></p>,null,choice,wb,binary,catch,null,microwave ovens,70,50,35,30,null,null,2,NA,NA,NA,NA,NA,NA,NA,NA,NA,NA
NA,NA,NA,NA,NA,choice_trial,survey-html-form,35,179408,0.0-4.0-1.15,269,1,2025-05-06T23:32:10Z,b60275e29fe2361ab97ac0ac217840d7,"Mozilla/5.0 (Macintosh; Intel Mac OS X 10_15_7) AppleWebKit/605.1.15 (KHTML, like Gecko) Version/18.3 Safari/605.1.15",Macintosh,Safari,18.3,OS X,10_15_7,https://5puzkbbxv1.cognition.run/?sona_id=51661,"en-US,en;q=0.9",m4rrp69ne7mmxdt,19,"[""White""]",No,Male,America,No,426362,NA,8126,NA,"{""product_choice"":""B""}",choice,wb,binary,catch,null,microwave ovens,70,50,35,30,null,null,2,null,null,null,null,null,null,Warranty,Cooking power,NA,NA
NA,NA,NA,NA,NA,choice_trial_setup,html-keyboard-response,36,179712,0.0-4.0-0.16,269,1,2025-05-06T23:32:10Z,b60275e29fe2361ab97ac0ac217840d7,"Mozilla/5.0 (Macintosh; Intel Mac OS X 10_15_7) AppleWebKit/605.1.15 (KHTML, like Gecko) Version/18.3 Safari/605.1.15",Macintosh,Safari,18.3,OS X,10_15_7,https://5puzkbbxv1.cognition.run/?sona_id=51661,"en-US,en;q=0.9",m4rrp69ne7mmxdt,19,"[""White""]",No,Male,America,No,426362,NA,null,<p></p>,null,choice,dct,trinary,repulsion_B,2,televisions,null,null,null,null,null,null,2,NA,NA,NA,NA,NA,NA,NA,NA,NA,NA
NA,NA,NA,NA,NA,choice_trial,survey-html-form,37,190691,0.0-4.0-1.16,269,1,2025-05-06T23:32:10Z,b60275e29fe2361ab97ac0ac217840d7,"Mozilla/5.0 (Macintosh; Intel Mac OS X 10_15_7) AppleWebKit/605.1.15 (KHTML, like Gecko) Version/18.3 Safari/605.1.15",Macintosh,Safari,18.3,OS X,10_15_7,https://5puzkbbxv1.cognition.run/?sona_id=51661,"en-US,en;q=0.9",m4rrp69ne7mmxdt,19,"[""White""]",No,Male,America,No,426362,NA,10974,NA,"{""product_choice"":""B""}",choice,dct,trinary,repulsion_B,2,televisions,null,null,null,null,null,null,2,40,30,40,90,100,80,Screen size,Average lifespan,NA,NA
NA,NA,NA,NA,NA,choice_trial_setup,html-keyboard-response,38,190994,0.0-4.0-0.17,269,1,2025-05-06T23:32:10Z,b60275e29fe2361ab97ac0ac217840d7,"Mozilla/5.0 (Macintosh; Intel Mac OS X 10_15_7) AppleWebKit/605.1.15 (KHTML, like Gecko) Version/18.3 Safari/605.1.15",Macintosh,Safari,18.3,OS X,10_15_7,https://5puzkbbxv1.cognition.run/?sona_id=51661,"en-US,en;q=0.9",m4rrp69ne7mmxdt,19,"[""White""]",No,Male,America,No,426362,NA,null,<p></p>,null,choice,wbw,trinary,catch,null,washing machines,55,50,50,35,20,15,2,NA,NA,NA,NA,NA,NA,NA,NA,NA,NA
NA,NA,NA,NA,NA,choice_trial,survey-html-form,39,195974,0.0-4.0-1.17,269,1,2025-05-06T23:32:10Z,b60275e29fe2361ab97ac0ac217840d7,"Mozilla/5.0 (Macintosh; Intel Mac OS X 10_15_7) AppleWebKit/605.1.15 (KHTML, like Gecko) Version/18.3 Safari/605.1.15",Macintosh,Safari,18.3,OS X,10_15_7,https://5puzkbbxv1.cognition.run/?sona_id=51661,"en-US,en;q=0.9",m4rrp69ne7mmxdt,19,"[""White""]",No,Male,America,No,426362,NA,4976,NA,"{""product_choice"":""B""}",choice,wbw,trinary,catch,null,washing machines,55,50,50,35,20,15,2,null,null,null,null,null,null,Average lifespan,Energy savings,NA,NA
NA,NA,NA,NA,NA,choice_trial_setup,html-keyboard-response,40,196278,0.0-4.0-0.18,269,1,2025-05-06T23:32:10Z,b60275e29fe2361ab97ac0ac217840d7,"Mozilla/5.0 (Macintosh; Intel Mac OS X 10_15_7) AppleWebKit/605.1.15 (KHTML, like Gecko) Version/18.3 Safari/605.1.15",Macintosh,Safari,18.3,OS X,10_15_7,https://5puzkbbxv1.cognition.run/?sona_id=51661,"en-US,en;q=0.9",m4rrp69ne7mmxdt,19,"[""White""]",No,Male,America,No,426362,NA,null,<p></p>,null,choice,tcd,trinary,repulsion_A,1,laptops,null,null,null,null,null,null,1,NA,NA,NA,NA,NA,NA,NA,NA,NA,NA
NA,NA,NA,NA,NA,choice_trial,survey-html-form,41,199991,0.0-4.0-1.18,269,1,2025-05-06T23:32:10Z,b60275e29fe2361ab97ac0ac217840d7,"Mozilla/5.0 (Macintosh; Intel Mac OS X 10_15_7) AppleWebKit/605.1.15 (KHTML, like Gecko) Version/18.3 Safari/605.1.15",Macintosh,Safari,18.3,OS X,10_15_7,https://5puzkbbxv1.cognition.run/?sona_id=51661,"en-US,en;q=0.9",m4rrp69ne7mmxdt,19,"[""White""]",No,Male,America,No,426362,NA,3708,NA,"{""product_choice"":""B""}",choice,tcd,trinary,repulsion_A,1,laptops,null,null,null,null,null,null,1,100,90,100,30,40,20,Processing speed,Memory (RAM),NA,NA
NA,NA,NA,NA,NA,choice_trial_setup,html-keyboard-response,42,200295,0.0-4.0-0.19,269,1,2025-05-06T23:32:10Z,b60275e29fe2361ab97ac0ac217840d7,"Mozilla/5.0 (Macintosh; Intel Mac OS X 10_15_7) AppleWebKit/605.1.15 (KHTML, like Gecko) Version/18.3 Safari/605.1.15",Macintosh,Safari,18.3,OS X,10_15_7,https://5puzkbbxv1.cognition.run/?sona_id=51661,"en-US,en;q=0.9",m4rrp69ne7mmxdt,19,"[""White""]",No,Male,America,No,426362,NA,null,<p></p>,null,choice,tc,binary,repulsion,2,microwave ovens,null,null,null,null,null,null,1,NA,NA,NA,NA,NA,NA,NA,NA,NA,NA
NA,NA,NA,NA,NA,choice_trial,survey-html-form,43,204407,0.0-4.0-1.19,269,1,2025-05-06T23:32:10Z,b60275e29fe2361ab97ac0ac217840d7,"Mozilla/5.0 (Macintosh; Intel Mac OS X 10_15_7) AppleWebKit/605.1.15 (KHTML, like Gecko) Version/18.3 Safari/605.1.15",Macintosh,Safari,18.3,OS X,10_15_7,https://5puzkbbxv1.cognition.run/?sona_id=51661,"en-US,en;q=0.9",m4rrp69ne7mmxdt,19,"[""White""]",No,Male,America,No,426362,NA,4106,NA,"{""product_choice"":""B""}",choice,tc,binary,repulsion,2,microwave ovens,null,null,null,null,null,null,1,30,40,null,100,90,null,Warranty,Cooking power,NA,NA
NA,NA,NA,NA,NA,choice_trial_setup,html-keyboard-response,44,204710,0.0-4.0-0.20,269,1,2025-05-06T23:32:10Z,b60275e29fe2361ab97ac0ac217840d7,"Mozilla/5.0 (Macintosh; Intel Mac OS X 10_15_7) AppleWebKit/605.1.15 (KHTML, like Gecko) Version/18.3 Safari/605.1.15",Macintosh,Safari,18.3,OS X,10_15_7,https://5puzkbbxv1.cognition.run/?sona_id=51661,"en-US,en;q=0.9",m4rrp69ne7mmxdt,19,"[""White""]",No,Male,America,No,426362,NA,null,<p></p>,null,choice,tcd,trinary,repulsion_A,1,televisions,null,null,null,null,null,null,1,NA,NA,NA,NA,NA,NA,NA,NA,NA,NA
NA,NA,NA,NA,NA,choice_trial,survey-html-form,45,208957,0.0-4.0-1.20,269,1,2025-05-06T23:32:10Z,b60275e29fe2361ab97ac0ac217840d7,"Mozilla/5.0 (Macintosh; Intel Mac OS X 10_15_7) AppleWebKit/605.1.15 (KHTML, like Gecko) Version/18.3 Safari/605.1.15",Macintosh,Safari,18.3,OS X,10_15_7,https://5puzkbbxv1.cognition.run/?sona_id=51661,"en-US,en;q=0.9",m4rrp69ne7mmxdt,19,"[""White""]",No,Male,America,No,426362,NA,4242,NA,"{""product_choice"":""B""}",choice,tcd,trinary,repulsion_A,1,televisions,null,null,null,null,null,null,1,100,90,100,30,40,20,Screen size,Average lifespan,NA,NA
NA,NA,NA,NA,NA,choice_trial_setup,html-keyboard-response,46,209260,0.0-4.0-0.21,269,1,2025-05-06T23:32:10Z,b60275e29fe2361ab97ac0ac217840d7,"Mozilla/5.0 (Macintosh; Intel Mac OS X 10_15_7) AppleWebKit/605.1.15 (KHTML, like Gecko) Version/18.3 Safari/605.1.15",Macintosh,Safari,18.3,OS X,10_15_7,https://5puzkbbxv1.cognition.run/?sona_id=51661,"en-US,en;q=0.9",m4rrp69ne7mmxdt,19,"[""White""]",No,Male,America,No,426362,NA,null,<p></p>,null,choice,tdc,trinary,attraction,2,televisions,null,null,null,null,null,null,1,NA,NA,NA,NA,NA,NA,NA,NA,NA,NA
NA,NA,NA,NA,NA,choice_trial,survey-html-form,47,218358,0.0-4.0-1.21,269,1,2025-05-06T23:32:10Z,b60275e29fe2361ab97ac0ac217840d7,"Mozilla/5.0 (Macintosh; Intel Mac OS X 10_15_7) AppleWebKit/605.1.15 (KHTML, like Gecko) Version/18.3 Safari/605.1.15",Macintosh,Safari,18.3,OS X,10_15_7,https://5puzkbbxv1.cognition.run/?sona_id=51661,"en-US,en;q=0.9",m4rrp69ne7mmxdt,19,"[""White""]",No,Male,America,No,426362,NA,9089,NA,"{""product_choice"":""A""}",choice,tdc,trinary,attraction,2,televisions,null,null,null,null,null,null,1,50,60,40,60,50,60,Screen size,Average lifespan,NA,NA
NA,NA,NA,NA,NA,choice_trial_setup,html-keyboard-response,48,218663,0.0-4.0-0.22,269,1,2025-05-06T23:32:10Z,b60275e29fe2361ab97ac0ac217840d7,"Mozilla/5.0 (Macintosh; Intel Mac OS X 10_15_7) AppleWebKit/605.1.15 (KHTML, like Gecko) Version/18.3 Safari/605.1.15",Macintosh,Safari,18.3,OS X,10_15_7,https://5puzkbbxv1.cognition.run/?sona_id=51661,"en-US,en;q=0.9",m4rrp69ne7mmxdt,19,"[""White""]",No,Male,America,No,426362,NA,null,<p></p>,null,choice,ctd,trinary,repulsion_B,2,laptops,null,null,null,null,null,null,1,NA,NA,NA,NA,NA,NA,NA,NA,NA,NA
NA,NA,NA,NA,NA,choice_trial,survey-html-form,49,226907,0.0-4.0-1.22,269,1,2025-05-06T23:32:10Z,b60275e29fe2361ab97ac0ac217840d7,"Mozilla/5.0 (Macintosh; Intel Mac OS X 10_15_7) AppleWebKit/605.1.15 (KHTML, like Gecko) Version/18.3 Safari/605.1.15",Macintosh,Safari,18.3,OS X,10_15_7,https://5puzkbbxv1.cognition.run/?sona_id=51661,"en-US,en;q=0.9",m4rrp69ne7mmxdt,19,"[""White""]",No,Male,America,No,426362,NA,8238,NA,"{""product_choice"":""B""}",choice,ctd,trinary,repulsion_B,2,laptops,null,null,null,null,null,null,1,40,30,40,90,100,80,Processing speed,Memory (RAM),NA,NA
NA,NA,NA,NA,NA,choice_trial_setup,html-keyboard-response,50,227211,0.0-4.0-0.23,269,1,2025-05-06T23:32:10Z,b60275e29fe2361ab97ac0ac217840d7,"Mozilla/5.0 (Macintosh; Intel Mac OS X 10_15_7) AppleWebKit/605.1.15 (KHTML, like Gecko) Version/18.3 Safari/605.1.15",Macintosh,Safari,18.3,OS X,10_15_7,https://5puzkbbxv1.cognition.run/?sona_id=51661,"en-US,en;q=0.9",m4rrp69ne7mmxdt,19,"[""White""]",No,Male,America,No,426362,NA,null,<p></p>,null,choice,wbw,trinary,catch,null,laptops,60,75,20,35,50,5,1,NA,NA,NA,NA,NA,NA,NA,NA,NA,NA
NA,NA,NA,NA,NA,choice_trial,survey-html-form,51,231140,0.0-4.0-1.23,269,1,2025-05-06T23:32:10Z,b60275e29fe2361ab97ac0ac217840d7,"Mozilla/5.0 (Macintosh; Intel Mac OS X 10_15_7) AppleWebKit/605.1.15 (KHTML, like Gecko) Version/18.3 Safari/605.1.15",Macintosh,Safari,18.3,OS X,10_15_7,https://5puzkbbxv1.cognition.run/?sona_id=51661,"en-US,en;q=0.9",m4rrp69ne7mmxdt,19,"[""White""]",No,Male,America,No,426362,NA,3925,NA,"{""product_choice"":""B""}",choice,wbw,trinary,catch,null,laptops,60,75,20,35,50,5,1,null,null,null,null,null,null,Processing speed,Memory (RAM),NA,NA
NA,NA,NA,NA,NA,choice_trial_setup,html-keyboard-response,52,231444,0.0-4.0-0.24,269,1,2025-05-06T23:32:10Z,b60275e29fe2361ab97ac0ac217840d7,"Mozilla/5.0 (Macintosh; Intel Mac OS X 10_15_7) AppleWebKit/605.1.15 (KHTML, like Gecko) Version/18.3 Safari/605.1.15",Macintosh,Safari,18.3,OS X,10_15_7,https://5puzkbbxv1.cognition.run/?sona_id=51661,"en-US,en;q=0.9",m4rrp69ne7mmxdt,19,"[""White""]",No,Male,America,No,426362,NA,null,<p></p>,null,choice,tc,binary,repulsion,1,laptops,null,null,null,null,null,null,2,NA,NA,NA,NA,NA,NA,NA,NA,NA,NA
NA,NA,NA,NA,NA,choice_trial,survey-html-form,53,237223,0.0-4.0-1.24,269,1,2025-05-06T23:32:10Z,b60275e29fe2361ab97ac0ac217840d7,"Mozilla/5.0 (Macintosh; Intel Mac OS X 10_15_7) AppleWebKit/605.1.15 (KHTML, like Gecko) Version/18.3 Safari/605.1.15",Macintosh,Safari,18.3,OS X,10_15_7,https://5puzkbbxv1.cognition.run/?sona_id=51661,"en-US,en;q=0.9",m4rrp69ne7mmxdt,19,"[""White""]",No,Male,America,No,426362,NA,5775,NA,"{""product_choice"":""B""}",choice,tc,binary,repulsion,1,laptops,null,null,null,null,null,null,2,100,90,null,30,40,null,Processing speed,Memory (RAM),NA,NA
NA,NA,NA,NA,NA,choice_trial_setup,html-keyboard-response,54,237527,0.0-4.0-0.25,269,1,2025-05-06T23:32:10Z,b60275e29fe2361ab97ac0ac217840d7,"Mozilla/5.0 (Macintosh; Intel Mac OS X 10_15_7) AppleWebKit/605.1.15 (KHTML, like Gecko) Version/18.3 Safari/605.1.15",Macintosh,Safari,18.3,OS X,10_15_7,https://5puzkbbxv1.cognition.run/?sona_id=51661,"en-US,en;q=0.9",m4rrp69ne7mmxdt,19,"[""White""]",No,Male,America,No,426362,NA,null,<p></p>,null,choice,ct,binary,repulsion,2,televisions,null,null,null,null,null,null,1,NA,NA,NA,NA,NA,NA,NA,NA,NA,NA
NA,NA,NA,NA,NA,choice_trial,survey-html-form,55,241523,0.0-4.0-1.25,269,1,2025-05-06T23:32:10Z,b60275e29fe2361ab97ac0ac217840d7,"Mozilla/5.0 (Macintosh; Intel Mac OS X 10_15_7) AppleWebKit/605.1.15 (KHTML, like Gecko) Version/18.3 Safari/605.1.15",Macintosh,Safari,18.3,OS X,10_15_7,https://5puzkbbxv1.cognition.run/?sona_id=51661,"en-US,en;q=0.9",m4rrp69ne7mmxdt,19,"[""White""]",No,Male,America,No,426362,NA,3992,NA,"{""product_choice"":""A""}",choice,ct,binary,repulsion,2,televisions,null,null,null,null,null,null,1,30,40,null,100,90,null,Screen size,Average lifespan,NA,NA
NA,NA,NA,NA,NA,choice_trial_setup,html-keyboard-response,56,241827,0.0-4.0-0.26,269,1,2025-05-06T23:32:10Z,b60275e29fe2361ab97ac0ac217840d7,"Mozilla/5.0 (Macintosh; Intel Mac OS X 10_15_7) AppleWebKit/605.1.15 (KHTML, like Gecko) Version/18.3 Safari/605.1.15",Macintosh,Safari,18.3,OS X,10_15_7,https://5puzkbbxv1.cognition.run/?sona_id=51661,"en-US,en;q=0.9",m4rrp69ne7mmxdt,19,"[""White""]",No,Male,America,No,426362,NA,null,<p></p>,null,choice,dtc,trinary,repulsion_B,1,microwave ovens,null,null,null,null,null,null,2,NA,NA,NA,NA,NA,NA,NA,NA,NA,NA
NA,NA,NA,NA,NA,choice_trial,survey-html-form,57,245439,0.0-4.0-1.26,269,1,2025-05-06T23:32:10Z,b60275e29fe2361ab97ac0ac217840d7,"Mozilla/5.0 (Macintosh; Intel Mac OS X 10_15_7) AppleWebKit/605.1.15 (KHTML, like Gecko) Version/18.3 Safari/605.1.15",Macintosh,Safari,18.3,OS X,10_15_7,https://5puzkbbxv1.cognition.run/?sona_id=51661,"en-US,en;q=0.9",m4rrp69ne7mmxdt,19,"[""White""]",No,Male,America,No,426362,NA,3607,NA,"{""product_choice"":""B""}",choice,dtc,trinary,repulsion_B,1,microwave ovens,null,null,null,null,null,null,2,90,100,80,40,30,40,Warranty,Cooking power,NA,NA
NA,NA,NA,NA,NA,choice_trial_setup,html-keyboard-response,58,245743,0.0-4.0-0.27,269,1,2025-05-06T23:32:10Z,b60275e29fe2361ab97ac0ac217840d7,"Mozilla/5.0 (Macintosh; Intel Mac OS X 10_15_7) AppleWebKit/605.1.15 (KHTML, like Gecko) Version/18.3 Safari/605.1.15",Macintosh,Safari,18.3,OS X,10_15_7,https://5puzkbbxv1.cognition.run/?sona_id=51661,"en-US,en;q=0.9",m4rrp69ne7mmxdt,19,"[""White""]",No,Male,America,No,426362,NA,null,<p></p>,null,choice,tc,binary,attraction,NA,washing machines,null,null,null,null,null,null,1,NA,NA,NA,NA,NA,NA,NA,NA,NA,NA
NA,NA,NA,NA,NA,choice_trial,survey-html-form,59,249922,0.0-4.0-1.27,269,1,2025-05-06T23:32:10Z,b60275e29fe2361ab97ac0ac217840d7,"Mozilla/5.0 (Macintosh; Intel Mac OS X 10_15_7) AppleWebKit/605.1.15 (KHTML, like Gecko) Version/18.3 Safari/605.1.15",Macintosh,Safari,18.3,OS X,10_15_7,https://5puzkbbxv1.cognition.run/?sona_id=51661,"en-US,en;q=0.9",m4rrp69ne7mmxdt,19,"[""White""]",No,Male,America,No,426362,NA,4174,NA,"{""product_choice"":""B""}",choice,tc,binary,attraction,NA,washing machines,null,null,null,null,null,null,1,60,50,null,50,60,null,Average lifespan,Energy savings,NA,NA
NA,NA,NA,NA,NA,choice_trial_setup,html-keyboard-response,60,250226,0.0-4.0-0.28,269,1,2025-05-06T23:32:10Z,b60275e29fe2361ab97ac0ac217840d7,"Mozilla/5.0 (Macintosh; Intel Mac OS X 10_15_7) AppleWebKit/605.1.15 (KHTML, like Gecko) Version/18.3 Safari/605.1.15",Macintosh,Safari,18.3,OS X,10_15_7,https://5puzkbbxv1.cognition.run/?sona_id=51661,"en-US,en;q=0.9",m4rrp69ne7mmxdt,19,"[""White""]",No,Male,America,No,426362,NA,null,<p></p>,null,choice,tcd,trinary,repulsion_A,1,microwave ovens,null,null,null,null,null,null,1,NA,NA,NA,NA,NA,NA,NA,NA,NA,NA
NA,NA,NA,NA,NA,choice_trial,survey-html-form,61,255973,0.0-4.0-1.28,269,1,2025-05-06T23:32:10Z,b60275e29fe2361ab97ac0ac217840d7,"Mozilla/5.0 (Macintosh; Intel Mac OS X 10_15_7) AppleWebKit/605.1.15 (KHTML, like Gecko) Version/18.3 Safari/605.1.15",Macintosh,Safari,18.3,OS X,10_15_7,https://5puzkbbxv1.cognition.run/?sona_id=51661,"en-US,en;q=0.9",m4rrp69ne7mmxdt,19,"[""White""]",No,Male,America,No,426362,NA,5743,NA,"{""product_choice"":""B""}",choice,tcd,trinary,repulsion_A,1,microwave ovens,null,null,null,null,null,null,1,100,90,100,30,40,20,Warranty,Cooking power,NA,NA
NA,NA,NA,NA,NA,choice_trial_setup,html-keyboard-response,62,256277,0.0-4.0-0.29,269,1,2025-05-06T23:32:10Z,b60275e29fe2361ab97ac0ac217840d7,"Mozilla/5.0 (Macintosh; Intel Mac OS X 10_15_7) AppleWebKit/605.1.15 (KHTML, like Gecko) Version/18.3 Safari/605.1.15",Macintosh,Safari,18.3,OS X,10_15_7,https://5puzkbbxv1.cognition.run/?sona_id=51661,"en-US,en;q=0.9",m4rrp69ne7mmxdt,19,"[""White""]",No,Male,America,No,426362,NA,null,<p></p>,null,choice,ctd,trinary,repulsion_B,1,laptops,null,null,null,null,null,null,2,NA,NA,NA,NA,NA,NA,NA,NA,NA,NA
NA,NA,NA,NA,NA,choice_trial,survey-html-form,63,263022,0.0-4.0-1.29,269,1,2025-05-06T23:32:10Z,b60275e29fe2361ab97ac0ac217840d7,"Mozilla/5.0 (Macintosh; Intel Mac OS X 10_15_7) AppleWebKit/605.1.15 (KHTML, like Gecko) Version/18.3 Safari/605.1.15",Macintosh,Safari,18.3,OS X,10_15_7,https://5puzkbbxv1.cognition.run/?sona_id=51661,"en-US,en;q=0.9",m4rrp69ne7mmxdt,19,"[""White""]",No,Male,America,No,426362,NA,6740,NA,"{""product_choice"":""B""}",choice,ctd,trinary,repulsion_B,1,laptops,null,null,null,null,null,null,2,90,100,80,40,30,40,Processing speed,Memory (RAM),NA,NA
NA,NA,NA,NA,NA,choice_trial_setup,html-keyboard-response,64,263326,0.0-4.0-0.30,269,1,2025-05-06T23:32:10Z,b60275e29fe2361ab97ac0ac217840d7,"Mozilla/5.0 (Macintosh; Intel Mac OS X 10_15_7) AppleWebKit/605.1.15 (KHTML, like Gecko) Version/18.3 Safari/605.1.15",Macintosh,Safari,18.3,OS X,10_15_7,https://5puzkbbxv1.cognition.run/?sona_id=51661,"en-US,en;q=0.9",m4rrp69ne7mmxdt,19,"[""White""]",No,Male,America,No,426362,NA,null,<p></p>,null,choice,dct,trinary,attraction,1,laptops,null,null,null,null,null,null,2,NA,NA,NA,NA,NA,NA,NA,NA,NA,NA
NA,NA,NA,NA,NA,choice_trial,survey-html-form,65,268906,0.0-4.0-1.30,269,1,2025-05-06T23:32:10Z,b60275e29fe2361ab97ac0ac217840d7,"Mozilla/5.0 (Macintosh; Intel Mac OS X 10_15_7) AppleWebKit/605.1.15 (KHTML, like Gecko) Version/18.3 Safari/605.1.15",Macintosh,Safari,18.3,OS X,10_15_7,https://5puzkbbxv1.cognition.run/?sona_id=51661,"en-US,en;q=0.9",m4rrp69ne7mmxdt,19,"[""White""]",No,Male,America,No,426362,NA,5573,NA,"{""product_choice"":""B""}",choice,dct,trinary,attraction,1,laptops,null,null,null,null,null,null,2,60,50,60,50,60,40,Processing speed,Memory (RAM),NA,NA
NA,NA,NA,NA,NA,choice_trial_setup,html-keyboard-response,66,269210,0.0-4.0-0.31,269,1,2025-05-06T23:32:10Z,b60275e29fe2361ab97ac0ac217840d7,"Mozilla/5.0 (Macintosh; Intel Mac OS X 10_15_7) AppleWebKit/605.1.15 (KHTML, like Gecko) Version/18.3 Safari/605.1.15",Macintosh,Safari,18.3,OS X,10_15_7,https://5puzkbbxv1.cognition.run/?sona_id=51661,"en-US,en;q=0.9",m4rrp69ne7mmxdt,19,"[""White""]",No,Male,America,No,426362,NA,null,<p></p>,null,choice,wb,binary,catch,null,washing machines,55,55,5,50,null,null,2,NA,NA,NA,NA,NA,NA,NA,NA,NA,NA
NA,NA,NA,NA,NA,choice_trial,survey-html-form,67,276253,0.0-4.0-1.31,269,1,2025-05-06T23:32:10Z,b60275e29fe2361ab97ac0ac217840d7,"Mozilla/5.0 (Macintosh; Intel Mac OS X 10_15_7) AppleWebKit/605.1.15 (KHTML, like Gecko) Version/18.3 Safari/605.1.15",Macintosh,Safari,18.3,OS X,10_15_7,https://5puzkbbxv1.cognition.run/?sona_id=51661,"en-US,en;q=0.9",m4rrp69ne7mmxdt,19,"[""White""]",No,Male,America,No,426362,NA,7033,NA,"{""product_choice"":""B""}",choice,wb,binary,catch,null,washing machines,55,55,5,50,null,null,2,null,null,null,null,null,null,Average lifespan,Energy savings,NA,NA
NA,NA,NA,NA,NA,choice_trial_setup,html-keyboard-response,68,276555,0.0-4.0-0.32,269,1,2025-05-06T23:32:10Z,b60275e29fe2361ab97ac0ac217840d7,"Mozilla/5.0 (Macintosh; Intel Mac OS X 10_15_7) AppleWebKit/605.1.15 (KHTML, like Gecko) Version/18.3 Safari/605.1.15",Macintosh,Safari,18.3,OS X,10_15_7,https://5puzkbbxv1.cognition.run/?sona_id=51661,"en-US,en;q=0.9",m4rrp69ne7mmxdt,19,"[""White""]",No,Male,America,No,426362,NA,null,<p></p>,null,choice,tcd,trinary,repulsion_A,2,laptops,null,null,null,null,null,null,1,NA,NA,NA,NA,NA,NA,NA,NA,NA,NA
NA,NA,NA,NA,NA,choice_trial,survey-html-form,69,286672,0.0-4.0-1.32,269,1,2025-05-06T23:32:10Z,b60275e29fe2361ab97ac0ac217840d7,"Mozilla/5.0 (Macintosh; Intel Mac OS X 10_15_7) AppleWebKit/605.1.15 (KHTML, like Gecko) Version/18.3 Safari/605.1.15",Macintosh,Safari,18.3,OS X,10_15_7,https://5puzkbbxv1.cognition.run/?sona_id=51661,"en-US,en;q=0.9",m4rrp69ne7mmxdt,19,"[""White""]",No,Male,America,No,426362,NA,10113,NA,"{""product_choice"":""B""}",choice,tcd,trinary,repulsion_A,2,laptops,null,null,null,null,null,null,1,30,40,20,100,90,100,Processing speed,Memory (RAM),NA,NA
NA,NA,NA,NA,NA,choice_trial_setup,html-keyboard-response,70,286976,0.0-4.0-0.33,269,1,2025-05-06T23:32:10Z,b60275e29fe2361ab97ac0ac217840d7,"Mozilla/5.0 (Macintosh; Intel Mac OS X 10_15_7) AppleWebKit/605.1.15 (KHTML, like Gecko) Version/18.3 Safari/605.1.15",Macintosh,Safari,18.3,OS X,10_15_7,https://5puzkbbxv1.cognition.run/?sona_id=51661,"en-US,en;q=0.9",m4rrp69ne7mmxdt,19,"[""White""]",No,Male,America,No,426362,NA,null,<p></p>,null,choice,dtc,trinary,repulsion_A,2,washing machines,null,null,null,null,null,null,2,NA,NA,NA,NA,NA,NA,NA,NA,NA,NA
NA,NA,NA,NA,NA,choice_trial,survey-html-form,71,293089,0.0-4.0-1.33,269,1,2025-05-06T23:32:10Z,b60275e29fe2361ab97ac0ac217840d7,"Mozilla/5.0 (Macintosh; Intel Mac OS X 10_15_7) AppleWebKit/605.1.15 (KHTML, like Gecko) Version/18.3 Safari/605.1.15",Macintosh,Safari,18.3,OS X,10_15_7,https://5puzkbbxv1.cognition.run/?sona_id=51661,"en-US,en;q=0.9",m4rrp69ne7mmxdt,19,"[""White""]",No,Male,America,No,426362,NA,6108,NA,"{""product_choice"":""B""}",choice,dtc,trinary,repulsion_A,2,washing machines,null,null,null,null,null,null,2,30,40,20,100,90,100,Average lifespan,Energy savings,NA,NA
NA,NA,NA,NA,NA,choice_trial_setup,html-keyboard-response,72,293392,0.0-4.0-0.34,269,1,2025-05-06T23:32:10Z,b60275e29fe2361ab97ac0ac217840d7,"Mozilla/5.0 (Macintosh; Intel Mac OS X 10_15_7) AppleWebKit/605.1.15 (KHTML, like Gecko) Version/18.3 Safari/605.1.15",Macintosh,Safari,18.3,OS X,10_15_7,https://5puzkbbxv1.cognition.run/?sona_id=51661,"en-US,en;q=0.9",m4rrp69ne7mmxdt,19,"[""White""]",No,Male,America,No,426362,NA,null,<p></p>,null,choice,cdt,trinary,repulsion_B,1,televisions,null,null,null,null,null,null,2,NA,NA,NA,NA,NA,NA,NA,NA,NA,NA
NA,NA,NA,NA,NA,choice_trial,survey-html-form,73,299987,0.0-4.0-1.34,269,1,2025-05-06T23:32:10Z,b60275e29fe2361ab97ac0ac217840d7,"Mozilla/5.0 (Macintosh; Intel Mac OS X 10_15_7) AppleWebKit/605.1.15 (KHTML, like Gecko) Version/18.3 Safari/605.1.15",Macintosh,Safari,18.3,OS X,10_15_7,https://5puzkbbxv1.cognition.run/?sona_id=51661,"en-US,en;q=0.9",m4rrp69ne7mmxdt,19,"[""White""]",No,Male,America,No,426362,NA,6590,NA,"{""product_choice"":""C""}",choice,cdt,trinary,repulsion_B,1,televisions,null,null,null,null,null,null,2,90,100,80,40,30,40,Screen size,Average lifespan,NA,NA
NA,NA,NA,NA,NA,choice_trial_setup,html-keyboard-response,74,300292,0.0-4.0-0.35,269,1,2025-05-06T23:32:10Z,b60275e29fe2361ab97ac0ac217840d7,"Mozilla/5.0 (Macintosh; Intel Mac OS X 10_15_7) AppleWebKit/605.1.15 (KHTML, like Gecko) Version/18.3 Safari/605.1.15",Macintosh,Safari,18.3,OS X,10_15_7,https://5puzkbbxv1.cognition.run/?sona_id=51661,"en-US,en;q=0.9",m4rrp69ne7mmxdt,19,"[""White""]",No,Male,America,No,426362,NA,null,<p></p>,null,choice,dtc,trinary,attraction,2,laptops,null,null,null,null,null,null,1,NA,NA,NA,NA,NA,NA,NA,NA,NA,NA
NA,NA,NA,NA,NA,choice_trial,survey-html-form,75,306222,0.0-4.0-1.35,269,1,2025-05-06T23:32:10Z,b60275e29fe2361ab97ac0ac217840d7,"Mozilla/5.0 (Macintosh; Intel Mac OS X 10_15_7) AppleWebKit/605.1.15 (KHTML, like Gecko) Version/18.3 Safari/605.1.15",Macintosh,Safari,18.3,OS X,10_15_7,https://5puzkbbxv1.cognition.run/?sona_id=51661,"en-US,en;q=0.9",m4rrp69ne7mmxdt,19,"[""White""]",No,Male,America,No,426362,NA,5925,NA,"{""product_choice"":""C""}",choice,dtc,trinary,attraction,2,laptops,null,null,null,null,null,null,1,50,60,40,60,50,60,Processing speed,Memory (RAM),NA,NA
NA,NA,NA,NA,NA,choice_trial_setup,html-keyboard-response,76,306526,0.0-4.0-0.36,269,1,2025-05-06T23:32:10Z,b60275e29fe2361ab97ac0ac217840d7,"Mozilla/5.0 (Macintosh; Intel Mac OS X 10_15_7) AppleWebKit/605.1.15 (KHTML, like Gecko) Version/18.3 Safari/605.1.15",Macintosh,Safari,18.3,OS X,10_15_7,https://5puzkbbxv1.cognition.run/?sona_id=51661,"en-US,en;q=0.9",m4rrp69ne7mmxdt,19,"[""White""]",No,Male,America,No,426362,NA,null,<p></p>,null,choice,tdc,trinary,attraction,2,microwave ovens,null,null,null,null,null,null,2,NA,NA,NA,NA,NA,NA,NA,NA,NA,NA
NA,NA,NA,NA,NA,choice_trial,survey-html-form,77,313504,0.0-4.0-1.36,269,1,2025-05-06T23:32:10Z,b60275e29fe2361ab97ac0ac217840d7,"Mozilla/5.0 (Macintosh; Intel Mac OS X 10_15_7) AppleWebKit/605.1.15 (KHTML, like Gecko) Version/18.3 Safari/605.1.15",Macintosh,Safari,18.3,OS X,10_15_7,https://5puzkbbxv1.cognition.run/?sona_id=51661,"en-US,en;q=0.9",m4rrp69ne7mmxdt,19,"[""White""]",No,Male,America,No,426362,NA,6973,NA,"{""product_choice"":""C""}",choice,tdc,trinary,attraction,2,microwave ovens,null,null,null,null,null,null,2,50,60,40,60,50,60,Warranty,Cooking power,NA,NA
NA,NA,NA,NA,NA,choice_trial_setup,html-keyboard-response,78,313808,0.0-4.0-0.37,269,1,2025-05-06T23:32:10Z,b60275e29fe2361ab97ac0ac217840d7,"Mozilla/5.0 (Macintosh; Intel Mac OS X 10_15_7) AppleWebKit/605.1.15 (KHTML, like Gecko) Version/18.3 Safari/605.1.15",Macintosh,Safari,18.3,OS X,10_15_7,https://5puzkbbxv1.cognition.run/?sona_id=51661,"en-US,en;q=0.9",m4rrp69ne7mmxdt,19,"[""White""]",No,Male,America,No,426362,NA,null,<p></p>,null,choice,ct,binary,attraction,NA,microwave ovens,null,null,null,null,null,null,2,NA,NA,NA,NA,NA,NA,NA,NA,NA,NA
NA,NA,NA,NA,NA,choice_trial,survey-html-form,79,320737,0.0-4.0-1.37,269,1,2025-05-06T23:32:10Z,b60275e29fe2361ab97ac0ac217840d7,"Mozilla/5.0 (Macintosh; Intel Mac OS X 10_15_7) AppleWebKit/605.1.15 (KHTML, like Gecko) Version/18.3 Safari/605.1.15",Macintosh,Safari,18.3,OS X,10_15_7,https://5puzkbbxv1.cognition.run/?sona_id=51661,"en-US,en;q=0.9",m4rrp69ne7mmxdt,19,"[""White""]",No,Male,America,No,426362,NA,6924,NA,"{""product_choice"":""A""}",choice,ct,binary,attraction,NA,microwave ovens,null,null,null,null,null,null,2,60,50,null,50,60,null,Warranty,Cooking power,NA,NA
NA,NA,NA,NA,NA,choice_trial_setup,html-keyboard-response,80,321042,0.0-4.0-0.38,269,1,2025-05-06T23:32:10Z,b60275e29fe2361ab97ac0ac217840d7,"Mozilla/5.0 (Macintosh; Intel Mac OS X 10_15_7) AppleWebKit/605.1.15 (KHTML, like Gecko) Version/18.3 Safari/605.1.15",Macintosh,Safari,18.3,OS X,10_15_7,https://5puzkbbxv1.cognition.run/?sona_id=51661,"en-US,en;q=0.9",m4rrp69ne7mmxdt,19,"[""White""]",No,Male,America,No,426362,NA,null,<p></p>,null,choice,ct,binary,repulsion,2,washing machines,null,null,null,null,null,null,1,NA,NA,NA,NA,NA,NA,NA,NA,NA,NA
NA,NA,NA,NA,NA,choice_trial,survey-html-form,81,325472,0.0-4.0-1.38,269,1,2025-05-06T23:32:10Z,b60275e29fe2361ab97ac0ac217840d7,"Mozilla/5.0 (Macintosh; Intel Mac OS X 10_15_7) AppleWebKit/605.1.15 (KHTML, like Gecko) Version/18.3 Safari/605.1.15",Macintosh,Safari,18.3,OS X,10_15_7,https://5puzkbbxv1.cognition.run/?sona_id=51661,"en-US,en;q=0.9",m4rrp69ne7mmxdt,19,"[""White""]",No,Male,America,No,426362,NA,4419,NA,"{""product_choice"":""A""}",choice,ct,binary,repulsion,2,washing machines,null,null,null,null,null,null,1,30,40,null,100,90,null,Average lifespan,Energy savings,NA,NA
NA,NA,NA,NA,NA,choice_trial_setup,html-keyboard-response,82,325778,0.0-4.0-0.39,269,1,2025-05-06T23:32:10Z,b60275e29fe2361ab97ac0ac217840d7,"Mozilla/5.0 (Macintosh; Intel Mac OS X 10_15_7) AppleWebKit/605.1.15 (KHTML, like Gecko) Version/18.3 Safari/605.1.15",Macintosh,Safari,18.3,OS X,10_15_7,https://5puzkbbxv1.cognition.run/?sona_id=51661,"en-US,en;q=0.9",m4rrp69ne7mmxdt,19,"[""White""]",No,Male,America,No,426362,NA,null,<p></p>,null,choice,wwb,trinary,catch,null,televisions,90,60,35,5,15,30,1,NA,NA,NA,NA,NA,NA,NA,NA,NA,NA
NA,NA,NA,NA,NA,choice_trial,survey-html-form,83,334221,0.0-4.0-1.39,269,1,2025-05-06T23:32:10Z,b60275e29fe2361ab97ac0ac217840d7,"Mozilla/5.0 (Macintosh; Intel Mac OS X 10_15_7) AppleWebKit/605.1.15 (KHTML, like Gecko) Version/18.3 Safari/605.1.15",Macintosh,Safari,18.3,OS X,10_15_7,https://5puzkbbxv1.cognition.run/?sona_id=51661,"en-US,en;q=0.9",m4rrp69ne7mmxdt,19,"[""White""]",No,Male,America,No,426362,NA,8438,NA,"{""product_choice"":""C""}",choice,wwb,trinary,catch,null,televisions,90,60,35,5,15,30,1,null,null,null,null,null,null,Screen size,Average lifespan,NA,NA
NA,NA,NA,NA,NA,choice_trial_setup,html-keyboard-response,84,334526,0.0-4.0-0.40,269,1,2025-05-06T23:32:10Z,b60275e29fe2361ab97ac0ac217840d7,"Mozilla/5.0 (Macintosh; Intel Mac OS X 10_15_7) AppleWebKit/605.1.15 (KHTML, like Gecko) Version/18.3 Safari/605.1.15",Macintosh,Safari,18.3,OS X,10_15_7,https://5puzkbbxv1.cognition.run/?sona_id=51661,"en-US,en;q=0.9",m4rrp69ne7mmxdt,19,"[""White""]",No,Male,America,No,426362,NA,null,<p></p>,null,choice,ctd,trinary,repulsion_B,1,washing machines,null,null,null,null,null,null,2,NA,NA,NA,NA,NA,NA,NA,NA,NA,NA
NA,NA,NA,NA,NA,choice_trial,survey-html-form,85,343287,0.0-4.0-1.40,269,1,2025-05-06T23:32:10Z,b60275e29fe2361ab97ac0ac217840d7,"Mozilla/5.0 (Macintosh; Intel Mac OS X 10_15_7) AppleWebKit/605.1.15 (KHTML, like Gecko) Version/18.3 Safari/605.1.15",Macintosh,Safari,18.3,OS X,10_15_7,https://5puzkbbxv1.cognition.run/?sona_id=51661,"en-US,en;q=0.9",m4rrp69ne7mmxdt,19,"[""White""]",No,Male,America,No,426362,NA,8758,NA,"{""product_choice"":""B""}",choice,ctd,trinary,repulsion_B,1,washing machines,null,null,null,null,null,null,2,90,100,80,40,30,40,Average lifespan,Energy savings,NA,NA
NA,NA,NA,NA,NA,choice_trial_setup,html-keyboard-response,86,343591,0.0-4.0-0.41,269,1,2025-05-06T23:32:10Z,b60275e29fe2361ab97ac0ac217840d7,"Mozilla/5.0 (Macintosh; Intel Mac OS X 10_15_7) AppleWebKit/605.1.15 (KHTML, like Gecko) Version/18.3 Safari/605.1.15",Macintosh,Safari,18.3,OS X,10_15_7,https://5puzkbbxv1.cognition.run/?sona_id=51661,"en-US,en;q=0.9",m4rrp69ne7mmxdt,19,"[""White""]",No,Male,America,No,426362,NA,null,<p></p>,null,choice,dct,trinary,attraction,2,washing machines,null,null,null,null,null,null,1,NA,NA,NA,NA,NA,NA,NA,NA,NA,NA
NA,NA,NA,NA,NA,choice_trial,survey-html-form,87,350237,0.0-4.0-1.41,269,1,2025-05-06T23:32:10Z,b60275e29fe2361ab97ac0ac217840d7,"Mozilla/5.0 (Macintosh; Intel Mac OS X 10_15_7) AppleWebKit/605.1.15 (KHTML, like Gecko) Version/18.3 Safari/605.1.15",Macintosh,Safari,18.3,OS X,10_15_7,https://5puzkbbxv1.cognition.run/?sona_id=51661,"en-US,en;q=0.9",m4rrp69ne7mmxdt,19,"[""White""]",No,Male,America,No,426362,NA,6642,NA,"{""product_choice"":""B""}",choice,dct,trinary,attraction,2,washing machines,null,null,null,null,null,null,1,50,60,40,60,50,60,Average lifespan,Energy savings,NA,NA
NA,NA,NA,NA,NA,choice_trial_setup,html-keyboard-response,88,350542,0.0-4.0-0.42,269,1,2025-05-06T23:32:10Z,b60275e29fe2361ab97ac0ac217840d7,"Mozilla/5.0 (Macintosh; Intel Mac OS X 10_15_7) AppleWebKit/605.1.15 (KHTML, like Gecko) Version/18.3 Safari/605.1.15",Macintosh,Safari,18.3,OS X,10_15_7,https://5puzkbbxv1.cognition.run/?sona_id=51661,"en-US,en;q=0.9",m4rrp69ne7mmxdt,19,"[""White""]",No,Male,America,No,426362,NA,null,<p></p>,null,choice,cdt,trinary,repulsion_B,2,microwave ovens,null,null,null,null,null,null,2,NA,NA,NA,NA,NA,NA,NA,NA,NA,NA
NA,NA,NA,NA,NA,choice_trial,survey-html-form,89,355220,0.0-4.0-1.42,269,1,2025-05-06T23:32:10Z,b60275e29fe2361ab97ac0ac217840d7,"Mozilla/5.0 (Macintosh; Intel Mac OS X 10_15_7) AppleWebKit/605.1.15 (KHTML, like Gecko) Version/18.3 Safari/605.1.15",Macintosh,Safari,18.3,OS X,10_15_7,https://5puzkbbxv1.cognition.run/?sona_id=51661,"en-US,en;q=0.9",m4rrp69ne7mmxdt,19,"[""White""]",No,Male,America,No,426362,NA,4672,NA,"{""product_choice"":""C""}",choice,cdt,trinary,repulsion_B,2,microwave ovens,null,null,null,null,null,null,2,40,30,40,90,100,80,Warranty,Cooking power,NA,NA
NA,NA,NA,NA,NA,choice_trial_setup,html-keyboard-response,90,355525,0.0-4.0-0.43,269,1,2025-05-06T23:32:10Z,b60275e29fe2361ab97ac0ac217840d7,"Mozilla/5.0 (Macintosh; Intel Mac OS X 10_15_7) AppleWebKit/605.1.15 (KHTML, like Gecko) Version/18.3 Safari/605.1.15",Macintosh,Safari,18.3,OS X,10_15_7,https://5puzkbbxv1.cognition.run/?sona_id=51661,"en-US,en;q=0.9",m4rrp69ne7mmxdt,19,"[""White""]",No,Male,America,No,426362,NA,null,<p></p>,null,choice,ct,binary,repulsion,1,washing machines,null,null,null,null,null,null,2,NA,NA,NA,NA,NA,NA,NA,NA,NA,NA
NA,NA,NA,NA,NA,choice_trial,survey-html-form,91,358120,0.0-4.0-1.43,269,1,2025-05-06T23:32:10Z,b60275e29fe2361ab97ac0ac217840d7,"Mozilla/5.0 (Macintosh; Intel Mac OS X 10_15_7) AppleWebKit/605.1.15 (KHTML, like Gecko) Version/18.3 Safari/605.1.15",Macintosh,Safari,18.3,OS X,10_15_7,https://5puzkbbxv1.cognition.run/?sona_id=51661,"en-US,en;q=0.9",m4rrp69ne7mmxdt,19,"[""White""]",No,Male,America,No,426362,NA,2590,NA,"{""product_choice"":""A""}",choice,ct,binary,repulsion,1,washing machines,null,null,null,null,null,null,2,100,90,null,30,40,null,Average lifespan,Energy savings,NA,NA
NA,NA,NA,NA,NA,post_trials_message,html-button-response,92,361404,0.0-5.0,269,1,2025-05-06T23:32:10Z,b60275e29fe2361ab97ac0ac217840d7,"Mozilla/5.0 (Macintosh; Intel Mac OS X 10_15_7) AppleWebKit/605.1.15 (KHTML, like Gecko) Version/18.3 Safari/605.1.15",Macintosh,Safari,18.3,OS X,10_15_7,https://5puzkbbxv1.cognition.run/?sona_id=51661,"en-US,en;q=0.9",m4rrp69ne7mmxdt,19,"[""White""]",No,Male,America,No,426362,NA,3278,<p> <b>Thank you for your patience!</b></p><p>  The study will be done after completing a brief form. </p>,0,NA,NA,NA,NA,NA,NA,NA,NA,NA,NA,NA,NA,NA,NA,NA,NA,NA,NA,NA,NA,NA,NA,NA
NA,NA,NA,NA,NA,survey_message,survey-text,93,385404,0.0-6.0,269,1,2025-05-06T23:32:10Z,b60275e29fe2361ab97ac0ac217840d7,"Mozilla/5.0 (Macintosh; Intel Mac OS X 10_15_7) AppleWebKit/605.1.15 (KHTML, like Gecko) Version/18.3 Safari/605.1.15",Macintosh,Safari,18.3,OS X,10_15_7,https://5puzkbbxv1.cognition.run/?sona_id=51661,"en-US,en;q=0.9",m4rrp69ne7mmxdt,19,"[""White""]",No,Male,America,No,426362,NA,23986,NA,"{""Q0"":""A balance between the two. I also car more about how much energy they use""}",NA,NA,NA,NA,NA,NA,NA,NA,NA,NA,NA,NA,NA,NA,NA,NA,NA,NA,NA,NA,NA,A balance between the two. I also car more about how much energy they use,NA
NA,NA,NA,NA,NA,demo_age,survey-text,94,388139,0.0-7.0,269,1,2025-05-06T23:32:10Z,b60275e29fe2361ab97ac0ac217840d7,"Mozilla/5.0 (Macintosh; Intel Mac OS X 10_15_7) AppleWebKit/605.1.15 (KHTML, like Gecko) Version/18.3 Safari/605.1.15",Macintosh,Safari,18.3,OS X,10_15_7,https://5puzkbbxv1.cognition.run/?sona_id=51661,"en-US,en;q=0.9",m4rrp69ne7mmxdt,19,"[""White""]",No,Male,America,No,426362,NA,2725,NA,"{""Q0"":""19""}",NA,NA,NA,NA,NA,NA,NA,NA,NA,NA,NA,NA,NA,NA,NA,NA,NA,NA,NA,NA,NA,NA,NA
NA,NA,NA,NA,NA,demo_race,survey-multi-select,95,390955,0.0-8.0,269,1,2025-05-06T23:32:10Z,b60275e29fe2361ab97ac0ac217840d7,"Mozilla/5.0 (Macintosh; Intel Mac OS X 10_15_7) AppleWebKit/605.1.15 (KHTML, like Gecko) Version/18.3 Safari/605.1.15",Macintosh,Safari,18.3,OS X,10_15_7,https://5puzkbbxv1.cognition.run/?sona_id=51661,"en-US,en;q=0.9",m4rrp69ne7mmxdt,19,"[""White""]",No,Male,America,No,426362,NA,2809,NA,"{""Q0"":[""White""]}",NA,NA,NA,NA,NA,NA,NA,NA,NA,NA,NA,NA,NA,NA,NA,NA,NA,NA,NA,NA,NA,NA,[0]
NA,NA,NA,NA,NA,demo_ethnicity_gender,survey-multi-choice,96,397070,0.0-9.0,269,1,2025-05-06T23:32:10Z,b60275e29fe2361ab97ac0ac217840d7,"Mozilla/5.0 (Macintosh; Intel Mac OS X 10_15_7) AppleWebKit/605.1.15 (KHTML, like Gecko) Version/18.3 Safari/605.1.15",Macintosh,Safari,18.3,OS X,10_15_7,https://5puzkbbxv1.cognition.run/?sona_id=51661,"en-US,en;q=0.9",m4rrp69ne7mmxdt,19,"[""White""]",No,Male,America,No,426362,NA,6107,NA,"{""Q0"":""No"",""Q1"":""Male""}",NA,NA,NA,NA,NA,NA,NA,NA,NA,NA,NA,NA,NA,NA,NA,NA,NA,NA,NA,NA,NA,NA,"[0,1]"
NA,NA,NA,NA,NA,demo_countries,survey-text,97,405260,0.0-10.0,269,1,2025-05-06T23:32:10Z,b60275e29fe2361ab97ac0ac217840d7,"Mozilla/5.0 (Macintosh; Intel Mac OS X 10_15_7) AppleWebKit/605.1.15 (KHTML, like Gecko) Version/18.3 Safari/605.1.15",Macintosh,Safari,18.3,OS X,10_15_7,https://5puzkbbxv1.cognition.run/?sona_id=51661,"en-US,en;q=0.9",m4rrp69ne7mmxdt,19,"[""White""]",No,Male,America,No,426362,NA,8184,NA,"{""Q0"":""America""}",NA,NA,NA,NA,NA,NA,NA,NA,NA,NA,NA,NA,NA,NA,NA,NA,NA,NA,NA,NA,NA,NA,NA
NA,NA,NA,NA,NA,demo_prev_study,survey-multi-choice,98,413819,0.0-11.0,269,1,2025-05-06T23:32:10Z,b60275e29fe2361ab97ac0ac217840d7,"Mozilla/5.0 (Macintosh; Intel Mac OS X 10_15_7) AppleWebKit/605.1.15 (KHTML, like Gecko) Version/18.3 Safari/605.1.15",Macintosh,Safari,18.3,OS X,10_15_7,https://5puzkbbxv1.cognition.run/?sona_id=51661,"en-US,en;q=0.9",m4rrp69ne7mmxdt,19,"[""White""]",No,Male,America,No,426362,NA,8556,NA,"{""Q0"":""No""}",NA,NA,NA,NA,NA,NA,NA,NA,NA,NA,NA,NA,NA,NA,NA,NA,NA,NA,NA,NA,NA,NA,[0]
NA,NA,NA,NA,NA,post_survey_message,html-keyboard-response,99,421966,0.0-12.0,269,1,2025-05-06T23:32:10Z,b60275e29fe2361ab97ac0ac217840d7,"Mozilla/5.0 (Macintosh; Intel Mac OS X 10_15_7) AppleWebKit/605.1.15 (KHTML, like Gecko) Version/18.3 Safari/605.1.15",Macintosh,Safari,18.3,OS X,10_15_7,https://5puzkbbxv1.cognition.run/?sona_id=51661,"en-US,en;q=0.9",m4rrp69ne7mmxdt,19,"[""White""]",No,Male,America,No,426362,NA,8140,NA,j,NA,NA,NA,NA,NA,NA,NA,NA,NA,NA,NA,NA,NA,NA,NA,NA,NA,NA,NA,NA,NA,NA,NA
NA,NA,NA,NA,NA,debrief,image-keyboard-response,100,426295,0.0-13.0,269,1,2025-05-06T23:32:10Z,b60275e29fe2361ab97ac0ac217840d7,"Mozilla/5.0 (Macintosh; Intel Mac OS X 10_15_7) AppleWebKit/605.1.15 (KHTML, like Gecko) Version/18.3 Safari/605.1.15",Macintosh,Safari,18.3,OS X,10_15_7,https://5puzkbbxv1.cognition.run/?sona_id=51661,"en-US,en;q=0.9",m4rrp69ne7mmxdt,19,"[""White""]",No,Male,America,No,426362,NA,4308,Judg_choice_debrief.png,p,NA,NA,NA,NA,NA,NA,NA,NA,NA,NA,NA,NA,NA,NA,NA,NA,NA,NA,NA,NA,NA,NA,NA
