success,timeout,failed_images,failed_audio,failed_video,screen_id,trial_type,trial_index,time_elapsed,internal_node_id,run_id,condition,recorded_at,source_code_version,user_agent,device,browser,browser_version,platform,platform_version,referer,accept_language,ppt_id,age,race,ethnicity,gender,other_countries,prev_study,exp_duration,view_history,rt,stimulus,response,phase,order,set,effect,t_high,category,d1_best,d2_best,d1_worst1,d2_worst1,d1_worst2,d2_worst2,first_dim,d1_t,d1_c,d1_d,d2_t,d2_c,d2_d,d1_name,d2_name,strategy_response,question_order
TRUE,FALSE,[],[],[],img preload,preload,0,153,0.0-0.0,272,1,2025-05-07T00:18:12Z,b60275e29fe2361ab97ac0ac217840d7,"Mozilla/5.0 (Macintosh; Intel Mac OS X 10_15_7) AppleWebKit/537.36 (KHTML, like Gecko) Chrome/135.0.0.0 Safari/537.36",Macintosh,Chrome,135.0.0.0,OS X,10_15_7,https://5puzkbbxv1.cognition.run/?sona_id=56780,"en-US,en;q=0.9",v3g361dbge6ehuf,21,"[""Asian""]",No,Male,NA,Yes,314434.2000000477,NA,NA,NA,NA,NA,NA,NA,NA,NA,NA,NA,NA,NA,NA,NA,NA,NA,NA,NA,NA,NA,NA,NA,NA,NA,NA,NA
NA,NA,NA,NA,NA,computer_message,instructions,1,4032,0.0-1.0,272,1,2025-05-07T00:18:12Z,b60275e29fe2361ab97ac0ac217840d7,"Mozilla/5.0 (Macintosh; Intel Mac OS X 10_15_7) AppleWebKit/537.36 (KHTML, like Gecko) Chrome/135.0.0.0 Safari/537.36",Macintosh,Chrome,135.0.0.0,OS X,10_15_7,https://5puzkbbxv1.cognition.run/?sona_id=56780,"en-US,en;q=0.9",v3g361dbge6ehuf,21,"[""Asian""]",No,Male,NA,Yes,314434.2000000477,"[{""page_index"":0,""viewing_time"":3878}]",3879,NA,NA,NA,NA,NA,NA,NA,NA,NA,NA,NA,NA,NA,NA,NA,NA,NA,NA,NA,NA,NA,NA,NA,NA,NA
TRUE,NA,NA,NA,NA,NA,fullscreen,2,7267,0.0-2.0,272,1,2025-05-07T00:18:12Z,b60275e29fe2361ab97ac0ac217840d7,"Mozilla/5.0 (Macintosh; Intel Mac OS X 10_15_7) AppleWebKit/537.36 (KHTML, like Gecko) Chrome/135.0.0.0 Safari/537.36",Macintosh,Chrome,135.0.0.0,OS X,10_15_7,https://5puzkbbxv1.cognition.run/?sona_id=56780,"en-US,en;q=0.9",v3g361dbge6ehuf,21,"[""Asian""]",No,Male,NA,Yes,314434.2000000477,NA,2231,NA,NA,NA,NA,NA,NA,NA,NA,NA,NA,NA,NA,NA,NA,NA,NA,NA,NA,NA,NA,NA,NA,NA,NA,NA
NA,NA,NA,NA,NA,choice_instructions,instructions,3,63682,0.0-3.0,272,1,2025-05-07T00:18:12Z,b60275e29fe2361ab97ac0ac217840d7,"Mozilla/5.0 (Macintosh; Intel Mac OS X 10_15_7) AppleWebKit/537.36 (KHTML, like Gecko) Chrome/135.0.0.0 Safari/537.36",Macintosh,Chrome,135.0.0.0,OS X,10_15_7,https://5puzkbbxv1.cognition.run/?sona_id=56780,"en-US,en;q=0.9",v3g361dbge6ehuf,21,"[""Asian""]",No,Male,NA,Yes,314434.2000000477,"[{""page_index"":0,""viewing_time"":2480},{""page_index"":1,""viewing_time"":4234},{""page_index"":2,""viewing_time"":4466},{""page_index"":3,""viewing_time"":3900},{""page_index"":4,""viewing_time"":1717},{""page_index"":5,""viewing_time"":36334},{""page_index"":6,""viewing_time"":3284}]",56416,NA,NA,NA,NA,NA,NA,NA,NA,NA,NA,NA,NA,NA,NA,NA,NA,NA,NA,NA,NA,NA,NA,NA,NA,NA
NA,NA,NA,NA,NA,choice_trial_setup,html-keyboard-response,4,63986,0.0-4.0-0.0,272,1,2025-05-07T00:18:12Z,b60275e29fe2361ab97ac0ac217840d7,"Mozilla/5.0 (Macintosh; Intel Mac OS X 10_15_7) AppleWebKit/537.36 (KHTML, like Gecko) Chrome/135.0.0.0 Safari/537.36",Macintosh,Chrome,135.0.0.0,OS X,10_15_7,https://5puzkbbxv1.cognition.run/?sona_id=56780,"en-US,en;q=0.9",v3g361dbge6ehuf,21,"[""Asian""]",No,Male,NA,Yes,314434.2000000477,NA,null,<p></p>,null,choice,bw,binary,catch,null,laptops,50,50,20,5,null,null,2,NA,NA,NA,NA,NA,NA,NA,NA,NA,NA
NA,NA,NA,NA,NA,choice_trial,survey-html-form,5,70950,0.0-4.0-1.0,272,1,2025-05-07T00:18:12Z,b60275e29fe2361ab97ac0ac217840d7,"Mozilla/5.0 (Macintosh; Intel Mac OS X 10_15_7) AppleWebKit/537.36 (KHTML, like Gecko) Chrome/135.0.0.0 Safari/537.36",Macintosh,Chrome,135.0.0.0,OS X,10_15_7,https://5puzkbbxv1.cognition.run/?sona_id=56780,"en-US,en;q=0.9",v3g361dbge6ehuf,21,"[""Asian""]",No,Male,NA,Yes,314434.2000000477,NA,6958,NA,"{""product_choice"":""A""}",choice,bw,binary,catch,null,laptops,50,50,20,5,null,null,2,null,null,null,null,null,null,Processing speed,Memory (RAM),NA,NA
NA,NA,NA,NA,NA,choice_trial_setup,html-keyboard-response,6,71253,0.0-4.0-0.1,272,1,2025-05-07T00:18:12Z,b60275e29fe2361ab97ac0ac217840d7,"Mozilla/5.0 (Macintosh; Intel Mac OS X 10_15_7) AppleWebKit/537.36 (KHTML, like Gecko) Chrome/135.0.0.0 Safari/537.36",Macintosh,Chrome,135.0.0.0,OS X,10_15_7,https://5puzkbbxv1.cognition.run/?sona_id=56780,"en-US,en;q=0.9",v3g361dbge6ehuf,21,"[""Asian""]",No,Male,NA,Yes,314434.2000000477,NA,null,<p></p>,null,choice,wbw,trinary,catch,null,washing machines,75,90,20,30,40,35,2,NA,NA,NA,NA,NA,NA,NA,NA,NA,NA
NA,NA,NA,NA,NA,choice_trial,survey-html-form,7,76266,0.0-4.0-1.1,272,1,2025-05-07T00:18:12Z,b60275e29fe2361ab97ac0ac217840d7,"Mozilla/5.0 (Macintosh; Intel Mac OS X 10_15_7) AppleWebKit/537.36 (KHTML, like Gecko) Chrome/135.0.0.0 Safari/537.36",Macintosh,Chrome,135.0.0.0,OS X,10_15_7,https://5puzkbbxv1.cognition.run/?sona_id=56780,"en-US,en;q=0.9",v3g361dbge6ehuf,21,"[""Asian""]",No,Male,NA,Yes,314434.2000000477,NA,5010,NA,"{""product_choice"":""B""}",choice,wbw,trinary,catch,null,washing machines,75,90,20,30,40,35,2,null,null,null,null,null,null,Average lifespan,Energy savings,NA,NA
NA,NA,NA,NA,NA,choice_trial_setup,html-keyboard-response,8,76570,0.0-4.0-0.2,272,1,2025-05-07T00:18:12Z,b60275e29fe2361ab97ac0ac217840d7,"Mozilla/5.0 (Macintosh; Intel Mac OS X 10_15_7) AppleWebKit/537.36 (KHTML, like Gecko) Chrome/135.0.0.0 Safari/537.36",Macintosh,Chrome,135.0.0.0,OS X,10_15_7,https://5puzkbbxv1.cognition.run/?sona_id=56780,"en-US,en;q=0.9",v3g361dbge6ehuf,21,"[""Asian""]",No,Male,NA,Yes,314434.2000000477,NA,null,<p></p>,null,choice,tcd,trinary,repulsion_B,2,televisions,null,null,null,null,null,null,2,NA,NA,NA,NA,NA,NA,NA,NA,NA,NA
NA,NA,NA,NA,NA,choice_trial,survey-html-form,9,89833,0.0-4.0-1.2,272,1,2025-05-07T00:18:12Z,b60275e29fe2361ab97ac0ac217840d7,"Mozilla/5.0 (Macintosh; Intel Mac OS X 10_15_7) AppleWebKit/537.36 (KHTML, like Gecko) Chrome/135.0.0.0 Safari/537.36",Macintosh,Chrome,135.0.0.0,OS X,10_15_7,https://5puzkbbxv1.cognition.run/?sona_id=56780,"en-US,en;q=0.9",v3g361dbge6ehuf,21,"[""Asian""]",No,Male,NA,Yes,314434.2000000477,NA,13259,NA,"{""product_choice"":""A""}",choice,tcd,trinary,repulsion_B,2,televisions,null,null,null,null,null,null,2,40,30,40,90,100,80,Screen size,Average lifespan,NA,NA
NA,NA,NA,NA,NA,choice_trial_setup,html-keyboard-response,10,90137,0.0-4.0-0.3,272,1,2025-05-07T00:18:12Z,b60275e29fe2361ab97ac0ac217840d7,"Mozilla/5.0 (Macintosh; Intel Mac OS X 10_15_7) AppleWebKit/537.36 (KHTML, like Gecko) Chrome/135.0.0.0 Safari/537.36",Macintosh,Chrome,135.0.0.0,OS X,10_15_7,https://5puzkbbxv1.cognition.run/?sona_id=56780,"en-US,en;q=0.9",v3g361dbge6ehuf,21,"[""Asian""]",No,Male,NA,Yes,314434.2000000477,NA,null,<p></p>,null,choice,ct,binary,repulsion,1,laptops,null,null,null,null,null,null,2,NA,NA,NA,NA,NA,NA,NA,NA,NA,NA
NA,NA,NA,NA,NA,choice_trial,survey-html-form,11,99766,0.0-4.0-1.3,272,1,2025-05-07T00:18:12Z,b60275e29fe2361ab97ac0ac217840d7,"Mozilla/5.0 (Macintosh; Intel Mac OS X 10_15_7) AppleWebKit/537.36 (KHTML, like Gecko) Chrome/135.0.0.0 Safari/537.36",Macintosh,Chrome,135.0.0.0,OS X,10_15_7,https://5puzkbbxv1.cognition.run/?sona_id=56780,"en-US,en;q=0.9",v3g361dbge6ehuf,21,"[""Asian""]",No,Male,NA,Yes,314434.2000000477,NA,9626,NA,"{""product_choice"":""A""}",choice,ct,binary,repulsion,1,laptops,null,null,null,null,null,null,2,100,90,null,30,40,null,Processing speed,Memory (RAM),NA,NA
NA,NA,NA,NA,NA,choice_trial_setup,html-keyboard-response,12,100069,0.0-4.0-0.4,272,1,2025-05-07T00:18:12Z,b60275e29fe2361ab97ac0ac217840d7,"Mozilla/5.0 (Macintosh; Intel Mac OS X 10_15_7) AppleWebKit/537.36 (KHTML, like Gecko) Chrome/135.0.0.0 Safari/537.36",Macintosh,Chrome,135.0.0.0,OS X,10_15_7,https://5puzkbbxv1.cognition.run/?sona_id=56780,"en-US,en;q=0.9",v3g361dbge6ehuf,21,"[""Asian""]",No,Male,NA,Yes,314434.2000000477,NA,null,<p></p>,null,choice,tcd,trinary,attraction,2,televisions,null,null,null,null,null,null,2,NA,NA,NA,NA,NA,NA,NA,NA,NA,NA
NA,NA,NA,NA,NA,choice_trial,survey-html-form,13,107898,0.0-4.0-1.4,272,1,2025-05-07T00:18:12Z,b60275e29fe2361ab97ac0ac217840d7,"Mozilla/5.0 (Macintosh; Intel Mac OS X 10_15_7) AppleWebKit/537.36 (KHTML, like Gecko) Chrome/135.0.0.0 Safari/537.36",Macintosh,Chrome,135.0.0.0,OS X,10_15_7,https://5puzkbbxv1.cognition.run/?sona_id=56780,"en-US,en;q=0.9",v3g361dbge6ehuf,21,"[""Asian""]",No,Male,NA,Yes,314434.2000000477,NA,7826,NA,"{""product_choice"":""A""}",choice,tcd,trinary,attraction,2,televisions,null,null,null,null,null,null,2,50,60,40,60,50,60,Screen size,Average lifespan,NA,NA
NA,NA,NA,NA,NA,choice_trial_setup,html-keyboard-response,14,108202,0.0-4.0-0.5,272,1,2025-05-07T00:18:12Z,b60275e29fe2361ab97ac0ac217840d7,"Mozilla/5.0 (Macintosh; Intel Mac OS X 10_15_7) AppleWebKit/537.36 (KHTML, like Gecko) Chrome/135.0.0.0 Safari/537.36",Macintosh,Chrome,135.0.0.0,OS X,10_15_7,https://5puzkbbxv1.cognition.run/?sona_id=56780,"en-US,en;q=0.9",v3g361dbge6ehuf,21,"[""Asian""]",No,Male,NA,Yes,314434.2000000477,NA,null,<p></p>,null,choice,cdt,trinary,repulsion_B,2,microwave ovens,null,null,null,null,null,null,1,NA,NA,NA,NA,NA,NA,NA,NA,NA,NA
NA,NA,NA,NA,NA,choice_trial,survey-html-form,15,119233,0.0-4.0-1.5,272,1,2025-05-07T00:18:12Z,b60275e29fe2361ab97ac0ac217840d7,"Mozilla/5.0 (Macintosh; Intel Mac OS X 10_15_7) AppleWebKit/537.36 (KHTML, like Gecko) Chrome/135.0.0.0 Safari/537.36",Macintosh,Chrome,135.0.0.0,OS X,10_15_7,https://5puzkbbxv1.cognition.run/?sona_id=56780,"en-US,en;q=0.9",v3g361dbge6ehuf,21,"[""Asian""]",No,Male,NA,Yes,314434.2000000477,NA,11028,NA,"{""product_choice"":""C""}",choice,cdt,trinary,repulsion_B,2,microwave ovens,null,null,null,null,null,null,1,40,30,40,90,100,80,Warranty,Cooking power,NA,NA
NA,NA,NA,NA,NA,choice_trial_setup,html-keyboard-response,16,119536,0.0-4.0-0.6,272,1,2025-05-07T00:18:12Z,b60275e29fe2361ab97ac0ac217840d7,"Mozilla/5.0 (Macintosh; Intel Mac OS X 10_15_7) AppleWebKit/537.36 (KHTML, like Gecko) Chrome/135.0.0.0 Safari/537.36",Macintosh,Chrome,135.0.0.0,OS X,10_15_7,https://5puzkbbxv1.cognition.run/?sona_id=56780,"en-US,en;q=0.9",v3g361dbge6ehuf,21,"[""Asian""]",No,Male,NA,Yes,314434.2000000477,NA,null,<p></p>,null,choice,wwb,trinary,catch,null,televisions,95,60,35,20,5,5,1,NA,NA,NA,NA,NA,NA,NA,NA,NA,NA
NA,NA,NA,NA,NA,choice_trial,survey-html-form,17,133165,0.0-4.0-1.6,272,1,2025-05-07T00:18:12Z,b60275e29fe2361ab97ac0ac217840d7,"Mozilla/5.0 (Macintosh; Intel Mac OS X 10_15_7) AppleWebKit/537.36 (KHTML, like Gecko) Chrome/135.0.0.0 Safari/537.36",Macintosh,Chrome,135.0.0.0,OS X,10_15_7,https://5puzkbbxv1.cognition.run/?sona_id=56780,"en-US,en;q=0.9",v3g361dbge6ehuf,21,"[""Asian""]",No,Male,NA,Yes,314434.2000000477,NA,13626,NA,"{""product_choice"":""C""}",choice,wwb,trinary,catch,null,televisions,95,60,35,20,5,5,1,null,null,null,null,null,null,Screen size,Average lifespan,NA,NA
NA,NA,NA,NA,NA,choice_trial_setup,html-keyboard-response,18,133468,0.0-4.0-0.7,272,1,2025-05-07T00:18:12Z,b60275e29fe2361ab97ac0ac217840d7,"Mozilla/5.0 (Macintosh; Intel Mac OS X 10_15_7) AppleWebKit/537.36 (KHTML, like Gecko) Chrome/135.0.0.0 Safari/537.36",Macintosh,Chrome,135.0.0.0,OS X,10_15_7,https://5puzkbbxv1.cognition.run/?sona_id=56780,"en-US,en;q=0.9",v3g361dbge6ehuf,21,"[""Asian""]",No,Male,NA,Yes,314434.2000000477,NA,null,<p></p>,null,choice,dct,trinary,attraction,1,microwave ovens,null,null,null,null,null,null,2,NA,NA,NA,NA,NA,NA,NA,NA,NA,NA
NA,NA,NA,NA,NA,choice_trial,survey-html-form,19,136633,0.0-4.0-1.7,272,1,2025-05-07T00:18:12Z,b60275e29fe2361ab97ac0ac217840d7,"Mozilla/5.0 (Macintosh; Intel Mac OS X 10_15_7) AppleWebKit/537.36 (KHTML, like Gecko) Chrome/135.0.0.0 Safari/537.36",Macintosh,Chrome,135.0.0.0,OS X,10_15_7,https://5puzkbbxv1.cognition.run/?sona_id=56780,"en-US,en;q=0.9",v3g361dbge6ehuf,21,"[""Asian""]",No,Male,NA,Yes,314434.2000000477,NA,3162,NA,"{""product_choice"":""C""}",choice,dct,trinary,attraction,1,microwave ovens,null,null,null,null,null,null,2,60,50,60,50,60,40,Warranty,Cooking power,NA,NA
NA,NA,NA,NA,NA,choice_trial_setup,html-keyboard-response,20,136937,0.0-4.0-0.8,272,1,2025-05-07T00:18:12Z,b60275e29fe2361ab97ac0ac217840d7,"Mozilla/5.0 (Macintosh; Intel Mac OS X 10_15_7) AppleWebKit/537.36 (KHTML, like Gecko) Chrome/135.0.0.0 Safari/537.36",Macintosh,Chrome,135.0.0.0,OS X,10_15_7,https://5puzkbbxv1.cognition.run/?sona_id=56780,"en-US,en;q=0.9",v3g361dbge6ehuf,21,"[""Asian""]",No,Male,NA,Yes,314434.2000000477,NA,null,<p></p>,null,choice,ctd,trinary,repulsion_A,1,microwave ovens,null,null,null,null,null,null,2,NA,NA,NA,NA,NA,NA,NA,NA,NA,NA
NA,NA,NA,NA,NA,choice_trial,survey-html-form,21,139332,0.0-4.0-1.8,272,1,2025-05-07T00:18:12Z,b60275e29fe2361ab97ac0ac217840d7,"Mozilla/5.0 (Macintosh; Intel Mac OS X 10_15_7) AppleWebKit/537.36 (KHTML, like Gecko) Chrome/135.0.0.0 Safari/537.36",Macintosh,Chrome,135.0.0.0,OS X,10_15_7,https://5puzkbbxv1.cognition.run/?sona_id=56780,"en-US,en;q=0.9",v3g361dbge6ehuf,21,"[""Asian""]",No,Male,NA,Yes,314434.2000000477,NA,2392,NA,"{""product_choice"":""B""}",choice,ctd,trinary,repulsion_A,1,microwave ovens,null,null,null,null,null,null,2,100,90,100,30,40,20,Warranty,Cooking power,NA,NA
NA,NA,NA,NA,NA,choice_trial_setup,html-keyboard-response,22,139634,0.0-4.0-0.9,272,1,2025-05-07T00:18:12Z,b60275e29fe2361ab97ac0ac217840d7,"Mozilla/5.0 (Macintosh; Intel Mac OS X 10_15_7) AppleWebKit/537.36 (KHTML, like Gecko) Chrome/135.0.0.0 Safari/537.36",Macintosh,Chrome,135.0.0.0,OS X,10_15_7,https://5puzkbbxv1.cognition.run/?sona_id=56780,"en-US,en;q=0.9",v3g361dbge6ehuf,21,"[""Asian""]",No,Male,NA,Yes,314434.2000000477,NA,null,<p></p>,null,choice,dct,trinary,attraction,1,laptops,null,null,null,null,null,null,1,NA,NA,NA,NA,NA,NA,NA,NA,NA,NA
NA,NA,NA,NA,NA,choice_trial,survey-html-form,23,144949,0.0-4.0-1.9,272,1,2025-05-07T00:18:12Z,b60275e29fe2361ab97ac0ac217840d7,"Mozilla/5.0 (Macintosh; Intel Mac OS X 10_15_7) AppleWebKit/537.36 (KHTML, like Gecko) Chrome/135.0.0.0 Safari/537.36",Macintosh,Chrome,135.0.0.0,OS X,10_15_7,https://5puzkbbxv1.cognition.run/?sona_id=56780,"en-US,en;q=0.9",v3g361dbge6ehuf,21,"[""Asian""]",No,Male,NA,Yes,314434.2000000477,NA,5312,NA,"{""product_choice"":""B""}",choice,dct,trinary,attraction,1,laptops,null,null,null,null,null,null,1,60,50,60,50,60,40,Processing speed,Memory (RAM),NA,NA
NA,NA,NA,NA,NA,choice_trial_setup,html-keyboard-response,24,145253,0.0-4.0-0.10,272,1,2025-05-07T00:18:12Z,b60275e29fe2361ab97ac0ac217840d7,"Mozilla/5.0 (Macintosh; Intel Mac OS X 10_15_7) AppleWebKit/537.36 (KHTML, like Gecko) Chrome/135.0.0.0 Safari/537.36",Macintosh,Chrome,135.0.0.0,OS X,10_15_7,https://5puzkbbxv1.cognition.run/?sona_id=56780,"en-US,en;q=0.9",v3g361dbge6ehuf,21,"[""Asian""]",No,Male,NA,Yes,314434.2000000477,NA,null,<p></p>,null,choice,tcd,trinary,repulsion_A,2,televisions,null,null,null,null,null,null,1,NA,NA,NA,NA,NA,NA,NA,NA,NA,NA
NA,NA,NA,NA,NA,choice_trial,survey-html-form,25,148915,0.0-4.0-1.10,272,1,2025-05-07T00:18:12Z,b60275e29fe2361ab97ac0ac217840d7,"Mozilla/5.0 (Macintosh; Intel Mac OS X 10_15_7) AppleWebKit/537.36 (KHTML, like Gecko) Chrome/135.0.0.0 Safari/537.36",Macintosh,Chrome,135.0.0.0,OS X,10_15_7,https://5puzkbbxv1.cognition.run/?sona_id=56780,"en-US,en;q=0.9",v3g361dbge6ehuf,21,"[""Asian""]",No,Male,NA,Yes,314434.2000000477,NA,3658,NA,"{""product_choice"":""B""}",choice,tcd,trinary,repulsion_A,2,televisions,null,null,null,null,null,null,1,30,40,20,100,90,100,Screen size,Average lifespan,NA,NA
NA,NA,NA,NA,NA,choice_trial_setup,html-keyboard-response,26,149218,0.0-4.0-0.11,272,1,2025-05-07T00:18:12Z,b60275e29fe2361ab97ac0ac217840d7,"Mozilla/5.0 (Macintosh; Intel Mac OS X 10_15_7) AppleWebKit/537.36 (KHTML, like Gecko) Chrome/135.0.0.0 Safari/537.36",Macintosh,Chrome,135.0.0.0,OS X,10_15_7,https://5puzkbbxv1.cognition.run/?sona_id=56780,"en-US,en;q=0.9",v3g361dbge6ehuf,21,"[""Asian""]",No,Male,NA,Yes,314434.2000000477,NA,null,<p></p>,null,choice,ct,binary,repulsion,1,washing machines,null,null,null,null,null,null,1,NA,NA,NA,NA,NA,NA,NA,NA,NA,NA
NA,NA,NA,NA,NA,choice_trial,survey-html-form,27,159749,0.0-4.0-1.11,272,1,2025-05-07T00:18:12Z,b60275e29fe2361ab97ac0ac217840d7,"Mozilla/5.0 (Macintosh; Intel Mac OS X 10_15_7) AppleWebKit/537.36 (KHTML, like Gecko) Chrome/135.0.0.0 Safari/537.36",Macintosh,Chrome,135.0.0.0,OS X,10_15_7,https://5puzkbbxv1.cognition.run/?sona_id=56780,"en-US,en;q=0.9",v3g361dbge6ehuf,21,"[""Asian""]",No,Male,NA,Yes,314434.2000000477,NA,10528,NA,"{""product_choice"":""B""}",choice,ct,binary,repulsion,1,washing machines,null,null,null,null,null,null,1,100,90,null,30,40,null,Average lifespan,Energy savings,NA,NA
NA,NA,NA,NA,NA,choice_trial_setup,html-keyboard-response,28,160053,0.0-4.0-0.12,272,1,2025-05-07T00:18:12Z,b60275e29fe2361ab97ac0ac217840d7,"Mozilla/5.0 (Macintosh; Intel Mac OS X 10_15_7) AppleWebKit/537.36 (KHTML, like Gecko) Chrome/135.0.0.0 Safari/537.36",Macintosh,Chrome,135.0.0.0,OS X,10_15_7,https://5puzkbbxv1.cognition.run/?sona_id=56780,"en-US,en;q=0.9",v3g361dbge6ehuf,21,"[""Asian""]",No,Male,NA,Yes,314434.2000000477,NA,null,<p></p>,null,choice,dct,trinary,attraction,1,washing machines,null,null,null,null,null,null,2,NA,NA,NA,NA,NA,NA,NA,NA,NA,NA
NA,NA,NA,NA,NA,choice_trial,survey-html-form,29,161982,0.0-4.0-1.12,272,1,2025-05-07T00:18:12Z,b60275e29fe2361ab97ac0ac217840d7,"Mozilla/5.0 (Macintosh; Intel Mac OS X 10_15_7) AppleWebKit/537.36 (KHTML, like Gecko) Chrome/135.0.0.0 Safari/537.36",Macintosh,Chrome,135.0.0.0,OS X,10_15_7,https://5puzkbbxv1.cognition.run/?sona_id=56780,"en-US,en;q=0.9",v3g361dbge6ehuf,21,"[""Asian""]",No,Male,NA,Yes,314434.2000000477,NA,1924,NA,"{""product_choice"":""C""}",choice,dct,trinary,attraction,1,washing machines,null,null,null,null,null,null,2,60,50,60,50,60,40,Average lifespan,Energy savings,NA,NA
NA,NA,NA,NA,NA,choice_trial_setup,html-keyboard-response,30,162286,0.0-4.0-0.13,272,1,2025-05-07T00:18:12Z,b60275e29fe2361ab97ac0ac217840d7,"Mozilla/5.0 (Macintosh; Intel Mac OS X 10_15_7) AppleWebKit/537.36 (KHTML, like Gecko) Chrome/135.0.0.0 Safari/537.36",Macintosh,Chrome,135.0.0.0,OS X,10_15_7,https://5puzkbbxv1.cognition.run/?sona_id=56780,"en-US,en;q=0.9",v3g361dbge6ehuf,21,"[""Asian""]",No,Male,NA,Yes,314434.2000000477,NA,null,<p></p>,null,choice,ct,binary,attraction,NA,laptops,null,null,null,null,null,null,1,NA,NA,NA,NA,NA,NA,NA,NA,NA,NA
NA,NA,NA,NA,NA,choice_trial,survey-html-form,31,164199,0.0-4.0-1.13,272,1,2025-05-07T00:18:12Z,b60275e29fe2361ab97ac0ac217840d7,"Mozilla/5.0 (Macintosh; Intel Mac OS X 10_15_7) AppleWebKit/537.36 (KHTML, like Gecko) Chrome/135.0.0.0 Safari/537.36",Macintosh,Chrome,135.0.0.0,OS X,10_15_7,https://5puzkbbxv1.cognition.run/?sona_id=56780,"en-US,en;q=0.9",v3g361dbge6ehuf,21,"[""Asian""]",No,Male,NA,Yes,314434.2000000477,NA,1910,NA,"{""product_choice"":""A""}",choice,ct,binary,attraction,NA,laptops,null,null,null,null,null,null,1,60,50,null,50,60,null,Processing speed,Memory (RAM),NA,NA
NA,NA,NA,NA,NA,choice_trial_setup,html-keyboard-response,32,164502,0.0-4.0-0.14,272,1,2025-05-07T00:18:12Z,b60275e29fe2361ab97ac0ac217840d7,"Mozilla/5.0 (Macintosh; Intel Mac OS X 10_15_7) AppleWebKit/537.36 (KHTML, like Gecko) Chrome/135.0.0.0 Safari/537.36",Macintosh,Chrome,135.0.0.0,OS X,10_15_7,https://5puzkbbxv1.cognition.run/?sona_id=56780,"en-US,en;q=0.9",v3g361dbge6ehuf,21,"[""Asian""]",No,Male,NA,Yes,314434.2000000477,NA,null,<p></p>,null,choice,wwb,trinary,catch,null,laptops,55,60,30,50,10,40,1,NA,NA,NA,NA,NA,NA,NA,NA,NA,NA
NA,NA,NA,NA,NA,choice_trial,survey-html-form,33,166665,0.0-4.0-1.14,272,1,2025-05-07T00:18:12Z,b60275e29fe2361ab97ac0ac217840d7,"Mozilla/5.0 (Macintosh; Intel Mac OS X 10_15_7) AppleWebKit/537.36 (KHTML, like Gecko) Chrome/135.0.0.0 Safari/537.36",Macintosh,Chrome,135.0.0.0,OS X,10_15_7,https://5puzkbbxv1.cognition.run/?sona_id=56780,"en-US,en;q=0.9",v3g361dbge6ehuf,21,"[""Asian""]",No,Male,NA,Yes,314434.2000000477,NA,2160,NA,"{""product_choice"":""C""}",choice,wwb,trinary,catch,null,laptops,55,60,30,50,10,40,1,null,null,null,null,null,null,Processing speed,Memory (RAM),NA,NA
NA,NA,NA,NA,NA,choice_trial_setup,html-keyboard-response,34,166968,0.0-4.0-0.15,272,1,2025-05-07T00:18:12Z,b60275e29fe2361ab97ac0ac217840d7,"Mozilla/5.0 (Macintosh; Intel Mac OS X 10_15_7) AppleWebKit/537.36 (KHTML, like Gecko) Chrome/135.0.0.0 Safari/537.36",Macintosh,Chrome,135.0.0.0,OS X,10_15_7,https://5puzkbbxv1.cognition.run/?sona_id=56780,"en-US,en;q=0.9",v3g361dbge6ehuf,21,"[""Asian""]",No,Male,NA,Yes,314434.2000000477,NA,null,<p></p>,null,choice,tc,binary,repulsion,2,microwave ovens,null,null,null,null,null,null,1,NA,NA,NA,NA,NA,NA,NA,NA,NA,NA
NA,NA,NA,NA,NA,choice_trial,survey-html-form,35,168599,0.0-4.0-1.15,272,1,2025-05-07T00:18:12Z,b60275e29fe2361ab97ac0ac217840d7,"Mozilla/5.0 (Macintosh; Intel Mac OS X 10_15_7) AppleWebKit/537.36 (KHTML, like Gecko) Chrome/135.0.0.0 Safari/537.36",Macintosh,Chrome,135.0.0.0,OS X,10_15_7,https://5puzkbbxv1.cognition.run/?sona_id=56780,"en-US,en;q=0.9",v3g361dbge6ehuf,21,"[""Asian""]",No,Male,NA,Yes,314434.2000000477,NA,1628,NA,"{""product_choice"":""A""}",choice,tc,binary,repulsion,2,microwave ovens,null,null,null,null,null,null,1,30,40,null,100,90,null,Warranty,Cooking power,NA,NA
NA,NA,NA,NA,NA,choice_trial_setup,html-keyboard-response,36,168904,0.0-4.0-0.16,272,1,2025-05-07T00:18:12Z,b60275e29fe2361ab97ac0ac217840d7,"Mozilla/5.0 (Macintosh; Intel Mac OS X 10_15_7) AppleWebKit/537.36 (KHTML, like Gecko) Chrome/135.0.0.0 Safari/537.36",Macintosh,Chrome,135.0.0.0,OS X,10_15_7,https://5puzkbbxv1.cognition.run/?sona_id=56780,"en-US,en;q=0.9",v3g361dbge6ehuf,21,"[""Asian""]",No,Male,NA,Yes,314434.2000000477,NA,null,<p></p>,null,choice,bw,binary,catch,null,washing machines,65,55,25,45,null,null,1,NA,NA,NA,NA,NA,NA,NA,NA,NA,NA
NA,NA,NA,NA,NA,choice_trial,survey-html-form,37,172848,0.0-4.0-1.16,272,1,2025-05-07T00:18:12Z,b60275e29fe2361ab97ac0ac217840d7,"Mozilla/5.0 (Macintosh; Intel Mac OS X 10_15_7) AppleWebKit/537.36 (KHTML, like Gecko) Chrome/135.0.0.0 Safari/537.36",Macintosh,Chrome,135.0.0.0,OS X,10_15_7,https://5puzkbbxv1.cognition.run/?sona_id=56780,"en-US,en;q=0.9",v3g361dbge6ehuf,21,"[""Asian""]",No,Male,NA,Yes,314434.2000000477,NA,3940,NA,"{""product_choice"":""A""}",choice,bw,binary,catch,null,washing machines,65,55,25,45,null,null,1,null,null,null,null,null,null,Average lifespan,Energy savings,NA,NA
NA,NA,NA,NA,NA,choice_trial_setup,html-keyboard-response,38,173153,0.0-4.0-0.17,272,1,2025-05-07T00:18:12Z,b60275e29fe2361ab97ac0ac217840d7,"Mozilla/5.0 (Macintosh; Intel Mac OS X 10_15_7) AppleWebKit/537.36 (KHTML, like Gecko) Chrome/135.0.0.0 Safari/537.36",Macintosh,Chrome,135.0.0.0,OS X,10_15_7,https://5puzkbbxv1.cognition.run/?sona_id=56780,"en-US,en;q=0.9",v3g361dbge6ehuf,21,"[""Asian""]",No,Male,NA,Yes,314434.2000000477,NA,null,<p></p>,null,choice,dct,trinary,attraction,2,laptops,null,null,null,null,null,null,2,NA,NA,NA,NA,NA,NA,NA,NA,NA,NA
NA,NA,NA,NA,NA,choice_trial,survey-html-form,39,176698,0.0-4.0-1.17,272,1,2025-05-07T00:18:12Z,b60275e29fe2361ab97ac0ac217840d7,"Mozilla/5.0 (Macintosh; Intel Mac OS X 10_15_7) AppleWebKit/537.36 (KHTML, like Gecko) Chrome/135.0.0.0 Safari/537.36",Macintosh,Chrome,135.0.0.0,OS X,10_15_7,https://5puzkbbxv1.cognition.run/?sona_id=56780,"en-US,en;q=0.9",v3g361dbge6ehuf,21,"[""Asian""]",No,Male,NA,Yes,314434.2000000477,NA,3543,NA,"{""product_choice"":""B""}",choice,dct,trinary,attraction,2,laptops,null,null,null,null,null,null,2,50,60,40,60,50,60,Processing speed,Memory (RAM),NA,NA
NA,NA,NA,NA,NA,choice_trial_setup,html-keyboard-response,40,177002,0.0-4.0-0.18,272,1,2025-05-07T00:18:12Z,b60275e29fe2361ab97ac0ac217840d7,"Mozilla/5.0 (Macintosh; Intel Mac OS X 10_15_7) AppleWebKit/537.36 (KHTML, like Gecko) Chrome/135.0.0.0 Safari/537.36",Macintosh,Chrome,135.0.0.0,OS X,10_15_7,https://5puzkbbxv1.cognition.run/?sona_id=56780,"en-US,en;q=0.9",v3g361dbge6ehuf,21,"[""Asian""]",No,Male,NA,Yes,314434.2000000477,NA,null,<p></p>,null,choice,tcd,trinary,repulsion_A,2,washing machines,null,null,null,null,null,null,2,NA,NA,NA,NA,NA,NA,NA,NA,NA,NA
NA,NA,NA,NA,NA,choice_trial,survey-html-form,41,179333,0.0-4.0-1.18,272,1,2025-05-07T00:18:12Z,b60275e29fe2361ab97ac0ac217840d7,"Mozilla/5.0 (Macintosh; Intel Mac OS X 10_15_7) AppleWebKit/537.36 (KHTML, like Gecko) Chrome/135.0.0.0 Safari/537.36",Macintosh,Chrome,135.0.0.0,OS X,10_15_7,https://5puzkbbxv1.cognition.run/?sona_id=56780,"en-US,en;q=0.9",v3g361dbge6ehuf,21,"[""Asian""]",No,Male,NA,Yes,314434.2000000477,NA,2327,NA,"{""product_choice"":""B""}",choice,tcd,trinary,repulsion_A,2,washing machines,null,null,null,null,null,null,2,30,40,20,100,90,100,Average lifespan,Energy savings,NA,NA
NA,NA,NA,NA,NA,choice_trial_setup,html-keyboard-response,42,179636,0.0-4.0-0.19,272,1,2025-05-07T00:18:12Z,b60275e29fe2361ab97ac0ac217840d7,"Mozilla/5.0 (Macintosh; Intel Mac OS X 10_15_7) AppleWebKit/537.36 (KHTML, like Gecko) Chrome/135.0.0.0 Safari/537.36",Macintosh,Chrome,135.0.0.0,OS X,10_15_7,https://5puzkbbxv1.cognition.run/?sona_id=56780,"en-US,en;q=0.9",v3g361dbge6ehuf,21,"[""Asian""]",No,Male,NA,Yes,314434.2000000477,NA,null,<p></p>,null,choice,dct,trinary,attraction,1,televisions,null,null,null,null,null,null,2,NA,NA,NA,NA,NA,NA,NA,NA,NA,NA
NA,NA,NA,NA,NA,choice_trial,survey-html-form,43,181615,0.0-4.0-1.19,272,1,2025-05-07T00:18:12Z,b60275e29fe2361ab97ac0ac217840d7,"Mozilla/5.0 (Macintosh; Intel Mac OS X 10_15_7) AppleWebKit/537.36 (KHTML, like Gecko) Chrome/135.0.0.0 Safari/537.36",Macintosh,Chrome,135.0.0.0,OS X,10_15_7,https://5puzkbbxv1.cognition.run/?sona_id=56780,"en-US,en;q=0.9",v3g361dbge6ehuf,21,"[""Asian""]",No,Male,NA,Yes,314434.2000000477,NA,1976,NA,"{""product_choice"":""B""}",choice,dct,trinary,attraction,1,televisions,null,null,null,null,null,null,2,60,50,60,50,60,40,Screen size,Average lifespan,NA,NA
NA,NA,NA,NA,NA,choice_trial_setup,html-keyboard-response,44,181920,0.0-4.0-0.20,272,1,2025-05-07T00:18:12Z,b60275e29fe2361ab97ac0ac217840d7,"Mozilla/5.0 (Macintosh; Intel Mac OS X 10_15_7) AppleWebKit/537.36 (KHTML, like Gecko) Chrome/135.0.0.0 Safari/537.36",Macintosh,Chrome,135.0.0.0,OS X,10_15_7,https://5puzkbbxv1.cognition.run/?sona_id=56780,"en-US,en;q=0.9",v3g361dbge6ehuf,21,"[""Asian""]",No,Male,NA,Yes,314434.2000000477,NA,null,<p></p>,null,choice,dtc,trinary,attraction,2,microwave ovens,null,null,null,null,null,null,1,NA,NA,NA,NA,NA,NA,NA,NA,NA,NA
NA,NA,NA,NA,NA,choice_trial,survey-html-form,45,183898,0.0-4.0-1.20,272,1,2025-05-07T00:18:12Z,b60275e29fe2361ab97ac0ac217840d7,"Mozilla/5.0 (Macintosh; Intel Mac OS X 10_15_7) AppleWebKit/537.36 (KHTML, like Gecko) Chrome/135.0.0.0 Safari/537.36",Macintosh,Chrome,135.0.0.0,OS X,10_15_7,https://5puzkbbxv1.cognition.run/?sona_id=56780,"en-US,en;q=0.9",v3g361dbge6ehuf,21,"[""Asian""]",No,Male,NA,Yes,314434.2000000477,NA,1974,NA,"{""product_choice"":""B""}",choice,dtc,trinary,attraction,2,microwave ovens,null,null,null,null,null,null,1,50,60,40,60,50,60,Warranty,Cooking power,NA,NA
NA,NA,NA,NA,NA,choice_trial_setup,html-keyboard-response,46,184203,0.0-4.0-0.21,272,1,2025-05-07T00:18:12Z,b60275e29fe2361ab97ac0ac217840d7,"Mozilla/5.0 (Macintosh; Intel Mac OS X 10_15_7) AppleWebKit/537.36 (KHTML, like Gecko) Chrome/135.0.0.0 Safari/537.36",Macintosh,Chrome,135.0.0.0,OS X,10_15_7,https://5puzkbbxv1.cognition.run/?sona_id=56780,"en-US,en;q=0.9",v3g361dbge6ehuf,21,"[""Asian""]",No,Male,NA,Yes,314434.2000000477,NA,null,<p></p>,null,choice,dct,trinary,repulsion_B,1,washing machines,null,null,null,null,null,null,2,NA,NA,NA,NA,NA,NA,NA,NA,NA,NA
NA,NA,NA,NA,NA,choice_trial,survey-html-form,47,186182,0.0-4.0-1.21,272,1,2025-05-07T00:18:12Z,b60275e29fe2361ab97ac0ac217840d7,"Mozilla/5.0 (Macintosh; Intel Mac OS X 10_15_7) AppleWebKit/537.36 (KHTML, like Gecko) Chrome/135.0.0.0 Safari/537.36",Macintosh,Chrome,135.0.0.0,OS X,10_15_7,https://5puzkbbxv1.cognition.run/?sona_id=56780,"en-US,en;q=0.9",v3g361dbge6ehuf,21,"[""Asian""]",No,Male,NA,Yes,314434.2000000477,NA,1975,NA,"{""product_choice"":""B""}",choice,dct,trinary,repulsion_B,1,washing machines,null,null,null,null,null,null,2,90,100,80,40,30,40,Average lifespan,Energy savings,NA,NA
NA,NA,NA,NA,NA,choice_trial_setup,html-keyboard-response,48,186486,0.0-4.0-0.22,272,1,2025-05-07T00:18:12Z,b60275e29fe2361ab97ac0ac217840d7,"Mozilla/5.0 (Macintosh; Intel Mac OS X 10_15_7) AppleWebKit/537.36 (KHTML, like Gecko) Chrome/135.0.0.0 Safari/537.36",Macintosh,Chrome,135.0.0.0,OS X,10_15_7,https://5puzkbbxv1.cognition.run/?sona_id=56780,"en-US,en;q=0.9",v3g361dbge6ehuf,21,"[""Asian""]",No,Male,NA,Yes,314434.2000000477,NA,null,<p></p>,null,choice,ct,binary,repulsion,2,televisions,null,null,null,null,null,null,1,NA,NA,NA,NA,NA,NA,NA,NA,NA,NA
NA,NA,NA,NA,NA,choice_trial,survey-html-form,49,187865,0.0-4.0-1.22,272,1,2025-05-07T00:18:12Z,b60275e29fe2361ab97ac0ac217840d7,"Mozilla/5.0 (Macintosh; Intel Mac OS X 10_15_7) AppleWebKit/537.36 (KHTML, like Gecko) Chrome/135.0.0.0 Safari/537.36",Macintosh,Chrome,135.0.0.0,OS X,10_15_7,https://5puzkbbxv1.cognition.run/?sona_id=56780,"en-US,en;q=0.9",v3g361dbge6ehuf,21,"[""Asian""]",No,Male,NA,Yes,314434.2000000477,NA,1376,NA,"{""product_choice"":""B""}",choice,ct,binary,repulsion,2,televisions,null,null,null,null,null,null,1,30,40,null,100,90,null,Screen size,Average lifespan,NA,NA
NA,NA,NA,NA,NA,choice_trial_setup,html-keyboard-response,50,188170,0.0-4.0-0.23,272,1,2025-05-07T00:18:12Z,b60275e29fe2361ab97ac0ac217840d7,"Mozilla/5.0 (Macintosh; Intel Mac OS X 10_15_7) AppleWebKit/537.36 (KHTML, like Gecko) Chrome/135.0.0.0 Safari/537.36",Macintosh,Chrome,135.0.0.0,OS X,10_15_7,https://5puzkbbxv1.cognition.run/?sona_id=56780,"en-US,en;q=0.9",v3g361dbge6ehuf,21,"[""Asian""]",No,Male,NA,Yes,314434.2000000477,NA,null,<p></p>,null,choice,tcd,trinary,repulsion_A,2,laptops,null,null,null,null,null,null,2,NA,NA,NA,NA,NA,NA,NA,NA,NA,NA
NA,NA,NA,NA,NA,choice_trial,survey-html-form,51,189966,0.0-4.0-1.23,272,1,2025-05-07T00:18:12Z,b60275e29fe2361ab97ac0ac217840d7,"Mozilla/5.0 (Macintosh; Intel Mac OS X 10_15_7) AppleWebKit/537.36 (KHTML, like Gecko) Chrome/135.0.0.0 Safari/537.36",Macintosh,Chrome,135.0.0.0,OS X,10_15_7,https://5puzkbbxv1.cognition.run/?sona_id=56780,"en-US,en;q=0.9",v3g361dbge6ehuf,21,"[""Asian""]",No,Male,NA,Yes,314434.2000000477,NA,1792,NA,"{""product_choice"":""B""}",choice,tcd,trinary,repulsion_A,2,laptops,null,null,null,null,null,null,2,30,40,20,100,90,100,Processing speed,Memory (RAM),NA,NA
NA,NA,NA,NA,NA,choice_trial_setup,html-keyboard-response,52,190269,0.0-4.0-0.24,272,1,2025-05-07T00:18:12Z,b60275e29fe2361ab97ac0ac217840d7,"Mozilla/5.0 (Macintosh; Intel Mac OS X 10_15_7) AppleWebKit/537.36 (KHTML, like Gecko) Chrome/135.0.0.0 Safari/537.36",Macintosh,Chrome,135.0.0.0,OS X,10_15_7,https://5puzkbbxv1.cognition.run/?sona_id=56780,"en-US,en;q=0.9",v3g361dbge6ehuf,21,"[""Asian""]",No,Male,NA,Yes,314434.2000000477,NA,null,<p></p>,null,choice,ct,binary,attraction,NA,washing machines,null,null,null,null,null,null,1,NA,NA,NA,NA,NA,NA,NA,NA,NA,NA
NA,NA,NA,NA,NA,choice_trial,survey-html-form,53,191466,0.0-4.0-1.24,272,1,2025-05-07T00:18:12Z,b60275e29fe2361ab97ac0ac217840d7,"Mozilla/5.0 (Macintosh; Intel Mac OS X 10_15_7) AppleWebKit/537.36 (KHTML, like Gecko) Chrome/135.0.0.0 Safari/537.36",Macintosh,Chrome,135.0.0.0,OS X,10_15_7,https://5puzkbbxv1.cognition.run/?sona_id=56780,"en-US,en;q=0.9",v3g361dbge6ehuf,21,"[""Asian""]",No,Male,NA,Yes,314434.2000000477,NA,1193,NA,"{""product_choice"":""A""}",choice,ct,binary,attraction,NA,washing machines,null,null,null,null,null,null,1,60,50,null,50,60,null,Average lifespan,Energy savings,NA,NA
NA,NA,NA,NA,NA,choice_trial_setup,html-keyboard-response,54,191770,0.0-4.0-0.25,272,1,2025-05-07T00:18:12Z,b60275e29fe2361ab97ac0ac217840d7,"Mozilla/5.0 (Macintosh; Intel Mac OS X 10_15_7) AppleWebKit/537.36 (KHTML, like Gecko) Chrome/135.0.0.0 Safari/537.36",Macintosh,Chrome,135.0.0.0,OS X,10_15_7,https://5puzkbbxv1.cognition.run/?sona_id=56780,"en-US,en;q=0.9",v3g361dbge6ehuf,21,"[""Asian""]",No,Male,NA,Yes,314434.2000000477,NA,null,<p></p>,null,choice,ct,binary,repulsion,1,microwave ovens,null,null,null,null,null,null,2,NA,NA,NA,NA,NA,NA,NA,NA,NA,NA
NA,NA,NA,NA,NA,choice_trial,survey-html-form,55,193065,0.0-4.0-1.25,272,1,2025-05-07T00:18:12Z,b60275e29fe2361ab97ac0ac217840d7,"Mozilla/5.0 (Macintosh; Intel Mac OS X 10_15_7) AppleWebKit/537.36 (KHTML, like Gecko) Chrome/135.0.0.0 Safari/537.36",Macintosh,Chrome,135.0.0.0,OS X,10_15_7,https://5puzkbbxv1.cognition.run/?sona_id=56780,"en-US,en;q=0.9",v3g361dbge6ehuf,21,"[""Asian""]",No,Male,NA,Yes,314434.2000000477,NA,1291,NA,"{""product_choice"":""B""}",choice,ct,binary,repulsion,1,microwave ovens,null,null,null,null,null,null,2,100,90,null,30,40,null,Warranty,Cooking power,NA,NA
NA,NA,NA,NA,NA,choice_trial_setup,html-keyboard-response,56,193370,0.0-4.0-0.26,272,1,2025-05-07T00:18:12Z,b60275e29fe2361ab97ac0ac217840d7,"Mozilla/5.0 (Macintosh; Intel Mac OS X 10_15_7) AppleWebKit/537.36 (KHTML, like Gecko) Chrome/135.0.0.0 Safari/537.36",Macintosh,Chrome,135.0.0.0,OS X,10_15_7,https://5puzkbbxv1.cognition.run/?sona_id=56780,"en-US,en;q=0.9",v3g361dbge6ehuf,21,"[""Asian""]",No,Male,NA,Yes,314434.2000000477,NA,null,<p></p>,null,choice,dtc,trinary,repulsion_B,1,televisions,null,null,null,null,null,null,2,NA,NA,NA,NA,NA,NA,NA,NA,NA,NA
NA,NA,NA,NA,NA,choice_trial,survey-html-form,57,195049,0.0-4.0-1.26,272,1,2025-05-07T00:18:12Z,b60275e29fe2361ab97ac0ac217840d7,"Mozilla/5.0 (Macintosh; Intel Mac OS X 10_15_7) AppleWebKit/537.36 (KHTML, like Gecko) Chrome/135.0.0.0 Safari/537.36",Macintosh,Chrome,135.0.0.0,OS X,10_15_7,https://5puzkbbxv1.cognition.run/?sona_id=56780,"en-US,en;q=0.9",v3g361dbge6ehuf,21,"[""Asian""]",No,Male,NA,Yes,314434.2000000477,NA,1676,NA,"{""product_choice"":""A""}",choice,dtc,trinary,repulsion_B,1,televisions,null,null,null,null,null,null,2,90,100,80,40,30,40,Screen size,Average lifespan,NA,NA
NA,NA,NA,NA,NA,choice_trial_setup,html-keyboard-response,58,195353,0.0-4.0-0.27,272,1,2025-05-07T00:18:12Z,b60275e29fe2361ab97ac0ac217840d7,"Mozilla/5.0 (Macintosh; Intel Mac OS X 10_15_7) AppleWebKit/537.36 (KHTML, like Gecko) Chrome/135.0.0.0 Safari/537.36",Macintosh,Chrome,135.0.0.0,OS X,10_15_7,https://5puzkbbxv1.cognition.run/?sona_id=56780,"en-US,en;q=0.9",v3g361dbge6ehuf,21,"[""Asian""]",No,Male,NA,Yes,314434.2000000477,NA,null,<p></p>,null,choice,ct,binary,repulsion,1,televisions,null,null,null,null,null,null,1,NA,NA,NA,NA,NA,NA,NA,NA,NA,NA
NA,NA,NA,NA,NA,choice_trial,survey-html-form,59,196881,0.0-4.0-1.27,272,1,2025-05-07T00:18:12Z,b60275e29fe2361ab97ac0ac217840d7,"Mozilla/5.0 (Macintosh; Intel Mac OS X 10_15_7) AppleWebKit/537.36 (KHTML, like Gecko) Chrome/135.0.0.0 Safari/537.36",Macintosh,Chrome,135.0.0.0,OS X,10_15_7,https://5puzkbbxv1.cognition.run/?sona_id=56780,"en-US,en;q=0.9",v3g361dbge6ehuf,21,"[""Asian""]",No,Male,NA,Yes,314434.2000000477,NA,1524,NA,"{""product_choice"":""A""}",choice,ct,binary,repulsion,1,televisions,null,null,null,null,null,null,1,100,90,null,30,40,null,Screen size,Average lifespan,NA,NA
NA,NA,NA,NA,NA,choice_trial_setup,html-keyboard-response,60,197186,0.0-4.0-0.28,272,1,2025-05-07T00:18:12Z,b60275e29fe2361ab97ac0ac217840d7,"Mozilla/5.0 (Macintosh; Intel Mac OS X 10_15_7) AppleWebKit/537.36 (KHTML, like Gecko) Chrome/135.0.0.0 Safari/537.36",Macintosh,Chrome,135.0.0.0,OS X,10_15_7,https://5puzkbbxv1.cognition.run/?sona_id=56780,"en-US,en;q=0.9",v3g361dbge6ehuf,21,"[""Asian""]",No,Male,NA,Yes,314434.2000000477,NA,null,<p></p>,null,choice,ct,binary,attraction,NA,televisions,null,null,null,null,null,null,2,NA,NA,NA,NA,NA,NA,NA,NA,NA,NA
NA,NA,NA,NA,NA,choice_trial,survey-html-form,61,198948,0.0-4.0-1.28,272,1,2025-05-07T00:18:12Z,b60275e29fe2361ab97ac0ac217840d7,"Mozilla/5.0 (Macintosh; Intel Mac OS X 10_15_7) AppleWebKit/537.36 (KHTML, like Gecko) Chrome/135.0.0.0 Safari/537.36",Macintosh,Chrome,135.0.0.0,OS X,10_15_7,https://5puzkbbxv1.cognition.run/?sona_id=56780,"en-US,en;q=0.9",v3g361dbge6ehuf,21,"[""Asian""]",No,Male,NA,Yes,314434.2000000477,NA,1759,NA,"{""product_choice"":""A""}",choice,ct,binary,attraction,NA,televisions,null,null,null,null,null,null,2,60,50,null,50,60,null,Screen size,Average lifespan,NA,NA
NA,NA,NA,NA,NA,choice_trial_setup,html-keyboard-response,62,199252,0.0-4.0-0.29,272,1,2025-05-07T00:18:12Z,b60275e29fe2361ab97ac0ac217840d7,"Mozilla/5.0 (Macintosh; Intel Mac OS X 10_15_7) AppleWebKit/537.36 (KHTML, like Gecko) Chrome/135.0.0.0 Safari/537.36",Macintosh,Chrome,135.0.0.0,OS X,10_15_7,https://5puzkbbxv1.cognition.run/?sona_id=56780,"en-US,en;q=0.9",v3g361dbge6ehuf,21,"[""Asian""]",No,Male,NA,Yes,314434.2000000477,NA,null,<p></p>,null,choice,cdt,trinary,repulsion_B,2,washing machines,null,null,null,null,null,null,2,NA,NA,NA,NA,NA,NA,NA,NA,NA,NA
NA,NA,NA,NA,NA,choice_trial,survey-html-form,63,201082,0.0-4.0-1.29,272,1,2025-05-07T00:18:12Z,b60275e29fe2361ab97ac0ac217840d7,"Mozilla/5.0 (Macintosh; Intel Mac OS X 10_15_7) AppleWebKit/537.36 (KHTML, like Gecko) Chrome/135.0.0.0 Safari/537.36",Macintosh,Chrome,135.0.0.0,OS X,10_15_7,https://5puzkbbxv1.cognition.run/?sona_id=56780,"en-US,en;q=0.9",v3g361dbge6ehuf,21,"[""Asian""]",No,Male,NA,Yes,314434.2000000477,NA,1826,NA,"{""product_choice"":""C""}",choice,cdt,trinary,repulsion_B,2,washing machines,null,null,null,null,null,null,2,40,30,40,90,100,80,Average lifespan,Energy savings,NA,NA
NA,NA,NA,NA,NA,choice_trial_setup,html-keyboard-response,64,201387,0.0-4.0-0.30,272,1,2025-05-07T00:18:12Z,b60275e29fe2361ab97ac0ac217840d7,"Mozilla/5.0 (Macintosh; Intel Mac OS X 10_15_7) AppleWebKit/537.36 (KHTML, like Gecko) Chrome/135.0.0.0 Safari/537.36",Macintosh,Chrome,135.0.0.0,OS X,10_15_7,https://5puzkbbxv1.cognition.run/?sona_id=56780,"en-US,en;q=0.9",v3g361dbge6ehuf,21,"[""Asian""]",No,Male,NA,Yes,314434.2000000477,NA,null,<p></p>,null,choice,wb,binary,catch,null,televisions,75,55,45,25,null,null,2,NA,NA,NA,NA,NA,NA,NA,NA,NA,NA
NA,NA,NA,NA,NA,choice_trial,survey-html-form,65,203849,0.0-4.0-1.30,272,1,2025-05-07T00:18:12Z,b60275e29fe2361ab97ac0ac217840d7,"Mozilla/5.0 (Macintosh; Intel Mac OS X 10_15_7) AppleWebKit/537.36 (KHTML, like Gecko) Chrome/135.0.0.0 Safari/537.36",Macintosh,Chrome,135.0.0.0,OS X,10_15_7,https://5puzkbbxv1.cognition.run/?sona_id=56780,"en-US,en;q=0.9",v3g361dbge6ehuf,21,"[""Asian""]",No,Male,NA,Yes,314434.2000000477,NA,2458,NA,"{""product_choice"":""B""}",choice,wb,binary,catch,null,televisions,75,55,45,25,null,null,2,null,null,null,null,null,null,Screen size,Average lifespan,NA,NA
NA,NA,NA,NA,NA,choice_trial_setup,html-keyboard-response,66,204155,0.0-4.0-0.31,272,1,2025-05-07T00:18:12Z,b60275e29fe2361ab97ac0ac217840d7,"Mozilla/5.0 (Macintosh; Intel Mac OS X 10_15_7) AppleWebKit/537.36 (KHTML, like Gecko) Chrome/135.0.0.0 Safari/537.36",Macintosh,Chrome,135.0.0.0,OS X,10_15_7,https://5puzkbbxv1.cognition.run/?sona_id=56780,"en-US,en;q=0.9",v3g361dbge6ehuf,21,"[""Asian""]",No,Male,NA,Yes,314434.2000000477,NA,null,<p></p>,null,choice,tc,binary,repulsion,2,laptops,null,null,null,null,null,null,2,NA,NA,NA,NA,NA,NA,NA,NA,NA,NA
NA,NA,NA,NA,NA,choice_trial,survey-html-form,67,206349,0.0-4.0-1.31,272,1,2025-05-07T00:18:12Z,b60275e29fe2361ab97ac0ac217840d7,"Mozilla/5.0 (Macintosh; Intel Mac OS X 10_15_7) AppleWebKit/537.36 (KHTML, like Gecko) Chrome/135.0.0.0 Safari/537.36",Macintosh,Chrome,135.0.0.0,OS X,10_15_7,https://5puzkbbxv1.cognition.run/?sona_id=56780,"en-US,en;q=0.9",v3g361dbge6ehuf,21,"[""Asian""]",No,Male,NA,Yes,314434.2000000477,NA,2188,NA,"{""product_choice"":""B""}",choice,tc,binary,repulsion,2,laptops,null,null,null,null,null,null,2,30,40,null,100,90,null,Processing speed,Memory (RAM),NA,NA
NA,NA,NA,NA,NA,choice_trial_setup,html-keyboard-response,68,206653,0.0-4.0-0.32,272,1,2025-05-07T00:18:12Z,b60275e29fe2361ab97ac0ac217840d7,"Mozilla/5.0 (Macintosh; Intel Mac OS X 10_15_7) AppleWebKit/537.36 (KHTML, like Gecko) Chrome/135.0.0.0 Safari/537.36",Macintosh,Chrome,135.0.0.0,OS X,10_15_7,https://5puzkbbxv1.cognition.run/?sona_id=56780,"en-US,en;q=0.9",v3g361dbge6ehuf,21,"[""Asian""]",No,Male,NA,Yes,314434.2000000477,NA,null,<p></p>,null,choice,wbw,trinary,catch,null,microwave ovens,65,50,10,50,25,45,2,NA,NA,NA,NA,NA,NA,NA,NA,NA,NA
NA,NA,NA,NA,NA,choice_trial,survey-html-form,69,208998,0.0-4.0-1.32,272,1,2025-05-07T00:18:12Z,b60275e29fe2361ab97ac0ac217840d7,"Mozilla/5.0 (Macintosh; Intel Mac OS X 10_15_7) AppleWebKit/537.36 (KHTML, like Gecko) Chrome/135.0.0.0 Safari/537.36",Macintosh,Chrome,135.0.0.0,OS X,10_15_7,https://5puzkbbxv1.cognition.run/?sona_id=56780,"en-US,en;q=0.9",v3g361dbge6ehuf,21,"[""Asian""]",No,Male,NA,Yes,314434.2000000477,NA,2341,NA,"{""product_choice"":""B""}",choice,wbw,trinary,catch,null,microwave ovens,65,50,10,50,25,45,2,null,null,null,null,null,null,Warranty,Cooking power,NA,NA
NA,NA,NA,NA,NA,choice_trial_setup,html-keyboard-response,70,209302,0.0-4.0-0.33,272,1,2025-05-07T00:18:12Z,b60275e29fe2361ab97ac0ac217840d7,"Mozilla/5.0 (Macintosh; Intel Mac OS X 10_15_7) AppleWebKit/537.36 (KHTML, like Gecko) Chrome/135.0.0.0 Safari/537.36",Macintosh,Chrome,135.0.0.0,OS X,10_15_7,https://5puzkbbxv1.cognition.run/?sona_id=56780,"en-US,en;q=0.9",v3g361dbge6ehuf,21,"[""Asian""]",No,Male,NA,Yes,314434.2000000477,NA,null,<p></p>,null,choice,tcd,trinary,repulsion_A,1,washing machines,null,null,null,null,null,null,2,NA,NA,NA,NA,NA,NA,NA,NA,NA,NA
NA,NA,NA,NA,NA,choice_trial,survey-html-form,71,210749,0.0-4.0-1.33,272,1,2025-05-07T00:18:12Z,b60275e29fe2361ab97ac0ac217840d7,"Mozilla/5.0 (Macintosh; Intel Mac OS X 10_15_7) AppleWebKit/537.36 (KHTML, like Gecko) Chrome/135.0.0.0 Safari/537.36",Macintosh,Chrome,135.0.0.0,OS X,10_15_7,https://5puzkbbxv1.cognition.run/?sona_id=56780,"en-US,en;q=0.9",v3g361dbge6ehuf,21,"[""Asian""]",No,Male,NA,Yes,314434.2000000477,NA,1443,NA,"{""product_choice"":""B""}",choice,tcd,trinary,repulsion_A,1,washing machines,null,null,null,null,null,null,2,100,90,100,30,40,20,Average lifespan,Energy savings,NA,NA
NA,NA,NA,NA,NA,choice_trial_setup,html-keyboard-response,72,211053,0.0-4.0-0.34,272,1,2025-05-07T00:18:12Z,b60275e29fe2361ab97ac0ac217840d7,"Mozilla/5.0 (Macintosh; Intel Mac OS X 10_15_7) AppleWebKit/537.36 (KHTML, like Gecko) Chrome/135.0.0.0 Safari/537.36",Macintosh,Chrome,135.0.0.0,OS X,10_15_7,https://5puzkbbxv1.cognition.run/?sona_id=56780,"en-US,en;q=0.9",v3g361dbge6ehuf,21,"[""Asian""]",No,Male,NA,Yes,314434.2000000477,NA,null,<p></p>,null,choice,tcd,trinary,repulsion_A,2,microwave ovens,null,null,null,null,null,null,2,NA,NA,NA,NA,NA,NA,NA,NA,NA,NA
NA,NA,NA,NA,NA,choice_trial,survey-html-form,73,212699,0.0-4.0-1.34,272,1,2025-05-07T00:18:12Z,b60275e29fe2361ab97ac0ac217840d7,"Mozilla/5.0 (Macintosh; Intel Mac OS X 10_15_7) AppleWebKit/537.36 (KHTML, like Gecko) Chrome/135.0.0.0 Safari/537.36",Macintosh,Chrome,135.0.0.0,OS X,10_15_7,https://5puzkbbxv1.cognition.run/?sona_id=56780,"en-US,en;q=0.9",v3g361dbge6ehuf,21,"[""Asian""]",No,Male,NA,Yes,314434.2000000477,NA,1642,NA,"{""product_choice"":""B""}",choice,tcd,trinary,repulsion_A,2,microwave ovens,null,null,null,null,null,null,2,30,40,20,100,90,100,Warranty,Cooking power,NA,NA
NA,NA,NA,NA,NA,choice_trial_setup,html-keyboard-response,74,213005,0.0-4.0-0.35,272,1,2025-05-07T00:18:12Z,b60275e29fe2361ab97ac0ac217840d7,"Mozilla/5.0 (Macintosh; Intel Mac OS X 10_15_7) AppleWebKit/537.36 (KHTML, like Gecko) Chrome/135.0.0.0 Safari/537.36",Macintosh,Chrome,135.0.0.0,OS X,10_15_7,https://5puzkbbxv1.cognition.run/?sona_id=56780,"en-US,en;q=0.9",v3g361dbge6ehuf,21,"[""Asian""]",No,Male,NA,Yes,314434.2000000477,NA,null,<p></p>,null,choice,ctd,trinary,attraction,2,washing machines,null,null,null,null,null,null,2,NA,NA,NA,NA,NA,NA,NA,NA,NA,NA
NA,NA,NA,NA,NA,choice_trial,survey-html-form,75,215732,0.0-4.0-1.35,272,1,2025-05-07T00:18:12Z,b60275e29fe2361ab97ac0ac217840d7,"Mozilla/5.0 (Macintosh; Intel Mac OS X 10_15_7) AppleWebKit/537.36 (KHTML, like Gecko) Chrome/135.0.0.0 Safari/537.36",Macintosh,Chrome,135.0.0.0,OS X,10_15_7,https://5puzkbbxv1.cognition.run/?sona_id=56780,"en-US,en;q=0.9",v3g361dbge6ehuf,21,"[""Asian""]",No,Male,NA,Yes,314434.2000000477,NA,2721,NA,"{""product_choice"":""B""}",choice,ctd,trinary,attraction,2,washing machines,null,null,null,null,null,null,2,50,60,40,60,50,60,Average lifespan,Energy savings,NA,NA
NA,NA,NA,NA,NA,choice_trial_setup,html-keyboard-response,76,216038,0.0-4.0-0.36,272,1,2025-05-07T00:18:12Z,b60275e29fe2361ab97ac0ac217840d7,"Mozilla/5.0 (Macintosh; Intel Mac OS X 10_15_7) AppleWebKit/537.36 (KHTML, like Gecko) Chrome/135.0.0.0 Safari/537.36",Macintosh,Chrome,135.0.0.0,OS X,10_15_7,https://5puzkbbxv1.cognition.run/?sona_id=56780,"en-US,en;q=0.9",v3g361dbge6ehuf,21,"[""Asian""]",No,Male,NA,Yes,314434.2000000477,NA,null,<p></p>,null,choice,ctd,trinary,repulsion_A,1,televisions,null,null,null,null,null,null,2,NA,NA,NA,NA,NA,NA,NA,NA,NA,NA
NA,NA,NA,NA,NA,choice_trial,survey-html-form,77,218149,0.0-4.0-1.36,272,1,2025-05-07T00:18:12Z,b60275e29fe2361ab97ac0ac217840d7,"Mozilla/5.0 (Macintosh; Intel Mac OS X 10_15_7) AppleWebKit/537.36 (KHTML, like Gecko) Chrome/135.0.0.0 Safari/537.36",Macintosh,Chrome,135.0.0.0,OS X,10_15_7,https://5puzkbbxv1.cognition.run/?sona_id=56780,"en-US,en;q=0.9",v3g361dbge6ehuf,21,"[""Asian""]",No,Male,NA,Yes,314434.2000000477,NA,2107,NA,"{""product_choice"":""A""}",choice,ctd,trinary,repulsion_A,1,televisions,null,null,null,null,null,null,2,100,90,100,30,40,20,Screen size,Average lifespan,NA,NA
NA,NA,NA,NA,NA,choice_trial_setup,html-keyboard-response,78,218455,0.0-4.0-0.37,272,1,2025-05-07T00:18:12Z,b60275e29fe2361ab97ac0ac217840d7,"Mozilla/5.0 (Macintosh; Intel Mac OS X 10_15_7) AppleWebKit/537.36 (KHTML, like Gecko) Chrome/135.0.0.0 Safari/537.36",Macintosh,Chrome,135.0.0.0,OS X,10_15_7,https://5puzkbbxv1.cognition.run/?sona_id=56780,"en-US,en;q=0.9",v3g361dbge6ehuf,21,"[""Asian""]",No,Male,NA,Yes,314434.2000000477,NA,null,<p></p>,null,choice,tc,binary,attraction,NA,microwave ovens,null,null,null,null,null,null,1,NA,NA,NA,NA,NA,NA,NA,NA,NA,NA
NA,NA,NA,NA,NA,choice_trial,survey-html-form,79,220882,0.0-4.0-1.37,272,1,2025-05-07T00:18:12Z,b60275e29fe2361ab97ac0ac217840d7,"Mozilla/5.0 (Macintosh; Intel Mac OS X 10_15_7) AppleWebKit/537.36 (KHTML, like Gecko) Chrome/135.0.0.0 Safari/537.36",Macintosh,Chrome,135.0.0.0,OS X,10_15_7,https://5puzkbbxv1.cognition.run/?sona_id=56780,"en-US,en;q=0.9",v3g361dbge6ehuf,21,"[""Asian""]",No,Male,NA,Yes,314434.2000000477,NA,2421,NA,"{""product_choice"":""A""}",choice,tc,binary,attraction,NA,microwave ovens,null,null,null,null,null,null,1,60,50,null,50,60,null,Warranty,Cooking power,NA,NA
NA,NA,NA,NA,NA,choice_trial_setup,html-keyboard-response,80,221186,0.0-4.0-0.38,272,1,2025-05-07T00:18:12Z,b60275e29fe2361ab97ac0ac217840d7,"Mozilla/5.0 (Macintosh; Intel Mac OS X 10_15_7) AppleWebKit/537.36 (KHTML, like Gecko) Chrome/135.0.0.0 Safari/537.36",Macintosh,Chrome,135.0.0.0,OS X,10_15_7,https://5puzkbbxv1.cognition.run/?sona_id=56780,"en-US,en;q=0.9",v3g361dbge6ehuf,21,"[""Asian""]",No,Male,NA,Yes,314434.2000000477,NA,null,<p></p>,null,choice,bw,binary,catch,null,microwave ovens,85,50,20,50,null,null,2,NA,NA,NA,NA,NA,NA,NA,NA,NA,NA
NA,NA,NA,NA,NA,choice_trial,survey-html-form,81,222398,0.0-4.0-1.38,272,1,2025-05-07T00:18:12Z,b60275e29fe2361ab97ac0ac217840d7,"Mozilla/5.0 (Macintosh; Intel Mac OS X 10_15_7) AppleWebKit/537.36 (KHTML, like Gecko) Chrome/135.0.0.0 Safari/537.36",Macintosh,Chrome,135.0.0.0,OS X,10_15_7,https://5puzkbbxv1.cognition.run/?sona_id=56780,"en-US,en;q=0.9",v3g361dbge6ehuf,21,"[""Asian""]",No,Male,NA,Yes,314434.2000000477,NA,1206,NA,"{""product_choice"":""A""}",choice,bw,binary,catch,null,microwave ovens,85,50,20,50,null,null,2,null,null,null,null,null,null,Warranty,Cooking power,NA,NA
NA,NA,NA,NA,NA,choice_trial_setup,html-keyboard-response,82,222703,0.0-4.0-0.39,272,1,2025-05-07T00:18:12Z,b60275e29fe2361ab97ac0ac217840d7,"Mozilla/5.0 (Macintosh; Intel Mac OS X 10_15_7) AppleWebKit/537.36 (KHTML, like Gecko) Chrome/135.0.0.0 Safari/537.36",Macintosh,Chrome,135.0.0.0,OS X,10_15_7,https://5puzkbbxv1.cognition.run/?sona_id=56780,"en-US,en;q=0.9",v3g361dbge6ehuf,21,"[""Asian""]",No,Male,NA,Yes,314434.2000000477,NA,null,<p></p>,null,choice,cdt,trinary,repulsion_B,2,laptops,null,null,null,null,null,null,1,NA,NA,NA,NA,NA,NA,NA,NA,NA,NA
NA,NA,NA,NA,NA,choice_trial,survey-html-form,83,225265,0.0-4.0-1.39,272,1,2025-05-07T00:18:12Z,b60275e29fe2361ab97ac0ac217840d7,"Mozilla/5.0 (Macintosh; Intel Mac OS X 10_15_7) AppleWebKit/537.36 (KHTML, like Gecko) Chrome/135.0.0.0 Safari/537.36",Macintosh,Chrome,135.0.0.0,OS X,10_15_7,https://5puzkbbxv1.cognition.run/?sona_id=56780,"en-US,en;q=0.9",v3g361dbge6ehuf,21,"[""Asian""]",No,Male,NA,Yes,314434.2000000477,NA,2555,NA,"{""product_choice"":""B""}",choice,cdt,trinary,repulsion_B,2,laptops,null,null,null,null,null,null,1,40,30,40,90,100,80,Processing speed,Memory (RAM),NA,NA
NA,NA,NA,NA,NA,choice_trial_setup,html-keyboard-response,84,225569,0.0-4.0-0.40,272,1,2025-05-07T00:18:12Z,b60275e29fe2361ab97ac0ac217840d7,"Mozilla/5.0 (Macintosh; Intel Mac OS X 10_15_7) AppleWebKit/537.36 (KHTML, like Gecko) Chrome/135.0.0.0 Safari/537.36",Macintosh,Chrome,135.0.0.0,OS X,10_15_7,https://5puzkbbxv1.cognition.run/?sona_id=56780,"en-US,en;q=0.9",v3g361dbge6ehuf,21,"[""Asian""]",No,Male,NA,Yes,314434.2000000477,NA,null,<p></p>,null,choice,tcd,trinary,repulsion_B,1,laptops,null,null,null,null,null,null,2,NA,NA,NA,NA,NA,NA,NA,NA,NA,NA
NA,NA,NA,NA,NA,choice_trial,survey-html-form,85,227466,0.0-4.0-1.40,272,1,2025-05-07T00:18:12Z,b60275e29fe2361ab97ac0ac217840d7,"Mozilla/5.0 (Macintosh; Intel Mac OS X 10_15_7) AppleWebKit/537.36 (KHTML, like Gecko) Chrome/135.0.0.0 Safari/537.36",Macintosh,Chrome,135.0.0.0,OS X,10_15_7,https://5puzkbbxv1.cognition.run/?sona_id=56780,"en-US,en;q=0.9",v3g361dbge6ehuf,21,"[""Asian""]",No,Male,NA,Yes,314434.2000000477,NA,1893,NA,"{""product_choice"":""B""}",choice,tcd,trinary,repulsion_B,1,laptops,null,null,null,null,null,null,2,90,100,80,40,30,40,Processing speed,Memory (RAM),NA,NA
NA,NA,NA,NA,NA,choice_trial_setup,html-keyboard-response,86,227771,0.0-4.0-0.41,272,1,2025-05-07T00:18:12Z,b60275e29fe2361ab97ac0ac217840d7,"Mozilla/5.0 (Macintosh; Intel Mac OS X 10_15_7) AppleWebKit/537.36 (KHTML, like Gecko) Chrome/135.0.0.0 Safari/537.36",Macintosh,Chrome,135.0.0.0,OS X,10_15_7,https://5puzkbbxv1.cognition.run/?sona_id=56780,"en-US,en;q=0.9",v3g361dbge6ehuf,21,"[""Asian""]",No,Male,NA,Yes,314434.2000000477,NA,null,<p></p>,null,choice,ct,binary,repulsion,2,washing machines,null,null,null,null,null,null,1,NA,NA,NA,NA,NA,NA,NA,NA,NA,NA
NA,NA,NA,NA,NA,choice_trial,survey-html-form,87,229549,0.0-4.0-1.41,272,1,2025-05-07T00:18:12Z,b60275e29fe2361ab97ac0ac217840d7,"Mozilla/5.0 (Macintosh; Intel Mac OS X 10_15_7) AppleWebKit/537.36 (KHTML, like Gecko) Chrome/135.0.0.0 Safari/537.36",Macintosh,Chrome,135.0.0.0,OS X,10_15_7,https://5puzkbbxv1.cognition.run/?sona_id=56780,"en-US,en;q=0.9",v3g361dbge6ehuf,21,"[""Asian""]",No,Male,NA,Yes,314434.2000000477,NA,1774,NA,"{""product_choice"":""B""}",choice,ct,binary,repulsion,2,washing machines,null,null,null,null,null,null,1,30,40,null,100,90,null,Average lifespan,Energy savings,NA,NA
NA,NA,NA,NA,NA,choice_trial_setup,html-keyboard-response,88,229855,0.0-4.0-0.42,272,1,2025-05-07T00:18:12Z,b60275e29fe2361ab97ac0ac217840d7,"Mozilla/5.0 (Macintosh; Intel Mac OS X 10_15_7) AppleWebKit/537.36 (KHTML, like Gecko) Chrome/135.0.0.0 Safari/537.36",Macintosh,Chrome,135.0.0.0,OS X,10_15_7,https://5puzkbbxv1.cognition.run/?sona_id=56780,"en-US,en;q=0.9",v3g361dbge6ehuf,21,"[""Asian""]",No,Male,NA,Yes,314434.2000000477,NA,null,<p></p>,null,choice,dct,trinary,repulsion_A,1,laptops,null,null,null,null,null,null,2,NA,NA,NA,NA,NA,NA,NA,NA,NA,NA
NA,NA,NA,NA,NA,choice_trial,survey-html-form,89,232649,0.0-4.0-1.42,272,1,2025-05-07T00:18:12Z,b60275e29fe2361ab97ac0ac217840d7,"Mozilla/5.0 (Macintosh; Intel Mac OS X 10_15_7) AppleWebKit/537.36 (KHTML, like Gecko) Chrome/135.0.0.0 Safari/537.36",Macintosh,Chrome,135.0.0.0,OS X,10_15_7,https://5puzkbbxv1.cognition.run/?sona_id=56780,"en-US,en;q=0.9",v3g361dbge6ehuf,21,"[""Asian""]",No,Male,NA,Yes,314434.2000000477,NA,2790,NA,"{""product_choice"":""B""}",choice,dct,trinary,repulsion_A,1,laptops,null,null,null,null,null,null,2,100,90,100,30,40,20,Processing speed,Memory (RAM),NA,NA
NA,NA,NA,NA,NA,choice_trial_setup,html-keyboard-response,90,232955,0.0-4.0-0.43,272,1,2025-05-07T00:18:12Z,b60275e29fe2361ab97ac0ac217840d7,"Mozilla/5.0 (Macintosh; Intel Mac OS X 10_15_7) AppleWebKit/537.36 (KHTML, like Gecko) Chrome/135.0.0.0 Safari/537.36",Macintosh,Chrome,135.0.0.0,OS X,10_15_7,https://5puzkbbxv1.cognition.run/?sona_id=56780,"en-US,en;q=0.9",v3g361dbge6ehuf,21,"[""Asian""]",No,Male,NA,Yes,314434.2000000477,NA,null,<p></p>,null,choice,ctd,trinary,repulsion_B,1,microwave ovens,null,null,null,null,null,null,1,NA,NA,NA,NA,NA,NA,NA,NA,NA,NA
NA,NA,NA,NA,NA,choice_trial,survey-html-form,91,234731,0.0-4.0-1.43,272,1,2025-05-07T00:18:12Z,b60275e29fe2361ab97ac0ac217840d7,"Mozilla/5.0 (Macintosh; Intel Mac OS X 10_15_7) AppleWebKit/537.36 (KHTML, like Gecko) Chrome/135.0.0.0 Safari/537.36",Macintosh,Chrome,135.0.0.0,OS X,10_15_7,https://5puzkbbxv1.cognition.run/?sona_id=56780,"en-US,en;q=0.9",v3g361dbge6ehuf,21,"[""Asian""]",No,Male,NA,Yes,314434.2000000477,NA,1770,NA,"{""product_choice"":""B""}",choice,ctd,trinary,repulsion_B,1,microwave ovens,null,null,null,null,null,null,1,90,100,80,40,30,40,Warranty,Cooking power,NA,NA
NA,NA,NA,NA,NA,post_trials_message,html-button-response,92,236915,0.0-5.0,272,1,2025-05-07T00:18:12Z,b60275e29fe2361ab97ac0ac217840d7,"Mozilla/5.0 (Macintosh; Intel Mac OS X 10_15_7) AppleWebKit/537.36 (KHTML, like Gecko) Chrome/135.0.0.0 Safari/537.36",Macintosh,Chrome,135.0.0.0,OS X,10_15_7,https://5puzkbbxv1.cognition.run/?sona_id=56780,"en-US,en;q=0.9",v3g361dbge6ehuf,21,"[""Asian""]",No,Male,NA,Yes,314434.2000000477,NA,2179,<p> <b>Thank you for your patience!</b></p><p>  The study will be done after completing a brief form. </p>,0,NA,NA,NA,NA,NA,NA,NA,NA,NA,NA,NA,NA,NA,NA,NA,NA,NA,NA,NA,NA,NA,NA,NA
NA,NA,NA,NA,NA,survey_message,survey-text,93,265349,0.0-6.0,272,1,2025-05-07T00:18:12Z,b60275e29fe2361ab97ac0ac217840d7,"Mozilla/5.0 (Macintosh; Intel Mac OS X 10_15_7) AppleWebKit/537.36 (KHTML, like Gecko) Chrome/135.0.0.0 Safari/537.36",Macintosh,Chrome,135.0.0.0,OS X,10_15_7,https://5puzkbbxv1.cognition.run/?sona_id=56780,"en-US,en;q=0.9",v3g361dbge6ehuf,21,"[""Asian""]",No,Male,NA,Yes,314434.2000000477,NA,28428,NA,"{""Q0"":""I tried to get a good balance of the traits.""}",NA,NA,NA,NA,NA,NA,NA,NA,NA,NA,NA,NA,NA,NA,NA,NA,NA,NA,NA,NA,NA,I tried to get a good balance of the traits.,NA
NA,NA,NA,NA,NA,demo_age,survey-text,94,267717,0.0-7.0,272,1,2025-05-07T00:18:12Z,b60275e29fe2361ab97ac0ac217840d7,"Mozilla/5.0 (Macintosh; Intel Mac OS X 10_15_7) AppleWebKit/537.36 (KHTML, like Gecko) Chrome/135.0.0.0 Safari/537.36",Macintosh,Chrome,135.0.0.0,OS X,10_15_7,https://5puzkbbxv1.cognition.run/?sona_id=56780,"en-US,en;q=0.9",v3g361dbge6ehuf,21,"[""Asian""]",No,Male,NA,Yes,314434.2000000477,NA,2361,NA,"{""Q0"":""21""}",NA,NA,NA,NA,NA,NA,NA,NA,NA,NA,NA,NA,NA,NA,NA,NA,NA,NA,NA,NA,NA,NA,NA
NA,NA,NA,NA,NA,demo_race,survey-multi-select,95,269500,0.0-8.0,272,1,2025-05-07T00:18:12Z,b60275e29fe2361ab97ac0ac217840d7,"Mozilla/5.0 (Macintosh; Intel Mac OS X 10_15_7) AppleWebKit/537.36 (KHTML, like Gecko) Chrome/135.0.0.0 Safari/537.36",Macintosh,Chrome,135.0.0.0,OS X,10_15_7,https://5puzkbbxv1.cognition.run/?sona_id=56780,"en-US,en;q=0.9",v3g361dbge6ehuf,21,"[""Asian""]",No,Male,NA,Yes,314434.2000000477,NA,1774,NA,"{""Q0"":[""Asian""]}",NA,NA,NA,NA,NA,NA,NA,NA,NA,NA,NA,NA,NA,NA,NA,NA,NA,NA,NA,NA,NA,NA,[0]
NA,NA,NA,NA,NA,demo_ethnicity_gender,survey-multi-choice,96,278866,0.0-9.0,272,1,2025-05-07T00:18:12Z,b60275e29fe2361ab97ac0ac217840d7,"Mozilla/5.0 (Macintosh; Intel Mac OS X 10_15_7) AppleWebKit/537.36 (KHTML, like Gecko) Chrome/135.0.0.0 Safari/537.36",Macintosh,Chrome,135.0.0.0,OS X,10_15_7,https://5puzkbbxv1.cognition.run/?sona_id=56780,"en-US,en;q=0.9",v3g361dbge6ehuf,21,"[""Asian""]",No,Male,NA,Yes,314434.2000000477,NA,9360,NA,"{""Q0"":""No"",""Q1"":""Male""}",NA,NA,NA,NA,NA,NA,NA,NA,NA,NA,NA,NA,NA,NA,NA,NA,NA,NA,NA,NA,NA,NA,"[0,1]"
NA,NA,NA,NA,NA,demo_countries,survey-text,97,289850,0.0-10.0,272,1,2025-05-07T00:18:12Z,b60275e29fe2361ab97ac0ac217840d7,"Mozilla/5.0 (Macintosh; Intel Mac OS X 10_15_7) AppleWebKit/537.36 (KHTML, like Gecko) Chrome/135.0.0.0 Safari/537.36",Macintosh,Chrome,135.0.0.0,OS X,10_15_7,https://5puzkbbxv1.cognition.run/?sona_id=56780,"en-US,en;q=0.9",v3g361dbge6ehuf,21,"[""Asian""]",No,Male,NA,Yes,314434.2000000477,NA,10967,NA,"{""Q0"":""NA""}",NA,NA,NA,NA,NA,NA,NA,NA,NA,NA,NA,NA,NA,NA,NA,NA,NA,NA,NA,NA,NA,NA,NA
NA,NA,NA,NA,NA,demo_prev_study,survey-multi-choice,98,295368,0.0-11.0,272,1,2025-05-07T00:18:12Z,b60275e29fe2361ab97ac0ac217840d7,"Mozilla/5.0 (Macintosh; Intel Mac OS X 10_15_7) AppleWebKit/537.36 (KHTML, like Gecko) Chrome/135.0.0.0 Safari/537.36",Macintosh,Chrome,135.0.0.0,OS X,10_15_7,https://5puzkbbxv1.cognition.run/?sona_id=56780,"en-US,en;q=0.9",v3g361dbge6ehuf,21,"[""Asian""]",No,Male,NA,Yes,314434.2000000477,NA,5512,NA,"{""Q0"":""Yes""}",NA,NA,NA,NA,NA,NA,NA,NA,NA,NA,NA,NA,NA,NA,NA,NA,NA,NA,NA,NA,NA,NA,[0]
NA,NA,NA,NA,NA,post_survey_message,html-keyboard-response,99,311690,0.0-12.0,272,1,2025-05-07T00:18:12Z,b60275e29fe2361ab97ac0ac217840d7,"Mozilla/5.0 (Macintosh; Intel Mac OS X 10_15_7) AppleWebKit/537.36 (KHTML, like Gecko) Chrome/135.0.0.0 Safari/537.36",Macintosh,Chrome,135.0.0.0,OS X,10_15_7,https://5puzkbbxv1.cognition.run/?sona_id=56780,"en-US,en;q=0.9",v3g361dbge6ehuf,21,"[""Asian""]",No,Male,NA,Yes,314434.2000000477,NA,16318,NA,j,NA,NA,NA,NA,NA,NA,NA,NA,NA,NA,NA,NA,NA,NA,NA,NA,NA,NA,NA,NA,NA,NA,NA
NA,NA,NA,NA,NA,debrief,image-keyboard-response,100,314421,0.0-13.0,272,1,2025-05-07T00:18:12Z,b60275e29fe2361ab97ac0ac217840d7,"Mozilla/5.0 (Macintosh; Intel Mac OS X 10_15_7) AppleWebKit/537.36 (KHTML, like Gecko) Chrome/135.0.0.0 Safari/537.36",Macintosh,Chrome,135.0.0.0,OS X,10_15_7,https://5puzkbbxv1.cognition.run/?sona_id=56780,"en-US,en;q=0.9",v3g361dbge6ehuf,21,"[""Asian""]",No,Male,NA,Yes,314434.2000000477,NA,2724,Judg_choice_debrief.png,p,NA,NA,NA,NA,NA,NA,NA,NA,NA,NA,NA,NA,NA,NA,NA,NA,NA,NA,NA,NA,NA,NA,NA
