success,timeout,failed_images,failed_audio,failed_video,screen_id,trial_type,trial_index,time_elapsed,internal_node_id,run_id,condition,recorded_at,source_code_version,user_agent,device,browser,browser_version,platform,platform_version,referer,accept_language,ppt_id,age,race,ethnicity,gender,other_countries,prev_study,exp_duration,view_history,rt,stimulus,response,phase,order,set,effect,t_high,category,d1_best,d2_best,d1_worst1,d2_worst1,d1_worst2,d2_worst2,first_dim,d1_t,d1_c,d1_d,d2_t,d2_c,d2_d,d1_name,d2_name,strategy_response,question_order
TRUE,FALSE,[],[],[],img preload,preload,0,492,0.0-0.0,274,1,2025-05-07T02:22:35Z,b60275e29fe2361ab97ac0ac217840d7,"Mozilla/5.0 (Macintosh; Intel Mac OS X 10_15_7) AppleWebKit/537.36 (KHTML, like Gecko) Chrome/136.0.0.0 Safari/537.36",Macintosh,Chrome,136.0.0.0,OS X,10_15_7,https://5puzkbbxv1.cognition.run/?sona_id=57652,"en-US,en;q=0.9",pbxcxtlny19m8ym,18,"[""Asian""]",No,Female,"NA
",No,521852.80000000075,NA,NA,NA,NA,NA,NA,NA,NA,NA,NA,NA,NA,NA,NA,NA,NA,NA,NA,NA,NA,NA,NA,NA,NA,NA,NA,NA
NA,NA,NA,NA,NA,computer_message,instructions,1,6247,0.0-1.0,274,1,2025-05-07T02:22:35Z,b60275e29fe2361ab97ac0ac217840d7,"Mozilla/5.0 (Macintosh; Intel Mac OS X 10_15_7) AppleWebKit/537.36 (KHTML, like Gecko) Chrome/136.0.0.0 Safari/537.36",Macintosh,Chrome,136.0.0.0,OS X,10_15_7,https://5puzkbbxv1.cognition.run/?sona_id=57652,"en-US,en;q=0.9",pbxcxtlny19m8ym,18,"[""Asian""]",No,Female,"NA
",No,521852.80000000075,"[{""page_index"":0,""viewing_time"":5754}]",5754,NA,NA,NA,NA,NA,NA,NA,NA,NA,NA,NA,NA,NA,NA,NA,NA,NA,NA,NA,NA,NA,NA,NA,NA,NA
TRUE,NA,NA,NA,NA,NA,fullscreen,2,8212,0.0-2.0,274,1,2025-05-07T02:22:35Z,b60275e29fe2361ab97ac0ac217840d7,"Mozilla/5.0 (Macintosh; Intel Mac OS X 10_15_7) AppleWebKit/537.36 (KHTML, like Gecko) Chrome/136.0.0.0 Safari/537.36",Macintosh,Chrome,136.0.0.0,OS X,10_15_7,https://5puzkbbxv1.cognition.run/?sona_id=57652,"en-US,en;q=0.9",pbxcxtlny19m8ym,18,"[""Asian""]",No,Female,"NA
",No,521852.80000000075,NA,962,NA,NA,NA,NA,NA,NA,NA,NA,NA,NA,NA,NA,NA,NA,NA,NA,NA,NA,NA,NA,NA,NA,NA,NA,NA
NA,NA,NA,NA,NA,choice_instructions,instructions,3,26439,0.0-3.0,274,1,2025-05-07T02:22:35Z,b60275e29fe2361ab97ac0ac217840d7,"Mozilla/5.0 (Macintosh; Intel Mac OS X 10_15_7) AppleWebKit/537.36 (KHTML, like Gecko) Chrome/136.0.0.0 Safari/537.36",Macintosh,Chrome,136.0.0.0,OS X,10_15_7,https://5puzkbbxv1.cognition.run/?sona_id=57652,"en-US,en;q=0.9",pbxcxtlny19m8ym,18,"[""Asian""]",No,Female,"NA
",No,521852.80000000075,"[{""page_index"":0,""viewing_time"":1073},{""page_index"":1,""viewing_time"":2369},{""page_index"":2,""viewing_time"":1291},{""page_index"":3,""viewing_time"":1845},{""page_index"":4,""viewing_time"":1091},{""page_index"":5,""viewing_time"":8510},{""page_index"":6,""viewing_time"":2049}]",18227,NA,NA,NA,NA,NA,NA,NA,NA,NA,NA,NA,NA,NA,NA,NA,NA,NA,NA,NA,NA,NA,NA,NA,NA,NA
NA,NA,NA,NA,NA,choice_trial_setup,html-keyboard-response,4,26742,0.0-4.0-0.0,274,1,2025-05-07T02:22:35Z,b60275e29fe2361ab97ac0ac217840d7,"Mozilla/5.0 (Macintosh; Intel Mac OS X 10_15_7) AppleWebKit/537.36 (KHTML, like Gecko) Chrome/136.0.0.0 Safari/537.36",Macintosh,Chrome,136.0.0.0,OS X,10_15_7,https://5puzkbbxv1.cognition.run/?sona_id=57652,"en-US,en;q=0.9",pbxcxtlny19m8ym,18,"[""Asian""]",No,Female,"NA
",No,521852.80000000075,NA,null,<p></p>,null,choice,tdc,trinary,repulsion_A,1,microwave ovens,null,null,null,null,null,null,1,NA,NA,NA,NA,NA,NA,NA,NA,NA,NA
NA,NA,NA,NA,NA,choice_trial,survey-html-form,5,45718,0.0-4.0-1.0,274,1,2025-05-07T02:22:35Z,b60275e29fe2361ab97ac0ac217840d7,"Mozilla/5.0 (Macintosh; Intel Mac OS X 10_15_7) AppleWebKit/537.36 (KHTML, like Gecko) Chrome/136.0.0.0 Safari/537.36",Macintosh,Chrome,136.0.0.0,OS X,10_15_7,https://5puzkbbxv1.cognition.run/?sona_id=57652,"en-US,en;q=0.9",pbxcxtlny19m8ym,18,"[""Asian""]",No,Female,"NA
",No,521852.80000000075,NA,18973,NA,"{""product_choice"":""C""}",choice,tdc,trinary,repulsion_A,1,microwave ovens,null,null,null,null,null,null,1,100,90,100,30,40,20,Warranty,Cooking power,NA,NA
NA,NA,NA,NA,NA,choice_trial_setup,html-keyboard-response,6,46020,0.0-4.0-0.1,274,1,2025-05-07T02:22:35Z,b60275e29fe2361ab97ac0ac217840d7,"Mozilla/5.0 (Macintosh; Intel Mac OS X 10_15_7) AppleWebKit/537.36 (KHTML, like Gecko) Chrome/136.0.0.0 Safari/537.36",Macintosh,Chrome,136.0.0.0,OS X,10_15_7,https://5puzkbbxv1.cognition.run/?sona_id=57652,"en-US,en;q=0.9",pbxcxtlny19m8ym,18,"[""Asian""]",No,Female,"NA
",No,521852.80000000075,NA,null,<p></p>,null,choice,ct,binary,attraction,NA,microwave ovens,null,null,null,null,null,null,2,NA,NA,NA,NA,NA,NA,NA,NA,NA,NA
NA,NA,NA,NA,NA,choice_trial,survey-html-form,7,61636,0.0-4.0-1.1,274,1,2025-05-07T02:22:35Z,b60275e29fe2361ab97ac0ac217840d7,"Mozilla/5.0 (Macintosh; Intel Mac OS X 10_15_7) AppleWebKit/537.36 (KHTML, like Gecko) Chrome/136.0.0.0 Safari/537.36",Macintosh,Chrome,136.0.0.0,OS X,10_15_7,https://5puzkbbxv1.cognition.run/?sona_id=57652,"en-US,en;q=0.9",pbxcxtlny19m8ym,18,"[""Asian""]",No,Female,"NA
",No,521852.80000000075,NA,15614,NA,"{""product_choice"":""B""}",choice,ct,binary,attraction,NA,microwave ovens,null,null,null,null,null,null,2,60,50,null,50,60,null,Warranty,Cooking power,NA,NA
NA,NA,NA,NA,NA,choice_trial_setup,html-keyboard-response,8,61939,0.0-4.0-0.2,274,1,2025-05-07T02:22:35Z,b60275e29fe2361ab97ac0ac217840d7,"Mozilla/5.0 (Macintosh; Intel Mac OS X 10_15_7) AppleWebKit/537.36 (KHTML, like Gecko) Chrome/136.0.0.0 Safari/537.36",Macintosh,Chrome,136.0.0.0,OS X,10_15_7,https://5puzkbbxv1.cognition.run/?sona_id=57652,"en-US,en;q=0.9",pbxcxtlny19m8ym,18,"[""Asian""]",No,Female,"NA
",No,521852.80000000075,NA,null,<p></p>,null,choice,wb,binary,catch,null,laptops,95,70,5,45,null,null,1,NA,NA,NA,NA,NA,NA,NA,NA,NA,NA
NA,NA,NA,NA,NA,choice_trial,survey-html-form,9,71995,0.0-4.0-1.2,274,1,2025-05-07T02:22:35Z,b60275e29fe2361ab97ac0ac217840d7,"Mozilla/5.0 (Macintosh; Intel Mac OS X 10_15_7) AppleWebKit/537.36 (KHTML, like Gecko) Chrome/136.0.0.0 Safari/537.36",Macintosh,Chrome,136.0.0.0,OS X,10_15_7,https://5puzkbbxv1.cognition.run/?sona_id=57652,"en-US,en;q=0.9",pbxcxtlny19m8ym,18,"[""Asian""]",No,Female,"NA
",No,521852.80000000075,NA,10054,NA,"{""product_choice"":""B""}",choice,wb,binary,catch,null,laptops,95,70,5,45,null,null,1,null,null,null,null,null,null,Processing speed,Memory (RAM),NA,NA
NA,NA,NA,NA,NA,choice_trial_setup,html-keyboard-response,10,72297,0.0-4.0-0.3,274,1,2025-05-07T02:22:35Z,b60275e29fe2361ab97ac0ac217840d7,"Mozilla/5.0 (Macintosh; Intel Mac OS X 10_15_7) AppleWebKit/537.36 (KHTML, like Gecko) Chrome/136.0.0.0 Safari/537.36",Macintosh,Chrome,136.0.0.0,OS X,10_15_7,https://5puzkbbxv1.cognition.run/?sona_id=57652,"en-US,en;q=0.9",pbxcxtlny19m8ym,18,"[""Asian""]",No,Female,"NA
",No,521852.80000000075,NA,null,<p></p>,null,choice,ct,binary,repulsion,1,laptops,null,null,null,null,null,null,1,NA,NA,NA,NA,NA,NA,NA,NA,NA,NA
NA,NA,NA,NA,NA,choice_trial,survey-html-form,11,82976,0.0-4.0-1.3,274,1,2025-05-07T02:22:35Z,b60275e29fe2361ab97ac0ac217840d7,"Mozilla/5.0 (Macintosh; Intel Mac OS X 10_15_7) AppleWebKit/537.36 (KHTML, like Gecko) Chrome/136.0.0.0 Safari/537.36",Macintosh,Chrome,136.0.0.0,OS X,10_15_7,https://5puzkbbxv1.cognition.run/?sona_id=57652,"en-US,en;q=0.9",pbxcxtlny19m8ym,18,"[""Asian""]",No,Female,"NA
",No,521852.80000000075,NA,10677,NA,"{""product_choice"":""A""}",choice,ct,binary,repulsion,1,laptops,null,null,null,null,null,null,1,100,90,null,30,40,null,Processing speed,Memory (RAM),NA,NA
NA,NA,NA,NA,NA,choice_trial_setup,html-keyboard-response,12,83278,0.0-4.0-0.4,274,1,2025-05-07T02:22:35Z,b60275e29fe2361ab97ac0ac217840d7,"Mozilla/5.0 (Macintosh; Intel Mac OS X 10_15_7) AppleWebKit/537.36 (KHTML, like Gecko) Chrome/136.0.0.0 Safari/537.36",Macintosh,Chrome,136.0.0.0,OS X,10_15_7,https://5puzkbbxv1.cognition.run/?sona_id=57652,"en-US,en;q=0.9",pbxcxtlny19m8ym,18,"[""Asian""]",No,Female,"NA
",No,521852.80000000075,NA,null,<p></p>,null,choice,tdc,trinary,repulsion_B,2,washing machines,null,null,null,null,null,null,1,NA,NA,NA,NA,NA,NA,NA,NA,NA,NA
NA,NA,NA,NA,NA,choice_trial,survey-html-form,13,94785,0.0-4.0-1.4,274,1,2025-05-07T02:22:35Z,b60275e29fe2361ab97ac0ac217840d7,"Mozilla/5.0 (Macintosh; Intel Mac OS X 10_15_7) AppleWebKit/537.36 (KHTML, like Gecko) Chrome/136.0.0.0 Safari/537.36",Macintosh,Chrome,136.0.0.0,OS X,10_15_7,https://5puzkbbxv1.cognition.run/?sona_id=57652,"en-US,en;q=0.9",pbxcxtlny19m8ym,18,"[""Asian""]",No,Female,"NA
",No,521852.80000000075,NA,11505,NA,"{""product_choice"":""A""}",choice,tdc,trinary,repulsion_B,2,washing machines,null,null,null,null,null,null,1,40,30,40,90,100,80,Average lifespan,Energy savings,NA,NA
NA,NA,NA,NA,NA,choice_trial_setup,html-keyboard-response,14,95087,0.0-4.0-0.5,274,1,2025-05-07T02:22:35Z,b60275e29fe2361ab97ac0ac217840d7,"Mozilla/5.0 (Macintosh; Intel Mac OS X 10_15_7) AppleWebKit/537.36 (KHTML, like Gecko) Chrome/136.0.0.0 Safari/537.36",Macintosh,Chrome,136.0.0.0,OS X,10_15_7,https://5puzkbbxv1.cognition.run/?sona_id=57652,"en-US,en;q=0.9",pbxcxtlny19m8ym,18,"[""Asian""]",No,Female,"NA
",No,521852.80000000075,NA,null,<p></p>,null,choice,tc,binary,attraction,NA,televisions,null,null,null,null,null,null,2,NA,NA,NA,NA,NA,NA,NA,NA,NA,NA
NA,NA,NA,NA,NA,choice_trial,survey-html-form,15,105169,0.0-4.0-1.5,274,1,2025-05-07T02:22:35Z,b60275e29fe2361ab97ac0ac217840d7,"Mozilla/5.0 (Macintosh; Intel Mac OS X 10_15_7) AppleWebKit/537.36 (KHTML, like Gecko) Chrome/136.0.0.0 Safari/537.36",Macintosh,Chrome,136.0.0.0,OS X,10_15_7,https://5puzkbbxv1.cognition.run/?sona_id=57652,"en-US,en;q=0.9",pbxcxtlny19m8ym,18,"[""Asian""]",No,Female,"NA
",No,521852.80000000075,NA,10080,NA,"{""product_choice"":""B""}",choice,tc,binary,attraction,NA,televisions,null,null,null,null,null,null,2,60,50,null,50,60,null,Screen size,Average lifespan,NA,NA
NA,NA,NA,NA,NA,choice_trial_setup,html-keyboard-response,16,105471,0.0-4.0-0.6,274,1,2025-05-07T02:22:35Z,b60275e29fe2361ab97ac0ac217840d7,"Mozilla/5.0 (Macintosh; Intel Mac OS X 10_15_7) AppleWebKit/537.36 (KHTML, like Gecko) Chrome/136.0.0.0 Safari/537.36",Macintosh,Chrome,136.0.0.0,OS X,10_15_7,https://5puzkbbxv1.cognition.run/?sona_id=57652,"en-US,en;q=0.9",pbxcxtlny19m8ym,18,"[""Asian""]",No,Female,"NA
",No,521852.80000000075,NA,null,<p></p>,null,choice,dtc,trinary,repulsion_A,2,laptops,null,null,null,null,null,null,2,NA,NA,NA,NA,NA,NA,NA,NA,NA,NA
NA,NA,NA,NA,NA,choice_trial,survey-html-form,17,114330,0.0-4.0-1.6,274,1,2025-05-07T02:22:35Z,b60275e29fe2361ab97ac0ac217840d7,"Mozilla/5.0 (Macintosh; Intel Mac OS X 10_15_7) AppleWebKit/537.36 (KHTML, like Gecko) Chrome/136.0.0.0 Safari/537.36",Macintosh,Chrome,136.0.0.0,OS X,10_15_7,https://5puzkbbxv1.cognition.run/?sona_id=57652,"en-US,en;q=0.9",pbxcxtlny19m8ym,18,"[""Asian""]",No,Female,"NA
",No,521852.80000000075,NA,8858,NA,"{""product_choice"":""C""}",choice,dtc,trinary,repulsion_A,2,laptops,null,null,null,null,null,null,2,30,40,20,100,90,100,Processing speed,Memory (RAM),NA,NA
NA,NA,NA,NA,NA,choice_trial_setup,html-keyboard-response,18,114632,0.0-4.0-0.7,274,1,2025-05-07T02:22:35Z,b60275e29fe2361ab97ac0ac217840d7,"Mozilla/5.0 (Macintosh; Intel Mac OS X 10_15_7) AppleWebKit/537.36 (KHTML, like Gecko) Chrome/136.0.0.0 Safari/537.36",Macintosh,Chrome,136.0.0.0,OS X,10_15_7,https://5puzkbbxv1.cognition.run/?sona_id=57652,"en-US,en;q=0.9",pbxcxtlny19m8ym,18,"[""Asian""]",No,Female,"NA
",No,521852.80000000075,NA,null,<p></p>,null,choice,wbw,trinary,catch,null,microwave ovens,55,85,5,10,50,5,1,NA,NA,NA,NA,NA,NA,NA,NA,NA,NA
NA,NA,NA,NA,NA,choice_trial,survey-html-form,19,122529,0.0-4.0-1.7,274,1,2025-05-07T02:22:35Z,b60275e29fe2361ab97ac0ac217840d7,"Mozilla/5.0 (Macintosh; Intel Mac OS X 10_15_7) AppleWebKit/537.36 (KHTML, like Gecko) Chrome/136.0.0.0 Safari/537.36",Macintosh,Chrome,136.0.0.0,OS X,10_15_7,https://5puzkbbxv1.cognition.run/?sona_id=57652,"en-US,en;q=0.9",pbxcxtlny19m8ym,18,"[""Asian""]",No,Female,"NA
",No,521852.80000000075,NA,7895,NA,"{""product_choice"":""B""}",choice,wbw,trinary,catch,null,microwave ovens,55,85,5,10,50,5,1,null,null,null,null,null,null,Warranty,Cooking power,NA,NA
NA,NA,NA,NA,NA,choice_trial_setup,html-keyboard-response,20,122831,0.0-4.0-0.8,274,1,2025-05-07T02:22:35Z,b60275e29fe2361ab97ac0ac217840d7,"Mozilla/5.0 (Macintosh; Intel Mac OS X 10_15_7) AppleWebKit/537.36 (KHTML, like Gecko) Chrome/136.0.0.0 Safari/537.36",Macintosh,Chrome,136.0.0.0,OS X,10_15_7,https://5puzkbbxv1.cognition.run/?sona_id=57652,"en-US,en;q=0.9",pbxcxtlny19m8ym,18,"[""Asian""]",No,Female,"NA
",No,521852.80000000075,NA,null,<p></p>,null,choice,tc,binary,attraction,NA,laptops,null,null,null,null,null,null,1,NA,NA,NA,NA,NA,NA,NA,NA,NA,NA
NA,NA,NA,NA,NA,choice_trial,survey-html-form,21,131626,0.0-4.0-1.8,274,1,2025-05-07T02:22:35Z,b60275e29fe2361ab97ac0ac217840d7,"Mozilla/5.0 (Macintosh; Intel Mac OS X 10_15_7) AppleWebKit/537.36 (KHTML, like Gecko) Chrome/136.0.0.0 Safari/537.36",Macintosh,Chrome,136.0.0.0,OS X,10_15_7,https://5puzkbbxv1.cognition.run/?sona_id=57652,"en-US,en;q=0.9",pbxcxtlny19m8ym,18,"[""Asian""]",No,Female,"NA
",No,521852.80000000075,NA,8792,NA,"{""product_choice"":""A""}",choice,tc,binary,attraction,NA,laptops,null,null,null,null,null,null,1,60,50,null,50,60,null,Processing speed,Memory (RAM),NA,NA
NA,NA,NA,NA,NA,choice_trial_setup,html-keyboard-response,22,131927,0.0-4.0-0.9,274,1,2025-05-07T02:22:35Z,b60275e29fe2361ab97ac0ac217840d7,"Mozilla/5.0 (Macintosh; Intel Mac OS X 10_15_7) AppleWebKit/537.36 (KHTML, like Gecko) Chrome/136.0.0.0 Safari/537.36",Macintosh,Chrome,136.0.0.0,OS X,10_15_7,https://5puzkbbxv1.cognition.run/?sona_id=57652,"en-US,en;q=0.9",pbxcxtlny19m8ym,18,"[""Asian""]",No,Female,"NA
",No,521852.80000000075,NA,null,<p></p>,null,choice,ct,binary,attraction,NA,washing machines,null,null,null,null,null,null,1,NA,NA,NA,NA,NA,NA,NA,NA,NA,NA
NA,NA,NA,NA,NA,choice_trial,survey-html-form,23,149656,0.0-4.0-1.9,274,1,2025-05-07T02:22:35Z,b60275e29fe2361ab97ac0ac217840d7,"Mozilla/5.0 (Macintosh; Intel Mac OS X 10_15_7) AppleWebKit/537.36 (KHTML, like Gecko) Chrome/136.0.0.0 Safari/537.36",Macintosh,Chrome,136.0.0.0,OS X,10_15_7,https://5puzkbbxv1.cognition.run/?sona_id=57652,"en-US,en;q=0.9",pbxcxtlny19m8ym,18,"[""Asian""]",No,Female,"NA
",No,521852.80000000075,NA,17727,NA,"{""product_choice"":""A""}",choice,ct,binary,attraction,NA,washing machines,null,null,null,null,null,null,1,60,50,null,50,60,null,Average lifespan,Energy savings,NA,NA
NA,NA,NA,NA,NA,choice_trial_setup,html-keyboard-response,24,149959,0.0-4.0-0.10,274,1,2025-05-07T02:22:35Z,b60275e29fe2361ab97ac0ac217840d7,"Mozilla/5.0 (Macintosh; Intel Mac OS X 10_15_7) AppleWebKit/537.36 (KHTML, like Gecko) Chrome/136.0.0.0 Safari/537.36",Macintosh,Chrome,136.0.0.0,OS X,10_15_7,https://5puzkbbxv1.cognition.run/?sona_id=57652,"en-US,en;q=0.9",pbxcxtlny19m8ym,18,"[""Asian""]",No,Female,"NA
",No,521852.80000000075,NA,null,<p></p>,null,choice,dct,trinary,repulsion_B,2,microwave ovens,null,null,null,null,null,null,1,NA,NA,NA,NA,NA,NA,NA,NA,NA,NA
NA,NA,NA,NA,NA,choice_trial,survey-html-form,25,165973,0.0-4.0-1.10,274,1,2025-05-07T02:22:35Z,b60275e29fe2361ab97ac0ac217840d7,"Mozilla/5.0 (Macintosh; Intel Mac OS X 10_15_7) AppleWebKit/537.36 (KHTML, like Gecko) Chrome/136.0.0.0 Safari/537.36",Macintosh,Chrome,136.0.0.0,OS X,10_15_7,https://5puzkbbxv1.cognition.run/?sona_id=57652,"en-US,en;q=0.9",pbxcxtlny19m8ym,18,"[""Asian""]",No,Female,"NA
",No,521852.80000000075,NA,16010,NA,"{""product_choice"":""C""}",choice,dct,trinary,repulsion_B,2,microwave ovens,null,null,null,null,null,null,1,40,30,40,90,100,80,Warranty,Cooking power,NA,NA
NA,NA,NA,NA,NA,choice_trial_setup,html-keyboard-response,26,166275,0.0-4.0-0.11,274,1,2025-05-07T02:22:35Z,b60275e29fe2361ab97ac0ac217840d7,"Mozilla/5.0 (Macintosh; Intel Mac OS X 10_15_7) AppleWebKit/537.36 (KHTML, like Gecko) Chrome/136.0.0.0 Safari/537.36",Macintosh,Chrome,136.0.0.0,OS X,10_15_7,https://5puzkbbxv1.cognition.run/?sona_id=57652,"en-US,en;q=0.9",pbxcxtlny19m8ym,18,"[""Asian""]",No,Female,"NA
",No,521852.80000000075,NA,null,<p></p>,null,choice,ctd,trinary,attraction,2,washing machines,null,null,null,null,null,null,1,NA,NA,NA,NA,NA,NA,NA,NA,NA,NA
NA,NA,NA,NA,NA,choice_trial,survey-html-form,27,185813,0.0-4.0-1.11,274,1,2025-05-07T02:22:35Z,b60275e29fe2361ab97ac0ac217840d7,"Mozilla/5.0 (Macintosh; Intel Mac OS X 10_15_7) AppleWebKit/537.36 (KHTML, like Gecko) Chrome/136.0.0.0 Safari/537.36",Macintosh,Chrome,136.0.0.0,OS X,10_15_7,https://5puzkbbxv1.cognition.run/?sona_id=57652,"en-US,en;q=0.9",pbxcxtlny19m8ym,18,"[""Asian""]",No,Female,"NA
",No,521852.80000000075,NA,19535,NA,"{""product_choice"":""A""}",choice,ctd,trinary,attraction,2,washing machines,null,null,null,null,null,null,1,50,60,40,60,50,60,Average lifespan,Energy savings,NA,NA
NA,NA,NA,NA,NA,choice_trial_setup,html-keyboard-response,28,186116,0.0-4.0-0.12,274,1,2025-05-07T02:22:35Z,b60275e29fe2361ab97ac0ac217840d7,"Mozilla/5.0 (Macintosh; Intel Mac OS X 10_15_7) AppleWebKit/537.36 (KHTML, like Gecko) Chrome/136.0.0.0 Safari/537.36",Macintosh,Chrome,136.0.0.0,OS X,10_15_7,https://5puzkbbxv1.cognition.run/?sona_id=57652,"en-US,en;q=0.9",pbxcxtlny19m8ym,18,"[""Asian""]",No,Female,"NA
",No,521852.80000000075,NA,null,<p></p>,null,choice,dct,trinary,repulsion_B,2,laptops,null,null,null,null,null,null,2,NA,NA,NA,NA,NA,NA,NA,NA,NA,NA
NA,NA,NA,NA,NA,choice_trial,survey-html-form,29,193453,0.0-4.0-1.12,274,1,2025-05-07T02:22:35Z,b60275e29fe2361ab97ac0ac217840d7,"Mozilla/5.0 (Macintosh; Intel Mac OS X 10_15_7) AppleWebKit/537.36 (KHTML, like Gecko) Chrome/136.0.0.0 Safari/537.36",Macintosh,Chrome,136.0.0.0,OS X,10_15_7,https://5puzkbbxv1.cognition.run/?sona_id=57652,"en-US,en;q=0.9",pbxcxtlny19m8ym,18,"[""Asian""]",No,Female,"NA
",No,521852.80000000075,NA,7335,NA,"{""product_choice"":""C""}",choice,dct,trinary,repulsion_B,2,laptops,null,null,null,null,null,null,2,40,30,40,90,100,80,Processing speed,Memory (RAM),NA,NA
NA,NA,NA,NA,NA,choice_trial_setup,html-keyboard-response,30,193756,0.0-4.0-0.13,274,1,2025-05-07T02:22:35Z,b60275e29fe2361ab97ac0ac217840d7,"Mozilla/5.0 (Macintosh; Intel Mac OS X 10_15_7) AppleWebKit/537.36 (KHTML, like Gecko) Chrome/136.0.0.0 Safari/537.36",Macintosh,Chrome,136.0.0.0,OS X,10_15_7,https://5puzkbbxv1.cognition.run/?sona_id=57652,"en-US,en;q=0.9",pbxcxtlny19m8ym,18,"[""Asian""]",No,Female,"NA
",No,521852.80000000075,NA,null,<p></p>,null,choice,tc,binary,repulsion,1,televisions,null,null,null,null,null,null,2,NA,NA,NA,NA,NA,NA,NA,NA,NA,NA
NA,NA,NA,NA,NA,choice_trial,survey-html-form,31,200535,0.0-4.0-1.13,274,1,2025-05-07T02:22:35Z,b60275e29fe2361ab97ac0ac217840d7,"Mozilla/5.0 (Macintosh; Intel Mac OS X 10_15_7) AppleWebKit/537.36 (KHTML, like Gecko) Chrome/136.0.0.0 Safari/537.36",Macintosh,Chrome,136.0.0.0,OS X,10_15_7,https://5puzkbbxv1.cognition.run/?sona_id=57652,"en-US,en;q=0.9",pbxcxtlny19m8ym,18,"[""Asian""]",No,Female,"NA
",No,521852.80000000075,NA,6776,NA,"{""product_choice"":""B""}",choice,tc,binary,repulsion,1,televisions,null,null,null,null,null,null,2,100,90,null,30,40,null,Screen size,Average lifespan,NA,NA
NA,NA,NA,NA,NA,choice_trial_setup,html-keyboard-response,32,200838,0.0-4.0-0.14,274,1,2025-05-07T02:22:35Z,b60275e29fe2361ab97ac0ac217840d7,"Mozilla/5.0 (Macintosh; Intel Mac OS X 10_15_7) AppleWebKit/537.36 (KHTML, like Gecko) Chrome/136.0.0.0 Safari/537.36",Macintosh,Chrome,136.0.0.0,OS X,10_15_7,https://5puzkbbxv1.cognition.run/?sona_id=57652,"en-US,en;q=0.9",pbxcxtlny19m8ym,18,"[""Asian""]",No,Female,"NA
",No,521852.80000000075,NA,null,<p></p>,null,choice,ctd,trinary,attraction,1,microwave ovens,null,null,null,null,null,null,2,NA,NA,NA,NA,NA,NA,NA,NA,NA,NA
NA,NA,NA,NA,NA,choice_trial,survey-html-form,33,211459,0.0-4.0-1.14,274,1,2025-05-07T02:22:35Z,b60275e29fe2361ab97ac0ac217840d7,"Mozilla/5.0 (Macintosh; Intel Mac OS X 10_15_7) AppleWebKit/537.36 (KHTML, like Gecko) Chrome/136.0.0.0 Safari/537.36",Macintosh,Chrome,136.0.0.0,OS X,10_15_7,https://5puzkbbxv1.cognition.run/?sona_id=57652,"en-US,en;q=0.9",pbxcxtlny19m8ym,18,"[""Asian""]",No,Female,"NA
",No,521852.80000000075,NA,10618,NA,"{""product_choice"":""A""}",choice,ctd,trinary,attraction,1,microwave ovens,null,null,null,null,null,null,2,60,50,60,50,60,40,Warranty,Cooking power,NA,NA
NA,NA,NA,NA,NA,choice_trial_setup,html-keyboard-response,34,211762,0.0-4.0-0.15,274,1,2025-05-07T02:22:35Z,b60275e29fe2361ab97ac0ac217840d7,"Mozilla/5.0 (Macintosh; Intel Mac OS X 10_15_7) AppleWebKit/537.36 (KHTML, like Gecko) Chrome/136.0.0.0 Safari/537.36",Macintosh,Chrome,136.0.0.0,OS X,10_15_7,https://5puzkbbxv1.cognition.run/?sona_id=57652,"en-US,en;q=0.9",pbxcxtlny19m8ym,18,"[""Asian""]",No,Female,"NA
",No,521852.80000000075,NA,null,<p></p>,null,choice,dtc,trinary,attraction,1,televisions,null,null,null,null,null,null,2,NA,NA,NA,NA,NA,NA,NA,NA,NA,NA
NA,NA,NA,NA,NA,choice_trial,survey-html-form,35,220202,0.0-4.0-1.15,274,1,2025-05-07T02:22:35Z,b60275e29fe2361ab97ac0ac217840d7,"Mozilla/5.0 (Macintosh; Intel Mac OS X 10_15_7) AppleWebKit/537.36 (KHTML, like Gecko) Chrome/136.0.0.0 Safari/537.36",Macintosh,Chrome,136.0.0.0,OS X,10_15_7,https://5puzkbbxv1.cognition.run/?sona_id=57652,"en-US,en;q=0.9",pbxcxtlny19m8ym,18,"[""Asian""]",No,Female,"NA
",No,521852.80000000075,NA,8438,NA,"{""product_choice"":""C""}",choice,dtc,trinary,attraction,1,televisions,null,null,null,null,null,null,2,60,50,60,50,60,40,Screen size,Average lifespan,NA,NA
NA,NA,NA,NA,NA,choice_trial_setup,html-keyboard-response,36,220505,0.0-4.0-0.16,274,1,2025-05-07T02:22:35Z,b60275e29fe2361ab97ac0ac217840d7,"Mozilla/5.0 (Macintosh; Intel Mac OS X 10_15_7) AppleWebKit/537.36 (KHTML, like Gecko) Chrome/136.0.0.0 Safari/537.36",Macintosh,Chrome,136.0.0.0,OS X,10_15_7,https://5puzkbbxv1.cognition.run/?sona_id=57652,"en-US,en;q=0.9",pbxcxtlny19m8ym,18,"[""Asian""]",No,Female,"NA
",No,521852.80000000075,NA,null,<p></p>,null,choice,wbw,trinary,catch,null,televisions,90,85,45,40,35,45,1,NA,NA,NA,NA,NA,NA,NA,NA,NA,NA
NA,NA,NA,NA,NA,choice_trial,survey-html-form,37,229942,0.0-4.0-1.16,274,1,2025-05-07T02:22:35Z,b60275e29fe2361ab97ac0ac217840d7,"Mozilla/5.0 (Macintosh; Intel Mac OS X 10_15_7) AppleWebKit/537.36 (KHTML, like Gecko) Chrome/136.0.0.0 Safari/537.36",Macintosh,Chrome,136.0.0.0,OS X,10_15_7,https://5puzkbbxv1.cognition.run/?sona_id=57652,"en-US,en;q=0.9",pbxcxtlny19m8ym,18,"[""Asian""]",No,Female,"NA
",No,521852.80000000075,NA,9434,NA,"{""product_choice"":""B""}",choice,wbw,trinary,catch,null,televisions,90,85,45,40,35,45,1,null,null,null,null,null,null,Screen size,Average lifespan,NA,NA
NA,NA,NA,NA,NA,choice_trial_setup,html-keyboard-response,38,230245,0.0-4.0-0.17,274,1,2025-05-07T02:22:35Z,b60275e29fe2361ab97ac0ac217840d7,"Mozilla/5.0 (Macintosh; Intel Mac OS X 10_15_7) AppleWebKit/537.36 (KHTML, like Gecko) Chrome/136.0.0.0 Safari/537.36",Macintosh,Chrome,136.0.0.0,OS X,10_15_7,https://5puzkbbxv1.cognition.run/?sona_id=57652,"en-US,en;q=0.9",pbxcxtlny19m8ym,18,"[""Asian""]",No,Female,"NA
",No,521852.80000000075,NA,null,<p></p>,null,choice,tcd,trinary,attraction,2,microwave ovens,null,null,null,null,null,null,2,NA,NA,NA,NA,NA,NA,NA,NA,NA,NA
NA,NA,NA,NA,NA,choice_trial,survey-html-form,39,239080,0.0-4.0-1.17,274,1,2025-05-07T02:22:35Z,b60275e29fe2361ab97ac0ac217840d7,"Mozilla/5.0 (Macintosh; Intel Mac OS X 10_15_7) AppleWebKit/537.36 (KHTML, like Gecko) Chrome/136.0.0.0 Safari/537.36",Macintosh,Chrome,136.0.0.0,OS X,10_15_7,https://5puzkbbxv1.cognition.run/?sona_id=57652,"en-US,en;q=0.9",pbxcxtlny19m8ym,18,"[""Asian""]",No,Female,"NA
",No,521852.80000000075,NA,8833,NA,"{""product_choice"":""A""}",choice,tcd,trinary,attraction,2,microwave ovens,null,null,null,null,null,null,2,50,60,40,60,50,60,Warranty,Cooking power,NA,NA
NA,NA,NA,NA,NA,choice_trial_setup,html-keyboard-response,40,239383,0.0-4.0-0.18,274,1,2025-05-07T02:22:35Z,b60275e29fe2361ab97ac0ac217840d7,"Mozilla/5.0 (Macintosh; Intel Mac OS X 10_15_7) AppleWebKit/537.36 (KHTML, like Gecko) Chrome/136.0.0.0 Safari/537.36",Macintosh,Chrome,136.0.0.0,OS X,10_15_7,https://5puzkbbxv1.cognition.run/?sona_id=57652,"en-US,en;q=0.9",pbxcxtlny19m8ym,18,"[""Asian""]",No,Female,"NA
",No,521852.80000000075,NA,null,<p></p>,null,choice,tc,binary,repulsion,2,microwave ovens,null,null,null,null,null,null,2,NA,NA,NA,NA,NA,NA,NA,NA,NA,NA
NA,NA,NA,NA,NA,choice_trial,survey-html-form,41,244446,0.0-4.0-1.18,274,1,2025-05-07T02:22:35Z,b60275e29fe2361ab97ac0ac217840d7,"Mozilla/5.0 (Macintosh; Intel Mac OS X 10_15_7) AppleWebKit/537.36 (KHTML, like Gecko) Chrome/136.0.0.0 Safari/537.36",Macintosh,Chrome,136.0.0.0,OS X,10_15_7,https://5puzkbbxv1.cognition.run/?sona_id=57652,"en-US,en;q=0.9",pbxcxtlny19m8ym,18,"[""Asian""]",No,Female,"NA
",No,521852.80000000075,NA,5062,NA,"{""product_choice"":""B""}",choice,tc,binary,repulsion,2,microwave ovens,null,null,null,null,null,null,2,30,40,null,100,90,null,Warranty,Cooking power,NA,NA
NA,NA,NA,NA,NA,choice_trial_setup,html-keyboard-response,42,244749,0.0-4.0-0.19,274,1,2025-05-07T02:22:35Z,b60275e29fe2361ab97ac0ac217840d7,"Mozilla/5.0 (Macintosh; Intel Mac OS X 10_15_7) AppleWebKit/537.36 (KHTML, like Gecko) Chrome/136.0.0.0 Safari/537.36",Macintosh,Chrome,136.0.0.0,OS X,10_15_7,https://5puzkbbxv1.cognition.run/?sona_id=57652,"en-US,en;q=0.9",pbxcxtlny19m8ym,18,"[""Asian""]",No,Female,"NA
",No,521852.80000000075,NA,null,<p></p>,null,choice,tc,binary,repulsion,2,washing machines,null,null,null,null,null,null,1,NA,NA,NA,NA,NA,NA,NA,NA,NA,NA
NA,NA,NA,NA,NA,choice_trial,survey-html-form,43,256323,0.0-4.0-1.19,274,1,2025-05-07T02:22:35Z,b60275e29fe2361ab97ac0ac217840d7,"Mozilla/5.0 (Macintosh; Intel Mac OS X 10_15_7) AppleWebKit/537.36 (KHTML, like Gecko) Chrome/136.0.0.0 Safari/537.36",Macintosh,Chrome,136.0.0.0,OS X,10_15_7,https://5puzkbbxv1.cognition.run/?sona_id=57652,"en-US,en;q=0.9",pbxcxtlny19m8ym,18,"[""Asian""]",No,Female,"NA
",No,521852.80000000075,NA,11571,NA,"{""product_choice"":""B""}",choice,tc,binary,repulsion,2,washing machines,null,null,null,null,null,null,1,30,40,null,100,90,null,Average lifespan,Energy savings,NA,NA
NA,NA,NA,NA,NA,choice_trial_setup,html-keyboard-response,44,256625,0.0-4.0-0.20,274,1,2025-05-07T02:22:35Z,b60275e29fe2361ab97ac0ac217840d7,"Mozilla/5.0 (Macintosh; Intel Mac OS X 10_15_7) AppleWebKit/537.36 (KHTML, like Gecko) Chrome/136.0.0.0 Safari/537.36",Macintosh,Chrome,136.0.0.0,OS X,10_15_7,https://5puzkbbxv1.cognition.run/?sona_id=57652,"en-US,en;q=0.9",pbxcxtlny19m8ym,18,"[""Asian""]",No,Female,"NA
",No,521852.80000000075,NA,null,<p></p>,null,choice,tdc,trinary,repulsion_B,1,washing machines,null,null,null,null,null,null,2,NA,NA,NA,NA,NA,NA,NA,NA,NA,NA
NA,NA,NA,NA,NA,choice_trial,survey-html-form,45,264979,0.0-4.0-1.20,274,1,2025-05-07T02:22:35Z,b60275e29fe2361ab97ac0ac217840d7,"Mozilla/5.0 (Macintosh; Intel Mac OS X 10_15_7) AppleWebKit/537.36 (KHTML, like Gecko) Chrome/136.0.0.0 Safari/537.36",Macintosh,Chrome,136.0.0.0,OS X,10_15_7,https://5puzkbbxv1.cognition.run/?sona_id=57652,"en-US,en;q=0.9",pbxcxtlny19m8ym,18,"[""Asian""]",No,Female,"NA
",No,521852.80000000075,NA,8351,NA,"{""product_choice"":""A""}",choice,tdc,trinary,repulsion_B,1,washing machines,null,null,null,null,null,null,2,90,100,80,40,30,40,Average lifespan,Energy savings,NA,NA
NA,NA,NA,NA,NA,choice_trial_setup,html-keyboard-response,46,265283,0.0-4.0-0.21,274,1,2025-05-07T02:22:35Z,b60275e29fe2361ab97ac0ac217840d7,"Mozilla/5.0 (Macintosh; Intel Mac OS X 10_15_7) AppleWebKit/537.36 (KHTML, like Gecko) Chrome/136.0.0.0 Safari/537.36",Macintosh,Chrome,136.0.0.0,OS X,10_15_7,https://5puzkbbxv1.cognition.run/?sona_id=57652,"en-US,en;q=0.9",pbxcxtlny19m8ym,18,"[""Asian""]",No,Female,"NA
",No,521852.80000000075,NA,null,<p></p>,null,choice,bw,binary,catch,null,televisions,95,75,45,5,null,null,2,NA,NA,NA,NA,NA,NA,NA,NA,NA,NA
NA,NA,NA,NA,NA,choice_trial,survey-html-form,47,270085,0.0-4.0-1.21,274,1,2025-05-07T02:22:35Z,b60275e29fe2361ab97ac0ac217840d7,"Mozilla/5.0 (Macintosh; Intel Mac OS X 10_15_7) AppleWebKit/537.36 (KHTML, like Gecko) Chrome/136.0.0.0 Safari/537.36",Macintosh,Chrome,136.0.0.0,OS X,10_15_7,https://5puzkbbxv1.cognition.run/?sona_id=57652,"en-US,en;q=0.9",pbxcxtlny19m8ym,18,"[""Asian""]",No,Female,"NA
",No,521852.80000000075,NA,4798,NA,"{""product_choice"":""A""}",choice,bw,binary,catch,null,televisions,95,75,45,5,null,null,2,null,null,null,null,null,null,Screen size,Average lifespan,NA,NA
NA,NA,NA,NA,NA,choice_trial_setup,html-keyboard-response,48,270387,0.0-4.0-0.22,274,1,2025-05-07T02:22:35Z,b60275e29fe2361ab97ac0ac217840d7,"Mozilla/5.0 (Macintosh; Intel Mac OS X 10_15_7) AppleWebKit/537.36 (KHTML, like Gecko) Chrome/136.0.0.0 Safari/537.36",Macintosh,Chrome,136.0.0.0,OS X,10_15_7,https://5puzkbbxv1.cognition.run/?sona_id=57652,"en-US,en;q=0.9",pbxcxtlny19m8ym,18,"[""Asian""]",No,Female,"NA
",No,521852.80000000075,NA,null,<p></p>,null,choice,wb,binary,catch,null,microwave ovens,90,90,10,40,null,null,2,NA,NA,NA,NA,NA,NA,NA,NA,NA,NA
NA,NA,NA,NA,NA,choice_trial,survey-html-form,49,274529,0.0-4.0-1.22,274,1,2025-05-07T02:22:35Z,b60275e29fe2361ab97ac0ac217840d7,"Mozilla/5.0 (Macintosh; Intel Mac OS X 10_15_7) AppleWebKit/537.36 (KHTML, like Gecko) Chrome/136.0.0.0 Safari/537.36",Macintosh,Chrome,136.0.0.0,OS X,10_15_7,https://5puzkbbxv1.cognition.run/?sona_id=57652,"en-US,en;q=0.9",pbxcxtlny19m8ym,18,"[""Asian""]",No,Female,"NA
",No,521852.80000000075,NA,4139,NA,"{""product_choice"":""B""}",choice,wb,binary,catch,null,microwave ovens,90,90,10,40,null,null,2,null,null,null,null,null,null,Warranty,Cooking power,NA,NA
NA,NA,NA,NA,NA,choice_trial_setup,html-keyboard-response,50,274833,0.0-4.0-0.23,274,1,2025-05-07T02:22:35Z,b60275e29fe2361ab97ac0ac217840d7,"Mozilla/5.0 (Macintosh; Intel Mac OS X 10_15_7) AppleWebKit/537.36 (KHTML, like Gecko) Chrome/136.0.0.0 Safari/537.36",Macintosh,Chrome,136.0.0.0,OS X,10_15_7,https://5puzkbbxv1.cognition.run/?sona_id=57652,"en-US,en;q=0.9",pbxcxtlny19m8ym,18,"[""Asian""]",No,Female,"NA
",No,521852.80000000075,NA,null,<p></p>,null,choice,dct,trinary,repulsion_B,1,microwave ovens,null,null,null,null,null,null,1,NA,NA,NA,NA,NA,NA,NA,NA,NA,NA
NA,NA,NA,NA,NA,choice_trial,survey-html-form,51,288403,0.0-4.0-1.23,274,1,2025-05-07T02:22:35Z,b60275e29fe2361ab97ac0ac217840d7,"Mozilla/5.0 (Macintosh; Intel Mac OS X 10_15_7) AppleWebKit/537.36 (KHTML, like Gecko) Chrome/136.0.0.0 Safari/537.36",Macintosh,Chrome,136.0.0.0,OS X,10_15_7,https://5puzkbbxv1.cognition.run/?sona_id=57652,"en-US,en;q=0.9",pbxcxtlny19m8ym,18,"[""Asian""]",No,Female,"NA
",No,521852.80000000075,NA,13567,NA,"{""product_choice"":""C""}",choice,dct,trinary,repulsion_B,1,microwave ovens,null,null,null,null,null,null,1,90,100,80,40,30,40,Warranty,Cooking power,NA,NA
NA,NA,NA,NA,NA,choice_trial_setup,html-keyboard-response,52,288707,0.0-4.0-0.24,274,1,2025-05-07T02:22:35Z,b60275e29fe2361ab97ac0ac217840d7,"Mozilla/5.0 (Macintosh; Intel Mac OS X 10_15_7) AppleWebKit/537.36 (KHTML, like Gecko) Chrome/136.0.0.0 Safari/537.36",Macintosh,Chrome,136.0.0.0,OS X,10_15_7,https://5puzkbbxv1.cognition.run/?sona_id=57652,"en-US,en;q=0.9",pbxcxtlny19m8ym,18,"[""Asian""]",No,Female,"NA
",No,521852.80000000075,NA,null,<p></p>,null,choice,bww,trinary,catch,null,washing machines,70,60,20,40,25,40,1,NA,NA,NA,NA,NA,NA,NA,NA,NA,NA
NA,NA,NA,NA,NA,choice_trial,survey-html-form,53,298334,0.0-4.0-1.24,274,1,2025-05-07T02:22:35Z,b60275e29fe2361ab97ac0ac217840d7,"Mozilla/5.0 (Macintosh; Intel Mac OS X 10_15_7) AppleWebKit/537.36 (KHTML, like Gecko) Chrome/136.0.0.0 Safari/537.36",Macintosh,Chrome,136.0.0.0,OS X,10_15_7,https://5puzkbbxv1.cognition.run/?sona_id=57652,"en-US,en;q=0.9",pbxcxtlny19m8ym,18,"[""Asian""]",No,Female,"NA
",No,521852.80000000075,NA,9623,NA,"{""product_choice"":""A""}",choice,bww,trinary,catch,null,washing machines,70,60,20,40,25,40,1,null,null,null,null,null,null,Average lifespan,Energy savings,NA,NA
NA,NA,NA,NA,NA,choice_trial_setup,html-keyboard-response,54,298637,0.0-4.0-0.25,274,1,2025-05-07T02:22:35Z,b60275e29fe2361ab97ac0ac217840d7,"Mozilla/5.0 (Macintosh; Intel Mac OS X 10_15_7) AppleWebKit/537.36 (KHTML, like Gecko) Chrome/136.0.0.0 Safari/537.36",Macintosh,Chrome,136.0.0.0,OS X,10_15_7,https://5puzkbbxv1.cognition.run/?sona_id=57652,"en-US,en;q=0.9",pbxcxtlny19m8ym,18,"[""Asian""]",No,Female,"NA
",No,521852.80000000075,NA,null,<p></p>,null,choice,cdt,trinary,attraction,1,laptops,null,null,null,null,null,null,2,NA,NA,NA,NA,NA,NA,NA,NA,NA,NA
NA,NA,NA,NA,NA,choice_trial,survey-html-form,55,309106,0.0-4.0-1.25,274,1,2025-05-07T02:22:35Z,b60275e29fe2361ab97ac0ac217840d7,"Mozilla/5.0 (Macintosh; Intel Mac OS X 10_15_7) AppleWebKit/537.36 (KHTML, like Gecko) Chrome/136.0.0.0 Safari/537.36",Macintosh,Chrome,136.0.0.0,OS X,10_15_7,https://5puzkbbxv1.cognition.run/?sona_id=57652,"en-US,en;q=0.9",pbxcxtlny19m8ym,18,"[""Asian""]",No,Female,"NA
",No,521852.80000000075,NA,10467,NA,"{""product_choice"":""C""}",choice,cdt,trinary,attraction,1,laptops,null,null,null,null,null,null,2,60,50,60,50,60,40,Processing speed,Memory (RAM),NA,NA
NA,NA,NA,NA,NA,choice_trial_setup,html-keyboard-response,56,309409,0.0-4.0-0.26,274,1,2025-05-07T02:22:35Z,b60275e29fe2361ab97ac0ac217840d7,"Mozilla/5.0 (Macintosh; Intel Mac OS X 10_15_7) AppleWebKit/537.36 (KHTML, like Gecko) Chrome/136.0.0.0 Safari/537.36",Macintosh,Chrome,136.0.0.0,OS X,10_15_7,https://5puzkbbxv1.cognition.run/?sona_id=57652,"en-US,en;q=0.9",pbxcxtlny19m8ym,18,"[""Asian""]",No,Female,"NA
",No,521852.80000000075,NA,null,<p></p>,null,choice,ct,binary,repulsion,2,laptops,null,null,null,null,null,null,2,NA,NA,NA,NA,NA,NA,NA,NA,NA,NA
NA,NA,NA,NA,NA,choice_trial,survey-html-form,57,314452,0.0-4.0-1.26,274,1,2025-05-07T02:22:35Z,b60275e29fe2361ab97ac0ac217840d7,"Mozilla/5.0 (Macintosh; Intel Mac OS X 10_15_7) AppleWebKit/537.36 (KHTML, like Gecko) Chrome/136.0.0.0 Safari/537.36",Macintosh,Chrome,136.0.0.0,OS X,10_15_7,https://5puzkbbxv1.cognition.run/?sona_id=57652,"en-US,en;q=0.9",pbxcxtlny19m8ym,18,"[""Asian""]",No,Female,"NA
",No,521852.80000000075,NA,5039,NA,"{""product_choice"":""A""}",choice,ct,binary,repulsion,2,laptops,null,null,null,null,null,null,2,30,40,null,100,90,null,Processing speed,Memory (RAM),NA,NA
NA,NA,NA,NA,NA,choice_trial_setup,html-keyboard-response,58,314754,0.0-4.0-0.27,274,1,2025-05-07T02:22:35Z,b60275e29fe2361ab97ac0ac217840d7,"Mozilla/5.0 (Macintosh; Intel Mac OS X 10_15_7) AppleWebKit/537.36 (KHTML, like Gecko) Chrome/136.0.0.0 Safari/537.36",Macintosh,Chrome,136.0.0.0,OS X,10_15_7,https://5puzkbbxv1.cognition.run/?sona_id=57652,"en-US,en;q=0.9",pbxcxtlny19m8ym,18,"[""Asian""]",No,Female,"NA
",No,521852.80000000075,NA,null,<p></p>,null,choice,cdt,trinary,attraction,2,televisions,null,null,null,null,null,null,2,NA,NA,NA,NA,NA,NA,NA,NA,NA,NA
NA,NA,NA,NA,NA,choice_trial,survey-html-form,59,330102,0.0-4.0-1.27,274,1,2025-05-07T02:22:35Z,b60275e29fe2361ab97ac0ac217840d7,"Mozilla/5.0 (Macintosh; Intel Mac OS X 10_15_7) AppleWebKit/537.36 (KHTML, like Gecko) Chrome/136.0.0.0 Safari/537.36",Macintosh,Chrome,136.0.0.0,OS X,10_15_7,https://5puzkbbxv1.cognition.run/?sona_id=57652,"en-US,en;q=0.9",pbxcxtlny19m8ym,18,"[""Asian""]",No,Female,"NA
",No,521852.80000000075,NA,15344,NA,"{""product_choice"":""C""}",choice,cdt,trinary,attraction,2,televisions,null,null,null,null,null,null,2,50,60,40,60,50,60,Screen size,Average lifespan,NA,NA
NA,NA,NA,NA,NA,choice_trial_setup,html-keyboard-response,60,330406,0.0-4.0-0.28,274,1,2025-05-07T02:22:35Z,b60275e29fe2361ab97ac0ac217840d7,"Mozilla/5.0 (Macintosh; Intel Mac OS X 10_15_7) AppleWebKit/537.36 (KHTML, like Gecko) Chrome/136.0.0.0 Safari/537.36",Macintosh,Chrome,136.0.0.0,OS X,10_15_7,https://5puzkbbxv1.cognition.run/?sona_id=57652,"en-US,en;q=0.9",pbxcxtlny19m8ym,18,"[""Asian""]",No,Female,"NA
",No,521852.80000000075,NA,null,<p></p>,null,choice,tcd,trinary,repulsion_A,2,televisions,null,null,null,null,null,null,2,NA,NA,NA,NA,NA,NA,NA,NA,NA,NA
NA,NA,NA,NA,NA,choice_trial,survey-html-form,61,341929,0.0-4.0-1.28,274,1,2025-05-07T02:22:35Z,b60275e29fe2361ab97ac0ac217840d7,"Mozilla/5.0 (Macintosh; Intel Mac OS X 10_15_7) AppleWebKit/537.36 (KHTML, like Gecko) Chrome/136.0.0.0 Safari/537.36",Macintosh,Chrome,136.0.0.0,OS X,10_15_7,https://5puzkbbxv1.cognition.run/?sona_id=57652,"en-US,en;q=0.9",pbxcxtlny19m8ym,18,"[""Asian""]",No,Female,"NA
",No,521852.80000000075,NA,11521,NA,"{""product_choice"":""A""}",choice,tcd,trinary,repulsion_A,2,televisions,null,null,null,null,null,null,2,30,40,20,100,90,100,Screen size,Average lifespan,NA,NA
NA,NA,NA,NA,NA,choice_trial_setup,html-keyboard-response,62,342232,0.0-4.0-0.29,274,1,2025-05-07T02:22:35Z,b60275e29fe2361ab97ac0ac217840d7,"Mozilla/5.0 (Macintosh; Intel Mac OS X 10_15_7) AppleWebKit/537.36 (KHTML, like Gecko) Chrome/136.0.0.0 Safari/537.36",Macintosh,Chrome,136.0.0.0,OS X,10_15_7,https://5puzkbbxv1.cognition.run/?sona_id=57652,"en-US,en;q=0.9",pbxcxtlny19m8ym,18,"[""Asian""]",No,Female,"NA
",No,521852.80000000075,NA,null,<p></p>,null,choice,tc,binary,repulsion,1,washing machines,null,null,null,null,null,null,2,NA,NA,NA,NA,NA,NA,NA,NA,NA,NA
NA,NA,NA,NA,NA,choice_trial,survey-html-form,63,355581,0.0-4.0-1.29,274,1,2025-05-07T02:22:35Z,b60275e29fe2361ab97ac0ac217840d7,"Mozilla/5.0 (Macintosh; Intel Mac OS X 10_15_7) AppleWebKit/537.36 (KHTML, like Gecko) Chrome/136.0.0.0 Safari/537.36",Macintosh,Chrome,136.0.0.0,OS X,10_15_7,https://5puzkbbxv1.cognition.run/?sona_id=57652,"en-US,en;q=0.9",pbxcxtlny19m8ym,18,"[""Asian""]",No,Female,"NA
",No,521852.80000000075,NA,13346,NA,"{""product_choice"":""B""}",choice,tc,binary,repulsion,1,washing machines,null,null,null,null,null,null,2,100,90,null,30,40,null,Average lifespan,Energy savings,NA,NA
NA,NA,NA,NA,NA,choice_trial_setup,html-keyboard-response,64,355884,0.0-4.0-0.30,274,1,2025-05-07T02:22:35Z,b60275e29fe2361ab97ac0ac217840d7,"Mozilla/5.0 (Macintosh; Intel Mac OS X 10_15_7) AppleWebKit/537.36 (KHTML, like Gecko) Chrome/136.0.0.0 Safari/537.36",Macintosh,Chrome,136.0.0.0,OS X,10_15_7,https://5puzkbbxv1.cognition.run/?sona_id=57652,"en-US,en;q=0.9",pbxcxtlny19m8ym,18,"[""Asian""]",No,Female,"NA
",No,521852.80000000075,NA,null,<p></p>,null,choice,ct,binary,repulsion,1,microwave ovens,null,null,null,null,null,null,2,NA,NA,NA,NA,NA,NA,NA,NA,NA,NA
NA,NA,NA,NA,NA,choice_trial,survey-html-form,65,361722,0.0-4.0-1.30,274,1,2025-05-07T02:22:35Z,b60275e29fe2361ab97ac0ac217840d7,"Mozilla/5.0 (Macintosh; Intel Mac OS X 10_15_7) AppleWebKit/537.36 (KHTML, like Gecko) Chrome/136.0.0.0 Safari/537.36",Macintosh,Chrome,136.0.0.0,OS X,10_15_7,https://5puzkbbxv1.cognition.run/?sona_id=57652,"en-US,en;q=0.9",pbxcxtlny19m8ym,18,"[""Asian""]",No,Female,"NA
",No,521852.80000000075,NA,5834,NA,"{""product_choice"":""A""}",choice,ct,binary,repulsion,1,microwave ovens,null,null,null,null,null,null,2,100,90,null,30,40,null,Warranty,Cooking power,NA,NA
NA,NA,NA,NA,NA,choice_trial_setup,html-keyboard-response,66,362027,0.0-4.0-0.31,274,1,2025-05-07T02:22:35Z,b60275e29fe2361ab97ac0ac217840d7,"Mozilla/5.0 (Macintosh; Intel Mac OS X 10_15_7) AppleWebKit/537.36 (KHTML, like Gecko) Chrome/136.0.0.0 Safari/537.36",Macintosh,Chrome,136.0.0.0,OS X,10_15_7,https://5puzkbbxv1.cognition.run/?sona_id=57652,"en-US,en;q=0.9",pbxcxtlny19m8ym,18,"[""Asian""]",No,Female,"NA
",No,521852.80000000075,NA,null,<p></p>,null,choice,dct,trinary,attraction,2,laptops,null,null,null,null,null,null,1,NA,NA,NA,NA,NA,NA,NA,NA,NA,NA
NA,NA,NA,NA,NA,choice_trial,survey-html-form,67,373243,0.0-4.0-1.31,274,1,2025-05-07T02:22:35Z,b60275e29fe2361ab97ac0ac217840d7,"Mozilla/5.0 (Macintosh; Intel Mac OS X 10_15_7) AppleWebKit/537.36 (KHTML, like Gecko) Chrome/136.0.0.0 Safari/537.36",Macintosh,Chrome,136.0.0.0,OS X,10_15_7,https://5puzkbbxv1.cognition.run/?sona_id=57652,"en-US,en;q=0.9",pbxcxtlny19m8ym,18,"[""Asian""]",No,Female,"NA
",No,521852.80000000075,NA,11213,NA,"{""product_choice"":""B""}",choice,dct,trinary,attraction,2,laptops,null,null,null,null,null,null,1,50,60,40,60,50,60,Processing speed,Memory (RAM),NA,NA
NA,NA,NA,NA,NA,choice_trial_setup,html-keyboard-response,68,373547,0.0-4.0-0.32,274,1,2025-05-07T02:22:35Z,b60275e29fe2361ab97ac0ac217840d7,"Mozilla/5.0 (Macintosh; Intel Mac OS X 10_15_7) AppleWebKit/537.36 (KHTML, like Gecko) Chrome/136.0.0.0 Safari/537.36",Macintosh,Chrome,136.0.0.0,OS X,10_15_7,https://5puzkbbxv1.cognition.run/?sona_id=57652,"en-US,en;q=0.9",pbxcxtlny19m8ym,18,"[""Asian""]",No,Female,"NA
",No,521852.80000000075,NA,null,<p></p>,null,choice,wb,binary,catch,null,washing machines,80,85,30,35,null,null,1,NA,NA,NA,NA,NA,NA,NA,NA,NA,NA
NA,NA,NA,NA,NA,choice_trial,survey-html-form,69,377462,0.0-4.0-1.32,274,1,2025-05-07T02:22:35Z,b60275e29fe2361ab97ac0ac217840d7,"Mozilla/5.0 (Macintosh; Intel Mac OS X 10_15_7) AppleWebKit/537.36 (KHTML, like Gecko) Chrome/136.0.0.0 Safari/537.36",Macintosh,Chrome,136.0.0.0,OS X,10_15_7,https://5puzkbbxv1.cognition.run/?sona_id=57652,"en-US,en;q=0.9",pbxcxtlny19m8ym,18,"[""Asian""]",No,Female,"NA
",No,521852.80000000075,NA,3912,NA,"{""product_choice"":""B""}",choice,wb,binary,catch,null,washing machines,80,85,30,35,null,null,1,null,null,null,null,null,null,Average lifespan,Energy savings,NA,NA
NA,NA,NA,NA,NA,choice_trial_setup,html-keyboard-response,70,377766,0.0-4.0-0.33,274,1,2025-05-07T02:22:35Z,b60275e29fe2361ab97ac0ac217840d7,"Mozilla/5.0 (Macintosh; Intel Mac OS X 10_15_7) AppleWebKit/537.36 (KHTML, like Gecko) Chrome/136.0.0.0 Safari/537.36",Macintosh,Chrome,136.0.0.0,OS X,10_15_7,https://5puzkbbxv1.cognition.run/?sona_id=57652,"en-US,en;q=0.9",pbxcxtlny19m8ym,18,"[""Asian""]",No,Female,"NA
",No,521852.80000000075,NA,null,<p></p>,null,choice,ctd,trinary,attraction,1,washing machines,null,null,null,null,null,null,1,NA,NA,NA,NA,NA,NA,NA,NA,NA,NA
NA,NA,NA,NA,NA,choice_trial,survey-html-form,71,391827,0.0-4.0-1.33,274,1,2025-05-07T02:22:35Z,b60275e29fe2361ab97ac0ac217840d7,"Mozilla/5.0 (Macintosh; Intel Mac OS X 10_15_7) AppleWebKit/537.36 (KHTML, like Gecko) Chrome/136.0.0.0 Safari/537.36",Macintosh,Chrome,136.0.0.0,OS X,10_15_7,https://5puzkbbxv1.cognition.run/?sona_id=57652,"en-US,en;q=0.9",pbxcxtlny19m8ym,18,"[""Asian""]",No,Female,"NA
",No,521852.80000000075,NA,14057,NA,"{""product_choice"":""A""}",choice,ctd,trinary,attraction,1,washing machines,null,null,null,null,null,null,1,60,50,60,50,60,40,Average lifespan,Energy savings,NA,NA
NA,NA,NA,NA,NA,choice_trial_setup,html-keyboard-response,72,392132,0.0-4.0-0.34,274,1,2025-05-07T02:22:35Z,b60275e29fe2361ab97ac0ac217840d7,"Mozilla/5.0 (Macintosh; Intel Mac OS X 10_15_7) AppleWebKit/537.36 (KHTML, like Gecko) Chrome/136.0.0.0 Safari/537.36",Macintosh,Chrome,136.0.0.0,OS X,10_15_7,https://5puzkbbxv1.cognition.run/?sona_id=57652,"en-US,en;q=0.9",pbxcxtlny19m8ym,18,"[""Asian""]",No,Female,"NA
",No,521852.80000000075,NA,null,<p></p>,null,choice,tcd,trinary,repulsion_A,2,microwave ovens,null,null,null,null,null,null,2,NA,NA,NA,NA,NA,NA,NA,NA,NA,NA
NA,NA,NA,NA,NA,choice_trial,survey-html-form,73,402922,0.0-4.0-1.34,274,1,2025-05-07T02:22:35Z,b60275e29fe2361ab97ac0ac217840d7,"Mozilla/5.0 (Macintosh; Intel Mac OS X 10_15_7) AppleWebKit/537.36 (KHTML, like Gecko) Chrome/136.0.0.0 Safari/537.36",Macintosh,Chrome,136.0.0.0,OS X,10_15_7,https://5puzkbbxv1.cognition.run/?sona_id=57652,"en-US,en;q=0.9",pbxcxtlny19m8ym,18,"[""Asian""]",No,Female,"NA
",No,521852.80000000075,NA,10786,NA,"{""product_choice"":""B""}",choice,tcd,trinary,repulsion_A,2,microwave ovens,null,null,null,null,null,null,2,30,40,20,100,90,100,Warranty,Cooking power,NA,NA
NA,NA,NA,NA,NA,choice_trial_setup,html-keyboard-response,74,403225,0.0-4.0-0.35,274,1,2025-05-07T02:22:35Z,b60275e29fe2361ab97ac0ac217840d7,"Mozilla/5.0 (Macintosh; Intel Mac OS X 10_15_7) AppleWebKit/537.36 (KHTML, like Gecko) Chrome/136.0.0.0 Safari/537.36",Macintosh,Chrome,136.0.0.0,OS X,10_15_7,https://5puzkbbxv1.cognition.run/?sona_id=57652,"en-US,en;q=0.9",pbxcxtlny19m8ym,18,"[""Asian""]",No,Female,"NA
",No,521852.80000000075,NA,null,<p></p>,null,choice,dtc,trinary,repulsion_B,1,laptops,null,null,null,null,null,null,2,NA,NA,NA,NA,NA,NA,NA,NA,NA,NA
NA,NA,NA,NA,NA,choice_trial,survey-html-form,75,407368,0.0-4.0-1.35,274,1,2025-05-07T02:22:35Z,b60275e29fe2361ab97ac0ac217840d7,"Mozilla/5.0 (Macintosh; Intel Mac OS X 10_15_7) AppleWebKit/537.36 (KHTML, like Gecko) Chrome/136.0.0.0 Safari/537.36",Macintosh,Chrome,136.0.0.0,OS X,10_15_7,https://5puzkbbxv1.cognition.run/?sona_id=57652,"en-US,en;q=0.9",pbxcxtlny19m8ym,18,"[""Asian""]",No,Female,"NA
",No,521852.80000000075,NA,4139,NA,"{""product_choice"":""B""}",choice,dtc,trinary,repulsion_B,1,laptops,null,null,null,null,null,null,2,90,100,80,40,30,40,Processing speed,Memory (RAM),NA,NA
NA,NA,NA,NA,NA,choice_trial_setup,html-keyboard-response,76,407673,0.0-4.0-0.36,274,1,2025-05-07T02:22:35Z,b60275e29fe2361ab97ac0ac217840d7,"Mozilla/5.0 (Macintosh; Intel Mac OS X 10_15_7) AppleWebKit/537.36 (KHTML, like Gecko) Chrome/136.0.0.0 Safari/537.36",Macintosh,Chrome,136.0.0.0,OS X,10_15_7,https://5puzkbbxv1.cognition.run/?sona_id=57652,"en-US,en;q=0.9",pbxcxtlny19m8ym,18,"[""Asian""]",No,Female,"NA
",No,521852.80000000075,NA,null,<p></p>,null,choice,tdc,trinary,repulsion_A,1,washing machines,null,null,null,null,null,null,1,NA,NA,NA,NA,NA,NA,NA,NA,NA,NA
NA,NA,NA,NA,NA,choice_trial,survey-html-form,77,411509,0.0-4.0-1.36,274,1,2025-05-07T02:22:35Z,b60275e29fe2361ab97ac0ac217840d7,"Mozilla/5.0 (Macintosh; Intel Mac OS X 10_15_7) AppleWebKit/537.36 (KHTML, like Gecko) Chrome/136.0.0.0 Safari/537.36",Macintosh,Chrome,136.0.0.0,OS X,10_15_7,https://5puzkbbxv1.cognition.run/?sona_id=57652,"en-US,en;q=0.9",pbxcxtlny19m8ym,18,"[""Asian""]",No,Female,"NA
",No,521852.80000000075,NA,3832,NA,"{""product_choice"":""C""}",choice,tdc,trinary,repulsion_A,1,washing machines,null,null,null,null,null,null,1,100,90,100,30,40,20,Average lifespan,Energy savings,NA,NA
NA,NA,NA,NA,NA,choice_trial_setup,html-keyboard-response,78,411813,0.0-4.0-0.37,274,1,2025-05-07T02:22:35Z,b60275e29fe2361ab97ac0ac217840d7,"Mozilla/5.0 (Macintosh; Intel Mac OS X 10_15_7) AppleWebKit/537.36 (KHTML, like Gecko) Chrome/136.0.0.0 Safari/537.36",Macintosh,Chrome,136.0.0.0,OS X,10_15_7,https://5puzkbbxv1.cognition.run/?sona_id=57652,"en-US,en;q=0.9",pbxcxtlny19m8ym,18,"[""Asian""]",No,Female,"NA
",No,521852.80000000075,NA,null,<p></p>,null,choice,dct,trinary,repulsion_A,2,washing machines,null,null,null,null,null,null,1,NA,NA,NA,NA,NA,NA,NA,NA,NA,NA
NA,NA,NA,NA,NA,choice_trial,survey-html-form,79,415436,0.0-4.0-1.37,274,1,2025-05-07T02:22:35Z,b60275e29fe2361ab97ac0ac217840d7,"Mozilla/5.0 (Macintosh; Intel Mac OS X 10_15_7) AppleWebKit/537.36 (KHTML, like Gecko) Chrome/136.0.0.0 Safari/537.36",Macintosh,Chrome,136.0.0.0,OS X,10_15_7,https://5puzkbbxv1.cognition.run/?sona_id=57652,"en-US,en;q=0.9",pbxcxtlny19m8ym,18,"[""Asian""]",No,Female,"NA
",No,521852.80000000075,NA,3619,NA,"{""product_choice"":""B""}",choice,dct,trinary,repulsion_A,2,washing machines,null,null,null,null,null,null,1,30,40,20,100,90,100,Average lifespan,Energy savings,NA,NA
NA,NA,NA,NA,NA,choice_trial_setup,html-keyboard-response,80,415741,0.0-4.0-0.38,274,1,2025-05-07T02:22:35Z,b60275e29fe2361ab97ac0ac217840d7,"Mozilla/5.0 (Macintosh; Intel Mac OS X 10_15_7) AppleWebKit/537.36 (KHTML, like Gecko) Chrome/136.0.0.0 Safari/537.36",Macintosh,Chrome,136.0.0.0,OS X,10_15_7,https://5puzkbbxv1.cognition.run/?sona_id=57652,"en-US,en;q=0.9",pbxcxtlny19m8ym,18,"[""Asian""]",No,Female,"NA
",No,521852.80000000075,NA,null,<p></p>,null,choice,tc,binary,repulsion,2,televisions,null,null,null,null,null,null,1,NA,NA,NA,NA,NA,NA,NA,NA,NA,NA
NA,NA,NA,NA,NA,choice_trial,survey-html-form,81,418697,0.0-4.0-1.38,274,1,2025-05-07T02:22:35Z,b60275e29fe2361ab97ac0ac217840d7,"Mozilla/5.0 (Macintosh; Intel Mac OS X 10_15_7) AppleWebKit/537.36 (KHTML, like Gecko) Chrome/136.0.0.0 Safari/537.36",Macintosh,Chrome,136.0.0.0,OS X,10_15_7,https://5puzkbbxv1.cognition.run/?sona_id=57652,"en-US,en;q=0.9",pbxcxtlny19m8ym,18,"[""Asian""]",No,Female,"NA
",No,521852.80000000075,NA,2953,NA,"{""product_choice"":""B""}",choice,tc,binary,repulsion,2,televisions,null,null,null,null,null,null,1,30,40,null,100,90,null,Screen size,Average lifespan,NA,NA
NA,NA,NA,NA,NA,choice_trial_setup,html-keyboard-response,82,419001,0.0-4.0-0.39,274,1,2025-05-07T02:22:35Z,b60275e29fe2361ab97ac0ac217840d7,"Mozilla/5.0 (Macintosh; Intel Mac OS X 10_15_7) AppleWebKit/537.36 (KHTML, like Gecko) Chrome/136.0.0.0 Safari/537.36",Macintosh,Chrome,136.0.0.0,OS X,10_15_7,https://5puzkbbxv1.cognition.run/?sona_id=57652,"en-US,en;q=0.9",pbxcxtlny19m8ym,18,"[""Asian""]",No,Female,"NA
",No,521852.80000000075,NA,null,<p></p>,null,choice,tdc,trinary,repulsion_A,1,laptops,null,null,null,null,null,null,2,NA,NA,NA,NA,NA,NA,NA,NA,NA,NA
NA,NA,NA,NA,NA,choice_trial,survey-html-form,83,423187,0.0-4.0-1.39,274,1,2025-05-07T02:22:35Z,b60275e29fe2361ab97ac0ac217840d7,"Mozilla/5.0 (Macintosh; Intel Mac OS X 10_15_7) AppleWebKit/537.36 (KHTML, like Gecko) Chrome/136.0.0.0 Safari/537.36",Macintosh,Chrome,136.0.0.0,OS X,10_15_7,https://5puzkbbxv1.cognition.run/?sona_id=57652,"en-US,en;q=0.9",pbxcxtlny19m8ym,18,"[""Asian""]",No,Female,"NA
",No,521852.80000000075,NA,4181,NA,"{""product_choice"":""C""}",choice,tdc,trinary,repulsion_A,1,laptops,null,null,null,null,null,null,2,100,90,100,30,40,20,Processing speed,Memory (RAM),NA,NA
NA,NA,NA,NA,NA,choice_trial_setup,html-keyboard-response,84,423492,0.0-4.0-0.40,274,1,2025-05-07T02:22:35Z,b60275e29fe2361ab97ac0ac217840d7,"Mozilla/5.0 (Macintosh; Intel Mac OS X 10_15_7) AppleWebKit/537.36 (KHTML, like Gecko) Chrome/136.0.0.0 Safari/537.36",Macintosh,Chrome,136.0.0.0,OS X,10_15_7,https://5puzkbbxv1.cognition.run/?sona_id=57652,"en-US,en;q=0.9",pbxcxtlny19m8ym,18,"[""Asian""]",No,Female,"NA
",No,521852.80000000075,NA,null,<p></p>,null,choice,bww,trinary,catch,null,laptops,90,80,15,15,50,25,1,NA,NA,NA,NA,NA,NA,NA,NA,NA,NA
NA,NA,NA,NA,NA,choice_trial,survey-html-form,85,428407,0.0-4.0-1.40,274,1,2025-05-07T02:22:35Z,b60275e29fe2361ab97ac0ac217840d7,"Mozilla/5.0 (Macintosh; Intel Mac OS X 10_15_7) AppleWebKit/537.36 (KHTML, like Gecko) Chrome/136.0.0.0 Safari/537.36",Macintosh,Chrome,136.0.0.0,OS X,10_15_7,https://5puzkbbxv1.cognition.run/?sona_id=57652,"en-US,en;q=0.9",pbxcxtlny19m8ym,18,"[""Asian""]",No,Female,"NA
",No,521852.80000000075,NA,4911,NA,"{""product_choice"":""A""}",choice,bww,trinary,catch,null,laptops,90,80,15,15,50,25,1,null,null,null,null,null,null,Processing speed,Memory (RAM),NA,NA
NA,NA,NA,NA,NA,choice_trial_setup,html-keyboard-response,86,428710,0.0-4.0-0.41,274,1,2025-05-07T02:22:35Z,b60275e29fe2361ab97ac0ac217840d7,"Mozilla/5.0 (Macintosh; Intel Mac OS X 10_15_7) AppleWebKit/537.36 (KHTML, like Gecko) Chrome/136.0.0.0 Safari/537.36",Macintosh,Chrome,136.0.0.0,OS X,10_15_7,https://5puzkbbxv1.cognition.run/?sona_id=57652,"en-US,en;q=0.9",pbxcxtlny19m8ym,18,"[""Asian""]",No,Female,"NA
",No,521852.80000000075,NA,null,<p></p>,null,choice,tdc,trinary,repulsion_B,1,televisions,null,null,null,null,null,null,1,NA,NA,NA,NA,NA,NA,NA,NA,NA,NA
NA,NA,NA,NA,NA,choice_trial,survey-html-form,87,431584,0.0-4.0-1.41,274,1,2025-05-07T02:22:35Z,b60275e29fe2361ab97ac0ac217840d7,"Mozilla/5.0 (Macintosh; Intel Mac OS X 10_15_7) AppleWebKit/537.36 (KHTML, like Gecko) Chrome/136.0.0.0 Safari/537.36",Macintosh,Chrome,136.0.0.0,OS X,10_15_7,https://5puzkbbxv1.cognition.run/?sona_id=57652,"en-US,en;q=0.9",pbxcxtlny19m8ym,18,"[""Asian""]",No,Female,"NA
",No,521852.80000000075,NA,2870,NA,"{""product_choice"":""A""}",choice,tdc,trinary,repulsion_B,1,televisions,null,null,null,null,null,null,1,90,100,80,40,30,40,Screen size,Average lifespan,NA,NA
NA,NA,NA,NA,NA,choice_trial_setup,html-keyboard-response,88,431887,0.0-4.0-0.42,274,1,2025-05-07T02:22:35Z,b60275e29fe2361ab97ac0ac217840d7,"Mozilla/5.0 (Macintosh; Intel Mac OS X 10_15_7) AppleWebKit/537.36 (KHTML, like Gecko) Chrome/136.0.0.0 Safari/537.36",Macintosh,Chrome,136.0.0.0,OS X,10_15_7,https://5puzkbbxv1.cognition.run/?sona_id=57652,"en-US,en;q=0.9",pbxcxtlny19m8ym,18,"[""Asian""]",No,Female,"NA
",No,521852.80000000075,NA,null,<p></p>,null,choice,tdc,trinary,repulsion_B,2,televisions,null,null,null,null,null,null,2,NA,NA,NA,NA,NA,NA,NA,NA,NA,NA
NA,NA,NA,NA,NA,choice_trial,survey-html-form,89,435030,0.0-4.0-1.42,274,1,2025-05-07T02:22:35Z,b60275e29fe2361ab97ac0ac217840d7,"Mozilla/5.0 (Macintosh; Intel Mac OS X 10_15_7) AppleWebKit/537.36 (KHTML, like Gecko) Chrome/136.0.0.0 Safari/537.36",Macintosh,Chrome,136.0.0.0,OS X,10_15_7,https://5puzkbbxv1.cognition.run/?sona_id=57652,"en-US,en;q=0.9",pbxcxtlny19m8ym,18,"[""Asian""]",No,Female,"NA
",No,521852.80000000075,NA,3139,NA,"{""product_choice"":""A""}",choice,tdc,trinary,repulsion_B,2,televisions,null,null,null,null,null,null,2,40,30,40,90,100,80,Screen size,Average lifespan,NA,NA
NA,NA,NA,NA,NA,choice_trial_setup,html-keyboard-response,90,435335,0.0-4.0-0.43,274,1,2025-05-07T02:22:35Z,b60275e29fe2361ab97ac0ac217840d7,"Mozilla/5.0 (Macintosh; Intel Mac OS X 10_15_7) AppleWebKit/537.36 (KHTML, like Gecko) Chrome/136.0.0.0 Safari/537.36",Macintosh,Chrome,136.0.0.0,OS X,10_15_7,https://5puzkbbxv1.cognition.run/?sona_id=57652,"en-US,en;q=0.9",pbxcxtlny19m8ym,18,"[""Asian""]",No,Female,"NA
",No,521852.80000000075,NA,null,<p></p>,null,choice,tcd,trinary,repulsion_A,1,televisions,null,null,null,null,null,null,2,NA,NA,NA,NA,NA,NA,NA,NA,NA,NA
NA,NA,NA,NA,NA,choice_trial,survey-html-form,91,440084,0.0-4.0-1.43,274,1,2025-05-07T02:22:35Z,b60275e29fe2361ab97ac0ac217840d7,"Mozilla/5.0 (Macintosh; Intel Mac OS X 10_15_7) AppleWebKit/537.36 (KHTML, like Gecko) Chrome/136.0.0.0 Safari/537.36",Macintosh,Chrome,136.0.0.0,OS X,10_15_7,https://5puzkbbxv1.cognition.run/?sona_id=57652,"en-US,en;q=0.9",pbxcxtlny19m8ym,18,"[""Asian""]",No,Female,"NA
",No,521852.80000000075,NA,4745,NA,"{""product_choice"":""B""}",choice,tcd,trinary,repulsion_A,1,televisions,null,null,null,null,null,null,2,100,90,100,30,40,20,Screen size,Average lifespan,NA,NA
NA,NA,NA,NA,NA,post_trials_message,html-button-response,92,441325,0.0-5.0,274,1,2025-05-07T02:22:35Z,b60275e29fe2361ab97ac0ac217840d7,"Mozilla/5.0 (Macintosh; Intel Mac OS X 10_15_7) AppleWebKit/537.36 (KHTML, like Gecko) Chrome/136.0.0.0 Safari/537.36",Macintosh,Chrome,136.0.0.0,OS X,10_15_7,https://5puzkbbxv1.cognition.run/?sona_id=57652,"en-US,en;q=0.9",pbxcxtlny19m8ym,18,"[""Asian""]",No,Female,"NA
",No,521852.80000000075,NA,1237,<p> <b>Thank you for your patience!</b></p><p>  The study will be done after completing a brief form. </p>,0,NA,NA,NA,NA,NA,NA,NA,NA,NA,NA,NA,NA,NA,NA,NA,NA,NA,NA,NA,NA,NA,NA,NA
NA,NA,NA,NA,NA,survey_message,survey-text,93,487832,0.0-6.0,274,1,2025-05-07T02:22:35Z,b60275e29fe2361ab97ac0ac217840d7,"Mozilla/5.0 (Macintosh; Intel Mac OS X 10_15_7) AppleWebKit/537.36 (KHTML, like Gecko) Chrome/136.0.0.0 Safari/537.36",Macintosh,Chrome,136.0.0.0,OS X,10_15_7,https://5puzkbbxv1.cognition.run/?sona_id=57652,"en-US,en;q=0.9",pbxcxtlny19m8ym,18,"[""Asian""]",No,Female,"NA
",No,521852.80000000075,NA,46502,NA,"{""Q0"":""I chose a \""most important factor\"" depending on my use of the item or need for the factor in my day to day life. ""}",NA,NA,NA,NA,NA,NA,NA,NA,NA,NA,NA,NA,NA,NA,NA,NA,NA,NA,NA,NA,NA,"I chose a ""most important factor"" depending on my use of the item or need for the factor in my day to day life.",NA
NA,NA,NA,NA,NA,demo_age,survey-text,94,489690,0.0-7.0,274,1,2025-05-07T02:22:35Z,b60275e29fe2361ab97ac0ac217840d7,"Mozilla/5.0 (Macintosh; Intel Mac OS X 10_15_7) AppleWebKit/537.36 (KHTML, like Gecko) Chrome/136.0.0.0 Safari/537.36",Macintosh,Chrome,136.0.0.0,OS X,10_15_7,https://5puzkbbxv1.cognition.run/?sona_id=57652,"en-US,en;q=0.9",pbxcxtlny19m8ym,18,"[""Asian""]",No,Female,"NA
",No,521852.80000000075,NA,1854,NA,"{""Q0"":""18""}",NA,NA,NA,NA,NA,NA,NA,NA,NA,NA,NA,NA,NA,NA,NA,NA,NA,NA,NA,NA,NA,NA,NA
NA,NA,NA,NA,NA,demo_race,survey-multi-select,95,492530,0.0-8.0,274,1,2025-05-07T02:22:35Z,b60275e29fe2361ab97ac0ac217840d7,"Mozilla/5.0 (Macintosh; Intel Mac OS X 10_15_7) AppleWebKit/537.36 (KHTML, like Gecko) Chrome/136.0.0.0 Safari/537.36",Macintosh,Chrome,136.0.0.0,OS X,10_15_7,https://5puzkbbxv1.cognition.run/?sona_id=57652,"en-US,en;q=0.9",pbxcxtlny19m8ym,18,"[""Asian""]",No,Female,"NA
",No,521852.80000000075,NA,2835,NA,"{""Q0"":[""Asian""]}",NA,NA,NA,NA,NA,NA,NA,NA,NA,NA,NA,NA,NA,NA,NA,NA,NA,NA,NA,NA,NA,NA,[0]
NA,NA,NA,NA,NA,demo_ethnicity_gender,survey-multi-choice,96,496254,0.0-9.0,274,1,2025-05-07T02:22:35Z,b60275e29fe2361ab97ac0ac217840d7,"Mozilla/5.0 (Macintosh; Intel Mac OS X 10_15_7) AppleWebKit/537.36 (KHTML, like Gecko) Chrome/136.0.0.0 Safari/537.36",Macintosh,Chrome,136.0.0.0,OS X,10_15_7,https://5puzkbbxv1.cognition.run/?sona_id=57652,"en-US,en;q=0.9",pbxcxtlny19m8ym,18,"[""Asian""]",No,Female,"NA
",No,521852.80000000075,NA,3720,NA,"{""Q0"":""No"",""Q1"":""Female""}",NA,NA,NA,NA,NA,NA,NA,NA,NA,NA,NA,NA,NA,NA,NA,NA,NA,NA,NA,NA,NA,NA,"[0,1]"
NA,NA,NA,NA,NA,demo_countries,survey-text,97,504257,0.0-10.0,274,1,2025-05-07T02:22:35Z,b60275e29fe2361ab97ac0ac217840d7,"Mozilla/5.0 (Macintosh; Intel Mac OS X 10_15_7) AppleWebKit/537.36 (KHTML, like Gecko) Chrome/136.0.0.0 Safari/537.36",Macintosh,Chrome,136.0.0.0,OS X,10_15_7,https://5puzkbbxv1.cognition.run/?sona_id=57652,"en-US,en;q=0.9",pbxcxtlny19m8ym,18,"[""Asian""]",No,Female,"NA
",No,521852.80000000075,NA,7996,NA,"{""Q0"":""NA\n""}",NA,NA,NA,NA,NA,NA,NA,NA,NA,NA,NA,NA,NA,NA,NA,NA,NA,NA,NA,NA,NA,NA,NA
NA,NA,NA,NA,NA,demo_prev_study,survey-multi-choice,98,509789,0.0-11.0,274,1,2025-05-07T02:22:35Z,b60275e29fe2361ab97ac0ac217840d7,"Mozilla/5.0 (Macintosh; Intel Mac OS X 10_15_7) AppleWebKit/537.36 (KHTML, like Gecko) Chrome/136.0.0.0 Safari/537.36",Macintosh,Chrome,136.0.0.0,OS X,10_15_7,https://5puzkbbxv1.cognition.run/?sona_id=57652,"en-US,en;q=0.9",pbxcxtlny19m8ym,18,"[""Asian""]",No,Female,"NA
",No,521852.80000000075,NA,5527,NA,"{""Q0"":""No""}",NA,NA,NA,NA,NA,NA,NA,NA,NA,NA,NA,NA,NA,NA,NA,NA,NA,NA,NA,NA,NA,NA,[0]
NA,NA,NA,NA,NA,post_survey_message,html-keyboard-response,99,515075,0.0-12.0,274,1,2025-05-07T02:22:35Z,b60275e29fe2361ab97ac0ac217840d7,"Mozilla/5.0 (Macintosh; Intel Mac OS X 10_15_7) AppleWebKit/537.36 (KHTML, like Gecko) Chrome/136.0.0.0 Safari/537.36",Macintosh,Chrome,136.0.0.0,OS X,10_15_7,https://5puzkbbxv1.cognition.run/?sona_id=57652,"en-US,en;q=0.9",pbxcxtlny19m8ym,18,"[""Asian""]",No,Female,"NA
",No,521852.80000000075,NA,5281,NA,j,NA,NA,NA,NA,NA,NA,NA,NA,NA,NA,NA,NA,NA,NA,NA,NA,NA,NA,NA,NA,NA,NA,NA
NA,NA,NA,NA,NA,debrief,image-keyboard-response,100,521857,0.0-13.0,274,1,2025-05-07T02:22:35Z,b60275e29fe2361ab97ac0ac217840d7,"Mozilla/5.0 (Macintosh; Intel Mac OS X 10_15_7) AppleWebKit/537.36 (KHTML, like Gecko) Chrome/136.0.0.0 Safari/537.36",Macintosh,Chrome,136.0.0.0,OS X,10_15_7,https://5puzkbbxv1.cognition.run/?sona_id=57652,"en-US,en;q=0.9",pbxcxtlny19m8ym,18,"[""Asian""]",No,Female,"NA
",No,521852.80000000075,NA,6776,Judg_choice_debrief.png,p,NA,NA,NA,NA,NA,NA,NA,NA,NA,NA,NA,NA,NA,NA,NA,NA,NA,NA,NA,NA,NA,NA,NA
