success,timeout,failed_images,failed_audio,failed_video,screen_id,trial_type,trial_index,time_elapsed,internal_node_id,run_id,condition,recorded_at,source_code_version,user_agent,device,browser,browser_version,platform,platform_version,referer,accept_language,ppt_id,age,race,ethnicity,gender,other_countries,prev_study,exp_duration,view_history,rt,stimulus,response,phase,order,set,effect,t_high,category,d1_best,d2_best,d1_worst1,d2_worst1,d1_worst2,d2_worst2,first_dim,d1_t,d1_c,d1_d,d2_t,d2_c,d2_d,d1_name,d2_name,strategy_response,question_order
TRUE,FALSE,[],[],[],img preload,preload,0,160,0.0-0.0,275,1,2025-05-07T03:40:20Z,b60275e29fe2361ab97ac0ac217840d7,"Mozilla/5.0 (Macintosh; Intel Mac OS X 10_15_7) AppleWebKit/537.36 (KHTML, like Gecko) Chrome/135.0.0.0 Safari/537.36",Macintosh,Chrome,135.0.0.0,OS X,10_15_7,https://5puzkbbxv1.cognition.run/?sona_id=58175,"en-US,en;q=0.9",uoffe1ee04mwts9,18,"[""Asian""]",No,Female,India,No,588338.1000000238,NA,NA,NA,NA,NA,NA,NA,NA,NA,NA,NA,NA,NA,NA,NA,NA,NA,NA,NA,NA,NA,NA,NA,NA,NA,NA,NA
NA,NA,NA,NA,NA,computer_message,instructions,1,3683,0.0-1.0,275,1,2025-05-07T03:40:20Z,b60275e29fe2361ab97ac0ac217840d7,"Mozilla/5.0 (Macintosh; Intel Mac OS X 10_15_7) AppleWebKit/537.36 (KHTML, like Gecko) Chrome/135.0.0.0 Safari/537.36",Macintosh,Chrome,135.0.0.0,OS X,10_15_7,https://5puzkbbxv1.cognition.run/?sona_id=58175,"en-US,en;q=0.9",uoffe1ee04mwts9,18,"[""Asian""]",No,Female,India,No,588338.1000000238,"[{""page_index"":0,""viewing_time"":3522}]",3522,NA,NA,NA,NA,NA,NA,NA,NA,NA,NA,NA,NA,NA,NA,NA,NA,NA,NA,NA,NA,NA,NA,NA,NA,NA
TRUE,NA,NA,NA,NA,NA,fullscreen,2,6056,0.0-2.0,275,1,2025-05-07T03:40:20Z,b60275e29fe2361ab97ac0ac217840d7,"Mozilla/5.0 (Macintosh; Intel Mac OS X 10_15_7) AppleWebKit/537.36 (KHTML, like Gecko) Chrome/135.0.0.0 Safari/537.36",Macintosh,Chrome,135.0.0.0,OS X,10_15_7,https://5puzkbbxv1.cognition.run/?sona_id=58175,"en-US,en;q=0.9",uoffe1ee04mwts9,18,"[""Asian""]",No,Female,India,No,588338.1000000238,NA,1367,NA,NA,NA,NA,NA,NA,NA,NA,NA,NA,NA,NA,NA,NA,NA,NA,NA,NA,NA,NA,NA,NA,NA,NA,NA
NA,NA,NA,NA,NA,choice_instructions,instructions,3,211795,0.0-3.0,275,1,2025-05-07T03:40:20Z,b60275e29fe2361ab97ac0ac217840d7,"Mozilla/5.0 (Macintosh; Intel Mac OS X 10_15_7) AppleWebKit/537.36 (KHTML, like Gecko) Chrome/135.0.0.0 Safari/537.36",Macintosh,Chrome,135.0.0.0,OS X,10_15_7,https://5puzkbbxv1.cognition.run/?sona_id=58175,"en-US,en;q=0.9",uoffe1ee04mwts9,18,"[""Asian""]",No,Female,India,No,588338.1000000238,"[{""page_index"":0,""viewing_time"":1499},{""page_index"":1,""viewing_time"":3147},{""page_index"":2,""viewing_time"":38944},{""page_index"":3,""viewing_time"":2391},{""page_index"":4,""viewing_time"":5969},{""page_index"":5,""viewing_time"":2947},{""page_index"":4,""viewing_time"":990},{""page_index"":3,""viewing_time"":580},{""page_index"":2,""viewing_time"":670},{""page_index"":1,""viewing_time"":107912},{""page_index"":2,""viewing_time"":5605},{""page_index"":3,""viewing_time"":5332},{""page_index"":4,""viewing_time"":6380},{""page_index"":5,""viewing_time"":21820},{""page_index"":6,""viewing_time"":1553}]",205739,NA,NA,NA,NA,NA,NA,NA,NA,NA,NA,NA,NA,NA,NA,NA,NA,NA,NA,NA,NA,NA,NA,NA,NA,NA
NA,NA,NA,NA,NA,choice_trial_setup,html-keyboard-response,4,212101,0.0-4.0-0.0,275,1,2025-05-07T03:40:20Z,b60275e29fe2361ab97ac0ac217840d7,"Mozilla/5.0 (Macintosh; Intel Mac OS X 10_15_7) AppleWebKit/537.36 (KHTML, like Gecko) Chrome/135.0.0.0 Safari/537.36",Macintosh,Chrome,135.0.0.0,OS X,10_15_7,https://5puzkbbxv1.cognition.run/?sona_id=58175,"en-US,en;q=0.9",uoffe1ee04mwts9,18,"[""Asian""]",No,Female,India,No,588338.1000000238,NA,null,<p></p>,null,choice,tcd,trinary,attraction,1,washing machines,null,null,null,null,null,null,1,NA,NA,NA,NA,NA,NA,NA,NA,NA,NA
NA,NA,NA,NA,NA,choice_trial,survey-html-form,5,251528,0.0-4.0-1.0,275,1,2025-05-07T03:40:20Z,b60275e29fe2361ab97ac0ac217840d7,"Mozilla/5.0 (Macintosh; Intel Mac OS X 10_15_7) AppleWebKit/537.36 (KHTML, like Gecko) Chrome/135.0.0.0 Safari/537.36",Macintosh,Chrome,135.0.0.0,OS X,10_15_7,https://5puzkbbxv1.cognition.run/?sona_id=58175,"en-US,en;q=0.9",uoffe1ee04mwts9,18,"[""Asian""]",No,Female,India,No,588338.1000000238,NA,39420,NA,"{""product_choice"":""B""}",choice,tcd,trinary,attraction,1,washing machines,null,null,null,null,null,null,1,60,50,60,50,60,40,Average lifespan,Energy savings,NA,NA
NA,NA,NA,NA,NA,choice_trial_setup,html-keyboard-response,6,251830,0.0-4.0-0.1,275,1,2025-05-07T03:40:20Z,b60275e29fe2361ab97ac0ac217840d7,"Mozilla/5.0 (Macintosh; Intel Mac OS X 10_15_7) AppleWebKit/537.36 (KHTML, like Gecko) Chrome/135.0.0.0 Safari/537.36",Macintosh,Chrome,135.0.0.0,OS X,10_15_7,https://5puzkbbxv1.cognition.run/?sona_id=58175,"en-US,en;q=0.9",uoffe1ee04mwts9,18,"[""Asian""]",No,Female,India,No,588338.1000000238,NA,null,<p></p>,null,choice,cdt,trinary,attraction,2,laptops,null,null,null,null,null,null,1,NA,NA,NA,NA,NA,NA,NA,NA,NA,NA
NA,NA,NA,NA,NA,choice_trial,survey-html-form,7,275094,0.0-4.0-1.1,275,1,2025-05-07T03:40:20Z,b60275e29fe2361ab97ac0ac217840d7,"Mozilla/5.0 (Macintosh; Intel Mac OS X 10_15_7) AppleWebKit/537.36 (KHTML, like Gecko) Chrome/135.0.0.0 Safari/537.36",Macintosh,Chrome,135.0.0.0,OS X,10_15_7,https://5puzkbbxv1.cognition.run/?sona_id=58175,"en-US,en;q=0.9",uoffe1ee04mwts9,18,"[""Asian""]",No,Female,India,No,588338.1000000238,NA,23261,NA,"{""product_choice"":""A""}",choice,cdt,trinary,attraction,2,laptops,null,null,null,null,null,null,1,50,60,40,60,50,60,Processing speed,Memory (RAM),NA,NA
NA,NA,NA,NA,NA,choice_trial_setup,html-keyboard-response,8,275397,0.0-4.0-0.2,275,1,2025-05-07T03:40:20Z,b60275e29fe2361ab97ac0ac217840d7,"Mozilla/5.0 (Macintosh; Intel Mac OS X 10_15_7) AppleWebKit/537.36 (KHTML, like Gecko) Chrome/135.0.0.0 Safari/537.36",Macintosh,Chrome,135.0.0.0,OS X,10_15_7,https://5puzkbbxv1.cognition.run/?sona_id=58175,"en-US,en;q=0.9",uoffe1ee04mwts9,18,"[""Asian""]",No,Female,India,No,588338.1000000238,NA,null,<p></p>,null,choice,tc,binary,attraction,NA,washing machines,null,null,null,null,null,null,1,NA,NA,NA,NA,NA,NA,NA,NA,NA,NA
NA,NA,NA,NA,NA,choice_trial,survey-html-form,9,283619,0.0-4.0-1.2,275,1,2025-05-07T03:40:20Z,b60275e29fe2361ab97ac0ac217840d7,"Mozilla/5.0 (Macintosh; Intel Mac OS X 10_15_7) AppleWebKit/537.36 (KHTML, like Gecko) Chrome/135.0.0.0 Safari/537.36",Macintosh,Chrome,135.0.0.0,OS X,10_15_7,https://5puzkbbxv1.cognition.run/?sona_id=58175,"en-US,en;q=0.9",uoffe1ee04mwts9,18,"[""Asian""]",No,Female,India,No,588338.1000000238,NA,8218,NA,"{""product_choice"":""B""}",choice,tc,binary,attraction,NA,washing machines,null,null,null,null,null,null,1,60,50,null,50,60,null,Average lifespan,Energy savings,NA,NA
NA,NA,NA,NA,NA,choice_trial_setup,html-keyboard-response,10,283921,0.0-4.0-0.3,275,1,2025-05-07T03:40:20Z,b60275e29fe2361ab97ac0ac217840d7,"Mozilla/5.0 (Macintosh; Intel Mac OS X 10_15_7) AppleWebKit/537.36 (KHTML, like Gecko) Chrome/135.0.0.0 Safari/537.36",Macintosh,Chrome,135.0.0.0,OS X,10_15_7,https://5puzkbbxv1.cognition.run/?sona_id=58175,"en-US,en;q=0.9",uoffe1ee04mwts9,18,"[""Asian""]",No,Female,India,No,588338.1000000238,NA,null,<p></p>,null,choice,bw,binary,catch,null,washing machines,70,65,30,30,null,null,1,NA,NA,NA,NA,NA,NA,NA,NA,NA,NA
NA,NA,NA,NA,NA,choice_trial,survey-html-form,11,289230,0.0-4.0-1.3,275,1,2025-05-07T03:40:20Z,b60275e29fe2361ab97ac0ac217840d7,"Mozilla/5.0 (Macintosh; Intel Mac OS X 10_15_7) AppleWebKit/537.36 (KHTML, like Gecko) Chrome/135.0.0.0 Safari/537.36",Macintosh,Chrome,135.0.0.0,OS X,10_15_7,https://5puzkbbxv1.cognition.run/?sona_id=58175,"en-US,en;q=0.9",uoffe1ee04mwts9,18,"[""Asian""]",No,Female,India,No,588338.1000000238,NA,5305,NA,"{""product_choice"":""A""}",choice,bw,binary,catch,null,washing machines,70,65,30,30,null,null,1,null,null,null,null,null,null,Average lifespan,Energy savings,NA,NA
NA,NA,NA,NA,NA,choice_trial_setup,html-keyboard-response,12,289535,0.0-4.0-0.4,275,1,2025-05-07T03:40:20Z,b60275e29fe2361ab97ac0ac217840d7,"Mozilla/5.0 (Macintosh; Intel Mac OS X 10_15_7) AppleWebKit/537.36 (KHTML, like Gecko) Chrome/135.0.0.0 Safari/537.36",Macintosh,Chrome,135.0.0.0,OS X,10_15_7,https://5puzkbbxv1.cognition.run/?sona_id=58175,"en-US,en;q=0.9",uoffe1ee04mwts9,18,"[""Asian""]",No,Female,India,No,588338.1000000238,NA,null,<p></p>,null,choice,dtc,trinary,repulsion_B,2,microwave ovens,null,null,null,null,null,null,2,NA,NA,NA,NA,NA,NA,NA,NA,NA,NA
NA,NA,NA,NA,NA,choice_trial,survey-html-form,13,303743,0.0-4.0-1.4,275,1,2025-05-07T03:40:20Z,b60275e29fe2361ab97ac0ac217840d7,"Mozilla/5.0 (Macintosh; Intel Mac OS X 10_15_7) AppleWebKit/537.36 (KHTML, like Gecko) Chrome/135.0.0.0 Safari/537.36",Macintosh,Chrome,135.0.0.0,OS X,10_15_7,https://5puzkbbxv1.cognition.run/?sona_id=58175,"en-US,en;q=0.9",uoffe1ee04mwts9,18,"[""Asian""]",No,Female,India,No,588338.1000000238,NA,14205,NA,"{""product_choice"":""C""}",choice,dtc,trinary,repulsion_B,2,microwave ovens,null,null,null,null,null,null,2,40,30,40,90,100,80,Warranty,Cooking power,NA,NA
NA,NA,NA,NA,NA,choice_trial_setup,html-keyboard-response,14,304048,0.0-4.0-0.5,275,1,2025-05-07T03:40:20Z,b60275e29fe2361ab97ac0ac217840d7,"Mozilla/5.0 (Macintosh; Intel Mac OS X 10_15_7) AppleWebKit/537.36 (KHTML, like Gecko) Chrome/135.0.0.0 Safari/537.36",Macintosh,Chrome,135.0.0.0,OS X,10_15_7,https://5puzkbbxv1.cognition.run/?sona_id=58175,"en-US,en;q=0.9",uoffe1ee04mwts9,18,"[""Asian""]",No,Female,India,No,588338.1000000238,NA,null,<p></p>,null,choice,ct,binary,repulsion,1,laptops,null,null,null,null,null,null,1,NA,NA,NA,NA,NA,NA,NA,NA,NA,NA
NA,NA,NA,NA,NA,choice_trial,survey-html-form,15,314176,0.0-4.0-1.5,275,1,2025-05-07T03:40:20Z,b60275e29fe2361ab97ac0ac217840d7,"Mozilla/5.0 (Macintosh; Intel Mac OS X 10_15_7) AppleWebKit/537.36 (KHTML, like Gecko) Chrome/135.0.0.0 Safari/537.36",Macintosh,Chrome,135.0.0.0,OS X,10_15_7,https://5puzkbbxv1.cognition.run/?sona_id=58175,"en-US,en;q=0.9",uoffe1ee04mwts9,18,"[""Asian""]",No,Female,India,No,588338.1000000238,NA,10124,NA,"{""product_choice"":""B""}",choice,ct,binary,repulsion,1,laptops,null,null,null,null,null,null,1,100,90,null,30,40,null,Processing speed,Memory (RAM),NA,NA
NA,NA,NA,NA,NA,choice_trial_setup,html-keyboard-response,16,314479,0.0-4.0-0.6,275,1,2025-05-07T03:40:20Z,b60275e29fe2361ab97ac0ac217840d7,"Mozilla/5.0 (Macintosh; Intel Mac OS X 10_15_7) AppleWebKit/537.36 (KHTML, like Gecko) Chrome/135.0.0.0 Safari/537.36",Macintosh,Chrome,135.0.0.0,OS X,10_15_7,https://5puzkbbxv1.cognition.run/?sona_id=58175,"en-US,en;q=0.9",uoffe1ee04mwts9,18,"[""Asian""]",No,Female,India,No,588338.1000000238,NA,null,<p></p>,null,choice,tdc,trinary,attraction,1,televisions,null,null,null,null,null,null,1,NA,NA,NA,NA,NA,NA,NA,NA,NA,NA
NA,NA,NA,NA,NA,choice_trial,survey-html-form,17,329785,0.0-4.0-1.6,275,1,2025-05-07T03:40:20Z,b60275e29fe2361ab97ac0ac217840d7,"Mozilla/5.0 (Macintosh; Intel Mac OS X 10_15_7) AppleWebKit/537.36 (KHTML, like Gecko) Chrome/135.0.0.0 Safari/537.36",Macintosh,Chrome,135.0.0.0,OS X,10_15_7,https://5puzkbbxv1.cognition.run/?sona_id=58175,"en-US,en;q=0.9",uoffe1ee04mwts9,18,"[""Asian""]",No,Female,India,No,588338.1000000238,NA,15302,NA,"{""product_choice"":""A""}",choice,tdc,trinary,attraction,1,televisions,null,null,null,null,null,null,1,60,50,60,50,60,40,Screen size,Average lifespan,NA,NA
NA,NA,NA,NA,NA,choice_trial_setup,html-keyboard-response,18,330089,0.0-4.0-0.7,275,1,2025-05-07T03:40:20Z,b60275e29fe2361ab97ac0ac217840d7,"Mozilla/5.0 (Macintosh; Intel Mac OS X 10_15_7) AppleWebKit/537.36 (KHTML, like Gecko) Chrome/135.0.0.0 Safari/537.36",Macintosh,Chrome,135.0.0.0,OS X,10_15_7,https://5puzkbbxv1.cognition.run/?sona_id=58175,"en-US,en;q=0.9",uoffe1ee04mwts9,18,"[""Asian""]",No,Female,India,No,588338.1000000238,NA,null,<p></p>,null,choice,dtc,trinary,attraction,2,televisions,null,null,null,null,null,null,2,NA,NA,NA,NA,NA,NA,NA,NA,NA,NA
NA,NA,NA,NA,NA,choice_trial,survey-html-form,19,334308,0.0-4.0-1.7,275,1,2025-05-07T03:40:20Z,b60275e29fe2361ab97ac0ac217840d7,"Mozilla/5.0 (Macintosh; Intel Mac OS X 10_15_7) AppleWebKit/537.36 (KHTML, like Gecko) Chrome/135.0.0.0 Safari/537.36",Macintosh,Chrome,135.0.0.0,OS X,10_15_7,https://5puzkbbxv1.cognition.run/?sona_id=58175,"en-US,en;q=0.9",uoffe1ee04mwts9,18,"[""Asian""]",No,Female,India,No,588338.1000000238,NA,4215,NA,"{""product_choice"":""B""}",choice,dtc,trinary,attraction,2,televisions,null,null,null,null,null,null,2,50,60,40,60,50,60,Screen size,Average lifespan,NA,NA
NA,NA,NA,NA,NA,choice_trial_setup,html-keyboard-response,20,334611,0.0-4.0-0.8,275,1,2025-05-07T03:40:20Z,b60275e29fe2361ab97ac0ac217840d7,"Mozilla/5.0 (Macintosh; Intel Mac OS X 10_15_7) AppleWebKit/537.36 (KHTML, like Gecko) Chrome/135.0.0.0 Safari/537.36",Macintosh,Chrome,135.0.0.0,OS X,10_15_7,https://5puzkbbxv1.cognition.run/?sona_id=58175,"en-US,en;q=0.9",uoffe1ee04mwts9,18,"[""Asian""]",No,Female,India,No,588338.1000000238,NA,null,<p></p>,null,choice,wbw,trinary,catch,null,washing machines,75,75,5,35,10,5,2,NA,NA,NA,NA,NA,NA,NA,NA,NA,NA
NA,NA,NA,NA,NA,choice_trial,survey-html-form,21,338728,0.0-4.0-1.8,275,1,2025-05-07T03:40:20Z,b60275e29fe2361ab97ac0ac217840d7,"Mozilla/5.0 (Macintosh; Intel Mac OS X 10_15_7) AppleWebKit/537.36 (KHTML, like Gecko) Chrome/135.0.0.0 Safari/537.36",Macintosh,Chrome,135.0.0.0,OS X,10_15_7,https://5puzkbbxv1.cognition.run/?sona_id=58175,"en-US,en;q=0.9",uoffe1ee04mwts9,18,"[""Asian""]",No,Female,India,No,588338.1000000238,NA,4112,NA,"{""product_choice"":""B""}",choice,wbw,trinary,catch,null,washing machines,75,75,5,35,10,5,2,null,null,null,null,null,null,Average lifespan,Energy savings,NA,NA
NA,NA,NA,NA,NA,choice_trial_setup,html-keyboard-response,22,339031,0.0-4.0-0.9,275,1,2025-05-07T03:40:20Z,b60275e29fe2361ab97ac0ac217840d7,"Mozilla/5.0 (Macintosh; Intel Mac OS X 10_15_7) AppleWebKit/537.36 (KHTML, like Gecko) Chrome/135.0.0.0 Safari/537.36",Macintosh,Chrome,135.0.0.0,OS X,10_15_7,https://5puzkbbxv1.cognition.run/?sona_id=58175,"en-US,en;q=0.9",uoffe1ee04mwts9,18,"[""Asian""]",No,Female,India,No,588338.1000000238,NA,null,<p></p>,null,choice,ct,binary,attraction,NA,microwave ovens,null,null,null,null,null,null,1,NA,NA,NA,NA,NA,NA,NA,NA,NA,NA
NA,NA,NA,NA,NA,choice_trial,survey-html-form,23,349822,0.0-4.0-1.9,275,1,2025-05-07T03:40:20Z,b60275e29fe2361ab97ac0ac217840d7,"Mozilla/5.0 (Macintosh; Intel Mac OS X 10_15_7) AppleWebKit/537.36 (KHTML, like Gecko) Chrome/135.0.0.0 Safari/537.36",Macintosh,Chrome,135.0.0.0,OS X,10_15_7,https://5puzkbbxv1.cognition.run/?sona_id=58175,"en-US,en;q=0.9",uoffe1ee04mwts9,18,"[""Asian""]",No,Female,India,No,588338.1000000238,NA,10787,NA,"{""product_choice"":""A""}",choice,ct,binary,attraction,NA,microwave ovens,null,null,null,null,null,null,1,60,50,null,50,60,null,Warranty,Cooking power,NA,NA
NA,NA,NA,NA,NA,choice_trial_setup,html-keyboard-response,24,350126,0.0-4.0-0.10,275,1,2025-05-07T03:40:20Z,b60275e29fe2361ab97ac0ac217840d7,"Mozilla/5.0 (Macintosh; Intel Mac OS X 10_15_7) AppleWebKit/537.36 (KHTML, like Gecko) Chrome/135.0.0.0 Safari/537.36",Macintosh,Chrome,135.0.0.0,OS X,10_15_7,https://5puzkbbxv1.cognition.run/?sona_id=58175,"en-US,en;q=0.9",uoffe1ee04mwts9,18,"[""Asian""]",No,Female,India,No,588338.1000000238,NA,null,<p></p>,null,choice,tc,binary,repulsion,2,washing machines,null,null,null,null,null,null,1,NA,NA,NA,NA,NA,NA,NA,NA,NA,NA
NA,NA,NA,NA,NA,choice_trial,survey-html-form,25,357630,0.0-4.0-1.10,275,1,2025-05-07T03:40:20Z,b60275e29fe2361ab97ac0ac217840d7,"Mozilla/5.0 (Macintosh; Intel Mac OS X 10_15_7) AppleWebKit/537.36 (KHTML, like Gecko) Chrome/135.0.0.0 Safari/537.36",Macintosh,Chrome,135.0.0.0,OS X,10_15_7,https://5puzkbbxv1.cognition.run/?sona_id=58175,"en-US,en;q=0.9",uoffe1ee04mwts9,18,"[""Asian""]",No,Female,India,No,588338.1000000238,NA,7501,NA,"{""product_choice"":""A""}",choice,tc,binary,repulsion,2,washing machines,null,null,null,null,null,null,1,30,40,null,100,90,null,Average lifespan,Energy savings,NA,NA
NA,NA,NA,NA,NA,choice_trial_setup,html-keyboard-response,26,357934,0.0-4.0-0.11,275,1,2025-05-07T03:40:20Z,b60275e29fe2361ab97ac0ac217840d7,"Mozilla/5.0 (Macintosh; Intel Mac OS X 10_15_7) AppleWebKit/537.36 (KHTML, like Gecko) Chrome/135.0.0.0 Safari/537.36",Macintosh,Chrome,135.0.0.0,OS X,10_15_7,https://5puzkbbxv1.cognition.run/?sona_id=58175,"en-US,en;q=0.9",uoffe1ee04mwts9,18,"[""Asian""]",No,Female,India,No,588338.1000000238,NA,null,<p></p>,null,choice,cdt,trinary,repulsion_A,1,washing machines,null,null,null,null,null,null,2,NA,NA,NA,NA,NA,NA,NA,NA,NA,NA
NA,NA,NA,NA,NA,choice_trial,survey-html-form,27,369039,0.0-4.0-1.11,275,1,2025-05-07T03:40:20Z,b60275e29fe2361ab97ac0ac217840d7,"Mozilla/5.0 (Macintosh; Intel Mac OS X 10_15_7) AppleWebKit/537.36 (KHTML, like Gecko) Chrome/135.0.0.0 Safari/537.36",Macintosh,Chrome,135.0.0.0,OS X,10_15_7,https://5puzkbbxv1.cognition.run/?sona_id=58175,"en-US,en;q=0.9",uoffe1ee04mwts9,18,"[""Asian""]",No,Female,India,No,588338.1000000238,NA,11102,NA,"{""product_choice"":""C""}",choice,cdt,trinary,repulsion_A,1,washing machines,null,null,null,null,null,null,2,100,90,100,30,40,20,Average lifespan,Energy savings,NA,NA
NA,NA,NA,NA,NA,choice_trial_setup,html-keyboard-response,28,369343,0.0-4.0-0.12,275,1,2025-05-07T03:40:20Z,b60275e29fe2361ab97ac0ac217840d7,"Mozilla/5.0 (Macintosh; Intel Mac OS X 10_15_7) AppleWebKit/537.36 (KHTML, like Gecko) Chrome/135.0.0.0 Safari/537.36",Macintosh,Chrome,135.0.0.0,OS X,10_15_7,https://5puzkbbxv1.cognition.run/?sona_id=58175,"en-US,en;q=0.9",uoffe1ee04mwts9,18,"[""Asian""]",No,Female,India,No,588338.1000000238,NA,null,<p></p>,null,choice,tc,binary,repulsion,1,washing machines,null,null,null,null,null,null,2,NA,NA,NA,NA,NA,NA,NA,NA,NA,NA
NA,NA,NA,NA,NA,choice_trial,survey-html-form,29,393030,0.0-4.0-1.12,275,1,2025-05-07T03:40:20Z,b60275e29fe2361ab97ac0ac217840d7,"Mozilla/5.0 (Macintosh; Intel Mac OS X 10_15_7) AppleWebKit/537.36 (KHTML, like Gecko) Chrome/135.0.0.0 Safari/537.36",Macintosh,Chrome,135.0.0.0,OS X,10_15_7,https://5puzkbbxv1.cognition.run/?sona_id=58175,"en-US,en;q=0.9",uoffe1ee04mwts9,18,"[""Asian""]",No,Female,India,No,588338.1000000238,NA,23682,NA,"{""product_choice"":""A""}",choice,tc,binary,repulsion,1,washing machines,null,null,null,null,null,null,2,100,90,null,30,40,null,Average lifespan,Energy savings,NA,NA
NA,NA,NA,NA,NA,choice_trial_setup,html-keyboard-response,30,393333,0.0-4.0-0.13,275,1,2025-05-07T03:40:20Z,b60275e29fe2361ab97ac0ac217840d7,"Mozilla/5.0 (Macintosh; Intel Mac OS X 10_15_7) AppleWebKit/537.36 (KHTML, like Gecko) Chrome/135.0.0.0 Safari/537.36",Macintosh,Chrome,135.0.0.0,OS X,10_15_7,https://5puzkbbxv1.cognition.run/?sona_id=58175,"en-US,en;q=0.9",uoffe1ee04mwts9,18,"[""Asian""]",No,Female,India,No,588338.1000000238,NA,null,<p></p>,null,choice,dtc,trinary,attraction,1,laptops,null,null,null,null,null,null,1,NA,NA,NA,NA,NA,NA,NA,NA,NA,NA
NA,NA,NA,NA,NA,choice_trial,survey-html-form,31,402862,0.0-4.0-1.13,275,1,2025-05-07T03:40:20Z,b60275e29fe2361ab97ac0ac217840d7,"Mozilla/5.0 (Macintosh; Intel Mac OS X 10_15_7) AppleWebKit/537.36 (KHTML, like Gecko) Chrome/135.0.0.0 Safari/537.36",Macintosh,Chrome,135.0.0.0,OS X,10_15_7,https://5puzkbbxv1.cognition.run/?sona_id=58175,"en-US,en;q=0.9",uoffe1ee04mwts9,18,"[""Asian""]",No,Female,India,No,588338.1000000238,NA,9525,NA,"{""product_choice"":""B""}",choice,dtc,trinary,attraction,1,laptops,null,null,null,null,null,null,1,60,50,60,50,60,40,Processing speed,Memory (RAM),NA,NA
NA,NA,NA,NA,NA,choice_trial_setup,html-keyboard-response,32,403165,0.0-4.0-0.14,275,1,2025-05-07T03:40:20Z,b60275e29fe2361ab97ac0ac217840d7,"Mozilla/5.0 (Macintosh; Intel Mac OS X 10_15_7) AppleWebKit/537.36 (KHTML, like Gecko) Chrome/135.0.0.0 Safari/537.36",Macintosh,Chrome,135.0.0.0,OS X,10_15_7,https://5puzkbbxv1.cognition.run/?sona_id=58175,"en-US,en;q=0.9",uoffe1ee04mwts9,18,"[""Asian""]",No,Female,India,No,588338.1000000238,NA,null,<p></p>,null,choice,dct,trinary,repulsion_B,1,televisions,null,null,null,null,null,null,1,NA,NA,NA,NA,NA,NA,NA,NA,NA,NA
NA,NA,NA,NA,NA,choice_trial,survey-html-form,33,410181,0.0-4.0-1.14,275,1,2025-05-07T03:40:20Z,b60275e29fe2361ab97ac0ac217840d7,"Mozilla/5.0 (Macintosh; Intel Mac OS X 10_15_7) AppleWebKit/537.36 (KHTML, like Gecko) Chrome/135.0.0.0 Safari/537.36",Macintosh,Chrome,135.0.0.0,OS X,10_15_7,https://5puzkbbxv1.cognition.run/?sona_id=58175,"en-US,en;q=0.9",uoffe1ee04mwts9,18,"[""Asian""]",No,Female,India,No,588338.1000000238,NA,7012,NA,"{""product_choice"":""B""}",choice,dct,trinary,repulsion_B,1,televisions,null,null,null,null,null,null,1,90,100,80,40,30,40,Screen size,Average lifespan,NA,NA
NA,NA,NA,NA,NA,choice_trial_setup,html-keyboard-response,34,410486,0.0-4.0-0.15,275,1,2025-05-07T03:40:20Z,b60275e29fe2361ab97ac0ac217840d7,"Mozilla/5.0 (Macintosh; Intel Mac OS X 10_15_7) AppleWebKit/537.36 (KHTML, like Gecko) Chrome/135.0.0.0 Safari/537.36",Macintosh,Chrome,135.0.0.0,OS X,10_15_7,https://5puzkbbxv1.cognition.run/?sona_id=58175,"en-US,en;q=0.9",uoffe1ee04mwts9,18,"[""Asian""]",No,Female,India,No,588338.1000000238,NA,null,<p></p>,null,choice,tdc,trinary,repulsion_A,1,laptops,null,null,null,null,null,null,2,NA,NA,NA,NA,NA,NA,NA,NA,NA,NA
NA,NA,NA,NA,NA,choice_trial,survey-html-form,35,416862,0.0-4.0-1.15,275,1,2025-05-07T03:40:20Z,b60275e29fe2361ab97ac0ac217840d7,"Mozilla/5.0 (Macintosh; Intel Mac OS X 10_15_7) AppleWebKit/537.36 (KHTML, like Gecko) Chrome/135.0.0.0 Safari/537.36",Macintosh,Chrome,135.0.0.0,OS X,10_15_7,https://5puzkbbxv1.cognition.run/?sona_id=58175,"en-US,en;q=0.9",uoffe1ee04mwts9,18,"[""Asian""]",No,Female,India,No,588338.1000000238,NA,6370,NA,"{""product_choice"":""A""}",choice,tdc,trinary,repulsion_A,1,laptops,null,null,null,null,null,null,2,100,90,100,30,40,20,Processing speed,Memory (RAM),NA,NA
NA,NA,NA,NA,NA,choice_trial_setup,html-keyboard-response,36,417164,0.0-4.0-0.16,275,1,2025-05-07T03:40:20Z,b60275e29fe2361ab97ac0ac217840d7,"Mozilla/5.0 (Macintosh; Intel Mac OS X 10_15_7) AppleWebKit/537.36 (KHTML, like Gecko) Chrome/135.0.0.0 Safari/537.36",Macintosh,Chrome,135.0.0.0,OS X,10_15_7,https://5puzkbbxv1.cognition.run/?sona_id=58175,"en-US,en;q=0.9",uoffe1ee04mwts9,18,"[""Asian""]",No,Female,India,No,588338.1000000238,NA,null,<p></p>,null,choice,ct,binary,attraction,NA,televisions,null,null,null,null,null,null,1,NA,NA,NA,NA,NA,NA,NA,NA,NA,NA
NA,NA,NA,NA,NA,choice_trial,survey-html-form,37,420862,0.0-4.0-1.16,275,1,2025-05-07T03:40:20Z,b60275e29fe2361ab97ac0ac217840d7,"Mozilla/5.0 (Macintosh; Intel Mac OS X 10_15_7) AppleWebKit/537.36 (KHTML, like Gecko) Chrome/135.0.0.0 Safari/537.36",Macintosh,Chrome,135.0.0.0,OS X,10_15_7,https://5puzkbbxv1.cognition.run/?sona_id=58175,"en-US,en;q=0.9",uoffe1ee04mwts9,18,"[""Asian""]",No,Female,India,No,588338.1000000238,NA,3696,NA,"{""product_choice"":""B""}",choice,ct,binary,attraction,NA,televisions,null,null,null,null,null,null,1,60,50,null,50,60,null,Screen size,Average lifespan,NA,NA
NA,NA,NA,NA,NA,choice_trial_setup,html-keyboard-response,38,421165,0.0-4.0-0.17,275,1,2025-05-07T03:40:20Z,b60275e29fe2361ab97ac0ac217840d7,"Mozilla/5.0 (Macintosh; Intel Mac OS X 10_15_7) AppleWebKit/537.36 (KHTML, like Gecko) Chrome/135.0.0.0 Safari/537.36",Macintosh,Chrome,135.0.0.0,OS X,10_15_7,https://5puzkbbxv1.cognition.run/?sona_id=58175,"en-US,en;q=0.9",uoffe1ee04mwts9,18,"[""Asian""]",No,Female,India,No,588338.1000000238,NA,null,<p></p>,null,choice,bw,binary,catch,null,televisions,55,80,15,30,null,null,2,NA,NA,NA,NA,NA,NA,NA,NA,NA,NA
NA,NA,NA,NA,NA,choice_trial,survey-html-form,39,424432,0.0-4.0-1.17,275,1,2025-05-07T03:40:20Z,b60275e29fe2361ab97ac0ac217840d7,"Mozilla/5.0 (Macintosh; Intel Mac OS X 10_15_7) AppleWebKit/537.36 (KHTML, like Gecko) Chrome/135.0.0.0 Safari/537.36",Macintosh,Chrome,135.0.0.0,OS X,10_15_7,https://5puzkbbxv1.cognition.run/?sona_id=58175,"en-US,en;q=0.9",uoffe1ee04mwts9,18,"[""Asian""]",No,Female,India,No,588338.1000000238,NA,3263,NA,"{""product_choice"":""A""}",choice,bw,binary,catch,null,televisions,55,80,15,30,null,null,2,null,null,null,null,null,null,Screen size,Average lifespan,NA,NA
NA,NA,NA,NA,NA,choice_trial_setup,html-keyboard-response,40,424735,0.0-4.0-0.18,275,1,2025-05-07T03:40:20Z,b60275e29fe2361ab97ac0ac217840d7,"Mozilla/5.0 (Macintosh; Intel Mac OS X 10_15_7) AppleWebKit/537.36 (KHTML, like Gecko) Chrome/135.0.0.0 Safari/537.36",Macintosh,Chrome,135.0.0.0,OS X,10_15_7,https://5puzkbbxv1.cognition.run/?sona_id=58175,"en-US,en;q=0.9",uoffe1ee04mwts9,18,"[""Asian""]",No,Female,India,No,588338.1000000238,NA,null,<p></p>,null,choice,tc,binary,repulsion,1,televisions,null,null,null,null,null,null,2,NA,NA,NA,NA,NA,NA,NA,NA,NA,NA
NA,NA,NA,NA,NA,choice_trial,survey-html-form,41,426974,0.0-4.0-1.18,275,1,2025-05-07T03:40:20Z,b60275e29fe2361ab97ac0ac217840d7,"Mozilla/5.0 (Macintosh; Intel Mac OS X 10_15_7) AppleWebKit/537.36 (KHTML, like Gecko) Chrome/135.0.0.0 Safari/537.36",Macintosh,Chrome,135.0.0.0,OS X,10_15_7,https://5puzkbbxv1.cognition.run/?sona_id=58175,"en-US,en;q=0.9",uoffe1ee04mwts9,18,"[""Asian""]",No,Female,India,No,588338.1000000238,NA,2234,NA,"{""product_choice"":""A""}",choice,tc,binary,repulsion,1,televisions,null,null,null,null,null,null,2,100,90,null,30,40,null,Screen size,Average lifespan,NA,NA
NA,NA,NA,NA,NA,choice_trial_setup,html-keyboard-response,42,427278,0.0-4.0-0.19,275,1,2025-05-07T03:40:20Z,b60275e29fe2361ab97ac0ac217840d7,"Mozilla/5.0 (Macintosh; Intel Mac OS X 10_15_7) AppleWebKit/537.36 (KHTML, like Gecko) Chrome/135.0.0.0 Safari/537.36",Macintosh,Chrome,135.0.0.0,OS X,10_15_7,https://5puzkbbxv1.cognition.run/?sona_id=58175,"en-US,en;q=0.9",uoffe1ee04mwts9,18,"[""Asian""]",No,Female,India,No,588338.1000000238,NA,null,<p></p>,null,choice,tcd,trinary,repulsion_B,1,microwave ovens,null,null,null,null,null,null,2,NA,NA,NA,NA,NA,NA,NA,NA,NA,NA
NA,NA,NA,NA,NA,choice_trial,survey-html-form,43,429397,0.0-4.0-1.19,275,1,2025-05-07T03:40:20Z,b60275e29fe2361ab97ac0ac217840d7,"Mozilla/5.0 (Macintosh; Intel Mac OS X 10_15_7) AppleWebKit/537.36 (KHTML, like Gecko) Chrome/135.0.0.0 Safari/537.36",Macintosh,Chrome,135.0.0.0,OS X,10_15_7,https://5puzkbbxv1.cognition.run/?sona_id=58175,"en-US,en;q=0.9",uoffe1ee04mwts9,18,"[""Asian""]",No,Female,India,No,588338.1000000238,NA,2114,NA,"{""product_choice"":""B""}",choice,tcd,trinary,repulsion_B,1,microwave ovens,null,null,null,null,null,null,2,90,100,80,40,30,40,Warranty,Cooking power,NA,NA
NA,NA,NA,NA,NA,choice_trial_setup,html-keyboard-response,44,429701,0.0-4.0-0.20,275,1,2025-05-07T03:40:20Z,b60275e29fe2361ab97ac0ac217840d7,"Mozilla/5.0 (Macintosh; Intel Mac OS X 10_15_7) AppleWebKit/537.36 (KHTML, like Gecko) Chrome/135.0.0.0 Safari/537.36",Macintosh,Chrome,135.0.0.0,OS X,10_15_7,https://5puzkbbxv1.cognition.run/?sona_id=58175,"en-US,en;q=0.9",uoffe1ee04mwts9,18,"[""Asian""]",No,Female,India,No,588338.1000000238,NA,null,<p></p>,null,choice,wbw,trinary,catch,null,laptops,90,95,50,10,35,5,2,NA,NA,NA,NA,NA,NA,NA,NA,NA,NA
NA,NA,NA,NA,NA,choice_trial,survey-html-form,45,432786,0.0-4.0-1.20,275,1,2025-05-07T03:40:20Z,b60275e29fe2361ab97ac0ac217840d7,"Mozilla/5.0 (Macintosh; Intel Mac OS X 10_15_7) AppleWebKit/537.36 (KHTML, like Gecko) Chrome/135.0.0.0 Safari/537.36",Macintosh,Chrome,135.0.0.0,OS X,10_15_7,https://5puzkbbxv1.cognition.run/?sona_id=58175,"en-US,en;q=0.9",uoffe1ee04mwts9,18,"[""Asian""]",No,Female,India,No,588338.1000000238,NA,3079,NA,"{""product_choice"":""B""}",choice,wbw,trinary,catch,null,laptops,90,95,50,10,35,5,2,null,null,null,null,null,null,Processing speed,Memory (RAM),NA,NA
NA,NA,NA,NA,NA,choice_trial_setup,html-keyboard-response,46,433089,0.0-4.0-0.21,275,1,2025-05-07T03:40:20Z,b60275e29fe2361ab97ac0ac217840d7,"Mozilla/5.0 (Macintosh; Intel Mac OS X 10_15_7) AppleWebKit/537.36 (KHTML, like Gecko) Chrome/135.0.0.0 Safari/537.36",Macintosh,Chrome,135.0.0.0,OS X,10_15_7,https://5puzkbbxv1.cognition.run/?sona_id=58175,"en-US,en;q=0.9",uoffe1ee04mwts9,18,"[""Asian""]",No,Female,India,No,588338.1000000238,NA,null,<p></p>,null,choice,tcd,trinary,repulsion_B,1,washing machines,null,null,null,null,null,null,1,NA,NA,NA,NA,NA,NA,NA,NA,NA,NA
NA,NA,NA,NA,NA,choice_trial,survey-html-form,47,435283,0.0-4.0-1.21,275,1,2025-05-07T03:40:20Z,b60275e29fe2361ab97ac0ac217840d7,"Mozilla/5.0 (Macintosh; Intel Mac OS X 10_15_7) AppleWebKit/537.36 (KHTML, like Gecko) Chrome/135.0.0.0 Safari/537.36",Macintosh,Chrome,135.0.0.0,OS X,10_15_7,https://5puzkbbxv1.cognition.run/?sona_id=58175,"en-US,en;q=0.9",uoffe1ee04mwts9,18,"[""Asian""]",No,Female,India,No,588338.1000000238,NA,2189,NA,"{""product_choice"":""B""}",choice,tcd,trinary,repulsion_B,1,washing machines,null,null,null,null,null,null,1,90,100,80,40,30,40,Average lifespan,Energy savings,NA,NA
NA,NA,NA,NA,NA,choice_trial_setup,html-keyboard-response,48,435587,0.0-4.0-0.22,275,1,2025-05-07T03:40:20Z,b60275e29fe2361ab97ac0ac217840d7,"Mozilla/5.0 (Macintosh; Intel Mac OS X 10_15_7) AppleWebKit/537.36 (KHTML, like Gecko) Chrome/135.0.0.0 Safari/537.36",Macintosh,Chrome,135.0.0.0,OS X,10_15_7,https://5puzkbbxv1.cognition.run/?sona_id=58175,"en-US,en;q=0.9",uoffe1ee04mwts9,18,"[""Asian""]",No,Female,India,No,588338.1000000238,NA,null,<p></p>,null,choice,cdt,trinary,repulsion_A,2,laptops,null,null,null,null,null,null,1,NA,NA,NA,NA,NA,NA,NA,NA,NA,NA
NA,NA,NA,NA,NA,choice_trial,survey-html-form,49,440024,0.0-4.0-1.22,275,1,2025-05-07T03:40:20Z,b60275e29fe2361ab97ac0ac217840d7,"Mozilla/5.0 (Macintosh; Intel Mac OS X 10_15_7) AppleWebKit/537.36 (KHTML, like Gecko) Chrome/135.0.0.0 Safari/537.36",Macintosh,Chrome,135.0.0.0,OS X,10_15_7,https://5puzkbbxv1.cognition.run/?sona_id=58175,"en-US,en;q=0.9",uoffe1ee04mwts9,18,"[""Asian""]",No,Female,India,No,588338.1000000238,NA,4432,NA,"{""product_choice"":""C""}",choice,cdt,trinary,repulsion_A,2,laptops,null,null,null,null,null,null,1,30,40,20,100,90,100,Processing speed,Memory (RAM),NA,NA
NA,NA,NA,NA,NA,choice_trial_setup,html-keyboard-response,50,440327,0.0-4.0-0.23,275,1,2025-05-07T03:40:20Z,b60275e29fe2361ab97ac0ac217840d7,"Mozilla/5.0 (Macintosh; Intel Mac OS X 10_15_7) AppleWebKit/537.36 (KHTML, like Gecko) Chrome/135.0.0.0 Safari/537.36",Macintosh,Chrome,135.0.0.0,OS X,10_15_7,https://5puzkbbxv1.cognition.run/?sona_id=58175,"en-US,en;q=0.9",uoffe1ee04mwts9,18,"[""Asian""]",No,Female,India,No,588338.1000000238,NA,null,<p></p>,null,choice,tc,binary,repulsion,2,televisions,null,null,null,null,null,null,1,NA,NA,NA,NA,NA,NA,NA,NA,NA,NA
NA,NA,NA,NA,NA,choice_trial,survey-html-form,51,442962,0.0-4.0-1.23,275,1,2025-05-07T03:40:20Z,b60275e29fe2361ab97ac0ac217840d7,"Mozilla/5.0 (Macintosh; Intel Mac OS X 10_15_7) AppleWebKit/537.36 (KHTML, like Gecko) Chrome/135.0.0.0 Safari/537.36",Macintosh,Chrome,135.0.0.0,OS X,10_15_7,https://5puzkbbxv1.cognition.run/?sona_id=58175,"en-US,en;q=0.9",uoffe1ee04mwts9,18,"[""Asian""]",No,Female,India,No,588338.1000000238,NA,2630,NA,"{""product_choice"":""A""}",choice,tc,binary,repulsion,2,televisions,null,null,null,null,null,null,1,30,40,null,100,90,null,Screen size,Average lifespan,NA,NA
NA,NA,NA,NA,NA,choice_trial_setup,html-keyboard-response,52,443266,0.0-4.0-0.24,275,1,2025-05-07T03:40:20Z,b60275e29fe2361ab97ac0ac217840d7,"Mozilla/5.0 (Macintosh; Intel Mac OS X 10_15_7) AppleWebKit/537.36 (KHTML, like Gecko) Chrome/135.0.0.0 Safari/537.36",Macintosh,Chrome,135.0.0.0,OS X,10_15_7,https://5puzkbbxv1.cognition.run/?sona_id=58175,"en-US,en;q=0.9",uoffe1ee04mwts9,18,"[""Asian""]",No,Female,India,No,588338.1000000238,NA,null,<p></p>,null,choice,tc,binary,attraction,NA,laptops,null,null,null,null,null,null,1,NA,NA,NA,NA,NA,NA,NA,NA,NA,NA
NA,NA,NA,NA,NA,choice_trial,survey-html-form,53,447423,0.0-4.0-1.24,275,1,2025-05-07T03:40:20Z,b60275e29fe2361ab97ac0ac217840d7,"Mozilla/5.0 (Macintosh; Intel Mac OS X 10_15_7) AppleWebKit/537.36 (KHTML, like Gecko) Chrome/135.0.0.0 Safari/537.36",Macintosh,Chrome,135.0.0.0,OS X,10_15_7,https://5puzkbbxv1.cognition.run/?sona_id=58175,"en-US,en;q=0.9",uoffe1ee04mwts9,18,"[""Asian""]",No,Female,India,No,588338.1000000238,NA,4152,NA,"{""product_choice"":""A""}",choice,tc,binary,attraction,NA,laptops,null,null,null,null,null,null,1,60,50,null,50,60,null,Processing speed,Memory (RAM),NA,NA
NA,NA,NA,NA,NA,choice_trial_setup,html-keyboard-response,54,447727,0.0-4.0-0.25,275,1,2025-05-07T03:40:20Z,b60275e29fe2361ab97ac0ac217840d7,"Mozilla/5.0 (Macintosh; Intel Mac OS X 10_15_7) AppleWebKit/537.36 (KHTML, like Gecko) Chrome/135.0.0.0 Safari/537.36",Macintosh,Chrome,135.0.0.0,OS X,10_15_7,https://5puzkbbxv1.cognition.run/?sona_id=58175,"en-US,en;q=0.9",uoffe1ee04mwts9,18,"[""Asian""]",No,Female,India,No,588338.1000000238,NA,null,<p></p>,null,choice,wwb,trinary,catch,null,microwave ovens,80,50,15,15,35,35,2,NA,NA,NA,NA,NA,NA,NA,NA,NA,NA
NA,NA,NA,NA,NA,choice_trial,survey-html-form,55,450700,0.0-4.0-1.25,275,1,2025-05-07T03:40:20Z,b60275e29fe2361ab97ac0ac217840d7,"Mozilla/5.0 (Macintosh; Intel Mac OS X 10_15_7) AppleWebKit/537.36 (KHTML, like Gecko) Chrome/135.0.0.0 Safari/537.36",Macintosh,Chrome,135.0.0.0,OS X,10_15_7,https://5puzkbbxv1.cognition.run/?sona_id=58175,"en-US,en;q=0.9",uoffe1ee04mwts9,18,"[""Asian""]",No,Female,India,No,588338.1000000238,NA,2967,NA,"{""product_choice"":""C""}",choice,wwb,trinary,catch,null,microwave ovens,80,50,15,15,35,35,2,null,null,null,null,null,null,Warranty,Cooking power,NA,NA
NA,NA,NA,NA,NA,choice_trial_setup,html-keyboard-response,56,451004,0.0-4.0-0.26,275,1,2025-05-07T03:40:20Z,b60275e29fe2361ab97ac0ac217840d7,"Mozilla/5.0 (Macintosh; Intel Mac OS X 10_15_7) AppleWebKit/537.36 (KHTML, like Gecko) Chrome/135.0.0.0 Safari/537.36",Macintosh,Chrome,135.0.0.0,OS X,10_15_7,https://5puzkbbxv1.cognition.run/?sona_id=58175,"en-US,en;q=0.9",uoffe1ee04mwts9,18,"[""Asian""]",No,Female,India,No,588338.1000000238,NA,null,<p></p>,null,choice,dtc,trinary,repulsion_B,2,laptops,null,null,null,null,null,null,1,NA,NA,NA,NA,NA,NA,NA,NA,NA,NA
NA,NA,NA,NA,NA,choice_trial,survey-html-form,57,453366,0.0-4.0-1.26,275,1,2025-05-07T03:40:20Z,b60275e29fe2361ab97ac0ac217840d7,"Mozilla/5.0 (Macintosh; Intel Mac OS X 10_15_7) AppleWebKit/537.36 (KHTML, like Gecko) Chrome/135.0.0.0 Safari/537.36",Macintosh,Chrome,135.0.0.0,OS X,10_15_7,https://5puzkbbxv1.cognition.run/?sona_id=58175,"en-US,en;q=0.9",uoffe1ee04mwts9,18,"[""Asian""]",No,Female,India,No,588338.1000000238,NA,2358,NA,"{""product_choice"":""C""}",choice,dtc,trinary,repulsion_B,2,laptops,null,null,null,null,null,null,1,40,30,40,90,100,80,Processing speed,Memory (RAM),NA,NA
NA,NA,NA,NA,NA,choice_trial_setup,html-keyboard-response,58,453669,0.0-4.0-0.27,275,1,2025-05-07T03:40:20Z,b60275e29fe2361ab97ac0ac217840d7,"Mozilla/5.0 (Macintosh; Intel Mac OS X 10_15_7) AppleWebKit/537.36 (KHTML, like Gecko) Chrome/135.0.0.0 Safari/537.36",Macintosh,Chrome,135.0.0.0,OS X,10_15_7,https://5puzkbbxv1.cognition.run/?sona_id=58175,"en-US,en;q=0.9",uoffe1ee04mwts9,18,"[""Asian""]",No,Female,India,No,588338.1000000238,NA,null,<p></p>,null,choice,ctd,trinary,repulsion_A,1,televisions,null,null,null,null,null,null,1,NA,NA,NA,NA,NA,NA,NA,NA,NA,NA
NA,NA,NA,NA,NA,choice_trial,survey-html-form,59,456174,0.0-4.0-1.27,275,1,2025-05-07T03:40:20Z,b60275e29fe2361ab97ac0ac217840d7,"Mozilla/5.0 (Macintosh; Intel Mac OS X 10_15_7) AppleWebKit/537.36 (KHTML, like Gecko) Chrome/135.0.0.0 Safari/537.36",Macintosh,Chrome,135.0.0.0,OS X,10_15_7,https://5puzkbbxv1.cognition.run/?sona_id=58175,"en-US,en;q=0.9",uoffe1ee04mwts9,18,"[""Asian""]",No,Female,India,No,588338.1000000238,NA,2499,NA,"{""product_choice"":""B""}",choice,ctd,trinary,repulsion_A,1,televisions,null,null,null,null,null,null,1,100,90,100,30,40,20,Screen size,Average lifespan,NA,NA
NA,NA,NA,NA,NA,choice_trial_setup,html-keyboard-response,60,456478,0.0-4.0-0.28,275,1,2025-05-07T03:40:20Z,b60275e29fe2361ab97ac0ac217840d7,"Mozilla/5.0 (Macintosh; Intel Mac OS X 10_15_7) AppleWebKit/537.36 (KHTML, like Gecko) Chrome/135.0.0.0 Safari/537.36",Macintosh,Chrome,135.0.0.0,OS X,10_15_7,https://5puzkbbxv1.cognition.run/?sona_id=58175,"en-US,en;q=0.9",uoffe1ee04mwts9,18,"[""Asian""]",No,Female,India,No,588338.1000000238,NA,null,<p></p>,null,choice,dtc,trinary,repulsion_A,2,televisions,null,null,null,null,null,null,1,NA,NA,NA,NA,NA,NA,NA,NA,NA,NA
NA,NA,NA,NA,NA,choice_trial,survey-html-form,61,458919,0.0-4.0-1.28,275,1,2025-05-07T03:40:20Z,b60275e29fe2361ab97ac0ac217840d7,"Mozilla/5.0 (Macintosh; Intel Mac OS X 10_15_7) AppleWebKit/537.36 (KHTML, like Gecko) Chrome/135.0.0.0 Safari/537.36",Macintosh,Chrome,135.0.0.0,OS X,10_15_7,https://5puzkbbxv1.cognition.run/?sona_id=58175,"en-US,en;q=0.9",uoffe1ee04mwts9,18,"[""Asian""]",No,Female,India,No,588338.1000000238,NA,2434,NA,"{""product_choice"":""B""}",choice,dtc,trinary,repulsion_A,2,televisions,null,null,null,null,null,null,1,30,40,20,100,90,100,Screen size,Average lifespan,NA,NA
NA,NA,NA,NA,NA,choice_trial_setup,html-keyboard-response,62,459223,0.0-4.0-0.29,275,1,2025-05-07T03:40:20Z,b60275e29fe2361ab97ac0ac217840d7,"Mozilla/5.0 (Macintosh; Intel Mac OS X 10_15_7) AppleWebKit/537.36 (KHTML, like Gecko) Chrome/135.0.0.0 Safari/537.36",Macintosh,Chrome,135.0.0.0,OS X,10_15_7,https://5puzkbbxv1.cognition.run/?sona_id=58175,"en-US,en;q=0.9",uoffe1ee04mwts9,18,"[""Asian""]",No,Female,India,No,588338.1000000238,NA,null,<p></p>,null,choice,tc,binary,repulsion,2,microwave ovens,null,null,null,null,null,null,2,NA,NA,NA,NA,NA,NA,NA,NA,NA,NA
NA,NA,NA,NA,NA,choice_trial,survey-html-form,63,461093,0.0-4.0-1.29,275,1,2025-05-07T03:40:20Z,b60275e29fe2361ab97ac0ac217840d7,"Mozilla/5.0 (Macintosh; Intel Mac OS X 10_15_7) AppleWebKit/537.36 (KHTML, like Gecko) Chrome/135.0.0.0 Safari/537.36",Macintosh,Chrome,135.0.0.0,OS X,10_15_7,https://5puzkbbxv1.cognition.run/?sona_id=58175,"en-US,en;q=0.9",uoffe1ee04mwts9,18,"[""Asian""]",No,Female,India,No,588338.1000000238,NA,1864,NA,"{""product_choice"":""A""}",choice,tc,binary,repulsion,2,microwave ovens,null,null,null,null,null,null,2,30,40,null,100,90,null,Warranty,Cooking power,NA,NA
NA,NA,NA,NA,NA,choice_trial_setup,html-keyboard-response,64,461396,0.0-4.0-0.30,275,1,2025-05-07T03:40:20Z,b60275e29fe2361ab97ac0ac217840d7,"Mozilla/5.0 (Macintosh; Intel Mac OS X 10_15_7) AppleWebKit/537.36 (KHTML, like Gecko) Chrome/135.0.0.0 Safari/537.36",Macintosh,Chrome,135.0.0.0,OS X,10_15_7,https://5puzkbbxv1.cognition.run/?sona_id=58175,"en-US,en;q=0.9",uoffe1ee04mwts9,18,"[""Asian""]",No,Female,India,No,588338.1000000238,NA,null,<p></p>,null,choice,bw,binary,catch,null,microwave ovens,70,50,50,40,null,null,1,NA,NA,NA,NA,NA,NA,NA,NA,NA,NA
NA,NA,NA,NA,NA,choice_trial,survey-html-form,65,464233,0.0-4.0-1.30,275,1,2025-05-07T03:40:20Z,b60275e29fe2361ab97ac0ac217840d7,"Mozilla/5.0 (Macintosh; Intel Mac OS X 10_15_7) AppleWebKit/537.36 (KHTML, like Gecko) Chrome/135.0.0.0 Safari/537.36",Macintosh,Chrome,135.0.0.0,OS X,10_15_7,https://5puzkbbxv1.cognition.run/?sona_id=58175,"en-US,en;q=0.9",uoffe1ee04mwts9,18,"[""Asian""]",No,Female,India,No,588338.1000000238,NA,2831,NA,"{""product_choice"":""A""}",choice,bw,binary,catch,null,microwave ovens,70,50,50,40,null,null,1,null,null,null,null,null,null,Warranty,Cooking power,NA,NA
NA,NA,NA,NA,NA,choice_trial_setup,html-keyboard-response,66,464537,0.0-4.0-0.31,275,1,2025-05-07T03:40:20Z,b60275e29fe2361ab97ac0ac217840d7,"Mozilla/5.0 (Macintosh; Intel Mac OS X 10_15_7) AppleWebKit/537.36 (KHTML, like Gecko) Chrome/135.0.0.0 Safari/537.36",Macintosh,Chrome,135.0.0.0,OS X,10_15_7,https://5puzkbbxv1.cognition.run/?sona_id=58175,"en-US,en;q=0.9",uoffe1ee04mwts9,18,"[""Asian""]",No,Female,India,No,588338.1000000238,NA,null,<p></p>,null,choice,tc,binary,repulsion,1,microwave ovens,null,null,null,null,null,null,2,NA,NA,NA,NA,NA,NA,NA,NA,NA,NA
NA,NA,NA,NA,NA,choice_trial,survey-html-form,67,466680,0.0-4.0-1.31,275,1,2025-05-07T03:40:20Z,b60275e29fe2361ab97ac0ac217840d7,"Mozilla/5.0 (Macintosh; Intel Mac OS X 10_15_7) AppleWebKit/537.36 (KHTML, like Gecko) Chrome/135.0.0.0 Safari/537.36",Macintosh,Chrome,135.0.0.0,OS X,10_15_7,https://5puzkbbxv1.cognition.run/?sona_id=58175,"en-US,en;q=0.9",uoffe1ee04mwts9,18,"[""Asian""]",No,Female,India,No,588338.1000000238,NA,2138,NA,"{""product_choice"":""A""}",choice,tc,binary,repulsion,1,microwave ovens,null,null,null,null,null,null,2,100,90,null,30,40,null,Warranty,Cooking power,NA,NA
NA,NA,NA,NA,NA,choice_trial_setup,html-keyboard-response,68,466983,0.0-4.0-0.32,275,1,2025-05-07T03:40:20Z,b60275e29fe2361ab97ac0ac217840d7,"Mozilla/5.0 (Macintosh; Intel Mac OS X 10_15_7) AppleWebKit/537.36 (KHTML, like Gecko) Chrome/135.0.0.0 Safari/537.36",Macintosh,Chrome,135.0.0.0,OS X,10_15_7,https://5puzkbbxv1.cognition.run/?sona_id=58175,"en-US,en;q=0.9",uoffe1ee04mwts9,18,"[""Asian""]",No,Female,India,No,588338.1000000238,NA,null,<p></p>,null,choice,cdt,trinary,repulsion_A,2,microwave ovens,null,null,null,null,null,null,2,NA,NA,NA,NA,NA,NA,NA,NA,NA,NA
NA,NA,NA,NA,NA,choice_trial,survey-html-form,69,469635,0.0-4.0-1.32,275,1,2025-05-07T03:40:20Z,b60275e29fe2361ab97ac0ac217840d7,"Mozilla/5.0 (Macintosh; Intel Mac OS X 10_15_7) AppleWebKit/537.36 (KHTML, like Gecko) Chrome/135.0.0.0 Safari/537.36",Macintosh,Chrome,135.0.0.0,OS X,10_15_7,https://5puzkbbxv1.cognition.run/?sona_id=58175,"en-US,en;q=0.9",uoffe1ee04mwts9,18,"[""Asian""]",No,Female,India,No,588338.1000000238,NA,2647,NA,"{""product_choice"":""C""}",choice,cdt,trinary,repulsion_A,2,microwave ovens,null,null,null,null,null,null,2,30,40,20,100,90,100,Warranty,Cooking power,NA,NA
NA,NA,NA,NA,NA,choice_trial_setup,html-keyboard-response,70,469940,0.0-4.0-0.33,275,1,2025-05-07T03:40:20Z,b60275e29fe2361ab97ac0ac217840d7,"Mozilla/5.0 (Macintosh; Intel Mac OS X 10_15_7) AppleWebKit/537.36 (KHTML, like Gecko) Chrome/135.0.0.0 Safari/537.36",Macintosh,Chrome,135.0.0.0,OS X,10_15_7,https://5puzkbbxv1.cognition.run/?sona_id=58175,"en-US,en;q=0.9",uoffe1ee04mwts9,18,"[""Asian""]",No,Female,India,No,588338.1000000238,NA,null,<p></p>,null,choice,wwb,trinary,catch,null,televisions,75,75,50,15,5,10,2,NA,NA,NA,NA,NA,NA,NA,NA,NA,NA
NA,NA,NA,NA,NA,choice_trial,survey-html-form,71,472355,0.0-4.0-1.33,275,1,2025-05-07T03:40:20Z,b60275e29fe2361ab97ac0ac217840d7,"Mozilla/5.0 (Macintosh; Intel Mac OS X 10_15_7) AppleWebKit/537.36 (KHTML, like Gecko) Chrome/135.0.0.0 Safari/537.36",Macintosh,Chrome,135.0.0.0,OS X,10_15_7,https://5puzkbbxv1.cognition.run/?sona_id=58175,"en-US,en;q=0.9",uoffe1ee04mwts9,18,"[""Asian""]",No,Female,India,No,588338.1000000238,NA,2410,NA,"{""product_choice"":""C""}",choice,wwb,trinary,catch,null,televisions,75,75,50,15,5,10,2,null,null,null,null,null,null,Screen size,Average lifespan,NA,NA
NA,NA,NA,NA,NA,choice_trial_setup,html-keyboard-response,72,472660,0.0-4.0-0.34,275,1,2025-05-07T03:40:20Z,b60275e29fe2361ab97ac0ac217840d7,"Mozilla/5.0 (Macintosh; Intel Mac OS X 10_15_7) AppleWebKit/537.36 (KHTML, like Gecko) Chrome/135.0.0.0 Safari/537.36",Macintosh,Chrome,135.0.0.0,OS X,10_15_7,https://5puzkbbxv1.cognition.run/?sona_id=58175,"en-US,en;q=0.9",uoffe1ee04mwts9,18,"[""Asian""]",No,Female,India,No,588338.1000000238,NA,null,<p></p>,null,choice,cdt,trinary,repulsion_B,2,washing machines,null,null,null,null,null,null,1,NA,NA,NA,NA,NA,NA,NA,NA,NA,NA
NA,NA,NA,NA,NA,choice_trial,survey-html-form,73,475302,0.0-4.0-1.34,275,1,2025-05-07T03:40:20Z,b60275e29fe2361ab97ac0ac217840d7,"Mozilla/5.0 (Macintosh; Intel Mac OS X 10_15_7) AppleWebKit/537.36 (KHTML, like Gecko) Chrome/135.0.0.0 Safari/537.36",Macintosh,Chrome,135.0.0.0,OS X,10_15_7,https://5puzkbbxv1.cognition.run/?sona_id=58175,"en-US,en;q=0.9",uoffe1ee04mwts9,18,"[""Asian""]",No,Female,India,No,588338.1000000238,NA,2636,NA,"{""product_choice"":""A""}",choice,cdt,trinary,repulsion_B,2,washing machines,null,null,null,null,null,null,1,40,30,40,90,100,80,Average lifespan,Energy savings,NA,NA
NA,NA,NA,NA,NA,choice_trial_setup,html-keyboard-response,74,475605,0.0-4.0-0.35,275,1,2025-05-07T03:40:20Z,b60275e29fe2361ab97ac0ac217840d7,"Mozilla/5.0 (Macintosh; Intel Mac OS X 10_15_7) AppleWebKit/537.36 (KHTML, like Gecko) Chrome/135.0.0.0 Safari/537.36",Macintosh,Chrome,135.0.0.0,OS X,10_15_7,https://5puzkbbxv1.cognition.run/?sona_id=58175,"en-US,en;q=0.9",uoffe1ee04mwts9,18,"[""Asian""]",No,Female,India,No,588338.1000000238,NA,null,<p></p>,null,choice,tdc,trinary,attraction,2,washing machines,null,null,null,null,null,null,2,NA,NA,NA,NA,NA,NA,NA,NA,NA,NA
NA,NA,NA,NA,NA,choice_trial,survey-html-form,75,478338,0.0-4.0-1.35,275,1,2025-05-07T03:40:20Z,b60275e29fe2361ab97ac0ac217840d7,"Mozilla/5.0 (Macintosh; Intel Mac OS X 10_15_7) AppleWebKit/537.36 (KHTML, like Gecko) Chrome/135.0.0.0 Safari/537.36",Macintosh,Chrome,135.0.0.0,OS X,10_15_7,https://5puzkbbxv1.cognition.run/?sona_id=58175,"en-US,en;q=0.9",uoffe1ee04mwts9,18,"[""Asian""]",No,Female,India,No,588338.1000000238,NA,2729,NA,"{""product_choice"":""A""}",choice,tdc,trinary,attraction,2,washing machines,null,null,null,null,null,null,2,50,60,40,60,50,60,Average lifespan,Energy savings,NA,NA
NA,NA,NA,NA,NA,choice_trial_setup,html-keyboard-response,76,478643,0.0-4.0-0.36,275,1,2025-05-07T03:40:20Z,b60275e29fe2361ab97ac0ac217840d7,"Mozilla/5.0 (Macintosh; Intel Mac OS X 10_15_7) AppleWebKit/537.36 (KHTML, like Gecko) Chrome/135.0.0.0 Safari/537.36",Macintosh,Chrome,135.0.0.0,OS X,10_15_7,https://5puzkbbxv1.cognition.run/?sona_id=58175,"en-US,en;q=0.9",uoffe1ee04mwts9,18,"[""Asian""]",No,Female,India,No,588338.1000000238,NA,null,<p></p>,null,choice,ctd,trinary,attraction,1,microwave ovens,null,null,null,null,null,null,2,NA,NA,NA,NA,NA,NA,NA,NA,NA,NA
NA,NA,NA,NA,NA,choice_trial,survey-html-form,77,481196,0.0-4.0-1.36,275,1,2025-05-07T03:40:20Z,b60275e29fe2361ab97ac0ac217840d7,"Mozilla/5.0 (Macintosh; Intel Mac OS X 10_15_7) AppleWebKit/537.36 (KHTML, like Gecko) Chrome/135.0.0.0 Safari/537.36",Macintosh,Chrome,135.0.0.0,OS X,10_15_7,https://5puzkbbxv1.cognition.run/?sona_id=58175,"en-US,en;q=0.9",uoffe1ee04mwts9,18,"[""Asian""]",No,Female,India,No,588338.1000000238,NA,2547,NA,"{""product_choice"":""A""}",choice,ctd,trinary,attraction,1,microwave ovens,null,null,null,null,null,null,2,60,50,60,50,60,40,Warranty,Cooking power,NA,NA
NA,NA,NA,NA,NA,choice_trial_setup,html-keyboard-response,78,481501,0.0-4.0-0.37,275,1,2025-05-07T03:40:20Z,b60275e29fe2361ab97ac0ac217840d7,"Mozilla/5.0 (Macintosh; Intel Mac OS X 10_15_7) AppleWebKit/537.36 (KHTML, like Gecko) Chrome/135.0.0.0 Safari/537.36",Macintosh,Chrome,135.0.0.0,OS X,10_15_7,https://5puzkbbxv1.cognition.run/?sona_id=58175,"en-US,en;q=0.9",uoffe1ee04mwts9,18,"[""Asian""]",No,Female,India,No,588338.1000000238,NA,null,<p></p>,null,choice,tdc,trinary,repulsion_A,2,washing machines,null,null,null,null,null,null,1,NA,NA,NA,NA,NA,NA,NA,NA,NA,NA
NA,NA,NA,NA,NA,choice_trial,survey-html-form,79,485052,0.0-4.0-1.37,275,1,2025-05-07T03:40:20Z,b60275e29fe2361ab97ac0ac217840d7,"Mozilla/5.0 (Macintosh; Intel Mac OS X 10_15_7) AppleWebKit/537.36 (KHTML, like Gecko) Chrome/135.0.0.0 Safari/537.36",Macintosh,Chrome,135.0.0.0,OS X,10_15_7,https://5puzkbbxv1.cognition.run/?sona_id=58175,"en-US,en;q=0.9",uoffe1ee04mwts9,18,"[""Asian""]",No,Female,India,No,588338.1000000238,NA,3546,NA,"{""product_choice"":""A""}",choice,tdc,trinary,repulsion_A,2,washing machines,null,null,null,null,null,null,1,30,40,20,100,90,100,Average lifespan,Energy savings,NA,NA
NA,NA,NA,NA,NA,choice_trial_setup,html-keyboard-response,80,485356,0.0-4.0-0.38,275,1,2025-05-07T03:40:20Z,b60275e29fe2361ab97ac0ac217840d7,"Mozilla/5.0 (Macintosh; Intel Mac OS X 10_15_7) AppleWebKit/537.36 (KHTML, like Gecko) Chrome/135.0.0.0 Safari/537.36",Macintosh,Chrome,135.0.0.0,OS X,10_15_7,https://5puzkbbxv1.cognition.run/?sona_id=58175,"en-US,en;q=0.9",uoffe1ee04mwts9,18,"[""Asian""]",No,Female,India,No,588338.1000000238,NA,null,<p></p>,null,choice,dct,trinary,repulsion_B,1,laptops,null,null,null,null,null,null,2,NA,NA,NA,NA,NA,NA,NA,NA,NA,NA
NA,NA,NA,NA,NA,choice_trial,survey-html-form,81,487974,0.0-4.0-1.38,275,1,2025-05-07T03:40:20Z,b60275e29fe2361ab97ac0ac217840d7,"Mozilla/5.0 (Macintosh; Intel Mac OS X 10_15_7) AppleWebKit/537.36 (KHTML, like Gecko) Chrome/135.0.0.0 Safari/537.36",Macintosh,Chrome,135.0.0.0,OS X,10_15_7,https://5puzkbbxv1.cognition.run/?sona_id=58175,"en-US,en;q=0.9",uoffe1ee04mwts9,18,"[""Asian""]",No,Female,India,No,588338.1000000238,NA,2613,NA,"{""product_choice"":""B""}",choice,dct,trinary,repulsion_B,1,laptops,null,null,null,null,null,null,2,90,100,80,40,30,40,Processing speed,Memory (RAM),NA,NA
NA,NA,NA,NA,NA,choice_trial_setup,html-keyboard-response,82,488278,0.0-4.0-0.39,275,1,2025-05-07T03:40:20Z,b60275e29fe2361ab97ac0ac217840d7,"Mozilla/5.0 (Macintosh; Intel Mac OS X 10_15_7) AppleWebKit/537.36 (KHTML, like Gecko) Chrome/135.0.0.0 Safari/537.36",Macintosh,Chrome,135.0.0.0,OS X,10_15_7,https://5puzkbbxv1.cognition.run/?sona_id=58175,"en-US,en;q=0.9",uoffe1ee04mwts9,18,"[""Asian""]",No,Female,India,No,588338.1000000238,NA,null,<p></p>,null,choice,ct,binary,repulsion,2,laptops,null,null,null,null,null,null,2,NA,NA,NA,NA,NA,NA,NA,NA,NA,NA
NA,NA,NA,NA,NA,choice_trial,survey-html-form,83,490510,0.0-4.0-1.39,275,1,2025-05-07T03:40:20Z,b60275e29fe2361ab97ac0ac217840d7,"Mozilla/5.0 (Macintosh; Intel Mac OS X 10_15_7) AppleWebKit/537.36 (KHTML, like Gecko) Chrome/135.0.0.0 Safari/537.36",Macintosh,Chrome,135.0.0.0,OS X,10_15_7,https://5puzkbbxv1.cognition.run/?sona_id=58175,"en-US,en;q=0.9",uoffe1ee04mwts9,18,"[""Asian""]",No,Female,India,No,588338.1000000238,NA,2225,NA,"{""product_choice"":""B""}",choice,ct,binary,repulsion,2,laptops,null,null,null,null,null,null,2,30,40,null,100,90,null,Processing speed,Memory (RAM),NA,NA
NA,NA,NA,NA,NA,choice_trial_setup,html-keyboard-response,84,490814,0.0-4.0-0.40,275,1,2025-05-07T03:40:20Z,b60275e29fe2361ab97ac0ac217840d7,"Mozilla/5.0 (Macintosh; Intel Mac OS X 10_15_7) AppleWebKit/537.36 (KHTML, like Gecko) Chrome/135.0.0.0 Safari/537.36",Macintosh,Chrome,135.0.0.0,OS X,10_15_7,https://5puzkbbxv1.cognition.run/?sona_id=58175,"en-US,en;q=0.9",uoffe1ee04mwts9,18,"[""Asian""]",No,Female,India,No,588338.1000000238,NA,null,<p></p>,null,choice,wb,binary,catch,null,laptops,60,55,40,40,null,null,1,NA,NA,NA,NA,NA,NA,NA,NA,NA,NA
NA,NA,NA,NA,NA,choice_trial,survey-html-form,85,493070,0.0-4.0-1.40,275,1,2025-05-07T03:40:20Z,b60275e29fe2361ab97ac0ac217840d7,"Mozilla/5.0 (Macintosh; Intel Mac OS X 10_15_7) AppleWebKit/537.36 (KHTML, like Gecko) Chrome/135.0.0.0 Safari/537.36",Macintosh,Chrome,135.0.0.0,OS X,10_15_7,https://5puzkbbxv1.cognition.run/?sona_id=58175,"en-US,en;q=0.9",uoffe1ee04mwts9,18,"[""Asian""]",No,Female,India,No,588338.1000000238,NA,2250,NA,"{""product_choice"":""B""}",choice,wb,binary,catch,null,laptops,60,55,40,40,null,null,1,null,null,null,null,null,null,Processing speed,Memory (RAM),NA,NA
NA,NA,NA,NA,NA,choice_trial_setup,html-keyboard-response,86,493375,0.0-4.0-0.41,275,1,2025-05-07T03:40:20Z,b60275e29fe2361ab97ac0ac217840d7,"Mozilla/5.0 (Macintosh; Intel Mac OS X 10_15_7) AppleWebKit/537.36 (KHTML, like Gecko) Chrome/135.0.0.0 Safari/537.36",Macintosh,Chrome,135.0.0.0,OS X,10_15_7,https://5puzkbbxv1.cognition.run/?sona_id=58175,"en-US,en;q=0.9",uoffe1ee04mwts9,18,"[""Asian""]",No,Female,India,No,588338.1000000238,NA,null,<p></p>,null,choice,tdc,trinary,attraction,2,microwave ovens,null,null,null,null,null,null,1,NA,NA,NA,NA,NA,NA,NA,NA,NA,NA
NA,NA,NA,NA,NA,choice_trial,survey-html-form,87,496314,0.0-4.0-1.41,275,1,2025-05-07T03:40:20Z,b60275e29fe2361ab97ac0ac217840d7,"Mozilla/5.0 (Macintosh; Intel Mac OS X 10_15_7) AppleWebKit/537.36 (KHTML, like Gecko) Chrome/135.0.0.0 Safari/537.36",Macintosh,Chrome,135.0.0.0,OS X,10_15_7,https://5puzkbbxv1.cognition.run/?sona_id=58175,"en-US,en;q=0.9",uoffe1ee04mwts9,18,"[""Asian""]",No,Female,India,No,588338.1000000238,NA,2934,NA,"{""product_choice"":""C""}",choice,tdc,trinary,attraction,2,microwave ovens,null,null,null,null,null,null,1,50,60,40,60,50,60,Warranty,Cooking power,NA,NA
NA,NA,NA,NA,NA,choice_trial_setup,html-keyboard-response,88,496619,0.0-4.0-0.42,275,1,2025-05-07T03:40:20Z,b60275e29fe2361ab97ac0ac217840d7,"Mozilla/5.0 (Macintosh; Intel Mac OS X 10_15_7) AppleWebKit/537.36 (KHTML, like Gecko) Chrome/135.0.0.0 Safari/537.36",Macintosh,Chrome,135.0.0.0,OS X,10_15_7,https://5puzkbbxv1.cognition.run/?sona_id=58175,"en-US,en;q=0.9",uoffe1ee04mwts9,18,"[""Asian""]",No,Female,India,No,588338.1000000238,NA,null,<p></p>,null,choice,dct,trinary,repulsion_A,1,microwave ovens,null,null,null,null,null,null,2,NA,NA,NA,NA,NA,NA,NA,NA,NA,NA
NA,NA,NA,NA,NA,choice_trial,survey-html-form,89,500177,0.0-4.0-1.42,275,1,2025-05-07T03:40:20Z,b60275e29fe2361ab97ac0ac217840d7,"Mozilla/5.0 (Macintosh; Intel Mac OS X 10_15_7) AppleWebKit/537.36 (KHTML, like Gecko) Chrome/135.0.0.0 Safari/537.36",Macintosh,Chrome,135.0.0.0,OS X,10_15_7,https://5puzkbbxv1.cognition.run/?sona_id=58175,"en-US,en;q=0.9",uoffe1ee04mwts9,18,"[""Asian""]",No,Female,India,No,588338.1000000238,NA,3553,NA,"{""product_choice"":""C""}",choice,dct,trinary,repulsion_A,1,microwave ovens,null,null,null,null,null,null,2,100,90,100,30,40,20,Warranty,Cooking power,NA,NA
NA,NA,NA,NA,NA,choice_trial_setup,html-keyboard-response,90,500483,0.0-4.0-0.43,275,1,2025-05-07T03:40:20Z,b60275e29fe2361ab97ac0ac217840d7,"Mozilla/5.0 (Macintosh; Intel Mac OS X 10_15_7) AppleWebKit/537.36 (KHTML, like Gecko) Chrome/135.0.0.0 Safari/537.36",Macintosh,Chrome,135.0.0.0,OS X,10_15_7,https://5puzkbbxv1.cognition.run/?sona_id=58175,"en-US,en;q=0.9",uoffe1ee04mwts9,18,"[""Asian""]",No,Female,India,No,588338.1000000238,NA,null,<p></p>,null,choice,ctd,trinary,repulsion_B,2,televisions,null,null,null,null,null,null,1,NA,NA,NA,NA,NA,NA,NA,NA,NA,NA
NA,NA,NA,NA,NA,choice_trial,survey-html-form,91,502617,0.0-4.0-1.43,275,1,2025-05-07T03:40:20Z,b60275e29fe2361ab97ac0ac217840d7,"Mozilla/5.0 (Macintosh; Intel Mac OS X 10_15_7) AppleWebKit/537.36 (KHTML, like Gecko) Chrome/135.0.0.0 Safari/537.36",Macintosh,Chrome,135.0.0.0,OS X,10_15_7,https://5puzkbbxv1.cognition.run/?sona_id=58175,"en-US,en;q=0.9",uoffe1ee04mwts9,18,"[""Asian""]",No,Female,India,No,588338.1000000238,NA,2127,NA,"{""product_choice"":""A""}",choice,ctd,trinary,repulsion_B,2,televisions,null,null,null,null,null,null,1,40,30,40,90,100,80,Screen size,Average lifespan,NA,NA
NA,NA,NA,NA,NA,post_trials_message,html-button-response,92,503946,0.0-5.0,275,1,2025-05-07T03:40:20Z,b60275e29fe2361ab97ac0ac217840d7,"Mozilla/5.0 (Macintosh; Intel Mac OS X 10_15_7) AppleWebKit/537.36 (KHTML, like Gecko) Chrome/135.0.0.0 Safari/537.36",Macintosh,Chrome,135.0.0.0,OS X,10_15_7,https://5puzkbbxv1.cognition.run/?sona_id=58175,"en-US,en;q=0.9",uoffe1ee04mwts9,18,"[""Asian""]",No,Female,India,No,588338.1000000238,NA,1324,<p> <b>Thank you for your patience!</b></p><p>  The study will be done after completing a brief form. </p>,0,NA,NA,NA,NA,NA,NA,NA,NA,NA,NA,NA,NA,NA,NA,NA,NA,NA,NA,NA,NA,NA,NA,NA
NA,NA,NA,NA,NA,survey_message,survey-text,93,558352,0.0-6.0,275,1,2025-05-07T03:40:20Z,b60275e29fe2361ab97ac0ac217840d7,"Mozilla/5.0 (Macintosh; Intel Mac OS X 10_15_7) AppleWebKit/537.36 (KHTML, like Gecko) Chrome/135.0.0.0 Safari/537.36",Macintosh,Chrome,135.0.0.0,OS X,10_15_7,https://5puzkbbxv1.cognition.run/?sona_id=58175,"en-US,en;q=0.9",uoffe1ee04mwts9,18,"[""Asian""]",No,Female,India,No,588338.1000000238,NA,54400,NA,"{""Q0"":""i just chose whichever one had a higher total. if they both had the same total i thought about whichever one i would prefer to be better. example- id rather have a faster processing speed than a higher ram""}",NA,NA,NA,NA,NA,NA,NA,NA,NA,NA,NA,NA,NA,NA,NA,NA,NA,NA,NA,NA,NA,i just chose whichever one had a higher total. if they both had the same total i thought about whichever one i would prefer to be better. example- id rather have a faster processing speed than a higher ram,NA
NA,NA,NA,NA,NA,demo_age,survey-text,94,562522,0.0-7.0,275,1,2025-05-07T03:40:20Z,b60275e29fe2361ab97ac0ac217840d7,"Mozilla/5.0 (Macintosh; Intel Mac OS X 10_15_7) AppleWebKit/537.36 (KHTML, like Gecko) Chrome/135.0.0.0 Safari/537.36",Macintosh,Chrome,135.0.0.0,OS X,10_15_7,https://5puzkbbxv1.cognition.run/?sona_id=58175,"en-US,en;q=0.9",uoffe1ee04mwts9,18,"[""Asian""]",No,Female,India,No,588338.1000000238,NA,4165,NA,"{""Q0"":""18""}",NA,NA,NA,NA,NA,NA,NA,NA,NA,NA,NA,NA,NA,NA,NA,NA,NA,NA,NA,NA,NA,NA,NA
NA,NA,NA,NA,NA,demo_race,survey-multi-select,95,567077,0.0-8.0,275,1,2025-05-07T03:40:20Z,b60275e29fe2361ab97ac0ac217840d7,"Mozilla/5.0 (Macintosh; Intel Mac OS X 10_15_7) AppleWebKit/537.36 (KHTML, like Gecko) Chrome/135.0.0.0 Safari/537.36",Macintosh,Chrome,135.0.0.0,OS X,10_15_7,https://5puzkbbxv1.cognition.run/?sona_id=58175,"en-US,en;q=0.9",uoffe1ee04mwts9,18,"[""Asian""]",No,Female,India,No,588338.1000000238,NA,4546,NA,"{""Q0"":[""Asian""]}",NA,NA,NA,NA,NA,NA,NA,NA,NA,NA,NA,NA,NA,NA,NA,NA,NA,NA,NA,NA,NA,NA,[0]
NA,NA,NA,NA,NA,demo_ethnicity_gender,survey-multi-choice,96,570506,0.0-9.0,275,1,2025-05-07T03:40:20Z,b60275e29fe2361ab97ac0ac217840d7,"Mozilla/5.0 (Macintosh; Intel Mac OS X 10_15_7) AppleWebKit/537.36 (KHTML, like Gecko) Chrome/135.0.0.0 Safari/537.36",Macintosh,Chrome,135.0.0.0,OS X,10_15_7,https://5puzkbbxv1.cognition.run/?sona_id=58175,"en-US,en;q=0.9",uoffe1ee04mwts9,18,"[""Asian""]",No,Female,India,No,588338.1000000238,NA,3424,NA,"{""Q0"":""No"",""Q1"":""Female""}",NA,NA,NA,NA,NA,NA,NA,NA,NA,NA,NA,NA,NA,NA,NA,NA,NA,NA,NA,NA,NA,NA,"[0,1]"
NA,NA,NA,NA,NA,demo_countries,survey-text,97,576425,0.0-10.0,275,1,2025-05-07T03:40:20Z,b60275e29fe2361ab97ac0ac217840d7,"Mozilla/5.0 (Macintosh; Intel Mac OS X 10_15_7) AppleWebKit/537.36 (KHTML, like Gecko) Chrome/135.0.0.0 Safari/537.36",Macintosh,Chrome,135.0.0.0,OS X,10_15_7,https://5puzkbbxv1.cognition.run/?sona_id=58175,"en-US,en;q=0.9",uoffe1ee04mwts9,18,"[""Asian""]",No,Female,India,No,588338.1000000238,NA,5904,NA,"{""Q0"":""India""}",NA,NA,NA,NA,NA,NA,NA,NA,NA,NA,NA,NA,NA,NA,NA,NA,NA,NA,NA,NA,NA,NA,NA
NA,NA,NA,NA,NA,demo_prev_study,survey-multi-choice,98,580305,0.0-11.0,275,1,2025-05-07T03:40:20Z,b60275e29fe2361ab97ac0ac217840d7,"Mozilla/5.0 (Macintosh; Intel Mac OS X 10_15_7) AppleWebKit/537.36 (KHTML, like Gecko) Chrome/135.0.0.0 Safari/537.36",Macintosh,Chrome,135.0.0.0,OS X,10_15_7,https://5puzkbbxv1.cognition.run/?sona_id=58175,"en-US,en;q=0.9",uoffe1ee04mwts9,18,"[""Asian""]",No,Female,India,No,588338.1000000238,NA,3877,NA,"{""Q0"":""No""}",NA,NA,NA,NA,NA,NA,NA,NA,NA,NA,NA,NA,NA,NA,NA,NA,NA,NA,NA,NA,NA,NA,[0]
NA,NA,NA,NA,NA,post_survey_message,html-keyboard-response,99,585639,0.0-12.0,275,1,2025-05-07T03:40:20Z,b60275e29fe2361ab97ac0ac217840d7,"Mozilla/5.0 (Macintosh; Intel Mac OS X 10_15_7) AppleWebKit/537.36 (KHTML, like Gecko) Chrome/135.0.0.0 Safari/537.36",Macintosh,Chrome,135.0.0.0,OS X,10_15_7,https://5puzkbbxv1.cognition.run/?sona_id=58175,"en-US,en;q=0.9",uoffe1ee04mwts9,18,"[""Asian""]",No,Female,India,No,588338.1000000238,NA,5328,NA,j,NA,NA,NA,NA,NA,NA,NA,NA,NA,NA,NA,NA,NA,NA,NA,NA,NA,NA,NA,NA,NA,NA,NA
NA,NA,NA,NA,NA,debrief,image-keyboard-response,100,588334,0.0-13.0,275,1,2025-05-07T03:40:20Z,b60275e29fe2361ab97ac0ac217840d7,"Mozilla/5.0 (Macintosh; Intel Mac OS X 10_15_7) AppleWebKit/537.36 (KHTML, like Gecko) Chrome/135.0.0.0 Safari/537.36",Macintosh,Chrome,135.0.0.0,OS X,10_15_7,https://5puzkbbxv1.cognition.run/?sona_id=58175,"en-US,en;q=0.9",uoffe1ee04mwts9,18,"[""Asian""]",No,Female,India,No,588338.1000000238,NA,2683,Judg_choice_debrief.png,p,NA,NA,NA,NA,NA,NA,NA,NA,NA,NA,NA,NA,NA,NA,NA,NA,NA,NA,NA,NA,NA,NA,NA
