success,timeout,failed_images,failed_audio,failed_video,screen_id,trial_type,trial_index,time_elapsed,internal_node_id,run_id,condition,recorded_at,source_code_version,user_agent,device,browser,browser_version,platform,platform_version,referer,accept_language,ppt_id,age,race,ethnicity,gender,other_countries,prev_study,exp_duration,view_history,rt,stimulus,response,phase,order,set,effect,t_high,category,d1_best,d2_best,d1_worst1,d2_worst1,d1_worst2,d2_worst2,first_dim,d1_t,d1_c,d1_d,d2_t,d2_c,d2_d,d1_name,d2_name,strategy_response,question_order
TRUE,FALSE,[],[],[],img preload,preload,0,273,0.0-0.0,277,1,2025-05-07T06:27:03Z,b60275e29fe2361ab97ac0ac217840d7,"Mozilla/5.0 (Macintosh; Intel Mac OS X 10_15_7) AppleWebKit/605.1.15 (KHTML, like Gecko) Version/17.1.2 Safari/605.1.15",Macintosh,Safari,17.1.2,OS X,10_15_7,https://5puzkbbxv1.cognition.run/?sona_id=55005,"en-US,en;q=0.9",gumrfdmjjgptgx5,21,"[""Asian""]",No,Female,"India- 18 years
",Yes,535793,NA,NA,NA,NA,NA,NA,NA,NA,NA,NA,NA,NA,NA,NA,NA,NA,NA,NA,NA,NA,NA,NA,NA,NA,NA,NA,NA
NA,NA,NA,NA,NA,computer_message,instructions,1,4498,0.0-1.0,277,1,2025-05-07T06:27:03Z,b60275e29fe2361ab97ac0ac217840d7,"Mozilla/5.0 (Macintosh; Intel Mac OS X 10_15_7) AppleWebKit/605.1.15 (KHTML, like Gecko) Version/17.1.2 Safari/605.1.15",Macintosh,Safari,17.1.2,OS X,10_15_7,https://5puzkbbxv1.cognition.run/?sona_id=55005,"en-US,en;q=0.9",gumrfdmjjgptgx5,21,"[""Asian""]",No,Female,"India- 18 years
",Yes,535793,"[{""page_index"":0,""viewing_time"":4222}]",4222,NA,NA,NA,NA,NA,NA,NA,NA,NA,NA,NA,NA,NA,NA,NA,NA,NA,NA,NA,NA,NA,NA,NA,NA,NA
TRUE,NA,NA,NA,NA,NA,fullscreen,2,8316,0.0-2.0,277,1,2025-05-07T06:27:03Z,b60275e29fe2361ab97ac0ac217840d7,"Mozilla/5.0 (Macintosh; Intel Mac OS X 10_15_7) AppleWebKit/605.1.15 (KHTML, like Gecko) Version/17.1.2 Safari/605.1.15",Macintosh,Safari,17.1.2,OS X,10_15_7,https://5puzkbbxv1.cognition.run/?sona_id=55005,"en-US,en;q=0.9",gumrfdmjjgptgx5,21,"[""Asian""]",No,Female,"India- 18 years
",Yes,535793,NA,2814,NA,NA,NA,NA,NA,NA,NA,NA,NA,NA,NA,NA,NA,NA,NA,NA,NA,NA,NA,NA,NA,NA,NA,NA,NA
NA,NA,NA,NA,NA,choice_instructions,instructions,3,56396,0.0-3.0,277,1,2025-05-07T06:27:03Z,b60275e29fe2361ab97ac0ac217840d7,"Mozilla/5.0 (Macintosh; Intel Mac OS X 10_15_7) AppleWebKit/605.1.15 (KHTML, like Gecko) Version/17.1.2 Safari/605.1.15",Macintosh,Safari,17.1.2,OS X,10_15_7,https://5puzkbbxv1.cognition.run/?sona_id=55005,"en-US,en;q=0.9",gumrfdmjjgptgx5,21,"[""Asian""]",No,Female,"India- 18 years
",Yes,535793,"[{""page_index"":0,""viewing_time"":1630},{""page_index"":1,""viewing_time"":5850},{""page_index"":2,""viewing_time"":9114},{""page_index"":3,""viewing_time"":7250},{""page_index"":4,""viewing_time"":4384},{""page_index"":5,""viewing_time"":12783},{""page_index"":6,""viewing_time"":7068}]",48079,NA,NA,NA,NA,NA,NA,NA,NA,NA,NA,NA,NA,NA,NA,NA,NA,NA,NA,NA,NA,NA,NA,NA,NA,NA
NA,NA,NA,NA,NA,choice_trial_setup,html-keyboard-response,4,56699,0.0-4.0-0.0,277,1,2025-05-07T06:27:03Z,b60275e29fe2361ab97ac0ac217840d7,"Mozilla/5.0 (Macintosh; Intel Mac OS X 10_15_7) AppleWebKit/605.1.15 (KHTML, like Gecko) Version/17.1.2 Safari/605.1.15",Macintosh,Safari,17.1.2,OS X,10_15_7,https://5puzkbbxv1.cognition.run/?sona_id=55005,"en-US,en;q=0.9",gumrfdmjjgptgx5,21,"[""Asian""]",No,Female,"India- 18 years
",Yes,535793,NA,null,<p></p>,null,choice,bww,trinary,catch,null,washing machines,50,55,45,30,50,50,1,NA,NA,NA,NA,NA,NA,NA,NA,NA,NA
NA,NA,NA,NA,NA,choice_trial,survey-html-form,5,69396,0.0-4.0-1.0,277,1,2025-05-07T06:27:03Z,b60275e29fe2361ab97ac0ac217840d7,"Mozilla/5.0 (Macintosh; Intel Mac OS X 10_15_7) AppleWebKit/605.1.15 (KHTML, like Gecko) Version/17.1.2 Safari/605.1.15",Macintosh,Safari,17.1.2,OS X,10_15_7,https://5puzkbbxv1.cognition.run/?sona_id=55005,"en-US,en;q=0.9",gumrfdmjjgptgx5,21,"[""Asian""]",No,Female,"India- 18 years
",Yes,535793,NA,12694,NA,"{""product_choice"":""A""}",choice,bww,trinary,catch,null,washing machines,50,55,45,30,50,50,1,null,null,null,null,null,null,Average lifespan,Energy savings,NA,NA
NA,NA,NA,NA,NA,choice_trial_setup,html-keyboard-response,6,69699,0.0-4.0-0.1,277,1,2025-05-07T06:27:03Z,b60275e29fe2361ab97ac0ac217840d7,"Mozilla/5.0 (Macintosh; Intel Mac OS X 10_15_7) AppleWebKit/605.1.15 (KHTML, like Gecko) Version/17.1.2 Safari/605.1.15",Macintosh,Safari,17.1.2,OS X,10_15_7,https://5puzkbbxv1.cognition.run/?sona_id=55005,"en-US,en;q=0.9",gumrfdmjjgptgx5,21,"[""Asian""]",No,Female,"India- 18 years
",Yes,535793,NA,null,<p></p>,null,choice,tc,binary,repulsion,1,laptops,null,null,null,null,null,null,1,NA,NA,NA,NA,NA,NA,NA,NA,NA,NA
NA,NA,NA,NA,NA,choice_trial,survey-html-form,7,77884,0.0-4.0-1.1,277,1,2025-05-07T06:27:03Z,b60275e29fe2361ab97ac0ac217840d7,"Mozilla/5.0 (Macintosh; Intel Mac OS X 10_15_7) AppleWebKit/605.1.15 (KHTML, like Gecko) Version/17.1.2 Safari/605.1.15",Macintosh,Safari,17.1.2,OS X,10_15_7,https://5puzkbbxv1.cognition.run/?sona_id=55005,"en-US,en;q=0.9",gumrfdmjjgptgx5,21,"[""Asian""]",No,Female,"India- 18 years
",Yes,535793,NA,8182,NA,"{""product_choice"":""A""}",choice,tc,binary,repulsion,1,laptops,null,null,null,null,null,null,1,100,90,null,30,40,null,Processing speed,Memory (RAM),NA,NA
NA,NA,NA,NA,NA,choice_trial_setup,html-keyboard-response,8,78185,0.0-4.0-0.2,277,1,2025-05-07T06:27:03Z,b60275e29fe2361ab97ac0ac217840d7,"Mozilla/5.0 (Macintosh; Intel Mac OS X 10_15_7) AppleWebKit/605.1.15 (KHTML, like Gecko) Version/17.1.2 Safari/605.1.15",Macintosh,Safari,17.1.2,OS X,10_15_7,https://5puzkbbxv1.cognition.run/?sona_id=55005,"en-US,en;q=0.9",gumrfdmjjgptgx5,21,"[""Asian""]",No,Female,"India- 18 years
",Yes,535793,NA,null,<p></p>,null,choice,ct,binary,repulsion,2,televisions,null,null,null,null,null,null,2,NA,NA,NA,NA,NA,NA,NA,NA,NA,NA
NA,NA,NA,NA,NA,choice_trial,survey-html-form,9,84729,0.0-4.0-1.2,277,1,2025-05-07T06:27:03Z,b60275e29fe2361ab97ac0ac217840d7,"Mozilla/5.0 (Macintosh; Intel Mac OS X 10_15_7) AppleWebKit/605.1.15 (KHTML, like Gecko) Version/17.1.2 Safari/605.1.15",Macintosh,Safari,17.1.2,OS X,10_15_7,https://5puzkbbxv1.cognition.run/?sona_id=55005,"en-US,en;q=0.9",gumrfdmjjgptgx5,21,"[""Asian""]",No,Female,"India- 18 years
",Yes,535793,NA,6543,NA,"{""product_choice"":""A""}",choice,ct,binary,repulsion,2,televisions,null,null,null,null,null,null,2,30,40,null,100,90,null,Screen size,Average lifespan,NA,NA
NA,NA,NA,NA,NA,choice_trial_setup,html-keyboard-response,10,85030,0.0-4.0-0.3,277,1,2025-05-07T06:27:03Z,b60275e29fe2361ab97ac0ac217840d7,"Mozilla/5.0 (Macintosh; Intel Mac OS X 10_15_7) AppleWebKit/605.1.15 (KHTML, like Gecko) Version/17.1.2 Safari/605.1.15",Macintosh,Safari,17.1.2,OS X,10_15_7,https://5puzkbbxv1.cognition.run/?sona_id=55005,"en-US,en;q=0.9",gumrfdmjjgptgx5,21,"[""Asian""]",No,Female,"India- 18 years
",Yes,535793,NA,null,<p></p>,null,choice,ctd,trinary,attraction,2,televisions,null,null,null,null,null,null,1,NA,NA,NA,NA,NA,NA,NA,NA,NA,NA
NA,NA,NA,NA,NA,choice_trial,survey-html-form,11,94362,0.0-4.0-1.3,277,1,2025-05-07T06:27:03Z,b60275e29fe2361ab97ac0ac217840d7,"Mozilla/5.0 (Macintosh; Intel Mac OS X 10_15_7) AppleWebKit/605.1.15 (KHTML, like Gecko) Version/17.1.2 Safari/605.1.15",Macintosh,Safari,17.1.2,OS X,10_15_7,https://5puzkbbxv1.cognition.run/?sona_id=55005,"en-US,en;q=0.9",gumrfdmjjgptgx5,21,"[""Asian""]",No,Female,"India- 18 years
",Yes,535793,NA,9331,NA,"{""product_choice"":""A""}",choice,ctd,trinary,attraction,2,televisions,null,null,null,null,null,null,1,50,60,40,60,50,60,Screen size,Average lifespan,NA,NA
NA,NA,NA,NA,NA,choice_trial_setup,html-keyboard-response,12,94664,0.0-4.0-0.4,277,1,2025-05-07T06:27:03Z,b60275e29fe2361ab97ac0ac217840d7,"Mozilla/5.0 (Macintosh; Intel Mac OS X 10_15_7) AppleWebKit/605.1.15 (KHTML, like Gecko) Version/17.1.2 Safari/605.1.15",Macintosh,Safari,17.1.2,OS X,10_15_7,https://5puzkbbxv1.cognition.run/?sona_id=55005,"en-US,en;q=0.9",gumrfdmjjgptgx5,21,"[""Asian""]",No,Female,"India- 18 years
",Yes,535793,NA,null,<p></p>,null,choice,ctd,trinary,attraction,1,microwave ovens,null,null,null,null,null,null,1,NA,NA,NA,NA,NA,NA,NA,NA,NA,NA
NA,NA,NA,NA,NA,choice_trial,survey-html-form,13,101097,0.0-4.0-1.4,277,1,2025-05-07T06:27:03Z,b60275e29fe2361ab97ac0ac217840d7,"Mozilla/5.0 (Macintosh; Intel Mac OS X 10_15_7) AppleWebKit/605.1.15 (KHTML, like Gecko) Version/17.1.2 Safari/605.1.15",Macintosh,Safari,17.1.2,OS X,10_15_7,https://5puzkbbxv1.cognition.run/?sona_id=55005,"en-US,en;q=0.9",gumrfdmjjgptgx5,21,"[""Asian""]",No,Female,"India- 18 years
",Yes,535793,NA,6429,NA,"{""product_choice"":""A""}",choice,ctd,trinary,attraction,1,microwave ovens,null,null,null,null,null,null,1,60,50,60,50,60,40,Warranty,Cooking power,NA,NA
NA,NA,NA,NA,NA,choice_trial_setup,html-keyboard-response,14,101399,0.0-4.0-0.5,277,1,2025-05-07T06:27:03Z,b60275e29fe2361ab97ac0ac217840d7,"Mozilla/5.0 (Macintosh; Intel Mac OS X 10_15_7) AppleWebKit/605.1.15 (KHTML, like Gecko) Version/17.1.2 Safari/605.1.15",Macintosh,Safari,17.1.2,OS X,10_15_7,https://5puzkbbxv1.cognition.run/?sona_id=55005,"en-US,en;q=0.9",gumrfdmjjgptgx5,21,"[""Asian""]",No,Female,"India- 18 years
",Yes,535793,NA,null,<p></p>,null,choice,cdt,trinary,repulsion_B,1,microwave ovens,null,null,null,null,null,null,1,NA,NA,NA,NA,NA,NA,NA,NA,NA,NA
NA,NA,NA,NA,NA,choice_trial,survey-html-form,15,111266,0.0-4.0-1.5,277,1,2025-05-07T06:27:03Z,b60275e29fe2361ab97ac0ac217840d7,"Mozilla/5.0 (Macintosh; Intel Mac OS X 10_15_7) AppleWebKit/605.1.15 (KHTML, like Gecko) Version/17.1.2 Safari/605.1.15",Macintosh,Safari,17.1.2,OS X,10_15_7,https://5puzkbbxv1.cognition.run/?sona_id=55005,"en-US,en;q=0.9",gumrfdmjjgptgx5,21,"[""Asian""]",No,Female,"India- 18 years
",Yes,535793,NA,9863,NA,"{""product_choice"":""C""}",choice,cdt,trinary,repulsion_B,1,microwave ovens,null,null,null,null,null,null,1,90,100,80,40,30,40,Warranty,Cooking power,NA,NA
NA,NA,NA,NA,NA,choice_trial_setup,html-keyboard-response,16,111567,0.0-4.0-0.6,277,1,2025-05-07T06:27:03Z,b60275e29fe2361ab97ac0ac217840d7,"Mozilla/5.0 (Macintosh; Intel Mac OS X 10_15_7) AppleWebKit/605.1.15 (KHTML, like Gecko) Version/17.1.2 Safari/605.1.15",Macintosh,Safari,17.1.2,OS X,10_15_7,https://5puzkbbxv1.cognition.run/?sona_id=55005,"en-US,en;q=0.9",gumrfdmjjgptgx5,21,"[""Asian""]",No,Female,"India- 18 years
",Yes,535793,NA,null,<p></p>,null,choice,tdc,trinary,repulsion_A,2,laptops,null,null,null,null,null,null,1,NA,NA,NA,NA,NA,NA,NA,NA,NA,NA
NA,NA,NA,NA,NA,choice_trial,survey-html-form,17,122112,0.0-4.0-1.6,277,1,2025-05-07T06:27:03Z,b60275e29fe2361ab97ac0ac217840d7,"Mozilla/5.0 (Macintosh; Intel Mac OS X 10_15_7) AppleWebKit/605.1.15 (KHTML, like Gecko) Version/17.1.2 Safari/605.1.15",Macintosh,Safari,17.1.2,OS X,10_15_7,https://5puzkbbxv1.cognition.run/?sona_id=55005,"en-US,en;q=0.9",gumrfdmjjgptgx5,21,"[""Asian""]",No,Female,"India- 18 years
",Yes,535793,NA,10542,NA,"{""product_choice"":""A""}",choice,tdc,trinary,repulsion_A,2,laptops,null,null,null,null,null,null,1,30,40,20,100,90,100,Processing speed,Memory (RAM),NA,NA
NA,NA,NA,NA,NA,choice_trial_setup,html-keyboard-response,18,122415,0.0-4.0-0.7,277,1,2025-05-07T06:27:03Z,b60275e29fe2361ab97ac0ac217840d7,"Mozilla/5.0 (Macintosh; Intel Mac OS X 10_15_7) AppleWebKit/605.1.15 (KHTML, like Gecko) Version/17.1.2 Safari/605.1.15",Macintosh,Safari,17.1.2,OS X,10_15_7,https://5puzkbbxv1.cognition.run/?sona_id=55005,"en-US,en;q=0.9",gumrfdmjjgptgx5,21,"[""Asian""]",No,Female,"India- 18 years
",Yes,535793,NA,null,<p></p>,null,choice,ct,binary,repulsion,1,televisions,null,null,null,null,null,null,1,NA,NA,NA,NA,NA,NA,NA,NA,NA,NA
NA,NA,NA,NA,NA,choice_trial,survey-html-form,19,126515,0.0-4.0-1.7,277,1,2025-05-07T06:27:03Z,b60275e29fe2361ab97ac0ac217840d7,"Mozilla/5.0 (Macintosh; Intel Mac OS X 10_15_7) AppleWebKit/605.1.15 (KHTML, like Gecko) Version/17.1.2 Safari/605.1.15",Macintosh,Safari,17.1.2,OS X,10_15_7,https://5puzkbbxv1.cognition.run/?sona_id=55005,"en-US,en;q=0.9",gumrfdmjjgptgx5,21,"[""Asian""]",No,Female,"India- 18 years
",Yes,535793,NA,4096,NA,"{""product_choice"":""B""}",choice,ct,binary,repulsion,1,televisions,null,null,null,null,null,null,1,100,90,null,30,40,null,Screen size,Average lifespan,NA,NA
NA,NA,NA,NA,NA,choice_trial_setup,html-keyboard-response,20,126818,0.0-4.0-0.8,277,1,2025-05-07T06:27:03Z,b60275e29fe2361ab97ac0ac217840d7,"Mozilla/5.0 (Macintosh; Intel Mac OS X 10_15_7) AppleWebKit/605.1.15 (KHTML, like Gecko) Version/17.1.2 Safari/605.1.15",Macintosh,Safari,17.1.2,OS X,10_15_7,https://5puzkbbxv1.cognition.run/?sona_id=55005,"en-US,en;q=0.9",gumrfdmjjgptgx5,21,"[""Asian""]",No,Female,"India- 18 years
",Yes,535793,NA,null,<p></p>,null,choice,tc,binary,attraction,NA,microwave ovens,null,null,null,null,null,null,1,NA,NA,NA,NA,NA,NA,NA,NA,NA,NA
NA,NA,NA,NA,NA,choice_trial,survey-html-form,21,136997,0.0-4.0-1.8,277,1,2025-05-07T06:27:03Z,b60275e29fe2361ab97ac0ac217840d7,"Mozilla/5.0 (Macintosh; Intel Mac OS X 10_15_7) AppleWebKit/605.1.15 (KHTML, like Gecko) Version/17.1.2 Safari/605.1.15",Macintosh,Safari,17.1.2,OS X,10_15_7,https://5puzkbbxv1.cognition.run/?sona_id=55005,"en-US,en;q=0.9",gumrfdmjjgptgx5,21,"[""Asian""]",No,Female,"India- 18 years
",Yes,535793,NA,10175,NA,"{""product_choice"":""B""}",choice,tc,binary,attraction,NA,microwave ovens,null,null,null,null,null,null,1,60,50,null,50,60,null,Warranty,Cooking power,NA,NA
NA,NA,NA,NA,NA,choice_trial_setup,html-keyboard-response,22,137299,0.0-4.0-0.9,277,1,2025-05-07T06:27:03Z,b60275e29fe2361ab97ac0ac217840d7,"Mozilla/5.0 (Macintosh; Intel Mac OS X 10_15_7) AppleWebKit/605.1.15 (KHTML, like Gecko) Version/17.1.2 Safari/605.1.15",Macintosh,Safari,17.1.2,OS X,10_15_7,https://5puzkbbxv1.cognition.run/?sona_id=55005,"en-US,en;q=0.9",gumrfdmjjgptgx5,21,"[""Asian""]",No,Female,"India- 18 years
",Yes,535793,NA,null,<p></p>,null,choice,ct,binary,attraction,NA,laptops,null,null,null,null,null,null,1,NA,NA,NA,NA,NA,NA,NA,NA,NA,NA
NA,NA,NA,NA,NA,choice_trial,survey-html-form,23,143064,0.0-4.0-1.9,277,1,2025-05-07T06:27:03Z,b60275e29fe2361ab97ac0ac217840d7,"Mozilla/5.0 (Macintosh; Intel Mac OS X 10_15_7) AppleWebKit/605.1.15 (KHTML, like Gecko) Version/17.1.2 Safari/605.1.15",Macintosh,Safari,17.1.2,OS X,10_15_7,https://5puzkbbxv1.cognition.run/?sona_id=55005,"en-US,en;q=0.9",gumrfdmjjgptgx5,21,"[""Asian""]",No,Female,"India- 18 years
",Yes,535793,NA,5760,NA,"{""product_choice"":""B""}",choice,ct,binary,attraction,NA,laptops,null,null,null,null,null,null,1,60,50,null,50,60,null,Processing speed,Memory (RAM),NA,NA
NA,NA,NA,NA,NA,choice_trial_setup,html-keyboard-response,24,143366,0.0-4.0-0.10,277,1,2025-05-07T06:27:03Z,b60275e29fe2361ab97ac0ac217840d7,"Mozilla/5.0 (Macintosh; Intel Mac OS X 10_15_7) AppleWebKit/605.1.15 (KHTML, like Gecko) Version/17.1.2 Safari/605.1.15",Macintosh,Safari,17.1.2,OS X,10_15_7,https://5puzkbbxv1.cognition.run/?sona_id=55005,"en-US,en;q=0.9",gumrfdmjjgptgx5,21,"[""Asian""]",No,Female,"India- 18 years
",Yes,535793,NA,null,<p></p>,null,choice,dtc,trinary,repulsion_A,2,washing machines,null,null,null,null,null,null,2,NA,NA,NA,NA,NA,NA,NA,NA,NA,NA
NA,NA,NA,NA,NA,choice_trial,survey-html-form,25,149584,0.0-4.0-1.10,277,1,2025-05-07T06:27:03Z,b60275e29fe2361ab97ac0ac217840d7,"Mozilla/5.0 (Macintosh; Intel Mac OS X 10_15_7) AppleWebKit/605.1.15 (KHTML, like Gecko) Version/17.1.2 Safari/605.1.15",Macintosh,Safari,17.1.2,OS X,10_15_7,https://5puzkbbxv1.cognition.run/?sona_id=55005,"en-US,en;q=0.9",gumrfdmjjgptgx5,21,"[""Asian""]",No,Female,"India- 18 years
",Yes,535793,NA,6214,NA,"{""product_choice"":""C""}",choice,dtc,trinary,repulsion_A,2,washing machines,null,null,null,null,null,null,2,30,40,20,100,90,100,Average lifespan,Energy savings,NA,NA
NA,NA,NA,NA,NA,choice_trial_setup,html-keyboard-response,26,149886,0.0-4.0-0.11,277,1,2025-05-07T06:27:03Z,b60275e29fe2361ab97ac0ac217840d7,"Mozilla/5.0 (Macintosh; Intel Mac OS X 10_15_7) AppleWebKit/605.1.15 (KHTML, like Gecko) Version/17.1.2 Safari/605.1.15",Macintosh,Safari,17.1.2,OS X,10_15_7,https://5puzkbbxv1.cognition.run/?sona_id=55005,"en-US,en;q=0.9",gumrfdmjjgptgx5,21,"[""Asian""]",No,Female,"India- 18 years
",Yes,535793,NA,null,<p></p>,null,choice,tc,binary,repulsion,1,microwave ovens,null,null,null,null,null,null,2,NA,NA,NA,NA,NA,NA,NA,NA,NA,NA
NA,NA,NA,NA,NA,choice_trial,survey-html-form,27,156628,0.0-4.0-1.11,277,1,2025-05-07T06:27:03Z,b60275e29fe2361ab97ac0ac217840d7,"Mozilla/5.0 (Macintosh; Intel Mac OS X 10_15_7) AppleWebKit/605.1.15 (KHTML, like Gecko) Version/17.1.2 Safari/605.1.15",Macintosh,Safari,17.1.2,OS X,10_15_7,https://5puzkbbxv1.cognition.run/?sona_id=55005,"en-US,en;q=0.9",gumrfdmjjgptgx5,21,"[""Asian""]",No,Female,"India- 18 years
",Yes,535793,NA,6739,NA,"{""product_choice"":""B""}",choice,tc,binary,repulsion,1,microwave ovens,null,null,null,null,null,null,2,100,90,null,30,40,null,Warranty,Cooking power,NA,NA
NA,NA,NA,NA,NA,choice_trial_setup,html-keyboard-response,28,156929,0.0-4.0-0.12,277,1,2025-05-07T06:27:03Z,b60275e29fe2361ab97ac0ac217840d7,"Mozilla/5.0 (Macintosh; Intel Mac OS X 10_15_7) AppleWebKit/605.1.15 (KHTML, like Gecko) Version/17.1.2 Safari/605.1.15",Macintosh,Safari,17.1.2,OS X,10_15_7,https://5puzkbbxv1.cognition.run/?sona_id=55005,"en-US,en;q=0.9",gumrfdmjjgptgx5,21,"[""Asian""]",No,Female,"India- 18 years
",Yes,535793,NA,null,<p></p>,null,choice,ct,binary,repulsion,2,laptops,null,null,null,null,null,null,1,NA,NA,NA,NA,NA,NA,NA,NA,NA,NA
NA,NA,NA,NA,NA,choice_trial,survey-html-form,29,161680,0.0-4.0-1.12,277,1,2025-05-07T06:27:03Z,b60275e29fe2361ab97ac0ac217840d7,"Mozilla/5.0 (Macintosh; Intel Mac OS X 10_15_7) AppleWebKit/605.1.15 (KHTML, like Gecko) Version/17.1.2 Safari/605.1.15",Macintosh,Safari,17.1.2,OS X,10_15_7,https://5puzkbbxv1.cognition.run/?sona_id=55005,"en-US,en;q=0.9",gumrfdmjjgptgx5,21,"[""Asian""]",No,Female,"India- 18 years
",Yes,535793,NA,4749,NA,"{""product_choice"":""A""}",choice,ct,binary,repulsion,2,laptops,null,null,null,null,null,null,1,30,40,null,100,90,null,Processing speed,Memory (RAM),NA,NA
NA,NA,NA,NA,NA,choice_trial_setup,html-keyboard-response,30,161982,0.0-4.0-0.13,277,1,2025-05-07T06:27:03Z,b60275e29fe2361ab97ac0ac217840d7,"Mozilla/5.0 (Macintosh; Intel Mac OS X 10_15_7) AppleWebKit/605.1.15 (KHTML, like Gecko) Version/17.1.2 Safari/605.1.15",Macintosh,Safari,17.1.2,OS X,10_15_7,https://5puzkbbxv1.cognition.run/?sona_id=55005,"en-US,en;q=0.9",gumrfdmjjgptgx5,21,"[""Asian""]",No,Female,"India- 18 years
",Yes,535793,NA,null,<p></p>,null,choice,tcd,trinary,repulsion_B,1,washing machines,null,null,null,null,null,null,2,NA,NA,NA,NA,NA,NA,NA,NA,NA,NA
NA,NA,NA,NA,NA,choice_trial,survey-html-form,31,171913,0.0-4.0-1.13,277,1,2025-05-07T06:27:03Z,b60275e29fe2361ab97ac0ac217840d7,"Mozilla/5.0 (Macintosh; Intel Mac OS X 10_15_7) AppleWebKit/605.1.15 (KHTML, like Gecko) Version/17.1.2 Safari/605.1.15",Macintosh,Safari,17.1.2,OS X,10_15_7,https://5puzkbbxv1.cognition.run/?sona_id=55005,"en-US,en;q=0.9",gumrfdmjjgptgx5,21,"[""Asian""]",No,Female,"India- 18 years
",Yes,535793,NA,9927,NA,"{""product_choice"":""A""}",choice,tcd,trinary,repulsion_B,1,washing machines,null,null,null,null,null,null,2,90,100,80,40,30,40,Average lifespan,Energy savings,NA,NA
NA,NA,NA,NA,NA,choice_trial_setup,html-keyboard-response,32,172215,0.0-4.0-0.14,277,1,2025-05-07T06:27:03Z,b60275e29fe2361ab97ac0ac217840d7,"Mozilla/5.0 (Macintosh; Intel Mac OS X 10_15_7) AppleWebKit/605.1.15 (KHTML, like Gecko) Version/17.1.2 Safari/605.1.15",Macintosh,Safari,17.1.2,OS X,10_15_7,https://5puzkbbxv1.cognition.run/?sona_id=55005,"en-US,en;q=0.9",gumrfdmjjgptgx5,21,"[""Asian""]",No,Female,"India- 18 years
",Yes,535793,NA,null,<p></p>,null,choice,tc,binary,repulsion,2,washing machines,null,null,null,null,null,null,2,NA,NA,NA,NA,NA,NA,NA,NA,NA,NA
NA,NA,NA,NA,NA,choice_trial,survey-html-form,33,180296,0.0-4.0-1.14,277,1,2025-05-07T06:27:03Z,b60275e29fe2361ab97ac0ac217840d7,"Mozilla/5.0 (Macintosh; Intel Mac OS X 10_15_7) AppleWebKit/605.1.15 (KHTML, like Gecko) Version/17.1.2 Safari/605.1.15",Macintosh,Safari,17.1.2,OS X,10_15_7,https://5puzkbbxv1.cognition.run/?sona_id=55005,"en-US,en;q=0.9",gumrfdmjjgptgx5,21,"[""Asian""]",No,Female,"India- 18 years
",Yes,535793,NA,8077,NA,"{""product_choice"":""A""}",choice,tc,binary,repulsion,2,washing machines,null,null,null,null,null,null,2,30,40,null,100,90,null,Average lifespan,Energy savings,NA,NA
NA,NA,NA,NA,NA,choice_trial_setup,html-keyboard-response,34,180599,0.0-4.0-0.15,277,1,2025-05-07T06:27:03Z,b60275e29fe2361ab97ac0ac217840d7,"Mozilla/5.0 (Macintosh; Intel Mac OS X 10_15_7) AppleWebKit/605.1.15 (KHTML, like Gecko) Version/17.1.2 Safari/605.1.15",Macintosh,Safari,17.1.2,OS X,10_15_7,https://5puzkbbxv1.cognition.run/?sona_id=55005,"en-US,en;q=0.9",gumrfdmjjgptgx5,21,"[""Asian""]",No,Female,"India- 18 years
",Yes,535793,NA,null,<p></p>,null,choice,ct,binary,attraction,NA,washing machines,null,null,null,null,null,null,2,NA,NA,NA,NA,NA,NA,NA,NA,NA,NA
NA,NA,NA,NA,NA,choice_trial,survey-html-form,35,189762,0.0-4.0-1.15,277,1,2025-05-07T06:27:03Z,b60275e29fe2361ab97ac0ac217840d7,"Mozilla/5.0 (Macintosh; Intel Mac OS X 10_15_7) AppleWebKit/605.1.15 (KHTML, like Gecko) Version/17.1.2 Safari/605.1.15",Macintosh,Safari,17.1.2,OS X,10_15_7,https://5puzkbbxv1.cognition.run/?sona_id=55005,"en-US,en;q=0.9",gumrfdmjjgptgx5,21,"[""Asian""]",No,Female,"India- 18 years
",Yes,535793,NA,9159,NA,"{""product_choice"":""B""}",choice,ct,binary,attraction,NA,washing machines,null,null,null,null,null,null,2,60,50,null,50,60,null,Average lifespan,Energy savings,NA,NA
NA,NA,NA,NA,NA,choice_trial_setup,html-keyboard-response,36,190063,0.0-4.0-0.16,277,1,2025-05-07T06:27:03Z,b60275e29fe2361ab97ac0ac217840d7,"Mozilla/5.0 (Macintosh; Intel Mac OS X 10_15_7) AppleWebKit/605.1.15 (KHTML, like Gecko) Version/17.1.2 Safari/605.1.15",Macintosh,Safari,17.1.2,OS X,10_15_7,https://5puzkbbxv1.cognition.run/?sona_id=55005,"en-US,en;q=0.9",gumrfdmjjgptgx5,21,"[""Asian""]",No,Female,"India- 18 years
",Yes,535793,NA,null,<p></p>,null,choice,cdt,trinary,repulsion_B,1,laptops,null,null,null,null,null,null,2,NA,NA,NA,NA,NA,NA,NA,NA,NA,NA
NA,NA,NA,NA,NA,choice_trial,survey-html-form,37,205263,0.0-4.0-1.16,277,1,2025-05-07T06:27:03Z,b60275e29fe2361ab97ac0ac217840d7,"Mozilla/5.0 (Macintosh; Intel Mac OS X 10_15_7) AppleWebKit/605.1.15 (KHTML, like Gecko) Version/17.1.2 Safari/605.1.15",Macintosh,Safari,17.1.2,OS X,10_15_7,https://5puzkbbxv1.cognition.run/?sona_id=55005,"en-US,en;q=0.9",gumrfdmjjgptgx5,21,"[""Asian""]",No,Female,"India- 18 years
",Yes,535793,NA,15195,NA,"{""product_choice"":""C""}",choice,cdt,trinary,repulsion_B,1,laptops,null,null,null,null,null,null,2,90,100,80,40,30,40,Processing speed,Memory (RAM),NA,NA
NA,NA,NA,NA,NA,choice_trial_setup,html-keyboard-response,38,205565,0.0-4.0-0.17,277,1,2025-05-07T06:27:03Z,b60275e29fe2361ab97ac0ac217840d7,"Mozilla/5.0 (Macintosh; Intel Mac OS X 10_15_7) AppleWebKit/605.1.15 (KHTML, like Gecko) Version/17.1.2 Safari/605.1.15",Macintosh,Safari,17.1.2,OS X,10_15_7,https://5puzkbbxv1.cognition.run/?sona_id=55005,"en-US,en;q=0.9",gumrfdmjjgptgx5,21,"[""Asian""]",No,Female,"India- 18 years
",Yes,535793,NA,null,<p></p>,null,choice,tdc,trinary,attraction,1,televisions,null,null,null,null,null,null,1,NA,NA,NA,NA,NA,NA,NA,NA,NA,NA
NA,NA,NA,NA,NA,choice_trial,survey-html-form,39,210295,0.0-4.0-1.17,277,1,2025-05-07T06:27:03Z,b60275e29fe2361ab97ac0ac217840d7,"Mozilla/5.0 (Macintosh; Intel Mac OS X 10_15_7) AppleWebKit/605.1.15 (KHTML, like Gecko) Version/17.1.2 Safari/605.1.15",Macintosh,Safari,17.1.2,OS X,10_15_7,https://5puzkbbxv1.cognition.run/?sona_id=55005,"en-US,en;q=0.9",gumrfdmjjgptgx5,21,"[""Asian""]",No,Female,"India- 18 years
",Yes,535793,NA,4726,NA,"{""product_choice"":""A""}",choice,tdc,trinary,attraction,1,televisions,null,null,null,null,null,null,1,60,50,60,50,60,40,Screen size,Average lifespan,NA,NA
NA,NA,NA,NA,NA,choice_trial_setup,html-keyboard-response,40,210597,0.0-4.0-0.18,277,1,2025-05-07T06:27:03Z,b60275e29fe2361ab97ac0ac217840d7,"Mozilla/5.0 (Macintosh; Intel Mac OS X 10_15_7) AppleWebKit/605.1.15 (KHTML, like Gecko) Version/17.1.2 Safari/605.1.15",Macintosh,Safari,17.1.2,OS X,10_15_7,https://5puzkbbxv1.cognition.run/?sona_id=55005,"en-US,en;q=0.9",gumrfdmjjgptgx5,21,"[""Asian""]",No,Female,"India- 18 years
",Yes,535793,NA,null,<p></p>,null,choice,wwb,trinary,catch,null,microwave ovens,80,60,35,30,20,5,2,NA,NA,NA,NA,NA,NA,NA,NA,NA,NA
NA,NA,NA,NA,NA,choice_trial,survey-html-form,41,217885,0.0-4.0-1.18,277,1,2025-05-07T06:27:03Z,b60275e29fe2361ab97ac0ac217840d7,"Mozilla/5.0 (Macintosh; Intel Mac OS X 10_15_7) AppleWebKit/605.1.15 (KHTML, like Gecko) Version/17.1.2 Safari/605.1.15",Macintosh,Safari,17.1.2,OS X,10_15_7,https://5puzkbbxv1.cognition.run/?sona_id=55005,"en-US,en;q=0.9",gumrfdmjjgptgx5,21,"[""Asian""]",No,Female,"India- 18 years
",Yes,535793,NA,7287,NA,"{""product_choice"":""C""}",choice,wwb,trinary,catch,null,microwave ovens,80,60,35,30,20,5,2,null,null,null,null,null,null,Warranty,Cooking power,NA,NA
NA,NA,NA,NA,NA,choice_trial_setup,html-keyboard-response,42,218187,0.0-4.0-0.19,277,1,2025-05-07T06:27:03Z,b60275e29fe2361ab97ac0ac217840d7,"Mozilla/5.0 (Macintosh; Intel Mac OS X 10_15_7) AppleWebKit/605.1.15 (KHTML, like Gecko) Version/17.1.2 Safari/605.1.15",Macintosh,Safari,17.1.2,OS X,10_15_7,https://5puzkbbxv1.cognition.run/?sona_id=55005,"en-US,en;q=0.9",gumrfdmjjgptgx5,21,"[""Asian""]",No,Female,"India- 18 years
",Yes,535793,NA,null,<p></p>,null,choice,bw,binary,catch,null,washing machines,55,60,20,5,null,null,2,NA,NA,NA,NA,NA,NA,NA,NA,NA,NA
NA,NA,NA,NA,NA,choice_trial,survey-html-form,43,222646,0.0-4.0-1.19,277,1,2025-05-07T06:27:03Z,b60275e29fe2361ab97ac0ac217840d7,"Mozilla/5.0 (Macintosh; Intel Mac OS X 10_15_7) AppleWebKit/605.1.15 (KHTML, like Gecko) Version/17.1.2 Safari/605.1.15",Macintosh,Safari,17.1.2,OS X,10_15_7,https://5puzkbbxv1.cognition.run/?sona_id=55005,"en-US,en;q=0.9",gumrfdmjjgptgx5,21,"[""Asian""]",No,Female,"India- 18 years
",Yes,535793,NA,4454,NA,"{""product_choice"":""A""}",choice,bw,binary,catch,null,washing machines,55,60,20,5,null,null,2,null,null,null,null,null,null,Average lifespan,Energy savings,NA,NA
NA,NA,NA,NA,NA,choice_trial_setup,html-keyboard-response,44,222948,0.0-4.0-0.20,277,1,2025-05-07T06:27:03Z,b60275e29fe2361ab97ac0ac217840d7,"Mozilla/5.0 (Macintosh; Intel Mac OS X 10_15_7) AppleWebKit/605.1.15 (KHTML, like Gecko) Version/17.1.2 Safari/605.1.15",Macintosh,Safari,17.1.2,OS X,10_15_7,https://5puzkbbxv1.cognition.run/?sona_id=55005,"en-US,en;q=0.9",gumrfdmjjgptgx5,21,"[""Asian""]",No,Female,"India- 18 years
",Yes,535793,NA,null,<p></p>,null,choice,tdc,trinary,repulsion_A,1,washing machines,null,null,null,null,null,null,2,NA,NA,NA,NA,NA,NA,NA,NA,NA,NA
NA,NA,NA,NA,NA,choice_trial,survey-html-form,45,227781,0.0-4.0-1.20,277,1,2025-05-07T06:27:03Z,b60275e29fe2361ab97ac0ac217840d7,"Mozilla/5.0 (Macintosh; Intel Mac OS X 10_15_7) AppleWebKit/605.1.15 (KHTML, like Gecko) Version/17.1.2 Safari/605.1.15",Macintosh,Safari,17.1.2,OS X,10_15_7,https://5puzkbbxv1.cognition.run/?sona_id=55005,"en-US,en;q=0.9",gumrfdmjjgptgx5,21,"[""Asian""]",No,Female,"India- 18 years
",Yes,535793,NA,4828,NA,"{""product_choice"":""C""}",choice,tdc,trinary,repulsion_A,1,washing machines,null,null,null,null,null,null,2,100,90,100,30,40,20,Average lifespan,Energy savings,NA,NA
NA,NA,NA,NA,NA,choice_trial_setup,html-keyboard-response,46,228083,0.0-4.0-0.21,277,1,2025-05-07T06:27:03Z,b60275e29fe2361ab97ac0ac217840d7,"Mozilla/5.0 (Macintosh; Intel Mac OS X 10_15_7) AppleWebKit/605.1.15 (KHTML, like Gecko) Version/17.1.2 Safari/605.1.15",Macintosh,Safari,17.1.2,OS X,10_15_7,https://5puzkbbxv1.cognition.run/?sona_id=55005,"en-US,en;q=0.9",gumrfdmjjgptgx5,21,"[""Asian""]",No,Female,"India- 18 years
",Yes,535793,NA,null,<p></p>,null,choice,wb,binary,catch,null,laptops,90,95,5,10,null,null,1,NA,NA,NA,NA,NA,NA,NA,NA,NA,NA
NA,NA,NA,NA,NA,choice_trial,survey-html-form,47,234777,0.0-4.0-1.21,277,1,2025-05-07T06:27:03Z,b60275e29fe2361ab97ac0ac217840d7,"Mozilla/5.0 (Macintosh; Intel Mac OS X 10_15_7) AppleWebKit/605.1.15 (KHTML, like Gecko) Version/17.1.2 Safari/605.1.15",Macintosh,Safari,17.1.2,OS X,10_15_7,https://5puzkbbxv1.cognition.run/?sona_id=55005,"en-US,en;q=0.9",gumrfdmjjgptgx5,21,"[""Asian""]",No,Female,"India- 18 years
",Yes,535793,NA,6690,NA,"{""product_choice"":""B""}",choice,wb,binary,catch,null,laptops,90,95,5,10,null,null,1,null,null,null,null,null,null,Processing speed,Memory (RAM),NA,NA
NA,NA,NA,NA,NA,choice_trial_setup,html-keyboard-response,48,235080,0.0-4.0-0.22,277,1,2025-05-07T06:27:03Z,b60275e29fe2361ab97ac0ac217840d7,"Mozilla/5.0 (Macintosh; Intel Mac OS X 10_15_7) AppleWebKit/605.1.15 (KHTML, like Gecko) Version/17.1.2 Safari/605.1.15",Macintosh,Safari,17.1.2,OS X,10_15_7,https://5puzkbbxv1.cognition.run/?sona_id=55005,"en-US,en;q=0.9",gumrfdmjjgptgx5,21,"[""Asian""]",No,Female,"India- 18 years
",Yes,535793,NA,null,<p></p>,null,choice,bw,binary,catch,null,microwave ovens,65,70,30,50,null,null,2,NA,NA,NA,NA,NA,NA,NA,NA,NA,NA
NA,NA,NA,NA,NA,choice_trial,survey-html-form,49,237428,0.0-4.0-1.22,277,1,2025-05-07T06:27:03Z,b60275e29fe2361ab97ac0ac217840d7,"Mozilla/5.0 (Macintosh; Intel Mac OS X 10_15_7) AppleWebKit/605.1.15 (KHTML, like Gecko) Version/17.1.2 Safari/605.1.15",Macintosh,Safari,17.1.2,OS X,10_15_7,https://5puzkbbxv1.cognition.run/?sona_id=55005,"en-US,en;q=0.9",gumrfdmjjgptgx5,21,"[""Asian""]",No,Female,"India- 18 years
",Yes,535793,NA,2343,NA,"{""product_choice"":""A""}",choice,bw,binary,catch,null,microwave ovens,65,70,30,50,null,null,2,null,null,null,null,null,null,Warranty,Cooking power,NA,NA
NA,NA,NA,NA,NA,choice_trial_setup,html-keyboard-response,50,237730,0.0-4.0-0.23,277,1,2025-05-07T06:27:03Z,b60275e29fe2361ab97ac0ac217840d7,"Mozilla/5.0 (Macintosh; Intel Mac OS X 10_15_7) AppleWebKit/605.1.15 (KHTML, like Gecko) Version/17.1.2 Safari/605.1.15",Macintosh,Safari,17.1.2,OS X,10_15_7,https://5puzkbbxv1.cognition.run/?sona_id=55005,"en-US,en;q=0.9",gumrfdmjjgptgx5,21,"[""Asian""]",No,Female,"India- 18 years
",Yes,535793,NA,null,<p></p>,null,choice,tdc,trinary,repulsion_B,1,televisions,null,null,null,null,null,null,2,NA,NA,NA,NA,NA,NA,NA,NA,NA,NA
NA,NA,NA,NA,NA,choice_trial,survey-html-form,51,241227,0.0-4.0-1.23,277,1,2025-05-07T06:27:03Z,b60275e29fe2361ab97ac0ac217840d7,"Mozilla/5.0 (Macintosh; Intel Mac OS X 10_15_7) AppleWebKit/605.1.15 (KHTML, like Gecko) Version/17.1.2 Safari/605.1.15",Macintosh,Safari,17.1.2,OS X,10_15_7,https://5puzkbbxv1.cognition.run/?sona_id=55005,"en-US,en;q=0.9",gumrfdmjjgptgx5,21,"[""Asian""]",No,Female,"India- 18 years
",Yes,535793,NA,3495,NA,"{""product_choice"":""A""}",choice,tdc,trinary,repulsion_B,1,televisions,null,null,null,null,null,null,2,90,100,80,40,30,40,Screen size,Average lifespan,NA,NA
NA,NA,NA,NA,NA,choice_trial_setup,html-keyboard-response,52,241529,0.0-4.0-0.24,277,1,2025-05-07T06:27:03Z,b60275e29fe2361ab97ac0ac217840d7,"Mozilla/5.0 (Macintosh; Intel Mac OS X 10_15_7) AppleWebKit/605.1.15 (KHTML, like Gecko) Version/17.1.2 Safari/605.1.15",Macintosh,Safari,17.1.2,OS X,10_15_7,https://5puzkbbxv1.cognition.run/?sona_id=55005,"en-US,en;q=0.9",gumrfdmjjgptgx5,21,"[""Asian""]",No,Female,"India- 18 years
",Yes,535793,NA,null,<p></p>,null,choice,tcd,trinary,repulsion_B,2,microwave ovens,null,null,null,null,null,null,2,NA,NA,NA,NA,NA,NA,NA,NA,NA,NA
NA,NA,NA,NA,NA,choice_trial,survey-html-form,53,244961,0.0-4.0-1.24,277,1,2025-05-07T06:27:03Z,b60275e29fe2361ab97ac0ac217840d7,"Mozilla/5.0 (Macintosh; Intel Mac OS X 10_15_7) AppleWebKit/605.1.15 (KHTML, like Gecko) Version/17.1.2 Safari/605.1.15",Macintosh,Safari,17.1.2,OS X,10_15_7,https://5puzkbbxv1.cognition.run/?sona_id=55005,"en-US,en;q=0.9",gumrfdmjjgptgx5,21,"[""Asian""]",No,Female,"India- 18 years
",Yes,535793,NA,3430,NA,"{""product_choice"":""A""}",choice,tcd,trinary,repulsion_B,2,microwave ovens,null,null,null,null,null,null,2,40,30,40,90,100,80,Warranty,Cooking power,NA,NA
NA,NA,NA,NA,NA,choice_trial_setup,html-keyboard-response,54,245264,0.0-4.0-0.25,277,1,2025-05-07T06:27:03Z,b60275e29fe2361ab97ac0ac217840d7,"Mozilla/5.0 (Macintosh; Intel Mac OS X 10_15_7) AppleWebKit/605.1.15 (KHTML, like Gecko) Version/17.1.2 Safari/605.1.15",Macintosh,Safari,17.1.2,OS X,10_15_7,https://5puzkbbxv1.cognition.run/?sona_id=55005,"en-US,en;q=0.9",gumrfdmjjgptgx5,21,"[""Asian""]",No,Female,"India- 18 years
",Yes,535793,NA,null,<p></p>,null,choice,tdc,trinary,repulsion_B,2,laptops,null,null,null,null,null,null,2,NA,NA,NA,NA,NA,NA,NA,NA,NA,NA
NA,NA,NA,NA,NA,choice_trial,survey-html-form,55,253247,0.0-4.0-1.25,277,1,2025-05-07T06:27:03Z,b60275e29fe2361ab97ac0ac217840d7,"Mozilla/5.0 (Macintosh; Intel Mac OS X 10_15_7) AppleWebKit/605.1.15 (KHTML, like Gecko) Version/17.1.2 Safari/605.1.15",Macintosh,Safari,17.1.2,OS X,10_15_7,https://5puzkbbxv1.cognition.run/?sona_id=55005,"en-US,en;q=0.9",gumrfdmjjgptgx5,21,"[""Asian""]",No,Female,"India- 18 years
",Yes,535793,NA,7981,NA,"{""product_choice"":""C""}",choice,tdc,trinary,repulsion_B,2,laptops,null,null,null,null,null,null,2,40,30,40,90,100,80,Processing speed,Memory (RAM),NA,NA
NA,NA,NA,NA,NA,choice_trial_setup,html-keyboard-response,56,253549,0.0-4.0-0.26,277,1,2025-05-07T06:27:03Z,b60275e29fe2361ab97ac0ac217840d7,"Mozilla/5.0 (Macintosh; Intel Mac OS X 10_15_7) AppleWebKit/605.1.15 (KHTML, like Gecko) Version/17.1.2 Safari/605.1.15",Macintosh,Safari,17.1.2,OS X,10_15_7,https://5puzkbbxv1.cognition.run/?sona_id=55005,"en-US,en;q=0.9",gumrfdmjjgptgx5,21,"[""Asian""]",No,Female,"India- 18 years
",Yes,535793,NA,null,<p></p>,null,choice,tdc,trinary,repulsion_A,2,televisions,null,null,null,null,null,null,2,NA,NA,NA,NA,NA,NA,NA,NA,NA,NA
NA,NA,NA,NA,NA,choice_trial,survey-html-form,57,260762,0.0-4.0-1.26,277,1,2025-05-07T06:27:03Z,b60275e29fe2361ab97ac0ac217840d7,"Mozilla/5.0 (Macintosh; Intel Mac OS X 10_15_7) AppleWebKit/605.1.15 (KHTML, like Gecko) Version/17.1.2 Safari/605.1.15",Macintosh,Safari,17.1.2,OS X,10_15_7,https://5puzkbbxv1.cognition.run/?sona_id=55005,"en-US,en;q=0.9",gumrfdmjjgptgx5,21,"[""Asian""]",No,Female,"India- 18 years
",Yes,535793,NA,7211,NA,"{""product_choice"":""C""}",choice,tdc,trinary,repulsion_A,2,televisions,null,null,null,null,null,null,2,30,40,20,100,90,100,Screen size,Average lifespan,NA,NA
NA,NA,NA,NA,NA,choice_trial_setup,html-keyboard-response,58,261064,0.0-4.0-0.27,277,1,2025-05-07T06:27:03Z,b60275e29fe2361ab97ac0ac217840d7,"Mozilla/5.0 (Macintosh; Intel Mac OS X 10_15_7) AppleWebKit/605.1.15 (KHTML, like Gecko) Version/17.1.2 Safari/605.1.15",Macintosh,Safari,17.1.2,OS X,10_15_7,https://5puzkbbxv1.cognition.run/?sona_id=55005,"en-US,en;q=0.9",gumrfdmjjgptgx5,21,"[""Asian""]",No,Female,"India- 18 years
",Yes,535793,NA,null,<p></p>,null,choice,ctd,trinary,attraction,1,laptops,null,null,null,null,null,null,1,NA,NA,NA,NA,NA,NA,NA,NA,NA,NA
NA,NA,NA,NA,NA,choice_trial,survey-html-form,59,269112,0.0-4.0-1.27,277,1,2025-05-07T06:27:03Z,b60275e29fe2361ab97ac0ac217840d7,"Mozilla/5.0 (Macintosh; Intel Mac OS X 10_15_7) AppleWebKit/605.1.15 (KHTML, like Gecko) Version/17.1.2 Safari/605.1.15",Macintosh,Safari,17.1.2,OS X,10_15_7,https://5puzkbbxv1.cognition.run/?sona_id=55005,"en-US,en;q=0.9",gumrfdmjjgptgx5,21,"[""Asian""]",No,Female,"India- 18 years
",Yes,535793,NA,8043,NA,"{""product_choice"":""B""}",choice,ctd,trinary,attraction,1,laptops,null,null,null,null,null,null,1,60,50,60,50,60,40,Processing speed,Memory (RAM),NA,NA
NA,NA,NA,NA,NA,choice_trial_setup,html-keyboard-response,60,269414,0.0-4.0-0.28,277,1,2025-05-07T06:27:03Z,b60275e29fe2361ab97ac0ac217840d7,"Mozilla/5.0 (Macintosh; Intel Mac OS X 10_15_7) AppleWebKit/605.1.15 (KHTML, like Gecko) Version/17.1.2 Safari/605.1.15",Macintosh,Safari,17.1.2,OS X,10_15_7,https://5puzkbbxv1.cognition.run/?sona_id=55005,"en-US,en;q=0.9",gumrfdmjjgptgx5,21,"[""Asian""]",No,Female,"India- 18 years
",Yes,535793,NA,null,<p></p>,null,choice,cdt,trinary,repulsion_A,1,laptops,null,null,null,null,null,null,2,NA,NA,NA,NA,NA,NA,NA,NA,NA,NA
NA,NA,NA,NA,NA,choice_trial,survey-html-form,61,275796,0.0-4.0-1.28,277,1,2025-05-07T06:27:03Z,b60275e29fe2361ab97ac0ac217840d7,"Mozilla/5.0 (Macintosh; Intel Mac OS X 10_15_7) AppleWebKit/605.1.15 (KHTML, like Gecko) Version/17.1.2 Safari/605.1.15",Macintosh,Safari,17.1.2,OS X,10_15_7,https://5puzkbbxv1.cognition.run/?sona_id=55005,"en-US,en;q=0.9",gumrfdmjjgptgx5,21,"[""Asian""]",No,Female,"India- 18 years
",Yes,535793,NA,6376,NA,"{""product_choice"":""C""}",choice,cdt,trinary,repulsion_A,1,laptops,null,null,null,null,null,null,2,100,90,100,30,40,20,Processing speed,Memory (RAM),NA,NA
NA,NA,NA,NA,NA,choice_trial_setup,html-keyboard-response,62,276099,0.0-4.0-0.29,277,1,2025-05-07T06:27:03Z,b60275e29fe2361ab97ac0ac217840d7,"Mozilla/5.0 (Macintosh; Intel Mac OS X 10_15_7) AppleWebKit/605.1.15 (KHTML, like Gecko) Version/17.1.2 Safari/605.1.15",Macintosh,Safari,17.1.2,OS X,10_15_7,https://5puzkbbxv1.cognition.run/?sona_id=55005,"en-US,en;q=0.9",gumrfdmjjgptgx5,21,"[""Asian""]",No,Female,"India- 18 years
",Yes,535793,NA,null,<p></p>,null,choice,bw,binary,catch,null,televisions,55,95,15,25,null,null,1,NA,NA,NA,NA,NA,NA,NA,NA,NA,NA
NA,NA,NA,NA,NA,choice_trial,survey-html-form,63,283163,0.0-4.0-1.29,277,1,2025-05-07T06:27:03Z,b60275e29fe2361ab97ac0ac217840d7,"Mozilla/5.0 (Macintosh; Intel Mac OS X 10_15_7) AppleWebKit/605.1.15 (KHTML, like Gecko) Version/17.1.2 Safari/605.1.15",Macintosh,Safari,17.1.2,OS X,10_15_7,https://5puzkbbxv1.cognition.run/?sona_id=55005,"en-US,en;q=0.9",gumrfdmjjgptgx5,21,"[""Asian""]",No,Female,"India- 18 years
",Yes,535793,NA,7062,NA,"{""product_choice"":""A""}",choice,bw,binary,catch,null,televisions,55,95,15,25,null,null,1,null,null,null,null,null,null,Screen size,Average lifespan,NA,NA
NA,NA,NA,NA,NA,choice_trial_setup,html-keyboard-response,64,283466,0.0-4.0-0.30,277,1,2025-05-07T06:27:03Z,b60275e29fe2361ab97ac0ac217840d7,"Mozilla/5.0 (Macintosh; Intel Mac OS X 10_15_7) AppleWebKit/605.1.15 (KHTML, like Gecko) Version/17.1.2 Safari/605.1.15",Macintosh,Safari,17.1.2,OS X,10_15_7,https://5puzkbbxv1.cognition.run/?sona_id=55005,"en-US,en;q=0.9",gumrfdmjjgptgx5,21,"[""Asian""]",No,Female,"India- 18 years
",Yes,535793,NA,null,<p></p>,null,choice,cdt,trinary,attraction,1,washing machines,null,null,null,null,null,null,2,NA,NA,NA,NA,NA,NA,NA,NA,NA,NA
NA,NA,NA,NA,NA,choice_trial,survey-html-form,65,289395,0.0-4.0-1.30,277,1,2025-05-07T06:27:03Z,b60275e29fe2361ab97ac0ac217840d7,"Mozilla/5.0 (Macintosh; Intel Mac OS X 10_15_7) AppleWebKit/605.1.15 (KHTML, like Gecko) Version/17.1.2 Safari/605.1.15",Macintosh,Safari,17.1.2,OS X,10_15_7,https://5puzkbbxv1.cognition.run/?sona_id=55005,"en-US,en;q=0.9",gumrfdmjjgptgx5,21,"[""Asian""]",No,Female,"India- 18 years
",Yes,535793,NA,5923,NA,"{""product_choice"":""C""}",choice,cdt,trinary,attraction,1,washing machines,null,null,null,null,null,null,2,60,50,60,50,60,40,Average lifespan,Energy savings,NA,NA
NA,NA,NA,NA,NA,choice_trial_setup,html-keyboard-response,66,289697,0.0-4.0-0.31,277,1,2025-05-07T06:27:03Z,b60275e29fe2361ab97ac0ac217840d7,"Mozilla/5.0 (Macintosh; Intel Mac OS X 10_15_7) AppleWebKit/605.1.15 (KHTML, like Gecko) Version/17.1.2 Safari/605.1.15",Macintosh,Safari,17.1.2,OS X,10_15_7,https://5puzkbbxv1.cognition.run/?sona_id=55005,"en-US,en;q=0.9",gumrfdmjjgptgx5,21,"[""Asian""]",No,Female,"India- 18 years
",Yes,535793,NA,null,<p></p>,null,choice,wbw,trinary,catch,null,televisions,65,60,30,5,30,15,2,NA,NA,NA,NA,NA,NA,NA,NA,NA,NA
NA,NA,NA,NA,NA,choice_trial,survey-html-form,67,293246,0.0-4.0-1.31,277,1,2025-05-07T06:27:03Z,b60275e29fe2361ab97ac0ac217840d7,"Mozilla/5.0 (Macintosh; Intel Mac OS X 10_15_7) AppleWebKit/605.1.15 (KHTML, like Gecko) Version/17.1.2 Safari/605.1.15",Macintosh,Safari,17.1.2,OS X,10_15_7,https://5puzkbbxv1.cognition.run/?sona_id=55005,"en-US,en;q=0.9",gumrfdmjjgptgx5,21,"[""Asian""]",No,Female,"India- 18 years
",Yes,535793,NA,3541,NA,"{""product_choice"":""B""}",choice,wbw,trinary,catch,null,televisions,65,60,30,5,30,15,2,null,null,null,null,null,null,Screen size,Average lifespan,NA,NA
NA,NA,NA,NA,NA,choice_trial_setup,html-keyboard-response,68,293548,0.0-4.0-0.32,277,1,2025-05-07T06:27:03Z,b60275e29fe2361ab97ac0ac217840d7,"Mozilla/5.0 (Macintosh; Intel Mac OS X 10_15_7) AppleWebKit/605.1.15 (KHTML, like Gecko) Version/17.1.2 Safari/605.1.15",Macintosh,Safari,17.1.2,OS X,10_15_7,https://5puzkbbxv1.cognition.run/?sona_id=55005,"en-US,en;q=0.9",gumrfdmjjgptgx5,21,"[""Asian""]",No,Female,"India- 18 years
",Yes,535793,NA,null,<p></p>,null,choice,bww,trinary,catch,null,laptops,85,90,40,25,5,45,1,NA,NA,NA,NA,NA,NA,NA,NA,NA,NA
NA,NA,NA,NA,NA,choice_trial,survey-html-form,69,296329,0.0-4.0-1.32,277,1,2025-05-07T06:27:03Z,b60275e29fe2361ab97ac0ac217840d7,"Mozilla/5.0 (Macintosh; Intel Mac OS X 10_15_7) AppleWebKit/605.1.15 (KHTML, like Gecko) Version/17.1.2 Safari/605.1.15",Macintosh,Safari,17.1.2,OS X,10_15_7,https://5puzkbbxv1.cognition.run/?sona_id=55005,"en-US,en;q=0.9",gumrfdmjjgptgx5,21,"[""Asian""]",No,Female,"India- 18 years
",Yes,535793,NA,2779,NA,"{""product_choice"":""A""}",choice,bww,trinary,catch,null,laptops,85,90,40,25,5,45,1,null,null,null,null,null,null,Processing speed,Memory (RAM),NA,NA
NA,NA,NA,NA,NA,choice_trial_setup,html-keyboard-response,70,296632,0.0-4.0-0.33,277,1,2025-05-07T06:27:03Z,b60275e29fe2361ab97ac0ac217840d7,"Mozilla/5.0 (Macintosh; Intel Mac OS X 10_15_7) AppleWebKit/605.1.15 (KHTML, like Gecko) Version/17.1.2 Safari/605.1.15",Macintosh,Safari,17.1.2,OS X,10_15_7,https://5puzkbbxv1.cognition.run/?sona_id=55005,"en-US,en;q=0.9",gumrfdmjjgptgx5,21,"[""Asian""]",No,Female,"India- 18 years
",Yes,535793,NA,null,<p></p>,null,choice,cdt,trinary,attraction,2,laptops,null,null,null,null,null,null,2,NA,NA,NA,NA,NA,NA,NA,NA,NA,NA
NA,NA,NA,NA,NA,choice_trial,survey-html-form,71,304099,0.0-4.0-1.33,277,1,2025-05-07T06:27:03Z,b60275e29fe2361ab97ac0ac217840d7,"Mozilla/5.0 (Macintosh; Intel Mac OS X 10_15_7) AppleWebKit/605.1.15 (KHTML, like Gecko) Version/17.1.2 Safari/605.1.15",Macintosh,Safari,17.1.2,OS X,10_15_7,https://5puzkbbxv1.cognition.run/?sona_id=55005,"en-US,en;q=0.9",gumrfdmjjgptgx5,21,"[""Asian""]",No,Female,"India- 18 years
",Yes,535793,NA,7465,NA,"{""product_choice"":""A""}",choice,cdt,trinary,attraction,2,laptops,null,null,null,null,null,null,2,50,60,40,60,50,60,Processing speed,Memory (RAM),NA,NA
NA,NA,NA,NA,NA,choice_trial_setup,html-keyboard-response,72,304401,0.0-4.0-0.34,277,1,2025-05-07T06:27:03Z,b60275e29fe2361ab97ac0ac217840d7,"Mozilla/5.0 (Macintosh; Intel Mac OS X 10_15_7) AppleWebKit/605.1.15 (KHTML, like Gecko) Version/17.1.2 Safari/605.1.15",Macintosh,Safari,17.1.2,OS X,10_15_7,https://5puzkbbxv1.cognition.run/?sona_id=55005,"en-US,en;q=0.9",gumrfdmjjgptgx5,21,"[""Asian""]",No,Female,"India- 18 years
",Yes,535793,NA,null,<p></p>,null,choice,ctd,trinary,attraction,2,microwave ovens,null,null,null,null,null,null,1,NA,NA,NA,NA,NA,NA,NA,NA,NA,NA
NA,NA,NA,NA,NA,choice_trial,survey-html-form,73,308665,0.0-4.0-1.34,277,1,2025-05-07T06:27:03Z,b60275e29fe2361ab97ac0ac217840d7,"Mozilla/5.0 (Macintosh; Intel Mac OS X 10_15_7) AppleWebKit/605.1.15 (KHTML, like Gecko) Version/17.1.2 Safari/605.1.15",Macintosh,Safari,17.1.2,OS X,10_15_7,https://5puzkbbxv1.cognition.run/?sona_id=55005,"en-US,en;q=0.9",gumrfdmjjgptgx5,21,"[""Asian""]",No,Female,"India- 18 years
",Yes,535793,NA,4259,NA,"{""product_choice"":""B""}",choice,ctd,trinary,attraction,2,microwave ovens,null,null,null,null,null,null,1,50,60,40,60,50,60,Warranty,Cooking power,NA,NA
NA,NA,NA,NA,NA,choice_trial_setup,html-keyboard-response,74,308968,0.0-4.0-0.35,277,1,2025-05-07T06:27:03Z,b60275e29fe2361ab97ac0ac217840d7,"Mozilla/5.0 (Macintosh; Intel Mac OS X 10_15_7) AppleWebKit/605.1.15 (KHTML, like Gecko) Version/17.1.2 Safari/605.1.15",Macintosh,Safari,17.1.2,OS X,10_15_7,https://5puzkbbxv1.cognition.run/?sona_id=55005,"en-US,en;q=0.9",gumrfdmjjgptgx5,21,"[""Asian""]",No,Female,"India- 18 years
",Yes,535793,NA,null,<p></p>,null,choice,dct,trinary,attraction,2,washing machines,null,null,null,null,null,null,1,NA,NA,NA,NA,NA,NA,NA,NA,NA,NA
NA,NA,NA,NA,NA,choice_trial,survey-html-form,75,313578,0.0-4.0-1.35,277,1,2025-05-07T06:27:03Z,b60275e29fe2361ab97ac0ac217840d7,"Mozilla/5.0 (Macintosh; Intel Mac OS X 10_15_7) AppleWebKit/605.1.15 (KHTML, like Gecko) Version/17.1.2 Safari/605.1.15",Macintosh,Safari,17.1.2,OS X,10_15_7,https://5puzkbbxv1.cognition.run/?sona_id=55005,"en-US,en;q=0.9",gumrfdmjjgptgx5,21,"[""Asian""]",No,Female,"India- 18 years
",Yes,535793,NA,4605,NA,"{""product_choice"":""B""}",choice,dct,trinary,attraction,2,washing machines,null,null,null,null,null,null,1,50,60,40,60,50,60,Average lifespan,Energy savings,NA,NA
NA,NA,NA,NA,NA,choice_trial_setup,html-keyboard-response,76,313881,0.0-4.0-0.36,277,1,2025-05-07T06:27:03Z,b60275e29fe2361ab97ac0ac217840d7,"Mozilla/5.0 (Macintosh; Intel Mac OS X 10_15_7) AppleWebKit/605.1.15 (KHTML, like Gecko) Version/17.1.2 Safari/605.1.15",Macintosh,Safari,17.1.2,OS X,10_15_7,https://5puzkbbxv1.cognition.run/?sona_id=55005,"en-US,en;q=0.9",gumrfdmjjgptgx5,21,"[""Asian""]",No,Female,"India- 18 years
",Yes,535793,NA,null,<p></p>,null,choice,tdc,trinary,repulsion_A,1,televisions,null,null,null,null,null,null,1,NA,NA,NA,NA,NA,NA,NA,NA,NA,NA
NA,NA,NA,NA,NA,choice_trial,survey-html-form,77,324811,0.0-4.0-1.36,277,1,2025-05-07T06:27:03Z,b60275e29fe2361ab97ac0ac217840d7,"Mozilla/5.0 (Macintosh; Intel Mac OS X 10_15_7) AppleWebKit/605.1.15 (KHTML, like Gecko) Version/17.1.2 Safari/605.1.15",Macintosh,Safari,17.1.2,OS X,10_15_7,https://5puzkbbxv1.cognition.run/?sona_id=55005,"en-US,en;q=0.9",gumrfdmjjgptgx5,21,"[""Asian""]",No,Female,"India- 18 years
",Yes,535793,NA,10924,NA,"{""product_choice"":""A""}",choice,tdc,trinary,repulsion_A,1,televisions,null,null,null,null,null,null,1,100,90,100,30,40,20,Screen size,Average lifespan,NA,NA
NA,NA,NA,NA,NA,choice_trial_setup,html-keyboard-response,78,325112,0.0-4.0-0.37,277,1,2025-05-07T06:27:03Z,b60275e29fe2361ab97ac0ac217840d7,"Mozilla/5.0 (Macintosh; Intel Mac OS X 10_15_7) AppleWebKit/605.1.15 (KHTML, like Gecko) Version/17.1.2 Safari/605.1.15",Macintosh,Safari,17.1.2,OS X,10_15_7,https://5puzkbbxv1.cognition.run/?sona_id=55005,"en-US,en;q=0.9",gumrfdmjjgptgx5,21,"[""Asian""]",No,Female,"India- 18 years
",Yes,535793,NA,null,<p></p>,null,choice,tc,binary,attraction,NA,televisions,null,null,null,null,null,null,2,NA,NA,NA,NA,NA,NA,NA,NA,NA,NA
NA,NA,NA,NA,NA,choice_trial,survey-html-form,79,329595,0.0-4.0-1.37,277,1,2025-05-07T06:27:03Z,b60275e29fe2361ab97ac0ac217840d7,"Mozilla/5.0 (Macintosh; Intel Mac OS X 10_15_7) AppleWebKit/605.1.15 (KHTML, like Gecko) Version/17.1.2 Safari/605.1.15",Macintosh,Safari,17.1.2,OS X,10_15_7,https://5puzkbbxv1.cognition.run/?sona_id=55005,"en-US,en;q=0.9",gumrfdmjjgptgx5,21,"[""Asian""]",No,Female,"India- 18 years
",Yes,535793,NA,4478,NA,"{""product_choice"":""A""}",choice,tc,binary,attraction,NA,televisions,null,null,null,null,null,null,2,60,50,null,50,60,null,Screen size,Average lifespan,NA,NA
NA,NA,NA,NA,NA,choice_trial_setup,html-keyboard-response,80,329897,0.0-4.0-0.38,277,1,2025-05-07T06:27:03Z,b60275e29fe2361ab97ac0ac217840d7,"Mozilla/5.0 (Macintosh; Intel Mac OS X 10_15_7) AppleWebKit/605.1.15 (KHTML, like Gecko) Version/17.1.2 Safari/605.1.15",Macintosh,Safari,17.1.2,OS X,10_15_7,https://5puzkbbxv1.cognition.run/?sona_id=55005,"en-US,en;q=0.9",gumrfdmjjgptgx5,21,"[""Asian""]",No,Female,"India- 18 years
",Yes,535793,NA,null,<p></p>,null,choice,dct,trinary,repulsion_A,1,microwave ovens,null,null,null,null,null,null,2,NA,NA,NA,NA,NA,NA,NA,NA,NA,NA
NA,NA,NA,NA,NA,choice_trial,survey-html-form,81,336244,0.0-4.0-1.38,277,1,2025-05-07T06:27:03Z,b60275e29fe2361ab97ac0ac217840d7,"Mozilla/5.0 (Macintosh; Intel Mac OS X 10_15_7) AppleWebKit/605.1.15 (KHTML, like Gecko) Version/17.1.2 Safari/605.1.15",Macintosh,Safari,17.1.2,OS X,10_15_7,https://5puzkbbxv1.cognition.run/?sona_id=55005,"en-US,en;q=0.9",gumrfdmjjgptgx5,21,"[""Asian""]",No,Female,"India- 18 years
",Yes,535793,NA,6338,NA,"{""product_choice"":""B""}",choice,dct,trinary,repulsion_A,1,microwave ovens,null,null,null,null,null,null,2,100,90,100,30,40,20,Warranty,Cooking power,NA,NA
NA,NA,NA,NA,NA,choice_trial_setup,html-keyboard-response,82,336546,0.0-4.0-0.39,277,1,2025-05-07T06:27:03Z,b60275e29fe2361ab97ac0ac217840d7,"Mozilla/5.0 (Macintosh; Intel Mac OS X 10_15_7) AppleWebKit/605.1.15 (KHTML, like Gecko) Version/17.1.2 Safari/605.1.15",Macintosh,Safari,17.1.2,OS X,10_15_7,https://5puzkbbxv1.cognition.run/?sona_id=55005,"en-US,en;q=0.9",gumrfdmjjgptgx5,21,"[""Asian""]",No,Female,"India- 18 years
",Yes,535793,NA,null,<p></p>,null,choice,dtc,trinary,repulsion_A,2,microwave ovens,null,null,null,null,null,null,2,NA,NA,NA,NA,NA,NA,NA,NA,NA,NA
NA,NA,NA,NA,NA,choice_trial,survey-html-form,83,340898,0.0-4.0-1.39,277,1,2025-05-07T06:27:03Z,b60275e29fe2361ab97ac0ac217840d7,"Mozilla/5.0 (Macintosh; Intel Mac OS X 10_15_7) AppleWebKit/605.1.15 (KHTML, like Gecko) Version/17.1.2 Safari/605.1.15",Macintosh,Safari,17.1.2,OS X,10_15_7,https://5puzkbbxv1.cognition.run/?sona_id=55005,"en-US,en;q=0.9",gumrfdmjjgptgx5,21,"[""Asian""]",No,Female,"India- 18 years
",Yes,535793,NA,4349,NA,"{""product_choice"":""B""}",choice,dtc,trinary,repulsion_A,2,microwave ovens,null,null,null,null,null,null,2,30,40,20,100,90,100,Warranty,Cooking power,NA,NA
NA,NA,NA,NA,NA,choice_trial_setup,html-keyboard-response,84,341202,0.0-4.0-0.40,277,1,2025-05-07T06:27:03Z,b60275e29fe2361ab97ac0ac217840d7,"Mozilla/5.0 (Macintosh; Intel Mac OS X 10_15_7) AppleWebKit/605.1.15 (KHTML, like Gecko) Version/17.1.2 Safari/605.1.15",Macintosh,Safari,17.1.2,OS X,10_15_7,https://5puzkbbxv1.cognition.run/?sona_id=55005,"en-US,en;q=0.9",gumrfdmjjgptgx5,21,"[""Asian""]",No,Female,"India- 18 years
",Yes,535793,NA,null,<p></p>,null,choice,ctd,trinary,repulsion_B,2,washing machines,null,null,null,null,null,null,1,NA,NA,NA,NA,NA,NA,NA,NA,NA,NA
NA,NA,NA,NA,NA,choice_trial,survey-html-form,85,348147,0.0-4.0-1.40,277,1,2025-05-07T06:27:03Z,b60275e29fe2361ab97ac0ac217840d7,"Mozilla/5.0 (Macintosh; Intel Mac OS X 10_15_7) AppleWebKit/605.1.15 (KHTML, like Gecko) Version/17.1.2 Safari/605.1.15",Macintosh,Safari,17.1.2,OS X,10_15_7,https://5puzkbbxv1.cognition.run/?sona_id=55005,"en-US,en;q=0.9",gumrfdmjjgptgx5,21,"[""Asian""]",No,Female,"India- 18 years
",Yes,535793,NA,6937,NA,"{""product_choice"":""B""}",choice,ctd,trinary,repulsion_B,2,washing machines,null,null,null,null,null,null,1,40,30,40,90,100,80,Average lifespan,Energy savings,NA,NA
NA,NA,NA,NA,NA,choice_trial_setup,html-keyboard-response,86,348450,0.0-4.0-0.41,277,1,2025-05-07T06:27:03Z,b60275e29fe2361ab97ac0ac217840d7,"Mozilla/5.0 (Macintosh; Intel Mac OS X 10_15_7) AppleWebKit/605.1.15 (KHTML, like Gecko) Version/17.1.2 Safari/605.1.15",Macintosh,Safari,17.1.2,OS X,10_15_7,https://5puzkbbxv1.cognition.run/?sona_id=55005,"en-US,en;q=0.9",gumrfdmjjgptgx5,21,"[""Asian""]",No,Female,"India- 18 years
",Yes,535793,NA,null,<p></p>,null,choice,dtc,trinary,repulsion_B,2,televisions,null,null,null,null,null,null,2,NA,NA,NA,NA,NA,NA,NA,NA,NA,NA
NA,NA,NA,NA,NA,choice_trial,survey-html-form,87,357896,0.0-4.0-1.41,277,1,2025-05-07T06:27:03Z,b60275e29fe2361ab97ac0ac217840d7,"Mozilla/5.0 (Macintosh; Intel Mac OS X 10_15_7) AppleWebKit/605.1.15 (KHTML, like Gecko) Version/17.1.2 Safari/605.1.15",Macintosh,Safari,17.1.2,OS X,10_15_7,https://5puzkbbxv1.cognition.run/?sona_id=55005,"en-US,en;q=0.9",gumrfdmjjgptgx5,21,"[""Asian""]",No,Female,"India- 18 years
",Yes,535793,NA,9439,NA,"{""product_choice"":""B""}",choice,dtc,trinary,repulsion_B,2,televisions,null,null,null,null,null,null,2,40,30,40,90,100,80,Screen size,Average lifespan,NA,NA
NA,NA,NA,NA,NA,choice_trial_setup,html-keyboard-response,88,358198,0.0-4.0-0.42,277,1,2025-05-07T06:27:03Z,b60275e29fe2361ab97ac0ac217840d7,"Mozilla/5.0 (Macintosh; Intel Mac OS X 10_15_7) AppleWebKit/605.1.15 (KHTML, like Gecko) Version/17.1.2 Safari/605.1.15",Macintosh,Safari,17.1.2,OS X,10_15_7,https://5puzkbbxv1.cognition.run/?sona_id=55005,"en-US,en;q=0.9",gumrfdmjjgptgx5,21,"[""Asian""]",No,Female,"India- 18 years
",Yes,535793,NA,null,<p></p>,null,choice,tc,binary,repulsion,2,microwave ovens,null,null,null,null,null,null,2,NA,NA,NA,NA,NA,NA,NA,NA,NA,NA
NA,NA,NA,NA,NA,choice_trial,survey-html-form,89,364528,0.0-4.0-1.42,277,1,2025-05-07T06:27:03Z,b60275e29fe2361ab97ac0ac217840d7,"Mozilla/5.0 (Macintosh; Intel Mac OS X 10_15_7) AppleWebKit/605.1.15 (KHTML, like Gecko) Version/17.1.2 Safari/605.1.15",Macintosh,Safari,17.1.2,OS X,10_15_7,https://5puzkbbxv1.cognition.run/?sona_id=55005,"en-US,en;q=0.9",gumrfdmjjgptgx5,21,"[""Asian""]",No,Female,"India- 18 years
",Yes,535793,NA,6324,NA,"{""product_choice"":""A""}",choice,tc,binary,repulsion,2,microwave ovens,null,null,null,null,null,null,2,30,40,null,100,90,null,Warranty,Cooking power,NA,NA
NA,NA,NA,NA,NA,choice_trial_setup,html-keyboard-response,90,364831,0.0-4.0-0.43,277,1,2025-05-07T06:27:03Z,b60275e29fe2361ab97ac0ac217840d7,"Mozilla/5.0 (Macintosh; Intel Mac OS X 10_15_7) AppleWebKit/605.1.15 (KHTML, like Gecko) Version/17.1.2 Safari/605.1.15",Macintosh,Safari,17.1.2,OS X,10_15_7,https://5puzkbbxv1.cognition.run/?sona_id=55005,"en-US,en;q=0.9",gumrfdmjjgptgx5,21,"[""Asian""]",No,Female,"India- 18 years
",Yes,535793,NA,null,<p></p>,null,choice,tc,binary,repulsion,1,washing machines,null,null,null,null,null,null,2,NA,NA,NA,NA,NA,NA,NA,NA,NA,NA
NA,NA,NA,NA,NA,choice_trial,survey-html-form,91,368994,0.0-4.0-1.43,277,1,2025-05-07T06:27:03Z,b60275e29fe2361ab97ac0ac217840d7,"Mozilla/5.0 (Macintosh; Intel Mac OS X 10_15_7) AppleWebKit/605.1.15 (KHTML, like Gecko) Version/17.1.2 Safari/605.1.15",Macintosh,Safari,17.1.2,OS X,10_15_7,https://5puzkbbxv1.cognition.run/?sona_id=55005,"en-US,en;q=0.9",gumrfdmjjgptgx5,21,"[""Asian""]",No,Female,"India- 18 years
",Yes,535793,NA,4157,NA,"{""product_choice"":""A""}",choice,tc,binary,repulsion,1,washing machines,null,null,null,null,null,null,2,100,90,null,30,40,null,Average lifespan,Energy savings,NA,NA
NA,NA,NA,NA,NA,post_trials_message,html-button-response,92,370429,0.0-5.0,277,1,2025-05-07T06:27:03Z,b60275e29fe2361ab97ac0ac217840d7,"Mozilla/5.0 (Macintosh; Intel Mac OS X 10_15_7) AppleWebKit/605.1.15 (KHTML, like Gecko) Version/17.1.2 Safari/605.1.15",Macintosh,Safari,17.1.2,OS X,10_15_7,https://5puzkbbxv1.cognition.run/?sona_id=55005,"en-US,en;q=0.9",gumrfdmjjgptgx5,21,"[""Asian""]",No,Female,"India- 18 years
",Yes,535793,NA,1432,<p> <b>Thank you for your patience!</b></p><p>  The study will be done after completing a brief form. </p>,0,NA,NA,NA,NA,NA,NA,NA,NA,NA,NA,NA,NA,NA,NA,NA,NA,NA,NA,NA,NA,NA,NA,NA
NA,NA,NA,NA,NA,survey_message,survey-text,93,460341,0.0-6.0,277,1,2025-05-07T06:27:03Z,b60275e29fe2361ab97ac0ac217840d7,"Mozilla/5.0 (Macintosh; Intel Mac OS X 10_15_7) AppleWebKit/605.1.15 (KHTML, like Gecko) Version/17.1.2 Safari/605.1.15",Macintosh,Safari,17.1.2,OS X,10_15_7,https://5puzkbbxv1.cognition.run/?sona_id=55005,"en-US,en;q=0.9",gumrfdmjjgptgx5,21,"[""Asian""]",No,Female,"India- 18 years
",Yes,535793,NA,89907,NA,"{""Q0"":""I first saw the categories given to me for each of the products. Depending on the type of product, I prioritized which feature mattered to me more. If it was the Microwave, personally I prefer the cooking power over the warranty and so on. So for each of the products  ""}",NA,NA,NA,NA,NA,NA,NA,NA,NA,NA,NA,NA,NA,NA,NA,NA,NA,NA,NA,NA,NA,"I first saw the categories given to me for each of the products. Depending on the type of product, I prioritized which feature mattered to me more. If it was the Microwave, personally I prefer the cooking power over the warranty and so on. So for each of the products",NA
NA,NA,NA,NA,NA,demo_age,survey-text,94,463679,0.0-7.0,277,1,2025-05-07T06:27:03Z,b60275e29fe2361ab97ac0ac217840d7,"Mozilla/5.0 (Macintosh; Intel Mac OS X 10_15_7) AppleWebKit/605.1.15 (KHTML, like Gecko) Version/17.1.2 Safari/605.1.15",Macintosh,Safari,17.1.2,OS X,10_15_7,https://5puzkbbxv1.cognition.run/?sona_id=55005,"en-US,en;q=0.9",gumrfdmjjgptgx5,21,"[""Asian""]",No,Female,"India- 18 years
",Yes,535793,NA,3330,NA,"{""Q0"":""21""}",NA,NA,NA,NA,NA,NA,NA,NA,NA,NA,NA,NA,NA,NA,NA,NA,NA,NA,NA,NA,NA,NA,NA
NA,NA,NA,NA,NA,demo_race,survey-multi-select,95,466679,0.0-8.0,277,1,2025-05-07T06:27:03Z,b60275e29fe2361ab97ac0ac217840d7,"Mozilla/5.0 (Macintosh; Intel Mac OS X 10_15_7) AppleWebKit/605.1.15 (KHTML, like Gecko) Version/17.1.2 Safari/605.1.15",Macintosh,Safari,17.1.2,OS X,10_15_7,https://5puzkbbxv1.cognition.run/?sona_id=55005,"en-US,en;q=0.9",gumrfdmjjgptgx5,21,"[""Asian""]",No,Female,"India- 18 years
",Yes,535793,NA,2996,NA,"{""Q0"":[""Asian""]}",NA,NA,NA,NA,NA,NA,NA,NA,NA,NA,NA,NA,NA,NA,NA,NA,NA,NA,NA,NA,NA,NA,[0]
NA,NA,NA,NA,NA,demo_ethnicity_gender,survey-multi-choice,96,471263,0.0-9.0,277,1,2025-05-07T06:27:03Z,b60275e29fe2361ab97ac0ac217840d7,"Mozilla/5.0 (Macintosh; Intel Mac OS X 10_15_7) AppleWebKit/605.1.15 (KHTML, like Gecko) Version/17.1.2 Safari/605.1.15",Macintosh,Safari,17.1.2,OS X,10_15_7,https://5puzkbbxv1.cognition.run/?sona_id=55005,"en-US,en;q=0.9",gumrfdmjjgptgx5,21,"[""Asian""]",No,Female,"India- 18 years
",Yes,535793,NA,4582,NA,"{""Q0"":""No"",""Q1"":""Female""}",NA,NA,NA,NA,NA,NA,NA,NA,NA,NA,NA,NA,NA,NA,NA,NA,NA,NA,NA,NA,NA,NA,"[0,1]"
NA,NA,NA,NA,NA,demo_countries,survey-text,97,492426,0.0-10.0,277,1,2025-05-07T06:27:03Z,b60275e29fe2361ab97ac0ac217840d7,"Mozilla/5.0 (Macintosh; Intel Mac OS X 10_15_7) AppleWebKit/605.1.15 (KHTML, like Gecko) Version/17.1.2 Safari/605.1.15",Macintosh,Safari,17.1.2,OS X,10_15_7,https://5puzkbbxv1.cognition.run/?sona_id=55005,"en-US,en;q=0.9",gumrfdmjjgptgx5,21,"[""Asian""]",No,Female,"India- 18 years
",Yes,535793,NA,21161,NA,"{""Q0"":""India- 18 years\n""}",NA,NA,NA,NA,NA,NA,NA,NA,NA,NA,NA,NA,NA,NA,NA,NA,NA,NA,NA,NA,NA,NA,NA
NA,NA,NA,NA,NA,demo_prev_study,survey-multi-choice,98,501909,0.0-11.0,277,1,2025-05-07T06:27:03Z,b60275e29fe2361ab97ac0ac217840d7,"Mozilla/5.0 (Macintosh; Intel Mac OS X 10_15_7) AppleWebKit/605.1.15 (KHTML, like Gecko) Version/17.1.2 Safari/605.1.15",Macintosh,Safari,17.1.2,OS X,10_15_7,https://5puzkbbxv1.cognition.run/?sona_id=55005,"en-US,en;q=0.9",gumrfdmjjgptgx5,21,"[""Asian""]",No,Female,"India- 18 years
",Yes,535793,NA,9481,NA,"{""Q0"":""Yes""}",NA,NA,NA,NA,NA,NA,NA,NA,NA,NA,NA,NA,NA,NA,NA,NA,NA,NA,NA,NA,NA,NA,[0]
NA,NA,NA,NA,NA,post_survey_message,html-keyboard-response,99,508702,0.0-12.0,277,1,2025-05-07T06:27:03Z,b60275e29fe2361ab97ac0ac217840d7,"Mozilla/5.0 (Macintosh; Intel Mac OS X 10_15_7) AppleWebKit/605.1.15 (KHTML, like Gecko) Version/17.1.2 Safari/605.1.15",Macintosh,Safari,17.1.2,OS X,10_15_7,https://5puzkbbxv1.cognition.run/?sona_id=55005,"en-US,en;q=0.9",gumrfdmjjgptgx5,21,"[""Asian""]",No,Female,"India- 18 years
",Yes,535793,NA,6791,NA,j,NA,NA,NA,NA,NA,NA,NA,NA,NA,NA,NA,NA,NA,NA,NA,NA,NA,NA,NA,NA,NA,NA,NA
NA,NA,NA,NA,NA,debrief,image-keyboard-response,100,535765,0.0-13.0,277,1,2025-05-07T06:27:03Z,b60275e29fe2361ab97ac0ac217840d7,"Mozilla/5.0 (Macintosh; Intel Mac OS X 10_15_7) AppleWebKit/605.1.15 (KHTML, like Gecko) Version/17.1.2 Safari/605.1.15",Macintosh,Safari,17.1.2,OS X,10_15_7,https://5puzkbbxv1.cognition.run/?sona_id=55005,"en-US,en;q=0.9",gumrfdmjjgptgx5,21,"[""Asian""]",No,Female,"India- 18 years
",Yes,535793,NA,27032,Judg_choice_debrief.png,p,NA,NA,NA,NA,NA,NA,NA,NA,NA,NA,NA,NA,NA,NA,NA,NA,NA,NA,NA,NA,NA,NA,NA
