success,timeout,failed_images,failed_audio,failed_video,screen_id,trial_type,trial_index,time_elapsed,internal_node_id,run_id,condition,recorded_at,source_code_version,user_agent,device,browser,browser_version,platform,platform_version,referer,accept_language,ppt_id,age,race,ethnicity,gender,other_countries,prev_study,exp_duration,view_history,rt,stimulus,response,phase,order,set,effect,t_high,category,d1_best,d2_best,d1_worst1,d2_worst1,d1_worst2,d2_worst2,first_dim,d1_t,d1_c,d1_d,d2_t,d2_c,d2_d,d1_name,d2_name,strategy_response,question_order
TRUE,FALSE,[],[],[],img preload,preload,0,544,0.0-0.0,278,1,2025-05-07T14:53:43Z,b60275e29fe2361ab97ac0ac217840d7,"Mozilla/5.0 (Macintosh; Intel Mac OS X 10_15_7) AppleWebKit/605.1.15 (KHTML, like Gecko) Version/18.4 Safari/605.1.15",Macintosh,Safari,18.4,OS X,10_15_7,https://5puzkbbxv1.cognition.run/?sona_id=56127,"en-US,en;q=0.9",ev7py3rzkjc85pl,19,"[""Black or African-American""]",No,Female,Sudan for 4 years rest of my life in the US,No,329892,NA,NA,NA,NA,NA,NA,NA,NA,NA,NA,NA,NA,NA,NA,NA,NA,NA,NA,NA,NA,NA,NA,NA,NA,NA,NA,NA
NA,NA,NA,NA,NA,computer_message,instructions,1,5336,0.0-1.0,278,1,2025-05-07T14:53:43Z,b60275e29fe2361ab97ac0ac217840d7,"Mozilla/5.0 (Macintosh; Intel Mac OS X 10_15_7) AppleWebKit/605.1.15 (KHTML, like Gecko) Version/18.4 Safari/605.1.15",Macintosh,Safari,18.4,OS X,10_15_7,https://5puzkbbxv1.cognition.run/?sona_id=56127,"en-US,en;q=0.9",ev7py3rzkjc85pl,19,"[""Black or African-American""]",No,Female,Sudan for 4 years rest of my life in the US,No,329892,"[{""page_index"":0,""viewing_time"":4790}]",4790,NA,NA,NA,NA,NA,NA,NA,NA,NA,NA,NA,NA,NA,NA,NA,NA,NA,NA,NA,NA,NA,NA,NA,NA,NA
TRUE,NA,NA,NA,NA,NA,fullscreen,2,8588,0.0-2.0,278,1,2025-05-07T14:53:43Z,b60275e29fe2361ab97ac0ac217840d7,"Mozilla/5.0 (Macintosh; Intel Mac OS X 10_15_7) AppleWebKit/605.1.15 (KHTML, like Gecko) Version/18.4 Safari/605.1.15",Macintosh,Safari,18.4,OS X,10_15_7,https://5puzkbbxv1.cognition.run/?sona_id=56127,"en-US,en;q=0.9",ev7py3rzkjc85pl,19,"[""Black or African-American""]",No,Female,Sudan for 4 years rest of my life in the US,No,329892,NA,2248,NA,NA,NA,NA,NA,NA,NA,NA,NA,NA,NA,NA,NA,NA,NA,NA,NA,NA,NA,NA,NA,NA,NA,NA,NA
NA,NA,NA,NA,NA,choice_instructions,instructions,3,87186,0.0-3.0,278,1,2025-05-07T14:53:43Z,b60275e29fe2361ab97ac0ac217840d7,"Mozilla/5.0 (Macintosh; Intel Mac OS X 10_15_7) AppleWebKit/605.1.15 (KHTML, like Gecko) Version/18.4 Safari/605.1.15",Macintosh,Safari,18.4,OS X,10_15_7,https://5puzkbbxv1.cognition.run/?sona_id=56127,"en-US,en;q=0.9",ev7py3rzkjc85pl,19,"[""Black or African-American""]",No,Female,Sudan for 4 years rest of my life in the US,No,329892,"[{""page_index"":0,""viewing_time"":2196},{""page_index"":1,""viewing_time"":2967},{""page_index"":2,""viewing_time"":2683},{""page_index"":3,""viewing_time"":10800},{""page_index"":4,""viewing_time"":1584},{""page_index"":5,""viewing_time"":54420},{""page_index"":6,""viewing_time"":3948}]",78598,NA,NA,NA,NA,NA,NA,NA,NA,NA,NA,NA,NA,NA,NA,NA,NA,NA,NA,NA,NA,NA,NA,NA,NA,NA
NA,NA,NA,NA,NA,choice_trial_setup,html-keyboard-response,4,87492,0.0-4.0-0.0,278,1,2025-05-07T14:53:43Z,b60275e29fe2361ab97ac0ac217840d7,"Mozilla/5.0 (Macintosh; Intel Mac OS X 10_15_7) AppleWebKit/605.1.15 (KHTML, like Gecko) Version/18.4 Safari/605.1.15",Macintosh,Safari,18.4,OS X,10_15_7,https://5puzkbbxv1.cognition.run/?sona_id=56127,"en-US,en;q=0.9",ev7py3rzkjc85pl,19,"[""Black or African-American""]",No,Female,Sudan for 4 years rest of my life in the US,No,329892,NA,null,<p></p>,null,choice,ct,binary,repulsion,2,washing machines,null,null,null,null,null,null,2,NA,NA,NA,NA,NA,NA,NA,NA,NA,NA
NA,NA,NA,NA,NA,choice_trial,survey-html-form,5,94928,0.0-4.0-1.0,278,1,2025-05-07T14:53:43Z,b60275e29fe2361ab97ac0ac217840d7,"Mozilla/5.0 (Macintosh; Intel Mac OS X 10_15_7) AppleWebKit/605.1.15 (KHTML, like Gecko) Version/18.4 Safari/605.1.15",Macintosh,Safari,18.4,OS X,10_15_7,https://5puzkbbxv1.cognition.run/?sona_id=56127,"en-US,en;q=0.9",ev7py3rzkjc85pl,19,"[""Black or African-American""]",No,Female,Sudan for 4 years rest of my life in the US,No,329892,NA,7430,NA,"{""product_choice"":""A""}",choice,ct,binary,repulsion,2,washing machines,null,null,null,null,null,null,2,30,40,null,100,90,null,Average lifespan,Energy savings,NA,NA
NA,NA,NA,NA,NA,choice_trial_setup,html-keyboard-response,6,95229,0.0-4.0-0.1,278,1,2025-05-07T14:53:43Z,b60275e29fe2361ab97ac0ac217840d7,"Mozilla/5.0 (Macintosh; Intel Mac OS X 10_15_7) AppleWebKit/605.1.15 (KHTML, like Gecko) Version/18.4 Safari/605.1.15",Macintosh,Safari,18.4,OS X,10_15_7,https://5puzkbbxv1.cognition.run/?sona_id=56127,"en-US,en;q=0.9",ev7py3rzkjc85pl,19,"[""Black or African-American""]",No,Female,Sudan for 4 years rest of my life in the US,No,329892,NA,null,<p></p>,null,choice,tc,binary,repulsion,1,washing machines,null,null,null,null,null,null,1,NA,NA,NA,NA,NA,NA,NA,NA,NA,NA
NA,NA,NA,NA,NA,choice_trial,survey-html-form,7,104012,0.0-4.0-1.1,278,1,2025-05-07T14:53:43Z,b60275e29fe2361ab97ac0ac217840d7,"Mozilla/5.0 (Macintosh; Intel Mac OS X 10_15_7) AppleWebKit/605.1.15 (KHTML, like Gecko) Version/18.4 Safari/605.1.15",Macintosh,Safari,18.4,OS X,10_15_7,https://5puzkbbxv1.cognition.run/?sona_id=56127,"en-US,en;q=0.9",ev7py3rzkjc85pl,19,"[""Black or African-American""]",No,Female,Sudan for 4 years rest of my life in the US,No,329892,NA,8779,NA,"{""product_choice"":""B""}",choice,tc,binary,repulsion,1,washing machines,null,null,null,null,null,null,1,100,90,null,30,40,null,Average lifespan,Energy savings,NA,NA
NA,NA,NA,NA,NA,choice_trial_setup,html-keyboard-response,8,104315,0.0-4.0-0.2,278,1,2025-05-07T14:53:43Z,b60275e29fe2361ab97ac0ac217840d7,"Mozilla/5.0 (Macintosh; Intel Mac OS X 10_15_7) AppleWebKit/605.1.15 (KHTML, like Gecko) Version/18.4 Safari/605.1.15",Macintosh,Safari,18.4,OS X,10_15_7,https://5puzkbbxv1.cognition.run/?sona_id=56127,"en-US,en;q=0.9",ev7py3rzkjc85pl,19,"[""Black or African-American""]",No,Female,Sudan for 4 years rest of my life in the US,No,329892,NA,null,<p></p>,null,choice,tc,binary,repulsion,1,televisions,null,null,null,null,null,null,1,NA,NA,NA,NA,NA,NA,NA,NA,NA,NA
NA,NA,NA,NA,NA,choice_trial,survey-html-form,9,106555,0.0-4.0-1.2,278,1,2025-05-07T14:53:43Z,b60275e29fe2361ab97ac0ac217840d7,"Mozilla/5.0 (Macintosh; Intel Mac OS X 10_15_7) AppleWebKit/605.1.15 (KHTML, like Gecko) Version/18.4 Safari/605.1.15",Macintosh,Safari,18.4,OS X,10_15_7,https://5puzkbbxv1.cognition.run/?sona_id=56127,"en-US,en;q=0.9",ev7py3rzkjc85pl,19,"[""Black or African-American""]",No,Female,Sudan for 4 years rest of my life in the US,No,329892,NA,2237,NA,"{""product_choice"":""A""}",choice,tc,binary,repulsion,1,televisions,null,null,null,null,null,null,1,100,90,null,30,40,null,Screen size,Average lifespan,NA,NA
NA,NA,NA,NA,NA,choice_trial_setup,html-keyboard-response,10,106858,0.0-4.0-0.3,278,1,2025-05-07T14:53:43Z,b60275e29fe2361ab97ac0ac217840d7,"Mozilla/5.0 (Macintosh; Intel Mac OS X 10_15_7) AppleWebKit/605.1.15 (KHTML, like Gecko) Version/18.4 Safari/605.1.15",Macintosh,Safari,18.4,OS X,10_15_7,https://5puzkbbxv1.cognition.run/?sona_id=56127,"en-US,en;q=0.9",ev7py3rzkjc85pl,19,"[""Black or African-American""]",No,Female,Sudan for 4 years rest of my life in the US,No,329892,NA,null,<p></p>,null,choice,tcd,trinary,attraction,2,laptops,null,null,null,null,null,null,1,NA,NA,NA,NA,NA,NA,NA,NA,NA,NA
NA,NA,NA,NA,NA,choice_trial,survey-html-form,11,111421,0.0-4.0-1.3,278,1,2025-05-07T14:53:43Z,b60275e29fe2361ab97ac0ac217840d7,"Mozilla/5.0 (Macintosh; Intel Mac OS X 10_15_7) AppleWebKit/605.1.15 (KHTML, like Gecko) Version/18.4 Safari/605.1.15",Macintosh,Safari,18.4,OS X,10_15_7,https://5puzkbbxv1.cognition.run/?sona_id=56127,"en-US,en;q=0.9",ev7py3rzkjc85pl,19,"[""Black or African-American""]",No,Female,Sudan for 4 years rest of my life in the US,No,329892,NA,4560,NA,"{""product_choice"":""C""}",choice,tcd,trinary,attraction,2,laptops,null,null,null,null,null,null,1,50,60,40,60,50,60,Processing speed,Memory (RAM),NA,NA
NA,NA,NA,NA,NA,choice_trial_setup,html-keyboard-response,12,111724,0.0-4.0-0.4,278,1,2025-05-07T14:53:43Z,b60275e29fe2361ab97ac0ac217840d7,"Mozilla/5.0 (Macintosh; Intel Mac OS X 10_15_7) AppleWebKit/605.1.15 (KHTML, like Gecko) Version/18.4 Safari/605.1.15",Macintosh,Safari,18.4,OS X,10_15_7,https://5puzkbbxv1.cognition.run/?sona_id=56127,"en-US,en;q=0.9",ev7py3rzkjc85pl,19,"[""Black or African-American""]",No,Female,Sudan for 4 years rest of my life in the US,No,329892,NA,null,<p></p>,null,choice,cdt,trinary,repulsion_B,1,laptops,null,null,null,null,null,null,1,NA,NA,NA,NA,NA,NA,NA,NA,NA,NA
NA,NA,NA,NA,NA,choice_trial,survey-html-form,13,117094,0.0-4.0-1.4,278,1,2025-05-07T14:53:43Z,b60275e29fe2361ab97ac0ac217840d7,"Mozilla/5.0 (Macintosh; Intel Mac OS X 10_15_7) AppleWebKit/605.1.15 (KHTML, like Gecko) Version/18.4 Safari/605.1.15",Macintosh,Safari,18.4,OS X,10_15_7,https://5puzkbbxv1.cognition.run/?sona_id=56127,"en-US,en;q=0.9",ev7py3rzkjc85pl,19,"[""Black or African-American""]",No,Female,Sudan for 4 years rest of my life in the US,No,329892,NA,5366,NA,"{""product_choice"":""A""}",choice,cdt,trinary,repulsion_B,1,laptops,null,null,null,null,null,null,1,90,100,80,40,30,40,Processing speed,Memory (RAM),NA,NA
NA,NA,NA,NA,NA,choice_trial_setup,html-keyboard-response,14,117397,0.0-4.0-0.5,278,1,2025-05-07T14:53:43Z,b60275e29fe2361ab97ac0ac217840d7,"Mozilla/5.0 (Macintosh; Intel Mac OS X 10_15_7) AppleWebKit/605.1.15 (KHTML, like Gecko) Version/18.4 Safari/605.1.15",Macintosh,Safari,18.4,OS X,10_15_7,https://5puzkbbxv1.cognition.run/?sona_id=56127,"en-US,en;q=0.9",ev7py3rzkjc85pl,19,"[""Black or African-American""]",No,Female,Sudan for 4 years rest of my life in the US,No,329892,NA,null,<p></p>,null,choice,dct,trinary,repulsion_A,1,laptops,null,null,null,null,null,null,1,NA,NA,NA,NA,NA,NA,NA,NA,NA,NA
NA,NA,NA,NA,NA,choice_trial,survey-html-form,15,119724,0.0-4.0-1.5,278,1,2025-05-07T14:53:43Z,b60275e29fe2361ab97ac0ac217840d7,"Mozilla/5.0 (Macintosh; Intel Mac OS X 10_15_7) AppleWebKit/605.1.15 (KHTML, like Gecko) Version/18.4 Safari/605.1.15",Macintosh,Safari,18.4,OS X,10_15_7,https://5puzkbbxv1.cognition.run/?sona_id=56127,"en-US,en;q=0.9",ev7py3rzkjc85pl,19,"[""Black or African-American""]",No,Female,Sudan for 4 years rest of my life in the US,No,329892,NA,2321,NA,"{""product_choice"":""B""}",choice,dct,trinary,repulsion_A,1,laptops,null,null,null,null,null,null,1,100,90,100,30,40,20,Processing speed,Memory (RAM),NA,NA
NA,NA,NA,NA,NA,choice_trial_setup,html-keyboard-response,16,120026,0.0-4.0-0.6,278,1,2025-05-07T14:53:43Z,b60275e29fe2361ab97ac0ac217840d7,"Mozilla/5.0 (Macintosh; Intel Mac OS X 10_15_7) AppleWebKit/605.1.15 (KHTML, like Gecko) Version/18.4 Safari/605.1.15",Macintosh,Safari,18.4,OS X,10_15_7,https://5puzkbbxv1.cognition.run/?sona_id=56127,"en-US,en;q=0.9",ev7py3rzkjc85pl,19,"[""Black or African-American""]",No,Female,Sudan for 4 years rest of my life in the US,No,329892,NA,null,<p></p>,null,choice,tdc,trinary,repulsion_A,2,televisions,null,null,null,null,null,null,2,NA,NA,NA,NA,NA,NA,NA,NA,NA,NA
NA,NA,NA,NA,NA,choice_trial,survey-html-form,17,121625,0.0-4.0-1.6,278,1,2025-05-07T14:53:43Z,b60275e29fe2361ab97ac0ac217840d7,"Mozilla/5.0 (Macintosh; Intel Mac OS X 10_15_7) AppleWebKit/605.1.15 (KHTML, like Gecko) Version/18.4 Safari/605.1.15",Macintosh,Safari,18.4,OS X,10_15_7,https://5puzkbbxv1.cognition.run/?sona_id=56127,"en-US,en;q=0.9",ev7py3rzkjc85pl,19,"[""Black or African-American""]",No,Female,Sudan for 4 years rest of my life in the US,No,329892,NA,1596,NA,"{""product_choice"":""C""}",choice,tdc,trinary,repulsion_A,2,televisions,null,null,null,null,null,null,2,30,40,20,100,90,100,Screen size,Average lifespan,NA,NA
NA,NA,NA,NA,NA,choice_trial_setup,html-keyboard-response,18,121928,0.0-4.0-0.7,278,1,2025-05-07T14:53:43Z,b60275e29fe2361ab97ac0ac217840d7,"Mozilla/5.0 (Macintosh; Intel Mac OS X 10_15_7) AppleWebKit/605.1.15 (KHTML, like Gecko) Version/18.4 Safari/605.1.15",Macintosh,Safari,18.4,OS X,10_15_7,https://5puzkbbxv1.cognition.run/?sona_id=56127,"en-US,en;q=0.9",ev7py3rzkjc85pl,19,"[""Black or African-American""]",No,Female,Sudan for 4 years rest of my life in the US,No,329892,NA,null,<p></p>,null,choice,tcd,trinary,repulsion_B,2,washing machines,null,null,null,null,null,null,2,NA,NA,NA,NA,NA,NA,NA,NA,NA,NA
NA,NA,NA,NA,NA,choice_trial,survey-html-form,19,123894,0.0-4.0-1.7,278,1,2025-05-07T14:53:43Z,b60275e29fe2361ab97ac0ac217840d7,"Mozilla/5.0 (Macintosh; Intel Mac OS X 10_15_7) AppleWebKit/605.1.15 (KHTML, like Gecko) Version/18.4 Safari/605.1.15",Macintosh,Safari,18.4,OS X,10_15_7,https://5puzkbbxv1.cognition.run/?sona_id=56127,"en-US,en;q=0.9",ev7py3rzkjc85pl,19,"[""Black or African-American""]",No,Female,Sudan for 4 years rest of my life in the US,No,329892,NA,1963,NA,"{""product_choice"":""C""}",choice,tcd,trinary,repulsion_B,2,washing machines,null,null,null,null,null,null,2,40,30,40,90,100,80,Average lifespan,Energy savings,NA,NA
NA,NA,NA,NA,NA,choice_trial_setup,html-keyboard-response,20,124197,0.0-4.0-0.8,278,1,2025-05-07T14:53:43Z,b60275e29fe2361ab97ac0ac217840d7,"Mozilla/5.0 (Macintosh; Intel Mac OS X 10_15_7) AppleWebKit/605.1.15 (KHTML, like Gecko) Version/18.4 Safari/605.1.15",Macintosh,Safari,18.4,OS X,10_15_7,https://5puzkbbxv1.cognition.run/?sona_id=56127,"en-US,en;q=0.9",ev7py3rzkjc85pl,19,"[""Black or African-American""]",No,Female,Sudan for 4 years rest of my life in the US,No,329892,NA,null,<p></p>,null,choice,dtc,trinary,repulsion_B,2,laptops,null,null,null,null,null,null,2,NA,NA,NA,NA,NA,NA,NA,NA,NA,NA
NA,NA,NA,NA,NA,choice_trial,survey-html-form,21,126358,0.0-4.0-1.8,278,1,2025-05-07T14:53:43Z,b60275e29fe2361ab97ac0ac217840d7,"Mozilla/5.0 (Macintosh; Intel Mac OS X 10_15_7) AppleWebKit/605.1.15 (KHTML, like Gecko) Version/18.4 Safari/605.1.15",Macintosh,Safari,18.4,OS X,10_15_7,https://5puzkbbxv1.cognition.run/?sona_id=56127,"en-US,en;q=0.9",ev7py3rzkjc85pl,19,"[""Black or African-American""]",No,Female,Sudan for 4 years rest of my life in the US,No,329892,NA,2155,NA,"{""product_choice"":""A""}",choice,dtc,trinary,repulsion_B,2,laptops,null,null,null,null,null,null,2,40,30,40,90,100,80,Processing speed,Memory (RAM),NA,NA
NA,NA,NA,NA,NA,choice_trial_setup,html-keyboard-response,22,126661,0.0-4.0-0.9,278,1,2025-05-07T14:53:43Z,b60275e29fe2361ab97ac0ac217840d7,"Mozilla/5.0 (Macintosh; Intel Mac OS X 10_15_7) AppleWebKit/605.1.15 (KHTML, like Gecko) Version/18.4 Safari/605.1.15",Macintosh,Safari,18.4,OS X,10_15_7,https://5puzkbbxv1.cognition.run/?sona_id=56127,"en-US,en;q=0.9",ev7py3rzkjc85pl,19,"[""Black or African-American""]",No,Female,Sudan for 4 years rest of my life in the US,No,329892,NA,null,<p></p>,null,choice,ct,binary,repulsion,1,laptops,null,null,null,null,null,null,1,NA,NA,NA,NA,NA,NA,NA,NA,NA,NA
NA,NA,NA,NA,NA,choice_trial,survey-html-form,23,128661,0.0-4.0-1.9,278,1,2025-05-07T14:53:43Z,b60275e29fe2361ab97ac0ac217840d7,"Mozilla/5.0 (Macintosh; Intel Mac OS X 10_15_7) AppleWebKit/605.1.15 (KHTML, like Gecko) Version/18.4 Safari/605.1.15",Macintosh,Safari,18.4,OS X,10_15_7,https://5puzkbbxv1.cognition.run/?sona_id=56127,"en-US,en;q=0.9",ev7py3rzkjc85pl,19,"[""Black or African-American""]",No,Female,Sudan for 4 years rest of my life in the US,No,329892,NA,1996,NA,"{""product_choice"":""A""}",choice,ct,binary,repulsion,1,laptops,null,null,null,null,null,null,1,100,90,null,30,40,null,Processing speed,Memory (RAM),NA,NA
NA,NA,NA,NA,NA,choice_trial_setup,html-keyboard-response,24,128964,0.0-4.0-0.10,278,1,2025-05-07T14:53:43Z,b60275e29fe2361ab97ac0ac217840d7,"Mozilla/5.0 (Macintosh; Intel Mac OS X 10_15_7) AppleWebKit/605.1.15 (KHTML, like Gecko) Version/18.4 Safari/605.1.15",Macintosh,Safari,18.4,OS X,10_15_7,https://5puzkbbxv1.cognition.run/?sona_id=56127,"en-US,en;q=0.9",ev7py3rzkjc85pl,19,"[""Black or African-American""]",No,Female,Sudan for 4 years rest of my life in the US,No,329892,NA,null,<p></p>,null,choice,dct,trinary,repulsion_B,1,microwave ovens,null,null,null,null,null,null,2,NA,NA,NA,NA,NA,NA,NA,NA,NA,NA
NA,NA,NA,NA,NA,choice_trial,survey-html-form,25,131396,0.0-4.0-1.10,278,1,2025-05-07T14:53:43Z,b60275e29fe2361ab97ac0ac217840d7,"Mozilla/5.0 (Macintosh; Intel Mac OS X 10_15_7) AppleWebKit/605.1.15 (KHTML, like Gecko) Version/18.4 Safari/605.1.15",Macintosh,Safari,18.4,OS X,10_15_7,https://5puzkbbxv1.cognition.run/?sona_id=56127,"en-US,en;q=0.9",ev7py3rzkjc85pl,19,"[""Black or African-American""]",No,Female,Sudan for 4 years rest of my life in the US,No,329892,NA,2428,NA,"{""product_choice"":""C""}",choice,dct,trinary,repulsion_B,1,microwave ovens,null,null,null,null,null,null,2,90,100,80,40,30,40,Warranty,Cooking power,NA,NA
NA,NA,NA,NA,NA,choice_trial_setup,html-keyboard-response,26,131699,0.0-4.0-0.11,278,1,2025-05-07T14:53:43Z,b60275e29fe2361ab97ac0ac217840d7,"Mozilla/5.0 (Macintosh; Intel Mac OS X 10_15_7) AppleWebKit/605.1.15 (KHTML, like Gecko) Version/18.4 Safari/605.1.15",Macintosh,Safari,18.4,OS X,10_15_7,https://5puzkbbxv1.cognition.run/?sona_id=56127,"en-US,en;q=0.9",ev7py3rzkjc85pl,19,"[""Black or African-American""]",No,Female,Sudan for 4 years rest of my life in the US,No,329892,NA,null,<p></p>,null,choice,tdc,trinary,attraction,2,televisions,null,null,null,null,null,null,1,NA,NA,NA,NA,NA,NA,NA,NA,NA,NA
NA,NA,NA,NA,NA,choice_trial,survey-html-form,27,134692,0.0-4.0-1.11,278,1,2025-05-07T14:53:43Z,b60275e29fe2361ab97ac0ac217840d7,"Mozilla/5.0 (Macintosh; Intel Mac OS X 10_15_7) AppleWebKit/605.1.15 (KHTML, like Gecko) Version/18.4 Safari/605.1.15",Macintosh,Safari,18.4,OS X,10_15_7,https://5puzkbbxv1.cognition.run/?sona_id=56127,"en-US,en;q=0.9",ev7py3rzkjc85pl,19,"[""Black or African-American""]",No,Female,Sudan for 4 years rest of my life in the US,No,329892,NA,2991,NA,"{""product_choice"":""A""}",choice,tdc,trinary,attraction,2,televisions,null,null,null,null,null,null,1,50,60,40,60,50,60,Screen size,Average lifespan,NA,NA
NA,NA,NA,NA,NA,choice_trial_setup,html-keyboard-response,28,134995,0.0-4.0-0.12,278,1,2025-05-07T14:53:43Z,b60275e29fe2361ab97ac0ac217840d7,"Mozilla/5.0 (Macintosh; Intel Mac OS X 10_15_7) AppleWebKit/605.1.15 (KHTML, like Gecko) Version/18.4 Safari/605.1.15",Macintosh,Safari,18.4,OS X,10_15_7,https://5puzkbbxv1.cognition.run/?sona_id=56127,"en-US,en;q=0.9",ev7py3rzkjc85pl,19,"[""Black or African-American""]",No,Female,Sudan for 4 years rest of my life in the US,No,329892,NA,null,<p></p>,null,choice,cdt,trinary,repulsion_A,1,televisions,null,null,null,null,null,null,1,NA,NA,NA,NA,NA,NA,NA,NA,NA,NA
NA,NA,NA,NA,NA,choice_trial,survey-html-form,29,137477,0.0-4.0-1.12,278,1,2025-05-07T14:53:43Z,b60275e29fe2361ab97ac0ac217840d7,"Mozilla/5.0 (Macintosh; Intel Mac OS X 10_15_7) AppleWebKit/605.1.15 (KHTML, like Gecko) Version/18.4 Safari/605.1.15",Macintosh,Safari,18.4,OS X,10_15_7,https://5puzkbbxv1.cognition.run/?sona_id=56127,"en-US,en;q=0.9",ev7py3rzkjc85pl,19,"[""Black or African-American""]",No,Female,Sudan for 4 years rest of my life in the US,No,329892,NA,2477,NA,"{""product_choice"":""B""}",choice,cdt,trinary,repulsion_A,1,televisions,null,null,null,null,null,null,1,100,90,100,30,40,20,Screen size,Average lifespan,NA,NA
NA,NA,NA,NA,NA,choice_trial_setup,html-keyboard-response,30,137780,0.0-4.0-0.13,278,1,2025-05-07T14:53:43Z,b60275e29fe2361ab97ac0ac217840d7,"Mozilla/5.0 (Macintosh; Intel Mac OS X 10_15_7) AppleWebKit/605.1.15 (KHTML, like Gecko) Version/18.4 Safari/605.1.15",Macintosh,Safari,18.4,OS X,10_15_7,https://5puzkbbxv1.cognition.run/?sona_id=56127,"en-US,en;q=0.9",ev7py3rzkjc85pl,19,"[""Black or African-American""]",No,Female,Sudan for 4 years rest of my life in the US,No,329892,NA,null,<p></p>,null,choice,ct,binary,attraction,NA,laptops,null,null,null,null,null,null,1,NA,NA,NA,NA,NA,NA,NA,NA,NA,NA
NA,NA,NA,NA,NA,choice_trial,survey-html-form,31,139410,0.0-4.0-1.13,278,1,2025-05-07T14:53:43Z,b60275e29fe2361ab97ac0ac217840d7,"Mozilla/5.0 (Macintosh; Intel Mac OS X 10_15_7) AppleWebKit/605.1.15 (KHTML, like Gecko) Version/18.4 Safari/605.1.15",Macintosh,Safari,18.4,OS X,10_15_7,https://5puzkbbxv1.cognition.run/?sona_id=56127,"en-US,en;q=0.9",ev7py3rzkjc85pl,19,"[""Black or African-American""]",No,Female,Sudan for 4 years rest of my life in the US,No,329892,NA,1624,NA,"{""product_choice"":""A""}",choice,ct,binary,attraction,NA,laptops,null,null,null,null,null,null,1,60,50,null,50,60,null,Processing speed,Memory (RAM),NA,NA
NA,NA,NA,NA,NA,choice_trial_setup,html-keyboard-response,32,139714,0.0-4.0-0.14,278,1,2025-05-07T14:53:43Z,b60275e29fe2361ab97ac0ac217840d7,"Mozilla/5.0 (Macintosh; Intel Mac OS X 10_15_7) AppleWebKit/605.1.15 (KHTML, like Gecko) Version/18.4 Safari/605.1.15",Macintosh,Safari,18.4,OS X,10_15_7,https://5puzkbbxv1.cognition.run/?sona_id=56127,"en-US,en;q=0.9",ev7py3rzkjc85pl,19,"[""Black or African-American""]",No,Female,Sudan for 4 years rest of my life in the US,No,329892,NA,null,<p></p>,null,choice,ct,binary,repulsion,2,microwave ovens,null,null,null,null,null,null,2,NA,NA,NA,NA,NA,NA,NA,NA,NA,NA
NA,NA,NA,NA,NA,choice_trial,survey-html-form,33,141442,0.0-4.0-1.14,278,1,2025-05-07T14:53:43Z,b60275e29fe2361ab97ac0ac217840d7,"Mozilla/5.0 (Macintosh; Intel Mac OS X 10_15_7) AppleWebKit/605.1.15 (KHTML, like Gecko) Version/18.4 Safari/605.1.15",Macintosh,Safari,18.4,OS X,10_15_7,https://5puzkbbxv1.cognition.run/?sona_id=56127,"en-US,en;q=0.9",ev7py3rzkjc85pl,19,"[""Black or African-American""]",No,Female,Sudan for 4 years rest of my life in the US,No,329892,NA,1723,NA,"{""product_choice"":""B""}",choice,ct,binary,repulsion,2,microwave ovens,null,null,null,null,null,null,2,30,40,null,100,90,null,Warranty,Cooking power,NA,NA
NA,NA,NA,NA,NA,choice_trial_setup,html-keyboard-response,34,141746,0.0-4.0-0.15,278,1,2025-05-07T14:53:43Z,b60275e29fe2361ab97ac0ac217840d7,"Mozilla/5.0 (Macintosh; Intel Mac OS X 10_15_7) AppleWebKit/605.1.15 (KHTML, like Gecko) Version/18.4 Safari/605.1.15",Macintosh,Safari,18.4,OS X,10_15_7,https://5puzkbbxv1.cognition.run/?sona_id=56127,"en-US,en;q=0.9",ev7py3rzkjc85pl,19,"[""Black or African-American""]",No,Female,Sudan for 4 years rest of my life in the US,No,329892,NA,null,<p></p>,null,choice,bw,binary,catch,null,televisions,50,65,35,10,null,null,1,NA,NA,NA,NA,NA,NA,NA,NA,NA,NA
NA,NA,NA,NA,NA,choice_trial,survey-html-form,35,143495,0.0-4.0-1.15,278,1,2025-05-07T14:53:43Z,b60275e29fe2361ab97ac0ac217840d7,"Mozilla/5.0 (Macintosh; Intel Mac OS X 10_15_7) AppleWebKit/605.1.15 (KHTML, like Gecko) Version/18.4 Safari/605.1.15",Macintosh,Safari,18.4,OS X,10_15_7,https://5puzkbbxv1.cognition.run/?sona_id=56127,"en-US,en;q=0.9",ev7py3rzkjc85pl,19,"[""Black or African-American""]",No,Female,Sudan for 4 years rest of my life in the US,No,329892,NA,1745,NA,"{""product_choice"":""A""}",choice,bw,binary,catch,null,televisions,50,65,35,10,null,null,1,null,null,null,null,null,null,Screen size,Average lifespan,NA,NA
NA,NA,NA,NA,NA,choice_trial_setup,html-keyboard-response,36,143798,0.0-4.0-0.16,278,1,2025-05-07T14:53:43Z,b60275e29fe2361ab97ac0ac217840d7,"Mozilla/5.0 (Macintosh; Intel Mac OS X 10_15_7) AppleWebKit/605.1.15 (KHTML, like Gecko) Version/18.4 Safari/605.1.15",Macintosh,Safari,18.4,OS X,10_15_7,https://5puzkbbxv1.cognition.run/?sona_id=56127,"en-US,en;q=0.9",ev7py3rzkjc85pl,19,"[""Black or African-American""]",No,Female,Sudan for 4 years rest of my life in the US,No,329892,NA,null,<p></p>,null,choice,ct,binary,repulsion,1,microwave ovens,null,null,null,null,null,null,2,NA,NA,NA,NA,NA,NA,NA,NA,NA,NA
NA,NA,NA,NA,NA,choice_trial,survey-html-form,37,145656,0.0-4.0-1.16,278,1,2025-05-07T14:53:43Z,b60275e29fe2361ab97ac0ac217840d7,"Mozilla/5.0 (Macintosh; Intel Mac OS X 10_15_7) AppleWebKit/605.1.15 (KHTML, like Gecko) Version/18.4 Safari/605.1.15",Macintosh,Safari,18.4,OS X,10_15_7,https://5puzkbbxv1.cognition.run/?sona_id=56127,"en-US,en;q=0.9",ev7py3rzkjc85pl,19,"[""Black or African-American""]",No,Female,Sudan for 4 years rest of my life in the US,No,329892,NA,1853,NA,"{""product_choice"":""B""}",choice,ct,binary,repulsion,1,microwave ovens,null,null,null,null,null,null,2,100,90,null,30,40,null,Warranty,Cooking power,NA,NA
NA,NA,NA,NA,NA,choice_trial_setup,html-keyboard-response,38,145960,0.0-4.0-0.17,278,1,2025-05-07T14:53:43Z,b60275e29fe2361ab97ac0ac217840d7,"Mozilla/5.0 (Macintosh; Intel Mac OS X 10_15_7) AppleWebKit/605.1.15 (KHTML, like Gecko) Version/18.4 Safari/605.1.15",Macintosh,Safari,18.4,OS X,10_15_7,https://5puzkbbxv1.cognition.run/?sona_id=56127,"en-US,en;q=0.9",ev7py3rzkjc85pl,19,"[""Black or African-American""]",No,Female,Sudan for 4 years rest of my life in the US,No,329892,NA,null,<p></p>,null,choice,ct,binary,attraction,NA,televisions,null,null,null,null,null,null,1,NA,NA,NA,NA,NA,NA,NA,NA,NA,NA
NA,NA,NA,NA,NA,choice_trial,survey-html-form,39,147724,0.0-4.0-1.17,278,1,2025-05-07T14:53:43Z,b60275e29fe2361ab97ac0ac217840d7,"Mozilla/5.0 (Macintosh; Intel Mac OS X 10_15_7) AppleWebKit/605.1.15 (KHTML, like Gecko) Version/18.4 Safari/605.1.15",Macintosh,Safari,18.4,OS X,10_15_7,https://5puzkbbxv1.cognition.run/?sona_id=56127,"en-US,en;q=0.9",ev7py3rzkjc85pl,19,"[""Black or African-American""]",No,Female,Sudan for 4 years rest of my life in the US,No,329892,NA,1761,NA,"{""product_choice"":""B""}",choice,ct,binary,attraction,NA,televisions,null,null,null,null,null,null,1,60,50,null,50,60,null,Screen size,Average lifespan,NA,NA
NA,NA,NA,NA,NA,choice_trial_setup,html-keyboard-response,40,148026,0.0-4.0-0.18,278,1,2025-05-07T14:53:43Z,b60275e29fe2361ab97ac0ac217840d7,"Mozilla/5.0 (Macintosh; Intel Mac OS X 10_15_7) AppleWebKit/605.1.15 (KHTML, like Gecko) Version/18.4 Safari/605.1.15",Macintosh,Safari,18.4,OS X,10_15_7,https://5puzkbbxv1.cognition.run/?sona_id=56127,"en-US,en;q=0.9",ev7py3rzkjc85pl,19,"[""Black or African-American""]",No,Female,Sudan for 4 years rest of my life in the US,No,329892,NA,null,<p></p>,null,choice,dct,trinary,repulsion_B,2,televisions,null,null,null,null,null,null,2,NA,NA,NA,NA,NA,NA,NA,NA,NA,NA
NA,NA,NA,NA,NA,choice_trial,survey-html-form,41,150342,0.0-4.0-1.18,278,1,2025-05-07T14:53:43Z,b60275e29fe2361ab97ac0ac217840d7,"Mozilla/5.0 (Macintosh; Intel Mac OS X 10_15_7) AppleWebKit/605.1.15 (KHTML, like Gecko) Version/18.4 Safari/605.1.15",Macintosh,Safari,18.4,OS X,10_15_7,https://5puzkbbxv1.cognition.run/?sona_id=56127,"en-US,en;q=0.9",ev7py3rzkjc85pl,19,"[""Black or African-American""]",No,Female,Sudan for 4 years rest of my life in the US,No,329892,NA,2314,NA,"{""product_choice"":""B""}",choice,dct,trinary,repulsion_B,2,televisions,null,null,null,null,null,null,2,40,30,40,90,100,80,Screen size,Average lifespan,NA,NA
NA,NA,NA,NA,NA,choice_trial_setup,html-keyboard-response,42,150646,0.0-4.0-0.19,278,1,2025-05-07T14:53:43Z,b60275e29fe2361ab97ac0ac217840d7,"Mozilla/5.0 (Macintosh; Intel Mac OS X 10_15_7) AppleWebKit/605.1.15 (KHTML, like Gecko) Version/18.4 Safari/605.1.15",Macintosh,Safari,18.4,OS X,10_15_7,https://5puzkbbxv1.cognition.run/?sona_id=56127,"en-US,en;q=0.9",ev7py3rzkjc85pl,19,"[""Black or African-American""]",No,Female,Sudan for 4 years rest of my life in the US,No,329892,NA,null,<p></p>,null,choice,cdt,trinary,attraction,1,washing machines,null,null,null,null,null,null,1,NA,NA,NA,NA,NA,NA,NA,NA,NA,NA
NA,NA,NA,NA,NA,choice_trial,survey-html-form,43,152328,0.0-4.0-1.19,278,1,2025-05-07T14:53:43Z,b60275e29fe2361ab97ac0ac217840d7,"Mozilla/5.0 (Macintosh; Intel Mac OS X 10_15_7) AppleWebKit/605.1.15 (KHTML, like Gecko) Version/18.4 Safari/605.1.15",Macintosh,Safari,18.4,OS X,10_15_7,https://5puzkbbxv1.cognition.run/?sona_id=56127,"en-US,en;q=0.9",ev7py3rzkjc85pl,19,"[""Black or African-American""]",No,Female,Sudan for 4 years rest of my life in the US,No,329892,NA,1679,NA,"{""product_choice"":""A""}",choice,cdt,trinary,attraction,1,washing machines,null,null,null,null,null,null,1,60,50,60,50,60,40,Average lifespan,Energy savings,NA,NA
NA,NA,NA,NA,NA,choice_trial_setup,html-keyboard-response,44,152632,0.0-4.0-0.20,278,1,2025-05-07T14:53:43Z,b60275e29fe2361ab97ac0ac217840d7,"Mozilla/5.0 (Macintosh; Intel Mac OS X 10_15_7) AppleWebKit/605.1.15 (KHTML, like Gecko) Version/18.4 Safari/605.1.15",Macintosh,Safari,18.4,OS X,10_15_7,https://5puzkbbxv1.cognition.run/?sona_id=56127,"en-US,en;q=0.9",ev7py3rzkjc85pl,19,"[""Black or African-American""]",No,Female,Sudan for 4 years rest of my life in the US,No,329892,NA,null,<p></p>,null,choice,tcd,trinary,attraction,1,televisions,null,null,null,null,null,null,2,NA,NA,NA,NA,NA,NA,NA,NA,NA,NA
NA,NA,NA,NA,NA,choice_trial,survey-html-form,45,154326,0.0-4.0-1.20,278,1,2025-05-07T14:53:43Z,b60275e29fe2361ab97ac0ac217840d7,"Mozilla/5.0 (Macintosh; Intel Mac OS X 10_15_7) AppleWebKit/605.1.15 (KHTML, like Gecko) Version/18.4 Safari/605.1.15",Macintosh,Safari,18.4,OS X,10_15_7,https://5puzkbbxv1.cognition.run/?sona_id=56127,"en-US,en;q=0.9",ev7py3rzkjc85pl,19,"[""Black or African-American""]",No,Female,Sudan for 4 years rest of my life in the US,No,329892,NA,1684,NA,"{""product_choice"":""C""}",choice,tcd,trinary,attraction,1,televisions,null,null,null,null,null,null,2,60,50,60,50,60,40,Screen size,Average lifespan,NA,NA
NA,NA,NA,NA,NA,choice_trial_setup,html-keyboard-response,46,154631,0.0-4.0-0.21,278,1,2025-05-07T14:53:43Z,b60275e29fe2361ab97ac0ac217840d7,"Mozilla/5.0 (Macintosh; Intel Mac OS X 10_15_7) AppleWebKit/605.1.15 (KHTML, like Gecko) Version/18.4 Safari/605.1.15",Macintosh,Safari,18.4,OS X,10_15_7,https://5puzkbbxv1.cognition.run/?sona_id=56127,"en-US,en;q=0.9",ev7py3rzkjc85pl,19,"[""Black or African-American""]",No,Female,Sudan for 4 years rest of my life in the US,No,329892,NA,null,<p></p>,null,choice,ctd,trinary,repulsion_A,2,washing machines,null,null,null,null,null,null,1,NA,NA,NA,NA,NA,NA,NA,NA,NA,NA
NA,NA,NA,NA,NA,choice_trial,survey-html-form,47,156196,0.0-4.0-1.21,278,1,2025-05-07T14:53:43Z,b60275e29fe2361ab97ac0ac217840d7,"Mozilla/5.0 (Macintosh; Intel Mac OS X 10_15_7) AppleWebKit/605.1.15 (KHTML, like Gecko) Version/18.4 Safari/605.1.15",Macintosh,Safari,18.4,OS X,10_15_7,https://5puzkbbxv1.cognition.run/?sona_id=56127,"en-US,en;q=0.9",ev7py3rzkjc85pl,19,"[""Black or African-American""]",No,Female,Sudan for 4 years rest of my life in the US,No,329892,NA,1558,NA,"{""product_choice"":""B""}",choice,ctd,trinary,repulsion_A,2,washing machines,null,null,null,null,null,null,1,30,40,20,100,90,100,Average lifespan,Energy savings,NA,NA
NA,NA,NA,NA,NA,choice_trial_setup,html-keyboard-response,48,156500,0.0-4.0-0.22,278,1,2025-05-07T14:53:43Z,b60275e29fe2361ab97ac0ac217840d7,"Mozilla/5.0 (Macintosh; Intel Mac OS X 10_15_7) AppleWebKit/605.1.15 (KHTML, like Gecko) Version/18.4 Safari/605.1.15",Macintosh,Safari,18.4,OS X,10_15_7,https://5puzkbbxv1.cognition.run/?sona_id=56127,"en-US,en;q=0.9",ev7py3rzkjc85pl,19,"[""Black or African-American""]",No,Female,Sudan for 4 years rest of my life in the US,No,329892,NA,null,<p></p>,null,choice,ctd,trinary,attraction,1,laptops,null,null,null,null,null,null,2,NA,NA,NA,NA,NA,NA,NA,NA,NA,NA
NA,NA,NA,NA,NA,choice_trial,survey-html-form,49,159579,0.0-4.0-1.22,278,1,2025-05-07T14:53:43Z,b60275e29fe2361ab97ac0ac217840d7,"Mozilla/5.0 (Macintosh; Intel Mac OS X 10_15_7) AppleWebKit/605.1.15 (KHTML, like Gecko) Version/18.4 Safari/605.1.15",Macintosh,Safari,18.4,OS X,10_15_7,https://5puzkbbxv1.cognition.run/?sona_id=56127,"en-US,en;q=0.9",ev7py3rzkjc85pl,19,"[""Black or African-American""]",No,Female,Sudan for 4 years rest of my life in the US,No,329892,NA,3074,NA,"{""product_choice"":""A""}",choice,ctd,trinary,attraction,1,laptops,null,null,null,null,null,null,2,60,50,60,50,60,40,Processing speed,Memory (RAM),NA,NA
NA,NA,NA,NA,NA,choice_trial_setup,html-keyboard-response,50,159883,0.0-4.0-0.23,278,1,2025-05-07T14:53:43Z,b60275e29fe2361ab97ac0ac217840d7,"Mozilla/5.0 (Macintosh; Intel Mac OS X 10_15_7) AppleWebKit/605.1.15 (KHTML, like Gecko) Version/18.4 Safari/605.1.15",Macintosh,Safari,18.4,OS X,10_15_7,https://5puzkbbxv1.cognition.run/?sona_id=56127,"en-US,en;q=0.9",ev7py3rzkjc85pl,19,"[""Black or African-American""]",No,Female,Sudan for 4 years rest of my life in the US,No,329892,NA,null,<p></p>,null,choice,wbw,trinary,catch,null,laptops,85,50,15,10,45,15,1,NA,NA,NA,NA,NA,NA,NA,NA,NA,NA
NA,NA,NA,NA,NA,choice_trial,survey-html-form,51,161524,0.0-4.0-1.23,278,1,2025-05-07T14:53:43Z,b60275e29fe2361ab97ac0ac217840d7,"Mozilla/5.0 (Macintosh; Intel Mac OS X 10_15_7) AppleWebKit/605.1.15 (KHTML, like Gecko) Version/18.4 Safari/605.1.15",Macintosh,Safari,18.4,OS X,10_15_7,https://5puzkbbxv1.cognition.run/?sona_id=56127,"en-US,en;q=0.9",ev7py3rzkjc85pl,19,"[""Black or African-American""]",No,Female,Sudan for 4 years rest of my life in the US,No,329892,NA,1637,NA,"{""product_choice"":""C""}",choice,wbw,trinary,catch,null,laptops,85,50,15,10,45,15,1,null,null,null,null,null,null,Processing speed,Memory (RAM),NA,NA
NA,NA,NA,NA,NA,choice_trial_setup,html-keyboard-response,52,161827,0.0-4.0-0.24,278,1,2025-05-07T14:53:43Z,b60275e29fe2361ab97ac0ac217840d7,"Mozilla/5.0 (Macintosh; Intel Mac OS X 10_15_7) AppleWebKit/605.1.15 (KHTML, like Gecko) Version/18.4 Safari/605.1.15",Macintosh,Safari,18.4,OS X,10_15_7,https://5puzkbbxv1.cognition.run/?sona_id=56127,"en-US,en;q=0.9",ev7py3rzkjc85pl,19,"[""Black or African-American""]",No,Female,Sudan for 4 years rest of my life in the US,No,329892,NA,null,<p></p>,null,choice,dtc,trinary,repulsion_A,2,microwave ovens,null,null,null,null,null,null,2,NA,NA,NA,NA,NA,NA,NA,NA,NA,NA
NA,NA,NA,NA,NA,choice_trial,survey-html-form,53,163550,0.0-4.0-1.24,278,1,2025-05-07T14:53:43Z,b60275e29fe2361ab97ac0ac217840d7,"Mozilla/5.0 (Macintosh; Intel Mac OS X 10_15_7) AppleWebKit/605.1.15 (KHTML, like Gecko) Version/18.4 Safari/605.1.15",Macintosh,Safari,18.4,OS X,10_15_7,https://5puzkbbxv1.cognition.run/?sona_id=56127,"en-US,en;q=0.9",ev7py3rzkjc85pl,19,"[""Black or African-American""]",No,Female,Sudan for 4 years rest of my life in the US,No,329892,NA,1718,NA,"{""product_choice"":""B""}",choice,dtc,trinary,repulsion_A,2,microwave ovens,null,null,null,null,null,null,2,30,40,20,100,90,100,Warranty,Cooking power,NA,NA
NA,NA,NA,NA,NA,choice_trial_setup,html-keyboard-response,54,163852,0.0-4.0-0.25,278,1,2025-05-07T14:53:43Z,b60275e29fe2361ab97ac0ac217840d7,"Mozilla/5.0 (Macintosh; Intel Mac OS X 10_15_7) AppleWebKit/605.1.15 (KHTML, like Gecko) Version/18.4 Safari/605.1.15",Macintosh,Safari,18.4,OS X,10_15_7,https://5puzkbbxv1.cognition.run/?sona_id=56127,"en-US,en;q=0.9",ev7py3rzkjc85pl,19,"[""Black or African-American""]",No,Female,Sudan for 4 years rest of my life in the US,No,329892,NA,null,<p></p>,null,choice,cdt,trinary,attraction,2,microwave ovens,null,null,null,null,null,null,1,NA,NA,NA,NA,NA,NA,NA,NA,NA,NA
NA,NA,NA,NA,NA,choice_trial,survey-html-form,55,165507,0.0-4.0-1.25,278,1,2025-05-07T14:53:43Z,b60275e29fe2361ab97ac0ac217840d7,"Mozilla/5.0 (Macintosh; Intel Mac OS X 10_15_7) AppleWebKit/605.1.15 (KHTML, like Gecko) Version/18.4 Safari/605.1.15",Macintosh,Safari,18.4,OS X,10_15_7,https://5puzkbbxv1.cognition.run/?sona_id=56127,"en-US,en;q=0.9",ev7py3rzkjc85pl,19,"[""Black or African-American""]",No,Female,Sudan for 4 years rest of my life in the US,No,329892,NA,1651,NA,"{""product_choice"":""A""}",choice,cdt,trinary,attraction,2,microwave ovens,null,null,null,null,null,null,1,50,60,40,60,50,60,Warranty,Cooking power,NA,NA
NA,NA,NA,NA,NA,choice_trial_setup,html-keyboard-response,56,165809,0.0-4.0-0.26,278,1,2025-05-07T14:53:43Z,b60275e29fe2361ab97ac0ac217840d7,"Mozilla/5.0 (Macintosh; Intel Mac OS X 10_15_7) AppleWebKit/605.1.15 (KHTML, like Gecko) Version/18.4 Safari/605.1.15",Macintosh,Safari,18.4,OS X,10_15_7,https://5puzkbbxv1.cognition.run/?sona_id=56127,"en-US,en;q=0.9",ev7py3rzkjc85pl,19,"[""Black or African-American""]",No,Female,Sudan for 4 years rest of my life in the US,No,329892,NA,null,<p></p>,null,choice,ct,binary,attraction,NA,microwave ovens,null,null,null,null,null,null,1,NA,NA,NA,NA,NA,NA,NA,NA,NA,NA
NA,NA,NA,NA,NA,choice_trial,survey-html-form,57,167925,0.0-4.0-1.26,278,1,2025-05-07T14:53:43Z,b60275e29fe2361ab97ac0ac217840d7,"Mozilla/5.0 (Macintosh; Intel Mac OS X 10_15_7) AppleWebKit/605.1.15 (KHTML, like Gecko) Version/18.4 Safari/605.1.15",Macintosh,Safari,18.4,OS X,10_15_7,https://5puzkbbxv1.cognition.run/?sona_id=56127,"en-US,en;q=0.9",ev7py3rzkjc85pl,19,"[""Black or African-American""]",No,Female,Sudan for 4 years rest of my life in the US,No,329892,NA,2112,NA,"{""product_choice"":""B""}",choice,ct,binary,attraction,NA,microwave ovens,null,null,null,null,null,null,1,60,50,null,50,60,null,Warranty,Cooking power,NA,NA
NA,NA,NA,NA,NA,choice_trial_setup,html-keyboard-response,58,168229,0.0-4.0-0.27,278,1,2025-05-07T14:53:43Z,b60275e29fe2361ab97ac0ac217840d7,"Mozilla/5.0 (Macintosh; Intel Mac OS X 10_15_7) AppleWebKit/605.1.15 (KHTML, like Gecko) Version/18.4 Safari/605.1.15",Macintosh,Safari,18.4,OS X,10_15_7,https://5puzkbbxv1.cognition.run/?sona_id=56127,"en-US,en;q=0.9",ev7py3rzkjc85pl,19,"[""Black or African-American""]",No,Female,Sudan for 4 years rest of my life in the US,No,329892,NA,null,<p></p>,null,choice,tc,binary,repulsion,2,laptops,null,null,null,null,null,null,2,NA,NA,NA,NA,NA,NA,NA,NA,NA,NA
NA,NA,NA,NA,NA,choice_trial,survey-html-form,59,170045,0.0-4.0-1.27,278,1,2025-05-07T14:53:43Z,b60275e29fe2361ab97ac0ac217840d7,"Mozilla/5.0 (Macintosh; Intel Mac OS X 10_15_7) AppleWebKit/605.1.15 (KHTML, like Gecko) Version/18.4 Safari/605.1.15",Macintosh,Safari,18.4,OS X,10_15_7,https://5puzkbbxv1.cognition.run/?sona_id=56127,"en-US,en;q=0.9",ev7py3rzkjc85pl,19,"[""Black or African-American""]",No,Female,Sudan for 4 years rest of my life in the US,No,329892,NA,1812,NA,"{""product_choice"":""A""}",choice,tc,binary,repulsion,2,laptops,null,null,null,null,null,null,2,30,40,null,100,90,null,Processing speed,Memory (RAM),NA,NA
NA,NA,NA,NA,NA,choice_trial_setup,html-keyboard-response,60,170349,0.0-4.0-0.28,278,1,2025-05-07T14:53:43Z,b60275e29fe2361ab97ac0ac217840d7,"Mozilla/5.0 (Macintosh; Intel Mac OS X 10_15_7) AppleWebKit/605.1.15 (KHTML, like Gecko) Version/18.4 Safari/605.1.15",Macintosh,Safari,18.4,OS X,10_15_7,https://5puzkbbxv1.cognition.run/?sona_id=56127,"en-US,en;q=0.9",ev7py3rzkjc85pl,19,"[""Black or African-American""]",No,Female,Sudan for 4 years rest of my life in the US,No,329892,NA,null,<p></p>,null,choice,wb,binary,catch,null,washing machines,55,85,5,5,null,null,1,NA,NA,NA,NA,NA,NA,NA,NA,NA,NA
NA,NA,NA,NA,NA,choice_trial,survey-html-form,61,172128,0.0-4.0-1.28,278,1,2025-05-07T14:53:43Z,b60275e29fe2361ab97ac0ac217840d7,"Mozilla/5.0 (Macintosh; Intel Mac OS X 10_15_7) AppleWebKit/605.1.15 (KHTML, like Gecko) Version/18.4 Safari/605.1.15",Macintosh,Safari,18.4,OS X,10_15_7,https://5puzkbbxv1.cognition.run/?sona_id=56127,"en-US,en;q=0.9",ev7py3rzkjc85pl,19,"[""Black or African-American""]",No,Female,Sudan for 4 years rest of my life in the US,No,329892,NA,1775,NA,"{""product_choice"":""B""}",choice,wb,binary,catch,null,washing machines,55,85,5,5,null,null,1,null,null,null,null,null,null,Average lifespan,Energy savings,NA,NA
NA,NA,NA,NA,NA,choice_trial_setup,html-keyboard-response,62,172432,0.0-4.0-0.29,278,1,2025-05-07T14:53:43Z,b60275e29fe2361ab97ac0ac217840d7,"Mozilla/5.0 (Macintosh; Intel Mac OS X 10_15_7) AppleWebKit/605.1.15 (KHTML, like Gecko) Version/18.4 Safari/605.1.15",Macintosh,Safari,18.4,OS X,10_15_7,https://5puzkbbxv1.cognition.run/?sona_id=56127,"en-US,en;q=0.9",ev7py3rzkjc85pl,19,"[""Black or African-American""]",No,Female,Sudan for 4 years rest of my life in the US,No,329892,NA,null,<p></p>,null,choice,tcd,trinary,repulsion_B,1,televisions,null,null,null,null,null,null,1,NA,NA,NA,NA,NA,NA,NA,NA,NA,NA
NA,NA,NA,NA,NA,choice_trial,survey-html-form,63,174276,0.0-4.0-1.29,278,1,2025-05-07T14:53:43Z,b60275e29fe2361ab97ac0ac217840d7,"Mozilla/5.0 (Macintosh; Intel Mac OS X 10_15_7) AppleWebKit/605.1.15 (KHTML, like Gecko) Version/18.4 Safari/605.1.15",Macintosh,Safari,18.4,OS X,10_15_7,https://5puzkbbxv1.cognition.run/?sona_id=56127,"en-US,en;q=0.9",ev7py3rzkjc85pl,19,"[""Black or African-American""]",No,Female,Sudan for 4 years rest of my life in the US,No,329892,NA,1836,NA,"{""product_choice"":""B""}",choice,tcd,trinary,repulsion_B,1,televisions,null,null,null,null,null,null,1,90,100,80,40,30,40,Screen size,Average lifespan,NA,NA
NA,NA,NA,NA,NA,choice_trial_setup,html-keyboard-response,64,174580,0.0-4.0-0.30,278,1,2025-05-07T14:53:43Z,b60275e29fe2361ab97ac0ac217840d7,"Mozilla/5.0 (Macintosh; Intel Mac OS X 10_15_7) AppleWebKit/605.1.15 (KHTML, like Gecko) Version/18.4 Safari/605.1.15",Macintosh,Safari,18.4,OS X,10_15_7,https://5puzkbbxv1.cognition.run/?sona_id=56127,"en-US,en;q=0.9",ev7py3rzkjc85pl,19,"[""Black or African-American""]",No,Female,Sudan for 4 years rest of my life in the US,No,329892,NA,null,<p></p>,null,choice,dct,trinary,repulsion_A,1,microwave ovens,null,null,null,null,null,null,1,NA,NA,NA,NA,NA,NA,NA,NA,NA,NA
NA,NA,NA,NA,NA,choice_trial,survey-html-form,65,176546,0.0-4.0-1.30,278,1,2025-05-07T14:53:43Z,b60275e29fe2361ab97ac0ac217840d7,"Mozilla/5.0 (Macintosh; Intel Mac OS X 10_15_7) AppleWebKit/605.1.15 (KHTML, like Gecko) Version/18.4 Safari/605.1.15",Macintosh,Safari,18.4,OS X,10_15_7,https://5puzkbbxv1.cognition.run/?sona_id=56127,"en-US,en;q=0.9",ev7py3rzkjc85pl,19,"[""Black or African-American""]",No,Female,Sudan for 4 years rest of my life in the US,No,329892,NA,1963,NA,"{""product_choice"":""C""}",choice,dct,trinary,repulsion_A,1,microwave ovens,null,null,null,null,null,null,1,100,90,100,30,40,20,Warranty,Cooking power,NA,NA
NA,NA,NA,NA,NA,choice_trial_setup,html-keyboard-response,66,176849,0.0-4.0-0.31,278,1,2025-05-07T14:53:43Z,b60275e29fe2361ab97ac0ac217840d7,"Mozilla/5.0 (Macintosh; Intel Mac OS X 10_15_7) AppleWebKit/605.1.15 (KHTML, like Gecko) Version/18.4 Safari/605.1.15",Macintosh,Safari,18.4,OS X,10_15_7,https://5puzkbbxv1.cognition.run/?sona_id=56127,"en-US,en;q=0.9",ev7py3rzkjc85pl,19,"[""Black or African-American""]",No,Female,Sudan for 4 years rest of my life in the US,No,329892,NA,null,<p></p>,null,choice,tc,binary,repulsion,2,televisions,null,null,null,null,null,null,2,NA,NA,NA,NA,NA,NA,NA,NA,NA,NA
NA,NA,NA,NA,NA,choice_trial,survey-html-form,67,179142,0.0-4.0-1.31,278,1,2025-05-07T14:53:43Z,b60275e29fe2361ab97ac0ac217840d7,"Mozilla/5.0 (Macintosh; Intel Mac OS X 10_15_7) AppleWebKit/605.1.15 (KHTML, like Gecko) Version/18.4 Safari/605.1.15",Macintosh,Safari,18.4,OS X,10_15_7,https://5puzkbbxv1.cognition.run/?sona_id=56127,"en-US,en;q=0.9",ev7py3rzkjc85pl,19,"[""Black or African-American""]",No,Female,Sudan for 4 years rest of my life in the US,No,329892,NA,2290,NA,"{""product_choice"":""B""}",choice,tc,binary,repulsion,2,televisions,null,null,null,null,null,null,2,30,40,null,100,90,null,Screen size,Average lifespan,NA,NA
NA,NA,NA,NA,NA,choice_trial_setup,html-keyboard-response,68,179444,0.0-4.0-0.32,278,1,2025-05-07T14:53:43Z,b60275e29fe2361ab97ac0ac217840d7,"Mozilla/5.0 (Macintosh; Intel Mac OS X 10_15_7) AppleWebKit/605.1.15 (KHTML, like Gecko) Version/18.4 Safari/605.1.15",Macintosh,Safari,18.4,OS X,10_15_7,https://5puzkbbxv1.cognition.run/?sona_id=56127,"en-US,en;q=0.9",ev7py3rzkjc85pl,19,"[""Black or African-American""]",No,Female,Sudan for 4 years rest of my life in the US,No,329892,NA,null,<p></p>,null,choice,tcd,trinary,attraction,1,microwave ovens,null,null,null,null,null,null,2,NA,NA,NA,NA,NA,NA,NA,NA,NA,NA
NA,NA,NA,NA,NA,choice_trial,survey-html-form,69,181194,0.0-4.0-1.32,278,1,2025-05-07T14:53:43Z,b60275e29fe2361ab97ac0ac217840d7,"Mozilla/5.0 (Macintosh; Intel Mac OS X 10_15_7) AppleWebKit/605.1.15 (KHTML, like Gecko) Version/18.4 Safari/605.1.15",Macintosh,Safari,18.4,OS X,10_15_7,https://5puzkbbxv1.cognition.run/?sona_id=56127,"en-US,en;q=0.9",ev7py3rzkjc85pl,19,"[""Black or African-American""]",No,Female,Sudan for 4 years rest of my life in the US,No,329892,NA,1748,NA,"{""product_choice"":""A""}",choice,tcd,trinary,attraction,1,microwave ovens,null,null,null,null,null,null,2,60,50,60,50,60,40,Warranty,Cooking power,NA,NA
NA,NA,NA,NA,NA,choice_trial_setup,html-keyboard-response,70,181498,0.0-4.0-0.33,278,1,2025-05-07T14:53:43Z,b60275e29fe2361ab97ac0ac217840d7,"Mozilla/5.0 (Macintosh; Intel Mac OS X 10_15_7) AppleWebKit/605.1.15 (KHTML, like Gecko) Version/18.4 Safari/605.1.15",Macintosh,Safari,18.4,OS X,10_15_7,https://5puzkbbxv1.cognition.run/?sona_id=56127,"en-US,en;q=0.9",ev7py3rzkjc85pl,19,"[""Black or African-American""]",No,Female,Sudan for 4 years rest of my life in the US,No,329892,NA,null,<p></p>,null,choice,tdc,trinary,repulsion_A,1,washing machines,null,null,null,null,null,null,2,NA,NA,NA,NA,NA,NA,NA,NA,NA,NA
NA,NA,NA,NA,NA,choice_trial,survey-html-form,71,183228,0.0-4.0-1.33,278,1,2025-05-07T14:53:43Z,b60275e29fe2361ab97ac0ac217840d7,"Mozilla/5.0 (Macintosh; Intel Mac OS X 10_15_7) AppleWebKit/605.1.15 (KHTML, like Gecko) Version/18.4 Safari/605.1.15",Macintosh,Safari,18.4,OS X,10_15_7,https://5puzkbbxv1.cognition.run/?sona_id=56127,"en-US,en;q=0.9",ev7py3rzkjc85pl,19,"[""Black or African-American""]",No,Female,Sudan for 4 years rest of my life in the US,No,329892,NA,1724,NA,"{""product_choice"":""B""}",choice,tdc,trinary,repulsion_A,1,washing machines,null,null,null,null,null,null,2,100,90,100,30,40,20,Average lifespan,Energy savings,NA,NA
NA,NA,NA,NA,NA,choice_trial_setup,html-keyboard-response,72,183532,0.0-4.0-0.34,278,1,2025-05-07T14:53:43Z,b60275e29fe2361ab97ac0ac217840d7,"Mozilla/5.0 (Macintosh; Intel Mac OS X 10_15_7) AppleWebKit/605.1.15 (KHTML, like Gecko) Version/18.4 Safari/605.1.15",Macintosh,Safari,18.4,OS X,10_15_7,https://5puzkbbxv1.cognition.run/?sona_id=56127,"en-US,en;q=0.9",ev7py3rzkjc85pl,19,"[""Black or African-American""]",No,Female,Sudan for 4 years rest of my life in the US,No,329892,NA,null,<p></p>,null,choice,wwb,trinary,catch,null,televisions,85,85,15,5,30,10,1,NA,NA,NA,NA,NA,NA,NA,NA,NA,NA
NA,NA,NA,NA,NA,choice_trial,survey-html-form,73,188559,0.0-4.0-1.34,278,1,2025-05-07T14:53:43Z,b60275e29fe2361ab97ac0ac217840d7,"Mozilla/5.0 (Macintosh; Intel Mac OS X 10_15_7) AppleWebKit/605.1.15 (KHTML, like Gecko) Version/18.4 Safari/605.1.15",Macintosh,Safari,18.4,OS X,10_15_7,https://5puzkbbxv1.cognition.run/?sona_id=56127,"en-US,en;q=0.9",ev7py3rzkjc85pl,19,"[""Black or African-American""]",No,Female,Sudan for 4 years rest of my life in the US,No,329892,NA,5022,NA,"{""product_choice"":""B""}",choice,wwb,trinary,catch,null,televisions,85,85,15,5,30,10,1,null,null,null,null,null,null,Screen size,Average lifespan,NA,NA
NA,NA,NA,NA,NA,choice_trial_setup,html-keyboard-response,74,188863,0.0-4.0-0.35,278,1,2025-05-07T14:53:43Z,b60275e29fe2361ab97ac0ac217840d7,"Mozilla/5.0 (Macintosh; Intel Mac OS X 10_15_7) AppleWebKit/605.1.15 (KHTML, like Gecko) Version/18.4 Safari/605.1.15",Macintosh,Safari,18.4,OS X,10_15_7,https://5puzkbbxv1.cognition.run/?sona_id=56127,"en-US,en;q=0.9",ev7py3rzkjc85pl,19,"[""Black or African-American""]",No,Female,Sudan for 4 years rest of my life in the US,No,329892,NA,null,<p></p>,null,choice,bw,binary,catch,null,microwave ovens,90,65,45,10,null,null,2,NA,NA,NA,NA,NA,NA,NA,NA,NA,NA
NA,NA,NA,NA,NA,choice_trial,survey-html-form,75,190533,0.0-4.0-1.35,278,1,2025-05-07T14:53:43Z,b60275e29fe2361ab97ac0ac217840d7,"Mozilla/5.0 (Macintosh; Intel Mac OS X 10_15_7) AppleWebKit/605.1.15 (KHTML, like Gecko) Version/18.4 Safari/605.1.15",Macintosh,Safari,18.4,OS X,10_15_7,https://5puzkbbxv1.cognition.run/?sona_id=56127,"en-US,en;q=0.9",ev7py3rzkjc85pl,19,"[""Black or African-American""]",No,Female,Sudan for 4 years rest of my life in the US,No,329892,NA,1665,NA,"{""product_choice"":""B""}",choice,bw,binary,catch,null,microwave ovens,90,65,45,10,null,null,2,null,null,null,null,null,null,Warranty,Cooking power,NA,NA
NA,NA,NA,NA,NA,choice_trial_setup,html-keyboard-response,76,190836,0.0-4.0-0.36,278,1,2025-05-07T14:53:43Z,b60275e29fe2361ab97ac0ac217840d7,"Mozilla/5.0 (Macintosh; Intel Mac OS X 10_15_7) AppleWebKit/605.1.15 (KHTML, like Gecko) Version/18.4 Safari/605.1.15",Macintosh,Safari,18.4,OS X,10_15_7,https://5puzkbbxv1.cognition.run/?sona_id=56127,"en-US,en;q=0.9",ev7py3rzkjc85pl,19,"[""Black or African-American""]",No,Female,Sudan for 4 years rest of my life in the US,No,329892,NA,null,<p></p>,null,choice,tcd,trinary,attraction,2,washing machines,null,null,null,null,null,null,1,NA,NA,NA,NA,NA,NA,NA,NA,NA,NA
NA,NA,NA,NA,NA,choice_trial,survey-html-form,77,192877,0.0-4.0-1.36,278,1,2025-05-07T14:53:43Z,b60275e29fe2361ab97ac0ac217840d7,"Mozilla/5.0 (Macintosh; Intel Mac OS X 10_15_7) AppleWebKit/605.1.15 (KHTML, like Gecko) Version/18.4 Safari/605.1.15",Macintosh,Safari,18.4,OS X,10_15_7,https://5puzkbbxv1.cognition.run/?sona_id=56127,"en-US,en;q=0.9",ev7py3rzkjc85pl,19,"[""Black or African-American""]",No,Female,Sudan for 4 years rest of my life in the US,No,329892,NA,2035,NA,"{""product_choice"":""A""}",choice,tcd,trinary,attraction,2,washing machines,null,null,null,null,null,null,1,50,60,40,60,50,60,Average lifespan,Energy savings,NA,NA
NA,NA,NA,NA,NA,choice_trial_setup,html-keyboard-response,78,193181,0.0-4.0-0.37,278,1,2025-05-07T14:53:43Z,b60275e29fe2361ab97ac0ac217840d7,"Mozilla/5.0 (Macintosh; Intel Mac OS X 10_15_7) AppleWebKit/605.1.15 (KHTML, like Gecko) Version/18.4 Safari/605.1.15",Macintosh,Safari,18.4,OS X,10_15_7,https://5puzkbbxv1.cognition.run/?sona_id=56127,"en-US,en;q=0.9",ev7py3rzkjc85pl,19,"[""Black or African-American""]",No,Female,Sudan for 4 years rest of my life in the US,No,329892,NA,null,<p></p>,null,choice,cdt,trinary,repulsion_B,1,washing machines,null,null,null,null,null,null,1,NA,NA,NA,NA,NA,NA,NA,NA,NA,NA
NA,NA,NA,NA,NA,choice_trial,survey-html-form,79,194917,0.0-4.0-1.37,278,1,2025-05-07T14:53:43Z,b60275e29fe2361ab97ac0ac217840d7,"Mozilla/5.0 (Macintosh; Intel Mac OS X 10_15_7) AppleWebKit/605.1.15 (KHTML, like Gecko) Version/18.4 Safari/605.1.15",Macintosh,Safari,18.4,OS X,10_15_7,https://5puzkbbxv1.cognition.run/?sona_id=56127,"en-US,en;q=0.9",ev7py3rzkjc85pl,19,"[""Black or African-American""]",No,Female,Sudan for 4 years rest of my life in the US,No,329892,NA,1730,NA,"{""product_choice"":""C""}",choice,cdt,trinary,repulsion_B,1,washing machines,null,null,null,null,null,null,1,90,100,80,40,30,40,Average lifespan,Energy savings,NA,NA
NA,NA,NA,NA,NA,choice_trial_setup,html-keyboard-response,80,195220,0.0-4.0-0.38,278,1,2025-05-07T14:53:43Z,b60275e29fe2361ab97ac0ac217840d7,"Mozilla/5.0 (Macintosh; Intel Mac OS X 10_15_7) AppleWebKit/605.1.15 (KHTML, like Gecko) Version/18.4 Safari/605.1.15",Macintosh,Safari,18.4,OS X,10_15_7,https://5puzkbbxv1.cognition.run/?sona_id=56127,"en-US,en;q=0.9",ev7py3rzkjc85pl,19,"[""Black or African-American""]",No,Female,Sudan for 4 years rest of my life in the US,No,329892,NA,null,<p></p>,null,choice,tdc,trinary,repulsion_B,2,microwave ovens,null,null,null,null,null,null,2,NA,NA,NA,NA,NA,NA,NA,NA,NA,NA
NA,NA,NA,NA,NA,choice_trial,survey-html-form,81,196990,0.0-4.0-1.38,278,1,2025-05-07T14:53:43Z,b60275e29fe2361ab97ac0ac217840d7,"Mozilla/5.0 (Macintosh; Intel Mac OS X 10_15_7) AppleWebKit/605.1.15 (KHTML, like Gecko) Version/18.4 Safari/605.1.15",Macintosh,Safari,18.4,OS X,10_15_7,https://5puzkbbxv1.cognition.run/?sona_id=56127,"en-US,en;q=0.9",ev7py3rzkjc85pl,19,"[""Black or African-American""]",No,Female,Sudan for 4 years rest of my life in the US,No,329892,NA,1766,NA,"{""product_choice"":""B""}",choice,tdc,trinary,repulsion_B,2,microwave ovens,null,null,null,null,null,null,2,40,30,40,90,100,80,Warranty,Cooking power,NA,NA
NA,NA,NA,NA,NA,choice_trial_setup,html-keyboard-response,82,197294,0.0-4.0-0.39,278,1,2025-05-07T14:53:43Z,b60275e29fe2361ab97ac0ac217840d7,"Mozilla/5.0 (Macintosh; Intel Mac OS X 10_15_7) AppleWebKit/605.1.15 (KHTML, like Gecko) Version/18.4 Safari/605.1.15",Macintosh,Safari,18.4,OS X,10_15_7,https://5puzkbbxv1.cognition.run/?sona_id=56127,"en-US,en;q=0.9",ev7py3rzkjc85pl,19,"[""Black or African-American""]",No,Female,Sudan for 4 years rest of my life in the US,No,329892,NA,null,<p></p>,null,choice,wb,binary,catch,null,laptops,55,80,20,50,null,null,2,NA,NA,NA,NA,NA,NA,NA,NA,NA,NA
NA,NA,NA,NA,NA,choice_trial,survey-html-form,83,199594,0.0-4.0-1.39,278,1,2025-05-07T14:53:43Z,b60275e29fe2361ab97ac0ac217840d7,"Mozilla/5.0 (Macintosh; Intel Mac OS X 10_15_7) AppleWebKit/605.1.15 (KHTML, like Gecko) Version/18.4 Safari/605.1.15",Macintosh,Safari,18.4,OS X,10_15_7,https://5puzkbbxv1.cognition.run/?sona_id=56127,"en-US,en;q=0.9",ev7py3rzkjc85pl,19,"[""Black or African-American""]",No,Female,Sudan for 4 years rest of my life in the US,No,329892,NA,2295,NA,"{""product_choice"":""B""}",choice,wb,binary,catch,null,laptops,55,80,20,50,null,null,2,null,null,null,null,null,null,Processing speed,Memory (RAM),NA,NA
NA,NA,NA,NA,NA,choice_trial_setup,html-keyboard-response,84,199898,0.0-4.0-0.40,278,1,2025-05-07T14:53:43Z,b60275e29fe2361ab97ac0ac217840d7,"Mozilla/5.0 (Macintosh; Intel Mac OS X 10_15_7) AppleWebKit/605.1.15 (KHTML, like Gecko) Version/18.4 Safari/605.1.15",Macintosh,Safari,18.4,OS X,10_15_7,https://5puzkbbxv1.cognition.run/?sona_id=56127,"en-US,en;q=0.9",ev7py3rzkjc85pl,19,"[""Black or African-American""]",No,Female,Sudan for 4 years rest of my life in the US,No,329892,NA,null,<p></p>,null,choice,ct,binary,attraction,NA,washing machines,null,null,null,null,null,null,1,NA,NA,NA,NA,NA,NA,NA,NA,NA,NA
NA,NA,NA,NA,NA,choice_trial,survey-html-form,85,201426,0.0-4.0-1.40,278,1,2025-05-07T14:53:43Z,b60275e29fe2361ab97ac0ac217840d7,"Mozilla/5.0 (Macintosh; Intel Mac OS X 10_15_7) AppleWebKit/605.1.15 (KHTML, like Gecko) Version/18.4 Safari/605.1.15",Macintosh,Safari,18.4,OS X,10_15_7,https://5puzkbbxv1.cognition.run/?sona_id=56127,"en-US,en;q=0.9",ev7py3rzkjc85pl,19,"[""Black or African-American""]",No,Female,Sudan for 4 years rest of my life in the US,No,329892,NA,1522,NA,"{""product_choice"":""A""}",choice,ct,binary,attraction,NA,washing machines,null,null,null,null,null,null,1,60,50,null,50,60,null,Average lifespan,Energy savings,NA,NA
NA,NA,NA,NA,NA,choice_trial_setup,html-keyboard-response,86,201728,0.0-4.0-0.41,278,1,2025-05-07T14:53:43Z,b60275e29fe2361ab97ac0ac217840d7,"Mozilla/5.0 (Macintosh; Intel Mac OS X 10_15_7) AppleWebKit/605.1.15 (KHTML, like Gecko) Version/18.4 Safari/605.1.15",Macintosh,Safari,18.4,OS X,10_15_7,https://5puzkbbxv1.cognition.run/?sona_id=56127,"en-US,en;q=0.9",ev7py3rzkjc85pl,19,"[""Black or African-American""]",No,Female,Sudan for 4 years rest of my life in the US,No,329892,NA,null,<p></p>,null,choice,cdt,trinary,repulsion_A,2,laptops,null,null,null,null,null,null,2,NA,NA,NA,NA,NA,NA,NA,NA,NA,NA
NA,NA,NA,NA,NA,choice_trial,survey-html-form,87,203143,0.0-4.0-1.41,278,1,2025-05-07T14:53:43Z,b60275e29fe2361ab97ac0ac217840d7,"Mozilla/5.0 (Macintosh; Intel Mac OS X 10_15_7) AppleWebKit/605.1.15 (KHTML, like Gecko) Version/18.4 Safari/605.1.15",Macintosh,Safari,18.4,OS X,10_15_7,https://5puzkbbxv1.cognition.run/?sona_id=56127,"en-US,en;q=0.9",ev7py3rzkjc85pl,19,"[""Black or African-American""]",No,Female,Sudan for 4 years rest of my life in the US,No,329892,NA,1409,NA,"{""product_choice"":""C""}",choice,cdt,trinary,repulsion_A,2,laptops,null,null,null,null,null,null,2,30,40,20,100,90,100,Processing speed,Memory (RAM),NA,NA
NA,NA,NA,NA,NA,choice_trial_setup,html-keyboard-response,88,203446,0.0-4.0-0.42,278,1,2025-05-07T14:53:43Z,b60275e29fe2361ab97ac0ac217840d7,"Mozilla/5.0 (Macintosh; Intel Mac OS X 10_15_7) AppleWebKit/605.1.15 (KHTML, like Gecko) Version/18.4 Safari/605.1.15",Macintosh,Safari,18.4,OS X,10_15_7,https://5puzkbbxv1.cognition.run/?sona_id=56127,"en-US,en;q=0.9",ev7py3rzkjc85pl,19,"[""Black or African-American""]",No,Female,Sudan for 4 years rest of my life in the US,No,329892,NA,null,<p></p>,null,choice,bww,trinary,catch,null,microwave ovens,70,65,25,10,40,50,2,NA,NA,NA,NA,NA,NA,NA,NA,NA,NA
NA,NA,NA,NA,NA,choice_trial,survey-html-form,89,205002,0.0-4.0-1.42,278,1,2025-05-07T14:53:43Z,b60275e29fe2361ab97ac0ac217840d7,"Mozilla/5.0 (Macintosh; Intel Mac OS X 10_15_7) AppleWebKit/605.1.15 (KHTML, like Gecko) Version/18.4 Safari/605.1.15",Macintosh,Safari,18.4,OS X,10_15_7,https://5puzkbbxv1.cognition.run/?sona_id=56127,"en-US,en;q=0.9",ev7py3rzkjc85pl,19,"[""Black or African-American""]",No,Female,Sudan for 4 years rest of my life in the US,No,329892,NA,1548,NA,"{""product_choice"":""B""}",choice,bww,trinary,catch,null,microwave ovens,70,65,25,10,40,50,2,null,null,null,null,null,null,Warranty,Cooking power,NA,NA
NA,NA,NA,NA,NA,choice_trial_setup,html-keyboard-response,90,205304,0.0-4.0-0.43,278,1,2025-05-07T14:53:43Z,b60275e29fe2361ab97ac0ac217840d7,"Mozilla/5.0 (Macintosh; Intel Mac OS X 10_15_7) AppleWebKit/605.1.15 (KHTML, like Gecko) Version/18.4 Safari/605.1.15",Macintosh,Safari,18.4,OS X,10_15_7,https://5puzkbbxv1.cognition.run/?sona_id=56127,"en-US,en;q=0.9",ev7py3rzkjc85pl,19,"[""Black or African-American""]",No,Female,Sudan for 4 years rest of my life in the US,No,329892,NA,null,<p></p>,null,choice,wwb,trinary,catch,null,washing machines,60,80,35,45,40,40,2,NA,NA,NA,NA,NA,NA,NA,NA,NA,NA
NA,NA,NA,NA,NA,choice_trial,survey-html-form,91,207149,0.0-4.0-1.43,278,1,2025-05-07T14:53:43Z,b60275e29fe2361ab97ac0ac217840d7,"Mozilla/5.0 (Macintosh; Intel Mac OS X 10_15_7) AppleWebKit/605.1.15 (KHTML, like Gecko) Version/18.4 Safari/605.1.15",Macintosh,Safari,18.4,OS X,10_15_7,https://5puzkbbxv1.cognition.run/?sona_id=56127,"en-US,en;q=0.9",ev7py3rzkjc85pl,19,"[""Black or African-American""]",No,Female,Sudan for 4 years rest of my life in the US,No,329892,NA,1837,NA,"{""product_choice"":""C""}",choice,wwb,trinary,catch,null,washing machines,60,80,35,45,40,40,2,null,null,null,null,null,null,Average lifespan,Energy savings,NA,NA
NA,NA,NA,NA,NA,post_trials_message,html-button-response,92,210054,0.0-5.0,278,1,2025-05-07T14:53:43Z,b60275e29fe2361ab97ac0ac217840d7,"Mozilla/5.0 (Macintosh; Intel Mac OS X 10_15_7) AppleWebKit/605.1.15 (KHTML, like Gecko) Version/18.4 Safari/605.1.15",Macintosh,Safari,18.4,OS X,10_15_7,https://5puzkbbxv1.cognition.run/?sona_id=56127,"en-US,en;q=0.9",ev7py3rzkjc85pl,19,"[""Black or African-American""]",No,Female,Sudan for 4 years rest of my life in the US,No,329892,NA,2901,<p> <b>Thank you for your patience!</b></p><p>  The study will be done after completing a brief form. </p>,0,NA,NA,NA,NA,NA,NA,NA,NA,NA,NA,NA,NA,NA,NA,NA,NA,NA,NA,NA,NA,NA,NA,NA
NA,NA,NA,NA,NA,survey_message,survey-text,93,278643,0.0-6.0,278,1,2025-05-07T14:53:43Z,b60275e29fe2361ab97ac0ac217840d7,"Mozilla/5.0 (Macintosh; Intel Mac OS X 10_15_7) AppleWebKit/605.1.15 (KHTML, like Gecko) Version/18.4 Safari/605.1.15",Macintosh,Safari,18.4,OS X,10_15_7,https://5puzkbbxv1.cognition.run/?sona_id=56127,"en-US,en;q=0.9",ev7py3rzkjc85pl,19,"[""Black or African-American""]",No,Female,Sudan for 4 years rest of my life in the US,No,329892,NA,68571,NA,"{""Q0"":""My strategy was to chose whatever look right to me ""}",NA,NA,NA,NA,NA,NA,NA,NA,NA,NA,NA,NA,NA,NA,NA,NA,NA,NA,NA,NA,NA,My strategy was to chose whatever look right to me,NA
NA,NA,NA,NA,NA,demo_age,survey-text,94,281707,0.0-7.0,278,1,2025-05-07T14:53:43Z,b60275e29fe2361ab97ac0ac217840d7,"Mozilla/5.0 (Macintosh; Intel Mac OS X 10_15_7) AppleWebKit/605.1.15 (KHTML, like Gecko) Version/18.4 Safari/605.1.15",Macintosh,Safari,18.4,OS X,10_15_7,https://5puzkbbxv1.cognition.run/?sona_id=56127,"en-US,en;q=0.9",ev7py3rzkjc85pl,19,"[""Black or African-American""]",No,Female,Sudan for 4 years rest of my life in the US,No,329892,NA,3053,NA,"{""Q0"":""19""}",NA,NA,NA,NA,NA,NA,NA,NA,NA,NA,NA,NA,NA,NA,NA,NA,NA,NA,NA,NA,NA,NA,NA
NA,NA,NA,NA,NA,demo_race,survey-multi-select,95,285346,0.0-8.0,278,1,2025-05-07T14:53:43Z,b60275e29fe2361ab97ac0ac217840d7,"Mozilla/5.0 (Macintosh; Intel Mac OS X 10_15_7) AppleWebKit/605.1.15 (KHTML, like Gecko) Version/18.4 Safari/605.1.15",Macintosh,Safari,18.4,OS X,10_15_7,https://5puzkbbxv1.cognition.run/?sona_id=56127,"en-US,en;q=0.9",ev7py3rzkjc85pl,19,"[""Black or African-American""]",No,Female,Sudan for 4 years rest of my life in the US,No,329892,NA,3634,NA,"{""Q0"":[""Black or African-American""]}",NA,NA,NA,NA,NA,NA,NA,NA,NA,NA,NA,NA,NA,NA,NA,NA,NA,NA,NA,NA,NA,NA,[0]
NA,NA,NA,NA,NA,demo_ethnicity_gender,survey-multi-choice,96,291685,0.0-9.0,278,1,2025-05-07T14:53:43Z,b60275e29fe2361ab97ac0ac217840d7,"Mozilla/5.0 (Macintosh; Intel Mac OS X 10_15_7) AppleWebKit/605.1.15 (KHTML, like Gecko) Version/18.4 Safari/605.1.15",Macintosh,Safari,18.4,OS X,10_15_7,https://5puzkbbxv1.cognition.run/?sona_id=56127,"en-US,en;q=0.9",ev7py3rzkjc85pl,19,"[""Black or African-American""]",No,Female,Sudan for 4 years rest of my life in the US,No,329892,NA,6336,NA,"{""Q0"":""No"",""Q1"":""Female""}",NA,NA,NA,NA,NA,NA,NA,NA,NA,NA,NA,NA,NA,NA,NA,NA,NA,NA,NA,NA,NA,NA,"[0,1]"
NA,NA,NA,NA,NA,demo_countries,survey-text,97,313349,0.0-10.0,278,1,2025-05-07T14:53:43Z,b60275e29fe2361ab97ac0ac217840d7,"Mozilla/5.0 (Macintosh; Intel Mac OS X 10_15_7) AppleWebKit/605.1.15 (KHTML, like Gecko) Version/18.4 Safari/605.1.15",Macintosh,Safari,18.4,OS X,10_15_7,https://5puzkbbxv1.cognition.run/?sona_id=56127,"en-US,en;q=0.9",ev7py3rzkjc85pl,19,"[""Black or African-American""]",No,Female,Sudan for 4 years rest of my life in the US,No,329892,NA,21659,NA,"{""Q0"":""Sudan for 4 years rest of my life in the US""}",NA,NA,NA,NA,NA,NA,NA,NA,NA,NA,NA,NA,NA,NA,NA,NA,NA,NA,NA,NA,NA,NA,NA
NA,NA,NA,NA,NA,demo_prev_study,survey-multi-choice,98,321796,0.0-11.0,278,1,2025-05-07T14:53:43Z,b60275e29fe2361ab97ac0ac217840d7,"Mozilla/5.0 (Macintosh; Intel Mac OS X 10_15_7) AppleWebKit/605.1.15 (KHTML, like Gecko) Version/18.4 Safari/605.1.15",Macintosh,Safari,18.4,OS X,10_15_7,https://5puzkbbxv1.cognition.run/?sona_id=56127,"en-US,en;q=0.9",ev7py3rzkjc85pl,19,"[""Black or African-American""]",No,Female,Sudan for 4 years rest of my life in the US,No,329892,NA,8444,NA,"{""Q0"":""No""}",NA,NA,NA,NA,NA,NA,NA,NA,NA,NA,NA,NA,NA,NA,NA,NA,NA,NA,NA,NA,NA,NA,[0]
NA,NA,NA,NA,NA,post_survey_message,html-keyboard-response,99,325284,0.0-12.0,278,1,2025-05-07T14:53:43Z,b60275e29fe2361ab97ac0ac217840d7,"Mozilla/5.0 (Macintosh; Intel Mac OS X 10_15_7) AppleWebKit/605.1.15 (KHTML, like Gecko) Version/18.4 Safari/605.1.15",Macintosh,Safari,18.4,OS X,10_15_7,https://5puzkbbxv1.cognition.run/?sona_id=56127,"en-US,en;q=0.9",ev7py3rzkjc85pl,19,"[""Black or African-American""]",No,Female,Sudan for 4 years rest of my life in the US,No,329892,NA,3482,NA,j,NA,NA,NA,NA,NA,NA,NA,NA,NA,NA,NA,NA,NA,NA,NA,NA,NA,NA,NA,NA,NA,NA,NA
NA,NA,NA,NA,NA,debrief,image-keyboard-response,100,329883,0.0-13.0,278,1,2025-05-07T14:53:43Z,b60275e29fe2361ab97ac0ac217840d7,"Mozilla/5.0 (Macintosh; Intel Mac OS X 10_15_7) AppleWebKit/605.1.15 (KHTML, like Gecko) Version/18.4 Safari/605.1.15",Macintosh,Safari,18.4,OS X,10_15_7,https://5puzkbbxv1.cognition.run/?sona_id=56127,"en-US,en;q=0.9",ev7py3rzkjc85pl,19,"[""Black or African-American""]",No,Female,Sudan for 4 years rest of my life in the US,No,329892,NA,4583,Judg_choice_debrief.png,p,NA,NA,NA,NA,NA,NA,NA,NA,NA,NA,NA,NA,NA,NA,NA,NA,NA,NA,NA,NA,NA,NA,NA
