success,timeout,failed_images,failed_audio,failed_video,screen_id,trial_type,trial_index,time_elapsed,internal_node_id,run_id,condition,recorded_at,source_code_version,user_agent,device,browser,browser_version,platform,platform_version,referer,accept_language,ppt_id,age,race,ethnicity,gender,other_countries,prev_study,exp_duration,view_history,rt,stimulus,response,phase,order,set,effect,t_high,category,d1_best,d2_best,d1_worst1,d2_worst1,d1_worst2,d2_worst2,first_dim,d1_t,d1_c,d1_d,d2_t,d2_c,d2_d,d1_name,d2_name,strategy_response,question_order
TRUE,FALSE,[],[],[],img preload,preload,0,129,0.0-0.0,281,1,2025-05-07T16:35:49Z,b60275e29fe2361ab97ac0ac217840d7,"Mozilla/5.0 (Macintosh; Intel Mac OS X 10_15_7) AppleWebKit/537.36 (KHTML, like Gecko) Chrome/134.0.0.0 Safari/537.36",Macintosh,Chrome,134.0.0.0,OS X,10_15_7,https://5puzkbbxv1.cognition.run/?sona_id=57587,"en-US,en;q=0.9",75cl86tnsj9sk2m,18,"[""Black or African-American""]",Yes,Male,NA,Yes,663851,NA,NA,NA,NA,NA,NA,NA,NA,NA,NA,NA,NA,NA,NA,NA,NA,NA,NA,NA,NA,NA,NA,NA,NA,NA,NA,NA
NA,NA,NA,NA,NA,computer_message,instructions,1,6837,0.0-1.0,281,1,2025-05-07T16:35:49Z,b60275e29fe2361ab97ac0ac217840d7,"Mozilla/5.0 (Macintosh; Intel Mac OS X 10_15_7) AppleWebKit/537.36 (KHTML, like Gecko) Chrome/134.0.0.0 Safari/537.36",Macintosh,Chrome,134.0.0.0,OS X,10_15_7,https://5puzkbbxv1.cognition.run/?sona_id=57587,"en-US,en;q=0.9",75cl86tnsj9sk2m,18,"[""Black or African-American""]",Yes,Male,NA,Yes,663851,"[{""page_index"":0,""viewing_time"":6707}]",6707,NA,NA,NA,NA,NA,NA,NA,NA,NA,NA,NA,NA,NA,NA,NA,NA,NA,NA,NA,NA,NA,NA,NA,NA,NA
TRUE,NA,NA,NA,NA,NA,fullscreen,2,13022,0.0-2.0,281,1,2025-05-07T16:35:49Z,b60275e29fe2361ab97ac0ac217840d7,"Mozilla/5.0 (Macintosh; Intel Mac OS X 10_15_7) AppleWebKit/537.36 (KHTML, like Gecko) Chrome/134.0.0.0 Safari/537.36",Macintosh,Chrome,134.0.0.0,OS X,10_15_7,https://5puzkbbxv1.cognition.run/?sona_id=57587,"en-US,en;q=0.9",75cl86tnsj9sk2m,18,"[""Black or African-American""]",Yes,Male,NA,Yes,663851,NA,5182,NA,NA,NA,NA,NA,NA,NA,NA,NA,NA,NA,NA,NA,NA,NA,NA,NA,NA,NA,NA,NA,NA,NA,NA,NA
NA,NA,NA,NA,NA,choice_instructions,instructions,3,66405,0.0-3.0,281,1,2025-05-07T16:35:49Z,b60275e29fe2361ab97ac0ac217840d7,"Mozilla/5.0 (Macintosh; Intel Mac OS X 10_15_7) AppleWebKit/537.36 (KHTML, like Gecko) Chrome/134.0.0.0 Safari/537.36",Macintosh,Chrome,134.0.0.0,OS X,10_15_7,https://5puzkbbxv1.cognition.run/?sona_id=57587,"en-US,en;q=0.9",75cl86tnsj9sk2m,18,"[""Black or African-American""]",Yes,Male,NA,Yes,663851,"[{""page_index"":0,""viewing_time"":3351},{""page_index"":1,""viewing_time"":18026},{""page_index"":2,""viewing_time"":12211},{""page_index"":3,""viewing_time"":2579},{""page_index"":4,""viewing_time"":2092},{""page_index"":5,""viewing_time"":13712},{""page_index"":6,""viewing_time"":1412}]",53383,NA,NA,NA,NA,NA,NA,NA,NA,NA,NA,NA,NA,NA,NA,NA,NA,NA,NA,NA,NA,NA,NA,NA,NA,NA
NA,NA,NA,NA,NA,choice_trial_setup,html-keyboard-response,4,66708,0.0-4.0-0.0,281,1,2025-05-07T16:35:49Z,b60275e29fe2361ab97ac0ac217840d7,"Mozilla/5.0 (Macintosh; Intel Mac OS X 10_15_7) AppleWebKit/537.36 (KHTML, like Gecko) Chrome/134.0.0.0 Safari/537.36",Macintosh,Chrome,134.0.0.0,OS X,10_15_7,https://5puzkbbxv1.cognition.run/?sona_id=57587,"en-US,en;q=0.9",75cl86tnsj9sk2m,18,"[""Black or African-American""]",Yes,Male,NA,Yes,663851,NA,null,<p></p>,null,choice,dct,trinary,repulsion_B,1,microwave ovens,null,null,null,null,null,null,2,NA,NA,NA,NA,NA,NA,NA,NA,NA,NA
NA,NA,NA,NA,NA,choice_trial,survey-html-form,5,79411,0.0-4.0-1.0,281,1,2025-05-07T16:35:49Z,b60275e29fe2361ab97ac0ac217840d7,"Mozilla/5.0 (Macintosh; Intel Mac OS X 10_15_7) AppleWebKit/537.36 (KHTML, like Gecko) Chrome/134.0.0.0 Safari/537.36",Macintosh,Chrome,134.0.0.0,OS X,10_15_7,https://5puzkbbxv1.cognition.run/?sona_id=57587,"en-US,en;q=0.9",75cl86tnsj9sk2m,18,"[""Black or African-American""]",Yes,Male,NA,Yes,663851,NA,12700,NA,"{""product_choice"":""C""}",choice,dct,trinary,repulsion_B,1,microwave ovens,null,null,null,null,null,null,2,90,100,80,40,30,40,Warranty,Cooking power,NA,NA
NA,NA,NA,NA,NA,choice_trial_setup,html-keyboard-response,6,79714,0.0-4.0-0.1,281,1,2025-05-07T16:35:49Z,b60275e29fe2361ab97ac0ac217840d7,"Mozilla/5.0 (Macintosh; Intel Mac OS X 10_15_7) AppleWebKit/537.36 (KHTML, like Gecko) Chrome/134.0.0.0 Safari/537.36",Macintosh,Chrome,134.0.0.0,OS X,10_15_7,https://5puzkbbxv1.cognition.run/?sona_id=57587,"en-US,en;q=0.9",75cl86tnsj9sk2m,18,"[""Black or African-American""]",Yes,Male,NA,Yes,663851,NA,null,<p></p>,null,choice,dct,trinary,attraction,1,washing machines,null,null,null,null,null,null,2,NA,NA,NA,NA,NA,NA,NA,NA,NA,NA
NA,NA,NA,NA,NA,choice_trial,survey-html-form,7,88717,0.0-4.0-1.1,281,1,2025-05-07T16:35:49Z,b60275e29fe2361ab97ac0ac217840d7,"Mozilla/5.0 (Macintosh; Intel Mac OS X 10_15_7) AppleWebKit/537.36 (KHTML, like Gecko) Chrome/134.0.0.0 Safari/537.36",Macintosh,Chrome,134.0.0.0,OS X,10_15_7,https://5puzkbbxv1.cognition.run/?sona_id=57587,"en-US,en;q=0.9",75cl86tnsj9sk2m,18,"[""Black or African-American""]",Yes,Male,NA,Yes,663851,NA,9002,NA,"{""product_choice"":""C""}",choice,dct,trinary,attraction,1,washing machines,null,null,null,null,null,null,2,60,50,60,50,60,40,Average lifespan,Energy savings,NA,NA
NA,NA,NA,NA,NA,choice_trial_setup,html-keyboard-response,8,89020,0.0-4.0-0.2,281,1,2025-05-07T16:35:49Z,b60275e29fe2361ab97ac0ac217840d7,"Mozilla/5.0 (Macintosh; Intel Mac OS X 10_15_7) AppleWebKit/537.36 (KHTML, like Gecko) Chrome/134.0.0.0 Safari/537.36",Macintosh,Chrome,134.0.0.0,OS X,10_15_7,https://5puzkbbxv1.cognition.run/?sona_id=57587,"en-US,en;q=0.9",75cl86tnsj9sk2m,18,"[""Black or African-American""]",Yes,Male,NA,Yes,663851,NA,null,<p></p>,null,choice,tc,binary,attraction,NA,televisions,null,null,null,null,null,null,1,NA,NA,NA,NA,NA,NA,NA,NA,NA,NA
NA,NA,NA,NA,NA,choice_trial,survey-html-form,9,104729,0.0-4.0-1.2,281,1,2025-05-07T16:35:49Z,b60275e29fe2361ab97ac0ac217840d7,"Mozilla/5.0 (Macintosh; Intel Mac OS X 10_15_7) AppleWebKit/537.36 (KHTML, like Gecko) Chrome/134.0.0.0 Safari/537.36",Macintosh,Chrome,134.0.0.0,OS X,10_15_7,https://5puzkbbxv1.cognition.run/?sona_id=57587,"en-US,en;q=0.9",75cl86tnsj9sk2m,18,"[""Black or African-American""]",Yes,Male,NA,Yes,663851,NA,15708,NA,"{""product_choice"":""B""}",choice,tc,binary,attraction,NA,televisions,null,null,null,null,null,null,1,60,50,null,50,60,null,Screen size,Average lifespan,NA,NA
NA,NA,NA,NA,NA,choice_trial_setup,html-keyboard-response,10,105031,0.0-4.0-0.3,281,1,2025-05-07T16:35:49Z,b60275e29fe2361ab97ac0ac217840d7,"Mozilla/5.0 (Macintosh; Intel Mac OS X 10_15_7) AppleWebKit/537.36 (KHTML, like Gecko) Chrome/134.0.0.0 Safari/537.36",Macintosh,Chrome,134.0.0.0,OS X,10_15_7,https://5puzkbbxv1.cognition.run/?sona_id=57587,"en-US,en;q=0.9",75cl86tnsj9sk2m,18,"[""Black or African-American""]",Yes,Male,NA,Yes,663851,NA,null,<p></p>,null,choice,ct,binary,repulsion,1,microwave ovens,null,null,null,null,null,null,1,NA,NA,NA,NA,NA,NA,NA,NA,NA,NA
NA,NA,NA,NA,NA,choice_trial,survey-html-form,11,122707,0.0-4.0-1.3,281,1,2025-05-07T16:35:49Z,b60275e29fe2361ab97ac0ac217840d7,"Mozilla/5.0 (Macintosh; Intel Mac OS X 10_15_7) AppleWebKit/537.36 (KHTML, like Gecko) Chrome/134.0.0.0 Safari/537.36",Macintosh,Chrome,134.0.0.0,OS X,10_15_7,https://5puzkbbxv1.cognition.run/?sona_id=57587,"en-US,en;q=0.9",75cl86tnsj9sk2m,18,"[""Black or African-American""]",Yes,Male,NA,Yes,663851,NA,17675,NA,"{""product_choice"":""A""}",choice,ct,binary,repulsion,1,microwave ovens,null,null,null,null,null,null,1,100,90,null,30,40,null,Warranty,Cooking power,NA,NA
NA,NA,NA,NA,NA,choice_trial_setup,html-keyboard-response,12,123011,0.0-4.0-0.4,281,1,2025-05-07T16:35:49Z,b60275e29fe2361ab97ac0ac217840d7,"Mozilla/5.0 (Macintosh; Intel Mac OS X 10_15_7) AppleWebKit/537.36 (KHTML, like Gecko) Chrome/134.0.0.0 Safari/537.36",Macintosh,Chrome,134.0.0.0,OS X,10_15_7,https://5puzkbbxv1.cognition.run/?sona_id=57587,"en-US,en;q=0.9",75cl86tnsj9sk2m,18,"[""Black or African-American""]",Yes,Male,NA,Yes,663851,NA,null,<p></p>,null,choice,wb,binary,catch,null,washing machines,55,85,50,25,null,null,2,NA,NA,NA,NA,NA,NA,NA,NA,NA,NA
NA,NA,NA,NA,NA,choice_trial,survey-html-form,13,160244,0.0-4.0-1.4,281,1,2025-05-07T16:35:49Z,b60275e29fe2361ab97ac0ac217840d7,"Mozilla/5.0 (Macintosh; Intel Mac OS X 10_15_7) AppleWebKit/537.36 (KHTML, like Gecko) Chrome/134.0.0.0 Safari/537.36",Macintosh,Chrome,134.0.0.0,OS X,10_15_7,https://5puzkbbxv1.cognition.run/?sona_id=57587,"en-US,en;q=0.9",75cl86tnsj9sk2m,18,"[""Black or African-American""]",Yes,Male,NA,Yes,663851,NA,37230,NA,"{""product_choice"":""B""}",choice,wb,binary,catch,null,washing machines,55,85,50,25,null,null,2,null,null,null,null,null,null,Average lifespan,Energy savings,NA,NA
NA,NA,NA,NA,NA,choice_trial_setup,html-keyboard-response,14,160546,0.0-4.0-0.5,281,1,2025-05-07T16:35:49Z,b60275e29fe2361ab97ac0ac217840d7,"Mozilla/5.0 (Macintosh; Intel Mac OS X 10_15_7) AppleWebKit/537.36 (KHTML, like Gecko) Chrome/134.0.0.0 Safari/537.36",Macintosh,Chrome,134.0.0.0,OS X,10_15_7,https://5puzkbbxv1.cognition.run/?sona_id=57587,"en-US,en;q=0.9",75cl86tnsj9sk2m,18,"[""Black or African-American""]",Yes,Male,NA,Yes,663851,NA,null,<p></p>,null,choice,ctd,trinary,repulsion_A,2,laptops,null,null,null,null,null,null,2,NA,NA,NA,NA,NA,NA,NA,NA,NA,NA
NA,NA,NA,NA,NA,choice_trial,survey-html-form,15,167990,0.0-4.0-1.5,281,1,2025-05-07T16:35:49Z,b60275e29fe2361ab97ac0ac217840d7,"Mozilla/5.0 (Macintosh; Intel Mac OS X 10_15_7) AppleWebKit/537.36 (KHTML, like Gecko) Chrome/134.0.0.0 Safari/537.36",Macintosh,Chrome,134.0.0.0,OS X,10_15_7,https://5puzkbbxv1.cognition.run/?sona_id=57587,"en-US,en;q=0.9",75cl86tnsj9sk2m,18,"[""Black or African-American""]",Yes,Male,NA,Yes,663851,NA,7441,NA,"{""product_choice"":""A""}",choice,ctd,trinary,repulsion_A,2,laptops,null,null,null,null,null,null,2,30,40,20,100,90,100,Processing speed,Memory (RAM),NA,NA
NA,NA,NA,NA,NA,choice_trial_setup,html-keyboard-response,16,168293,0.0-4.0-0.6,281,1,2025-05-07T16:35:49Z,b60275e29fe2361ab97ac0ac217840d7,"Mozilla/5.0 (Macintosh; Intel Mac OS X 10_15_7) AppleWebKit/537.36 (KHTML, like Gecko) Chrome/134.0.0.0 Safari/537.36",Macintosh,Chrome,134.0.0.0,OS X,10_15_7,https://5puzkbbxv1.cognition.run/?sona_id=57587,"en-US,en;q=0.9",75cl86tnsj9sk2m,18,"[""Black or African-American""]",Yes,Male,NA,Yes,663851,NA,null,<p></p>,null,choice,wb,binary,catch,null,microwave ovens,95,70,25,25,null,null,1,NA,NA,NA,NA,NA,NA,NA,NA,NA,NA
NA,NA,NA,NA,NA,choice_trial,survey-html-form,17,172167,0.0-4.0-1.6,281,1,2025-05-07T16:35:49Z,b60275e29fe2361ab97ac0ac217840d7,"Mozilla/5.0 (Macintosh; Intel Mac OS X 10_15_7) AppleWebKit/537.36 (KHTML, like Gecko) Chrome/134.0.0.0 Safari/537.36",Macintosh,Chrome,134.0.0.0,OS X,10_15_7,https://5puzkbbxv1.cognition.run/?sona_id=57587,"en-US,en;q=0.9",75cl86tnsj9sk2m,18,"[""Black or African-American""]",Yes,Male,NA,Yes,663851,NA,3870,NA,"{""product_choice"":""B""}",choice,wb,binary,catch,null,microwave ovens,95,70,25,25,null,null,1,null,null,null,null,null,null,Warranty,Cooking power,NA,NA
NA,NA,NA,NA,NA,choice_trial_setup,html-keyboard-response,18,172470,0.0-4.0-0.7,281,1,2025-05-07T16:35:49Z,b60275e29fe2361ab97ac0ac217840d7,"Mozilla/5.0 (Macintosh; Intel Mac OS X 10_15_7) AppleWebKit/537.36 (KHTML, like Gecko) Chrome/134.0.0.0 Safari/537.36",Macintosh,Chrome,134.0.0.0,OS X,10_15_7,https://5puzkbbxv1.cognition.run/?sona_id=57587,"en-US,en;q=0.9",75cl86tnsj9sk2m,18,"[""Black or African-American""]",Yes,Male,NA,Yes,663851,NA,null,<p></p>,null,choice,tdc,trinary,repulsion_A,2,microwave ovens,null,null,null,null,null,null,2,NA,NA,NA,NA,NA,NA,NA,NA,NA,NA
NA,NA,NA,NA,NA,choice_trial,survey-html-form,19,177096,0.0-4.0-1.7,281,1,2025-05-07T16:35:49Z,b60275e29fe2361ab97ac0ac217840d7,"Mozilla/5.0 (Macintosh; Intel Mac OS X 10_15_7) AppleWebKit/537.36 (KHTML, like Gecko) Chrome/134.0.0.0 Safari/537.36",Macintosh,Chrome,134.0.0.0,OS X,10_15_7,https://5puzkbbxv1.cognition.run/?sona_id=57587,"en-US,en;q=0.9",75cl86tnsj9sk2m,18,"[""Black or African-American""]",Yes,Male,NA,Yes,663851,NA,4623,NA,"{""product_choice"":""C""}",choice,tdc,trinary,repulsion_A,2,microwave ovens,null,null,null,null,null,null,2,30,40,20,100,90,100,Warranty,Cooking power,NA,NA
NA,NA,NA,NA,NA,choice_trial_setup,html-keyboard-response,20,177398,0.0-4.0-0.8,281,1,2025-05-07T16:35:49Z,b60275e29fe2361ab97ac0ac217840d7,"Mozilla/5.0 (Macintosh; Intel Mac OS X 10_15_7) AppleWebKit/537.36 (KHTML, like Gecko) Chrome/134.0.0.0 Safari/537.36",Macintosh,Chrome,134.0.0.0,OS X,10_15_7,https://5puzkbbxv1.cognition.run/?sona_id=57587,"en-US,en;q=0.9",75cl86tnsj9sk2m,18,"[""Black or African-American""]",Yes,Male,NA,Yes,663851,NA,null,<p></p>,null,choice,dtc,trinary,attraction,1,televisions,null,null,null,null,null,null,1,NA,NA,NA,NA,NA,NA,NA,NA,NA,NA
NA,NA,NA,NA,NA,choice_trial,survey-html-form,21,202875,0.0-4.0-1.8,281,1,2025-05-07T16:35:49Z,b60275e29fe2361ab97ac0ac217840d7,"Mozilla/5.0 (Macintosh; Intel Mac OS X 10_15_7) AppleWebKit/537.36 (KHTML, like Gecko) Chrome/134.0.0.0 Safari/537.36",Macintosh,Chrome,134.0.0.0,OS X,10_15_7,https://5puzkbbxv1.cognition.run/?sona_id=57587,"en-US,en;q=0.9",75cl86tnsj9sk2m,18,"[""Black or African-American""]",Yes,Male,NA,Yes,663851,NA,25474,NA,"{""product_choice"":""B""}",choice,dtc,trinary,attraction,1,televisions,null,null,null,null,null,null,1,60,50,60,50,60,40,Screen size,Average lifespan,NA,NA
NA,NA,NA,NA,NA,choice_trial_setup,html-keyboard-response,22,203178,0.0-4.0-0.9,281,1,2025-05-07T16:35:49Z,b60275e29fe2361ab97ac0ac217840d7,"Mozilla/5.0 (Macintosh; Intel Mac OS X 10_15_7) AppleWebKit/537.36 (KHTML, like Gecko) Chrome/134.0.0.0 Safari/537.36",Macintosh,Chrome,134.0.0.0,OS X,10_15_7,https://5puzkbbxv1.cognition.run/?sona_id=57587,"en-US,en;q=0.9",75cl86tnsj9sk2m,18,"[""Black or African-American""]",Yes,Male,NA,Yes,663851,NA,null,<p></p>,null,choice,tcd,trinary,attraction,2,televisions,null,null,null,null,null,null,2,NA,NA,NA,NA,NA,NA,NA,NA,NA,NA
NA,NA,NA,NA,NA,choice_trial,survey-html-form,23,231344,0.0-4.0-1.9,281,1,2025-05-07T16:35:49Z,b60275e29fe2361ab97ac0ac217840d7,"Mozilla/5.0 (Macintosh; Intel Mac OS X 10_15_7) AppleWebKit/537.36 (KHTML, like Gecko) Chrome/134.0.0.0 Safari/537.36",Macintosh,Chrome,134.0.0.0,OS X,10_15_7,https://5puzkbbxv1.cognition.run/?sona_id=57587,"en-US,en;q=0.9",75cl86tnsj9sk2m,18,"[""Black or African-American""]",Yes,Male,NA,Yes,663851,NA,28163,NA,"{""product_choice"":""A""}",choice,tcd,trinary,attraction,2,televisions,null,null,null,null,null,null,2,50,60,40,60,50,60,Screen size,Average lifespan,NA,NA
NA,NA,NA,NA,NA,choice_trial_setup,html-keyboard-response,24,231648,0.0-4.0-0.10,281,1,2025-05-07T16:35:49Z,b60275e29fe2361ab97ac0ac217840d7,"Mozilla/5.0 (Macintosh; Intel Mac OS X 10_15_7) AppleWebKit/537.36 (KHTML, like Gecko) Chrome/134.0.0.0 Safari/537.36",Macintosh,Chrome,134.0.0.0,OS X,10_15_7,https://5puzkbbxv1.cognition.run/?sona_id=57587,"en-US,en;q=0.9",75cl86tnsj9sk2m,18,"[""Black or African-American""]",Yes,Male,NA,Yes,663851,NA,null,<p></p>,null,choice,ct,binary,repulsion,1,washing machines,null,null,null,null,null,null,1,NA,NA,NA,NA,NA,NA,NA,NA,NA,NA
NA,NA,NA,NA,NA,choice_trial,survey-html-form,25,234240,0.0-4.0-1.10,281,1,2025-05-07T16:35:49Z,b60275e29fe2361ab97ac0ac217840d7,"Mozilla/5.0 (Macintosh; Intel Mac OS X 10_15_7) AppleWebKit/537.36 (KHTML, like Gecko) Chrome/134.0.0.0 Safari/537.36",Macintosh,Chrome,134.0.0.0,OS X,10_15_7,https://5puzkbbxv1.cognition.run/?sona_id=57587,"en-US,en;q=0.9",75cl86tnsj9sk2m,18,"[""Black or African-American""]",Yes,Male,NA,Yes,663851,NA,2589,NA,"{""product_choice"":""A""}",choice,ct,binary,repulsion,1,washing machines,null,null,null,null,null,null,1,100,90,null,30,40,null,Average lifespan,Energy savings,NA,NA
NA,NA,NA,NA,NA,choice_trial_setup,html-keyboard-response,26,234542,0.0-4.0-0.11,281,1,2025-05-07T16:35:49Z,b60275e29fe2361ab97ac0ac217840d7,"Mozilla/5.0 (Macintosh; Intel Mac OS X 10_15_7) AppleWebKit/537.36 (KHTML, like Gecko) Chrome/134.0.0.0 Safari/537.36",Macintosh,Chrome,134.0.0.0,OS X,10_15_7,https://5puzkbbxv1.cognition.run/?sona_id=57587,"en-US,en;q=0.9",75cl86tnsj9sk2m,18,"[""Black or African-American""]",Yes,Male,NA,Yes,663851,NA,null,<p></p>,null,choice,ct,binary,repulsion,2,televisions,null,null,null,null,null,null,1,NA,NA,NA,NA,NA,NA,NA,NA,NA,NA
NA,NA,NA,NA,NA,choice_trial,survey-html-form,27,239240,0.0-4.0-1.11,281,1,2025-05-07T16:35:49Z,b60275e29fe2361ab97ac0ac217840d7,"Mozilla/5.0 (Macintosh; Intel Mac OS X 10_15_7) AppleWebKit/537.36 (KHTML, like Gecko) Chrome/134.0.0.0 Safari/537.36",Macintosh,Chrome,134.0.0.0,OS X,10_15_7,https://5puzkbbxv1.cognition.run/?sona_id=57587,"en-US,en;q=0.9",75cl86tnsj9sk2m,18,"[""Black or African-American""]",Yes,Male,NA,Yes,663851,NA,4697,NA,"{""product_choice"":""A""}",choice,ct,binary,repulsion,2,televisions,null,null,null,null,null,null,1,30,40,null,100,90,null,Screen size,Average lifespan,NA,NA
NA,NA,NA,NA,NA,choice_trial_setup,html-keyboard-response,28,239543,0.0-4.0-0.12,281,1,2025-05-07T16:35:49Z,b60275e29fe2361ab97ac0ac217840d7,"Mozilla/5.0 (Macintosh; Intel Mac OS X 10_15_7) AppleWebKit/537.36 (KHTML, like Gecko) Chrome/134.0.0.0 Safari/537.36",Macintosh,Chrome,134.0.0.0,OS X,10_15_7,https://5puzkbbxv1.cognition.run/?sona_id=57587,"en-US,en;q=0.9",75cl86tnsj9sk2m,18,"[""Black or African-American""]",Yes,Male,NA,Yes,663851,NA,null,<p></p>,null,choice,tc,binary,repulsion,2,microwave ovens,null,null,null,null,null,null,2,NA,NA,NA,NA,NA,NA,NA,NA,NA,NA
NA,NA,NA,NA,NA,choice_trial,survey-html-form,29,247247,0.0-4.0-1.12,281,1,2025-05-07T16:35:49Z,b60275e29fe2361ab97ac0ac217840d7,"Mozilla/5.0 (Macintosh; Intel Mac OS X 10_15_7) AppleWebKit/537.36 (KHTML, like Gecko) Chrome/134.0.0.0 Safari/537.36",Macintosh,Chrome,134.0.0.0,OS X,10_15_7,https://5puzkbbxv1.cognition.run/?sona_id=57587,"en-US,en;q=0.9",75cl86tnsj9sk2m,18,"[""Black or African-American""]",Yes,Male,NA,Yes,663851,NA,7702,NA,"{""product_choice"":""B""}",choice,tc,binary,repulsion,2,microwave ovens,null,null,null,null,null,null,2,30,40,null,100,90,null,Warranty,Cooking power,NA,NA
NA,NA,NA,NA,NA,choice_trial_setup,html-keyboard-response,30,247549,0.0-4.0-0.13,281,1,2025-05-07T16:35:49Z,b60275e29fe2361ab97ac0ac217840d7,"Mozilla/5.0 (Macintosh; Intel Mac OS X 10_15_7) AppleWebKit/537.36 (KHTML, like Gecko) Chrome/134.0.0.0 Safari/537.36",Macintosh,Chrome,134.0.0.0,OS X,10_15_7,https://5puzkbbxv1.cognition.run/?sona_id=57587,"en-US,en;q=0.9",75cl86tnsj9sk2m,18,"[""Black or African-American""]",Yes,Male,NA,Yes,663851,NA,null,<p></p>,null,choice,cdt,trinary,repulsion_B,2,washing machines,null,null,null,null,null,null,1,NA,NA,NA,NA,NA,NA,NA,NA,NA,NA
NA,NA,NA,NA,NA,choice_trial,survey-html-form,31,253832,0.0-4.0-1.13,281,1,2025-05-07T16:35:49Z,b60275e29fe2361ab97ac0ac217840d7,"Mozilla/5.0 (Macintosh; Intel Mac OS X 10_15_7) AppleWebKit/537.36 (KHTML, like Gecko) Chrome/134.0.0.0 Safari/537.36",Macintosh,Chrome,134.0.0.0,OS X,10_15_7,https://5puzkbbxv1.cognition.run/?sona_id=57587,"en-US,en;q=0.9",75cl86tnsj9sk2m,18,"[""Black or African-American""]",Yes,Male,NA,Yes,663851,NA,6280,NA,"{""product_choice"":""C""}",choice,cdt,trinary,repulsion_B,2,washing machines,null,null,null,null,null,null,1,40,30,40,90,100,80,Average lifespan,Energy savings,NA,NA
NA,NA,NA,NA,NA,choice_trial_setup,html-keyboard-response,32,254135,0.0-4.0-0.14,281,1,2025-05-07T16:35:49Z,b60275e29fe2361ab97ac0ac217840d7,"Mozilla/5.0 (Macintosh; Intel Mac OS X 10_15_7) AppleWebKit/537.36 (KHTML, like Gecko) Chrome/134.0.0.0 Safari/537.36",Macintosh,Chrome,134.0.0.0,OS X,10_15_7,https://5puzkbbxv1.cognition.run/?sona_id=57587,"en-US,en;q=0.9",75cl86tnsj9sk2m,18,"[""Black or African-American""]",Yes,Male,NA,Yes,663851,NA,null,<p></p>,null,choice,bw,binary,catch,null,televisions,75,80,35,40,null,null,1,NA,NA,NA,NA,NA,NA,NA,NA,NA,NA
NA,NA,NA,NA,NA,choice_trial,survey-html-form,33,257562,0.0-4.0-1.14,281,1,2025-05-07T16:35:49Z,b60275e29fe2361ab97ac0ac217840d7,"Mozilla/5.0 (Macintosh; Intel Mac OS X 10_15_7) AppleWebKit/537.36 (KHTML, like Gecko) Chrome/134.0.0.0 Safari/537.36",Macintosh,Chrome,134.0.0.0,OS X,10_15_7,https://5puzkbbxv1.cognition.run/?sona_id=57587,"en-US,en;q=0.9",75cl86tnsj9sk2m,18,"[""Black or African-American""]",Yes,Male,NA,Yes,663851,NA,3424,NA,"{""product_choice"":""A""}",choice,bw,binary,catch,null,televisions,75,80,35,40,null,null,1,null,null,null,null,null,null,Screen size,Average lifespan,NA,NA
NA,NA,NA,NA,NA,choice_trial_setup,html-keyboard-response,34,257864,0.0-4.0-0.15,281,1,2025-05-07T16:35:49Z,b60275e29fe2361ab97ac0ac217840d7,"Mozilla/5.0 (Macintosh; Intel Mac OS X 10_15_7) AppleWebKit/537.36 (KHTML, like Gecko) Chrome/134.0.0.0 Safari/537.36",Macintosh,Chrome,134.0.0.0,OS X,10_15_7,https://5puzkbbxv1.cognition.run/?sona_id=57587,"en-US,en;q=0.9",75cl86tnsj9sk2m,18,"[""Black or African-American""]",Yes,Male,NA,Yes,663851,NA,null,<p></p>,null,choice,tdc,trinary,repulsion_A,1,laptops,null,null,null,null,null,null,1,NA,NA,NA,NA,NA,NA,NA,NA,NA,NA
NA,NA,NA,NA,NA,choice_trial,survey-html-form,35,264445,0.0-4.0-1.15,281,1,2025-05-07T16:35:49Z,b60275e29fe2361ab97ac0ac217840d7,"Mozilla/5.0 (Macintosh; Intel Mac OS X 10_15_7) AppleWebKit/537.36 (KHTML, like Gecko) Chrome/134.0.0.0 Safari/537.36",Macintosh,Chrome,134.0.0.0,OS X,10_15_7,https://5puzkbbxv1.cognition.run/?sona_id=57587,"en-US,en;q=0.9",75cl86tnsj9sk2m,18,"[""Black or African-American""]",Yes,Male,NA,Yes,663851,NA,6578,NA,"{""product_choice"":""C""}",choice,tdc,trinary,repulsion_A,1,laptops,null,null,null,null,null,null,1,100,90,100,30,40,20,Processing speed,Memory (RAM),NA,NA
NA,NA,NA,NA,NA,choice_trial_setup,html-keyboard-response,36,264748,0.0-4.0-0.16,281,1,2025-05-07T16:35:49Z,b60275e29fe2361ab97ac0ac217840d7,"Mozilla/5.0 (Macintosh; Intel Mac OS X 10_15_7) AppleWebKit/537.36 (KHTML, like Gecko) Chrome/134.0.0.0 Safari/537.36",Macintosh,Chrome,134.0.0.0,OS X,10_15_7,https://5puzkbbxv1.cognition.run/?sona_id=57587,"en-US,en;q=0.9",75cl86tnsj9sk2m,18,"[""Black or African-American""]",Yes,Male,NA,Yes,663851,NA,null,<p></p>,null,choice,bww,trinary,catch,null,washing machines,65,95,50,10,40,30,2,NA,NA,NA,NA,NA,NA,NA,NA,NA,NA
NA,NA,NA,NA,NA,choice_trial,survey-html-form,37,273971,0.0-4.0-1.16,281,1,2025-05-07T16:35:49Z,b60275e29fe2361ab97ac0ac217840d7,"Mozilla/5.0 (Macintosh; Intel Mac OS X 10_15_7) AppleWebKit/537.36 (KHTML, like Gecko) Chrome/134.0.0.0 Safari/537.36",Macintosh,Chrome,134.0.0.0,OS X,10_15_7,https://5puzkbbxv1.cognition.run/?sona_id=57587,"en-US,en;q=0.9",75cl86tnsj9sk2m,18,"[""Black or African-American""]",Yes,Male,NA,Yes,663851,NA,9220,NA,"{""product_choice"":""A""}",choice,bww,trinary,catch,null,washing machines,65,95,50,10,40,30,2,null,null,null,null,null,null,Average lifespan,Energy savings,NA,NA
NA,NA,NA,NA,NA,choice_trial_setup,html-keyboard-response,38,274273,0.0-4.0-0.17,281,1,2025-05-07T16:35:49Z,b60275e29fe2361ab97ac0ac217840d7,"Mozilla/5.0 (Macintosh; Intel Mac OS X 10_15_7) AppleWebKit/537.36 (KHTML, like Gecko) Chrome/134.0.0.0 Safari/537.36",Macintosh,Chrome,134.0.0.0,OS X,10_15_7,https://5puzkbbxv1.cognition.run/?sona_id=57587,"en-US,en;q=0.9",75cl86tnsj9sk2m,18,"[""Black or African-American""]",Yes,Male,NA,Yes,663851,NA,null,<p></p>,null,choice,dtc,trinary,attraction,1,microwave ovens,null,null,null,null,null,null,2,NA,NA,NA,NA,NA,NA,NA,NA,NA,NA
NA,NA,NA,NA,NA,choice_trial,survey-html-form,39,281148,0.0-4.0-1.17,281,1,2025-05-07T16:35:49Z,b60275e29fe2361ab97ac0ac217840d7,"Mozilla/5.0 (Macintosh; Intel Mac OS X 10_15_7) AppleWebKit/537.36 (KHTML, like Gecko) Chrome/134.0.0.0 Safari/537.36",Macintosh,Chrome,134.0.0.0,OS X,10_15_7,https://5puzkbbxv1.cognition.run/?sona_id=57587,"en-US,en;q=0.9",75cl86tnsj9sk2m,18,"[""Black or African-American""]",Yes,Male,NA,Yes,663851,NA,6871,NA,"{""product_choice"":""B""}",choice,dtc,trinary,attraction,1,microwave ovens,null,null,null,null,null,null,2,60,50,60,50,60,40,Warranty,Cooking power,NA,NA
NA,NA,NA,NA,NA,choice_trial_setup,html-keyboard-response,40,281451,0.0-4.0-0.18,281,1,2025-05-07T16:35:49Z,b60275e29fe2361ab97ac0ac217840d7,"Mozilla/5.0 (Macintosh; Intel Mac OS X 10_15_7) AppleWebKit/537.36 (KHTML, like Gecko) Chrome/134.0.0.0 Safari/537.36",Macintosh,Chrome,134.0.0.0,OS X,10_15_7,https://5puzkbbxv1.cognition.run/?sona_id=57587,"en-US,en;q=0.9",75cl86tnsj9sk2m,18,"[""Black or African-American""]",Yes,Male,NA,Yes,663851,NA,null,<p></p>,null,choice,dtc,trinary,repulsion_B,1,washing machines,null,null,null,null,null,null,1,NA,NA,NA,NA,NA,NA,NA,NA,NA,NA
NA,NA,NA,NA,NA,choice_trial,survey-html-form,41,289749,0.0-4.0-1.18,281,1,2025-05-07T16:35:49Z,b60275e29fe2361ab97ac0ac217840d7,"Mozilla/5.0 (Macintosh; Intel Mac OS X 10_15_7) AppleWebKit/537.36 (KHTML, like Gecko) Chrome/134.0.0.0 Safari/537.36",Macintosh,Chrome,134.0.0.0,OS X,10_15_7,https://5puzkbbxv1.cognition.run/?sona_id=57587,"en-US,en;q=0.9",75cl86tnsj9sk2m,18,"[""Black or African-American""]",Yes,Male,NA,Yes,663851,NA,8293,NA,"{""product_choice"":""B""}",choice,dtc,trinary,repulsion_B,1,washing machines,null,null,null,null,null,null,1,90,100,80,40,30,40,Average lifespan,Energy savings,NA,NA
NA,NA,NA,NA,NA,choice_trial_setup,html-keyboard-response,42,290053,0.0-4.0-0.19,281,1,2025-05-07T16:35:49Z,b60275e29fe2361ab97ac0ac217840d7,"Mozilla/5.0 (Macintosh; Intel Mac OS X 10_15_7) AppleWebKit/537.36 (KHTML, like Gecko) Chrome/134.0.0.0 Safari/537.36",Macintosh,Chrome,134.0.0.0,OS X,10_15_7,https://5puzkbbxv1.cognition.run/?sona_id=57587,"en-US,en;q=0.9",75cl86tnsj9sk2m,18,"[""Black or African-American""]",Yes,Male,NA,Yes,663851,NA,null,<p></p>,null,choice,ctd,trinary,attraction,2,washing machines,null,null,null,null,null,null,2,NA,NA,NA,NA,NA,NA,NA,NA,NA,NA
NA,NA,NA,NA,NA,choice_trial,survey-html-form,43,302883,0.0-4.0-1.19,281,1,2025-05-07T16:35:49Z,b60275e29fe2361ab97ac0ac217840d7,"Mozilla/5.0 (Macintosh; Intel Mac OS X 10_15_7) AppleWebKit/537.36 (KHTML, like Gecko) Chrome/134.0.0.0 Safari/537.36",Macintosh,Chrome,134.0.0.0,OS X,10_15_7,https://5puzkbbxv1.cognition.run/?sona_id=57587,"en-US,en;q=0.9",75cl86tnsj9sk2m,18,"[""Black or African-American""]",Yes,Male,NA,Yes,663851,NA,12827,NA,"{""product_choice"":""A""}",choice,ctd,trinary,attraction,2,washing machines,null,null,null,null,null,null,2,50,60,40,60,50,60,Average lifespan,Energy savings,NA,NA
NA,NA,NA,NA,NA,choice_trial_setup,html-keyboard-response,44,303186,0.0-4.0-0.20,281,1,2025-05-07T16:35:49Z,b60275e29fe2361ab97ac0ac217840d7,"Mozilla/5.0 (Macintosh; Intel Mac OS X 10_15_7) AppleWebKit/537.36 (KHTML, like Gecko) Chrome/134.0.0.0 Safari/537.36",Macintosh,Chrome,134.0.0.0,OS X,10_15_7,https://5puzkbbxv1.cognition.run/?sona_id=57587,"en-US,en;q=0.9",75cl86tnsj9sk2m,18,"[""Black or African-American""]",Yes,Male,NA,Yes,663851,NA,null,<p></p>,null,choice,dtc,trinary,repulsion_A,1,televisions,null,null,null,null,null,null,1,NA,NA,NA,NA,NA,NA,NA,NA,NA,NA
NA,NA,NA,NA,NA,choice_trial,survey-html-form,45,307578,0.0-4.0-1.20,281,1,2025-05-07T16:35:49Z,b60275e29fe2361ab97ac0ac217840d7,"Mozilla/5.0 (Macintosh; Intel Mac OS X 10_15_7) AppleWebKit/537.36 (KHTML, like Gecko) Chrome/134.0.0.0 Safari/537.36",Macintosh,Chrome,134.0.0.0,OS X,10_15_7,https://5puzkbbxv1.cognition.run/?sona_id=57587,"en-US,en;q=0.9",75cl86tnsj9sk2m,18,"[""Black or African-American""]",Yes,Male,NA,Yes,663851,NA,4389,NA,"{""product_choice"":""C""}",choice,dtc,trinary,repulsion_A,1,televisions,null,null,null,null,null,null,1,100,90,100,30,40,20,Screen size,Average lifespan,NA,NA
NA,NA,NA,NA,NA,choice_trial_setup,html-keyboard-response,46,307880,0.0-4.0-0.21,281,1,2025-05-07T16:35:49Z,b60275e29fe2361ab97ac0ac217840d7,"Mozilla/5.0 (Macintosh; Intel Mac OS X 10_15_7) AppleWebKit/537.36 (KHTML, like Gecko) Chrome/134.0.0.0 Safari/537.36",Macintosh,Chrome,134.0.0.0,OS X,10_15_7,https://5puzkbbxv1.cognition.run/?sona_id=57587,"en-US,en;q=0.9",75cl86tnsj9sk2m,18,"[""Black or African-American""]",Yes,Male,NA,Yes,663851,NA,null,<p></p>,null,choice,tc,binary,attraction,NA,washing machines,null,null,null,null,null,null,2,NA,NA,NA,NA,NA,NA,NA,NA,NA,NA
NA,NA,NA,NA,NA,choice_trial,survey-html-form,47,319643,0.0-4.0-1.21,281,1,2025-05-07T16:35:49Z,b60275e29fe2361ab97ac0ac217840d7,"Mozilla/5.0 (Macintosh; Intel Mac OS X 10_15_7) AppleWebKit/537.36 (KHTML, like Gecko) Chrome/134.0.0.0 Safari/537.36",Macintosh,Chrome,134.0.0.0,OS X,10_15_7,https://5puzkbbxv1.cognition.run/?sona_id=57587,"en-US,en;q=0.9",75cl86tnsj9sk2m,18,"[""Black or African-American""]",Yes,Male,NA,Yes,663851,NA,11758,NA,"{""product_choice"":""A""}",choice,tc,binary,attraction,NA,washing machines,null,null,null,null,null,null,2,60,50,null,50,60,null,Average lifespan,Energy savings,NA,NA
NA,NA,NA,NA,NA,choice_trial_setup,html-keyboard-response,48,319947,0.0-4.0-0.22,281,1,2025-05-07T16:35:49Z,b60275e29fe2361ab97ac0ac217840d7,"Mozilla/5.0 (Macintosh; Intel Mac OS X 10_15_7) AppleWebKit/537.36 (KHTML, like Gecko) Chrome/134.0.0.0 Safari/537.36",Macintosh,Chrome,134.0.0.0,OS X,10_15_7,https://5puzkbbxv1.cognition.run/?sona_id=57587,"en-US,en;q=0.9",75cl86tnsj9sk2m,18,"[""Black or African-American""]",Yes,Male,NA,Yes,663851,NA,null,<p></p>,null,choice,bww,trinary,catch,null,laptops,65,55,40,45,35,30,2,NA,NA,NA,NA,NA,NA,NA,NA,NA,NA
NA,NA,NA,NA,NA,choice_trial,survey-html-form,49,334857,0.0-4.0-1.22,281,1,2025-05-07T16:35:49Z,b60275e29fe2361ab97ac0ac217840d7,"Mozilla/5.0 (Macintosh; Intel Mac OS X 10_15_7) AppleWebKit/537.36 (KHTML, like Gecko) Chrome/134.0.0.0 Safari/537.36",Macintosh,Chrome,134.0.0.0,OS X,10_15_7,https://5puzkbbxv1.cognition.run/?sona_id=57587,"en-US,en;q=0.9",75cl86tnsj9sk2m,18,"[""Black or African-American""]",Yes,Male,NA,Yes,663851,NA,14907,NA,"{""product_choice"":""A""}",choice,bww,trinary,catch,null,laptops,65,55,40,45,35,30,2,null,null,null,null,null,null,Processing speed,Memory (RAM),NA,NA
NA,NA,NA,NA,NA,choice_trial_setup,html-keyboard-response,50,335161,0.0-4.0-0.23,281,1,2025-05-07T16:35:49Z,b60275e29fe2361ab97ac0ac217840d7,"Mozilla/5.0 (Macintosh; Intel Mac OS X 10_15_7) AppleWebKit/537.36 (KHTML, like Gecko) Chrome/134.0.0.0 Safari/537.36",Macintosh,Chrome,134.0.0.0,OS X,10_15_7,https://5puzkbbxv1.cognition.run/?sona_id=57587,"en-US,en;q=0.9",75cl86tnsj9sk2m,18,"[""Black or African-American""]",Yes,Male,NA,Yes,663851,NA,null,<p></p>,null,choice,tcd,trinary,repulsion_B,2,microwave ovens,null,null,null,null,null,null,1,NA,NA,NA,NA,NA,NA,NA,NA,NA,NA
NA,NA,NA,NA,NA,choice_trial,survey-html-form,51,339243,0.0-4.0-1.23,281,1,2025-05-07T16:35:49Z,b60275e29fe2361ab97ac0ac217840d7,"Mozilla/5.0 (Macintosh; Intel Mac OS X 10_15_7) AppleWebKit/537.36 (KHTML, like Gecko) Chrome/134.0.0.0 Safari/537.36",Macintosh,Chrome,134.0.0.0,OS X,10_15_7,https://5puzkbbxv1.cognition.run/?sona_id=57587,"en-US,en;q=0.9",75cl86tnsj9sk2m,18,"[""Black or African-American""]",Yes,Male,NA,Yes,663851,NA,4078,NA,"{""product_choice"":""A""}",choice,tcd,trinary,repulsion_B,2,microwave ovens,null,null,null,null,null,null,1,40,30,40,90,100,80,Warranty,Cooking power,NA,NA
NA,NA,NA,NA,NA,choice_trial_setup,html-keyboard-response,52,339546,0.0-4.0-0.24,281,1,2025-05-07T16:35:49Z,b60275e29fe2361ab97ac0ac217840d7,"Mozilla/5.0 (Macintosh; Intel Mac OS X 10_15_7) AppleWebKit/537.36 (KHTML, like Gecko) Chrome/134.0.0.0 Safari/537.36",Macintosh,Chrome,134.0.0.0,OS X,10_15_7,https://5puzkbbxv1.cognition.run/?sona_id=57587,"en-US,en;q=0.9",75cl86tnsj9sk2m,18,"[""Black or African-American""]",Yes,Male,NA,Yes,663851,NA,null,<p></p>,null,choice,ctd,trinary,repulsion_B,2,televisions,null,null,null,null,null,null,2,NA,NA,NA,NA,NA,NA,NA,NA,NA,NA
NA,NA,NA,NA,NA,choice_trial,survey-html-form,53,349104,0.0-4.0-1.24,281,1,2025-05-07T16:35:49Z,b60275e29fe2361ab97ac0ac217840d7,"Mozilla/5.0 (Macintosh; Intel Mac OS X 10_15_7) AppleWebKit/537.36 (KHTML, like Gecko) Chrome/134.0.0.0 Safari/537.36",Macintosh,Chrome,134.0.0.0,OS X,10_15_7,https://5puzkbbxv1.cognition.run/?sona_id=57587,"en-US,en;q=0.9",75cl86tnsj9sk2m,18,"[""Black or African-American""]",Yes,Male,NA,Yes,663851,NA,9555,NA,"{""product_choice"":""B""}",choice,ctd,trinary,repulsion_B,2,televisions,null,null,null,null,null,null,2,40,30,40,90,100,80,Screen size,Average lifespan,NA,NA
NA,NA,NA,NA,NA,choice_trial_setup,html-keyboard-response,54,349408,0.0-4.0-0.25,281,1,2025-05-07T16:35:49Z,b60275e29fe2361ab97ac0ac217840d7,"Mozilla/5.0 (Macintosh; Intel Mac OS X 10_15_7) AppleWebKit/537.36 (KHTML, like Gecko) Chrome/134.0.0.0 Safari/537.36",Macintosh,Chrome,134.0.0.0,OS X,10_15_7,https://5puzkbbxv1.cognition.run/?sona_id=57587,"en-US,en;q=0.9",75cl86tnsj9sk2m,18,"[""Black or African-American""]",Yes,Male,NA,Yes,663851,NA,null,<p></p>,null,choice,wbw,trinary,catch,null,televisions,60,90,45,10,15,10,2,NA,NA,NA,NA,NA,NA,NA,NA,NA,NA
NA,NA,NA,NA,NA,choice_trial,survey-html-form,55,358309,0.0-4.0-1.25,281,1,2025-05-07T16:35:49Z,b60275e29fe2361ab97ac0ac217840d7,"Mozilla/5.0 (Macintosh; Intel Mac OS X 10_15_7) AppleWebKit/537.36 (KHTML, like Gecko) Chrome/134.0.0.0 Safari/537.36",Macintosh,Chrome,134.0.0.0,OS X,10_15_7,https://5puzkbbxv1.cognition.run/?sona_id=57587,"en-US,en;q=0.9",75cl86tnsj9sk2m,18,"[""Black or African-American""]",Yes,Male,NA,Yes,663851,NA,8893,NA,"{""product_choice"":""B""}",choice,wbw,trinary,catch,null,televisions,60,90,45,10,15,10,2,null,null,null,null,null,null,Screen size,Average lifespan,NA,NA
NA,NA,NA,NA,NA,choice_trial_setup,html-keyboard-response,56,358613,0.0-4.0-0.26,281,1,2025-05-07T16:35:49Z,b60275e29fe2361ab97ac0ac217840d7,"Mozilla/5.0 (Macintosh; Intel Mac OS X 10_15_7) AppleWebKit/537.36 (KHTML, like Gecko) Chrome/134.0.0.0 Safari/537.36",Macintosh,Chrome,134.0.0.0,OS X,10_15_7,https://5puzkbbxv1.cognition.run/?sona_id=57587,"en-US,en;q=0.9",75cl86tnsj9sk2m,18,"[""Black or African-American""]",Yes,Male,NA,Yes,663851,NA,null,<p></p>,null,choice,wbw,trinary,catch,null,microwave ovens,95,90,45,25,35,5,2,NA,NA,NA,NA,NA,NA,NA,NA,NA,NA
NA,NA,NA,NA,NA,choice_trial,survey-html-form,57,365540,0.0-4.0-1.26,281,1,2025-05-07T16:35:49Z,b60275e29fe2361ab97ac0ac217840d7,"Mozilla/5.0 (Macintosh; Intel Mac OS X 10_15_7) AppleWebKit/537.36 (KHTML, like Gecko) Chrome/134.0.0.0 Safari/537.36",Macintosh,Chrome,134.0.0.0,OS X,10_15_7,https://5puzkbbxv1.cognition.run/?sona_id=57587,"en-US,en;q=0.9",75cl86tnsj9sk2m,18,"[""Black or African-American""]",Yes,Male,NA,Yes,663851,NA,6922,NA,"{""product_choice"":""B""}",choice,wbw,trinary,catch,null,microwave ovens,95,90,45,25,35,5,2,null,null,null,null,null,null,Warranty,Cooking power,NA,NA
NA,NA,NA,NA,NA,choice_trial_setup,html-keyboard-response,58,365842,0.0-4.0-0.27,281,1,2025-05-07T16:35:49Z,b60275e29fe2361ab97ac0ac217840d7,"Mozilla/5.0 (Macintosh; Intel Mac OS X 10_15_7) AppleWebKit/537.36 (KHTML, like Gecko) Chrome/134.0.0.0 Safari/537.36",Macintosh,Chrome,134.0.0.0,OS X,10_15_7,https://5puzkbbxv1.cognition.run/?sona_id=57587,"en-US,en;q=0.9",75cl86tnsj9sk2m,18,"[""Black or African-American""]",Yes,Male,NA,Yes,663851,NA,null,<p></p>,null,choice,cdt,trinary,repulsion_B,1,televisions,null,null,null,null,null,null,1,NA,NA,NA,NA,NA,NA,NA,NA,NA,NA
NA,NA,NA,NA,NA,choice_trial,survey-html-form,59,374953,0.0-4.0-1.27,281,1,2025-05-07T16:35:49Z,b60275e29fe2361ab97ac0ac217840d7,"Mozilla/5.0 (Macintosh; Intel Mac OS X 10_15_7) AppleWebKit/537.36 (KHTML, like Gecko) Chrome/134.0.0.0 Safari/537.36",Macintosh,Chrome,134.0.0.0,OS X,10_15_7,https://5puzkbbxv1.cognition.run/?sona_id=57587,"en-US,en;q=0.9",75cl86tnsj9sk2m,18,"[""Black or African-American""]",Yes,Male,NA,Yes,663851,NA,9107,NA,"{""product_choice"":""C""}",choice,cdt,trinary,repulsion_B,1,televisions,null,null,null,null,null,null,1,90,100,80,40,30,40,Screen size,Average lifespan,NA,NA
NA,NA,NA,NA,NA,choice_trial_setup,html-keyboard-response,60,375256,0.0-4.0-0.28,281,1,2025-05-07T16:35:49Z,b60275e29fe2361ab97ac0ac217840d7,"Mozilla/5.0 (Macintosh; Intel Mac OS X 10_15_7) AppleWebKit/537.36 (KHTML, like Gecko) Chrome/134.0.0.0 Safari/537.36",Macintosh,Chrome,134.0.0.0,OS X,10_15_7,https://5puzkbbxv1.cognition.run/?sona_id=57587,"en-US,en;q=0.9",75cl86tnsj9sk2m,18,"[""Black or African-American""]",Yes,Male,NA,Yes,663851,NA,null,<p></p>,null,choice,cdt,trinary,attraction,2,laptops,null,null,null,null,null,null,1,NA,NA,NA,NA,NA,NA,NA,NA,NA,NA
NA,NA,NA,NA,NA,choice_trial,survey-html-form,61,474967,0.0-4.0-1.28,281,1,2025-05-07T16:35:49Z,b60275e29fe2361ab97ac0ac217840d7,"Mozilla/5.0 (Macintosh; Intel Mac OS X 10_15_7) AppleWebKit/537.36 (KHTML, like Gecko) Chrome/134.0.0.0 Safari/537.36",Macintosh,Chrome,134.0.0.0,OS X,10_15_7,https://5puzkbbxv1.cognition.run/?sona_id=57587,"en-US,en;q=0.9",75cl86tnsj9sk2m,18,"[""Black or African-American""]",Yes,Male,NA,Yes,663851,NA,99711,NA,"{""product_choice"":""A""}",choice,cdt,trinary,attraction,2,laptops,null,null,null,null,null,null,1,50,60,40,60,50,60,Processing speed,Memory (RAM),NA,NA
NA,NA,NA,NA,NA,choice_trial_setup,html-keyboard-response,62,475270,0.0-4.0-0.29,281,1,2025-05-07T16:35:49Z,b60275e29fe2361ab97ac0ac217840d7,"Mozilla/5.0 (Macintosh; Intel Mac OS X 10_15_7) AppleWebKit/537.36 (KHTML, like Gecko) Chrome/134.0.0.0 Safari/537.36",Macintosh,Chrome,134.0.0.0,OS X,10_15_7,https://5puzkbbxv1.cognition.run/?sona_id=57587,"en-US,en;q=0.9",75cl86tnsj9sk2m,18,"[""Black or African-American""]",Yes,Male,NA,Yes,663851,NA,null,<p></p>,null,choice,dtc,trinary,repulsion_B,2,laptops,null,null,null,null,null,null,2,NA,NA,NA,NA,NA,NA,NA,NA,NA,NA
NA,NA,NA,NA,NA,choice_trial,survey-html-form,63,480347,0.0-4.0-1.29,281,1,2025-05-07T16:35:49Z,b60275e29fe2361ab97ac0ac217840d7,"Mozilla/5.0 (Macintosh; Intel Mac OS X 10_15_7) AppleWebKit/537.36 (KHTML, like Gecko) Chrome/134.0.0.0 Safari/537.36",Macintosh,Chrome,134.0.0.0,OS X,10_15_7,https://5puzkbbxv1.cognition.run/?sona_id=57587,"en-US,en;q=0.9",75cl86tnsj9sk2m,18,"[""Black or African-American""]",Yes,Male,NA,Yes,663851,NA,5073,NA,"{""product_choice"":""B""}",choice,dtc,trinary,repulsion_B,2,laptops,null,null,null,null,null,null,2,40,30,40,90,100,80,Processing speed,Memory (RAM),NA,NA
NA,NA,NA,NA,NA,choice_trial_setup,html-keyboard-response,64,480650,0.0-4.0-0.30,281,1,2025-05-07T16:35:49Z,b60275e29fe2361ab97ac0ac217840d7,"Mozilla/5.0 (Macintosh; Intel Mac OS X 10_15_7) AppleWebKit/537.36 (KHTML, like Gecko) Chrome/134.0.0.0 Safari/537.36",Macintosh,Chrome,134.0.0.0,OS X,10_15_7,https://5puzkbbxv1.cognition.run/?sona_id=57587,"en-US,en;q=0.9",75cl86tnsj9sk2m,18,"[""Black or African-American""]",Yes,Male,NA,Yes,663851,NA,null,<p></p>,null,choice,dct,trinary,repulsion_A,1,washing machines,null,null,null,null,null,null,2,NA,NA,NA,NA,NA,NA,NA,NA,NA,NA
NA,NA,NA,NA,NA,choice_trial,survey-html-form,65,487433,0.0-4.0-1.30,281,1,2025-05-07T16:35:49Z,b60275e29fe2361ab97ac0ac217840d7,"Mozilla/5.0 (Macintosh; Intel Mac OS X 10_15_7) AppleWebKit/537.36 (KHTML, like Gecko) Chrome/134.0.0.0 Safari/537.36",Macintosh,Chrome,134.0.0.0,OS X,10_15_7,https://5puzkbbxv1.cognition.run/?sona_id=57587,"en-US,en;q=0.9",75cl86tnsj9sk2m,18,"[""Black or African-American""]",Yes,Male,NA,Yes,663851,NA,6780,NA,"{""product_choice"":""B""}",choice,dct,trinary,repulsion_A,1,washing machines,null,null,null,null,null,null,2,100,90,100,30,40,20,Average lifespan,Energy savings,NA,NA
NA,NA,NA,NA,NA,choice_trial_setup,html-keyboard-response,66,487737,0.0-4.0-0.31,281,1,2025-05-07T16:35:49Z,b60275e29fe2361ab97ac0ac217840d7,"Mozilla/5.0 (Macintosh; Intel Mac OS X 10_15_7) AppleWebKit/537.36 (KHTML, like Gecko) Chrome/134.0.0.0 Safari/537.36",Macintosh,Chrome,134.0.0.0,OS X,10_15_7,https://5puzkbbxv1.cognition.run/?sona_id=57587,"en-US,en;q=0.9",75cl86tnsj9sk2m,18,"[""Black or African-American""]",Yes,Male,NA,Yes,663851,NA,null,<p></p>,null,choice,dct,trinary,repulsion_A,2,televisions,null,null,null,null,null,null,2,NA,NA,NA,NA,NA,NA,NA,NA,NA,NA
NA,NA,NA,NA,NA,choice_trial,survey-html-form,67,494047,0.0-4.0-1.31,281,1,2025-05-07T16:35:49Z,b60275e29fe2361ab97ac0ac217840d7,"Mozilla/5.0 (Macintosh; Intel Mac OS X 10_15_7) AppleWebKit/537.36 (KHTML, like Gecko) Chrome/134.0.0.0 Safari/537.36",Macintosh,Chrome,134.0.0.0,OS X,10_15_7,https://5puzkbbxv1.cognition.run/?sona_id=57587,"en-US,en;q=0.9",75cl86tnsj9sk2m,18,"[""Black or African-American""]",Yes,Male,NA,Yes,663851,NA,6307,NA,"{""product_choice"":""B""}",choice,dct,trinary,repulsion_A,2,televisions,null,null,null,null,null,null,2,30,40,20,100,90,100,Screen size,Average lifespan,NA,NA
NA,NA,NA,NA,NA,choice_trial_setup,html-keyboard-response,68,494350,0.0-4.0-0.32,281,1,2025-05-07T16:35:49Z,b60275e29fe2361ab97ac0ac217840d7,"Mozilla/5.0 (Macintosh; Intel Mac OS X 10_15_7) AppleWebKit/537.36 (KHTML, like Gecko) Chrome/134.0.0.0 Safari/537.36",Macintosh,Chrome,134.0.0.0,OS X,10_15_7,https://5puzkbbxv1.cognition.run/?sona_id=57587,"en-US,en;q=0.9",75cl86tnsj9sk2m,18,"[""Black or African-American""]",Yes,Male,NA,Yes,663851,NA,null,<p></p>,null,choice,tc,binary,attraction,NA,microwave ovens,null,null,null,null,null,null,1,NA,NA,NA,NA,NA,NA,NA,NA,NA,NA
NA,NA,NA,NA,NA,choice_trial,survey-html-form,69,500488,0.0-4.0-1.32,281,1,2025-05-07T16:35:49Z,b60275e29fe2361ab97ac0ac217840d7,"Mozilla/5.0 (Macintosh; Intel Mac OS X 10_15_7) AppleWebKit/537.36 (KHTML, like Gecko) Chrome/134.0.0.0 Safari/537.36",Macintosh,Chrome,134.0.0.0,OS X,10_15_7,https://5puzkbbxv1.cognition.run/?sona_id=57587,"en-US,en;q=0.9",75cl86tnsj9sk2m,18,"[""Black or African-American""]",Yes,Male,NA,Yes,663851,NA,6136,NA,"{""product_choice"":""A""}",choice,tc,binary,attraction,NA,microwave ovens,null,null,null,null,null,null,1,60,50,null,50,60,null,Warranty,Cooking power,NA,NA
NA,NA,NA,NA,NA,choice_trial_setup,html-keyboard-response,70,500790,0.0-4.0-0.33,281,1,2025-05-07T16:35:49Z,b60275e29fe2361ab97ac0ac217840d7,"Mozilla/5.0 (Macintosh; Intel Mac OS X 10_15_7) AppleWebKit/537.36 (KHTML, like Gecko) Chrome/134.0.0.0 Safari/537.36",Macintosh,Chrome,134.0.0.0,OS X,10_15_7,https://5puzkbbxv1.cognition.run/?sona_id=57587,"en-US,en;q=0.9",75cl86tnsj9sk2m,18,"[""Black or African-American""]",Yes,Male,NA,Yes,663851,NA,null,<p></p>,null,choice,dtc,trinary,repulsion_A,2,washing machines,null,null,null,null,null,null,1,NA,NA,NA,NA,NA,NA,NA,NA,NA,NA
NA,NA,NA,NA,NA,choice_trial,survey-html-form,71,505374,0.0-4.0-1.33,281,1,2025-05-07T16:35:49Z,b60275e29fe2361ab97ac0ac217840d7,"Mozilla/5.0 (Macintosh; Intel Mac OS X 10_15_7) AppleWebKit/537.36 (KHTML, like Gecko) Chrome/134.0.0.0 Safari/537.36",Macintosh,Chrome,134.0.0.0,OS X,10_15_7,https://5puzkbbxv1.cognition.run/?sona_id=57587,"en-US,en;q=0.9",75cl86tnsj9sk2m,18,"[""Black or African-American""]",Yes,Male,NA,Yes,663851,NA,4582,NA,"{""product_choice"":""C""}",choice,dtc,trinary,repulsion_A,2,washing machines,null,null,null,null,null,null,1,30,40,20,100,90,100,Average lifespan,Energy savings,NA,NA
NA,NA,NA,NA,NA,choice_trial_setup,html-keyboard-response,72,505677,0.0-4.0-0.34,281,1,2025-05-07T16:35:49Z,b60275e29fe2361ab97ac0ac217840d7,"Mozilla/5.0 (Macintosh; Intel Mac OS X 10_15_7) AppleWebKit/537.36 (KHTML, like Gecko) Chrome/134.0.0.0 Safari/537.36",Macintosh,Chrome,134.0.0.0,OS X,10_15_7,https://5puzkbbxv1.cognition.run/?sona_id=57587,"en-US,en;q=0.9",75cl86tnsj9sk2m,18,"[""Black or African-American""]",Yes,Male,NA,Yes,663851,NA,null,<p></p>,null,choice,ct,binary,attraction,NA,laptops,null,null,null,null,null,null,2,NA,NA,NA,NA,NA,NA,NA,NA,NA,NA
NA,NA,NA,NA,NA,choice_trial,survey-html-form,73,511844,0.0-4.0-1.34,281,1,2025-05-07T16:35:49Z,b60275e29fe2361ab97ac0ac217840d7,"Mozilla/5.0 (Macintosh; Intel Mac OS X 10_15_7) AppleWebKit/537.36 (KHTML, like Gecko) Chrome/134.0.0.0 Safari/537.36",Macintosh,Chrome,134.0.0.0,OS X,10_15_7,https://5puzkbbxv1.cognition.run/?sona_id=57587,"en-US,en;q=0.9",75cl86tnsj9sk2m,18,"[""Black or African-American""]",Yes,Male,NA,Yes,663851,NA,6165,NA,"{""product_choice"":""B""}",choice,ct,binary,attraction,NA,laptops,null,null,null,null,null,null,2,60,50,null,50,60,null,Processing speed,Memory (RAM),NA,NA
NA,NA,NA,NA,NA,choice_trial_setup,html-keyboard-response,74,512148,0.0-4.0-0.35,281,1,2025-05-07T16:35:49Z,b60275e29fe2361ab97ac0ac217840d7,"Mozilla/5.0 (Macintosh; Intel Mac OS X 10_15_7) AppleWebKit/537.36 (KHTML, like Gecko) Chrome/134.0.0.0 Safari/537.36",Macintosh,Chrome,134.0.0.0,OS X,10_15_7,https://5puzkbbxv1.cognition.run/?sona_id=57587,"en-US,en;q=0.9",75cl86tnsj9sk2m,18,"[""Black or African-American""]",Yes,Male,NA,Yes,663851,NA,null,<p></p>,null,choice,dct,trinary,repulsion_A,1,microwave ovens,null,null,null,null,null,null,2,NA,NA,NA,NA,NA,NA,NA,NA,NA,NA
NA,NA,NA,NA,NA,choice_trial,survey-html-form,75,520495,0.0-4.0-1.35,281,1,2025-05-07T16:35:49Z,b60275e29fe2361ab97ac0ac217840d7,"Mozilla/5.0 (Macintosh; Intel Mac OS X 10_15_7) AppleWebKit/537.36 (KHTML, like Gecko) Chrome/134.0.0.0 Safari/537.36",Macintosh,Chrome,134.0.0.0,OS X,10_15_7,https://5puzkbbxv1.cognition.run/?sona_id=57587,"en-US,en;q=0.9",75cl86tnsj9sk2m,18,"[""Black or African-American""]",Yes,Male,NA,Yes,663851,NA,8343,NA,"{""product_choice"":""B""}",choice,dct,trinary,repulsion_A,1,microwave ovens,null,null,null,null,null,null,2,100,90,100,30,40,20,Warranty,Cooking power,NA,NA
NA,NA,NA,NA,NA,choice_trial_setup,html-keyboard-response,76,520798,0.0-4.0-0.36,281,1,2025-05-07T16:35:49Z,b60275e29fe2361ab97ac0ac217840d7,"Mozilla/5.0 (Macintosh; Intel Mac OS X 10_15_7) AppleWebKit/537.36 (KHTML, like Gecko) Chrome/134.0.0.0 Safari/537.36",Macintosh,Chrome,134.0.0.0,OS X,10_15_7,https://5puzkbbxv1.cognition.run/?sona_id=57587,"en-US,en;q=0.9",75cl86tnsj9sk2m,18,"[""Black or African-American""]",Yes,Male,NA,Yes,663851,NA,null,<p></p>,null,choice,tc,binary,repulsion,1,laptops,null,null,null,null,null,null,2,NA,NA,NA,NA,NA,NA,NA,NA,NA,NA
NA,NA,NA,NA,NA,choice_trial,survey-html-form,77,524529,0.0-4.0-1.36,281,1,2025-05-07T16:35:49Z,b60275e29fe2361ab97ac0ac217840d7,"Mozilla/5.0 (Macintosh; Intel Mac OS X 10_15_7) AppleWebKit/537.36 (KHTML, like Gecko) Chrome/134.0.0.0 Safari/537.36",Macintosh,Chrome,134.0.0.0,OS X,10_15_7,https://5puzkbbxv1.cognition.run/?sona_id=57587,"en-US,en;q=0.9",75cl86tnsj9sk2m,18,"[""Black or African-American""]",Yes,Male,NA,Yes,663851,NA,3729,NA,"{""product_choice"":""B""}",choice,tc,binary,repulsion,1,laptops,null,null,null,null,null,null,2,100,90,null,30,40,null,Processing speed,Memory (RAM),NA,NA
NA,NA,NA,NA,NA,choice_trial_setup,html-keyboard-response,78,524832,0.0-4.0-0.37,281,1,2025-05-07T16:35:49Z,b60275e29fe2361ab97ac0ac217840d7,"Mozilla/5.0 (Macintosh; Intel Mac OS X 10_15_7) AppleWebKit/537.36 (KHTML, like Gecko) Chrome/134.0.0.0 Safari/537.36",Macintosh,Chrome,134.0.0.0,OS X,10_15_7,https://5puzkbbxv1.cognition.run/?sona_id=57587,"en-US,en;q=0.9",75cl86tnsj9sk2m,18,"[""Black or African-American""]",Yes,Male,NA,Yes,663851,NA,null,<p></p>,null,choice,tdc,trinary,attraction,2,microwave ovens,null,null,null,null,null,null,1,NA,NA,NA,NA,NA,NA,NA,NA,NA,NA
NA,NA,NA,NA,NA,choice_trial,survey-html-form,79,532290,0.0-4.0-1.37,281,1,2025-05-07T16:35:49Z,b60275e29fe2361ab97ac0ac217840d7,"Mozilla/5.0 (Macintosh; Intel Mac OS X 10_15_7) AppleWebKit/537.36 (KHTML, like Gecko) Chrome/134.0.0.0 Safari/537.36",Macintosh,Chrome,134.0.0.0,OS X,10_15_7,https://5puzkbbxv1.cognition.run/?sona_id=57587,"en-US,en;q=0.9",75cl86tnsj9sk2m,18,"[""Black or African-American""]",Yes,Male,NA,Yes,663851,NA,7456,NA,"{""product_choice"":""A""}",choice,tdc,trinary,attraction,2,microwave ovens,null,null,null,null,null,null,1,50,60,40,60,50,60,Warranty,Cooking power,NA,NA
NA,NA,NA,NA,NA,choice_trial_setup,html-keyboard-response,80,532595,0.0-4.0-0.38,281,1,2025-05-07T16:35:49Z,b60275e29fe2361ab97ac0ac217840d7,"Mozilla/5.0 (Macintosh; Intel Mac OS X 10_15_7) AppleWebKit/537.36 (KHTML, like Gecko) Chrome/134.0.0.0 Safari/537.36",Macintosh,Chrome,134.0.0.0,OS X,10_15_7,https://5puzkbbxv1.cognition.run/?sona_id=57587,"en-US,en;q=0.9",75cl86tnsj9sk2m,18,"[""Black or African-American""]",Yes,Male,NA,Yes,663851,NA,null,<p></p>,null,choice,tdc,trinary,attraction,1,laptops,null,null,null,null,null,null,2,NA,NA,NA,NA,NA,NA,NA,NA,NA,NA
NA,NA,NA,NA,NA,choice_trial,survey-html-form,81,545929,0.0-4.0-1.38,281,1,2025-05-07T16:35:49Z,b60275e29fe2361ab97ac0ac217840d7,"Mozilla/5.0 (Macintosh; Intel Mac OS X 10_15_7) AppleWebKit/537.36 (KHTML, like Gecko) Chrome/134.0.0.0 Safari/537.36",Macintosh,Chrome,134.0.0.0,OS X,10_15_7,https://5puzkbbxv1.cognition.run/?sona_id=57587,"en-US,en;q=0.9",75cl86tnsj9sk2m,18,"[""Black or African-American""]",Yes,Male,NA,Yes,663851,NA,13332,NA,"{""product_choice"":""A""}",choice,tdc,trinary,attraction,1,laptops,null,null,null,null,null,null,2,60,50,60,50,60,40,Processing speed,Memory (RAM),NA,NA
NA,NA,NA,NA,NA,choice_trial_setup,html-keyboard-response,82,546233,0.0-4.0-0.39,281,1,2025-05-07T16:35:49Z,b60275e29fe2361ab97ac0ac217840d7,"Mozilla/5.0 (Macintosh; Intel Mac OS X 10_15_7) AppleWebKit/537.36 (KHTML, like Gecko) Chrome/134.0.0.0 Safari/537.36",Macintosh,Chrome,134.0.0.0,OS X,10_15_7,https://5puzkbbxv1.cognition.run/?sona_id=57587,"en-US,en;q=0.9",75cl86tnsj9sk2m,18,"[""Black or African-American""]",Yes,Male,NA,Yes,663851,NA,null,<p></p>,null,choice,dct,trinary,repulsion_B,1,laptops,null,null,null,null,null,null,2,NA,NA,NA,NA,NA,NA,NA,NA,NA,NA
NA,NA,NA,NA,NA,choice_trial,survey-html-form,83,551199,0.0-4.0-1.39,281,1,2025-05-07T16:35:49Z,b60275e29fe2361ab97ac0ac217840d7,"Mozilla/5.0 (Macintosh; Intel Mac OS X 10_15_7) AppleWebKit/537.36 (KHTML, like Gecko) Chrome/134.0.0.0 Safari/537.36",Macintosh,Chrome,134.0.0.0,OS X,10_15_7,https://5puzkbbxv1.cognition.run/?sona_id=57587,"en-US,en;q=0.9",75cl86tnsj9sk2m,18,"[""Black or African-American""]",Yes,Male,NA,Yes,663851,NA,4963,NA,"{""product_choice"":""C""}",choice,dct,trinary,repulsion_B,1,laptops,null,null,null,null,null,null,2,90,100,80,40,30,40,Processing speed,Memory (RAM),NA,NA
NA,NA,NA,NA,NA,choice_trial_setup,html-keyboard-response,84,551503,0.0-4.0-0.40,281,1,2025-05-07T16:35:49Z,b60275e29fe2361ab97ac0ac217840d7,"Mozilla/5.0 (Macintosh; Intel Mac OS X 10_15_7) AppleWebKit/537.36 (KHTML, like Gecko) Chrome/134.0.0.0 Safari/537.36",Macintosh,Chrome,134.0.0.0,OS X,10_15_7,https://5puzkbbxv1.cognition.run/?sona_id=57587,"en-US,en;q=0.9",75cl86tnsj9sk2m,18,"[""Black or African-American""]",Yes,Male,NA,Yes,663851,NA,null,<p></p>,null,choice,tc,binary,repulsion,1,televisions,null,null,null,null,null,null,1,NA,NA,NA,NA,NA,NA,NA,NA,NA,NA
NA,NA,NA,NA,NA,choice_trial,survey-html-form,85,559351,0.0-4.0-1.40,281,1,2025-05-07T16:35:49Z,b60275e29fe2361ab97ac0ac217840d7,"Mozilla/5.0 (Macintosh; Intel Mac OS X 10_15_7) AppleWebKit/537.36 (KHTML, like Gecko) Chrome/134.0.0.0 Safari/537.36",Macintosh,Chrome,134.0.0.0,OS X,10_15_7,https://5puzkbbxv1.cognition.run/?sona_id=57587,"en-US,en;q=0.9",75cl86tnsj9sk2m,18,"[""Black or African-American""]",Yes,Male,NA,Yes,663851,NA,7846,NA,"{""product_choice"":""B""}",choice,tc,binary,repulsion,1,televisions,null,null,null,null,null,null,1,100,90,null,30,40,null,Screen size,Average lifespan,NA,NA
NA,NA,NA,NA,NA,choice_trial_setup,html-keyboard-response,86,559654,0.0-4.0-0.41,281,1,2025-05-07T16:35:49Z,b60275e29fe2361ab97ac0ac217840d7,"Mozilla/5.0 (Macintosh; Intel Mac OS X 10_15_7) AppleWebKit/537.36 (KHTML, like Gecko) Chrome/134.0.0.0 Safari/537.36",Macintosh,Chrome,134.0.0.0,OS X,10_15_7,https://5puzkbbxv1.cognition.run/?sona_id=57587,"en-US,en;q=0.9",75cl86tnsj9sk2m,18,"[""Black or African-American""]",Yes,Male,NA,Yes,663851,NA,null,<p></p>,null,choice,tc,binary,repulsion,2,washing machines,null,null,null,null,null,null,2,NA,NA,NA,NA,NA,NA,NA,NA,NA,NA
NA,NA,NA,NA,NA,choice_trial,survey-html-form,87,564304,0.0-4.0-1.41,281,1,2025-05-07T16:35:49Z,b60275e29fe2361ab97ac0ac217840d7,"Mozilla/5.0 (Macintosh; Intel Mac OS X 10_15_7) AppleWebKit/537.36 (KHTML, like Gecko) Chrome/134.0.0.0 Safari/537.36",Macintosh,Chrome,134.0.0.0,OS X,10_15_7,https://5puzkbbxv1.cognition.run/?sona_id=57587,"en-US,en;q=0.9",75cl86tnsj9sk2m,18,"[""Black or African-American""]",Yes,Male,NA,Yes,663851,NA,4645,NA,"{""product_choice"":""B""}",choice,tc,binary,repulsion,2,washing machines,null,null,null,null,null,null,2,30,40,null,100,90,null,Average lifespan,Energy savings,NA,NA
NA,NA,NA,NA,NA,choice_trial_setup,html-keyboard-response,88,564607,0.0-4.0-0.42,281,1,2025-05-07T16:35:49Z,b60275e29fe2361ab97ac0ac217840d7,"Mozilla/5.0 (Macintosh; Intel Mac OS X 10_15_7) AppleWebKit/537.36 (KHTML, like Gecko) Chrome/134.0.0.0 Safari/537.36",Macintosh,Chrome,134.0.0.0,OS X,10_15_7,https://5puzkbbxv1.cognition.run/?sona_id=57587,"en-US,en;q=0.9",75cl86tnsj9sk2m,18,"[""Black or African-American""]",Yes,Male,NA,Yes,663851,NA,null,<p></p>,null,choice,ct,binary,repulsion,2,laptops,null,null,null,null,null,null,2,NA,NA,NA,NA,NA,NA,NA,NA,NA,NA
NA,NA,NA,NA,NA,choice_trial,survey-html-form,89,567341,0.0-4.0-1.42,281,1,2025-05-07T16:35:49Z,b60275e29fe2361ab97ac0ac217840d7,"Mozilla/5.0 (Macintosh; Intel Mac OS X 10_15_7) AppleWebKit/537.36 (KHTML, like Gecko) Chrome/134.0.0.0 Safari/537.36",Macintosh,Chrome,134.0.0.0,OS X,10_15_7,https://5puzkbbxv1.cognition.run/?sona_id=57587,"en-US,en;q=0.9",75cl86tnsj9sk2m,18,"[""Black or African-American""]",Yes,Male,NA,Yes,663851,NA,2730,NA,"{""product_choice"":""A""}",choice,ct,binary,repulsion,2,laptops,null,null,null,null,null,null,2,30,40,null,100,90,null,Processing speed,Memory (RAM),NA,NA
NA,NA,NA,NA,NA,choice_trial_setup,html-keyboard-response,90,567646,0.0-4.0-0.43,281,1,2025-05-07T16:35:49Z,b60275e29fe2361ab97ac0ac217840d7,"Mozilla/5.0 (Macintosh; Intel Mac OS X 10_15_7) AppleWebKit/537.36 (KHTML, like Gecko) Chrome/134.0.0.0 Safari/537.36",Macintosh,Chrome,134.0.0.0,OS X,10_15_7,https://5puzkbbxv1.cognition.run/?sona_id=57587,"en-US,en;q=0.9",75cl86tnsj9sk2m,18,"[""Black or African-American""]",Yes,Male,NA,Yes,663851,NA,null,<p></p>,null,choice,bw,binary,catch,null,laptops,80,50,25,30,null,null,2,NA,NA,NA,NA,NA,NA,NA,NA,NA,NA
NA,NA,NA,NA,NA,choice_trial,survey-html-form,91,572129,0.0-4.0-1.43,281,1,2025-05-07T16:35:49Z,b60275e29fe2361ab97ac0ac217840d7,"Mozilla/5.0 (Macintosh; Intel Mac OS X 10_15_7) AppleWebKit/537.36 (KHTML, like Gecko) Chrome/134.0.0.0 Safari/537.36",Macintosh,Chrome,134.0.0.0,OS X,10_15_7,https://5puzkbbxv1.cognition.run/?sona_id=57587,"en-US,en;q=0.9",75cl86tnsj9sk2m,18,"[""Black or African-American""]",Yes,Male,NA,Yes,663851,NA,4479,NA,"{""product_choice"":""A""}",choice,bw,binary,catch,null,laptops,80,50,25,30,null,null,2,null,null,null,null,null,null,Processing speed,Memory (RAM),NA,NA
NA,NA,NA,NA,NA,post_trials_message,html-button-response,92,574366,0.0-5.0,281,1,2025-05-07T16:35:49Z,b60275e29fe2361ab97ac0ac217840d7,"Mozilla/5.0 (Macintosh; Intel Mac OS X 10_15_7) AppleWebKit/537.36 (KHTML, like Gecko) Chrome/134.0.0.0 Safari/537.36",Macintosh,Chrome,134.0.0.0,OS X,10_15_7,https://5puzkbbxv1.cognition.run/?sona_id=57587,"en-US,en;q=0.9",75cl86tnsj9sk2m,18,"[""Black or African-American""]",Yes,Male,NA,Yes,663851,NA,2234,<p> <b>Thank you for your patience!</b></p><p>  The study will be done after completing a brief form. </p>,0,NA,NA,NA,NA,NA,NA,NA,NA,NA,NA,NA,NA,NA,NA,NA,NA,NA,NA,NA,NA,NA,NA,NA
NA,NA,NA,NA,NA,survey_message,survey-text,93,605636,0.0-6.0,281,1,2025-05-07T16:35:49Z,b60275e29fe2361ab97ac0ac217840d7,"Mozilla/5.0 (Macintosh; Intel Mac OS X 10_15_7) AppleWebKit/537.36 (KHTML, like Gecko) Chrome/134.0.0.0 Safari/537.36",Macintosh,Chrome,134.0.0.0,OS X,10_15_7,https://5puzkbbxv1.cognition.run/?sona_id=57587,"en-US,en;q=0.9",75cl86tnsj9sk2m,18,"[""Black or African-American""]",Yes,Male,NA,Yes,663851,NA,31266,NA,"{""Q0"":""which numbers had the less difference between them""}",NA,NA,NA,NA,NA,NA,NA,NA,NA,NA,NA,NA,NA,NA,NA,NA,NA,NA,NA,NA,NA,which numbers had the less difference between them,NA
NA,NA,NA,NA,NA,demo_age,survey-text,94,608659,0.0-7.0,281,1,2025-05-07T16:35:49Z,b60275e29fe2361ab97ac0ac217840d7,"Mozilla/5.0 (Macintosh; Intel Mac OS X 10_15_7) AppleWebKit/537.36 (KHTML, like Gecko) Chrome/134.0.0.0 Safari/537.36",Macintosh,Chrome,134.0.0.0,OS X,10_15_7,https://5puzkbbxv1.cognition.run/?sona_id=57587,"en-US,en;q=0.9",75cl86tnsj9sk2m,18,"[""Black or African-American""]",Yes,Male,NA,Yes,663851,NA,3019,NA,"{""Q0"":""18""}",NA,NA,NA,NA,NA,NA,NA,NA,NA,NA,NA,NA,NA,NA,NA,NA,NA,NA,NA,NA,NA,NA,NA
NA,NA,NA,NA,NA,demo_race,survey-multi-select,95,611433,0.0-8.0,281,1,2025-05-07T16:35:49Z,b60275e29fe2361ab97ac0ac217840d7,"Mozilla/5.0 (Macintosh; Intel Mac OS X 10_15_7) AppleWebKit/537.36 (KHTML, like Gecko) Chrome/134.0.0.0 Safari/537.36",Macintosh,Chrome,134.0.0.0,OS X,10_15_7,https://5puzkbbxv1.cognition.run/?sona_id=57587,"en-US,en;q=0.9",75cl86tnsj9sk2m,18,"[""Black or African-American""]",Yes,Male,NA,Yes,663851,NA,2770,NA,"{""Q0"":[""Black or African-American""]}",NA,NA,NA,NA,NA,NA,NA,NA,NA,NA,NA,NA,NA,NA,NA,NA,NA,NA,NA,NA,NA,NA,[0]
NA,NA,NA,NA,NA,demo_ethnicity_gender,survey-multi-choice,96,616915,0.0-9.0,281,1,2025-05-07T16:35:49Z,b60275e29fe2361ab97ac0ac217840d7,"Mozilla/5.0 (Macintosh; Intel Mac OS X 10_15_7) AppleWebKit/537.36 (KHTML, like Gecko) Chrome/134.0.0.0 Safari/537.36",Macintosh,Chrome,134.0.0.0,OS X,10_15_7,https://5puzkbbxv1.cognition.run/?sona_id=57587,"en-US,en;q=0.9",75cl86tnsj9sk2m,18,"[""Black or African-American""]",Yes,Male,NA,Yes,663851,NA,5479,NA,"{""Q0"":""Yes"",""Q1"":""Male""}",NA,NA,NA,NA,NA,NA,NA,NA,NA,NA,NA,NA,NA,NA,NA,NA,NA,NA,NA,NA,NA,NA,"[0,1]"
NA,NA,NA,NA,NA,demo_countries,survey-text,97,625460,0.0-10.0,281,1,2025-05-07T16:35:49Z,b60275e29fe2361ab97ac0ac217840d7,"Mozilla/5.0 (Macintosh; Intel Mac OS X 10_15_7) AppleWebKit/537.36 (KHTML, like Gecko) Chrome/134.0.0.0 Safari/537.36",Macintosh,Chrome,134.0.0.0,OS X,10_15_7,https://5puzkbbxv1.cognition.run/?sona_id=57587,"en-US,en;q=0.9",75cl86tnsj9sk2m,18,"[""Black or African-American""]",Yes,Male,NA,Yes,663851,NA,8528,NA,"{""Q0"":""NA""}",NA,NA,NA,NA,NA,NA,NA,NA,NA,NA,NA,NA,NA,NA,NA,NA,NA,NA,NA,NA,NA,NA,NA
NA,NA,NA,NA,NA,demo_prev_study,survey-multi-choice,98,652516,0.0-11.0,281,1,2025-05-07T16:35:49Z,b60275e29fe2361ab97ac0ac217840d7,"Mozilla/5.0 (Macintosh; Intel Mac OS X 10_15_7) AppleWebKit/537.36 (KHTML, like Gecko) Chrome/134.0.0.0 Safari/537.36",Macintosh,Chrome,134.0.0.0,OS X,10_15_7,https://5puzkbbxv1.cognition.run/?sona_id=57587,"en-US,en;q=0.9",75cl86tnsj9sk2m,18,"[""Black or African-American""]",Yes,Male,NA,Yes,663851,NA,27053,NA,"{""Q0"":""Yes""}",NA,NA,NA,NA,NA,NA,NA,NA,NA,NA,NA,NA,NA,NA,NA,NA,NA,NA,NA,NA,NA,NA,[0]
NA,NA,NA,NA,NA,post_survey_message,html-keyboard-response,99,657075,0.0-12.0,281,1,2025-05-07T16:35:49Z,b60275e29fe2361ab97ac0ac217840d7,"Mozilla/5.0 (Macintosh; Intel Mac OS X 10_15_7) AppleWebKit/537.36 (KHTML, like Gecko) Chrome/134.0.0.0 Safari/537.36",Macintosh,Chrome,134.0.0.0,OS X,10_15_7,https://5puzkbbxv1.cognition.run/?sona_id=57587,"en-US,en;q=0.9",75cl86tnsj9sk2m,18,"[""Black or African-American""]",Yes,Male,NA,Yes,663851,NA,4554,NA,j,NA,NA,NA,NA,NA,NA,NA,NA,NA,NA,NA,NA,NA,NA,NA,NA,NA,NA,NA,NA,NA,NA,NA
NA,NA,NA,NA,NA,debrief,image-keyboard-response,100,663841,0.0-13.0,281,1,2025-05-07T16:35:49Z,b60275e29fe2361ab97ac0ac217840d7,"Mozilla/5.0 (Macintosh; Intel Mac OS X 10_15_7) AppleWebKit/537.36 (KHTML, like Gecko) Chrome/134.0.0.0 Safari/537.36",Macintosh,Chrome,134.0.0.0,OS X,10_15_7,https://5puzkbbxv1.cognition.run/?sona_id=57587,"en-US,en;q=0.9",75cl86tnsj9sk2m,18,"[""Black or African-American""]",Yes,Male,NA,Yes,663851,NA,6758,Judg_choice_debrief.png,p,NA,NA,NA,NA,NA,NA,NA,NA,NA,NA,NA,NA,NA,NA,NA,NA,NA,NA,NA,NA,NA,NA,NA
