success,timeout,failed_images,failed_audio,failed_video,screen_id,trial_type,trial_index,time_elapsed,internal_node_id,run_id,condition,recorded_at,source_code_version,user_agent,device,browser,browser_version,platform,platform_version,referer,accept_language,ppt_id,age,race,ethnicity,gender,other_countries,prev_study,exp_duration,view_history,rt,stimulus,response,phase,order,set,effect,t_high,category,d1_best,d2_best,d1_worst1,d2_worst1,d1_worst2,d2_worst2,first_dim,d1_t,d1_c,d1_d,d2_t,d2_c,d2_d,d1_name,d2_name,strategy_response,question_order
TRUE,FALSE,[],[],[],img preload,preload,0,189,0.0-0.0,282,1,2025-05-07T16:52:18Z,b60275e29fe2361ab97ac0ac217840d7,"Mozilla/5.0 (Windows NT 10.0; Win64; x64) AppleWebKit/537.36 (KHTML, like Gecko) Chrome/136.0.0.0 Safari/537.36",WebKit,Chrome,136.0.0.0,Windows,10,https://5puzkbbxv1.cognition.run/?sona_id=55895,"en-US,en;q=0.9",yh863epbaadjvvk,18,"[""White""]",No,Female,NA,Yes,665706.4000000004,NA,NA,NA,NA,NA,NA,NA,NA,NA,NA,NA,NA,NA,NA,NA,NA,NA,NA,NA,NA,NA,NA,NA,NA,NA,NA,NA
NA,NA,NA,NA,NA,computer_message,instructions,1,5553,0.0-1.0,282,1,2025-05-07T16:52:18Z,b60275e29fe2361ab97ac0ac217840d7,"Mozilla/5.0 (Windows NT 10.0; Win64; x64) AppleWebKit/537.36 (KHTML, like Gecko) Chrome/136.0.0.0 Safari/537.36",WebKit,Chrome,136.0.0.0,Windows,10,https://5puzkbbxv1.cognition.run/?sona_id=55895,"en-US,en;q=0.9",yh863epbaadjvvk,18,"[""White""]",No,Female,NA,Yes,665706.4000000004,"[{""page_index"":0,""viewing_time"":5360}]",5360,NA,NA,NA,NA,NA,NA,NA,NA,NA,NA,NA,NA,NA,NA,NA,NA,NA,NA,NA,NA,NA,NA,NA,NA,NA
TRUE,NA,NA,NA,NA,NA,fullscreen,2,10715,0.0-2.0,282,1,2025-05-07T16:52:18Z,b60275e29fe2361ab97ac0ac217840d7,"Mozilla/5.0 (Windows NT 10.0; Win64; x64) AppleWebKit/537.36 (KHTML, like Gecko) Chrome/136.0.0.0 Safari/537.36",WebKit,Chrome,136.0.0.0,Windows,10,https://5puzkbbxv1.cognition.run/?sona_id=55895,"en-US,en;q=0.9",yh863epbaadjvvk,18,"[""White""]",No,Female,NA,Yes,665706.4000000004,NA,4155,NA,NA,NA,NA,NA,NA,NA,NA,NA,NA,NA,NA,NA,NA,NA,NA,NA,NA,NA,NA,NA,NA,NA,NA,NA
NA,NA,NA,NA,NA,choice_instructions,instructions,3,65276,0.0-3.0,282,1,2025-05-07T16:52:18Z,b60275e29fe2361ab97ac0ac217840d7,"Mozilla/5.0 (Windows NT 10.0; Win64; x64) AppleWebKit/537.36 (KHTML, like Gecko) Chrome/136.0.0.0 Safari/537.36",WebKit,Chrome,136.0.0.0,Windows,10,https://5puzkbbxv1.cognition.run/?sona_id=55895,"en-US,en;q=0.9",yh863epbaadjvvk,18,"[""White""]",No,Female,NA,Yes,665706.4000000004,"[{""page_index"":0,""viewing_time"":1668},{""page_index"":1,""viewing_time"":5048},{""page_index"":2,""viewing_time"":3829},{""page_index"":3,""viewing_time"":7022},{""page_index"":4,""viewing_time"":4372},{""page_index"":5,""viewing_time"":24536},{""page_index"":6,""viewing_time"":8086}]",54560,NA,NA,NA,NA,NA,NA,NA,NA,NA,NA,NA,NA,NA,NA,NA,NA,NA,NA,NA,NA,NA,NA,NA,NA,NA
NA,NA,NA,NA,NA,choice_trial_setup,html-keyboard-response,4,65579,0.0-4.0-0.0,282,1,2025-05-07T16:52:18Z,b60275e29fe2361ab97ac0ac217840d7,"Mozilla/5.0 (Windows NT 10.0; Win64; x64) AppleWebKit/537.36 (KHTML, like Gecko) Chrome/136.0.0.0 Safari/537.36",WebKit,Chrome,136.0.0.0,Windows,10,https://5puzkbbxv1.cognition.run/?sona_id=55895,"en-US,en;q=0.9",yh863epbaadjvvk,18,"[""White""]",No,Female,NA,Yes,665706.4000000004,NA,null,<p></p>,null,choice,wb,binary,catch,null,laptops,65,90,5,50,null,null,2,NA,NA,NA,NA,NA,NA,NA,NA,NA,NA
NA,NA,NA,NA,NA,choice_trial,survey-html-form,5,74408,0.0-4.0-1.0,282,1,2025-05-07T16:52:18Z,b60275e29fe2361ab97ac0ac217840d7,"Mozilla/5.0 (Windows NT 10.0; Win64; x64) AppleWebKit/537.36 (KHTML, like Gecko) Chrome/136.0.0.0 Safari/537.36",WebKit,Chrome,136.0.0.0,Windows,10,https://5puzkbbxv1.cognition.run/?sona_id=55895,"en-US,en;q=0.9",yh863epbaadjvvk,18,"[""White""]",No,Female,NA,Yes,665706.4000000004,NA,8823,NA,"{""product_choice"":""B""}",choice,wb,binary,catch,null,laptops,65,90,5,50,null,null,2,null,null,null,null,null,null,Processing speed,Memory (RAM),NA,NA
NA,NA,NA,NA,NA,choice_trial_setup,html-keyboard-response,6,74711,0.0-4.0-0.1,282,1,2025-05-07T16:52:18Z,b60275e29fe2361ab97ac0ac217840d7,"Mozilla/5.0 (Windows NT 10.0; Win64; x64) AppleWebKit/537.36 (KHTML, like Gecko) Chrome/136.0.0.0 Safari/537.36",WebKit,Chrome,136.0.0.0,Windows,10,https://5puzkbbxv1.cognition.run/?sona_id=55895,"en-US,en;q=0.9",yh863epbaadjvvk,18,"[""White""]",No,Female,NA,Yes,665706.4000000004,NA,null,<p></p>,null,choice,tdc,trinary,repulsion_A,2,washing machines,null,null,null,null,null,null,1,NA,NA,NA,NA,NA,NA,NA,NA,NA,NA
NA,NA,NA,NA,NA,choice_trial,survey-html-form,7,86021,0.0-4.0-1.1,282,1,2025-05-07T16:52:18Z,b60275e29fe2361ab97ac0ac217840d7,"Mozilla/5.0 (Windows NT 10.0; Win64; x64) AppleWebKit/537.36 (KHTML, like Gecko) Chrome/136.0.0.0 Safari/537.36",WebKit,Chrome,136.0.0.0,Windows,10,https://5puzkbbxv1.cognition.run/?sona_id=55895,"en-US,en;q=0.9",yh863epbaadjvvk,18,"[""White""]",No,Female,NA,Yes,665706.4000000004,NA,11307,NA,"{""product_choice"":""C""}",choice,tdc,trinary,repulsion_A,2,washing machines,null,null,null,null,null,null,1,30,40,20,100,90,100,Average lifespan,Energy savings,NA,NA
NA,NA,NA,NA,NA,choice_trial_setup,html-keyboard-response,8,86323,0.0-4.0-0.2,282,1,2025-05-07T16:52:18Z,b60275e29fe2361ab97ac0ac217840d7,"Mozilla/5.0 (Windows NT 10.0; Win64; x64) AppleWebKit/537.36 (KHTML, like Gecko) Chrome/136.0.0.0 Safari/537.36",WebKit,Chrome,136.0.0.0,Windows,10,https://5puzkbbxv1.cognition.run/?sona_id=55895,"en-US,en;q=0.9",yh863epbaadjvvk,18,"[""White""]",No,Female,NA,Yes,665706.4000000004,NA,null,<p></p>,null,choice,tcd,trinary,repulsion_A,1,microwave ovens,null,null,null,null,null,null,1,NA,NA,NA,NA,NA,NA,NA,NA,NA,NA
NA,NA,NA,NA,NA,choice_trial,survey-html-form,9,94628,0.0-4.0-1.2,282,1,2025-05-07T16:52:18Z,b60275e29fe2361ab97ac0ac217840d7,"Mozilla/5.0 (Windows NT 10.0; Win64; x64) AppleWebKit/537.36 (KHTML, like Gecko) Chrome/136.0.0.0 Safari/537.36",WebKit,Chrome,136.0.0.0,Windows,10,https://5puzkbbxv1.cognition.run/?sona_id=55895,"en-US,en;q=0.9",yh863epbaadjvvk,18,"[""White""]",No,Female,NA,Yes,665706.4000000004,NA,8302,NA,"{""product_choice"":""B""}",choice,tcd,trinary,repulsion_A,1,microwave ovens,null,null,null,null,null,null,1,100,90,100,30,40,20,Warranty,Cooking power,NA,NA
NA,NA,NA,NA,NA,choice_trial_setup,html-keyboard-response,10,94930,0.0-4.0-0.3,282,1,2025-05-07T16:52:18Z,b60275e29fe2361ab97ac0ac217840d7,"Mozilla/5.0 (Windows NT 10.0; Win64; x64) AppleWebKit/537.36 (KHTML, like Gecko) Chrome/136.0.0.0 Safari/537.36",WebKit,Chrome,136.0.0.0,Windows,10,https://5puzkbbxv1.cognition.run/?sona_id=55895,"en-US,en;q=0.9",yh863epbaadjvvk,18,"[""White""]",No,Female,NA,Yes,665706.4000000004,NA,null,<p></p>,null,choice,tdc,trinary,repulsion_B,1,televisions,null,null,null,null,null,null,2,NA,NA,NA,NA,NA,NA,NA,NA,NA,NA
NA,NA,NA,NA,NA,choice_trial,survey-html-form,11,102768,0.0-4.0-1.3,282,1,2025-05-07T16:52:18Z,b60275e29fe2361ab97ac0ac217840d7,"Mozilla/5.0 (Windows NT 10.0; Win64; x64) AppleWebKit/537.36 (KHTML, like Gecko) Chrome/136.0.0.0 Safari/537.36",WebKit,Chrome,136.0.0.0,Windows,10,https://5puzkbbxv1.cognition.run/?sona_id=55895,"en-US,en;q=0.9",yh863epbaadjvvk,18,"[""White""]",No,Female,NA,Yes,665706.4000000004,NA,7836,NA,"{""product_choice"":""A""}",choice,tdc,trinary,repulsion_B,1,televisions,null,null,null,null,null,null,2,90,100,80,40,30,40,Screen size,Average lifespan,NA,NA
NA,NA,NA,NA,NA,choice_trial_setup,html-keyboard-response,12,103070,0.0-4.0-0.4,282,1,2025-05-07T16:52:18Z,b60275e29fe2361ab97ac0ac217840d7,"Mozilla/5.0 (Windows NT 10.0; Win64; x64) AppleWebKit/537.36 (KHTML, like Gecko) Chrome/136.0.0.0 Safari/537.36",WebKit,Chrome,136.0.0.0,Windows,10,https://5puzkbbxv1.cognition.run/?sona_id=55895,"en-US,en;q=0.9",yh863epbaadjvvk,18,"[""White""]",No,Female,NA,Yes,665706.4000000004,NA,null,<p></p>,null,choice,cdt,trinary,repulsion_A,1,laptops,null,null,null,null,null,null,1,NA,NA,NA,NA,NA,NA,NA,NA,NA,NA
NA,NA,NA,NA,NA,choice_trial,survey-html-form,13,113200,0.0-4.0-1.4,282,1,2025-05-07T16:52:18Z,b60275e29fe2361ab97ac0ac217840d7,"Mozilla/5.0 (Windows NT 10.0; Win64; x64) AppleWebKit/537.36 (KHTML, like Gecko) Chrome/136.0.0.0 Safari/537.36",WebKit,Chrome,136.0.0.0,Windows,10,https://5puzkbbxv1.cognition.run/?sona_id=55895,"en-US,en;q=0.9",yh863epbaadjvvk,18,"[""White""]",No,Female,NA,Yes,665706.4000000004,NA,10127,NA,"{""product_choice"":""A""}",choice,cdt,trinary,repulsion_A,1,laptops,null,null,null,null,null,null,1,100,90,100,30,40,20,Processing speed,Memory (RAM),NA,NA
NA,NA,NA,NA,NA,choice_trial_setup,html-keyboard-response,14,113502,0.0-4.0-0.5,282,1,2025-05-07T16:52:18Z,b60275e29fe2361ab97ac0ac217840d7,"Mozilla/5.0 (Windows NT 10.0; Win64; x64) AppleWebKit/537.36 (KHTML, like Gecko) Chrome/136.0.0.0 Safari/537.36",WebKit,Chrome,136.0.0.0,Windows,10,https://5puzkbbxv1.cognition.run/?sona_id=55895,"en-US,en;q=0.9",yh863epbaadjvvk,18,"[""White""]",No,Female,NA,Yes,665706.4000000004,NA,null,<p></p>,null,choice,ctd,trinary,repulsion_B,1,laptops,null,null,null,null,null,null,1,NA,NA,NA,NA,NA,NA,NA,NA,NA,NA
NA,NA,NA,NA,NA,choice_trial,survey-html-form,15,121624,0.0-4.0-1.5,282,1,2025-05-07T16:52:18Z,b60275e29fe2361ab97ac0ac217840d7,"Mozilla/5.0 (Windows NT 10.0; Win64; x64) AppleWebKit/537.36 (KHTML, like Gecko) Chrome/136.0.0.0 Safari/537.36",WebKit,Chrome,136.0.0.0,Windows,10,https://5puzkbbxv1.cognition.run/?sona_id=55895,"en-US,en;q=0.9",yh863epbaadjvvk,18,"[""White""]",No,Female,NA,Yes,665706.4000000004,NA,8119,NA,"{""product_choice"":""B""}",choice,ctd,trinary,repulsion_B,1,laptops,null,null,null,null,null,null,1,90,100,80,40,30,40,Processing speed,Memory (RAM),NA,NA
NA,NA,NA,NA,NA,choice_trial_setup,html-keyboard-response,16,121926,0.0-4.0-0.6,282,1,2025-05-07T16:52:18Z,b60275e29fe2361ab97ac0ac217840d7,"Mozilla/5.0 (Windows NT 10.0; Win64; x64) AppleWebKit/537.36 (KHTML, like Gecko) Chrome/136.0.0.0 Safari/537.36",WebKit,Chrome,136.0.0.0,Windows,10,https://5puzkbbxv1.cognition.run/?sona_id=55895,"en-US,en;q=0.9",yh863epbaadjvvk,18,"[""White""]",No,Female,NA,Yes,665706.4000000004,NA,null,<p></p>,null,choice,wb,binary,catch,null,televisions,80,65,10,50,null,null,2,NA,NA,NA,NA,NA,NA,NA,NA,NA,NA
NA,NA,NA,NA,NA,choice_trial,survey-html-form,17,128953,0.0-4.0-1.6,282,1,2025-05-07T16:52:18Z,b60275e29fe2361ab97ac0ac217840d7,"Mozilla/5.0 (Windows NT 10.0; Win64; x64) AppleWebKit/537.36 (KHTML, like Gecko) Chrome/136.0.0.0 Safari/537.36",WebKit,Chrome,136.0.0.0,Windows,10,https://5puzkbbxv1.cognition.run/?sona_id=55895,"en-US,en;q=0.9",yh863epbaadjvvk,18,"[""White""]",No,Female,NA,Yes,665706.4000000004,NA,7025,NA,"{""product_choice"":""B""}",choice,wb,binary,catch,null,televisions,80,65,10,50,null,null,2,null,null,null,null,null,null,Screen size,Average lifespan,NA,NA
NA,NA,NA,NA,NA,choice_trial_setup,html-keyboard-response,18,129256,0.0-4.0-0.7,282,1,2025-05-07T16:52:18Z,b60275e29fe2361ab97ac0ac217840d7,"Mozilla/5.0 (Windows NT 10.0; Win64; x64) AppleWebKit/537.36 (KHTML, like Gecko) Chrome/136.0.0.0 Safari/537.36",WebKit,Chrome,136.0.0.0,Windows,10,https://5puzkbbxv1.cognition.run/?sona_id=55895,"en-US,en;q=0.9",yh863epbaadjvvk,18,"[""White""]",No,Female,NA,Yes,665706.4000000004,NA,null,<p></p>,null,choice,wbw,trinary,catch,null,microwave ovens,90,65,30,10,35,50,2,NA,NA,NA,NA,NA,NA,NA,NA,NA,NA
NA,NA,NA,NA,NA,choice_trial,survey-html-form,19,153643,0.0-4.0-1.7,282,1,2025-05-07T16:52:18Z,b60275e29fe2361ab97ac0ac217840d7,"Mozilla/5.0 (Windows NT 10.0; Win64; x64) AppleWebKit/537.36 (KHTML, like Gecko) Chrome/136.0.0.0 Safari/537.36",WebKit,Chrome,136.0.0.0,Windows,10,https://5puzkbbxv1.cognition.run/?sona_id=55895,"en-US,en;q=0.9",yh863epbaadjvvk,18,"[""White""]",No,Female,NA,Yes,665706.4000000004,NA,24385,NA,"{""product_choice"":""B""}",choice,wbw,trinary,catch,null,microwave ovens,90,65,30,10,35,50,2,null,null,null,null,null,null,Warranty,Cooking power,NA,NA
NA,NA,NA,NA,NA,choice_trial_setup,html-keyboard-response,20,153946,0.0-4.0-0.8,282,1,2025-05-07T16:52:18Z,b60275e29fe2361ab97ac0ac217840d7,"Mozilla/5.0 (Windows NT 10.0; Win64; x64) AppleWebKit/537.36 (KHTML, like Gecko) Chrome/136.0.0.0 Safari/537.36",WebKit,Chrome,136.0.0.0,Windows,10,https://5puzkbbxv1.cognition.run/?sona_id=55895,"en-US,en;q=0.9",yh863epbaadjvvk,18,"[""White""]",No,Female,NA,Yes,665706.4000000004,NA,null,<p></p>,null,choice,ct,binary,repulsion,2,microwave ovens,null,null,null,null,null,null,2,NA,NA,NA,NA,NA,NA,NA,NA,NA,NA
NA,NA,NA,NA,NA,choice_trial,survey-html-form,21,162956,0.0-4.0-1.8,282,1,2025-05-07T16:52:18Z,b60275e29fe2361ab97ac0ac217840d7,"Mozilla/5.0 (Windows NT 10.0; Win64; x64) AppleWebKit/537.36 (KHTML, like Gecko) Chrome/136.0.0.0 Safari/537.36",WebKit,Chrome,136.0.0.0,Windows,10,https://5puzkbbxv1.cognition.run/?sona_id=55895,"en-US,en;q=0.9",yh863epbaadjvvk,18,"[""White""]",No,Female,NA,Yes,665706.4000000004,NA,9007,NA,"{""product_choice"":""B""}",choice,ct,binary,repulsion,2,microwave ovens,null,null,null,null,null,null,2,30,40,null,100,90,null,Warranty,Cooking power,NA,NA
NA,NA,NA,NA,NA,choice_trial_setup,html-keyboard-response,22,163258,0.0-4.0-0.9,282,1,2025-05-07T16:52:18Z,b60275e29fe2361ab97ac0ac217840d7,"Mozilla/5.0 (Windows NT 10.0; Win64; x64) AppleWebKit/537.36 (KHTML, like Gecko) Chrome/136.0.0.0 Safari/537.36",WebKit,Chrome,136.0.0.0,Windows,10,https://5puzkbbxv1.cognition.run/?sona_id=55895,"en-US,en;q=0.9",yh863epbaadjvvk,18,"[""White""]",No,Female,NA,Yes,665706.4000000004,NA,null,<p></p>,null,choice,wbw,trinary,catch,null,washing machines,90,95,5,25,15,20,2,NA,NA,NA,NA,NA,NA,NA,NA,NA,NA
NA,NA,NA,NA,NA,choice_trial,survey-html-form,23,178293,0.0-4.0-1.9,282,1,2025-05-07T16:52:18Z,b60275e29fe2361ab97ac0ac217840d7,"Mozilla/5.0 (Windows NT 10.0; Win64; x64) AppleWebKit/537.36 (KHTML, like Gecko) Chrome/136.0.0.0 Safari/537.36",WebKit,Chrome,136.0.0.0,Windows,10,https://5puzkbbxv1.cognition.run/?sona_id=55895,"en-US,en;q=0.9",yh863epbaadjvvk,18,"[""White""]",No,Female,NA,Yes,665706.4000000004,NA,15030,NA,"{""product_choice"":""B""}",choice,wbw,trinary,catch,null,washing machines,90,95,5,25,15,20,2,null,null,null,null,null,null,Average lifespan,Energy savings,NA,NA
NA,NA,NA,NA,NA,choice_trial_setup,html-keyboard-response,24,178596,0.0-4.0-0.10,282,1,2025-05-07T16:52:18Z,b60275e29fe2361ab97ac0ac217840d7,"Mozilla/5.0 (Windows NT 10.0; Win64; x64) AppleWebKit/537.36 (KHTML, like Gecko) Chrome/136.0.0.0 Safari/537.36",WebKit,Chrome,136.0.0.0,Windows,10,https://5puzkbbxv1.cognition.run/?sona_id=55895,"en-US,en;q=0.9",yh863epbaadjvvk,18,"[""White""]",No,Female,NA,Yes,665706.4000000004,NA,null,<p></p>,null,choice,ct,binary,attraction,NA,microwave ovens,null,null,null,null,null,null,1,NA,NA,NA,NA,NA,NA,NA,NA,NA,NA
NA,NA,NA,NA,NA,choice_trial,survey-html-form,25,183624,0.0-4.0-1.10,282,1,2025-05-07T16:52:18Z,b60275e29fe2361ab97ac0ac217840d7,"Mozilla/5.0 (Windows NT 10.0; Win64; x64) AppleWebKit/537.36 (KHTML, like Gecko) Chrome/136.0.0.0 Safari/537.36",WebKit,Chrome,136.0.0.0,Windows,10,https://5puzkbbxv1.cognition.run/?sona_id=55895,"en-US,en;q=0.9",yh863epbaadjvvk,18,"[""White""]",No,Female,NA,Yes,665706.4000000004,NA,5025,NA,"{""product_choice"":""A""}",choice,ct,binary,attraction,NA,microwave ovens,null,null,null,null,null,null,1,60,50,null,50,60,null,Warranty,Cooking power,NA,NA
NA,NA,NA,NA,NA,choice_trial_setup,html-keyboard-response,26,183926,0.0-4.0-0.11,282,1,2025-05-07T16:52:18Z,b60275e29fe2361ab97ac0ac217840d7,"Mozilla/5.0 (Windows NT 10.0; Win64; x64) AppleWebKit/537.36 (KHTML, like Gecko) Chrome/136.0.0.0 Safari/537.36",WebKit,Chrome,136.0.0.0,Windows,10,https://5puzkbbxv1.cognition.run/?sona_id=55895,"en-US,en;q=0.9",yh863epbaadjvvk,18,"[""White""]",No,Female,NA,Yes,665706.4000000004,NA,null,<p></p>,null,choice,dct,trinary,repulsion_A,2,laptops,null,null,null,null,null,null,1,NA,NA,NA,NA,NA,NA,NA,NA,NA,NA
NA,NA,NA,NA,NA,choice_trial,survey-html-form,27,190400,0.0-4.0-1.11,282,1,2025-05-07T16:52:18Z,b60275e29fe2361ab97ac0ac217840d7,"Mozilla/5.0 (Windows NT 10.0; Win64; x64) AppleWebKit/537.36 (KHTML, like Gecko) Chrome/136.0.0.0 Safari/537.36",WebKit,Chrome,136.0.0.0,Windows,10,https://5puzkbbxv1.cognition.run/?sona_id=55895,"en-US,en;q=0.9",yh863epbaadjvvk,18,"[""White""]",No,Female,NA,Yes,665706.4000000004,NA,6471,NA,"{""product_choice"":""B""}",choice,dct,trinary,repulsion_A,2,laptops,null,null,null,null,null,null,1,30,40,20,100,90,100,Processing speed,Memory (RAM),NA,NA
NA,NA,NA,NA,NA,choice_trial_setup,html-keyboard-response,28,190702,0.0-4.0-0.12,282,1,2025-05-07T16:52:18Z,b60275e29fe2361ab97ac0ac217840d7,"Mozilla/5.0 (Windows NT 10.0; Win64; x64) AppleWebKit/537.36 (KHTML, like Gecko) Chrome/136.0.0.0 Safari/537.36",WebKit,Chrome,136.0.0.0,Windows,10,https://5puzkbbxv1.cognition.run/?sona_id=55895,"en-US,en;q=0.9",yh863epbaadjvvk,18,"[""White""]",No,Female,NA,Yes,665706.4000000004,NA,null,<p></p>,null,choice,tc,binary,repulsion,2,televisions,null,null,null,null,null,null,1,NA,NA,NA,NA,NA,NA,NA,NA,NA,NA
NA,NA,NA,NA,NA,choice_trial,survey-html-form,29,197951,0.0-4.0-1.12,282,1,2025-05-07T16:52:18Z,b60275e29fe2361ab97ac0ac217840d7,"Mozilla/5.0 (Windows NT 10.0; Win64; x64) AppleWebKit/537.36 (KHTML, like Gecko) Chrome/136.0.0.0 Safari/537.36",WebKit,Chrome,136.0.0.0,Windows,10,https://5puzkbbxv1.cognition.run/?sona_id=55895,"en-US,en;q=0.9",yh863epbaadjvvk,18,"[""White""]",No,Female,NA,Yes,665706.4000000004,NA,7246,NA,"{""product_choice"":""B""}",choice,tc,binary,repulsion,2,televisions,null,null,null,null,null,null,1,30,40,null,100,90,null,Screen size,Average lifespan,NA,NA
NA,NA,NA,NA,NA,choice_trial_setup,html-keyboard-response,30,198254,0.0-4.0-0.13,282,1,2025-05-07T16:52:18Z,b60275e29fe2361ab97ac0ac217840d7,"Mozilla/5.0 (Windows NT 10.0; Win64; x64) AppleWebKit/537.36 (KHTML, like Gecko) Chrome/136.0.0.0 Safari/537.36",WebKit,Chrome,136.0.0.0,Windows,10,https://5puzkbbxv1.cognition.run/?sona_id=55895,"en-US,en;q=0.9",yh863epbaadjvvk,18,"[""White""]",No,Female,NA,Yes,665706.4000000004,NA,null,<p></p>,null,choice,wwb,trinary,catch,null,televisions,80,90,5,50,15,5,2,NA,NA,NA,NA,NA,NA,NA,NA,NA,NA
NA,NA,NA,NA,NA,choice_trial,survey-html-form,31,203764,0.0-4.0-1.13,282,1,2025-05-07T16:52:18Z,b60275e29fe2361ab97ac0ac217840d7,"Mozilla/5.0 (Windows NT 10.0; Win64; x64) AppleWebKit/537.36 (KHTML, like Gecko) Chrome/136.0.0.0 Safari/537.36",WebKit,Chrome,136.0.0.0,Windows,10,https://5puzkbbxv1.cognition.run/?sona_id=55895,"en-US,en;q=0.9",yh863epbaadjvvk,18,"[""White""]",No,Female,NA,Yes,665706.4000000004,NA,5507,NA,"{""product_choice"":""C""}",choice,wwb,trinary,catch,null,televisions,80,90,5,50,15,5,2,null,null,null,null,null,null,Screen size,Average lifespan,NA,NA
NA,NA,NA,NA,NA,choice_trial_setup,html-keyboard-response,32,204067,0.0-4.0-0.14,282,1,2025-05-07T16:52:18Z,b60275e29fe2361ab97ac0ac217840d7,"Mozilla/5.0 (Windows NT 10.0; Win64; x64) AppleWebKit/537.36 (KHTML, like Gecko) Chrome/136.0.0.0 Safari/537.36",WebKit,Chrome,136.0.0.0,Windows,10,https://5puzkbbxv1.cognition.run/?sona_id=55895,"en-US,en;q=0.9",yh863epbaadjvvk,18,"[""White""]",No,Female,NA,Yes,665706.4000000004,NA,null,<p></p>,null,choice,cdt,trinary,repulsion_B,2,laptops,null,null,null,null,null,null,1,NA,NA,NA,NA,NA,NA,NA,NA,NA,NA
NA,NA,NA,NA,NA,choice_trial,survey-html-form,33,217854,0.0-4.0-1.14,282,1,2025-05-07T16:52:18Z,b60275e29fe2361ab97ac0ac217840d7,"Mozilla/5.0 (Windows NT 10.0; Win64; x64) AppleWebKit/537.36 (KHTML, like Gecko) Chrome/136.0.0.0 Safari/537.36",WebKit,Chrome,136.0.0.0,Windows,10,https://5puzkbbxv1.cognition.run/?sona_id=55895,"en-US,en;q=0.9",yh863epbaadjvvk,18,"[""White""]",No,Female,NA,Yes,665706.4000000004,NA,13785,NA,"{""product_choice"":""C""}",choice,cdt,trinary,repulsion_B,2,laptops,null,null,null,null,null,null,1,40,30,40,90,100,80,Processing speed,Memory (RAM),NA,NA
NA,NA,NA,NA,NA,choice_trial_setup,html-keyboard-response,34,218157,0.0-4.0-0.15,282,1,2025-05-07T16:52:18Z,b60275e29fe2361ab97ac0ac217840d7,"Mozilla/5.0 (Windows NT 10.0; Win64; x64) AppleWebKit/537.36 (KHTML, like Gecko) Chrome/136.0.0.0 Safari/537.36",WebKit,Chrome,136.0.0.0,Windows,10,https://5puzkbbxv1.cognition.run/?sona_id=55895,"en-US,en;q=0.9",yh863epbaadjvvk,18,"[""White""]",No,Female,NA,Yes,665706.4000000004,NA,null,<p></p>,null,choice,bw,binary,catch,null,washing machines,90,90,25,5,null,null,2,NA,NA,NA,NA,NA,NA,NA,NA,NA,NA
NA,NA,NA,NA,NA,choice_trial,survey-html-form,35,225726,0.0-4.0-1.15,282,1,2025-05-07T16:52:18Z,b60275e29fe2361ab97ac0ac217840d7,"Mozilla/5.0 (Windows NT 10.0; Win64; x64) AppleWebKit/537.36 (KHTML, like Gecko) Chrome/136.0.0.0 Safari/537.36",WebKit,Chrome,136.0.0.0,Windows,10,https://5puzkbbxv1.cognition.run/?sona_id=55895,"en-US,en;q=0.9",yh863epbaadjvvk,18,"[""White""]",No,Female,NA,Yes,665706.4000000004,NA,7566,NA,"{""product_choice"":""A""}",choice,bw,binary,catch,null,washing machines,90,90,25,5,null,null,2,null,null,null,null,null,null,Average lifespan,Energy savings,NA,NA
NA,NA,NA,NA,NA,choice_trial_setup,html-keyboard-response,36,226032,0.0-4.0-0.16,282,1,2025-05-07T16:52:18Z,b60275e29fe2361ab97ac0ac217840d7,"Mozilla/5.0 (Windows NT 10.0; Win64; x64) AppleWebKit/537.36 (KHTML, like Gecko) Chrome/136.0.0.0 Safari/537.36",WebKit,Chrome,136.0.0.0,Windows,10,https://5puzkbbxv1.cognition.run/?sona_id=55895,"en-US,en;q=0.9",yh863epbaadjvvk,18,"[""White""]",No,Female,NA,Yes,665706.4000000004,NA,null,<p></p>,null,choice,bww,trinary,catch,null,laptops,65,95,35,10,25,5,1,NA,NA,NA,NA,NA,NA,NA,NA,NA,NA
NA,NA,NA,NA,NA,choice_trial,survey-html-form,37,230756,0.0-4.0-1.16,282,1,2025-05-07T16:52:18Z,b60275e29fe2361ab97ac0ac217840d7,"Mozilla/5.0 (Windows NT 10.0; Win64; x64) AppleWebKit/537.36 (KHTML, like Gecko) Chrome/136.0.0.0 Safari/537.36",WebKit,Chrome,136.0.0.0,Windows,10,https://5puzkbbxv1.cognition.run/?sona_id=55895,"en-US,en;q=0.9",yh863epbaadjvvk,18,"[""White""]",No,Female,NA,Yes,665706.4000000004,NA,4721,NA,"{""product_choice"":""A""}",choice,bww,trinary,catch,null,laptops,65,95,35,10,25,5,1,null,null,null,null,null,null,Processing speed,Memory (RAM),NA,NA
NA,NA,NA,NA,NA,choice_trial_setup,html-keyboard-response,38,231058,0.0-4.0-0.17,282,1,2025-05-07T16:52:18Z,b60275e29fe2361ab97ac0ac217840d7,"Mozilla/5.0 (Windows NT 10.0; Win64; x64) AppleWebKit/537.36 (KHTML, like Gecko) Chrome/136.0.0.0 Safari/537.36",WebKit,Chrome,136.0.0.0,Windows,10,https://5puzkbbxv1.cognition.run/?sona_id=55895,"en-US,en;q=0.9",yh863epbaadjvvk,18,"[""White""]",No,Female,NA,Yes,665706.4000000004,NA,null,<p></p>,null,choice,cdt,trinary,repulsion_B,1,washing machines,null,null,null,null,null,null,2,NA,NA,NA,NA,NA,NA,NA,NA,NA,NA
NA,NA,NA,NA,NA,choice_trial,survey-html-form,39,236565,0.0-4.0-1.17,282,1,2025-05-07T16:52:18Z,b60275e29fe2361ab97ac0ac217840d7,"Mozilla/5.0 (Windows NT 10.0; Win64; x64) AppleWebKit/537.36 (KHTML, like Gecko) Chrome/136.0.0.0 Safari/537.36",WebKit,Chrome,136.0.0.0,Windows,10,https://5puzkbbxv1.cognition.run/?sona_id=55895,"en-US,en;q=0.9",yh863epbaadjvvk,18,"[""White""]",No,Female,NA,Yes,665706.4000000004,NA,5503,NA,"{""product_choice"":""C""}",choice,cdt,trinary,repulsion_B,1,washing machines,null,null,null,null,null,null,2,90,100,80,40,30,40,Average lifespan,Energy savings,NA,NA
NA,NA,NA,NA,NA,choice_trial_setup,html-keyboard-response,40,236867,0.0-4.0-0.18,282,1,2025-05-07T16:52:18Z,b60275e29fe2361ab97ac0ac217840d7,"Mozilla/5.0 (Windows NT 10.0; Win64; x64) AppleWebKit/537.36 (KHTML, like Gecko) Chrome/136.0.0.0 Safari/537.36",WebKit,Chrome,136.0.0.0,Windows,10,https://5puzkbbxv1.cognition.run/?sona_id=55895,"en-US,en;q=0.9",yh863epbaadjvvk,18,"[""White""]",No,Female,NA,Yes,665706.4000000004,NA,null,<p></p>,null,choice,tcd,trinary,repulsion_B,1,microwave ovens,null,null,null,null,null,null,1,NA,NA,NA,NA,NA,NA,NA,NA,NA,NA
NA,NA,NA,NA,NA,choice_trial,survey-html-form,41,243150,0.0-4.0-1.18,282,1,2025-05-07T16:52:18Z,b60275e29fe2361ab97ac0ac217840d7,"Mozilla/5.0 (Windows NT 10.0; Win64; x64) AppleWebKit/537.36 (KHTML, like Gecko) Chrome/136.0.0.0 Safari/537.36",WebKit,Chrome,136.0.0.0,Windows,10,https://5puzkbbxv1.cognition.run/?sona_id=55895,"en-US,en;q=0.9",yh863epbaadjvvk,18,"[""White""]",No,Female,NA,Yes,665706.4000000004,NA,6279,NA,"{""product_choice"":""A""}",choice,tcd,trinary,repulsion_B,1,microwave ovens,null,null,null,null,null,null,1,90,100,80,40,30,40,Warranty,Cooking power,NA,NA
NA,NA,NA,NA,NA,choice_trial_setup,html-keyboard-response,42,243451,0.0-4.0-0.19,282,1,2025-05-07T16:52:18Z,b60275e29fe2361ab97ac0ac217840d7,"Mozilla/5.0 (Windows NT 10.0; Win64; x64) AppleWebKit/537.36 (KHTML, like Gecko) Chrome/136.0.0.0 Safari/537.36",WebKit,Chrome,136.0.0.0,Windows,10,https://5puzkbbxv1.cognition.run/?sona_id=55895,"en-US,en;q=0.9",yh863epbaadjvvk,18,"[""White""]",No,Female,NA,Yes,665706.4000000004,NA,null,<p></p>,null,choice,ct,binary,attraction,NA,laptops,null,null,null,null,null,null,2,NA,NA,NA,NA,NA,NA,NA,NA,NA,NA
NA,NA,NA,NA,NA,choice_trial,survey-html-form,43,250738,0.0-4.0-1.19,282,1,2025-05-07T16:52:18Z,b60275e29fe2361ab97ac0ac217840d7,"Mozilla/5.0 (Windows NT 10.0; Win64; x64) AppleWebKit/537.36 (KHTML, like Gecko) Chrome/136.0.0.0 Safari/537.36",WebKit,Chrome,136.0.0.0,Windows,10,https://5puzkbbxv1.cognition.run/?sona_id=55895,"en-US,en;q=0.9",yh863epbaadjvvk,18,"[""White""]",No,Female,NA,Yes,665706.4000000004,NA,7283,NA,"{""product_choice"":""B""}",choice,ct,binary,attraction,NA,laptops,null,null,null,null,null,null,2,60,50,null,50,60,null,Processing speed,Memory (RAM),NA,NA
NA,NA,NA,NA,NA,choice_trial_setup,html-keyboard-response,44,251041,0.0-4.0-0.20,282,1,2025-05-07T16:52:18Z,b60275e29fe2361ab97ac0ac217840d7,"Mozilla/5.0 (Windows NT 10.0; Win64; x64) AppleWebKit/537.36 (KHTML, like Gecko) Chrome/136.0.0.0 Safari/537.36",WebKit,Chrome,136.0.0.0,Windows,10,https://5puzkbbxv1.cognition.run/?sona_id=55895,"en-US,en;q=0.9",yh863epbaadjvvk,18,"[""White""]",No,Female,NA,Yes,665706.4000000004,NA,null,<p></p>,null,choice,ct,binary,repulsion,1,laptops,null,null,null,null,null,null,1,NA,NA,NA,NA,NA,NA,NA,NA,NA,NA
NA,NA,NA,NA,NA,choice_trial,survey-html-form,45,258450,0.0-4.0-1.20,282,1,2025-05-07T16:52:18Z,b60275e29fe2361ab97ac0ac217840d7,"Mozilla/5.0 (Windows NT 10.0; Win64; x64) AppleWebKit/537.36 (KHTML, like Gecko) Chrome/136.0.0.0 Safari/537.36",WebKit,Chrome,136.0.0.0,Windows,10,https://5puzkbbxv1.cognition.run/?sona_id=55895,"en-US,en;q=0.9",yh863epbaadjvvk,18,"[""White""]",No,Female,NA,Yes,665706.4000000004,NA,7405,NA,"{""product_choice"":""A""}",choice,ct,binary,repulsion,1,laptops,null,null,null,null,null,null,1,100,90,null,30,40,null,Processing speed,Memory (RAM),NA,NA
NA,NA,NA,NA,NA,choice_trial_setup,html-keyboard-response,46,258752,0.0-4.0-0.21,282,1,2025-05-07T16:52:18Z,b60275e29fe2361ab97ac0ac217840d7,"Mozilla/5.0 (Windows NT 10.0; Win64; x64) AppleWebKit/537.36 (KHTML, like Gecko) Chrome/136.0.0.0 Safari/537.36",WebKit,Chrome,136.0.0.0,Windows,10,https://5puzkbbxv1.cognition.run/?sona_id=55895,"en-US,en;q=0.9",yh863epbaadjvvk,18,"[""White""]",No,Female,NA,Yes,665706.4000000004,NA,null,<p></p>,null,choice,wb,binary,catch,null,microwave ovens,95,90,10,45,null,null,2,NA,NA,NA,NA,NA,NA,NA,NA,NA,NA
NA,NA,NA,NA,NA,choice_trial,survey-html-form,47,263201,0.0-4.0-1.21,282,1,2025-05-07T16:52:18Z,b60275e29fe2361ab97ac0ac217840d7,"Mozilla/5.0 (Windows NT 10.0; Win64; x64) AppleWebKit/537.36 (KHTML, like Gecko) Chrome/136.0.0.0 Safari/537.36",WebKit,Chrome,136.0.0.0,Windows,10,https://5puzkbbxv1.cognition.run/?sona_id=55895,"en-US,en;q=0.9",yh863epbaadjvvk,18,"[""White""]",No,Female,NA,Yes,665706.4000000004,NA,4444,NA,"{""product_choice"":""B""}",choice,wb,binary,catch,null,microwave ovens,95,90,10,45,null,null,2,null,null,null,null,null,null,Warranty,Cooking power,NA,NA
NA,NA,NA,NA,NA,choice_trial_setup,html-keyboard-response,48,263504,0.0-4.0-0.22,282,1,2025-05-07T16:52:18Z,b60275e29fe2361ab97ac0ac217840d7,"Mozilla/5.0 (Windows NT 10.0; Win64; x64) AppleWebKit/537.36 (KHTML, like Gecko) Chrome/136.0.0.0 Safari/537.36",WebKit,Chrome,136.0.0.0,Windows,10,https://5puzkbbxv1.cognition.run/?sona_id=55895,"en-US,en;q=0.9",yh863epbaadjvvk,18,"[""White""]",No,Female,NA,Yes,665706.4000000004,NA,null,<p></p>,null,choice,tc,binary,repulsion,1,televisions,null,null,null,null,null,null,2,NA,NA,NA,NA,NA,NA,NA,NA,NA,NA
NA,NA,NA,NA,NA,choice_trial,survey-html-form,49,269270,0.0-4.0-1.22,282,1,2025-05-07T16:52:18Z,b60275e29fe2361ab97ac0ac217840d7,"Mozilla/5.0 (Windows NT 10.0; Win64; x64) AppleWebKit/537.36 (KHTML, like Gecko) Chrome/136.0.0.0 Safari/537.36",WebKit,Chrome,136.0.0.0,Windows,10,https://5puzkbbxv1.cognition.run/?sona_id=55895,"en-US,en;q=0.9",yh863epbaadjvvk,18,"[""White""]",No,Female,NA,Yes,665706.4000000004,NA,5763,NA,"{""product_choice"":""B""}",choice,tc,binary,repulsion,1,televisions,null,null,null,null,null,null,2,100,90,null,30,40,null,Screen size,Average lifespan,NA,NA
NA,NA,NA,NA,NA,choice_trial_setup,html-keyboard-response,50,269573,0.0-4.0-0.23,282,1,2025-05-07T16:52:18Z,b60275e29fe2361ab97ac0ac217840d7,"Mozilla/5.0 (Windows NT 10.0; Win64; x64) AppleWebKit/537.36 (KHTML, like Gecko) Chrome/136.0.0.0 Safari/537.36",WebKit,Chrome,136.0.0.0,Windows,10,https://5puzkbbxv1.cognition.run/?sona_id=55895,"en-US,en;q=0.9",yh863epbaadjvvk,18,"[""White""]",No,Female,NA,Yes,665706.4000000004,NA,null,<p></p>,null,choice,cdt,trinary,attraction,1,televisions,null,null,null,null,null,null,2,NA,NA,NA,NA,NA,NA,NA,NA,NA,NA
NA,NA,NA,NA,NA,choice_trial,survey-html-form,51,289118,0.0-4.0-1.23,282,1,2025-05-07T16:52:18Z,b60275e29fe2361ab97ac0ac217840d7,"Mozilla/5.0 (Windows NT 10.0; Win64; x64) AppleWebKit/537.36 (KHTML, like Gecko) Chrome/136.0.0.0 Safari/537.36",WebKit,Chrome,136.0.0.0,Windows,10,https://5puzkbbxv1.cognition.run/?sona_id=55895,"en-US,en;q=0.9",yh863epbaadjvvk,18,"[""White""]",No,Female,NA,Yes,665706.4000000004,NA,19541,NA,"{""product_choice"":""C""}",choice,cdt,trinary,attraction,1,televisions,null,null,null,null,null,null,2,60,50,60,50,60,40,Screen size,Average lifespan,NA,NA
NA,NA,NA,NA,NA,choice_trial_setup,html-keyboard-response,52,289421,0.0-4.0-0.24,282,1,2025-05-07T16:52:18Z,b60275e29fe2361ab97ac0ac217840d7,"Mozilla/5.0 (Windows NT 10.0; Win64; x64) AppleWebKit/537.36 (KHTML, like Gecko) Chrome/136.0.0.0 Safari/537.36",WebKit,Chrome,136.0.0.0,Windows,10,https://5puzkbbxv1.cognition.run/?sona_id=55895,"en-US,en;q=0.9",yh863epbaadjvvk,18,"[""White""]",No,Female,NA,Yes,665706.4000000004,NA,null,<p></p>,null,choice,tdc,trinary,attraction,2,televisions,null,null,null,null,null,null,2,NA,NA,NA,NA,NA,NA,NA,NA,NA,NA
NA,NA,NA,NA,NA,choice_trial,survey-html-form,53,297000,0.0-4.0-1.24,282,1,2025-05-07T16:52:18Z,b60275e29fe2361ab97ac0ac217840d7,"Mozilla/5.0 (Windows NT 10.0; Win64; x64) AppleWebKit/537.36 (KHTML, like Gecko) Chrome/136.0.0.0 Safari/537.36",WebKit,Chrome,136.0.0.0,Windows,10,https://5puzkbbxv1.cognition.run/?sona_id=55895,"en-US,en;q=0.9",yh863epbaadjvvk,18,"[""White""]",No,Female,NA,Yes,665706.4000000004,NA,7575,NA,"{""product_choice"":""C""}",choice,tdc,trinary,attraction,2,televisions,null,null,null,null,null,null,2,50,60,40,60,50,60,Screen size,Average lifespan,NA,NA
NA,NA,NA,NA,NA,choice_trial_setup,html-keyboard-response,54,297304,0.0-4.0-0.25,282,1,2025-05-07T16:52:18Z,b60275e29fe2361ab97ac0ac217840d7,"Mozilla/5.0 (Windows NT 10.0; Win64; x64) AppleWebKit/537.36 (KHTML, like Gecko) Chrome/136.0.0.0 Safari/537.36",WebKit,Chrome,136.0.0.0,Windows,10,https://5puzkbbxv1.cognition.run/?sona_id=55895,"en-US,en;q=0.9",yh863epbaadjvvk,18,"[""White""]",No,Female,NA,Yes,665706.4000000004,NA,null,<p></p>,null,choice,dct,trinary,repulsion_A,1,televisions,null,null,null,null,null,null,2,NA,NA,NA,NA,NA,NA,NA,NA,NA,NA
NA,NA,NA,NA,NA,choice_trial,survey-html-form,55,305464,0.0-4.0-1.25,282,1,2025-05-07T16:52:18Z,b60275e29fe2361ab97ac0ac217840d7,"Mozilla/5.0 (Windows NT 10.0; Win64; x64) AppleWebKit/537.36 (KHTML, like Gecko) Chrome/136.0.0.0 Safari/537.36",WebKit,Chrome,136.0.0.0,Windows,10,https://5puzkbbxv1.cognition.run/?sona_id=55895,"en-US,en;q=0.9",yh863epbaadjvvk,18,"[""White""]",No,Female,NA,Yes,665706.4000000004,NA,8154,NA,"{""product_choice"":""B""}",choice,dct,trinary,repulsion_A,1,televisions,null,null,null,null,null,null,2,100,90,100,30,40,20,Screen size,Average lifespan,NA,NA
NA,NA,NA,NA,NA,choice_trial_setup,html-keyboard-response,56,305767,0.0-4.0-0.26,282,1,2025-05-07T16:52:18Z,b60275e29fe2361ab97ac0ac217840d7,"Mozilla/5.0 (Windows NT 10.0; Win64; x64) AppleWebKit/537.36 (KHTML, like Gecko) Chrome/136.0.0.0 Safari/537.36",WebKit,Chrome,136.0.0.0,Windows,10,https://5puzkbbxv1.cognition.run/?sona_id=55895,"en-US,en;q=0.9",yh863epbaadjvvk,18,"[""White""]",No,Female,NA,Yes,665706.4000000004,NA,null,<p></p>,null,choice,ct,binary,attraction,NA,washing machines,null,null,null,null,null,null,2,NA,NA,NA,NA,NA,NA,NA,NA,NA,NA
NA,NA,NA,NA,NA,choice_trial,survey-html-form,57,313498,0.0-4.0-1.26,282,1,2025-05-07T16:52:18Z,b60275e29fe2361ab97ac0ac217840d7,"Mozilla/5.0 (Windows NT 10.0; Win64; x64) AppleWebKit/537.36 (KHTML, like Gecko) Chrome/136.0.0.0 Safari/537.36",WebKit,Chrome,136.0.0.0,Windows,10,https://5puzkbbxv1.cognition.run/?sona_id=55895,"en-US,en;q=0.9",yh863epbaadjvvk,18,"[""White""]",No,Female,NA,Yes,665706.4000000004,NA,7727,NA,"{""product_choice"":""A""}",choice,ct,binary,attraction,NA,washing machines,null,null,null,null,null,null,2,60,50,null,50,60,null,Average lifespan,Energy savings,NA,NA
NA,NA,NA,NA,NA,choice_trial_setup,html-keyboard-response,58,313800,0.0-4.0-0.27,282,1,2025-05-07T16:52:18Z,b60275e29fe2361ab97ac0ac217840d7,"Mozilla/5.0 (Windows NT 10.0; Win64; x64) AppleWebKit/537.36 (KHTML, like Gecko) Chrome/136.0.0.0 Safari/537.36",WebKit,Chrome,136.0.0.0,Windows,10,https://5puzkbbxv1.cognition.run/?sona_id=55895,"en-US,en;q=0.9",yh863epbaadjvvk,18,"[""White""]",No,Female,NA,Yes,665706.4000000004,NA,null,<p></p>,null,choice,tc,binary,repulsion,2,laptops,null,null,null,null,null,null,1,NA,NA,NA,NA,NA,NA,NA,NA,NA,NA
NA,NA,NA,NA,NA,choice_trial,survey-html-form,59,323591,0.0-4.0-1.27,282,1,2025-05-07T16:52:18Z,b60275e29fe2361ab97ac0ac217840d7,"Mozilla/5.0 (Windows NT 10.0; Win64; x64) AppleWebKit/537.36 (KHTML, like Gecko) Chrome/136.0.0.0 Safari/537.36",WebKit,Chrome,136.0.0.0,Windows,10,https://5puzkbbxv1.cognition.run/?sona_id=55895,"en-US,en;q=0.9",yh863epbaadjvvk,18,"[""White""]",No,Female,NA,Yes,665706.4000000004,NA,9787,NA,"{""product_choice"":""B""}",choice,tc,binary,repulsion,2,laptops,null,null,null,null,null,null,1,30,40,null,100,90,null,Processing speed,Memory (RAM),NA,NA
NA,NA,NA,NA,NA,choice_trial_setup,html-keyboard-response,60,323894,0.0-4.0-0.28,282,1,2025-05-07T16:52:18Z,b60275e29fe2361ab97ac0ac217840d7,"Mozilla/5.0 (Windows NT 10.0; Win64; x64) AppleWebKit/537.36 (KHTML, like Gecko) Chrome/136.0.0.0 Safari/537.36",WebKit,Chrome,136.0.0.0,Windows,10,https://5puzkbbxv1.cognition.run/?sona_id=55895,"en-US,en;q=0.9",yh863epbaadjvvk,18,"[""White""]",No,Female,NA,Yes,665706.4000000004,NA,null,<p></p>,null,choice,tc,binary,repulsion,2,washing machines,null,null,null,null,null,null,1,NA,NA,NA,NA,NA,NA,NA,NA,NA,NA
NA,NA,NA,NA,NA,choice_trial,survey-html-form,61,338566,0.0-4.0-1.28,282,1,2025-05-07T16:52:18Z,b60275e29fe2361ab97ac0ac217840d7,"Mozilla/5.0 (Windows NT 10.0; Win64; x64) AppleWebKit/537.36 (KHTML, like Gecko) Chrome/136.0.0.0 Safari/537.36",WebKit,Chrome,136.0.0.0,Windows,10,https://5puzkbbxv1.cognition.run/?sona_id=55895,"en-US,en;q=0.9",yh863epbaadjvvk,18,"[""White""]",No,Female,NA,Yes,665706.4000000004,NA,14668,NA,"{""product_choice"":""B""}",choice,tc,binary,repulsion,2,washing machines,null,null,null,null,null,null,1,30,40,null,100,90,null,Average lifespan,Energy savings,NA,NA
NA,NA,NA,NA,NA,choice_trial_setup,html-keyboard-response,62,338871,0.0-4.0-0.29,282,1,2025-05-07T16:52:18Z,b60275e29fe2361ab97ac0ac217840d7,"Mozilla/5.0 (Windows NT 10.0; Win64; x64) AppleWebKit/537.36 (KHTML, like Gecko) Chrome/136.0.0.0 Safari/537.36",WebKit,Chrome,136.0.0.0,Windows,10,https://5puzkbbxv1.cognition.run/?sona_id=55895,"en-US,en;q=0.9",yh863epbaadjvvk,18,"[""White""]",No,Female,NA,Yes,665706.4000000004,NA,null,<p></p>,null,choice,dct,trinary,repulsion_B,2,televisions,null,null,null,null,null,null,1,NA,NA,NA,NA,NA,NA,NA,NA,NA,NA
NA,NA,NA,NA,NA,choice_trial,survey-html-form,63,343083,0.0-4.0-1.29,282,1,2025-05-07T16:52:18Z,b60275e29fe2361ab97ac0ac217840d7,"Mozilla/5.0 (Windows NT 10.0; Win64; x64) AppleWebKit/537.36 (KHTML, like Gecko) Chrome/136.0.0.0 Safari/537.36",WebKit,Chrome,136.0.0.0,Windows,10,https://5puzkbbxv1.cognition.run/?sona_id=55895,"en-US,en;q=0.9",yh863epbaadjvvk,18,"[""White""]",No,Female,NA,Yes,665706.4000000004,NA,4208,NA,"{""product_choice"":""C""}",choice,dct,trinary,repulsion_B,2,televisions,null,null,null,null,null,null,1,40,30,40,90,100,80,Screen size,Average lifespan,NA,NA
NA,NA,NA,NA,NA,choice_trial_setup,html-keyboard-response,64,343386,0.0-4.0-0.30,282,1,2025-05-07T16:52:18Z,b60275e29fe2361ab97ac0ac217840d7,"Mozilla/5.0 (Windows NT 10.0; Win64; x64) AppleWebKit/537.36 (KHTML, like Gecko) Chrome/136.0.0.0 Safari/537.36",WebKit,Chrome,136.0.0.0,Windows,10,https://5puzkbbxv1.cognition.run/?sona_id=55895,"en-US,en;q=0.9",yh863epbaadjvvk,18,"[""White""]",No,Female,NA,Yes,665706.4000000004,NA,null,<p></p>,null,choice,cdt,trinary,repulsion_A,2,microwave ovens,null,null,null,null,null,null,2,NA,NA,NA,NA,NA,NA,NA,NA,NA,NA
NA,NA,NA,NA,NA,choice_trial,survey-html-form,65,350344,0.0-4.0-1.30,282,1,2025-05-07T16:52:18Z,b60275e29fe2361ab97ac0ac217840d7,"Mozilla/5.0 (Windows NT 10.0; Win64; x64) AppleWebKit/537.36 (KHTML, like Gecko) Chrome/136.0.0.0 Safari/537.36",WebKit,Chrome,136.0.0.0,Windows,10,https://5puzkbbxv1.cognition.run/?sona_id=55895,"en-US,en;q=0.9",yh863epbaadjvvk,18,"[""White""]",No,Female,NA,Yes,665706.4000000004,NA,6954,NA,"{""product_choice"":""A""}",choice,cdt,trinary,repulsion_A,2,microwave ovens,null,null,null,null,null,null,2,30,40,20,100,90,100,Warranty,Cooking power,NA,NA
NA,NA,NA,NA,NA,choice_trial_setup,html-keyboard-response,66,350647,0.0-4.0-0.31,282,1,2025-05-07T16:52:18Z,b60275e29fe2361ab97ac0ac217840d7,"Mozilla/5.0 (Windows NT 10.0; Win64; x64) AppleWebKit/537.36 (KHTML, like Gecko) Chrome/136.0.0.0 Safari/537.36",WebKit,Chrome,136.0.0.0,Windows,10,https://5puzkbbxv1.cognition.run/?sona_id=55895,"en-US,en;q=0.9",yh863epbaadjvvk,18,"[""White""]",No,Female,NA,Yes,665706.4000000004,NA,null,<p></p>,null,choice,ctd,trinary,attraction,2,washing machines,null,null,null,null,null,null,2,NA,NA,NA,NA,NA,NA,NA,NA,NA,NA
NA,NA,NA,NA,NA,choice_trial,survey-html-form,67,360261,0.0-4.0-1.31,282,1,2025-05-07T16:52:18Z,b60275e29fe2361ab97ac0ac217840d7,"Mozilla/5.0 (Windows NT 10.0; Win64; x64) AppleWebKit/537.36 (KHTML, like Gecko) Chrome/136.0.0.0 Safari/537.36",WebKit,Chrome,136.0.0.0,Windows,10,https://5puzkbbxv1.cognition.run/?sona_id=55895,"en-US,en;q=0.9",yh863epbaadjvvk,18,"[""White""]",No,Female,NA,Yes,665706.4000000004,NA,9611,NA,"{""product_choice"":""B""}",choice,ctd,trinary,attraction,2,washing machines,null,null,null,null,null,null,2,50,60,40,60,50,60,Average lifespan,Energy savings,NA,NA
NA,NA,NA,NA,NA,choice_trial_setup,html-keyboard-response,68,360564,0.0-4.0-0.32,282,1,2025-05-07T16:52:18Z,b60275e29fe2361ab97ac0ac217840d7,"Mozilla/5.0 (Windows NT 10.0; Win64; x64) AppleWebKit/537.36 (KHTML, like Gecko) Chrome/136.0.0.0 Safari/537.36",WebKit,Chrome,136.0.0.0,Windows,10,https://5puzkbbxv1.cognition.run/?sona_id=55895,"en-US,en;q=0.9",yh863epbaadjvvk,18,"[""White""]",No,Female,NA,Yes,665706.4000000004,NA,null,<p></p>,null,choice,ct,binary,repulsion,1,microwave ovens,null,null,null,null,null,null,2,NA,NA,NA,NA,NA,NA,NA,NA,NA,NA
NA,NA,NA,NA,NA,choice_trial,survey-html-form,69,367934,0.0-4.0-1.32,282,1,2025-05-07T16:52:18Z,b60275e29fe2361ab97ac0ac217840d7,"Mozilla/5.0 (Windows NT 10.0; Win64; x64) AppleWebKit/537.36 (KHTML, like Gecko) Chrome/136.0.0.0 Safari/537.36",WebKit,Chrome,136.0.0.0,Windows,10,https://5puzkbbxv1.cognition.run/?sona_id=55895,"en-US,en;q=0.9",yh863epbaadjvvk,18,"[""White""]",No,Female,NA,Yes,665706.4000000004,NA,7365,NA,"{""product_choice"":""A""}",choice,ct,binary,repulsion,1,microwave ovens,null,null,null,null,null,null,2,100,90,null,30,40,null,Warranty,Cooking power,NA,NA
NA,NA,NA,NA,NA,choice_trial_setup,html-keyboard-response,70,368238,0.0-4.0-0.33,282,1,2025-05-07T16:52:18Z,b60275e29fe2361ab97ac0ac217840d7,"Mozilla/5.0 (Windows NT 10.0; Win64; x64) AppleWebKit/537.36 (KHTML, like Gecko) Chrome/136.0.0.0 Safari/537.36",WebKit,Chrome,136.0.0.0,Windows,10,https://5puzkbbxv1.cognition.run/?sona_id=55895,"en-US,en;q=0.9",yh863epbaadjvvk,18,"[""White""]",No,Female,NA,Yes,665706.4000000004,NA,null,<p></p>,null,choice,ct,binary,repulsion,1,washing machines,null,null,null,null,null,null,2,NA,NA,NA,NA,NA,NA,NA,NA,NA,NA
NA,NA,NA,NA,NA,choice_trial,survey-html-form,71,372985,0.0-4.0-1.33,282,1,2025-05-07T16:52:18Z,b60275e29fe2361ab97ac0ac217840d7,"Mozilla/5.0 (Windows NT 10.0; Win64; x64) AppleWebKit/537.36 (KHTML, like Gecko) Chrome/136.0.0.0 Safari/537.36",WebKit,Chrome,136.0.0.0,Windows,10,https://5puzkbbxv1.cognition.run/?sona_id=55895,"en-US,en;q=0.9",yh863epbaadjvvk,18,"[""White""]",No,Female,NA,Yes,665706.4000000004,NA,4743,NA,"{""product_choice"":""A""}",choice,ct,binary,repulsion,1,washing machines,null,null,null,null,null,null,2,100,90,null,30,40,null,Average lifespan,Energy savings,NA,NA
NA,NA,NA,NA,NA,choice_trial_setup,html-keyboard-response,72,373289,0.0-4.0-0.34,282,1,2025-05-07T16:52:18Z,b60275e29fe2361ab97ac0ac217840d7,"Mozilla/5.0 (Windows NT 10.0; Win64; x64) AppleWebKit/537.36 (KHTML, like Gecko) Chrome/136.0.0.0 Safari/537.36",WebKit,Chrome,136.0.0.0,Windows,10,https://5puzkbbxv1.cognition.run/?sona_id=55895,"en-US,en;q=0.9",yh863epbaadjvvk,18,"[""White""]",No,Female,NA,Yes,665706.4000000004,NA,null,<p></p>,null,choice,cdt,trinary,attraction,1,washing machines,null,null,null,null,null,null,1,NA,NA,NA,NA,NA,NA,NA,NA,NA,NA
NA,NA,NA,NA,NA,choice_trial,survey-html-form,73,380732,0.0-4.0-1.34,282,1,2025-05-07T16:52:18Z,b60275e29fe2361ab97ac0ac217840d7,"Mozilla/5.0 (Windows NT 10.0; Win64; x64) AppleWebKit/537.36 (KHTML, like Gecko) Chrome/136.0.0.0 Safari/537.36",WebKit,Chrome,136.0.0.0,Windows,10,https://5puzkbbxv1.cognition.run/?sona_id=55895,"en-US,en;q=0.9",yh863epbaadjvvk,18,"[""White""]",No,Female,NA,Yes,665706.4000000004,NA,7438,NA,"{""product_choice"":""A""}",choice,cdt,trinary,attraction,1,washing machines,null,null,null,null,null,null,1,60,50,60,50,60,40,Average lifespan,Energy savings,NA,NA
NA,NA,NA,NA,NA,choice_trial_setup,html-keyboard-response,74,381036,0.0-4.0-0.35,282,1,2025-05-07T16:52:18Z,b60275e29fe2361ab97ac0ac217840d7,"Mozilla/5.0 (Windows NT 10.0; Win64; x64) AppleWebKit/537.36 (KHTML, like Gecko) Chrome/136.0.0.0 Safari/537.36",WebKit,Chrome,136.0.0.0,Windows,10,https://5puzkbbxv1.cognition.run/?sona_id=55895,"en-US,en;q=0.9",yh863epbaadjvvk,18,"[""White""]",No,Female,NA,Yes,665706.4000000004,NA,null,<p></p>,null,choice,dct,trinary,repulsion_B,2,washing machines,null,null,null,null,null,null,1,NA,NA,NA,NA,NA,NA,NA,NA,NA,NA
NA,NA,NA,NA,NA,choice_trial,survey-html-form,75,386007,0.0-4.0-1.35,282,1,2025-05-07T16:52:18Z,b60275e29fe2361ab97ac0ac217840d7,"Mozilla/5.0 (Windows NT 10.0; Win64; x64) AppleWebKit/537.36 (KHTML, like Gecko) Chrome/136.0.0.0 Safari/537.36",WebKit,Chrome,136.0.0.0,Windows,10,https://5puzkbbxv1.cognition.run/?sona_id=55895,"en-US,en;q=0.9",yh863epbaadjvvk,18,"[""White""]",No,Female,NA,Yes,665706.4000000004,NA,4967,NA,"{""product_choice"":""C""}",choice,dct,trinary,repulsion_B,2,washing machines,null,null,null,null,null,null,1,40,30,40,90,100,80,Average lifespan,Energy savings,NA,NA
NA,NA,NA,NA,NA,choice_trial_setup,html-keyboard-response,76,386311,0.0-4.0-0.36,282,1,2025-05-07T16:52:18Z,b60275e29fe2361ab97ac0ac217840d7,"Mozilla/5.0 (Windows NT 10.0; Win64; x64) AppleWebKit/537.36 (KHTML, like Gecko) Chrome/136.0.0.0 Safari/537.36",WebKit,Chrome,136.0.0.0,Windows,10,https://5puzkbbxv1.cognition.run/?sona_id=55895,"en-US,en;q=0.9",yh863epbaadjvvk,18,"[""White""]",No,Female,NA,Yes,665706.4000000004,NA,null,<p></p>,null,choice,tdc,trinary,repulsion_A,1,washing machines,null,null,null,null,null,null,1,NA,NA,NA,NA,NA,NA,NA,NA,NA,NA
NA,NA,NA,NA,NA,choice_trial,survey-html-form,77,390862,0.0-4.0-1.36,282,1,2025-05-07T16:52:18Z,b60275e29fe2361ab97ac0ac217840d7,"Mozilla/5.0 (Windows NT 10.0; Win64; x64) AppleWebKit/537.36 (KHTML, like Gecko) Chrome/136.0.0.0 Safari/537.36",WebKit,Chrome,136.0.0.0,Windows,10,https://5puzkbbxv1.cognition.run/?sona_id=55895,"en-US,en;q=0.9",yh863epbaadjvvk,18,"[""White""]",No,Female,NA,Yes,665706.4000000004,NA,4546,NA,"{""product_choice"":""C""}",choice,tdc,trinary,repulsion_A,1,washing machines,null,null,null,null,null,null,1,100,90,100,30,40,20,Average lifespan,Energy savings,NA,NA
NA,NA,NA,NA,NA,choice_trial_setup,html-keyboard-response,78,391167,0.0-4.0-0.37,282,1,2025-05-07T16:52:18Z,b60275e29fe2361ab97ac0ac217840d7,"Mozilla/5.0 (Windows NT 10.0; Win64; x64) AppleWebKit/537.36 (KHTML, like Gecko) Chrome/136.0.0.0 Safari/537.36",WebKit,Chrome,136.0.0.0,Windows,10,https://5puzkbbxv1.cognition.run/?sona_id=55895,"en-US,en;q=0.9",yh863epbaadjvvk,18,"[""White""]",No,Female,NA,Yes,665706.4000000004,NA,null,<p></p>,null,choice,dtc,trinary,attraction,2,microwave ovens,null,null,null,null,null,null,1,NA,NA,NA,NA,NA,NA,NA,NA,NA,NA
NA,NA,NA,NA,NA,choice_trial,survey-html-form,79,396866,0.0-4.0-1.37,282,1,2025-05-07T16:52:18Z,b60275e29fe2361ab97ac0ac217840d7,"Mozilla/5.0 (Windows NT 10.0; Win64; x64) AppleWebKit/537.36 (KHTML, like Gecko) Chrome/136.0.0.0 Safari/537.36",WebKit,Chrome,136.0.0.0,Windows,10,https://5puzkbbxv1.cognition.run/?sona_id=55895,"en-US,en;q=0.9",yh863epbaadjvvk,18,"[""White""]",No,Female,NA,Yes,665706.4000000004,NA,5695,NA,"{""product_choice"":""B""}",choice,dtc,trinary,attraction,2,microwave ovens,null,null,null,null,null,null,1,50,60,40,60,50,60,Warranty,Cooking power,NA,NA
NA,NA,NA,NA,NA,choice_trial_setup,html-keyboard-response,80,397170,0.0-4.0-0.38,282,1,2025-05-07T16:52:18Z,b60275e29fe2361ab97ac0ac217840d7,"Mozilla/5.0 (Windows NT 10.0; Win64; x64) AppleWebKit/537.36 (KHTML, like Gecko) Chrome/136.0.0.0 Safari/537.36",WebKit,Chrome,136.0.0.0,Windows,10,https://5puzkbbxv1.cognition.run/?sona_id=55895,"en-US,en;q=0.9",yh863epbaadjvvk,18,"[""White""]",No,Female,NA,Yes,665706.4000000004,NA,null,<p></p>,null,choice,ctd,trinary,attraction,1,microwave ovens,null,null,null,null,null,null,2,NA,NA,NA,NA,NA,NA,NA,NA,NA,NA
NA,NA,NA,NA,NA,choice_trial,survey-html-form,81,402881,0.0-4.0-1.38,282,1,2025-05-07T16:52:18Z,b60275e29fe2361ab97ac0ac217840d7,"Mozilla/5.0 (Windows NT 10.0; Win64; x64) AppleWebKit/537.36 (KHTML, like Gecko) Chrome/136.0.0.0 Safari/537.36",WebKit,Chrome,136.0.0.0,Windows,10,https://5puzkbbxv1.cognition.run/?sona_id=55895,"en-US,en;q=0.9",yh863epbaadjvvk,18,"[""White""]",No,Female,NA,Yes,665706.4000000004,NA,5706,NA,"{""product_choice"":""A""}",choice,ctd,trinary,attraction,1,microwave ovens,null,null,null,null,null,null,2,60,50,60,50,60,40,Warranty,Cooking power,NA,NA
NA,NA,NA,NA,NA,choice_trial_setup,html-keyboard-response,82,403187,0.0-4.0-0.39,282,1,2025-05-07T16:52:18Z,b60275e29fe2361ab97ac0ac217840d7,"Mozilla/5.0 (Windows NT 10.0; Win64; x64) AppleWebKit/537.36 (KHTML, like Gecko) Chrome/136.0.0.0 Safari/537.36",WebKit,Chrome,136.0.0.0,Windows,10,https://5puzkbbxv1.cognition.run/?sona_id=55895,"en-US,en;q=0.9",yh863epbaadjvvk,18,"[""White""]",No,Female,NA,Yes,665706.4000000004,NA,null,<p></p>,null,choice,ctd,trinary,attraction,2,laptops,null,null,null,null,null,null,2,NA,NA,NA,NA,NA,NA,NA,NA,NA,NA
NA,NA,NA,NA,NA,choice_trial,survey-html-form,83,407474,0.0-4.0-1.39,282,1,2025-05-07T16:52:18Z,b60275e29fe2361ab97ac0ac217840d7,"Mozilla/5.0 (Windows NT 10.0; Win64; x64) AppleWebKit/537.36 (KHTML, like Gecko) Chrome/136.0.0.0 Safari/537.36",WebKit,Chrome,136.0.0.0,Windows,10,https://5puzkbbxv1.cognition.run/?sona_id=55895,"en-US,en;q=0.9",yh863epbaadjvvk,18,"[""White""]",No,Female,NA,Yes,665706.4000000004,NA,4282,NA,"{""product_choice"":""A""}",choice,ctd,trinary,attraction,2,laptops,null,null,null,null,null,null,2,50,60,40,60,50,60,Processing speed,Memory (RAM),NA,NA
NA,NA,NA,NA,NA,choice_trial_setup,html-keyboard-response,84,407779,0.0-4.0-0.40,282,1,2025-05-07T16:52:18Z,b60275e29fe2361ab97ac0ac217840d7,"Mozilla/5.0 (Windows NT 10.0; Win64; x64) AppleWebKit/537.36 (KHTML, like Gecko) Chrome/136.0.0.0 Safari/537.36",WebKit,Chrome,136.0.0.0,Windows,10,https://5puzkbbxv1.cognition.run/?sona_id=55895,"en-US,en;q=0.9",yh863epbaadjvvk,18,"[""White""]",No,Female,NA,Yes,665706.4000000004,NA,null,<p></p>,null,choice,tdc,trinary,repulsion_A,2,televisions,null,null,null,null,null,null,2,NA,NA,NA,NA,NA,NA,NA,NA,NA,NA
NA,NA,NA,NA,NA,choice_trial,survey-html-form,85,412449,0.0-4.0-1.40,282,1,2025-05-07T16:52:18Z,b60275e29fe2361ab97ac0ac217840d7,"Mozilla/5.0 (Windows NT 10.0; Win64; x64) AppleWebKit/537.36 (KHTML, like Gecko) Chrome/136.0.0.0 Safari/537.36",WebKit,Chrome,136.0.0.0,Windows,10,https://5puzkbbxv1.cognition.run/?sona_id=55895,"en-US,en;q=0.9",yh863epbaadjvvk,18,"[""White""]",No,Female,NA,Yes,665706.4000000004,NA,4665,NA,"{""product_choice"":""C""}",choice,tdc,trinary,repulsion_A,2,televisions,null,null,null,null,null,null,2,30,40,20,100,90,100,Screen size,Average lifespan,NA,NA
NA,NA,NA,NA,NA,choice_trial_setup,html-keyboard-response,86,412755,0.0-4.0-0.41,282,1,2025-05-07T16:52:18Z,b60275e29fe2361ab97ac0ac217840d7,"Mozilla/5.0 (Windows NT 10.0; Win64; x64) AppleWebKit/537.36 (KHTML, like Gecko) Chrome/136.0.0.0 Safari/537.36",WebKit,Chrome,136.0.0.0,Windows,10,https://5puzkbbxv1.cognition.run/?sona_id=55895,"en-US,en;q=0.9",yh863epbaadjvvk,18,"[""White""]",No,Female,NA,Yes,665706.4000000004,NA,null,<p></p>,null,choice,tdc,trinary,repulsion_B,2,microwave ovens,null,null,null,null,null,null,1,NA,NA,NA,NA,NA,NA,NA,NA,NA,NA
NA,NA,NA,NA,NA,choice_trial,survey-html-form,87,417781,0.0-4.0-1.41,282,1,2025-05-07T16:52:18Z,b60275e29fe2361ab97ac0ac217840d7,"Mozilla/5.0 (Windows NT 10.0; Win64; x64) AppleWebKit/537.36 (KHTML, like Gecko) Chrome/136.0.0.0 Safari/537.36",WebKit,Chrome,136.0.0.0,Windows,10,https://5puzkbbxv1.cognition.run/?sona_id=55895,"en-US,en;q=0.9",yh863epbaadjvvk,18,"[""White""]",No,Female,NA,Yes,665706.4000000004,NA,5021,NA,"{""product_choice"":""A""}",choice,tdc,trinary,repulsion_B,2,microwave ovens,null,null,null,null,null,null,1,40,30,40,90,100,80,Warranty,Cooking power,NA,NA
NA,NA,NA,NA,NA,choice_trial_setup,html-keyboard-response,88,418086,0.0-4.0-0.42,282,1,2025-05-07T16:52:18Z,b60275e29fe2361ab97ac0ac217840d7,"Mozilla/5.0 (Windows NT 10.0; Win64; x64) AppleWebKit/537.36 (KHTML, like Gecko) Chrome/136.0.0.0 Safari/537.36",WebKit,Chrome,136.0.0.0,Windows,10,https://5puzkbbxv1.cognition.run/?sona_id=55895,"en-US,en;q=0.9",yh863epbaadjvvk,18,"[""White""]",No,Female,NA,Yes,665706.4000000004,NA,null,<p></p>,null,choice,tdc,trinary,attraction,1,laptops,null,null,null,null,null,null,1,NA,NA,NA,NA,NA,NA,NA,NA,NA,NA
NA,NA,NA,NA,NA,choice_trial,survey-html-form,89,423702,0.0-4.0-1.42,282,1,2025-05-07T16:52:18Z,b60275e29fe2361ab97ac0ac217840d7,"Mozilla/5.0 (Windows NT 10.0; Win64; x64) AppleWebKit/537.36 (KHTML, like Gecko) Chrome/136.0.0.0 Safari/537.36",WebKit,Chrome,136.0.0.0,Windows,10,https://5puzkbbxv1.cognition.run/?sona_id=55895,"en-US,en;q=0.9",yh863epbaadjvvk,18,"[""White""]",No,Female,NA,Yes,665706.4000000004,NA,5610,NA,"{""product_choice"":""A""}",choice,tdc,trinary,attraction,1,laptops,null,null,null,null,null,null,1,60,50,60,50,60,40,Processing speed,Memory (RAM),NA,NA
NA,NA,NA,NA,NA,choice_trial_setup,html-keyboard-response,90,424007,0.0-4.0-0.43,282,1,2025-05-07T16:52:18Z,b60275e29fe2361ab97ac0ac217840d7,"Mozilla/5.0 (Windows NT 10.0; Win64; x64) AppleWebKit/537.36 (KHTML, like Gecko) Chrome/136.0.0.0 Safari/537.36",WebKit,Chrome,136.0.0.0,Windows,10,https://5puzkbbxv1.cognition.run/?sona_id=55895,"en-US,en;q=0.9",yh863epbaadjvvk,18,"[""White""]",No,Female,NA,Yes,665706.4000000004,NA,null,<p></p>,null,choice,tc,binary,attraction,NA,televisions,null,null,null,null,null,null,1,NA,NA,NA,NA,NA,NA,NA,NA,NA,NA
NA,NA,NA,NA,NA,choice_trial,survey-html-form,91,431638,0.0-4.0-1.43,282,1,2025-05-07T16:52:18Z,b60275e29fe2361ab97ac0ac217840d7,"Mozilla/5.0 (Windows NT 10.0; Win64; x64) AppleWebKit/537.36 (KHTML, like Gecko) Chrome/136.0.0.0 Safari/537.36",WebKit,Chrome,136.0.0.0,Windows,10,https://5puzkbbxv1.cognition.run/?sona_id=55895,"en-US,en;q=0.9",yh863epbaadjvvk,18,"[""White""]",No,Female,NA,Yes,665706.4000000004,NA,7625,NA,"{""product_choice"":""A""}",choice,tc,binary,attraction,NA,televisions,null,null,null,null,null,null,1,60,50,null,50,60,null,Screen size,Average lifespan,NA,NA
NA,NA,NA,NA,NA,post_trials_message,html-button-response,92,435008,0.0-5.0,282,1,2025-05-07T16:52:18Z,b60275e29fe2361ab97ac0ac217840d7,"Mozilla/5.0 (Windows NT 10.0; Win64; x64) AppleWebKit/537.36 (KHTML, like Gecko) Chrome/136.0.0.0 Safari/537.36",WebKit,Chrome,136.0.0.0,Windows,10,https://5puzkbbxv1.cognition.run/?sona_id=55895,"en-US,en;q=0.9",yh863epbaadjvvk,18,"[""White""]",No,Female,NA,Yes,665706.4000000004,NA,3366,<p> <b>Thank you for your patience!</b></p><p>  The study will be done after completing a brief form. </p>,0,NA,NA,NA,NA,NA,NA,NA,NA,NA,NA,NA,NA,NA,NA,NA,NA,NA,NA,NA,NA,NA,NA,NA
NA,NA,NA,NA,NA,survey_message,survey-text,93,483936,0.0-6.0,282,1,2025-05-07T16:52:18Z,b60275e29fe2361ab97ac0ac217840d7,"Mozilla/5.0 (Windows NT 10.0; Win64; x64) AppleWebKit/537.36 (KHTML, like Gecko) Chrome/136.0.0.0 Safari/537.36",WebKit,Chrome,136.0.0.0,Windows,10,https://5puzkbbxv1.cognition.run/?sona_id=55895,"en-US,en;q=0.9",yh863epbaadjvvk,18,"[""White""]",No,Female,NA,Yes,665706.4000000004,NA,48919,NA,"{""Q0"":""I chose which i thought was more important but tried to keep them somewhat equal too""}",NA,NA,NA,NA,NA,NA,NA,NA,NA,NA,NA,NA,NA,NA,NA,NA,NA,NA,NA,NA,NA,I chose which i thought was more important but tried to keep them somewhat equal too,NA
NA,NA,NA,NA,NA,demo_age,survey-text,94,488084,0.0-7.0,282,1,2025-05-07T16:52:18Z,b60275e29fe2361ab97ac0ac217840d7,"Mozilla/5.0 (Windows NT 10.0; Win64; x64) AppleWebKit/537.36 (KHTML, like Gecko) Chrome/136.0.0.0 Safari/537.36",WebKit,Chrome,136.0.0.0,Windows,10,https://5puzkbbxv1.cognition.run/?sona_id=55895,"en-US,en;q=0.9",yh863epbaadjvvk,18,"[""White""]",No,Female,NA,Yes,665706.4000000004,NA,4142,NA,"{""Q0"":""18""}",NA,NA,NA,NA,NA,NA,NA,NA,NA,NA,NA,NA,NA,NA,NA,NA,NA,NA,NA,NA,NA,NA,NA
NA,NA,NA,NA,NA,demo_race,survey-multi-select,95,491455,0.0-8.0,282,1,2025-05-07T16:52:18Z,b60275e29fe2361ab97ac0ac217840d7,"Mozilla/5.0 (Windows NT 10.0; Win64; x64) AppleWebKit/537.36 (KHTML, like Gecko) Chrome/136.0.0.0 Safari/537.36",WebKit,Chrome,136.0.0.0,Windows,10,https://5puzkbbxv1.cognition.run/?sona_id=55895,"en-US,en;q=0.9",yh863epbaadjvvk,18,"[""White""]",No,Female,NA,Yes,665706.4000000004,NA,3366,NA,"{""Q0"":[""White""]}",NA,NA,NA,NA,NA,NA,NA,NA,NA,NA,NA,NA,NA,NA,NA,NA,NA,NA,NA,NA,NA,NA,[0]
NA,NA,NA,NA,NA,demo_ethnicity_gender,survey-multi-choice,96,496729,0.0-9.0,282,1,2025-05-07T16:52:18Z,b60275e29fe2361ab97ac0ac217840d7,"Mozilla/5.0 (Windows NT 10.0; Win64; x64) AppleWebKit/537.36 (KHTML, like Gecko) Chrome/136.0.0.0 Safari/537.36",WebKit,Chrome,136.0.0.0,Windows,10,https://5puzkbbxv1.cognition.run/?sona_id=55895,"en-US,en;q=0.9",yh863epbaadjvvk,18,"[""White""]",No,Female,NA,Yes,665706.4000000004,NA,5269,NA,"{""Q0"":""No"",""Q1"":""Female""}",NA,NA,NA,NA,NA,NA,NA,NA,NA,NA,NA,NA,NA,NA,NA,NA,NA,NA,NA,NA,NA,NA,"[0,1]"
NA,NA,NA,NA,NA,demo_countries,survey-text,97,506741,0.0-10.0,282,1,2025-05-07T16:52:18Z,b60275e29fe2361ab97ac0ac217840d7,"Mozilla/5.0 (Windows NT 10.0; Win64; x64) AppleWebKit/537.36 (KHTML, like Gecko) Chrome/136.0.0.0 Safari/537.36",WebKit,Chrome,136.0.0.0,Windows,10,https://5puzkbbxv1.cognition.run/?sona_id=55895,"en-US,en;q=0.9",yh863epbaadjvvk,18,"[""White""]",No,Female,NA,Yes,665706.4000000004,NA,10002,NA,"{""Q0"":""NA""}",NA,NA,NA,NA,NA,NA,NA,NA,NA,NA,NA,NA,NA,NA,NA,NA,NA,NA,NA,NA,NA,NA,NA
NA,NA,NA,NA,NA,demo_prev_study,survey-multi-choice,98,519024,0.0-11.0,282,1,2025-05-07T16:52:18Z,b60275e29fe2361ab97ac0ac217840d7,"Mozilla/5.0 (Windows NT 10.0; Win64; x64) AppleWebKit/537.36 (KHTML, like Gecko) Chrome/136.0.0.0 Safari/537.36",WebKit,Chrome,136.0.0.0,Windows,10,https://5puzkbbxv1.cognition.run/?sona_id=55895,"en-US,en;q=0.9",yh863epbaadjvvk,18,"[""White""]",No,Female,NA,Yes,665706.4000000004,NA,12279,NA,"{""Q0"":""Yes""}",NA,NA,NA,NA,NA,NA,NA,NA,NA,NA,NA,NA,NA,NA,NA,NA,NA,NA,NA,NA,NA,NA,[0]
NA,NA,NA,NA,NA,post_survey_message,html-keyboard-response,99,533712,0.0-12.0,282,1,2025-05-07T16:52:18Z,b60275e29fe2361ab97ac0ac217840d7,"Mozilla/5.0 (Windows NT 10.0; Win64; x64) AppleWebKit/537.36 (KHTML, like Gecko) Chrome/136.0.0.0 Safari/537.36",WebKit,Chrome,136.0.0.0,Windows,10,https://5puzkbbxv1.cognition.run/?sona_id=55895,"en-US,en;q=0.9",yh863epbaadjvvk,18,"[""White""]",No,Female,NA,Yes,665706.4000000004,NA,14684,NA,j,NA,NA,NA,NA,NA,NA,NA,NA,NA,NA,NA,NA,NA,NA,NA,NA,NA,NA,NA,NA,NA,NA,NA
NA,NA,NA,NA,NA,debrief,image-keyboard-response,100,665705,0.0-13.0,282,1,2025-05-07T16:52:18Z,b60275e29fe2361ab97ac0ac217840d7,"Mozilla/5.0 (Windows NT 10.0; Win64; x64) AppleWebKit/537.36 (KHTML, like Gecko) Chrome/136.0.0.0 Safari/537.36",WebKit,Chrome,136.0.0.0,Windows,10,https://5puzkbbxv1.cognition.run/?sona_id=55895,"en-US,en;q=0.9",yh863epbaadjvvk,18,"[""White""]",No,Female,NA,Yes,665706.4000000004,NA,131984,Judg_choice_debrief.png,p,NA,NA,NA,NA,NA,NA,NA,NA,NA,NA,NA,NA,NA,NA,NA,NA,NA,NA,NA,NA,NA,NA,NA
