success,timeout,failed_images,failed_audio,failed_video,screen_id,trial_type,trial_index,time_elapsed,internal_node_id,run_id,condition,recorded_at,source_code_version,user_agent,device,browser,browser_version,platform,platform_version,referer,accept_language,ppt_id,age,race,ethnicity,gender,other_countries,prev_study,exp_duration,view_history,rt,stimulus,response,phase,order,set,effect,t_high,category,d1_best,d2_best,d1_worst1,d2_worst1,d1_worst2,d2_worst2,first_dim,d1_t,d1_c,d1_d,d2_t,d2_c,d2_d,d1_name,d2_name,strategy_response,question_order
TRUE,FALSE,[],[],[],img preload,preload,0,194,0.0-0.0,290,1,2025-05-07T19:21:48Z,b60275e29fe2361ab97ac0ac217840d7,"Mozilla/5.0 (Macintosh; Intel Mac OS X 10_15_7) AppleWebKit/605.1.15 (KHTML, like Gecko) Version/18.4 Safari/605.1.15",Macintosh,Safari,18.4,OS X,10_15_7,https://5puzkbbxv1.cognition.run/?sona_id=54489,"en-US,en;q=0.9",utte7z0x8p6594t,20,"[""White""]",No,Female,n/a,Yes,227796,NA,NA,NA,NA,NA,NA,NA,NA,NA,NA,NA,NA,NA,NA,NA,NA,NA,NA,NA,NA,NA,NA,NA,NA,NA,NA,NA
NA,NA,NA,NA,NA,computer_message,instructions,1,3622,0.0-1.0,290,1,2025-05-07T19:21:48Z,b60275e29fe2361ab97ac0ac217840d7,"Mozilla/5.0 (Macintosh; Intel Mac OS X 10_15_7) AppleWebKit/605.1.15 (KHTML, like Gecko) Version/18.4 Safari/605.1.15",Macintosh,Safari,18.4,OS X,10_15_7,https://5puzkbbxv1.cognition.run/?sona_id=54489,"en-US,en;q=0.9",utte7z0x8p6594t,20,"[""White""]",No,Female,n/a,Yes,227796,"[{""page_index"":0,""viewing_time"":3426}]",3426,NA,NA,NA,NA,NA,NA,NA,NA,NA,NA,NA,NA,NA,NA,NA,NA,NA,NA,NA,NA,NA,NA,NA,NA,NA
TRUE,NA,NA,NA,NA,NA,fullscreen,2,5590,0.0-2.0,290,1,2025-05-07T19:21:48Z,b60275e29fe2361ab97ac0ac217840d7,"Mozilla/5.0 (Macintosh; Intel Mac OS X 10_15_7) AppleWebKit/605.1.15 (KHTML, like Gecko) Version/18.4 Safari/605.1.15",Macintosh,Safari,18.4,OS X,10_15_7,https://5puzkbbxv1.cognition.run/?sona_id=54489,"en-US,en;q=0.9",utte7z0x8p6594t,20,"[""White""]",No,Female,n/a,Yes,227796,NA,964,NA,NA,NA,NA,NA,NA,NA,NA,NA,NA,NA,NA,NA,NA,NA,NA,NA,NA,NA,NA,NA,NA,NA,NA,NA
NA,NA,NA,NA,NA,choice_instructions,instructions,3,39356,0.0-3.0,290,1,2025-05-07T19:21:48Z,b60275e29fe2361ab97ac0ac217840d7,"Mozilla/5.0 (Macintosh; Intel Mac OS X 10_15_7) AppleWebKit/605.1.15 (KHTML, like Gecko) Version/18.4 Safari/605.1.15",Macintosh,Safari,18.4,OS X,10_15_7,https://5puzkbbxv1.cognition.run/?sona_id=54489,"en-US,en;q=0.9",utte7z0x8p6594t,20,"[""White""]",No,Female,n/a,Yes,227796,"[{""page_index"":0,""viewing_time"":1480},{""page_index"":1,""viewing_time"":1734},{""page_index"":2,""viewing_time"":683},{""page_index"":3,""viewing_time"":2049},{""page_index"":4,""viewing_time"":851},{""page_index"":5,""viewing_time"":6051},{""page_index"":6,""viewing_time"":20917}]",33765,NA,NA,NA,NA,NA,NA,NA,NA,NA,NA,NA,NA,NA,NA,NA,NA,NA,NA,NA,NA,NA,NA,NA,NA,NA
NA,NA,NA,NA,NA,choice_trial_setup,html-keyboard-response,4,39662,0.0-4.0-0.0,290,1,2025-05-07T19:21:48Z,b60275e29fe2361ab97ac0ac217840d7,"Mozilla/5.0 (Macintosh; Intel Mac OS X 10_15_7) AppleWebKit/605.1.15 (KHTML, like Gecko) Version/18.4 Safari/605.1.15",Macintosh,Safari,18.4,OS X,10_15_7,https://5puzkbbxv1.cognition.run/?sona_id=54489,"en-US,en;q=0.9",utte7z0x8p6594t,20,"[""White""]",No,Female,n/a,Yes,227796,NA,null,<p></p>,null,choice,ctd,trinary,attraction,1,microwave ovens,null,null,null,null,null,null,1,NA,NA,NA,NA,NA,NA,NA,NA,NA,NA
NA,NA,NA,NA,NA,choice_trial,survey-html-form,5,44894,0.0-4.0-1.0,290,1,2025-05-07T19:21:48Z,b60275e29fe2361ab97ac0ac217840d7,"Mozilla/5.0 (Macintosh; Intel Mac OS X 10_15_7) AppleWebKit/605.1.15 (KHTML, like Gecko) Version/18.4 Safari/605.1.15",Macintosh,Safari,18.4,OS X,10_15_7,https://5puzkbbxv1.cognition.run/?sona_id=54489,"en-US,en;q=0.9",utte7z0x8p6594t,20,"[""White""]",No,Female,n/a,Yes,227796,NA,5225,NA,"{""product_choice"":""A""}",choice,ctd,trinary,attraction,1,microwave ovens,null,null,null,null,null,null,1,60,50,60,50,60,40,Warranty,Cooking power,NA,NA
NA,NA,NA,NA,NA,choice_trial_setup,html-keyboard-response,6,45197,0.0-4.0-0.1,290,1,2025-05-07T19:21:48Z,b60275e29fe2361ab97ac0ac217840d7,"Mozilla/5.0 (Macintosh; Intel Mac OS X 10_15_7) AppleWebKit/605.1.15 (KHTML, like Gecko) Version/18.4 Safari/605.1.15",Macintosh,Safari,18.4,OS X,10_15_7,https://5puzkbbxv1.cognition.run/?sona_id=54489,"en-US,en;q=0.9",utte7z0x8p6594t,20,"[""White""]",No,Female,n/a,Yes,227796,NA,null,<p></p>,null,choice,ct,binary,repulsion,2,microwave ovens,null,null,null,null,null,null,1,NA,NA,NA,NA,NA,NA,NA,NA,NA,NA
NA,NA,NA,NA,NA,choice_trial,survey-html-form,7,53240,0.0-4.0-1.1,290,1,2025-05-07T19:21:48Z,b60275e29fe2361ab97ac0ac217840d7,"Mozilla/5.0 (Macintosh; Intel Mac OS X 10_15_7) AppleWebKit/605.1.15 (KHTML, like Gecko) Version/18.4 Safari/605.1.15",Macintosh,Safari,18.4,OS X,10_15_7,https://5puzkbbxv1.cognition.run/?sona_id=54489,"en-US,en;q=0.9",utte7z0x8p6594t,20,"[""White""]",No,Female,n/a,Yes,227796,NA,8039,NA,"{""product_choice"":""B""}",choice,ct,binary,repulsion,2,microwave ovens,null,null,null,null,null,null,1,30,40,null,100,90,null,Warranty,Cooking power,NA,NA
NA,NA,NA,NA,NA,choice_trial_setup,html-keyboard-response,8,53542,0.0-4.0-0.2,290,1,2025-05-07T19:21:48Z,b60275e29fe2361ab97ac0ac217840d7,"Mozilla/5.0 (Macintosh; Intel Mac OS X 10_15_7) AppleWebKit/605.1.15 (KHTML, like Gecko) Version/18.4 Safari/605.1.15",Macintosh,Safari,18.4,OS X,10_15_7,https://5puzkbbxv1.cognition.run/?sona_id=54489,"en-US,en;q=0.9",utte7z0x8p6594t,20,"[""White""]",No,Female,n/a,Yes,227796,NA,null,<p></p>,null,choice,tc,binary,attraction,NA,washing machines,null,null,null,null,null,null,1,NA,NA,NA,NA,NA,NA,NA,NA,NA,NA
NA,NA,NA,NA,NA,choice_trial,survey-html-form,9,57975,0.0-4.0-1.2,290,1,2025-05-07T19:21:48Z,b60275e29fe2361ab97ac0ac217840d7,"Mozilla/5.0 (Macintosh; Intel Mac OS X 10_15_7) AppleWebKit/605.1.15 (KHTML, like Gecko) Version/18.4 Safari/605.1.15",Macintosh,Safari,18.4,OS X,10_15_7,https://5puzkbbxv1.cognition.run/?sona_id=54489,"en-US,en;q=0.9",utte7z0x8p6594t,20,"[""White""]",No,Female,n/a,Yes,227796,NA,4430,NA,"{""product_choice"":""B""}",choice,tc,binary,attraction,NA,washing machines,null,null,null,null,null,null,1,60,50,null,50,60,null,Average lifespan,Energy savings,NA,NA
NA,NA,NA,NA,NA,choice_trial_setup,html-keyboard-response,10,58278,0.0-4.0-0.3,290,1,2025-05-07T19:21:48Z,b60275e29fe2361ab97ac0ac217840d7,"Mozilla/5.0 (Macintosh; Intel Mac OS X 10_15_7) AppleWebKit/605.1.15 (KHTML, like Gecko) Version/18.4 Safari/605.1.15",Macintosh,Safari,18.4,OS X,10_15_7,https://5puzkbbxv1.cognition.run/?sona_id=54489,"en-US,en;q=0.9",utte7z0x8p6594t,20,"[""White""]",No,Female,n/a,Yes,227796,NA,null,<p></p>,null,choice,tdc,trinary,repulsion_B,1,washing machines,null,null,null,null,null,null,2,NA,NA,NA,NA,NA,NA,NA,NA,NA,NA
NA,NA,NA,NA,NA,choice_trial,survey-html-form,11,61759,0.0-4.0-1.3,290,1,2025-05-07T19:21:48Z,b60275e29fe2361ab97ac0ac217840d7,"Mozilla/5.0 (Macintosh; Intel Mac OS X 10_15_7) AppleWebKit/605.1.15 (KHTML, like Gecko) Version/18.4 Safari/605.1.15",Macintosh,Safari,18.4,OS X,10_15_7,https://5puzkbbxv1.cognition.run/?sona_id=54489,"en-US,en;q=0.9",utte7z0x8p6594t,20,"[""White""]",No,Female,n/a,Yes,227796,NA,3477,NA,"{""product_choice"":""B""}",choice,tdc,trinary,repulsion_B,1,washing machines,null,null,null,null,null,null,2,90,100,80,40,30,40,Average lifespan,Energy savings,NA,NA
NA,NA,NA,NA,NA,choice_trial_setup,html-keyboard-response,12,62063,0.0-4.0-0.4,290,1,2025-05-07T19:21:48Z,b60275e29fe2361ab97ac0ac217840d7,"Mozilla/5.0 (Macintosh; Intel Mac OS X 10_15_7) AppleWebKit/605.1.15 (KHTML, like Gecko) Version/18.4 Safari/605.1.15",Macintosh,Safari,18.4,OS X,10_15_7,https://5puzkbbxv1.cognition.run/?sona_id=54489,"en-US,en;q=0.9",utte7z0x8p6594t,20,"[""White""]",No,Female,n/a,Yes,227796,NA,null,<p></p>,null,choice,dct,trinary,repulsion_B,2,televisions,null,null,null,null,null,null,2,NA,NA,NA,NA,NA,NA,NA,NA,NA,NA
NA,NA,NA,NA,NA,choice_trial,survey-html-form,13,64758,0.0-4.0-1.4,290,1,2025-05-07T19:21:48Z,b60275e29fe2361ab97ac0ac217840d7,"Mozilla/5.0 (Macintosh; Intel Mac OS X 10_15_7) AppleWebKit/605.1.15 (KHTML, like Gecko) Version/18.4 Safari/605.1.15",Macintosh,Safari,18.4,OS X,10_15_7,https://5puzkbbxv1.cognition.run/?sona_id=54489,"en-US,en;q=0.9",utte7z0x8p6594t,20,"[""White""]",No,Female,n/a,Yes,227796,NA,2691,NA,"{""product_choice"":""B""}",choice,dct,trinary,repulsion_B,2,televisions,null,null,null,null,null,null,2,40,30,40,90,100,80,Screen size,Average lifespan,NA,NA
NA,NA,NA,NA,NA,choice_trial_setup,html-keyboard-response,14,65061,0.0-4.0-0.5,290,1,2025-05-07T19:21:48Z,b60275e29fe2361ab97ac0ac217840d7,"Mozilla/5.0 (Macintosh; Intel Mac OS X 10_15_7) AppleWebKit/605.1.15 (KHTML, like Gecko) Version/18.4 Safari/605.1.15",Macintosh,Safari,18.4,OS X,10_15_7,https://5puzkbbxv1.cognition.run/?sona_id=54489,"en-US,en;q=0.9",utte7z0x8p6594t,20,"[""White""]",No,Female,n/a,Yes,227796,NA,null,<p></p>,null,choice,ct,binary,repulsion,1,microwave ovens,null,null,null,null,null,null,1,NA,NA,NA,NA,NA,NA,NA,NA,NA,NA
NA,NA,NA,NA,NA,choice_trial,survey-html-form,15,66824,0.0-4.0-1.5,290,1,2025-05-07T19:21:48Z,b60275e29fe2361ab97ac0ac217840d7,"Mozilla/5.0 (Macintosh; Intel Mac OS X 10_15_7) AppleWebKit/605.1.15 (KHTML, like Gecko) Version/18.4 Safari/605.1.15",Macintosh,Safari,18.4,OS X,10_15_7,https://5puzkbbxv1.cognition.run/?sona_id=54489,"en-US,en;q=0.9",utte7z0x8p6594t,20,"[""White""]",No,Female,n/a,Yes,227796,NA,1758,NA,"{""product_choice"":""A""}",choice,ct,binary,repulsion,1,microwave ovens,null,null,null,null,null,null,1,100,90,null,30,40,null,Warranty,Cooking power,NA,NA
NA,NA,NA,NA,NA,choice_trial_setup,html-keyboard-response,16,67127,0.0-4.0-0.6,290,1,2025-05-07T19:21:48Z,b60275e29fe2361ab97ac0ac217840d7,"Mozilla/5.0 (Macintosh; Intel Mac OS X 10_15_7) AppleWebKit/605.1.15 (KHTML, like Gecko) Version/18.4 Safari/605.1.15",Macintosh,Safari,18.4,OS X,10_15_7,https://5puzkbbxv1.cognition.run/?sona_id=54489,"en-US,en;q=0.9",utte7z0x8p6594t,20,"[""White""]",No,Female,n/a,Yes,227796,NA,null,<p></p>,null,choice,tcd,trinary,attraction,1,televisions,null,null,null,null,null,null,1,NA,NA,NA,NA,NA,NA,NA,NA,NA,NA
NA,NA,NA,NA,NA,choice_trial,survey-html-form,17,68772,0.0-4.0-1.6,290,1,2025-05-07T19:21:48Z,b60275e29fe2361ab97ac0ac217840d7,"Mozilla/5.0 (Macintosh; Intel Mac OS X 10_15_7) AppleWebKit/605.1.15 (KHTML, like Gecko) Version/18.4 Safari/605.1.15",Macintosh,Safari,18.4,OS X,10_15_7,https://5puzkbbxv1.cognition.run/?sona_id=54489,"en-US,en;q=0.9",utte7z0x8p6594t,20,"[""White""]",No,Female,n/a,Yes,227796,NA,1641,NA,"{""product_choice"":""B""}",choice,tcd,trinary,attraction,1,televisions,null,null,null,null,null,null,1,60,50,60,50,60,40,Screen size,Average lifespan,NA,NA
NA,NA,NA,NA,NA,choice_trial_setup,html-keyboard-response,18,69074,0.0-4.0-0.7,290,1,2025-05-07T19:21:48Z,b60275e29fe2361ab97ac0ac217840d7,"Mozilla/5.0 (Macintosh; Intel Mac OS X 10_15_7) AppleWebKit/605.1.15 (KHTML, like Gecko) Version/18.4 Safari/605.1.15",Macintosh,Safari,18.4,OS X,10_15_7,https://5puzkbbxv1.cognition.run/?sona_id=54489,"en-US,en;q=0.9",utte7z0x8p6594t,20,"[""White""]",No,Female,n/a,Yes,227796,NA,null,<p></p>,null,choice,ct,binary,repulsion,1,laptops,null,null,null,null,null,null,1,NA,NA,NA,NA,NA,NA,NA,NA,NA,NA
NA,NA,NA,NA,NA,choice_trial,survey-html-form,19,70441,0.0-4.0-1.7,290,1,2025-05-07T19:21:48Z,b60275e29fe2361ab97ac0ac217840d7,"Mozilla/5.0 (Macintosh; Intel Mac OS X 10_15_7) AppleWebKit/605.1.15 (KHTML, like Gecko) Version/18.4 Safari/605.1.15",Macintosh,Safari,18.4,OS X,10_15_7,https://5puzkbbxv1.cognition.run/?sona_id=54489,"en-US,en;q=0.9",utte7z0x8p6594t,20,"[""White""]",No,Female,n/a,Yes,227796,NA,1364,NA,"{""product_choice"":""B""}",choice,ct,binary,repulsion,1,laptops,null,null,null,null,null,null,1,100,90,null,30,40,null,Processing speed,Memory (RAM),NA,NA
NA,NA,NA,NA,NA,choice_trial_setup,html-keyboard-response,20,70744,0.0-4.0-0.8,290,1,2025-05-07T19:21:48Z,b60275e29fe2361ab97ac0ac217840d7,"Mozilla/5.0 (Macintosh; Intel Mac OS X 10_15_7) AppleWebKit/605.1.15 (KHTML, like Gecko) Version/18.4 Safari/605.1.15",Macintosh,Safari,18.4,OS X,10_15_7,https://5puzkbbxv1.cognition.run/?sona_id=54489,"en-US,en;q=0.9",utte7z0x8p6594t,20,"[""White""]",No,Female,n/a,Yes,227796,NA,null,<p></p>,null,choice,tdc,trinary,repulsion_A,1,microwave ovens,null,null,null,null,null,null,1,NA,NA,NA,NA,NA,NA,NA,NA,NA,NA
NA,NA,NA,NA,NA,choice_trial,survey-html-form,21,72724,0.0-4.0-1.8,290,1,2025-05-07T19:21:48Z,b60275e29fe2361ab97ac0ac217840d7,"Mozilla/5.0 (Macintosh; Intel Mac OS X 10_15_7) AppleWebKit/605.1.15 (KHTML, like Gecko) Version/18.4 Safari/605.1.15",Macintosh,Safari,18.4,OS X,10_15_7,https://5puzkbbxv1.cognition.run/?sona_id=54489,"en-US,en;q=0.9",utte7z0x8p6594t,20,"[""White""]",No,Female,n/a,Yes,227796,NA,1978,NA,"{""product_choice"":""A""}",choice,tdc,trinary,repulsion_A,1,microwave ovens,null,null,null,null,null,null,1,100,90,100,30,40,20,Warranty,Cooking power,NA,NA
NA,NA,NA,NA,NA,choice_trial_setup,html-keyboard-response,22,73027,0.0-4.0-0.9,290,1,2025-05-07T19:21:48Z,b60275e29fe2361ab97ac0ac217840d7,"Mozilla/5.0 (Macintosh; Intel Mac OS X 10_15_7) AppleWebKit/605.1.15 (KHTML, like Gecko) Version/18.4 Safari/605.1.15",Macintosh,Safari,18.4,OS X,10_15_7,https://5puzkbbxv1.cognition.run/?sona_id=54489,"en-US,en;q=0.9",utte7z0x8p6594t,20,"[""White""]",No,Female,n/a,Yes,227796,NA,null,<p></p>,null,choice,wwb,trinary,catch,null,washing machines,50,70,5,25,30,30,1,NA,NA,NA,NA,NA,NA,NA,NA,NA,NA
NA,NA,NA,NA,NA,choice_trial,survey-html-form,23,74624,0.0-4.0-1.9,290,1,2025-05-07T19:21:48Z,b60275e29fe2361ab97ac0ac217840d7,"Mozilla/5.0 (Macintosh; Intel Mac OS X 10_15_7) AppleWebKit/605.1.15 (KHTML, like Gecko) Version/18.4 Safari/605.1.15",Macintosh,Safari,18.4,OS X,10_15_7,https://5puzkbbxv1.cognition.run/?sona_id=54489,"en-US,en;q=0.9",utte7z0x8p6594t,20,"[""White""]",No,Female,n/a,Yes,227796,NA,1593,NA,"{""product_choice"":""B""}",choice,wwb,trinary,catch,null,washing machines,50,70,5,25,30,30,1,null,null,null,null,null,null,Average lifespan,Energy savings,NA,NA
NA,NA,NA,NA,NA,choice_trial_setup,html-keyboard-response,24,74928,0.0-4.0-0.10,290,1,2025-05-07T19:21:48Z,b60275e29fe2361ab97ac0ac217840d7,"Mozilla/5.0 (Macintosh; Intel Mac OS X 10_15_7) AppleWebKit/605.1.15 (KHTML, like Gecko) Version/18.4 Safari/605.1.15",Macintosh,Safari,18.4,OS X,10_15_7,https://5puzkbbxv1.cognition.run/?sona_id=54489,"en-US,en;q=0.9",utte7z0x8p6594t,20,"[""White""]",No,Female,n/a,Yes,227796,NA,null,<p></p>,null,choice,dtc,trinary,attraction,1,washing machines,null,null,null,null,null,null,2,NA,NA,NA,NA,NA,NA,NA,NA,NA,NA
NA,NA,NA,NA,NA,choice_trial,survey-html-form,25,76458,0.0-4.0-1.10,290,1,2025-05-07T19:21:48Z,b60275e29fe2361ab97ac0ac217840d7,"Mozilla/5.0 (Macintosh; Intel Mac OS X 10_15_7) AppleWebKit/605.1.15 (KHTML, like Gecko) Version/18.4 Safari/605.1.15",Macintosh,Safari,18.4,OS X,10_15_7,https://5puzkbbxv1.cognition.run/?sona_id=54489,"en-US,en;q=0.9",utte7z0x8p6594t,20,"[""White""]",No,Female,n/a,Yes,227796,NA,1527,NA,"{""product_choice"":""B""}",choice,dtc,trinary,attraction,1,washing machines,null,null,null,null,null,null,2,60,50,60,50,60,40,Average lifespan,Energy savings,NA,NA
NA,NA,NA,NA,NA,choice_trial_setup,html-keyboard-response,26,76761,0.0-4.0-0.11,290,1,2025-05-07T19:21:48Z,b60275e29fe2361ab97ac0ac217840d7,"Mozilla/5.0 (Macintosh; Intel Mac OS X 10_15_7) AppleWebKit/605.1.15 (KHTML, like Gecko) Version/18.4 Safari/605.1.15",Macintosh,Safari,18.4,OS X,10_15_7,https://5puzkbbxv1.cognition.run/?sona_id=54489,"en-US,en;q=0.9",utte7z0x8p6594t,20,"[""White""]",No,Female,n/a,Yes,227796,NA,null,<p></p>,null,choice,tc,binary,attraction,NA,microwave ovens,null,null,null,null,null,null,2,NA,NA,NA,NA,NA,NA,NA,NA,NA,NA
NA,NA,NA,NA,NA,choice_trial,survey-html-form,27,78441,0.0-4.0-1.11,290,1,2025-05-07T19:21:48Z,b60275e29fe2361ab97ac0ac217840d7,"Mozilla/5.0 (Macintosh; Intel Mac OS X 10_15_7) AppleWebKit/605.1.15 (KHTML, like Gecko) Version/18.4 Safari/605.1.15",Macintosh,Safari,18.4,OS X,10_15_7,https://5puzkbbxv1.cognition.run/?sona_id=54489,"en-US,en;q=0.9",utte7z0x8p6594t,20,"[""White""]",No,Female,n/a,Yes,227796,NA,1676,NA,"{""product_choice"":""A""}",choice,tc,binary,attraction,NA,microwave ovens,null,null,null,null,null,null,2,60,50,null,50,60,null,Warranty,Cooking power,NA,NA
NA,NA,NA,NA,NA,choice_trial_setup,html-keyboard-response,28,78744,0.0-4.0-0.12,290,1,2025-05-07T19:21:48Z,b60275e29fe2361ab97ac0ac217840d7,"Mozilla/5.0 (Macintosh; Intel Mac OS X 10_15_7) AppleWebKit/605.1.15 (KHTML, like Gecko) Version/18.4 Safari/605.1.15",Macintosh,Safari,18.4,OS X,10_15_7,https://5puzkbbxv1.cognition.run/?sona_id=54489,"en-US,en;q=0.9",utte7z0x8p6594t,20,"[""White""]",No,Female,n/a,Yes,227796,NA,null,<p></p>,null,choice,ctd,trinary,repulsion_B,2,washing machines,null,null,null,null,null,null,1,NA,NA,NA,NA,NA,NA,NA,NA,NA,NA
NA,NA,NA,NA,NA,choice_trial,survey-html-form,29,80575,0.0-4.0-1.12,290,1,2025-05-07T19:21:48Z,b60275e29fe2361ab97ac0ac217840d7,"Mozilla/5.0 (Macintosh; Intel Mac OS X 10_15_7) AppleWebKit/605.1.15 (KHTML, like Gecko) Version/18.4 Safari/605.1.15",Macintosh,Safari,18.4,OS X,10_15_7,https://5puzkbbxv1.cognition.run/?sona_id=54489,"en-US,en;q=0.9",utte7z0x8p6594t,20,"[""White""]",No,Female,n/a,Yes,227796,NA,1826,NA,"{""product_choice"":""C""}",choice,ctd,trinary,repulsion_B,2,washing machines,null,null,null,null,null,null,1,40,30,40,90,100,80,Average lifespan,Energy savings,NA,NA
NA,NA,NA,NA,NA,choice_trial_setup,html-keyboard-response,30,80878,0.0-4.0-0.13,290,1,2025-05-07T19:21:48Z,b60275e29fe2361ab97ac0ac217840d7,"Mozilla/5.0 (Macintosh; Intel Mac OS X 10_15_7) AppleWebKit/605.1.15 (KHTML, like Gecko) Version/18.4 Safari/605.1.15",Macintosh,Safari,18.4,OS X,10_15_7,https://5puzkbbxv1.cognition.run/?sona_id=54489,"en-US,en;q=0.9",utte7z0x8p6594t,20,"[""White""]",No,Female,n/a,Yes,227796,NA,null,<p></p>,null,choice,tcd,trinary,attraction,1,laptops,null,null,null,null,null,null,2,NA,NA,NA,NA,NA,NA,NA,NA,NA,NA
NA,NA,NA,NA,NA,choice_trial,survey-html-form,31,83259,0.0-4.0-1.13,290,1,2025-05-07T19:21:48Z,b60275e29fe2361ab97ac0ac217840d7,"Mozilla/5.0 (Macintosh; Intel Mac OS X 10_15_7) AppleWebKit/605.1.15 (KHTML, like Gecko) Version/18.4 Safari/605.1.15",Macintosh,Safari,18.4,OS X,10_15_7,https://5puzkbbxv1.cognition.run/?sona_id=54489,"en-US,en;q=0.9",utte7z0x8p6594t,20,"[""White""]",No,Female,n/a,Yes,227796,NA,2376,NA,"{""product_choice"":""B""}",choice,tcd,trinary,attraction,1,laptops,null,null,null,null,null,null,2,60,50,60,50,60,40,Processing speed,Memory (RAM),NA,NA
NA,NA,NA,NA,NA,choice_trial_setup,html-keyboard-response,32,83562,0.0-4.0-0.14,290,1,2025-05-07T19:21:48Z,b60275e29fe2361ab97ac0ac217840d7,"Mozilla/5.0 (Macintosh; Intel Mac OS X 10_15_7) AppleWebKit/605.1.15 (KHTML, like Gecko) Version/18.4 Safari/605.1.15",Macintosh,Safari,18.4,OS X,10_15_7,https://5puzkbbxv1.cognition.run/?sona_id=54489,"en-US,en;q=0.9",utte7z0x8p6594t,20,"[""White""]",No,Female,n/a,Yes,227796,NA,null,<p></p>,null,choice,tdc,trinary,attraction,2,washing machines,null,null,null,null,null,null,1,NA,NA,NA,NA,NA,NA,NA,NA,NA,NA
NA,NA,NA,NA,NA,choice_trial,survey-html-form,33,86890,0.0-4.0-1.14,290,1,2025-05-07T19:21:48Z,b60275e29fe2361ab97ac0ac217840d7,"Mozilla/5.0 (Macintosh; Intel Mac OS X 10_15_7) AppleWebKit/605.1.15 (KHTML, like Gecko) Version/18.4 Safari/605.1.15",Macintosh,Safari,18.4,OS X,10_15_7,https://5puzkbbxv1.cognition.run/?sona_id=54489,"en-US,en;q=0.9",utte7z0x8p6594t,20,"[""White""]",No,Female,n/a,Yes,227796,NA,3324,NA,"{""product_choice"":""B""}",choice,tdc,trinary,attraction,2,washing machines,null,null,null,null,null,null,1,50,60,40,60,50,60,Average lifespan,Energy savings,NA,NA
NA,NA,NA,NA,NA,choice_trial_setup,html-keyboard-response,34,87194,0.0-4.0-0.15,290,1,2025-05-07T19:21:48Z,b60275e29fe2361ab97ac0ac217840d7,"Mozilla/5.0 (Macintosh; Intel Mac OS X 10_15_7) AppleWebKit/605.1.15 (KHTML, like Gecko) Version/18.4 Safari/605.1.15",Macintosh,Safari,18.4,OS X,10_15_7,https://5puzkbbxv1.cognition.run/?sona_id=54489,"en-US,en;q=0.9",utte7z0x8p6594t,20,"[""White""]",No,Female,n/a,Yes,227796,NA,null,<p></p>,null,choice,tcd,trinary,repulsion_A,1,televisions,null,null,null,null,null,null,2,NA,NA,NA,NA,NA,NA,NA,NA,NA,NA
NA,NA,NA,NA,NA,choice_trial,survey-html-form,35,90340,0.0-4.0-1.15,290,1,2025-05-07T19:21:48Z,b60275e29fe2361ab97ac0ac217840d7,"Mozilla/5.0 (Macintosh; Intel Mac OS X 10_15_7) AppleWebKit/605.1.15 (KHTML, like Gecko) Version/18.4 Safari/605.1.15",Macintosh,Safari,18.4,OS X,10_15_7,https://5puzkbbxv1.cognition.run/?sona_id=54489,"en-US,en;q=0.9",utte7z0x8p6594t,20,"[""White""]",No,Female,n/a,Yes,227796,NA,3141,NA,"{""product_choice"":""B""}",choice,tcd,trinary,repulsion_A,1,televisions,null,null,null,null,null,null,2,100,90,100,30,40,20,Screen size,Average lifespan,NA,NA
NA,NA,NA,NA,NA,choice_trial_setup,html-keyboard-response,36,90642,0.0-4.0-0.16,290,1,2025-05-07T19:21:48Z,b60275e29fe2361ab97ac0ac217840d7,"Mozilla/5.0 (Macintosh; Intel Mac OS X 10_15_7) AppleWebKit/605.1.15 (KHTML, like Gecko) Version/18.4 Safari/605.1.15",Macintosh,Safari,18.4,OS X,10_15_7,https://5puzkbbxv1.cognition.run/?sona_id=54489,"en-US,en;q=0.9",utte7z0x8p6594t,20,"[""White""]",No,Female,n/a,Yes,227796,NA,null,<p></p>,null,choice,ct,binary,repulsion,2,washing machines,null,null,null,null,null,null,1,NA,NA,NA,NA,NA,NA,NA,NA,NA,NA
NA,NA,NA,NA,NA,choice_trial,survey-html-form,37,93241,0.0-4.0-1.16,290,1,2025-05-07T19:21:48Z,b60275e29fe2361ab97ac0ac217840d7,"Mozilla/5.0 (Macintosh; Intel Mac OS X 10_15_7) AppleWebKit/605.1.15 (KHTML, like Gecko) Version/18.4 Safari/605.1.15",Macintosh,Safari,18.4,OS X,10_15_7,https://5puzkbbxv1.cognition.run/?sona_id=54489,"en-US,en;q=0.9",utte7z0x8p6594t,20,"[""White""]",No,Female,n/a,Yes,227796,NA,2594,NA,"{""product_choice"":""A""}",choice,ct,binary,repulsion,2,washing machines,null,null,null,null,null,null,1,30,40,null,100,90,null,Average lifespan,Energy savings,NA,NA
NA,NA,NA,NA,NA,choice_trial_setup,html-keyboard-response,38,93545,0.0-4.0-0.17,290,1,2025-05-07T19:21:48Z,b60275e29fe2361ab97ac0ac217840d7,"Mozilla/5.0 (Macintosh; Intel Mac OS X 10_15_7) AppleWebKit/605.1.15 (KHTML, like Gecko) Version/18.4 Safari/605.1.15",Macintosh,Safari,18.4,OS X,10_15_7,https://5puzkbbxv1.cognition.run/?sona_id=54489,"en-US,en;q=0.9",utte7z0x8p6594t,20,"[""White""]",No,Female,n/a,Yes,227796,NA,null,<p></p>,null,choice,dct,trinary,repulsion_A,2,microwave ovens,null,null,null,null,null,null,2,NA,NA,NA,NA,NA,NA,NA,NA,NA,NA
NA,NA,NA,NA,NA,choice_trial,survey-html-form,39,95392,0.0-4.0-1.17,290,1,2025-05-07T19:21:48Z,b60275e29fe2361ab97ac0ac217840d7,"Mozilla/5.0 (Macintosh; Intel Mac OS X 10_15_7) AppleWebKit/605.1.15 (KHTML, like Gecko) Version/18.4 Safari/605.1.15",Macintosh,Safari,18.4,OS X,10_15_7,https://5puzkbbxv1.cognition.run/?sona_id=54489,"en-US,en;q=0.9",utte7z0x8p6594t,20,"[""White""]",No,Female,n/a,Yes,227796,NA,1843,NA,"{""product_choice"":""C""}",choice,dct,trinary,repulsion_A,2,microwave ovens,null,null,null,null,null,null,2,30,40,20,100,90,100,Warranty,Cooking power,NA,NA
NA,NA,NA,NA,NA,choice_trial_setup,html-keyboard-response,40,95696,0.0-4.0-0.18,290,1,2025-05-07T19:21:48Z,b60275e29fe2361ab97ac0ac217840d7,"Mozilla/5.0 (Macintosh; Intel Mac OS X 10_15_7) AppleWebKit/605.1.15 (KHTML, like Gecko) Version/18.4 Safari/605.1.15",Macintosh,Safari,18.4,OS X,10_15_7,https://5puzkbbxv1.cognition.run/?sona_id=54489,"en-US,en;q=0.9",utte7z0x8p6594t,20,"[""White""]",No,Female,n/a,Yes,227796,NA,null,<p></p>,null,choice,bw,binary,catch,null,washing machines,70,55,20,50,null,null,1,NA,NA,NA,NA,NA,NA,NA,NA,NA,NA
NA,NA,NA,NA,NA,choice_trial,survey-html-form,41,102057,0.0-4.0-1.18,290,1,2025-05-07T19:21:48Z,b60275e29fe2361ab97ac0ac217840d7,"Mozilla/5.0 (Macintosh; Intel Mac OS X 10_15_7) AppleWebKit/605.1.15 (KHTML, like Gecko) Version/18.4 Safari/605.1.15",Macintosh,Safari,18.4,OS X,10_15_7,https://5puzkbbxv1.cognition.run/?sona_id=54489,"en-US,en;q=0.9",utte7z0x8p6594t,20,"[""White""]",No,Female,n/a,Yes,227796,NA,6357,NA,"{""product_choice"":""B""}",choice,bw,binary,catch,null,washing machines,70,55,20,50,null,null,1,null,null,null,null,null,null,Average lifespan,Energy savings,NA,NA
NA,NA,NA,NA,NA,choice_trial_setup,html-keyboard-response,42,102360,0.0-4.0-0.19,290,1,2025-05-07T19:21:48Z,b60275e29fe2361ab97ac0ac217840d7,"Mozilla/5.0 (Macintosh; Intel Mac OS X 10_15_7) AppleWebKit/605.1.15 (KHTML, like Gecko) Version/18.4 Safari/605.1.15",Macintosh,Safari,18.4,OS X,10_15_7,https://5puzkbbxv1.cognition.run/?sona_id=54489,"en-US,en;q=0.9",utte7z0x8p6594t,20,"[""White""]",No,Female,n/a,Yes,227796,NA,null,<p></p>,null,choice,wwb,trinary,catch,null,televisions,70,90,35,50,15,40,2,NA,NA,NA,NA,NA,NA,NA,NA,NA,NA
NA,NA,NA,NA,NA,choice_trial,survey-html-form,43,104607,0.0-4.0-1.19,290,1,2025-05-07T19:21:48Z,b60275e29fe2361ab97ac0ac217840d7,"Mozilla/5.0 (Macintosh; Intel Mac OS X 10_15_7) AppleWebKit/605.1.15 (KHTML, like Gecko) Version/18.4 Safari/605.1.15",Macintosh,Safari,18.4,OS X,10_15_7,https://5puzkbbxv1.cognition.run/?sona_id=54489,"en-US,en;q=0.9",utte7z0x8p6594t,20,"[""White""]",No,Female,n/a,Yes,227796,NA,2243,NA,"{""product_choice"":""A""}",choice,wwb,trinary,catch,null,televisions,70,90,35,50,15,40,2,null,null,null,null,null,null,Screen size,Average lifespan,NA,NA
NA,NA,NA,NA,NA,choice_trial_setup,html-keyboard-response,44,104911,0.0-4.0-0.20,290,1,2025-05-07T19:21:48Z,b60275e29fe2361ab97ac0ac217840d7,"Mozilla/5.0 (Macintosh; Intel Mac OS X 10_15_7) AppleWebKit/605.1.15 (KHTML, like Gecko) Version/18.4 Safari/605.1.15",Macintosh,Safari,18.4,OS X,10_15_7,https://5puzkbbxv1.cognition.run/?sona_id=54489,"en-US,en;q=0.9",utte7z0x8p6594t,20,"[""White""]",No,Female,n/a,Yes,227796,NA,null,<p></p>,null,choice,tc,binary,attraction,NA,televisions,null,null,null,null,null,null,1,NA,NA,NA,NA,NA,NA,NA,NA,NA,NA
NA,NA,NA,NA,NA,choice_trial,survey-html-form,45,106473,0.0-4.0-1.20,290,1,2025-05-07T19:21:48Z,b60275e29fe2361ab97ac0ac217840d7,"Mozilla/5.0 (Macintosh; Intel Mac OS X 10_15_7) AppleWebKit/605.1.15 (KHTML, like Gecko) Version/18.4 Safari/605.1.15",Macintosh,Safari,18.4,OS X,10_15_7,https://5puzkbbxv1.cognition.run/?sona_id=54489,"en-US,en;q=0.9",utte7z0x8p6594t,20,"[""White""]",No,Female,n/a,Yes,227796,NA,1558,NA,"{""product_choice"":""B""}",choice,tc,binary,attraction,NA,televisions,null,null,null,null,null,null,1,60,50,null,50,60,null,Screen size,Average lifespan,NA,NA
NA,NA,NA,NA,NA,choice_trial_setup,html-keyboard-response,46,106777,0.0-4.0-0.21,290,1,2025-05-07T19:21:48Z,b60275e29fe2361ab97ac0ac217840d7,"Mozilla/5.0 (Macintosh; Intel Mac OS X 10_15_7) AppleWebKit/605.1.15 (KHTML, like Gecko) Version/18.4 Safari/605.1.15",Macintosh,Safari,18.4,OS X,10_15_7,https://5puzkbbxv1.cognition.run/?sona_id=54489,"en-US,en;q=0.9",utte7z0x8p6594t,20,"[""White""]",No,Female,n/a,Yes,227796,NA,null,<p></p>,null,choice,dct,trinary,repulsion_A,1,laptops,null,null,null,null,null,null,1,NA,NA,NA,NA,NA,NA,NA,NA,NA,NA
NA,NA,NA,NA,NA,choice_trial,survey-html-form,47,109907,0.0-4.0-1.21,290,1,2025-05-07T19:21:48Z,b60275e29fe2361ab97ac0ac217840d7,"Mozilla/5.0 (Macintosh; Intel Mac OS X 10_15_7) AppleWebKit/605.1.15 (KHTML, like Gecko) Version/18.4 Safari/605.1.15",Macintosh,Safari,18.4,OS X,10_15_7,https://5puzkbbxv1.cognition.run/?sona_id=54489,"en-US,en;q=0.9",utte7z0x8p6594t,20,"[""White""]",No,Female,n/a,Yes,227796,NA,3126,NA,"{""product_choice"":""B""}",choice,dct,trinary,repulsion_A,1,laptops,null,null,null,null,null,null,1,100,90,100,30,40,20,Processing speed,Memory (RAM),NA,NA
NA,NA,NA,NA,NA,choice_trial_setup,html-keyboard-response,48,110211,0.0-4.0-0.22,290,1,2025-05-07T19:21:48Z,b60275e29fe2361ab97ac0ac217840d7,"Mozilla/5.0 (Macintosh; Intel Mac OS X 10_15_7) AppleWebKit/605.1.15 (KHTML, like Gecko) Version/18.4 Safari/605.1.15",Macintosh,Safari,18.4,OS X,10_15_7,https://5puzkbbxv1.cognition.run/?sona_id=54489,"en-US,en;q=0.9",utte7z0x8p6594t,20,"[""White""]",No,Female,n/a,Yes,227796,NA,null,<p></p>,null,choice,dtc,trinary,attraction,2,laptops,null,null,null,null,null,null,2,NA,NA,NA,NA,NA,NA,NA,NA,NA,NA
NA,NA,NA,NA,NA,choice_trial,survey-html-form,49,112074,0.0-4.0-1.22,290,1,2025-05-07T19:21:48Z,b60275e29fe2361ab97ac0ac217840d7,"Mozilla/5.0 (Macintosh; Intel Mac OS X 10_15_7) AppleWebKit/605.1.15 (KHTML, like Gecko) Version/18.4 Safari/605.1.15",Macintosh,Safari,18.4,OS X,10_15_7,https://5puzkbbxv1.cognition.run/?sona_id=54489,"en-US,en;q=0.9",utte7z0x8p6594t,20,"[""White""]",No,Female,n/a,Yes,227796,NA,1860,NA,"{""product_choice"":""B""}",choice,dtc,trinary,attraction,2,laptops,null,null,null,null,null,null,2,50,60,40,60,50,60,Processing speed,Memory (RAM),NA,NA
NA,NA,NA,NA,NA,choice_trial_setup,html-keyboard-response,50,112378,0.0-4.0-0.23,290,1,2025-05-07T19:21:48Z,b60275e29fe2361ab97ac0ac217840d7,"Mozilla/5.0 (Macintosh; Intel Mac OS X 10_15_7) AppleWebKit/605.1.15 (KHTML, like Gecko) Version/18.4 Safari/605.1.15",Macintosh,Safari,18.4,OS X,10_15_7,https://5puzkbbxv1.cognition.run/?sona_id=54489,"en-US,en;q=0.9",utte7z0x8p6594t,20,"[""White""]",No,Female,n/a,Yes,227796,NA,null,<p></p>,null,choice,tc,binary,repulsion,2,televisions,null,null,null,null,null,null,2,NA,NA,NA,NA,NA,NA,NA,NA,NA,NA
NA,NA,NA,NA,NA,choice_trial,survey-html-form,51,114074,0.0-4.0-1.23,290,1,2025-05-07T19:21:48Z,b60275e29fe2361ab97ac0ac217840d7,"Mozilla/5.0 (Macintosh; Intel Mac OS X 10_15_7) AppleWebKit/605.1.15 (KHTML, like Gecko) Version/18.4 Safari/605.1.15",Macintosh,Safari,18.4,OS X,10_15_7,https://5puzkbbxv1.cognition.run/?sona_id=54489,"en-US,en;q=0.9",utte7z0x8p6594t,20,"[""White""]",No,Female,n/a,Yes,227796,NA,1686,NA,"{""product_choice"":""A""}",choice,tc,binary,repulsion,2,televisions,null,null,null,null,null,null,2,30,40,null,100,90,null,Screen size,Average lifespan,NA,NA
NA,NA,NA,NA,NA,choice_trial_setup,html-keyboard-response,52,114378,0.0-4.0-0.24,290,1,2025-05-07T19:21:48Z,b60275e29fe2361ab97ac0ac217840d7,"Mozilla/5.0 (Macintosh; Intel Mac OS X 10_15_7) AppleWebKit/605.1.15 (KHTML, like Gecko) Version/18.4 Safari/605.1.15",Macintosh,Safari,18.4,OS X,10_15_7,https://5puzkbbxv1.cognition.run/?sona_id=54489,"en-US,en;q=0.9",utte7z0x8p6594t,20,"[""White""]",No,Female,n/a,Yes,227796,NA,null,<p></p>,null,choice,tcd,trinary,repulsion_B,1,laptops,null,null,null,null,null,null,1,NA,NA,NA,NA,NA,NA,NA,NA,NA,NA
NA,NA,NA,NA,NA,choice_trial,survey-html-form,53,116324,0.0-4.0-1.24,290,1,2025-05-07T19:21:48Z,b60275e29fe2361ab97ac0ac217840d7,"Mozilla/5.0 (Macintosh; Intel Mac OS X 10_15_7) AppleWebKit/605.1.15 (KHTML, like Gecko) Version/18.4 Safari/605.1.15",Macintosh,Safari,18.4,OS X,10_15_7,https://5puzkbbxv1.cognition.run/?sona_id=54489,"en-US,en;q=0.9",utte7z0x8p6594t,20,"[""White""]",No,Female,n/a,Yes,227796,NA,1941,NA,"{""product_choice"":""C""}",choice,tcd,trinary,repulsion_B,1,laptops,null,null,null,null,null,null,1,90,100,80,40,30,40,Processing speed,Memory (RAM),NA,NA
NA,NA,NA,NA,NA,choice_trial_setup,html-keyboard-response,54,116628,0.0-4.0-0.25,290,1,2025-05-07T19:21:48Z,b60275e29fe2361ab97ac0ac217840d7,"Mozilla/5.0 (Macintosh; Intel Mac OS X 10_15_7) AppleWebKit/605.1.15 (KHTML, like Gecko) Version/18.4 Safari/605.1.15",Macintosh,Safari,18.4,OS X,10_15_7,https://5puzkbbxv1.cognition.run/?sona_id=54489,"en-US,en;q=0.9",utte7z0x8p6594t,20,"[""White""]",No,Female,n/a,Yes,227796,NA,null,<p></p>,null,choice,cdt,trinary,repulsion_B,1,televisions,null,null,null,null,null,null,2,NA,NA,NA,NA,NA,NA,NA,NA,NA,NA
NA,NA,NA,NA,NA,choice_trial,survey-html-form,55,118309,0.0-4.0-1.25,290,1,2025-05-07T19:21:48Z,b60275e29fe2361ab97ac0ac217840d7,"Mozilla/5.0 (Macintosh; Intel Mac OS X 10_15_7) AppleWebKit/605.1.15 (KHTML, like Gecko) Version/18.4 Safari/605.1.15",Macintosh,Safari,18.4,OS X,10_15_7,https://5puzkbbxv1.cognition.run/?sona_id=54489,"en-US,en;q=0.9",utte7z0x8p6594t,20,"[""White""]",No,Female,n/a,Yes,227796,NA,1675,NA,"{""product_choice"":""B""}",choice,cdt,trinary,repulsion_B,1,televisions,null,null,null,null,null,null,2,90,100,80,40,30,40,Screen size,Average lifespan,NA,NA
NA,NA,NA,NA,NA,choice_trial_setup,html-keyboard-response,56,118613,0.0-4.0-0.26,290,1,2025-05-07T19:21:48Z,b60275e29fe2361ab97ac0ac217840d7,"Mozilla/5.0 (Macintosh; Intel Mac OS X 10_15_7) AppleWebKit/605.1.15 (KHTML, like Gecko) Version/18.4 Safari/605.1.15",Macintosh,Safari,18.4,OS X,10_15_7,https://5puzkbbxv1.cognition.run/?sona_id=54489,"en-US,en;q=0.9",utte7z0x8p6594t,20,"[""White""]",No,Female,n/a,Yes,227796,NA,null,<p></p>,null,choice,tc,binary,repulsion,1,washing machines,null,null,null,null,null,null,2,NA,NA,NA,NA,NA,NA,NA,NA,NA,NA
NA,NA,NA,NA,NA,choice_trial,survey-html-form,57,120125,0.0-4.0-1.26,290,1,2025-05-07T19:21:48Z,b60275e29fe2361ab97ac0ac217840d7,"Mozilla/5.0 (Macintosh; Intel Mac OS X 10_15_7) AppleWebKit/605.1.15 (KHTML, like Gecko) Version/18.4 Safari/605.1.15",Macintosh,Safari,18.4,OS X,10_15_7,https://5puzkbbxv1.cognition.run/?sona_id=54489,"en-US,en;q=0.9",utte7z0x8p6594t,20,"[""White""]",No,Female,n/a,Yes,227796,NA,1508,NA,"{""product_choice"":""B""}",choice,tc,binary,repulsion,1,washing machines,null,null,null,null,null,null,2,100,90,null,30,40,null,Average lifespan,Energy savings,NA,NA
NA,NA,NA,NA,NA,choice_trial_setup,html-keyboard-response,58,120429,0.0-4.0-0.27,290,1,2025-05-07T19:21:48Z,b60275e29fe2361ab97ac0ac217840d7,"Mozilla/5.0 (Macintosh; Intel Mac OS X 10_15_7) AppleWebKit/605.1.15 (KHTML, like Gecko) Version/18.4 Safari/605.1.15",Macintosh,Safari,18.4,OS X,10_15_7,https://5puzkbbxv1.cognition.run/?sona_id=54489,"en-US,en;q=0.9",utte7z0x8p6594t,20,"[""White""]",No,Female,n/a,Yes,227796,NA,null,<p></p>,null,choice,dtc,trinary,repulsion_A,2,washing machines,null,null,null,null,null,null,1,NA,NA,NA,NA,NA,NA,NA,NA,NA,NA
NA,NA,NA,NA,NA,choice_trial,survey-html-form,59,123257,0.0-4.0-1.27,290,1,2025-05-07T19:21:48Z,b60275e29fe2361ab97ac0ac217840d7,"Mozilla/5.0 (Macintosh; Intel Mac OS X 10_15_7) AppleWebKit/605.1.15 (KHTML, like Gecko) Version/18.4 Safari/605.1.15",Macintosh,Safari,18.4,OS X,10_15_7,https://5puzkbbxv1.cognition.run/?sona_id=54489,"en-US,en;q=0.9",utte7z0x8p6594t,20,"[""White""]",No,Female,n/a,Yes,227796,NA,2824,NA,"{""product_choice"":""B""}",choice,dtc,trinary,repulsion_A,2,washing machines,null,null,null,null,null,null,1,30,40,20,100,90,100,Average lifespan,Energy savings,NA,NA
NA,NA,NA,NA,NA,choice_trial_setup,html-keyboard-response,60,123561,0.0-4.0-0.28,290,1,2025-05-07T19:21:48Z,b60275e29fe2361ab97ac0ac217840d7,"Mozilla/5.0 (Macintosh; Intel Mac OS X 10_15_7) AppleWebKit/605.1.15 (KHTML, like Gecko) Version/18.4 Safari/605.1.15",Macintosh,Safari,18.4,OS X,10_15_7,https://5puzkbbxv1.cognition.run/?sona_id=54489,"en-US,en;q=0.9",utte7z0x8p6594t,20,"[""White""]",No,Female,n/a,Yes,227796,NA,null,<p></p>,null,choice,wbw,trinary,catch,null,laptops,75,95,20,45,5,25,2,NA,NA,NA,NA,NA,NA,NA,NA,NA,NA
NA,NA,NA,NA,NA,choice_trial,survey-html-form,61,125823,0.0-4.0-1.28,290,1,2025-05-07T19:21:48Z,b60275e29fe2361ab97ac0ac217840d7,"Mozilla/5.0 (Macintosh; Intel Mac OS X 10_15_7) AppleWebKit/605.1.15 (KHTML, like Gecko) Version/18.4 Safari/605.1.15",Macintosh,Safari,18.4,OS X,10_15_7,https://5puzkbbxv1.cognition.run/?sona_id=54489,"en-US,en;q=0.9",utte7z0x8p6594t,20,"[""White""]",No,Female,n/a,Yes,227796,NA,2257,NA,"{""product_choice"":""C""}",choice,wbw,trinary,catch,null,laptops,75,95,20,45,5,25,2,null,null,null,null,null,null,Processing speed,Memory (RAM),NA,NA
NA,NA,NA,NA,NA,choice_trial_setup,html-keyboard-response,62,126127,0.0-4.0-0.29,290,1,2025-05-07T19:21:48Z,b60275e29fe2361ab97ac0ac217840d7,"Mozilla/5.0 (Macintosh; Intel Mac OS X 10_15_7) AppleWebKit/605.1.15 (KHTML, like Gecko) Version/18.4 Safari/605.1.15",Macintosh,Safari,18.4,OS X,10_15_7,https://5puzkbbxv1.cognition.run/?sona_id=54489,"en-US,en;q=0.9",utte7z0x8p6594t,20,"[""White""]",No,Female,n/a,Yes,227796,NA,null,<p></p>,null,choice,dct,trinary,repulsion_B,2,laptops,null,null,null,null,null,null,2,NA,NA,NA,NA,NA,NA,NA,NA,NA,NA
NA,NA,NA,NA,NA,choice_trial,survey-html-form,63,128157,0.0-4.0-1.29,290,1,2025-05-07T19:21:48Z,b60275e29fe2361ab97ac0ac217840d7,"Mozilla/5.0 (Macintosh; Intel Mac OS X 10_15_7) AppleWebKit/605.1.15 (KHTML, like Gecko) Version/18.4 Safari/605.1.15",Macintosh,Safari,18.4,OS X,10_15_7,https://5puzkbbxv1.cognition.run/?sona_id=54489,"en-US,en;q=0.9",utte7z0x8p6594t,20,"[""White""]",No,Female,n/a,Yes,227796,NA,2026,NA,"{""product_choice"":""A""}",choice,dct,trinary,repulsion_B,2,laptops,null,null,null,null,null,null,2,40,30,40,90,100,80,Processing speed,Memory (RAM),NA,NA
NA,NA,NA,NA,NA,choice_trial_setup,html-keyboard-response,64,128462,0.0-4.0-0.30,290,1,2025-05-07T19:21:48Z,b60275e29fe2361ab97ac0ac217840d7,"Mozilla/5.0 (Macintosh; Intel Mac OS X 10_15_7) AppleWebKit/605.1.15 (KHTML, like Gecko) Version/18.4 Safari/605.1.15",Macintosh,Safari,18.4,OS X,10_15_7,https://5puzkbbxv1.cognition.run/?sona_id=54489,"en-US,en;q=0.9",utte7z0x8p6594t,20,"[""White""]",No,Female,n/a,Yes,227796,NA,null,<p></p>,null,choice,tdc,trinary,attraction,2,microwave ovens,null,null,null,null,null,null,1,NA,NA,NA,NA,NA,NA,NA,NA,NA,NA
NA,NA,NA,NA,NA,choice_trial,survey-html-form,65,131859,0.0-4.0-1.30,290,1,2025-05-07T19:21:48Z,b60275e29fe2361ab97ac0ac217840d7,"Mozilla/5.0 (Macintosh; Intel Mac OS X 10_15_7) AppleWebKit/605.1.15 (KHTML, like Gecko) Version/18.4 Safari/605.1.15",Macintosh,Safari,18.4,OS X,10_15_7,https://5puzkbbxv1.cognition.run/?sona_id=54489,"en-US,en;q=0.9",utte7z0x8p6594t,20,"[""White""]",No,Female,n/a,Yes,227796,NA,3392,NA,"{""product_choice"":""B""}",choice,tdc,trinary,attraction,2,microwave ovens,null,null,null,null,null,null,1,50,60,40,60,50,60,Warranty,Cooking power,NA,NA
NA,NA,NA,NA,NA,choice_trial_setup,html-keyboard-response,66,132164,0.0-4.0-0.31,290,1,2025-05-07T19:21:48Z,b60275e29fe2361ab97ac0ac217840d7,"Mozilla/5.0 (Macintosh; Intel Mac OS X 10_15_7) AppleWebKit/605.1.15 (KHTML, like Gecko) Version/18.4 Safari/605.1.15",Macintosh,Safari,18.4,OS X,10_15_7,https://5puzkbbxv1.cognition.run/?sona_id=54489,"en-US,en;q=0.9",utte7z0x8p6594t,20,"[""White""]",No,Female,n/a,Yes,227796,NA,null,<p></p>,null,choice,tcd,trinary,repulsion_A,2,televisions,null,null,null,null,null,null,2,NA,NA,NA,NA,NA,NA,NA,NA,NA,NA
NA,NA,NA,NA,NA,choice_trial,survey-html-form,67,141007,0.0-4.0-1.31,290,1,2025-05-07T19:21:48Z,b60275e29fe2361ab97ac0ac217840d7,"Mozilla/5.0 (Macintosh; Intel Mac OS X 10_15_7) AppleWebKit/605.1.15 (KHTML, like Gecko) Version/18.4 Safari/605.1.15",Macintosh,Safari,18.4,OS X,10_15_7,https://5puzkbbxv1.cognition.run/?sona_id=54489,"en-US,en;q=0.9",utte7z0x8p6594t,20,"[""White""]",No,Female,n/a,Yes,227796,NA,8838,NA,"{""product_choice"":""B""}",choice,tcd,trinary,repulsion_A,2,televisions,null,null,null,null,null,null,2,30,40,20,100,90,100,Screen size,Average lifespan,NA,NA
NA,NA,NA,NA,NA,choice_trial_setup,html-keyboard-response,68,141311,0.0-4.0-0.32,290,1,2025-05-07T19:21:48Z,b60275e29fe2361ab97ac0ac217840d7,"Mozilla/5.0 (Macintosh; Intel Mac OS X 10_15_7) AppleWebKit/605.1.15 (KHTML, like Gecko) Version/18.4 Safari/605.1.15",Macintosh,Safari,18.4,OS X,10_15_7,https://5puzkbbxv1.cognition.run/?sona_id=54489,"en-US,en;q=0.9",utte7z0x8p6594t,20,"[""White""]",No,Female,n/a,Yes,227796,NA,null,<p></p>,null,choice,dtc,trinary,repulsion_A,2,laptops,null,null,null,null,null,null,1,NA,NA,NA,NA,NA,NA,NA,NA,NA,NA
NA,NA,NA,NA,NA,choice_trial,survey-html-form,69,145740,0.0-4.0-1.32,290,1,2025-05-07T19:21:48Z,b60275e29fe2361ab97ac0ac217840d7,"Mozilla/5.0 (Macintosh; Intel Mac OS X 10_15_7) AppleWebKit/605.1.15 (KHTML, like Gecko) Version/18.4 Safari/605.1.15",Macintosh,Safari,18.4,OS X,10_15_7,https://5puzkbbxv1.cognition.run/?sona_id=54489,"en-US,en;q=0.9",utte7z0x8p6594t,20,"[""White""]",No,Female,n/a,Yes,227796,NA,4424,NA,"{""product_choice"":""B""}",choice,dtc,trinary,repulsion_A,2,laptops,null,null,null,null,null,null,1,30,40,20,100,90,100,Processing speed,Memory (RAM),NA,NA
NA,NA,NA,NA,NA,choice_trial_setup,html-keyboard-response,70,146044,0.0-4.0-0.33,290,1,2025-05-07T19:21:48Z,b60275e29fe2361ab97ac0ac217840d7,"Mozilla/5.0 (Macintosh; Intel Mac OS X 10_15_7) AppleWebKit/605.1.15 (KHTML, like Gecko) Version/18.4 Safari/605.1.15",Macintosh,Safari,18.4,OS X,10_15_7,https://5puzkbbxv1.cognition.run/?sona_id=54489,"en-US,en;q=0.9",utte7z0x8p6594t,20,"[""White""]",No,Female,n/a,Yes,227796,NA,null,<p></p>,null,choice,tcd,trinary,repulsion_B,1,microwave ovens,null,null,null,null,null,null,2,NA,NA,NA,NA,NA,NA,NA,NA,NA,NA
NA,NA,NA,NA,NA,choice_trial,survey-html-form,71,147591,0.0-4.0-1.33,290,1,2025-05-07T19:21:48Z,b60275e29fe2361ab97ac0ac217840d7,"Mozilla/5.0 (Macintosh; Intel Mac OS X 10_15_7) AppleWebKit/605.1.15 (KHTML, like Gecko) Version/18.4 Safari/605.1.15",Macintosh,Safari,18.4,OS X,10_15_7,https://5puzkbbxv1.cognition.run/?sona_id=54489,"en-US,en;q=0.9",utte7z0x8p6594t,20,"[""White""]",No,Female,n/a,Yes,227796,NA,1542,NA,"{""product_choice"":""B""}",choice,tcd,trinary,repulsion_B,1,microwave ovens,null,null,null,null,null,null,2,90,100,80,40,30,40,Warranty,Cooking power,NA,NA
NA,NA,NA,NA,NA,choice_trial_setup,html-keyboard-response,72,147896,0.0-4.0-0.34,290,1,2025-05-07T19:21:48Z,b60275e29fe2361ab97ac0ac217840d7,"Mozilla/5.0 (Macintosh; Intel Mac OS X 10_15_7) AppleWebKit/605.1.15 (KHTML, like Gecko) Version/18.4 Safari/605.1.15",Macintosh,Safari,18.4,OS X,10_15_7,https://5puzkbbxv1.cognition.run/?sona_id=54489,"en-US,en;q=0.9",utte7z0x8p6594t,20,"[""White""]",No,Female,n/a,Yes,227796,NA,null,<p></p>,null,choice,tcd,trinary,repulsion_A,1,washing machines,null,null,null,null,null,null,2,NA,NA,NA,NA,NA,NA,NA,NA,NA,NA
NA,NA,NA,NA,NA,choice_trial,survey-html-form,73,149372,0.0-4.0-1.34,290,1,2025-05-07T19:21:48Z,b60275e29fe2361ab97ac0ac217840d7,"Mozilla/5.0 (Macintosh; Intel Mac OS X 10_15_7) AppleWebKit/605.1.15 (KHTML, like Gecko) Version/18.4 Safari/605.1.15",Macintosh,Safari,18.4,OS X,10_15_7,https://5puzkbbxv1.cognition.run/?sona_id=54489,"en-US,en;q=0.9",utte7z0x8p6594t,20,"[""White""]",No,Female,n/a,Yes,227796,NA,1471,NA,"{""product_choice"":""B""}",choice,tcd,trinary,repulsion_A,1,washing machines,null,null,null,null,null,null,2,100,90,100,30,40,20,Average lifespan,Energy savings,NA,NA
NA,NA,NA,NA,NA,choice_trial_setup,html-keyboard-response,74,149675,0.0-4.0-0.35,290,1,2025-05-07T19:21:48Z,b60275e29fe2361ab97ac0ac217840d7,"Mozilla/5.0 (Macintosh; Intel Mac OS X 10_15_7) AppleWebKit/605.1.15 (KHTML, like Gecko) Version/18.4 Safari/605.1.15",Macintosh,Safari,18.4,OS X,10_15_7,https://5puzkbbxv1.cognition.run/?sona_id=54489,"en-US,en;q=0.9",utte7z0x8p6594t,20,"[""White""]",No,Female,n/a,Yes,227796,NA,null,<p></p>,null,choice,bw,binary,catch,null,microwave ovens,80,70,30,50,null,null,1,NA,NA,NA,NA,NA,NA,NA,NA,NA,NA
NA,NA,NA,NA,NA,choice_trial,survey-html-form,75,151691,0.0-4.0-1.35,290,1,2025-05-07T19:21:48Z,b60275e29fe2361ab97ac0ac217840d7,"Mozilla/5.0 (Macintosh; Intel Mac OS X 10_15_7) AppleWebKit/605.1.15 (KHTML, like Gecko) Version/18.4 Safari/605.1.15",Macintosh,Safari,18.4,OS X,10_15_7,https://5puzkbbxv1.cognition.run/?sona_id=54489,"en-US,en;q=0.9",utte7z0x8p6594t,20,"[""White""]",No,Female,n/a,Yes,227796,NA,2013,NA,"{""product_choice"":""A""}",choice,bw,binary,catch,null,microwave ovens,80,70,30,50,null,null,1,null,null,null,null,null,null,Warranty,Cooking power,NA,NA
NA,NA,NA,NA,NA,choice_trial_setup,html-keyboard-response,76,151995,0.0-4.0-0.36,290,1,2025-05-07T19:21:48Z,b60275e29fe2361ab97ac0ac217840d7,"Mozilla/5.0 (Macintosh; Intel Mac OS X 10_15_7) AppleWebKit/605.1.15 (KHTML, like Gecko) Version/18.4 Safari/605.1.15",Macintosh,Safari,18.4,OS X,10_15_7,https://5puzkbbxv1.cognition.run/?sona_id=54489,"en-US,en;q=0.9",utte7z0x8p6594t,20,"[""White""]",No,Female,n/a,Yes,227796,NA,null,<p></p>,null,choice,ct,binary,attraction,NA,laptops,null,null,null,null,null,null,2,NA,NA,NA,NA,NA,NA,NA,NA,NA,NA
NA,NA,NA,NA,NA,choice_trial,survey-html-form,77,153691,0.0-4.0-1.36,290,1,2025-05-07T19:21:48Z,b60275e29fe2361ab97ac0ac217840d7,"Mozilla/5.0 (Macintosh; Intel Mac OS X 10_15_7) AppleWebKit/605.1.15 (KHTML, like Gecko) Version/18.4 Safari/605.1.15",Macintosh,Safari,18.4,OS X,10_15_7,https://5puzkbbxv1.cognition.run/?sona_id=54489,"en-US,en;q=0.9",utte7z0x8p6594t,20,"[""White""]",No,Female,n/a,Yes,227796,NA,1691,NA,"{""product_choice"":""A""}",choice,ct,binary,attraction,NA,laptops,null,null,null,null,null,null,2,60,50,null,50,60,null,Processing speed,Memory (RAM),NA,NA
NA,NA,NA,NA,NA,choice_trial_setup,html-keyboard-response,78,153995,0.0-4.0-0.37,290,1,2025-05-07T19:21:48Z,b60275e29fe2361ab97ac0ac217840d7,"Mozilla/5.0 (Macintosh; Intel Mac OS X 10_15_7) AppleWebKit/605.1.15 (KHTML, like Gecko) Version/18.4 Safari/605.1.15",Macintosh,Safari,18.4,OS X,10_15_7,https://5puzkbbxv1.cognition.run/?sona_id=54489,"en-US,en;q=0.9",utte7z0x8p6594t,20,"[""White""]",No,Female,n/a,Yes,227796,NA,null,<p></p>,null,choice,wb,binary,catch,null,laptops,55,90,45,35,null,null,1,NA,NA,NA,NA,NA,NA,NA,NA,NA,NA
NA,NA,NA,NA,NA,choice_trial,survey-html-form,79,155357,0.0-4.0-1.37,290,1,2025-05-07T19:21:48Z,b60275e29fe2361ab97ac0ac217840d7,"Mozilla/5.0 (Macintosh; Intel Mac OS X 10_15_7) AppleWebKit/605.1.15 (KHTML, like Gecko) Version/18.4 Safari/605.1.15",Macintosh,Safari,18.4,OS X,10_15_7,https://5puzkbbxv1.cognition.run/?sona_id=54489,"en-US,en;q=0.9",utte7z0x8p6594t,20,"[""White""]",No,Female,n/a,Yes,227796,NA,1357,NA,"{""product_choice"":""B""}",choice,wb,binary,catch,null,laptops,55,90,45,35,null,null,1,null,null,null,null,null,null,Processing speed,Memory (RAM),NA,NA
NA,NA,NA,NA,NA,choice_trial_setup,html-keyboard-response,80,155662,0.0-4.0-0.38,290,1,2025-05-07T19:21:48Z,b60275e29fe2361ab97ac0ac217840d7,"Mozilla/5.0 (Macintosh; Intel Mac OS X 10_15_7) AppleWebKit/605.1.15 (KHTML, like Gecko) Version/18.4 Safari/605.1.15",Macintosh,Safari,18.4,OS X,10_15_7,https://5puzkbbxv1.cognition.run/?sona_id=54489,"en-US,en;q=0.9",utte7z0x8p6594t,20,"[""White""]",No,Female,n/a,Yes,227796,NA,null,<p></p>,null,choice,ct,binary,repulsion,2,laptops,null,null,null,null,null,null,2,NA,NA,NA,NA,NA,NA,NA,NA,NA,NA
NA,NA,NA,NA,NA,choice_trial,survey-html-form,81,159957,0.0-4.0-1.38,290,1,2025-05-07T19:21:48Z,b60275e29fe2361ab97ac0ac217840d7,"Mozilla/5.0 (Macintosh; Intel Mac OS X 10_15_7) AppleWebKit/605.1.15 (KHTML, like Gecko) Version/18.4 Safari/605.1.15",Macintosh,Safari,18.4,OS X,10_15_7,https://5puzkbbxv1.cognition.run/?sona_id=54489,"en-US,en;q=0.9",utte7z0x8p6594t,20,"[""White""]",No,Female,n/a,Yes,227796,NA,4290,NA,"{""product_choice"":""B""}",choice,ct,binary,repulsion,2,laptops,null,null,null,null,null,null,2,30,40,null,100,90,null,Processing speed,Memory (RAM),NA,NA
NA,NA,NA,NA,NA,choice_trial_setup,html-keyboard-response,82,160262,0.0-4.0-0.39,290,1,2025-05-07T19:21:48Z,b60275e29fe2361ab97ac0ac217840d7,"Mozilla/5.0 (Macintosh; Intel Mac OS X 10_15_7) AppleWebKit/605.1.15 (KHTML, like Gecko) Version/18.4 Safari/605.1.15",Macintosh,Safari,18.4,OS X,10_15_7,https://5puzkbbxv1.cognition.run/?sona_id=54489,"en-US,en;q=0.9",utte7z0x8p6594t,20,"[""White""]",No,Female,n/a,Yes,227796,NA,null,<p></p>,null,choice,wwb,trinary,catch,null,microwave ovens,60,65,15,50,10,10,1,NA,NA,NA,NA,NA,NA,NA,NA,NA,NA
NA,NA,NA,NA,NA,choice_trial,survey-html-form,83,162141,0.0-4.0-1.39,290,1,2025-05-07T19:21:48Z,b60275e29fe2361ab97ac0ac217840d7,"Mozilla/5.0 (Macintosh; Intel Mac OS X 10_15_7) AppleWebKit/605.1.15 (KHTML, like Gecko) Version/18.4 Safari/605.1.15",Macintosh,Safari,18.4,OS X,10_15_7,https://5puzkbbxv1.cognition.run/?sona_id=54489,"en-US,en;q=0.9",utte7z0x8p6594t,20,"[""White""]",No,Female,n/a,Yes,227796,NA,1875,NA,"{""product_choice"":""B""}",choice,wwb,trinary,catch,null,microwave ovens,60,65,15,50,10,10,1,null,null,null,null,null,null,Warranty,Cooking power,NA,NA
NA,NA,NA,NA,NA,choice_trial_setup,html-keyboard-response,84,162446,0.0-4.0-0.40,290,1,2025-05-07T19:21:48Z,b60275e29fe2361ab97ac0ac217840d7,"Mozilla/5.0 (Macintosh; Intel Mac OS X 10_15_7) AppleWebKit/605.1.15 (KHTML, like Gecko) Version/18.4 Safari/605.1.15",Macintosh,Safari,18.4,OS X,10_15_7,https://5puzkbbxv1.cognition.run/?sona_id=54489,"en-US,en;q=0.9",utte7z0x8p6594t,20,"[""White""]",No,Female,n/a,Yes,227796,NA,null,<p></p>,null,choice,wb,binary,catch,null,televisions,80,85,40,10,null,null,1,NA,NA,NA,NA,NA,NA,NA,NA,NA,NA
NA,NA,NA,NA,NA,choice_trial,survey-html-form,85,164725,0.0-4.0-1.40,290,1,2025-05-07T19:21:48Z,b60275e29fe2361ab97ac0ac217840d7,"Mozilla/5.0 (Macintosh; Intel Mac OS X 10_15_7) AppleWebKit/605.1.15 (KHTML, like Gecko) Version/18.4 Safari/605.1.15",Macintosh,Safari,18.4,OS X,10_15_7,https://5puzkbbxv1.cognition.run/?sona_id=54489,"en-US,en;q=0.9",utte7z0x8p6594t,20,"[""White""]",No,Female,n/a,Yes,227796,NA,2270,NA,"{""product_choice"":""B""}",choice,wb,binary,catch,null,televisions,80,85,40,10,null,null,1,null,null,null,null,null,null,Screen size,Average lifespan,NA,NA
NA,NA,NA,NA,NA,choice_trial_setup,html-keyboard-response,86,165031,0.0-4.0-0.41,290,1,2025-05-07T19:21:48Z,b60275e29fe2361ab97ac0ac217840d7,"Mozilla/5.0 (Macintosh; Intel Mac OS X 10_15_7) AppleWebKit/605.1.15 (KHTML, like Gecko) Version/18.4 Safari/605.1.15",Macintosh,Safari,18.4,OS X,10_15_7,https://5puzkbbxv1.cognition.run/?sona_id=54489,"en-US,en;q=0.9",utte7z0x8p6594t,20,"[""White""]",No,Female,n/a,Yes,227796,NA,null,<p></p>,null,choice,cdt,trinary,attraction,2,televisions,null,null,null,null,null,null,2,NA,NA,NA,NA,NA,NA,NA,NA,NA,NA
NA,NA,NA,NA,NA,choice_trial,survey-html-form,87,167743,0.0-4.0-1.41,290,1,2025-05-07T19:21:48Z,b60275e29fe2361ab97ac0ac217840d7,"Mozilla/5.0 (Macintosh; Intel Mac OS X 10_15_7) AppleWebKit/605.1.15 (KHTML, like Gecko) Version/18.4 Safari/605.1.15",Macintosh,Safari,18.4,OS X,10_15_7,https://5puzkbbxv1.cognition.run/?sona_id=54489,"en-US,en;q=0.9",utte7z0x8p6594t,20,"[""White""]",No,Female,n/a,Yes,227796,NA,2707,NA,"{""product_choice"":""C""}",choice,cdt,trinary,attraction,2,televisions,null,null,null,null,null,null,2,50,60,40,60,50,60,Screen size,Average lifespan,NA,NA
NA,NA,NA,NA,NA,choice_trial_setup,html-keyboard-response,88,168048,0.0-4.0-0.42,290,1,2025-05-07T19:21:48Z,b60275e29fe2361ab97ac0ac217840d7,"Mozilla/5.0 (Macintosh; Intel Mac OS X 10_15_7) AppleWebKit/605.1.15 (KHTML, like Gecko) Version/18.4 Safari/605.1.15",Macintosh,Safari,18.4,OS X,10_15_7,https://5puzkbbxv1.cognition.run/?sona_id=54489,"en-US,en;q=0.9",utte7z0x8p6594t,20,"[""White""]",No,Female,n/a,Yes,227796,NA,null,<p></p>,null,choice,tdc,trinary,repulsion_B,2,microwave ovens,null,null,null,null,null,null,2,NA,NA,NA,NA,NA,NA,NA,NA,NA,NA
NA,NA,NA,NA,NA,choice_trial,survey-html-form,89,169742,0.0-4.0-1.42,290,1,2025-05-07T19:21:48Z,b60275e29fe2361ab97ac0ac217840d7,"Mozilla/5.0 (Macintosh; Intel Mac OS X 10_15_7) AppleWebKit/605.1.15 (KHTML, like Gecko) Version/18.4 Safari/605.1.15",Macintosh,Safari,18.4,OS X,10_15_7,https://5puzkbbxv1.cognition.run/?sona_id=54489,"en-US,en;q=0.9",utte7z0x8p6594t,20,"[""White""]",No,Female,n/a,Yes,227796,NA,1688,NA,"{""product_choice"":""B""}",choice,tdc,trinary,repulsion_B,2,microwave ovens,null,null,null,null,null,null,2,40,30,40,90,100,80,Warranty,Cooking power,NA,NA
NA,NA,NA,NA,NA,choice_trial_setup,html-keyboard-response,90,170045,0.0-4.0-0.43,290,1,2025-05-07T19:21:48Z,b60275e29fe2361ab97ac0ac217840d7,"Mozilla/5.0 (Macintosh; Intel Mac OS X 10_15_7) AppleWebKit/605.1.15 (KHTML, like Gecko) Version/18.4 Safari/605.1.15",Macintosh,Safari,18.4,OS X,10_15_7,https://5puzkbbxv1.cognition.run/?sona_id=54489,"en-US,en;q=0.9",utte7z0x8p6594t,20,"[""White""]",No,Female,n/a,Yes,227796,NA,null,<p></p>,null,choice,ct,binary,repulsion,1,televisions,null,null,null,null,null,null,2,NA,NA,NA,NA,NA,NA,NA,NA,NA,NA
NA,NA,NA,NA,NA,choice_trial,survey-html-form,91,171358,0.0-4.0-1.43,290,1,2025-05-07T19:21:48Z,b60275e29fe2361ab97ac0ac217840d7,"Mozilla/5.0 (Macintosh; Intel Mac OS X 10_15_7) AppleWebKit/605.1.15 (KHTML, like Gecko) Version/18.4 Safari/605.1.15",Macintosh,Safari,18.4,OS X,10_15_7,https://5puzkbbxv1.cognition.run/?sona_id=54489,"en-US,en;q=0.9",utte7z0x8p6594t,20,"[""White""]",No,Female,n/a,Yes,227796,NA,1308,NA,"{""product_choice"":""B""}",choice,ct,binary,repulsion,1,televisions,null,null,null,null,null,null,2,100,90,null,30,40,null,Screen size,Average lifespan,NA,NA
NA,NA,NA,NA,NA,post_trials_message,html-button-response,92,174212,0.0-5.0,290,1,2025-05-07T19:21:48Z,b60275e29fe2361ab97ac0ac217840d7,"Mozilla/5.0 (Macintosh; Intel Mac OS X 10_15_7) AppleWebKit/605.1.15 (KHTML, like Gecko) Version/18.4 Safari/605.1.15",Macintosh,Safari,18.4,OS X,10_15_7,https://5puzkbbxv1.cognition.run/?sona_id=54489,"en-US,en;q=0.9",utte7z0x8p6594t,20,"[""White""]",No,Female,n/a,Yes,227796,NA,2849,<p> <b>Thank you for your patience!</b></p><p>  The study will be done after completing a brief form. </p>,0,NA,NA,NA,NA,NA,NA,NA,NA,NA,NA,NA,NA,NA,NA,NA,NA,NA,NA,NA,NA,NA,NA,NA
NA,NA,NA,NA,NA,survey_message,survey-text,93,196576,0.0-6.0,290,1,2025-05-07T19:21:48Z,b60275e29fe2361ab97ac0ac217840d7,"Mozilla/5.0 (Macintosh; Intel Mac OS X 10_15_7) AppleWebKit/605.1.15 (KHTML, like Gecko) Version/18.4 Safari/605.1.15",Macintosh,Safari,18.4,OS X,10_15_7,https://5puzkbbxv1.cognition.run/?sona_id=54489,"en-US,en;q=0.9",utte7z0x8p6594t,20,"[""White""]",No,Female,n/a,Yes,227796,NA,22353,NA,"{""Q0"":""I chose the ones that had the best lifespan ""}",NA,NA,NA,NA,NA,NA,NA,NA,NA,NA,NA,NA,NA,NA,NA,NA,NA,NA,NA,NA,NA,I chose the ones that had the best lifespan,NA
NA,NA,NA,NA,NA,demo_age,survey-text,94,199325,0.0-7.0,290,1,2025-05-07T19:21:48Z,b60275e29fe2361ab97ac0ac217840d7,"Mozilla/5.0 (Macintosh; Intel Mac OS X 10_15_7) AppleWebKit/605.1.15 (KHTML, like Gecko) Version/18.4 Safari/605.1.15",Macintosh,Safari,18.4,OS X,10_15_7,https://5puzkbbxv1.cognition.run/?sona_id=54489,"en-US,en;q=0.9",utte7z0x8p6594t,20,"[""White""]",No,Female,n/a,Yes,227796,NA,2739,NA,"{""Q0"":""20""}",NA,NA,NA,NA,NA,NA,NA,NA,NA,NA,NA,NA,NA,NA,NA,NA,NA,NA,NA,NA,NA,NA,NA
NA,NA,NA,NA,NA,demo_race,survey-multi-select,95,203195,0.0-8.0,290,1,2025-05-07T19:21:48Z,b60275e29fe2361ab97ac0ac217840d7,"Mozilla/5.0 (Macintosh; Intel Mac OS X 10_15_7) AppleWebKit/605.1.15 (KHTML, like Gecko) Version/18.4 Safari/605.1.15",Macintosh,Safari,18.4,OS X,10_15_7,https://5puzkbbxv1.cognition.run/?sona_id=54489,"en-US,en;q=0.9",utte7z0x8p6594t,20,"[""White""]",No,Female,n/a,Yes,227796,NA,3865,NA,"{""Q0"":[""White""]}",NA,NA,NA,NA,NA,NA,NA,NA,NA,NA,NA,NA,NA,NA,NA,NA,NA,NA,NA,NA,NA,NA,[0]
NA,NA,NA,NA,NA,demo_ethnicity_gender,survey-multi-choice,96,207425,0.0-9.0,290,1,2025-05-07T19:21:48Z,b60275e29fe2361ab97ac0ac217840d7,"Mozilla/5.0 (Macintosh; Intel Mac OS X 10_15_7) AppleWebKit/605.1.15 (KHTML, like Gecko) Version/18.4 Safari/605.1.15",Macintosh,Safari,18.4,OS X,10_15_7,https://5puzkbbxv1.cognition.run/?sona_id=54489,"en-US,en;q=0.9",utte7z0x8p6594t,20,"[""White""]",No,Female,n/a,Yes,227796,NA,4224,NA,"{""Q0"":""No"",""Q1"":""Female""}",NA,NA,NA,NA,NA,NA,NA,NA,NA,NA,NA,NA,NA,NA,NA,NA,NA,NA,NA,NA,NA,NA,"[0,1]"
NA,NA,NA,NA,NA,demo_countries,survey-text,97,215462,0.0-10.0,290,1,2025-05-07T19:21:48Z,b60275e29fe2361ab97ac0ac217840d7,"Mozilla/5.0 (Macintosh; Intel Mac OS X 10_15_7) AppleWebKit/605.1.15 (KHTML, like Gecko) Version/18.4 Safari/605.1.15",Macintosh,Safari,18.4,OS X,10_15_7,https://5puzkbbxv1.cognition.run/?sona_id=54489,"en-US,en;q=0.9",utte7z0x8p6594t,20,"[""White""]",No,Female,n/a,Yes,227796,NA,8029,NA,"{""Q0"":""n/a""}",NA,NA,NA,NA,NA,NA,NA,NA,NA,NA,NA,NA,NA,NA,NA,NA,NA,NA,NA,NA,NA,NA,NA
NA,NA,NA,NA,NA,demo_prev_study,survey-multi-choice,98,218091,0.0-11.0,290,1,2025-05-07T19:21:48Z,b60275e29fe2361ab97ac0ac217840d7,"Mozilla/5.0 (Macintosh; Intel Mac OS X 10_15_7) AppleWebKit/605.1.15 (KHTML, like Gecko) Version/18.4 Safari/605.1.15",Macintosh,Safari,18.4,OS X,10_15_7,https://5puzkbbxv1.cognition.run/?sona_id=54489,"en-US,en;q=0.9",utte7z0x8p6594t,20,"[""White""]",No,Female,n/a,Yes,227796,NA,2625,NA,"{""Q0"":""Yes""}",NA,NA,NA,NA,NA,NA,NA,NA,NA,NA,NA,NA,NA,NA,NA,NA,NA,NA,NA,NA,NA,NA,[0]
NA,NA,NA,NA,NA,post_survey_message,html-keyboard-response,99,221043,0.0-12.0,290,1,2025-05-07T19:21:48Z,b60275e29fe2361ab97ac0ac217840d7,"Mozilla/5.0 (Macintosh; Intel Mac OS X 10_15_7) AppleWebKit/605.1.15 (KHTML, like Gecko) Version/18.4 Safari/605.1.15",Macintosh,Safari,18.4,OS X,10_15_7,https://5puzkbbxv1.cognition.run/?sona_id=54489,"en-US,en;q=0.9",utte7z0x8p6594t,20,"[""White""]",No,Female,n/a,Yes,227796,NA,2946,NA,j,NA,NA,NA,NA,NA,NA,NA,NA,NA,NA,NA,NA,NA,NA,NA,NA,NA,NA,NA,NA,NA,NA,NA
NA,NA,NA,NA,NA,debrief,image-keyboard-response,100,227795,0.0-13.0,290,1,2025-05-07T19:21:48Z,b60275e29fe2361ab97ac0ac217840d7,"Mozilla/5.0 (Macintosh; Intel Mac OS X 10_15_7) AppleWebKit/605.1.15 (KHTML, like Gecko) Version/18.4 Safari/605.1.15",Macintosh,Safari,18.4,OS X,10_15_7,https://5puzkbbxv1.cognition.run/?sona_id=54489,"en-US,en;q=0.9",utte7z0x8p6594t,20,"[""White""]",No,Female,n/a,Yes,227796,NA,6726,Judg_choice_debrief.png,p,NA,NA,NA,NA,NA,NA,NA,NA,NA,NA,NA,NA,NA,NA,NA,NA,NA,NA,NA,NA,NA,NA,NA
