success,timeout,failed_images,failed_audio,failed_video,screen_id,trial_type,trial_index,time_elapsed,internal_node_id,run_id,condition,recorded_at,source_code_version,user_agent,device,browser,browser_version,platform,platform_version,referer,accept_language,ppt_id,age,race,ethnicity,gender,other_countries,prev_study,exp_duration,view_history,rt,stimulus,response,phase,order,set,effect,t_high,category,d1_best,d2_best,d1_worst1,d2_worst1,d1_worst2,d2_worst2,first_dim,d1_t,d1_c,d1_d,d2_t,d2_c,d2_d,d1_name,d2_name,strategy_response,question_order
TRUE,FALSE,[],[],[],img preload,preload,0,526,0.0-0.0,291,1,2025-05-07T19:30:39Z,b60275e29fe2361ab97ac0ac217840d7,"Mozilla/5.0 (Macintosh; Intel Mac OS X 10_15_7) AppleWebKit/537.36 (KHTML, like Gecko) Chrome/133.0.0.0 Safari/537.36",Macintosh,Chrome,133.0.0.0,OS X,10_15_7,https://5puzkbbxv1.cognition.run/?sona_id=58253,"en-US,en;q=0.9",u4ggghq6b6zwtl9,22,"[""White""]",No,Female,Canada 8 months out of year and 4 months in US. Did this for first 6 years of my life.,No,914168.7000000476,NA,NA,NA,NA,NA,NA,NA,NA,NA,NA,NA,NA,NA,NA,NA,NA,NA,NA,NA,NA,NA,NA,NA,NA,NA,NA,NA
NA,NA,NA,NA,NA,computer_message,instructions,1,5349,0.0-1.0,291,1,2025-05-07T19:30:39Z,b60275e29fe2361ab97ac0ac217840d7,"Mozilla/5.0 (Macintosh; Intel Mac OS X 10_15_7) AppleWebKit/537.36 (KHTML, like Gecko) Chrome/133.0.0.0 Safari/537.36",Macintosh,Chrome,133.0.0.0,OS X,10_15_7,https://5puzkbbxv1.cognition.run/?sona_id=58253,"en-US,en;q=0.9",u4ggghq6b6zwtl9,22,"[""White""]",No,Female,Canada 8 months out of year and 4 months in US. Did this for first 6 years of my life.,No,914168.7000000476,"[{""page_index"":0,""viewing_time"":4822}]",4822,NA,NA,NA,NA,NA,NA,NA,NA,NA,NA,NA,NA,NA,NA,NA,NA,NA,NA,NA,NA,NA,NA,NA,NA,NA
TRUE,NA,NA,NA,NA,NA,fullscreen,2,8785,0.0-2.0,291,1,2025-05-07T19:30:39Z,b60275e29fe2361ab97ac0ac217840d7,"Mozilla/5.0 (Macintosh; Intel Mac OS X 10_15_7) AppleWebKit/537.36 (KHTML, like Gecko) Chrome/133.0.0.0 Safari/537.36",Macintosh,Chrome,133.0.0.0,OS X,10_15_7,https://5puzkbbxv1.cognition.run/?sona_id=58253,"en-US,en;q=0.9",u4ggghq6b6zwtl9,22,"[""White""]",No,Female,Canada 8 months out of year and 4 months in US. Did this for first 6 years of my life.,No,914168.7000000476,NA,2432,NA,NA,NA,NA,NA,NA,NA,NA,NA,NA,NA,NA,NA,NA,NA,NA,NA,NA,NA,NA,NA,NA,NA,NA,NA
NA,NA,NA,NA,NA,choice_instructions,instructions,3,48167,0.0-3.0,291,1,2025-05-07T19:30:39Z,b60275e29fe2361ab97ac0ac217840d7,"Mozilla/5.0 (Macintosh; Intel Mac OS X 10_15_7) AppleWebKit/537.36 (KHTML, like Gecko) Chrome/133.0.0.0 Safari/537.36",Macintosh,Chrome,133.0.0.0,OS X,10_15_7,https://5puzkbbxv1.cognition.run/?sona_id=58253,"en-US,en;q=0.9",u4ggghq6b6zwtl9,22,"[""White""]",No,Female,Canada 8 months out of year and 4 months in US. Did this for first 6 years of my life.,No,914168.7000000476,"[{""page_index"":0,""viewing_time"":1415},{""page_index"":1,""viewing_time"":4282},{""page_index"":2,""viewing_time"":4834},{""page_index"":3,""viewing_time"":9333},{""page_index"":4,""viewing_time"":2737},{""page_index"":5,""viewing_time"":7213},{""page_index"":6,""viewing_time"":9568}]",39383,NA,NA,NA,NA,NA,NA,NA,NA,NA,NA,NA,NA,NA,NA,NA,NA,NA,NA,NA,NA,NA,NA,NA,NA,NA
NA,NA,NA,NA,NA,choice_trial_setup,html-keyboard-response,4,48471,0.0-4.0-0.0,291,1,2025-05-07T19:30:39Z,b60275e29fe2361ab97ac0ac217840d7,"Mozilla/5.0 (Macintosh; Intel Mac OS X 10_15_7) AppleWebKit/537.36 (KHTML, like Gecko) Chrome/133.0.0.0 Safari/537.36",Macintosh,Chrome,133.0.0.0,OS X,10_15_7,https://5puzkbbxv1.cognition.run/?sona_id=58253,"en-US,en;q=0.9",u4ggghq6b6zwtl9,22,"[""White""]",No,Female,Canada 8 months out of year and 4 months in US. Did this for first 6 years of my life.,No,914168.7000000476,NA,null,<p></p>,null,choice,tdc,trinary,repulsion_B,2,microwave ovens,null,null,null,null,null,null,1,NA,NA,NA,NA,NA,NA,NA,NA,NA,NA
NA,NA,NA,NA,NA,choice_trial,survey-html-form,5,67136,0.0-4.0-1.0,291,1,2025-05-07T19:30:39Z,b60275e29fe2361ab97ac0ac217840d7,"Mozilla/5.0 (Macintosh; Intel Mac OS X 10_15_7) AppleWebKit/537.36 (KHTML, like Gecko) Chrome/133.0.0.0 Safari/537.36",Macintosh,Chrome,133.0.0.0,OS X,10_15_7,https://5puzkbbxv1.cognition.run/?sona_id=58253,"en-US,en;q=0.9",u4ggghq6b6zwtl9,22,"[""White""]",No,Female,Canada 8 months out of year and 4 months in US. Did this for first 6 years of my life.,No,914168.7000000476,NA,18659,NA,"{""product_choice"":""A""}",choice,tdc,trinary,repulsion_B,2,microwave ovens,null,null,null,null,null,null,1,40,30,40,90,100,80,Warranty,Cooking power,NA,NA
NA,NA,NA,NA,NA,choice_trial_setup,html-keyboard-response,6,67439,0.0-4.0-0.1,291,1,2025-05-07T19:30:39Z,b60275e29fe2361ab97ac0ac217840d7,"Mozilla/5.0 (Macintosh; Intel Mac OS X 10_15_7) AppleWebKit/537.36 (KHTML, like Gecko) Chrome/133.0.0.0 Safari/537.36",Macintosh,Chrome,133.0.0.0,OS X,10_15_7,https://5puzkbbxv1.cognition.run/?sona_id=58253,"en-US,en;q=0.9",u4ggghq6b6zwtl9,22,"[""White""]",No,Female,Canada 8 months out of year and 4 months in US. Did this for first 6 years of my life.,No,914168.7000000476,NA,null,<p></p>,null,choice,bww,trinary,catch,null,laptops,80,80,15,35,15,30,1,NA,NA,NA,NA,NA,NA,NA,NA,NA,NA
NA,NA,NA,NA,NA,choice_trial,survey-html-form,7,87501,0.0-4.0-1.1,291,1,2025-05-07T19:30:39Z,b60275e29fe2361ab97ac0ac217840d7,"Mozilla/5.0 (Macintosh; Intel Mac OS X 10_15_7) AppleWebKit/537.36 (KHTML, like Gecko) Chrome/133.0.0.0 Safari/537.36",Macintosh,Chrome,133.0.0.0,OS X,10_15_7,https://5puzkbbxv1.cognition.run/?sona_id=58253,"en-US,en;q=0.9",u4ggghq6b6zwtl9,22,"[""White""]",No,Female,Canada 8 months out of year and 4 months in US. Did this for first 6 years of my life.,No,914168.7000000476,NA,20060,NA,"{""product_choice"":""A""}",choice,bww,trinary,catch,null,laptops,80,80,15,35,15,30,1,null,null,null,null,null,null,Processing speed,Memory (RAM),NA,NA
NA,NA,NA,NA,NA,choice_trial_setup,html-keyboard-response,8,87804,0.0-4.0-0.2,291,1,2025-05-07T19:30:39Z,b60275e29fe2361ab97ac0ac217840d7,"Mozilla/5.0 (Macintosh; Intel Mac OS X 10_15_7) AppleWebKit/537.36 (KHTML, like Gecko) Chrome/133.0.0.0 Safari/537.36",Macintosh,Chrome,133.0.0.0,OS X,10_15_7,https://5puzkbbxv1.cognition.run/?sona_id=58253,"en-US,en;q=0.9",u4ggghq6b6zwtl9,22,"[""White""]",No,Female,Canada 8 months out of year and 4 months in US. Did this for first 6 years of my life.,No,914168.7000000476,NA,null,<p></p>,null,choice,tc,binary,attraction,NA,laptops,null,null,null,null,null,null,1,NA,NA,NA,NA,NA,NA,NA,NA,NA,NA
NA,NA,NA,NA,NA,choice_trial,survey-html-form,9,96684,0.0-4.0-1.2,291,1,2025-05-07T19:30:39Z,b60275e29fe2361ab97ac0ac217840d7,"Mozilla/5.0 (Macintosh; Intel Mac OS X 10_15_7) AppleWebKit/537.36 (KHTML, like Gecko) Chrome/133.0.0.0 Safari/537.36",Macintosh,Chrome,133.0.0.0,OS X,10_15_7,https://5puzkbbxv1.cognition.run/?sona_id=58253,"en-US,en;q=0.9",u4ggghq6b6zwtl9,22,"[""White""]",No,Female,Canada 8 months out of year and 4 months in US. Did this for first 6 years of my life.,No,914168.7000000476,NA,8877,NA,"{""product_choice"":""A""}",choice,tc,binary,attraction,NA,laptops,null,null,null,null,null,null,1,60,50,null,50,60,null,Processing speed,Memory (RAM),NA,NA
NA,NA,NA,NA,NA,choice_trial_setup,html-keyboard-response,10,96987,0.0-4.0-0.3,291,1,2025-05-07T19:30:39Z,b60275e29fe2361ab97ac0ac217840d7,"Mozilla/5.0 (Macintosh; Intel Mac OS X 10_15_7) AppleWebKit/537.36 (KHTML, like Gecko) Chrome/133.0.0.0 Safari/537.36",Macintosh,Chrome,133.0.0.0,OS X,10_15_7,https://5puzkbbxv1.cognition.run/?sona_id=58253,"en-US,en;q=0.9",u4ggghq6b6zwtl9,22,"[""White""]",No,Female,Canada 8 months out of year and 4 months in US. Did this for first 6 years of my life.,No,914168.7000000476,NA,null,<p></p>,null,choice,ct,binary,repulsion,1,microwave ovens,null,null,null,null,null,null,2,NA,NA,NA,NA,NA,NA,NA,NA,NA,NA
NA,NA,NA,NA,NA,choice_trial,survey-html-form,11,106234,0.0-4.0-1.3,291,1,2025-05-07T19:30:39Z,b60275e29fe2361ab97ac0ac217840d7,"Mozilla/5.0 (Macintosh; Intel Mac OS X 10_15_7) AppleWebKit/537.36 (KHTML, like Gecko) Chrome/133.0.0.0 Safari/537.36",Macintosh,Chrome,133.0.0.0,OS X,10_15_7,https://5puzkbbxv1.cognition.run/?sona_id=58253,"en-US,en;q=0.9",u4ggghq6b6zwtl9,22,"[""White""]",No,Female,Canada 8 months out of year and 4 months in US. Did this for first 6 years of my life.,No,914168.7000000476,NA,9244,NA,"{""product_choice"":""A""}",choice,ct,binary,repulsion,1,microwave ovens,null,null,null,null,null,null,2,100,90,null,30,40,null,Warranty,Cooking power,NA,NA
NA,NA,NA,NA,NA,choice_trial_setup,html-keyboard-response,12,106537,0.0-4.0-0.4,291,1,2025-05-07T19:30:39Z,b60275e29fe2361ab97ac0ac217840d7,"Mozilla/5.0 (Macintosh; Intel Mac OS X 10_15_7) AppleWebKit/537.36 (KHTML, like Gecko) Chrome/133.0.0.0 Safari/537.36",Macintosh,Chrome,133.0.0.0,OS X,10_15_7,https://5puzkbbxv1.cognition.run/?sona_id=58253,"en-US,en;q=0.9",u4ggghq6b6zwtl9,22,"[""White""]",No,Female,Canada 8 months out of year and 4 months in US. Did this for first 6 years of my life.,No,914168.7000000476,NA,null,<p></p>,null,choice,ctd,trinary,repulsion_A,1,washing machines,null,null,null,null,null,null,1,NA,NA,NA,NA,NA,NA,NA,NA,NA,NA
NA,NA,NA,NA,NA,choice_trial,survey-html-form,13,119100,0.0-4.0-1.4,291,1,2025-05-07T19:30:39Z,b60275e29fe2361ab97ac0ac217840d7,"Mozilla/5.0 (Macintosh; Intel Mac OS X 10_15_7) AppleWebKit/537.36 (KHTML, like Gecko) Chrome/133.0.0.0 Safari/537.36",Macintosh,Chrome,133.0.0.0,OS X,10_15_7,https://5puzkbbxv1.cognition.run/?sona_id=58253,"en-US,en;q=0.9",u4ggghq6b6zwtl9,22,"[""White""]",No,Female,Canada 8 months out of year and 4 months in US. Did this for first 6 years of my life.,No,914168.7000000476,NA,12560,NA,"{""product_choice"":""A""}",choice,ctd,trinary,repulsion_A,1,washing machines,null,null,null,null,null,null,1,100,90,100,30,40,20,Average lifespan,Energy savings,NA,NA
NA,NA,NA,NA,NA,choice_trial_setup,html-keyboard-response,14,119402,0.0-4.0-0.5,291,1,2025-05-07T19:30:39Z,b60275e29fe2361ab97ac0ac217840d7,"Mozilla/5.0 (Macintosh; Intel Mac OS X 10_15_7) AppleWebKit/537.36 (KHTML, like Gecko) Chrome/133.0.0.0 Safari/537.36",Macintosh,Chrome,133.0.0.0,OS X,10_15_7,https://5puzkbbxv1.cognition.run/?sona_id=58253,"en-US,en;q=0.9",u4ggghq6b6zwtl9,22,"[""White""]",No,Female,Canada 8 months out of year and 4 months in US. Did this for first 6 years of my life.,No,914168.7000000476,NA,null,<p></p>,null,choice,cdt,trinary,attraction,2,washing machines,null,null,null,null,null,null,2,NA,NA,NA,NA,NA,NA,NA,NA,NA,NA
NA,NA,NA,NA,NA,choice_trial,survey-html-form,15,185318,0.0-4.0-1.5,291,1,2025-05-07T19:30:39Z,b60275e29fe2361ab97ac0ac217840d7,"Mozilla/5.0 (Macintosh; Intel Mac OS X 10_15_7) AppleWebKit/537.36 (KHTML, like Gecko) Chrome/133.0.0.0 Safari/537.36",Macintosh,Chrome,133.0.0.0,OS X,10_15_7,https://5puzkbbxv1.cognition.run/?sona_id=58253,"en-US,en;q=0.9",u4ggghq6b6zwtl9,22,"[""White""]",No,Female,Canada 8 months out of year and 4 months in US. Did this for first 6 years of my life.,No,914168.7000000476,NA,65915,NA,"{""product_choice"":""C""}",choice,cdt,trinary,attraction,2,washing machines,null,null,null,null,null,null,2,50,60,40,60,50,60,Average lifespan,Energy savings,NA,NA
NA,NA,NA,NA,NA,choice_trial_setup,html-keyboard-response,16,185622,0.0-4.0-0.6,291,1,2025-05-07T19:30:39Z,b60275e29fe2361ab97ac0ac217840d7,"Mozilla/5.0 (Macintosh; Intel Mac OS X 10_15_7) AppleWebKit/537.36 (KHTML, like Gecko) Chrome/133.0.0.0 Safari/537.36",Macintosh,Chrome,133.0.0.0,OS X,10_15_7,https://5puzkbbxv1.cognition.run/?sona_id=58253,"en-US,en;q=0.9",u4ggghq6b6zwtl9,22,"[""White""]",No,Female,Canada 8 months out of year and 4 months in US. Did this for first 6 years of my life.,No,914168.7000000476,NA,null,<p></p>,null,choice,tdc,trinary,attraction,2,laptops,null,null,null,null,null,null,2,NA,NA,NA,NA,NA,NA,NA,NA,NA,NA
NA,NA,NA,NA,NA,choice_trial,survey-html-form,17,207669,0.0-4.0-1.6,291,1,2025-05-07T19:30:39Z,b60275e29fe2361ab97ac0ac217840d7,"Mozilla/5.0 (Macintosh; Intel Mac OS X 10_15_7) AppleWebKit/537.36 (KHTML, like Gecko) Chrome/133.0.0.0 Safari/537.36",Macintosh,Chrome,133.0.0.0,OS X,10_15_7,https://5puzkbbxv1.cognition.run/?sona_id=58253,"en-US,en;q=0.9",u4ggghq6b6zwtl9,22,"[""White""]",No,Female,Canada 8 months out of year and 4 months in US. Did this for first 6 years of my life.,No,914168.7000000476,NA,22044,NA,"{""product_choice"":""C""}",choice,tdc,trinary,attraction,2,laptops,null,null,null,null,null,null,2,50,60,40,60,50,60,Processing speed,Memory (RAM),NA,NA
NA,NA,NA,NA,NA,choice_trial_setup,html-keyboard-response,18,207973,0.0-4.0-0.7,291,1,2025-05-07T19:30:39Z,b60275e29fe2361ab97ac0ac217840d7,"Mozilla/5.0 (Macintosh; Intel Mac OS X 10_15_7) AppleWebKit/537.36 (KHTML, like Gecko) Chrome/133.0.0.0 Safari/537.36",Macintosh,Chrome,133.0.0.0,OS X,10_15_7,https://5puzkbbxv1.cognition.run/?sona_id=58253,"en-US,en;q=0.9",u4ggghq6b6zwtl9,22,"[""White""]",No,Female,Canada 8 months out of year and 4 months in US. Did this for first 6 years of my life.,No,914168.7000000476,NA,null,<p></p>,null,choice,dct,trinary,attraction,2,microwave ovens,null,null,null,null,null,null,1,NA,NA,NA,NA,NA,NA,NA,NA,NA,NA
NA,NA,NA,NA,NA,choice_trial,survey-html-form,19,226900,0.0-4.0-1.7,291,1,2025-05-07T19:30:39Z,b60275e29fe2361ab97ac0ac217840d7,"Mozilla/5.0 (Macintosh; Intel Mac OS X 10_15_7) AppleWebKit/537.36 (KHTML, like Gecko) Chrome/133.0.0.0 Safari/537.36",Macintosh,Chrome,133.0.0.0,OS X,10_15_7,https://5puzkbbxv1.cognition.run/?sona_id=58253,"en-US,en;q=0.9",u4ggghq6b6zwtl9,22,"[""White""]",No,Female,Canada 8 months out of year and 4 months in US. Did this for first 6 years of my life.,No,914168.7000000476,NA,18924,NA,"{""product_choice"":""B""}",choice,dct,trinary,attraction,2,microwave ovens,null,null,null,null,null,null,1,50,60,40,60,50,60,Warranty,Cooking power,NA,NA
NA,NA,NA,NA,NA,choice_trial_setup,html-keyboard-response,20,227202,0.0-4.0-0.8,291,1,2025-05-07T19:30:39Z,b60275e29fe2361ab97ac0ac217840d7,"Mozilla/5.0 (Macintosh; Intel Mac OS X 10_15_7) AppleWebKit/537.36 (KHTML, like Gecko) Chrome/133.0.0.0 Safari/537.36",Macintosh,Chrome,133.0.0.0,OS X,10_15_7,https://5puzkbbxv1.cognition.run/?sona_id=58253,"en-US,en;q=0.9",u4ggghq6b6zwtl9,22,"[""White""]",No,Female,Canada 8 months out of year and 4 months in US. Did this for first 6 years of my life.,No,914168.7000000476,NA,null,<p></p>,null,choice,ctd,trinary,repulsion_A,1,laptops,null,null,null,null,null,null,1,NA,NA,NA,NA,NA,NA,NA,NA,NA,NA
NA,NA,NA,NA,NA,choice_trial,survey-html-form,21,244318,0.0-4.0-1.8,291,1,2025-05-07T19:30:39Z,b60275e29fe2361ab97ac0ac217840d7,"Mozilla/5.0 (Macintosh; Intel Mac OS X 10_15_7) AppleWebKit/537.36 (KHTML, like Gecko) Chrome/133.0.0.0 Safari/537.36",Macintosh,Chrome,133.0.0.0,OS X,10_15_7,https://5puzkbbxv1.cognition.run/?sona_id=58253,"en-US,en;q=0.9",u4ggghq6b6zwtl9,22,"[""White""]",No,Female,Canada 8 months out of year and 4 months in US. Did this for first 6 years of my life.,No,914168.7000000476,NA,17112,NA,"{""product_choice"":""B""}",choice,ctd,trinary,repulsion_A,1,laptops,null,null,null,null,null,null,1,100,90,100,30,40,20,Processing speed,Memory (RAM),NA,NA
NA,NA,NA,NA,NA,choice_trial_setup,html-keyboard-response,22,244621,0.0-4.0-0.9,291,1,2025-05-07T19:30:39Z,b60275e29fe2361ab97ac0ac217840d7,"Mozilla/5.0 (Macintosh; Intel Mac OS X 10_15_7) AppleWebKit/537.36 (KHTML, like Gecko) Chrome/133.0.0.0 Safari/537.36",Macintosh,Chrome,133.0.0.0,OS X,10_15_7,https://5puzkbbxv1.cognition.run/?sona_id=58253,"en-US,en;q=0.9",u4ggghq6b6zwtl9,22,"[""White""]",No,Female,Canada 8 months out of year and 4 months in US. Did this for first 6 years of my life.,No,914168.7000000476,NA,null,<p></p>,null,choice,tcd,trinary,repulsion_A,1,televisions,null,null,null,null,null,null,1,NA,NA,NA,NA,NA,NA,NA,NA,NA,NA
NA,NA,NA,NA,NA,choice_trial,survey-html-form,23,253484,0.0-4.0-1.9,291,1,2025-05-07T19:30:39Z,b60275e29fe2361ab97ac0ac217840d7,"Mozilla/5.0 (Macintosh; Intel Mac OS X 10_15_7) AppleWebKit/537.36 (KHTML, like Gecko) Chrome/133.0.0.0 Safari/537.36",Macintosh,Chrome,133.0.0.0,OS X,10_15_7,https://5puzkbbxv1.cognition.run/?sona_id=58253,"en-US,en;q=0.9",u4ggghq6b6zwtl9,22,"[""White""]",No,Female,Canada 8 months out of year and 4 months in US. Did this for first 6 years of my life.,No,914168.7000000476,NA,8860,NA,"{""product_choice"":""B""}",choice,tcd,trinary,repulsion_A,1,televisions,null,null,null,null,null,null,1,100,90,100,30,40,20,Screen size,Average lifespan,NA,NA
NA,NA,NA,NA,NA,choice_trial_setup,html-keyboard-response,24,253787,0.0-4.0-0.10,291,1,2025-05-07T19:30:39Z,b60275e29fe2361ab97ac0ac217840d7,"Mozilla/5.0 (Macintosh; Intel Mac OS X 10_15_7) AppleWebKit/537.36 (KHTML, like Gecko) Chrome/133.0.0.0 Safari/537.36",Macintosh,Chrome,133.0.0.0,OS X,10_15_7,https://5puzkbbxv1.cognition.run/?sona_id=58253,"en-US,en;q=0.9",u4ggghq6b6zwtl9,22,"[""White""]",No,Female,Canada 8 months out of year and 4 months in US. Did this for first 6 years of my life.,No,914168.7000000476,NA,null,<p></p>,null,choice,ctd,trinary,repulsion_B,2,laptops,null,null,null,null,null,null,1,NA,NA,NA,NA,NA,NA,NA,NA,NA,NA
NA,NA,NA,NA,NA,choice_trial,survey-html-form,25,315283,0.0-4.0-1.10,291,1,2025-05-07T19:30:39Z,b60275e29fe2361ab97ac0ac217840d7,"Mozilla/5.0 (Macintosh; Intel Mac OS X 10_15_7) AppleWebKit/537.36 (KHTML, like Gecko) Chrome/133.0.0.0 Safari/537.36",Macintosh,Chrome,133.0.0.0,OS X,10_15_7,https://5puzkbbxv1.cognition.run/?sona_id=58253,"en-US,en;q=0.9",u4ggghq6b6zwtl9,22,"[""White""]",No,Female,Canada 8 months out of year and 4 months in US. Did this for first 6 years of my life.,No,914168.7000000476,NA,61494,NA,"{""product_choice"":""B""}",choice,ctd,trinary,repulsion_B,2,laptops,null,null,null,null,null,null,1,40,30,40,90,100,80,Processing speed,Memory (RAM),NA,NA
NA,NA,NA,NA,NA,choice_trial_setup,html-keyboard-response,26,315586,0.0-4.0-0.11,291,1,2025-05-07T19:30:39Z,b60275e29fe2361ab97ac0ac217840d7,"Mozilla/5.0 (Macintosh; Intel Mac OS X 10_15_7) AppleWebKit/537.36 (KHTML, like Gecko) Chrome/133.0.0.0 Safari/537.36",Macintosh,Chrome,133.0.0.0,OS X,10_15_7,https://5puzkbbxv1.cognition.run/?sona_id=58253,"en-US,en;q=0.9",u4ggghq6b6zwtl9,22,"[""White""]",No,Female,Canada 8 months out of year and 4 months in US. Did this for first 6 years of my life.,No,914168.7000000476,NA,null,<p></p>,null,choice,ct,binary,repulsion,2,microwave ovens,null,null,null,null,null,null,2,NA,NA,NA,NA,NA,NA,NA,NA,NA,NA
NA,NA,NA,NA,NA,choice_trial,survey-html-form,27,330067,0.0-4.0-1.11,291,1,2025-05-07T19:30:39Z,b60275e29fe2361ab97ac0ac217840d7,"Mozilla/5.0 (Macintosh; Intel Mac OS X 10_15_7) AppleWebKit/537.36 (KHTML, like Gecko) Chrome/133.0.0.0 Safari/537.36",Macintosh,Chrome,133.0.0.0,OS X,10_15_7,https://5puzkbbxv1.cognition.run/?sona_id=58253,"en-US,en;q=0.9",u4ggghq6b6zwtl9,22,"[""White""]",No,Female,Canada 8 months out of year and 4 months in US. Did this for first 6 years of my life.,No,914168.7000000476,NA,14480,NA,"{""product_choice"":""A""}",choice,ct,binary,repulsion,2,microwave ovens,null,null,null,null,null,null,2,30,40,null,100,90,null,Warranty,Cooking power,NA,NA
NA,NA,NA,NA,NA,choice_trial_setup,html-keyboard-response,28,330371,0.0-4.0-0.12,291,1,2025-05-07T19:30:39Z,b60275e29fe2361ab97ac0ac217840d7,"Mozilla/5.0 (Macintosh; Intel Mac OS X 10_15_7) AppleWebKit/537.36 (KHTML, like Gecko) Chrome/133.0.0.0 Safari/537.36",Macintosh,Chrome,133.0.0.0,OS X,10_15_7,https://5puzkbbxv1.cognition.run/?sona_id=58253,"en-US,en;q=0.9",u4ggghq6b6zwtl9,22,"[""White""]",No,Female,Canada 8 months out of year and 4 months in US. Did this for first 6 years of my life.,No,914168.7000000476,NA,null,<p></p>,null,choice,tc,binary,repulsion,2,laptops,null,null,null,null,null,null,1,NA,NA,NA,NA,NA,NA,NA,NA,NA,NA
NA,NA,NA,NA,NA,choice_trial,survey-html-form,29,349169,0.0-4.0-1.12,291,1,2025-05-07T19:30:39Z,b60275e29fe2361ab97ac0ac217840d7,"Mozilla/5.0 (Macintosh; Intel Mac OS X 10_15_7) AppleWebKit/537.36 (KHTML, like Gecko) Chrome/133.0.0.0 Safari/537.36",Macintosh,Chrome,133.0.0.0,OS X,10_15_7,https://5puzkbbxv1.cognition.run/?sona_id=58253,"en-US,en;q=0.9",u4ggghq6b6zwtl9,22,"[""White""]",No,Female,Canada 8 months out of year and 4 months in US. Did this for first 6 years of my life.,No,914168.7000000476,NA,18796,NA,"{""product_choice"":""B""}",choice,tc,binary,repulsion,2,laptops,null,null,null,null,null,null,1,30,40,null,100,90,null,Processing speed,Memory (RAM),NA,NA
NA,NA,NA,NA,NA,choice_trial_setup,html-keyboard-response,30,349472,0.0-4.0-0.13,291,1,2025-05-07T19:30:39Z,b60275e29fe2361ab97ac0ac217840d7,"Mozilla/5.0 (Macintosh; Intel Mac OS X 10_15_7) AppleWebKit/537.36 (KHTML, like Gecko) Chrome/133.0.0.0 Safari/537.36",Macintosh,Chrome,133.0.0.0,OS X,10_15_7,https://5puzkbbxv1.cognition.run/?sona_id=58253,"en-US,en;q=0.9",u4ggghq6b6zwtl9,22,"[""White""]",No,Female,Canada 8 months out of year and 4 months in US. Did this for first 6 years of my life.,No,914168.7000000476,NA,null,<p></p>,null,choice,wwb,trinary,catch,null,microwave ovens,85,95,10,35,30,40,1,NA,NA,NA,NA,NA,NA,NA,NA,NA,NA
NA,NA,NA,NA,NA,choice_trial,survey-html-form,31,358917,0.0-4.0-1.13,291,1,2025-05-07T19:30:39Z,b60275e29fe2361ab97ac0ac217840d7,"Mozilla/5.0 (Macintosh; Intel Mac OS X 10_15_7) AppleWebKit/537.36 (KHTML, like Gecko) Chrome/133.0.0.0 Safari/537.36",Macintosh,Chrome,133.0.0.0,OS X,10_15_7,https://5puzkbbxv1.cognition.run/?sona_id=58253,"en-US,en;q=0.9",u4ggghq6b6zwtl9,22,"[""White""]",No,Female,Canada 8 months out of year and 4 months in US. Did this for first 6 years of my life.,No,914168.7000000476,NA,9441,NA,"{""product_choice"":""C""}",choice,wwb,trinary,catch,null,microwave ovens,85,95,10,35,30,40,1,null,null,null,null,null,null,Warranty,Cooking power,NA,NA
NA,NA,NA,NA,NA,choice_trial_setup,html-keyboard-response,32,359220,0.0-4.0-0.14,291,1,2025-05-07T19:30:39Z,b60275e29fe2361ab97ac0ac217840d7,"Mozilla/5.0 (Macintosh; Intel Mac OS X 10_15_7) AppleWebKit/537.36 (KHTML, like Gecko) Chrome/133.0.0.0 Safari/537.36",Macintosh,Chrome,133.0.0.0,OS X,10_15_7,https://5puzkbbxv1.cognition.run/?sona_id=58253,"en-US,en;q=0.9",u4ggghq6b6zwtl9,22,"[""White""]",No,Female,Canada 8 months out of year and 4 months in US. Did this for first 6 years of my life.,No,914168.7000000476,NA,null,<p></p>,null,choice,tcd,trinary,repulsion_A,2,televisions,null,null,null,null,null,null,2,NA,NA,NA,NA,NA,NA,NA,NA,NA,NA
NA,NA,NA,NA,NA,choice_trial,survey-html-form,33,370601,0.0-4.0-1.14,291,1,2025-05-07T19:30:39Z,b60275e29fe2361ab97ac0ac217840d7,"Mozilla/5.0 (Macintosh; Intel Mac OS X 10_15_7) AppleWebKit/537.36 (KHTML, like Gecko) Chrome/133.0.0.0 Safari/537.36",Macintosh,Chrome,133.0.0.0,OS X,10_15_7,https://5puzkbbxv1.cognition.run/?sona_id=58253,"en-US,en;q=0.9",u4ggghq6b6zwtl9,22,"[""White""]",No,Female,Canada 8 months out of year and 4 months in US. Did this for first 6 years of my life.,No,914168.7000000476,NA,11378,NA,"{""product_choice"":""B""}",choice,tcd,trinary,repulsion_A,2,televisions,null,null,null,null,null,null,2,30,40,20,100,90,100,Screen size,Average lifespan,NA,NA
NA,NA,NA,NA,NA,choice_trial_setup,html-keyboard-response,34,370903,0.0-4.0-0.15,291,1,2025-05-07T19:30:39Z,b60275e29fe2361ab97ac0ac217840d7,"Mozilla/5.0 (Macintosh; Intel Mac OS X 10_15_7) AppleWebKit/537.36 (KHTML, like Gecko) Chrome/133.0.0.0 Safari/537.36",Macintosh,Chrome,133.0.0.0,OS X,10_15_7,https://5puzkbbxv1.cognition.run/?sona_id=58253,"en-US,en;q=0.9",u4ggghq6b6zwtl9,22,"[""White""]",No,Female,Canada 8 months out of year and 4 months in US. Did this for first 6 years of my life.,No,914168.7000000476,NA,null,<p></p>,null,choice,dtc,trinary,attraction,2,televisions,null,null,null,null,null,null,2,NA,NA,NA,NA,NA,NA,NA,NA,NA,NA
NA,NA,NA,NA,NA,choice_trial,survey-html-form,35,382250,0.0-4.0-1.15,291,1,2025-05-07T19:30:39Z,b60275e29fe2361ab97ac0ac217840d7,"Mozilla/5.0 (Macintosh; Intel Mac OS X 10_15_7) AppleWebKit/537.36 (KHTML, like Gecko) Chrome/133.0.0.0 Safari/537.36",Macintosh,Chrome,133.0.0.0,OS X,10_15_7,https://5puzkbbxv1.cognition.run/?sona_id=58253,"en-US,en;q=0.9",u4ggghq6b6zwtl9,22,"[""White""]",No,Female,Canada 8 months out of year and 4 months in US. Did this for first 6 years of my life.,No,914168.7000000476,NA,11343,NA,"{""product_choice"":""C""}",choice,dtc,trinary,attraction,2,televisions,null,null,null,null,null,null,2,50,60,40,60,50,60,Screen size,Average lifespan,NA,NA
NA,NA,NA,NA,NA,choice_trial_setup,html-keyboard-response,36,382552,0.0-4.0-0.16,291,1,2025-05-07T19:30:39Z,b60275e29fe2361ab97ac0ac217840d7,"Mozilla/5.0 (Macintosh; Intel Mac OS X 10_15_7) AppleWebKit/537.36 (KHTML, like Gecko) Chrome/133.0.0.0 Safari/537.36",Macintosh,Chrome,133.0.0.0,OS X,10_15_7,https://5puzkbbxv1.cognition.run/?sona_id=58253,"en-US,en;q=0.9",u4ggghq6b6zwtl9,22,"[""White""]",No,Female,Canada 8 months out of year and 4 months in US. Did this for first 6 years of my life.,No,914168.7000000476,NA,null,<p></p>,null,choice,ctd,trinary,repulsion_A,1,microwave ovens,null,null,null,null,null,null,1,NA,NA,NA,NA,NA,NA,NA,NA,NA,NA
NA,NA,NA,NA,NA,choice_trial,survey-html-form,37,398634,0.0-4.0-1.16,291,1,2025-05-07T19:30:39Z,b60275e29fe2361ab97ac0ac217840d7,"Mozilla/5.0 (Macintosh; Intel Mac OS X 10_15_7) AppleWebKit/537.36 (KHTML, like Gecko) Chrome/133.0.0.0 Safari/537.36",Macintosh,Chrome,133.0.0.0,OS X,10_15_7,https://5puzkbbxv1.cognition.run/?sona_id=58253,"en-US,en;q=0.9",u4ggghq6b6zwtl9,22,"[""White""]",No,Female,Canada 8 months out of year and 4 months in US. Did this for first 6 years of my life.,No,914168.7000000476,NA,16079,NA,"{""product_choice"":""B""}",choice,ctd,trinary,repulsion_A,1,microwave ovens,null,null,null,null,null,null,1,100,90,100,30,40,20,Warranty,Cooking power,NA,NA
NA,NA,NA,NA,NA,choice_trial_setup,html-keyboard-response,38,398938,0.0-4.0-0.17,291,1,2025-05-07T19:30:39Z,b60275e29fe2361ab97ac0ac217840d7,"Mozilla/5.0 (Macintosh; Intel Mac OS X 10_15_7) AppleWebKit/537.36 (KHTML, like Gecko) Chrome/133.0.0.0 Safari/537.36",Macintosh,Chrome,133.0.0.0,OS X,10_15_7,https://5puzkbbxv1.cognition.run/?sona_id=58253,"en-US,en;q=0.9",u4ggghq6b6zwtl9,22,"[""White""]",No,Female,Canada 8 months out of year and 4 months in US. Did this for first 6 years of my life.,No,914168.7000000476,NA,null,<p></p>,null,choice,wb,binary,catch,null,laptops,90,95,5,30,null,null,1,NA,NA,NA,NA,NA,NA,NA,NA,NA,NA
NA,NA,NA,NA,NA,choice_trial,survey-html-form,39,408617,0.0-4.0-1.17,291,1,2025-05-07T19:30:39Z,b60275e29fe2361ab97ac0ac217840d7,"Mozilla/5.0 (Macintosh; Intel Mac OS X 10_15_7) AppleWebKit/537.36 (KHTML, like Gecko) Chrome/133.0.0.0 Safari/537.36",Macintosh,Chrome,133.0.0.0,OS X,10_15_7,https://5puzkbbxv1.cognition.run/?sona_id=58253,"en-US,en;q=0.9",u4ggghq6b6zwtl9,22,"[""White""]",No,Female,Canada 8 months out of year and 4 months in US. Did this for first 6 years of my life.,No,914168.7000000476,NA,9676,NA,"{""product_choice"":""B""}",choice,wb,binary,catch,null,laptops,90,95,5,30,null,null,1,null,null,null,null,null,null,Processing speed,Memory (RAM),NA,NA
NA,NA,NA,NA,NA,choice_trial_setup,html-keyboard-response,40,408919,0.0-4.0-0.18,291,1,2025-05-07T19:30:39Z,b60275e29fe2361ab97ac0ac217840d7,"Mozilla/5.0 (Macintosh; Intel Mac OS X 10_15_7) AppleWebKit/537.36 (KHTML, like Gecko) Chrome/133.0.0.0 Safari/537.36",Macintosh,Chrome,133.0.0.0,OS X,10_15_7,https://5puzkbbxv1.cognition.run/?sona_id=58253,"en-US,en;q=0.9",u4ggghq6b6zwtl9,22,"[""White""]",No,Female,Canada 8 months out of year and 4 months in US. Did this for first 6 years of my life.,No,914168.7000000476,NA,null,<p></p>,null,choice,cdt,trinary,attraction,1,televisions,null,null,null,null,null,null,1,NA,NA,NA,NA,NA,NA,NA,NA,NA,NA
NA,NA,NA,NA,NA,choice_trial,survey-html-form,41,416884,0.0-4.0-1.18,291,1,2025-05-07T19:30:39Z,b60275e29fe2361ab97ac0ac217840d7,"Mozilla/5.0 (Macintosh; Intel Mac OS X 10_15_7) AppleWebKit/537.36 (KHTML, like Gecko) Chrome/133.0.0.0 Safari/537.36",Macintosh,Chrome,133.0.0.0,OS X,10_15_7,https://5puzkbbxv1.cognition.run/?sona_id=58253,"en-US,en;q=0.9",u4ggghq6b6zwtl9,22,"[""White""]",No,Female,Canada 8 months out of year and 4 months in US. Did this for first 6 years of my life.,No,914168.7000000476,NA,7961,NA,"{""product_choice"":""A""}",choice,cdt,trinary,attraction,1,televisions,null,null,null,null,null,null,1,60,50,60,50,60,40,Screen size,Average lifespan,NA,NA
NA,NA,NA,NA,NA,choice_trial_setup,html-keyboard-response,42,417188,0.0-4.0-0.19,291,1,2025-05-07T19:30:39Z,b60275e29fe2361ab97ac0ac217840d7,"Mozilla/5.0 (Macintosh; Intel Mac OS X 10_15_7) AppleWebKit/537.36 (KHTML, like Gecko) Chrome/133.0.0.0 Safari/537.36",Macintosh,Chrome,133.0.0.0,OS X,10_15_7,https://5puzkbbxv1.cognition.run/?sona_id=58253,"en-US,en;q=0.9",u4ggghq6b6zwtl9,22,"[""White""]",No,Female,Canada 8 months out of year and 4 months in US. Did this for first 6 years of my life.,No,914168.7000000476,NA,null,<p></p>,null,choice,tc,binary,repulsion,1,televisions,null,null,null,null,null,null,1,NA,NA,NA,NA,NA,NA,NA,NA,NA,NA
NA,NA,NA,NA,NA,choice_trial,survey-html-form,43,422551,0.0-4.0-1.19,291,1,2025-05-07T19:30:39Z,b60275e29fe2361ab97ac0ac217840d7,"Mozilla/5.0 (Macintosh; Intel Mac OS X 10_15_7) AppleWebKit/537.36 (KHTML, like Gecko) Chrome/133.0.0.0 Safari/537.36",Macintosh,Chrome,133.0.0.0,OS X,10_15_7,https://5puzkbbxv1.cognition.run/?sona_id=58253,"en-US,en;q=0.9",u4ggghq6b6zwtl9,22,"[""White""]",No,Female,Canada 8 months out of year and 4 months in US. Did this for first 6 years of my life.,No,914168.7000000476,NA,5358,NA,"{""product_choice"":""B""}",choice,tc,binary,repulsion,1,televisions,null,null,null,null,null,null,1,100,90,null,30,40,null,Screen size,Average lifespan,NA,NA
NA,NA,NA,NA,NA,choice_trial_setup,html-keyboard-response,44,422853,0.0-4.0-0.20,291,1,2025-05-07T19:30:39Z,b60275e29fe2361ab97ac0ac217840d7,"Mozilla/5.0 (Macintosh; Intel Mac OS X 10_15_7) AppleWebKit/537.36 (KHTML, like Gecko) Chrome/133.0.0.0 Safari/537.36",Macintosh,Chrome,133.0.0.0,OS X,10_15_7,https://5puzkbbxv1.cognition.run/?sona_id=58253,"en-US,en;q=0.9",u4ggghq6b6zwtl9,22,"[""White""]",No,Female,Canada 8 months out of year and 4 months in US. Did this for first 6 years of my life.,No,914168.7000000476,NA,null,<p></p>,null,choice,tcd,trinary,repulsion_B,1,microwave ovens,null,null,null,null,null,null,2,NA,NA,NA,NA,NA,NA,NA,NA,NA,NA
NA,NA,NA,NA,NA,choice_trial,survey-html-form,45,435402,0.0-4.0-1.20,291,1,2025-05-07T19:30:39Z,b60275e29fe2361ab97ac0ac217840d7,"Mozilla/5.0 (Macintosh; Intel Mac OS X 10_15_7) AppleWebKit/537.36 (KHTML, like Gecko) Chrome/133.0.0.0 Safari/537.36",Macintosh,Chrome,133.0.0.0,OS X,10_15_7,https://5puzkbbxv1.cognition.run/?sona_id=58253,"en-US,en;q=0.9",u4ggghq6b6zwtl9,22,"[""White""]",No,Female,Canada 8 months out of year and 4 months in US. Did this for first 6 years of my life.,No,914168.7000000476,NA,12547,NA,"{""product_choice"":""A""}",choice,tcd,trinary,repulsion_B,1,microwave ovens,null,null,null,null,null,null,2,90,100,80,40,30,40,Warranty,Cooking power,NA,NA
NA,NA,NA,NA,NA,choice_trial_setup,html-keyboard-response,46,435706,0.0-4.0-0.21,291,1,2025-05-07T19:30:39Z,b60275e29fe2361ab97ac0ac217840d7,"Mozilla/5.0 (Macintosh; Intel Mac OS X 10_15_7) AppleWebKit/537.36 (KHTML, like Gecko) Chrome/133.0.0.0 Safari/537.36",Macintosh,Chrome,133.0.0.0,OS X,10_15_7,https://5puzkbbxv1.cognition.run/?sona_id=58253,"en-US,en;q=0.9",u4ggghq6b6zwtl9,22,"[""White""]",No,Female,Canada 8 months out of year and 4 months in US. Did this for first 6 years of my life.,No,914168.7000000476,NA,null,<p></p>,null,choice,dtc,trinary,repulsion_B,2,televisions,null,null,null,null,null,null,2,NA,NA,NA,NA,NA,NA,NA,NA,NA,NA
NA,NA,NA,NA,NA,choice_trial,survey-html-form,47,444801,0.0-4.0-1.21,291,1,2025-05-07T19:30:39Z,b60275e29fe2361ab97ac0ac217840d7,"Mozilla/5.0 (Macintosh; Intel Mac OS X 10_15_7) AppleWebKit/537.36 (KHTML, like Gecko) Chrome/133.0.0.0 Safari/537.36",Macintosh,Chrome,133.0.0.0,OS X,10_15_7,https://5puzkbbxv1.cognition.run/?sona_id=58253,"en-US,en;q=0.9",u4ggghq6b6zwtl9,22,"[""White""]",No,Female,Canada 8 months out of year and 4 months in US. Did this for first 6 years of my life.,No,914168.7000000476,NA,9091,NA,"{""product_choice"":""B""}",choice,dtc,trinary,repulsion_B,2,televisions,null,null,null,null,null,null,2,40,30,40,90,100,80,Screen size,Average lifespan,NA,NA
NA,NA,NA,NA,NA,choice_trial_setup,html-keyboard-response,48,445105,0.0-4.0-0.22,291,1,2025-05-07T19:30:39Z,b60275e29fe2361ab97ac0ac217840d7,"Mozilla/5.0 (Macintosh; Intel Mac OS X 10_15_7) AppleWebKit/537.36 (KHTML, like Gecko) Chrome/133.0.0.0 Safari/537.36",Macintosh,Chrome,133.0.0.0,OS X,10_15_7,https://5puzkbbxv1.cognition.run/?sona_id=58253,"en-US,en;q=0.9",u4ggghq6b6zwtl9,22,"[""White""]",No,Female,Canada 8 months out of year and 4 months in US. Did this for first 6 years of my life.,No,914168.7000000476,NA,null,<p></p>,null,choice,ct,binary,attraction,NA,washing machines,null,null,null,null,null,null,2,NA,NA,NA,NA,NA,NA,NA,NA,NA,NA
NA,NA,NA,NA,NA,choice_trial,survey-html-form,49,449802,0.0-4.0-1.22,291,1,2025-05-07T19:30:39Z,b60275e29fe2361ab97ac0ac217840d7,"Mozilla/5.0 (Macintosh; Intel Mac OS X 10_15_7) AppleWebKit/537.36 (KHTML, like Gecko) Chrome/133.0.0.0 Safari/537.36",Macintosh,Chrome,133.0.0.0,OS X,10_15_7,https://5puzkbbxv1.cognition.run/?sona_id=58253,"en-US,en;q=0.9",u4ggghq6b6zwtl9,22,"[""White""]",No,Female,Canada 8 months out of year and 4 months in US. Did this for first 6 years of my life.,No,914168.7000000476,NA,4693,NA,"{""product_choice"":""A""}",choice,ct,binary,attraction,NA,washing machines,null,null,null,null,null,null,2,60,50,null,50,60,null,Average lifespan,Energy savings,NA,NA
NA,NA,NA,NA,NA,choice_trial_setup,html-keyboard-response,50,450105,0.0-4.0-0.23,291,1,2025-05-07T19:30:39Z,b60275e29fe2361ab97ac0ac217840d7,"Mozilla/5.0 (Macintosh; Intel Mac OS X 10_15_7) AppleWebKit/537.36 (KHTML, like Gecko) Chrome/133.0.0.0 Safari/537.36",Macintosh,Chrome,133.0.0.0,OS X,10_15_7,https://5puzkbbxv1.cognition.run/?sona_id=58253,"en-US,en;q=0.9",u4ggghq6b6zwtl9,22,"[""White""]",No,Female,Canada 8 months out of year and 4 months in US. Did this for first 6 years of my life.,No,914168.7000000476,NA,null,<p></p>,null,choice,ctd,trinary,repulsion_B,1,laptops,null,null,null,null,null,null,2,NA,NA,NA,NA,NA,NA,NA,NA,NA,NA
NA,NA,NA,NA,NA,choice_trial,survey-html-form,51,462901,0.0-4.0-1.23,291,1,2025-05-07T19:30:39Z,b60275e29fe2361ab97ac0ac217840d7,"Mozilla/5.0 (Macintosh; Intel Mac OS X 10_15_7) AppleWebKit/537.36 (KHTML, like Gecko) Chrome/133.0.0.0 Safari/537.36",Macintosh,Chrome,133.0.0.0,OS X,10_15_7,https://5puzkbbxv1.cognition.run/?sona_id=58253,"en-US,en;q=0.9",u4ggghq6b6zwtl9,22,"[""White""]",No,Female,Canada 8 months out of year and 4 months in US. Did this for first 6 years of my life.,No,914168.7000000476,NA,12791,NA,"{""product_choice"":""B""}",choice,ctd,trinary,repulsion_B,1,laptops,null,null,null,null,null,null,2,90,100,80,40,30,40,Processing speed,Memory (RAM),NA,NA
NA,NA,NA,NA,NA,choice_trial_setup,html-keyboard-response,52,463204,0.0-4.0-0.24,291,1,2025-05-07T19:30:39Z,b60275e29fe2361ab97ac0ac217840d7,"Mozilla/5.0 (Macintosh; Intel Mac OS X 10_15_7) AppleWebKit/537.36 (KHTML, like Gecko) Chrome/133.0.0.0 Safari/537.36",Macintosh,Chrome,133.0.0.0,OS X,10_15_7,https://5puzkbbxv1.cognition.run/?sona_id=58253,"en-US,en;q=0.9",u4ggghq6b6zwtl9,22,"[""White""]",No,Female,Canada 8 months out of year and 4 months in US. Did this for first 6 years of my life.,No,914168.7000000476,NA,null,<p></p>,null,choice,cdt,trinary,repulsion_A,2,washing machines,null,null,null,null,null,null,1,NA,NA,NA,NA,NA,NA,NA,NA,NA,NA
NA,NA,NA,NA,NA,choice_trial,survey-html-form,53,471267,0.0-4.0-1.24,291,1,2025-05-07T19:30:39Z,b60275e29fe2361ab97ac0ac217840d7,"Mozilla/5.0 (Macintosh; Intel Mac OS X 10_15_7) AppleWebKit/537.36 (KHTML, like Gecko) Chrome/133.0.0.0 Safari/537.36",Macintosh,Chrome,133.0.0.0,OS X,10_15_7,https://5puzkbbxv1.cognition.run/?sona_id=58253,"en-US,en;q=0.9",u4ggghq6b6zwtl9,22,"[""White""]",No,Female,Canada 8 months out of year and 4 months in US. Did this for first 6 years of my life.,No,914168.7000000476,NA,8059,NA,"{""product_choice"":""A""}",choice,cdt,trinary,repulsion_A,2,washing machines,null,null,null,null,null,null,1,30,40,20,100,90,100,Average lifespan,Energy savings,NA,NA
NA,NA,NA,NA,NA,choice_trial_setup,html-keyboard-response,54,471570,0.0-4.0-0.25,291,1,2025-05-07T19:30:39Z,b60275e29fe2361ab97ac0ac217840d7,"Mozilla/5.0 (Macintosh; Intel Mac OS X 10_15_7) AppleWebKit/537.36 (KHTML, like Gecko) Chrome/133.0.0.0 Safari/537.36",Macintosh,Chrome,133.0.0.0,OS X,10_15_7,https://5puzkbbxv1.cognition.run/?sona_id=58253,"en-US,en;q=0.9",u4ggghq6b6zwtl9,22,"[""White""]",No,Female,Canada 8 months out of year and 4 months in US. Did this for first 6 years of my life.,No,914168.7000000476,NA,null,<p></p>,null,choice,dtc,trinary,repulsion_A,2,microwave ovens,null,null,null,null,null,null,1,NA,NA,NA,NA,NA,NA,NA,NA,NA,NA
NA,NA,NA,NA,NA,choice_trial,survey-html-form,55,484884,0.0-4.0-1.25,291,1,2025-05-07T19:30:39Z,b60275e29fe2361ab97ac0ac217840d7,"Mozilla/5.0 (Macintosh; Intel Mac OS X 10_15_7) AppleWebKit/537.36 (KHTML, like Gecko) Chrome/133.0.0.0 Safari/537.36",Macintosh,Chrome,133.0.0.0,OS X,10_15_7,https://5puzkbbxv1.cognition.run/?sona_id=58253,"en-US,en;q=0.9",u4ggghq6b6zwtl9,22,"[""White""]",No,Female,Canada 8 months out of year and 4 months in US. Did this for first 6 years of my life.,No,914168.7000000476,NA,13308,NA,"{""product_choice"":""C""}",choice,dtc,trinary,repulsion_A,2,microwave ovens,null,null,null,null,null,null,1,30,40,20,100,90,100,Warranty,Cooking power,NA,NA
NA,NA,NA,NA,NA,choice_trial_setup,html-keyboard-response,56,485186,0.0-4.0-0.26,291,1,2025-05-07T19:30:39Z,b60275e29fe2361ab97ac0ac217840d7,"Mozilla/5.0 (Macintosh; Intel Mac OS X 10_15_7) AppleWebKit/537.36 (KHTML, like Gecko) Chrome/133.0.0.0 Safari/537.36",Macintosh,Chrome,133.0.0.0,OS X,10_15_7,https://5puzkbbxv1.cognition.run/?sona_id=58253,"en-US,en;q=0.9",u4ggghq6b6zwtl9,22,"[""White""]",No,Female,Canada 8 months out of year and 4 months in US. Did this for first 6 years of my life.,No,914168.7000000476,NA,null,<p></p>,null,choice,tcd,trinary,repulsion_B,1,televisions,null,null,null,null,null,null,2,NA,NA,NA,NA,NA,NA,NA,NA,NA,NA
NA,NA,NA,NA,NA,choice_trial,survey-html-form,57,504550,0.0-4.0-1.26,291,1,2025-05-07T19:30:39Z,b60275e29fe2361ab97ac0ac217840d7,"Mozilla/5.0 (Macintosh; Intel Mac OS X 10_15_7) AppleWebKit/537.36 (KHTML, like Gecko) Chrome/133.0.0.0 Safari/537.36",Macintosh,Chrome,133.0.0.0,OS X,10_15_7,https://5puzkbbxv1.cognition.run/?sona_id=58253,"en-US,en;q=0.9",u4ggghq6b6zwtl9,22,"[""White""]",No,Female,Canada 8 months out of year and 4 months in US. Did this for first 6 years of my life.,No,914168.7000000476,NA,19362,NA,"{""product_choice"":""B""}",choice,tcd,trinary,repulsion_B,1,televisions,null,null,null,null,null,null,2,90,100,80,40,30,40,Screen size,Average lifespan,NA,NA
NA,NA,NA,NA,NA,choice_trial_setup,html-keyboard-response,58,504854,0.0-4.0-0.27,291,1,2025-05-07T19:30:39Z,b60275e29fe2361ab97ac0ac217840d7,"Mozilla/5.0 (Macintosh; Intel Mac OS X 10_15_7) AppleWebKit/537.36 (KHTML, like Gecko) Chrome/133.0.0.0 Safari/537.36",Macintosh,Chrome,133.0.0.0,OS X,10_15_7,https://5puzkbbxv1.cognition.run/?sona_id=58253,"en-US,en;q=0.9",u4ggghq6b6zwtl9,22,"[""White""]",No,Female,Canada 8 months out of year and 4 months in US. Did this for first 6 years of my life.,No,914168.7000000476,NA,null,<p></p>,null,choice,tc,binary,repulsion,2,washing machines,null,null,null,null,null,null,2,NA,NA,NA,NA,NA,NA,NA,NA,NA,NA
NA,NA,NA,NA,NA,choice_trial,survey-html-form,59,511984,0.0-4.0-1.27,291,1,2025-05-07T19:30:39Z,b60275e29fe2361ab97ac0ac217840d7,"Mozilla/5.0 (Macintosh; Intel Mac OS X 10_15_7) AppleWebKit/537.36 (KHTML, like Gecko) Chrome/133.0.0.0 Safari/537.36",Macintosh,Chrome,133.0.0.0,OS X,10_15_7,https://5puzkbbxv1.cognition.run/?sona_id=58253,"en-US,en;q=0.9",u4ggghq6b6zwtl9,22,"[""White""]",No,Female,Canada 8 months out of year and 4 months in US. Did this for first 6 years of my life.,No,914168.7000000476,NA,7127,NA,"{""product_choice"":""A""}",choice,tc,binary,repulsion,2,washing machines,null,null,null,null,null,null,2,30,40,null,100,90,null,Average lifespan,Energy savings,NA,NA
NA,NA,NA,NA,NA,choice_trial_setup,html-keyboard-response,60,512288,0.0-4.0-0.28,291,1,2025-05-07T19:30:39Z,b60275e29fe2361ab97ac0ac217840d7,"Mozilla/5.0 (Macintosh; Intel Mac OS X 10_15_7) AppleWebKit/537.36 (KHTML, like Gecko) Chrome/133.0.0.0 Safari/537.36",Macintosh,Chrome,133.0.0.0,OS X,10_15_7,https://5puzkbbxv1.cognition.run/?sona_id=58253,"en-US,en;q=0.9",u4ggghq6b6zwtl9,22,"[""White""]",No,Female,Canada 8 months out of year and 4 months in US. Did this for first 6 years of my life.,No,914168.7000000476,NA,null,<p></p>,null,choice,tc,binary,repulsion,2,televisions,null,null,null,null,null,null,1,NA,NA,NA,NA,NA,NA,NA,NA,NA,NA
NA,NA,NA,NA,NA,choice_trial,survey-html-form,61,519868,0.0-4.0-1.28,291,1,2025-05-07T19:30:39Z,b60275e29fe2361ab97ac0ac217840d7,"Mozilla/5.0 (Macintosh; Intel Mac OS X 10_15_7) AppleWebKit/537.36 (KHTML, like Gecko) Chrome/133.0.0.0 Safari/537.36",Macintosh,Chrome,133.0.0.0,OS X,10_15_7,https://5puzkbbxv1.cognition.run/?sona_id=58253,"en-US,en;q=0.9",u4ggghq6b6zwtl9,22,"[""White""]",No,Female,Canada 8 months out of year and 4 months in US. Did this for first 6 years of my life.,No,914168.7000000476,NA,7574,NA,"{""product_choice"":""B""}",choice,tc,binary,repulsion,2,televisions,null,null,null,null,null,null,1,30,40,null,100,90,null,Screen size,Average lifespan,NA,NA
NA,NA,NA,NA,NA,choice_trial_setup,html-keyboard-response,62,520172,0.0-4.0-0.29,291,1,2025-05-07T19:30:39Z,b60275e29fe2361ab97ac0ac217840d7,"Mozilla/5.0 (Macintosh; Intel Mac OS X 10_15_7) AppleWebKit/537.36 (KHTML, like Gecko) Chrome/133.0.0.0 Safari/537.36",Macintosh,Chrome,133.0.0.0,OS X,10_15_7,https://5puzkbbxv1.cognition.run/?sona_id=58253,"en-US,en;q=0.9",u4ggghq6b6zwtl9,22,"[""White""]",No,Female,Canada 8 months out of year and 4 months in US. Did this for first 6 years of my life.,No,914168.7000000476,NA,null,<p></p>,null,choice,ctd,trinary,attraction,1,washing machines,null,null,null,null,null,null,1,NA,NA,NA,NA,NA,NA,NA,NA,NA,NA
NA,NA,NA,NA,NA,choice_trial,survey-html-form,63,535517,0.0-4.0-1.29,291,1,2025-05-07T19:30:39Z,b60275e29fe2361ab97ac0ac217840d7,"Mozilla/5.0 (Macintosh; Intel Mac OS X 10_15_7) AppleWebKit/537.36 (KHTML, like Gecko) Chrome/133.0.0.0 Safari/537.36",Macintosh,Chrome,133.0.0.0,OS X,10_15_7,https://5puzkbbxv1.cognition.run/?sona_id=58253,"en-US,en;q=0.9",u4ggghq6b6zwtl9,22,"[""White""]",No,Female,Canada 8 months out of year and 4 months in US. Did this for first 6 years of my life.,No,914168.7000000476,NA,15340,NA,"{""product_choice"":""A""}",choice,ctd,trinary,attraction,1,washing machines,null,null,null,null,null,null,1,60,50,60,50,60,40,Average lifespan,Energy savings,NA,NA
NA,NA,NA,NA,NA,choice_trial_setup,html-keyboard-response,64,535821,0.0-4.0-0.30,291,1,2025-05-07T19:30:39Z,b60275e29fe2361ab97ac0ac217840d7,"Mozilla/5.0 (Macintosh; Intel Mac OS X 10_15_7) AppleWebKit/537.36 (KHTML, like Gecko) Chrome/133.0.0.0 Safari/537.36",Macintosh,Chrome,133.0.0.0,OS X,10_15_7,https://5puzkbbxv1.cognition.run/?sona_id=58253,"en-US,en;q=0.9",u4ggghq6b6zwtl9,22,"[""White""]",No,Female,Canada 8 months out of year and 4 months in US. Did this for first 6 years of my life.,No,914168.7000000476,NA,null,<p></p>,null,choice,cdt,trinary,attraction,1,microwave ovens,null,null,null,null,null,null,1,NA,NA,NA,NA,NA,NA,NA,NA,NA,NA
NA,NA,NA,NA,NA,choice_trial,survey-html-form,65,555533,0.0-4.0-1.30,291,1,2025-05-07T19:30:39Z,b60275e29fe2361ab97ac0ac217840d7,"Mozilla/5.0 (Macintosh; Intel Mac OS X 10_15_7) AppleWebKit/537.36 (KHTML, like Gecko) Chrome/133.0.0.0 Safari/537.36",Macintosh,Chrome,133.0.0.0,OS X,10_15_7,https://5puzkbbxv1.cognition.run/?sona_id=58253,"en-US,en;q=0.9",u4ggghq6b6zwtl9,22,"[""White""]",No,Female,Canada 8 months out of year and 4 months in US. Did this for first 6 years of my life.,No,914168.7000000476,NA,19709,NA,"{""product_choice"":""A""}",choice,cdt,trinary,attraction,1,microwave ovens,null,null,null,null,null,null,1,60,50,60,50,60,40,Warranty,Cooking power,NA,NA
NA,NA,NA,NA,NA,choice_trial_setup,html-keyboard-response,66,555837,0.0-4.0-0.31,291,1,2025-05-07T19:30:39Z,b60275e29fe2361ab97ac0ac217840d7,"Mozilla/5.0 (Macintosh; Intel Mac OS X 10_15_7) AppleWebKit/537.36 (KHTML, like Gecko) Chrome/133.0.0.0 Safari/537.36",Macintosh,Chrome,133.0.0.0,OS X,10_15_7,https://5puzkbbxv1.cognition.run/?sona_id=58253,"en-US,en;q=0.9",u4ggghq6b6zwtl9,22,"[""White""]",No,Female,Canada 8 months out of year and 4 months in US. Did this for first 6 years of my life.,No,914168.7000000476,NA,null,<p></p>,null,choice,tc,binary,repulsion,1,washing machines,null,null,null,null,null,null,1,NA,NA,NA,NA,NA,NA,NA,NA,NA,NA
NA,NA,NA,NA,NA,choice_trial,survey-html-form,67,561570,0.0-4.0-1.31,291,1,2025-05-07T19:30:39Z,b60275e29fe2361ab97ac0ac217840d7,"Mozilla/5.0 (Macintosh; Intel Mac OS X 10_15_7) AppleWebKit/537.36 (KHTML, like Gecko) Chrome/133.0.0.0 Safari/537.36",Macintosh,Chrome,133.0.0.0,OS X,10_15_7,https://5puzkbbxv1.cognition.run/?sona_id=58253,"en-US,en;q=0.9",u4ggghq6b6zwtl9,22,"[""White""]",No,Female,Canada 8 months out of year and 4 months in US. Did this for first 6 years of my life.,No,914168.7000000476,NA,5728,NA,"{""product_choice"":""B""}",choice,tc,binary,repulsion,1,washing machines,null,null,null,null,null,null,1,100,90,null,30,40,null,Average lifespan,Energy savings,NA,NA
NA,NA,NA,NA,NA,choice_trial_setup,html-keyboard-response,68,561875,0.0-4.0-0.32,291,1,2025-05-07T19:30:39Z,b60275e29fe2361ab97ac0ac217840d7,"Mozilla/5.0 (Macintosh; Intel Mac OS X 10_15_7) AppleWebKit/537.36 (KHTML, like Gecko) Chrome/133.0.0.0 Safari/537.36",Macintosh,Chrome,133.0.0.0,OS X,10_15_7,https://5puzkbbxv1.cognition.run/?sona_id=58253,"en-US,en;q=0.9",u4ggghq6b6zwtl9,22,"[""White""]",No,Female,Canada 8 months out of year and 4 months in US. Did this for first 6 years of my life.,No,914168.7000000476,NA,null,<p></p>,null,choice,bw,binary,catch,null,washing machines,55,75,50,25,null,null,1,NA,NA,NA,NA,NA,NA,NA,NA,NA,NA
NA,NA,NA,NA,NA,choice_trial,survey-html-form,69,606617,0.0-4.0-1.32,291,1,2025-05-07T19:30:39Z,b60275e29fe2361ab97ac0ac217840d7,"Mozilla/5.0 (Macintosh; Intel Mac OS X 10_15_7) AppleWebKit/537.36 (KHTML, like Gecko) Chrome/133.0.0.0 Safari/537.36",Macintosh,Chrome,133.0.0.0,OS X,10_15_7,https://5puzkbbxv1.cognition.run/?sona_id=58253,"en-US,en;q=0.9",u4ggghq6b6zwtl9,22,"[""White""]",No,Female,Canada 8 months out of year and 4 months in US. Did this for first 6 years of my life.,No,914168.7000000476,NA,44738,NA,"{""product_choice"":""A""}",choice,bw,binary,catch,null,washing machines,55,75,50,25,null,null,1,null,null,null,null,null,null,Average lifespan,Energy savings,NA,NA
NA,NA,NA,NA,NA,choice_trial_setup,html-keyboard-response,70,606921,0.0-4.0-0.33,291,1,2025-05-07T19:30:39Z,b60275e29fe2361ab97ac0ac217840d7,"Mozilla/5.0 (Macintosh; Intel Mac OS X 10_15_7) AppleWebKit/537.36 (KHTML, like Gecko) Chrome/133.0.0.0 Safari/537.36",Macintosh,Chrome,133.0.0.0,OS X,10_15_7,https://5puzkbbxv1.cognition.run/?sona_id=58253,"en-US,en;q=0.9",u4ggghq6b6zwtl9,22,"[""White""]",No,Female,Canada 8 months out of year and 4 months in US. Did this for first 6 years of my life.,No,914168.7000000476,NA,null,<p></p>,null,choice,ct,binary,repulsion,1,laptops,null,null,null,null,null,null,2,NA,NA,NA,NA,NA,NA,NA,NA,NA,NA
NA,NA,NA,NA,NA,choice_trial,survey-html-form,71,613067,0.0-4.0-1.33,291,1,2025-05-07T19:30:39Z,b60275e29fe2361ab97ac0ac217840d7,"Mozilla/5.0 (Macintosh; Intel Mac OS X 10_15_7) AppleWebKit/537.36 (KHTML, like Gecko) Chrome/133.0.0.0 Safari/537.36",Macintosh,Chrome,133.0.0.0,OS X,10_15_7,https://5puzkbbxv1.cognition.run/?sona_id=58253,"en-US,en;q=0.9",u4ggghq6b6zwtl9,22,"[""White""]",No,Female,Canada 8 months out of year and 4 months in US. Did this for first 6 years of my life.,No,914168.7000000476,NA,6142,NA,"{""product_choice"":""A""}",choice,ct,binary,repulsion,1,laptops,null,null,null,null,null,null,2,100,90,null,30,40,null,Processing speed,Memory (RAM),NA,NA
NA,NA,NA,NA,NA,choice_trial_setup,html-keyboard-response,72,613371,0.0-4.0-0.34,291,1,2025-05-07T19:30:39Z,b60275e29fe2361ab97ac0ac217840d7,"Mozilla/5.0 (Macintosh; Intel Mac OS X 10_15_7) AppleWebKit/537.36 (KHTML, like Gecko) Chrome/133.0.0.0 Safari/537.36",Macintosh,Chrome,133.0.0.0,OS X,10_15_7,https://5puzkbbxv1.cognition.run/?sona_id=58253,"en-US,en;q=0.9",u4ggghq6b6zwtl9,22,"[""White""]",No,Female,Canada 8 months out of year and 4 months in US. Did this for first 6 years of my life.,No,914168.7000000476,NA,null,<p></p>,null,choice,wb,binary,catch,null,televisions,80,70,5,35,null,null,2,NA,NA,NA,NA,NA,NA,NA,NA,NA,NA
NA,NA,NA,NA,NA,choice_trial,survey-html-form,73,618416,0.0-4.0-1.34,291,1,2025-05-07T19:30:39Z,b60275e29fe2361ab97ac0ac217840d7,"Mozilla/5.0 (Macintosh; Intel Mac OS X 10_15_7) AppleWebKit/537.36 (KHTML, like Gecko) Chrome/133.0.0.0 Safari/537.36",Macintosh,Chrome,133.0.0.0,OS X,10_15_7,https://5puzkbbxv1.cognition.run/?sona_id=58253,"en-US,en;q=0.9",u4ggghq6b6zwtl9,22,"[""White""]",No,Female,Canada 8 months out of year and 4 months in US. Did this for first 6 years of my life.,No,914168.7000000476,NA,5040,NA,"{""product_choice"":""B""}",choice,wb,binary,catch,null,televisions,80,70,5,35,null,null,2,null,null,null,null,null,null,Screen size,Average lifespan,NA,NA
NA,NA,NA,NA,NA,choice_trial_setup,html-keyboard-response,74,618720,0.0-4.0-0.35,291,1,2025-05-07T19:30:39Z,b60275e29fe2361ab97ac0ac217840d7,"Mozilla/5.0 (Macintosh; Intel Mac OS X 10_15_7) AppleWebKit/537.36 (KHTML, like Gecko) Chrome/133.0.0.0 Safari/537.36",Macintosh,Chrome,133.0.0.0,OS X,10_15_7,https://5puzkbbxv1.cognition.run/?sona_id=58253,"en-US,en;q=0.9",u4ggghq6b6zwtl9,22,"[""White""]",No,Female,Canada 8 months out of year and 4 months in US. Did this for first 6 years of my life.,No,914168.7000000476,NA,null,<p></p>,null,choice,bww,trinary,catch,null,washing machines,95,55,20,40,10,40,1,NA,NA,NA,NA,NA,NA,NA,NA,NA,NA
NA,NA,NA,NA,NA,choice_trial,survey-html-form,75,625217,0.0-4.0-1.35,291,1,2025-05-07T19:30:39Z,b60275e29fe2361ab97ac0ac217840d7,"Mozilla/5.0 (Macintosh; Intel Mac OS X 10_15_7) AppleWebKit/537.36 (KHTML, like Gecko) Chrome/133.0.0.0 Safari/537.36",Macintosh,Chrome,133.0.0.0,OS X,10_15_7,https://5puzkbbxv1.cognition.run/?sona_id=58253,"en-US,en;q=0.9",u4ggghq6b6zwtl9,22,"[""White""]",No,Female,Canada 8 months out of year and 4 months in US. Did this for first 6 years of my life.,No,914168.7000000476,NA,6490,NA,"{""product_choice"":""A""}",choice,bww,trinary,catch,null,washing machines,95,55,20,40,10,40,1,null,null,null,null,null,null,Average lifespan,Energy savings,NA,NA
NA,NA,NA,NA,NA,choice_trial_setup,html-keyboard-response,76,625521,0.0-4.0-0.36,291,1,2025-05-07T19:30:39Z,b60275e29fe2361ab97ac0ac217840d7,"Mozilla/5.0 (Macintosh; Intel Mac OS X 10_15_7) AppleWebKit/537.36 (KHTML, like Gecko) Chrome/133.0.0.0 Safari/537.36",Macintosh,Chrome,133.0.0.0,OS X,10_15_7,https://5puzkbbxv1.cognition.run/?sona_id=58253,"en-US,en;q=0.9",u4ggghq6b6zwtl9,22,"[""White""]",No,Female,Canada 8 months out of year and 4 months in US. Did this for first 6 years of my life.,No,914168.7000000476,NA,null,<p></p>,null,choice,wb,binary,catch,null,microwave ovens,80,80,20,50,null,null,2,NA,NA,NA,NA,NA,NA,NA,NA,NA,NA
NA,NA,NA,NA,NA,choice_trial,survey-html-form,77,630118,0.0-4.0-1.36,291,1,2025-05-07T19:30:39Z,b60275e29fe2361ab97ac0ac217840d7,"Mozilla/5.0 (Macintosh; Intel Mac OS X 10_15_7) AppleWebKit/537.36 (KHTML, like Gecko) Chrome/133.0.0.0 Safari/537.36",Macintosh,Chrome,133.0.0.0,OS X,10_15_7,https://5puzkbbxv1.cognition.run/?sona_id=58253,"en-US,en;q=0.9",u4ggghq6b6zwtl9,22,"[""White""]",No,Female,Canada 8 months out of year and 4 months in US. Did this for first 6 years of my life.,No,914168.7000000476,NA,4591,NA,"{""product_choice"":""B""}",choice,wb,binary,catch,null,microwave ovens,80,80,20,50,null,null,2,null,null,null,null,null,null,Warranty,Cooking power,NA,NA
NA,NA,NA,NA,NA,choice_trial_setup,html-keyboard-response,78,630423,0.0-4.0-0.37,291,1,2025-05-07T19:30:39Z,b60275e29fe2361ab97ac0ac217840d7,"Mozilla/5.0 (Macintosh; Intel Mac OS X 10_15_7) AppleWebKit/537.36 (KHTML, like Gecko) Chrome/133.0.0.0 Safari/537.36",Macintosh,Chrome,133.0.0.0,OS X,10_15_7,https://5puzkbbxv1.cognition.run/?sona_id=58253,"en-US,en;q=0.9",u4ggghq6b6zwtl9,22,"[""White""]",No,Female,Canada 8 months out of year and 4 months in US. Did this for first 6 years of my life.,No,914168.7000000476,NA,null,<p></p>,null,choice,wbw,trinary,catch,null,televisions,65,95,15,20,20,50,2,NA,NA,NA,NA,NA,NA,NA,NA,NA,NA
NA,NA,NA,NA,NA,choice_trial,survey-html-form,79,639784,0.0-4.0-1.37,291,1,2025-05-07T19:30:39Z,b60275e29fe2361ab97ac0ac217840d7,"Mozilla/5.0 (Macintosh; Intel Mac OS X 10_15_7) AppleWebKit/537.36 (KHTML, like Gecko) Chrome/133.0.0.0 Safari/537.36",Macintosh,Chrome,133.0.0.0,OS X,10_15_7,https://5puzkbbxv1.cognition.run/?sona_id=58253,"en-US,en;q=0.9",u4ggghq6b6zwtl9,22,"[""White""]",No,Female,Canada 8 months out of year and 4 months in US. Did this for first 6 years of my life.,No,914168.7000000476,NA,9355,NA,"{""product_choice"":""B""}",choice,wbw,trinary,catch,null,televisions,65,95,15,20,20,50,2,null,null,null,null,null,null,Screen size,Average lifespan,NA,NA
NA,NA,NA,NA,NA,choice_trial_setup,html-keyboard-response,80,640089,0.0-4.0-0.38,291,1,2025-05-07T19:30:39Z,b60275e29fe2361ab97ac0ac217840d7,"Mozilla/5.0 (Macintosh; Intel Mac OS X 10_15_7) AppleWebKit/537.36 (KHTML, like Gecko) Chrome/133.0.0.0 Safari/537.36",Macintosh,Chrome,133.0.0.0,OS X,10_15_7,https://5puzkbbxv1.cognition.run/?sona_id=58253,"en-US,en;q=0.9",u4ggghq6b6zwtl9,22,"[""White""]",No,Female,Canada 8 months out of year and 4 months in US. Did this for first 6 years of my life.,No,914168.7000000476,NA,null,<p></p>,null,choice,tc,binary,attraction,NA,televisions,null,null,null,null,null,null,1,NA,NA,NA,NA,NA,NA,NA,NA,NA,NA
NA,NA,NA,NA,NA,choice_trial,survey-html-form,81,647821,0.0-4.0-1.38,291,1,2025-05-07T19:30:39Z,b60275e29fe2361ab97ac0ac217840d7,"Mozilla/5.0 (Macintosh; Intel Mac OS X 10_15_7) AppleWebKit/537.36 (KHTML, like Gecko) Chrome/133.0.0.0 Safari/537.36",Macintosh,Chrome,133.0.0.0,OS X,10_15_7,https://5puzkbbxv1.cognition.run/?sona_id=58253,"en-US,en;q=0.9",u4ggghq6b6zwtl9,22,"[""White""]",No,Female,Canada 8 months out of year and 4 months in US. Did this for first 6 years of my life.,No,914168.7000000476,NA,7725,NA,"{""product_choice"":""B""}",choice,tc,binary,attraction,NA,televisions,null,null,null,null,null,null,1,60,50,null,50,60,null,Screen size,Average lifespan,NA,NA
NA,NA,NA,NA,NA,choice_trial_setup,html-keyboard-response,82,648125,0.0-4.0-0.39,291,1,2025-05-07T19:30:39Z,b60275e29fe2361ab97ac0ac217840d7,"Mozilla/5.0 (Macintosh; Intel Mac OS X 10_15_7) AppleWebKit/537.36 (KHTML, like Gecko) Chrome/133.0.0.0 Safari/537.36",Macintosh,Chrome,133.0.0.0,OS X,10_15_7,https://5puzkbbxv1.cognition.run/?sona_id=58253,"en-US,en;q=0.9",u4ggghq6b6zwtl9,22,"[""White""]",No,Female,Canada 8 months out of year and 4 months in US. Did this for first 6 years of my life.,No,914168.7000000476,NA,null,<p></p>,null,choice,ct,binary,attraction,NA,microwave ovens,null,null,null,null,null,null,2,NA,NA,NA,NA,NA,NA,NA,NA,NA,NA
NA,NA,NA,NA,NA,choice_trial,survey-html-form,83,657583,0.0-4.0-1.39,291,1,2025-05-07T19:30:39Z,b60275e29fe2361ab97ac0ac217840d7,"Mozilla/5.0 (Macintosh; Intel Mac OS X 10_15_7) AppleWebKit/537.36 (KHTML, like Gecko) Chrome/133.0.0.0 Safari/537.36",Macintosh,Chrome,133.0.0.0,OS X,10_15_7,https://5puzkbbxv1.cognition.run/?sona_id=58253,"en-US,en;q=0.9",u4ggghq6b6zwtl9,22,"[""White""]",No,Female,Canada 8 months out of year and 4 months in US. Did this for first 6 years of my life.,No,914168.7000000476,NA,9452,NA,"{""product_choice"":""A""}",choice,ct,binary,attraction,NA,microwave ovens,null,null,null,null,null,null,2,60,50,null,50,60,null,Warranty,Cooking power,NA,NA
NA,NA,NA,NA,NA,choice_trial_setup,html-keyboard-response,84,657888,0.0-4.0-0.40,291,1,2025-05-07T19:30:39Z,b60275e29fe2361ab97ac0ac217840d7,"Mozilla/5.0 (Macintosh; Intel Mac OS X 10_15_7) AppleWebKit/537.36 (KHTML, like Gecko) Chrome/133.0.0.0 Safari/537.36",Macintosh,Chrome,133.0.0.0,OS X,10_15_7,https://5puzkbbxv1.cognition.run/?sona_id=58253,"en-US,en;q=0.9",u4ggghq6b6zwtl9,22,"[""White""]",No,Female,Canada 8 months out of year and 4 months in US. Did this for first 6 years of my life.,No,914168.7000000476,NA,null,<p></p>,null,choice,cdt,trinary,attraction,1,laptops,null,null,null,null,null,null,2,NA,NA,NA,NA,NA,NA,NA,NA,NA,NA
NA,NA,NA,NA,NA,choice_trial,survey-html-form,85,669967,0.0-4.0-1.40,291,1,2025-05-07T19:30:39Z,b60275e29fe2361ab97ac0ac217840d7,"Mozilla/5.0 (Macintosh; Intel Mac OS X 10_15_7) AppleWebKit/537.36 (KHTML, like Gecko) Chrome/133.0.0.0 Safari/537.36",Macintosh,Chrome,133.0.0.0,OS X,10_15_7,https://5puzkbbxv1.cognition.run/?sona_id=58253,"en-US,en;q=0.9",u4ggghq6b6zwtl9,22,"[""White""]",No,Female,Canada 8 months out of year and 4 months in US. Did this for first 6 years of my life.,No,914168.7000000476,NA,12073,NA,"{""product_choice"":""C""}",choice,cdt,trinary,attraction,1,laptops,null,null,null,null,null,null,2,60,50,60,50,60,40,Processing speed,Memory (RAM),NA,NA
NA,NA,NA,NA,NA,choice_trial_setup,html-keyboard-response,86,670272,0.0-4.0-0.41,291,1,2025-05-07T19:30:39Z,b60275e29fe2361ab97ac0ac217840d7,"Mozilla/5.0 (Macintosh; Intel Mac OS X 10_15_7) AppleWebKit/537.36 (KHTML, like Gecko) Chrome/133.0.0.0 Safari/537.36",Macintosh,Chrome,133.0.0.0,OS X,10_15_7,https://5puzkbbxv1.cognition.run/?sona_id=58253,"en-US,en;q=0.9",u4ggghq6b6zwtl9,22,"[""White""]",No,Female,Canada 8 months out of year and 4 months in US. Did this for first 6 years of my life.,No,914168.7000000476,NA,null,<p></p>,null,choice,dtc,trinary,repulsion_A,2,laptops,null,null,null,null,null,null,1,NA,NA,NA,NA,NA,NA,NA,NA,NA,NA
NA,NA,NA,NA,NA,choice_trial,survey-html-form,87,679884,0.0-4.0-1.41,291,1,2025-05-07T19:30:39Z,b60275e29fe2361ab97ac0ac217840d7,"Mozilla/5.0 (Macintosh; Intel Mac OS X 10_15_7) AppleWebKit/537.36 (KHTML, like Gecko) Chrome/133.0.0.0 Safari/537.36",Macintosh,Chrome,133.0.0.0,OS X,10_15_7,https://5puzkbbxv1.cognition.run/?sona_id=58253,"en-US,en;q=0.9",u4ggghq6b6zwtl9,22,"[""White""]",No,Female,Canada 8 months out of year and 4 months in US. Did this for first 6 years of my life.,No,914168.7000000476,NA,9607,NA,"{""product_choice"":""B""}",choice,dtc,trinary,repulsion_A,2,laptops,null,null,null,null,null,null,1,30,40,20,100,90,100,Processing speed,Memory (RAM),NA,NA
NA,NA,NA,NA,NA,choice_trial_setup,html-keyboard-response,88,680189,0.0-4.0-0.42,291,1,2025-05-07T19:30:39Z,b60275e29fe2361ab97ac0ac217840d7,"Mozilla/5.0 (Macintosh; Intel Mac OS X 10_15_7) AppleWebKit/537.36 (KHTML, like Gecko) Chrome/133.0.0.0 Safari/537.36",Macintosh,Chrome,133.0.0.0,OS X,10_15_7,https://5puzkbbxv1.cognition.run/?sona_id=58253,"en-US,en;q=0.9",u4ggghq6b6zwtl9,22,"[""White""]",No,Female,Canada 8 months out of year and 4 months in US. Did this for first 6 years of my life.,No,914168.7000000476,NA,null,<p></p>,null,choice,ctd,trinary,repulsion_B,2,washing machines,null,null,null,null,null,null,1,NA,NA,NA,NA,NA,NA,NA,NA,NA,NA
NA,NA,NA,NA,NA,choice_trial,survey-html-form,89,699767,0.0-4.0-1.42,291,1,2025-05-07T19:30:39Z,b60275e29fe2361ab97ac0ac217840d7,"Mozilla/5.0 (Macintosh; Intel Mac OS X 10_15_7) AppleWebKit/537.36 (KHTML, like Gecko) Chrome/133.0.0.0 Safari/537.36",Macintosh,Chrome,133.0.0.0,OS X,10_15_7,https://5puzkbbxv1.cognition.run/?sona_id=58253,"en-US,en;q=0.9",u4ggghq6b6zwtl9,22,"[""White""]",No,Female,Canada 8 months out of year and 4 months in US. Did this for first 6 years of my life.,No,914168.7000000476,NA,19572,NA,"{""product_choice"":""A""}",choice,ctd,trinary,repulsion_B,2,washing machines,null,null,null,null,null,null,1,40,30,40,90,100,80,Average lifespan,Energy savings,NA,NA
NA,NA,NA,NA,NA,choice_trial_setup,html-keyboard-response,90,700071,0.0-4.0-0.43,291,1,2025-05-07T19:30:39Z,b60275e29fe2361ab97ac0ac217840d7,"Mozilla/5.0 (Macintosh; Intel Mac OS X 10_15_7) AppleWebKit/537.36 (KHTML, like Gecko) Chrome/133.0.0.0 Safari/537.36",Macintosh,Chrome,133.0.0.0,OS X,10_15_7,https://5puzkbbxv1.cognition.run/?sona_id=58253,"en-US,en;q=0.9",u4ggghq6b6zwtl9,22,"[""White""]",No,Female,Canada 8 months out of year and 4 months in US. Did this for first 6 years of my life.,No,914168.7000000476,NA,null,<p></p>,null,choice,dtc,trinary,repulsion_B,1,washing machines,null,null,null,null,null,null,2,NA,NA,NA,NA,NA,NA,NA,NA,NA,NA
NA,NA,NA,NA,NA,choice_trial,survey-html-form,91,714918,0.0-4.0-1.43,291,1,2025-05-07T19:30:39Z,b60275e29fe2361ab97ac0ac217840d7,"Mozilla/5.0 (Macintosh; Intel Mac OS X 10_15_7) AppleWebKit/537.36 (KHTML, like Gecko) Chrome/133.0.0.0 Safari/537.36",Macintosh,Chrome,133.0.0.0,OS X,10_15_7,https://5puzkbbxv1.cognition.run/?sona_id=58253,"en-US,en;q=0.9",u4ggghq6b6zwtl9,22,"[""White""]",No,Female,Canada 8 months out of year and 4 months in US. Did this for first 6 years of my life.,No,914168.7000000476,NA,14840,NA,"{""product_choice"":""B""}",choice,dtc,trinary,repulsion_B,1,washing machines,null,null,null,null,null,null,2,90,100,80,40,30,40,Average lifespan,Energy savings,NA,NA
NA,NA,NA,NA,NA,post_trials_message,html-button-response,92,717118,0.0-5.0,291,1,2025-05-07T19:30:39Z,b60275e29fe2361ab97ac0ac217840d7,"Mozilla/5.0 (Macintosh; Intel Mac OS X 10_15_7) AppleWebKit/537.36 (KHTML, like Gecko) Chrome/133.0.0.0 Safari/537.36",Macintosh,Chrome,133.0.0.0,OS X,10_15_7,https://5puzkbbxv1.cognition.run/?sona_id=58253,"en-US,en;q=0.9",u4ggghq6b6zwtl9,22,"[""White""]",No,Female,Canada 8 months out of year and 4 months in US. Did this for first 6 years of my life.,No,914168.7000000476,NA,2196,<p> <b>Thank you for your patience!</b></p><p>  The study will be done after completing a brief form. </p>,0,NA,NA,NA,NA,NA,NA,NA,NA,NA,NA,NA,NA,NA,NA,NA,NA,NA,NA,NA,NA,NA,NA,NA
NA,NA,NA,NA,NA,survey_message,survey-text,93,777567,0.0-6.0,291,1,2025-05-07T19:30:39Z,b60275e29fe2361ab97ac0ac217840d7,"Mozilla/5.0 (Macintosh; Intel Mac OS X 10_15_7) AppleWebKit/537.36 (KHTML, like Gecko) Chrome/133.0.0.0 Safari/537.36",Macintosh,Chrome,133.0.0.0,OS X,10_15_7,https://5puzkbbxv1.cognition.run/?sona_id=58253,"en-US,en;q=0.9",u4ggghq6b6zwtl9,22,"[""White""]",No,Female,Canada 8 months out of year and 4 months in US. Did this for first 6 years of my life.,No,914168.7000000476,NA,60445,NA,"{""Q0"":""I looked at what was more important to me, and based my answer on which was higher. ""}",NA,NA,NA,NA,NA,NA,NA,NA,NA,NA,NA,NA,NA,NA,NA,NA,NA,NA,NA,NA,NA,"I looked at what was more important to me, and based my answer on which was higher.",NA
NA,NA,NA,NA,NA,demo_age,survey-text,94,779753,0.0-7.0,291,1,2025-05-07T19:30:39Z,b60275e29fe2361ab97ac0ac217840d7,"Mozilla/5.0 (Macintosh; Intel Mac OS X 10_15_7) AppleWebKit/537.36 (KHTML, like Gecko) Chrome/133.0.0.0 Safari/537.36",Macintosh,Chrome,133.0.0.0,OS X,10_15_7,https://5puzkbbxv1.cognition.run/?sona_id=58253,"en-US,en;q=0.9",u4ggghq6b6zwtl9,22,"[""White""]",No,Female,Canada 8 months out of year and 4 months in US. Did this for first 6 years of my life.,No,914168.7000000476,NA,2181,NA,"{""Q0"":""22""}",NA,NA,NA,NA,NA,NA,NA,NA,NA,NA,NA,NA,NA,NA,NA,NA,NA,NA,NA,NA,NA,NA,NA
NA,NA,NA,NA,NA,demo_race,survey-multi-select,95,782569,0.0-8.0,291,1,2025-05-07T19:30:39Z,b60275e29fe2361ab97ac0ac217840d7,"Mozilla/5.0 (Macintosh; Intel Mac OS X 10_15_7) AppleWebKit/537.36 (KHTML, like Gecko) Chrome/133.0.0.0 Safari/537.36",Macintosh,Chrome,133.0.0.0,OS X,10_15_7,https://5puzkbbxv1.cognition.run/?sona_id=58253,"en-US,en;q=0.9",u4ggghq6b6zwtl9,22,"[""White""]",No,Female,Canada 8 months out of year and 4 months in US. Did this for first 6 years of my life.,No,914168.7000000476,NA,2810,NA,"{""Q0"":[""White""]}",NA,NA,NA,NA,NA,NA,NA,NA,NA,NA,NA,NA,NA,NA,NA,NA,NA,NA,NA,NA,NA,NA,[0]
NA,NA,NA,NA,NA,demo_ethnicity_gender,survey-multi-choice,96,789535,0.0-9.0,291,1,2025-05-07T19:30:39Z,b60275e29fe2361ab97ac0ac217840d7,"Mozilla/5.0 (Macintosh; Intel Mac OS X 10_15_7) AppleWebKit/537.36 (KHTML, like Gecko) Chrome/133.0.0.0 Safari/537.36",Macintosh,Chrome,133.0.0.0,OS X,10_15_7,https://5puzkbbxv1.cognition.run/?sona_id=58253,"en-US,en;q=0.9",u4ggghq6b6zwtl9,22,"[""White""]",No,Female,Canada 8 months out of year and 4 months in US. Did this for first 6 years of my life.,No,914168.7000000476,NA,6961,NA,"{""Q0"":""No"",""Q1"":""Female""}",NA,NA,NA,NA,NA,NA,NA,NA,NA,NA,NA,NA,NA,NA,NA,NA,NA,NA,NA,NA,NA,NA,"[0,1]"
NA,NA,NA,NA,NA,demo_countries,survey-text,97,844102,0.0-10.0,291,1,2025-05-07T19:30:39Z,b60275e29fe2361ab97ac0ac217840d7,"Mozilla/5.0 (Macintosh; Intel Mac OS X 10_15_7) AppleWebKit/537.36 (KHTML, like Gecko) Chrome/133.0.0.0 Safari/537.36",Macintosh,Chrome,133.0.0.0,OS X,10_15_7,https://5puzkbbxv1.cognition.run/?sona_id=58253,"en-US,en;q=0.9",u4ggghq6b6zwtl9,22,"[""White""]",No,Female,Canada 8 months out of year and 4 months in US. Did this for first 6 years of my life.,No,914168.7000000476,NA,54550,NA,"{""Q0"":""Canada 8 months out of year and 4 months in US. Did this for first 6 years of my life.""}",NA,NA,NA,NA,NA,NA,NA,NA,NA,NA,NA,NA,NA,NA,NA,NA,NA,NA,NA,NA,NA,NA,NA
NA,NA,NA,NA,NA,demo_prev_study,survey-multi-choice,98,852419,0.0-11.0,291,1,2025-05-07T19:30:39Z,b60275e29fe2361ab97ac0ac217840d7,"Mozilla/5.0 (Macintosh; Intel Mac OS X 10_15_7) AppleWebKit/537.36 (KHTML, like Gecko) Chrome/133.0.0.0 Safari/537.36",Macintosh,Chrome,133.0.0.0,OS X,10_15_7,https://5puzkbbxv1.cognition.run/?sona_id=58253,"en-US,en;q=0.9",u4ggghq6b6zwtl9,22,"[""White""]",No,Female,Canada 8 months out of year and 4 months in US. Did this for first 6 years of my life.,No,914168.7000000476,NA,8313,NA,"{""Q0"":""No""}",NA,NA,NA,NA,NA,NA,NA,NA,NA,NA,NA,NA,NA,NA,NA,NA,NA,NA,NA,NA,NA,NA,[0]
NA,NA,NA,NA,NA,post_survey_message,html-keyboard-response,99,862393,0.0-12.0,291,1,2025-05-07T19:30:39Z,b60275e29fe2361ab97ac0ac217840d7,"Mozilla/5.0 (Macintosh; Intel Mac OS X 10_15_7) AppleWebKit/537.36 (KHTML, like Gecko) Chrome/133.0.0.0 Safari/537.36",Macintosh,Chrome,133.0.0.0,OS X,10_15_7,https://5puzkbbxv1.cognition.run/?sona_id=58253,"en-US,en;q=0.9",u4ggghq6b6zwtl9,22,"[""White""]",No,Female,Canada 8 months out of year and 4 months in US. Did this for first 6 years of my life.,No,914168.7000000476,NA,9970,NA,j,NA,NA,NA,NA,NA,NA,NA,NA,NA,NA,NA,NA,NA,NA,NA,NA,NA,NA,NA,NA,NA,NA,NA
NA,NA,NA,NA,NA,debrief,image-keyboard-response,100,914137,0.0-13.0,291,1,2025-05-07T19:30:39Z,b60275e29fe2361ab97ac0ac217840d7,"Mozilla/5.0 (Macintosh; Intel Mac OS X 10_15_7) AppleWebKit/537.36 (KHTML, like Gecko) Chrome/133.0.0.0 Safari/537.36",Macintosh,Chrome,133.0.0.0,OS X,10_15_7,https://5puzkbbxv1.cognition.run/?sona_id=58253,"en-US,en;q=0.9",u4ggghq6b6zwtl9,22,"[""White""]",No,Female,Canada 8 months out of year and 4 months in US. Did this for first 6 years of my life.,No,914168.7000000476,NA,51736,Judg_choice_debrief.png,p,NA,NA,NA,NA,NA,NA,NA,NA,NA,NA,NA,NA,NA,NA,NA,NA,NA,NA,NA,NA,NA,NA,NA
