success,timeout,failed_images,failed_audio,failed_video,screen_id,trial_type,trial_index,time_elapsed,internal_node_id,run_id,condition,recorded_at,source_code_version,user_agent,device,browser,browser_version,platform,platform_version,referer,accept_language,ppt_id,age,race,ethnicity,gender,other_countries,prev_study,exp_duration,view_history,rt,stimulus,response,phase,order,set,effect,t_high,category,d1_best,d2_best,d1_worst1,d2_worst1,d1_worst2,d2_worst2,first_dim,d1_t,d1_c,d1_d,d2_t,d2_c,d2_d,d1_name,d2_name,strategy_response,question_order
TRUE,FALSE,[],[],[],img preload,preload,0,205,0.0-0.0,292,1,2025-05-07T19:33:11Z,b60275e29fe2361ab97ac0ac217840d7,"Mozilla/5.0 (Macintosh; Intel Mac OS X 10_15_7) AppleWebKit/605.1.15 (KHTML, like Gecko) Version/18.3.1 Safari/605.1.15",Macintosh,Safari,18.3.1,OS X,10_15_7,https://5puzkbbxv1.cognition.run/?sona_id=51690,"en-US,en;q=0.9",8fuk9fwbemw90e1,19,"[""White""]",Yes,Female,na,Yes,548778,NA,NA,NA,NA,NA,NA,NA,NA,NA,NA,NA,NA,NA,NA,NA,NA,NA,NA,NA,NA,NA,NA,NA,NA,NA,NA,NA
NA,NA,NA,NA,NA,computer_message,instructions,1,2175,0.0-1.0,292,1,2025-05-07T19:33:11Z,b60275e29fe2361ab97ac0ac217840d7,"Mozilla/5.0 (Macintosh; Intel Mac OS X 10_15_7) AppleWebKit/605.1.15 (KHTML, like Gecko) Version/18.3.1 Safari/605.1.15",Macintosh,Safari,18.3.1,OS X,10_15_7,https://5puzkbbxv1.cognition.run/?sona_id=51690,"en-US,en;q=0.9",8fuk9fwbemw90e1,19,"[""White""]",Yes,Female,na,Yes,548778,"[{""page_index"":0,""viewing_time"":1967}]",1967,NA,NA,NA,NA,NA,NA,NA,NA,NA,NA,NA,NA,NA,NA,NA,NA,NA,NA,NA,NA,NA,NA,NA,NA,NA
TRUE,NA,NA,NA,NA,NA,fullscreen,2,4862,0.0-2.0,292,1,2025-05-07T19:33:11Z,b60275e29fe2361ab97ac0ac217840d7,"Mozilla/5.0 (Macintosh; Intel Mac OS X 10_15_7) AppleWebKit/605.1.15 (KHTML, like Gecko) Version/18.3.1 Safari/605.1.15",Macintosh,Safari,18.3.1,OS X,10_15_7,https://5puzkbbxv1.cognition.run/?sona_id=51690,"en-US,en;q=0.9",8fuk9fwbemw90e1,19,"[""White""]",Yes,Female,na,Yes,548778,NA,1684,NA,NA,NA,NA,NA,NA,NA,NA,NA,NA,NA,NA,NA,NA,NA,NA,NA,NA,NA,NA,NA,NA,NA,NA,NA
NA,NA,NA,NA,NA,choice_instructions,instructions,3,54623,0.0-3.0,292,1,2025-05-07T19:33:11Z,b60275e29fe2361ab97ac0ac217840d7,"Mozilla/5.0 (Macintosh; Intel Mac OS X 10_15_7) AppleWebKit/605.1.15 (KHTML, like Gecko) Version/18.3.1 Safari/605.1.15",Macintosh,Safari,18.3.1,OS X,10_15_7,https://5puzkbbxv1.cognition.run/?sona_id=51690,"en-US,en;q=0.9",8fuk9fwbemw90e1,19,"[""White""]",Yes,Female,na,Yes,548778,"[{""page_index"":0,""viewing_time"":1144},{""page_index"":1,""viewing_time"":4020},{""page_index"":2,""viewing_time"":4067},{""page_index"":3,""viewing_time"":3984},{""page_index"":4,""viewing_time"":3932},{""page_index"":5,""viewing_time"":24933},{""page_index"":6,""viewing_time"":7681}]",49762,NA,NA,NA,NA,NA,NA,NA,NA,NA,NA,NA,NA,NA,NA,NA,NA,NA,NA,NA,NA,NA,NA,NA,NA,NA
NA,NA,NA,NA,NA,choice_trial_setup,html-keyboard-response,4,54926,0.0-4.0-0.0,292,1,2025-05-07T19:33:11Z,b60275e29fe2361ab97ac0ac217840d7,"Mozilla/5.0 (Macintosh; Intel Mac OS X 10_15_7) AppleWebKit/605.1.15 (KHTML, like Gecko) Version/18.3.1 Safari/605.1.15",Macintosh,Safari,18.3.1,OS X,10_15_7,https://5puzkbbxv1.cognition.run/?sona_id=51690,"en-US,en;q=0.9",8fuk9fwbemw90e1,19,"[""White""]",Yes,Female,na,Yes,548778,NA,null,<p></p>,null,choice,cdt,trinary,repulsion_B,1,televisions,null,null,null,null,null,null,2,NA,NA,NA,NA,NA,NA,NA,NA,NA,NA
NA,NA,NA,NA,NA,choice_trial,survey-html-form,5,66623,0.0-4.0-1.0,292,1,2025-05-07T19:33:11Z,b60275e29fe2361ab97ac0ac217840d7,"Mozilla/5.0 (Macintosh; Intel Mac OS X 10_15_7) AppleWebKit/605.1.15 (KHTML, like Gecko) Version/18.3.1 Safari/605.1.15",Macintosh,Safari,18.3.1,OS X,10_15_7,https://5puzkbbxv1.cognition.run/?sona_id=51690,"en-US,en;q=0.9",8fuk9fwbemw90e1,19,"[""White""]",Yes,Female,na,Yes,548778,NA,11346,NA,"{""product_choice"":""C""}",choice,cdt,trinary,repulsion_B,1,televisions,null,null,null,null,null,null,2,90,100,80,40,30,40,Screen size,Average lifespan,NA,NA
NA,NA,NA,NA,NA,choice_trial_setup,html-keyboard-response,6,66927,0.0-4.0-0.1,292,1,2025-05-07T19:33:11Z,b60275e29fe2361ab97ac0ac217840d7,"Mozilla/5.0 (Macintosh; Intel Mac OS X 10_15_7) AppleWebKit/605.1.15 (KHTML, like Gecko) Version/18.3.1 Safari/605.1.15",Macintosh,Safari,18.3.1,OS X,10_15_7,https://5puzkbbxv1.cognition.run/?sona_id=51690,"en-US,en;q=0.9",8fuk9fwbemw90e1,19,"[""White""]",Yes,Female,na,Yes,548778,NA,null,<p></p>,null,choice,wb,binary,catch,null,televisions,95,65,25,15,null,null,1,NA,NA,NA,NA,NA,NA,NA,NA,NA,NA
NA,NA,NA,NA,NA,choice_trial,survey-html-form,7,76302,0.0-4.0-1.1,292,1,2025-05-07T19:33:11Z,b60275e29fe2361ab97ac0ac217840d7,"Mozilla/5.0 (Macintosh; Intel Mac OS X 10_15_7) AppleWebKit/605.1.15 (KHTML, like Gecko) Version/18.3.1 Safari/605.1.15",Macintosh,Safari,18.3.1,OS X,10_15_7,https://5puzkbbxv1.cognition.run/?sona_id=51690,"en-US,en;q=0.9",8fuk9fwbemw90e1,19,"[""White""]",Yes,Female,na,Yes,548778,NA,9372,NA,"{""product_choice"":""B""}",choice,wb,binary,catch,null,televisions,95,65,25,15,null,null,1,null,null,null,null,null,null,Screen size,Average lifespan,NA,NA
NA,NA,NA,NA,NA,choice_trial_setup,html-keyboard-response,8,76605,0.0-4.0-0.2,292,1,2025-05-07T19:33:11Z,b60275e29fe2361ab97ac0ac217840d7,"Mozilla/5.0 (Macintosh; Intel Mac OS X 10_15_7) AppleWebKit/605.1.15 (KHTML, like Gecko) Version/18.3.1 Safari/605.1.15",Macintosh,Safari,18.3.1,OS X,10_15_7,https://5puzkbbxv1.cognition.run/?sona_id=51690,"en-US,en;q=0.9",8fuk9fwbemw90e1,19,"[""White""]",Yes,Female,na,Yes,548778,NA,null,<p></p>,null,choice,tc,binary,repulsion,2,microwave ovens,null,null,null,null,null,null,2,NA,NA,NA,NA,NA,NA,NA,NA,NA,NA
NA,NA,NA,NA,NA,choice_trial,survey-html-form,9,87871,0.0-4.0-1.2,292,1,2025-05-07T19:33:11Z,b60275e29fe2361ab97ac0ac217840d7,"Mozilla/5.0 (Macintosh; Intel Mac OS X 10_15_7) AppleWebKit/605.1.15 (KHTML, like Gecko) Version/18.3.1 Safari/605.1.15",Macintosh,Safari,18.3.1,OS X,10_15_7,https://5puzkbbxv1.cognition.run/?sona_id=51690,"en-US,en;q=0.9",8fuk9fwbemw90e1,19,"[""White""]",Yes,Female,na,Yes,548778,NA,11263,NA,"{""product_choice"":""B""}",choice,tc,binary,repulsion,2,microwave ovens,null,null,null,null,null,null,2,30,40,null,100,90,null,Warranty,Cooking power,NA,NA
NA,NA,NA,NA,NA,choice_trial_setup,html-keyboard-response,10,88175,0.0-4.0-0.3,292,1,2025-05-07T19:33:11Z,b60275e29fe2361ab97ac0ac217840d7,"Mozilla/5.0 (Macintosh; Intel Mac OS X 10_15_7) AppleWebKit/605.1.15 (KHTML, like Gecko) Version/18.3.1 Safari/605.1.15",Macintosh,Safari,18.3.1,OS X,10_15_7,https://5puzkbbxv1.cognition.run/?sona_id=51690,"en-US,en;q=0.9",8fuk9fwbemw90e1,19,"[""White""]",Yes,Female,na,Yes,548778,NA,null,<p></p>,null,choice,tdc,trinary,repulsion_A,2,microwave ovens,null,null,null,null,null,null,2,NA,NA,NA,NA,NA,NA,NA,NA,NA,NA
NA,NA,NA,NA,NA,choice_trial,survey-html-form,11,93772,0.0-4.0-1.3,292,1,2025-05-07T19:33:11Z,b60275e29fe2361ab97ac0ac217840d7,"Mozilla/5.0 (Macintosh; Intel Mac OS X 10_15_7) AppleWebKit/605.1.15 (KHTML, like Gecko) Version/18.3.1 Safari/605.1.15",Macintosh,Safari,18.3.1,OS X,10_15_7,https://5puzkbbxv1.cognition.run/?sona_id=51690,"en-US,en;q=0.9",8fuk9fwbemw90e1,19,"[""White""]",Yes,Female,na,Yes,548778,NA,5592,NA,"{""product_choice"":""C""}",choice,tdc,trinary,repulsion_A,2,microwave ovens,null,null,null,null,null,null,2,30,40,20,100,90,100,Warranty,Cooking power,NA,NA
NA,NA,NA,NA,NA,choice_trial_setup,html-keyboard-response,12,94075,0.0-4.0-0.4,292,1,2025-05-07T19:33:11Z,b60275e29fe2361ab97ac0ac217840d7,"Mozilla/5.0 (Macintosh; Intel Mac OS X 10_15_7) AppleWebKit/605.1.15 (KHTML, like Gecko) Version/18.3.1 Safari/605.1.15",Macintosh,Safari,18.3.1,OS X,10_15_7,https://5puzkbbxv1.cognition.run/?sona_id=51690,"en-US,en;q=0.9",8fuk9fwbemw90e1,19,"[""White""]",Yes,Female,na,Yes,548778,NA,null,<p></p>,null,choice,tdc,trinary,attraction,1,televisions,null,null,null,null,null,null,1,NA,NA,NA,NA,NA,NA,NA,NA,NA,NA
NA,NA,NA,NA,NA,choice_trial,survey-html-form,13,104370,0.0-4.0-1.4,292,1,2025-05-07T19:33:11Z,b60275e29fe2361ab97ac0ac217840d7,"Mozilla/5.0 (Macintosh; Intel Mac OS X 10_15_7) AppleWebKit/605.1.15 (KHTML, like Gecko) Version/18.3.1 Safari/605.1.15",Macintosh,Safari,18.3.1,OS X,10_15_7,https://5puzkbbxv1.cognition.run/?sona_id=51690,"en-US,en;q=0.9",8fuk9fwbemw90e1,19,"[""White""]",Yes,Female,na,Yes,548778,NA,10291,NA,"{""product_choice"":""C""}",choice,tdc,trinary,attraction,1,televisions,null,null,null,null,null,null,1,60,50,60,50,60,40,Screen size,Average lifespan,NA,NA
NA,NA,NA,NA,NA,choice_trial_setup,html-keyboard-response,14,104672,0.0-4.0-0.5,292,1,2025-05-07T19:33:11Z,b60275e29fe2361ab97ac0ac217840d7,"Mozilla/5.0 (Macintosh; Intel Mac OS X 10_15_7) AppleWebKit/605.1.15 (KHTML, like Gecko) Version/18.3.1 Safari/605.1.15",Macintosh,Safari,18.3.1,OS X,10_15_7,https://5puzkbbxv1.cognition.run/?sona_id=51690,"en-US,en;q=0.9",8fuk9fwbemw90e1,19,"[""White""]",Yes,Female,na,Yes,548778,NA,null,<p></p>,null,choice,cdt,trinary,repulsion_A,2,laptops,null,null,null,null,null,null,1,NA,NA,NA,NA,NA,NA,NA,NA,NA,NA
NA,NA,NA,NA,NA,choice_trial,survey-html-form,15,112036,0.0-4.0-1.5,292,1,2025-05-07T19:33:11Z,b60275e29fe2361ab97ac0ac217840d7,"Mozilla/5.0 (Macintosh; Intel Mac OS X 10_15_7) AppleWebKit/605.1.15 (KHTML, like Gecko) Version/18.3.1 Safari/605.1.15",Macintosh,Safari,18.3.1,OS X,10_15_7,https://5puzkbbxv1.cognition.run/?sona_id=51690,"en-US,en;q=0.9",8fuk9fwbemw90e1,19,"[""White""]",Yes,Female,na,Yes,548778,NA,7360,NA,"{""product_choice"":""A""}",choice,cdt,trinary,repulsion_A,2,laptops,null,null,null,null,null,null,1,30,40,20,100,90,100,Processing speed,Memory (RAM),NA,NA
NA,NA,NA,NA,NA,choice_trial_setup,html-keyboard-response,16,112338,0.0-4.0-0.6,292,1,2025-05-07T19:33:11Z,b60275e29fe2361ab97ac0ac217840d7,"Mozilla/5.0 (Macintosh; Intel Mac OS X 10_15_7) AppleWebKit/605.1.15 (KHTML, like Gecko) Version/18.3.1 Safari/605.1.15",Macintosh,Safari,18.3.1,OS X,10_15_7,https://5puzkbbxv1.cognition.run/?sona_id=51690,"en-US,en;q=0.9",8fuk9fwbemw90e1,19,"[""White""]",Yes,Female,na,Yes,548778,NA,null,<p></p>,null,choice,ct,binary,attraction,NA,washing machines,null,null,null,null,null,null,1,NA,NA,NA,NA,NA,NA,NA,NA,NA,NA
NA,NA,NA,NA,NA,choice_trial,survey-html-form,17,119390,0.0-4.0-1.6,292,1,2025-05-07T19:33:11Z,b60275e29fe2361ab97ac0ac217840d7,"Mozilla/5.0 (Macintosh; Intel Mac OS X 10_15_7) AppleWebKit/605.1.15 (KHTML, like Gecko) Version/18.3.1 Safari/605.1.15",Macintosh,Safari,18.3.1,OS X,10_15_7,https://5puzkbbxv1.cognition.run/?sona_id=51690,"en-US,en;q=0.9",8fuk9fwbemw90e1,19,"[""White""]",Yes,Female,na,Yes,548778,NA,7049,NA,"{""product_choice"":""A""}",choice,ct,binary,attraction,NA,washing machines,null,null,null,null,null,null,1,60,50,null,50,60,null,Average lifespan,Energy savings,NA,NA
NA,NA,NA,NA,NA,choice_trial_setup,html-keyboard-response,18,119693,0.0-4.0-0.7,292,1,2025-05-07T19:33:11Z,b60275e29fe2361ab97ac0ac217840d7,"Mozilla/5.0 (Macintosh; Intel Mac OS X 10_15_7) AppleWebKit/605.1.15 (KHTML, like Gecko) Version/18.3.1 Safari/605.1.15",Macintosh,Safari,18.3.1,OS X,10_15_7,https://5puzkbbxv1.cognition.run/?sona_id=51690,"en-US,en;q=0.9",8fuk9fwbemw90e1,19,"[""White""]",Yes,Female,na,Yes,548778,NA,null,<p></p>,null,choice,ct,binary,repulsion,2,laptops,null,null,null,null,null,null,2,NA,NA,NA,NA,NA,NA,NA,NA,NA,NA
NA,NA,NA,NA,NA,choice_trial,survey-html-form,19,128139,0.0-4.0-1.7,292,1,2025-05-07T19:33:11Z,b60275e29fe2361ab97ac0ac217840d7,"Mozilla/5.0 (Macintosh; Intel Mac OS X 10_15_7) AppleWebKit/605.1.15 (KHTML, like Gecko) Version/18.3.1 Safari/605.1.15",Macintosh,Safari,18.3.1,OS X,10_15_7,https://5puzkbbxv1.cognition.run/?sona_id=51690,"en-US,en;q=0.9",8fuk9fwbemw90e1,19,"[""White""]",Yes,Female,na,Yes,548778,NA,8442,NA,"{""product_choice"":""A""}",choice,ct,binary,repulsion,2,laptops,null,null,null,null,null,null,2,30,40,null,100,90,null,Processing speed,Memory (RAM),NA,NA
NA,NA,NA,NA,NA,choice_trial_setup,html-keyboard-response,20,128442,0.0-4.0-0.8,292,1,2025-05-07T19:33:11Z,b60275e29fe2361ab97ac0ac217840d7,"Mozilla/5.0 (Macintosh; Intel Mac OS X 10_15_7) AppleWebKit/605.1.15 (KHTML, like Gecko) Version/18.3.1 Safari/605.1.15",Macintosh,Safari,18.3.1,OS X,10_15_7,https://5puzkbbxv1.cognition.run/?sona_id=51690,"en-US,en;q=0.9",8fuk9fwbemw90e1,19,"[""White""]",Yes,Female,na,Yes,548778,NA,null,<p></p>,null,choice,ct,binary,repulsion,2,televisions,null,null,null,null,null,null,1,NA,NA,NA,NA,NA,NA,NA,NA,NA,NA
NA,NA,NA,NA,NA,choice_trial,survey-html-form,21,135106,0.0-4.0-1.8,292,1,2025-05-07T19:33:11Z,b60275e29fe2361ab97ac0ac217840d7,"Mozilla/5.0 (Macintosh; Intel Mac OS X 10_15_7) AppleWebKit/605.1.15 (KHTML, like Gecko) Version/18.3.1 Safari/605.1.15",Macintosh,Safari,18.3.1,OS X,10_15_7,https://5puzkbbxv1.cognition.run/?sona_id=51690,"en-US,en;q=0.9",8fuk9fwbemw90e1,19,"[""White""]",Yes,Female,na,Yes,548778,NA,6660,NA,"{""product_choice"":""B""}",choice,ct,binary,repulsion,2,televisions,null,null,null,null,null,null,1,30,40,null,100,90,null,Screen size,Average lifespan,NA,NA
NA,NA,NA,NA,NA,choice_trial_setup,html-keyboard-response,22,135409,0.0-4.0-0.9,292,1,2025-05-07T19:33:11Z,b60275e29fe2361ab97ac0ac217840d7,"Mozilla/5.0 (Macintosh; Intel Mac OS X 10_15_7) AppleWebKit/605.1.15 (KHTML, like Gecko) Version/18.3.1 Safari/605.1.15",Macintosh,Safari,18.3.1,OS X,10_15_7,https://5puzkbbxv1.cognition.run/?sona_id=51690,"en-US,en;q=0.9",8fuk9fwbemw90e1,19,"[""White""]",Yes,Female,na,Yes,548778,NA,null,<p></p>,null,choice,ctd,trinary,repulsion_B,1,laptops,null,null,null,null,null,null,1,NA,NA,NA,NA,NA,NA,NA,NA,NA,NA
NA,NA,NA,NA,NA,choice_trial,survey-html-form,23,143306,0.0-4.0-1.9,292,1,2025-05-07T19:33:11Z,b60275e29fe2361ab97ac0ac217840d7,"Mozilla/5.0 (Macintosh; Intel Mac OS X 10_15_7) AppleWebKit/605.1.15 (KHTML, like Gecko) Version/18.3.1 Safari/605.1.15",Macintosh,Safari,18.3.1,OS X,10_15_7,https://5puzkbbxv1.cognition.run/?sona_id=51690,"en-US,en;q=0.9",8fuk9fwbemw90e1,19,"[""White""]",Yes,Female,na,Yes,548778,NA,7893,NA,"{""product_choice"":""A""}",choice,ctd,trinary,repulsion_B,1,laptops,null,null,null,null,null,null,1,90,100,80,40,30,40,Processing speed,Memory (RAM),NA,NA
NA,NA,NA,NA,NA,choice_trial_setup,html-keyboard-response,24,143609,0.0-4.0-0.10,292,1,2025-05-07T19:33:11Z,b60275e29fe2361ab97ac0ac217840d7,"Mozilla/5.0 (Macintosh; Intel Mac OS X 10_15_7) AppleWebKit/605.1.15 (KHTML, like Gecko) Version/18.3.1 Safari/605.1.15",Macintosh,Safari,18.3.1,OS X,10_15_7,https://5puzkbbxv1.cognition.run/?sona_id=51690,"en-US,en;q=0.9",8fuk9fwbemw90e1,19,"[""White""]",Yes,Female,na,Yes,548778,NA,null,<p></p>,null,choice,tc,binary,attraction,NA,microwave ovens,null,null,null,null,null,null,1,NA,NA,NA,NA,NA,NA,NA,NA,NA,NA
NA,NA,NA,NA,NA,choice_trial,survey-html-form,25,147674,0.0-4.0-1.10,292,1,2025-05-07T19:33:11Z,b60275e29fe2361ab97ac0ac217840d7,"Mozilla/5.0 (Macintosh; Intel Mac OS X 10_15_7) AppleWebKit/605.1.15 (KHTML, like Gecko) Version/18.3.1 Safari/605.1.15",Macintosh,Safari,18.3.1,OS X,10_15_7,https://5puzkbbxv1.cognition.run/?sona_id=51690,"en-US,en;q=0.9",8fuk9fwbemw90e1,19,"[""White""]",Yes,Female,na,Yes,548778,NA,4060,NA,"{""product_choice"":""A""}",choice,tc,binary,attraction,NA,microwave ovens,null,null,null,null,null,null,1,60,50,null,50,60,null,Warranty,Cooking power,NA,NA
NA,NA,NA,NA,NA,choice_trial_setup,html-keyboard-response,26,147976,0.0-4.0-0.11,292,1,2025-05-07T19:33:11Z,b60275e29fe2361ab97ac0ac217840d7,"Mozilla/5.0 (Macintosh; Intel Mac OS X 10_15_7) AppleWebKit/605.1.15 (KHTML, like Gecko) Version/18.3.1 Safari/605.1.15",Macintosh,Safari,18.3.1,OS X,10_15_7,https://5puzkbbxv1.cognition.run/?sona_id=51690,"en-US,en;q=0.9",8fuk9fwbemw90e1,19,"[""White""]",Yes,Female,na,Yes,548778,NA,null,<p></p>,null,choice,tcd,trinary,repulsion_A,1,microwave ovens,null,null,null,null,null,null,2,NA,NA,NA,NA,NA,NA,NA,NA,NA,NA
NA,NA,NA,NA,NA,choice_trial,survey-html-form,27,153574,0.0-4.0-1.11,292,1,2025-05-07T19:33:11Z,b60275e29fe2361ab97ac0ac217840d7,"Mozilla/5.0 (Macintosh; Intel Mac OS X 10_15_7) AppleWebKit/605.1.15 (KHTML, like Gecko) Version/18.3.1 Safari/605.1.15",Macintosh,Safari,18.3.1,OS X,10_15_7,https://5puzkbbxv1.cognition.run/?sona_id=51690,"en-US,en;q=0.9",8fuk9fwbemw90e1,19,"[""White""]",Yes,Female,na,Yes,548778,NA,5594,NA,"{""product_choice"":""A""}",choice,tcd,trinary,repulsion_A,1,microwave ovens,null,null,null,null,null,null,2,100,90,100,30,40,20,Warranty,Cooking power,NA,NA
NA,NA,NA,NA,NA,choice_trial_setup,html-keyboard-response,28,153878,0.0-4.0-0.12,292,1,2025-05-07T19:33:11Z,b60275e29fe2361ab97ac0ac217840d7,"Mozilla/5.0 (Macintosh; Intel Mac OS X 10_15_7) AppleWebKit/605.1.15 (KHTML, like Gecko) Version/18.3.1 Safari/605.1.15",Macintosh,Safari,18.3.1,OS X,10_15_7,https://5puzkbbxv1.cognition.run/?sona_id=51690,"en-US,en;q=0.9",8fuk9fwbemw90e1,19,"[""White""]",Yes,Female,na,Yes,548778,NA,null,<p></p>,null,choice,dct,trinary,repulsion_B,1,microwave ovens,null,null,null,null,null,null,2,NA,NA,NA,NA,NA,NA,NA,NA,NA,NA
NA,NA,NA,NA,NA,choice_trial,survey-html-form,29,164858,0.0-4.0-1.12,292,1,2025-05-07T19:33:11Z,b60275e29fe2361ab97ac0ac217840d7,"Mozilla/5.0 (Macintosh; Intel Mac OS X 10_15_7) AppleWebKit/605.1.15 (KHTML, like Gecko) Version/18.3.1 Safari/605.1.15",Macintosh,Safari,18.3.1,OS X,10_15_7,https://5puzkbbxv1.cognition.run/?sona_id=51690,"en-US,en;q=0.9",8fuk9fwbemw90e1,19,"[""White""]",Yes,Female,na,Yes,548778,NA,10976,NA,"{""product_choice"":""B""}",choice,dct,trinary,repulsion_B,1,microwave ovens,null,null,null,null,null,null,2,90,100,80,40,30,40,Warranty,Cooking power,NA,NA
NA,NA,NA,NA,NA,choice_trial_setup,html-keyboard-response,30,165161,0.0-4.0-0.13,292,1,2025-05-07T19:33:11Z,b60275e29fe2361ab97ac0ac217840d7,"Mozilla/5.0 (Macintosh; Intel Mac OS X 10_15_7) AppleWebKit/605.1.15 (KHTML, like Gecko) Version/18.3.1 Safari/605.1.15",Macintosh,Safari,18.3.1,OS X,10_15_7,https://5puzkbbxv1.cognition.run/?sona_id=51690,"en-US,en;q=0.9",8fuk9fwbemw90e1,19,"[""White""]",Yes,Female,na,Yes,548778,NA,null,<p></p>,null,choice,ctd,trinary,repulsion_A,2,washing machines,null,null,null,null,null,null,2,NA,NA,NA,NA,NA,NA,NA,NA,NA,NA
NA,NA,NA,NA,NA,choice_trial,survey-html-form,31,170124,0.0-4.0-1.13,292,1,2025-05-07T19:33:11Z,b60275e29fe2361ab97ac0ac217840d7,"Mozilla/5.0 (Macintosh; Intel Mac OS X 10_15_7) AppleWebKit/605.1.15 (KHTML, like Gecko) Version/18.3.1 Safari/605.1.15",Macintosh,Safari,18.3.1,OS X,10_15_7,https://5puzkbbxv1.cognition.run/?sona_id=51690,"en-US,en;q=0.9",8fuk9fwbemw90e1,19,"[""White""]",Yes,Female,na,Yes,548778,NA,4958,NA,"{""product_choice"":""B""}",choice,ctd,trinary,repulsion_A,2,washing machines,null,null,null,null,null,null,2,30,40,20,100,90,100,Average lifespan,Energy savings,NA,NA
NA,NA,NA,NA,NA,choice_trial_setup,html-keyboard-response,32,170427,0.0-4.0-0.14,292,1,2025-05-07T19:33:11Z,b60275e29fe2361ab97ac0ac217840d7,"Mozilla/5.0 (Macintosh; Intel Mac OS X 10_15_7) AppleWebKit/605.1.15 (KHTML, like Gecko) Version/18.3.1 Safari/605.1.15",Macintosh,Safari,18.3.1,OS X,10_15_7,https://5puzkbbxv1.cognition.run/?sona_id=51690,"en-US,en;q=0.9",8fuk9fwbemw90e1,19,"[""White""]",Yes,Female,na,Yes,548778,NA,null,<p></p>,null,choice,dtc,trinary,repulsion_A,1,laptops,null,null,null,null,null,null,1,NA,NA,NA,NA,NA,NA,NA,NA,NA,NA
NA,NA,NA,NA,NA,choice_trial,survey-html-form,33,179807,0.0-4.0-1.14,292,1,2025-05-07T19:33:11Z,b60275e29fe2361ab97ac0ac217840d7,"Mozilla/5.0 (Macintosh; Intel Mac OS X 10_15_7) AppleWebKit/605.1.15 (KHTML, like Gecko) Version/18.3.1 Safari/605.1.15",Macintosh,Safari,18.3.1,OS X,10_15_7,https://5puzkbbxv1.cognition.run/?sona_id=51690,"en-US,en;q=0.9",8fuk9fwbemw90e1,19,"[""White""]",Yes,Female,na,Yes,548778,NA,9374,NA,"{""product_choice"":""C""}",choice,dtc,trinary,repulsion_A,1,laptops,null,null,null,null,null,null,1,100,90,100,30,40,20,Processing speed,Memory (RAM),NA,NA
NA,NA,NA,NA,NA,choice_trial_setup,html-keyboard-response,34,180110,0.0-4.0-0.15,292,1,2025-05-07T19:33:11Z,b60275e29fe2361ab97ac0ac217840d7,"Mozilla/5.0 (Macintosh; Intel Mac OS X 10_15_7) AppleWebKit/605.1.15 (KHTML, like Gecko) Version/18.3.1 Safari/605.1.15",Macintosh,Safari,18.3.1,OS X,10_15_7,https://5puzkbbxv1.cognition.run/?sona_id=51690,"en-US,en;q=0.9",8fuk9fwbemw90e1,19,"[""White""]",Yes,Female,na,Yes,548778,NA,null,<p></p>,null,choice,ct,binary,attraction,NA,televisions,null,null,null,null,null,null,1,NA,NA,NA,NA,NA,NA,NA,NA,NA,NA
NA,NA,NA,NA,NA,choice_trial,survey-html-form,35,184625,0.0-4.0-1.15,292,1,2025-05-07T19:33:11Z,b60275e29fe2361ab97ac0ac217840d7,"Mozilla/5.0 (Macintosh; Intel Mac OS X 10_15_7) AppleWebKit/605.1.15 (KHTML, like Gecko) Version/18.3.1 Safari/605.1.15",Macintosh,Safari,18.3.1,OS X,10_15_7,https://5puzkbbxv1.cognition.run/?sona_id=51690,"en-US,en;q=0.9",8fuk9fwbemw90e1,19,"[""White""]",Yes,Female,na,Yes,548778,NA,4511,NA,"{""product_choice"":""A""}",choice,ct,binary,attraction,NA,televisions,null,null,null,null,null,null,1,60,50,null,50,60,null,Screen size,Average lifespan,NA,NA
NA,NA,NA,NA,NA,choice_trial_setup,html-keyboard-response,36,184929,0.0-4.0-0.16,292,1,2025-05-07T19:33:11Z,b60275e29fe2361ab97ac0ac217840d7,"Mozilla/5.0 (Macintosh; Intel Mac OS X 10_15_7) AppleWebKit/605.1.15 (KHTML, like Gecko) Version/18.3.1 Safari/605.1.15",Macintosh,Safari,18.3.1,OS X,10_15_7,https://5puzkbbxv1.cognition.run/?sona_id=51690,"en-US,en;q=0.9",8fuk9fwbemw90e1,19,"[""White""]",Yes,Female,na,Yes,548778,NA,null,<p></p>,null,choice,wwb,trinary,catch,null,microwave ovens,60,85,15,25,30,5,1,NA,NA,NA,NA,NA,NA,NA,NA,NA,NA
NA,NA,NA,NA,NA,choice_trial,survey-html-form,37,189158,0.0-4.0-1.16,292,1,2025-05-07T19:33:11Z,b60275e29fe2361ab97ac0ac217840d7,"Mozilla/5.0 (Macintosh; Intel Mac OS X 10_15_7) AppleWebKit/605.1.15 (KHTML, like Gecko) Version/18.3.1 Safari/605.1.15",Macintosh,Safari,18.3.1,OS X,10_15_7,https://5puzkbbxv1.cognition.run/?sona_id=51690,"en-US,en;q=0.9",8fuk9fwbemw90e1,19,"[""White""]",Yes,Female,na,Yes,548778,NA,4225,NA,"{""product_choice"":""C""}",choice,wwb,trinary,catch,null,microwave ovens,60,85,15,25,30,5,1,null,null,null,null,null,null,Warranty,Cooking power,NA,NA
NA,NA,NA,NA,NA,choice_trial_setup,html-keyboard-response,38,189462,0.0-4.0-0.17,292,1,2025-05-07T19:33:11Z,b60275e29fe2361ab97ac0ac217840d7,"Mozilla/5.0 (Macintosh; Intel Mac OS X 10_15_7) AppleWebKit/605.1.15 (KHTML, like Gecko) Version/18.3.1 Safari/605.1.15",Macintosh,Safari,18.3.1,OS X,10_15_7,https://5puzkbbxv1.cognition.run/?sona_id=51690,"en-US,en;q=0.9",8fuk9fwbemw90e1,19,"[""White""]",Yes,Female,na,Yes,548778,NA,null,<p></p>,null,choice,ctd,trinary,repulsion_B,1,washing machines,null,null,null,null,null,null,2,NA,NA,NA,NA,NA,NA,NA,NA,NA,NA
NA,NA,NA,NA,NA,choice_trial,survey-html-form,39,200641,0.0-4.0-1.17,292,1,2025-05-07T19:33:11Z,b60275e29fe2361ab97ac0ac217840d7,"Mozilla/5.0 (Macintosh; Intel Mac OS X 10_15_7) AppleWebKit/605.1.15 (KHTML, like Gecko) Version/18.3.1 Safari/605.1.15",Macintosh,Safari,18.3.1,OS X,10_15_7,https://5puzkbbxv1.cognition.run/?sona_id=51690,"en-US,en;q=0.9",8fuk9fwbemw90e1,19,"[""White""]",Yes,Female,na,Yes,548778,NA,11175,NA,"{""product_choice"":""B""}",choice,ctd,trinary,repulsion_B,1,washing machines,null,null,null,null,null,null,2,90,100,80,40,30,40,Average lifespan,Energy savings,NA,NA
NA,NA,NA,NA,NA,choice_trial_setup,html-keyboard-response,40,200945,0.0-4.0-0.18,292,1,2025-05-07T19:33:11Z,b60275e29fe2361ab97ac0ac217840d7,"Mozilla/5.0 (Macintosh; Intel Mac OS X 10_15_7) AppleWebKit/605.1.15 (KHTML, like Gecko) Version/18.3.1 Safari/605.1.15",Macintosh,Safari,18.3.1,OS X,10_15_7,https://5puzkbbxv1.cognition.run/?sona_id=51690,"en-US,en;q=0.9",8fuk9fwbemw90e1,19,"[""White""]",Yes,Female,na,Yes,548778,NA,null,<p></p>,null,choice,cdt,trinary,repulsion_B,2,televisions,null,null,null,null,null,null,2,NA,NA,NA,NA,NA,NA,NA,NA,NA,NA
NA,NA,NA,NA,NA,choice_trial,survey-html-form,41,210174,0.0-4.0-1.18,292,1,2025-05-07T19:33:11Z,b60275e29fe2361ab97ac0ac217840d7,"Mozilla/5.0 (Macintosh; Intel Mac OS X 10_15_7) AppleWebKit/605.1.15 (KHTML, like Gecko) Version/18.3.1 Safari/605.1.15",Macintosh,Safari,18.3.1,OS X,10_15_7,https://5puzkbbxv1.cognition.run/?sona_id=51690,"en-US,en;q=0.9",8fuk9fwbemw90e1,19,"[""White""]",Yes,Female,na,Yes,548778,NA,9224,NA,"{""product_choice"":""C""}",choice,cdt,trinary,repulsion_B,2,televisions,null,null,null,null,null,null,2,40,30,40,90,100,80,Screen size,Average lifespan,NA,NA
NA,NA,NA,NA,NA,choice_trial_setup,html-keyboard-response,42,210478,0.0-4.0-0.19,292,1,2025-05-07T19:33:11Z,b60275e29fe2361ab97ac0ac217840d7,"Mozilla/5.0 (Macintosh; Intel Mac OS X 10_15_7) AppleWebKit/605.1.15 (KHTML, like Gecko) Version/18.3.1 Safari/605.1.15",Macintosh,Safari,18.3.1,OS X,10_15_7,https://5puzkbbxv1.cognition.run/?sona_id=51690,"en-US,en;q=0.9",8fuk9fwbemw90e1,19,"[""White""]",Yes,Female,na,Yes,548778,NA,null,<p></p>,null,choice,tc,binary,repulsion,1,microwave ovens,null,null,null,null,null,null,2,NA,NA,NA,NA,NA,NA,NA,NA,NA,NA
NA,NA,NA,NA,NA,choice_trial,survey-html-form,43,217008,0.0-4.0-1.19,292,1,2025-05-07T19:33:11Z,b60275e29fe2361ab97ac0ac217840d7,"Mozilla/5.0 (Macintosh; Intel Mac OS X 10_15_7) AppleWebKit/605.1.15 (KHTML, like Gecko) Version/18.3.1 Safari/605.1.15",Macintosh,Safari,18.3.1,OS X,10_15_7,https://5puzkbbxv1.cognition.run/?sona_id=51690,"en-US,en;q=0.9",8fuk9fwbemw90e1,19,"[""White""]",Yes,Female,na,Yes,548778,NA,6525,NA,"{""product_choice"":""B""}",choice,tc,binary,repulsion,1,microwave ovens,null,null,null,null,null,null,2,100,90,null,30,40,null,Warranty,Cooking power,NA,NA
NA,NA,NA,NA,NA,choice_trial_setup,html-keyboard-response,44,217310,0.0-4.0-0.20,292,1,2025-05-07T19:33:11Z,b60275e29fe2361ab97ac0ac217840d7,"Mozilla/5.0 (Macintosh; Intel Mac OS X 10_15_7) AppleWebKit/605.1.15 (KHTML, like Gecko) Version/18.3.1 Safari/605.1.15",Macintosh,Safari,18.3.1,OS X,10_15_7,https://5puzkbbxv1.cognition.run/?sona_id=51690,"en-US,en;q=0.9",8fuk9fwbemw90e1,19,"[""White""]",Yes,Female,na,Yes,548778,NA,null,<p></p>,null,choice,dct,trinary,repulsion_A,1,televisions,null,null,null,null,null,null,2,NA,NA,NA,NA,NA,NA,NA,NA,NA,NA
NA,NA,NA,NA,NA,choice_trial,survey-html-form,45,222657,0.0-4.0-1.20,292,1,2025-05-07T19:33:11Z,b60275e29fe2361ab97ac0ac217840d7,"Mozilla/5.0 (Macintosh; Intel Mac OS X 10_15_7) AppleWebKit/605.1.15 (KHTML, like Gecko) Version/18.3.1 Safari/605.1.15",Macintosh,Safari,18.3.1,OS X,10_15_7,https://5puzkbbxv1.cognition.run/?sona_id=51690,"en-US,en;q=0.9",8fuk9fwbemw90e1,19,"[""White""]",Yes,Female,na,Yes,548778,NA,5342,NA,"{""product_choice"":""B""}",choice,dct,trinary,repulsion_A,1,televisions,null,null,null,null,null,null,2,100,90,100,30,40,20,Screen size,Average lifespan,NA,NA
NA,NA,NA,NA,NA,choice_trial_setup,html-keyboard-response,46,222967,0.0-4.0-0.21,292,1,2025-05-07T19:33:11Z,b60275e29fe2361ab97ac0ac217840d7,"Mozilla/5.0 (Macintosh; Intel Mac OS X 10_15_7) AppleWebKit/605.1.15 (KHTML, like Gecko) Version/18.3.1 Safari/605.1.15",Macintosh,Safari,18.3.1,OS X,10_15_7,https://5puzkbbxv1.cognition.run/?sona_id=51690,"en-US,en;q=0.9",8fuk9fwbemw90e1,19,"[""White""]",Yes,Female,na,Yes,548778,NA,null,<p></p>,null,choice,bw,binary,catch,null,washing machines,85,85,15,10,null,null,1,NA,NA,NA,NA,NA,NA,NA,NA,NA,NA
NA,NA,NA,NA,NA,choice_trial,survey-html-form,47,237911,0.0-4.0-1.21,292,1,2025-05-07T19:33:11Z,b60275e29fe2361ab97ac0ac217840d7,"Mozilla/5.0 (Macintosh; Intel Mac OS X 10_15_7) AppleWebKit/605.1.15 (KHTML, like Gecko) Version/18.3.1 Safari/605.1.15",Macintosh,Safari,18.3.1,OS X,10_15_7,https://5puzkbbxv1.cognition.run/?sona_id=51690,"en-US,en;q=0.9",8fuk9fwbemw90e1,19,"[""White""]",Yes,Female,na,Yes,548778,NA,14937,NA,"{""product_choice"":""A""}",choice,bw,binary,catch,null,washing machines,85,85,15,10,null,null,1,null,null,null,null,null,null,Average lifespan,Energy savings,NA,NA
NA,NA,NA,NA,NA,choice_trial_setup,html-keyboard-response,48,238215,0.0-4.0-0.22,292,1,2025-05-07T19:33:11Z,b60275e29fe2361ab97ac0ac217840d7,"Mozilla/5.0 (Macintosh; Intel Mac OS X 10_15_7) AppleWebKit/605.1.15 (KHTML, like Gecko) Version/18.3.1 Safari/605.1.15",Macintosh,Safari,18.3.1,OS X,10_15_7,https://5puzkbbxv1.cognition.run/?sona_id=51690,"en-US,en;q=0.9",8fuk9fwbemw90e1,19,"[""White""]",Yes,Female,na,Yes,548778,NA,null,<p></p>,null,choice,ctd,trinary,attraction,1,microwave ovens,null,null,null,null,null,null,1,NA,NA,NA,NA,NA,NA,NA,NA,NA,NA
NA,NA,NA,NA,NA,choice_trial,survey-html-form,49,246392,0.0-4.0-1.22,292,1,2025-05-07T19:33:11Z,b60275e29fe2361ab97ac0ac217840d7,"Mozilla/5.0 (Macintosh; Intel Mac OS X 10_15_7) AppleWebKit/605.1.15 (KHTML, like Gecko) Version/18.3.1 Safari/605.1.15",Macintosh,Safari,18.3.1,OS X,10_15_7,https://5puzkbbxv1.cognition.run/?sona_id=51690,"en-US,en;q=0.9",8fuk9fwbemw90e1,19,"[""White""]",Yes,Female,na,Yes,548778,NA,8172,NA,"{""product_choice"":""B""}",choice,ctd,trinary,attraction,1,microwave ovens,null,null,null,null,null,null,1,60,50,60,50,60,40,Warranty,Cooking power,NA,NA
NA,NA,NA,NA,NA,choice_trial_setup,html-keyboard-response,50,246696,0.0-4.0-0.23,292,1,2025-05-07T19:33:11Z,b60275e29fe2361ab97ac0ac217840d7,"Mozilla/5.0 (Macintosh; Intel Mac OS X 10_15_7) AppleWebKit/605.1.15 (KHTML, like Gecko) Version/18.3.1 Safari/605.1.15",Macintosh,Safari,18.3.1,OS X,10_15_7,https://5puzkbbxv1.cognition.run/?sona_id=51690,"en-US,en;q=0.9",8fuk9fwbemw90e1,19,"[""White""]",Yes,Female,na,Yes,548778,NA,null,<p></p>,null,choice,tc,binary,repulsion,1,washing machines,null,null,null,null,null,null,1,NA,NA,NA,NA,NA,NA,NA,NA,NA,NA
NA,NA,NA,NA,NA,choice_trial,survey-html-form,51,255392,0.0-4.0-1.23,292,1,2025-05-07T19:33:11Z,b60275e29fe2361ab97ac0ac217840d7,"Mozilla/5.0 (Macintosh; Intel Mac OS X 10_15_7) AppleWebKit/605.1.15 (KHTML, like Gecko) Version/18.3.1 Safari/605.1.15",Macintosh,Safari,18.3.1,OS X,10_15_7,https://5puzkbbxv1.cognition.run/?sona_id=51690,"en-US,en;q=0.9",8fuk9fwbemw90e1,19,"[""White""]",Yes,Female,na,Yes,548778,NA,8692,NA,"{""product_choice"":""B""}",choice,tc,binary,repulsion,1,washing machines,null,null,null,null,null,null,1,100,90,null,30,40,null,Average lifespan,Energy savings,NA,NA
NA,NA,NA,NA,NA,choice_trial_setup,html-keyboard-response,52,255696,0.0-4.0-0.24,292,1,2025-05-07T19:33:11Z,b60275e29fe2361ab97ac0ac217840d7,"Mozilla/5.0 (Macintosh; Intel Mac OS X 10_15_7) AppleWebKit/605.1.15 (KHTML, like Gecko) Version/18.3.1 Safari/605.1.15",Macintosh,Safari,18.3.1,OS X,10_15_7,https://5puzkbbxv1.cognition.run/?sona_id=51690,"en-US,en;q=0.9",8fuk9fwbemw90e1,19,"[""White""]",Yes,Female,na,Yes,548778,NA,null,<p></p>,null,choice,bw,binary,catch,null,laptops,55,75,45,35,null,null,2,NA,NA,NA,NA,NA,NA,NA,NA,NA,NA
NA,NA,NA,NA,NA,choice_trial,survey-html-form,53,264441,0.0-4.0-1.24,292,1,2025-05-07T19:33:11Z,b60275e29fe2361ab97ac0ac217840d7,"Mozilla/5.0 (Macintosh; Intel Mac OS X 10_15_7) AppleWebKit/605.1.15 (KHTML, like Gecko) Version/18.3.1 Safari/605.1.15",Macintosh,Safari,18.3.1,OS X,10_15_7,https://5puzkbbxv1.cognition.run/?sona_id=51690,"en-US,en;q=0.9",8fuk9fwbemw90e1,19,"[""White""]",Yes,Female,na,Yes,548778,NA,8740,NA,"{""product_choice"":""A""}",choice,bw,binary,catch,null,laptops,55,75,45,35,null,null,2,null,null,null,null,null,null,Processing speed,Memory (RAM),NA,NA
NA,NA,NA,NA,NA,choice_trial_setup,html-keyboard-response,54,264744,0.0-4.0-0.25,292,1,2025-05-07T19:33:11Z,b60275e29fe2361ab97ac0ac217840d7,"Mozilla/5.0 (Macintosh; Intel Mac OS X 10_15_7) AppleWebKit/605.1.15 (KHTML, like Gecko) Version/18.3.1 Safari/605.1.15",Macintosh,Safari,18.3.1,OS X,10_15_7,https://5puzkbbxv1.cognition.run/?sona_id=51690,"en-US,en;q=0.9",8fuk9fwbemw90e1,19,"[""White""]",Yes,Female,na,Yes,548778,NA,null,<p></p>,null,choice,ct,binary,repulsion,2,washing machines,null,null,null,null,null,null,1,NA,NA,NA,NA,NA,NA,NA,NA,NA,NA
NA,NA,NA,NA,NA,choice_trial,survey-html-form,55,270359,0.0-4.0-1.25,292,1,2025-05-07T19:33:11Z,b60275e29fe2361ab97ac0ac217840d7,"Mozilla/5.0 (Macintosh; Intel Mac OS X 10_15_7) AppleWebKit/605.1.15 (KHTML, like Gecko) Version/18.3.1 Safari/605.1.15",Macintosh,Safari,18.3.1,OS X,10_15_7,https://5puzkbbxv1.cognition.run/?sona_id=51690,"en-US,en;q=0.9",8fuk9fwbemw90e1,19,"[""White""]",Yes,Female,na,Yes,548778,NA,5610,NA,"{""product_choice"":""B""}",choice,ct,binary,repulsion,2,washing machines,null,null,null,null,null,null,1,30,40,null,100,90,null,Average lifespan,Energy savings,NA,NA
NA,NA,NA,NA,NA,choice_trial_setup,html-keyboard-response,56,270663,0.0-4.0-0.26,292,1,2025-05-07T19:33:11Z,b60275e29fe2361ab97ac0ac217840d7,"Mozilla/5.0 (Macintosh; Intel Mac OS X 10_15_7) AppleWebKit/605.1.15 (KHTML, like Gecko) Version/18.3.1 Safari/605.1.15",Macintosh,Safari,18.3.1,OS X,10_15_7,https://5puzkbbxv1.cognition.run/?sona_id=51690,"en-US,en;q=0.9",8fuk9fwbemw90e1,19,"[""White""]",Yes,Female,na,Yes,548778,NA,null,<p></p>,null,choice,ct,binary,repulsion,1,laptops,null,null,null,null,null,null,1,NA,NA,NA,NA,NA,NA,NA,NA,NA,NA
NA,NA,NA,NA,NA,choice_trial,survey-html-form,57,277642,0.0-4.0-1.26,292,1,2025-05-07T19:33:11Z,b60275e29fe2361ab97ac0ac217840d7,"Mozilla/5.0 (Macintosh; Intel Mac OS X 10_15_7) AppleWebKit/605.1.15 (KHTML, like Gecko) Version/18.3.1 Safari/605.1.15",Macintosh,Safari,18.3.1,OS X,10_15_7,https://5puzkbbxv1.cognition.run/?sona_id=51690,"en-US,en;q=0.9",8fuk9fwbemw90e1,19,"[""White""]",Yes,Female,na,Yes,548778,NA,6974,NA,"{""product_choice"":""A""}",choice,ct,binary,repulsion,1,laptops,null,null,null,null,null,null,1,100,90,null,30,40,null,Processing speed,Memory (RAM),NA,NA
NA,NA,NA,NA,NA,choice_trial_setup,html-keyboard-response,58,277945,0.0-4.0-0.27,292,1,2025-05-07T19:33:11Z,b60275e29fe2361ab97ac0ac217840d7,"Mozilla/5.0 (Macintosh; Intel Mac OS X 10_15_7) AppleWebKit/605.1.15 (KHTML, like Gecko) Version/18.3.1 Safari/605.1.15",Macintosh,Safari,18.3.1,OS X,10_15_7,https://5puzkbbxv1.cognition.run/?sona_id=51690,"en-US,en;q=0.9",8fuk9fwbemw90e1,19,"[""White""]",Yes,Female,na,Yes,548778,NA,null,<p></p>,null,choice,tdc,trinary,repulsion_A,2,televisions,null,null,null,null,null,null,2,NA,NA,NA,NA,NA,NA,NA,NA,NA,NA
NA,NA,NA,NA,NA,choice_trial,survey-html-form,59,293491,0.0-4.0-1.27,292,1,2025-05-07T19:33:11Z,b60275e29fe2361ab97ac0ac217840d7,"Mozilla/5.0 (Macintosh; Intel Mac OS X 10_15_7) AppleWebKit/605.1.15 (KHTML, like Gecko) Version/18.3.1 Safari/605.1.15",Macintosh,Safari,18.3.1,OS X,10_15_7,https://5puzkbbxv1.cognition.run/?sona_id=51690,"en-US,en;q=0.9",8fuk9fwbemw90e1,19,"[""White""]",Yes,Female,na,Yes,548778,NA,15540,NA,"{""product_choice"":""C""}",choice,tdc,trinary,repulsion_A,2,televisions,null,null,null,null,null,null,2,30,40,20,100,90,100,Screen size,Average lifespan,NA,NA
NA,NA,NA,NA,NA,choice_trial_setup,html-keyboard-response,60,293794,0.0-4.0-0.28,292,1,2025-05-07T19:33:11Z,b60275e29fe2361ab97ac0ac217840d7,"Mozilla/5.0 (Macintosh; Intel Mac OS X 10_15_7) AppleWebKit/605.1.15 (KHTML, like Gecko) Version/18.3.1 Safari/605.1.15",Macintosh,Safari,18.3.1,OS X,10_15_7,https://5puzkbbxv1.cognition.run/?sona_id=51690,"en-US,en;q=0.9",8fuk9fwbemw90e1,19,"[""White""]",Yes,Female,na,Yes,548778,NA,null,<p></p>,null,choice,bw,binary,catch,null,microwave ovens,85,50,45,40,null,null,1,NA,NA,NA,NA,NA,NA,NA,NA,NA,NA
NA,NA,NA,NA,NA,choice_trial,survey-html-form,61,296609,0.0-4.0-1.28,292,1,2025-05-07T19:33:11Z,b60275e29fe2361ab97ac0ac217840d7,"Mozilla/5.0 (Macintosh; Intel Mac OS X 10_15_7) AppleWebKit/605.1.15 (KHTML, like Gecko) Version/18.3.1 Safari/605.1.15",Macintosh,Safari,18.3.1,OS X,10_15_7,https://5puzkbbxv1.cognition.run/?sona_id=51690,"en-US,en;q=0.9",8fuk9fwbemw90e1,19,"[""White""]",Yes,Female,na,Yes,548778,NA,2810,NA,"{""product_choice"":""A""}",choice,bw,binary,catch,null,microwave ovens,85,50,45,40,null,null,1,null,null,null,null,null,null,Warranty,Cooking power,NA,NA
NA,NA,NA,NA,NA,choice_trial_setup,html-keyboard-response,62,296913,0.0-4.0-0.29,292,1,2025-05-07T19:33:11Z,b60275e29fe2361ab97ac0ac217840d7,"Mozilla/5.0 (Macintosh; Intel Mac OS X 10_15_7) AppleWebKit/605.1.15 (KHTML, like Gecko) Version/18.3.1 Safari/605.1.15",Macintosh,Safari,18.3.1,OS X,10_15_7,https://5puzkbbxv1.cognition.run/?sona_id=51690,"en-US,en;q=0.9",8fuk9fwbemw90e1,19,"[""White""]",Yes,Female,na,Yes,548778,NA,null,<p></p>,null,choice,dtc,trinary,repulsion_B,2,microwave ovens,null,null,null,null,null,null,2,NA,NA,NA,NA,NA,NA,NA,NA,NA,NA
NA,NA,NA,NA,NA,choice_trial,survey-html-form,63,300674,0.0-4.0-1.29,292,1,2025-05-07T19:33:11Z,b60275e29fe2361ab97ac0ac217840d7,"Mozilla/5.0 (Macintosh; Intel Mac OS X 10_15_7) AppleWebKit/605.1.15 (KHTML, like Gecko) Version/18.3.1 Safari/605.1.15",Macintosh,Safari,18.3.1,OS X,10_15_7,https://5puzkbbxv1.cognition.run/?sona_id=51690,"en-US,en;q=0.9",8fuk9fwbemw90e1,19,"[""White""]",Yes,Female,na,Yes,548778,NA,3755,NA,"{""product_choice"":""C""}",choice,dtc,trinary,repulsion_B,2,microwave ovens,null,null,null,null,null,null,2,40,30,40,90,100,80,Warranty,Cooking power,NA,NA
NA,NA,NA,NA,NA,choice_trial_setup,html-keyboard-response,64,300977,0.0-4.0-0.30,292,1,2025-05-07T19:33:11Z,b60275e29fe2361ab97ac0ac217840d7,"Mozilla/5.0 (Macintosh; Intel Mac OS X 10_15_7) AppleWebKit/605.1.15 (KHTML, like Gecko) Version/18.3.1 Safari/605.1.15",Macintosh,Safari,18.3.1,OS X,10_15_7,https://5puzkbbxv1.cognition.run/?sona_id=51690,"en-US,en;q=0.9",8fuk9fwbemw90e1,19,"[""White""]",Yes,Female,na,Yes,548778,NA,null,<p></p>,null,choice,tc,binary,repulsion,1,televisions,null,null,null,null,null,null,1,NA,NA,NA,NA,NA,NA,NA,NA,NA,NA
NA,NA,NA,NA,NA,choice_trial,survey-html-form,65,357225,0.0-4.0-1.30,292,1,2025-05-07T19:33:11Z,b60275e29fe2361ab97ac0ac217840d7,"Mozilla/5.0 (Macintosh; Intel Mac OS X 10_15_7) AppleWebKit/605.1.15 (KHTML, like Gecko) Version/18.3.1 Safari/605.1.15",Macintosh,Safari,18.3.1,OS X,10_15_7,https://5puzkbbxv1.cognition.run/?sona_id=51690,"en-US,en;q=0.9",8fuk9fwbemw90e1,19,"[""White""]",Yes,Female,na,Yes,548778,NA,56242,NA,"{""product_choice"":""A""}",choice,tc,binary,repulsion,1,televisions,null,null,null,null,null,null,1,100,90,null,30,40,null,Screen size,Average lifespan,NA,NA
NA,NA,NA,NA,NA,choice_trial_setup,html-keyboard-response,66,357527,0.0-4.0-0.31,292,1,2025-05-07T19:33:11Z,b60275e29fe2361ab97ac0ac217840d7,"Mozilla/5.0 (Macintosh; Intel Mac OS X 10_15_7) AppleWebKit/605.1.15 (KHTML, like Gecko) Version/18.3.1 Safari/605.1.15",Macintosh,Safari,18.3.1,OS X,10_15_7,https://5puzkbbxv1.cognition.run/?sona_id=51690,"en-US,en;q=0.9",8fuk9fwbemw90e1,19,"[""White""]",Yes,Female,na,Yes,548778,NA,null,<p></p>,null,choice,dct,trinary,attraction,2,washing machines,null,null,null,null,null,null,2,NA,NA,NA,NA,NA,NA,NA,NA,NA,NA
NA,NA,NA,NA,NA,choice_trial,survey-html-form,67,363176,0.0-4.0-1.31,292,1,2025-05-07T19:33:11Z,b60275e29fe2361ab97ac0ac217840d7,"Mozilla/5.0 (Macintosh; Intel Mac OS X 10_15_7) AppleWebKit/605.1.15 (KHTML, like Gecko) Version/18.3.1 Safari/605.1.15",Macintosh,Safari,18.3.1,OS X,10_15_7,https://5puzkbbxv1.cognition.run/?sona_id=51690,"en-US,en;q=0.9",8fuk9fwbemw90e1,19,"[""White""]",Yes,Female,na,Yes,548778,NA,5645,NA,"{""product_choice"":""C""}",choice,dct,trinary,attraction,2,washing machines,null,null,null,null,null,null,2,50,60,40,60,50,60,Average lifespan,Energy savings,NA,NA
NA,NA,NA,NA,NA,choice_trial_setup,html-keyboard-response,68,363481,0.0-4.0-0.32,292,1,2025-05-07T19:33:11Z,b60275e29fe2361ab97ac0ac217840d7,"Mozilla/5.0 (Macintosh; Intel Mac OS X 10_15_7) AppleWebKit/605.1.15 (KHTML, like Gecko) Version/18.3.1 Safari/605.1.15",Macintosh,Safari,18.3.1,OS X,10_15_7,https://5puzkbbxv1.cognition.run/?sona_id=51690,"en-US,en;q=0.9",8fuk9fwbemw90e1,19,"[""White""]",Yes,Female,na,Yes,548778,NA,null,<p></p>,null,choice,tcd,trinary,attraction,2,microwave ovens,null,null,null,null,null,null,2,NA,NA,NA,NA,NA,NA,NA,NA,NA,NA
NA,NA,NA,NA,NA,choice_trial,survey-html-form,69,369863,0.0-4.0-1.32,292,1,2025-05-07T19:33:11Z,b60275e29fe2361ab97ac0ac217840d7,"Mozilla/5.0 (Macintosh; Intel Mac OS X 10_15_7) AppleWebKit/605.1.15 (KHTML, like Gecko) Version/18.3.1 Safari/605.1.15",Macintosh,Safari,18.3.1,OS X,10_15_7,https://5puzkbbxv1.cognition.run/?sona_id=51690,"en-US,en;q=0.9",8fuk9fwbemw90e1,19,"[""White""]",Yes,Female,na,Yes,548778,NA,6376,NA,"{""product_choice"":""A""}",choice,tcd,trinary,attraction,2,microwave ovens,null,null,null,null,null,null,2,50,60,40,60,50,60,Warranty,Cooking power,NA,NA
NA,NA,NA,NA,NA,choice_trial_setup,html-keyboard-response,70,370167,0.0-4.0-0.33,292,1,2025-05-07T19:33:11Z,b60275e29fe2361ab97ac0ac217840d7,"Mozilla/5.0 (Macintosh; Intel Mac OS X 10_15_7) AppleWebKit/605.1.15 (KHTML, like Gecko) Version/18.3.1 Safari/605.1.15",Macintosh,Safari,18.3.1,OS X,10_15_7,https://5puzkbbxv1.cognition.run/?sona_id=51690,"en-US,en;q=0.9",8fuk9fwbemw90e1,19,"[""White""]",Yes,Female,na,Yes,548778,NA,null,<p></p>,null,choice,dtc,trinary,attraction,1,washing machines,null,null,null,null,null,null,1,NA,NA,NA,NA,NA,NA,NA,NA,NA,NA
NA,NA,NA,NA,NA,choice_trial,survey-html-form,71,374295,0.0-4.0-1.33,292,1,2025-05-07T19:33:11Z,b60275e29fe2361ab97ac0ac217840d7,"Mozilla/5.0 (Macintosh; Intel Mac OS X 10_15_7) AppleWebKit/605.1.15 (KHTML, like Gecko) Version/18.3.1 Safari/605.1.15",Macintosh,Safari,18.3.1,OS X,10_15_7,https://5puzkbbxv1.cognition.run/?sona_id=51690,"en-US,en;q=0.9",8fuk9fwbemw90e1,19,"[""White""]",Yes,Female,na,Yes,548778,NA,4123,NA,"{""product_choice"":""C""}",choice,dtc,trinary,attraction,1,washing machines,null,null,null,null,null,null,1,60,50,60,50,60,40,Average lifespan,Energy savings,NA,NA
NA,NA,NA,NA,NA,choice_trial_setup,html-keyboard-response,72,374599,0.0-4.0-0.34,292,1,2025-05-07T19:33:11Z,b60275e29fe2361ab97ac0ac217840d7,"Mozilla/5.0 (Macintosh; Intel Mac OS X 10_15_7) AppleWebKit/605.1.15 (KHTML, like Gecko) Version/18.3.1 Safari/605.1.15",Macintosh,Safari,18.3.1,OS X,10_15_7,https://5puzkbbxv1.cognition.run/?sona_id=51690,"en-US,en;q=0.9",8fuk9fwbemw90e1,19,"[""White""]",Yes,Female,na,Yes,548778,NA,null,<p></p>,null,choice,bww,trinary,catch,null,laptops,85,50,30,10,50,25,2,NA,NA,NA,NA,NA,NA,NA,NA,NA,NA
NA,NA,NA,NA,NA,choice_trial,survey-html-form,73,379194,0.0-4.0-1.34,292,1,2025-05-07T19:33:11Z,b60275e29fe2361ab97ac0ac217840d7,"Mozilla/5.0 (Macintosh; Intel Mac OS X 10_15_7) AppleWebKit/605.1.15 (KHTML, like Gecko) Version/18.3.1 Safari/605.1.15",Macintosh,Safari,18.3.1,OS X,10_15_7,https://5puzkbbxv1.cognition.run/?sona_id=51690,"en-US,en;q=0.9",8fuk9fwbemw90e1,19,"[""White""]",Yes,Female,na,Yes,548778,NA,4588,NA,"{""product_choice"":""A""}",choice,bww,trinary,catch,null,laptops,85,50,30,10,50,25,2,null,null,null,null,null,null,Processing speed,Memory (RAM),NA,NA
NA,NA,NA,NA,NA,choice_trial_setup,html-keyboard-response,74,379498,0.0-4.0-0.35,292,1,2025-05-07T19:33:11Z,b60275e29fe2361ab97ac0ac217840d7,"Mozilla/5.0 (Macintosh; Intel Mac OS X 10_15_7) AppleWebKit/605.1.15 (KHTML, like Gecko) Version/18.3.1 Safari/605.1.15",Macintosh,Safari,18.3.1,OS X,10_15_7,https://5puzkbbxv1.cognition.run/?sona_id=51690,"en-US,en;q=0.9",8fuk9fwbemw90e1,19,"[""White""]",Yes,Female,na,Yes,548778,NA,null,<p></p>,null,choice,ct,binary,attraction,NA,laptops,null,null,null,null,null,null,2,NA,NA,NA,NA,NA,NA,NA,NA,NA,NA
NA,NA,NA,NA,NA,choice_trial,survey-html-form,75,383077,0.0-4.0-1.35,292,1,2025-05-07T19:33:11Z,b60275e29fe2361ab97ac0ac217840d7,"Mozilla/5.0 (Macintosh; Intel Mac OS X 10_15_7) AppleWebKit/605.1.15 (KHTML, like Gecko) Version/18.3.1 Safari/605.1.15",Macintosh,Safari,18.3.1,OS X,10_15_7,https://5puzkbbxv1.cognition.run/?sona_id=51690,"en-US,en;q=0.9",8fuk9fwbemw90e1,19,"[""White""]",Yes,Female,na,Yes,548778,NA,3574,NA,"{""product_choice"":""B""}",choice,ct,binary,attraction,NA,laptops,null,null,null,null,null,null,2,60,50,null,50,60,null,Processing speed,Memory (RAM),NA,NA
NA,NA,NA,NA,NA,choice_trial_setup,html-keyboard-response,76,383381,0.0-4.0-0.36,292,1,2025-05-07T19:33:11Z,b60275e29fe2361ab97ac0ac217840d7,"Mozilla/5.0 (Macintosh; Intel Mac OS X 10_15_7) AppleWebKit/605.1.15 (KHTML, like Gecko) Version/18.3.1 Safari/605.1.15",Macintosh,Safari,18.3.1,OS X,10_15_7,https://5puzkbbxv1.cognition.run/?sona_id=51690,"en-US,en;q=0.9",8fuk9fwbemw90e1,19,"[""White""]",Yes,Female,na,Yes,548778,NA,null,<p></p>,null,choice,tdc,trinary,repulsion_B,2,washing machines,null,null,null,null,null,null,1,NA,NA,NA,NA,NA,NA,NA,NA,NA,NA
NA,NA,NA,NA,NA,choice_trial,survey-html-form,77,386094,0.0-4.0-1.36,292,1,2025-05-07T19:33:11Z,b60275e29fe2361ab97ac0ac217840d7,"Mozilla/5.0 (Macintosh; Intel Mac OS X 10_15_7) AppleWebKit/605.1.15 (KHTML, like Gecko) Version/18.3.1 Safari/605.1.15",Macintosh,Safari,18.3.1,OS X,10_15_7,https://5puzkbbxv1.cognition.run/?sona_id=51690,"en-US,en;q=0.9",8fuk9fwbemw90e1,19,"[""White""]",Yes,Female,na,Yes,548778,NA,2707,NA,"{""product_choice"":""C""}",choice,tdc,trinary,repulsion_B,2,washing machines,null,null,null,null,null,null,1,40,30,40,90,100,80,Average lifespan,Energy savings,NA,NA
NA,NA,NA,NA,NA,choice_trial_setup,html-keyboard-response,78,386397,0.0-4.0-0.37,292,1,2025-05-07T19:33:11Z,b60275e29fe2361ab97ac0ac217840d7,"Mozilla/5.0 (Macintosh; Intel Mac OS X 10_15_7) AppleWebKit/605.1.15 (KHTML, like Gecko) Version/18.3.1 Safari/605.1.15",Macintosh,Safari,18.3.1,OS X,10_15_7,https://5puzkbbxv1.cognition.run/?sona_id=51690,"en-US,en;q=0.9",8fuk9fwbemw90e1,19,"[""White""]",Yes,Female,na,Yes,548778,NA,null,<p></p>,null,choice,cdt,trinary,repulsion_A,1,washing machines,null,null,null,null,null,null,1,NA,NA,NA,NA,NA,NA,NA,NA,NA,NA
NA,NA,NA,NA,NA,choice_trial,survey-html-form,79,389278,0.0-4.0-1.37,292,1,2025-05-07T19:33:11Z,b60275e29fe2361ab97ac0ac217840d7,"Mozilla/5.0 (Macintosh; Intel Mac OS X 10_15_7) AppleWebKit/605.1.15 (KHTML, like Gecko) Version/18.3.1 Safari/605.1.15",Macintosh,Safari,18.3.1,OS X,10_15_7,https://5puzkbbxv1.cognition.run/?sona_id=51690,"en-US,en;q=0.9",8fuk9fwbemw90e1,19,"[""White""]",Yes,Female,na,Yes,548778,NA,2878,NA,"{""product_choice"":""A""}",choice,cdt,trinary,repulsion_A,1,washing machines,null,null,null,null,null,null,1,100,90,100,30,40,20,Average lifespan,Energy savings,NA,NA
NA,NA,NA,NA,NA,choice_trial_setup,html-keyboard-response,80,389583,0.0-4.0-0.38,292,1,2025-05-07T19:33:11Z,b60275e29fe2361ab97ac0ac217840d7,"Mozilla/5.0 (Macintosh; Intel Mac OS X 10_15_7) AppleWebKit/605.1.15 (KHTML, like Gecko) Version/18.3.1 Safari/605.1.15",Macintosh,Safari,18.3.1,OS X,10_15_7,https://5puzkbbxv1.cognition.run/?sona_id=51690,"en-US,en;q=0.9",8fuk9fwbemw90e1,19,"[""White""]",Yes,Female,na,Yes,548778,NA,null,<p></p>,null,choice,dtc,trinary,attraction,2,laptops,null,null,null,null,null,null,1,NA,NA,NA,NA,NA,NA,NA,NA,NA,NA
NA,NA,NA,NA,NA,choice_trial,survey-html-form,81,393711,0.0-4.0-1.38,292,1,2025-05-07T19:33:11Z,b60275e29fe2361ab97ac0ac217840d7,"Mozilla/5.0 (Macintosh; Intel Mac OS X 10_15_7) AppleWebKit/605.1.15 (KHTML, like Gecko) Version/18.3.1 Safari/605.1.15",Macintosh,Safari,18.3.1,OS X,10_15_7,https://5puzkbbxv1.cognition.run/?sona_id=51690,"en-US,en;q=0.9",8fuk9fwbemw90e1,19,"[""White""]",Yes,Female,na,Yes,548778,NA,4122,NA,"{""product_choice"":""C""}",choice,dtc,trinary,attraction,2,laptops,null,null,null,null,null,null,1,50,60,40,60,50,60,Processing speed,Memory (RAM),NA,NA
NA,NA,NA,NA,NA,choice_trial_setup,html-keyboard-response,82,394015,0.0-4.0-0.39,292,1,2025-05-07T19:33:11Z,b60275e29fe2361ab97ac0ac217840d7,"Mozilla/5.0 (Macintosh; Intel Mac OS X 10_15_7) AppleWebKit/605.1.15 (KHTML, like Gecko) Version/18.3.1 Safari/605.1.15",Macintosh,Safari,18.3.1,OS X,10_15_7,https://5puzkbbxv1.cognition.run/?sona_id=51690,"en-US,en;q=0.9",8fuk9fwbemw90e1,19,"[""White""]",Yes,Female,na,Yes,548778,NA,null,<p></p>,null,choice,dtc,trinary,attraction,2,televisions,null,null,null,null,null,null,2,NA,NA,NA,NA,NA,NA,NA,NA,NA,NA
NA,NA,NA,NA,NA,choice_trial,survey-html-form,83,397494,0.0-4.0-1.39,292,1,2025-05-07T19:33:11Z,b60275e29fe2361ab97ac0ac217840d7,"Mozilla/5.0 (Macintosh; Intel Mac OS X 10_15_7) AppleWebKit/605.1.15 (KHTML, like Gecko) Version/18.3.1 Safari/605.1.15",Macintosh,Safari,18.3.1,OS X,10_15_7,https://5puzkbbxv1.cognition.run/?sona_id=51690,"en-US,en;q=0.9",8fuk9fwbemw90e1,19,"[""White""]",Yes,Female,na,Yes,548778,NA,3473,NA,"{""product_choice"":""B""}",choice,dtc,trinary,attraction,2,televisions,null,null,null,null,null,null,2,50,60,40,60,50,60,Screen size,Average lifespan,NA,NA
NA,NA,NA,NA,NA,choice_trial_setup,html-keyboard-response,84,397798,0.0-4.0-0.40,292,1,2025-05-07T19:33:11Z,b60275e29fe2361ab97ac0ac217840d7,"Mozilla/5.0 (Macintosh; Intel Mac OS X 10_15_7) AppleWebKit/605.1.15 (KHTML, like Gecko) Version/18.3.1 Safari/605.1.15",Macintosh,Safari,18.3.1,OS X,10_15_7,https://5puzkbbxv1.cognition.run/?sona_id=51690,"en-US,en;q=0.9",8fuk9fwbemw90e1,19,"[""White""]",Yes,Female,na,Yes,548778,NA,null,<p></p>,null,choice,wwb,trinary,catch,null,washing machines,70,75,50,10,15,45,2,NA,NA,NA,NA,NA,NA,NA,NA,NA,NA
NA,NA,NA,NA,NA,choice_trial,survey-html-form,85,403344,0.0-4.0-1.40,292,1,2025-05-07T19:33:11Z,b60275e29fe2361ab97ac0ac217840d7,"Mozilla/5.0 (Macintosh; Intel Mac OS X 10_15_7) AppleWebKit/605.1.15 (KHTML, like Gecko) Version/18.3.1 Safari/605.1.15",Macintosh,Safari,18.3.1,OS X,10_15_7,https://5puzkbbxv1.cognition.run/?sona_id=51690,"en-US,en;q=0.9",8fuk9fwbemw90e1,19,"[""White""]",Yes,Female,na,Yes,548778,NA,5539,NA,"{""product_choice"":""C""}",choice,wwb,trinary,catch,null,washing machines,70,75,50,10,15,45,2,null,null,null,null,null,null,Average lifespan,Energy savings,NA,NA
NA,NA,NA,NA,NA,choice_trial_setup,html-keyboard-response,86,403647,0.0-4.0-0.41,292,1,2025-05-07T19:33:11Z,b60275e29fe2361ab97ac0ac217840d7,"Mozilla/5.0 (Macintosh; Intel Mac OS X 10_15_7) AppleWebKit/605.1.15 (KHTML, like Gecko) Version/18.3.1 Safari/605.1.15",Macintosh,Safari,18.3.1,OS X,10_15_7,https://5puzkbbxv1.cognition.run/?sona_id=51690,"en-US,en;q=0.9",8fuk9fwbemw90e1,19,"[""White""]",Yes,Female,na,Yes,548778,NA,null,<p></p>,null,choice,ctd,trinary,repulsion_B,2,laptops,null,null,null,null,null,null,2,NA,NA,NA,NA,NA,NA,NA,NA,NA,NA
NA,NA,NA,NA,NA,choice_trial,survey-html-form,87,406896,0.0-4.0-1.41,292,1,2025-05-07T19:33:11Z,b60275e29fe2361ab97ac0ac217840d7,"Mozilla/5.0 (Macintosh; Intel Mac OS X 10_15_7) AppleWebKit/605.1.15 (KHTML, like Gecko) Version/18.3.1 Safari/605.1.15",Macintosh,Safari,18.3.1,OS X,10_15_7,https://5puzkbbxv1.cognition.run/?sona_id=51690,"en-US,en;q=0.9",8fuk9fwbemw90e1,19,"[""White""]",Yes,Female,na,Yes,548778,NA,3242,NA,"{""product_choice"":""B""}",choice,ctd,trinary,repulsion_B,2,laptops,null,null,null,null,null,null,2,40,30,40,90,100,80,Processing speed,Memory (RAM),NA,NA
NA,NA,NA,NA,NA,choice_trial_setup,html-keyboard-response,88,407200,0.0-4.0-0.42,292,1,2025-05-07T19:33:11Z,b60275e29fe2361ab97ac0ac217840d7,"Mozilla/5.0 (Macintosh; Intel Mac OS X 10_15_7) AppleWebKit/605.1.15 (KHTML, like Gecko) Version/18.3.1 Safari/605.1.15",Macintosh,Safari,18.3.1,OS X,10_15_7,https://5puzkbbxv1.cognition.run/?sona_id=51690,"en-US,en;q=0.9",8fuk9fwbemw90e1,19,"[""White""]",Yes,Female,na,Yes,548778,NA,null,<p></p>,null,choice,wwb,trinary,catch,null,televisions,65,80,30,50,40,15,1,NA,NA,NA,NA,NA,NA,NA,NA,NA,NA
NA,NA,NA,NA,NA,choice_trial,survey-html-form,89,412279,0.0-4.0-1.42,292,1,2025-05-07T19:33:11Z,b60275e29fe2361ab97ac0ac217840d7,"Mozilla/5.0 (Macintosh; Intel Mac OS X 10_15_7) AppleWebKit/605.1.15 (KHTML, like Gecko) Version/18.3.1 Safari/605.1.15",Macintosh,Safari,18.3.1,OS X,10_15_7,https://5puzkbbxv1.cognition.run/?sona_id=51690,"en-US,en;q=0.9",8fuk9fwbemw90e1,19,"[""White""]",Yes,Female,na,Yes,548778,NA,5073,NA,"{""product_choice"":""C""}",choice,wwb,trinary,catch,null,televisions,65,80,30,50,40,15,1,null,null,null,null,null,null,Screen size,Average lifespan,NA,NA
NA,NA,NA,NA,NA,choice_trial_setup,html-keyboard-response,90,412584,0.0-4.0-0.43,292,1,2025-05-07T19:33:11Z,b60275e29fe2361ab97ac0ac217840d7,"Mozilla/5.0 (Macintosh; Intel Mac OS X 10_15_7) AppleWebKit/605.1.15 (KHTML, like Gecko) Version/18.3.1 Safari/605.1.15",Macintosh,Safari,18.3.1,OS X,10_15_7,https://5puzkbbxv1.cognition.run/?sona_id=51690,"en-US,en;q=0.9",8fuk9fwbemw90e1,19,"[""White""]",Yes,Female,na,Yes,548778,NA,null,<p></p>,null,choice,dct,trinary,attraction,1,laptops,null,null,null,null,null,null,2,NA,NA,NA,NA,NA,NA,NA,NA,NA,NA
NA,NA,NA,NA,NA,choice_trial,survey-html-form,91,421480,0.0-4.0-1.43,292,1,2025-05-07T19:33:11Z,b60275e29fe2361ab97ac0ac217840d7,"Mozilla/5.0 (Macintosh; Intel Mac OS X 10_15_7) AppleWebKit/605.1.15 (KHTML, like Gecko) Version/18.3.1 Safari/605.1.15",Macintosh,Safari,18.3.1,OS X,10_15_7,https://5puzkbbxv1.cognition.run/?sona_id=51690,"en-US,en;q=0.9",8fuk9fwbemw90e1,19,"[""White""]",Yes,Female,na,Yes,548778,NA,8889,NA,"{""product_choice"":""C""}",choice,dct,trinary,attraction,1,laptops,null,null,null,null,null,null,2,60,50,60,50,60,40,Processing speed,Memory (RAM),NA,NA
NA,NA,NA,NA,NA,post_trials_message,html-button-response,92,425027,0.0-5.0,292,1,2025-05-07T19:33:11Z,b60275e29fe2361ab97ac0ac217840d7,"Mozilla/5.0 (Macintosh; Intel Mac OS X 10_15_7) AppleWebKit/605.1.15 (KHTML, like Gecko) Version/18.3.1 Safari/605.1.15",Macintosh,Safari,18.3.1,OS X,10_15_7,https://5puzkbbxv1.cognition.run/?sona_id=51690,"en-US,en;q=0.9",8fuk9fwbemw90e1,19,"[""White""]",Yes,Female,na,Yes,548778,NA,3539,<p> <b>Thank you for your patience!</b></p><p>  The study will be done after completing a brief form. </p>,0,NA,NA,NA,NA,NA,NA,NA,NA,NA,NA,NA,NA,NA,NA,NA,NA,NA,NA,NA,NA,NA,NA,NA
NA,NA,NA,NA,NA,survey_message,survey-text,93,513835,0.0-6.0,292,1,2025-05-07T19:33:11Z,b60275e29fe2361ab97ac0ac217840d7,"Mozilla/5.0 (Macintosh; Intel Mac OS X 10_15_7) AppleWebKit/605.1.15 (KHTML, like Gecko) Version/18.3.1 Safari/605.1.15",Macintosh,Safari,18.3.1,OS X,10_15_7,https://5puzkbbxv1.cognition.run/?sona_id=51690,"en-US,en;q=0.9",8fuk9fwbemw90e1,19,"[""White""]",Yes,Female,na,Yes,548778,NA,88789,NA,"{""Q0"":""for the laptops I thought processing speed mattered more Tham memory, for the washing machine energy mattered more, for microwaves the warranty mattered more, and for the most part I got the highest for each unless I felt like the middle option was better, but never really felt like the lower option was the best""}",NA,NA,NA,NA,NA,NA,NA,NA,NA,NA,NA,NA,NA,NA,NA,NA,NA,NA,NA,NA,NA,"for the laptops I thought processing speed mattered more Tham memory, for the washing machine energy mattered more, for microwaves the warranty mattered more, and for the most part I got the highest for each unless I felt like the middle option was better, but never really felt like the lower option was the best",NA
NA,NA,NA,NA,NA,demo_age,survey-text,94,516116,0.0-7.0,292,1,2025-05-07T19:33:11Z,b60275e29fe2361ab97ac0ac217840d7,"Mozilla/5.0 (Macintosh; Intel Mac OS X 10_15_7) AppleWebKit/605.1.15 (KHTML, like Gecko) Version/18.3.1 Safari/605.1.15",Macintosh,Safari,18.3.1,OS X,10_15_7,https://5puzkbbxv1.cognition.run/?sona_id=51690,"en-US,en;q=0.9",8fuk9fwbemw90e1,19,"[""White""]",Yes,Female,na,Yes,548778,NA,2272,NA,"{""Q0"":""19""}",NA,NA,NA,NA,NA,NA,NA,NA,NA,NA,NA,NA,NA,NA,NA,NA,NA,NA,NA,NA,NA,NA,NA
NA,NA,NA,NA,NA,demo_race,survey-multi-select,95,519148,0.0-8.0,292,1,2025-05-07T19:33:11Z,b60275e29fe2361ab97ac0ac217840d7,"Mozilla/5.0 (Macintosh; Intel Mac OS X 10_15_7) AppleWebKit/605.1.15 (KHTML, like Gecko) Version/18.3.1 Safari/605.1.15",Macintosh,Safari,18.3.1,OS X,10_15_7,https://5puzkbbxv1.cognition.run/?sona_id=51690,"en-US,en;q=0.9",8fuk9fwbemw90e1,19,"[""White""]",Yes,Female,na,Yes,548778,NA,3025,NA,"{""Q0"":[""White""]}",NA,NA,NA,NA,NA,NA,NA,NA,NA,NA,NA,NA,NA,NA,NA,NA,NA,NA,NA,NA,NA,NA,[0]
NA,NA,NA,NA,NA,demo_ethnicity_gender,survey-multi-choice,96,522900,0.0-9.0,292,1,2025-05-07T19:33:11Z,b60275e29fe2361ab97ac0ac217840d7,"Mozilla/5.0 (Macintosh; Intel Mac OS X 10_15_7) AppleWebKit/605.1.15 (KHTML, like Gecko) Version/18.3.1 Safari/605.1.15",Macintosh,Safari,18.3.1,OS X,10_15_7,https://5puzkbbxv1.cognition.run/?sona_id=51690,"en-US,en;q=0.9",8fuk9fwbemw90e1,19,"[""White""]",Yes,Female,na,Yes,548778,NA,3747,NA,"{""Q0"":""Yes"",""Q1"":""Female""}",NA,NA,NA,NA,NA,NA,NA,NA,NA,NA,NA,NA,NA,NA,NA,NA,NA,NA,NA,NA,NA,NA,"[0,1]"
NA,NA,NA,NA,NA,demo_countries,survey-text,97,528902,0.0-10.0,292,1,2025-05-07T19:33:11Z,b60275e29fe2361ab97ac0ac217840d7,"Mozilla/5.0 (Macintosh; Intel Mac OS X 10_15_7) AppleWebKit/605.1.15 (KHTML, like Gecko) Version/18.3.1 Safari/605.1.15",Macintosh,Safari,18.3.1,OS X,10_15_7,https://5puzkbbxv1.cognition.run/?sona_id=51690,"en-US,en;q=0.9",8fuk9fwbemw90e1,19,"[""White""]",Yes,Female,na,Yes,548778,NA,5996,NA,"{""Q0"":""na""}",NA,NA,NA,NA,NA,NA,NA,NA,NA,NA,NA,NA,NA,NA,NA,NA,NA,NA,NA,NA,NA,NA,NA
NA,NA,NA,NA,NA,demo_prev_study,survey-multi-choice,98,533915,0.0-11.0,292,1,2025-05-07T19:33:11Z,b60275e29fe2361ab97ac0ac217840d7,"Mozilla/5.0 (Macintosh; Intel Mac OS X 10_15_7) AppleWebKit/605.1.15 (KHTML, like Gecko) Version/18.3.1 Safari/605.1.15",Macintosh,Safari,18.3.1,OS X,10_15_7,https://5puzkbbxv1.cognition.run/?sona_id=51690,"en-US,en;q=0.9",8fuk9fwbemw90e1,19,"[""White""]",Yes,Female,na,Yes,548778,NA,5009,NA,"{""Q0"":""Yes""}",NA,NA,NA,NA,NA,NA,NA,NA,NA,NA,NA,NA,NA,NA,NA,NA,NA,NA,NA,NA,NA,NA,[0]
NA,NA,NA,NA,NA,post_survey_message,html-keyboard-response,99,538409,0.0-12.0,292,1,2025-05-07T19:33:11Z,b60275e29fe2361ab97ac0ac217840d7,"Mozilla/5.0 (Macintosh; Intel Mac OS X 10_15_7) AppleWebKit/605.1.15 (KHTML, like Gecko) Version/18.3.1 Safari/605.1.15",Macintosh,Safari,18.3.1,OS X,10_15_7,https://5puzkbbxv1.cognition.run/?sona_id=51690,"en-US,en;q=0.9",8fuk9fwbemw90e1,19,"[""White""]",Yes,Female,na,Yes,548778,NA,4489,NA,j,NA,NA,NA,NA,NA,NA,NA,NA,NA,NA,NA,NA,NA,NA,NA,NA,NA,NA,NA,NA,NA,NA,NA
NA,NA,NA,NA,NA,debrief,image-keyboard-response,100,549129,0.0-13.0,292,1,2025-05-07T19:33:11Z,b60275e29fe2361ab97ac0ac217840d7,"Mozilla/5.0 (Macintosh; Intel Mac OS X 10_15_7) AppleWebKit/605.1.15 (KHTML, like Gecko) Version/18.3.1 Safari/605.1.15",Macintosh,Safari,18.3.1,OS X,10_15_7,https://5puzkbbxv1.cognition.run/?sona_id=51690,"en-US,en;q=0.9",8fuk9fwbemw90e1,19,"[""White""]",Yes,Female,na,Yes,548778,NA,10692,Judg_choice_debrief.png,p,NA,NA,NA,NA,NA,NA,NA,NA,NA,NA,NA,NA,NA,NA,NA,NA,NA,NA,NA,NA,NA,NA,NA
