success,timeout,failed_images,failed_audio,failed_video,screen_id,trial_type,trial_index,time_elapsed,internal_node_id,run_id,condition,recorded_at,source_code_version,user_agent,device,browser,browser_version,platform,platform_version,referer,accept_language,ppt_id,age,race,ethnicity,gender,other_countries,prev_study,exp_duration,view_history,rt,stimulus,response,phase,order,set,effect,t_high,category,d1_best,d2_best,d1_worst1,d2_worst1,d1_worst2,d2_worst2,first_dim,d1_t,d1_c,d1_d,d2_t,d2_c,d2_d,d1_name,d2_name,strategy_response,question_order
TRUE,FALSE,[],[],[],img preload,preload,0,121,0.0-0.0,293,1,2025-05-07T19:39:13Z,b60275e29fe2361ab97ac0ac217840d7,"Mozilla/5.0 (Macintosh; Intel Mac OS X 10_15_7) AppleWebKit/537.36 (KHTML, like Gecko) Chrome/136.0.0.0 Safari/537.36",Macintosh,Chrome,136.0.0.0,OS X,10_15_7,https://5puzkbbxv1.cognition.run/?sona_id=58092,"en-US,en;q=0.9",btahx5h8tpogh25,20,"[""White""]",No,Female,N/A,No,359104,NA,NA,NA,NA,NA,NA,NA,NA,NA,NA,NA,NA,NA,NA,NA,NA,NA,NA,NA,NA,NA,NA,NA,NA,NA,NA,NA
NA,NA,NA,NA,NA,computer_message,instructions,1,2047,0.0-1.0,293,1,2025-05-07T19:39:13Z,b60275e29fe2361ab97ac0ac217840d7,"Mozilla/5.0 (Macintosh; Intel Mac OS X 10_15_7) AppleWebKit/537.36 (KHTML, like Gecko) Chrome/136.0.0.0 Safari/537.36",Macintosh,Chrome,136.0.0.0,OS X,10_15_7,https://5puzkbbxv1.cognition.run/?sona_id=58092,"en-US,en;q=0.9",btahx5h8tpogh25,20,"[""White""]",No,Female,N/A,No,359104,"[{""page_index"":0,""viewing_time"":1925}]",1926,NA,NA,NA,NA,NA,NA,NA,NA,NA,NA,NA,NA,NA,NA,NA,NA,NA,NA,NA,NA,NA,NA,NA,NA,NA
TRUE,NA,NA,NA,NA,NA,fullscreen,2,7251,0.0-2.0,293,1,2025-05-07T19:39:13Z,b60275e29fe2361ab97ac0ac217840d7,"Mozilla/5.0 (Macintosh; Intel Mac OS X 10_15_7) AppleWebKit/537.36 (KHTML, like Gecko) Chrome/136.0.0.0 Safari/537.36",Macintosh,Chrome,136.0.0.0,OS X,10_15_7,https://5puzkbbxv1.cognition.run/?sona_id=58092,"en-US,en;q=0.9",btahx5h8tpogh25,20,"[""White""]",No,Female,N/A,No,359104,NA,4199,NA,NA,NA,NA,NA,NA,NA,NA,NA,NA,NA,NA,NA,NA,NA,NA,NA,NA,NA,NA,NA,NA,NA,NA,NA
NA,NA,NA,NA,NA,choice_instructions,instructions,3,41563,0.0-3.0,293,1,2025-05-07T19:39:13Z,b60275e29fe2361ab97ac0ac217840d7,"Mozilla/5.0 (Macintosh; Intel Mac OS X 10_15_7) AppleWebKit/537.36 (KHTML, like Gecko) Chrome/136.0.0.0 Safari/537.36",Macintosh,Chrome,136.0.0.0,OS X,10_15_7,https://5puzkbbxv1.cognition.run/?sona_id=58092,"en-US,en;q=0.9",btahx5h8tpogh25,20,"[""White""]",No,Female,N/A,No,359104,"[{""page_index"":0,""viewing_time"":1694},{""page_index"":1,""viewing_time"":5250},{""page_index"":2,""viewing_time"":2233},{""page_index"":3,""viewing_time"":1383},{""page_index"":4,""viewing_time"":1217},{""page_index"":5,""viewing_time"":17033},{""page_index"":6,""viewing_time"":5500}]",34310,NA,NA,NA,NA,NA,NA,NA,NA,NA,NA,NA,NA,NA,NA,NA,NA,NA,NA,NA,NA,NA,NA,NA,NA,NA
NA,NA,NA,NA,NA,choice_trial_setup,html-keyboard-response,4,41869,0.0-4.0-0.0,293,1,2025-05-07T19:39:13Z,b60275e29fe2361ab97ac0ac217840d7,"Mozilla/5.0 (Macintosh; Intel Mac OS X 10_15_7) AppleWebKit/537.36 (KHTML, like Gecko) Chrome/136.0.0.0 Safari/537.36",Macintosh,Chrome,136.0.0.0,OS X,10_15_7,https://5puzkbbxv1.cognition.run/?sona_id=58092,"en-US,en;q=0.9",btahx5h8tpogh25,20,"[""White""]",No,Female,N/A,No,359104,NA,null,<p></p>,null,choice,wbw,trinary,catch,null,washing machines,80,60,45,25,20,30,2,NA,NA,NA,NA,NA,NA,NA,NA,NA,NA
NA,NA,NA,NA,NA,choice_trial,survey-html-form,5,55432,0.0-4.0-1.0,293,1,2025-05-07T19:39:13Z,b60275e29fe2361ab97ac0ac217840d7,"Mozilla/5.0 (Macintosh; Intel Mac OS X 10_15_7) AppleWebKit/537.36 (KHTML, like Gecko) Chrome/136.0.0.0 Safari/537.36",Macintosh,Chrome,136.0.0.0,OS X,10_15_7,https://5puzkbbxv1.cognition.run/?sona_id=58092,"en-US,en;q=0.9",btahx5h8tpogh25,20,"[""White""]",No,Female,N/A,No,359104,NA,13556,NA,"{""product_choice"":""B""}",choice,wbw,trinary,catch,null,washing machines,80,60,45,25,20,30,2,null,null,null,null,null,null,Average lifespan,Energy savings,NA,NA
NA,NA,NA,NA,NA,choice_trial_setup,html-keyboard-response,6,55736,0.0-4.0-0.1,293,1,2025-05-07T19:39:13Z,b60275e29fe2361ab97ac0ac217840d7,"Mozilla/5.0 (Macintosh; Intel Mac OS X 10_15_7) AppleWebKit/537.36 (KHTML, like Gecko) Chrome/136.0.0.0 Safari/537.36",Macintosh,Chrome,136.0.0.0,OS X,10_15_7,https://5puzkbbxv1.cognition.run/?sona_id=58092,"en-US,en;q=0.9",btahx5h8tpogh25,20,"[""White""]",No,Female,N/A,No,359104,NA,null,<p></p>,null,choice,tcd,trinary,attraction,2,microwave ovens,null,null,null,null,null,null,1,NA,NA,NA,NA,NA,NA,NA,NA,NA,NA
NA,NA,NA,NA,NA,choice_trial,survey-html-form,7,63697,0.0-4.0-1.1,293,1,2025-05-07T19:39:13Z,b60275e29fe2361ab97ac0ac217840d7,"Mozilla/5.0 (Macintosh; Intel Mac OS X 10_15_7) AppleWebKit/537.36 (KHTML, like Gecko) Chrome/136.0.0.0 Safari/537.36",Macintosh,Chrome,136.0.0.0,OS X,10_15_7,https://5puzkbbxv1.cognition.run/?sona_id=58092,"en-US,en;q=0.9",btahx5h8tpogh25,20,"[""White""]",No,Female,N/A,No,359104,NA,7959,NA,"{""product_choice"":""A""}",choice,tcd,trinary,attraction,2,microwave ovens,null,null,null,null,null,null,1,50,60,40,60,50,60,Warranty,Cooking power,NA,NA
NA,NA,NA,NA,NA,choice_trial_setup,html-keyboard-response,8,64000,0.0-4.0-0.2,293,1,2025-05-07T19:39:13Z,b60275e29fe2361ab97ac0ac217840d7,"Mozilla/5.0 (Macintosh; Intel Mac OS X 10_15_7) AppleWebKit/537.36 (KHTML, like Gecko) Chrome/136.0.0.0 Safari/537.36",Macintosh,Chrome,136.0.0.0,OS X,10_15_7,https://5puzkbbxv1.cognition.run/?sona_id=58092,"en-US,en;q=0.9",btahx5h8tpogh25,20,"[""White""]",No,Female,N/A,No,359104,NA,null,<p></p>,null,choice,tcd,trinary,attraction,1,microwave ovens,null,null,null,null,null,null,1,NA,NA,NA,NA,NA,NA,NA,NA,NA,NA
NA,NA,NA,NA,NA,choice_trial,survey-html-form,9,68598,0.0-4.0-1.2,293,1,2025-05-07T19:39:13Z,b60275e29fe2361ab97ac0ac217840d7,"Mozilla/5.0 (Macintosh; Intel Mac OS X 10_15_7) AppleWebKit/537.36 (KHTML, like Gecko) Chrome/136.0.0.0 Safari/537.36",Macintosh,Chrome,136.0.0.0,OS X,10_15_7,https://5puzkbbxv1.cognition.run/?sona_id=58092,"en-US,en;q=0.9",btahx5h8tpogh25,20,"[""White""]",No,Female,N/A,No,359104,NA,4595,NA,"{""product_choice"":""A""}",choice,tcd,trinary,attraction,1,microwave ovens,null,null,null,null,null,null,1,60,50,60,50,60,40,Warranty,Cooking power,NA,NA
NA,NA,NA,NA,NA,choice_trial_setup,html-keyboard-response,10,68901,0.0-4.0-0.3,293,1,2025-05-07T19:39:13Z,b60275e29fe2361ab97ac0ac217840d7,"Mozilla/5.0 (Macintosh; Intel Mac OS X 10_15_7) AppleWebKit/537.36 (KHTML, like Gecko) Chrome/136.0.0.0 Safari/537.36",Macintosh,Chrome,136.0.0.0,OS X,10_15_7,https://5puzkbbxv1.cognition.run/?sona_id=58092,"en-US,en;q=0.9",btahx5h8tpogh25,20,"[""White""]",No,Female,N/A,No,359104,NA,null,<p></p>,null,choice,cdt,trinary,attraction,1,televisions,null,null,null,null,null,null,1,NA,NA,NA,NA,NA,NA,NA,NA,NA,NA
NA,NA,NA,NA,NA,choice_trial,survey-html-form,11,78381,0.0-4.0-1.3,293,1,2025-05-07T19:39:13Z,b60275e29fe2361ab97ac0ac217840d7,"Mozilla/5.0 (Macintosh; Intel Mac OS X 10_15_7) AppleWebKit/537.36 (KHTML, like Gecko) Chrome/136.0.0.0 Safari/537.36",Macintosh,Chrome,136.0.0.0,OS X,10_15_7,https://5puzkbbxv1.cognition.run/?sona_id=58092,"en-US,en;q=0.9",btahx5h8tpogh25,20,"[""White""]",No,Female,N/A,No,359104,NA,9476,NA,"{""product_choice"":""A""}",choice,cdt,trinary,attraction,1,televisions,null,null,null,null,null,null,1,60,50,60,50,60,40,Screen size,Average lifespan,NA,NA
NA,NA,NA,NA,NA,choice_trial_setup,html-keyboard-response,12,78685,0.0-4.0-0.4,293,1,2025-05-07T19:39:13Z,b60275e29fe2361ab97ac0ac217840d7,"Mozilla/5.0 (Macintosh; Intel Mac OS X 10_15_7) AppleWebKit/537.36 (KHTML, like Gecko) Chrome/136.0.0.0 Safari/537.36",Macintosh,Chrome,136.0.0.0,OS X,10_15_7,https://5puzkbbxv1.cognition.run/?sona_id=58092,"en-US,en;q=0.9",btahx5h8tpogh25,20,"[""White""]",No,Female,N/A,No,359104,NA,null,<p></p>,null,choice,tc,binary,repulsion,2,washing machines,null,null,null,null,null,null,1,NA,NA,NA,NA,NA,NA,NA,NA,NA,NA
NA,NA,NA,NA,NA,choice_trial,survey-html-form,13,89081,0.0-4.0-1.4,293,1,2025-05-07T19:39:13Z,b60275e29fe2361ab97ac0ac217840d7,"Mozilla/5.0 (Macintosh; Intel Mac OS X 10_15_7) AppleWebKit/537.36 (KHTML, like Gecko) Chrome/136.0.0.0 Safari/537.36",Macintosh,Chrome,136.0.0.0,OS X,10_15_7,https://5puzkbbxv1.cognition.run/?sona_id=58092,"en-US,en;q=0.9",btahx5h8tpogh25,20,"[""White""]",No,Female,N/A,No,359104,NA,10393,NA,"{""product_choice"":""A""}",choice,tc,binary,repulsion,2,washing machines,null,null,null,null,null,null,1,30,40,null,100,90,null,Average lifespan,Energy savings,NA,NA
NA,NA,NA,NA,NA,choice_trial_setup,html-keyboard-response,14,89384,0.0-4.0-0.5,293,1,2025-05-07T19:39:13Z,b60275e29fe2361ab97ac0ac217840d7,"Mozilla/5.0 (Macintosh; Intel Mac OS X 10_15_7) AppleWebKit/537.36 (KHTML, like Gecko) Chrome/136.0.0.0 Safari/537.36",Macintosh,Chrome,136.0.0.0,OS X,10_15_7,https://5puzkbbxv1.cognition.run/?sona_id=58092,"en-US,en;q=0.9",btahx5h8tpogh25,20,"[""White""]",No,Female,N/A,No,359104,NA,null,<p></p>,null,choice,bw,binary,catch,null,washing machines,55,65,35,10,null,null,1,NA,NA,NA,NA,NA,NA,NA,NA,NA,NA
NA,NA,NA,NA,NA,choice_trial,survey-html-form,15,92947,0.0-4.0-1.5,293,1,2025-05-07T19:39:13Z,b60275e29fe2361ab97ac0ac217840d7,"Mozilla/5.0 (Macintosh; Intel Mac OS X 10_15_7) AppleWebKit/537.36 (KHTML, like Gecko) Chrome/136.0.0.0 Safari/537.36",Macintosh,Chrome,136.0.0.0,OS X,10_15_7,https://5puzkbbxv1.cognition.run/?sona_id=58092,"en-US,en;q=0.9",btahx5h8tpogh25,20,"[""White""]",No,Female,N/A,No,359104,NA,3560,NA,"{""product_choice"":""A""}",choice,bw,binary,catch,null,washing machines,55,65,35,10,null,null,1,null,null,null,null,null,null,Average lifespan,Energy savings,NA,NA
NA,NA,NA,NA,NA,choice_trial_setup,html-keyboard-response,16,93251,0.0-4.0-0.6,293,1,2025-05-07T19:39:13Z,b60275e29fe2361ab97ac0ac217840d7,"Mozilla/5.0 (Macintosh; Intel Mac OS X 10_15_7) AppleWebKit/537.36 (KHTML, like Gecko) Chrome/136.0.0.0 Safari/537.36",Macintosh,Chrome,136.0.0.0,OS X,10_15_7,https://5puzkbbxv1.cognition.run/?sona_id=58092,"en-US,en;q=0.9",btahx5h8tpogh25,20,"[""White""]",No,Female,N/A,No,359104,NA,null,<p></p>,null,choice,ct,binary,attraction,NA,televisions,null,null,null,null,null,null,1,NA,NA,NA,NA,NA,NA,NA,NA,NA,NA
NA,NA,NA,NA,NA,choice_trial,survey-html-form,17,96713,0.0-4.0-1.6,293,1,2025-05-07T19:39:13Z,b60275e29fe2361ab97ac0ac217840d7,"Mozilla/5.0 (Macintosh; Intel Mac OS X 10_15_7) AppleWebKit/537.36 (KHTML, like Gecko) Chrome/136.0.0.0 Safari/537.36",Macintosh,Chrome,136.0.0.0,OS X,10_15_7,https://5puzkbbxv1.cognition.run/?sona_id=58092,"en-US,en;q=0.9",btahx5h8tpogh25,20,"[""White""]",No,Female,N/A,No,359104,NA,3459,NA,"{""product_choice"":""A""}",choice,ct,binary,attraction,NA,televisions,null,null,null,null,null,null,1,60,50,null,50,60,null,Screen size,Average lifespan,NA,NA
NA,NA,NA,NA,NA,choice_trial_setup,html-keyboard-response,18,97017,0.0-4.0-0.7,293,1,2025-05-07T19:39:13Z,b60275e29fe2361ab97ac0ac217840d7,"Mozilla/5.0 (Macintosh; Intel Mac OS X 10_15_7) AppleWebKit/537.36 (KHTML, like Gecko) Chrome/136.0.0.0 Safari/537.36",Macintosh,Chrome,136.0.0.0,OS X,10_15_7,https://5puzkbbxv1.cognition.run/?sona_id=58092,"en-US,en;q=0.9",btahx5h8tpogh25,20,"[""White""]",No,Female,N/A,No,359104,NA,null,<p></p>,null,choice,tdc,trinary,repulsion_A,2,laptops,null,null,null,null,null,null,1,NA,NA,NA,NA,NA,NA,NA,NA,NA,NA
NA,NA,NA,NA,NA,choice_trial,survey-html-form,19,107281,0.0-4.0-1.7,293,1,2025-05-07T19:39:13Z,b60275e29fe2361ab97ac0ac217840d7,"Mozilla/5.0 (Macintosh; Intel Mac OS X 10_15_7) AppleWebKit/537.36 (KHTML, like Gecko) Chrome/136.0.0.0 Safari/537.36",Macintosh,Chrome,136.0.0.0,OS X,10_15_7,https://5puzkbbxv1.cognition.run/?sona_id=58092,"en-US,en;q=0.9",btahx5h8tpogh25,20,"[""White""]",No,Female,N/A,No,359104,NA,10260,NA,"{""product_choice"":""C""}",choice,tdc,trinary,repulsion_A,2,laptops,null,null,null,null,null,null,1,30,40,20,100,90,100,Processing speed,Memory (RAM),NA,NA
NA,NA,NA,NA,NA,choice_trial_setup,html-keyboard-response,20,107584,0.0-4.0-0.8,293,1,2025-05-07T19:39:13Z,b60275e29fe2361ab97ac0ac217840d7,"Mozilla/5.0 (Macintosh; Intel Mac OS X 10_15_7) AppleWebKit/537.36 (KHTML, like Gecko) Chrome/136.0.0.0 Safari/537.36",Macintosh,Chrome,136.0.0.0,OS X,10_15_7,https://5puzkbbxv1.cognition.run/?sona_id=58092,"en-US,en;q=0.9",btahx5h8tpogh25,20,"[""White""]",No,Female,N/A,No,359104,NA,null,<p></p>,null,choice,wb,binary,catch,null,televisions,80,80,15,30,null,null,1,NA,NA,NA,NA,NA,NA,NA,NA,NA,NA
NA,NA,NA,NA,NA,choice_trial,survey-html-form,21,112731,0.0-4.0-1.8,293,1,2025-05-07T19:39:13Z,b60275e29fe2361ab97ac0ac217840d7,"Mozilla/5.0 (Macintosh; Intel Mac OS X 10_15_7) AppleWebKit/537.36 (KHTML, like Gecko) Chrome/136.0.0.0 Safari/537.36",Macintosh,Chrome,136.0.0.0,OS X,10_15_7,https://5puzkbbxv1.cognition.run/?sona_id=58092,"en-US,en;q=0.9",btahx5h8tpogh25,20,"[""White""]",No,Female,N/A,No,359104,NA,5142,NA,"{""product_choice"":""A""}",choice,wb,binary,catch,null,televisions,80,80,15,30,null,null,1,null,null,null,null,null,null,Screen size,Average lifespan,NA,NA
NA,NA,NA,NA,NA,choice_trial_setup,html-keyboard-response,22,113035,0.0-4.0-0.9,293,1,2025-05-07T19:39:13Z,b60275e29fe2361ab97ac0ac217840d7,"Mozilla/5.0 (Macintosh; Intel Mac OS X 10_15_7) AppleWebKit/537.36 (KHTML, like Gecko) Chrome/136.0.0.0 Safari/537.36",Macintosh,Chrome,136.0.0.0,OS X,10_15_7,https://5puzkbbxv1.cognition.run/?sona_id=58092,"en-US,en;q=0.9",btahx5h8tpogh25,20,"[""White""]",No,Female,N/A,No,359104,NA,null,<p></p>,null,choice,bww,trinary,catch,null,microwave ovens,85,50,30,5,30,40,1,NA,NA,NA,NA,NA,NA,NA,NA,NA,NA
NA,NA,NA,NA,NA,choice_trial,survey-html-form,23,120214,0.0-4.0-1.9,293,1,2025-05-07T19:39:13Z,b60275e29fe2361ab97ac0ac217840d7,"Mozilla/5.0 (Macintosh; Intel Mac OS X 10_15_7) AppleWebKit/537.36 (KHTML, like Gecko) Chrome/136.0.0.0 Safari/537.36",Macintosh,Chrome,136.0.0.0,OS X,10_15_7,https://5puzkbbxv1.cognition.run/?sona_id=58092,"en-US,en;q=0.9",btahx5h8tpogh25,20,"[""White""]",No,Female,N/A,No,359104,NA,7175,NA,"{""product_choice"":""C""}",choice,bww,trinary,catch,null,microwave ovens,85,50,30,5,30,40,1,null,null,null,null,null,null,Warranty,Cooking power,NA,NA
NA,NA,NA,NA,NA,choice_trial_setup,html-keyboard-response,24,120518,0.0-4.0-0.10,293,1,2025-05-07T19:39:13Z,b60275e29fe2361ab97ac0ac217840d7,"Mozilla/5.0 (Macintosh; Intel Mac OS X 10_15_7) AppleWebKit/537.36 (KHTML, like Gecko) Chrome/136.0.0.0 Safari/537.36",Macintosh,Chrome,136.0.0.0,OS X,10_15_7,https://5puzkbbxv1.cognition.run/?sona_id=58092,"en-US,en;q=0.9",btahx5h8tpogh25,20,"[""White""]",No,Female,N/A,No,359104,NA,null,<p></p>,null,choice,bw,binary,catch,null,microwave ovens,65,90,35,40,null,null,2,NA,NA,NA,NA,NA,NA,NA,NA,NA,NA
NA,NA,NA,NA,NA,choice_trial,survey-html-form,25,126864,0.0-4.0-1.10,293,1,2025-05-07T19:39:13Z,b60275e29fe2361ab97ac0ac217840d7,"Mozilla/5.0 (Macintosh; Intel Mac OS X 10_15_7) AppleWebKit/537.36 (KHTML, like Gecko) Chrome/136.0.0.0 Safari/537.36",Macintosh,Chrome,136.0.0.0,OS X,10_15_7,https://5puzkbbxv1.cognition.run/?sona_id=58092,"en-US,en;q=0.9",btahx5h8tpogh25,20,"[""White""]",No,Female,N/A,No,359104,NA,6343,NA,"{""product_choice"":""A""}",choice,bw,binary,catch,null,microwave ovens,65,90,35,40,null,null,2,null,null,null,null,null,null,Warranty,Cooking power,NA,NA
NA,NA,NA,NA,NA,choice_trial_setup,html-keyboard-response,26,127168,0.0-4.0-0.11,293,1,2025-05-07T19:39:13Z,b60275e29fe2361ab97ac0ac217840d7,"Mozilla/5.0 (Macintosh; Intel Mac OS X 10_15_7) AppleWebKit/537.36 (KHTML, like Gecko) Chrome/136.0.0.0 Safari/537.36",Macintosh,Chrome,136.0.0.0,OS X,10_15_7,https://5puzkbbxv1.cognition.run/?sona_id=58092,"en-US,en;q=0.9",btahx5h8tpogh25,20,"[""White""]",No,Female,N/A,No,359104,NA,null,<p></p>,null,choice,dtc,trinary,repulsion_B,1,laptops,null,null,null,null,null,null,1,NA,NA,NA,NA,NA,NA,NA,NA,NA,NA
NA,NA,NA,NA,NA,choice_trial,survey-html-form,27,137764,0.0-4.0-1.11,293,1,2025-05-07T19:39:13Z,b60275e29fe2361ab97ac0ac217840d7,"Mozilla/5.0 (Macintosh; Intel Mac OS X 10_15_7) AppleWebKit/537.36 (KHTML, like Gecko) Chrome/136.0.0.0 Safari/537.36",Macintosh,Chrome,136.0.0.0,OS X,10_15_7,https://5puzkbbxv1.cognition.run/?sona_id=58092,"en-US,en;q=0.9",btahx5h8tpogh25,20,"[""White""]",No,Female,N/A,No,359104,NA,10591,NA,"{""product_choice"":""B""}",choice,dtc,trinary,repulsion_B,1,laptops,null,null,null,null,null,null,1,90,100,80,40,30,40,Processing speed,Memory (RAM),NA,NA
NA,NA,NA,NA,NA,choice_trial_setup,html-keyboard-response,28,138068,0.0-4.0-0.12,293,1,2025-05-07T19:39:13Z,b60275e29fe2361ab97ac0ac217840d7,"Mozilla/5.0 (Macintosh; Intel Mac OS X 10_15_7) AppleWebKit/537.36 (KHTML, like Gecko) Chrome/136.0.0.0 Safari/537.36",Macintosh,Chrome,136.0.0.0,OS X,10_15_7,https://5puzkbbxv1.cognition.run/?sona_id=58092,"en-US,en;q=0.9",btahx5h8tpogh25,20,"[""White""]",No,Female,N/A,No,359104,NA,null,<p></p>,null,choice,tcd,trinary,repulsion_A,1,laptops,null,null,null,null,null,null,1,NA,NA,NA,NA,NA,NA,NA,NA,NA,NA
NA,NA,NA,NA,NA,choice_trial,survey-html-form,29,144447,0.0-4.0-1.12,293,1,2025-05-07T19:39:13Z,b60275e29fe2361ab97ac0ac217840d7,"Mozilla/5.0 (Macintosh; Intel Mac OS X 10_15_7) AppleWebKit/537.36 (KHTML, like Gecko) Chrome/136.0.0.0 Safari/537.36",Macintosh,Chrome,136.0.0.0,OS X,10_15_7,https://5puzkbbxv1.cognition.run/?sona_id=58092,"en-US,en;q=0.9",btahx5h8tpogh25,20,"[""White""]",No,Female,N/A,No,359104,NA,6375,NA,"{""product_choice"":""B""}",choice,tcd,trinary,repulsion_A,1,laptops,null,null,null,null,null,null,1,100,90,100,30,40,20,Processing speed,Memory (RAM),NA,NA
NA,NA,NA,NA,NA,choice_trial_setup,html-keyboard-response,30,144751,0.0-4.0-0.13,293,1,2025-05-07T19:39:13Z,b60275e29fe2361ab97ac0ac217840d7,"Mozilla/5.0 (Macintosh; Intel Mac OS X 10_15_7) AppleWebKit/537.36 (KHTML, like Gecko) Chrome/136.0.0.0 Safari/537.36",Macintosh,Chrome,136.0.0.0,OS X,10_15_7,https://5puzkbbxv1.cognition.run/?sona_id=58092,"en-US,en;q=0.9",btahx5h8tpogh25,20,"[""White""]",No,Female,N/A,No,359104,NA,null,<p></p>,null,choice,wwb,trinary,catch,null,laptops,60,85,45,15,5,40,1,NA,NA,NA,NA,NA,NA,NA,NA,NA,NA
NA,NA,NA,NA,NA,choice_trial,survey-html-form,31,151246,0.0-4.0-1.13,293,1,2025-05-07T19:39:13Z,b60275e29fe2361ab97ac0ac217840d7,"Mozilla/5.0 (Macintosh; Intel Mac OS X 10_15_7) AppleWebKit/537.36 (KHTML, like Gecko) Chrome/136.0.0.0 Safari/537.36",Macintosh,Chrome,136.0.0.0,OS X,10_15_7,https://5puzkbbxv1.cognition.run/?sona_id=58092,"en-US,en;q=0.9",btahx5h8tpogh25,20,"[""White""]",No,Female,N/A,No,359104,NA,6490,NA,"{""product_choice"":""C""}",choice,wwb,trinary,catch,null,laptops,60,85,45,15,5,40,1,null,null,null,null,null,null,Processing speed,Memory (RAM),NA,NA
NA,NA,NA,NA,NA,choice_trial_setup,html-keyboard-response,32,151549,0.0-4.0-0.14,293,1,2025-05-07T19:39:13Z,b60275e29fe2361ab97ac0ac217840d7,"Mozilla/5.0 (Macintosh; Intel Mac OS X 10_15_7) AppleWebKit/537.36 (KHTML, like Gecko) Chrome/136.0.0.0 Safari/537.36",Macintosh,Chrome,136.0.0.0,OS X,10_15_7,https://5puzkbbxv1.cognition.run/?sona_id=58092,"en-US,en;q=0.9",btahx5h8tpogh25,20,"[""White""]",No,Female,N/A,No,359104,NA,null,<p></p>,null,choice,bw,binary,catch,null,laptops,60,65,20,5,null,null,2,NA,NA,NA,NA,NA,NA,NA,NA,NA,NA
NA,NA,NA,NA,NA,choice_trial,survey-html-form,33,154530,0.0-4.0-1.14,293,1,2025-05-07T19:39:13Z,b60275e29fe2361ab97ac0ac217840d7,"Mozilla/5.0 (Macintosh; Intel Mac OS X 10_15_7) AppleWebKit/537.36 (KHTML, like Gecko) Chrome/136.0.0.0 Safari/537.36",Macintosh,Chrome,136.0.0.0,OS X,10_15_7,https://5puzkbbxv1.cognition.run/?sona_id=58092,"en-US,en;q=0.9",btahx5h8tpogh25,20,"[""White""]",No,Female,N/A,No,359104,NA,2977,NA,"{""product_choice"":""A""}",choice,bw,binary,catch,null,laptops,60,65,20,5,null,null,2,null,null,null,null,null,null,Processing speed,Memory (RAM),NA,NA
NA,NA,NA,NA,NA,choice_trial_setup,html-keyboard-response,34,154834,0.0-4.0-0.15,293,1,2025-05-07T19:39:13Z,b60275e29fe2361ab97ac0ac217840d7,"Mozilla/5.0 (Macintosh; Intel Mac OS X 10_15_7) AppleWebKit/537.36 (KHTML, like Gecko) Chrome/136.0.0.0 Safari/537.36",Macintosh,Chrome,136.0.0.0,OS X,10_15_7,https://5puzkbbxv1.cognition.run/?sona_id=58092,"en-US,en;q=0.9",btahx5h8tpogh25,20,"[""White""]",No,Female,N/A,No,359104,NA,null,<p></p>,null,choice,ct,binary,attraction,NA,washing machines,null,null,null,null,null,null,2,NA,NA,NA,NA,NA,NA,NA,NA,NA,NA
NA,NA,NA,NA,NA,choice_trial,survey-html-form,35,160181,0.0-4.0-1.15,293,1,2025-05-07T19:39:13Z,b60275e29fe2361ab97ac0ac217840d7,"Mozilla/5.0 (Macintosh; Intel Mac OS X 10_15_7) AppleWebKit/537.36 (KHTML, like Gecko) Chrome/136.0.0.0 Safari/537.36",Macintosh,Chrome,136.0.0.0,OS X,10_15_7,https://5puzkbbxv1.cognition.run/?sona_id=58092,"en-US,en;q=0.9",btahx5h8tpogh25,20,"[""White""]",No,Female,N/A,No,359104,NA,5343,NA,"{""product_choice"":""B""}",choice,ct,binary,attraction,NA,washing machines,null,null,null,null,null,null,2,60,50,null,50,60,null,Average lifespan,Energy savings,NA,NA
NA,NA,NA,NA,NA,choice_trial_setup,html-keyboard-response,36,160485,0.0-4.0-0.16,293,1,2025-05-07T19:39:13Z,b60275e29fe2361ab97ac0ac217840d7,"Mozilla/5.0 (Macintosh; Intel Mac OS X 10_15_7) AppleWebKit/537.36 (KHTML, like Gecko) Chrome/136.0.0.0 Safari/537.36",Macintosh,Chrome,136.0.0.0,OS X,10_15_7,https://5puzkbbxv1.cognition.run/?sona_id=58092,"en-US,en;q=0.9",btahx5h8tpogh25,20,"[""White""]",No,Female,N/A,No,359104,NA,null,<p></p>,null,choice,ct,binary,attraction,NA,microwave ovens,null,null,null,null,null,null,2,NA,NA,NA,NA,NA,NA,NA,NA,NA,NA
NA,NA,NA,NA,NA,choice_trial,survey-html-form,37,165798,0.0-4.0-1.16,293,1,2025-05-07T19:39:13Z,b60275e29fe2361ab97ac0ac217840d7,"Mozilla/5.0 (Macintosh; Intel Mac OS X 10_15_7) AppleWebKit/537.36 (KHTML, like Gecko) Chrome/136.0.0.0 Safari/537.36",Macintosh,Chrome,136.0.0.0,OS X,10_15_7,https://5puzkbbxv1.cognition.run/?sona_id=58092,"en-US,en;q=0.9",btahx5h8tpogh25,20,"[""White""]",No,Female,N/A,No,359104,NA,5308,NA,"{""product_choice"":""B""}",choice,ct,binary,attraction,NA,microwave ovens,null,null,null,null,null,null,2,60,50,null,50,60,null,Warranty,Cooking power,NA,NA
NA,NA,NA,NA,NA,choice_trial_setup,html-keyboard-response,38,166102,0.0-4.0-0.17,293,1,2025-05-07T19:39:13Z,b60275e29fe2361ab97ac0ac217840d7,"Mozilla/5.0 (Macintosh; Intel Mac OS X 10_15_7) AppleWebKit/537.36 (KHTML, like Gecko) Chrome/136.0.0.0 Safari/537.36",Macintosh,Chrome,136.0.0.0,OS X,10_15_7,https://5puzkbbxv1.cognition.run/?sona_id=58092,"en-US,en;q=0.9",btahx5h8tpogh25,20,"[""White""]",No,Female,N/A,No,359104,NA,null,<p></p>,null,choice,dct,trinary,repulsion_A,1,televisions,null,null,null,null,null,null,2,NA,NA,NA,NA,NA,NA,NA,NA,NA,NA
NA,NA,NA,NA,NA,choice_trial,survey-html-form,39,172864,0.0-4.0-1.17,293,1,2025-05-07T19:39:13Z,b60275e29fe2361ab97ac0ac217840d7,"Mozilla/5.0 (Macintosh; Intel Mac OS X 10_15_7) AppleWebKit/537.36 (KHTML, like Gecko) Chrome/136.0.0.0 Safari/537.36",Macintosh,Chrome,136.0.0.0,OS X,10_15_7,https://5puzkbbxv1.cognition.run/?sona_id=58092,"en-US,en;q=0.9",btahx5h8tpogh25,20,"[""White""]",No,Female,N/A,No,359104,NA,6757,NA,"{""product_choice"":""B""}",choice,dct,trinary,repulsion_A,1,televisions,null,null,null,null,null,null,2,100,90,100,30,40,20,Screen size,Average lifespan,NA,NA
NA,NA,NA,NA,NA,choice_trial_setup,html-keyboard-response,40,173167,0.0-4.0-0.18,293,1,2025-05-07T19:39:13Z,b60275e29fe2361ab97ac0ac217840d7,"Mozilla/5.0 (Macintosh; Intel Mac OS X 10_15_7) AppleWebKit/537.36 (KHTML, like Gecko) Chrome/136.0.0.0 Safari/537.36",Macintosh,Chrome,136.0.0.0,OS X,10_15_7,https://5puzkbbxv1.cognition.run/?sona_id=58092,"en-US,en;q=0.9",btahx5h8tpogh25,20,"[""White""]",No,Female,N/A,No,359104,NA,null,<p></p>,null,choice,dct,trinary,repulsion_A,2,televisions,null,null,null,null,null,null,1,NA,NA,NA,NA,NA,NA,NA,NA,NA,NA
NA,NA,NA,NA,NA,choice_trial,survey-html-form,41,179747,0.0-4.0-1.18,293,1,2025-05-07T19:39:13Z,b60275e29fe2361ab97ac0ac217840d7,"Mozilla/5.0 (Macintosh; Intel Mac OS X 10_15_7) AppleWebKit/537.36 (KHTML, like Gecko) Chrome/136.0.0.0 Safari/537.36",Macintosh,Chrome,136.0.0.0,OS X,10_15_7,https://5puzkbbxv1.cognition.run/?sona_id=58092,"en-US,en;q=0.9",btahx5h8tpogh25,20,"[""White""]",No,Female,N/A,No,359104,NA,6575,NA,"{""product_choice"":""B""}",choice,dct,trinary,repulsion_A,2,televisions,null,null,null,null,null,null,1,30,40,20,100,90,100,Screen size,Average lifespan,NA,NA
NA,NA,NA,NA,NA,choice_trial_setup,html-keyboard-response,42,180051,0.0-4.0-0.19,293,1,2025-05-07T19:39:13Z,b60275e29fe2361ab97ac0ac217840d7,"Mozilla/5.0 (Macintosh; Intel Mac OS X 10_15_7) AppleWebKit/537.36 (KHTML, like Gecko) Chrome/136.0.0.0 Safari/537.36",Macintosh,Chrome,136.0.0.0,OS X,10_15_7,https://5puzkbbxv1.cognition.run/?sona_id=58092,"en-US,en;q=0.9",btahx5h8tpogh25,20,"[""White""]",No,Female,N/A,No,359104,NA,null,<p></p>,null,choice,dct,trinary,repulsion_B,2,televisions,null,null,null,null,null,null,2,NA,NA,NA,NA,NA,NA,NA,NA,NA,NA
NA,NA,NA,NA,NA,choice_trial,survey-html-form,43,185064,0.0-4.0-1.19,293,1,2025-05-07T19:39:13Z,b60275e29fe2361ab97ac0ac217840d7,"Mozilla/5.0 (Macintosh; Intel Mac OS X 10_15_7) AppleWebKit/537.36 (KHTML, like Gecko) Chrome/136.0.0.0 Safari/537.36",Macintosh,Chrome,136.0.0.0,OS X,10_15_7,https://5puzkbbxv1.cognition.run/?sona_id=58092,"en-US,en;q=0.9",btahx5h8tpogh25,20,"[""White""]",No,Female,N/A,No,359104,NA,5008,NA,"{""product_choice"":""C""}",choice,dct,trinary,repulsion_B,2,televisions,null,null,null,null,null,null,2,40,30,40,90,100,80,Screen size,Average lifespan,NA,NA
NA,NA,NA,NA,NA,choice_trial_setup,html-keyboard-response,44,185368,0.0-4.0-0.20,293,1,2025-05-07T19:39:13Z,b60275e29fe2361ab97ac0ac217840d7,"Mozilla/5.0 (Macintosh; Intel Mac OS X 10_15_7) AppleWebKit/537.36 (KHTML, like Gecko) Chrome/136.0.0.0 Safari/537.36",Macintosh,Chrome,136.0.0.0,OS X,10_15_7,https://5puzkbbxv1.cognition.run/?sona_id=58092,"en-US,en;q=0.9",btahx5h8tpogh25,20,"[""White""]",No,Female,N/A,No,359104,NA,null,<p></p>,null,choice,tc,binary,repulsion,1,televisions,null,null,null,null,null,null,1,NA,NA,NA,NA,NA,NA,NA,NA,NA,NA
NA,NA,NA,NA,NA,choice_trial,survey-html-form,45,192181,0.0-4.0-1.20,293,1,2025-05-07T19:39:13Z,b60275e29fe2361ab97ac0ac217840d7,"Mozilla/5.0 (Macintosh; Intel Mac OS X 10_15_7) AppleWebKit/537.36 (KHTML, like Gecko) Chrome/136.0.0.0 Safari/537.36",Macintosh,Chrome,136.0.0.0,OS X,10_15_7,https://5puzkbbxv1.cognition.run/?sona_id=58092,"en-US,en;q=0.9",btahx5h8tpogh25,20,"[""White""]",No,Female,N/A,No,359104,NA,6808,NA,"{""product_choice"":""B""}",choice,tc,binary,repulsion,1,televisions,null,null,null,null,null,null,1,100,90,null,30,40,null,Screen size,Average lifespan,NA,NA
NA,NA,NA,NA,NA,choice_trial_setup,html-keyboard-response,46,192485,0.0-4.0-0.21,293,1,2025-05-07T19:39:13Z,b60275e29fe2361ab97ac0ac217840d7,"Mozilla/5.0 (Macintosh; Intel Mac OS X 10_15_7) AppleWebKit/537.36 (KHTML, like Gecko) Chrome/136.0.0.0 Safari/537.36",Macintosh,Chrome,136.0.0.0,OS X,10_15_7,https://5puzkbbxv1.cognition.run/?sona_id=58092,"en-US,en;q=0.9",btahx5h8tpogh25,20,"[""White""]",No,Female,N/A,No,359104,NA,null,<p></p>,null,choice,tcd,trinary,attraction,2,washing machines,null,null,null,null,null,null,2,NA,NA,NA,NA,NA,NA,NA,NA,NA,NA
NA,NA,NA,NA,NA,choice_trial,survey-html-form,47,196498,0.0-4.0-1.21,293,1,2025-05-07T19:39:13Z,b60275e29fe2361ab97ac0ac217840d7,"Mozilla/5.0 (Macintosh; Intel Mac OS X 10_15_7) AppleWebKit/537.36 (KHTML, like Gecko) Chrome/136.0.0.0 Safari/537.36",Macintosh,Chrome,136.0.0.0,OS X,10_15_7,https://5puzkbbxv1.cognition.run/?sona_id=58092,"en-US,en;q=0.9",btahx5h8tpogh25,20,"[""White""]",No,Female,N/A,No,359104,NA,4007,NA,"{""product_choice"":""B""}",choice,tcd,trinary,attraction,2,washing machines,null,null,null,null,null,null,2,50,60,40,60,50,60,Average lifespan,Energy savings,NA,NA
NA,NA,NA,NA,NA,choice_trial_setup,html-keyboard-response,48,196803,0.0-4.0-0.22,293,1,2025-05-07T19:39:13Z,b60275e29fe2361ab97ac0ac217840d7,"Mozilla/5.0 (Macintosh; Intel Mac OS X 10_15_7) AppleWebKit/537.36 (KHTML, like Gecko) Chrome/136.0.0.0 Safari/537.36",Macintosh,Chrome,136.0.0.0,OS X,10_15_7,https://5puzkbbxv1.cognition.run/?sona_id=58092,"en-US,en;q=0.9",btahx5h8tpogh25,20,"[""White""]",No,Female,N/A,No,359104,NA,null,<p></p>,null,choice,ct,binary,repulsion,1,washing machines,null,null,null,null,null,null,1,NA,NA,NA,NA,NA,NA,NA,NA,NA,NA
NA,NA,NA,NA,NA,choice_trial,survey-html-form,49,199631,0.0-4.0-1.22,293,1,2025-05-07T19:39:13Z,b60275e29fe2361ab97ac0ac217840d7,"Mozilla/5.0 (Macintosh; Intel Mac OS X 10_15_7) AppleWebKit/537.36 (KHTML, like Gecko) Chrome/136.0.0.0 Safari/537.36",Macintosh,Chrome,136.0.0.0,OS X,10_15_7,https://5puzkbbxv1.cognition.run/?sona_id=58092,"en-US,en;q=0.9",btahx5h8tpogh25,20,"[""White""]",No,Female,N/A,No,359104,NA,2823,NA,"{""product_choice"":""A""}",choice,ct,binary,repulsion,1,washing machines,null,null,null,null,null,null,1,100,90,null,30,40,null,Average lifespan,Energy savings,NA,NA
NA,NA,NA,NA,NA,choice_trial_setup,html-keyboard-response,50,199935,0.0-4.0-0.23,293,1,2025-05-07T19:39:13Z,b60275e29fe2361ab97ac0ac217840d7,"Mozilla/5.0 (Macintosh; Intel Mac OS X 10_15_7) AppleWebKit/537.36 (KHTML, like Gecko) Chrome/136.0.0.0 Safari/537.36",Macintosh,Chrome,136.0.0.0,OS X,10_15_7,https://5puzkbbxv1.cognition.run/?sona_id=58092,"en-US,en;q=0.9",btahx5h8tpogh25,20,"[""White""]",No,Female,N/A,No,359104,NA,null,<p></p>,null,choice,dtc,trinary,repulsion_B,2,washing machines,null,null,null,null,null,null,2,NA,NA,NA,NA,NA,NA,NA,NA,NA,NA
NA,NA,NA,NA,NA,choice_trial,survey-html-form,51,203913,0.0-4.0-1.23,293,1,2025-05-07T19:39:13Z,b60275e29fe2361ab97ac0ac217840d7,"Mozilla/5.0 (Macintosh; Intel Mac OS X 10_15_7) AppleWebKit/537.36 (KHTML, like Gecko) Chrome/136.0.0.0 Safari/537.36",Macintosh,Chrome,136.0.0.0,OS X,10_15_7,https://5puzkbbxv1.cognition.run/?sona_id=58092,"en-US,en;q=0.9",btahx5h8tpogh25,20,"[""White""]",No,Female,N/A,No,359104,NA,3974,NA,"{""product_choice"":""B""}",choice,dtc,trinary,repulsion_B,2,washing machines,null,null,null,null,null,null,2,40,30,40,90,100,80,Average lifespan,Energy savings,NA,NA
NA,NA,NA,NA,NA,choice_trial_setup,html-keyboard-response,52,204218,0.0-4.0-0.24,293,1,2025-05-07T19:39:13Z,b60275e29fe2361ab97ac0ac217840d7,"Mozilla/5.0 (Macintosh; Intel Mac OS X 10_15_7) AppleWebKit/537.36 (KHTML, like Gecko) Chrome/136.0.0.0 Safari/537.36",Macintosh,Chrome,136.0.0.0,OS X,10_15_7,https://5puzkbbxv1.cognition.run/?sona_id=58092,"en-US,en;q=0.9",btahx5h8tpogh25,20,"[""White""]",No,Female,N/A,No,359104,NA,null,<p></p>,null,choice,tdc,trinary,repulsion_B,2,laptops,null,null,null,null,null,null,1,NA,NA,NA,NA,NA,NA,NA,NA,NA,NA
NA,NA,NA,NA,NA,choice_trial,survey-html-form,53,211131,0.0-4.0-1.24,293,1,2025-05-07T19:39:13Z,b60275e29fe2361ab97ac0ac217840d7,"Mozilla/5.0 (Macintosh; Intel Mac OS X 10_15_7) AppleWebKit/537.36 (KHTML, like Gecko) Chrome/136.0.0.0 Safari/537.36",Macintosh,Chrome,136.0.0.0,OS X,10_15_7,https://5puzkbbxv1.cognition.run/?sona_id=58092,"en-US,en;q=0.9",btahx5h8tpogh25,20,"[""White""]",No,Female,N/A,No,359104,NA,6907,NA,"{""product_choice"":""A""}",choice,tdc,trinary,repulsion_B,2,laptops,null,null,null,null,null,null,1,40,30,40,90,100,80,Processing speed,Memory (RAM),NA,NA
NA,NA,NA,NA,NA,choice_trial_setup,html-keyboard-response,54,211434,0.0-4.0-0.25,293,1,2025-05-07T19:39:13Z,b60275e29fe2361ab97ac0ac217840d7,"Mozilla/5.0 (Macintosh; Intel Mac OS X 10_15_7) AppleWebKit/537.36 (KHTML, like Gecko) Chrome/136.0.0.0 Safari/537.36",Macintosh,Chrome,136.0.0.0,OS X,10_15_7,https://5puzkbbxv1.cognition.run/?sona_id=58092,"en-US,en;q=0.9",btahx5h8tpogh25,20,"[""White""]",No,Female,N/A,No,359104,NA,null,<p></p>,null,choice,ct,binary,repulsion,1,microwave ovens,null,null,null,null,null,null,1,NA,NA,NA,NA,NA,NA,NA,NA,NA,NA
NA,NA,NA,NA,NA,choice_trial,survey-html-form,55,214614,0.0-4.0-1.25,293,1,2025-05-07T19:39:13Z,b60275e29fe2361ab97ac0ac217840d7,"Mozilla/5.0 (Macintosh; Intel Mac OS X 10_15_7) AppleWebKit/537.36 (KHTML, like Gecko) Chrome/136.0.0.0 Safari/537.36",Macintosh,Chrome,136.0.0.0,OS X,10_15_7,https://5puzkbbxv1.cognition.run/?sona_id=58092,"en-US,en;q=0.9",btahx5h8tpogh25,20,"[""White""]",No,Female,N/A,No,359104,NA,3175,NA,"{""product_choice"":""A""}",choice,ct,binary,repulsion,1,microwave ovens,null,null,null,null,null,null,1,100,90,null,30,40,null,Warranty,Cooking power,NA,NA
NA,NA,NA,NA,NA,choice_trial_setup,html-keyboard-response,56,214918,0.0-4.0-0.26,293,1,2025-05-07T19:39:13Z,b60275e29fe2361ab97ac0ac217840d7,"Mozilla/5.0 (Macintosh; Intel Mac OS X 10_15_7) AppleWebKit/537.36 (KHTML, like Gecko) Chrome/136.0.0.0 Safari/537.36",Macintosh,Chrome,136.0.0.0,OS X,10_15_7,https://5puzkbbxv1.cognition.run/?sona_id=58092,"en-US,en;q=0.9",btahx5h8tpogh25,20,"[""White""]",No,Female,N/A,No,359104,NA,null,<p></p>,null,choice,tdc,trinary,attraction,1,washing machines,null,null,null,null,null,null,1,NA,NA,NA,NA,NA,NA,NA,NA,NA,NA
NA,NA,NA,NA,NA,choice_trial,survey-html-form,57,217863,0.0-4.0-1.26,293,1,2025-05-07T19:39:13Z,b60275e29fe2361ab97ac0ac217840d7,"Mozilla/5.0 (Macintosh; Intel Mac OS X 10_15_7) AppleWebKit/537.36 (KHTML, like Gecko) Chrome/136.0.0.0 Safari/537.36",Macintosh,Chrome,136.0.0.0,OS X,10_15_7,https://5puzkbbxv1.cognition.run/?sona_id=58092,"en-US,en;q=0.9",btahx5h8tpogh25,20,"[""White""]",No,Female,N/A,No,359104,NA,2940,NA,"{""product_choice"":""C""}",choice,tdc,trinary,attraction,1,washing machines,null,null,null,null,null,null,1,60,50,60,50,60,40,Average lifespan,Energy savings,NA,NA
NA,NA,NA,NA,NA,choice_trial_setup,html-keyboard-response,58,218169,0.0-4.0-0.27,293,1,2025-05-07T19:39:13Z,b60275e29fe2361ab97ac0ac217840d7,"Mozilla/5.0 (Macintosh; Intel Mac OS X 10_15_7) AppleWebKit/537.36 (KHTML, like Gecko) Chrome/136.0.0.0 Safari/537.36",Macintosh,Chrome,136.0.0.0,OS X,10_15_7,https://5puzkbbxv1.cognition.run/?sona_id=58092,"en-US,en;q=0.9",btahx5h8tpogh25,20,"[""White""]",No,Female,N/A,No,359104,NA,null,<p></p>,null,choice,tc,binary,repulsion,2,laptops,null,null,null,null,null,null,1,NA,NA,NA,NA,NA,NA,NA,NA,NA,NA
NA,NA,NA,NA,NA,choice_trial,survey-html-form,59,222881,0.0-4.0-1.27,293,1,2025-05-07T19:39:13Z,b60275e29fe2361ab97ac0ac217840d7,"Mozilla/5.0 (Macintosh; Intel Mac OS X 10_15_7) AppleWebKit/537.36 (KHTML, like Gecko) Chrome/136.0.0.0 Safari/537.36",Macintosh,Chrome,136.0.0.0,OS X,10_15_7,https://5puzkbbxv1.cognition.run/?sona_id=58092,"en-US,en;q=0.9",btahx5h8tpogh25,20,"[""White""]",No,Female,N/A,No,359104,NA,4707,NA,"{""product_choice"":""B""}",choice,tc,binary,repulsion,2,laptops,null,null,null,null,null,null,1,30,40,null,100,90,null,Processing speed,Memory (RAM),NA,NA
NA,NA,NA,NA,NA,choice_trial_setup,html-keyboard-response,60,223184,0.0-4.0-0.28,293,1,2025-05-07T19:39:13Z,b60275e29fe2361ab97ac0ac217840d7,"Mozilla/5.0 (Macintosh; Intel Mac OS X 10_15_7) AppleWebKit/537.36 (KHTML, like Gecko) Chrome/136.0.0.0 Safari/537.36",Macintosh,Chrome,136.0.0.0,OS X,10_15_7,https://5puzkbbxv1.cognition.run/?sona_id=58092,"en-US,en;q=0.9",btahx5h8tpogh25,20,"[""White""]",No,Female,N/A,No,359104,NA,null,<p></p>,null,choice,ctd,trinary,repulsion_B,2,microwave ovens,null,null,null,null,null,null,1,NA,NA,NA,NA,NA,NA,NA,NA,NA,NA
NA,NA,NA,NA,NA,choice_trial,survey-html-form,61,225881,0.0-4.0-1.28,293,1,2025-05-07T19:39:13Z,b60275e29fe2361ab97ac0ac217840d7,"Mozilla/5.0 (Macintosh; Intel Mac OS X 10_15_7) AppleWebKit/537.36 (KHTML, like Gecko) Chrome/136.0.0.0 Safari/537.36",Macintosh,Chrome,136.0.0.0,OS X,10_15_7,https://5puzkbbxv1.cognition.run/?sona_id=58092,"en-US,en;q=0.9",btahx5h8tpogh25,20,"[""White""]",No,Female,N/A,No,359104,NA,2691,NA,"{""product_choice"":""B""}",choice,ctd,trinary,repulsion_B,2,microwave ovens,null,null,null,null,null,null,1,40,30,40,90,100,80,Warranty,Cooking power,NA,NA
NA,NA,NA,NA,NA,choice_trial_setup,html-keyboard-response,62,226186,0.0-4.0-0.29,293,1,2025-05-07T19:39:13Z,b60275e29fe2361ab97ac0ac217840d7,"Mozilla/5.0 (Macintosh; Intel Mac OS X 10_15_7) AppleWebKit/537.36 (KHTML, like Gecko) Chrome/136.0.0.0 Safari/537.36",Macintosh,Chrome,136.0.0.0,OS X,10_15_7,https://5puzkbbxv1.cognition.run/?sona_id=58092,"en-US,en;q=0.9",btahx5h8tpogh25,20,"[""White""]",No,Female,N/A,No,359104,NA,null,<p></p>,null,choice,tc,binary,repulsion,1,laptops,null,null,null,null,null,null,1,NA,NA,NA,NA,NA,NA,NA,NA,NA,NA
NA,NA,NA,NA,NA,choice_trial,survey-html-form,63,229764,0.0-4.0-1.29,293,1,2025-05-07T19:39:13Z,b60275e29fe2361ab97ac0ac217840d7,"Mozilla/5.0 (Macintosh; Intel Mac OS X 10_15_7) AppleWebKit/537.36 (KHTML, like Gecko) Chrome/136.0.0.0 Safari/537.36",Macintosh,Chrome,136.0.0.0,OS X,10_15_7,https://5puzkbbxv1.cognition.run/?sona_id=58092,"en-US,en;q=0.9",btahx5h8tpogh25,20,"[""White""]",No,Female,N/A,No,359104,NA,3572,NA,"{""product_choice"":""B""}",choice,tc,binary,repulsion,1,laptops,null,null,null,null,null,null,1,100,90,null,30,40,null,Processing speed,Memory (RAM),NA,NA
NA,NA,NA,NA,NA,choice_trial_setup,html-keyboard-response,64,230068,0.0-4.0-0.30,293,1,2025-05-07T19:39:13Z,b60275e29fe2361ab97ac0ac217840d7,"Mozilla/5.0 (Macintosh; Intel Mac OS X 10_15_7) AppleWebKit/537.36 (KHTML, like Gecko) Chrome/136.0.0.0 Safari/537.36",Macintosh,Chrome,136.0.0.0,OS X,10_15_7,https://5puzkbbxv1.cognition.run/?sona_id=58092,"en-US,en;q=0.9",btahx5h8tpogh25,20,"[""White""]",No,Female,N/A,No,359104,NA,null,<p></p>,null,choice,ct,binary,repulsion,2,televisions,null,null,null,null,null,null,2,NA,NA,NA,NA,NA,NA,NA,NA,NA,NA
NA,NA,NA,NA,NA,choice_trial,survey-html-form,65,232281,0.0-4.0-1.30,293,1,2025-05-07T19:39:13Z,b60275e29fe2361ab97ac0ac217840d7,"Mozilla/5.0 (Macintosh; Intel Mac OS X 10_15_7) AppleWebKit/537.36 (KHTML, like Gecko) Chrome/136.0.0.0 Safari/537.36",Macintosh,Chrome,136.0.0.0,OS X,10_15_7,https://5puzkbbxv1.cognition.run/?sona_id=58092,"en-US,en;q=0.9",btahx5h8tpogh25,20,"[""White""]",No,Female,N/A,No,359104,NA,2207,NA,"{""product_choice"":""A""}",choice,ct,binary,repulsion,2,televisions,null,null,null,null,null,null,2,30,40,null,100,90,null,Screen size,Average lifespan,NA,NA
NA,NA,NA,NA,NA,choice_trial_setup,html-keyboard-response,66,232586,0.0-4.0-0.31,293,1,2025-05-07T19:39:13Z,b60275e29fe2361ab97ac0ac217840d7,"Mozilla/5.0 (Macintosh; Intel Mac OS X 10_15_7) AppleWebKit/537.36 (KHTML, like Gecko) Chrome/136.0.0.0 Safari/537.36",Macintosh,Chrome,136.0.0.0,OS X,10_15_7,https://5puzkbbxv1.cognition.run/?sona_id=58092,"en-US,en;q=0.9",btahx5h8tpogh25,20,"[""White""]",No,Female,N/A,No,359104,NA,null,<p></p>,null,choice,ctd,trinary,attraction,2,televisions,null,null,null,null,null,null,2,NA,NA,NA,NA,NA,NA,NA,NA,NA,NA
NA,NA,NA,NA,NA,choice_trial,survey-html-form,67,235964,0.0-4.0-1.31,293,1,2025-05-07T19:39:13Z,b60275e29fe2361ab97ac0ac217840d7,"Mozilla/5.0 (Macintosh; Intel Mac OS X 10_15_7) AppleWebKit/537.36 (KHTML, like Gecko) Chrome/136.0.0.0 Safari/537.36",Macintosh,Chrome,136.0.0.0,OS X,10_15_7,https://5puzkbbxv1.cognition.run/?sona_id=58092,"en-US,en;q=0.9",btahx5h8tpogh25,20,"[""White""]",No,Female,N/A,No,359104,NA,3370,NA,"{""product_choice"":""A""}",choice,ctd,trinary,attraction,2,televisions,null,null,null,null,null,null,2,50,60,40,60,50,60,Screen size,Average lifespan,NA,NA
NA,NA,NA,NA,NA,choice_trial_setup,html-keyboard-response,68,236270,0.0-4.0-0.32,293,1,2025-05-07T19:39:13Z,b60275e29fe2361ab97ac0ac217840d7,"Mozilla/5.0 (Macintosh; Intel Mac OS X 10_15_7) AppleWebKit/537.36 (KHTML, like Gecko) Chrome/136.0.0.0 Safari/537.36",Macintosh,Chrome,136.0.0.0,OS X,10_15_7,https://5puzkbbxv1.cognition.run/?sona_id=58092,"en-US,en;q=0.9",btahx5h8tpogh25,20,"[""White""]",No,Female,N/A,No,359104,NA,null,<p></p>,null,choice,dct,trinary,repulsion_B,1,microwave ovens,null,null,null,null,null,null,2,NA,NA,NA,NA,NA,NA,NA,NA,NA,NA
NA,NA,NA,NA,NA,choice_trial,survey-html-form,69,239797,0.0-4.0-1.32,293,1,2025-05-07T19:39:13Z,b60275e29fe2361ab97ac0ac217840d7,"Mozilla/5.0 (Macintosh; Intel Mac OS X 10_15_7) AppleWebKit/537.36 (KHTML, like Gecko) Chrome/136.0.0.0 Safari/537.36",Macintosh,Chrome,136.0.0.0,OS X,10_15_7,https://5puzkbbxv1.cognition.run/?sona_id=58092,"en-US,en;q=0.9",btahx5h8tpogh25,20,"[""White""]",No,Female,N/A,No,359104,NA,3522,NA,"{""product_choice"":""C""}",choice,dct,trinary,repulsion_B,1,microwave ovens,null,null,null,null,null,null,2,90,100,80,40,30,40,Warranty,Cooking power,NA,NA
NA,NA,NA,NA,NA,choice_trial_setup,html-keyboard-response,70,240102,0.0-4.0-0.33,293,1,2025-05-07T19:39:13Z,b60275e29fe2361ab97ac0ac217840d7,"Mozilla/5.0 (Macintosh; Intel Mac OS X 10_15_7) AppleWebKit/537.36 (KHTML, like Gecko) Chrome/136.0.0.0 Safari/537.36",Macintosh,Chrome,136.0.0.0,OS X,10_15_7,https://5puzkbbxv1.cognition.run/?sona_id=58092,"en-US,en;q=0.9",btahx5h8tpogh25,20,"[""White""]",No,Female,N/A,No,359104,NA,null,<p></p>,null,choice,ct,binary,repulsion,2,microwave ovens,null,null,null,null,null,null,1,NA,NA,NA,NA,NA,NA,NA,NA,NA,NA
NA,NA,NA,NA,NA,choice_trial,survey-html-form,71,242097,0.0-4.0-1.33,293,1,2025-05-07T19:39:13Z,b60275e29fe2361ab97ac0ac217840d7,"Mozilla/5.0 (Macintosh; Intel Mac OS X 10_15_7) AppleWebKit/537.36 (KHTML, like Gecko) Chrome/136.0.0.0 Safari/537.36",Macintosh,Chrome,136.0.0.0,OS X,10_15_7,https://5puzkbbxv1.cognition.run/?sona_id=58092,"en-US,en;q=0.9",btahx5h8tpogh25,20,"[""White""]",No,Female,N/A,No,359104,NA,1990,NA,"{""product_choice"":""A""}",choice,ct,binary,repulsion,2,microwave ovens,null,null,null,null,null,null,1,30,40,null,100,90,null,Warranty,Cooking power,NA,NA
NA,NA,NA,NA,NA,choice_trial_setup,html-keyboard-response,72,242402,0.0-4.0-0.34,293,1,2025-05-07T19:39:13Z,b60275e29fe2361ab97ac0ac217840d7,"Mozilla/5.0 (Macintosh; Intel Mac OS X 10_15_7) AppleWebKit/537.36 (KHTML, like Gecko) Chrome/136.0.0.0 Safari/537.36",Macintosh,Chrome,136.0.0.0,OS X,10_15_7,https://5puzkbbxv1.cognition.run/?sona_id=58092,"en-US,en;q=0.9",btahx5h8tpogh25,20,"[""White""]",No,Female,N/A,No,359104,NA,null,<p></p>,null,choice,cdt,trinary,repulsion_A,2,microwave ovens,null,null,null,null,null,null,2,NA,NA,NA,NA,NA,NA,NA,NA,NA,NA
NA,NA,NA,NA,NA,choice_trial,survey-html-form,73,249530,0.0-4.0-1.34,293,1,2025-05-07T19:39:13Z,b60275e29fe2361ab97ac0ac217840d7,"Mozilla/5.0 (Macintosh; Intel Mac OS X 10_15_7) AppleWebKit/537.36 (KHTML, like Gecko) Chrome/136.0.0.0 Safari/537.36",Macintosh,Chrome,136.0.0.0,OS X,10_15_7,https://5puzkbbxv1.cognition.run/?sona_id=58092,"en-US,en;q=0.9",btahx5h8tpogh25,20,"[""White""]",No,Female,N/A,No,359104,NA,7120,NA,"{""product_choice"":""A""}",choice,cdt,trinary,repulsion_A,2,microwave ovens,null,null,null,null,null,null,2,30,40,20,100,90,100,Warranty,Cooking power,NA,NA
NA,NA,NA,NA,NA,choice_trial_setup,html-keyboard-response,74,249835,0.0-4.0-0.35,293,1,2025-05-07T19:39:13Z,b60275e29fe2361ab97ac0ac217840d7,"Mozilla/5.0 (Macintosh; Intel Mac OS X 10_15_7) AppleWebKit/537.36 (KHTML, like Gecko) Chrome/136.0.0.0 Safari/537.36",Macintosh,Chrome,136.0.0.0,OS X,10_15_7,https://5puzkbbxv1.cognition.run/?sona_id=58092,"en-US,en;q=0.9",btahx5h8tpogh25,20,"[""White""]",No,Female,N/A,No,359104,NA,null,<p></p>,null,choice,dtc,trinary,repulsion_B,1,washing machines,null,null,null,null,null,null,2,NA,NA,NA,NA,NA,NA,NA,NA,NA,NA
NA,NA,NA,NA,NA,choice_trial,survey-html-form,75,253631,0.0-4.0-1.35,293,1,2025-05-07T19:39:13Z,b60275e29fe2361ab97ac0ac217840d7,"Mozilla/5.0 (Macintosh; Intel Mac OS X 10_15_7) AppleWebKit/537.36 (KHTML, like Gecko) Chrome/136.0.0.0 Safari/537.36",Macintosh,Chrome,136.0.0.0,OS X,10_15_7,https://5puzkbbxv1.cognition.run/?sona_id=58092,"en-US,en;q=0.9",btahx5h8tpogh25,20,"[""White""]",No,Female,N/A,No,359104,NA,3789,NA,"{""product_choice"":""B""}",choice,dtc,trinary,repulsion_B,1,washing machines,null,null,null,null,null,null,2,90,100,80,40,30,40,Average lifespan,Energy savings,NA,NA
NA,NA,NA,NA,NA,choice_trial_setup,html-keyboard-response,76,253936,0.0-4.0-0.36,293,1,2025-05-07T19:39:13Z,b60275e29fe2361ab97ac0ac217840d7,"Mozilla/5.0 (Macintosh; Intel Mac OS X 10_15_7) AppleWebKit/537.36 (KHTML, like Gecko) Chrome/136.0.0.0 Safari/537.36",Macintosh,Chrome,136.0.0.0,OS X,10_15_7,https://5puzkbbxv1.cognition.run/?sona_id=58092,"en-US,en;q=0.9",btahx5h8tpogh25,20,"[""White""]",No,Female,N/A,No,359104,NA,null,<p></p>,null,choice,tc,binary,attraction,NA,laptops,null,null,null,null,null,null,1,NA,NA,NA,NA,NA,NA,NA,NA,NA,NA
NA,NA,NA,NA,NA,choice_trial,survey-html-form,77,255714,0.0-4.0-1.36,293,1,2025-05-07T19:39:13Z,b60275e29fe2361ab97ac0ac217840d7,"Mozilla/5.0 (Macintosh; Intel Mac OS X 10_15_7) AppleWebKit/537.36 (KHTML, like Gecko) Chrome/136.0.0.0 Safari/537.36",Macintosh,Chrome,136.0.0.0,OS X,10_15_7,https://5puzkbbxv1.cognition.run/?sona_id=58092,"en-US,en;q=0.9",btahx5h8tpogh25,20,"[""White""]",No,Female,N/A,No,359104,NA,1772,NA,"{""product_choice"":""B""}",choice,tc,binary,attraction,NA,laptops,null,null,null,null,null,null,1,60,50,null,50,60,null,Processing speed,Memory (RAM),NA,NA
NA,NA,NA,NA,NA,choice_trial_setup,html-keyboard-response,78,256019,0.0-4.0-0.37,293,1,2025-05-07T19:39:13Z,b60275e29fe2361ab97ac0ac217840d7,"Mozilla/5.0 (Macintosh; Intel Mac OS X 10_15_7) AppleWebKit/537.36 (KHTML, like Gecko) Chrome/136.0.0.0 Safari/537.36",Macintosh,Chrome,136.0.0.0,OS X,10_15_7,https://5puzkbbxv1.cognition.run/?sona_id=58092,"en-US,en;q=0.9",btahx5h8tpogh25,20,"[""White""]",No,Female,N/A,No,359104,NA,null,<p></p>,null,choice,tdc,trinary,repulsion_A,2,washing machines,null,null,null,null,null,null,2,NA,NA,NA,NA,NA,NA,NA,NA,NA,NA
NA,NA,NA,NA,NA,choice_trial,survey-html-form,79,258714,0.0-4.0-1.37,293,1,2025-05-07T19:39:13Z,b60275e29fe2361ab97ac0ac217840d7,"Mozilla/5.0 (Macintosh; Intel Mac OS X 10_15_7) AppleWebKit/537.36 (KHTML, like Gecko) Chrome/136.0.0.0 Safari/537.36",Macintosh,Chrome,136.0.0.0,OS X,10_15_7,https://5puzkbbxv1.cognition.run/?sona_id=58092,"en-US,en;q=0.9",btahx5h8tpogh25,20,"[""White""]",No,Female,N/A,No,359104,NA,2692,NA,"{""product_choice"":""A""}",choice,tdc,trinary,repulsion_A,2,washing machines,null,null,null,null,null,null,2,30,40,20,100,90,100,Average lifespan,Energy savings,NA,NA
NA,NA,NA,NA,NA,choice_trial_setup,html-keyboard-response,80,259020,0.0-4.0-0.38,293,1,2025-05-07T19:39:13Z,b60275e29fe2361ab97ac0ac217840d7,"Mozilla/5.0 (Macintosh; Intel Mac OS X 10_15_7) AppleWebKit/537.36 (KHTML, like Gecko) Chrome/136.0.0.0 Safari/537.36",Macintosh,Chrome,136.0.0.0,OS X,10_15_7,https://5puzkbbxv1.cognition.run/?sona_id=58092,"en-US,en;q=0.9",btahx5h8tpogh25,20,"[""White""]",No,Female,N/A,No,359104,NA,null,<p></p>,null,choice,dct,trinary,repulsion_A,1,microwave ovens,null,null,null,null,null,null,2,NA,NA,NA,NA,NA,NA,NA,NA,NA,NA
NA,NA,NA,NA,NA,choice_trial,survey-html-form,81,261297,0.0-4.0-1.38,293,1,2025-05-07T19:39:13Z,b60275e29fe2361ab97ac0ac217840d7,"Mozilla/5.0 (Macintosh; Intel Mac OS X 10_15_7) AppleWebKit/537.36 (KHTML, like Gecko) Chrome/136.0.0.0 Safari/537.36",Macintosh,Chrome,136.0.0.0,OS X,10_15_7,https://5puzkbbxv1.cognition.run/?sona_id=58092,"en-US,en;q=0.9",btahx5h8tpogh25,20,"[""White""]",No,Female,N/A,No,359104,NA,2273,NA,"{""product_choice"":""B""}",choice,dct,trinary,repulsion_A,1,microwave ovens,null,null,null,null,null,null,2,100,90,100,30,40,20,Warranty,Cooking power,NA,NA
NA,NA,NA,NA,NA,choice_trial_setup,html-keyboard-response,82,261601,0.0-4.0-0.39,293,1,2025-05-07T19:39:13Z,b60275e29fe2361ab97ac0ac217840d7,"Mozilla/5.0 (Macintosh; Intel Mac OS X 10_15_7) AppleWebKit/537.36 (KHTML, like Gecko) Chrome/136.0.0.0 Safari/537.36",Macintosh,Chrome,136.0.0.0,OS X,10_15_7,https://5puzkbbxv1.cognition.run/?sona_id=58092,"en-US,en;q=0.9",btahx5h8tpogh25,20,"[""White""]",No,Female,N/A,No,359104,NA,null,<p></p>,null,choice,tcd,trinary,attraction,1,laptops,null,null,null,null,null,null,2,NA,NA,NA,NA,NA,NA,NA,NA,NA,NA
NA,NA,NA,NA,NA,choice_trial,survey-html-form,83,265031,0.0-4.0-1.39,293,1,2025-05-07T19:39:13Z,b60275e29fe2361ab97ac0ac217840d7,"Mozilla/5.0 (Macintosh; Intel Mac OS X 10_15_7) AppleWebKit/537.36 (KHTML, like Gecko) Chrome/136.0.0.0 Safari/537.36",Macintosh,Chrome,136.0.0.0,OS X,10_15_7,https://5puzkbbxv1.cognition.run/?sona_id=58092,"en-US,en;q=0.9",btahx5h8tpogh25,20,"[""White""]",No,Female,N/A,No,359104,NA,3424,NA,"{""product_choice"":""A""}",choice,tcd,trinary,attraction,1,laptops,null,null,null,null,null,null,2,60,50,60,50,60,40,Processing speed,Memory (RAM),NA,NA
NA,NA,NA,NA,NA,choice_trial_setup,html-keyboard-response,84,265337,0.0-4.0-0.40,293,1,2025-05-07T19:39:13Z,b60275e29fe2361ab97ac0ac217840d7,"Mozilla/5.0 (Macintosh; Intel Mac OS X 10_15_7) AppleWebKit/537.36 (KHTML, like Gecko) Chrome/136.0.0.0 Safari/537.36",Macintosh,Chrome,136.0.0.0,OS X,10_15_7,https://5puzkbbxv1.cognition.run/?sona_id=58092,"en-US,en;q=0.9",btahx5h8tpogh25,20,"[""White""]",No,Female,N/A,No,359104,NA,null,<p></p>,null,choice,ctd,trinary,attraction,2,laptops,null,null,null,null,null,null,2,NA,NA,NA,NA,NA,NA,NA,NA,NA,NA
NA,NA,NA,NA,NA,choice_trial,survey-html-form,85,269314,0.0-4.0-1.40,293,1,2025-05-07T19:39:13Z,b60275e29fe2361ab97ac0ac217840d7,"Mozilla/5.0 (Macintosh; Intel Mac OS X 10_15_7) AppleWebKit/537.36 (KHTML, like Gecko) Chrome/136.0.0.0 Safari/537.36",Macintosh,Chrome,136.0.0.0,OS X,10_15_7,https://5puzkbbxv1.cognition.run/?sona_id=58092,"en-US,en;q=0.9",btahx5h8tpogh25,20,"[""White""]",No,Female,N/A,No,359104,NA,3970,NA,"{""product_choice"":""C""}",choice,ctd,trinary,attraction,2,laptops,null,null,null,null,null,null,2,50,60,40,60,50,60,Processing speed,Memory (RAM),NA,NA
NA,NA,NA,NA,NA,choice_trial_setup,html-keyboard-response,86,269620,0.0-4.0-0.41,293,1,2025-05-07T19:39:13Z,b60275e29fe2361ab97ac0ac217840d7,"Mozilla/5.0 (Macintosh; Intel Mac OS X 10_15_7) AppleWebKit/537.36 (KHTML, like Gecko) Chrome/136.0.0.0 Safari/537.36",Macintosh,Chrome,136.0.0.0,OS X,10_15_7,https://5puzkbbxv1.cognition.run/?sona_id=58092,"en-US,en;q=0.9",btahx5h8tpogh25,20,"[""White""]",No,Female,N/A,No,359104,NA,null,<p></p>,null,choice,bww,trinary,catch,null,televisions,55,80,25,35,30,35,1,NA,NA,NA,NA,NA,NA,NA,NA,NA,NA
NA,NA,NA,NA,NA,choice_trial,survey-html-form,87,271264,0.0-4.0-1.41,293,1,2025-05-07T19:39:13Z,b60275e29fe2361ab97ac0ac217840d7,"Mozilla/5.0 (Macintosh; Intel Mac OS X 10_15_7) AppleWebKit/537.36 (KHTML, like Gecko) Chrome/136.0.0.0 Safari/537.36",Macintosh,Chrome,136.0.0.0,OS X,10_15_7,https://5puzkbbxv1.cognition.run/?sona_id=58092,"en-US,en;q=0.9",btahx5h8tpogh25,20,"[""White""]",No,Female,N/A,No,359104,NA,1637,NA,"{""product_choice"":""A""}",choice,bww,trinary,catch,null,televisions,55,80,25,35,30,35,1,null,null,null,null,null,null,Screen size,Average lifespan,NA,NA
NA,NA,NA,NA,NA,choice_trial_setup,html-keyboard-response,88,271570,0.0-4.0-0.42,293,1,2025-05-07T19:39:13Z,b60275e29fe2361ab97ac0ac217840d7,"Mozilla/5.0 (Macintosh; Intel Mac OS X 10_15_7) AppleWebKit/537.36 (KHTML, like Gecko) Chrome/136.0.0.0 Safari/537.36",Macintosh,Chrome,136.0.0.0,OS X,10_15_7,https://5puzkbbxv1.cognition.run/?sona_id=58092,"en-US,en;q=0.9",btahx5h8tpogh25,20,"[""White""]",No,Female,N/A,No,359104,NA,null,<p></p>,null,choice,tdc,trinary,repulsion_A,1,washing machines,null,null,null,null,null,null,2,NA,NA,NA,NA,NA,NA,NA,NA,NA,NA
NA,NA,NA,NA,NA,choice_trial,survey-html-form,89,274013,0.0-4.0-1.42,293,1,2025-05-07T19:39:13Z,b60275e29fe2361ab97ac0ac217840d7,"Mozilla/5.0 (Macintosh; Intel Mac OS X 10_15_7) AppleWebKit/537.36 (KHTML, like Gecko) Chrome/136.0.0.0 Safari/537.36",Macintosh,Chrome,136.0.0.0,OS X,10_15_7,https://5puzkbbxv1.cognition.run/?sona_id=58092,"en-US,en;q=0.9",btahx5h8tpogh25,20,"[""White""]",No,Female,N/A,No,359104,NA,2437,NA,"{""product_choice"":""A""}",choice,tdc,trinary,repulsion_A,1,washing machines,null,null,null,null,null,null,2,100,90,100,30,40,20,Average lifespan,Energy savings,NA,NA
NA,NA,NA,NA,NA,choice_trial_setup,html-keyboard-response,90,274319,0.0-4.0-0.43,293,1,2025-05-07T19:39:13Z,b60275e29fe2361ab97ac0ac217840d7,"Mozilla/5.0 (Macintosh; Intel Mac OS X 10_15_7) AppleWebKit/537.36 (KHTML, like Gecko) Chrome/136.0.0.0 Safari/537.36",Macintosh,Chrome,136.0.0.0,OS X,10_15_7,https://5puzkbbxv1.cognition.run/?sona_id=58092,"en-US,en;q=0.9",btahx5h8tpogh25,20,"[""White""]",No,Female,N/A,No,359104,NA,null,<p></p>,null,choice,ctd,trinary,repulsion_B,1,televisions,null,null,null,null,null,null,1,NA,NA,NA,NA,NA,NA,NA,NA,NA,NA
NA,NA,NA,NA,NA,choice_trial,survey-html-form,91,279663,0.0-4.0-1.43,293,1,2025-05-07T19:39:13Z,b60275e29fe2361ab97ac0ac217840d7,"Mozilla/5.0 (Macintosh; Intel Mac OS X 10_15_7) AppleWebKit/537.36 (KHTML, like Gecko) Chrome/136.0.0.0 Safari/537.36",Macintosh,Chrome,136.0.0.0,OS X,10_15_7,https://5puzkbbxv1.cognition.run/?sona_id=58092,"en-US,en;q=0.9",btahx5h8tpogh25,20,"[""White""]",No,Female,N/A,No,359104,NA,5337,NA,"{""product_choice"":""C""}",choice,ctd,trinary,repulsion_B,1,televisions,null,null,null,null,null,null,1,90,100,80,40,30,40,Screen size,Average lifespan,NA,NA
NA,NA,NA,NA,NA,post_trials_message,html-button-response,92,281532,0.0-5.0,293,1,2025-05-07T19:39:13Z,b60275e29fe2361ab97ac0ac217840d7,"Mozilla/5.0 (Macintosh; Intel Mac OS X 10_15_7) AppleWebKit/537.36 (KHTML, like Gecko) Chrome/136.0.0.0 Safari/537.36",Macintosh,Chrome,136.0.0.0,OS X,10_15_7,https://5puzkbbxv1.cognition.run/?sona_id=58092,"en-US,en;q=0.9",btahx5h8tpogh25,20,"[""White""]",No,Female,N/A,No,359104,NA,1862,<p> <b>Thank you for your patience!</b></p><p>  The study will be done after completing a brief form. </p>,0,NA,NA,NA,NA,NA,NA,NA,NA,NA,NA,NA,NA,NA,NA,NA,NA,NA,NA,NA,NA,NA,NA,NA
NA,NA,NA,NA,NA,survey_message,survey-text,93,325531,0.0-6.0,293,1,2025-05-07T19:39:13Z,b60275e29fe2361ab97ac0ac217840d7,"Mozilla/5.0 (Macintosh; Intel Mac OS X 10_15_7) AppleWebKit/537.36 (KHTML, like Gecko) Chrome/136.0.0.0 Safari/537.36",Macintosh,Chrome,136.0.0.0,OS X,10_15_7,https://5puzkbbxv1.cognition.run/?sona_id=58092,"en-US,en;q=0.9",btahx5h8tpogh25,20,"[""White""]",No,Female,N/A,No,359104,NA,43991,NA,"{""Q0"":""If I saw an option that said 100, but the other collumn seemed to be weak, I would move on to an option that seemed more efficiant. ""}",NA,NA,NA,NA,NA,NA,NA,NA,NA,NA,NA,NA,NA,NA,NA,NA,NA,NA,NA,NA,NA,"If I saw an option that said 100, but the other collumn seemed to be weak, I would move on to an option that seemed more efficiant.",NA
NA,NA,NA,NA,NA,demo_age,survey-text,94,328232,0.0-7.0,293,1,2025-05-07T19:39:13Z,b60275e29fe2361ab97ac0ac217840d7,"Mozilla/5.0 (Macintosh; Intel Mac OS X 10_15_7) AppleWebKit/537.36 (KHTML, like Gecko) Chrome/136.0.0.0 Safari/537.36",Macintosh,Chrome,136.0.0.0,OS X,10_15_7,https://5puzkbbxv1.cognition.run/?sona_id=58092,"en-US,en;q=0.9",btahx5h8tpogh25,20,"[""White""]",No,Female,N/A,No,359104,NA,2694,NA,"{""Q0"":""20""}",NA,NA,NA,NA,NA,NA,NA,NA,NA,NA,NA,NA,NA,NA,NA,NA,NA,NA,NA,NA,NA,NA,NA
NA,NA,NA,NA,NA,demo_race,survey-multi-select,95,329948,0.0-8.0,293,1,2025-05-07T19:39:13Z,b60275e29fe2361ab97ac0ac217840d7,"Mozilla/5.0 (Macintosh; Intel Mac OS X 10_15_7) AppleWebKit/537.36 (KHTML, like Gecko) Chrome/136.0.0.0 Safari/537.36",Macintosh,Chrome,136.0.0.0,OS X,10_15_7,https://5puzkbbxv1.cognition.run/?sona_id=58092,"en-US,en;q=0.9",btahx5h8tpogh25,20,"[""White""]",No,Female,N/A,No,359104,NA,1708,NA,"{""Q0"":[""White""]}",NA,NA,NA,NA,NA,NA,NA,NA,NA,NA,NA,NA,NA,NA,NA,NA,NA,NA,NA,NA,NA,NA,[0]
NA,NA,NA,NA,NA,demo_ethnicity_gender,survey-multi-choice,96,333231,0.0-9.0,293,1,2025-05-07T19:39:13Z,b60275e29fe2361ab97ac0ac217840d7,"Mozilla/5.0 (Macintosh; Intel Mac OS X 10_15_7) AppleWebKit/537.36 (KHTML, like Gecko) Chrome/136.0.0.0 Safari/537.36",Macintosh,Chrome,136.0.0.0,OS X,10_15_7,https://5puzkbbxv1.cognition.run/?sona_id=58092,"en-US,en;q=0.9",btahx5h8tpogh25,20,"[""White""]",No,Female,N/A,No,359104,NA,3275,NA,"{""Q0"":""No"",""Q1"":""Female""}",NA,NA,NA,NA,NA,NA,NA,NA,NA,NA,NA,NA,NA,NA,NA,NA,NA,NA,NA,NA,NA,NA,"[0,1]"
NA,NA,NA,NA,NA,demo_countries,survey-text,97,342365,0.0-10.0,293,1,2025-05-07T19:39:13Z,b60275e29fe2361ab97ac0ac217840d7,"Mozilla/5.0 (Macintosh; Intel Mac OS X 10_15_7) AppleWebKit/537.36 (KHTML, like Gecko) Chrome/136.0.0.0 Safari/537.36",Macintosh,Chrome,136.0.0.0,OS X,10_15_7,https://5puzkbbxv1.cognition.run/?sona_id=58092,"en-US,en;q=0.9",btahx5h8tpogh25,20,"[""White""]",No,Female,N/A,No,359104,NA,9121,NA,"{""Q0"":""N/A""}",NA,NA,NA,NA,NA,NA,NA,NA,NA,NA,NA,NA,NA,NA,NA,NA,NA,NA,NA,NA,NA,NA,NA
NA,NA,NA,NA,NA,demo_prev_study,survey-multi-choice,98,346864,0.0-11.0,293,1,2025-05-07T19:39:13Z,b60275e29fe2361ab97ac0ac217840d7,"Mozilla/5.0 (Macintosh; Intel Mac OS X 10_15_7) AppleWebKit/537.36 (KHTML, like Gecko) Chrome/136.0.0.0 Safari/537.36",Macintosh,Chrome,136.0.0.0,OS X,10_15_7,https://5puzkbbxv1.cognition.run/?sona_id=58092,"en-US,en;q=0.9",btahx5h8tpogh25,20,"[""White""]",No,Female,N/A,No,359104,NA,4493,NA,"{""Q0"":""No""}",NA,NA,NA,NA,NA,NA,NA,NA,NA,NA,NA,NA,NA,NA,NA,NA,NA,NA,NA,NA,NA,NA,[0]
NA,NA,NA,NA,NA,post_survey_message,html-keyboard-response,99,351614,0.0-12.0,293,1,2025-05-07T19:39:13Z,b60275e29fe2361ab97ac0ac217840d7,"Mozilla/5.0 (Macintosh; Intel Mac OS X 10_15_7) AppleWebKit/537.36 (KHTML, like Gecko) Chrome/136.0.0.0 Safari/537.36",Macintosh,Chrome,136.0.0.0,OS X,10_15_7,https://5puzkbbxv1.cognition.run/?sona_id=58092,"en-US,en;q=0.9",btahx5h8tpogh25,20,"[""White""]",No,Female,N/A,No,359104,NA,4743,NA,j,NA,NA,NA,NA,NA,NA,NA,NA,NA,NA,NA,NA,NA,NA,NA,NA,NA,NA,NA,NA,NA,NA,NA
NA,NA,NA,NA,NA,debrief,image-keyboard-response,100,359104,0.0-13.0,293,1,2025-05-07T19:39:13Z,b60275e29fe2361ab97ac0ac217840d7,"Mozilla/5.0 (Macintosh; Intel Mac OS X 10_15_7) AppleWebKit/537.36 (KHTML, like Gecko) Chrome/136.0.0.0 Safari/537.36",Macintosh,Chrome,136.0.0.0,OS X,10_15_7,https://5puzkbbxv1.cognition.run/?sona_id=58092,"en-US,en;q=0.9",btahx5h8tpogh25,20,"[""White""]",No,Female,N/A,No,359104,NA,7483,Judg_choice_debrief.png,p,NA,NA,NA,NA,NA,NA,NA,NA,NA,NA,NA,NA,NA,NA,NA,NA,NA,NA,NA,NA,NA,NA,NA
