success,timeout,failed_images,failed_audio,failed_video,screen_id,trial_type,trial_index,time_elapsed,internal_node_id,run_id,condition,recorded_at,source_code_version,user_agent,device,browser,browser_version,platform,platform_version,referer,accept_language,ppt_id,age,race,ethnicity,gender,other_countries,prev_study,exp_duration,view_history,rt,stimulus,response,phase,order,set,effect,t_high,category,d1_best,d2_best,d1_worst1,d2_worst1,d1_worst2,d2_worst2,first_dim,d1_t,d1_c,d1_d,d2_t,d2_c,d2_d,d1_name,d2_name,strategy_response,question_order
TRUE,FALSE,[],[],[],img preload,preload,0,1905,0.0-0.0,295,1,2025-05-07T19:54:35Z,b60275e29fe2361ab97ac0ac217840d7,"Mozilla/5.0 (Macintosh; Intel Mac OS X 10_15_7) AppleWebKit/605.1.15 (KHTML, like Gecko) Version/17.6 Safari/605.1.15",Macintosh,Safari,17.6,OS X,10_15_7,https://5puzkbbxv1.cognition.run/?sona_id=57560,"en-US,en;q=0.9",0wb80q0yfdru3au,21,"[""White""]",No,Female,NA,Yes,1230948,NA,NA,NA,NA,NA,NA,NA,NA,NA,NA,NA,NA,NA,NA,NA,NA,NA,NA,NA,NA,NA,NA,NA,NA,NA,NA,NA
NA,NA,NA,NA,NA,computer_message,instructions,1,5635,0.0-1.0,295,1,2025-05-07T19:54:35Z,b60275e29fe2361ab97ac0ac217840d7,"Mozilla/5.0 (Macintosh; Intel Mac OS X 10_15_7) AppleWebKit/605.1.15 (KHTML, like Gecko) Version/17.6 Safari/605.1.15",Macintosh,Safari,17.6,OS X,10_15_7,https://5puzkbbxv1.cognition.run/?sona_id=57560,"en-US,en;q=0.9",0wb80q0yfdru3au,21,"[""White""]",No,Female,NA,Yes,1230948,"[{""page_index"":0,""viewing_time"":3727}]",3727,NA,NA,NA,NA,NA,NA,NA,NA,NA,NA,NA,NA,NA,NA,NA,NA,NA,NA,NA,NA,NA,NA,NA,NA,NA
TRUE,NA,NA,NA,NA,NA,fullscreen,2,10067,0.0-2.0,295,1,2025-05-07T19:54:35Z,b60275e29fe2361ab97ac0ac217840d7,"Mozilla/5.0 (Macintosh; Intel Mac OS X 10_15_7) AppleWebKit/605.1.15 (KHTML, like Gecko) Version/17.6 Safari/605.1.15",Macintosh,Safari,17.6,OS X,10_15_7,https://5puzkbbxv1.cognition.run/?sona_id=57560,"en-US,en;q=0.9",0wb80q0yfdru3au,21,"[""White""]",No,Female,NA,Yes,1230948,NA,3427,NA,NA,NA,NA,NA,NA,NA,NA,NA,NA,NA,NA,NA,NA,NA,NA,NA,NA,NA,NA,NA,NA,NA,NA,NA
NA,NA,NA,NA,NA,choice_instructions,instructions,3,132881,0.0-3.0,295,1,2025-05-07T19:54:35Z,b60275e29fe2361ab97ac0ac217840d7,"Mozilla/5.0 (Macintosh; Intel Mac OS X 10_15_7) AppleWebKit/605.1.15 (KHTML, like Gecko) Version/17.6 Safari/605.1.15",Macintosh,Safari,17.6,OS X,10_15_7,https://5puzkbbxv1.cognition.run/?sona_id=57560,"en-US,en;q=0.9",0wb80q0yfdru3au,21,"[""White""]",No,Female,NA,Yes,1230948,"[{""page_index"":0,""viewing_time"":14950},{""page_index"":1,""viewing_time"":5731},{""page_index"":2,""viewing_time"":11266},{""page_index"":3,""viewing_time"":9417},{""page_index"":4,""viewing_time"":4718},{""page_index"":5,""viewing_time"":25235},{""page_index"":6,""viewing_time"":51489}]",122807,NA,NA,NA,NA,NA,NA,NA,NA,NA,NA,NA,NA,NA,NA,NA,NA,NA,NA,NA,NA,NA,NA,NA,NA,NA
NA,NA,NA,NA,NA,choice_trial_setup,html-keyboard-response,4,133198,0.0-4.0-0.0,295,1,2025-05-07T19:54:35Z,b60275e29fe2361ab97ac0ac217840d7,"Mozilla/5.0 (Macintosh; Intel Mac OS X 10_15_7) AppleWebKit/605.1.15 (KHTML, like Gecko) Version/17.6 Safari/605.1.15",Macintosh,Safari,17.6,OS X,10_15_7,https://5puzkbbxv1.cognition.run/?sona_id=57560,"en-US,en;q=0.9",0wb80q0yfdru3au,21,"[""White""]",No,Female,NA,Yes,1230948,NA,null,<p></p>,null,choice,ctd,trinary,repulsion_A,1,televisions,null,null,null,null,null,null,1,NA,NA,NA,NA,NA,NA,NA,NA,NA,NA
NA,NA,NA,NA,NA,choice_trial,survey-html-form,5,162034,0.0-4.0-1.0,295,1,2025-05-07T19:54:35Z,b60275e29fe2361ab97ac0ac217840d7,"Mozilla/5.0 (Macintosh; Intel Mac OS X 10_15_7) AppleWebKit/605.1.15 (KHTML, like Gecko) Version/17.6 Safari/605.1.15",Macintosh,Safari,17.6,OS X,10_15_7,https://5puzkbbxv1.cognition.run/?sona_id=57560,"en-US,en;q=0.9",0wb80q0yfdru3au,21,"[""White""]",No,Female,NA,Yes,1230948,NA,28825,NA,"{""product_choice"":""A""}",choice,ctd,trinary,repulsion_A,1,televisions,null,null,null,null,null,null,1,100,90,100,30,40,20,Screen size,Average lifespan,NA,NA
NA,NA,NA,NA,NA,choice_trial_setup,html-keyboard-response,6,162338,0.0-4.0-0.1,295,1,2025-05-07T19:54:35Z,b60275e29fe2361ab97ac0ac217840d7,"Mozilla/5.0 (Macintosh; Intel Mac OS X 10_15_7) AppleWebKit/605.1.15 (KHTML, like Gecko) Version/17.6 Safari/605.1.15",Macintosh,Safari,17.6,OS X,10_15_7,https://5puzkbbxv1.cognition.run/?sona_id=57560,"en-US,en;q=0.9",0wb80q0yfdru3au,21,"[""White""]",No,Female,NA,Yes,1230948,NA,null,<p></p>,null,choice,ct,binary,repulsion,1,microwave ovens,null,null,null,null,null,null,2,NA,NA,NA,NA,NA,NA,NA,NA,NA,NA
NA,NA,NA,NA,NA,choice_trial,survey-html-form,7,179968,0.0-4.0-1.1,295,1,2025-05-07T19:54:35Z,b60275e29fe2361ab97ac0ac217840d7,"Mozilla/5.0 (Macintosh; Intel Mac OS X 10_15_7) AppleWebKit/605.1.15 (KHTML, like Gecko) Version/17.6 Safari/605.1.15",Macintosh,Safari,17.6,OS X,10_15_7,https://5puzkbbxv1.cognition.run/?sona_id=57560,"en-US,en;q=0.9",0wb80q0yfdru3au,21,"[""White""]",No,Female,NA,Yes,1230948,NA,17626,NA,"{""product_choice"":""A""}",choice,ct,binary,repulsion,1,microwave ovens,null,null,null,null,null,null,2,100,90,null,30,40,null,Warranty,Cooking power,NA,NA
NA,NA,NA,NA,NA,choice_trial_setup,html-keyboard-response,8,180271,0.0-4.0-0.2,295,1,2025-05-07T19:54:35Z,b60275e29fe2361ab97ac0ac217840d7,"Mozilla/5.0 (Macintosh; Intel Mac OS X 10_15_7) AppleWebKit/605.1.15 (KHTML, like Gecko) Version/17.6 Safari/605.1.15",Macintosh,Safari,17.6,OS X,10_15_7,https://5puzkbbxv1.cognition.run/?sona_id=57560,"en-US,en;q=0.9",0wb80q0yfdru3au,21,"[""White""]",No,Female,NA,Yes,1230948,NA,null,<p></p>,null,choice,tcd,trinary,repulsion_B,1,laptops,null,null,null,null,null,null,1,NA,NA,NA,NA,NA,NA,NA,NA,NA,NA
NA,NA,NA,NA,NA,choice_trial,survey-html-form,9,189803,0.0-4.0-1.2,295,1,2025-05-07T19:54:35Z,b60275e29fe2361ab97ac0ac217840d7,"Mozilla/5.0 (Macintosh; Intel Mac OS X 10_15_7) AppleWebKit/605.1.15 (KHTML, like Gecko) Version/17.6 Safari/605.1.15",Macintosh,Safari,17.6,OS X,10_15_7,https://5puzkbbxv1.cognition.run/?sona_id=57560,"en-US,en;q=0.9",0wb80q0yfdru3au,21,"[""White""]",No,Female,NA,Yes,1230948,NA,9528,NA,"{""product_choice"":""A""}",choice,tcd,trinary,repulsion_B,1,laptops,null,null,null,null,null,null,1,90,100,80,40,30,40,Processing speed,Memory (RAM),NA,NA
NA,NA,NA,NA,NA,choice_trial_setup,html-keyboard-response,10,190106,0.0-4.0-0.3,295,1,2025-05-07T19:54:35Z,b60275e29fe2361ab97ac0ac217840d7,"Mozilla/5.0 (Macintosh; Intel Mac OS X 10_15_7) AppleWebKit/605.1.15 (KHTML, like Gecko) Version/17.6 Safari/605.1.15",Macintosh,Safari,17.6,OS X,10_15_7,https://5puzkbbxv1.cognition.run/?sona_id=57560,"en-US,en;q=0.9",0wb80q0yfdru3au,21,"[""White""]",No,Female,NA,Yes,1230948,NA,null,<p></p>,null,choice,tc,binary,repulsion,1,washing machines,null,null,null,null,null,null,2,NA,NA,NA,NA,NA,NA,NA,NA,NA,NA
NA,NA,NA,NA,NA,choice_trial,survey-html-form,11,195253,0.0-4.0-1.3,295,1,2025-05-07T19:54:35Z,b60275e29fe2361ab97ac0ac217840d7,"Mozilla/5.0 (Macintosh; Intel Mac OS X 10_15_7) AppleWebKit/605.1.15 (KHTML, like Gecko) Version/17.6 Safari/605.1.15",Macintosh,Safari,17.6,OS X,10_15_7,https://5puzkbbxv1.cognition.run/?sona_id=57560,"en-US,en;q=0.9",0wb80q0yfdru3au,21,"[""White""]",No,Female,NA,Yes,1230948,NA,5143,NA,"{""product_choice"":""B""}",choice,tc,binary,repulsion,1,washing machines,null,null,null,null,null,null,2,100,90,null,30,40,null,Average lifespan,Energy savings,NA,NA
NA,NA,NA,NA,NA,choice_trial_setup,html-keyboard-response,12,195556,0.0-4.0-0.4,295,1,2025-05-07T19:54:35Z,b60275e29fe2361ab97ac0ac217840d7,"Mozilla/5.0 (Macintosh; Intel Mac OS X 10_15_7) AppleWebKit/605.1.15 (KHTML, like Gecko) Version/17.6 Safari/605.1.15",Macintosh,Safari,17.6,OS X,10_15_7,https://5puzkbbxv1.cognition.run/?sona_id=57560,"en-US,en;q=0.9",0wb80q0yfdru3au,21,"[""White""]",No,Female,NA,Yes,1230948,NA,null,<p></p>,null,choice,dtc,trinary,repulsion_A,2,washing machines,null,null,null,null,null,null,2,NA,NA,NA,NA,NA,NA,NA,NA,NA,NA
NA,NA,NA,NA,NA,choice_trial,survey-html-form,13,200721,0.0-4.0-1.4,295,1,2025-05-07T19:54:35Z,b60275e29fe2361ab97ac0ac217840d7,"Mozilla/5.0 (Macintosh; Intel Mac OS X 10_15_7) AppleWebKit/605.1.15 (KHTML, like Gecko) Version/17.6 Safari/605.1.15",Macintosh,Safari,17.6,OS X,10_15_7,https://5puzkbbxv1.cognition.run/?sona_id=57560,"en-US,en;q=0.9",0wb80q0yfdru3au,21,"[""White""]",No,Female,NA,Yes,1230948,NA,5160,NA,"{""product_choice"":""B""}",choice,dtc,trinary,repulsion_A,2,washing machines,null,null,null,null,null,null,2,30,40,20,100,90,100,Average lifespan,Energy savings,NA,NA
NA,NA,NA,NA,NA,choice_trial_setup,html-keyboard-response,14,201024,0.0-4.0-0.5,295,1,2025-05-07T19:54:35Z,b60275e29fe2361ab97ac0ac217840d7,"Mozilla/5.0 (Macintosh; Intel Mac OS X 10_15_7) AppleWebKit/605.1.15 (KHTML, like Gecko) Version/17.6 Safari/605.1.15",Macintosh,Safari,17.6,OS X,10_15_7,https://5puzkbbxv1.cognition.run/?sona_id=57560,"en-US,en;q=0.9",0wb80q0yfdru3au,21,"[""White""]",No,Female,NA,Yes,1230948,NA,null,<p></p>,null,choice,tdc,trinary,attraction,2,televisions,null,null,null,null,null,null,2,NA,NA,NA,NA,NA,NA,NA,NA,NA,NA
NA,NA,NA,NA,NA,choice_trial,survey-html-form,15,206337,0.0-4.0-1.5,295,1,2025-05-07T19:54:35Z,b60275e29fe2361ab97ac0ac217840d7,"Mozilla/5.0 (Macintosh; Intel Mac OS X 10_15_7) AppleWebKit/605.1.15 (KHTML, like Gecko) Version/17.6 Safari/605.1.15",Macintosh,Safari,17.6,OS X,10_15_7,https://5puzkbbxv1.cognition.run/?sona_id=57560,"en-US,en;q=0.9",0wb80q0yfdru3au,21,"[""White""]",No,Female,NA,Yes,1230948,NA,5309,NA,"{""product_choice"":""A""}",choice,tdc,trinary,attraction,2,televisions,null,null,null,null,null,null,2,50,60,40,60,50,60,Screen size,Average lifespan,NA,NA
NA,NA,NA,NA,NA,choice_trial_setup,html-keyboard-response,16,206640,0.0-4.0-0.6,295,1,2025-05-07T19:54:35Z,b60275e29fe2361ab97ac0ac217840d7,"Mozilla/5.0 (Macintosh; Intel Mac OS X 10_15_7) AppleWebKit/605.1.15 (KHTML, like Gecko) Version/17.6 Safari/605.1.15",Macintosh,Safari,17.6,OS X,10_15_7,https://5puzkbbxv1.cognition.run/?sona_id=57560,"en-US,en;q=0.9",0wb80q0yfdru3au,21,"[""White""]",No,Female,NA,Yes,1230948,NA,null,<p></p>,null,choice,ct,binary,repulsion,1,televisions,null,null,null,null,null,null,1,NA,NA,NA,NA,NA,NA,NA,NA,NA,NA
NA,NA,NA,NA,NA,choice_trial,survey-html-form,17,894618,0.0-4.0-1.6,295,1,2025-05-07T19:54:35Z,b60275e29fe2361ab97ac0ac217840d7,"Mozilla/5.0 (Macintosh; Intel Mac OS X 10_15_7) AppleWebKit/605.1.15 (KHTML, like Gecko) Version/17.6 Safari/605.1.15",Macintosh,Safari,17.6,OS X,10_15_7,https://5puzkbbxv1.cognition.run/?sona_id=57560,"en-US,en;q=0.9",0wb80q0yfdru3au,21,"[""White""]",No,Female,NA,Yes,1230948,NA,687903,NA,"{""product_choice"":""A""}",choice,ct,binary,repulsion,1,televisions,null,null,null,null,null,null,1,100,90,null,30,40,null,Screen size,Average lifespan,NA,NA
NA,NA,NA,NA,NA,choice_trial_setup,html-keyboard-response,18,894923,0.0-4.0-0.7,295,1,2025-05-07T19:54:35Z,b60275e29fe2361ab97ac0ac217840d7,"Mozilla/5.0 (Macintosh; Intel Mac OS X 10_15_7) AppleWebKit/605.1.15 (KHTML, like Gecko) Version/17.6 Safari/605.1.15",Macintosh,Safari,17.6,OS X,10_15_7,https://5puzkbbxv1.cognition.run/?sona_id=57560,"en-US,en;q=0.9",0wb80q0yfdru3au,21,"[""White""]",No,Female,NA,Yes,1230948,NA,null,<p></p>,null,choice,tcd,trinary,attraction,2,washing machines,null,null,null,null,null,null,1,NA,NA,NA,NA,NA,NA,NA,NA,NA,NA
NA,NA,NA,NA,NA,choice_trial,survey-html-form,19,903555,0.0-4.0-1.7,295,1,2025-05-07T19:54:35Z,b60275e29fe2361ab97ac0ac217840d7,"Mozilla/5.0 (Macintosh; Intel Mac OS X 10_15_7) AppleWebKit/605.1.15 (KHTML, like Gecko) Version/17.6 Safari/605.1.15",Macintosh,Safari,17.6,OS X,10_15_7,https://5puzkbbxv1.cognition.run/?sona_id=57560,"en-US,en;q=0.9",0wb80q0yfdru3au,21,"[""White""]",No,Female,NA,Yes,1230948,NA,8624,NA,"{""product_choice"":""A""}",choice,tcd,trinary,attraction,2,washing machines,null,null,null,null,null,null,1,50,60,40,60,50,60,Average lifespan,Energy savings,NA,NA
NA,NA,NA,NA,NA,choice_trial_setup,html-keyboard-response,20,903859,0.0-4.0-0.8,295,1,2025-05-07T19:54:35Z,b60275e29fe2361ab97ac0ac217840d7,"Mozilla/5.0 (Macintosh; Intel Mac OS X 10_15_7) AppleWebKit/605.1.15 (KHTML, like Gecko) Version/17.6 Safari/605.1.15",Macintosh,Safari,17.6,OS X,10_15_7,https://5puzkbbxv1.cognition.run/?sona_id=57560,"en-US,en;q=0.9",0wb80q0yfdru3au,21,"[""White""]",No,Female,NA,Yes,1230948,NA,null,<p></p>,null,choice,bw,binary,catch,null,televisions,70,90,40,20,null,null,1,NA,NA,NA,NA,NA,NA,NA,NA,NA,NA
NA,NA,NA,NA,NA,choice_trial,survey-html-form,21,911891,0.0-4.0-1.8,295,1,2025-05-07T19:54:35Z,b60275e29fe2361ab97ac0ac217840d7,"Mozilla/5.0 (Macintosh; Intel Mac OS X 10_15_7) AppleWebKit/605.1.15 (KHTML, like Gecko) Version/17.6 Safari/605.1.15",Macintosh,Safari,17.6,OS X,10_15_7,https://5puzkbbxv1.cognition.run/?sona_id=57560,"en-US,en;q=0.9",0wb80q0yfdru3au,21,"[""White""]",No,Female,NA,Yes,1230948,NA,8026,NA,"{""product_choice"":""A""}",choice,bw,binary,catch,null,televisions,70,90,40,20,null,null,1,null,null,null,null,null,null,Screen size,Average lifespan,NA,NA
NA,NA,NA,NA,NA,choice_trial_setup,html-keyboard-response,22,912195,0.0-4.0-0.9,295,1,2025-05-07T19:54:35Z,b60275e29fe2361ab97ac0ac217840d7,"Mozilla/5.0 (Macintosh; Intel Mac OS X 10_15_7) AppleWebKit/605.1.15 (KHTML, like Gecko) Version/17.6 Safari/605.1.15",Macintosh,Safari,17.6,OS X,10_15_7,https://5puzkbbxv1.cognition.run/?sona_id=57560,"en-US,en;q=0.9",0wb80q0yfdru3au,21,"[""White""]",No,Female,NA,Yes,1230948,NA,null,<p></p>,null,choice,cdt,trinary,repulsion_B,2,microwave ovens,null,null,null,null,null,null,1,NA,NA,NA,NA,NA,NA,NA,NA,NA,NA
NA,NA,NA,NA,NA,choice_trial,survey-html-form,23,918860,0.0-4.0-1.9,295,1,2025-05-07T19:54:35Z,b60275e29fe2361ab97ac0ac217840d7,"Mozilla/5.0 (Macintosh; Intel Mac OS X 10_15_7) AppleWebKit/605.1.15 (KHTML, like Gecko) Version/17.6 Safari/605.1.15",Macintosh,Safari,17.6,OS X,10_15_7,https://5puzkbbxv1.cognition.run/?sona_id=57560,"en-US,en;q=0.9",0wb80q0yfdru3au,21,"[""White""]",No,Female,NA,Yes,1230948,NA,6659,NA,"{""product_choice"":""A""}",choice,cdt,trinary,repulsion_B,2,microwave ovens,null,null,null,null,null,null,1,40,30,40,90,100,80,Warranty,Cooking power,NA,NA
NA,NA,NA,NA,NA,choice_trial_setup,html-keyboard-response,24,919163,0.0-4.0-0.10,295,1,2025-05-07T19:54:35Z,b60275e29fe2361ab97ac0ac217840d7,"Mozilla/5.0 (Macintosh; Intel Mac OS X 10_15_7) AppleWebKit/605.1.15 (KHTML, like Gecko) Version/17.6 Safari/605.1.15",Macintosh,Safari,17.6,OS X,10_15_7,https://5puzkbbxv1.cognition.run/?sona_id=57560,"en-US,en;q=0.9",0wb80q0yfdru3au,21,"[""White""]",No,Female,NA,Yes,1230948,NA,null,<p></p>,null,choice,cdt,trinary,repulsion_A,1,laptops,null,null,null,null,null,null,2,NA,NA,NA,NA,NA,NA,NA,NA,NA,NA
NA,NA,NA,NA,NA,choice_trial,survey-html-form,25,926796,0.0-4.0-1.10,295,1,2025-05-07T19:54:35Z,b60275e29fe2361ab97ac0ac217840d7,"Mozilla/5.0 (Macintosh; Intel Mac OS X 10_15_7) AppleWebKit/605.1.15 (KHTML, like Gecko) Version/17.6 Safari/605.1.15",Macintosh,Safari,17.6,OS X,10_15_7,https://5puzkbbxv1.cognition.run/?sona_id=57560,"en-US,en;q=0.9",0wb80q0yfdru3au,21,"[""White""]",No,Female,NA,Yes,1230948,NA,7629,NA,"{""product_choice"":""C""}",choice,cdt,trinary,repulsion_A,1,laptops,null,null,null,null,null,null,2,100,90,100,30,40,20,Processing speed,Memory (RAM),NA,NA
NA,NA,NA,NA,NA,choice_trial_setup,html-keyboard-response,26,927100,0.0-4.0-0.11,295,1,2025-05-07T19:54:35Z,b60275e29fe2361ab97ac0ac217840d7,"Mozilla/5.0 (Macintosh; Intel Mac OS X 10_15_7) AppleWebKit/605.1.15 (KHTML, like Gecko) Version/17.6 Safari/605.1.15",Macintosh,Safari,17.6,OS X,10_15_7,https://5puzkbbxv1.cognition.run/?sona_id=57560,"en-US,en;q=0.9",0wb80q0yfdru3au,21,"[""White""]",No,Female,NA,Yes,1230948,NA,null,<p></p>,null,choice,dtc,trinary,attraction,2,laptops,null,null,null,null,null,null,2,NA,NA,NA,NA,NA,NA,NA,NA,NA,NA
NA,NA,NA,NA,NA,choice_trial,survey-html-form,27,936397,0.0-4.0-1.11,295,1,2025-05-07T19:54:35Z,b60275e29fe2361ab97ac0ac217840d7,"Mozilla/5.0 (Macintosh; Intel Mac OS X 10_15_7) AppleWebKit/605.1.15 (KHTML, like Gecko) Version/17.6 Safari/605.1.15",Macintosh,Safari,17.6,OS X,10_15_7,https://5puzkbbxv1.cognition.run/?sona_id=57560,"en-US,en;q=0.9",0wb80q0yfdru3au,21,"[""White""]",No,Female,NA,Yes,1230948,NA,9292,NA,"{""product_choice"":""C""}",choice,dtc,trinary,attraction,2,laptops,null,null,null,null,null,null,2,50,60,40,60,50,60,Processing speed,Memory (RAM),NA,NA
NA,NA,NA,NA,NA,choice_trial_setup,html-keyboard-response,28,936700,0.0-4.0-0.12,295,1,2025-05-07T19:54:35Z,b60275e29fe2361ab97ac0ac217840d7,"Mozilla/5.0 (Macintosh; Intel Mac OS X 10_15_7) AppleWebKit/605.1.15 (KHTML, like Gecko) Version/17.6 Safari/605.1.15",Macintosh,Safari,17.6,OS X,10_15_7,https://5puzkbbxv1.cognition.run/?sona_id=57560,"en-US,en;q=0.9",0wb80q0yfdru3au,21,"[""White""]",No,Female,NA,Yes,1230948,NA,null,<p></p>,null,choice,dct,trinary,attraction,1,televisions,null,null,null,null,null,null,1,NA,NA,NA,NA,NA,NA,NA,NA,NA,NA
NA,NA,NA,NA,NA,choice_trial,survey-html-form,29,947181,0.0-4.0-1.12,295,1,2025-05-07T19:54:35Z,b60275e29fe2361ab97ac0ac217840d7,"Mozilla/5.0 (Macintosh; Intel Mac OS X 10_15_7) AppleWebKit/605.1.15 (KHTML, like Gecko) Version/17.6 Safari/605.1.15",Macintosh,Safari,17.6,OS X,10_15_7,https://5puzkbbxv1.cognition.run/?sona_id=57560,"en-US,en;q=0.9",0wb80q0yfdru3au,21,"[""White""]",No,Female,NA,Yes,1230948,NA,10476,NA,"{""product_choice"":""B""}",choice,dct,trinary,attraction,1,televisions,null,null,null,null,null,null,1,60,50,60,50,60,40,Screen size,Average lifespan,NA,NA
NA,NA,NA,NA,NA,choice_trial_setup,html-keyboard-response,30,947485,0.0-4.0-0.13,295,1,2025-05-07T19:54:35Z,b60275e29fe2361ab97ac0ac217840d7,"Mozilla/5.0 (Macintosh; Intel Mac OS X 10_15_7) AppleWebKit/605.1.15 (KHTML, like Gecko) Version/17.6 Safari/605.1.15",Macintosh,Safari,17.6,OS X,10_15_7,https://5puzkbbxv1.cognition.run/?sona_id=57560,"en-US,en;q=0.9",0wb80q0yfdru3au,21,"[""White""]",No,Female,NA,Yes,1230948,NA,null,<p></p>,null,choice,ctd,trinary,attraction,1,laptops,null,null,null,null,null,null,2,NA,NA,NA,NA,NA,NA,NA,NA,NA,NA
NA,NA,NA,NA,NA,choice_trial,survey-html-form,31,953699,0.0-4.0-1.13,295,1,2025-05-07T19:54:35Z,b60275e29fe2361ab97ac0ac217840d7,"Mozilla/5.0 (Macintosh; Intel Mac OS X 10_15_7) AppleWebKit/605.1.15 (KHTML, like Gecko) Version/17.6 Safari/605.1.15",Macintosh,Safari,17.6,OS X,10_15_7,https://5puzkbbxv1.cognition.run/?sona_id=57560,"en-US,en;q=0.9",0wb80q0yfdru3au,21,"[""White""]",No,Female,NA,Yes,1230948,NA,6210,NA,"{""product_choice"":""B""}",choice,ctd,trinary,attraction,1,laptops,null,null,null,null,null,null,2,60,50,60,50,60,40,Processing speed,Memory (RAM),NA,NA
NA,NA,NA,NA,NA,choice_trial_setup,html-keyboard-response,32,954002,0.0-4.0-0.14,295,1,2025-05-07T19:54:35Z,b60275e29fe2361ab97ac0ac217840d7,"Mozilla/5.0 (Macintosh; Intel Mac OS X 10_15_7) AppleWebKit/605.1.15 (KHTML, like Gecko) Version/17.6 Safari/605.1.15",Macintosh,Safari,17.6,OS X,10_15_7,https://5puzkbbxv1.cognition.run/?sona_id=57560,"en-US,en;q=0.9",0wb80q0yfdru3au,21,"[""White""]",No,Female,NA,Yes,1230948,NA,null,<p></p>,null,choice,bww,trinary,catch,null,washing machines,55,85,15,10,40,15,1,NA,NA,NA,NA,NA,NA,NA,NA,NA,NA
NA,NA,NA,NA,NA,choice_trial,survey-html-form,33,959365,0.0-4.0-1.14,295,1,2025-05-07T19:54:35Z,b60275e29fe2361ab97ac0ac217840d7,"Mozilla/5.0 (Macintosh; Intel Mac OS X 10_15_7) AppleWebKit/605.1.15 (KHTML, like Gecko) Version/17.6 Safari/605.1.15",Macintosh,Safari,17.6,OS X,10_15_7,https://5puzkbbxv1.cognition.run/?sona_id=57560,"en-US,en;q=0.9",0wb80q0yfdru3au,21,"[""White""]",No,Female,NA,Yes,1230948,NA,5358,NA,"{""product_choice"":""A""}",choice,bww,trinary,catch,null,washing machines,55,85,15,10,40,15,1,null,null,null,null,null,null,Average lifespan,Energy savings,NA,NA
NA,NA,NA,NA,NA,choice_trial_setup,html-keyboard-response,34,959669,0.0-4.0-0.15,295,1,2025-05-07T19:54:35Z,b60275e29fe2361ab97ac0ac217840d7,"Mozilla/5.0 (Macintosh; Intel Mac OS X 10_15_7) AppleWebKit/605.1.15 (KHTML, like Gecko) Version/17.6 Safari/605.1.15",Macintosh,Safari,17.6,OS X,10_15_7,https://5puzkbbxv1.cognition.run/?sona_id=57560,"en-US,en;q=0.9",0wb80q0yfdru3au,21,"[""White""]",No,Female,NA,Yes,1230948,NA,null,<p></p>,null,choice,cdt,trinary,repulsion_A,2,microwave ovens,null,null,null,null,null,null,1,NA,NA,NA,NA,NA,NA,NA,NA,NA,NA
NA,NA,NA,NA,NA,choice_trial,survey-html-form,35,964199,0.0-4.0-1.15,295,1,2025-05-07T19:54:35Z,b60275e29fe2361ab97ac0ac217840d7,"Mozilla/5.0 (Macintosh; Intel Mac OS X 10_15_7) AppleWebKit/605.1.15 (KHTML, like Gecko) Version/17.6 Safari/605.1.15",Macintosh,Safari,17.6,OS X,10_15_7,https://5puzkbbxv1.cognition.run/?sona_id=57560,"en-US,en;q=0.9",0wb80q0yfdru3au,21,"[""White""]",No,Female,NA,Yes,1230948,NA,4526,NA,"{""product_choice"":""C""}",choice,cdt,trinary,repulsion_A,2,microwave ovens,null,null,null,null,null,null,1,30,40,20,100,90,100,Warranty,Cooking power,NA,NA
NA,NA,NA,NA,NA,choice_trial_setup,html-keyboard-response,36,964503,0.0-4.0-0.16,295,1,2025-05-07T19:54:35Z,b60275e29fe2361ab97ac0ac217840d7,"Mozilla/5.0 (Macintosh; Intel Mac OS X 10_15_7) AppleWebKit/605.1.15 (KHTML, like Gecko) Version/17.6 Safari/605.1.15",Macintosh,Safari,17.6,OS X,10_15_7,https://5puzkbbxv1.cognition.run/?sona_id=57560,"en-US,en;q=0.9",0wb80q0yfdru3au,21,"[""White""]",No,Female,NA,Yes,1230948,NA,null,<p></p>,null,choice,dct,trinary,repulsion_A,1,washing machines,null,null,null,null,null,null,1,NA,NA,NA,NA,NA,NA,NA,NA,NA,NA
NA,NA,NA,NA,NA,choice_trial,survey-html-form,37,973901,0.0-4.0-1.16,295,1,2025-05-07T19:54:35Z,b60275e29fe2361ab97ac0ac217840d7,"Mozilla/5.0 (Macintosh; Intel Mac OS X 10_15_7) AppleWebKit/605.1.15 (KHTML, like Gecko) Version/17.6 Safari/605.1.15",Macintosh,Safari,17.6,OS X,10_15_7,https://5puzkbbxv1.cognition.run/?sona_id=57560,"en-US,en;q=0.9",0wb80q0yfdru3au,21,"[""White""]",No,Female,NA,Yes,1230948,NA,9393,NA,"{""product_choice"":""B""}",choice,dct,trinary,repulsion_A,1,washing machines,null,null,null,null,null,null,1,100,90,100,30,40,20,Average lifespan,Energy savings,NA,NA
NA,NA,NA,NA,NA,choice_trial_setup,html-keyboard-response,38,974204,0.0-4.0-0.17,295,1,2025-05-07T19:54:35Z,b60275e29fe2361ab97ac0ac217840d7,"Mozilla/5.0 (Macintosh; Intel Mac OS X 10_15_7) AppleWebKit/605.1.15 (KHTML, like Gecko) Version/17.6 Safari/605.1.15",Macintosh,Safari,17.6,OS X,10_15_7,https://5puzkbbxv1.cognition.run/?sona_id=57560,"en-US,en;q=0.9",0wb80q0yfdru3au,21,"[""White""]",No,Female,NA,Yes,1230948,NA,null,<p></p>,null,choice,cdt,trinary,attraction,1,microwave ovens,null,null,null,null,null,null,1,NA,NA,NA,NA,NA,NA,NA,NA,NA,NA
NA,NA,NA,NA,NA,choice_trial,survey-html-form,39,979434,0.0-4.0-1.17,295,1,2025-05-07T19:54:35Z,b60275e29fe2361ab97ac0ac217840d7,"Mozilla/5.0 (Macintosh; Intel Mac OS X 10_15_7) AppleWebKit/605.1.15 (KHTML, like Gecko) Version/17.6 Safari/605.1.15",Macintosh,Safari,17.6,OS X,10_15_7,https://5puzkbbxv1.cognition.run/?sona_id=57560,"en-US,en;q=0.9",0wb80q0yfdru3au,21,"[""White""]",No,Female,NA,Yes,1230948,NA,5225,NA,"{""product_choice"":""A""}",choice,cdt,trinary,attraction,1,microwave ovens,null,null,null,null,null,null,1,60,50,60,50,60,40,Warranty,Cooking power,NA,NA
NA,NA,NA,NA,NA,choice_trial_setup,html-keyboard-response,40,979737,0.0-4.0-0.18,295,1,2025-05-07T19:54:35Z,b60275e29fe2361ab97ac0ac217840d7,"Mozilla/5.0 (Macintosh; Intel Mac OS X 10_15_7) AppleWebKit/605.1.15 (KHTML, like Gecko) Version/17.6 Safari/605.1.15",Macintosh,Safari,17.6,OS X,10_15_7,https://5puzkbbxv1.cognition.run/?sona_id=57560,"en-US,en;q=0.9",0wb80q0yfdru3au,21,"[""White""]",No,Female,NA,Yes,1230948,NA,null,<p></p>,null,choice,tc,binary,repulsion,2,televisions,null,null,null,null,null,null,2,NA,NA,NA,NA,NA,NA,NA,NA,NA,NA
NA,NA,NA,NA,NA,choice_trial,survey-html-form,41,985385,0.0-4.0-1.18,295,1,2025-05-07T19:54:35Z,b60275e29fe2361ab97ac0ac217840d7,"Mozilla/5.0 (Macintosh; Intel Mac OS X 10_15_7) AppleWebKit/605.1.15 (KHTML, like Gecko) Version/17.6 Safari/605.1.15",Macintosh,Safari,17.6,OS X,10_15_7,https://5puzkbbxv1.cognition.run/?sona_id=57560,"en-US,en;q=0.9",0wb80q0yfdru3au,21,"[""White""]",No,Female,NA,Yes,1230948,NA,5644,NA,"{""product_choice"":""A""}",choice,tc,binary,repulsion,2,televisions,null,null,null,null,null,null,2,30,40,null,100,90,null,Screen size,Average lifespan,NA,NA
NA,NA,NA,NA,NA,choice_trial_setup,html-keyboard-response,42,985689,0.0-4.0-0.19,295,1,2025-05-07T19:54:35Z,b60275e29fe2361ab97ac0ac217840d7,"Mozilla/5.0 (Macintosh; Intel Mac OS X 10_15_7) AppleWebKit/605.1.15 (KHTML, like Gecko) Version/17.6 Safari/605.1.15",Macintosh,Safari,17.6,OS X,10_15_7,https://5puzkbbxv1.cognition.run/?sona_id=57560,"en-US,en;q=0.9",0wb80q0yfdru3au,21,"[""White""]",No,Female,NA,Yes,1230948,NA,null,<p></p>,null,choice,cdt,trinary,repulsion_B,2,laptops,null,null,null,null,null,null,2,NA,NA,NA,NA,NA,NA,NA,NA,NA,NA
NA,NA,NA,NA,NA,choice_trial,survey-html-form,43,997768,0.0-4.0-1.19,295,1,2025-05-07T19:54:35Z,b60275e29fe2361ab97ac0ac217840d7,"Mozilla/5.0 (Macintosh; Intel Mac OS X 10_15_7) AppleWebKit/605.1.15 (KHTML, like Gecko) Version/17.6 Safari/605.1.15",Macintosh,Safari,17.6,OS X,10_15_7,https://5puzkbbxv1.cognition.run/?sona_id=57560,"en-US,en;q=0.9",0wb80q0yfdru3au,21,"[""White""]",No,Female,NA,Yes,1230948,NA,12075,NA,"{""product_choice"":""C""}",choice,cdt,trinary,repulsion_B,2,laptops,null,null,null,null,null,null,2,40,30,40,90,100,80,Processing speed,Memory (RAM),NA,NA
NA,NA,NA,NA,NA,choice_trial_setup,html-keyboard-response,44,998071,0.0-4.0-0.20,295,1,2025-05-07T19:54:35Z,b60275e29fe2361ab97ac0ac217840d7,"Mozilla/5.0 (Macintosh; Intel Mac OS X 10_15_7) AppleWebKit/605.1.15 (KHTML, like Gecko) Version/17.6 Safari/605.1.15",Macintosh,Safari,17.6,OS X,10_15_7,https://5puzkbbxv1.cognition.run/?sona_id=57560,"en-US,en;q=0.9",0wb80q0yfdru3au,21,"[""White""]",No,Female,NA,Yes,1230948,NA,null,<p></p>,null,choice,ct,binary,repulsion,2,microwave ovens,null,null,null,null,null,null,1,NA,NA,NA,NA,NA,NA,NA,NA,NA,NA
NA,NA,NA,NA,NA,choice_trial,survey-html-form,45,1003803,0.0-4.0-1.20,295,1,2025-05-07T19:54:35Z,b60275e29fe2361ab97ac0ac217840d7,"Mozilla/5.0 (Macintosh; Intel Mac OS X 10_15_7) AppleWebKit/605.1.15 (KHTML, like Gecko) Version/17.6 Safari/605.1.15",Macintosh,Safari,17.6,OS X,10_15_7,https://5puzkbbxv1.cognition.run/?sona_id=57560,"en-US,en;q=0.9",0wb80q0yfdru3au,21,"[""White""]",No,Female,NA,Yes,1230948,NA,5727,NA,"{""product_choice"":""B""}",choice,ct,binary,repulsion,2,microwave ovens,null,null,null,null,null,null,1,30,40,null,100,90,null,Warranty,Cooking power,NA,NA
NA,NA,NA,NA,NA,choice_trial_setup,html-keyboard-response,46,1004107,0.0-4.0-0.21,295,1,2025-05-07T19:54:35Z,b60275e29fe2361ab97ac0ac217840d7,"Mozilla/5.0 (Macintosh; Intel Mac OS X 10_15_7) AppleWebKit/605.1.15 (KHTML, like Gecko) Version/17.6 Safari/605.1.15",Macintosh,Safari,17.6,OS X,10_15_7,https://5puzkbbxv1.cognition.run/?sona_id=57560,"en-US,en;q=0.9",0wb80q0yfdru3au,21,"[""White""]",No,Female,NA,Yes,1230948,NA,null,<p></p>,null,choice,wwb,trinary,catch,null,laptops,65,70,50,35,20,40,1,NA,NA,NA,NA,NA,NA,NA,NA,NA,NA
NA,NA,NA,NA,NA,choice_trial,survey-html-form,47,1008921,0.0-4.0-1.21,295,1,2025-05-07T19:54:35Z,b60275e29fe2361ab97ac0ac217840d7,"Mozilla/5.0 (Macintosh; Intel Mac OS X 10_15_7) AppleWebKit/605.1.15 (KHTML, like Gecko) Version/17.6 Safari/605.1.15",Macintosh,Safari,17.6,OS X,10_15_7,https://5puzkbbxv1.cognition.run/?sona_id=57560,"en-US,en;q=0.9",0wb80q0yfdru3au,21,"[""White""]",No,Female,NA,Yes,1230948,NA,4809,NA,"{""product_choice"":""C""}",choice,wwb,trinary,catch,null,laptops,65,70,50,35,20,40,1,null,null,null,null,null,null,Processing speed,Memory (RAM),NA,NA
NA,NA,NA,NA,NA,choice_trial_setup,html-keyboard-response,48,1009224,0.0-4.0-0.22,295,1,2025-05-07T19:54:35Z,b60275e29fe2361ab97ac0ac217840d7,"Mozilla/5.0 (Macintosh; Intel Mac OS X 10_15_7) AppleWebKit/605.1.15 (KHTML, like Gecko) Version/17.6 Safari/605.1.15",Macintosh,Safari,17.6,OS X,10_15_7,https://5puzkbbxv1.cognition.run/?sona_id=57560,"en-US,en;q=0.9",0wb80q0yfdru3au,21,"[""White""]",No,Female,NA,Yes,1230948,NA,null,<p></p>,null,choice,bww,trinary,catch,null,televisions,50,60,40,40,35,10,1,NA,NA,NA,NA,NA,NA,NA,NA,NA,NA
NA,NA,NA,NA,NA,choice_trial,survey-html-form,49,1012537,0.0-4.0-1.22,295,1,2025-05-07T19:54:35Z,b60275e29fe2361ab97ac0ac217840d7,"Mozilla/5.0 (Macintosh; Intel Mac OS X 10_15_7) AppleWebKit/605.1.15 (KHTML, like Gecko) Version/17.6 Safari/605.1.15",Macintosh,Safari,17.6,OS X,10_15_7,https://5puzkbbxv1.cognition.run/?sona_id=57560,"en-US,en;q=0.9",0wb80q0yfdru3au,21,"[""White""]",No,Female,NA,Yes,1230948,NA,3308,NA,"{""product_choice"":""A""}",choice,bww,trinary,catch,null,televisions,50,60,40,40,35,10,1,null,null,null,null,null,null,Screen size,Average lifespan,NA,NA
NA,NA,NA,NA,NA,choice_trial_setup,html-keyboard-response,50,1012841,0.0-4.0-0.23,295,1,2025-05-07T19:54:35Z,b60275e29fe2361ab97ac0ac217840d7,"Mozilla/5.0 (Macintosh; Intel Mac OS X 10_15_7) AppleWebKit/605.1.15 (KHTML, like Gecko) Version/17.6 Safari/605.1.15",Macintosh,Safari,17.6,OS X,10_15_7,https://5puzkbbxv1.cognition.run/?sona_id=57560,"en-US,en;q=0.9",0wb80q0yfdru3au,21,"[""White""]",No,Female,NA,Yes,1230948,NA,null,<p></p>,null,choice,tc,binary,attraction,NA,laptops,null,null,null,null,null,null,1,NA,NA,NA,NA,NA,NA,NA,NA,NA,NA
NA,NA,NA,NA,NA,choice_trial,survey-html-form,51,1016737,0.0-4.0-1.23,295,1,2025-05-07T19:54:35Z,b60275e29fe2361ab97ac0ac217840d7,"Mozilla/5.0 (Macintosh; Intel Mac OS X 10_15_7) AppleWebKit/605.1.15 (KHTML, like Gecko) Version/17.6 Safari/605.1.15",Macintosh,Safari,17.6,OS X,10_15_7,https://5puzkbbxv1.cognition.run/?sona_id=57560,"en-US,en;q=0.9",0wb80q0yfdru3au,21,"[""White""]",No,Female,NA,Yes,1230948,NA,3891,NA,"{""product_choice"":""A""}",choice,tc,binary,attraction,NA,laptops,null,null,null,null,null,null,1,60,50,null,50,60,null,Processing speed,Memory (RAM),NA,NA
NA,NA,NA,NA,NA,choice_trial_setup,html-keyboard-response,52,1017047,0.0-4.0-0.24,295,1,2025-05-07T19:54:35Z,b60275e29fe2361ab97ac0ac217840d7,"Mozilla/5.0 (Macintosh; Intel Mac OS X 10_15_7) AppleWebKit/605.1.15 (KHTML, like Gecko) Version/17.6 Safari/605.1.15",Macintosh,Safari,17.6,OS X,10_15_7,https://5puzkbbxv1.cognition.run/?sona_id=57560,"en-US,en;q=0.9",0wb80q0yfdru3au,21,"[""White""]",No,Female,NA,Yes,1230948,NA,null,<p></p>,null,choice,ct,binary,repulsion,2,washing machines,null,null,null,null,null,null,1,NA,NA,NA,NA,NA,NA,NA,NA,NA,NA
NA,NA,NA,NA,NA,choice_trial,survey-html-form,53,1021306,0.0-4.0-1.24,295,1,2025-05-07T19:54:35Z,b60275e29fe2361ab97ac0ac217840d7,"Mozilla/5.0 (Macintosh; Intel Mac OS X 10_15_7) AppleWebKit/605.1.15 (KHTML, like Gecko) Version/17.6 Safari/605.1.15",Macintosh,Safari,17.6,OS X,10_15_7,https://5puzkbbxv1.cognition.run/?sona_id=57560,"en-US,en;q=0.9",0wb80q0yfdru3au,21,"[""White""]",No,Female,NA,Yes,1230948,NA,4253,NA,"{""product_choice"":""B""}",choice,ct,binary,repulsion,2,washing machines,null,null,null,null,null,null,1,30,40,null,100,90,null,Average lifespan,Energy savings,NA,NA
NA,NA,NA,NA,NA,choice_trial_setup,html-keyboard-response,54,1021611,0.0-4.0-0.25,295,1,2025-05-07T19:54:35Z,b60275e29fe2361ab97ac0ac217840d7,"Mozilla/5.0 (Macintosh; Intel Mac OS X 10_15_7) AppleWebKit/605.1.15 (KHTML, like Gecko) Version/17.6 Safari/605.1.15",Macintosh,Safari,17.6,OS X,10_15_7,https://5puzkbbxv1.cognition.run/?sona_id=57560,"en-US,en;q=0.9",0wb80q0yfdru3au,21,"[""White""]",No,Female,NA,Yes,1230948,NA,null,<p></p>,null,choice,ct,binary,repulsion,1,laptops,null,null,null,null,null,null,1,NA,NA,NA,NA,NA,NA,NA,NA,NA,NA
NA,NA,NA,NA,NA,choice_trial,survey-html-form,55,1028891,0.0-4.0-1.25,295,1,2025-05-07T19:54:35Z,b60275e29fe2361ab97ac0ac217840d7,"Mozilla/5.0 (Macintosh; Intel Mac OS X 10_15_7) AppleWebKit/605.1.15 (KHTML, like Gecko) Version/17.6 Safari/605.1.15",Macintosh,Safari,17.6,OS X,10_15_7,https://5puzkbbxv1.cognition.run/?sona_id=57560,"en-US,en;q=0.9",0wb80q0yfdru3au,21,"[""White""]",No,Female,NA,Yes,1230948,NA,7275,NA,"{""product_choice"":""B""}",choice,ct,binary,repulsion,1,laptops,null,null,null,null,null,null,1,100,90,null,30,40,null,Processing speed,Memory (RAM),NA,NA
NA,NA,NA,NA,NA,choice_trial_setup,html-keyboard-response,56,1029194,0.0-4.0-0.26,295,1,2025-05-07T19:54:35Z,b60275e29fe2361ab97ac0ac217840d7,"Mozilla/5.0 (Macintosh; Intel Mac OS X 10_15_7) AppleWebKit/605.1.15 (KHTML, like Gecko) Version/17.6 Safari/605.1.15",Macintosh,Safari,17.6,OS X,10_15_7,https://5puzkbbxv1.cognition.run/?sona_id=57560,"en-US,en;q=0.9",0wb80q0yfdru3au,21,"[""White""]",No,Female,NA,Yes,1230948,NA,null,<p></p>,null,choice,dtc,trinary,repulsion_B,2,televisions,null,null,null,null,null,null,1,NA,NA,NA,NA,NA,NA,NA,NA,NA,NA
NA,NA,NA,NA,NA,choice_trial,survey-html-form,57,1035941,0.0-4.0-1.26,295,1,2025-05-07T19:54:35Z,b60275e29fe2361ab97ac0ac217840d7,"Mozilla/5.0 (Macintosh; Intel Mac OS X 10_15_7) AppleWebKit/605.1.15 (KHTML, like Gecko) Version/17.6 Safari/605.1.15",Macintosh,Safari,17.6,OS X,10_15_7,https://5puzkbbxv1.cognition.run/?sona_id=57560,"en-US,en;q=0.9",0wb80q0yfdru3au,21,"[""White""]",No,Female,NA,Yes,1230948,NA,6742,NA,"{""product_choice"":""B""}",choice,dtc,trinary,repulsion_B,2,televisions,null,null,null,null,null,null,1,40,30,40,90,100,80,Screen size,Average lifespan,NA,NA
NA,NA,NA,NA,NA,choice_trial_setup,html-keyboard-response,58,1036244,0.0-4.0-0.27,295,1,2025-05-07T19:54:35Z,b60275e29fe2361ab97ac0ac217840d7,"Mozilla/5.0 (Macintosh; Intel Mac OS X 10_15_7) AppleWebKit/605.1.15 (KHTML, like Gecko) Version/17.6 Safari/605.1.15",Macintosh,Safari,17.6,OS X,10_15_7,https://5puzkbbxv1.cognition.run/?sona_id=57560,"en-US,en;q=0.9",0wb80q0yfdru3au,21,"[""White""]",No,Female,NA,Yes,1230948,NA,null,<p></p>,null,choice,dct,trinary,repulsion_B,1,microwave ovens,null,null,null,null,null,null,2,NA,NA,NA,NA,NA,NA,NA,NA,NA,NA
NA,NA,NA,NA,NA,choice_trial,survey-html-form,59,1041159,0.0-4.0-1.27,295,1,2025-05-07T19:54:35Z,b60275e29fe2361ab97ac0ac217840d7,"Mozilla/5.0 (Macintosh; Intel Mac OS X 10_15_7) AppleWebKit/605.1.15 (KHTML, like Gecko) Version/17.6 Safari/605.1.15",Macintosh,Safari,17.6,OS X,10_15_7,https://5puzkbbxv1.cognition.run/?sona_id=57560,"en-US,en;q=0.9",0wb80q0yfdru3au,21,"[""White""]",No,Female,NA,Yes,1230948,NA,4908,NA,"{""product_choice"":""C""}",choice,dct,trinary,repulsion_B,1,microwave ovens,null,null,null,null,null,null,2,90,100,80,40,30,40,Warranty,Cooking power,NA,NA
NA,NA,NA,NA,NA,choice_trial_setup,html-keyboard-response,60,1041464,0.0-4.0-0.28,295,1,2025-05-07T19:54:35Z,b60275e29fe2361ab97ac0ac217840d7,"Mozilla/5.0 (Macintosh; Intel Mac OS X 10_15_7) AppleWebKit/605.1.15 (KHTML, like Gecko) Version/17.6 Safari/605.1.15",Macintosh,Safari,17.6,OS X,10_15_7,https://5puzkbbxv1.cognition.run/?sona_id=57560,"en-US,en;q=0.9",0wb80q0yfdru3au,21,"[""White""]",No,Female,NA,Yes,1230948,NA,null,<p></p>,null,choice,dtc,trinary,repulsion_A,1,microwave ovens,null,null,null,null,null,null,1,NA,NA,NA,NA,NA,NA,NA,NA,NA,NA
NA,NA,NA,NA,NA,choice_trial,survey-html-form,61,1048358,0.0-4.0-1.28,295,1,2025-05-07T19:54:35Z,b60275e29fe2361ab97ac0ac217840d7,"Mozilla/5.0 (Macintosh; Intel Mac OS X 10_15_7) AppleWebKit/605.1.15 (KHTML, like Gecko) Version/17.6 Safari/605.1.15",Macintosh,Safari,17.6,OS X,10_15_7,https://5puzkbbxv1.cognition.run/?sona_id=57560,"en-US,en;q=0.9",0wb80q0yfdru3au,21,"[""White""]",No,Female,NA,Yes,1230948,NA,6889,NA,"{""product_choice"":""C""}",choice,dtc,trinary,repulsion_A,1,microwave ovens,null,null,null,null,null,null,1,100,90,100,30,40,20,Warranty,Cooking power,NA,NA
NA,NA,NA,NA,NA,choice_trial_setup,html-keyboard-response,62,1048663,0.0-4.0-0.29,295,1,2025-05-07T19:54:35Z,b60275e29fe2361ab97ac0ac217840d7,"Mozilla/5.0 (Macintosh; Intel Mac OS X 10_15_7) AppleWebKit/605.1.15 (KHTML, like Gecko) Version/17.6 Safari/605.1.15",Macintosh,Safari,17.6,OS X,10_15_7,https://5puzkbbxv1.cognition.run/?sona_id=57560,"en-US,en;q=0.9",0wb80q0yfdru3au,21,"[""White""]",No,Female,NA,Yes,1230948,NA,null,<p></p>,null,choice,wb,binary,catch,null,washing machines,65,75,20,45,null,null,2,NA,NA,NA,NA,NA,NA,NA,NA,NA,NA
NA,NA,NA,NA,NA,choice_trial,survey-html-form,63,1052192,0.0-4.0-1.29,295,1,2025-05-07T19:54:35Z,b60275e29fe2361ab97ac0ac217840d7,"Mozilla/5.0 (Macintosh; Intel Mac OS X 10_15_7) AppleWebKit/605.1.15 (KHTML, like Gecko) Version/17.6 Safari/605.1.15",Macintosh,Safari,17.6,OS X,10_15_7,https://5puzkbbxv1.cognition.run/?sona_id=57560,"en-US,en;q=0.9",0wb80q0yfdru3au,21,"[""White""]",No,Female,NA,Yes,1230948,NA,3524,NA,"{""product_choice"":""B""}",choice,wb,binary,catch,null,washing machines,65,75,20,45,null,null,2,null,null,null,null,null,null,Average lifespan,Energy savings,NA,NA
NA,NA,NA,NA,NA,choice_trial_setup,html-keyboard-response,64,1052497,0.0-4.0-0.30,295,1,2025-05-07T19:54:35Z,b60275e29fe2361ab97ac0ac217840d7,"Mozilla/5.0 (Macintosh; Intel Mac OS X 10_15_7) AppleWebKit/605.1.15 (KHTML, like Gecko) Version/17.6 Safari/605.1.15",Macintosh,Safari,17.6,OS X,10_15_7,https://5puzkbbxv1.cognition.run/?sona_id=57560,"en-US,en;q=0.9",0wb80q0yfdru3au,21,"[""White""]",No,Female,NA,Yes,1230948,NA,null,<p></p>,null,choice,tdc,trinary,repulsion_B,1,washing machines,null,null,null,null,null,null,1,NA,NA,NA,NA,NA,NA,NA,NA,NA,NA
NA,NA,NA,NA,NA,choice_trial,survey-html-form,65,1057875,0.0-4.0-1.30,295,1,2025-05-07T19:54:35Z,b60275e29fe2361ab97ac0ac217840d7,"Mozilla/5.0 (Macintosh; Intel Mac OS X 10_15_7) AppleWebKit/605.1.15 (KHTML, like Gecko) Version/17.6 Safari/605.1.15",Macintosh,Safari,17.6,OS X,10_15_7,https://5puzkbbxv1.cognition.run/?sona_id=57560,"en-US,en;q=0.9",0wb80q0yfdru3au,21,"[""White""]",No,Female,NA,Yes,1230948,NA,5372,NA,"{""product_choice"":""A""}",choice,tdc,trinary,repulsion_B,1,washing machines,null,null,null,null,null,null,1,90,100,80,40,30,40,Average lifespan,Energy savings,NA,NA
NA,NA,NA,NA,NA,choice_trial_setup,html-keyboard-response,66,1058180,0.0-4.0-0.31,295,1,2025-05-07T19:54:35Z,b60275e29fe2361ab97ac0ac217840d7,"Mozilla/5.0 (Macintosh; Intel Mac OS X 10_15_7) AppleWebKit/605.1.15 (KHTML, like Gecko) Version/17.6 Safari/605.1.15",Macintosh,Safari,17.6,OS X,10_15_7,https://5puzkbbxv1.cognition.run/?sona_id=57560,"en-US,en;q=0.9",0wb80q0yfdru3au,21,"[""White""]",No,Female,NA,Yes,1230948,NA,null,<p></p>,null,choice,ct,binary,attraction,NA,washing machines,null,null,null,null,null,null,1,NA,NA,NA,NA,NA,NA,NA,NA,NA,NA
NA,NA,NA,NA,NA,choice_trial,survey-html-form,67,1062208,0.0-4.0-1.31,295,1,2025-05-07T19:54:35Z,b60275e29fe2361ab97ac0ac217840d7,"Mozilla/5.0 (Macintosh; Intel Mac OS X 10_15_7) AppleWebKit/605.1.15 (KHTML, like Gecko) Version/17.6 Safari/605.1.15",Macintosh,Safari,17.6,OS X,10_15_7,https://5puzkbbxv1.cognition.run/?sona_id=57560,"en-US,en;q=0.9",0wb80q0yfdru3au,21,"[""White""]",No,Female,NA,Yes,1230948,NA,4023,NA,"{""product_choice"":""A""}",choice,ct,binary,attraction,NA,washing machines,null,null,null,null,null,null,1,60,50,null,50,60,null,Average lifespan,Energy savings,NA,NA
NA,NA,NA,NA,NA,choice_trial_setup,html-keyboard-response,68,1062512,0.0-4.0-0.32,295,1,2025-05-07T19:54:35Z,b60275e29fe2361ab97ac0ac217840d7,"Mozilla/5.0 (Macintosh; Intel Mac OS X 10_15_7) AppleWebKit/605.1.15 (KHTML, like Gecko) Version/17.6 Safari/605.1.15",Macintosh,Safari,17.6,OS X,10_15_7,https://5puzkbbxv1.cognition.run/?sona_id=57560,"en-US,en;q=0.9",0wb80q0yfdru3au,21,"[""White""]",No,Female,NA,Yes,1230948,NA,null,<p></p>,null,choice,ctd,trinary,repulsion_A,2,laptops,null,null,null,null,null,null,1,NA,NA,NA,NA,NA,NA,NA,NA,NA,NA
NA,NA,NA,NA,NA,choice_trial,survey-html-form,69,1066325,0.0-4.0-1.32,295,1,2025-05-07T19:54:35Z,b60275e29fe2361ab97ac0ac217840d7,"Mozilla/5.0 (Macintosh; Intel Mac OS X 10_15_7) AppleWebKit/605.1.15 (KHTML, like Gecko) Version/17.6 Safari/605.1.15",Macintosh,Safari,17.6,OS X,10_15_7,https://5puzkbbxv1.cognition.run/?sona_id=57560,"en-US,en;q=0.9",0wb80q0yfdru3au,21,"[""White""]",No,Female,NA,Yes,1230948,NA,3807,NA,"{""product_choice"":""B""}",choice,ctd,trinary,repulsion_A,2,laptops,null,null,null,null,null,null,1,30,40,20,100,90,100,Processing speed,Memory (RAM),NA,NA
NA,NA,NA,NA,NA,choice_trial_setup,html-keyboard-response,70,1066630,0.0-4.0-0.33,295,1,2025-05-07T19:54:35Z,b60275e29fe2361ab97ac0ac217840d7,"Mozilla/5.0 (Macintosh; Intel Mac OS X 10_15_7) AppleWebKit/605.1.15 (KHTML, like Gecko) Version/17.6 Safari/605.1.15",Macintosh,Safari,17.6,OS X,10_15_7,https://5puzkbbxv1.cognition.run/?sona_id=57560,"en-US,en;q=0.9",0wb80q0yfdru3au,21,"[""White""]",No,Female,NA,Yes,1230948,NA,null,<p></p>,null,choice,tc,binary,attraction,NA,microwave ovens,null,null,null,null,null,null,2,NA,NA,NA,NA,NA,NA,NA,NA,NA,NA
NA,NA,NA,NA,NA,choice_trial,survey-html-form,71,1073176,0.0-4.0-1.33,295,1,2025-05-07T19:54:35Z,b60275e29fe2361ab97ac0ac217840d7,"Mozilla/5.0 (Macintosh; Intel Mac OS X 10_15_7) AppleWebKit/605.1.15 (KHTML, like Gecko) Version/17.6 Safari/605.1.15",Macintosh,Safari,17.6,OS X,10_15_7,https://5puzkbbxv1.cognition.run/?sona_id=57560,"en-US,en;q=0.9",0wb80q0yfdru3au,21,"[""White""]",No,Female,NA,Yes,1230948,NA,6539,NA,"{""product_choice"":""B""}",choice,tc,binary,attraction,NA,microwave ovens,null,null,null,null,null,null,2,60,50,null,50,60,null,Warranty,Cooking power,NA,NA
NA,NA,NA,NA,NA,choice_trial_setup,html-keyboard-response,72,1073481,0.0-4.0-0.34,295,1,2025-05-07T19:54:35Z,b60275e29fe2361ab97ac0ac217840d7,"Mozilla/5.0 (Macintosh; Intel Mac OS X 10_15_7) AppleWebKit/605.1.15 (KHTML, like Gecko) Version/17.6 Safari/605.1.15",Macintosh,Safari,17.6,OS X,10_15_7,https://5puzkbbxv1.cognition.run/?sona_id=57560,"en-US,en;q=0.9",0wb80q0yfdru3au,21,"[""White""]",No,Female,NA,Yes,1230948,NA,null,<p></p>,null,choice,ct,binary,repulsion,2,laptops,null,null,null,null,null,null,2,NA,NA,NA,NA,NA,NA,NA,NA,NA,NA
NA,NA,NA,NA,NA,choice_trial,survey-html-form,73,1076743,0.0-4.0-1.34,295,1,2025-05-07T19:54:35Z,b60275e29fe2361ab97ac0ac217840d7,"Mozilla/5.0 (Macintosh; Intel Mac OS X 10_15_7) AppleWebKit/605.1.15 (KHTML, like Gecko) Version/17.6 Safari/605.1.15",Macintosh,Safari,17.6,OS X,10_15_7,https://5puzkbbxv1.cognition.run/?sona_id=57560,"en-US,en;q=0.9",0wb80q0yfdru3au,21,"[""White""]",No,Female,NA,Yes,1230948,NA,3257,NA,"{""product_choice"":""A""}",choice,ct,binary,repulsion,2,laptops,null,null,null,null,null,null,2,30,40,null,100,90,null,Processing speed,Memory (RAM),NA,NA
NA,NA,NA,NA,NA,choice_trial_setup,html-keyboard-response,74,1077048,0.0-4.0-0.35,295,1,2025-05-07T19:54:35Z,b60275e29fe2361ab97ac0ac217840d7,"Mozilla/5.0 (Macintosh; Intel Mac OS X 10_15_7) AppleWebKit/605.1.15 (KHTML, like Gecko) Version/17.6 Safari/605.1.15",Macintosh,Safari,17.6,OS X,10_15_7,https://5puzkbbxv1.cognition.run/?sona_id=57560,"en-US,en;q=0.9",0wb80q0yfdru3au,21,"[""White""]",No,Female,NA,Yes,1230948,NA,null,<p></p>,null,choice,tc,binary,attraction,NA,televisions,null,null,null,null,null,null,2,NA,NA,NA,NA,NA,NA,NA,NA,NA,NA
NA,NA,NA,NA,NA,choice_trial,survey-html-form,75,1080110,0.0-4.0-1.35,295,1,2025-05-07T19:54:35Z,b60275e29fe2361ab97ac0ac217840d7,"Mozilla/5.0 (Macintosh; Intel Mac OS X 10_15_7) AppleWebKit/605.1.15 (KHTML, like Gecko) Version/17.6 Safari/605.1.15",Macintosh,Safari,17.6,OS X,10_15_7,https://5puzkbbxv1.cognition.run/?sona_id=57560,"en-US,en;q=0.9",0wb80q0yfdru3au,21,"[""White""]",No,Female,NA,Yes,1230948,NA,3056,NA,"{""product_choice"":""B""}",choice,tc,binary,attraction,NA,televisions,null,null,null,null,null,null,2,60,50,null,50,60,null,Screen size,Average lifespan,NA,NA
NA,NA,NA,NA,NA,choice_trial_setup,html-keyboard-response,76,1080415,0.0-4.0-0.36,295,1,2025-05-07T19:54:35Z,b60275e29fe2361ab97ac0ac217840d7,"Mozilla/5.0 (Macintosh; Intel Mac OS X 10_15_7) AppleWebKit/605.1.15 (KHTML, like Gecko) Version/17.6 Safari/605.1.15",Macintosh,Safari,17.6,OS X,10_15_7,https://5puzkbbxv1.cognition.run/?sona_id=57560,"en-US,en;q=0.9",0wb80q0yfdru3au,21,"[""White""]",No,Female,NA,Yes,1230948,NA,null,<p></p>,null,choice,tcd,trinary,repulsion_A,2,televisions,null,null,null,null,null,null,1,NA,NA,NA,NA,NA,NA,NA,NA,NA,NA
NA,NA,NA,NA,NA,choice_trial,survey-html-form,77,1084477,0.0-4.0-1.36,295,1,2025-05-07T19:54:35Z,b60275e29fe2361ab97ac0ac217840d7,"Mozilla/5.0 (Macintosh; Intel Mac OS X 10_15_7) AppleWebKit/605.1.15 (KHTML, like Gecko) Version/17.6 Safari/605.1.15",Macintosh,Safari,17.6,OS X,10_15_7,https://5puzkbbxv1.cognition.run/?sona_id=57560,"en-US,en;q=0.9",0wb80q0yfdru3au,21,"[""White""]",No,Female,NA,Yes,1230948,NA,4057,NA,"{""product_choice"":""B""}",choice,tcd,trinary,repulsion_A,2,televisions,null,null,null,null,null,null,1,30,40,20,100,90,100,Screen size,Average lifespan,NA,NA
NA,NA,NA,NA,NA,choice_trial_setup,html-keyboard-response,78,1084782,0.0-4.0-0.37,295,1,2025-05-07T19:54:35Z,b60275e29fe2361ab97ac0ac217840d7,"Mozilla/5.0 (Macintosh; Intel Mac OS X 10_15_7) AppleWebKit/605.1.15 (KHTML, like Gecko) Version/17.6 Safari/605.1.15",Macintosh,Safari,17.6,OS X,10_15_7,https://5puzkbbxv1.cognition.run/?sona_id=57560,"en-US,en;q=0.9",0wb80q0yfdru3au,21,"[""White""]",No,Female,NA,Yes,1230948,NA,null,<p></p>,null,choice,wwb,trinary,catch,null,microwave ovens,50,55,15,30,10,30,1,NA,NA,NA,NA,NA,NA,NA,NA,NA,NA
NA,NA,NA,NA,NA,choice_trial,survey-html-form,79,1088844,0.0-4.0-1.37,295,1,2025-05-07T19:54:35Z,b60275e29fe2361ab97ac0ac217840d7,"Mozilla/5.0 (Macintosh; Intel Mac OS X 10_15_7) AppleWebKit/605.1.15 (KHTML, like Gecko) Version/17.6 Safari/605.1.15",Macintosh,Safari,17.6,OS X,10_15_7,https://5puzkbbxv1.cognition.run/?sona_id=57560,"en-US,en;q=0.9",0wb80q0yfdru3au,21,"[""White""]",No,Female,NA,Yes,1230948,NA,4057,NA,"{""product_choice"":""C""}",choice,wwb,trinary,catch,null,microwave ovens,50,55,15,30,10,30,1,null,null,null,null,null,null,Warranty,Cooking power,NA,NA
NA,NA,NA,NA,NA,choice_trial_setup,html-keyboard-response,80,1089148,0.0-4.0-0.38,295,1,2025-05-07T19:54:35Z,b60275e29fe2361ab97ac0ac217840d7,"Mozilla/5.0 (Macintosh; Intel Mac OS X 10_15_7) AppleWebKit/605.1.15 (KHTML, like Gecko) Version/17.6 Safari/605.1.15",Macintosh,Safari,17.6,OS X,10_15_7,https://5puzkbbxv1.cognition.run/?sona_id=57560,"en-US,en;q=0.9",0wb80q0yfdru3au,21,"[""White""]",No,Female,NA,Yes,1230948,NA,null,<p></p>,null,choice,dct,trinary,repulsion_B,1,televisions,null,null,null,null,null,null,1,NA,NA,NA,NA,NA,NA,NA,NA,NA,NA
NA,NA,NA,NA,NA,choice_trial,survey-html-form,81,1094828,0.0-4.0-1.38,295,1,2025-05-07T19:54:35Z,b60275e29fe2361ab97ac0ac217840d7,"Mozilla/5.0 (Macintosh; Intel Mac OS X 10_15_7) AppleWebKit/605.1.15 (KHTML, like Gecko) Version/17.6 Safari/605.1.15",Macintosh,Safari,17.6,OS X,10_15_7,https://5puzkbbxv1.cognition.run/?sona_id=57560,"en-US,en;q=0.9",0wb80q0yfdru3au,21,"[""White""]",No,Female,NA,Yes,1230948,NA,5677,NA,"{""product_choice"":""C""}",choice,dct,trinary,repulsion_B,1,televisions,null,null,null,null,null,null,1,90,100,80,40,30,40,Screen size,Average lifespan,NA,NA
NA,NA,NA,NA,NA,choice_trial_setup,html-keyboard-response,82,1095133,0.0-4.0-0.39,295,1,2025-05-07T19:54:35Z,b60275e29fe2361ab97ac0ac217840d7,"Mozilla/5.0 (Macintosh; Intel Mac OS X 10_15_7) AppleWebKit/605.1.15 (KHTML, like Gecko) Version/17.6 Safari/605.1.15",Macintosh,Safari,17.6,OS X,10_15_7,https://5puzkbbxv1.cognition.run/?sona_id=57560,"en-US,en;q=0.9",0wb80q0yfdru3au,21,"[""White""]",No,Female,NA,Yes,1230948,NA,null,<p></p>,null,choice,dct,trinary,attraction,1,washing machines,null,null,null,null,null,null,2,NA,NA,NA,NA,NA,NA,NA,NA,NA,NA
NA,NA,NA,NA,NA,choice_trial,survey-html-form,83,1102179,0.0-4.0-1.39,295,1,2025-05-07T19:54:35Z,b60275e29fe2361ab97ac0ac217840d7,"Mozilla/5.0 (Macintosh; Intel Mac OS X 10_15_7) AppleWebKit/605.1.15 (KHTML, like Gecko) Version/17.6 Safari/605.1.15",Macintosh,Safari,17.6,OS X,10_15_7,https://5puzkbbxv1.cognition.run/?sona_id=57560,"en-US,en;q=0.9",0wb80q0yfdru3au,21,"[""White""]",No,Female,NA,Yes,1230948,NA,7038,NA,"{""product_choice"":""B""}",choice,dct,trinary,attraction,1,washing machines,null,null,null,null,null,null,2,60,50,60,50,60,40,Average lifespan,Energy savings,NA,NA
NA,NA,NA,NA,NA,choice_trial_setup,html-keyboard-response,84,1102485,0.0-4.0-0.40,295,1,2025-05-07T19:54:35Z,b60275e29fe2361ab97ac0ac217840d7,"Mozilla/5.0 (Macintosh; Intel Mac OS X 10_15_7) AppleWebKit/605.1.15 (KHTML, like Gecko) Version/17.6 Safari/605.1.15",Macintosh,Safari,17.6,OS X,10_15_7,https://5puzkbbxv1.cognition.run/?sona_id=57560,"en-US,en;q=0.9",0wb80q0yfdru3au,21,"[""White""]",No,Female,NA,Yes,1230948,NA,null,<p></p>,null,choice,cdt,trinary,attraction,2,microwave ovens,null,null,null,null,null,null,1,NA,NA,NA,NA,NA,NA,NA,NA,NA,NA
NA,NA,NA,NA,NA,choice_trial,survey-html-form,85,1113766,0.0-4.0-1.40,295,1,2025-05-07T19:54:35Z,b60275e29fe2361ab97ac0ac217840d7,"Mozilla/5.0 (Macintosh; Intel Mac OS X 10_15_7) AppleWebKit/605.1.15 (KHTML, like Gecko) Version/17.6 Safari/605.1.15",Macintosh,Safari,17.6,OS X,10_15_7,https://5puzkbbxv1.cognition.run/?sona_id=57560,"en-US,en;q=0.9",0wb80q0yfdru3au,21,"[""White""]",No,Female,NA,Yes,1230948,NA,11268,NA,"{""product_choice"":""C""}",choice,cdt,trinary,attraction,2,microwave ovens,null,null,null,null,null,null,1,50,60,40,60,50,60,Warranty,Cooking power,NA,NA
NA,NA,NA,NA,NA,choice_trial_setup,html-keyboard-response,86,1114072,0.0-4.0-0.41,295,1,2025-05-07T19:54:35Z,b60275e29fe2361ab97ac0ac217840d7,"Mozilla/5.0 (Macintosh; Intel Mac OS X 10_15_7) AppleWebKit/605.1.15 (KHTML, like Gecko) Version/17.6 Safari/605.1.15",Macintosh,Safari,17.6,OS X,10_15_7,https://5puzkbbxv1.cognition.run/?sona_id=57560,"en-US,en;q=0.9",0wb80q0yfdru3au,21,"[""White""]",No,Female,NA,Yes,1230948,NA,null,<p></p>,null,choice,cdt,trinary,repulsion_B,2,washing machines,null,null,null,null,null,null,2,NA,NA,NA,NA,NA,NA,NA,NA,NA,NA
NA,NA,NA,NA,NA,choice_trial,survey-html-form,87,1119765,0.0-4.0-1.41,295,1,2025-05-07T19:54:35Z,b60275e29fe2361ab97ac0ac217840d7,"Mozilla/5.0 (Macintosh; Intel Mac OS X 10_15_7) AppleWebKit/605.1.15 (KHTML, like Gecko) Version/17.6 Safari/605.1.15",Macintosh,Safari,17.6,OS X,10_15_7,https://5puzkbbxv1.cognition.run/?sona_id=57560,"en-US,en;q=0.9",0wb80q0yfdru3au,21,"[""White""]",No,Female,NA,Yes,1230948,NA,5687,NA,"{""product_choice"":""A""}",choice,cdt,trinary,repulsion_B,2,washing machines,null,null,null,null,null,null,2,40,30,40,90,100,80,Average lifespan,Energy savings,NA,NA
NA,NA,NA,NA,NA,choice_trial_setup,html-keyboard-response,88,1120071,0.0-4.0-0.42,295,1,2025-05-07T19:54:35Z,b60275e29fe2361ab97ac0ac217840d7,"Mozilla/5.0 (Macintosh; Intel Mac OS X 10_15_7) AppleWebKit/605.1.15 (KHTML, like Gecko) Version/17.6 Safari/605.1.15",Macintosh,Safari,17.6,OS X,10_15_7,https://5puzkbbxv1.cognition.run/?sona_id=57560,"en-US,en;q=0.9",0wb80q0yfdru3au,21,"[""White""]",No,Female,NA,Yes,1230948,NA,null,<p></p>,null,choice,bw,binary,catch,null,microwave ovens,65,85,35,10,null,null,2,NA,NA,NA,NA,NA,NA,NA,NA,NA,NA
NA,NA,NA,NA,NA,choice_trial,survey-html-form,89,1124115,0.0-4.0-1.42,295,1,2025-05-07T19:54:35Z,b60275e29fe2361ab97ac0ac217840d7,"Mozilla/5.0 (Macintosh; Intel Mac OS X 10_15_7) AppleWebKit/605.1.15 (KHTML, like Gecko) Version/17.6 Safari/605.1.15",Macintosh,Safari,17.6,OS X,10_15_7,https://5puzkbbxv1.cognition.run/?sona_id=57560,"en-US,en;q=0.9",0wb80q0yfdru3au,21,"[""White""]",No,Female,NA,Yes,1230948,NA,4039,NA,"{""product_choice"":""A""}",choice,bw,binary,catch,null,microwave ovens,65,85,35,10,null,null,2,null,null,null,null,null,null,Warranty,Cooking power,NA,NA
NA,NA,NA,NA,NA,choice_trial_setup,html-keyboard-response,90,1124420,0.0-4.0-0.43,295,1,2025-05-07T19:54:35Z,b60275e29fe2361ab97ac0ac217840d7,"Mozilla/5.0 (Macintosh; Intel Mac OS X 10_15_7) AppleWebKit/605.1.15 (KHTML, like Gecko) Version/17.6 Safari/605.1.15",Macintosh,Safari,17.6,OS X,10_15_7,https://5puzkbbxv1.cognition.run/?sona_id=57560,"en-US,en;q=0.9",0wb80q0yfdru3au,21,"[""White""]",No,Female,NA,Yes,1230948,NA,null,<p></p>,null,choice,wb,binary,catch,null,laptops,50,75,50,30,null,null,1,NA,NA,NA,NA,NA,NA,NA,NA,NA,NA
NA,NA,NA,NA,NA,choice_trial,survey-html-form,91,1127583,0.0-4.0-1.43,295,1,2025-05-07T19:54:35Z,b60275e29fe2361ab97ac0ac217840d7,"Mozilla/5.0 (Macintosh; Intel Mac OS X 10_15_7) AppleWebKit/605.1.15 (KHTML, like Gecko) Version/17.6 Safari/605.1.15",Macintosh,Safari,17.6,OS X,10_15_7,https://5puzkbbxv1.cognition.run/?sona_id=57560,"en-US,en;q=0.9",0wb80q0yfdru3au,21,"[""White""]",No,Female,NA,Yes,1230948,NA,3157,NA,"{""product_choice"":""B""}",choice,wb,binary,catch,null,laptops,50,75,50,30,null,null,1,null,null,null,null,null,null,Processing speed,Memory (RAM),NA,NA
NA,NA,NA,NA,NA,post_trials_message,html-button-response,92,1130364,0.0-5.0,295,1,2025-05-07T19:54:35Z,b60275e29fe2361ab97ac0ac217840d7,"Mozilla/5.0 (Macintosh; Intel Mac OS X 10_15_7) AppleWebKit/605.1.15 (KHTML, like Gecko) Version/17.6 Safari/605.1.15",Macintosh,Safari,17.6,OS X,10_15_7,https://5puzkbbxv1.cognition.run/?sona_id=57560,"en-US,en;q=0.9",0wb80q0yfdru3au,21,"[""White""]",No,Female,NA,Yes,1230948,NA,2775,<p> <b>Thank you for your patience!</b></p><p>  The study will be done after completing a brief form. </p>,0,NA,NA,NA,NA,NA,NA,NA,NA,NA,NA,NA,NA,NA,NA,NA,NA,NA,NA,NA,NA,NA,NA,NA
NA,NA,NA,NA,NA,survey_message,survey-text,93,1186056,0.0-6.0,295,1,2025-05-07T19:54:35Z,b60275e29fe2361ab97ac0ac217840d7,"Mozilla/5.0 (Macintosh; Intel Mac OS X 10_15_7) AppleWebKit/605.1.15 (KHTML, like Gecko) Version/17.6 Safari/605.1.15",Macintosh,Safari,17.6,OS X,10_15_7,https://5puzkbbxv1.cognition.run/?sona_id=57560,"en-US,en;q=0.9",0wb80q0yfdru3au,21,"[""White""]",No,Female,NA,Yes,1230948,NA,55668,NA,"{""Q0"":""I chose my answers based on which category had higher numbers that I thought had priority over others""}",NA,NA,NA,NA,NA,NA,NA,NA,NA,NA,NA,NA,NA,NA,NA,NA,NA,NA,NA,NA,NA,I chose my answers based on which category had higher numbers that I thought had priority over others,NA
NA,NA,NA,NA,NA,demo_age,survey-text,94,1188772,0.0-7.0,295,1,2025-05-07T19:54:35Z,b60275e29fe2361ab97ac0ac217840d7,"Mozilla/5.0 (Macintosh; Intel Mac OS X 10_15_7) AppleWebKit/605.1.15 (KHTML, like Gecko) Version/17.6 Safari/605.1.15",Macintosh,Safari,17.6,OS X,10_15_7,https://5puzkbbxv1.cognition.run/?sona_id=57560,"en-US,en;q=0.9",0wb80q0yfdru3au,21,"[""White""]",No,Female,NA,Yes,1230948,NA,2704,NA,"{""Q0"":""21""}",NA,NA,NA,NA,NA,NA,NA,NA,NA,NA,NA,NA,NA,NA,NA,NA,NA,NA,NA,NA,NA,NA,NA
NA,NA,NA,NA,NA,demo_race,survey-multi-select,95,1191340,0.0-8.0,295,1,2025-05-07T19:54:35Z,b60275e29fe2361ab97ac0ac217840d7,"Mozilla/5.0 (Macintosh; Intel Mac OS X 10_15_7) AppleWebKit/605.1.15 (KHTML, like Gecko) Version/17.6 Safari/605.1.15",Macintosh,Safari,17.6,OS X,10_15_7,https://5puzkbbxv1.cognition.run/?sona_id=57560,"en-US,en;q=0.9",0wb80q0yfdru3au,21,"[""White""]",No,Female,NA,Yes,1230948,NA,2560,NA,"{""Q0"":[""White""]}",NA,NA,NA,NA,NA,NA,NA,NA,NA,NA,NA,NA,NA,NA,NA,NA,NA,NA,NA,NA,NA,NA,[0]
NA,NA,NA,NA,NA,demo_ethnicity_gender,survey-multi-choice,96,1195473,0.0-9.0,295,1,2025-05-07T19:54:35Z,b60275e29fe2361ab97ac0ac217840d7,"Mozilla/5.0 (Macintosh; Intel Mac OS X 10_15_7) AppleWebKit/605.1.15 (KHTML, like Gecko) Version/17.6 Safari/605.1.15",Macintosh,Safari,17.6,OS X,10_15_7,https://5puzkbbxv1.cognition.run/?sona_id=57560,"en-US,en;q=0.9",0wb80q0yfdru3au,21,"[""White""]",No,Female,NA,Yes,1230948,NA,4127,NA,"{""Q0"":""No"",""Q1"":""Female""}",NA,NA,NA,NA,NA,NA,NA,NA,NA,NA,NA,NA,NA,NA,NA,NA,NA,NA,NA,NA,NA,NA,"[0,1]"
NA,NA,NA,NA,NA,demo_countries,survey-text,97,1202141,0.0-10.0,295,1,2025-05-07T19:54:35Z,b60275e29fe2361ab97ac0ac217840d7,"Mozilla/5.0 (Macintosh; Intel Mac OS X 10_15_7) AppleWebKit/605.1.15 (KHTML, like Gecko) Version/17.6 Safari/605.1.15",Macintosh,Safari,17.6,OS X,10_15_7,https://5puzkbbxv1.cognition.run/?sona_id=57560,"en-US,en;q=0.9",0wb80q0yfdru3au,21,"[""White""]",No,Female,NA,Yes,1230948,NA,6662,NA,"{""Q0"":""NA""}",NA,NA,NA,NA,NA,NA,NA,NA,NA,NA,NA,NA,NA,NA,NA,NA,NA,NA,NA,NA,NA,NA,NA
NA,NA,NA,NA,NA,demo_prev_study,survey-multi-choice,98,1215090,0.0-11.0,295,1,2025-05-07T19:54:35Z,b60275e29fe2361ab97ac0ac217840d7,"Mozilla/5.0 (Macintosh; Intel Mac OS X 10_15_7) AppleWebKit/605.1.15 (KHTML, like Gecko) Version/17.6 Safari/605.1.15",Macintosh,Safari,17.6,OS X,10_15_7,https://5puzkbbxv1.cognition.run/?sona_id=57560,"en-US,en;q=0.9",0wb80q0yfdru3au,21,"[""White""]",No,Female,NA,Yes,1230948,NA,12943,NA,"{""Q0"":""Yes""}",NA,NA,NA,NA,NA,NA,NA,NA,NA,NA,NA,NA,NA,NA,NA,NA,NA,NA,NA,NA,NA,NA,[0]
NA,NA,NA,NA,NA,post_survey_message,html-keyboard-response,99,1221418,0.0-12.0,295,1,2025-05-07T19:54:35Z,b60275e29fe2361ab97ac0ac217840d7,"Mozilla/5.0 (Macintosh; Intel Mac OS X 10_15_7) AppleWebKit/605.1.15 (KHTML, like Gecko) Version/17.6 Safari/605.1.15",Macintosh,Safari,17.6,OS X,10_15_7,https://5puzkbbxv1.cognition.run/?sona_id=57560,"en-US,en;q=0.9",0wb80q0yfdru3au,21,"[""White""]",No,Female,NA,Yes,1230948,NA,6321,NA,j,NA,NA,NA,NA,NA,NA,NA,NA,NA,NA,NA,NA,NA,NA,NA,NA,NA,NA,NA,NA,NA,NA,NA
NA,NA,NA,NA,NA,debrief,image-keyboard-response,100,1231041,0.0-13.0,295,1,2025-05-07T19:54:35Z,b60275e29fe2361ab97ac0ac217840d7,"Mozilla/5.0 (Macintosh; Intel Mac OS X 10_15_7) AppleWebKit/605.1.15 (KHTML, like Gecko) Version/17.6 Safari/605.1.15",Macintosh,Safari,17.6,OS X,10_15_7,https://5puzkbbxv1.cognition.run/?sona_id=57560,"en-US,en;q=0.9",0wb80q0yfdru3au,21,"[""White""]",No,Female,NA,Yes,1230948,NA,9579,Judg_choice_debrief.png,p,NA,NA,NA,NA,NA,NA,NA,NA,NA,NA,NA,NA,NA,NA,NA,NA,NA,NA,NA,NA,NA,NA,NA
