success,timeout,failed_images,failed_audio,failed_video,screen_id,trial_type,trial_index,time_elapsed,internal_node_id,run_id,condition,recorded_at,source_code_version,user_agent,device,browser,browser_version,platform,platform_version,referer,accept_language,ppt_id,age,race,ethnicity,gender,other_countries,prev_study,exp_duration,view_history,rt,stimulus,response,phase,order,set,effect,t_high,category,d1_best,d2_best,d1_worst1,d2_worst1,d1_worst2,d2_worst2,first_dim,d1_t,d1_c,d1_d,d2_t,d2_c,d2_d,d1_name,d2_name,strategy_response,question_order
TRUE,FALSE,[],[],[],img preload,preload,0,641,0.0-0.0,298,1,2025-05-07T21:48:03Z,b60275e29fe2361ab97ac0ac217840d7,"Mozilla/5.0 (Macintosh; Intel Mac OS X 10_15_7) AppleWebKit/537.36 (KHTML, like Gecko) Chrome/136.0.0.0 Safari/537.36",Macintosh,Chrome,136.0.0.0,OS X,10_15_7,https://5puzkbbxv1.cognition.run/?sona_id=54455,"en-US,en;q=0.9",1htwdf3cbdcbnud,20,"[""White""]",No,Male,Northern Ireland - 2 years,I'm not sure,469930.200000003,NA,NA,NA,NA,NA,NA,NA,NA,NA,NA,NA,NA,NA,NA,NA,NA,NA,NA,NA,NA,NA,NA,NA,NA,NA,NA,NA
NA,NA,NA,NA,NA,computer_message,instructions,1,2936,0.0-1.0,298,1,2025-05-07T21:48:03Z,b60275e29fe2361ab97ac0ac217840d7,"Mozilla/5.0 (Macintosh; Intel Mac OS X 10_15_7) AppleWebKit/537.36 (KHTML, like Gecko) Chrome/136.0.0.0 Safari/537.36",Macintosh,Chrome,136.0.0.0,OS X,10_15_7,https://5puzkbbxv1.cognition.run/?sona_id=54455,"en-US,en;q=0.9",1htwdf3cbdcbnud,20,"[""White""]",No,Male,Northern Ireland - 2 years,I'm not sure,469930.200000003,"[{""page_index"":0,""viewing_time"":2292}]",2293,NA,NA,NA,NA,NA,NA,NA,NA,NA,NA,NA,NA,NA,NA,NA,NA,NA,NA,NA,NA,NA,NA,NA,NA,NA
TRUE,NA,NA,NA,NA,NA,fullscreen,2,5339,0.0-2.0,298,1,2025-05-07T21:48:03Z,b60275e29fe2361ab97ac0ac217840d7,"Mozilla/5.0 (Macintosh; Intel Mac OS X 10_15_7) AppleWebKit/537.36 (KHTML, like Gecko) Chrome/136.0.0.0 Safari/537.36",Macintosh,Chrome,136.0.0.0,OS X,10_15_7,https://5puzkbbxv1.cognition.run/?sona_id=54455,"en-US,en;q=0.9",1htwdf3cbdcbnud,20,"[""White""]",No,Male,Northern Ireland - 2 years,I'm not sure,469930.200000003,NA,1398,NA,NA,NA,NA,NA,NA,NA,NA,NA,NA,NA,NA,NA,NA,NA,NA,NA,NA,NA,NA,NA,NA,NA,NA,NA
NA,NA,NA,NA,NA,choice_instructions,instructions,3,42980,0.0-3.0,298,1,2025-05-07T21:48:03Z,b60275e29fe2361ab97ac0ac217840d7,"Mozilla/5.0 (Macintosh; Intel Mac OS X 10_15_7) AppleWebKit/537.36 (KHTML, like Gecko) Chrome/136.0.0.0 Safari/537.36",Macintosh,Chrome,136.0.0.0,OS X,10_15_7,https://5puzkbbxv1.cognition.run/?sona_id=54455,"en-US,en;q=0.9",1htwdf3cbdcbnud,20,"[""White""]",No,Male,Northern Ireland - 2 years,I'm not sure,469930.200000003,"[{""page_index"":0,""viewing_time"":4206},{""page_index"":1,""viewing_time"":2390},{""page_index"":2,""viewing_time"":3270},{""page_index"":3,""viewing_time"":4192},{""page_index"":4,""viewing_time"":1794},{""page_index"":5,""viewing_time"":12364},{""page_index"":6,""viewing_time"":9422}]",37639,NA,NA,NA,NA,NA,NA,NA,NA,NA,NA,NA,NA,NA,NA,NA,NA,NA,NA,NA,NA,NA,NA,NA,NA,NA
NA,NA,NA,NA,NA,choice_trial_setup,html-keyboard-response,4,43284,0.0-4.0-0.0,298,1,2025-05-07T21:48:03Z,b60275e29fe2361ab97ac0ac217840d7,"Mozilla/5.0 (Macintosh; Intel Mac OS X 10_15_7) AppleWebKit/537.36 (KHTML, like Gecko) Chrome/136.0.0.0 Safari/537.36",Macintosh,Chrome,136.0.0.0,OS X,10_15_7,https://5puzkbbxv1.cognition.run/?sona_id=54455,"en-US,en;q=0.9",1htwdf3cbdcbnud,20,"[""White""]",No,Male,Northern Ireland - 2 years,I'm not sure,469930.200000003,NA,null,<p></p>,null,choice,tc,binary,repulsion,1,televisions,null,null,null,null,null,null,2,NA,NA,NA,NA,NA,NA,NA,NA,NA,NA
NA,NA,NA,NA,NA,choice_trial,survey-html-form,5,48959,0.0-4.0-1.0,298,1,2025-05-07T21:48:03Z,b60275e29fe2361ab97ac0ac217840d7,"Mozilla/5.0 (Macintosh; Intel Mac OS X 10_15_7) AppleWebKit/537.36 (KHTML, like Gecko) Chrome/136.0.0.0 Safari/537.36",Macintosh,Chrome,136.0.0.0,OS X,10_15_7,https://5puzkbbxv1.cognition.run/?sona_id=54455,"en-US,en;q=0.9",1htwdf3cbdcbnud,20,"[""White""]",No,Male,Northern Ireland - 2 years,I'm not sure,469930.200000003,NA,5670,NA,"{""product_choice"":""B""}",choice,tc,binary,repulsion,1,televisions,null,null,null,null,null,null,2,100,90,null,30,40,null,Screen size,Average lifespan,NA,NA
NA,NA,NA,NA,NA,choice_trial_setup,html-keyboard-response,6,49263,0.0-4.0-0.1,298,1,2025-05-07T21:48:03Z,b60275e29fe2361ab97ac0ac217840d7,"Mozilla/5.0 (Macintosh; Intel Mac OS X 10_15_7) AppleWebKit/537.36 (KHTML, like Gecko) Chrome/136.0.0.0 Safari/537.36",Macintosh,Chrome,136.0.0.0,OS X,10_15_7,https://5puzkbbxv1.cognition.run/?sona_id=54455,"en-US,en;q=0.9",1htwdf3cbdcbnud,20,"[""White""]",No,Male,Northern Ireland - 2 years,I'm not sure,469930.200000003,NA,null,<p></p>,null,choice,dtc,trinary,attraction,1,washing machines,null,null,null,null,null,null,1,NA,NA,NA,NA,NA,NA,NA,NA,NA,NA
NA,NA,NA,NA,NA,choice_trial,survey-html-form,7,54084,0.0-4.0-1.1,298,1,2025-05-07T21:48:03Z,b60275e29fe2361ab97ac0ac217840d7,"Mozilla/5.0 (Macintosh; Intel Mac OS X 10_15_7) AppleWebKit/537.36 (KHTML, like Gecko) Chrome/136.0.0.0 Safari/537.36",Macintosh,Chrome,136.0.0.0,OS X,10_15_7,https://5puzkbbxv1.cognition.run/?sona_id=54455,"en-US,en;q=0.9",1htwdf3cbdcbnud,20,"[""White""]",No,Male,Northern Ireland - 2 years,I'm not sure,469930.200000003,NA,4817,NA,"{""product_choice"":""B""}",choice,dtc,trinary,attraction,1,washing machines,null,null,null,null,null,null,1,60,50,60,50,60,40,Average lifespan,Energy savings,NA,NA
NA,NA,NA,NA,NA,choice_trial_setup,html-keyboard-response,8,54388,0.0-4.0-0.2,298,1,2025-05-07T21:48:03Z,b60275e29fe2361ab97ac0ac217840d7,"Mozilla/5.0 (Macintosh; Intel Mac OS X 10_15_7) AppleWebKit/537.36 (KHTML, like Gecko) Chrome/136.0.0.0 Safari/537.36",Macintosh,Chrome,136.0.0.0,OS X,10_15_7,https://5puzkbbxv1.cognition.run/?sona_id=54455,"en-US,en;q=0.9",1htwdf3cbdcbnud,20,"[""White""]",No,Male,Northern Ireland - 2 years,I'm not sure,469930.200000003,NA,null,<p></p>,null,choice,ctd,trinary,attraction,1,microwave ovens,null,null,null,null,null,null,2,NA,NA,NA,NA,NA,NA,NA,NA,NA,NA
NA,NA,NA,NA,NA,choice_trial,survey-html-form,9,59867,0.0-4.0-1.2,298,1,2025-05-07T21:48:03Z,b60275e29fe2361ab97ac0ac217840d7,"Mozilla/5.0 (Macintosh; Intel Mac OS X 10_15_7) AppleWebKit/537.36 (KHTML, like Gecko) Chrome/136.0.0.0 Safari/537.36",Macintosh,Chrome,136.0.0.0,OS X,10_15_7,https://5puzkbbxv1.cognition.run/?sona_id=54455,"en-US,en;q=0.9",1htwdf3cbdcbnud,20,"[""White""]",No,Male,Northern Ireland - 2 years,I'm not sure,469930.200000003,NA,5475,NA,"{""product_choice"":""B""}",choice,ctd,trinary,attraction,1,microwave ovens,null,null,null,null,null,null,2,60,50,60,50,60,40,Warranty,Cooking power,NA,NA
NA,NA,NA,NA,NA,choice_trial_setup,html-keyboard-response,10,60171,0.0-4.0-0.3,298,1,2025-05-07T21:48:03Z,b60275e29fe2361ab97ac0ac217840d7,"Mozilla/5.0 (Macintosh; Intel Mac OS X 10_15_7) AppleWebKit/537.36 (KHTML, like Gecko) Chrome/136.0.0.0 Safari/537.36",Macintosh,Chrome,136.0.0.0,OS X,10_15_7,https://5puzkbbxv1.cognition.run/?sona_id=54455,"en-US,en;q=0.9",1htwdf3cbdcbnud,20,"[""White""]",No,Male,Northern Ireland - 2 years,I'm not sure,469930.200000003,NA,null,<p></p>,null,choice,dtc,trinary,repulsion_A,2,televisions,null,null,null,null,null,null,1,NA,NA,NA,NA,NA,NA,NA,NA,NA,NA
NA,NA,NA,NA,NA,choice_trial,survey-html-form,11,65138,0.0-4.0-1.3,298,1,2025-05-07T21:48:03Z,b60275e29fe2361ab97ac0ac217840d7,"Mozilla/5.0 (Macintosh; Intel Mac OS X 10_15_7) AppleWebKit/537.36 (KHTML, like Gecko) Chrome/136.0.0.0 Safari/537.36",Macintosh,Chrome,136.0.0.0,OS X,10_15_7,https://5puzkbbxv1.cognition.run/?sona_id=54455,"en-US,en;q=0.9",1htwdf3cbdcbnud,20,"[""White""]",No,Male,Northern Ireland - 2 years,I'm not sure,469930.200000003,NA,4964,NA,"{""product_choice"":""B""}",choice,dtc,trinary,repulsion_A,2,televisions,null,null,null,null,null,null,1,30,40,20,100,90,100,Screen size,Average lifespan,NA,NA
NA,NA,NA,NA,NA,choice_trial_setup,html-keyboard-response,12,65442,0.0-4.0-0.4,298,1,2025-05-07T21:48:03Z,b60275e29fe2361ab97ac0ac217840d7,"Mozilla/5.0 (Macintosh; Intel Mac OS X 10_15_7) AppleWebKit/537.36 (KHTML, like Gecko) Chrome/136.0.0.0 Safari/537.36",Macintosh,Chrome,136.0.0.0,OS X,10_15_7,https://5puzkbbxv1.cognition.run/?sona_id=54455,"en-US,en;q=0.9",1htwdf3cbdcbnud,20,"[""White""]",No,Male,Northern Ireland - 2 years,I'm not sure,469930.200000003,NA,null,<p></p>,null,choice,tcd,trinary,attraction,1,laptops,null,null,null,null,null,null,2,NA,NA,NA,NA,NA,NA,NA,NA,NA,NA
NA,NA,NA,NA,NA,choice_trial,survey-html-form,13,69123,0.0-4.0-1.4,298,1,2025-05-07T21:48:03Z,b60275e29fe2361ab97ac0ac217840d7,"Mozilla/5.0 (Macintosh; Intel Mac OS X 10_15_7) AppleWebKit/537.36 (KHTML, like Gecko) Chrome/136.0.0.0 Safari/537.36",Macintosh,Chrome,136.0.0.0,OS X,10_15_7,https://5puzkbbxv1.cognition.run/?sona_id=54455,"en-US,en;q=0.9",1htwdf3cbdcbnud,20,"[""White""]",No,Male,Northern Ireland - 2 years,I'm not sure,469930.200000003,NA,3677,NA,"{""product_choice"":""B""}",choice,tcd,trinary,attraction,1,laptops,null,null,null,null,null,null,2,60,50,60,50,60,40,Processing speed,Memory (RAM),NA,NA
NA,NA,NA,NA,NA,choice_trial_setup,html-keyboard-response,14,69426,0.0-4.0-0.5,298,1,2025-05-07T21:48:03Z,b60275e29fe2361ab97ac0ac217840d7,"Mozilla/5.0 (Macintosh; Intel Mac OS X 10_15_7) AppleWebKit/537.36 (KHTML, like Gecko) Chrome/136.0.0.0 Safari/537.36",Macintosh,Chrome,136.0.0.0,OS X,10_15_7,https://5puzkbbxv1.cognition.run/?sona_id=54455,"en-US,en;q=0.9",1htwdf3cbdcbnud,20,"[""White""]",No,Male,Northern Ireland - 2 years,I'm not sure,469930.200000003,NA,null,<p></p>,null,choice,ct,binary,repulsion,1,microwave ovens,null,null,null,null,null,null,2,NA,NA,NA,NA,NA,NA,NA,NA,NA,NA
NA,NA,NA,NA,NA,choice_trial,survey-html-form,15,73322,0.0-4.0-1.5,298,1,2025-05-07T21:48:03Z,b60275e29fe2361ab97ac0ac217840d7,"Mozilla/5.0 (Macintosh; Intel Mac OS X 10_15_7) AppleWebKit/537.36 (KHTML, like Gecko) Chrome/136.0.0.0 Safari/537.36",Macintosh,Chrome,136.0.0.0,OS X,10_15_7,https://5puzkbbxv1.cognition.run/?sona_id=54455,"en-US,en;q=0.9",1htwdf3cbdcbnud,20,"[""White""]",No,Male,Northern Ireland - 2 years,I'm not sure,469930.200000003,NA,3892,NA,"{""product_choice"":""A""}",choice,ct,binary,repulsion,1,microwave ovens,null,null,null,null,null,null,2,100,90,null,30,40,null,Warranty,Cooking power,NA,NA
NA,NA,NA,NA,NA,choice_trial_setup,html-keyboard-response,16,73627,0.0-4.0-0.6,298,1,2025-05-07T21:48:03Z,b60275e29fe2361ab97ac0ac217840d7,"Mozilla/5.0 (Macintosh; Intel Mac OS X 10_15_7) AppleWebKit/537.36 (KHTML, like Gecko) Chrome/136.0.0.0 Safari/537.36",Macintosh,Chrome,136.0.0.0,OS X,10_15_7,https://5puzkbbxv1.cognition.run/?sona_id=54455,"en-US,en;q=0.9",1htwdf3cbdcbnud,20,"[""White""]",No,Male,Northern Ireland - 2 years,I'm not sure,469930.200000003,NA,null,<p></p>,null,choice,cdt,trinary,repulsion_B,2,televisions,null,null,null,null,null,null,2,NA,NA,NA,NA,NA,NA,NA,NA,NA,NA
NA,NA,NA,NA,NA,choice_trial,survey-html-form,17,78993,0.0-4.0-1.6,298,1,2025-05-07T21:48:03Z,b60275e29fe2361ab97ac0ac217840d7,"Mozilla/5.0 (Macintosh; Intel Mac OS X 10_15_7) AppleWebKit/537.36 (KHTML, like Gecko) Chrome/136.0.0.0 Safari/537.36",Macintosh,Chrome,136.0.0.0,OS X,10_15_7,https://5puzkbbxv1.cognition.run/?sona_id=54455,"en-US,en;q=0.9",1htwdf3cbdcbnud,20,"[""White""]",No,Male,Northern Ireland - 2 years,I'm not sure,469930.200000003,NA,5363,NA,"{""product_choice"":""C""}",choice,cdt,trinary,repulsion_B,2,televisions,null,null,null,null,null,null,2,40,30,40,90,100,80,Screen size,Average lifespan,NA,NA
NA,NA,NA,NA,NA,choice_trial_setup,html-keyboard-response,18,79297,0.0-4.0-0.7,298,1,2025-05-07T21:48:03Z,b60275e29fe2361ab97ac0ac217840d7,"Mozilla/5.0 (Macintosh; Intel Mac OS X 10_15_7) AppleWebKit/537.36 (KHTML, like Gecko) Chrome/136.0.0.0 Safari/537.36",Macintosh,Chrome,136.0.0.0,OS X,10_15_7,https://5puzkbbxv1.cognition.run/?sona_id=54455,"en-US,en;q=0.9",1htwdf3cbdcbnud,20,"[""White""]",No,Male,Northern Ireland - 2 years,I'm not sure,469930.200000003,NA,null,<p></p>,null,choice,wb,binary,catch,null,televisions,65,65,35,45,null,null,1,NA,NA,NA,NA,NA,NA,NA,NA,NA,NA
NA,NA,NA,NA,NA,choice_trial,survey-html-form,19,83916,0.0-4.0-1.7,298,1,2025-05-07T21:48:03Z,b60275e29fe2361ab97ac0ac217840d7,"Mozilla/5.0 (Macintosh; Intel Mac OS X 10_15_7) AppleWebKit/537.36 (KHTML, like Gecko) Chrome/136.0.0.0 Safari/537.36",Macintosh,Chrome,136.0.0.0,OS X,10_15_7,https://5puzkbbxv1.cognition.run/?sona_id=54455,"en-US,en;q=0.9",1htwdf3cbdcbnud,20,"[""White""]",No,Male,Northern Ireland - 2 years,I'm not sure,469930.200000003,NA,4613,NA,"{""product_choice"":""B""}",choice,wb,binary,catch,null,televisions,65,65,35,45,null,null,1,null,null,null,null,null,null,Screen size,Average lifespan,NA,NA
NA,NA,NA,NA,NA,choice_trial_setup,html-keyboard-response,20,84220,0.0-4.0-0.8,298,1,2025-05-07T21:48:03Z,b60275e29fe2361ab97ac0ac217840d7,"Mozilla/5.0 (Macintosh; Intel Mac OS X 10_15_7) AppleWebKit/537.36 (KHTML, like Gecko) Chrome/136.0.0.0 Safari/537.36",Macintosh,Chrome,136.0.0.0,OS X,10_15_7,https://5puzkbbxv1.cognition.run/?sona_id=54455,"en-US,en;q=0.9",1htwdf3cbdcbnud,20,"[""White""]",No,Male,Northern Ireland - 2 years,I'm not sure,469930.200000003,NA,null,<p></p>,null,choice,tc,binary,attraction,NA,laptops,null,null,null,null,null,null,1,NA,NA,NA,NA,NA,NA,NA,NA,NA,NA
NA,NA,NA,NA,NA,choice_trial,survey-html-form,21,89047,0.0-4.0-1.8,298,1,2025-05-07T21:48:03Z,b60275e29fe2361ab97ac0ac217840d7,"Mozilla/5.0 (Macintosh; Intel Mac OS X 10_15_7) AppleWebKit/537.36 (KHTML, like Gecko) Chrome/136.0.0.0 Safari/537.36",Macintosh,Chrome,136.0.0.0,OS X,10_15_7,https://5puzkbbxv1.cognition.run/?sona_id=54455,"en-US,en;q=0.9",1htwdf3cbdcbnud,20,"[""White""]",No,Male,Northern Ireland - 2 years,I'm not sure,469930.200000003,NA,4822,NA,"{""product_choice"":""A""}",choice,tc,binary,attraction,NA,laptops,null,null,null,null,null,null,1,60,50,null,50,60,null,Processing speed,Memory (RAM),NA,NA
NA,NA,NA,NA,NA,choice_trial_setup,html-keyboard-response,22,89350,0.0-4.0-0.9,298,1,2025-05-07T21:48:03Z,b60275e29fe2361ab97ac0ac217840d7,"Mozilla/5.0 (Macintosh; Intel Mac OS X 10_15_7) AppleWebKit/537.36 (KHTML, like Gecko) Chrome/136.0.0.0 Safari/537.36",Macintosh,Chrome,136.0.0.0,OS X,10_15_7,https://5puzkbbxv1.cognition.run/?sona_id=54455,"en-US,en;q=0.9",1htwdf3cbdcbnud,20,"[""White""]",No,Male,Northern Ireland - 2 years,I'm not sure,469930.200000003,NA,null,<p></p>,null,choice,tdc,trinary,repulsion_A,2,laptops,null,null,null,null,null,null,1,NA,NA,NA,NA,NA,NA,NA,NA,NA,NA
NA,NA,NA,NA,NA,choice_trial,survey-html-form,23,97309,0.0-4.0-1.9,298,1,2025-05-07T21:48:03Z,b60275e29fe2361ab97ac0ac217840d7,"Mozilla/5.0 (Macintosh; Intel Mac OS X 10_15_7) AppleWebKit/537.36 (KHTML, like Gecko) Chrome/136.0.0.0 Safari/537.36",Macintosh,Chrome,136.0.0.0,OS X,10_15_7,https://5puzkbbxv1.cognition.run/?sona_id=54455,"en-US,en;q=0.9",1htwdf3cbdcbnud,20,"[""White""]",No,Male,Northern Ireland - 2 years,I'm not sure,469930.200000003,NA,7955,NA,"{""product_choice"":""C""}",choice,tdc,trinary,repulsion_A,2,laptops,null,null,null,null,null,null,1,30,40,20,100,90,100,Processing speed,Memory (RAM),NA,NA
NA,NA,NA,NA,NA,choice_trial_setup,html-keyboard-response,24,97613,0.0-4.0-0.10,298,1,2025-05-07T21:48:03Z,b60275e29fe2361ab97ac0ac217840d7,"Mozilla/5.0 (Macintosh; Intel Mac OS X 10_15_7) AppleWebKit/537.36 (KHTML, like Gecko) Chrome/136.0.0.0 Safari/537.36",Macintosh,Chrome,136.0.0.0,OS X,10_15_7,https://5puzkbbxv1.cognition.run/?sona_id=54455,"en-US,en;q=0.9",1htwdf3cbdcbnud,20,"[""White""]",No,Male,Northern Ireland - 2 years,I'm not sure,469930.200000003,NA,null,<p></p>,null,choice,ct,binary,repulsion,2,microwave ovens,null,null,null,null,null,null,2,NA,NA,NA,NA,NA,NA,NA,NA,NA,NA
NA,NA,NA,NA,NA,choice_trial,survey-html-form,25,142389,0.0-4.0-1.10,298,1,2025-05-07T21:48:03Z,b60275e29fe2361ab97ac0ac217840d7,"Mozilla/5.0 (Macintosh; Intel Mac OS X 10_15_7) AppleWebKit/537.36 (KHTML, like Gecko) Chrome/136.0.0.0 Safari/537.36",Macintosh,Chrome,136.0.0.0,OS X,10_15_7,https://5puzkbbxv1.cognition.run/?sona_id=54455,"en-US,en;q=0.9",1htwdf3cbdcbnud,20,"[""White""]",No,Male,Northern Ireland - 2 years,I'm not sure,469930.200000003,NA,44769,NA,"{""product_choice"":""B""}",choice,ct,binary,repulsion,2,microwave ovens,null,null,null,null,null,null,2,30,40,null,100,90,null,Warranty,Cooking power,NA,NA
NA,NA,NA,NA,NA,choice_trial_setup,html-keyboard-response,26,142693,0.0-4.0-0.11,298,1,2025-05-07T21:48:03Z,b60275e29fe2361ab97ac0ac217840d7,"Mozilla/5.0 (Macintosh; Intel Mac OS X 10_15_7) AppleWebKit/537.36 (KHTML, like Gecko) Chrome/136.0.0.0 Safari/537.36",Macintosh,Chrome,136.0.0.0,OS X,10_15_7,https://5puzkbbxv1.cognition.run/?sona_id=54455,"en-US,en;q=0.9",1htwdf3cbdcbnud,20,"[""White""]",No,Male,Northern Ireland - 2 years,I'm not sure,469930.200000003,NA,null,<p></p>,null,choice,dtc,trinary,repulsion_B,1,televisions,null,null,null,null,null,null,2,NA,NA,NA,NA,NA,NA,NA,NA,NA,NA
NA,NA,NA,NA,NA,choice_trial,survey-html-form,27,145692,0.0-4.0-1.11,298,1,2025-05-07T21:48:03Z,b60275e29fe2361ab97ac0ac217840d7,"Mozilla/5.0 (Macintosh; Intel Mac OS X 10_15_7) AppleWebKit/537.36 (KHTML, like Gecko) Chrome/136.0.0.0 Safari/537.36",Macintosh,Chrome,136.0.0.0,OS X,10_15_7,https://5puzkbbxv1.cognition.run/?sona_id=54455,"en-US,en;q=0.9",1htwdf3cbdcbnud,20,"[""White""]",No,Male,Northern Ireland - 2 years,I'm not sure,469930.200000003,NA,2993,NA,"{""product_choice"":""B""}",choice,dtc,trinary,repulsion_B,1,televisions,null,null,null,null,null,null,2,90,100,80,40,30,40,Screen size,Average lifespan,NA,NA
NA,NA,NA,NA,NA,choice_trial_setup,html-keyboard-response,28,145997,0.0-4.0-0.12,298,1,2025-05-07T21:48:03Z,b60275e29fe2361ab97ac0ac217840d7,"Mozilla/5.0 (Macintosh; Intel Mac OS X 10_15_7) AppleWebKit/537.36 (KHTML, like Gecko) Chrome/136.0.0.0 Safari/537.36",Macintosh,Chrome,136.0.0.0,OS X,10_15_7,https://5puzkbbxv1.cognition.run/?sona_id=54455,"en-US,en;q=0.9",1htwdf3cbdcbnud,20,"[""White""]",No,Male,Northern Ireland - 2 years,I'm not sure,469930.200000003,NA,null,<p></p>,null,choice,dct,trinary,repulsion_B,1,microwave ovens,null,null,null,null,null,null,2,NA,NA,NA,NA,NA,NA,NA,NA,NA,NA
NA,NA,NA,NA,NA,choice_trial,survey-html-form,29,149533,0.0-4.0-1.12,298,1,2025-05-07T21:48:03Z,b60275e29fe2361ab97ac0ac217840d7,"Mozilla/5.0 (Macintosh; Intel Mac OS X 10_15_7) AppleWebKit/537.36 (KHTML, like Gecko) Chrome/136.0.0.0 Safari/537.36",Macintosh,Chrome,136.0.0.0,OS X,10_15_7,https://5puzkbbxv1.cognition.run/?sona_id=54455,"en-US,en;q=0.9",1htwdf3cbdcbnud,20,"[""White""]",No,Male,Northern Ireland - 2 years,I'm not sure,469930.200000003,NA,3532,NA,"{""product_choice"":""C""}",choice,dct,trinary,repulsion_B,1,microwave ovens,null,null,null,null,null,null,2,90,100,80,40,30,40,Warranty,Cooking power,NA,NA
NA,NA,NA,NA,NA,choice_trial_setup,html-keyboard-response,30,149838,0.0-4.0-0.13,298,1,2025-05-07T21:48:03Z,b60275e29fe2361ab97ac0ac217840d7,"Mozilla/5.0 (Macintosh; Intel Mac OS X 10_15_7) AppleWebKit/537.36 (KHTML, like Gecko) Chrome/136.0.0.0 Safari/537.36",Macintosh,Chrome,136.0.0.0,OS X,10_15_7,https://5puzkbbxv1.cognition.run/?sona_id=54455,"en-US,en;q=0.9",1htwdf3cbdcbnud,20,"[""White""]",No,Male,Northern Ireland - 2 years,I'm not sure,469930.200000003,NA,null,<p></p>,null,choice,tcd,trinary,repulsion_A,2,washing machines,null,null,null,null,null,null,2,NA,NA,NA,NA,NA,NA,NA,NA,NA,NA
NA,NA,NA,NA,NA,choice_trial,survey-html-form,31,158135,0.0-4.0-1.13,298,1,2025-05-07T21:48:03Z,b60275e29fe2361ab97ac0ac217840d7,"Mozilla/5.0 (Macintosh; Intel Mac OS X 10_15_7) AppleWebKit/537.36 (KHTML, like Gecko) Chrome/136.0.0.0 Safari/537.36",Macintosh,Chrome,136.0.0.0,OS X,10_15_7,https://5puzkbbxv1.cognition.run/?sona_id=54455,"en-US,en;q=0.9",1htwdf3cbdcbnud,20,"[""White""]",No,Male,Northern Ireland - 2 years,I'm not sure,469930.200000003,NA,8293,NA,"{""product_choice"":""A""}",choice,tcd,trinary,repulsion_A,2,washing machines,null,null,null,null,null,null,2,30,40,20,100,90,100,Average lifespan,Energy savings,NA,NA
NA,NA,NA,NA,NA,choice_trial_setup,html-keyboard-response,32,158440,0.0-4.0-0.14,298,1,2025-05-07T21:48:03Z,b60275e29fe2361ab97ac0ac217840d7,"Mozilla/5.0 (Macintosh; Intel Mac OS X 10_15_7) AppleWebKit/537.36 (KHTML, like Gecko) Chrome/136.0.0.0 Safari/537.36",Macintosh,Chrome,136.0.0.0,OS X,10_15_7,https://5puzkbbxv1.cognition.run/?sona_id=54455,"en-US,en;q=0.9",1htwdf3cbdcbnud,20,"[""White""]",No,Male,Northern Ireland - 2 years,I'm not sure,469930.200000003,NA,null,<p></p>,null,choice,tdc,trinary,repulsion_B,1,laptops,null,null,null,null,null,null,2,NA,NA,NA,NA,NA,NA,NA,NA,NA,NA
NA,NA,NA,NA,NA,choice_trial,survey-html-form,33,176634,0.0-4.0-1.14,298,1,2025-05-07T21:48:03Z,b60275e29fe2361ab97ac0ac217840d7,"Mozilla/5.0 (Macintosh; Intel Mac OS X 10_15_7) AppleWebKit/537.36 (KHTML, like Gecko) Chrome/136.0.0.0 Safari/537.36",Macintosh,Chrome,136.0.0.0,OS X,10_15_7,https://5puzkbbxv1.cognition.run/?sona_id=54455,"en-US,en;q=0.9",1htwdf3cbdcbnud,20,"[""White""]",No,Male,Northern Ireland - 2 years,I'm not sure,469930.200000003,NA,18189,NA,"{""product_choice"":""C""}",choice,tdc,trinary,repulsion_B,1,laptops,null,null,null,null,null,null,2,90,100,80,40,30,40,Processing speed,Memory (RAM),NA,NA
NA,NA,NA,NA,NA,choice_trial_setup,html-keyboard-response,34,176939,0.0-4.0-0.15,298,1,2025-05-07T21:48:03Z,b60275e29fe2361ab97ac0ac217840d7,"Mozilla/5.0 (Macintosh; Intel Mac OS X 10_15_7) AppleWebKit/537.36 (KHTML, like Gecko) Chrome/136.0.0.0 Safari/537.36",Macintosh,Chrome,136.0.0.0,OS X,10_15_7,https://5puzkbbxv1.cognition.run/?sona_id=54455,"en-US,en;q=0.9",1htwdf3cbdcbnud,20,"[""White""]",No,Male,Northern Ireland - 2 years,I'm not sure,469930.200000003,NA,null,<p></p>,null,choice,wbw,trinary,catch,null,laptops,50,90,5,15,25,5,1,NA,NA,NA,NA,NA,NA,NA,NA,NA,NA
NA,NA,NA,NA,NA,choice_trial,survey-html-form,35,181254,0.0-4.0-1.15,298,1,2025-05-07T21:48:03Z,b60275e29fe2361ab97ac0ac217840d7,"Mozilla/5.0 (Macintosh; Intel Mac OS X 10_15_7) AppleWebKit/537.36 (KHTML, like Gecko) Chrome/136.0.0.0 Safari/537.36",Macintosh,Chrome,136.0.0.0,OS X,10_15_7,https://5puzkbbxv1.cognition.run/?sona_id=54455,"en-US,en;q=0.9",1htwdf3cbdcbnud,20,"[""White""]",No,Male,Northern Ireland - 2 years,I'm not sure,469930.200000003,NA,4310,NA,"{""product_choice"":""B""}",choice,wbw,trinary,catch,null,laptops,50,90,5,15,25,5,1,null,null,null,null,null,null,Processing speed,Memory (RAM),NA,NA
NA,NA,NA,NA,NA,choice_trial_setup,html-keyboard-response,36,181558,0.0-4.0-0.16,298,1,2025-05-07T21:48:03Z,b60275e29fe2361ab97ac0ac217840d7,"Mozilla/5.0 (Macintosh; Intel Mac OS X 10_15_7) AppleWebKit/537.36 (KHTML, like Gecko) Chrome/136.0.0.0 Safari/537.36",Macintosh,Chrome,136.0.0.0,OS X,10_15_7,https://5puzkbbxv1.cognition.run/?sona_id=54455,"en-US,en;q=0.9",1htwdf3cbdcbnud,20,"[""White""]",No,Male,Northern Ireland - 2 years,I'm not sure,469930.200000003,NA,null,<p></p>,null,choice,wwb,trinary,catch,null,microwave ovens,90,65,35,10,40,15,2,NA,NA,NA,NA,NA,NA,NA,NA,NA,NA
NA,NA,NA,NA,NA,choice_trial,survey-html-form,37,184295,0.0-4.0-1.16,298,1,2025-05-07T21:48:03Z,b60275e29fe2361ab97ac0ac217840d7,"Mozilla/5.0 (Macintosh; Intel Mac OS X 10_15_7) AppleWebKit/537.36 (KHTML, like Gecko) Chrome/136.0.0.0 Safari/537.36",Macintosh,Chrome,136.0.0.0,OS X,10_15_7,https://5puzkbbxv1.cognition.run/?sona_id=54455,"en-US,en;q=0.9",1htwdf3cbdcbnud,20,"[""White""]",No,Male,Northern Ireland - 2 years,I'm not sure,469930.200000003,NA,2731,NA,"{""product_choice"":""C""}",choice,wwb,trinary,catch,null,microwave ovens,90,65,35,10,40,15,2,null,null,null,null,null,null,Warranty,Cooking power,NA,NA
NA,NA,NA,NA,NA,choice_trial_setup,html-keyboard-response,38,184600,0.0-4.0-0.17,298,1,2025-05-07T21:48:03Z,b60275e29fe2361ab97ac0ac217840d7,"Mozilla/5.0 (Macintosh; Intel Mac OS X 10_15_7) AppleWebKit/537.36 (KHTML, like Gecko) Chrome/136.0.0.0 Safari/537.36",Macintosh,Chrome,136.0.0.0,OS X,10_15_7,https://5puzkbbxv1.cognition.run/?sona_id=54455,"en-US,en;q=0.9",1htwdf3cbdcbnud,20,"[""White""]",No,Male,Northern Ireland - 2 years,I'm not sure,469930.200000003,NA,null,<p></p>,null,choice,dct,trinary,attraction,2,microwave ovens,null,null,null,null,null,null,1,NA,NA,NA,NA,NA,NA,NA,NA,NA,NA
NA,NA,NA,NA,NA,choice_trial,survey-html-form,39,190217,0.0-4.0-1.17,298,1,2025-05-07T21:48:03Z,b60275e29fe2361ab97ac0ac217840d7,"Mozilla/5.0 (Macintosh; Intel Mac OS X 10_15_7) AppleWebKit/537.36 (KHTML, like Gecko) Chrome/136.0.0.0 Safari/537.36",Macintosh,Chrome,136.0.0.0,OS X,10_15_7,https://5puzkbbxv1.cognition.run/?sona_id=54455,"en-US,en;q=0.9",1htwdf3cbdcbnud,20,"[""White""]",No,Male,Northern Ireland - 2 years,I'm not sure,469930.200000003,NA,5612,NA,"{""product_choice"":""C""}",choice,dct,trinary,attraction,2,microwave ovens,null,null,null,null,null,null,1,50,60,40,60,50,60,Warranty,Cooking power,NA,NA
NA,NA,NA,NA,NA,choice_trial_setup,html-keyboard-response,40,190520,0.0-4.0-0.18,298,1,2025-05-07T21:48:03Z,b60275e29fe2361ab97ac0ac217840d7,"Mozilla/5.0 (Macintosh; Intel Mac OS X 10_15_7) AppleWebKit/537.36 (KHTML, like Gecko) Chrome/136.0.0.0 Safari/537.36",Macintosh,Chrome,136.0.0.0,OS X,10_15_7,https://5puzkbbxv1.cognition.run/?sona_id=54455,"en-US,en;q=0.9",1htwdf3cbdcbnud,20,"[""White""]",No,Male,Northern Ireland - 2 years,I'm not sure,469930.200000003,NA,null,<p></p>,null,choice,tc,binary,attraction,NA,microwave ovens,null,null,null,null,null,null,2,NA,NA,NA,NA,NA,NA,NA,NA,NA,NA
NA,NA,NA,NA,NA,choice_trial,survey-html-form,41,193347,0.0-4.0-1.18,298,1,2025-05-07T21:48:03Z,b60275e29fe2361ab97ac0ac217840d7,"Mozilla/5.0 (Macintosh; Intel Mac OS X 10_15_7) AppleWebKit/537.36 (KHTML, like Gecko) Chrome/136.0.0.0 Safari/537.36",Macintosh,Chrome,136.0.0.0,OS X,10_15_7,https://5puzkbbxv1.cognition.run/?sona_id=54455,"en-US,en;q=0.9",1htwdf3cbdcbnud,20,"[""White""]",No,Male,Northern Ireland - 2 years,I'm not sure,469930.200000003,NA,2822,NA,"{""product_choice"":""B""}",choice,tc,binary,attraction,NA,microwave ovens,null,null,null,null,null,null,2,60,50,null,50,60,null,Warranty,Cooking power,NA,NA
NA,NA,NA,NA,NA,choice_trial_setup,html-keyboard-response,42,193652,0.0-4.0-0.19,298,1,2025-05-07T21:48:03Z,b60275e29fe2361ab97ac0ac217840d7,"Mozilla/5.0 (Macintosh; Intel Mac OS X 10_15_7) AppleWebKit/537.36 (KHTML, like Gecko) Chrome/136.0.0.0 Safari/537.36",Macintosh,Chrome,136.0.0.0,OS X,10_15_7,https://5puzkbbxv1.cognition.run/?sona_id=54455,"en-US,en;q=0.9",1htwdf3cbdcbnud,20,"[""White""]",No,Male,Northern Ireland - 2 years,I'm not sure,469930.200000003,NA,null,<p></p>,null,choice,tcd,trinary,attraction,2,televisions,null,null,null,null,null,null,2,NA,NA,NA,NA,NA,NA,NA,NA,NA,NA
NA,NA,NA,NA,NA,choice_trial,survey-html-form,43,228982,0.0-4.0-1.19,298,1,2025-05-07T21:48:03Z,b60275e29fe2361ab97ac0ac217840d7,"Mozilla/5.0 (Macintosh; Intel Mac OS X 10_15_7) AppleWebKit/537.36 (KHTML, like Gecko) Chrome/136.0.0.0 Safari/537.36",Macintosh,Chrome,136.0.0.0,OS X,10_15_7,https://5puzkbbxv1.cognition.run/?sona_id=54455,"en-US,en;q=0.9",1htwdf3cbdcbnud,20,"[""White""]",No,Male,Northern Ireland - 2 years,I'm not sure,469930.200000003,NA,35325,NA,"{""product_choice"":""A""}",choice,tcd,trinary,attraction,2,televisions,null,null,null,null,null,null,2,50,60,40,60,50,60,Screen size,Average lifespan,NA,NA
NA,NA,NA,NA,NA,choice_trial_setup,html-keyboard-response,44,229287,0.0-4.0-0.20,298,1,2025-05-07T21:48:03Z,b60275e29fe2361ab97ac0ac217840d7,"Mozilla/5.0 (Macintosh; Intel Mac OS X 10_15_7) AppleWebKit/537.36 (KHTML, like Gecko) Chrome/136.0.0.0 Safari/537.36",Macintosh,Chrome,136.0.0.0,OS X,10_15_7,https://5puzkbbxv1.cognition.run/?sona_id=54455,"en-US,en;q=0.9",1htwdf3cbdcbnud,20,"[""White""]",No,Male,Northern Ireland - 2 years,I'm not sure,469930.200000003,NA,null,<p></p>,null,choice,tcd,trinary,repulsion_A,1,washing machines,null,null,null,null,null,null,1,NA,NA,NA,NA,NA,NA,NA,NA,NA,NA
NA,NA,NA,NA,NA,choice_trial,survey-html-form,45,232549,0.0-4.0-1.20,298,1,2025-05-07T21:48:03Z,b60275e29fe2361ab97ac0ac217840d7,"Mozilla/5.0 (Macintosh; Intel Mac OS X 10_15_7) AppleWebKit/537.36 (KHTML, like Gecko) Chrome/136.0.0.0 Safari/537.36",Macintosh,Chrome,136.0.0.0,OS X,10_15_7,https://5puzkbbxv1.cognition.run/?sona_id=54455,"en-US,en;q=0.9",1htwdf3cbdcbnud,20,"[""White""]",No,Male,Northern Ireland - 2 years,I'm not sure,469930.200000003,NA,3256,NA,"{""product_choice"":""B""}",choice,tcd,trinary,repulsion_A,1,washing machines,null,null,null,null,null,null,1,100,90,100,30,40,20,Average lifespan,Energy savings,NA,NA
NA,NA,NA,NA,NA,choice_trial_setup,html-keyboard-response,46,232853,0.0-4.0-0.21,298,1,2025-05-07T21:48:03Z,b60275e29fe2361ab97ac0ac217840d7,"Mozilla/5.0 (Macintosh; Intel Mac OS X 10_15_7) AppleWebKit/537.36 (KHTML, like Gecko) Chrome/136.0.0.0 Safari/537.36",Macintosh,Chrome,136.0.0.0,OS X,10_15_7,https://5puzkbbxv1.cognition.run/?sona_id=54455,"en-US,en;q=0.9",1htwdf3cbdcbnud,20,"[""White""]",No,Male,Northern Ireland - 2 years,I'm not sure,469930.200000003,NA,null,<p></p>,null,choice,bw,binary,catch,null,washing machines,95,60,40,25,null,null,2,NA,NA,NA,NA,NA,NA,NA,NA,NA,NA
NA,NA,NA,NA,NA,choice_trial,survey-html-form,47,235807,0.0-4.0-1.21,298,1,2025-05-07T21:48:03Z,b60275e29fe2361ab97ac0ac217840d7,"Mozilla/5.0 (Macintosh; Intel Mac OS X 10_15_7) AppleWebKit/537.36 (KHTML, like Gecko) Chrome/136.0.0.0 Safari/537.36",Macintosh,Chrome,136.0.0.0,OS X,10_15_7,https://5puzkbbxv1.cognition.run/?sona_id=54455,"en-US,en;q=0.9",1htwdf3cbdcbnud,20,"[""White""]",No,Male,Northern Ireland - 2 years,I'm not sure,469930.200000003,NA,2947,NA,"{""product_choice"":""A""}",choice,bw,binary,catch,null,washing machines,95,60,40,25,null,null,2,null,null,null,null,null,null,Average lifespan,Energy savings,NA,NA
NA,NA,NA,NA,NA,choice_trial_setup,html-keyboard-response,48,236112,0.0-4.0-0.22,298,1,2025-05-07T21:48:03Z,b60275e29fe2361ab97ac0ac217840d7,"Mozilla/5.0 (Macintosh; Intel Mac OS X 10_15_7) AppleWebKit/537.36 (KHTML, like Gecko) Chrome/136.0.0.0 Safari/537.36",Macintosh,Chrome,136.0.0.0,OS X,10_15_7,https://5puzkbbxv1.cognition.run/?sona_id=54455,"en-US,en;q=0.9",1htwdf3cbdcbnud,20,"[""White""]",No,Male,Northern Ireland - 2 years,I'm not sure,469930.200000003,NA,null,<p></p>,null,choice,ct,binary,repulsion,2,laptops,null,null,null,null,null,null,1,NA,NA,NA,NA,NA,NA,NA,NA,NA,NA
NA,NA,NA,NA,NA,choice_trial,survey-html-form,49,240617,0.0-4.0-1.22,298,1,2025-05-07T21:48:03Z,b60275e29fe2361ab97ac0ac217840d7,"Mozilla/5.0 (Macintosh; Intel Mac OS X 10_15_7) AppleWebKit/537.36 (KHTML, like Gecko) Chrome/136.0.0.0 Safari/537.36",Macintosh,Chrome,136.0.0.0,OS X,10_15_7,https://5puzkbbxv1.cognition.run/?sona_id=54455,"en-US,en;q=0.9",1htwdf3cbdcbnud,20,"[""White""]",No,Male,Northern Ireland - 2 years,I'm not sure,469930.200000003,NA,4500,NA,"{""product_choice"":""A""}",choice,ct,binary,repulsion,2,laptops,null,null,null,null,null,null,1,30,40,null,100,90,null,Processing speed,Memory (RAM),NA,NA
NA,NA,NA,NA,NA,choice_trial_setup,html-keyboard-response,50,240922,0.0-4.0-0.23,298,1,2025-05-07T21:48:03Z,b60275e29fe2361ab97ac0ac217840d7,"Mozilla/5.0 (Macintosh; Intel Mac OS X 10_15_7) AppleWebKit/537.36 (KHTML, like Gecko) Chrome/136.0.0.0 Safari/537.36",Macintosh,Chrome,136.0.0.0,OS X,10_15_7,https://5puzkbbxv1.cognition.run/?sona_id=54455,"en-US,en;q=0.9",1htwdf3cbdcbnud,20,"[""White""]",No,Male,Northern Ireland - 2 years,I'm not sure,469930.200000003,NA,null,<p></p>,null,choice,bw,binary,catch,null,microwave ovens,55,90,10,50,null,null,2,NA,NA,NA,NA,NA,NA,NA,NA,NA,NA
NA,NA,NA,NA,NA,choice_trial,survey-html-form,51,243838,0.0-4.0-1.23,298,1,2025-05-07T21:48:03Z,b60275e29fe2361ab97ac0ac217840d7,"Mozilla/5.0 (Macintosh; Intel Mac OS X 10_15_7) AppleWebKit/537.36 (KHTML, like Gecko) Chrome/136.0.0.0 Safari/537.36",Macintosh,Chrome,136.0.0.0,OS X,10_15_7,https://5puzkbbxv1.cognition.run/?sona_id=54455,"en-US,en;q=0.9",1htwdf3cbdcbnud,20,"[""White""]",No,Male,Northern Ireland - 2 years,I'm not sure,469930.200000003,NA,2911,NA,"{""product_choice"":""A""}",choice,bw,binary,catch,null,microwave ovens,55,90,10,50,null,null,2,null,null,null,null,null,null,Warranty,Cooking power,NA,NA
NA,NA,NA,NA,NA,choice_trial_setup,html-keyboard-response,52,244141,0.0-4.0-0.24,298,1,2025-05-07T21:48:03Z,b60275e29fe2361ab97ac0ac217840d7,"Mozilla/5.0 (Macintosh; Intel Mac OS X 10_15_7) AppleWebKit/537.36 (KHTML, like Gecko) Chrome/136.0.0.0 Safari/537.36",Macintosh,Chrome,136.0.0.0,OS X,10_15_7,https://5puzkbbxv1.cognition.run/?sona_id=54455,"en-US,en;q=0.9",1htwdf3cbdcbnud,20,"[""White""]",No,Male,Northern Ireland - 2 years,I'm not sure,469930.200000003,NA,null,<p></p>,null,choice,tc,binary,repulsion,2,televisions,null,null,null,null,null,null,2,NA,NA,NA,NA,NA,NA,NA,NA,NA,NA
NA,NA,NA,NA,NA,choice_trial,survey-html-form,53,247212,0.0-4.0-1.24,298,1,2025-05-07T21:48:03Z,b60275e29fe2361ab97ac0ac217840d7,"Mozilla/5.0 (Macintosh; Intel Mac OS X 10_15_7) AppleWebKit/537.36 (KHTML, like Gecko) Chrome/136.0.0.0 Safari/537.36",Macintosh,Chrome,136.0.0.0,OS X,10_15_7,https://5puzkbbxv1.cognition.run/?sona_id=54455,"en-US,en;q=0.9",1htwdf3cbdcbnud,20,"[""White""]",No,Male,Northern Ireland - 2 years,I'm not sure,469930.200000003,NA,3066,NA,"{""product_choice"":""A""}",choice,tc,binary,repulsion,2,televisions,null,null,null,null,null,null,2,30,40,null,100,90,null,Screen size,Average lifespan,NA,NA
NA,NA,NA,NA,NA,choice_trial_setup,html-keyboard-response,54,247516,0.0-4.0-0.25,298,1,2025-05-07T21:48:03Z,b60275e29fe2361ab97ac0ac217840d7,"Mozilla/5.0 (Macintosh; Intel Mac OS X 10_15_7) AppleWebKit/537.36 (KHTML, like Gecko) Chrome/136.0.0.0 Safari/537.36",Macintosh,Chrome,136.0.0.0,OS X,10_15_7,https://5puzkbbxv1.cognition.run/?sona_id=54455,"en-US,en;q=0.9",1htwdf3cbdcbnud,20,"[""White""]",No,Male,Northern Ireland - 2 years,I'm not sure,469930.200000003,NA,null,<p></p>,null,choice,cdt,trinary,repulsion_A,1,microwave ovens,null,null,null,null,null,null,2,NA,NA,NA,NA,NA,NA,NA,NA,NA,NA
NA,NA,NA,NA,NA,choice_trial,survey-html-form,55,250352,0.0-4.0-1.25,298,1,2025-05-07T21:48:03Z,b60275e29fe2361ab97ac0ac217840d7,"Mozilla/5.0 (Macintosh; Intel Mac OS X 10_15_7) AppleWebKit/537.36 (KHTML, like Gecko) Chrome/136.0.0.0 Safari/537.36",Macintosh,Chrome,136.0.0.0,OS X,10_15_7,https://5puzkbbxv1.cognition.run/?sona_id=54455,"en-US,en;q=0.9",1htwdf3cbdcbnud,20,"[""White""]",No,Male,Northern Ireland - 2 years,I'm not sure,469930.200000003,NA,2830,NA,"{""product_choice"":""C""}",choice,cdt,trinary,repulsion_A,1,microwave ovens,null,null,null,null,null,null,2,100,90,100,30,40,20,Warranty,Cooking power,NA,NA
NA,NA,NA,NA,NA,choice_trial_setup,html-keyboard-response,56,250658,0.0-4.0-0.26,298,1,2025-05-07T21:48:03Z,b60275e29fe2361ab97ac0ac217840d7,"Mozilla/5.0 (Macintosh; Intel Mac OS X 10_15_7) AppleWebKit/537.36 (KHTML, like Gecko) Chrome/136.0.0.0 Safari/537.36",Macintosh,Chrome,136.0.0.0,OS X,10_15_7,https://5puzkbbxv1.cognition.run/?sona_id=54455,"en-US,en;q=0.9",1htwdf3cbdcbnud,20,"[""White""]",No,Male,Northern Ireland - 2 years,I'm not sure,469930.200000003,NA,null,<p></p>,null,choice,tcd,trinary,repulsion_A,2,microwave ovens,null,null,null,null,null,null,1,NA,NA,NA,NA,NA,NA,NA,NA,NA,NA
NA,NA,NA,NA,NA,choice_trial,survey-html-form,57,255476,0.0-4.0-1.26,298,1,2025-05-07T21:48:03Z,b60275e29fe2361ab97ac0ac217840d7,"Mozilla/5.0 (Macintosh; Intel Mac OS X 10_15_7) AppleWebKit/537.36 (KHTML, like Gecko) Chrome/136.0.0.0 Safari/537.36",Macintosh,Chrome,136.0.0.0,OS X,10_15_7,https://5puzkbbxv1.cognition.run/?sona_id=54455,"en-US,en;q=0.9",1htwdf3cbdcbnud,20,"[""White""]",No,Male,Northern Ireland - 2 years,I'm not sure,469930.200000003,NA,4813,NA,"{""product_choice"":""A""}",choice,tcd,trinary,repulsion_A,2,microwave ovens,null,null,null,null,null,null,1,30,40,20,100,90,100,Warranty,Cooking power,NA,NA
NA,NA,NA,NA,NA,choice_trial_setup,html-keyboard-response,58,255781,0.0-4.0-0.27,298,1,2025-05-07T21:48:03Z,b60275e29fe2361ab97ac0ac217840d7,"Mozilla/5.0 (Macintosh; Intel Mac OS X 10_15_7) AppleWebKit/537.36 (KHTML, like Gecko) Chrome/136.0.0.0 Safari/537.36",Macintosh,Chrome,136.0.0.0,OS X,10_15_7,https://5puzkbbxv1.cognition.run/?sona_id=54455,"en-US,en;q=0.9",1htwdf3cbdcbnud,20,"[""White""]",No,Male,Northern Ireland - 2 years,I'm not sure,469930.200000003,NA,null,<p></p>,null,choice,wbw,trinary,catch,null,televisions,75,95,25,35,40,40,1,NA,NA,NA,NA,NA,NA,NA,NA,NA,NA
NA,NA,NA,NA,NA,choice_trial,survey-html-form,59,258481,0.0-4.0-1.27,298,1,2025-05-07T21:48:03Z,b60275e29fe2361ab97ac0ac217840d7,"Mozilla/5.0 (Macintosh; Intel Mac OS X 10_15_7) AppleWebKit/537.36 (KHTML, like Gecko) Chrome/136.0.0.0 Safari/537.36",Macintosh,Chrome,136.0.0.0,OS X,10_15_7,https://5puzkbbxv1.cognition.run/?sona_id=54455,"en-US,en;q=0.9",1htwdf3cbdcbnud,20,"[""White""]",No,Male,Northern Ireland - 2 years,I'm not sure,469930.200000003,NA,2694,NA,"{""product_choice"":""B""}",choice,wbw,trinary,catch,null,televisions,75,95,25,35,40,40,1,null,null,null,null,null,null,Screen size,Average lifespan,NA,NA
NA,NA,NA,NA,NA,choice_trial_setup,html-keyboard-response,60,258786,0.0-4.0-0.28,298,1,2025-05-07T21:48:03Z,b60275e29fe2361ab97ac0ac217840d7,"Mozilla/5.0 (Macintosh; Intel Mac OS X 10_15_7) AppleWebKit/537.36 (KHTML, like Gecko) Chrome/136.0.0.0 Safari/537.36",Macintosh,Chrome,136.0.0.0,OS X,10_15_7,https://5puzkbbxv1.cognition.run/?sona_id=54455,"en-US,en;q=0.9",1htwdf3cbdcbnud,20,"[""White""]",No,Male,Northern Ireland - 2 years,I'm not sure,469930.200000003,NA,null,<p></p>,null,choice,bw,binary,catch,null,laptops,80,55,40,25,null,null,1,NA,NA,NA,NA,NA,NA,NA,NA,NA,NA
NA,NA,NA,NA,NA,choice_trial,survey-html-form,61,261239,0.0-4.0-1.28,298,1,2025-05-07T21:48:03Z,b60275e29fe2361ab97ac0ac217840d7,"Mozilla/5.0 (Macintosh; Intel Mac OS X 10_15_7) AppleWebKit/537.36 (KHTML, like Gecko) Chrome/136.0.0.0 Safari/537.36",Macintosh,Chrome,136.0.0.0,OS X,10_15_7,https://5puzkbbxv1.cognition.run/?sona_id=54455,"en-US,en;q=0.9",1htwdf3cbdcbnud,20,"[""White""]",No,Male,Northern Ireland - 2 years,I'm not sure,469930.200000003,NA,2448,NA,"{""product_choice"":""A""}",choice,bw,binary,catch,null,laptops,80,55,40,25,null,null,1,null,null,null,null,null,null,Processing speed,Memory (RAM),NA,NA
NA,NA,NA,NA,NA,choice_trial_setup,html-keyboard-response,62,261544,0.0-4.0-0.29,298,1,2025-05-07T21:48:03Z,b60275e29fe2361ab97ac0ac217840d7,"Mozilla/5.0 (Macintosh; Intel Mac OS X 10_15_7) AppleWebKit/537.36 (KHTML, like Gecko) Chrome/136.0.0.0 Safari/537.36",Macintosh,Chrome,136.0.0.0,OS X,10_15_7,https://5puzkbbxv1.cognition.run/?sona_id=54455,"en-US,en;q=0.9",1htwdf3cbdcbnud,20,"[""White""]",No,Male,Northern Ireland - 2 years,I'm not sure,469930.200000003,NA,null,<p></p>,null,choice,ct,binary,repulsion,2,washing machines,null,null,null,null,null,null,1,NA,NA,NA,NA,NA,NA,NA,NA,NA,NA
NA,NA,NA,NA,NA,choice_trial,survey-html-form,63,265881,0.0-4.0-1.29,298,1,2025-05-07T21:48:03Z,b60275e29fe2361ab97ac0ac217840d7,"Mozilla/5.0 (Macintosh; Intel Mac OS X 10_15_7) AppleWebKit/537.36 (KHTML, like Gecko) Chrome/136.0.0.0 Safari/537.36",Macintosh,Chrome,136.0.0.0,OS X,10_15_7,https://5puzkbbxv1.cognition.run/?sona_id=54455,"en-US,en;q=0.9",1htwdf3cbdcbnud,20,"[""White""]",No,Male,Northern Ireland - 2 years,I'm not sure,469930.200000003,NA,4331,NA,"{""product_choice"":""A""}",choice,ct,binary,repulsion,2,washing machines,null,null,null,null,null,null,1,30,40,null,100,90,null,Average lifespan,Energy savings,NA,NA
NA,NA,NA,NA,NA,choice_trial_setup,html-keyboard-response,64,266186,0.0-4.0-0.30,298,1,2025-05-07T21:48:03Z,b60275e29fe2361ab97ac0ac217840d7,"Mozilla/5.0 (Macintosh; Intel Mac OS X 10_15_7) AppleWebKit/537.36 (KHTML, like Gecko) Chrome/136.0.0.0 Safari/537.36",Macintosh,Chrome,136.0.0.0,OS X,10_15_7,https://5puzkbbxv1.cognition.run/?sona_id=54455,"en-US,en;q=0.9",1htwdf3cbdcbnud,20,"[""White""]",No,Male,Northern Ireland - 2 years,I'm not sure,469930.200000003,NA,null,<p></p>,null,choice,dtc,trinary,repulsion_A,1,laptops,null,null,null,null,null,null,1,NA,NA,NA,NA,NA,NA,NA,NA,NA,NA
NA,NA,NA,NA,NA,choice_trial,survey-html-form,65,270711,0.0-4.0-1.30,298,1,2025-05-07T21:48:03Z,b60275e29fe2361ab97ac0ac217840d7,"Mozilla/5.0 (Macintosh; Intel Mac OS X 10_15_7) AppleWebKit/537.36 (KHTML, like Gecko) Chrome/136.0.0.0 Safari/537.36",Macintosh,Chrome,136.0.0.0,OS X,10_15_7,https://5puzkbbxv1.cognition.run/?sona_id=54455,"en-US,en;q=0.9",1htwdf3cbdcbnud,20,"[""White""]",No,Male,Northern Ireland - 2 years,I'm not sure,469930.200000003,NA,4517,NA,"{""product_choice"":""B""}",choice,dtc,trinary,repulsion_A,1,laptops,null,null,null,null,null,null,1,100,90,100,30,40,20,Processing speed,Memory (RAM),NA,NA
NA,NA,NA,NA,NA,choice_trial_setup,html-keyboard-response,66,271016,0.0-4.0-0.31,298,1,2025-05-07T21:48:03Z,b60275e29fe2361ab97ac0ac217840d7,"Mozilla/5.0 (Macintosh; Intel Mac OS X 10_15_7) AppleWebKit/537.36 (KHTML, like Gecko) Chrome/136.0.0.0 Safari/537.36",Macintosh,Chrome,136.0.0.0,OS X,10_15_7,https://5puzkbbxv1.cognition.run/?sona_id=54455,"en-US,en;q=0.9",1htwdf3cbdcbnud,20,"[""White""]",No,Male,Northern Ireland - 2 years,I'm not sure,469930.200000003,NA,null,<p></p>,null,choice,cdt,trinary,repulsion_B,2,microwave ovens,null,null,null,null,null,null,2,NA,NA,NA,NA,NA,NA,NA,NA,NA,NA
NA,NA,NA,NA,NA,choice_trial,survey-html-form,67,274821,0.0-4.0-1.31,298,1,2025-05-07T21:48:03Z,b60275e29fe2361ab97ac0ac217840d7,"Mozilla/5.0 (Macintosh; Intel Mac OS X 10_15_7) AppleWebKit/537.36 (KHTML, like Gecko) Chrome/136.0.0.0 Safari/537.36",Macintosh,Chrome,136.0.0.0,OS X,10_15_7,https://5puzkbbxv1.cognition.run/?sona_id=54455,"en-US,en;q=0.9",1htwdf3cbdcbnud,20,"[""White""]",No,Male,Northern Ireland - 2 years,I'm not sure,469930.200000003,NA,3798,NA,"{""product_choice"":""C""}",choice,cdt,trinary,repulsion_B,2,microwave ovens,null,null,null,null,null,null,2,40,30,40,90,100,80,Warranty,Cooking power,NA,NA
NA,NA,NA,NA,NA,choice_trial_setup,html-keyboard-response,68,275126,0.0-4.0-0.32,298,1,2025-05-07T21:48:03Z,b60275e29fe2361ab97ac0ac217840d7,"Mozilla/5.0 (Macintosh; Intel Mac OS X 10_15_7) AppleWebKit/537.36 (KHTML, like Gecko) Chrome/136.0.0.0 Safari/537.36",Macintosh,Chrome,136.0.0.0,OS X,10_15_7,https://5puzkbbxv1.cognition.run/?sona_id=54455,"en-US,en;q=0.9",1htwdf3cbdcbnud,20,"[""White""]",No,Male,Northern Ireland - 2 years,I'm not sure,469930.200000003,NA,null,<p></p>,null,choice,ctd,trinary,repulsion_B,1,washing machines,null,null,null,null,null,null,2,NA,NA,NA,NA,NA,NA,NA,NA,NA,NA
NA,NA,NA,NA,NA,choice_trial,survey-html-form,69,279108,0.0-4.0-1.32,298,1,2025-05-07T21:48:03Z,b60275e29fe2361ab97ac0ac217840d7,"Mozilla/5.0 (Macintosh; Intel Mac OS X 10_15_7) AppleWebKit/537.36 (KHTML, like Gecko) Chrome/136.0.0.0 Safari/537.36",Macintosh,Chrome,136.0.0.0,OS X,10_15_7,https://5puzkbbxv1.cognition.run/?sona_id=54455,"en-US,en;q=0.9",1htwdf3cbdcbnud,20,"[""White""]",No,Male,Northern Ireland - 2 years,I'm not sure,469930.200000003,NA,3974,NA,"{""product_choice"":""B""}",choice,ctd,trinary,repulsion_B,1,washing machines,null,null,null,null,null,null,2,90,100,80,40,30,40,Average lifespan,Energy savings,NA,NA
NA,NA,NA,NA,NA,choice_trial_setup,html-keyboard-response,70,279414,0.0-4.0-0.33,298,1,2025-05-07T21:48:03Z,b60275e29fe2361ab97ac0ac217840d7,"Mozilla/5.0 (Macintosh; Intel Mac OS X 10_15_7) AppleWebKit/537.36 (KHTML, like Gecko) Chrome/136.0.0.0 Safari/537.36",Macintosh,Chrome,136.0.0.0,OS X,10_15_7,https://5puzkbbxv1.cognition.run/?sona_id=54455,"en-US,en;q=0.9",1htwdf3cbdcbnud,20,"[""White""]",No,Male,Northern Ireland - 2 years,I'm not sure,469930.200000003,NA,null,<p></p>,null,choice,dtc,trinary,attraction,2,laptops,null,null,null,null,null,null,2,NA,NA,NA,NA,NA,NA,NA,NA,NA,NA
NA,NA,NA,NA,NA,choice_trial,survey-html-form,71,283838,0.0-4.0-1.33,298,1,2025-05-07T21:48:03Z,b60275e29fe2361ab97ac0ac217840d7,"Mozilla/5.0 (Macintosh; Intel Mac OS X 10_15_7) AppleWebKit/537.36 (KHTML, like Gecko) Chrome/136.0.0.0 Safari/537.36",Macintosh,Chrome,136.0.0.0,OS X,10_15_7,https://5puzkbbxv1.cognition.run/?sona_id=54455,"en-US,en;q=0.9",1htwdf3cbdcbnud,20,"[""White""]",No,Male,Northern Ireland - 2 years,I'm not sure,469930.200000003,NA,4420,NA,"{""product_choice"":""C""}",choice,dtc,trinary,attraction,2,laptops,null,null,null,null,null,null,2,50,60,40,60,50,60,Processing speed,Memory (RAM),NA,NA
NA,NA,NA,NA,NA,choice_trial_setup,html-keyboard-response,72,284143,0.0-4.0-0.34,298,1,2025-05-07T21:48:03Z,b60275e29fe2361ab97ac0ac217840d7,"Mozilla/5.0 (Macintosh; Intel Mac OS X 10_15_7) AppleWebKit/537.36 (KHTML, like Gecko) Chrome/136.0.0.0 Safari/537.36",Macintosh,Chrome,136.0.0.0,OS X,10_15_7,https://5puzkbbxv1.cognition.run/?sona_id=54455,"en-US,en;q=0.9",1htwdf3cbdcbnud,20,"[""White""]",No,Male,Northern Ireland - 2 years,I'm not sure,469930.200000003,NA,null,<p></p>,null,choice,tc,binary,repulsion,1,washing machines,null,null,null,null,null,null,2,NA,NA,NA,NA,NA,NA,NA,NA,NA,NA
NA,NA,NA,NA,NA,choice_trial,survey-html-form,73,288043,0.0-4.0-1.34,298,1,2025-05-07T21:48:03Z,b60275e29fe2361ab97ac0ac217840d7,"Mozilla/5.0 (Macintosh; Intel Mac OS X 10_15_7) AppleWebKit/537.36 (KHTML, like Gecko) Chrome/136.0.0.0 Safari/537.36",Macintosh,Chrome,136.0.0.0,OS X,10_15_7,https://5puzkbbxv1.cognition.run/?sona_id=54455,"en-US,en;q=0.9",1htwdf3cbdcbnud,20,"[""White""]",No,Male,Northern Ireland - 2 years,I'm not sure,469930.200000003,NA,3898,NA,"{""product_choice"":""B""}",choice,tc,binary,repulsion,1,washing machines,null,null,null,null,null,null,2,100,90,null,30,40,null,Average lifespan,Energy savings,NA,NA
NA,NA,NA,NA,NA,choice_trial_setup,html-keyboard-response,74,288348,0.0-4.0-0.35,298,1,2025-05-07T21:48:03Z,b60275e29fe2361ab97ac0ac217840d7,"Mozilla/5.0 (Macintosh; Intel Mac OS X 10_15_7) AppleWebKit/537.36 (KHTML, like Gecko) Chrome/136.0.0.0 Safari/537.36",Macintosh,Chrome,136.0.0.0,OS X,10_15_7,https://5puzkbbxv1.cognition.run/?sona_id=54455,"en-US,en;q=0.9",1htwdf3cbdcbnud,20,"[""White""]",No,Male,Northern Ireland - 2 years,I'm not sure,469930.200000003,NA,null,<p></p>,null,choice,bww,trinary,catch,null,washing machines,95,90,35,25,20,50,2,NA,NA,NA,NA,NA,NA,NA,NA,NA,NA
NA,NA,NA,NA,NA,choice_trial,survey-html-form,75,291090,0.0-4.0-1.35,298,1,2025-05-07T21:48:03Z,b60275e29fe2361ab97ac0ac217840d7,"Mozilla/5.0 (Macintosh; Intel Mac OS X 10_15_7) AppleWebKit/537.36 (KHTML, like Gecko) Chrome/136.0.0.0 Safari/537.36",Macintosh,Chrome,136.0.0.0,OS X,10_15_7,https://5puzkbbxv1.cognition.run/?sona_id=54455,"en-US,en;q=0.9",1htwdf3cbdcbnud,20,"[""White""]",No,Male,Northern Ireland - 2 years,I'm not sure,469930.200000003,NA,2737,NA,"{""product_choice"":""A""}",choice,bww,trinary,catch,null,washing machines,95,90,35,25,20,50,2,null,null,null,null,null,null,Average lifespan,Energy savings,NA,NA
NA,NA,NA,NA,NA,choice_trial_setup,html-keyboard-response,76,291395,0.0-4.0-0.36,298,1,2025-05-07T21:48:03Z,b60275e29fe2361ab97ac0ac217840d7,"Mozilla/5.0 (Macintosh; Intel Mac OS X 10_15_7) AppleWebKit/537.36 (KHTML, like Gecko) Chrome/136.0.0.0 Safari/537.36",Macintosh,Chrome,136.0.0.0,OS X,10_15_7,https://5puzkbbxv1.cognition.run/?sona_id=54455,"en-US,en;q=0.9",1htwdf3cbdcbnud,20,"[""White""]",No,Male,Northern Ireland - 2 years,I'm not sure,469930.200000003,NA,null,<p></p>,null,choice,tc,binary,attraction,NA,televisions,null,null,null,null,null,null,2,NA,NA,NA,NA,NA,NA,NA,NA,NA,NA
NA,NA,NA,NA,NA,choice_trial,survey-html-form,77,295188,0.0-4.0-1.36,298,1,2025-05-07T21:48:03Z,b60275e29fe2361ab97ac0ac217840d7,"Mozilla/5.0 (Macintosh; Intel Mac OS X 10_15_7) AppleWebKit/537.36 (KHTML, like Gecko) Chrome/136.0.0.0 Safari/537.36",Macintosh,Chrome,136.0.0.0,OS X,10_15_7,https://5puzkbbxv1.cognition.run/?sona_id=54455,"en-US,en;q=0.9",1htwdf3cbdcbnud,20,"[""White""]",No,Male,Northern Ireland - 2 years,I'm not sure,469930.200000003,NA,3788,NA,"{""product_choice"":""B""}",choice,tc,binary,attraction,NA,televisions,null,null,null,null,null,null,2,60,50,null,50,60,null,Screen size,Average lifespan,NA,NA
NA,NA,NA,NA,NA,choice_trial_setup,html-keyboard-response,78,295494,0.0-4.0-0.37,298,1,2025-05-07T21:48:03Z,b60275e29fe2361ab97ac0ac217840d7,"Mozilla/5.0 (Macintosh; Intel Mac OS X 10_15_7) AppleWebKit/537.36 (KHTML, like Gecko) Chrome/136.0.0.0 Safari/537.36",Macintosh,Chrome,136.0.0.0,OS X,10_15_7,https://5puzkbbxv1.cognition.run/?sona_id=54455,"en-US,en;q=0.9",1htwdf3cbdcbnud,20,"[""White""]",No,Male,Northern Ireland - 2 years,I'm not sure,469930.200000003,NA,null,<p></p>,null,choice,tc,binary,attraction,NA,washing machines,null,null,null,null,null,null,1,NA,NA,NA,NA,NA,NA,NA,NA,NA,NA
NA,NA,NA,NA,NA,choice_trial,survey-html-form,79,301060,0.0-4.0-1.37,298,1,2025-05-07T21:48:03Z,b60275e29fe2361ab97ac0ac217840d7,"Mozilla/5.0 (Macintosh; Intel Mac OS X 10_15_7) AppleWebKit/537.36 (KHTML, like Gecko) Chrome/136.0.0.0 Safari/537.36",Macintosh,Chrome,136.0.0.0,OS X,10_15_7,https://5puzkbbxv1.cognition.run/?sona_id=54455,"en-US,en;q=0.9",1htwdf3cbdcbnud,20,"[""White""]",No,Male,Northern Ireland - 2 years,I'm not sure,469930.200000003,NA,5562,NA,"{""product_choice"":""A""}",choice,tc,binary,attraction,NA,washing machines,null,null,null,null,null,null,1,60,50,null,50,60,null,Average lifespan,Energy savings,NA,NA
NA,NA,NA,NA,NA,choice_trial_setup,html-keyboard-response,80,301365,0.0-4.0-0.38,298,1,2025-05-07T21:48:03Z,b60275e29fe2361ab97ac0ac217840d7,"Mozilla/5.0 (Macintosh; Intel Mac OS X 10_15_7) AppleWebKit/537.36 (KHTML, like Gecko) Chrome/136.0.0.0 Safari/537.36",Macintosh,Chrome,136.0.0.0,OS X,10_15_7,https://5puzkbbxv1.cognition.run/?sona_id=54455,"en-US,en;q=0.9",1htwdf3cbdcbnud,20,"[""White""]",No,Male,Northern Ireland - 2 years,I'm not sure,469930.200000003,NA,null,<p></p>,null,choice,tdc,trinary,repulsion_B,2,laptops,null,null,null,null,null,null,1,NA,NA,NA,NA,NA,NA,NA,NA,NA,NA
NA,NA,NA,NA,NA,choice_trial,survey-html-form,81,304907,0.0-4.0-1.38,298,1,2025-05-07T21:48:03Z,b60275e29fe2361ab97ac0ac217840d7,"Mozilla/5.0 (Macintosh; Intel Mac OS X 10_15_7) AppleWebKit/537.36 (KHTML, like Gecko) Chrome/136.0.0.0 Safari/537.36",Macintosh,Chrome,136.0.0.0,OS X,10_15_7,https://5puzkbbxv1.cognition.run/?sona_id=54455,"en-US,en;q=0.9",1htwdf3cbdcbnud,20,"[""White""]",No,Male,Northern Ireland - 2 years,I'm not sure,469930.200000003,NA,3536,NA,"{""product_choice"":""A""}",choice,tdc,trinary,repulsion_B,2,laptops,null,null,null,null,null,null,1,40,30,40,90,100,80,Processing speed,Memory (RAM),NA,NA
NA,NA,NA,NA,NA,choice_trial_setup,html-keyboard-response,82,305212,0.0-4.0-0.39,298,1,2025-05-07T21:48:03Z,b60275e29fe2361ab97ac0ac217840d7,"Mozilla/5.0 (Macintosh; Intel Mac OS X 10_15_7) AppleWebKit/537.36 (KHTML, like Gecko) Chrome/136.0.0.0 Safari/537.36",Macintosh,Chrome,136.0.0.0,OS X,10_15_7,https://5puzkbbxv1.cognition.run/?sona_id=54455,"en-US,en;q=0.9",1htwdf3cbdcbnud,20,"[""White""]",No,Male,Northern Ireland - 2 years,I'm not sure,469930.200000003,NA,null,<p></p>,null,choice,cdt,trinary,repulsion_A,1,televisions,null,null,null,null,null,null,1,NA,NA,NA,NA,NA,NA,NA,NA,NA,NA
NA,NA,NA,NA,NA,choice_trial,survey-html-form,83,308669,0.0-4.0-1.39,298,1,2025-05-07T21:48:03Z,b60275e29fe2361ab97ac0ac217840d7,"Mozilla/5.0 (Macintosh; Intel Mac OS X 10_15_7) AppleWebKit/537.36 (KHTML, like Gecko) Chrome/136.0.0.0 Safari/537.36",Macintosh,Chrome,136.0.0.0,OS X,10_15_7,https://5puzkbbxv1.cognition.run/?sona_id=54455,"en-US,en;q=0.9",1htwdf3cbdcbnud,20,"[""White""]",No,Male,Northern Ireland - 2 years,I'm not sure,469930.200000003,NA,3452,NA,"{""product_choice"":""A""}",choice,cdt,trinary,repulsion_A,1,televisions,null,null,null,null,null,null,1,100,90,100,30,40,20,Screen size,Average lifespan,NA,NA
NA,NA,NA,NA,NA,choice_trial_setup,html-keyboard-response,84,308977,0.0-4.0-0.40,298,1,2025-05-07T21:48:03Z,b60275e29fe2361ab97ac0ac217840d7,"Mozilla/5.0 (Macintosh; Intel Mac OS X 10_15_7) AppleWebKit/537.36 (KHTML, like Gecko) Chrome/136.0.0.0 Safari/537.36",Macintosh,Chrome,136.0.0.0,OS X,10_15_7,https://5puzkbbxv1.cognition.run/?sona_id=54455,"en-US,en;q=0.9",1htwdf3cbdcbnud,20,"[""White""]",No,Male,Northern Ireland - 2 years,I'm not sure,469930.200000003,NA,null,<p></p>,null,choice,dct,trinary,attraction,1,televisions,null,null,null,null,null,null,2,NA,NA,NA,NA,NA,NA,NA,NA,NA,NA
NA,NA,NA,NA,NA,choice_trial,survey-html-form,85,314105,0.0-4.0-1.40,298,1,2025-05-07T21:48:03Z,b60275e29fe2361ab97ac0ac217840d7,"Mozilla/5.0 (Macintosh; Intel Mac OS X 10_15_7) AppleWebKit/537.36 (KHTML, like Gecko) Chrome/136.0.0.0 Safari/537.36",Macintosh,Chrome,136.0.0.0,OS X,10_15_7,https://5puzkbbxv1.cognition.run/?sona_id=54455,"en-US,en;q=0.9",1htwdf3cbdcbnud,20,"[""White""]",No,Male,Northern Ireland - 2 years,I'm not sure,469930.200000003,NA,5125,NA,"{""product_choice"":""B""}",choice,dct,trinary,attraction,1,televisions,null,null,null,null,null,null,2,60,50,60,50,60,40,Screen size,Average lifespan,NA,NA
NA,NA,NA,NA,NA,choice_trial_setup,html-keyboard-response,86,314411,0.0-4.0-0.41,298,1,2025-05-07T21:48:03Z,b60275e29fe2361ab97ac0ac217840d7,"Mozilla/5.0 (Macintosh; Intel Mac OS X 10_15_7) AppleWebKit/537.36 (KHTML, like Gecko) Chrome/136.0.0.0 Safari/537.36",Macintosh,Chrome,136.0.0.0,OS X,10_15_7,https://5puzkbbxv1.cognition.run/?sona_id=54455,"en-US,en;q=0.9",1htwdf3cbdcbnud,20,"[""White""]",No,Male,Northern Ireland - 2 years,I'm not sure,469930.200000003,NA,null,<p></p>,null,choice,ct,binary,repulsion,1,laptops,null,null,null,null,null,null,1,NA,NA,NA,NA,NA,NA,NA,NA,NA,NA
NA,NA,NA,NA,NA,choice_trial,survey-html-form,87,318195,0.0-4.0-1.41,298,1,2025-05-07T21:48:03Z,b60275e29fe2361ab97ac0ac217840d7,"Mozilla/5.0 (Macintosh; Intel Mac OS X 10_15_7) AppleWebKit/537.36 (KHTML, like Gecko) Chrome/136.0.0.0 Safari/537.36",Macintosh,Chrome,136.0.0.0,OS X,10_15_7,https://5puzkbbxv1.cognition.run/?sona_id=54455,"en-US,en;q=0.9",1htwdf3cbdcbnud,20,"[""White""]",No,Male,Northern Ireland - 2 years,I'm not sure,469930.200000003,NA,3777,NA,"{""product_choice"":""B""}",choice,ct,binary,repulsion,1,laptops,null,null,null,null,null,null,1,100,90,null,30,40,null,Processing speed,Memory (RAM),NA,NA
NA,NA,NA,NA,NA,choice_trial_setup,html-keyboard-response,88,318499,0.0-4.0-0.42,298,1,2025-05-07T21:48:03Z,b60275e29fe2361ab97ac0ac217840d7,"Mozilla/5.0 (Macintosh; Intel Mac OS X 10_15_7) AppleWebKit/537.36 (KHTML, like Gecko) Chrome/136.0.0.0 Safari/537.36",Macintosh,Chrome,136.0.0.0,OS X,10_15_7,https://5puzkbbxv1.cognition.run/?sona_id=54455,"en-US,en;q=0.9",1htwdf3cbdcbnud,20,"[""White""]",No,Male,Northern Ireland - 2 years,I'm not sure,469930.200000003,NA,null,<p></p>,null,choice,tdc,trinary,attraction,2,washing machines,null,null,null,null,null,null,2,NA,NA,NA,NA,NA,NA,NA,NA,NA,NA
NA,NA,NA,NA,NA,choice_trial,survey-html-form,89,322416,0.0-4.0-1.42,298,1,2025-05-07T21:48:03Z,b60275e29fe2361ab97ac0ac217840d7,"Mozilla/5.0 (Macintosh; Intel Mac OS X 10_15_7) AppleWebKit/537.36 (KHTML, like Gecko) Chrome/136.0.0.0 Safari/537.36",Macintosh,Chrome,136.0.0.0,OS X,10_15_7,https://5puzkbbxv1.cognition.run/?sona_id=54455,"en-US,en;q=0.9",1htwdf3cbdcbnud,20,"[""White""]",No,Male,Northern Ireland - 2 years,I'm not sure,469930.200000003,NA,3910,NA,"{""product_choice"":""A""}",choice,tdc,trinary,attraction,2,washing machines,null,null,null,null,null,null,2,50,60,40,60,50,60,Average lifespan,Energy savings,NA,NA
NA,NA,NA,NA,NA,choice_trial_setup,html-keyboard-response,90,322722,0.0-4.0-0.43,298,1,2025-05-07T21:48:03Z,b60275e29fe2361ab97ac0ac217840d7,"Mozilla/5.0 (Macintosh; Intel Mac OS X 10_15_7) AppleWebKit/537.36 (KHTML, like Gecko) Chrome/136.0.0.0 Safari/537.36",Macintosh,Chrome,136.0.0.0,OS X,10_15_7,https://5puzkbbxv1.cognition.run/?sona_id=54455,"en-US,en;q=0.9",1htwdf3cbdcbnud,20,"[""White""]",No,Male,Northern Ireland - 2 years,I'm not sure,469930.200000003,NA,null,<p></p>,null,choice,cdt,trinary,repulsion_B,2,washing machines,null,null,null,null,null,null,1,NA,NA,NA,NA,NA,NA,NA,NA,NA,NA
NA,NA,NA,NA,NA,choice_trial,survey-html-form,91,326591,0.0-4.0-1.43,298,1,2025-05-07T21:48:03Z,b60275e29fe2361ab97ac0ac217840d7,"Mozilla/5.0 (Macintosh; Intel Mac OS X 10_15_7) AppleWebKit/537.36 (KHTML, like Gecko) Chrome/136.0.0.0 Safari/537.36",Macintosh,Chrome,136.0.0.0,OS X,10_15_7,https://5puzkbbxv1.cognition.run/?sona_id=54455,"en-US,en;q=0.9",1htwdf3cbdcbnud,20,"[""White""]",No,Male,Northern Ireland - 2 years,I'm not sure,469930.200000003,NA,3862,NA,"{""product_choice"":""C""}",choice,cdt,trinary,repulsion_B,2,washing machines,null,null,null,null,null,null,1,40,30,40,90,100,80,Average lifespan,Energy savings,NA,NA
NA,NA,NA,NA,NA,post_trials_message,html-button-response,92,328483,0.0-5.0,298,1,2025-05-07T21:48:03Z,b60275e29fe2361ab97ac0ac217840d7,"Mozilla/5.0 (Macintosh; Intel Mac OS X 10_15_7) AppleWebKit/537.36 (KHTML, like Gecko) Chrome/136.0.0.0 Safari/537.36",Macintosh,Chrome,136.0.0.0,OS X,10_15_7,https://5puzkbbxv1.cognition.run/?sona_id=54455,"en-US,en;q=0.9",1htwdf3cbdcbnud,20,"[""White""]",No,Male,Northern Ireland - 2 years,I'm not sure,469930.200000003,NA,1885,<p> <b>Thank you for your patience!</b></p><p>  The study will be done after completing a brief form. </p>,0,NA,NA,NA,NA,NA,NA,NA,NA,NA,NA,NA,NA,NA,NA,NA,NA,NA,NA,NA,NA,NA,NA,NA
NA,NA,NA,NA,NA,survey_message,survey-text,93,370663,0.0-6.0,298,1,2025-05-07T21:48:03Z,b60275e29fe2361ab97ac0ac217840d7,"Mozilla/5.0 (Macintosh; Intel Mac OS X 10_15_7) AppleWebKit/537.36 (KHTML, like Gecko) Chrome/136.0.0.0 Safari/537.36",Macintosh,Chrome,136.0.0.0,OS X,10_15_7,https://5puzkbbxv1.cognition.run/?sona_id=54455,"en-US,en;q=0.9",1htwdf3cbdcbnud,20,"[""White""]",No,Male,Northern Ireland - 2 years,I'm not sure,469930.200000003,NA,42173,NA,"{""Q0"":""I chose the highest number of the quality I thought to be most important.""}",NA,NA,NA,NA,NA,NA,NA,NA,NA,NA,NA,NA,NA,NA,NA,NA,NA,NA,NA,NA,NA,I chose the highest number of the quality I thought to be most important.,NA
NA,NA,NA,NA,NA,demo_age,survey-text,94,373483,0.0-7.0,298,1,2025-05-07T21:48:03Z,b60275e29fe2361ab97ac0ac217840d7,"Mozilla/5.0 (Macintosh; Intel Mac OS X 10_15_7) AppleWebKit/537.36 (KHTML, like Gecko) Chrome/136.0.0.0 Safari/537.36",Macintosh,Chrome,136.0.0.0,OS X,10_15_7,https://5puzkbbxv1.cognition.run/?sona_id=54455,"en-US,en;q=0.9",1htwdf3cbdcbnud,20,"[""White""]",No,Male,Northern Ireland - 2 years,I'm not sure,469930.200000003,NA,2813,NA,"{""Q0"":""20""}",NA,NA,NA,NA,NA,NA,NA,NA,NA,NA,NA,NA,NA,NA,NA,NA,NA,NA,NA,NA,NA,NA,NA
NA,NA,NA,NA,NA,demo_race,survey-multi-select,95,377712,0.0-8.0,298,1,2025-05-07T21:48:03Z,b60275e29fe2361ab97ac0ac217840d7,"Mozilla/5.0 (Macintosh; Intel Mac OS X 10_15_7) AppleWebKit/537.36 (KHTML, like Gecko) Chrome/136.0.0.0 Safari/537.36",Macintosh,Chrome,136.0.0.0,OS X,10_15_7,https://5puzkbbxv1.cognition.run/?sona_id=54455,"en-US,en;q=0.9",1htwdf3cbdcbnud,20,"[""White""]",No,Male,Northern Ireland - 2 years,I'm not sure,469930.200000003,NA,4221,NA,"{""Q0"":[""White""]}",NA,NA,NA,NA,NA,NA,NA,NA,NA,NA,NA,NA,NA,NA,NA,NA,NA,NA,NA,NA,NA,NA,[0]
NA,NA,NA,NA,NA,demo_ethnicity_gender,survey-multi-choice,96,381201,0.0-9.0,298,1,2025-05-07T21:48:03Z,b60275e29fe2361ab97ac0ac217840d7,"Mozilla/5.0 (Macintosh; Intel Mac OS X 10_15_7) AppleWebKit/537.36 (KHTML, like Gecko) Chrome/136.0.0.0 Safari/537.36",Macintosh,Chrome,136.0.0.0,OS X,10_15_7,https://5puzkbbxv1.cognition.run/?sona_id=54455,"en-US,en;q=0.9",1htwdf3cbdcbnud,20,"[""White""]",No,Male,Northern Ireland - 2 years,I'm not sure,469930.200000003,NA,3482,NA,"{""Q0"":""No"",""Q1"":""Male""}",NA,NA,NA,NA,NA,NA,NA,NA,NA,NA,NA,NA,NA,NA,NA,NA,NA,NA,NA,NA,NA,NA,"[0,1]"
NA,NA,NA,NA,NA,demo_countries,survey-text,97,416020,0.0-10.0,298,1,2025-05-07T21:48:03Z,b60275e29fe2361ab97ac0ac217840d7,"Mozilla/5.0 (Macintosh; Intel Mac OS X 10_15_7) AppleWebKit/537.36 (KHTML, like Gecko) Chrome/136.0.0.0 Safari/537.36",Macintosh,Chrome,136.0.0.0,OS X,10_15_7,https://5puzkbbxv1.cognition.run/?sona_id=54455,"en-US,en;q=0.9",1htwdf3cbdcbnud,20,"[""White""]",No,Male,Northern Ireland - 2 years,I'm not sure,469930.200000003,NA,34806,NA,"{""Q0"":""Northern Ireland - 2 years""}",NA,NA,NA,NA,NA,NA,NA,NA,NA,NA,NA,NA,NA,NA,NA,NA,NA,NA,NA,NA,NA,NA,NA
NA,NA,NA,NA,NA,demo_prev_study,survey-multi-choice,98,463981,0.0-11.0,298,1,2025-05-07T21:48:03Z,b60275e29fe2361ab97ac0ac217840d7,"Mozilla/5.0 (Macintosh; Intel Mac OS X 10_15_7) AppleWebKit/537.36 (KHTML, like Gecko) Chrome/136.0.0.0 Safari/537.36",Macintosh,Chrome,136.0.0.0,OS X,10_15_7,https://5puzkbbxv1.cognition.run/?sona_id=54455,"en-US,en;q=0.9",1htwdf3cbdcbnud,20,"[""White""]",No,Male,Northern Ireland - 2 years,I'm not sure,469930.200000003,NA,47954,NA,"{""Q0"":""I'm not sure""}",NA,NA,NA,NA,NA,NA,NA,NA,NA,NA,NA,NA,NA,NA,NA,NA,NA,NA,NA,NA,NA,NA,[0]
NA,NA,NA,NA,NA,post_survey_message,html-keyboard-response,99,467130,0.0-12.0,298,1,2025-05-07T21:48:03Z,b60275e29fe2361ab97ac0ac217840d7,"Mozilla/5.0 (Macintosh; Intel Mac OS X 10_15_7) AppleWebKit/537.36 (KHTML, like Gecko) Chrome/136.0.0.0 Safari/537.36",Macintosh,Chrome,136.0.0.0,OS X,10_15_7,https://5puzkbbxv1.cognition.run/?sona_id=54455,"en-US,en;q=0.9",1htwdf3cbdcbnud,20,"[""White""]",No,Male,Northern Ireland - 2 years,I'm not sure,469930.200000003,NA,3142,NA,j,NA,NA,NA,NA,NA,NA,NA,NA,NA,NA,NA,NA,NA,NA,NA,NA,NA,NA,NA,NA,NA,NA,NA
NA,NA,NA,NA,NA,debrief,image-keyboard-response,100,469918,0.0-13.0,298,1,2025-05-07T21:48:03Z,b60275e29fe2361ab97ac0ac217840d7,"Mozilla/5.0 (Macintosh; Intel Mac OS X 10_15_7) AppleWebKit/537.36 (KHTML, like Gecko) Chrome/136.0.0.0 Safari/537.36",Macintosh,Chrome,136.0.0.0,OS X,10_15_7,https://5puzkbbxv1.cognition.run/?sona_id=54455,"en-US,en;q=0.9",1htwdf3cbdcbnud,20,"[""White""]",No,Male,Northern Ireland - 2 years,I'm not sure,469930.200000003,NA,2780,Judg_choice_debrief.png,p,NA,NA,NA,NA,NA,NA,NA,NA,NA,NA,NA,NA,NA,NA,NA,NA,NA,NA,NA,NA,NA,NA,NA
