success,timeout,failed_images,failed_audio,failed_video,screen_id,trial_type,trial_index,time_elapsed,internal_node_id,run_id,condition,recorded_at,source_code_version,user_agent,device,browser,browser_version,platform,platform_version,referer,accept_language,ppt_id,age,race,ethnicity,gender,other_countries,prev_study,exp_duration,view_history,rt,stimulus,response,phase,order,set,effect,t_high,category,d1_best,d2_best,d1_worst1,d2_worst1,d1_worst2,d2_worst2,first_dim,d1_t,d1_c,d1_d,d2_t,d2_c,d2_d,d1_name,d2_name,strategy_response,question_order
TRUE,FALSE,[],[],[],img preload,preload,0,275,0.0-0.0,302,1,2025-05-08T01:06:03Z,b60275e29fe2361ab97ac0ac217840d7,Mozilla/5.0 (Windows NT 10.0; Win64; x64; rv:138.0) Gecko/20100101 Firefox/138.0,NA,Firefox,138,Windows,10,https://5puzkbbxv1.cognition.run/?sona_id=57614,"en-US,en;q=0.5",bjvofe16z0afk6y,20,"[""Asian""]",No,Male,NA,No,430670,NA,NA,NA,NA,NA,NA,NA,NA,NA,NA,NA,NA,NA,NA,NA,NA,NA,NA,NA,NA,NA,NA,NA,NA,NA,NA,NA
NA,NA,NA,NA,NA,computer_message,instructions,1,2846,0.0-1.0,302,1,2025-05-08T01:06:03Z,b60275e29fe2361ab97ac0ac217840d7,Mozilla/5.0 (Windows NT 10.0; Win64; x64; rv:138.0) Gecko/20100101 Firefox/138.0,NA,Firefox,138,Windows,10,https://5puzkbbxv1.cognition.run/?sona_id=57614,"en-US,en;q=0.5",bjvofe16z0afk6y,20,"[""Asian""]",No,Male,NA,No,430670,"[{""page_index"":0,""viewing_time"":2571}]",2571,NA,NA,NA,NA,NA,NA,NA,NA,NA,NA,NA,NA,NA,NA,NA,NA,NA,NA,NA,NA,NA,NA,NA,NA,NA
TRUE,NA,NA,NA,NA,NA,fullscreen,2,5538,0.0-2.0,302,1,2025-05-08T01:06:03Z,b60275e29fe2361ab97ac0ac217840d7,Mozilla/5.0 (Windows NT 10.0; Win64; x64; rv:138.0) Gecko/20100101 Firefox/138.0,NA,Firefox,138,Windows,10,https://5puzkbbxv1.cognition.run/?sona_id=57614,"en-US,en;q=0.5",bjvofe16z0afk6y,20,"[""Asian""]",No,Male,NA,No,430670,NA,1683,NA,NA,NA,NA,NA,NA,NA,NA,NA,NA,NA,NA,NA,NA,NA,NA,NA,NA,NA,NA,NA,NA,NA,NA,NA
NA,NA,NA,NA,NA,choice_instructions,instructions,3,35424,0.0-3.0,302,1,2025-05-08T01:06:03Z,b60275e29fe2361ab97ac0ac217840d7,Mozilla/5.0 (Windows NT 10.0; Win64; x64; rv:138.0) Gecko/20100101 Firefox/138.0,NA,Firefox,138,Windows,10,https://5puzkbbxv1.cognition.run/?sona_id=57614,"en-US,en;q=0.5",bjvofe16z0afk6y,20,"[""Asian""]",No,Male,NA,No,430670,"[{""page_index"":0,""viewing_time"":1108},{""page_index"":1,""viewing_time"":2759},{""page_index"":2,""viewing_time"":3496},{""page_index"":3,""viewing_time"":3478},{""page_index"":4,""viewing_time"":1610},{""page_index"":5,""viewing_time"":12395},{""page_index"":6,""viewing_time"":5034}]",29880,NA,NA,NA,NA,NA,NA,NA,NA,NA,NA,NA,NA,NA,NA,NA,NA,NA,NA,NA,NA,NA,NA,NA,NA,NA
NA,NA,NA,NA,NA,choice_trial_setup,html-keyboard-response,4,35737,0.0-4.0-0.0,302,1,2025-05-08T01:06:03Z,b60275e29fe2361ab97ac0ac217840d7,Mozilla/5.0 (Windows NT 10.0; Win64; x64; rv:138.0) Gecko/20100101 Firefox/138.0,NA,Firefox,138,Windows,10,https://5puzkbbxv1.cognition.run/?sona_id=57614,"en-US,en;q=0.5",bjvofe16z0afk6y,20,"[""Asian""]",No,Male,NA,No,430670,NA,null,<p></p>,null,choice,tcd,trinary,repulsion_A,2,microwave ovens,null,null,null,null,null,null,2,NA,NA,NA,NA,NA,NA,NA,NA,NA,NA
NA,NA,NA,NA,NA,choice_trial,survey-html-form,5,53717,0.0-4.0-1.0,302,1,2025-05-08T01:06:03Z,b60275e29fe2361ab97ac0ac217840d7,Mozilla/5.0 (Windows NT 10.0; Win64; x64; rv:138.0) Gecko/20100101 Firefox/138.0,NA,Firefox,138,Windows,10,https://5puzkbbxv1.cognition.run/?sona_id=57614,"en-US,en;q=0.5",bjvofe16z0afk6y,20,"[""Asian""]",No,Male,NA,No,430670,NA,17978,NA,"{""product_choice"":""C""}",choice,tcd,trinary,repulsion_A,2,microwave ovens,null,null,null,null,null,null,2,30,40,20,100,90,100,Warranty,Cooking power,NA,NA
NA,NA,NA,NA,NA,choice_trial_setup,html-keyboard-response,6,54043,0.0-4.0-0.1,302,1,2025-05-08T01:06:03Z,b60275e29fe2361ab97ac0ac217840d7,Mozilla/5.0 (Windows NT 10.0; Win64; x64; rv:138.0) Gecko/20100101 Firefox/138.0,NA,Firefox,138,Windows,10,https://5puzkbbxv1.cognition.run/?sona_id=57614,"en-US,en;q=0.5",bjvofe16z0afk6y,20,"[""Asian""]",No,Male,NA,No,430670,NA,null,<p></p>,null,choice,wbw,trinary,catch,null,washing machines,65,70,20,25,50,5,2,NA,NA,NA,NA,NA,NA,NA,NA,NA,NA
NA,NA,NA,NA,NA,choice_trial,survey-html-form,7,64832,0.0-4.0-1.1,302,1,2025-05-08T01:06:03Z,b60275e29fe2361ab97ac0ac217840d7,Mozilla/5.0 (Windows NT 10.0; Win64; x64; rv:138.0) Gecko/20100101 Firefox/138.0,NA,Firefox,138,Windows,10,https://5puzkbbxv1.cognition.run/?sona_id=57614,"en-US,en;q=0.5",bjvofe16z0afk6y,20,"[""Asian""]",No,Male,NA,No,430670,NA,10787,NA,"{""product_choice"":""B""}",choice,wbw,trinary,catch,null,washing machines,65,70,20,25,50,5,2,null,null,null,null,null,null,Average lifespan,Energy savings,NA,NA
NA,NA,NA,NA,NA,choice_trial_setup,html-keyboard-response,8,65135,0.0-4.0-0.2,302,1,2025-05-08T01:06:03Z,b60275e29fe2361ab97ac0ac217840d7,Mozilla/5.0 (Windows NT 10.0; Win64; x64; rv:138.0) Gecko/20100101 Firefox/138.0,NA,Firefox,138,Windows,10,https://5puzkbbxv1.cognition.run/?sona_id=57614,"en-US,en;q=0.5",bjvofe16z0afk6y,20,"[""Asian""]",No,Male,NA,No,430670,NA,null,<p></p>,null,choice,ctd,trinary,attraction,2,microwave ovens,null,null,null,null,null,null,2,NA,NA,NA,NA,NA,NA,NA,NA,NA,NA
NA,NA,NA,NA,NA,choice_trial,survey-html-form,9,68983,0.0-4.0-1.2,302,1,2025-05-08T01:06:03Z,b60275e29fe2361ab97ac0ac217840d7,Mozilla/5.0 (Windows NT 10.0; Win64; x64; rv:138.0) Gecko/20100101 Firefox/138.0,NA,Firefox,138,Windows,10,https://5puzkbbxv1.cognition.run/?sona_id=57614,"en-US,en;q=0.5",bjvofe16z0afk6y,20,"[""Asian""]",No,Male,NA,No,430670,NA,3847,NA,"{""product_choice"":""B""}",choice,ctd,trinary,attraction,2,microwave ovens,null,null,null,null,null,null,2,50,60,40,60,50,60,Warranty,Cooking power,NA,NA
NA,NA,NA,NA,NA,choice_trial_setup,html-keyboard-response,10,69285,0.0-4.0-0.3,302,1,2025-05-08T01:06:03Z,b60275e29fe2361ab97ac0ac217840d7,Mozilla/5.0 (Windows NT 10.0; Win64; x64; rv:138.0) Gecko/20100101 Firefox/138.0,NA,Firefox,138,Windows,10,https://5puzkbbxv1.cognition.run/?sona_id=57614,"en-US,en;q=0.5",bjvofe16z0afk6y,20,"[""Asian""]",No,Male,NA,No,430670,NA,null,<p></p>,null,choice,wb,binary,catch,null,laptops,90,95,25,25,null,null,1,NA,NA,NA,NA,NA,NA,NA,NA,NA,NA
NA,NA,NA,NA,NA,choice_trial,survey-html-form,11,75659,0.0-4.0-1.3,302,1,2025-05-08T01:06:03Z,b60275e29fe2361ab97ac0ac217840d7,Mozilla/5.0 (Windows NT 10.0; Win64; x64; rv:138.0) Gecko/20100101 Firefox/138.0,NA,Firefox,138,Windows,10,https://5puzkbbxv1.cognition.run/?sona_id=57614,"en-US,en;q=0.5",bjvofe16z0afk6y,20,"[""Asian""]",No,Male,NA,No,430670,NA,6373,NA,"{""product_choice"":""B""}",choice,wb,binary,catch,null,laptops,90,95,25,25,null,null,1,null,null,null,null,null,null,Processing speed,Memory (RAM),NA,NA
NA,NA,NA,NA,NA,choice_trial_setup,html-keyboard-response,12,75961,0.0-4.0-0.4,302,1,2025-05-08T01:06:03Z,b60275e29fe2361ab97ac0ac217840d7,Mozilla/5.0 (Windows NT 10.0; Win64; x64; rv:138.0) Gecko/20100101 Firefox/138.0,NA,Firefox,138,Windows,10,https://5puzkbbxv1.cognition.run/?sona_id=57614,"en-US,en;q=0.5",bjvofe16z0afk6y,20,"[""Asian""]",No,Male,NA,No,430670,NA,null,<p></p>,null,choice,tcd,trinary,repulsion_A,1,microwave ovens,null,null,null,null,null,null,1,NA,NA,NA,NA,NA,NA,NA,NA,NA,NA
NA,NA,NA,NA,NA,choice_trial,survey-html-form,13,85981,0.0-4.0-1.4,302,1,2025-05-08T01:06:03Z,b60275e29fe2361ab97ac0ac217840d7,Mozilla/5.0 (Windows NT 10.0; Win64; x64; rv:138.0) Gecko/20100101 Firefox/138.0,NA,Firefox,138,Windows,10,https://5puzkbbxv1.cognition.run/?sona_id=57614,"en-US,en;q=0.5",bjvofe16z0afk6y,20,"[""Asian""]",No,Male,NA,No,430670,NA,10018,NA,"{""product_choice"":""A""}",choice,tcd,trinary,repulsion_A,1,microwave ovens,null,null,null,null,null,null,1,100,90,100,30,40,20,Warranty,Cooking power,NA,NA
NA,NA,NA,NA,NA,choice_trial_setup,html-keyboard-response,14,86286,0.0-4.0-0.5,302,1,2025-05-08T01:06:03Z,b60275e29fe2361ab97ac0ac217840d7,Mozilla/5.0 (Windows NT 10.0; Win64; x64; rv:138.0) Gecko/20100101 Firefox/138.0,NA,Firefox,138,Windows,10,https://5puzkbbxv1.cognition.run/?sona_id=57614,"en-US,en;q=0.5",bjvofe16z0afk6y,20,"[""Asian""]",No,Male,NA,No,430670,NA,null,<p></p>,null,choice,wbw,trinary,catch,null,laptops,70,60,35,20,45,40,1,NA,NA,NA,NA,NA,NA,NA,NA,NA,NA
NA,NA,NA,NA,NA,choice_trial,survey-html-form,15,90170,0.0-4.0-1.5,302,1,2025-05-08T01:06:03Z,b60275e29fe2361ab97ac0ac217840d7,Mozilla/5.0 (Windows NT 10.0; Win64; x64; rv:138.0) Gecko/20100101 Firefox/138.0,NA,Firefox,138,Windows,10,https://5puzkbbxv1.cognition.run/?sona_id=57614,"en-US,en;q=0.5",bjvofe16z0afk6y,20,"[""Asian""]",No,Male,NA,No,430670,NA,3884,NA,"{""product_choice"":""B""}",choice,wbw,trinary,catch,null,laptops,70,60,35,20,45,40,1,null,null,null,null,null,null,Processing speed,Memory (RAM),NA,NA
NA,NA,NA,NA,NA,choice_trial_setup,html-keyboard-response,16,90477,0.0-4.0-0.6,302,1,2025-05-08T01:06:03Z,b60275e29fe2361ab97ac0ac217840d7,Mozilla/5.0 (Windows NT 10.0; Win64; x64; rv:138.0) Gecko/20100101 Firefox/138.0,NA,Firefox,138,Windows,10,https://5puzkbbxv1.cognition.run/?sona_id=57614,"en-US,en;q=0.5",bjvofe16z0afk6y,20,"[""Asian""]",No,Male,NA,No,430670,NA,null,<p></p>,null,choice,tcd,trinary,repulsion_B,2,laptops,null,null,null,null,null,null,1,NA,NA,NA,NA,NA,NA,NA,NA,NA,NA
NA,NA,NA,NA,NA,choice_trial,survey-html-form,17,94871,0.0-4.0-1.6,302,1,2025-05-08T01:06:03Z,b60275e29fe2361ab97ac0ac217840d7,Mozilla/5.0 (Windows NT 10.0; Win64; x64; rv:138.0) Gecko/20100101 Firefox/138.0,NA,Firefox,138,Windows,10,https://5puzkbbxv1.cognition.run/?sona_id=57614,"en-US,en;q=0.5",bjvofe16z0afk6y,20,"[""Asian""]",No,Male,NA,No,430670,NA,4393,NA,"{""product_choice"":""A""}",choice,tcd,trinary,repulsion_B,2,laptops,null,null,null,null,null,null,1,40,30,40,90,100,80,Processing speed,Memory (RAM),NA,NA
NA,NA,NA,NA,NA,choice_trial_setup,html-keyboard-response,18,95183,0.0-4.0-0.7,302,1,2025-05-08T01:06:03Z,b60275e29fe2361ab97ac0ac217840d7,Mozilla/5.0 (Windows NT 10.0; Win64; x64; rv:138.0) Gecko/20100101 Firefox/138.0,NA,Firefox,138,Windows,10,https://5puzkbbxv1.cognition.run/?sona_id=57614,"en-US,en;q=0.5",bjvofe16z0afk6y,20,"[""Asian""]",No,Male,NA,No,430670,NA,null,<p></p>,null,choice,cdt,trinary,repulsion_A,2,washing machines,null,null,null,null,null,null,1,NA,NA,NA,NA,NA,NA,NA,NA,NA,NA
NA,NA,NA,NA,NA,choice_trial,survey-html-form,19,105926,0.0-4.0-1.7,302,1,2025-05-08T01:06:03Z,b60275e29fe2361ab97ac0ac217840d7,Mozilla/5.0 (Windows NT 10.0; Win64; x64; rv:138.0) Gecko/20100101 Firefox/138.0,NA,Firefox,138,Windows,10,https://5puzkbbxv1.cognition.run/?sona_id=57614,"en-US,en;q=0.5",bjvofe16z0afk6y,20,"[""Asian""]",No,Male,NA,No,430670,NA,10742,NA,"{""product_choice"":""A""}",choice,cdt,trinary,repulsion_A,2,washing machines,null,null,null,null,null,null,1,30,40,20,100,90,100,Average lifespan,Energy savings,NA,NA
NA,NA,NA,NA,NA,choice_trial_setup,html-keyboard-response,20,106228,0.0-4.0-0.8,302,1,2025-05-08T01:06:03Z,b60275e29fe2361ab97ac0ac217840d7,Mozilla/5.0 (Windows NT 10.0; Win64; x64; rv:138.0) Gecko/20100101 Firefox/138.0,NA,Firefox,138,Windows,10,https://5puzkbbxv1.cognition.run/?sona_id=57614,"en-US,en;q=0.5",bjvofe16z0afk6y,20,"[""Asian""]",No,Male,NA,No,430670,NA,null,<p></p>,null,choice,ct,binary,repulsion,2,laptops,null,null,null,null,null,null,2,NA,NA,NA,NA,NA,NA,NA,NA,NA,NA
NA,NA,NA,NA,NA,choice_trial,survey-html-form,21,115144,0.0-4.0-1.8,302,1,2025-05-08T01:06:03Z,b60275e29fe2361ab97ac0ac217840d7,Mozilla/5.0 (Windows NT 10.0; Win64; x64; rv:138.0) Gecko/20100101 Firefox/138.0,NA,Firefox,138,Windows,10,https://5puzkbbxv1.cognition.run/?sona_id=57614,"en-US,en;q=0.5",bjvofe16z0afk6y,20,"[""Asian""]",No,Male,NA,No,430670,NA,8915,NA,"{""product_choice"":""A""}",choice,ct,binary,repulsion,2,laptops,null,null,null,null,null,null,2,30,40,null,100,90,null,Processing speed,Memory (RAM),NA,NA
NA,NA,NA,NA,NA,choice_trial_setup,html-keyboard-response,22,115458,0.0-4.0-0.9,302,1,2025-05-08T01:06:03Z,b60275e29fe2361ab97ac0ac217840d7,Mozilla/5.0 (Windows NT 10.0; Win64; x64; rv:138.0) Gecko/20100101 Firefox/138.0,NA,Firefox,138,Windows,10,https://5puzkbbxv1.cognition.run/?sona_id=57614,"en-US,en;q=0.5",bjvofe16z0afk6y,20,"[""Asian""]",No,Male,NA,No,430670,NA,null,<p></p>,null,choice,tc,binary,repulsion,2,microwave ovens,null,null,null,null,null,null,1,NA,NA,NA,NA,NA,NA,NA,NA,NA,NA
NA,NA,NA,NA,NA,choice_trial,survey-html-form,23,125429,0.0-4.0-1.9,302,1,2025-05-08T01:06:03Z,b60275e29fe2361ab97ac0ac217840d7,Mozilla/5.0 (Windows NT 10.0; Win64; x64; rv:138.0) Gecko/20100101 Firefox/138.0,NA,Firefox,138,Windows,10,https://5puzkbbxv1.cognition.run/?sona_id=57614,"en-US,en;q=0.5",bjvofe16z0afk6y,20,"[""Asian""]",No,Male,NA,No,430670,NA,9971,NA,"{""product_choice"":""B""}",choice,tc,binary,repulsion,2,microwave ovens,null,null,null,null,null,null,1,30,40,null,100,90,null,Warranty,Cooking power,NA,NA
NA,NA,NA,NA,NA,choice_trial_setup,html-keyboard-response,24,125743,0.0-4.0-0.10,302,1,2025-05-08T01:06:03Z,b60275e29fe2361ab97ac0ac217840d7,Mozilla/5.0 (Windows NT 10.0; Win64; x64; rv:138.0) Gecko/20100101 Firefox/138.0,NA,Firefox,138,Windows,10,https://5puzkbbxv1.cognition.run/?sona_id=57614,"en-US,en;q=0.5",bjvofe16z0afk6y,20,"[""Asian""]",No,Male,NA,No,430670,NA,null,<p></p>,null,choice,tc,binary,repulsion,1,laptops,null,null,null,null,null,null,2,NA,NA,NA,NA,NA,NA,NA,NA,NA,NA
NA,NA,NA,NA,NA,choice_trial,survey-html-form,25,129519,0.0-4.0-1.10,302,1,2025-05-08T01:06:03Z,b60275e29fe2361ab97ac0ac217840d7,Mozilla/5.0 (Windows NT 10.0; Win64; x64; rv:138.0) Gecko/20100101 Firefox/138.0,NA,Firefox,138,Windows,10,https://5puzkbbxv1.cognition.run/?sona_id=57614,"en-US,en;q=0.5",bjvofe16z0afk6y,20,"[""Asian""]",No,Male,NA,No,430670,NA,3774,NA,"{""product_choice"":""A""}",choice,tc,binary,repulsion,1,laptops,null,null,null,null,null,null,2,100,90,null,30,40,null,Processing speed,Memory (RAM),NA,NA
NA,NA,NA,NA,NA,choice_trial_setup,html-keyboard-response,26,129830,0.0-4.0-0.11,302,1,2025-05-08T01:06:03Z,b60275e29fe2361ab97ac0ac217840d7,Mozilla/5.0 (Windows NT 10.0; Win64; x64; rv:138.0) Gecko/20100101 Firefox/138.0,NA,Firefox,138,Windows,10,https://5puzkbbxv1.cognition.run/?sona_id=57614,"en-US,en;q=0.5",bjvofe16z0afk6y,20,"[""Asian""]",No,Male,NA,No,430670,NA,null,<p></p>,null,choice,tcd,trinary,repulsion_B,1,washing machines,null,null,null,null,null,null,2,NA,NA,NA,NA,NA,NA,NA,NA,NA,NA
NA,NA,NA,NA,NA,choice_trial,survey-html-form,27,139438,0.0-4.0-1.11,302,1,2025-05-08T01:06:03Z,b60275e29fe2361ab97ac0ac217840d7,Mozilla/5.0 (Windows NT 10.0; Win64; x64; rv:138.0) Gecko/20100101 Firefox/138.0,NA,Firefox,138,Windows,10,https://5puzkbbxv1.cognition.run/?sona_id=57614,"en-US,en;q=0.5",bjvofe16z0afk6y,20,"[""Asian""]",No,Male,NA,No,430670,NA,9607,NA,"{""product_choice"":""A""}",choice,tcd,trinary,repulsion_B,1,washing machines,null,null,null,null,null,null,2,90,100,80,40,30,40,Average lifespan,Energy savings,NA,NA
NA,NA,NA,NA,NA,choice_trial_setup,html-keyboard-response,28,139741,0.0-4.0-0.12,302,1,2025-05-08T01:06:03Z,b60275e29fe2361ab97ac0ac217840d7,Mozilla/5.0 (Windows NT 10.0; Win64; x64; rv:138.0) Gecko/20100101 Firefox/138.0,NA,Firefox,138,Windows,10,https://5puzkbbxv1.cognition.run/?sona_id=57614,"en-US,en;q=0.5",bjvofe16z0afk6y,20,"[""Asian""]",No,Male,NA,No,430670,NA,null,<p></p>,null,choice,dct,trinary,repulsion_A,2,televisions,null,null,null,null,null,null,1,NA,NA,NA,NA,NA,NA,NA,NA,NA,NA
NA,NA,NA,NA,NA,choice_trial,survey-html-form,29,145330,0.0-4.0-1.12,302,1,2025-05-08T01:06:03Z,b60275e29fe2361ab97ac0ac217840d7,Mozilla/5.0 (Windows NT 10.0; Win64; x64; rv:138.0) Gecko/20100101 Firefox/138.0,NA,Firefox,138,Windows,10,https://5puzkbbxv1.cognition.run/?sona_id=57614,"en-US,en;q=0.5",bjvofe16z0afk6y,20,"[""Asian""]",No,Male,NA,No,430670,NA,5584,NA,"{""product_choice"":""C""}",choice,dct,trinary,repulsion_A,2,televisions,null,null,null,null,null,null,1,30,40,20,100,90,100,Screen size,Average lifespan,NA,NA
NA,NA,NA,NA,NA,choice_trial_setup,html-keyboard-response,30,145641,0.0-4.0-0.13,302,1,2025-05-08T01:06:03Z,b60275e29fe2361ab97ac0ac217840d7,Mozilla/5.0 (Windows NT 10.0; Win64; x64; rv:138.0) Gecko/20100101 Firefox/138.0,NA,Firefox,138,Windows,10,https://5puzkbbxv1.cognition.run/?sona_id=57614,"en-US,en;q=0.5",bjvofe16z0afk6y,20,"[""Asian""]",No,Male,NA,No,430670,NA,null,<p></p>,null,choice,dtc,trinary,attraction,1,laptops,null,null,null,null,null,null,2,NA,NA,NA,NA,NA,NA,NA,NA,NA,NA
NA,NA,NA,NA,NA,choice_trial,survey-html-form,31,150810,0.0-4.0-1.13,302,1,2025-05-08T01:06:03Z,b60275e29fe2361ab97ac0ac217840d7,Mozilla/5.0 (Windows NT 10.0; Win64; x64; rv:138.0) Gecko/20100101 Firefox/138.0,NA,Firefox,138,Windows,10,https://5puzkbbxv1.cognition.run/?sona_id=57614,"en-US,en;q=0.5",bjvofe16z0afk6y,20,"[""Asian""]",No,Male,NA,No,430670,NA,5168,NA,"{""product_choice"":""B""}",choice,dtc,trinary,attraction,1,laptops,null,null,null,null,null,null,2,60,50,60,50,60,40,Processing speed,Memory (RAM),NA,NA
NA,NA,NA,NA,NA,choice_trial_setup,html-keyboard-response,32,151124,0.0-4.0-0.14,302,1,2025-05-08T01:06:03Z,b60275e29fe2361ab97ac0ac217840d7,Mozilla/5.0 (Windows NT 10.0; Win64; x64; rv:138.0) Gecko/20100101 Firefox/138.0,NA,Firefox,138,Windows,10,https://5puzkbbxv1.cognition.run/?sona_id=57614,"en-US,en;q=0.5",bjvofe16z0afk6y,20,"[""Asian""]",No,Male,NA,No,430670,NA,null,<p></p>,null,choice,tdc,trinary,repulsion_A,1,televisions,null,null,null,null,null,null,1,NA,NA,NA,NA,NA,NA,NA,NA,NA,NA
NA,NA,NA,NA,NA,choice_trial,survey-html-form,33,154916,0.0-4.0-1.14,302,1,2025-05-08T01:06:03Z,b60275e29fe2361ab97ac0ac217840d7,Mozilla/5.0 (Windows NT 10.0; Win64; x64; rv:138.0) Gecko/20100101 Firefox/138.0,NA,Firefox,138,Windows,10,https://5puzkbbxv1.cognition.run/?sona_id=57614,"en-US,en;q=0.5",bjvofe16z0afk6y,20,"[""Asian""]",No,Male,NA,No,430670,NA,3790,NA,"{""product_choice"":""C""}",choice,tdc,trinary,repulsion_A,1,televisions,null,null,null,null,null,null,1,100,90,100,30,40,20,Screen size,Average lifespan,NA,NA
NA,NA,NA,NA,NA,choice_trial_setup,html-keyboard-response,34,155220,0.0-4.0-0.15,302,1,2025-05-08T01:06:03Z,b60275e29fe2361ab97ac0ac217840d7,Mozilla/5.0 (Windows NT 10.0; Win64; x64; rv:138.0) Gecko/20100101 Firefox/138.0,NA,Firefox,138,Windows,10,https://5puzkbbxv1.cognition.run/?sona_id=57614,"en-US,en;q=0.5",bjvofe16z0afk6y,20,"[""Asian""]",No,Male,NA,No,430670,NA,null,<p></p>,null,choice,tdc,trinary,attraction,2,televisions,null,null,null,null,null,null,2,NA,NA,NA,NA,NA,NA,NA,NA,NA,NA
NA,NA,NA,NA,NA,choice_trial,survey-html-form,35,159970,0.0-4.0-1.15,302,1,2025-05-08T01:06:03Z,b60275e29fe2361ab97ac0ac217840d7,Mozilla/5.0 (Windows NT 10.0; Win64; x64; rv:138.0) Gecko/20100101 Firefox/138.0,NA,Firefox,138,Windows,10,https://5puzkbbxv1.cognition.run/?sona_id=57614,"en-US,en;q=0.5",bjvofe16z0afk6y,20,"[""Asian""]",No,Male,NA,No,430670,NA,4749,NA,"{""product_choice"":""A""}",choice,tdc,trinary,attraction,2,televisions,null,null,null,null,null,null,2,50,60,40,60,50,60,Screen size,Average lifespan,NA,NA
NA,NA,NA,NA,NA,choice_trial_setup,html-keyboard-response,36,160272,0.0-4.0-0.16,302,1,2025-05-08T01:06:03Z,b60275e29fe2361ab97ac0ac217840d7,Mozilla/5.0 (Windows NT 10.0; Win64; x64; rv:138.0) Gecko/20100101 Firefox/138.0,NA,Firefox,138,Windows,10,https://5puzkbbxv1.cognition.run/?sona_id=57614,"en-US,en;q=0.5",bjvofe16z0afk6y,20,"[""Asian""]",No,Male,NA,No,430670,NA,null,<p></p>,null,choice,ct,binary,repulsion,2,televisions,null,null,null,null,null,null,2,NA,NA,NA,NA,NA,NA,NA,NA,NA,NA
NA,NA,NA,NA,NA,choice_trial,survey-html-form,37,162189,0.0-4.0-1.16,302,1,2025-05-08T01:06:03Z,b60275e29fe2361ab97ac0ac217840d7,Mozilla/5.0 (Windows NT 10.0; Win64; x64; rv:138.0) Gecko/20100101 Firefox/138.0,NA,Firefox,138,Windows,10,https://5puzkbbxv1.cognition.run/?sona_id=57614,"en-US,en;q=0.5",bjvofe16z0afk6y,20,"[""Asian""]",No,Male,NA,No,430670,NA,1917,NA,"{""product_choice"":""B""}",choice,ct,binary,repulsion,2,televisions,null,null,null,null,null,null,2,30,40,null,100,90,null,Screen size,Average lifespan,NA,NA
NA,NA,NA,NA,NA,choice_trial_setup,html-keyboard-response,38,162495,0.0-4.0-0.17,302,1,2025-05-08T01:06:03Z,b60275e29fe2361ab97ac0ac217840d7,Mozilla/5.0 (Windows NT 10.0; Win64; x64; rv:138.0) Gecko/20100101 Firefox/138.0,NA,Firefox,138,Windows,10,https://5puzkbbxv1.cognition.run/?sona_id=57614,"en-US,en;q=0.5",bjvofe16z0afk6y,20,"[""Asian""]",No,Male,NA,No,430670,NA,null,<p></p>,null,choice,tc,binary,attraction,NA,washing machines,null,null,null,null,null,null,1,NA,NA,NA,NA,NA,NA,NA,NA,NA,NA
NA,NA,NA,NA,NA,choice_trial,survey-html-form,39,171299,0.0-4.0-1.17,302,1,2025-05-08T01:06:03Z,b60275e29fe2361ab97ac0ac217840d7,Mozilla/5.0 (Windows NT 10.0; Win64; x64; rv:138.0) Gecko/20100101 Firefox/138.0,NA,Firefox,138,Windows,10,https://5puzkbbxv1.cognition.run/?sona_id=57614,"en-US,en;q=0.5",bjvofe16z0afk6y,20,"[""Asian""]",No,Male,NA,No,430670,NA,8801,NA,"{""product_choice"":""A""}",choice,tc,binary,attraction,NA,washing machines,null,null,null,null,null,null,1,60,50,null,50,60,null,Average lifespan,Energy savings,NA,NA
NA,NA,NA,NA,NA,choice_trial_setup,html-keyboard-response,40,171607,0.0-4.0-0.18,302,1,2025-05-08T01:06:03Z,b60275e29fe2361ab97ac0ac217840d7,Mozilla/5.0 (Windows NT 10.0; Win64; x64; rv:138.0) Gecko/20100101 Firefox/138.0,NA,Firefox,138,Windows,10,https://5puzkbbxv1.cognition.run/?sona_id=57614,"en-US,en;q=0.5",bjvofe16z0afk6y,20,"[""Asian""]",No,Male,NA,No,430670,NA,null,<p></p>,null,choice,tcd,trinary,repulsion_A,2,laptops,null,null,null,null,null,null,1,NA,NA,NA,NA,NA,NA,NA,NA,NA,NA
NA,NA,NA,NA,NA,choice_trial,survey-html-form,41,174699,0.0-4.0-1.18,302,1,2025-05-08T01:06:03Z,b60275e29fe2361ab97ac0ac217840d7,Mozilla/5.0 (Windows NT 10.0; Win64; x64; rv:138.0) Gecko/20100101 Firefox/138.0,NA,Firefox,138,Windows,10,https://5puzkbbxv1.cognition.run/?sona_id=57614,"en-US,en;q=0.5",bjvofe16z0afk6y,20,"[""Asian""]",No,Male,NA,No,430670,NA,3091,NA,"{""product_choice"":""B""}",choice,tcd,trinary,repulsion_A,2,laptops,null,null,null,null,null,null,1,30,40,20,100,90,100,Processing speed,Memory (RAM),NA,NA
NA,NA,NA,NA,NA,choice_trial_setup,html-keyboard-response,42,175001,0.0-4.0-0.19,302,1,2025-05-08T01:06:03Z,b60275e29fe2361ab97ac0ac217840d7,Mozilla/5.0 (Windows NT 10.0; Win64; x64; rv:138.0) Gecko/20100101 Firefox/138.0,NA,Firefox,138,Windows,10,https://5puzkbbxv1.cognition.run/?sona_id=57614,"en-US,en;q=0.5",bjvofe16z0afk6y,20,"[""Asian""]",No,Male,NA,No,430670,NA,null,<p></p>,null,choice,cdt,trinary,repulsion_B,1,televisions,null,null,null,null,null,null,1,NA,NA,NA,NA,NA,NA,NA,NA,NA,NA
NA,NA,NA,NA,NA,choice_trial,survey-html-form,43,179836,0.0-4.0-1.19,302,1,2025-05-08T01:06:03Z,b60275e29fe2361ab97ac0ac217840d7,Mozilla/5.0 (Windows NT 10.0; Win64; x64; rv:138.0) Gecko/20100101 Firefox/138.0,NA,Firefox,138,Windows,10,https://5puzkbbxv1.cognition.run/?sona_id=57614,"en-US,en;q=0.5",bjvofe16z0afk6y,20,"[""Asian""]",No,Male,NA,No,430670,NA,4834,NA,"{""product_choice"":""C""}",choice,cdt,trinary,repulsion_B,1,televisions,null,null,null,null,null,null,1,90,100,80,40,30,40,Screen size,Average lifespan,NA,NA
NA,NA,NA,NA,NA,choice_trial_setup,html-keyboard-response,44,180148,0.0-4.0-0.20,302,1,2025-05-08T01:06:03Z,b60275e29fe2361ab97ac0ac217840d7,Mozilla/5.0 (Windows NT 10.0; Win64; x64; rv:138.0) Gecko/20100101 Firefox/138.0,NA,Firefox,138,Windows,10,https://5puzkbbxv1.cognition.run/?sona_id=57614,"en-US,en;q=0.5",bjvofe16z0afk6y,20,"[""Asian""]",No,Male,NA,No,430670,NA,null,<p></p>,null,choice,tc,binary,repulsion,2,washing machines,null,null,null,null,null,null,2,NA,NA,NA,NA,NA,NA,NA,NA,NA,NA
NA,NA,NA,NA,NA,choice_trial,survey-html-form,45,186633,0.0-4.0-1.20,302,1,2025-05-08T01:06:03Z,b60275e29fe2361ab97ac0ac217840d7,Mozilla/5.0 (Windows NT 10.0; Win64; x64; rv:138.0) Gecko/20100101 Firefox/138.0,NA,Firefox,138,Windows,10,https://5puzkbbxv1.cognition.run/?sona_id=57614,"en-US,en;q=0.5",bjvofe16z0afk6y,20,"[""Asian""]",No,Male,NA,No,430670,NA,6483,NA,"{""product_choice"":""B""}",choice,tc,binary,repulsion,2,washing machines,null,null,null,null,null,null,2,30,40,null,100,90,null,Average lifespan,Energy savings,NA,NA
NA,NA,NA,NA,NA,choice_trial_setup,html-keyboard-response,46,186944,0.0-4.0-0.21,302,1,2025-05-08T01:06:03Z,b60275e29fe2361ab97ac0ac217840d7,Mozilla/5.0 (Windows NT 10.0; Win64; x64; rv:138.0) Gecko/20100101 Firefox/138.0,NA,Firefox,138,Windows,10,https://5puzkbbxv1.cognition.run/?sona_id=57614,"en-US,en;q=0.5",bjvofe16z0afk6y,20,"[""Asian""]",No,Male,NA,No,430670,NA,null,<p></p>,null,choice,wb,binary,catch,null,washing machines,60,60,40,25,null,null,1,NA,NA,NA,NA,NA,NA,NA,NA,NA,NA
NA,NA,NA,NA,NA,choice_trial,survey-html-form,47,191837,0.0-4.0-1.21,302,1,2025-05-08T01:06:03Z,b60275e29fe2361ab97ac0ac217840d7,Mozilla/5.0 (Windows NT 10.0; Win64; x64; rv:138.0) Gecko/20100101 Firefox/138.0,NA,Firefox,138,Windows,10,https://5puzkbbxv1.cognition.run/?sona_id=57614,"en-US,en;q=0.5",bjvofe16z0afk6y,20,"[""Asian""]",No,Male,NA,No,430670,NA,4892,NA,"{""product_choice"":""B""}",choice,wb,binary,catch,null,washing machines,60,60,40,25,null,null,1,null,null,null,null,null,null,Average lifespan,Energy savings,NA,NA
NA,NA,NA,NA,NA,choice_trial_setup,html-keyboard-response,48,192148,0.0-4.0-0.22,302,1,2025-05-08T01:06:03Z,b60275e29fe2361ab97ac0ac217840d7,Mozilla/5.0 (Windows NT 10.0; Win64; x64; rv:138.0) Gecko/20100101 Firefox/138.0,NA,Firefox,138,Windows,10,https://5puzkbbxv1.cognition.run/?sona_id=57614,"en-US,en;q=0.5",bjvofe16z0afk6y,20,"[""Asian""]",No,Male,NA,No,430670,NA,null,<p></p>,null,choice,ctd,trinary,repulsion_B,2,televisions,null,null,null,null,null,null,2,NA,NA,NA,NA,NA,NA,NA,NA,NA,NA
NA,NA,NA,NA,NA,choice_trial,survey-html-form,49,196995,0.0-4.0-1.22,302,1,2025-05-08T01:06:03Z,b60275e29fe2361ab97ac0ac217840d7,Mozilla/5.0 (Windows NT 10.0; Win64; x64; rv:138.0) Gecko/20100101 Firefox/138.0,NA,Firefox,138,Windows,10,https://5puzkbbxv1.cognition.run/?sona_id=57614,"en-US,en;q=0.5",bjvofe16z0afk6y,20,"[""Asian""]",No,Male,NA,No,430670,NA,4846,NA,"{""product_choice"":""A""}",choice,ctd,trinary,repulsion_B,2,televisions,null,null,null,null,null,null,2,40,30,40,90,100,80,Screen size,Average lifespan,NA,NA
NA,NA,NA,NA,NA,choice_trial_setup,html-keyboard-response,50,197303,0.0-4.0-0.23,302,1,2025-05-08T01:06:03Z,b60275e29fe2361ab97ac0ac217840d7,Mozilla/5.0 (Windows NT 10.0; Win64; x64; rv:138.0) Gecko/20100101 Firefox/138.0,NA,Firefox,138,Windows,10,https://5puzkbbxv1.cognition.run/?sona_id=57614,"en-US,en;q=0.5",bjvofe16z0afk6y,20,"[""Asian""]",No,Male,NA,No,430670,NA,null,<p></p>,null,choice,wb,binary,catch,null,microwave ovens,80,55,20,50,null,null,1,NA,NA,NA,NA,NA,NA,NA,NA,NA,NA
NA,NA,NA,NA,NA,choice_trial,survey-html-form,51,201750,0.0-4.0-1.23,302,1,2025-05-08T01:06:03Z,b60275e29fe2361ab97ac0ac217840d7,Mozilla/5.0 (Windows NT 10.0; Win64; x64; rv:138.0) Gecko/20100101 Firefox/138.0,NA,Firefox,138,Windows,10,https://5puzkbbxv1.cognition.run/?sona_id=57614,"en-US,en;q=0.5",bjvofe16z0afk6y,20,"[""Asian""]",No,Male,NA,No,430670,NA,4445,NA,"{""product_choice"":""B""}",choice,wb,binary,catch,null,microwave ovens,80,55,20,50,null,null,1,null,null,null,null,null,null,Warranty,Cooking power,NA,NA
NA,NA,NA,NA,NA,choice_trial_setup,html-keyboard-response,52,202064,0.0-4.0-0.24,302,1,2025-05-08T01:06:03Z,b60275e29fe2361ab97ac0ac217840d7,Mozilla/5.0 (Windows NT 10.0; Win64; x64; rv:138.0) Gecko/20100101 Firefox/138.0,NA,Firefox,138,Windows,10,https://5puzkbbxv1.cognition.run/?sona_id=57614,"en-US,en;q=0.5",bjvofe16z0afk6y,20,"[""Asian""]",No,Male,NA,No,430670,NA,null,<p></p>,null,choice,ct,binary,repulsion,1,televisions,null,null,null,null,null,null,1,NA,NA,NA,NA,NA,NA,NA,NA,NA,NA
NA,NA,NA,NA,NA,choice_trial,survey-html-form,53,209115,0.0-4.0-1.24,302,1,2025-05-08T01:06:03Z,b60275e29fe2361ab97ac0ac217840d7,Mozilla/5.0 (Windows NT 10.0; Win64; x64; rv:138.0) Gecko/20100101 Firefox/138.0,NA,Firefox,138,Windows,10,https://5puzkbbxv1.cognition.run/?sona_id=57614,"en-US,en;q=0.5",bjvofe16z0afk6y,20,"[""Asian""]",No,Male,NA,No,430670,NA,7050,NA,"{""product_choice"":""A""}",choice,ct,binary,repulsion,1,televisions,null,null,null,null,null,null,1,100,90,null,30,40,null,Screen size,Average lifespan,NA,NA
NA,NA,NA,NA,NA,choice_trial_setup,html-keyboard-response,54,209428,0.0-4.0-0.25,302,1,2025-05-08T01:06:03Z,b60275e29fe2361ab97ac0ac217840d7,Mozilla/5.0 (Windows NT 10.0; Win64; x64; rv:138.0) Gecko/20100101 Firefox/138.0,NA,Firefox,138,Windows,10,https://5puzkbbxv1.cognition.run/?sona_id=57614,"en-US,en;q=0.5",bjvofe16z0afk6y,20,"[""Asian""]",No,Male,NA,No,430670,NA,null,<p></p>,null,choice,ct,binary,attraction,NA,microwave ovens,null,null,null,null,null,null,1,NA,NA,NA,NA,NA,NA,NA,NA,NA,NA
NA,NA,NA,NA,NA,choice_trial,survey-html-form,55,218177,0.0-4.0-1.25,302,1,2025-05-08T01:06:03Z,b60275e29fe2361ab97ac0ac217840d7,Mozilla/5.0 (Windows NT 10.0; Win64; x64; rv:138.0) Gecko/20100101 Firefox/138.0,NA,Firefox,138,Windows,10,https://5puzkbbxv1.cognition.run/?sona_id=57614,"en-US,en;q=0.5",bjvofe16z0afk6y,20,"[""Asian""]",No,Male,NA,No,430670,NA,8748,NA,"{""product_choice"":""A""}",choice,ct,binary,attraction,NA,microwave ovens,null,null,null,null,null,null,1,60,50,null,50,60,null,Warranty,Cooking power,NA,NA
NA,NA,NA,NA,NA,choice_trial_setup,html-keyboard-response,56,218492,0.0-4.0-0.26,302,1,2025-05-08T01:06:03Z,b60275e29fe2361ab97ac0ac217840d7,Mozilla/5.0 (Windows NT 10.0; Win64; x64; rv:138.0) Gecko/20100101 Firefox/138.0,NA,Firefox,138,Windows,10,https://5puzkbbxv1.cognition.run/?sona_id=57614,"en-US,en;q=0.5",bjvofe16z0afk6y,20,"[""Asian""]",No,Male,NA,No,430670,NA,null,<p></p>,null,choice,bww,trinary,catch,null,televisions,85,55,50,10,30,25,2,NA,NA,NA,NA,NA,NA,NA,NA,NA,NA
NA,NA,NA,NA,NA,choice_trial,survey-html-form,57,221621,0.0-4.0-1.26,302,1,2025-05-08T01:06:03Z,b60275e29fe2361ab97ac0ac217840d7,Mozilla/5.0 (Windows NT 10.0; Win64; x64; rv:138.0) Gecko/20100101 Firefox/138.0,NA,Firefox,138,Windows,10,https://5puzkbbxv1.cognition.run/?sona_id=57614,"en-US,en;q=0.5",bjvofe16z0afk6y,20,"[""Asian""]",No,Male,NA,No,430670,NA,3126,NA,"{""product_choice"":""A""}",choice,bww,trinary,catch,null,televisions,85,55,50,10,30,25,2,null,null,null,null,null,null,Screen size,Average lifespan,NA,NA
NA,NA,NA,NA,NA,choice_trial_setup,html-keyboard-response,58,221923,0.0-4.0-0.27,302,1,2025-05-08T01:06:03Z,b60275e29fe2361ab97ac0ac217840d7,Mozilla/5.0 (Windows NT 10.0; Win64; x64; rv:138.0) Gecko/20100101 Firefox/138.0,NA,Firefox,138,Windows,10,https://5puzkbbxv1.cognition.run/?sona_id=57614,"en-US,en;q=0.5",bjvofe16z0afk6y,20,"[""Asian""]",No,Male,NA,No,430670,NA,null,<p></p>,null,choice,dtc,trinary,repulsion_B,1,laptops,null,null,null,null,null,null,2,NA,NA,NA,NA,NA,NA,NA,NA,NA,NA
NA,NA,NA,NA,NA,choice_trial,survey-html-form,59,227196,0.0-4.0-1.27,302,1,2025-05-08T01:06:03Z,b60275e29fe2361ab97ac0ac217840d7,Mozilla/5.0 (Windows NT 10.0; Win64; x64; rv:138.0) Gecko/20100101 Firefox/138.0,NA,Firefox,138,Windows,10,https://5puzkbbxv1.cognition.run/?sona_id=57614,"en-US,en;q=0.5",bjvofe16z0afk6y,20,"[""Asian""]",No,Male,NA,No,430670,NA,5273,NA,"{""product_choice"":""C""}",choice,dtc,trinary,repulsion_B,1,laptops,null,null,null,null,null,null,2,90,100,80,40,30,40,Processing speed,Memory (RAM),NA,NA
NA,NA,NA,NA,NA,choice_trial_setup,html-keyboard-response,60,227509,0.0-4.0-0.28,302,1,2025-05-08T01:06:03Z,b60275e29fe2361ab97ac0ac217840d7,Mozilla/5.0 (Windows NT 10.0; Win64; x64; rv:138.0) Gecko/20100101 Firefox/138.0,NA,Firefox,138,Windows,10,https://5puzkbbxv1.cognition.run/?sona_id=57614,"en-US,en;q=0.5",bjvofe16z0afk6y,20,"[""Asian""]",No,Male,NA,No,430670,NA,null,<p></p>,null,choice,cdt,trinary,repulsion_B,2,microwave ovens,null,null,null,null,null,null,2,NA,NA,NA,NA,NA,NA,NA,NA,NA,NA
NA,NA,NA,NA,NA,choice_trial,survey-html-form,61,230972,0.0-4.0-1.28,302,1,2025-05-08T01:06:03Z,b60275e29fe2361ab97ac0ac217840d7,Mozilla/5.0 (Windows NT 10.0; Win64; x64; rv:138.0) Gecko/20100101 Firefox/138.0,NA,Firefox,138,Windows,10,https://5puzkbbxv1.cognition.run/?sona_id=57614,"en-US,en;q=0.5",bjvofe16z0afk6y,20,"[""Asian""]",No,Male,NA,No,430670,NA,3460,NA,"{""product_choice"":""C""}",choice,cdt,trinary,repulsion_B,2,microwave ovens,null,null,null,null,null,null,2,40,30,40,90,100,80,Warranty,Cooking power,NA,NA
NA,NA,NA,NA,NA,choice_trial_setup,html-keyboard-response,62,231277,0.0-4.0-0.29,302,1,2025-05-08T01:06:03Z,b60275e29fe2361ab97ac0ac217840d7,Mozilla/5.0 (Windows NT 10.0; Win64; x64; rv:138.0) Gecko/20100101 Firefox/138.0,NA,Firefox,138,Windows,10,https://5puzkbbxv1.cognition.run/?sona_id=57614,"en-US,en;q=0.5",bjvofe16z0afk6y,20,"[""Asian""]",No,Male,NA,No,430670,NA,null,<p></p>,null,choice,tcd,trinary,attraction,1,washing machines,null,null,null,null,null,null,2,NA,NA,NA,NA,NA,NA,NA,NA,NA,NA
NA,NA,NA,NA,NA,choice_trial,survey-html-form,63,248390,0.0-4.0-1.29,302,1,2025-05-08T01:06:03Z,b60275e29fe2361ab97ac0ac217840d7,Mozilla/5.0 (Windows NT 10.0; Win64; x64; rv:138.0) Gecko/20100101 Firefox/138.0,NA,Firefox,138,Windows,10,https://5puzkbbxv1.cognition.run/?sona_id=57614,"en-US,en;q=0.5",bjvofe16z0afk6y,20,"[""Asian""]",No,Male,NA,No,430670,NA,17109,NA,"{""product_choice"":""A""}",choice,tcd,trinary,attraction,1,washing machines,null,null,null,null,null,null,2,60,50,60,50,60,40,Average lifespan,Energy savings,NA,NA
NA,NA,NA,NA,NA,choice_trial_setup,html-keyboard-response,64,248706,0.0-4.0-0.30,302,1,2025-05-08T01:06:03Z,b60275e29fe2361ab97ac0ac217840d7,Mozilla/5.0 (Windows NT 10.0; Win64; x64; rv:138.0) Gecko/20100101 Firefox/138.0,NA,Firefox,138,Windows,10,https://5puzkbbxv1.cognition.run/?sona_id=57614,"en-US,en;q=0.5",bjvofe16z0afk6y,20,"[""Asian""]",No,Male,NA,No,430670,NA,null,<p></p>,null,choice,cdt,trinary,repulsion_A,1,laptops,null,null,null,null,null,null,1,NA,NA,NA,NA,NA,NA,NA,NA,NA,NA
NA,NA,NA,NA,NA,choice_trial,survey-html-form,65,254757,0.0-4.0-1.30,302,1,2025-05-08T01:06:03Z,b60275e29fe2361ab97ac0ac217840d7,Mozilla/5.0 (Windows NT 10.0; Win64; x64; rv:138.0) Gecko/20100101 Firefox/138.0,NA,Firefox,138,Windows,10,https://5puzkbbxv1.cognition.run/?sona_id=57614,"en-US,en;q=0.5",bjvofe16z0afk6y,20,"[""Asian""]",No,Male,NA,No,430670,NA,6050,NA,"{""product_choice"":""C""}",choice,cdt,trinary,repulsion_A,1,laptops,null,null,null,null,null,null,1,100,90,100,30,40,20,Processing speed,Memory (RAM),NA,NA
NA,NA,NA,NA,NA,choice_trial_setup,html-keyboard-response,66,255067,0.0-4.0-0.31,302,1,2025-05-08T01:06:03Z,b60275e29fe2361ab97ac0ac217840d7,Mozilla/5.0 (Windows NT 10.0; Win64; x64; rv:138.0) Gecko/20100101 Firefox/138.0,NA,Firefox,138,Windows,10,https://5puzkbbxv1.cognition.run/?sona_id=57614,"en-US,en;q=0.5",bjvofe16z0afk6y,20,"[""Asian""]",No,Male,NA,No,430670,NA,null,<p></p>,null,choice,tdc,trinary,repulsion_A,1,washing machines,null,null,null,null,null,null,1,NA,NA,NA,NA,NA,NA,NA,NA,NA,NA
NA,NA,NA,NA,NA,choice_trial,survey-html-form,67,258173,0.0-4.0-1.31,302,1,2025-05-08T01:06:03Z,b60275e29fe2361ab97ac0ac217840d7,Mozilla/5.0 (Windows NT 10.0; Win64; x64; rv:138.0) Gecko/20100101 Firefox/138.0,NA,Firefox,138,Windows,10,https://5puzkbbxv1.cognition.run/?sona_id=57614,"en-US,en;q=0.5",bjvofe16z0afk6y,20,"[""Asian""]",No,Male,NA,No,430670,NA,3102,NA,"{""product_choice"":""A""}",choice,tdc,trinary,repulsion_A,1,washing machines,null,null,null,null,null,null,1,100,90,100,30,40,20,Average lifespan,Energy savings,NA,NA
NA,NA,NA,NA,NA,choice_trial_setup,html-keyboard-response,68,258480,0.0-4.0-0.32,302,1,2025-05-08T01:06:03Z,b60275e29fe2361ab97ac0ac217840d7,Mozilla/5.0 (Windows NT 10.0; Win64; x64; rv:138.0) Gecko/20100101 Firefox/138.0,NA,Firefox,138,Windows,10,https://5puzkbbxv1.cognition.run/?sona_id=57614,"en-US,en;q=0.5",bjvofe16z0afk6y,20,"[""Asian""]",No,Male,NA,No,430670,NA,null,<p></p>,null,choice,wwb,trinary,catch,null,microwave ovens,55,50,15,45,15,45,2,NA,NA,NA,NA,NA,NA,NA,NA,NA,NA
NA,NA,NA,NA,NA,choice_trial,survey-html-form,69,274332,0.0-4.0-1.32,302,1,2025-05-08T01:06:03Z,b60275e29fe2361ab97ac0ac217840d7,Mozilla/5.0 (Windows NT 10.0; Win64; x64; rv:138.0) Gecko/20100101 Firefox/138.0,NA,Firefox,138,Windows,10,https://5puzkbbxv1.cognition.run/?sona_id=57614,"en-US,en;q=0.5",bjvofe16z0afk6y,20,"[""Asian""]",No,Male,NA,No,430670,NA,15849,NA,"{""product_choice"":""C""}",choice,wwb,trinary,catch,null,microwave ovens,55,50,15,45,15,45,2,null,null,null,null,null,null,Warranty,Cooking power,NA,NA
NA,NA,NA,NA,NA,choice_trial_setup,html-keyboard-response,70,274648,0.0-4.0-0.33,302,1,2025-05-08T01:06:03Z,b60275e29fe2361ab97ac0ac217840d7,Mozilla/5.0 (Windows NT 10.0; Win64; x64; rv:138.0) Gecko/20100101 Firefox/138.0,NA,Firefox,138,Windows,10,https://5puzkbbxv1.cognition.run/?sona_id=57614,"en-US,en;q=0.5",bjvofe16z0afk6y,20,"[""Asian""]",No,Male,NA,No,430670,NA,null,<p></p>,null,choice,wb,binary,catch,null,televisions,50,60,45,15,null,null,2,NA,NA,NA,NA,NA,NA,NA,NA,NA,NA
NA,NA,NA,NA,NA,choice_trial,survey-html-form,71,277369,0.0-4.0-1.33,302,1,2025-05-08T01:06:03Z,b60275e29fe2361ab97ac0ac217840d7,Mozilla/5.0 (Windows NT 10.0; Win64; x64; rv:138.0) Gecko/20100101 Firefox/138.0,NA,Firefox,138,Windows,10,https://5puzkbbxv1.cognition.run/?sona_id=57614,"en-US,en;q=0.5",bjvofe16z0afk6y,20,"[""Asian""]",No,Male,NA,No,430670,NA,2718,NA,"{""product_choice"":""B""}",choice,wb,binary,catch,null,televisions,50,60,45,15,null,null,2,null,null,null,null,null,null,Screen size,Average lifespan,NA,NA
NA,NA,NA,NA,NA,choice_trial_setup,html-keyboard-response,72,277671,0.0-4.0-0.34,302,1,2025-05-08T01:06:03Z,b60275e29fe2361ab97ac0ac217840d7,Mozilla/5.0 (Windows NT 10.0; Win64; x64; rv:138.0) Gecko/20100101 Firefox/138.0,NA,Firefox,138,Windows,10,https://5puzkbbxv1.cognition.run/?sona_id=57614,"en-US,en;q=0.5",bjvofe16z0afk6y,20,"[""Asian""]",No,Male,NA,No,430670,NA,null,<p></p>,null,choice,ctd,trinary,repulsion_B,2,washing machines,null,null,null,null,null,null,2,NA,NA,NA,NA,NA,NA,NA,NA,NA,NA
NA,NA,NA,NA,NA,choice_trial,survey-html-form,73,335480,0.0-4.0-1.34,302,1,2025-05-08T01:06:03Z,b60275e29fe2361ab97ac0ac217840d7,Mozilla/5.0 (Windows NT 10.0; Win64; x64; rv:138.0) Gecko/20100101 Firefox/138.0,NA,Firefox,138,Windows,10,https://5puzkbbxv1.cognition.run/?sona_id=57614,"en-US,en;q=0.5",bjvofe16z0afk6y,20,"[""Asian""]",No,Male,NA,No,430670,NA,57809,NA,"{""product_choice"":""A""}",choice,ctd,trinary,repulsion_B,2,washing machines,null,null,null,null,null,null,2,40,30,40,90,100,80,Average lifespan,Energy savings,NA,NA
NA,NA,NA,NA,NA,choice_trial_setup,html-keyboard-response,74,335785,0.0-4.0-0.35,302,1,2025-05-08T01:06:03Z,b60275e29fe2361ab97ac0ac217840d7,Mozilla/5.0 (Windows NT 10.0; Win64; x64; rv:138.0) Gecko/20100101 Firefox/138.0,NA,Firefox,138,Windows,10,https://5puzkbbxv1.cognition.run/?sona_id=57614,"en-US,en;q=0.5",bjvofe16z0afk6y,20,"[""Asian""]",No,Male,NA,No,430670,NA,null,<p></p>,null,choice,dtc,trinary,attraction,2,laptops,null,null,null,null,null,null,1,NA,NA,NA,NA,NA,NA,NA,NA,NA,NA
NA,NA,NA,NA,NA,choice_trial,survey-html-form,75,337859,0.0-4.0-1.35,302,1,2025-05-08T01:06:03Z,b60275e29fe2361ab97ac0ac217840d7,Mozilla/5.0 (Windows NT 10.0; Win64; x64; rv:138.0) Gecko/20100101 Firefox/138.0,NA,Firefox,138,Windows,10,https://5puzkbbxv1.cognition.run/?sona_id=57614,"en-US,en;q=0.5",bjvofe16z0afk6y,20,"[""Asian""]",No,Male,NA,No,430670,NA,2071,NA,"{""product_choice"":""C""}",choice,dtc,trinary,attraction,2,laptops,null,null,null,null,null,null,1,50,60,40,60,50,60,Processing speed,Memory (RAM),NA,NA
NA,NA,NA,NA,NA,choice_trial_setup,html-keyboard-response,76,338173,0.0-4.0-0.36,302,1,2025-05-08T01:06:03Z,b60275e29fe2361ab97ac0ac217840d7,Mozilla/5.0 (Windows NT 10.0; Win64; x64; rv:138.0) Gecko/20100101 Firefox/138.0,NA,Firefox,138,Windows,10,https://5puzkbbxv1.cognition.run/?sona_id=57614,"en-US,en;q=0.5",bjvofe16z0afk6y,20,"[""Asian""]",No,Male,NA,No,430670,NA,null,<p></p>,null,choice,tcd,trinary,attraction,1,televisions,null,null,null,null,null,null,2,NA,NA,NA,NA,NA,NA,NA,NA,NA,NA
NA,NA,NA,NA,NA,choice_trial,survey-html-form,77,340801,0.0-4.0-1.36,302,1,2025-05-08T01:06:03Z,b60275e29fe2361ab97ac0ac217840d7,Mozilla/5.0 (Windows NT 10.0; Win64; x64; rv:138.0) Gecko/20100101 Firefox/138.0,NA,Firefox,138,Windows,10,https://5puzkbbxv1.cognition.run/?sona_id=57614,"en-US,en;q=0.5",bjvofe16z0afk6y,20,"[""Asian""]",No,Male,NA,No,430670,NA,2626,NA,"{""product_choice"":""B""}",choice,tcd,trinary,attraction,1,televisions,null,null,null,null,null,null,2,60,50,60,50,60,40,Screen size,Average lifespan,NA,NA
NA,NA,NA,NA,NA,choice_trial_setup,html-keyboard-response,78,341114,0.0-4.0-0.37,302,1,2025-05-08T01:06:03Z,b60275e29fe2361ab97ac0ac217840d7,Mozilla/5.0 (Windows NT 10.0; Win64; x64; rv:138.0) Gecko/20100101 Firefox/138.0,NA,Firefox,138,Windows,10,https://5puzkbbxv1.cognition.run/?sona_id=57614,"en-US,en;q=0.5",bjvofe16z0afk6y,20,"[""Asian""]",No,Male,NA,No,430670,NA,null,<p></p>,null,choice,tc,binary,attraction,NA,televisions,null,null,null,null,null,null,2,NA,NA,NA,NA,NA,NA,NA,NA,NA,NA
NA,NA,NA,NA,NA,choice_trial,survey-html-form,79,342327,0.0-4.0-1.37,302,1,2025-05-08T01:06:03Z,b60275e29fe2361ab97ac0ac217840d7,Mozilla/5.0 (Windows NT 10.0; Win64; x64; rv:138.0) Gecko/20100101 Firefox/138.0,NA,Firefox,138,Windows,10,https://5puzkbbxv1.cognition.run/?sona_id=57614,"en-US,en;q=0.5",bjvofe16z0afk6y,20,"[""Asian""]",No,Male,NA,No,430670,NA,1212,NA,"{""product_choice"":""B""}",choice,tc,binary,attraction,NA,televisions,null,null,null,null,null,null,2,60,50,null,50,60,null,Screen size,Average lifespan,NA,NA
NA,NA,NA,NA,NA,choice_trial_setup,html-keyboard-response,80,342642,0.0-4.0-0.38,302,1,2025-05-08T01:06:03Z,b60275e29fe2361ab97ac0ac217840d7,Mozilla/5.0 (Windows NT 10.0; Win64; x64; rv:138.0) Gecko/20100101 Firefox/138.0,NA,Firefox,138,Windows,10,https://5puzkbbxv1.cognition.run/?sona_id=57614,"en-US,en;q=0.5",bjvofe16z0afk6y,20,"[""Asian""]",No,Male,NA,No,430670,NA,null,<p></p>,null,choice,ct,binary,repulsion,1,washing machines,null,null,null,null,null,null,1,NA,NA,NA,NA,NA,NA,NA,NA,NA,NA
NA,NA,NA,NA,NA,choice_trial,survey-html-form,81,345127,0.0-4.0-1.38,302,1,2025-05-08T01:06:03Z,b60275e29fe2361ab97ac0ac217840d7,Mozilla/5.0 (Windows NT 10.0; Win64; x64; rv:138.0) Gecko/20100101 Firefox/138.0,NA,Firefox,138,Windows,10,https://5puzkbbxv1.cognition.run/?sona_id=57614,"en-US,en;q=0.5",bjvofe16z0afk6y,20,"[""Asian""]",No,Male,NA,No,430670,NA,2482,NA,"{""product_choice"":""B""}",choice,ct,binary,repulsion,1,washing machines,null,null,null,null,null,null,1,100,90,null,30,40,null,Average lifespan,Energy savings,NA,NA
NA,NA,NA,NA,NA,choice_trial_setup,html-keyboard-response,82,345437,0.0-4.0-0.39,302,1,2025-05-08T01:06:03Z,b60275e29fe2361ab97ac0ac217840d7,Mozilla/5.0 (Windows NT 10.0; Win64; x64; rv:138.0) Gecko/20100101 Firefox/138.0,NA,Firefox,138,Windows,10,https://5puzkbbxv1.cognition.run/?sona_id=57614,"en-US,en;q=0.5",bjvofe16z0afk6y,20,"[""Asian""]",No,Male,NA,No,430670,NA,null,<p></p>,null,choice,tdc,trinary,repulsion_B,1,microwave ovens,null,null,null,null,null,null,1,NA,NA,NA,NA,NA,NA,NA,NA,NA,NA
NA,NA,NA,NA,NA,choice_trial,survey-html-form,83,351780,0.0-4.0-1.39,302,1,2025-05-08T01:06:03Z,b60275e29fe2361ab97ac0ac217840d7,Mozilla/5.0 (Windows NT 10.0; Win64; x64; rv:138.0) Gecko/20100101 Firefox/138.0,NA,Firefox,138,Windows,10,https://5puzkbbxv1.cognition.run/?sona_id=57614,"en-US,en;q=0.5",bjvofe16z0afk6y,20,"[""Asian""]",No,Male,NA,No,430670,NA,6342,NA,"{""product_choice"":""A""}",choice,tdc,trinary,repulsion_B,1,microwave ovens,null,null,null,null,null,null,1,90,100,80,40,30,40,Warranty,Cooking power,NA,NA
NA,NA,NA,NA,NA,choice_trial_setup,html-keyboard-response,84,352084,0.0-4.0-0.40,302,1,2025-05-08T01:06:03Z,b60275e29fe2361ab97ac0ac217840d7,Mozilla/5.0 (Windows NT 10.0; Win64; x64; rv:138.0) Gecko/20100101 Firefox/138.0,NA,Firefox,138,Windows,10,https://5puzkbbxv1.cognition.run/?sona_id=57614,"en-US,en;q=0.5",bjvofe16z0afk6y,20,"[""Asian""]",No,Male,NA,No,430670,NA,null,<p></p>,null,choice,tcd,trinary,attraction,1,microwave ovens,null,null,null,null,null,null,1,NA,NA,NA,NA,NA,NA,NA,NA,NA,NA
NA,NA,NA,NA,NA,choice_trial,survey-html-form,85,355624,0.0-4.0-1.40,302,1,2025-05-08T01:06:03Z,b60275e29fe2361ab97ac0ac217840d7,Mozilla/5.0 (Windows NT 10.0; Win64; x64; rv:138.0) Gecko/20100101 Firefox/138.0,NA,Firefox,138,Windows,10,https://5puzkbbxv1.cognition.run/?sona_id=57614,"en-US,en;q=0.5",bjvofe16z0afk6y,20,"[""Asian""]",No,Male,NA,No,430670,NA,3538,NA,"{""product_choice"":""A""}",choice,tcd,trinary,attraction,1,microwave ovens,null,null,null,null,null,null,1,60,50,60,50,60,40,Warranty,Cooking power,NA,NA
NA,NA,NA,NA,NA,choice_trial_setup,html-keyboard-response,86,355933,0.0-4.0-0.41,302,1,2025-05-08T01:06:03Z,b60275e29fe2361ab97ac0ac217840d7,Mozilla/5.0 (Windows NT 10.0; Win64; x64; rv:138.0) Gecko/20100101 Firefox/138.0,NA,Firefox,138,Windows,10,https://5puzkbbxv1.cognition.run/?sona_id=57614,"en-US,en;q=0.5",bjvofe16z0afk6y,20,"[""Asian""]",No,Male,NA,No,430670,NA,null,<p></p>,null,choice,ct,binary,repulsion,1,microwave ovens,null,null,null,null,null,null,2,NA,NA,NA,NA,NA,NA,NA,NA,NA,NA
NA,NA,NA,NA,NA,choice_trial,survey-html-form,87,358837,0.0-4.0-1.41,302,1,2025-05-08T01:06:03Z,b60275e29fe2361ab97ac0ac217840d7,Mozilla/5.0 (Windows NT 10.0; Win64; x64; rv:138.0) Gecko/20100101 Firefox/138.0,NA,Firefox,138,Windows,10,https://5puzkbbxv1.cognition.run/?sona_id=57614,"en-US,en;q=0.5",bjvofe16z0afk6y,20,"[""Asian""]",No,Male,NA,No,430670,NA,2902,NA,"{""product_choice"":""A""}",choice,ct,binary,repulsion,1,microwave ovens,null,null,null,null,null,null,2,100,90,null,30,40,null,Warranty,Cooking power,NA,NA
NA,NA,NA,NA,NA,choice_trial_setup,html-keyboard-response,88,359150,0.0-4.0-0.42,302,1,2025-05-08T01:06:03Z,b60275e29fe2361ab97ac0ac217840d7,Mozilla/5.0 (Windows NT 10.0; Win64; x64; rv:138.0) Gecko/20100101 Firefox/138.0,NA,Firefox,138,Windows,10,https://5puzkbbxv1.cognition.run/?sona_id=57614,"en-US,en;q=0.5",bjvofe16z0afk6y,20,"[""Asian""]",No,Male,NA,No,430670,NA,null,<p></p>,null,choice,ct,binary,attraction,NA,laptops,null,null,null,null,null,null,2,NA,NA,NA,NA,NA,NA,NA,NA,NA,NA
NA,NA,NA,NA,NA,choice_trial,survey-html-form,89,362418,0.0-4.0-1.42,302,1,2025-05-08T01:06:03Z,b60275e29fe2361ab97ac0ac217840d7,Mozilla/5.0 (Windows NT 10.0; Win64; x64; rv:138.0) Gecko/20100101 Firefox/138.0,NA,Firefox,138,Windows,10,https://5puzkbbxv1.cognition.run/?sona_id=57614,"en-US,en;q=0.5",bjvofe16z0afk6y,20,"[""Asian""]",No,Male,NA,No,430670,NA,3266,NA,"{""product_choice"":""B""}",choice,ct,binary,attraction,NA,laptops,null,null,null,null,null,null,2,60,50,null,50,60,null,Processing speed,Memory (RAM),NA,NA
NA,NA,NA,NA,NA,choice_trial_setup,html-keyboard-response,90,362731,0.0-4.0-0.43,302,1,2025-05-08T01:06:03Z,b60275e29fe2361ab97ac0ac217840d7,Mozilla/5.0 (Windows NT 10.0; Win64; x64; rv:138.0) Gecko/20100101 Firefox/138.0,NA,Firefox,138,Windows,10,https://5puzkbbxv1.cognition.run/?sona_id=57614,"en-US,en;q=0.5",bjvofe16z0afk6y,20,"[""Asian""]",No,Male,NA,No,430670,NA,null,<p></p>,null,choice,tdc,trinary,attraction,2,washing machines,null,null,null,null,null,null,1,NA,NA,NA,NA,NA,NA,NA,NA,NA,NA
NA,NA,NA,NA,NA,choice_trial,survey-html-form,91,365445,0.0-4.0-1.43,302,1,2025-05-08T01:06:03Z,b60275e29fe2361ab97ac0ac217840d7,Mozilla/5.0 (Windows NT 10.0; Win64; x64; rv:138.0) Gecko/20100101 Firefox/138.0,NA,Firefox,138,Windows,10,https://5puzkbbxv1.cognition.run/?sona_id=57614,"en-US,en;q=0.5",bjvofe16z0afk6y,20,"[""Asian""]",No,Male,NA,No,430670,NA,2710,NA,"{""product_choice"":""C""}",choice,tdc,trinary,attraction,2,washing machines,null,null,null,null,null,null,1,50,60,40,60,50,60,Average lifespan,Energy savings,NA,NA
NA,NA,NA,NA,NA,post_trials_message,html-button-response,92,366720,0.0-5.0,302,1,2025-05-08T01:06:03Z,b60275e29fe2361ab97ac0ac217840d7,Mozilla/5.0 (Windows NT 10.0; Win64; x64; rv:138.0) Gecko/20100101 Firefox/138.0,NA,Firefox,138,Windows,10,https://5puzkbbxv1.cognition.run/?sona_id=57614,"en-US,en;q=0.5",bjvofe16z0afk6y,20,"[""Asian""]",No,Male,NA,No,430670,NA,1274,<p> <b>Thank you for your patience!</b></p><p>  The study will be done after completing a brief form. </p>,0,NA,NA,NA,NA,NA,NA,NA,NA,NA,NA,NA,NA,NA,NA,NA,NA,NA,NA,NA,NA,NA,NA,NA
NA,NA,NA,NA,NA,survey_message,survey-text,93,399842,0.0-6.0,302,1,2025-05-08T01:06:03Z,b60275e29fe2361ab97ac0ac217840d7,Mozilla/5.0 (Windows NT 10.0; Win64; x64; rv:138.0) Gecko/20100101 Firefox/138.0,NA,Firefox,138,Windows,10,https://5puzkbbxv1.cognition.run/?sona_id=57614,"en-US,en;q=0.5",bjvofe16z0afk6y,20,"[""Asian""]",No,Male,NA,No,430670,NA,33119,NA,"{""Q0"":""I chose what I think it desireable in an object. I want my devices to live longer, and I find processing speed very important. ""}",NA,NA,NA,NA,NA,NA,NA,NA,NA,NA,NA,NA,NA,NA,NA,NA,NA,NA,NA,NA,NA,"I chose what I think it desireable in an object. I want my devices to live longer, and I find processing speed very important.",NA
NA,NA,NA,NA,NA,demo_age,survey-text,94,402276,0.0-7.0,302,1,2025-05-08T01:06:03Z,b60275e29fe2361ab97ac0ac217840d7,Mozilla/5.0 (Windows NT 10.0; Win64; x64; rv:138.0) Gecko/20100101 Firefox/138.0,NA,Firefox,138,Windows,10,https://5puzkbbxv1.cognition.run/?sona_id=57614,"en-US,en;q=0.5",bjvofe16z0afk6y,20,"[""Asian""]",No,Male,NA,No,430670,NA,2430,NA,"{""Q0"":""20""}",NA,NA,NA,NA,NA,NA,NA,NA,NA,NA,NA,NA,NA,NA,NA,NA,NA,NA,NA,NA,NA,NA,NA
NA,NA,NA,NA,NA,demo_race,survey-multi-select,95,403853,0.0-8.0,302,1,2025-05-08T01:06:03Z,b60275e29fe2361ab97ac0ac217840d7,Mozilla/5.0 (Windows NT 10.0; Win64; x64; rv:138.0) Gecko/20100101 Firefox/138.0,NA,Firefox,138,Windows,10,https://5puzkbbxv1.cognition.run/?sona_id=57614,"en-US,en;q=0.5",bjvofe16z0afk6y,20,"[""Asian""]",No,Male,NA,No,430670,NA,1573,NA,"{""Q0"":[""Asian""]}",NA,NA,NA,NA,NA,NA,NA,NA,NA,NA,NA,NA,NA,NA,NA,NA,NA,NA,NA,NA,NA,NA,[0]
NA,NA,NA,NA,NA,demo_ethnicity_gender,survey-multi-choice,96,407344,0.0-9.0,302,1,2025-05-08T01:06:03Z,b60275e29fe2361ab97ac0ac217840d7,Mozilla/5.0 (Windows NT 10.0; Win64; x64; rv:138.0) Gecko/20100101 Firefox/138.0,NA,Firefox,138,Windows,10,https://5puzkbbxv1.cognition.run/?sona_id=57614,"en-US,en;q=0.5",bjvofe16z0afk6y,20,"[""Asian""]",No,Male,NA,No,430670,NA,3490,NA,"{""Q0"":""No"",""Q1"":""Male""}",NA,NA,NA,NA,NA,NA,NA,NA,NA,NA,NA,NA,NA,NA,NA,NA,NA,NA,NA,NA,NA,NA,"[0,1]"
NA,NA,NA,NA,NA,demo_countries,survey-text,97,414952,0.0-10.0,302,1,2025-05-08T01:06:03Z,b60275e29fe2361ab97ac0ac217840d7,Mozilla/5.0 (Windows NT 10.0; Win64; x64; rv:138.0) Gecko/20100101 Firefox/138.0,NA,Firefox,138,Windows,10,https://5puzkbbxv1.cognition.run/?sona_id=57614,"en-US,en;q=0.5",bjvofe16z0afk6y,20,"[""Asian""]",No,Male,NA,No,430670,NA,7603,NA,"{""Q0"":""NA""}",NA,NA,NA,NA,NA,NA,NA,NA,NA,NA,NA,NA,NA,NA,NA,NA,NA,NA,NA,NA,NA,NA,NA
NA,NA,NA,NA,NA,demo_prev_study,survey-multi-choice,98,421408,0.0-11.0,302,1,2025-05-08T01:06:03Z,b60275e29fe2361ab97ac0ac217840d7,Mozilla/5.0 (Windows NT 10.0; Win64; x64; rv:138.0) Gecko/20100101 Firefox/138.0,NA,Firefox,138,Windows,10,https://5puzkbbxv1.cognition.run/?sona_id=57614,"en-US,en;q=0.5",bjvofe16z0afk6y,20,"[""Asian""]",No,Male,NA,No,430670,NA,6454,NA,"{""Q0"":""No""}",NA,NA,NA,NA,NA,NA,NA,NA,NA,NA,NA,NA,NA,NA,NA,NA,NA,NA,NA,NA,NA,NA,[0]
NA,NA,NA,NA,NA,post_survey_message,html-keyboard-response,99,424061,0.0-12.0,302,1,2025-05-08T01:06:03Z,b60275e29fe2361ab97ac0ac217840d7,Mozilla/5.0 (Windows NT 10.0; Win64; x64; rv:138.0) Gecko/20100101 Firefox/138.0,NA,Firefox,138,Windows,10,https://5puzkbbxv1.cognition.run/?sona_id=57614,"en-US,en;q=0.5",bjvofe16z0afk6y,20,"[""Asian""]",No,Male,NA,No,430670,NA,2649,NA,j,NA,NA,NA,NA,NA,NA,NA,NA,NA,NA,NA,NA,NA,NA,NA,NA,NA,NA,NA,NA,NA,NA,NA
NA,NA,NA,NA,NA,debrief,image-keyboard-response,100,430669,0.0-13.0,302,1,2025-05-08T01:06:03Z,b60275e29fe2361ab97ac0ac217840d7,Mozilla/5.0 (Windows NT 10.0; Win64; x64; rv:138.0) Gecko/20100101 Firefox/138.0,NA,Firefox,138,Windows,10,https://5puzkbbxv1.cognition.run/?sona_id=57614,"en-US,en;q=0.5",bjvofe16z0afk6y,20,"[""Asian""]",No,Male,NA,No,430670,NA,6591,Judg_choice_debrief.png,p,NA,NA,NA,NA,NA,NA,NA,NA,NA,NA,NA,NA,NA,NA,NA,NA,NA,NA,NA,NA,NA,NA,NA
