success,timeout,failed_images,failed_audio,failed_video,screen_id,trial_type,trial_index,time_elapsed,internal_node_id,run_id,condition,recorded_at,source_code_version,user_agent,device,browser,browser_version,platform,platform_version,referer,accept_language,ppt_id,age,race,ethnicity,gender,other_countries,prev_study,exp_duration,view_history,rt,stimulus,response,phase,order,set,effect,t_high,category,d1_best,d2_best,d1_worst1,d2_worst1,d1_worst2,d2_worst2,first_dim,d1_t,d1_c,d1_d,d2_t,d2_c,d2_d,d1_name,d2_name,strategy_response,question_order
TRUE,FALSE,[],[],[],img preload,preload,0,252,0.0-0.0,304,1,2025-05-08T01:27:16Z,b60275e29fe2361ab97ac0ac217840d7,"Mozilla/5.0 (Windows NT 10.0; Win64; x64) AppleWebKit/537.36 (KHTML, like Gecko) Chrome/136.0.0.0 Safari/537.36",WebKit,Chrome,136.0.0.0,Windows,10,https://5puzkbbxv1.cognition.run/?sona_id=51425,"en-US,en;q=0.9",6to9cd9n4o5feqo,22,"[""Black or African-American""]",No,Female,NA,Yes,541023.799999997,NA,NA,NA,NA,NA,NA,NA,NA,NA,NA,NA,NA,NA,NA,NA,NA,NA,NA,NA,NA,NA,NA,NA,NA,NA,NA,NA
NA,NA,NA,NA,NA,computer_message,instructions,1,2695,0.0-1.0,304,1,2025-05-08T01:27:16Z,b60275e29fe2361ab97ac0ac217840d7,"Mozilla/5.0 (Windows NT 10.0; Win64; x64) AppleWebKit/537.36 (KHTML, like Gecko) Chrome/136.0.0.0 Safari/537.36",WebKit,Chrome,136.0.0.0,Windows,10,https://5puzkbbxv1.cognition.run/?sona_id=51425,"en-US,en;q=0.9",6to9cd9n4o5feqo,22,"[""Black or African-American""]",No,Female,NA,Yes,541023.799999997,"[{""page_index"":0,""viewing_time"":2443}]",2443,NA,NA,NA,NA,NA,NA,NA,NA,NA,NA,NA,NA,NA,NA,NA,NA,NA,NA,NA,NA,NA,NA,NA,NA,NA
TRUE,NA,NA,NA,NA,NA,fullscreen,2,4634,0.0-2.0,304,1,2025-05-08T01:27:16Z,b60275e29fe2361ab97ac0ac217840d7,"Mozilla/5.0 (Windows NT 10.0; Win64; x64) AppleWebKit/537.36 (KHTML, like Gecko) Chrome/136.0.0.0 Safari/537.36",WebKit,Chrome,136.0.0.0,Windows,10,https://5puzkbbxv1.cognition.run/?sona_id=51425,"en-US,en;q=0.9",6to9cd9n4o5feqo,22,"[""Black or African-American""]",No,Female,NA,Yes,541023.799999997,NA,935,NA,NA,NA,NA,NA,NA,NA,NA,NA,NA,NA,NA,NA,NA,NA,NA,NA,NA,NA,NA,NA,NA,NA,NA,NA
NA,NA,NA,NA,NA,choice_instructions,instructions,3,54643,0.0-3.0,304,1,2025-05-08T01:27:16Z,b60275e29fe2361ab97ac0ac217840d7,"Mozilla/5.0 (Windows NT 10.0; Win64; x64) AppleWebKit/537.36 (KHTML, like Gecko) Chrome/136.0.0.0 Safari/537.36",WebKit,Chrome,136.0.0.0,Windows,10,https://5puzkbbxv1.cognition.run/?sona_id=51425,"en-US,en;q=0.9",6to9cd9n4o5feqo,22,"[""Black or African-American""]",No,Female,NA,Yes,541023.799999997,"[{""page_index"":0,""viewing_time"":957},{""page_index"":1,""viewing_time"":4792},{""page_index"":2,""viewing_time"":7608},{""page_index"":3,""viewing_time"":8552},{""page_index"":4,""viewing_time"":2352},{""page_index"":5,""viewing_time"":17616},{""page_index"":6,""viewing_time"":8128}]",50005,NA,NA,NA,NA,NA,NA,NA,NA,NA,NA,NA,NA,NA,NA,NA,NA,NA,NA,NA,NA,NA,NA,NA,NA,NA
NA,NA,NA,NA,NA,choice_trial_setup,html-keyboard-response,4,54944,0.0-4.0-0.0,304,1,2025-05-08T01:27:16Z,b60275e29fe2361ab97ac0ac217840d7,"Mozilla/5.0 (Windows NT 10.0; Win64; x64) AppleWebKit/537.36 (KHTML, like Gecko) Chrome/136.0.0.0 Safari/537.36",WebKit,Chrome,136.0.0.0,Windows,10,https://5puzkbbxv1.cognition.run/?sona_id=51425,"en-US,en;q=0.9",6to9cd9n4o5feqo,22,"[""Black or African-American""]",No,Female,NA,Yes,541023.799999997,NA,null,<p></p>,null,choice,ct,binary,attraction,NA,televisions,null,null,null,null,null,null,1,NA,NA,NA,NA,NA,NA,NA,NA,NA,NA
NA,NA,NA,NA,NA,choice_trial,survey-html-form,5,63507,0.0-4.0-1.0,304,1,2025-05-08T01:27:16Z,b60275e29fe2361ab97ac0ac217840d7,"Mozilla/5.0 (Windows NT 10.0; Win64; x64) AppleWebKit/537.36 (KHTML, like Gecko) Chrome/136.0.0.0 Safari/537.36",WebKit,Chrome,136.0.0.0,Windows,10,https://5puzkbbxv1.cognition.run/?sona_id=51425,"en-US,en;q=0.9",6to9cd9n4o5feqo,22,"[""Black or African-American""]",No,Female,NA,Yes,541023.799999997,NA,8561,NA,"{""product_choice"":""A""}",choice,ct,binary,attraction,NA,televisions,null,null,null,null,null,null,1,60,50,null,50,60,null,Screen size,Average lifespan,NA,NA
NA,NA,NA,NA,NA,choice_trial_setup,html-keyboard-response,6,63809,0.0-4.0-0.1,304,1,2025-05-08T01:27:16Z,b60275e29fe2361ab97ac0ac217840d7,"Mozilla/5.0 (Windows NT 10.0; Win64; x64) AppleWebKit/537.36 (KHTML, like Gecko) Chrome/136.0.0.0 Safari/537.36",WebKit,Chrome,136.0.0.0,Windows,10,https://5puzkbbxv1.cognition.run/?sona_id=51425,"en-US,en;q=0.9",6to9cd9n4o5feqo,22,"[""Black or African-American""]",No,Female,NA,Yes,541023.799999997,NA,null,<p></p>,null,choice,tcd,trinary,repulsion_B,1,televisions,null,null,null,null,null,null,1,NA,NA,NA,NA,NA,NA,NA,NA,NA,NA
NA,NA,NA,NA,NA,choice_trial,survey-html-form,7,71563,0.0-4.0-1.1,304,1,2025-05-08T01:27:16Z,b60275e29fe2361ab97ac0ac217840d7,"Mozilla/5.0 (Windows NT 10.0; Win64; x64) AppleWebKit/537.36 (KHTML, like Gecko) Chrome/136.0.0.0 Safari/537.36",WebKit,Chrome,136.0.0.0,Windows,10,https://5puzkbbxv1.cognition.run/?sona_id=51425,"en-US,en;q=0.9",6to9cd9n4o5feqo,22,"[""Black or African-American""]",No,Female,NA,Yes,541023.799999997,NA,7753,NA,"{""product_choice"":""A""}",choice,tcd,trinary,repulsion_B,1,televisions,null,null,null,null,null,null,1,90,100,80,40,30,40,Screen size,Average lifespan,NA,NA
NA,NA,NA,NA,NA,choice_trial_setup,html-keyboard-response,8,71865,0.0-4.0-0.2,304,1,2025-05-08T01:27:16Z,b60275e29fe2361ab97ac0ac217840d7,"Mozilla/5.0 (Windows NT 10.0; Win64; x64) AppleWebKit/537.36 (KHTML, like Gecko) Chrome/136.0.0.0 Safari/537.36",WebKit,Chrome,136.0.0.0,Windows,10,https://5puzkbbxv1.cognition.run/?sona_id=51425,"en-US,en;q=0.9",6to9cd9n4o5feqo,22,"[""Black or African-American""]",No,Female,NA,Yes,541023.799999997,NA,null,<p></p>,null,choice,ctd,trinary,repulsion_A,1,microwave ovens,null,null,null,null,null,null,1,NA,NA,NA,NA,NA,NA,NA,NA,NA,NA
NA,NA,NA,NA,NA,choice_trial,survey-html-form,9,82667,0.0-4.0-1.2,304,1,2025-05-08T01:27:16Z,b60275e29fe2361ab97ac0ac217840d7,"Mozilla/5.0 (Windows NT 10.0; Win64; x64) AppleWebKit/537.36 (KHTML, like Gecko) Chrome/136.0.0.0 Safari/537.36",WebKit,Chrome,136.0.0.0,Windows,10,https://5puzkbbxv1.cognition.run/?sona_id=51425,"en-US,en;q=0.9",6to9cd9n4o5feqo,22,"[""Black or African-American""]",No,Female,NA,Yes,541023.799999997,NA,10801,NA,"{""product_choice"":""A""}",choice,ctd,trinary,repulsion_A,1,microwave ovens,null,null,null,null,null,null,1,100,90,100,30,40,20,Warranty,Cooking power,NA,NA
NA,NA,NA,NA,NA,choice_trial_setup,html-keyboard-response,10,82968,0.0-4.0-0.3,304,1,2025-05-08T01:27:16Z,b60275e29fe2361ab97ac0ac217840d7,"Mozilla/5.0 (Windows NT 10.0; Win64; x64) AppleWebKit/537.36 (KHTML, like Gecko) Chrome/136.0.0.0 Safari/537.36",WebKit,Chrome,136.0.0.0,Windows,10,https://5puzkbbxv1.cognition.run/?sona_id=51425,"en-US,en;q=0.9",6to9cd9n4o5feqo,22,"[""Black or African-American""]",No,Female,NA,Yes,541023.799999997,NA,null,<p></p>,null,choice,dct,trinary,attraction,1,microwave ovens,null,null,null,null,null,null,1,NA,NA,NA,NA,NA,NA,NA,NA,NA,NA
NA,NA,NA,NA,NA,choice_trial,survey-html-form,11,90403,0.0-4.0-1.3,304,1,2025-05-08T01:27:16Z,b60275e29fe2361ab97ac0ac217840d7,"Mozilla/5.0 (Windows NT 10.0; Win64; x64) AppleWebKit/537.36 (KHTML, like Gecko) Chrome/136.0.0.0 Safari/537.36",WebKit,Chrome,136.0.0.0,Windows,10,https://5puzkbbxv1.cognition.run/?sona_id=51425,"en-US,en;q=0.9",6to9cd9n4o5feqo,22,"[""Black or African-American""]",No,Female,NA,Yes,541023.799999997,NA,7433,NA,"{""product_choice"":""C""}",choice,dct,trinary,attraction,1,microwave ovens,null,null,null,null,null,null,1,60,50,60,50,60,40,Warranty,Cooking power,NA,NA
NA,NA,NA,NA,NA,choice_trial_setup,html-keyboard-response,12,90704,0.0-4.0-0.4,304,1,2025-05-08T01:27:16Z,b60275e29fe2361ab97ac0ac217840d7,"Mozilla/5.0 (Windows NT 10.0; Win64; x64) AppleWebKit/537.36 (KHTML, like Gecko) Chrome/136.0.0.0 Safari/537.36",WebKit,Chrome,136.0.0.0,Windows,10,https://5puzkbbxv1.cognition.run/?sona_id=51425,"en-US,en;q=0.9",6to9cd9n4o5feqo,22,"[""Black or African-American""]",No,Female,NA,Yes,541023.799999997,NA,null,<p></p>,null,choice,dtc,trinary,repulsion_B,2,televisions,null,null,null,null,null,null,2,NA,NA,NA,NA,NA,NA,NA,NA,NA,NA
NA,NA,NA,NA,NA,choice_trial,survey-html-form,13,100315,0.0-4.0-1.4,304,1,2025-05-08T01:27:16Z,b60275e29fe2361ab97ac0ac217840d7,"Mozilla/5.0 (Windows NT 10.0; Win64; x64) AppleWebKit/537.36 (KHTML, like Gecko) Chrome/136.0.0.0 Safari/537.36",WebKit,Chrome,136.0.0.0,Windows,10,https://5puzkbbxv1.cognition.run/?sona_id=51425,"en-US,en;q=0.9",6to9cd9n4o5feqo,22,"[""Black or African-American""]",No,Female,NA,Yes,541023.799999997,NA,9610,NA,"{""product_choice"":""C""}",choice,dtc,trinary,repulsion_B,2,televisions,null,null,null,null,null,null,2,40,30,40,90,100,80,Screen size,Average lifespan,NA,NA
NA,NA,NA,NA,NA,choice_trial_setup,html-keyboard-response,14,100616,0.0-4.0-0.5,304,1,2025-05-08T01:27:16Z,b60275e29fe2361ab97ac0ac217840d7,"Mozilla/5.0 (Windows NT 10.0; Win64; x64) AppleWebKit/537.36 (KHTML, like Gecko) Chrome/136.0.0.0 Safari/537.36",WebKit,Chrome,136.0.0.0,Windows,10,https://5puzkbbxv1.cognition.run/?sona_id=51425,"en-US,en;q=0.9",6to9cd9n4o5feqo,22,"[""Black or African-American""]",No,Female,NA,Yes,541023.799999997,NA,null,<p></p>,null,choice,ct,binary,repulsion,1,microwave ovens,null,null,null,null,null,null,2,NA,NA,NA,NA,NA,NA,NA,NA,NA,NA
NA,NA,NA,NA,NA,choice_trial,survey-html-form,15,134479,0.0-4.0-1.5,304,1,2025-05-08T01:27:16Z,b60275e29fe2361ab97ac0ac217840d7,"Mozilla/5.0 (Windows NT 10.0; Win64; x64) AppleWebKit/537.36 (KHTML, like Gecko) Chrome/136.0.0.0 Safari/537.36",WebKit,Chrome,136.0.0.0,Windows,10,https://5puzkbbxv1.cognition.run/?sona_id=51425,"en-US,en;q=0.9",6to9cd9n4o5feqo,22,"[""Black or African-American""]",No,Female,NA,Yes,541023.799999997,NA,33858,NA,"{""product_choice"":""A""}",choice,ct,binary,repulsion,1,microwave ovens,null,null,null,null,null,null,2,100,90,null,30,40,null,Warranty,Cooking power,NA,NA
NA,NA,NA,NA,NA,choice_trial_setup,html-keyboard-response,16,134781,0.0-4.0-0.6,304,1,2025-05-08T01:27:16Z,b60275e29fe2361ab97ac0ac217840d7,"Mozilla/5.0 (Windows NT 10.0; Win64; x64) AppleWebKit/537.36 (KHTML, like Gecko) Chrome/136.0.0.0 Safari/537.36",WebKit,Chrome,136.0.0.0,Windows,10,https://5puzkbbxv1.cognition.run/?sona_id=51425,"en-US,en;q=0.9",6to9cd9n4o5feqo,22,"[""Black or African-American""]",No,Female,NA,Yes,541023.799999997,NA,null,<p></p>,null,choice,dtc,trinary,repulsion_B,1,washing machines,null,null,null,null,null,null,2,NA,NA,NA,NA,NA,NA,NA,NA,NA,NA
NA,NA,NA,NA,NA,choice_trial,survey-html-form,17,144039,0.0-4.0-1.6,304,1,2025-05-08T01:27:16Z,b60275e29fe2361ab97ac0ac217840d7,"Mozilla/5.0 (Windows NT 10.0; Win64; x64) AppleWebKit/537.36 (KHTML, like Gecko) Chrome/136.0.0.0 Safari/537.36",WebKit,Chrome,136.0.0.0,Windows,10,https://5puzkbbxv1.cognition.run/?sona_id=51425,"en-US,en;q=0.9",6to9cd9n4o5feqo,22,"[""Black or African-American""]",No,Female,NA,Yes,541023.799999997,NA,9257,NA,"{""product_choice"":""B""}",choice,dtc,trinary,repulsion_B,1,washing machines,null,null,null,null,null,null,2,90,100,80,40,30,40,Average lifespan,Energy savings,NA,NA
NA,NA,NA,NA,NA,choice_trial_setup,html-keyboard-response,18,144340,0.0-4.0-0.7,304,1,2025-05-08T01:27:16Z,b60275e29fe2361ab97ac0ac217840d7,"Mozilla/5.0 (Windows NT 10.0; Win64; x64) AppleWebKit/537.36 (KHTML, like Gecko) Chrome/136.0.0.0 Safari/537.36",WebKit,Chrome,136.0.0.0,Windows,10,https://5puzkbbxv1.cognition.run/?sona_id=51425,"en-US,en;q=0.9",6to9cd9n4o5feqo,22,"[""Black or African-American""]",No,Female,NA,Yes,541023.799999997,NA,null,<p></p>,null,choice,wbw,trinary,catch,null,microwave ovens,85,85,30,10,35,25,1,NA,NA,NA,NA,NA,NA,NA,NA,NA,NA
NA,NA,NA,NA,NA,choice_trial,survey-html-form,19,150439,0.0-4.0-1.7,304,1,2025-05-08T01:27:16Z,b60275e29fe2361ab97ac0ac217840d7,"Mozilla/5.0 (Windows NT 10.0; Win64; x64) AppleWebKit/537.36 (KHTML, like Gecko) Chrome/136.0.0.0 Safari/537.36",WebKit,Chrome,136.0.0.0,Windows,10,https://5puzkbbxv1.cognition.run/?sona_id=51425,"en-US,en;q=0.9",6to9cd9n4o5feqo,22,"[""Black or African-American""]",No,Female,NA,Yes,541023.799999997,NA,6098,NA,"{""product_choice"":""B""}",choice,wbw,trinary,catch,null,microwave ovens,85,85,30,10,35,25,1,null,null,null,null,null,null,Warranty,Cooking power,NA,NA
NA,NA,NA,NA,NA,choice_trial_setup,html-keyboard-response,20,150740,0.0-4.0-0.8,304,1,2025-05-08T01:27:16Z,b60275e29fe2361ab97ac0ac217840d7,"Mozilla/5.0 (Windows NT 10.0; Win64; x64) AppleWebKit/537.36 (KHTML, like Gecko) Chrome/136.0.0.0 Safari/537.36",WebKit,Chrome,136.0.0.0,Windows,10,https://5puzkbbxv1.cognition.run/?sona_id=51425,"en-US,en;q=0.9",6to9cd9n4o5feqo,22,"[""Black or African-American""]",No,Female,NA,Yes,541023.799999997,NA,null,<p></p>,null,choice,tc,binary,repulsion,2,laptops,null,null,null,null,null,null,2,NA,NA,NA,NA,NA,NA,NA,NA,NA,NA
NA,NA,NA,NA,NA,choice_trial,survey-html-form,21,160879,0.0-4.0-1.8,304,1,2025-05-08T01:27:16Z,b60275e29fe2361ab97ac0ac217840d7,"Mozilla/5.0 (Windows NT 10.0; Win64; x64) AppleWebKit/537.36 (KHTML, like Gecko) Chrome/136.0.0.0 Safari/537.36",WebKit,Chrome,136.0.0.0,Windows,10,https://5puzkbbxv1.cognition.run/?sona_id=51425,"en-US,en;q=0.9",6to9cd9n4o5feqo,22,"[""Black or African-American""]",No,Female,NA,Yes,541023.799999997,NA,10138,NA,"{""product_choice"":""B""}",choice,tc,binary,repulsion,2,laptops,null,null,null,null,null,null,2,30,40,null,100,90,null,Processing speed,Memory (RAM),NA,NA
NA,NA,NA,NA,NA,choice_trial_setup,html-keyboard-response,22,161181,0.0-4.0-0.9,304,1,2025-05-08T01:27:16Z,b60275e29fe2361ab97ac0ac217840d7,"Mozilla/5.0 (Windows NT 10.0; Win64; x64) AppleWebKit/537.36 (KHTML, like Gecko) Chrome/136.0.0.0 Safari/537.36",WebKit,Chrome,136.0.0.0,Windows,10,https://5puzkbbxv1.cognition.run/?sona_id=51425,"en-US,en;q=0.9",6to9cd9n4o5feqo,22,"[""Black or African-American""]",No,Female,NA,Yes,541023.799999997,NA,null,<p></p>,null,choice,cdt,trinary,attraction,1,televisions,null,null,null,null,null,null,2,NA,NA,NA,NA,NA,NA,NA,NA,NA,NA
NA,NA,NA,NA,NA,choice_trial,survey-html-form,23,192475,0.0-4.0-1.9,304,1,2025-05-08T01:27:16Z,b60275e29fe2361ab97ac0ac217840d7,"Mozilla/5.0 (Windows NT 10.0; Win64; x64) AppleWebKit/537.36 (KHTML, like Gecko) Chrome/136.0.0.0 Safari/537.36",WebKit,Chrome,136.0.0.0,Windows,10,https://5puzkbbxv1.cognition.run/?sona_id=51425,"en-US,en;q=0.9",6to9cd9n4o5feqo,22,"[""Black or African-American""]",No,Female,NA,Yes,541023.799999997,NA,31289,NA,"{""product_choice"":""C""}",choice,cdt,trinary,attraction,1,televisions,null,null,null,null,null,null,2,60,50,60,50,60,40,Screen size,Average lifespan,NA,NA
NA,NA,NA,NA,NA,choice_trial_setup,html-keyboard-response,24,192777,0.0-4.0-0.10,304,1,2025-05-08T01:27:16Z,b60275e29fe2361ab97ac0ac217840d7,"Mozilla/5.0 (Windows NT 10.0; Win64; x64) AppleWebKit/537.36 (KHTML, like Gecko) Chrome/136.0.0.0 Safari/537.36",WebKit,Chrome,136.0.0.0,Windows,10,https://5puzkbbxv1.cognition.run/?sona_id=51425,"en-US,en;q=0.9",6to9cd9n4o5feqo,22,"[""Black or African-American""]",No,Female,NA,Yes,541023.799999997,NA,null,<p></p>,null,choice,tc,binary,repulsion,2,washing machines,null,null,null,null,null,null,2,NA,NA,NA,NA,NA,NA,NA,NA,NA,NA
NA,NA,NA,NA,NA,choice_trial,survey-html-form,25,209650,0.0-4.0-1.10,304,1,2025-05-08T01:27:16Z,b60275e29fe2361ab97ac0ac217840d7,"Mozilla/5.0 (Windows NT 10.0; Win64; x64) AppleWebKit/537.36 (KHTML, like Gecko) Chrome/136.0.0.0 Safari/537.36",WebKit,Chrome,136.0.0.0,Windows,10,https://5puzkbbxv1.cognition.run/?sona_id=51425,"en-US,en;q=0.9",6to9cd9n4o5feqo,22,"[""Black or African-American""]",No,Female,NA,Yes,541023.799999997,NA,16872,NA,"{""product_choice"":""B""}",choice,tc,binary,repulsion,2,washing machines,null,null,null,null,null,null,2,30,40,null,100,90,null,Average lifespan,Energy savings,NA,NA
NA,NA,NA,NA,NA,choice_trial_setup,html-keyboard-response,26,209952,0.0-4.0-0.11,304,1,2025-05-08T01:27:16Z,b60275e29fe2361ab97ac0ac217840d7,"Mozilla/5.0 (Windows NT 10.0; Win64; x64) AppleWebKit/537.36 (KHTML, like Gecko) Chrome/136.0.0.0 Safari/537.36",WebKit,Chrome,136.0.0.0,Windows,10,https://5puzkbbxv1.cognition.run/?sona_id=51425,"en-US,en;q=0.9",6to9cd9n4o5feqo,22,"[""Black or African-American""]",No,Female,NA,Yes,541023.799999997,NA,null,<p></p>,null,choice,bww,trinary,catch,null,laptops,85,60,10,25,25,15,1,NA,NA,NA,NA,NA,NA,NA,NA,NA,NA
NA,NA,NA,NA,NA,choice_trial,survey-html-form,27,212891,0.0-4.0-1.11,304,1,2025-05-08T01:27:16Z,b60275e29fe2361ab97ac0ac217840d7,"Mozilla/5.0 (Windows NT 10.0; Win64; x64) AppleWebKit/537.36 (KHTML, like Gecko) Chrome/136.0.0.0 Safari/537.36",WebKit,Chrome,136.0.0.0,Windows,10,https://5puzkbbxv1.cognition.run/?sona_id=51425,"en-US,en;q=0.9",6to9cd9n4o5feqo,22,"[""Black or African-American""]",No,Female,NA,Yes,541023.799999997,NA,2938,NA,"{""product_choice"":""A""}",choice,bww,trinary,catch,null,laptops,85,60,10,25,25,15,1,null,null,null,null,null,null,Processing speed,Memory (RAM),NA,NA
NA,NA,NA,NA,NA,choice_trial_setup,html-keyboard-response,28,213193,0.0-4.0-0.12,304,1,2025-05-08T01:27:16Z,b60275e29fe2361ab97ac0ac217840d7,"Mozilla/5.0 (Windows NT 10.0; Win64; x64) AppleWebKit/537.36 (KHTML, like Gecko) Chrome/136.0.0.0 Safari/537.36",WebKit,Chrome,136.0.0.0,Windows,10,https://5puzkbbxv1.cognition.run/?sona_id=51425,"en-US,en;q=0.9",6to9cd9n4o5feqo,22,"[""Black or African-American""]",No,Female,NA,Yes,541023.799999997,NA,null,<p></p>,null,choice,tdc,trinary,repulsion_A,2,microwave ovens,null,null,null,null,null,null,1,NA,NA,NA,NA,NA,NA,NA,NA,NA,NA
NA,NA,NA,NA,NA,choice_trial,survey-html-form,29,222059,0.0-4.0-1.12,304,1,2025-05-08T01:27:16Z,b60275e29fe2361ab97ac0ac217840d7,"Mozilla/5.0 (Windows NT 10.0; Win64; x64) AppleWebKit/537.36 (KHTML, like Gecko) Chrome/136.0.0.0 Safari/537.36",WebKit,Chrome,136.0.0.0,Windows,10,https://5puzkbbxv1.cognition.run/?sona_id=51425,"en-US,en;q=0.9",6to9cd9n4o5feqo,22,"[""Black or African-American""]",No,Female,NA,Yes,541023.799999997,NA,8865,NA,"{""product_choice"":""C""}",choice,tdc,trinary,repulsion_A,2,microwave ovens,null,null,null,null,null,null,1,30,40,20,100,90,100,Warranty,Cooking power,NA,NA
NA,NA,NA,NA,NA,choice_trial_setup,html-keyboard-response,30,222360,0.0-4.0-0.13,304,1,2025-05-08T01:27:16Z,b60275e29fe2361ab97ac0ac217840d7,"Mozilla/5.0 (Windows NT 10.0; Win64; x64) AppleWebKit/537.36 (KHTML, like Gecko) Chrome/136.0.0.0 Safari/537.36",WebKit,Chrome,136.0.0.0,Windows,10,https://5puzkbbxv1.cognition.run/?sona_id=51425,"en-US,en;q=0.9",6to9cd9n4o5feqo,22,"[""Black or African-American""]",No,Female,NA,Yes,541023.799999997,NA,null,<p></p>,null,choice,ct,binary,repulsion,1,laptops,null,null,null,null,null,null,2,NA,NA,NA,NA,NA,NA,NA,NA,NA,NA
NA,NA,NA,NA,NA,choice_trial,survey-html-form,31,229699,0.0-4.0-1.13,304,1,2025-05-08T01:27:16Z,b60275e29fe2361ab97ac0ac217840d7,"Mozilla/5.0 (Windows NT 10.0; Win64; x64) AppleWebKit/537.36 (KHTML, like Gecko) Chrome/136.0.0.0 Safari/537.36",WebKit,Chrome,136.0.0.0,Windows,10,https://5puzkbbxv1.cognition.run/?sona_id=51425,"en-US,en;q=0.9",6to9cd9n4o5feqo,22,"[""Black or African-American""]",No,Female,NA,Yes,541023.799999997,NA,7337,NA,"{""product_choice"":""B""}",choice,ct,binary,repulsion,1,laptops,null,null,null,null,null,null,2,100,90,null,30,40,null,Processing speed,Memory (RAM),NA,NA
NA,NA,NA,NA,NA,choice_trial_setup,html-keyboard-response,32,230000,0.0-4.0-0.14,304,1,2025-05-08T01:27:16Z,b60275e29fe2361ab97ac0ac217840d7,"Mozilla/5.0 (Windows NT 10.0; Win64; x64) AppleWebKit/537.36 (KHTML, like Gecko) Chrome/136.0.0.0 Safari/537.36",WebKit,Chrome,136.0.0.0,Windows,10,https://5puzkbbxv1.cognition.run/?sona_id=51425,"en-US,en;q=0.9",6to9cd9n4o5feqo,22,"[""Black or African-American""]",No,Female,NA,Yes,541023.799999997,NA,null,<p></p>,null,choice,bw,binary,catch,null,microwave ovens,65,70,20,25,null,null,1,NA,NA,NA,NA,NA,NA,NA,NA,NA,NA
NA,NA,NA,NA,NA,choice_trial,survey-html-form,33,234531,0.0-4.0-1.14,304,1,2025-05-08T01:27:16Z,b60275e29fe2361ab97ac0ac217840d7,"Mozilla/5.0 (Windows NT 10.0; Win64; x64) AppleWebKit/537.36 (KHTML, like Gecko) Chrome/136.0.0.0 Safari/537.36",WebKit,Chrome,136.0.0.0,Windows,10,https://5puzkbbxv1.cognition.run/?sona_id=51425,"en-US,en;q=0.9",6to9cd9n4o5feqo,22,"[""Black or African-American""]",No,Female,NA,Yes,541023.799999997,NA,4530,NA,"{""product_choice"":""A""}",choice,bw,binary,catch,null,microwave ovens,65,70,20,25,null,null,1,null,null,null,null,null,null,Warranty,Cooking power,NA,NA
NA,NA,NA,NA,NA,choice_trial_setup,html-keyboard-response,34,234833,0.0-4.0-0.15,304,1,2025-05-08T01:27:16Z,b60275e29fe2361ab97ac0ac217840d7,"Mozilla/5.0 (Windows NT 10.0; Win64; x64) AppleWebKit/537.36 (KHTML, like Gecko) Chrome/136.0.0.0 Safari/537.36",WebKit,Chrome,136.0.0.0,Windows,10,https://5puzkbbxv1.cognition.run/?sona_id=51425,"en-US,en;q=0.9",6to9cd9n4o5feqo,22,"[""Black or African-American""]",No,Female,NA,Yes,541023.799999997,NA,null,<p></p>,null,choice,cdt,trinary,attraction,2,microwave ovens,null,null,null,null,null,null,1,NA,NA,NA,NA,NA,NA,NA,NA,NA,NA
NA,NA,NA,NA,NA,choice_trial,survey-html-form,35,251414,0.0-4.0-1.15,304,1,2025-05-08T01:27:16Z,b60275e29fe2361ab97ac0ac217840d7,"Mozilla/5.0 (Windows NT 10.0; Win64; x64) AppleWebKit/537.36 (KHTML, like Gecko) Chrome/136.0.0.0 Safari/537.36",WebKit,Chrome,136.0.0.0,Windows,10,https://5puzkbbxv1.cognition.run/?sona_id=51425,"en-US,en;q=0.9",6to9cd9n4o5feqo,22,"[""Black or African-American""]",No,Female,NA,Yes,541023.799999997,NA,16577,NA,"{""product_choice"":""C""}",choice,cdt,trinary,attraction,2,microwave ovens,null,null,null,null,null,null,1,50,60,40,60,50,60,Warranty,Cooking power,NA,NA
NA,NA,NA,NA,NA,choice_trial_setup,html-keyboard-response,36,251717,0.0-4.0-0.16,304,1,2025-05-08T01:27:16Z,b60275e29fe2361ab97ac0ac217840d7,"Mozilla/5.0 (Windows NT 10.0; Win64; x64) AppleWebKit/537.36 (KHTML, like Gecko) Chrome/136.0.0.0 Safari/537.36",WebKit,Chrome,136.0.0.0,Windows,10,https://5puzkbbxv1.cognition.run/?sona_id=51425,"en-US,en;q=0.9",6to9cd9n4o5feqo,22,"[""Black or African-American""]",No,Female,NA,Yes,541023.799999997,NA,null,<p></p>,null,choice,dct,trinary,attraction,2,laptops,null,null,null,null,null,null,1,NA,NA,NA,NA,NA,NA,NA,NA,NA,NA
NA,NA,NA,NA,NA,choice_trial,survey-html-form,37,260182,0.0-4.0-1.16,304,1,2025-05-08T01:27:16Z,b60275e29fe2361ab97ac0ac217840d7,"Mozilla/5.0 (Windows NT 10.0; Win64; x64) AppleWebKit/537.36 (KHTML, like Gecko) Chrome/136.0.0.0 Safari/537.36",WebKit,Chrome,136.0.0.0,Windows,10,https://5puzkbbxv1.cognition.run/?sona_id=51425,"en-US,en;q=0.9",6to9cd9n4o5feqo,22,"[""Black or African-American""]",No,Female,NA,Yes,541023.799999997,NA,8465,NA,"{""product_choice"":""C""}",choice,dct,trinary,attraction,2,laptops,null,null,null,null,null,null,1,50,60,40,60,50,60,Processing speed,Memory (RAM),NA,NA
NA,NA,NA,NA,NA,choice_trial_setup,html-keyboard-response,38,260484,0.0-4.0-0.17,304,1,2025-05-08T01:27:16Z,b60275e29fe2361ab97ac0ac217840d7,"Mozilla/5.0 (Windows NT 10.0; Win64; x64) AppleWebKit/537.36 (KHTML, like Gecko) Chrome/136.0.0.0 Safari/537.36",WebKit,Chrome,136.0.0.0,Windows,10,https://5puzkbbxv1.cognition.run/?sona_id=51425,"en-US,en;q=0.9",6to9cd9n4o5feqo,22,"[""Black or African-American""]",No,Female,NA,Yes,541023.799999997,NA,null,<p></p>,null,choice,wb,binary,catch,null,televisions,90,70,25,25,null,null,1,NA,NA,NA,NA,NA,NA,NA,NA,NA,NA
NA,NA,NA,NA,NA,choice_trial,survey-html-form,39,267470,0.0-4.0-1.17,304,1,2025-05-08T01:27:16Z,b60275e29fe2361ab97ac0ac217840d7,"Mozilla/5.0 (Windows NT 10.0; Win64; x64) AppleWebKit/537.36 (KHTML, like Gecko) Chrome/136.0.0.0 Safari/537.36",WebKit,Chrome,136.0.0.0,Windows,10,https://5puzkbbxv1.cognition.run/?sona_id=51425,"en-US,en;q=0.9",6to9cd9n4o5feqo,22,"[""Black or African-American""]",No,Female,NA,Yes,541023.799999997,NA,6986,NA,"{""product_choice"":""B""}",choice,wb,binary,catch,null,televisions,90,70,25,25,null,null,1,null,null,null,null,null,null,Screen size,Average lifespan,NA,NA
NA,NA,NA,NA,NA,choice_trial_setup,html-keyboard-response,40,267772,0.0-4.0-0.18,304,1,2025-05-08T01:27:16Z,b60275e29fe2361ab97ac0ac217840d7,"Mozilla/5.0 (Windows NT 10.0; Win64; x64) AppleWebKit/537.36 (KHTML, like Gecko) Chrome/136.0.0.0 Safari/537.36",WebKit,Chrome,136.0.0.0,Windows,10,https://5puzkbbxv1.cognition.run/?sona_id=51425,"en-US,en;q=0.9",6to9cd9n4o5feqo,22,"[""Black or African-American""]",No,Female,NA,Yes,541023.799999997,NA,null,<p></p>,null,choice,ct,binary,attraction,NA,laptops,null,null,null,null,null,null,2,NA,NA,NA,NA,NA,NA,NA,NA,NA,NA
NA,NA,NA,NA,NA,choice_trial,survey-html-form,41,285686,0.0-4.0-1.18,304,1,2025-05-08T01:27:16Z,b60275e29fe2361ab97ac0ac217840d7,"Mozilla/5.0 (Windows NT 10.0; Win64; x64) AppleWebKit/537.36 (KHTML, like Gecko) Chrome/136.0.0.0 Safari/537.36",WebKit,Chrome,136.0.0.0,Windows,10,https://5puzkbbxv1.cognition.run/?sona_id=51425,"en-US,en;q=0.9",6to9cd9n4o5feqo,22,"[""Black or African-American""]",No,Female,NA,Yes,541023.799999997,NA,17914,NA,"{""product_choice"":""B""}",choice,ct,binary,attraction,NA,laptops,null,null,null,null,null,null,2,60,50,null,50,60,null,Processing speed,Memory (RAM),NA,NA
NA,NA,NA,NA,NA,choice_trial_setup,html-keyboard-response,42,285988,0.0-4.0-0.19,304,1,2025-05-08T01:27:16Z,b60275e29fe2361ab97ac0ac217840d7,"Mozilla/5.0 (Windows NT 10.0; Win64; x64) AppleWebKit/537.36 (KHTML, like Gecko) Chrome/136.0.0.0 Safari/537.36",WebKit,Chrome,136.0.0.0,Windows,10,https://5puzkbbxv1.cognition.run/?sona_id=51425,"en-US,en;q=0.9",6to9cd9n4o5feqo,22,"[""Black or African-American""]",No,Female,NA,Yes,541023.799999997,NA,null,<p></p>,null,choice,tc,binary,repulsion,1,televisions,null,null,null,null,null,null,1,NA,NA,NA,NA,NA,NA,NA,NA,NA,NA
NA,NA,NA,NA,NA,choice_trial,survey-html-form,43,293590,0.0-4.0-1.19,304,1,2025-05-08T01:27:16Z,b60275e29fe2361ab97ac0ac217840d7,"Mozilla/5.0 (Windows NT 10.0; Win64; x64) AppleWebKit/537.36 (KHTML, like Gecko) Chrome/136.0.0.0 Safari/537.36",WebKit,Chrome,136.0.0.0,Windows,10,https://5puzkbbxv1.cognition.run/?sona_id=51425,"en-US,en;q=0.9",6to9cd9n4o5feqo,22,"[""Black or African-American""]",No,Female,NA,Yes,541023.799999997,NA,7601,NA,"{""product_choice"":""B""}",choice,tc,binary,repulsion,1,televisions,null,null,null,null,null,null,1,100,90,null,30,40,null,Screen size,Average lifespan,NA,NA
NA,NA,NA,NA,NA,choice_trial_setup,html-keyboard-response,44,293892,0.0-4.0-0.20,304,1,2025-05-08T01:27:16Z,b60275e29fe2361ab97ac0ac217840d7,"Mozilla/5.0 (Windows NT 10.0; Win64; x64) AppleWebKit/537.36 (KHTML, like Gecko) Chrome/136.0.0.0 Safari/537.36",WebKit,Chrome,136.0.0.0,Windows,10,https://5puzkbbxv1.cognition.run/?sona_id=51425,"en-US,en;q=0.9",6to9cd9n4o5feqo,22,"[""Black or African-American""]",No,Female,NA,Yes,541023.799999997,NA,null,<p></p>,null,choice,tdc,trinary,repulsion_A,2,laptops,null,null,null,null,null,null,2,NA,NA,NA,NA,NA,NA,NA,NA,NA,NA
NA,NA,NA,NA,NA,choice_trial,survey-html-form,45,303670,0.0-4.0-1.20,304,1,2025-05-08T01:27:16Z,b60275e29fe2361ab97ac0ac217840d7,"Mozilla/5.0 (Windows NT 10.0; Win64; x64) AppleWebKit/537.36 (KHTML, like Gecko) Chrome/136.0.0.0 Safari/537.36",WebKit,Chrome,136.0.0.0,Windows,10,https://5puzkbbxv1.cognition.run/?sona_id=51425,"en-US,en;q=0.9",6to9cd9n4o5feqo,22,"[""Black or African-American""]",No,Female,NA,Yes,541023.799999997,NA,9777,NA,"{""product_choice"":""C""}",choice,tdc,trinary,repulsion_A,2,laptops,null,null,null,null,null,null,2,30,40,20,100,90,100,Processing speed,Memory (RAM),NA,NA
NA,NA,NA,NA,NA,choice_trial_setup,html-keyboard-response,46,303971,0.0-4.0-0.21,304,1,2025-05-08T01:27:16Z,b60275e29fe2361ab97ac0ac217840d7,"Mozilla/5.0 (Windows NT 10.0; Win64; x64) AppleWebKit/537.36 (KHTML, like Gecko) Chrome/136.0.0.0 Safari/537.36",WebKit,Chrome,136.0.0.0,Windows,10,https://5puzkbbxv1.cognition.run/?sona_id=51425,"en-US,en;q=0.9",6to9cd9n4o5feqo,22,"[""Black or African-American""]",No,Female,NA,Yes,541023.799999997,NA,null,<p></p>,null,choice,tdc,trinary,repulsion_B,2,laptops,null,null,null,null,null,null,2,NA,NA,NA,NA,NA,NA,NA,NA,NA,NA
NA,NA,NA,NA,NA,choice_trial,survey-html-form,47,306817,0.0-4.0-1.21,304,1,2025-05-08T01:27:16Z,b60275e29fe2361ab97ac0ac217840d7,"Mozilla/5.0 (Windows NT 10.0; Win64; x64) AppleWebKit/537.36 (KHTML, like Gecko) Chrome/136.0.0.0 Safari/537.36",WebKit,Chrome,136.0.0.0,Windows,10,https://5puzkbbxv1.cognition.run/?sona_id=51425,"en-US,en;q=0.9",6to9cd9n4o5feqo,22,"[""Black or African-American""]",No,Female,NA,Yes,541023.799999997,NA,2842,NA,"{""product_choice"":""A""}",choice,tdc,trinary,repulsion_B,2,laptops,null,null,null,null,null,null,2,40,30,40,90,100,80,Processing speed,Memory (RAM),NA,NA
NA,NA,NA,NA,NA,choice_trial_setup,html-keyboard-response,48,307119,0.0-4.0-0.22,304,1,2025-05-08T01:27:16Z,b60275e29fe2361ab97ac0ac217840d7,"Mozilla/5.0 (Windows NT 10.0; Win64; x64) AppleWebKit/537.36 (KHTML, like Gecko) Chrome/136.0.0.0 Safari/537.36",WebKit,Chrome,136.0.0.0,Windows,10,https://5puzkbbxv1.cognition.run/?sona_id=51425,"en-US,en;q=0.9",6to9cd9n4o5feqo,22,"[""Black or African-American""]",No,Female,NA,Yes,541023.799999997,NA,null,<p></p>,null,choice,tc,binary,attraction,NA,washing machines,null,null,null,null,null,null,1,NA,NA,NA,NA,NA,NA,NA,NA,NA,NA
NA,NA,NA,NA,NA,choice_trial,survey-html-form,49,313945,0.0-4.0-1.22,304,1,2025-05-08T01:27:16Z,b60275e29fe2361ab97ac0ac217840d7,"Mozilla/5.0 (Windows NT 10.0; Win64; x64) AppleWebKit/537.36 (KHTML, like Gecko) Chrome/136.0.0.0 Safari/537.36",WebKit,Chrome,136.0.0.0,Windows,10,https://5puzkbbxv1.cognition.run/?sona_id=51425,"en-US,en;q=0.9",6to9cd9n4o5feqo,22,"[""Black or African-American""]",No,Female,NA,Yes,541023.799999997,NA,6825,NA,"{""product_choice"":""A""}",choice,tc,binary,attraction,NA,washing machines,null,null,null,null,null,null,1,60,50,null,50,60,null,Average lifespan,Energy savings,NA,NA
NA,NA,NA,NA,NA,choice_trial_setup,html-keyboard-response,50,314247,0.0-4.0-0.23,304,1,2025-05-08T01:27:16Z,b60275e29fe2361ab97ac0ac217840d7,"Mozilla/5.0 (Windows NT 10.0; Win64; x64) AppleWebKit/537.36 (KHTML, like Gecko) Chrome/136.0.0.0 Safari/537.36",WebKit,Chrome,136.0.0.0,Windows,10,https://5puzkbbxv1.cognition.run/?sona_id=51425,"en-US,en;q=0.9",6to9cd9n4o5feqo,22,"[""Black or African-American""]",No,Female,NA,Yes,541023.799999997,NA,null,<p></p>,null,choice,cdt,trinary,repulsion_A,1,televisions,null,null,null,null,null,null,2,NA,NA,NA,NA,NA,NA,NA,NA,NA,NA
NA,NA,NA,NA,NA,choice_trial,survey-html-form,51,318121,0.0-4.0-1.23,304,1,2025-05-08T01:27:16Z,b60275e29fe2361ab97ac0ac217840d7,"Mozilla/5.0 (Windows NT 10.0; Win64; x64) AppleWebKit/537.36 (KHTML, like Gecko) Chrome/136.0.0.0 Safari/537.36",WebKit,Chrome,136.0.0.0,Windows,10,https://5puzkbbxv1.cognition.run/?sona_id=51425,"en-US,en;q=0.9",6to9cd9n4o5feqo,22,"[""Black or African-American""]",No,Female,NA,Yes,541023.799999997,NA,3873,NA,"{""product_choice"":""A""}",choice,cdt,trinary,repulsion_A,1,televisions,null,null,null,null,null,null,2,100,90,100,30,40,20,Screen size,Average lifespan,NA,NA
NA,NA,NA,NA,NA,choice_trial_setup,html-keyboard-response,52,318423,0.0-4.0-0.24,304,1,2025-05-08T01:27:16Z,b60275e29fe2361ab97ac0ac217840d7,"Mozilla/5.0 (Windows NT 10.0; Win64; x64) AppleWebKit/537.36 (KHTML, like Gecko) Chrome/136.0.0.0 Safari/537.36",WebKit,Chrome,136.0.0.0,Windows,10,https://5puzkbbxv1.cognition.run/?sona_id=51425,"en-US,en;q=0.9",6to9cd9n4o5feqo,22,"[""Black or African-American""]",No,Female,NA,Yes,541023.799999997,NA,null,<p></p>,null,choice,tcd,trinary,repulsion_A,1,laptops,null,null,null,null,null,null,2,NA,NA,NA,NA,NA,NA,NA,NA,NA,NA
NA,NA,NA,NA,NA,choice_trial,survey-html-form,53,320473,0.0-4.0-1.24,304,1,2025-05-08T01:27:16Z,b60275e29fe2361ab97ac0ac217840d7,"Mozilla/5.0 (Windows NT 10.0; Win64; x64) AppleWebKit/537.36 (KHTML, like Gecko) Chrome/136.0.0.0 Safari/537.36",WebKit,Chrome,136.0.0.0,Windows,10,https://5puzkbbxv1.cognition.run/?sona_id=51425,"en-US,en;q=0.9",6to9cd9n4o5feqo,22,"[""Black or African-American""]",No,Female,NA,Yes,541023.799999997,NA,2049,NA,"{""product_choice"":""B""}",choice,tcd,trinary,repulsion_A,1,laptops,null,null,null,null,null,null,2,100,90,100,30,40,20,Processing speed,Memory (RAM),NA,NA
NA,NA,NA,NA,NA,choice_trial_setup,html-keyboard-response,54,320775,0.0-4.0-0.25,304,1,2025-05-08T01:27:16Z,b60275e29fe2361ab97ac0ac217840d7,"Mozilla/5.0 (Windows NT 10.0; Win64; x64) AppleWebKit/537.36 (KHTML, like Gecko) Chrome/136.0.0.0 Safari/537.36",WebKit,Chrome,136.0.0.0,Windows,10,https://5puzkbbxv1.cognition.run/?sona_id=51425,"en-US,en;q=0.9",6to9cd9n4o5feqo,22,"[""Black or African-American""]",No,Female,NA,Yes,541023.799999997,NA,null,<p></p>,null,choice,tc,binary,repulsion,1,washing machines,null,null,null,null,null,null,2,NA,NA,NA,NA,NA,NA,NA,NA,NA,NA
NA,NA,NA,NA,NA,choice_trial,survey-html-form,55,322569,0.0-4.0-1.25,304,1,2025-05-08T01:27:16Z,b60275e29fe2361ab97ac0ac217840d7,"Mozilla/5.0 (Windows NT 10.0; Win64; x64) AppleWebKit/537.36 (KHTML, like Gecko) Chrome/136.0.0.0 Safari/537.36",WebKit,Chrome,136.0.0.0,Windows,10,https://5puzkbbxv1.cognition.run/?sona_id=51425,"en-US,en;q=0.9",6to9cd9n4o5feqo,22,"[""Black or African-American""]",No,Female,NA,Yes,541023.799999997,NA,1793,NA,"{""product_choice"":""B""}",choice,tc,binary,repulsion,1,washing machines,null,null,null,null,null,null,2,100,90,null,30,40,null,Average lifespan,Energy savings,NA,NA
NA,NA,NA,NA,NA,choice_trial_setup,html-keyboard-response,56,322871,0.0-4.0-0.26,304,1,2025-05-08T01:27:16Z,b60275e29fe2361ab97ac0ac217840d7,"Mozilla/5.0 (Windows NT 10.0; Win64; x64) AppleWebKit/537.36 (KHTML, like Gecko) Chrome/136.0.0.0 Safari/537.36",WebKit,Chrome,136.0.0.0,Windows,10,https://5puzkbbxv1.cognition.run/?sona_id=51425,"en-US,en;q=0.9",6to9cd9n4o5feqo,22,"[""Black or African-American""]",No,Female,NA,Yes,541023.799999997,NA,null,<p></p>,null,choice,tc,binary,repulsion,2,televisions,null,null,null,null,null,null,2,NA,NA,NA,NA,NA,NA,NA,NA,NA,NA
NA,NA,NA,NA,NA,choice_trial,survey-html-form,57,325209,0.0-4.0-1.26,304,1,2025-05-08T01:27:16Z,b60275e29fe2361ab97ac0ac217840d7,"Mozilla/5.0 (Windows NT 10.0; Win64; x64) AppleWebKit/537.36 (KHTML, like Gecko) Chrome/136.0.0.0 Safari/537.36",WebKit,Chrome,136.0.0.0,Windows,10,https://5puzkbbxv1.cognition.run/?sona_id=51425,"en-US,en;q=0.9",6to9cd9n4o5feqo,22,"[""Black or African-American""]",No,Female,NA,Yes,541023.799999997,NA,2337,NA,"{""product_choice"":""A""}",choice,tc,binary,repulsion,2,televisions,null,null,null,null,null,null,2,30,40,null,100,90,null,Screen size,Average lifespan,NA,NA
NA,NA,NA,NA,NA,choice_trial_setup,html-keyboard-response,58,325512,0.0-4.0-0.27,304,1,2025-05-08T01:27:16Z,b60275e29fe2361ab97ac0ac217840d7,"Mozilla/5.0 (Windows NT 10.0; Win64; x64) AppleWebKit/537.36 (KHTML, like Gecko) Chrome/136.0.0.0 Safari/537.36",WebKit,Chrome,136.0.0.0,Windows,10,https://5puzkbbxv1.cognition.run/?sona_id=51425,"en-US,en;q=0.9",6to9cd9n4o5feqo,22,"[""Black or African-American""]",No,Female,NA,Yes,541023.799999997,NA,null,<p></p>,null,choice,tcd,trinary,attraction,2,televisions,null,null,null,null,null,null,2,NA,NA,NA,NA,NA,NA,NA,NA,NA,NA
NA,NA,NA,NA,NA,choice_trial,survey-html-form,59,327777,0.0-4.0-1.27,304,1,2025-05-08T01:27:16Z,b60275e29fe2361ab97ac0ac217840d7,"Mozilla/5.0 (Windows NT 10.0; Win64; x64) AppleWebKit/537.36 (KHTML, like Gecko) Chrome/136.0.0.0 Safari/537.36",WebKit,Chrome,136.0.0.0,Windows,10,https://5puzkbbxv1.cognition.run/?sona_id=51425,"en-US,en;q=0.9",6to9cd9n4o5feqo,22,"[""Black or African-American""]",No,Female,NA,Yes,541023.799999997,NA,2264,NA,"{""product_choice"":""B""}",choice,tcd,trinary,attraction,2,televisions,null,null,null,null,null,null,2,50,60,40,60,50,60,Screen size,Average lifespan,NA,NA
NA,NA,NA,NA,NA,choice_trial_setup,html-keyboard-response,60,328079,0.0-4.0-0.28,304,1,2025-05-08T01:27:16Z,b60275e29fe2361ab97ac0ac217840d7,"Mozilla/5.0 (Windows NT 10.0; Win64; x64) AppleWebKit/537.36 (KHTML, like Gecko) Chrome/136.0.0.0 Safari/537.36",WebKit,Chrome,136.0.0.0,Windows,10,https://5puzkbbxv1.cognition.run/?sona_id=51425,"en-US,en;q=0.9",6to9cd9n4o5feqo,22,"[""Black or African-American""]",No,Female,NA,Yes,541023.799999997,NA,null,<p></p>,null,choice,ct,binary,attraction,NA,microwave ovens,null,null,null,null,null,null,2,NA,NA,NA,NA,NA,NA,NA,NA,NA,NA
NA,NA,NA,NA,NA,choice_trial,survey-html-form,61,330001,0.0-4.0-1.28,304,1,2025-05-08T01:27:16Z,b60275e29fe2361ab97ac0ac217840d7,"Mozilla/5.0 (Windows NT 10.0; Win64; x64) AppleWebKit/537.36 (KHTML, like Gecko) Chrome/136.0.0.0 Safari/537.36",WebKit,Chrome,136.0.0.0,Windows,10,https://5puzkbbxv1.cognition.run/?sona_id=51425,"en-US,en;q=0.9",6to9cd9n4o5feqo,22,"[""Black or African-American""]",No,Female,NA,Yes,541023.799999997,NA,1921,NA,"{""product_choice"":""A""}",choice,ct,binary,attraction,NA,microwave ovens,null,null,null,null,null,null,2,60,50,null,50,60,null,Warranty,Cooking power,NA,NA
NA,NA,NA,NA,NA,choice_trial_setup,html-keyboard-response,62,330303,0.0-4.0-0.29,304,1,2025-05-08T01:27:16Z,b60275e29fe2361ab97ac0ac217840d7,"Mozilla/5.0 (Windows NT 10.0; Win64; x64) AppleWebKit/537.36 (KHTML, like Gecko) Chrome/136.0.0.0 Safari/537.36",WebKit,Chrome,136.0.0.0,Windows,10,https://5puzkbbxv1.cognition.run/?sona_id=51425,"en-US,en;q=0.9",6to9cd9n4o5feqo,22,"[""Black or African-American""]",No,Female,NA,Yes,541023.799999997,NA,null,<p></p>,null,choice,dtc,trinary,repulsion_B,2,microwave ovens,null,null,null,null,null,null,1,NA,NA,NA,NA,NA,NA,NA,NA,NA,NA
NA,NA,NA,NA,NA,choice_trial,survey-html-form,63,331937,0.0-4.0-1.29,304,1,2025-05-08T01:27:16Z,b60275e29fe2361ab97ac0ac217840d7,"Mozilla/5.0 (Windows NT 10.0; Win64; x64) AppleWebKit/537.36 (KHTML, like Gecko) Chrome/136.0.0.0 Safari/537.36",WebKit,Chrome,136.0.0.0,Windows,10,https://5puzkbbxv1.cognition.run/?sona_id=51425,"en-US,en;q=0.9",6to9cd9n4o5feqo,22,"[""Black or African-American""]",No,Female,NA,Yes,541023.799999997,NA,1633,NA,"{""product_choice"":""C""}",choice,dtc,trinary,repulsion_B,2,microwave ovens,null,null,null,null,null,null,1,40,30,40,90,100,80,Warranty,Cooking power,NA,NA
NA,NA,NA,NA,NA,choice_trial_setup,html-keyboard-response,64,332240,0.0-4.0-0.30,304,1,2025-05-08T01:27:16Z,b60275e29fe2361ab97ac0ac217840d7,"Mozilla/5.0 (Windows NT 10.0; Win64; x64) AppleWebKit/537.36 (KHTML, like Gecko) Chrome/136.0.0.0 Safari/537.36",WebKit,Chrome,136.0.0.0,Windows,10,https://5puzkbbxv1.cognition.run/?sona_id=51425,"en-US,en;q=0.9",6to9cd9n4o5feqo,22,"[""Black or African-American""]",No,Female,NA,Yes,541023.799999997,NA,null,<p></p>,null,choice,dct,trinary,attraction,1,washing machines,null,null,null,null,null,null,2,NA,NA,NA,NA,NA,NA,NA,NA,NA,NA
NA,NA,NA,NA,NA,choice_trial,survey-html-form,65,333970,0.0-4.0-1.30,304,1,2025-05-08T01:27:16Z,b60275e29fe2361ab97ac0ac217840d7,"Mozilla/5.0 (Windows NT 10.0; Win64; x64) AppleWebKit/537.36 (KHTML, like Gecko) Chrome/136.0.0.0 Safari/537.36",WebKit,Chrome,136.0.0.0,Windows,10,https://5puzkbbxv1.cognition.run/?sona_id=51425,"en-US,en;q=0.9",6to9cd9n4o5feqo,22,"[""Black or African-American""]",No,Female,NA,Yes,541023.799999997,NA,1729,NA,"{""product_choice"":""B""}",choice,dct,trinary,attraction,1,washing machines,null,null,null,null,null,null,2,60,50,60,50,60,40,Average lifespan,Energy savings,NA,NA
NA,NA,NA,NA,NA,choice_trial_setup,html-keyboard-response,66,334271,0.0-4.0-0.31,304,1,2025-05-08T01:27:16Z,b60275e29fe2361ab97ac0ac217840d7,"Mozilla/5.0 (Windows NT 10.0; Win64; x64) AppleWebKit/537.36 (KHTML, like Gecko) Chrome/136.0.0.0 Safari/537.36",WebKit,Chrome,136.0.0.0,Windows,10,https://5puzkbbxv1.cognition.run/?sona_id=51425,"en-US,en;q=0.9",6to9cd9n4o5feqo,22,"[""Black or African-American""]",No,Female,NA,Yes,541023.799999997,NA,null,<p></p>,null,choice,wb,binary,catch,null,washing machines,70,85,50,15,null,null,2,NA,NA,NA,NA,NA,NA,NA,NA,NA,NA
NA,NA,NA,NA,NA,choice_trial,survey-html-form,67,337665,0.0-4.0-1.31,304,1,2025-05-08T01:27:16Z,b60275e29fe2361ab97ac0ac217840d7,"Mozilla/5.0 (Windows NT 10.0; Win64; x64) AppleWebKit/537.36 (KHTML, like Gecko) Chrome/136.0.0.0 Safari/537.36",WebKit,Chrome,136.0.0.0,Windows,10,https://5puzkbbxv1.cognition.run/?sona_id=51425,"en-US,en;q=0.9",6to9cd9n4o5feqo,22,"[""Black or African-American""]",No,Female,NA,Yes,541023.799999997,NA,3393,NA,"{""product_choice"":""B""}",choice,wb,binary,catch,null,washing machines,70,85,50,15,null,null,2,null,null,null,null,null,null,Average lifespan,Energy savings,NA,NA
NA,NA,NA,NA,NA,choice_trial_setup,html-keyboard-response,68,337967,0.0-4.0-0.32,304,1,2025-05-08T01:27:16Z,b60275e29fe2361ab97ac0ac217840d7,"Mozilla/5.0 (Windows NT 10.0; Win64; x64) AppleWebKit/537.36 (KHTML, like Gecko) Chrome/136.0.0.0 Safari/537.36",WebKit,Chrome,136.0.0.0,Windows,10,https://5puzkbbxv1.cognition.run/?sona_id=51425,"en-US,en;q=0.9",6to9cd9n4o5feqo,22,"[""Black or African-American""]",No,Female,NA,Yes,541023.799999997,NA,null,<p></p>,null,choice,wbw,trinary,catch,null,televisions,75,80,20,15,40,30,2,NA,NA,NA,NA,NA,NA,NA,NA,NA,NA
NA,NA,NA,NA,NA,choice_trial,survey-html-form,69,341241,0.0-4.0-1.32,304,1,2025-05-08T01:27:16Z,b60275e29fe2361ab97ac0ac217840d7,"Mozilla/5.0 (Windows NT 10.0; Win64; x64) AppleWebKit/537.36 (KHTML, like Gecko) Chrome/136.0.0.0 Safari/537.36",WebKit,Chrome,136.0.0.0,Windows,10,https://5puzkbbxv1.cognition.run/?sona_id=51425,"en-US,en;q=0.9",6to9cd9n4o5feqo,22,"[""Black or African-American""]",No,Female,NA,Yes,541023.799999997,NA,3273,NA,"{""product_choice"":""B""}",choice,wbw,trinary,catch,null,televisions,75,80,20,15,40,30,2,null,null,null,null,null,null,Screen size,Average lifespan,NA,NA
NA,NA,NA,NA,NA,choice_trial_setup,html-keyboard-response,70,341544,0.0-4.0-0.33,304,1,2025-05-08T01:27:16Z,b60275e29fe2361ab97ac0ac217840d7,"Mozilla/5.0 (Windows NT 10.0; Win64; x64) AppleWebKit/537.36 (KHTML, like Gecko) Chrome/136.0.0.0 Safari/537.36",WebKit,Chrome,136.0.0.0,Windows,10,https://5puzkbbxv1.cognition.run/?sona_id=51425,"en-US,en;q=0.9",6to9cd9n4o5feqo,22,"[""Black or African-American""]",No,Female,NA,Yes,541023.799999997,NA,null,<p></p>,null,choice,tcd,trinary,attraction,2,washing machines,null,null,null,null,null,null,2,NA,NA,NA,NA,NA,NA,NA,NA,NA,NA
NA,NA,NA,NA,NA,choice_trial,survey-html-form,71,350441,0.0-4.0-1.33,304,1,2025-05-08T01:27:16Z,b60275e29fe2361ab97ac0ac217840d7,"Mozilla/5.0 (Windows NT 10.0; Win64; x64) AppleWebKit/537.36 (KHTML, like Gecko) Chrome/136.0.0.0 Safari/537.36",WebKit,Chrome,136.0.0.0,Windows,10,https://5puzkbbxv1.cognition.run/?sona_id=51425,"en-US,en;q=0.9",6to9cd9n4o5feqo,22,"[""Black or African-American""]",No,Female,NA,Yes,541023.799999997,NA,8896,NA,"{""product_choice"":""A""}",choice,tcd,trinary,attraction,2,washing machines,null,null,null,null,null,null,2,50,60,40,60,50,60,Average lifespan,Energy savings,NA,NA
NA,NA,NA,NA,NA,choice_trial_setup,html-keyboard-response,72,350743,0.0-4.0-0.34,304,1,2025-05-08T01:27:16Z,b60275e29fe2361ab97ac0ac217840d7,"Mozilla/5.0 (Windows NT 10.0; Win64; x64) AppleWebKit/537.36 (KHTML, like Gecko) Chrome/136.0.0.0 Safari/537.36",WebKit,Chrome,136.0.0.0,Windows,10,https://5puzkbbxv1.cognition.run/?sona_id=51425,"en-US,en;q=0.9",6to9cd9n4o5feqo,22,"[""Black or African-American""]",No,Female,NA,Yes,541023.799999997,NA,null,<p></p>,null,choice,cdt,trinary,repulsion_B,1,laptops,null,null,null,null,null,null,1,NA,NA,NA,NA,NA,NA,NA,NA,NA,NA
NA,NA,NA,NA,NA,choice_trial,survey-html-form,73,365649,0.0-4.0-1.34,304,1,2025-05-08T01:27:16Z,b60275e29fe2361ab97ac0ac217840d7,"Mozilla/5.0 (Windows NT 10.0; Win64; x64) AppleWebKit/537.36 (KHTML, like Gecko) Chrome/136.0.0.0 Safari/537.36",WebKit,Chrome,136.0.0.0,Windows,10,https://5puzkbbxv1.cognition.run/?sona_id=51425,"en-US,en;q=0.9",6to9cd9n4o5feqo,22,"[""Black or African-American""]",No,Female,NA,Yes,541023.799999997,NA,14905,NA,"{""product_choice"":""C""}",choice,cdt,trinary,repulsion_B,1,laptops,null,null,null,null,null,null,1,90,100,80,40,30,40,Processing speed,Memory (RAM),NA,NA
NA,NA,NA,NA,NA,choice_trial_setup,html-keyboard-response,74,365952,0.0-4.0-0.35,304,1,2025-05-08T01:27:16Z,b60275e29fe2361ab97ac0ac217840d7,"Mozilla/5.0 (Windows NT 10.0; Win64; x64) AppleWebKit/537.36 (KHTML, like Gecko) Chrome/136.0.0.0 Safari/537.36",WebKit,Chrome,136.0.0.0,Windows,10,https://5puzkbbxv1.cognition.run/?sona_id=51425,"en-US,en;q=0.9",6to9cd9n4o5feqo,22,"[""Black or African-American""]",No,Female,NA,Yes,541023.799999997,NA,null,<p></p>,null,choice,tc,binary,repulsion,2,microwave ovens,null,null,null,null,null,null,1,NA,NA,NA,NA,NA,NA,NA,NA,NA,NA
NA,NA,NA,NA,NA,choice_trial,survey-html-form,75,378749,0.0-4.0-1.35,304,1,2025-05-08T01:27:16Z,b60275e29fe2361ab97ac0ac217840d7,"Mozilla/5.0 (Windows NT 10.0; Win64; x64) AppleWebKit/537.36 (KHTML, like Gecko) Chrome/136.0.0.0 Safari/537.36",WebKit,Chrome,136.0.0.0,Windows,10,https://5puzkbbxv1.cognition.run/?sona_id=51425,"en-US,en;q=0.9",6to9cd9n4o5feqo,22,"[""Black or African-American""]",No,Female,NA,Yes,541023.799999997,NA,12793,NA,"{""product_choice"":""B""}",choice,tc,binary,repulsion,2,microwave ovens,null,null,null,null,null,null,1,30,40,null,100,90,null,Warranty,Cooking power,NA,NA
NA,NA,NA,NA,NA,choice_trial_setup,html-keyboard-response,76,379051,0.0-4.0-0.36,304,1,2025-05-08T01:27:16Z,b60275e29fe2361ab97ac0ac217840d7,"Mozilla/5.0 (Windows NT 10.0; Win64; x64) AppleWebKit/537.36 (KHTML, like Gecko) Chrome/136.0.0.0 Safari/537.36",WebKit,Chrome,136.0.0.0,Windows,10,https://5puzkbbxv1.cognition.run/?sona_id=51425,"en-US,en;q=0.9",6to9cd9n4o5feqo,22,"[""Black or African-American""]",No,Female,NA,Yes,541023.799999997,NA,null,<p></p>,null,choice,cdt,trinary,repulsion_B,1,microwave ovens,null,null,null,null,null,null,2,NA,NA,NA,NA,NA,NA,NA,NA,NA,NA
NA,NA,NA,NA,NA,choice_trial,survey-html-form,77,385461,0.0-4.0-1.36,304,1,2025-05-08T01:27:16Z,b60275e29fe2361ab97ac0ac217840d7,"Mozilla/5.0 (Windows NT 10.0; Win64; x64) AppleWebKit/537.36 (KHTML, like Gecko) Chrome/136.0.0.0 Safari/537.36",WebKit,Chrome,136.0.0.0,Windows,10,https://5puzkbbxv1.cognition.run/?sona_id=51425,"en-US,en;q=0.9",6to9cd9n4o5feqo,22,"[""Black or African-American""]",No,Female,NA,Yes,541023.799999997,NA,6409,NA,"{""product_choice"":""C""}",choice,cdt,trinary,repulsion_B,1,microwave ovens,null,null,null,null,null,null,2,90,100,80,40,30,40,Warranty,Cooking power,NA,NA
NA,NA,NA,NA,NA,choice_trial_setup,html-keyboard-response,78,385762,0.0-4.0-0.37,304,1,2025-05-08T01:27:16Z,b60275e29fe2361ab97ac0ac217840d7,"Mozilla/5.0 (Windows NT 10.0; Win64; x64) AppleWebKit/537.36 (KHTML, like Gecko) Chrome/136.0.0.0 Safari/537.36",WebKit,Chrome,136.0.0.0,Windows,10,https://5puzkbbxv1.cognition.run/?sona_id=51425,"en-US,en;q=0.9",6to9cd9n4o5feqo,22,"[""Black or African-American""]",No,Female,NA,Yes,541023.799999997,NA,null,<p></p>,null,choice,cdt,trinary,repulsion_A,2,televisions,null,null,null,null,null,null,1,NA,NA,NA,NA,NA,NA,NA,NA,NA,NA
NA,NA,NA,NA,NA,choice_trial,survey-html-form,79,392526,0.0-4.0-1.37,304,1,2025-05-08T01:27:16Z,b60275e29fe2361ab97ac0ac217840d7,"Mozilla/5.0 (Windows NT 10.0; Win64; x64) AppleWebKit/537.36 (KHTML, like Gecko) Chrome/136.0.0.0 Safari/537.36",WebKit,Chrome,136.0.0.0,Windows,10,https://5puzkbbxv1.cognition.run/?sona_id=51425,"en-US,en;q=0.9",6to9cd9n4o5feqo,22,"[""Black or African-American""]",No,Female,NA,Yes,541023.799999997,NA,6762,NA,"{""product_choice"":""C""}",choice,cdt,trinary,repulsion_A,2,televisions,null,null,null,null,null,null,1,30,40,20,100,90,100,Screen size,Average lifespan,NA,NA
NA,NA,NA,NA,NA,choice_trial_setup,html-keyboard-response,80,392827,0.0-4.0-0.38,304,1,2025-05-08T01:27:16Z,b60275e29fe2361ab97ac0ac217840d7,"Mozilla/5.0 (Windows NT 10.0; Win64; x64) AppleWebKit/537.36 (KHTML, like Gecko) Chrome/136.0.0.0 Safari/537.36",WebKit,Chrome,136.0.0.0,Windows,10,https://5puzkbbxv1.cognition.run/?sona_id=51425,"en-US,en;q=0.9",6to9cd9n4o5feqo,22,"[""Black or African-American""]",No,Female,NA,Yes,541023.799999997,NA,null,<p></p>,null,choice,tdc,trinary,repulsion_A,1,washing machines,null,null,null,null,null,null,2,NA,NA,NA,NA,NA,NA,NA,NA,NA,NA
NA,NA,NA,NA,NA,choice_trial,survey-html-form,81,398453,0.0-4.0-1.38,304,1,2025-05-08T01:27:16Z,b60275e29fe2361ab97ac0ac217840d7,"Mozilla/5.0 (Windows NT 10.0; Win64; x64) AppleWebKit/537.36 (KHTML, like Gecko) Chrome/136.0.0.0 Safari/537.36",WebKit,Chrome,136.0.0.0,Windows,10,https://5puzkbbxv1.cognition.run/?sona_id=51425,"en-US,en;q=0.9",6to9cd9n4o5feqo,22,"[""Black or African-American""]",No,Female,NA,Yes,541023.799999997,NA,5624,NA,"{""product_choice"":""C""}",choice,tdc,trinary,repulsion_A,1,washing machines,null,null,null,null,null,null,2,100,90,100,30,40,20,Average lifespan,Energy savings,NA,NA
NA,NA,NA,NA,NA,choice_trial_setup,html-keyboard-response,82,398755,0.0-4.0-0.39,304,1,2025-05-08T01:27:16Z,b60275e29fe2361ab97ac0ac217840d7,"Mozilla/5.0 (Windows NT 10.0; Win64; x64) AppleWebKit/537.36 (KHTML, like Gecko) Chrome/136.0.0.0 Safari/537.36",WebKit,Chrome,136.0.0.0,Windows,10,https://5puzkbbxv1.cognition.run/?sona_id=51425,"en-US,en;q=0.9",6to9cd9n4o5feqo,22,"[""Black or African-American""]",No,Female,NA,Yes,541023.799999997,NA,null,<p></p>,null,choice,cdt,trinary,attraction,1,laptops,null,null,null,null,null,null,1,NA,NA,NA,NA,NA,NA,NA,NA,NA,NA
NA,NA,NA,NA,NA,choice_trial,survey-html-form,83,423630,0.0-4.0-1.39,304,1,2025-05-08T01:27:16Z,b60275e29fe2361ab97ac0ac217840d7,"Mozilla/5.0 (Windows NT 10.0; Win64; x64) AppleWebKit/537.36 (KHTML, like Gecko) Chrome/136.0.0.0 Safari/537.36",WebKit,Chrome,136.0.0.0,Windows,10,https://5puzkbbxv1.cognition.run/?sona_id=51425,"en-US,en;q=0.9",6to9cd9n4o5feqo,22,"[""Black or African-American""]",No,Female,NA,Yes,541023.799999997,NA,24873,NA,"{""product_choice"":""C""}",choice,cdt,trinary,attraction,1,laptops,null,null,null,null,null,null,1,60,50,60,50,60,40,Processing speed,Memory (RAM),NA,NA
NA,NA,NA,NA,NA,choice_trial_setup,html-keyboard-response,84,423932,0.0-4.0-0.40,304,1,2025-05-08T01:27:16Z,b60275e29fe2361ab97ac0ac217840d7,"Mozilla/5.0 (Windows NT 10.0; Win64; x64) AppleWebKit/537.36 (KHTML, like Gecko) Chrome/136.0.0.0 Safari/537.36",WebKit,Chrome,136.0.0.0,Windows,10,https://5puzkbbxv1.cognition.run/?sona_id=51425,"en-US,en;q=0.9",6to9cd9n4o5feqo,22,"[""Black or African-American""]",No,Female,NA,Yes,541023.799999997,NA,null,<p></p>,null,choice,wbw,trinary,catch,null,washing machines,70,95,10,10,20,50,2,NA,NA,NA,NA,NA,NA,NA,NA,NA,NA
NA,NA,NA,NA,NA,choice_trial,survey-html-form,85,434528,0.0-4.0-1.40,304,1,2025-05-08T01:27:16Z,b60275e29fe2361ab97ac0ac217840d7,"Mozilla/5.0 (Windows NT 10.0; Win64; x64) AppleWebKit/537.36 (KHTML, like Gecko) Chrome/136.0.0.0 Safari/537.36",WebKit,Chrome,136.0.0.0,Windows,10,https://5puzkbbxv1.cognition.run/?sona_id=51425,"en-US,en;q=0.9",6to9cd9n4o5feqo,22,"[""Black or African-American""]",No,Female,NA,Yes,541023.799999997,NA,10592,NA,"{""product_choice"":""B""}",choice,wbw,trinary,catch,null,washing machines,70,95,10,10,20,50,2,null,null,null,null,null,null,Average lifespan,Energy savings,NA,NA
NA,NA,NA,NA,NA,choice_trial_setup,html-keyboard-response,86,434830,0.0-4.0-0.41,304,1,2025-05-08T01:27:16Z,b60275e29fe2361ab97ac0ac217840d7,"Mozilla/5.0 (Windows NT 10.0; Win64; x64) AppleWebKit/537.36 (KHTML, like Gecko) Chrome/136.0.0.0 Safari/537.36",WebKit,Chrome,136.0.0.0,Windows,10,https://5puzkbbxv1.cognition.run/?sona_id=51425,"en-US,en;q=0.9",6to9cd9n4o5feqo,22,"[""Black or African-American""]",No,Female,NA,Yes,541023.799999997,NA,null,<p></p>,null,choice,wb,binary,catch,null,laptops,60,90,30,50,null,null,2,NA,NA,NA,NA,NA,NA,NA,NA,NA,NA
NA,NA,NA,NA,NA,choice_trial,survey-html-form,87,438136,0.0-4.0-1.41,304,1,2025-05-08T01:27:16Z,b60275e29fe2361ab97ac0ac217840d7,"Mozilla/5.0 (Windows NT 10.0; Win64; x64) AppleWebKit/537.36 (KHTML, like Gecko) Chrome/136.0.0.0 Safari/537.36",WebKit,Chrome,136.0.0.0,Windows,10,https://5puzkbbxv1.cognition.run/?sona_id=51425,"en-US,en;q=0.9",6to9cd9n4o5feqo,22,"[""Black or African-American""]",No,Female,NA,Yes,541023.799999997,NA,3305,NA,"{""product_choice"":""B""}",choice,wb,binary,catch,null,laptops,60,90,30,50,null,null,2,null,null,null,null,null,null,Processing speed,Memory (RAM),NA,NA
NA,NA,NA,NA,NA,choice_trial_setup,html-keyboard-response,88,438438,0.0-4.0-0.42,304,1,2025-05-08T01:27:16Z,b60275e29fe2361ab97ac0ac217840d7,"Mozilla/5.0 (Windows NT 10.0; Win64; x64) AppleWebKit/537.36 (KHTML, like Gecko) Chrome/136.0.0.0 Safari/537.36",WebKit,Chrome,136.0.0.0,Windows,10,https://5puzkbbxv1.cognition.run/?sona_id=51425,"en-US,en;q=0.9",6to9cd9n4o5feqo,22,"[""Black or African-American""]",No,Female,NA,Yes,541023.799999997,NA,null,<p></p>,null,choice,ctd,trinary,repulsion_B,2,washing machines,null,null,null,null,null,null,1,NA,NA,NA,NA,NA,NA,NA,NA,NA,NA
NA,NA,NA,NA,NA,choice_trial,survey-html-form,89,454712,0.0-4.0-1.42,304,1,2025-05-08T01:27:16Z,b60275e29fe2361ab97ac0ac217840d7,"Mozilla/5.0 (Windows NT 10.0; Win64; x64) AppleWebKit/537.36 (KHTML, like Gecko) Chrome/136.0.0.0 Safari/537.36",WebKit,Chrome,136.0.0.0,Windows,10,https://5puzkbbxv1.cognition.run/?sona_id=51425,"en-US,en;q=0.9",6to9cd9n4o5feqo,22,"[""Black or African-American""]",No,Female,NA,Yes,541023.799999997,NA,16273,NA,"{""product_choice"":""B""}",choice,ctd,trinary,repulsion_B,2,washing machines,null,null,null,null,null,null,1,40,30,40,90,100,80,Average lifespan,Energy savings,NA,NA
NA,NA,NA,NA,NA,choice_trial_setup,html-keyboard-response,90,455015,0.0-4.0-0.43,304,1,2025-05-08T01:27:16Z,b60275e29fe2361ab97ac0ac217840d7,"Mozilla/5.0 (Windows NT 10.0; Win64; x64) AppleWebKit/537.36 (KHTML, like Gecko) Chrome/136.0.0.0 Safari/537.36",WebKit,Chrome,136.0.0.0,Windows,10,https://5puzkbbxv1.cognition.run/?sona_id=51425,"en-US,en;q=0.9",6to9cd9n4o5feqo,22,"[""Black or African-American""]",No,Female,NA,Yes,541023.799999997,NA,null,<p></p>,null,choice,ctd,trinary,repulsion_A,2,washing machines,null,null,null,null,null,null,2,NA,NA,NA,NA,NA,NA,NA,NA,NA,NA
NA,NA,NA,NA,NA,choice_trial,survey-html-form,91,456920,0.0-4.0-1.43,304,1,2025-05-08T01:27:16Z,b60275e29fe2361ab97ac0ac217840d7,"Mozilla/5.0 (Windows NT 10.0; Win64; x64) AppleWebKit/537.36 (KHTML, like Gecko) Chrome/136.0.0.0 Safari/537.36",WebKit,Chrome,136.0.0.0,Windows,10,https://5puzkbbxv1.cognition.run/?sona_id=51425,"en-US,en;q=0.9",6to9cd9n4o5feqo,22,"[""Black or African-American""]",No,Female,NA,Yes,541023.799999997,NA,1904,NA,"{""product_choice"":""A""}",choice,ctd,trinary,repulsion_A,2,washing machines,null,null,null,null,null,null,2,30,40,20,100,90,100,Average lifespan,Energy savings,NA,NA
NA,NA,NA,NA,NA,post_trials_message,html-button-response,92,458344,0.0-5.0,304,1,2025-05-08T01:27:16Z,b60275e29fe2361ab97ac0ac217840d7,"Mozilla/5.0 (Windows NT 10.0; Win64; x64) AppleWebKit/537.36 (KHTML, like Gecko) Chrome/136.0.0.0 Safari/537.36",WebKit,Chrome,136.0.0.0,Windows,10,https://5puzkbbxv1.cognition.run/?sona_id=51425,"en-US,en;q=0.9",6to9cd9n4o5feqo,22,"[""Black or African-American""]",No,Female,NA,Yes,541023.799999997,NA,1422,<p> <b>Thank you for your patience!</b></p><p>  The study will be done after completing a brief form. </p>,0,NA,NA,NA,NA,NA,NA,NA,NA,NA,NA,NA,NA,NA,NA,NA,NA,NA,NA,NA,NA,NA,NA,NA
NA,NA,NA,NA,NA,survey_message,survey-text,93,490636,0.0-6.0,304,1,2025-05-08T01:27:16Z,b60275e29fe2361ab97ac0ac217840d7,"Mozilla/5.0 (Windows NT 10.0; Win64; x64) AppleWebKit/537.36 (KHTML, like Gecko) Chrome/136.0.0.0 Safari/537.36",WebKit,Chrome,136.0.0.0,Windows,10,https://5puzkbbxv1.cognition.run/?sona_id=51425,"en-US,en;q=0.9",6to9cd9n4o5feqo,22,"[""Black or African-American""]",No,Female,NA,Yes,541023.799999997,NA,32287,NA,"{""Q0"":""i was thinking about quality over quantity ""}",NA,NA,NA,NA,NA,NA,NA,NA,NA,NA,NA,NA,NA,NA,NA,NA,NA,NA,NA,NA,NA,i was thinking about quality over quantity,NA
NA,NA,NA,NA,NA,demo_age,survey-text,94,494060,0.0-7.0,304,1,2025-05-08T01:27:16Z,b60275e29fe2361ab97ac0ac217840d7,"Mozilla/5.0 (Windows NT 10.0; Win64; x64) AppleWebKit/537.36 (KHTML, like Gecko) Chrome/136.0.0.0 Safari/537.36",WebKit,Chrome,136.0.0.0,Windows,10,https://5puzkbbxv1.cognition.run/?sona_id=51425,"en-US,en;q=0.9",6to9cd9n4o5feqo,22,"[""Black or African-American""]",No,Female,NA,Yes,541023.799999997,NA,3421,NA,"{""Q0"":""22""}",NA,NA,NA,NA,NA,NA,NA,NA,NA,NA,NA,NA,NA,NA,NA,NA,NA,NA,NA,NA,NA,NA,NA
NA,NA,NA,NA,NA,demo_race,survey-multi-select,95,496956,0.0-8.0,304,1,2025-05-08T01:27:16Z,b60275e29fe2361ab97ac0ac217840d7,"Mozilla/5.0 (Windows NT 10.0; Win64; x64) AppleWebKit/537.36 (KHTML, like Gecko) Chrome/136.0.0.0 Safari/537.36",WebKit,Chrome,136.0.0.0,Windows,10,https://5puzkbbxv1.cognition.run/?sona_id=51425,"en-US,en;q=0.9",6to9cd9n4o5feqo,22,"[""Black or African-American""]",No,Female,NA,Yes,541023.799999997,NA,2894,NA,"{""Q0"":[""Black or African-American""]}",NA,NA,NA,NA,NA,NA,NA,NA,NA,NA,NA,NA,NA,NA,NA,NA,NA,NA,NA,NA,NA,NA,[0]
NA,NA,NA,NA,NA,demo_ethnicity_gender,survey-multi-choice,96,502012,0.0-9.0,304,1,2025-05-08T01:27:16Z,b60275e29fe2361ab97ac0ac217840d7,"Mozilla/5.0 (Windows NT 10.0; Win64; x64) AppleWebKit/537.36 (KHTML, like Gecko) Chrome/136.0.0.0 Safari/537.36",WebKit,Chrome,136.0.0.0,Windows,10,https://5puzkbbxv1.cognition.run/?sona_id=51425,"en-US,en;q=0.9",6to9cd9n4o5feqo,22,"[""Black or African-American""]",No,Female,NA,Yes,541023.799999997,NA,5055,NA,"{""Q0"":""No"",""Q1"":""Female""}",NA,NA,NA,NA,NA,NA,NA,NA,NA,NA,NA,NA,NA,NA,NA,NA,NA,NA,NA,NA,NA,NA,"[0,1]"
NA,NA,NA,NA,NA,demo_countries,survey-text,97,512068,0.0-10.0,304,1,2025-05-08T01:27:16Z,b60275e29fe2361ab97ac0ac217840d7,"Mozilla/5.0 (Windows NT 10.0; Win64; x64) AppleWebKit/537.36 (KHTML, like Gecko) Chrome/136.0.0.0 Safari/537.36",WebKit,Chrome,136.0.0.0,Windows,10,https://5puzkbbxv1.cognition.run/?sona_id=51425,"en-US,en;q=0.9",6to9cd9n4o5feqo,22,"[""Black or African-American""]",No,Female,NA,Yes,541023.799999997,NA,10052,NA,"{""Q0"":""NA""}",NA,NA,NA,NA,NA,NA,NA,NA,NA,NA,NA,NA,NA,NA,NA,NA,NA,NA,NA,NA,NA,NA,NA
NA,NA,NA,NA,NA,demo_prev_study,survey-multi-choice,98,518067,0.0-11.0,304,1,2025-05-08T01:27:16Z,b60275e29fe2361ab97ac0ac217840d7,"Mozilla/5.0 (Windows NT 10.0; Win64; x64) AppleWebKit/537.36 (KHTML, like Gecko) Chrome/136.0.0.0 Safari/537.36",WebKit,Chrome,136.0.0.0,Windows,10,https://5puzkbbxv1.cognition.run/?sona_id=51425,"en-US,en;q=0.9",6to9cd9n4o5feqo,22,"[""Black or African-American""]",No,Female,NA,Yes,541023.799999997,NA,5998,NA,"{""Q0"":""Yes""}",NA,NA,NA,NA,NA,NA,NA,NA,NA,NA,NA,NA,NA,NA,NA,NA,NA,NA,NA,NA,NA,NA,[0]
NA,NA,NA,NA,NA,post_survey_message,html-keyboard-response,99,523884,0.0-12.0,304,1,2025-05-08T01:27:16Z,b60275e29fe2361ab97ac0ac217840d7,"Mozilla/5.0 (Windows NT 10.0; Win64; x64) AppleWebKit/537.36 (KHTML, like Gecko) Chrome/136.0.0.0 Safari/537.36",WebKit,Chrome,136.0.0.0,Windows,10,https://5puzkbbxv1.cognition.run/?sona_id=51425,"en-US,en;q=0.9",6to9cd9n4o5feqo,22,"[""Black or African-American""]",No,Female,NA,Yes,541023.799999997,NA,5815,NA,j,NA,NA,NA,NA,NA,NA,NA,NA,NA,NA,NA,NA,NA,NA,NA,NA,NA,NA,NA,NA,NA,NA,NA
NA,NA,NA,NA,NA,debrief,image-keyboard-response,100,541052,0.0-13.0,304,1,2025-05-08T01:27:16Z,b60275e29fe2361ab97ac0ac217840d7,"Mozilla/5.0 (Windows NT 10.0; Win64; x64) AppleWebKit/537.36 (KHTML, like Gecko) Chrome/136.0.0.0 Safari/537.36",WebKit,Chrome,136.0.0.0,Windows,10,https://5puzkbbxv1.cognition.run/?sona_id=51425,"en-US,en;q=0.9",6to9cd9n4o5feqo,22,"[""Black or African-American""]",No,Female,NA,Yes,541023.799999997,NA,17165,Judg_choice_debrief.png,p,NA,NA,NA,NA,NA,NA,NA,NA,NA,NA,NA,NA,NA,NA,NA,NA,NA,NA,NA,NA,NA,NA,NA
