success,timeout,failed_images,failed_audio,failed_video,screen_id,trial_type,trial_index,time_elapsed,internal_node_id,run_id,condition,recorded_at,source_code_version,user_agent,device,browser,browser_version,platform,platform_version,referer,accept_language,ppt_id,age,race,ethnicity,gender,other_countries,prev_study,exp_duration,view_history,rt,stimulus,response,phase,order,set,effect,t_high,category,d1_best,d2_best,d1_worst1,d2_worst1,d1_worst2,d2_worst2,first_dim,d1_t,d1_c,d1_d,d2_t,d2_c,d2_d,d1_name,d2_name,strategy_response,question_order
TRUE,FALSE,[],[],[],img preload,preload,0,151,0.0-0.0,308,1,2025-05-08T03:35:54Z,b60275e29fe2361ab97ac0ac217840d7,"Mozilla/5.0 (Windows NT 10.0; Win64; x64) AppleWebKit/537.36 (KHTML, like Gecko) Chrome/135.0.0.0 Safari/537.36 Edg/135.0.0.0",WebKit,Edge,135.0.0.0,Windows,10,https://5puzkbbxv1.cognition.run/?sona_id=57109,"en-US,en;q=0.9",l9nnkbleg3da1fc,20,"[""Prefer not to say""]",Yes,Female,El Salvador,No,681843.2000000477,NA,NA,NA,NA,NA,NA,NA,NA,NA,NA,NA,NA,NA,NA,NA,NA,NA,NA,NA,NA,NA,NA,NA,NA,NA,NA,NA
NA,NA,NA,NA,NA,computer_message,instructions,1,2931,0.0-1.0,308,1,2025-05-08T03:35:54Z,b60275e29fe2361ab97ac0ac217840d7,"Mozilla/5.0 (Windows NT 10.0; Win64; x64) AppleWebKit/537.36 (KHTML, like Gecko) Chrome/135.0.0.0 Safari/537.36 Edg/135.0.0.0",WebKit,Edge,135.0.0.0,Windows,10,https://5puzkbbxv1.cognition.run/?sona_id=57109,"en-US,en;q=0.9",l9nnkbleg3da1fc,20,"[""Prefer not to say""]",Yes,Female,El Salvador,No,681843.2000000477,"[{""page_index"":0,""viewing_time"":2778}]",2778,NA,NA,NA,NA,NA,NA,NA,NA,NA,NA,NA,NA,NA,NA,NA,NA,NA,NA,NA,NA,NA,NA,NA,NA,NA
TRUE,NA,NA,NA,NA,NA,fullscreen,2,5487,0.0-2.0,308,1,2025-05-08T03:35:54Z,b60275e29fe2361ab97ac0ac217840d7,"Mozilla/5.0 (Windows NT 10.0; Win64; x64) AppleWebKit/537.36 (KHTML, like Gecko) Chrome/135.0.0.0 Safari/537.36 Edg/135.0.0.0",WebKit,Edge,135.0.0.0,Windows,10,https://5puzkbbxv1.cognition.run/?sona_id=57109,"en-US,en;q=0.9",l9nnkbleg3da1fc,20,"[""Prefer not to say""]",Yes,Female,El Salvador,No,681843.2000000477,NA,1545,NA,NA,NA,NA,NA,NA,NA,NA,NA,NA,NA,NA,NA,NA,NA,NA,NA,NA,NA,NA,NA,NA,NA,NA,NA
NA,NA,NA,NA,NA,choice_instructions,instructions,3,124343,0.0-3.0,308,1,2025-05-08T03:35:54Z,b60275e29fe2361ab97ac0ac217840d7,"Mozilla/5.0 (Windows NT 10.0; Win64; x64) AppleWebKit/537.36 (KHTML, like Gecko) Chrome/135.0.0.0 Safari/537.36 Edg/135.0.0.0",WebKit,Edge,135.0.0.0,Windows,10,https://5puzkbbxv1.cognition.run/?sona_id=57109,"en-US,en;q=0.9",l9nnkbleg3da1fc,20,"[""Prefer not to say""]",Yes,Female,El Salvador,No,681843.2000000477,"[{""page_index"":0,""viewing_time"":1590},{""page_index"":1,""viewing_time"":7837},{""page_index"":2,""viewing_time"":5136},{""page_index"":3,""viewing_time"":6626},{""page_index"":4,""viewing_time"":3544},{""page_index"":5,""viewing_time"":26167},{""page_index"":6,""viewing_time"":67954}]",118855,NA,NA,NA,NA,NA,NA,NA,NA,NA,NA,NA,NA,NA,NA,NA,NA,NA,NA,NA,NA,NA,NA,NA,NA,NA
NA,NA,NA,NA,NA,choice_trial_setup,html-keyboard-response,4,124657,0.0-4.0-0.0,308,1,2025-05-08T03:35:54Z,b60275e29fe2361ab97ac0ac217840d7,"Mozilla/5.0 (Windows NT 10.0; Win64; x64) AppleWebKit/537.36 (KHTML, like Gecko) Chrome/135.0.0.0 Safari/537.36 Edg/135.0.0.0",WebKit,Edge,135.0.0.0,Windows,10,https://5puzkbbxv1.cognition.run/?sona_id=57109,"en-US,en;q=0.9",l9nnkbleg3da1fc,20,"[""Prefer not to say""]",Yes,Female,El Salvador,No,681843.2000000477,NA,null,<p></p>,null,choice,ct,binary,repulsion,1,microwave ovens,null,null,null,null,null,null,2,NA,NA,NA,NA,NA,NA,NA,NA,NA,NA
NA,NA,NA,NA,NA,choice_trial,survey-html-form,5,161684,0.0-4.0-1.0,308,1,2025-05-08T03:35:54Z,b60275e29fe2361ab97ac0ac217840d7,"Mozilla/5.0 (Windows NT 10.0; Win64; x64) AppleWebKit/537.36 (KHTML, like Gecko) Chrome/135.0.0.0 Safari/537.36 Edg/135.0.0.0",WebKit,Edge,135.0.0.0,Windows,10,https://5puzkbbxv1.cognition.run/?sona_id=57109,"en-US,en;q=0.9",l9nnkbleg3da1fc,20,"[""Prefer not to say""]",Yes,Female,El Salvador,No,681843.2000000477,NA,37020,NA,"{""product_choice"":""B""}",choice,ct,binary,repulsion,1,microwave ovens,null,null,null,null,null,null,2,100,90,null,30,40,null,Warranty,Cooking power,NA,NA
NA,NA,NA,NA,NA,choice_trial_setup,html-keyboard-response,6,161995,0.0-4.0-0.1,308,1,2025-05-08T03:35:54Z,b60275e29fe2361ab97ac0ac217840d7,"Mozilla/5.0 (Windows NT 10.0; Win64; x64) AppleWebKit/537.36 (KHTML, like Gecko) Chrome/135.0.0.0 Safari/537.36 Edg/135.0.0.0",WebKit,Edge,135.0.0.0,Windows,10,https://5puzkbbxv1.cognition.run/?sona_id=57109,"en-US,en;q=0.9",l9nnkbleg3da1fc,20,"[""Prefer not to say""]",Yes,Female,El Salvador,No,681843.2000000477,NA,null,<p></p>,null,choice,ct,binary,repulsion,1,laptops,null,null,null,null,null,null,1,NA,NA,NA,NA,NA,NA,NA,NA,NA,NA
NA,NA,NA,NA,NA,choice_trial,survey-html-form,7,173287,0.0-4.0-1.1,308,1,2025-05-08T03:35:54Z,b60275e29fe2361ab97ac0ac217840d7,"Mozilla/5.0 (Windows NT 10.0; Win64; x64) AppleWebKit/537.36 (KHTML, like Gecko) Chrome/135.0.0.0 Safari/537.36 Edg/135.0.0.0",WebKit,Edge,135.0.0.0,Windows,10,https://5puzkbbxv1.cognition.run/?sona_id=57109,"en-US,en;q=0.9",l9nnkbleg3da1fc,20,"[""Prefer not to say""]",Yes,Female,El Salvador,No,681843.2000000477,NA,11289,NA,"{""product_choice"":""A""}",choice,ct,binary,repulsion,1,laptops,null,null,null,null,null,null,1,100,90,null,30,40,null,Processing speed,Memory (RAM),NA,NA
NA,NA,NA,NA,NA,choice_trial_setup,html-keyboard-response,8,173604,0.0-4.0-0.2,308,1,2025-05-08T03:35:54Z,b60275e29fe2361ab97ac0ac217840d7,"Mozilla/5.0 (Windows NT 10.0; Win64; x64) AppleWebKit/537.36 (KHTML, like Gecko) Chrome/135.0.0.0 Safari/537.36 Edg/135.0.0.0",WebKit,Edge,135.0.0.0,Windows,10,https://5puzkbbxv1.cognition.run/?sona_id=57109,"en-US,en;q=0.9",l9nnkbleg3da1fc,20,"[""Prefer not to say""]",Yes,Female,El Salvador,No,681843.2000000477,NA,null,<p></p>,null,choice,tdc,trinary,repulsion_B,2,laptops,null,null,null,null,null,null,1,NA,NA,NA,NA,NA,NA,NA,NA,NA,NA
NA,NA,NA,NA,NA,choice_trial,survey-html-form,9,184656,0.0-4.0-1.2,308,1,2025-05-08T03:35:54Z,b60275e29fe2361ab97ac0ac217840d7,"Mozilla/5.0 (Windows NT 10.0; Win64; x64) AppleWebKit/537.36 (KHTML, like Gecko) Chrome/135.0.0.0 Safari/537.36 Edg/135.0.0.0",WebKit,Edge,135.0.0.0,Windows,10,https://5puzkbbxv1.cognition.run/?sona_id=57109,"en-US,en;q=0.9",l9nnkbleg3da1fc,20,"[""Prefer not to say""]",Yes,Female,El Salvador,No,681843.2000000477,NA,11048,NA,"{""product_choice"":""C""}",choice,tdc,trinary,repulsion_B,2,laptops,null,null,null,null,null,null,1,40,30,40,90,100,80,Processing speed,Memory (RAM),NA,NA
NA,NA,NA,NA,NA,choice_trial_setup,html-keyboard-response,10,184975,0.0-4.0-0.3,308,1,2025-05-08T03:35:54Z,b60275e29fe2361ab97ac0ac217840d7,"Mozilla/5.0 (Windows NT 10.0; Win64; x64) AppleWebKit/537.36 (KHTML, like Gecko) Chrome/135.0.0.0 Safari/537.36 Edg/135.0.0.0",WebKit,Edge,135.0.0.0,Windows,10,https://5puzkbbxv1.cognition.run/?sona_id=57109,"en-US,en;q=0.9",l9nnkbleg3da1fc,20,"[""Prefer not to say""]",Yes,Female,El Salvador,No,681843.2000000477,NA,null,<p></p>,null,choice,wwb,trinary,catch,null,televisions,50,85,50,15,25,5,1,NA,NA,NA,NA,NA,NA,NA,NA,NA,NA
NA,NA,NA,NA,NA,choice_trial,survey-html-form,11,198523,0.0-4.0-1.3,308,1,2025-05-08T03:35:54Z,b60275e29fe2361ab97ac0ac217840d7,"Mozilla/5.0 (Windows NT 10.0; Win64; x64) AppleWebKit/537.36 (KHTML, like Gecko) Chrome/135.0.0.0 Safari/537.36 Edg/135.0.0.0",WebKit,Edge,135.0.0.0,Windows,10,https://5puzkbbxv1.cognition.run/?sona_id=57109,"en-US,en;q=0.9",l9nnkbleg3da1fc,20,"[""Prefer not to say""]",Yes,Female,El Salvador,No,681843.2000000477,NA,13541,NA,"{""product_choice"":""C""}",choice,wwb,trinary,catch,null,televisions,50,85,50,15,25,5,1,null,null,null,null,null,null,Screen size,Average lifespan,NA,NA
NA,NA,NA,NA,NA,choice_trial_setup,html-keyboard-response,12,198835,0.0-4.0-0.4,308,1,2025-05-08T03:35:54Z,b60275e29fe2361ab97ac0ac217840d7,"Mozilla/5.0 (Windows NT 10.0; Win64; x64) AppleWebKit/537.36 (KHTML, like Gecko) Chrome/135.0.0.0 Safari/537.36 Edg/135.0.0.0",WebKit,Edge,135.0.0.0,Windows,10,https://5puzkbbxv1.cognition.run/?sona_id=57109,"en-US,en;q=0.9",l9nnkbleg3da1fc,20,"[""Prefer not to say""]",Yes,Female,El Salvador,No,681843.2000000477,NA,null,<p></p>,null,choice,cdt,trinary,repulsion_B,1,microwave ovens,null,null,null,null,null,null,1,NA,NA,NA,NA,NA,NA,NA,NA,NA,NA
NA,NA,NA,NA,NA,choice_trial,survey-html-form,13,207641,0.0-4.0-1.4,308,1,2025-05-08T03:35:54Z,b60275e29fe2361ab97ac0ac217840d7,"Mozilla/5.0 (Windows NT 10.0; Win64; x64) AppleWebKit/537.36 (KHTML, like Gecko) Chrome/135.0.0.0 Safari/537.36 Edg/135.0.0.0",WebKit,Edge,135.0.0.0,Windows,10,https://5puzkbbxv1.cognition.run/?sona_id=57109,"en-US,en;q=0.9",l9nnkbleg3da1fc,20,"[""Prefer not to say""]",Yes,Female,El Salvador,No,681843.2000000477,NA,8802,NA,"{""product_choice"":""A""}",choice,cdt,trinary,repulsion_B,1,microwave ovens,null,null,null,null,null,null,1,90,100,80,40,30,40,Warranty,Cooking power,NA,NA
NA,NA,NA,NA,NA,choice_trial_setup,html-keyboard-response,14,207949,0.0-4.0-0.5,308,1,2025-05-08T03:35:54Z,b60275e29fe2361ab97ac0ac217840d7,"Mozilla/5.0 (Windows NT 10.0; Win64; x64) AppleWebKit/537.36 (KHTML, like Gecko) Chrome/135.0.0.0 Safari/537.36 Edg/135.0.0.0",WebKit,Edge,135.0.0.0,Windows,10,https://5puzkbbxv1.cognition.run/?sona_id=57109,"en-US,en;q=0.9",l9nnkbleg3da1fc,20,"[""Prefer not to say""]",Yes,Female,El Salvador,No,681843.2000000477,NA,null,<p></p>,null,choice,dct,trinary,repulsion_A,2,laptops,null,null,null,null,null,null,2,NA,NA,NA,NA,NA,NA,NA,NA,NA,NA
NA,NA,NA,NA,NA,choice_trial,survey-html-form,15,223585,0.0-4.0-1.5,308,1,2025-05-08T03:35:54Z,b60275e29fe2361ab97ac0ac217840d7,"Mozilla/5.0 (Windows NT 10.0; Win64; x64) AppleWebKit/537.36 (KHTML, like Gecko) Chrome/135.0.0.0 Safari/537.36 Edg/135.0.0.0",WebKit,Edge,135.0.0.0,Windows,10,https://5puzkbbxv1.cognition.run/?sona_id=57109,"en-US,en;q=0.9",l9nnkbleg3da1fc,20,"[""Prefer not to say""]",Yes,Female,El Salvador,No,681843.2000000477,NA,15633,NA,"{""product_choice"":""C""}",choice,dct,trinary,repulsion_A,2,laptops,null,null,null,null,null,null,2,30,40,20,100,90,100,Processing speed,Memory (RAM),NA,NA
NA,NA,NA,NA,NA,choice_trial_setup,html-keyboard-response,16,223890,0.0-4.0-0.6,308,1,2025-05-08T03:35:54Z,b60275e29fe2361ab97ac0ac217840d7,"Mozilla/5.0 (Windows NT 10.0; Win64; x64) AppleWebKit/537.36 (KHTML, like Gecko) Chrome/135.0.0.0 Safari/537.36 Edg/135.0.0.0",WebKit,Edge,135.0.0.0,Windows,10,https://5puzkbbxv1.cognition.run/?sona_id=57109,"en-US,en;q=0.9",l9nnkbleg3da1fc,20,"[""Prefer not to say""]",Yes,Female,El Salvador,No,681843.2000000477,NA,null,<p></p>,null,choice,ctd,trinary,attraction,1,laptops,null,null,null,null,null,null,2,NA,NA,NA,NA,NA,NA,NA,NA,NA,NA
NA,NA,NA,NA,NA,choice_trial,survey-html-form,17,230869,0.0-4.0-1.6,308,1,2025-05-08T03:35:54Z,b60275e29fe2361ab97ac0ac217840d7,"Mozilla/5.0 (Windows NT 10.0; Win64; x64) AppleWebKit/537.36 (KHTML, like Gecko) Chrome/135.0.0.0 Safari/537.36 Edg/135.0.0.0",WebKit,Edge,135.0.0.0,Windows,10,https://5puzkbbxv1.cognition.run/?sona_id=57109,"en-US,en;q=0.9",l9nnkbleg3da1fc,20,"[""Prefer not to say""]",Yes,Female,El Salvador,No,681843.2000000477,NA,6975,NA,"{""product_choice"":""B""}",choice,ctd,trinary,attraction,1,laptops,null,null,null,null,null,null,2,60,50,60,50,60,40,Processing speed,Memory (RAM),NA,NA
NA,NA,NA,NA,NA,choice_trial_setup,html-keyboard-response,18,231174,0.0-4.0-0.7,308,1,2025-05-08T03:35:54Z,b60275e29fe2361ab97ac0ac217840d7,"Mozilla/5.0 (Windows NT 10.0; Win64; x64) AppleWebKit/537.36 (KHTML, like Gecko) Chrome/135.0.0.0 Safari/537.36 Edg/135.0.0.0",WebKit,Edge,135.0.0.0,Windows,10,https://5puzkbbxv1.cognition.run/?sona_id=57109,"en-US,en;q=0.9",l9nnkbleg3da1fc,20,"[""Prefer not to say""]",Yes,Female,El Salvador,No,681843.2000000477,NA,null,<p></p>,null,choice,cdt,trinary,attraction,2,washing machines,null,null,null,null,null,null,1,NA,NA,NA,NA,NA,NA,NA,NA,NA,NA
NA,NA,NA,NA,NA,choice_trial,survey-html-form,19,239674,0.0-4.0-1.7,308,1,2025-05-08T03:35:54Z,b60275e29fe2361ab97ac0ac217840d7,"Mozilla/5.0 (Windows NT 10.0; Win64; x64) AppleWebKit/537.36 (KHTML, like Gecko) Chrome/135.0.0.0 Safari/537.36 Edg/135.0.0.0",WebKit,Edge,135.0.0.0,Windows,10,https://5puzkbbxv1.cognition.run/?sona_id=57109,"en-US,en;q=0.9",l9nnkbleg3da1fc,20,"[""Prefer not to say""]",Yes,Female,El Salvador,No,681843.2000000477,NA,8496,NA,"{""product_choice"":""C""}",choice,cdt,trinary,attraction,2,washing machines,null,null,null,null,null,null,1,50,60,40,60,50,60,Average lifespan,Energy savings,NA,NA
NA,NA,NA,NA,NA,choice_trial_setup,html-keyboard-response,20,239995,0.0-4.0-0.8,308,1,2025-05-08T03:35:54Z,b60275e29fe2361ab97ac0ac217840d7,"Mozilla/5.0 (Windows NT 10.0; Win64; x64) AppleWebKit/537.36 (KHTML, like Gecko) Chrome/135.0.0.0 Safari/537.36 Edg/135.0.0.0",WebKit,Edge,135.0.0.0,Windows,10,https://5puzkbbxv1.cognition.run/?sona_id=57109,"en-US,en;q=0.9",l9nnkbleg3da1fc,20,"[""Prefer not to say""]",Yes,Female,El Salvador,No,681843.2000000477,NA,null,<p></p>,null,choice,tc,binary,repulsion,2,televisions,null,null,null,null,null,null,1,NA,NA,NA,NA,NA,NA,NA,NA,NA,NA
NA,NA,NA,NA,NA,choice_trial,survey-html-form,21,249524,0.0-4.0-1.8,308,1,2025-05-08T03:35:54Z,b60275e29fe2361ab97ac0ac217840d7,"Mozilla/5.0 (Windows NT 10.0; Win64; x64) AppleWebKit/537.36 (KHTML, like Gecko) Chrome/135.0.0.0 Safari/537.36 Edg/135.0.0.0",WebKit,Edge,135.0.0.0,Windows,10,https://5puzkbbxv1.cognition.run/?sona_id=57109,"en-US,en;q=0.9",l9nnkbleg3da1fc,20,"[""Prefer not to say""]",Yes,Female,El Salvador,No,681843.2000000477,NA,9524,NA,"{""product_choice"":""A""}",choice,tc,binary,repulsion,2,televisions,null,null,null,null,null,null,1,30,40,null,100,90,null,Screen size,Average lifespan,NA,NA
NA,NA,NA,NA,NA,choice_trial_setup,html-keyboard-response,22,249830,0.0-4.0-0.9,308,1,2025-05-08T03:35:54Z,b60275e29fe2361ab97ac0ac217840d7,"Mozilla/5.0 (Windows NT 10.0; Win64; x64) AppleWebKit/537.36 (KHTML, like Gecko) Chrome/135.0.0.0 Safari/537.36 Edg/135.0.0.0",WebKit,Edge,135.0.0.0,Windows,10,https://5puzkbbxv1.cognition.run/?sona_id=57109,"en-US,en;q=0.9",l9nnkbleg3da1fc,20,"[""Prefer not to say""]",Yes,Female,El Salvador,No,681843.2000000477,NA,null,<p></p>,null,choice,tdc,trinary,repulsion_A,1,washing machines,null,null,null,null,null,null,1,NA,NA,NA,NA,NA,NA,NA,NA,NA,NA
NA,NA,NA,NA,NA,choice_trial,survey-html-form,23,259977,0.0-4.0-1.9,308,1,2025-05-08T03:35:54Z,b60275e29fe2361ab97ac0ac217840d7,"Mozilla/5.0 (Windows NT 10.0; Win64; x64) AppleWebKit/537.36 (KHTML, like Gecko) Chrome/135.0.0.0 Safari/537.36 Edg/135.0.0.0",WebKit,Edge,135.0.0.0,Windows,10,https://5puzkbbxv1.cognition.run/?sona_id=57109,"en-US,en;q=0.9",l9nnkbleg3da1fc,20,"[""Prefer not to say""]",Yes,Female,El Salvador,No,681843.2000000477,NA,10143,NA,"{""product_choice"":""A""}",choice,tdc,trinary,repulsion_A,1,washing machines,null,null,null,null,null,null,1,100,90,100,30,40,20,Average lifespan,Energy savings,NA,NA
NA,NA,NA,NA,NA,choice_trial_setup,html-keyboard-response,24,260294,0.0-4.0-0.10,308,1,2025-05-08T03:35:54Z,b60275e29fe2361ab97ac0ac217840d7,"Mozilla/5.0 (Windows NT 10.0; Win64; x64) AppleWebKit/537.36 (KHTML, like Gecko) Chrome/135.0.0.0 Safari/537.36 Edg/135.0.0.0",WebKit,Edge,135.0.0.0,Windows,10,https://5puzkbbxv1.cognition.run/?sona_id=57109,"en-US,en;q=0.9",l9nnkbleg3da1fc,20,"[""Prefer not to say""]",Yes,Female,El Salvador,No,681843.2000000477,NA,null,<p></p>,null,choice,wwb,trinary,catch,null,laptops,85,80,25,5,45,30,1,NA,NA,NA,NA,NA,NA,NA,NA,NA,NA
NA,NA,NA,NA,NA,choice_trial,survey-html-form,25,269443,0.0-4.0-1.10,308,1,2025-05-08T03:35:54Z,b60275e29fe2361ab97ac0ac217840d7,"Mozilla/5.0 (Windows NT 10.0; Win64; x64) AppleWebKit/537.36 (KHTML, like Gecko) Chrome/135.0.0.0 Safari/537.36 Edg/135.0.0.0",WebKit,Edge,135.0.0.0,Windows,10,https://5puzkbbxv1.cognition.run/?sona_id=57109,"en-US,en;q=0.9",l9nnkbleg3da1fc,20,"[""Prefer not to say""]",Yes,Female,El Salvador,No,681843.2000000477,NA,9137,NA,"{""product_choice"":""C""}",choice,wwb,trinary,catch,null,laptops,85,80,25,5,45,30,1,null,null,null,null,null,null,Processing speed,Memory (RAM),NA,NA
NA,NA,NA,NA,NA,choice_trial_setup,html-keyboard-response,26,269751,0.0-4.0-0.11,308,1,2025-05-08T03:35:54Z,b60275e29fe2361ab97ac0ac217840d7,"Mozilla/5.0 (Windows NT 10.0; Win64; x64) AppleWebKit/537.36 (KHTML, like Gecko) Chrome/135.0.0.0 Safari/537.36 Edg/135.0.0.0",WebKit,Edge,135.0.0.0,Windows,10,https://5puzkbbxv1.cognition.run/?sona_id=57109,"en-US,en;q=0.9",l9nnkbleg3da1fc,20,"[""Prefer not to say""]",Yes,Female,El Salvador,No,681843.2000000477,NA,null,<p></p>,null,choice,tcd,trinary,repulsion_B,1,laptops,null,null,null,null,null,null,2,NA,NA,NA,NA,NA,NA,NA,NA,NA,NA
NA,NA,NA,NA,NA,choice_trial,survey-html-form,27,277340,0.0-4.0-1.11,308,1,2025-05-08T03:35:54Z,b60275e29fe2361ab97ac0ac217840d7,"Mozilla/5.0 (Windows NT 10.0; Win64; x64) AppleWebKit/537.36 (KHTML, like Gecko) Chrome/135.0.0.0 Safari/537.36 Edg/135.0.0.0",WebKit,Edge,135.0.0.0,Windows,10,https://5puzkbbxv1.cognition.run/?sona_id=57109,"en-US,en;q=0.9",l9nnkbleg3da1fc,20,"[""Prefer not to say""]",Yes,Female,El Salvador,No,681843.2000000477,NA,7585,NA,"{""product_choice"":""A""}",choice,tcd,trinary,repulsion_B,1,laptops,null,null,null,null,null,null,2,90,100,80,40,30,40,Processing speed,Memory (RAM),NA,NA
NA,NA,NA,NA,NA,choice_trial_setup,html-keyboard-response,28,277658,0.0-4.0-0.12,308,1,2025-05-08T03:35:54Z,b60275e29fe2361ab97ac0ac217840d7,"Mozilla/5.0 (Windows NT 10.0; Win64; x64) AppleWebKit/537.36 (KHTML, like Gecko) Chrome/135.0.0.0 Safari/537.36 Edg/135.0.0.0",WebKit,Edge,135.0.0.0,Windows,10,https://5puzkbbxv1.cognition.run/?sona_id=57109,"en-US,en;q=0.9",l9nnkbleg3da1fc,20,"[""Prefer not to say""]",Yes,Female,El Salvador,No,681843.2000000477,NA,null,<p></p>,null,choice,ctd,trinary,repulsion_A,1,televisions,null,null,null,null,null,null,2,NA,NA,NA,NA,NA,NA,NA,NA,NA,NA
NA,NA,NA,NA,NA,choice_trial,survey-html-form,29,285163,0.0-4.0-1.12,308,1,2025-05-08T03:35:54Z,b60275e29fe2361ab97ac0ac217840d7,"Mozilla/5.0 (Windows NT 10.0; Win64; x64) AppleWebKit/537.36 (KHTML, like Gecko) Chrome/135.0.0.0 Safari/537.36 Edg/135.0.0.0",WebKit,Edge,135.0.0.0,Windows,10,https://5puzkbbxv1.cognition.run/?sona_id=57109,"en-US,en;q=0.9",l9nnkbleg3da1fc,20,"[""Prefer not to say""]",Yes,Female,El Salvador,No,681843.2000000477,NA,7501,NA,"{""product_choice"":""B""}",choice,ctd,trinary,repulsion_A,1,televisions,null,null,null,null,null,null,2,100,90,100,30,40,20,Screen size,Average lifespan,NA,NA
NA,NA,NA,NA,NA,choice_trial_setup,html-keyboard-response,30,285475,0.0-4.0-0.13,308,1,2025-05-08T03:35:54Z,b60275e29fe2361ab97ac0ac217840d7,"Mozilla/5.0 (Windows NT 10.0; Win64; x64) AppleWebKit/537.36 (KHTML, like Gecko) Chrome/135.0.0.0 Safari/537.36 Edg/135.0.0.0",WebKit,Edge,135.0.0.0,Windows,10,https://5puzkbbxv1.cognition.run/?sona_id=57109,"en-US,en;q=0.9",l9nnkbleg3da1fc,20,"[""Prefer not to say""]",Yes,Female,El Salvador,No,681843.2000000477,NA,null,<p></p>,null,choice,ctd,trinary,attraction,1,microwave ovens,null,null,null,null,null,null,2,NA,NA,NA,NA,NA,NA,NA,NA,NA,NA
NA,NA,NA,NA,NA,choice_trial,survey-html-form,31,299156,0.0-4.0-1.13,308,1,2025-05-08T03:35:54Z,b60275e29fe2361ab97ac0ac217840d7,"Mozilla/5.0 (Windows NT 10.0; Win64; x64) AppleWebKit/537.36 (KHTML, like Gecko) Chrome/135.0.0.0 Safari/537.36 Edg/135.0.0.0",WebKit,Edge,135.0.0.0,Windows,10,https://5puzkbbxv1.cognition.run/?sona_id=57109,"en-US,en;q=0.9",l9nnkbleg3da1fc,20,"[""Prefer not to say""]",Yes,Female,El Salvador,No,681843.2000000477,NA,13676,NA,"{""product_choice"":""B""}",choice,ctd,trinary,attraction,1,microwave ovens,null,null,null,null,null,null,2,60,50,60,50,60,40,Warranty,Cooking power,NA,NA
NA,NA,NA,NA,NA,choice_trial_setup,html-keyboard-response,32,299476,0.0-4.0-0.14,308,1,2025-05-08T03:35:54Z,b60275e29fe2361ab97ac0ac217840d7,"Mozilla/5.0 (Windows NT 10.0; Win64; x64) AppleWebKit/537.36 (KHTML, like Gecko) Chrome/135.0.0.0 Safari/537.36 Edg/135.0.0.0",WebKit,Edge,135.0.0.0,Windows,10,https://5puzkbbxv1.cognition.run/?sona_id=57109,"en-US,en;q=0.9",l9nnkbleg3da1fc,20,"[""Prefer not to say""]",Yes,Female,El Salvador,No,681843.2000000477,NA,null,<p></p>,null,choice,ct,binary,attraction,NA,microwave ovens,null,null,null,null,null,null,2,NA,NA,NA,NA,NA,NA,NA,NA,NA,NA
NA,NA,NA,NA,NA,choice_trial,survey-html-form,33,312893,0.0-4.0-1.14,308,1,2025-05-08T03:35:54Z,b60275e29fe2361ab97ac0ac217840d7,"Mozilla/5.0 (Windows NT 10.0; Win64; x64) AppleWebKit/537.36 (KHTML, like Gecko) Chrome/135.0.0.0 Safari/537.36 Edg/135.0.0.0",WebKit,Edge,135.0.0.0,Windows,10,https://5puzkbbxv1.cognition.run/?sona_id=57109,"en-US,en;q=0.9",l9nnkbleg3da1fc,20,"[""Prefer not to say""]",Yes,Female,El Salvador,No,681843.2000000477,NA,13411,NA,"{""product_choice"":""B""}",choice,ct,binary,attraction,NA,microwave ovens,null,null,null,null,null,null,2,60,50,null,50,60,null,Warranty,Cooking power,NA,NA
NA,NA,NA,NA,NA,choice_trial_setup,html-keyboard-response,34,313215,0.0-4.0-0.15,308,1,2025-05-08T03:35:54Z,b60275e29fe2361ab97ac0ac217840d7,"Mozilla/5.0 (Windows NT 10.0; Win64; x64) AppleWebKit/537.36 (KHTML, like Gecko) Chrome/135.0.0.0 Safari/537.36 Edg/135.0.0.0",WebKit,Edge,135.0.0.0,Windows,10,https://5puzkbbxv1.cognition.run/?sona_id=57109,"en-US,en;q=0.9",l9nnkbleg3da1fc,20,"[""Prefer not to say""]",Yes,Female,El Salvador,No,681843.2000000477,NA,null,<p></p>,null,choice,ctd,trinary,repulsion_B,1,televisions,null,null,null,null,null,null,2,NA,NA,NA,NA,NA,NA,NA,NA,NA,NA
NA,NA,NA,NA,NA,choice_trial,survey-html-form,35,317240,0.0-4.0-1.15,308,1,2025-05-08T03:35:54Z,b60275e29fe2361ab97ac0ac217840d7,"Mozilla/5.0 (Windows NT 10.0; Win64; x64) AppleWebKit/537.36 (KHTML, like Gecko) Chrome/135.0.0.0 Safari/537.36 Edg/135.0.0.0",WebKit,Edge,135.0.0.0,Windows,10,https://5puzkbbxv1.cognition.run/?sona_id=57109,"en-US,en;q=0.9",l9nnkbleg3da1fc,20,"[""Prefer not to say""]",Yes,Female,El Salvador,No,681843.2000000477,NA,4019,NA,"{""product_choice"":""B""}",choice,ctd,trinary,repulsion_B,1,televisions,null,null,null,null,null,null,2,90,100,80,40,30,40,Screen size,Average lifespan,NA,NA
NA,NA,NA,NA,NA,choice_trial_setup,html-keyboard-response,36,317557,0.0-4.0-0.16,308,1,2025-05-08T03:35:54Z,b60275e29fe2361ab97ac0ac217840d7,"Mozilla/5.0 (Windows NT 10.0; Win64; x64) AppleWebKit/537.36 (KHTML, like Gecko) Chrome/135.0.0.0 Safari/537.36 Edg/135.0.0.0",WebKit,Edge,135.0.0.0,Windows,10,https://5puzkbbxv1.cognition.run/?sona_id=57109,"en-US,en;q=0.9",l9nnkbleg3da1fc,20,"[""Prefer not to say""]",Yes,Female,El Salvador,No,681843.2000000477,NA,null,<p></p>,null,choice,wwb,trinary,catch,null,microwave ovens,75,75,15,15,30,10,2,NA,NA,NA,NA,NA,NA,NA,NA,NA,NA
NA,NA,NA,NA,NA,choice_trial,survey-html-form,37,321853,0.0-4.0-1.16,308,1,2025-05-08T03:35:54Z,b60275e29fe2361ab97ac0ac217840d7,"Mozilla/5.0 (Windows NT 10.0; Win64; x64) AppleWebKit/537.36 (KHTML, like Gecko) Chrome/135.0.0.0 Safari/537.36 Edg/135.0.0.0",WebKit,Edge,135.0.0.0,Windows,10,https://5puzkbbxv1.cognition.run/?sona_id=57109,"en-US,en;q=0.9",l9nnkbleg3da1fc,20,"[""Prefer not to say""]",Yes,Female,El Salvador,No,681843.2000000477,NA,4292,NA,"{""product_choice"":""C""}",choice,wwb,trinary,catch,null,microwave ovens,75,75,15,15,30,10,2,null,null,null,null,null,null,Warranty,Cooking power,NA,NA
NA,NA,NA,NA,NA,choice_trial_setup,html-keyboard-response,38,322159,0.0-4.0-0.17,308,1,2025-05-08T03:35:54Z,b60275e29fe2361ab97ac0ac217840d7,"Mozilla/5.0 (Windows NT 10.0; Win64; x64) AppleWebKit/537.36 (KHTML, like Gecko) Chrome/135.0.0.0 Safari/537.36 Edg/135.0.0.0",WebKit,Edge,135.0.0.0,Windows,10,https://5puzkbbxv1.cognition.run/?sona_id=57109,"en-US,en;q=0.9",l9nnkbleg3da1fc,20,"[""Prefer not to say""]",Yes,Female,El Salvador,No,681843.2000000477,NA,null,<p></p>,null,choice,tdc,trinary,repulsion_A,1,laptops,null,null,null,null,null,null,1,NA,NA,NA,NA,NA,NA,NA,NA,NA,NA
NA,NA,NA,NA,NA,choice_trial,survey-html-form,39,347357,0.0-4.0-1.17,308,1,2025-05-08T03:35:54Z,b60275e29fe2361ab97ac0ac217840d7,"Mozilla/5.0 (Windows NT 10.0; Win64; x64) AppleWebKit/537.36 (KHTML, like Gecko) Chrome/135.0.0.0 Safari/537.36 Edg/135.0.0.0",WebKit,Edge,135.0.0.0,Windows,10,https://5puzkbbxv1.cognition.run/?sona_id=57109,"en-US,en;q=0.9",l9nnkbleg3da1fc,20,"[""Prefer not to say""]",Yes,Female,El Salvador,No,681843.2000000477,NA,25192,NA,"{""product_choice"":""A""}",choice,tdc,trinary,repulsion_A,1,laptops,null,null,null,null,null,null,1,100,90,100,30,40,20,Processing speed,Memory (RAM),NA,NA
NA,NA,NA,NA,NA,choice_trial_setup,html-keyboard-response,40,347672,0.0-4.0-0.18,308,1,2025-05-08T03:35:54Z,b60275e29fe2361ab97ac0ac217840d7,"Mozilla/5.0 (Windows NT 10.0; Win64; x64) AppleWebKit/537.36 (KHTML, like Gecko) Chrome/135.0.0.0 Safari/537.36 Edg/135.0.0.0",WebKit,Edge,135.0.0.0,Windows,10,https://5puzkbbxv1.cognition.run/?sona_id=57109,"en-US,en;q=0.9",l9nnkbleg3da1fc,20,"[""Prefer not to say""]",Yes,Female,El Salvador,No,681843.2000000477,NA,null,<p></p>,null,choice,wwb,trinary,catch,null,washing machines,80,75,5,40,25,15,2,NA,NA,NA,NA,NA,NA,NA,NA,NA,NA
NA,NA,NA,NA,NA,choice_trial,survey-html-form,41,352957,0.0-4.0-1.18,308,1,2025-05-08T03:35:54Z,b60275e29fe2361ab97ac0ac217840d7,"Mozilla/5.0 (Windows NT 10.0; Win64; x64) AppleWebKit/537.36 (KHTML, like Gecko) Chrome/135.0.0.0 Safari/537.36 Edg/135.0.0.0",WebKit,Edge,135.0.0.0,Windows,10,https://5puzkbbxv1.cognition.run/?sona_id=57109,"en-US,en;q=0.9",l9nnkbleg3da1fc,20,"[""Prefer not to say""]",Yes,Female,El Salvador,No,681843.2000000477,NA,5280,NA,"{""product_choice"":""C""}",choice,wwb,trinary,catch,null,washing machines,80,75,5,40,25,15,2,null,null,null,null,null,null,Average lifespan,Energy savings,NA,NA
NA,NA,NA,NA,NA,choice_trial_setup,html-keyboard-response,42,353272,0.0-4.0-0.19,308,1,2025-05-08T03:35:54Z,b60275e29fe2361ab97ac0ac217840d7,"Mozilla/5.0 (Windows NT 10.0; Win64; x64) AppleWebKit/537.36 (KHTML, like Gecko) Chrome/135.0.0.0 Safari/537.36 Edg/135.0.0.0",WebKit,Edge,135.0.0.0,Windows,10,https://5puzkbbxv1.cognition.run/?sona_id=57109,"en-US,en;q=0.9",l9nnkbleg3da1fc,20,"[""Prefer not to say""]",Yes,Female,El Salvador,No,681843.2000000477,NA,null,<p></p>,null,choice,ct,binary,attraction,NA,washing machines,null,null,null,null,null,null,1,NA,NA,NA,NA,NA,NA,NA,NA,NA,NA
NA,NA,NA,NA,NA,choice_trial,survey-html-form,43,362660,0.0-4.0-1.19,308,1,2025-05-08T03:35:54Z,b60275e29fe2361ab97ac0ac217840d7,"Mozilla/5.0 (Windows NT 10.0; Win64; x64) AppleWebKit/537.36 (KHTML, like Gecko) Chrome/135.0.0.0 Safari/537.36 Edg/135.0.0.0",WebKit,Edge,135.0.0.0,Windows,10,https://5puzkbbxv1.cognition.run/?sona_id=57109,"en-US,en;q=0.9",l9nnkbleg3da1fc,20,"[""Prefer not to say""]",Yes,Female,El Salvador,No,681843.2000000477,NA,9383,NA,"{""product_choice"":""A""}",choice,ct,binary,attraction,NA,washing machines,null,null,null,null,null,null,1,60,50,null,50,60,null,Average lifespan,Energy savings,NA,NA
NA,NA,NA,NA,NA,choice_trial_setup,html-keyboard-response,44,362969,0.0-4.0-0.20,308,1,2025-05-08T03:35:54Z,b60275e29fe2361ab97ac0ac217840d7,"Mozilla/5.0 (Windows NT 10.0; Win64; x64) AppleWebKit/537.36 (KHTML, like Gecko) Chrome/135.0.0.0 Safari/537.36 Edg/135.0.0.0",WebKit,Edge,135.0.0.0,Windows,10,https://5puzkbbxv1.cognition.run/?sona_id=57109,"en-US,en;q=0.9",l9nnkbleg3da1fc,20,"[""Prefer not to say""]",Yes,Female,El Salvador,No,681843.2000000477,NA,null,<p></p>,null,choice,ct,binary,repulsion,1,washing machines,null,null,null,null,null,null,2,NA,NA,NA,NA,NA,NA,NA,NA,NA,NA
NA,NA,NA,NA,NA,choice_trial,survey-html-form,45,368640,0.0-4.0-1.20,308,1,2025-05-08T03:35:54Z,b60275e29fe2361ab97ac0ac217840d7,"Mozilla/5.0 (Windows NT 10.0; Win64; x64) AppleWebKit/537.36 (KHTML, like Gecko) Chrome/135.0.0.0 Safari/537.36 Edg/135.0.0.0",WebKit,Edge,135.0.0.0,Windows,10,https://5puzkbbxv1.cognition.run/?sona_id=57109,"en-US,en;q=0.9",l9nnkbleg3da1fc,20,"[""Prefer not to say""]",Yes,Female,El Salvador,No,681843.2000000477,NA,5668,NA,"{""product_choice"":""B""}",choice,ct,binary,repulsion,1,washing machines,null,null,null,null,null,null,2,100,90,null,30,40,null,Average lifespan,Energy savings,NA,NA
NA,NA,NA,NA,NA,choice_trial_setup,html-keyboard-response,46,368945,0.0-4.0-0.21,308,1,2025-05-08T03:35:54Z,b60275e29fe2361ab97ac0ac217840d7,"Mozilla/5.0 (Windows NT 10.0; Win64; x64) AppleWebKit/537.36 (KHTML, like Gecko) Chrome/135.0.0.0 Safari/537.36 Edg/135.0.0.0",WebKit,Edge,135.0.0.0,Windows,10,https://5puzkbbxv1.cognition.run/?sona_id=57109,"en-US,en;q=0.9",l9nnkbleg3da1fc,20,"[""Prefer not to say""]",Yes,Female,El Salvador,No,681843.2000000477,NA,null,<p></p>,null,choice,tcd,trinary,attraction,2,laptops,null,null,null,null,null,null,1,NA,NA,NA,NA,NA,NA,NA,NA,NA,NA
NA,NA,NA,NA,NA,choice_trial,survey-html-form,47,380091,0.0-4.0-1.21,308,1,2025-05-08T03:35:54Z,b60275e29fe2361ab97ac0ac217840d7,"Mozilla/5.0 (Windows NT 10.0; Win64; x64) AppleWebKit/537.36 (KHTML, like Gecko) Chrome/135.0.0.0 Safari/537.36 Edg/135.0.0.0",WebKit,Edge,135.0.0.0,Windows,10,https://5puzkbbxv1.cognition.run/?sona_id=57109,"en-US,en;q=0.9",l9nnkbleg3da1fc,20,"[""Prefer not to say""]",Yes,Female,El Salvador,No,681843.2000000477,NA,11141,NA,"{""product_choice"":""A""}",choice,tcd,trinary,attraction,2,laptops,null,null,null,null,null,null,1,50,60,40,60,50,60,Processing speed,Memory (RAM),NA,NA
NA,NA,NA,NA,NA,choice_trial_setup,html-keyboard-response,48,380412,0.0-4.0-0.22,308,1,2025-05-08T03:35:54Z,b60275e29fe2361ab97ac0ac217840d7,"Mozilla/5.0 (Windows NT 10.0; Win64; x64) AppleWebKit/537.36 (KHTML, like Gecko) Chrome/135.0.0.0 Safari/537.36 Edg/135.0.0.0",WebKit,Edge,135.0.0.0,Windows,10,https://5puzkbbxv1.cognition.run/?sona_id=57109,"en-US,en;q=0.9",l9nnkbleg3da1fc,20,"[""Prefer not to say""]",Yes,Female,El Salvador,No,681843.2000000477,NA,null,<p></p>,null,choice,bw,binary,catch,null,microwave ovens,55,65,45,10,null,null,1,NA,NA,NA,NA,NA,NA,NA,NA,NA,NA
NA,NA,NA,NA,NA,choice_trial,survey-html-form,49,385225,0.0-4.0-1.22,308,1,2025-05-08T03:35:54Z,b60275e29fe2361ab97ac0ac217840d7,"Mozilla/5.0 (Windows NT 10.0; Win64; x64) AppleWebKit/537.36 (KHTML, like Gecko) Chrome/135.0.0.0 Safari/537.36 Edg/135.0.0.0",WebKit,Edge,135.0.0.0,Windows,10,https://5puzkbbxv1.cognition.run/?sona_id=57109,"en-US,en;q=0.9",l9nnkbleg3da1fc,20,"[""Prefer not to say""]",Yes,Female,El Salvador,No,681843.2000000477,NA,4807,NA,"{""product_choice"":""A""}",choice,bw,binary,catch,null,microwave ovens,55,65,45,10,null,null,1,null,null,null,null,null,null,Warranty,Cooking power,NA,NA
NA,NA,NA,NA,NA,choice_trial_setup,html-keyboard-response,50,385535,0.0-4.0-0.23,308,1,2025-05-08T03:35:54Z,b60275e29fe2361ab97ac0ac217840d7,"Mozilla/5.0 (Windows NT 10.0; Win64; x64) AppleWebKit/537.36 (KHTML, like Gecko) Chrome/135.0.0.0 Safari/537.36 Edg/135.0.0.0",WebKit,Edge,135.0.0.0,Windows,10,https://5puzkbbxv1.cognition.run/?sona_id=57109,"en-US,en;q=0.9",l9nnkbleg3da1fc,20,"[""Prefer not to say""]",Yes,Female,El Salvador,No,681843.2000000477,NA,null,<p></p>,null,choice,bw,binary,catch,null,laptops,75,90,50,10,null,null,1,NA,NA,NA,NA,NA,NA,NA,NA,NA,NA
NA,NA,NA,NA,NA,choice_trial,survey-html-form,51,390356,0.0-4.0-1.23,308,1,2025-05-08T03:35:54Z,b60275e29fe2361ab97ac0ac217840d7,"Mozilla/5.0 (Windows NT 10.0; Win64; x64) AppleWebKit/537.36 (KHTML, like Gecko) Chrome/135.0.0.0 Safari/537.36 Edg/135.0.0.0",WebKit,Edge,135.0.0.0,Windows,10,https://5puzkbbxv1.cognition.run/?sona_id=57109,"en-US,en;q=0.9",l9nnkbleg3da1fc,20,"[""Prefer not to say""]",Yes,Female,El Salvador,No,681843.2000000477,NA,4816,NA,"{""product_choice"":""A""}",choice,bw,binary,catch,null,laptops,75,90,50,10,null,null,1,null,null,null,null,null,null,Processing speed,Memory (RAM),NA,NA
NA,NA,NA,NA,NA,choice_trial_setup,html-keyboard-response,52,390665,0.0-4.0-0.24,308,1,2025-05-08T03:35:54Z,b60275e29fe2361ab97ac0ac217840d7,"Mozilla/5.0 (Windows NT 10.0; Win64; x64) AppleWebKit/537.36 (KHTML, like Gecko) Chrome/135.0.0.0 Safari/537.36 Edg/135.0.0.0",WebKit,Edge,135.0.0.0,Windows,10,https://5puzkbbxv1.cognition.run/?sona_id=57109,"en-US,en;q=0.9",l9nnkbleg3da1fc,20,"[""Prefer not to say""]",Yes,Female,El Salvador,No,681843.2000000477,NA,null,<p></p>,null,choice,wb,binary,catch,null,televisions,55,95,5,25,null,null,1,NA,NA,NA,NA,NA,NA,NA,NA,NA,NA
NA,NA,NA,NA,NA,choice_trial,survey-html-form,53,394605,0.0-4.0-1.24,308,1,2025-05-08T03:35:54Z,b60275e29fe2361ab97ac0ac217840d7,"Mozilla/5.0 (Windows NT 10.0; Win64; x64) AppleWebKit/537.36 (KHTML, like Gecko) Chrome/135.0.0.0 Safari/537.36 Edg/135.0.0.0",WebKit,Edge,135.0.0.0,Windows,10,https://5puzkbbxv1.cognition.run/?sona_id=57109,"en-US,en;q=0.9",l9nnkbleg3da1fc,20,"[""Prefer not to say""]",Yes,Female,El Salvador,No,681843.2000000477,NA,3935,NA,"{""product_choice"":""B""}",choice,wb,binary,catch,null,televisions,55,95,5,25,null,null,1,null,null,null,null,null,null,Screen size,Average lifespan,NA,NA
NA,NA,NA,NA,NA,choice_trial_setup,html-keyboard-response,54,394922,0.0-4.0-0.25,308,1,2025-05-08T03:35:54Z,b60275e29fe2361ab97ac0ac217840d7,"Mozilla/5.0 (Windows NT 10.0; Win64; x64) AppleWebKit/537.36 (KHTML, like Gecko) Chrome/135.0.0.0 Safari/537.36 Edg/135.0.0.0",WebKit,Edge,135.0.0.0,Windows,10,https://5puzkbbxv1.cognition.run/?sona_id=57109,"en-US,en;q=0.9",l9nnkbleg3da1fc,20,"[""Prefer not to say""]",Yes,Female,El Salvador,No,681843.2000000477,NA,null,<p></p>,null,choice,tcd,trinary,repulsion_B,2,microwave ovens,null,null,null,null,null,null,2,NA,NA,NA,NA,NA,NA,NA,NA,NA,NA
NA,NA,NA,NA,NA,choice_trial,survey-html-form,55,400801,0.0-4.0-1.25,308,1,2025-05-08T03:35:54Z,b60275e29fe2361ab97ac0ac217840d7,"Mozilla/5.0 (Windows NT 10.0; Win64; x64) AppleWebKit/537.36 (KHTML, like Gecko) Chrome/135.0.0.0 Safari/537.36 Edg/135.0.0.0",WebKit,Edge,135.0.0.0,Windows,10,https://5puzkbbxv1.cognition.run/?sona_id=57109,"en-US,en;q=0.9",l9nnkbleg3da1fc,20,"[""Prefer not to say""]",Yes,Female,El Salvador,No,681843.2000000477,NA,5873,NA,"{""product_choice"":""A""}",choice,tcd,trinary,repulsion_B,2,microwave ovens,null,null,null,null,null,null,2,40,30,40,90,100,80,Warranty,Cooking power,NA,NA
NA,NA,NA,NA,NA,choice_trial_setup,html-keyboard-response,56,401115,0.0-4.0-0.26,308,1,2025-05-08T03:35:54Z,b60275e29fe2361ab97ac0ac217840d7,"Mozilla/5.0 (Windows NT 10.0; Win64; x64) AppleWebKit/537.36 (KHTML, like Gecko) Chrome/135.0.0.0 Safari/537.36 Edg/135.0.0.0",WebKit,Edge,135.0.0.0,Windows,10,https://5puzkbbxv1.cognition.run/?sona_id=57109,"en-US,en;q=0.9",l9nnkbleg3da1fc,20,"[""Prefer not to say""]",Yes,Female,El Salvador,No,681843.2000000477,NA,null,<p></p>,null,choice,tc,binary,repulsion,2,microwave ovens,null,null,null,null,null,null,1,NA,NA,NA,NA,NA,NA,NA,NA,NA,NA
NA,NA,NA,NA,NA,choice_trial,survey-html-form,57,410700,0.0-4.0-1.26,308,1,2025-05-08T03:35:54Z,b60275e29fe2361ab97ac0ac217840d7,"Mozilla/5.0 (Windows NT 10.0; Win64; x64) AppleWebKit/537.36 (KHTML, like Gecko) Chrome/135.0.0.0 Safari/537.36 Edg/135.0.0.0",WebKit,Edge,135.0.0.0,Windows,10,https://5puzkbbxv1.cognition.run/?sona_id=57109,"en-US,en;q=0.9",l9nnkbleg3da1fc,20,"[""Prefer not to say""]",Yes,Female,El Salvador,No,681843.2000000477,NA,9579,NA,"{""product_choice"":""B""}",choice,tc,binary,repulsion,2,microwave ovens,null,null,null,null,null,null,1,30,40,null,100,90,null,Warranty,Cooking power,NA,NA
NA,NA,NA,NA,NA,choice_trial_setup,html-keyboard-response,58,411015,0.0-4.0-0.27,308,1,2025-05-08T03:35:54Z,b60275e29fe2361ab97ac0ac217840d7,"Mozilla/5.0 (Windows NT 10.0; Win64; x64) AppleWebKit/537.36 (KHTML, like Gecko) Chrome/135.0.0.0 Safari/537.36 Edg/135.0.0.0",WebKit,Edge,135.0.0.0,Windows,10,https://5puzkbbxv1.cognition.run/?sona_id=57109,"en-US,en;q=0.9",l9nnkbleg3da1fc,20,"[""Prefer not to say""]",Yes,Female,El Salvador,No,681843.2000000477,NA,null,<p></p>,null,choice,tc,binary,attraction,NA,televisions,null,null,null,null,null,null,2,NA,NA,NA,NA,NA,NA,NA,NA,NA,NA
NA,NA,NA,NA,NA,choice_trial,survey-html-form,59,418494,0.0-4.0-1.27,308,1,2025-05-08T03:35:54Z,b60275e29fe2361ab97ac0ac217840d7,"Mozilla/5.0 (Windows NT 10.0; Win64; x64) AppleWebKit/537.36 (KHTML, like Gecko) Chrome/135.0.0.0 Safari/537.36 Edg/135.0.0.0",WebKit,Edge,135.0.0.0,Windows,10,https://5puzkbbxv1.cognition.run/?sona_id=57109,"en-US,en;q=0.9",l9nnkbleg3da1fc,20,"[""Prefer not to say""]",Yes,Female,El Salvador,No,681843.2000000477,NA,7473,NA,"{""product_choice"":""B""}",choice,tc,binary,attraction,NA,televisions,null,null,null,null,null,null,2,60,50,null,50,60,null,Screen size,Average lifespan,NA,NA
NA,NA,NA,NA,NA,choice_trial_setup,html-keyboard-response,60,418808,0.0-4.0-0.28,308,1,2025-05-08T03:35:54Z,b60275e29fe2361ab97ac0ac217840d7,"Mozilla/5.0 (Windows NT 10.0; Win64; x64) AppleWebKit/537.36 (KHTML, like Gecko) Chrome/135.0.0.0 Safari/537.36 Edg/135.0.0.0",WebKit,Edge,135.0.0.0,Windows,10,https://5puzkbbxv1.cognition.run/?sona_id=57109,"en-US,en;q=0.9",l9nnkbleg3da1fc,20,"[""Prefer not to say""]",Yes,Female,El Salvador,No,681843.2000000477,NA,null,<p></p>,null,choice,tc,binary,repulsion,1,televisions,null,null,null,null,null,null,2,NA,NA,NA,NA,NA,NA,NA,NA,NA,NA
NA,NA,NA,NA,NA,choice_trial,survey-html-form,61,423198,0.0-4.0-1.28,308,1,2025-05-08T03:35:54Z,b60275e29fe2361ab97ac0ac217840d7,"Mozilla/5.0 (Windows NT 10.0; Win64; x64) AppleWebKit/537.36 (KHTML, like Gecko) Chrome/135.0.0.0 Safari/537.36 Edg/135.0.0.0",WebKit,Edge,135.0.0.0,Windows,10,https://5puzkbbxv1.cognition.run/?sona_id=57109,"en-US,en;q=0.9",l9nnkbleg3da1fc,20,"[""Prefer not to say""]",Yes,Female,El Salvador,No,681843.2000000477,NA,4385,NA,"{""product_choice"":""B""}",choice,tc,binary,repulsion,1,televisions,null,null,null,null,null,null,2,100,90,null,30,40,null,Screen size,Average lifespan,NA,NA
NA,NA,NA,NA,NA,choice_trial_setup,html-keyboard-response,62,423506,0.0-4.0-0.29,308,1,2025-05-08T03:35:54Z,b60275e29fe2361ab97ac0ac217840d7,"Mozilla/5.0 (Windows NT 10.0; Win64; x64) AppleWebKit/537.36 (KHTML, like Gecko) Chrome/135.0.0.0 Safari/537.36 Edg/135.0.0.0",WebKit,Edge,135.0.0.0,Windows,10,https://5puzkbbxv1.cognition.run/?sona_id=57109,"en-US,en;q=0.9",l9nnkbleg3da1fc,20,"[""Prefer not to say""]",Yes,Female,El Salvador,No,681843.2000000477,NA,null,<p></p>,null,choice,ct,binary,attraction,NA,laptops,null,null,null,null,null,null,1,NA,NA,NA,NA,NA,NA,NA,NA,NA,NA
NA,NA,NA,NA,NA,choice_trial,survey-html-form,63,427575,0.0-4.0-1.29,308,1,2025-05-08T03:35:54Z,b60275e29fe2361ab97ac0ac217840d7,"Mozilla/5.0 (Windows NT 10.0; Win64; x64) AppleWebKit/537.36 (KHTML, like Gecko) Chrome/135.0.0.0 Safari/537.36 Edg/135.0.0.0",WebKit,Edge,135.0.0.0,Windows,10,https://5puzkbbxv1.cognition.run/?sona_id=57109,"en-US,en;q=0.9",l9nnkbleg3da1fc,20,"[""Prefer not to say""]",Yes,Female,El Salvador,No,681843.2000000477,NA,4062,NA,"{""product_choice"":""A""}",choice,ct,binary,attraction,NA,laptops,null,null,null,null,null,null,1,60,50,null,50,60,null,Processing speed,Memory (RAM),NA,NA
NA,NA,NA,NA,NA,choice_trial_setup,html-keyboard-response,64,427892,0.0-4.0-0.30,308,1,2025-05-08T03:35:54Z,b60275e29fe2361ab97ac0ac217840d7,"Mozilla/5.0 (Windows NT 10.0; Win64; x64) AppleWebKit/537.36 (KHTML, like Gecko) Chrome/135.0.0.0 Safari/537.36 Edg/135.0.0.0",WebKit,Edge,135.0.0.0,Windows,10,https://5puzkbbxv1.cognition.run/?sona_id=57109,"en-US,en;q=0.9",l9nnkbleg3da1fc,20,"[""Prefer not to say""]",Yes,Female,El Salvador,No,681843.2000000477,NA,null,<p></p>,null,choice,tdc,trinary,repulsion_B,2,washing machines,null,null,null,null,null,null,1,NA,NA,NA,NA,NA,NA,NA,NA,NA,NA
NA,NA,NA,NA,NA,choice_trial,survey-html-form,65,435113,0.0-4.0-1.30,308,1,2025-05-08T03:35:54Z,b60275e29fe2361ab97ac0ac217840d7,"Mozilla/5.0 (Windows NT 10.0; Win64; x64) AppleWebKit/537.36 (KHTML, like Gecko) Chrome/135.0.0.0 Safari/537.36 Edg/135.0.0.0",WebKit,Edge,135.0.0.0,Windows,10,https://5puzkbbxv1.cognition.run/?sona_id=57109,"en-US,en;q=0.9",l9nnkbleg3da1fc,20,"[""Prefer not to say""]",Yes,Female,El Salvador,No,681843.2000000477,NA,7213,NA,"{""product_choice"":""A""}",choice,tdc,trinary,repulsion_B,2,washing machines,null,null,null,null,null,null,1,40,30,40,90,100,80,Average lifespan,Energy savings,NA,NA
NA,NA,NA,NA,NA,choice_trial_setup,html-keyboard-response,66,435424,0.0-4.0-0.31,308,1,2025-05-08T03:35:54Z,b60275e29fe2361ab97ac0ac217840d7,"Mozilla/5.0 (Windows NT 10.0; Win64; x64) AppleWebKit/537.36 (KHTML, like Gecko) Chrome/135.0.0.0 Safari/537.36 Edg/135.0.0.0",WebKit,Edge,135.0.0.0,Windows,10,https://5puzkbbxv1.cognition.run/?sona_id=57109,"en-US,en;q=0.9",l9nnkbleg3da1fc,20,"[""Prefer not to say""]",Yes,Female,El Salvador,No,681843.2000000477,NA,null,<p></p>,null,choice,cdt,trinary,repulsion_A,1,microwave ovens,null,null,null,null,null,null,1,NA,NA,NA,NA,NA,NA,NA,NA,NA,NA
NA,NA,NA,NA,NA,choice_trial,survey-html-form,67,449389,0.0-4.0-1.31,308,1,2025-05-08T03:35:54Z,b60275e29fe2361ab97ac0ac217840d7,"Mozilla/5.0 (Windows NT 10.0; Win64; x64) AppleWebKit/537.36 (KHTML, like Gecko) Chrome/135.0.0.0 Safari/537.36 Edg/135.0.0.0",WebKit,Edge,135.0.0.0,Windows,10,https://5puzkbbxv1.cognition.run/?sona_id=57109,"en-US,en;q=0.9",l9nnkbleg3da1fc,20,"[""Prefer not to say""]",Yes,Female,El Salvador,No,681843.2000000477,NA,13961,NA,"{""product_choice"":""C""}",choice,cdt,trinary,repulsion_A,1,microwave ovens,null,null,null,null,null,null,1,100,90,100,30,40,20,Warranty,Cooking power,NA,NA
NA,NA,NA,NA,NA,choice_trial_setup,html-keyboard-response,68,449707,0.0-4.0-0.32,308,1,2025-05-08T03:35:54Z,b60275e29fe2361ab97ac0ac217840d7,"Mozilla/5.0 (Windows NT 10.0; Win64; x64) AppleWebKit/537.36 (KHTML, like Gecko) Chrome/135.0.0.0 Safari/537.36 Edg/135.0.0.0",WebKit,Edge,135.0.0.0,Windows,10,https://5puzkbbxv1.cognition.run/?sona_id=57109,"en-US,en;q=0.9",l9nnkbleg3da1fc,20,"[""Prefer not to say""]",Yes,Female,El Salvador,No,681843.2000000477,NA,null,<p></p>,null,choice,wb,binary,catch,null,washing machines,55,95,10,15,null,null,1,NA,NA,NA,NA,NA,NA,NA,NA,NA,NA
NA,NA,NA,NA,NA,choice_trial,survey-html-form,69,453536,0.0-4.0-1.32,308,1,2025-05-08T03:35:54Z,b60275e29fe2361ab97ac0ac217840d7,"Mozilla/5.0 (Windows NT 10.0; Win64; x64) AppleWebKit/537.36 (KHTML, like Gecko) Chrome/135.0.0.0 Safari/537.36 Edg/135.0.0.0",WebKit,Edge,135.0.0.0,Windows,10,https://5puzkbbxv1.cognition.run/?sona_id=57109,"en-US,en;q=0.9",l9nnkbleg3da1fc,20,"[""Prefer not to say""]",Yes,Female,El Salvador,No,681843.2000000477,NA,3821,NA,"{""product_choice"":""B""}",choice,wb,binary,catch,null,washing machines,55,95,10,15,null,null,1,null,null,null,null,null,null,Average lifespan,Energy savings,NA,NA
NA,NA,NA,NA,NA,choice_trial_setup,html-keyboard-response,70,453852,0.0-4.0-0.33,308,1,2025-05-08T03:35:54Z,b60275e29fe2361ab97ac0ac217840d7,"Mozilla/5.0 (Windows NT 10.0; Win64; x64) AppleWebKit/537.36 (KHTML, like Gecko) Chrome/135.0.0.0 Safari/537.36 Edg/135.0.0.0",WebKit,Edge,135.0.0.0,Windows,10,https://5puzkbbxv1.cognition.run/?sona_id=57109,"en-US,en;q=0.9",l9nnkbleg3da1fc,20,"[""Prefer not to say""]",Yes,Female,El Salvador,No,681843.2000000477,NA,null,<p></p>,null,choice,tc,binary,repulsion,2,laptops,null,null,null,null,null,null,1,NA,NA,NA,NA,NA,NA,NA,NA,NA,NA
NA,NA,NA,NA,NA,choice_trial,survey-html-form,71,460246,0.0-4.0-1.33,308,1,2025-05-08T03:35:54Z,b60275e29fe2361ab97ac0ac217840d7,"Mozilla/5.0 (Windows NT 10.0; Win64; x64) AppleWebKit/537.36 (KHTML, like Gecko) Chrome/135.0.0.0 Safari/537.36 Edg/135.0.0.0",WebKit,Edge,135.0.0.0,Windows,10,https://5puzkbbxv1.cognition.run/?sona_id=57109,"en-US,en;q=0.9",l9nnkbleg3da1fc,20,"[""Prefer not to say""]",Yes,Female,El Salvador,No,681843.2000000477,NA,6389,NA,"{""product_choice"":""A""}",choice,tc,binary,repulsion,2,laptops,null,null,null,null,null,null,1,30,40,null,100,90,null,Processing speed,Memory (RAM),NA,NA
NA,NA,NA,NA,NA,choice_trial_setup,html-keyboard-response,72,460568,0.0-4.0-0.34,308,1,2025-05-08T03:35:54Z,b60275e29fe2361ab97ac0ac217840d7,"Mozilla/5.0 (Windows NT 10.0; Win64; x64) AppleWebKit/537.36 (KHTML, like Gecko) Chrome/135.0.0.0 Safari/537.36 Edg/135.0.0.0",WebKit,Edge,135.0.0.0,Windows,10,https://5puzkbbxv1.cognition.run/?sona_id=57109,"en-US,en;q=0.9",l9nnkbleg3da1fc,20,"[""Prefer not to say""]",Yes,Female,El Salvador,No,681843.2000000477,NA,null,<p></p>,null,choice,tdc,trinary,repulsion_A,2,televisions,null,null,null,null,null,null,2,NA,NA,NA,NA,NA,NA,NA,NA,NA,NA
NA,NA,NA,NA,NA,choice_trial,survey-html-form,73,465714,0.0-4.0-1.34,308,1,2025-05-08T03:35:54Z,b60275e29fe2361ab97ac0ac217840d7,"Mozilla/5.0 (Windows NT 10.0; Win64; x64) AppleWebKit/537.36 (KHTML, like Gecko) Chrome/135.0.0.0 Safari/537.36 Edg/135.0.0.0",WebKit,Edge,135.0.0.0,Windows,10,https://5puzkbbxv1.cognition.run/?sona_id=57109,"en-US,en;q=0.9",l9nnkbleg3da1fc,20,"[""Prefer not to say""]",Yes,Female,El Salvador,No,681843.2000000477,NA,5140,NA,"{""product_choice"":""A""}",choice,tdc,trinary,repulsion_A,2,televisions,null,null,null,null,null,null,2,30,40,20,100,90,100,Screen size,Average lifespan,NA,NA
NA,NA,NA,NA,NA,choice_trial_setup,html-keyboard-response,74,466022,0.0-4.0-0.35,308,1,2025-05-08T03:35:54Z,b60275e29fe2361ab97ac0ac217840d7,"Mozilla/5.0 (Windows NT 10.0; Win64; x64) AppleWebKit/537.36 (KHTML, like Gecko) Chrome/135.0.0.0 Safari/537.36 Edg/135.0.0.0",WebKit,Edge,135.0.0.0,Windows,10,https://5puzkbbxv1.cognition.run/?sona_id=57109,"en-US,en;q=0.9",l9nnkbleg3da1fc,20,"[""Prefer not to say""]",Yes,Female,El Salvador,No,681843.2000000477,NA,null,<p></p>,null,choice,cdt,trinary,repulsion_B,2,televisions,null,null,null,null,null,null,1,NA,NA,NA,NA,NA,NA,NA,NA,NA,NA
NA,NA,NA,NA,NA,choice_trial,survey-html-form,75,469449,0.0-4.0-1.35,308,1,2025-05-08T03:35:54Z,b60275e29fe2361ab97ac0ac217840d7,"Mozilla/5.0 (Windows NT 10.0; Win64; x64) AppleWebKit/537.36 (KHTML, like Gecko) Chrome/135.0.0.0 Safari/537.36 Edg/135.0.0.0",WebKit,Edge,135.0.0.0,Windows,10,https://5puzkbbxv1.cognition.run/?sona_id=57109,"en-US,en;q=0.9",l9nnkbleg3da1fc,20,"[""Prefer not to say""]",Yes,Female,El Salvador,No,681843.2000000477,NA,3421,NA,"{""product_choice"":""C""}",choice,cdt,trinary,repulsion_B,2,televisions,null,null,null,null,null,null,1,40,30,40,90,100,80,Screen size,Average lifespan,NA,NA
NA,NA,NA,NA,NA,choice_trial_setup,html-keyboard-response,76,469764,0.0-4.0-0.36,308,1,2025-05-08T03:35:54Z,b60275e29fe2361ab97ac0ac217840d7,"Mozilla/5.0 (Windows NT 10.0; Win64; x64) AppleWebKit/537.36 (KHTML, like Gecko) Chrome/135.0.0.0 Safari/537.36 Edg/135.0.0.0",WebKit,Edge,135.0.0.0,Windows,10,https://5puzkbbxv1.cognition.run/?sona_id=57109,"en-US,en;q=0.9",l9nnkbleg3da1fc,20,"[""Prefer not to say""]",Yes,Female,El Salvador,No,681843.2000000477,NA,null,<p></p>,null,choice,cdt,trinary,attraction,1,washing machines,null,null,null,null,null,null,2,NA,NA,NA,NA,NA,NA,NA,NA,NA,NA
NA,NA,NA,NA,NA,choice_trial,survey-html-form,77,475310,0.0-4.0-1.36,308,1,2025-05-08T03:35:54Z,b60275e29fe2361ab97ac0ac217840d7,"Mozilla/5.0 (Windows NT 10.0; Win64; x64) AppleWebKit/537.36 (KHTML, like Gecko) Chrome/135.0.0.0 Safari/537.36 Edg/135.0.0.0",WebKit,Edge,135.0.0.0,Windows,10,https://5puzkbbxv1.cognition.run/?sona_id=57109,"en-US,en;q=0.9",l9nnkbleg3da1fc,20,"[""Prefer not to say""]",Yes,Female,El Salvador,No,681843.2000000477,NA,5538,NA,"{""product_choice"":""C""}",choice,cdt,trinary,attraction,1,washing machines,null,null,null,null,null,null,2,60,50,60,50,60,40,Average lifespan,Energy savings,NA,NA
NA,NA,NA,NA,NA,choice_trial_setup,html-keyboard-response,78,475624,0.0-4.0-0.37,308,1,2025-05-08T03:35:54Z,b60275e29fe2361ab97ac0ac217840d7,"Mozilla/5.0 (Windows NT 10.0; Win64; x64) AppleWebKit/537.36 (KHTML, like Gecko) Chrome/135.0.0.0 Safari/537.36 Edg/135.0.0.0",WebKit,Edge,135.0.0.0,Windows,10,https://5puzkbbxv1.cognition.run/?sona_id=57109,"en-US,en;q=0.9",l9nnkbleg3da1fc,20,"[""Prefer not to say""]",Yes,Female,El Salvador,No,681843.2000000477,NA,null,<p></p>,null,choice,ct,binary,repulsion,2,washing machines,null,null,null,null,null,null,2,NA,NA,NA,NA,NA,NA,NA,NA,NA,NA
NA,NA,NA,NA,NA,choice_trial,survey-html-form,79,481557,0.0-4.0-1.37,308,1,2025-05-08T03:35:54Z,b60275e29fe2361ab97ac0ac217840d7,"Mozilla/5.0 (Windows NT 10.0; Win64; x64) AppleWebKit/537.36 (KHTML, like Gecko) Chrome/135.0.0.0 Safari/537.36 Edg/135.0.0.0",WebKit,Edge,135.0.0.0,Windows,10,https://5puzkbbxv1.cognition.run/?sona_id=57109,"en-US,en;q=0.9",l9nnkbleg3da1fc,20,"[""Prefer not to say""]",Yes,Female,El Salvador,No,681843.2000000477,NA,5926,NA,"{""product_choice"":""B""}",choice,ct,binary,repulsion,2,washing machines,null,null,null,null,null,null,2,30,40,null,100,90,null,Average lifespan,Energy savings,NA,NA
NA,NA,NA,NA,NA,choice_trial_setup,html-keyboard-response,80,481865,0.0-4.0-0.38,308,1,2025-05-08T03:35:54Z,b60275e29fe2361ab97ac0ac217840d7,"Mozilla/5.0 (Windows NT 10.0; Win64; x64) AppleWebKit/537.36 (KHTML, like Gecko) Chrome/135.0.0.0 Safari/537.36 Edg/135.0.0.0",WebKit,Edge,135.0.0.0,Windows,10,https://5puzkbbxv1.cognition.run/?sona_id=57109,"en-US,en;q=0.9",l9nnkbleg3da1fc,20,"[""Prefer not to say""]",Yes,Female,El Salvador,No,681843.2000000477,NA,null,<p></p>,null,choice,tcd,trinary,repulsion_B,1,washing machines,null,null,null,null,null,null,2,NA,NA,NA,NA,NA,NA,NA,NA,NA,NA
NA,NA,NA,NA,NA,choice_trial,survey-html-form,81,488847,0.0-4.0-1.38,308,1,2025-05-08T03:35:54Z,b60275e29fe2361ab97ac0ac217840d7,"Mozilla/5.0 (Windows NT 10.0; Win64; x64) AppleWebKit/537.36 (KHTML, like Gecko) Chrome/135.0.0.0 Safari/537.36 Edg/135.0.0.0",WebKit,Edge,135.0.0.0,Windows,10,https://5puzkbbxv1.cognition.run/?sona_id=57109,"en-US,en;q=0.9",l9nnkbleg3da1fc,20,"[""Prefer not to say""]",Yes,Female,El Salvador,No,681843.2000000477,NA,6973,NA,"{""product_choice"":""A""}",choice,tcd,trinary,repulsion_B,1,washing machines,null,null,null,null,null,null,2,90,100,80,40,30,40,Average lifespan,Energy savings,NA,NA
NA,NA,NA,NA,NA,choice_trial_setup,html-keyboard-response,82,489154,0.0-4.0-0.39,308,1,2025-05-08T03:35:54Z,b60275e29fe2361ab97ac0ac217840d7,"Mozilla/5.0 (Windows NT 10.0; Win64; x64) AppleWebKit/537.36 (KHTML, like Gecko) Chrome/135.0.0.0 Safari/537.36 Edg/135.0.0.0",WebKit,Edge,135.0.0.0,Windows,10,https://5puzkbbxv1.cognition.run/?sona_id=57109,"en-US,en;q=0.9",l9nnkbleg3da1fc,20,"[""Prefer not to say""]",Yes,Female,El Salvador,No,681843.2000000477,NA,null,<p></p>,null,choice,tdc,trinary,attraction,2,televisions,null,null,null,null,null,null,2,NA,NA,NA,NA,NA,NA,NA,NA,NA,NA
NA,NA,NA,NA,NA,choice_trial,survey-html-form,83,497070,0.0-4.0-1.39,308,1,2025-05-08T03:35:54Z,b60275e29fe2361ab97ac0ac217840d7,"Mozilla/5.0 (Windows NT 10.0; Win64; x64) AppleWebKit/537.36 (KHTML, like Gecko) Chrome/135.0.0.0 Safari/537.36 Edg/135.0.0.0",WebKit,Edge,135.0.0.0,Windows,10,https://5puzkbbxv1.cognition.run/?sona_id=57109,"en-US,en;q=0.9",l9nnkbleg3da1fc,20,"[""Prefer not to say""]",Yes,Female,El Salvador,No,681843.2000000477,NA,7908,NA,"{""product_choice"":""A""}",choice,tdc,trinary,attraction,2,televisions,null,null,null,null,null,null,2,50,60,40,60,50,60,Screen size,Average lifespan,NA,NA
NA,NA,NA,NA,NA,choice_trial_setup,html-keyboard-response,84,497388,0.0-4.0-0.40,308,1,2025-05-08T03:35:54Z,b60275e29fe2361ab97ac0ac217840d7,"Mozilla/5.0 (Windows NT 10.0; Win64; x64) AppleWebKit/537.36 (KHTML, like Gecko) Chrome/135.0.0.0 Safari/537.36 Edg/135.0.0.0",WebKit,Edge,135.0.0.0,Windows,10,https://5puzkbbxv1.cognition.run/?sona_id=57109,"en-US,en;q=0.9",l9nnkbleg3da1fc,20,"[""Prefer not to say""]",Yes,Female,El Salvador,No,681843.2000000477,NA,null,<p></p>,null,choice,cdt,trinary,attraction,1,televisions,null,null,null,null,null,null,1,NA,NA,NA,NA,NA,NA,NA,NA,NA,NA
NA,NA,NA,NA,NA,choice_trial,survey-html-form,85,502566,0.0-4.0-1.40,308,1,2025-05-08T03:35:54Z,b60275e29fe2361ab97ac0ac217840d7,"Mozilla/5.0 (Windows NT 10.0; Win64; x64) AppleWebKit/537.36 (KHTML, like Gecko) Chrome/135.0.0.0 Safari/537.36 Edg/135.0.0.0",WebKit,Edge,135.0.0.0,Windows,10,https://5puzkbbxv1.cognition.run/?sona_id=57109,"en-US,en;q=0.9",l9nnkbleg3da1fc,20,"[""Prefer not to say""]",Yes,Female,El Salvador,No,681843.2000000477,NA,5171,NA,"{""product_choice"":""C""}",choice,cdt,trinary,attraction,1,televisions,null,null,null,null,null,null,1,60,50,60,50,60,40,Screen size,Average lifespan,NA,NA
NA,NA,NA,NA,NA,choice_trial_setup,html-keyboard-response,86,502874,0.0-4.0-0.41,308,1,2025-05-08T03:35:54Z,b60275e29fe2361ab97ac0ac217840d7,"Mozilla/5.0 (Windows NT 10.0; Win64; x64) AppleWebKit/537.36 (KHTML, like Gecko) Chrome/135.0.0.0 Safari/537.36 Edg/135.0.0.0",WebKit,Edge,135.0.0.0,Windows,10,https://5puzkbbxv1.cognition.run/?sona_id=57109,"en-US,en;q=0.9",l9nnkbleg3da1fc,20,"[""Prefer not to say""]",Yes,Female,El Salvador,No,681843.2000000477,NA,null,<p></p>,null,choice,dct,trinary,repulsion_A,2,washing machines,null,null,null,null,null,null,1,NA,NA,NA,NA,NA,NA,NA,NA,NA,NA
NA,NA,NA,NA,NA,choice_trial,survey-html-form,87,511007,0.0-4.0-1.41,308,1,2025-05-08T03:35:54Z,b60275e29fe2361ab97ac0ac217840d7,"Mozilla/5.0 (Windows NT 10.0; Win64; x64) AppleWebKit/537.36 (KHTML, like Gecko) Chrome/135.0.0.0 Safari/537.36 Edg/135.0.0.0",WebKit,Edge,135.0.0.0,Windows,10,https://5puzkbbxv1.cognition.run/?sona_id=57109,"en-US,en;q=0.9",l9nnkbleg3da1fc,20,"[""Prefer not to say""]",Yes,Female,El Salvador,No,681843.2000000477,NA,8127,NA,"{""product_choice"":""C""}",choice,dct,trinary,repulsion_A,2,washing machines,null,null,null,null,null,null,1,30,40,20,100,90,100,Average lifespan,Energy savings,NA,NA
NA,NA,NA,NA,NA,choice_trial_setup,html-keyboard-response,88,511319,0.0-4.0-0.42,308,1,2025-05-08T03:35:54Z,b60275e29fe2361ab97ac0ac217840d7,"Mozilla/5.0 (Windows NT 10.0; Win64; x64) AppleWebKit/537.36 (KHTML, like Gecko) Chrome/135.0.0.0 Safari/537.36 Edg/135.0.0.0",WebKit,Edge,135.0.0.0,Windows,10,https://5puzkbbxv1.cognition.run/?sona_id=57109,"en-US,en;q=0.9",l9nnkbleg3da1fc,20,"[""Prefer not to say""]",Yes,Female,El Salvador,No,681843.2000000477,NA,null,<p></p>,null,choice,dtc,trinary,attraction,2,microwave ovens,null,null,null,null,null,null,2,NA,NA,NA,NA,NA,NA,NA,NA,NA,NA
NA,NA,NA,NA,NA,choice_trial,survey-html-form,89,515104,0.0-4.0-1.42,308,1,2025-05-08T03:35:54Z,b60275e29fe2361ab97ac0ac217840d7,"Mozilla/5.0 (Windows NT 10.0; Win64; x64) AppleWebKit/537.36 (KHTML, like Gecko) Chrome/135.0.0.0 Safari/537.36 Edg/135.0.0.0",WebKit,Edge,135.0.0.0,Windows,10,https://5puzkbbxv1.cognition.run/?sona_id=57109,"en-US,en;q=0.9",l9nnkbleg3da1fc,20,"[""Prefer not to say""]",Yes,Female,El Salvador,No,681843.2000000477,NA,3777,NA,"{""product_choice"":""B""}",choice,dtc,trinary,attraction,2,microwave ovens,null,null,null,null,null,null,2,50,60,40,60,50,60,Warranty,Cooking power,NA,NA
NA,NA,NA,NA,NA,choice_trial_setup,html-keyboard-response,90,515411,0.0-4.0-0.43,308,1,2025-05-08T03:35:54Z,b60275e29fe2361ab97ac0ac217840d7,"Mozilla/5.0 (Windows NT 10.0; Win64; x64) AppleWebKit/537.36 (KHTML, like Gecko) Chrome/135.0.0.0 Safari/537.36 Edg/135.0.0.0",WebKit,Edge,135.0.0.0,Windows,10,https://5puzkbbxv1.cognition.run/?sona_id=57109,"en-US,en;q=0.9",l9nnkbleg3da1fc,20,"[""Prefer not to say""]",Yes,Female,El Salvador,No,681843.2000000477,NA,null,<p></p>,null,choice,cdt,trinary,repulsion_A,2,microwave ovens,null,null,null,null,null,null,1,NA,NA,NA,NA,NA,NA,NA,NA,NA,NA
NA,NA,NA,NA,NA,choice_trial,survey-html-form,91,556649,0.0-4.0-1.43,308,1,2025-05-08T03:35:54Z,b60275e29fe2361ab97ac0ac217840d7,"Mozilla/5.0 (Windows NT 10.0; Win64; x64) AppleWebKit/537.36 (KHTML, like Gecko) Chrome/135.0.0.0 Safari/537.36 Edg/135.0.0.0",WebKit,Edge,135.0.0.0,Windows,10,https://5puzkbbxv1.cognition.run/?sona_id=57109,"en-US,en;q=0.9",l9nnkbleg3da1fc,20,"[""Prefer not to say""]",Yes,Female,El Salvador,No,681843.2000000477,NA,41231,NA,"{""product_choice"":""C""}",choice,cdt,trinary,repulsion_A,2,microwave ovens,null,null,null,null,null,null,1,30,40,20,100,90,100,Warranty,Cooking power,NA,NA
NA,NA,NA,NA,NA,post_trials_message,html-button-response,92,560077,0.0-5.0,308,1,2025-05-08T03:35:54Z,b60275e29fe2361ab97ac0ac217840d7,"Mozilla/5.0 (Windows NT 10.0; Win64; x64) AppleWebKit/537.36 (KHTML, like Gecko) Chrome/135.0.0.0 Safari/537.36 Edg/135.0.0.0",WebKit,Edge,135.0.0.0,Windows,10,https://5puzkbbxv1.cognition.run/?sona_id=57109,"en-US,en;q=0.9",l9nnkbleg3da1fc,20,"[""Prefer not to say""]",Yes,Female,El Salvador,No,681843.2000000477,NA,3416,<p> <b>Thank you for your patience!</b></p><p>  The study will be done after completing a brief form. </p>,0,NA,NA,NA,NA,NA,NA,NA,NA,NA,NA,NA,NA,NA,NA,NA,NA,NA,NA,NA,NA,NA,NA,NA
NA,NA,NA,NA,NA,survey_message,survey-text,93,615906,0.0-6.0,308,1,2025-05-08T03:35:54Z,b60275e29fe2361ab97ac0ac217840d7,"Mozilla/5.0 (Windows NT 10.0; Win64; x64) AppleWebKit/537.36 (KHTML, like Gecko) Chrome/135.0.0.0 Safari/537.36 Edg/135.0.0.0",WebKit,Edge,135.0.0.0,Windows,10,https://5puzkbbxv1.cognition.run/?sona_id=57109,"en-US,en;q=0.9",l9nnkbleg3da1fc,20,"[""Prefer not to say""]",Yes,Female,El Salvador,No,681843.2000000477,NA,55818,NA,"{""Q0"":""The average lifespan is something important to take into account. As well as memory when it comes to laptops, since one may have a lot they want to store. ""}",NA,NA,NA,NA,NA,NA,NA,NA,NA,NA,NA,NA,NA,NA,NA,NA,NA,NA,NA,NA,NA,"The average lifespan is something important to take into account. As well as memory when it comes to laptops, since one may have a lot they want to store.",NA
NA,NA,NA,NA,NA,demo_age,survey-text,94,619297,0.0-7.0,308,1,2025-05-08T03:35:54Z,b60275e29fe2361ab97ac0ac217840d7,"Mozilla/5.0 (Windows NT 10.0; Win64; x64) AppleWebKit/537.36 (KHTML, like Gecko) Chrome/135.0.0.0 Safari/537.36 Edg/135.0.0.0",WebKit,Edge,135.0.0.0,Windows,10,https://5puzkbbxv1.cognition.run/?sona_id=57109,"en-US,en;q=0.9",l9nnkbleg3da1fc,20,"[""Prefer not to say""]",Yes,Female,El Salvador,No,681843.2000000477,NA,3377,NA,"{""Q0"":""20""}",NA,NA,NA,NA,NA,NA,NA,NA,NA,NA,NA,NA,NA,NA,NA,NA,NA,NA,NA,NA,NA,NA,NA
NA,NA,NA,NA,NA,demo_race,survey-multi-select,95,621706,0.0-8.0,308,1,2025-05-08T03:35:54Z,b60275e29fe2361ab97ac0ac217840d7,"Mozilla/5.0 (Windows NT 10.0; Win64; x64) AppleWebKit/537.36 (KHTML, like Gecko) Chrome/135.0.0.0 Safari/537.36 Edg/135.0.0.0",WebKit,Edge,135.0.0.0,Windows,10,https://5puzkbbxv1.cognition.run/?sona_id=57109,"en-US,en;q=0.9",l9nnkbleg3da1fc,20,"[""Prefer not to say""]",Yes,Female,El Salvador,No,681843.2000000477,NA,2396,NA,"{""Q0"":[""Prefer not to say""]}",NA,NA,NA,NA,NA,NA,NA,NA,NA,NA,NA,NA,NA,NA,NA,NA,NA,NA,NA,NA,NA,NA,[0]
NA,NA,NA,NA,NA,demo_ethnicity_gender,survey-multi-choice,96,631047,0.0-9.0,308,1,2025-05-08T03:35:54Z,b60275e29fe2361ab97ac0ac217840d7,"Mozilla/5.0 (Windows NT 10.0; Win64; x64) AppleWebKit/537.36 (KHTML, like Gecko) Chrome/135.0.0.0 Safari/537.36 Edg/135.0.0.0",WebKit,Edge,135.0.0.0,Windows,10,https://5puzkbbxv1.cognition.run/?sona_id=57109,"en-US,en;q=0.9",l9nnkbleg3da1fc,20,"[""Prefer not to say""]",Yes,Female,El Salvador,No,681843.2000000477,NA,9330,NA,"{""Q0"":""Yes"",""Q1"":""Female""}",NA,NA,NA,NA,NA,NA,NA,NA,NA,NA,NA,NA,NA,NA,NA,NA,NA,NA,NA,NA,NA,NA,"[0,1]"
NA,NA,NA,NA,NA,demo_countries,survey-text,97,657248,0.0-10.0,308,1,2025-05-08T03:35:54Z,b60275e29fe2361ab97ac0ac217840d7,"Mozilla/5.0 (Windows NT 10.0; Win64; x64) AppleWebKit/537.36 (KHTML, like Gecko) Chrome/135.0.0.0 Safari/537.36 Edg/135.0.0.0",WebKit,Edge,135.0.0.0,Windows,10,https://5puzkbbxv1.cognition.run/?sona_id=57109,"en-US,en;q=0.9",l9nnkbleg3da1fc,20,"[""Prefer not to say""]",Yes,Female,El Salvador,No,681843.2000000477,NA,26193,NA,"{""Q0"":""El Salvador""}",NA,NA,NA,NA,NA,NA,NA,NA,NA,NA,NA,NA,NA,NA,NA,NA,NA,NA,NA,NA,NA,NA,NA
NA,NA,NA,NA,NA,demo_prev_study,survey-multi-choice,98,662696,0.0-11.0,308,1,2025-05-08T03:35:54Z,b60275e29fe2361ab97ac0ac217840d7,"Mozilla/5.0 (Windows NT 10.0; Win64; x64) AppleWebKit/537.36 (KHTML, like Gecko) Chrome/135.0.0.0 Safari/537.36 Edg/135.0.0.0",WebKit,Edge,135.0.0.0,Windows,10,https://5puzkbbxv1.cognition.run/?sona_id=57109,"en-US,en;q=0.9",l9nnkbleg3da1fc,20,"[""Prefer not to say""]",Yes,Female,El Salvador,No,681843.2000000477,NA,5439,NA,"{""Q0"":""No""}",NA,NA,NA,NA,NA,NA,NA,NA,NA,NA,NA,NA,NA,NA,NA,NA,NA,NA,NA,NA,NA,NA,[0]
NA,NA,NA,NA,NA,post_survey_message,html-keyboard-response,99,668265,0.0-12.0,308,1,2025-05-08T03:35:54Z,b60275e29fe2361ab97ac0ac217840d7,"Mozilla/5.0 (Windows NT 10.0; Win64; x64) AppleWebKit/537.36 (KHTML, like Gecko) Chrome/135.0.0.0 Safari/537.36 Edg/135.0.0.0",WebKit,Edge,135.0.0.0,Windows,10,https://5puzkbbxv1.cognition.run/?sona_id=57109,"en-US,en;q=0.9",l9nnkbleg3da1fc,20,"[""Prefer not to say""]",Yes,Female,El Salvador,No,681843.2000000477,NA,5559,NA,j,NA,NA,NA,NA,NA,NA,NA,NA,NA,NA,NA,NA,NA,NA,NA,NA,NA,NA,NA,NA,NA,NA,NA
NA,NA,NA,NA,NA,debrief,image-keyboard-response,100,681841,0.0-13.0,308,1,2025-05-08T03:35:54Z,b60275e29fe2361ab97ac0ac217840d7,"Mozilla/5.0 (Windows NT 10.0; Win64; x64) AppleWebKit/537.36 (KHTML, like Gecko) Chrome/135.0.0.0 Safari/537.36 Edg/135.0.0.0",WebKit,Edge,135.0.0.0,Windows,10,https://5puzkbbxv1.cognition.run/?sona_id=57109,"en-US,en;q=0.9",l9nnkbleg3da1fc,20,"[""Prefer not to say""]",Yes,Female,El Salvador,No,681843.2000000477,NA,13566,Judg_choice_debrief.png,p,NA,NA,NA,NA,NA,NA,NA,NA,NA,NA,NA,NA,NA,NA,NA,NA,NA,NA,NA,NA,NA,NA,NA
