success,timeout,failed_images,failed_audio,failed_video,screen_id,trial_type,trial_index,time_elapsed,internal_node_id,run_id,condition,recorded_at,source_code_version,user_agent,device,browser,browser_version,platform,platform_version,referer,accept_language,ppt_id,age,race,ethnicity,gender,other_countries,prev_study,exp_duration,view_history,rt,stimulus,response,phase,order,set,effect,t_high,category,d1_best,d2_best,d1_worst1,d2_worst1,d1_worst2,d2_worst2,first_dim,d1_t,d1_c,d1_d,d2_t,d2_c,d2_d,d1_name,d2_name,strategy_response,question_order
TRUE,FALSE,[],[],[],img preload,preload,0,94,0.0-0.0,312,1,2025-05-08T05:20:47Z,b60275e29fe2361ab97ac0ac217840d7,"Mozilla/5.0 (Macintosh; Intel Mac OS X 10_15_7) AppleWebKit/605.1.15 (KHTML, like Gecko) Version/18.3 Safari/605.1.15",Macintosh,Safari,18.3,OS X,10_15_7,https://5puzkbbxv1.cognition.run/?sona_id=57116,"en-US,en;q=0.9",f1t0nghald7y1v0,19,"[""Other""]",Yes,Female,NA,No,592320,NA,NA,NA,NA,NA,NA,NA,NA,NA,NA,NA,NA,NA,NA,NA,NA,NA,NA,NA,NA,NA,NA,NA,NA,NA,NA,NA
NA,NA,NA,NA,NA,computer_message,instructions,1,4125,0.0-1.0,312,1,2025-05-08T05:20:47Z,b60275e29fe2361ab97ac0ac217840d7,"Mozilla/5.0 (Macintosh; Intel Mac OS X 10_15_7) AppleWebKit/605.1.15 (KHTML, like Gecko) Version/18.3 Safari/605.1.15",Macintosh,Safari,18.3,OS X,10_15_7,https://5puzkbbxv1.cognition.run/?sona_id=57116,"en-US,en;q=0.9",f1t0nghald7y1v0,19,"[""Other""]",Yes,Female,NA,No,592320,"[{""page_index"":0,""viewing_time"":4029}]",4029,NA,NA,NA,NA,NA,NA,NA,NA,NA,NA,NA,NA,NA,NA,NA,NA,NA,NA,NA,NA,NA,NA,NA,NA,NA
TRUE,NA,NA,NA,NA,NA,fullscreen,2,6828,0.0-2.0,312,1,2025-05-08T05:20:47Z,b60275e29fe2361ab97ac0ac217840d7,"Mozilla/5.0 (Macintosh; Intel Mac OS X 10_15_7) AppleWebKit/605.1.15 (KHTML, like Gecko) Version/18.3 Safari/605.1.15",Macintosh,Safari,18.3,OS X,10_15_7,https://5puzkbbxv1.cognition.run/?sona_id=57116,"en-US,en;q=0.9",f1t0nghald7y1v0,19,"[""Other""]",Yes,Female,NA,No,592320,NA,1699,NA,NA,NA,NA,NA,NA,NA,NA,NA,NA,NA,NA,NA,NA,NA,NA,NA,NA,NA,NA,NA,NA,NA,NA,NA
NA,NA,NA,NA,NA,choice_instructions,instructions,3,55610,0.0-3.0,312,1,2025-05-08T05:20:47Z,b60275e29fe2361ab97ac0ac217840d7,"Mozilla/5.0 (Macintosh; Intel Mac OS X 10_15_7) AppleWebKit/605.1.15 (KHTML, like Gecko) Version/18.3 Safari/605.1.15",Macintosh,Safari,18.3,OS X,10_15_7,https://5puzkbbxv1.cognition.run/?sona_id=57116,"en-US,en;q=0.9",f1t0nghald7y1v0,19,"[""Other""]",Yes,Female,NA,No,592320,"[{""page_index"":0,""viewing_time"":3012},{""page_index"":1,""viewing_time"":3800},{""page_index"":2,""viewing_time"":5584},{""page_index"":3,""viewing_time"":6749},{""page_index"":4,""viewing_time"":2603},{""page_index"":5,""viewing_time"":20598},{""page_index"":6,""viewing_time"":6433}]",48779,NA,NA,NA,NA,NA,NA,NA,NA,NA,NA,NA,NA,NA,NA,NA,NA,NA,NA,NA,NA,NA,NA,NA,NA,NA
NA,NA,NA,NA,NA,choice_trial_setup,html-keyboard-response,4,55919,0.0-4.0-0.0,312,1,2025-05-08T05:20:47Z,b60275e29fe2361ab97ac0ac217840d7,"Mozilla/5.0 (Macintosh; Intel Mac OS X 10_15_7) AppleWebKit/605.1.15 (KHTML, like Gecko) Version/18.3 Safari/605.1.15",Macintosh,Safari,18.3,OS X,10_15_7,https://5puzkbbxv1.cognition.run/?sona_id=57116,"en-US,en;q=0.9",f1t0nghald7y1v0,19,"[""Other""]",Yes,Female,NA,No,592320,NA,null,<p></p>,null,choice,dtc,trinary,attraction,1,washing machines,null,null,null,null,null,null,1,NA,NA,NA,NA,NA,NA,NA,NA,NA,NA
NA,NA,NA,NA,NA,choice_trial,survey-html-form,5,67279,0.0-4.0-1.0,312,1,2025-05-08T05:20:47Z,b60275e29fe2361ab97ac0ac217840d7,"Mozilla/5.0 (Macintosh; Intel Mac OS X 10_15_7) AppleWebKit/605.1.15 (KHTML, like Gecko) Version/18.3 Safari/605.1.15",Macintosh,Safari,18.3,OS X,10_15_7,https://5puzkbbxv1.cognition.run/?sona_id=57116,"en-US,en;q=0.9",f1t0nghald7y1v0,19,"[""Other""]",Yes,Female,NA,No,592320,NA,11351,NA,"{""product_choice"":""B""}",choice,dtc,trinary,attraction,1,washing machines,null,null,null,null,null,null,1,60,50,60,50,60,40,Average lifespan,Energy savings,NA,NA
NA,NA,NA,NA,NA,choice_trial_setup,html-keyboard-response,6,67582,0.0-4.0-0.1,312,1,2025-05-08T05:20:47Z,b60275e29fe2361ab97ac0ac217840d7,"Mozilla/5.0 (Macintosh; Intel Mac OS X 10_15_7) AppleWebKit/605.1.15 (KHTML, like Gecko) Version/18.3 Safari/605.1.15",Macintosh,Safari,18.3,OS X,10_15_7,https://5puzkbbxv1.cognition.run/?sona_id=57116,"en-US,en;q=0.9",f1t0nghald7y1v0,19,"[""Other""]",Yes,Female,NA,No,592320,NA,null,<p></p>,null,choice,ctd,trinary,repulsion_B,2,microwave ovens,null,null,null,null,null,null,1,NA,NA,NA,NA,NA,NA,NA,NA,NA,NA
NA,NA,NA,NA,NA,choice_trial,survey-html-form,7,79797,0.0-4.0-1.1,312,1,2025-05-08T05:20:47Z,b60275e29fe2361ab97ac0ac217840d7,"Mozilla/5.0 (Macintosh; Intel Mac OS X 10_15_7) AppleWebKit/605.1.15 (KHTML, like Gecko) Version/18.3 Safari/605.1.15",Macintosh,Safari,18.3,OS X,10_15_7,https://5puzkbbxv1.cognition.run/?sona_id=57116,"en-US,en;q=0.9",f1t0nghald7y1v0,19,"[""Other""]",Yes,Female,NA,No,592320,NA,12210,NA,"{""product_choice"":""B""}",choice,ctd,trinary,repulsion_B,2,microwave ovens,null,null,null,null,null,null,1,40,30,40,90,100,80,Warranty,Cooking power,NA,NA
NA,NA,NA,NA,NA,choice_trial_setup,html-keyboard-response,8,80101,0.0-4.0-0.2,312,1,2025-05-08T05:20:47Z,b60275e29fe2361ab97ac0ac217840d7,"Mozilla/5.0 (Macintosh; Intel Mac OS X 10_15_7) AppleWebKit/605.1.15 (KHTML, like Gecko) Version/18.3 Safari/605.1.15",Macintosh,Safari,18.3,OS X,10_15_7,https://5puzkbbxv1.cognition.run/?sona_id=57116,"en-US,en;q=0.9",f1t0nghald7y1v0,19,"[""Other""]",Yes,Female,NA,No,592320,NA,null,<p></p>,null,choice,wwb,trinary,catch,null,laptops,65,60,45,35,30,5,1,NA,NA,NA,NA,NA,NA,NA,NA,NA,NA
NA,NA,NA,NA,NA,choice_trial,survey-html-form,9,92965,0.0-4.0-1.2,312,1,2025-05-08T05:20:47Z,b60275e29fe2361ab97ac0ac217840d7,"Mozilla/5.0 (Macintosh; Intel Mac OS X 10_15_7) AppleWebKit/605.1.15 (KHTML, like Gecko) Version/18.3 Safari/605.1.15",Macintosh,Safari,18.3,OS X,10_15_7,https://5puzkbbxv1.cognition.run/?sona_id=57116,"en-US,en;q=0.9",f1t0nghald7y1v0,19,"[""Other""]",Yes,Female,NA,No,592320,NA,12858,NA,"{""product_choice"":""C""}",choice,wwb,trinary,catch,null,laptops,65,60,45,35,30,5,1,null,null,null,null,null,null,Processing speed,Memory (RAM),NA,NA
NA,NA,NA,NA,NA,choice_trial_setup,html-keyboard-response,10,93270,0.0-4.0-0.3,312,1,2025-05-08T05:20:47Z,b60275e29fe2361ab97ac0ac217840d7,"Mozilla/5.0 (Macintosh; Intel Mac OS X 10_15_7) AppleWebKit/605.1.15 (KHTML, like Gecko) Version/18.3 Safari/605.1.15",Macintosh,Safari,18.3,OS X,10_15_7,https://5puzkbbxv1.cognition.run/?sona_id=57116,"en-US,en;q=0.9",f1t0nghald7y1v0,19,"[""Other""]",Yes,Female,NA,No,592320,NA,null,<p></p>,null,choice,tdc,trinary,repulsion_A,2,laptops,null,null,null,null,null,null,1,NA,NA,NA,NA,NA,NA,NA,NA,NA,NA
NA,NA,NA,NA,NA,choice_trial,survey-html-form,11,108377,0.0-4.0-1.3,312,1,2025-05-08T05:20:47Z,b60275e29fe2361ab97ac0ac217840d7,"Mozilla/5.0 (Macintosh; Intel Mac OS X 10_15_7) AppleWebKit/605.1.15 (KHTML, like Gecko) Version/18.3 Safari/605.1.15",Macintosh,Safari,18.3,OS X,10_15_7,https://5puzkbbxv1.cognition.run/?sona_id=57116,"en-US,en;q=0.9",f1t0nghald7y1v0,19,"[""Other""]",Yes,Female,NA,No,592320,NA,15103,NA,"{""product_choice"":""A""}",choice,tdc,trinary,repulsion_A,2,laptops,null,null,null,null,null,null,1,30,40,20,100,90,100,Processing speed,Memory (RAM),NA,NA
NA,NA,NA,NA,NA,choice_trial_setup,html-keyboard-response,12,108679,0.0-4.0-0.4,312,1,2025-05-08T05:20:47Z,b60275e29fe2361ab97ac0ac217840d7,"Mozilla/5.0 (Macintosh; Intel Mac OS X 10_15_7) AppleWebKit/605.1.15 (KHTML, like Gecko) Version/18.3 Safari/605.1.15",Macintosh,Safari,18.3,OS X,10_15_7,https://5puzkbbxv1.cognition.run/?sona_id=57116,"en-US,en;q=0.9",f1t0nghald7y1v0,19,"[""Other""]",Yes,Female,NA,No,592320,NA,null,<p></p>,null,choice,dct,trinary,repulsion_A,1,laptops,null,null,null,null,null,null,1,NA,NA,NA,NA,NA,NA,NA,NA,NA,NA
NA,NA,NA,NA,NA,choice_trial,survey-html-form,13,127326,0.0-4.0-1.4,312,1,2025-05-08T05:20:47Z,b60275e29fe2361ab97ac0ac217840d7,"Mozilla/5.0 (Macintosh; Intel Mac OS X 10_15_7) AppleWebKit/605.1.15 (KHTML, like Gecko) Version/18.3 Safari/605.1.15",Macintosh,Safari,18.3,OS X,10_15_7,https://5puzkbbxv1.cognition.run/?sona_id=57116,"en-US,en;q=0.9",f1t0nghald7y1v0,19,"[""Other""]",Yes,Female,NA,No,592320,NA,18644,NA,"{""product_choice"":""B""}",choice,dct,trinary,repulsion_A,1,laptops,null,null,null,null,null,null,1,100,90,100,30,40,20,Processing speed,Memory (RAM),NA,NA
NA,NA,NA,NA,NA,choice_trial_setup,html-keyboard-response,14,127628,0.0-4.0-0.5,312,1,2025-05-08T05:20:47Z,b60275e29fe2361ab97ac0ac217840d7,"Mozilla/5.0 (Macintosh; Intel Mac OS X 10_15_7) AppleWebKit/605.1.15 (KHTML, like Gecko) Version/18.3 Safari/605.1.15",Macintosh,Safari,18.3,OS X,10_15_7,https://5puzkbbxv1.cognition.run/?sona_id=57116,"en-US,en;q=0.9",f1t0nghald7y1v0,19,"[""Other""]",Yes,Female,NA,No,592320,NA,null,<p></p>,null,choice,ct,binary,repulsion,2,microwave ovens,null,null,null,null,null,null,1,NA,NA,NA,NA,NA,NA,NA,NA,NA,NA
NA,NA,NA,NA,NA,choice_trial,survey-html-form,15,147976,0.0-4.0-1.5,312,1,2025-05-08T05:20:47Z,b60275e29fe2361ab97ac0ac217840d7,"Mozilla/5.0 (Macintosh; Intel Mac OS X 10_15_7) AppleWebKit/605.1.15 (KHTML, like Gecko) Version/18.3 Safari/605.1.15",Macintosh,Safari,18.3,OS X,10_15_7,https://5puzkbbxv1.cognition.run/?sona_id=57116,"en-US,en;q=0.9",f1t0nghald7y1v0,19,"[""Other""]",Yes,Female,NA,No,592320,NA,20345,NA,"{""product_choice"":""B""}",choice,ct,binary,repulsion,2,microwave ovens,null,null,null,null,null,null,1,30,40,null,100,90,null,Warranty,Cooking power,NA,NA
NA,NA,NA,NA,NA,choice_trial_setup,html-keyboard-response,16,148279,0.0-4.0-0.6,312,1,2025-05-08T05:20:47Z,b60275e29fe2361ab97ac0ac217840d7,"Mozilla/5.0 (Macintosh; Intel Mac OS X 10_15_7) AppleWebKit/605.1.15 (KHTML, like Gecko) Version/18.3 Safari/605.1.15",Macintosh,Safari,18.3,OS X,10_15_7,https://5puzkbbxv1.cognition.run/?sona_id=57116,"en-US,en;q=0.9",f1t0nghald7y1v0,19,"[""Other""]",Yes,Female,NA,No,592320,NA,null,<p></p>,null,choice,ct,binary,attraction,NA,laptops,null,null,null,null,null,null,2,NA,NA,NA,NA,NA,NA,NA,NA,NA,NA
NA,NA,NA,NA,NA,choice_trial,survey-html-form,17,157111,0.0-4.0-1.6,312,1,2025-05-08T05:20:47Z,b60275e29fe2361ab97ac0ac217840d7,"Mozilla/5.0 (Macintosh; Intel Mac OS X 10_15_7) AppleWebKit/605.1.15 (KHTML, like Gecko) Version/18.3 Safari/605.1.15",Macintosh,Safari,18.3,OS X,10_15_7,https://5puzkbbxv1.cognition.run/?sona_id=57116,"en-US,en;q=0.9",f1t0nghald7y1v0,19,"[""Other""]",Yes,Female,NA,No,592320,NA,8830,NA,"{""product_choice"":""B""}",choice,ct,binary,attraction,NA,laptops,null,null,null,null,null,null,2,60,50,null,50,60,null,Processing speed,Memory (RAM),NA,NA
NA,NA,NA,NA,NA,choice_trial_setup,html-keyboard-response,18,157413,0.0-4.0-0.7,312,1,2025-05-08T05:20:47Z,b60275e29fe2361ab97ac0ac217840d7,"Mozilla/5.0 (Macintosh; Intel Mac OS X 10_15_7) AppleWebKit/605.1.15 (KHTML, like Gecko) Version/18.3 Safari/605.1.15",Macintosh,Safari,18.3,OS X,10_15_7,https://5puzkbbxv1.cognition.run/?sona_id=57116,"en-US,en;q=0.9",f1t0nghald7y1v0,19,"[""Other""]",Yes,Female,NA,No,592320,NA,null,<p></p>,null,choice,dct,trinary,repulsion_B,1,laptops,null,null,null,null,null,null,2,NA,NA,NA,NA,NA,NA,NA,NA,NA,NA
NA,NA,NA,NA,NA,choice_trial,survey-html-form,19,162359,0.0-4.0-1.7,312,1,2025-05-08T05:20:47Z,b60275e29fe2361ab97ac0ac217840d7,"Mozilla/5.0 (Macintosh; Intel Mac OS X 10_15_7) AppleWebKit/605.1.15 (KHTML, like Gecko) Version/18.3 Safari/605.1.15",Macintosh,Safari,18.3,OS X,10_15_7,https://5puzkbbxv1.cognition.run/?sona_id=57116,"en-US,en;q=0.9",f1t0nghald7y1v0,19,"[""Other""]",Yes,Female,NA,No,592320,NA,4942,NA,"{""product_choice"":""B""}",choice,dct,trinary,repulsion_B,1,laptops,null,null,null,null,null,null,2,90,100,80,40,30,40,Processing speed,Memory (RAM),NA,NA
NA,NA,NA,NA,NA,choice_trial_setup,html-keyboard-response,20,162661,0.0-4.0-0.8,312,1,2025-05-08T05:20:47Z,b60275e29fe2361ab97ac0ac217840d7,"Mozilla/5.0 (Macintosh; Intel Mac OS X 10_15_7) AppleWebKit/605.1.15 (KHTML, like Gecko) Version/18.3 Safari/605.1.15",Macintosh,Safari,18.3,OS X,10_15_7,https://5puzkbbxv1.cognition.run/?sona_id=57116,"en-US,en;q=0.9",f1t0nghald7y1v0,19,"[""Other""]",Yes,Female,NA,No,592320,NA,null,<p></p>,null,choice,cdt,trinary,attraction,2,televisions,null,null,null,null,null,null,2,NA,NA,NA,NA,NA,NA,NA,NA,NA,NA
NA,NA,NA,NA,NA,choice_trial,survey-html-form,21,173978,0.0-4.0-1.8,312,1,2025-05-08T05:20:47Z,b60275e29fe2361ab97ac0ac217840d7,"Mozilla/5.0 (Macintosh; Intel Mac OS X 10_15_7) AppleWebKit/605.1.15 (KHTML, like Gecko) Version/18.3 Safari/605.1.15",Macintosh,Safari,18.3,OS X,10_15_7,https://5puzkbbxv1.cognition.run/?sona_id=57116,"en-US,en;q=0.9",f1t0nghald7y1v0,19,"[""Other""]",Yes,Female,NA,No,592320,NA,11313,NA,"{""product_choice"":""C""}",choice,cdt,trinary,attraction,2,televisions,null,null,null,null,null,null,2,50,60,40,60,50,60,Screen size,Average lifespan,NA,NA
NA,NA,NA,NA,NA,choice_trial_setup,html-keyboard-response,22,174280,0.0-4.0-0.9,312,1,2025-05-08T05:20:47Z,b60275e29fe2361ab97ac0ac217840d7,"Mozilla/5.0 (Macintosh; Intel Mac OS X 10_15_7) AppleWebKit/605.1.15 (KHTML, like Gecko) Version/18.3 Safari/605.1.15",Macintosh,Safari,18.3,OS X,10_15_7,https://5puzkbbxv1.cognition.run/?sona_id=57116,"en-US,en;q=0.9",f1t0nghald7y1v0,19,"[""Other""]",Yes,Female,NA,No,592320,NA,null,<p></p>,null,choice,ct,binary,repulsion,1,microwave ovens,null,null,null,null,null,null,1,NA,NA,NA,NA,NA,NA,NA,NA,NA,NA
NA,NA,NA,NA,NA,choice_trial,survey-html-form,23,187361,0.0-4.0-1.9,312,1,2025-05-08T05:20:47Z,b60275e29fe2361ab97ac0ac217840d7,"Mozilla/5.0 (Macintosh; Intel Mac OS X 10_15_7) AppleWebKit/605.1.15 (KHTML, like Gecko) Version/18.3 Safari/605.1.15",Macintosh,Safari,18.3,OS X,10_15_7,https://5puzkbbxv1.cognition.run/?sona_id=57116,"en-US,en;q=0.9",f1t0nghald7y1v0,19,"[""Other""]",Yes,Female,NA,No,592320,NA,13078,NA,"{""product_choice"":""A""}",choice,ct,binary,repulsion,1,microwave ovens,null,null,null,null,null,null,1,100,90,null,30,40,null,Warranty,Cooking power,NA,NA
NA,NA,NA,NA,NA,choice_trial_setup,html-keyboard-response,24,187664,0.0-4.0-0.10,312,1,2025-05-08T05:20:47Z,b60275e29fe2361ab97ac0ac217840d7,"Mozilla/5.0 (Macintosh; Intel Mac OS X 10_15_7) AppleWebKit/605.1.15 (KHTML, like Gecko) Version/18.3 Safari/605.1.15",Macintosh,Safari,18.3,OS X,10_15_7,https://5puzkbbxv1.cognition.run/?sona_id=57116,"en-US,en;q=0.9",f1t0nghald7y1v0,19,"[""Other""]",Yes,Female,NA,No,592320,NA,null,<p></p>,null,choice,ct,binary,repulsion,1,washing machines,null,null,null,null,null,null,1,NA,NA,NA,NA,NA,NA,NA,NA,NA,NA
NA,NA,NA,NA,NA,choice_trial,survey-html-form,25,196345,0.0-4.0-1.10,312,1,2025-05-08T05:20:47Z,b60275e29fe2361ab97ac0ac217840d7,"Mozilla/5.0 (Macintosh; Intel Mac OS X 10_15_7) AppleWebKit/605.1.15 (KHTML, like Gecko) Version/18.3 Safari/605.1.15",Macintosh,Safari,18.3,OS X,10_15_7,https://5puzkbbxv1.cognition.run/?sona_id=57116,"en-US,en;q=0.9",f1t0nghald7y1v0,19,"[""Other""]",Yes,Female,NA,No,592320,NA,8678,NA,"{""product_choice"":""B""}",choice,ct,binary,repulsion,1,washing machines,null,null,null,null,null,null,1,100,90,null,30,40,null,Average lifespan,Energy savings,NA,NA
NA,NA,NA,NA,NA,choice_trial_setup,html-keyboard-response,26,196649,0.0-4.0-0.11,312,1,2025-05-08T05:20:47Z,b60275e29fe2361ab97ac0ac217840d7,"Mozilla/5.0 (Macintosh; Intel Mac OS X 10_15_7) AppleWebKit/605.1.15 (KHTML, like Gecko) Version/18.3 Safari/605.1.15",Macintosh,Safari,18.3,OS X,10_15_7,https://5puzkbbxv1.cognition.run/?sona_id=57116,"en-US,en;q=0.9",f1t0nghald7y1v0,19,"[""Other""]",Yes,Female,NA,No,592320,NA,null,<p></p>,null,choice,dtc,trinary,attraction,1,laptops,null,null,null,null,null,null,1,NA,NA,NA,NA,NA,NA,NA,NA,NA,NA
NA,NA,NA,NA,NA,choice_trial,survey-html-form,27,209428,0.0-4.0-1.11,312,1,2025-05-08T05:20:47Z,b60275e29fe2361ab97ac0ac217840d7,"Mozilla/5.0 (Macintosh; Intel Mac OS X 10_15_7) AppleWebKit/605.1.15 (KHTML, like Gecko) Version/18.3 Safari/605.1.15",Macintosh,Safari,18.3,OS X,10_15_7,https://5puzkbbxv1.cognition.run/?sona_id=57116,"en-US,en;q=0.9",f1t0nghald7y1v0,19,"[""Other""]",Yes,Female,NA,No,592320,NA,12775,NA,"{""product_choice"":""B""}",choice,dtc,trinary,attraction,1,laptops,null,null,null,null,null,null,1,60,50,60,50,60,40,Processing speed,Memory (RAM),NA,NA
NA,NA,NA,NA,NA,choice_trial_setup,html-keyboard-response,28,209730,0.0-4.0-0.12,312,1,2025-05-08T05:20:47Z,b60275e29fe2361ab97ac0ac217840d7,"Mozilla/5.0 (Macintosh; Intel Mac OS X 10_15_7) AppleWebKit/605.1.15 (KHTML, like Gecko) Version/18.3 Safari/605.1.15",Macintosh,Safari,18.3,OS X,10_15_7,https://5puzkbbxv1.cognition.run/?sona_id=57116,"en-US,en;q=0.9",f1t0nghald7y1v0,19,"[""Other""]",Yes,Female,NA,No,592320,NA,null,<p></p>,null,choice,ct,binary,repulsion,2,washing machines,null,null,null,null,null,null,2,NA,NA,NA,NA,NA,NA,NA,NA,NA,NA
NA,NA,NA,NA,NA,choice_trial,survey-html-form,29,215278,0.0-4.0-1.12,312,1,2025-05-08T05:20:47Z,b60275e29fe2361ab97ac0ac217840d7,"Mozilla/5.0 (Macintosh; Intel Mac OS X 10_15_7) AppleWebKit/605.1.15 (KHTML, like Gecko) Version/18.3 Safari/605.1.15",Macintosh,Safari,18.3,OS X,10_15_7,https://5puzkbbxv1.cognition.run/?sona_id=57116,"en-US,en;q=0.9",f1t0nghald7y1v0,19,"[""Other""]",Yes,Female,NA,No,592320,NA,5544,NA,"{""product_choice"":""A""}",choice,ct,binary,repulsion,2,washing machines,null,null,null,null,null,null,2,30,40,null,100,90,null,Average lifespan,Energy savings,NA,NA
NA,NA,NA,NA,NA,choice_trial_setup,html-keyboard-response,30,215581,0.0-4.0-0.13,312,1,2025-05-08T05:20:47Z,b60275e29fe2361ab97ac0ac217840d7,"Mozilla/5.0 (Macintosh; Intel Mac OS X 10_15_7) AppleWebKit/605.1.15 (KHTML, like Gecko) Version/18.3 Safari/605.1.15",Macintosh,Safari,18.3,OS X,10_15_7,https://5puzkbbxv1.cognition.run/?sona_id=57116,"en-US,en;q=0.9",f1t0nghald7y1v0,19,"[""Other""]",Yes,Female,NA,No,592320,NA,null,<p></p>,null,choice,wb,binary,catch,null,microwave ovens,85,65,35,40,null,null,2,NA,NA,NA,NA,NA,NA,NA,NA,NA,NA
NA,NA,NA,NA,NA,choice_trial,survey-html-form,31,223028,0.0-4.0-1.13,312,1,2025-05-08T05:20:47Z,b60275e29fe2361ab97ac0ac217840d7,"Mozilla/5.0 (Macintosh; Intel Mac OS X 10_15_7) AppleWebKit/605.1.15 (KHTML, like Gecko) Version/18.3 Safari/605.1.15",Macintosh,Safari,18.3,OS X,10_15_7,https://5puzkbbxv1.cognition.run/?sona_id=57116,"en-US,en;q=0.9",f1t0nghald7y1v0,19,"[""Other""]",Yes,Female,NA,No,592320,NA,7444,NA,"{""product_choice"":""B""}",choice,wb,binary,catch,null,microwave ovens,85,65,35,40,null,null,2,null,null,null,null,null,null,Warranty,Cooking power,NA,NA
NA,NA,NA,NA,NA,choice_trial_setup,html-keyboard-response,32,223330,0.0-4.0-0.14,312,1,2025-05-08T05:20:47Z,b60275e29fe2361ab97ac0ac217840d7,"Mozilla/5.0 (Macintosh; Intel Mac OS X 10_15_7) AppleWebKit/605.1.15 (KHTML, like Gecko) Version/18.3 Safari/605.1.15",Macintosh,Safari,18.3,OS X,10_15_7,https://5puzkbbxv1.cognition.run/?sona_id=57116,"en-US,en;q=0.9",f1t0nghald7y1v0,19,"[""Other""]",Yes,Female,NA,No,592320,NA,null,<p></p>,null,choice,bw,binary,catch,null,washing machines,95,80,15,15,null,null,2,NA,NA,NA,NA,NA,NA,NA,NA,NA,NA
NA,NA,NA,NA,NA,choice_trial,survey-html-form,33,227511,0.0-4.0-1.14,312,1,2025-05-08T05:20:47Z,b60275e29fe2361ab97ac0ac217840d7,"Mozilla/5.0 (Macintosh; Intel Mac OS X 10_15_7) AppleWebKit/605.1.15 (KHTML, like Gecko) Version/18.3 Safari/605.1.15",Macintosh,Safari,18.3,OS X,10_15_7,https://5puzkbbxv1.cognition.run/?sona_id=57116,"en-US,en;q=0.9",f1t0nghald7y1v0,19,"[""Other""]",Yes,Female,NA,No,592320,NA,4177,NA,"{""product_choice"":""A""}",choice,bw,binary,catch,null,washing machines,95,80,15,15,null,null,2,null,null,null,null,null,null,Average lifespan,Energy savings,NA,NA
NA,NA,NA,NA,NA,choice_trial_setup,html-keyboard-response,34,227814,0.0-4.0-0.15,312,1,2025-05-08T05:20:47Z,b60275e29fe2361ab97ac0ac217840d7,"Mozilla/5.0 (Macintosh; Intel Mac OS X 10_15_7) AppleWebKit/605.1.15 (KHTML, like Gecko) Version/18.3 Safari/605.1.15",Macintosh,Safari,18.3,OS X,10_15_7,https://5puzkbbxv1.cognition.run/?sona_id=57116,"en-US,en;q=0.9",f1t0nghald7y1v0,19,"[""Other""]",Yes,Female,NA,No,592320,NA,null,<p></p>,null,choice,dtc,trinary,repulsion_A,2,washing machines,null,null,null,null,null,null,1,NA,NA,NA,NA,NA,NA,NA,NA,NA,NA
NA,NA,NA,NA,NA,choice_trial,survey-html-form,35,235212,0.0-4.0-1.15,312,1,2025-05-08T05:20:47Z,b60275e29fe2361ab97ac0ac217840d7,"Mozilla/5.0 (Macintosh; Intel Mac OS X 10_15_7) AppleWebKit/605.1.15 (KHTML, like Gecko) Version/18.3 Safari/605.1.15",Macintosh,Safari,18.3,OS X,10_15_7,https://5puzkbbxv1.cognition.run/?sona_id=57116,"en-US,en;q=0.9",f1t0nghald7y1v0,19,"[""Other""]",Yes,Female,NA,No,592320,NA,7394,NA,"{""product_choice"":""B""}",choice,dtc,trinary,repulsion_A,2,washing machines,null,null,null,null,null,null,1,30,40,20,100,90,100,Average lifespan,Energy savings,NA,NA
NA,NA,NA,NA,NA,choice_trial_setup,html-keyboard-response,36,235515,0.0-4.0-0.16,312,1,2025-05-08T05:20:47Z,b60275e29fe2361ab97ac0ac217840d7,"Mozilla/5.0 (Macintosh; Intel Mac OS X 10_15_7) AppleWebKit/605.1.15 (KHTML, like Gecko) Version/18.3 Safari/605.1.15",Macintosh,Safari,18.3,OS X,10_15_7,https://5puzkbbxv1.cognition.run/?sona_id=57116,"en-US,en;q=0.9",f1t0nghald7y1v0,19,"[""Other""]",Yes,Female,NA,No,592320,NA,null,<p></p>,null,choice,wwb,trinary,catch,null,microwave ovens,65,80,30,25,5,50,1,NA,NA,NA,NA,NA,NA,NA,NA,NA,NA
NA,NA,NA,NA,NA,choice_trial,survey-html-form,37,248128,0.0-4.0-1.16,312,1,2025-05-08T05:20:47Z,b60275e29fe2361ab97ac0ac217840d7,"Mozilla/5.0 (Macintosh; Intel Mac OS X 10_15_7) AppleWebKit/605.1.15 (KHTML, like Gecko) Version/18.3 Safari/605.1.15",Macintosh,Safari,18.3,OS X,10_15_7,https://5puzkbbxv1.cognition.run/?sona_id=57116,"en-US,en;q=0.9",f1t0nghald7y1v0,19,"[""Other""]",Yes,Female,NA,No,592320,NA,12609,NA,"{""product_choice"":""C""}",choice,wwb,trinary,catch,null,microwave ovens,65,80,30,25,5,50,1,null,null,null,null,null,null,Warranty,Cooking power,NA,NA
NA,NA,NA,NA,NA,choice_trial_setup,html-keyboard-response,38,248431,0.0-4.0-0.17,312,1,2025-05-08T05:20:47Z,b60275e29fe2361ab97ac0ac217840d7,"Mozilla/5.0 (Macintosh; Intel Mac OS X 10_15_7) AppleWebKit/605.1.15 (KHTML, like Gecko) Version/18.3 Safari/605.1.15",Macintosh,Safari,18.3,OS X,10_15_7,https://5puzkbbxv1.cognition.run/?sona_id=57116,"en-US,en;q=0.9",f1t0nghald7y1v0,19,"[""Other""]",Yes,Female,NA,No,592320,NA,null,<p></p>,null,choice,ct,binary,repulsion,2,televisions,null,null,null,null,null,null,2,NA,NA,NA,NA,NA,NA,NA,NA,NA,NA
NA,NA,NA,NA,NA,choice_trial,survey-html-form,39,259778,0.0-4.0-1.17,312,1,2025-05-08T05:20:47Z,b60275e29fe2361ab97ac0ac217840d7,"Mozilla/5.0 (Macintosh; Intel Mac OS X 10_15_7) AppleWebKit/605.1.15 (KHTML, like Gecko) Version/18.3 Safari/605.1.15",Macintosh,Safari,18.3,OS X,10_15_7,https://5puzkbbxv1.cognition.run/?sona_id=57116,"en-US,en;q=0.9",f1t0nghald7y1v0,19,"[""Other""]",Yes,Female,NA,No,592320,NA,11343,NA,"{""product_choice"":""B""}",choice,ct,binary,repulsion,2,televisions,null,null,null,null,null,null,2,30,40,null,100,90,null,Screen size,Average lifespan,NA,NA
NA,NA,NA,NA,NA,choice_trial_setup,html-keyboard-response,40,260081,0.0-4.0-0.18,312,1,2025-05-08T05:20:47Z,b60275e29fe2361ab97ac0ac217840d7,"Mozilla/5.0 (Macintosh; Intel Mac OS X 10_15_7) AppleWebKit/605.1.15 (KHTML, like Gecko) Version/18.3 Safari/605.1.15",Macintosh,Safari,18.3,OS X,10_15_7,https://5puzkbbxv1.cognition.run/?sona_id=57116,"en-US,en;q=0.9",f1t0nghald7y1v0,19,"[""Other""]",Yes,Female,NA,No,592320,NA,null,<p></p>,null,choice,bw,binary,catch,null,televisions,80,80,45,30,null,null,2,NA,NA,NA,NA,NA,NA,NA,NA,NA,NA
NA,NA,NA,NA,NA,choice_trial,survey-html-form,41,266329,0.0-4.0-1.18,312,1,2025-05-08T05:20:47Z,b60275e29fe2361ab97ac0ac217840d7,"Mozilla/5.0 (Macintosh; Intel Mac OS X 10_15_7) AppleWebKit/605.1.15 (KHTML, like Gecko) Version/18.3 Safari/605.1.15",Macintosh,Safari,18.3,OS X,10_15_7,https://5puzkbbxv1.cognition.run/?sona_id=57116,"en-US,en;q=0.9",f1t0nghald7y1v0,19,"[""Other""]",Yes,Female,NA,No,592320,NA,6244,NA,"{""product_choice"":""A""}",choice,bw,binary,catch,null,televisions,80,80,45,30,null,null,2,null,null,null,null,null,null,Screen size,Average lifespan,NA,NA
NA,NA,NA,NA,NA,choice_trial_setup,html-keyboard-response,42,266632,0.0-4.0-0.19,312,1,2025-05-08T05:20:47Z,b60275e29fe2361ab97ac0ac217840d7,"Mozilla/5.0 (Macintosh; Intel Mac OS X 10_15_7) AppleWebKit/605.1.15 (KHTML, like Gecko) Version/18.3 Safari/605.1.15",Macintosh,Safari,18.3,OS X,10_15_7,https://5puzkbbxv1.cognition.run/?sona_id=57116,"en-US,en;q=0.9",f1t0nghald7y1v0,19,"[""Other""]",Yes,Female,NA,No,592320,NA,null,<p></p>,null,choice,tc,binary,attraction,NA,televisions,null,null,null,null,null,null,2,NA,NA,NA,NA,NA,NA,NA,NA,NA,NA
NA,NA,NA,NA,NA,choice_trial,survey-html-form,43,274026,0.0-4.0-1.19,312,1,2025-05-08T05:20:47Z,b60275e29fe2361ab97ac0ac217840d7,"Mozilla/5.0 (Macintosh; Intel Mac OS X 10_15_7) AppleWebKit/605.1.15 (KHTML, like Gecko) Version/18.3 Safari/605.1.15",Macintosh,Safari,18.3,OS X,10_15_7,https://5puzkbbxv1.cognition.run/?sona_id=57116,"en-US,en;q=0.9",f1t0nghald7y1v0,19,"[""Other""]",Yes,Female,NA,No,592320,NA,7391,NA,"{""product_choice"":""B""}",choice,tc,binary,attraction,NA,televisions,null,null,null,null,null,null,2,60,50,null,50,60,null,Screen size,Average lifespan,NA,NA
NA,NA,NA,NA,NA,choice_trial_setup,html-keyboard-response,44,274329,0.0-4.0-0.20,312,1,2025-05-08T05:20:47Z,b60275e29fe2361ab97ac0ac217840d7,"Mozilla/5.0 (Macintosh; Intel Mac OS X 10_15_7) AppleWebKit/605.1.15 (KHTML, like Gecko) Version/18.3 Safari/605.1.15",Macintosh,Safari,18.3,OS X,10_15_7,https://5puzkbbxv1.cognition.run/?sona_id=57116,"en-US,en;q=0.9",f1t0nghald7y1v0,19,"[""Other""]",Yes,Female,NA,No,592320,NA,null,<p></p>,null,choice,tc,binary,attraction,NA,microwave ovens,null,null,null,null,null,null,2,NA,NA,NA,NA,NA,NA,NA,NA,NA,NA
NA,NA,NA,NA,NA,choice_trial,survey-html-form,45,284311,0.0-4.0-1.20,312,1,2025-05-08T05:20:47Z,b60275e29fe2361ab97ac0ac217840d7,"Mozilla/5.0 (Macintosh; Intel Mac OS X 10_15_7) AppleWebKit/605.1.15 (KHTML, like Gecko) Version/18.3 Safari/605.1.15",Macintosh,Safari,18.3,OS X,10_15_7,https://5puzkbbxv1.cognition.run/?sona_id=57116,"en-US,en;q=0.9",f1t0nghald7y1v0,19,"[""Other""]",Yes,Female,NA,No,592320,NA,9979,NA,"{""product_choice"":""B""}",choice,tc,binary,attraction,NA,microwave ovens,null,null,null,null,null,null,2,60,50,null,50,60,null,Warranty,Cooking power,NA,NA
NA,NA,NA,NA,NA,choice_trial_setup,html-keyboard-response,46,284614,0.0-4.0-0.21,312,1,2025-05-08T05:20:47Z,b60275e29fe2361ab97ac0ac217840d7,"Mozilla/5.0 (Macintosh; Intel Mac OS X 10_15_7) AppleWebKit/605.1.15 (KHTML, like Gecko) Version/18.3 Safari/605.1.15",Macintosh,Safari,18.3,OS X,10_15_7,https://5puzkbbxv1.cognition.run/?sona_id=57116,"en-US,en;q=0.9",f1t0nghald7y1v0,19,"[""Other""]",Yes,Female,NA,No,592320,NA,null,<p></p>,null,choice,ctd,trinary,attraction,1,microwave ovens,null,null,null,null,null,null,2,NA,NA,NA,NA,NA,NA,NA,NA,NA,NA
NA,NA,NA,NA,NA,choice_trial,survey-html-form,47,311479,0.0-4.0-1.21,312,1,2025-05-08T05:20:47Z,b60275e29fe2361ab97ac0ac217840d7,"Mozilla/5.0 (Macintosh; Intel Mac OS X 10_15_7) AppleWebKit/605.1.15 (KHTML, like Gecko) Version/18.3 Safari/605.1.15",Macintosh,Safari,18.3,OS X,10_15_7,https://5puzkbbxv1.cognition.run/?sona_id=57116,"en-US,en;q=0.9",f1t0nghald7y1v0,19,"[""Other""]",Yes,Female,NA,No,592320,NA,26861,NA,"{""product_choice"":""A""}",choice,ctd,trinary,attraction,1,microwave ovens,null,null,null,null,null,null,2,60,50,60,50,60,40,Warranty,Cooking power,NA,NA
NA,NA,NA,NA,NA,choice_trial_setup,html-keyboard-response,48,311781,0.0-4.0-0.22,312,1,2025-05-08T05:20:47Z,b60275e29fe2361ab97ac0ac217840d7,"Mozilla/5.0 (Macintosh; Intel Mac OS X 10_15_7) AppleWebKit/605.1.15 (KHTML, like Gecko) Version/18.3 Safari/605.1.15",Macintosh,Safari,18.3,OS X,10_15_7,https://5puzkbbxv1.cognition.run/?sona_id=57116,"en-US,en;q=0.9",f1t0nghald7y1v0,19,"[""Other""]",Yes,Female,NA,No,592320,NA,null,<p></p>,null,choice,dct,trinary,repulsion_B,2,washing machines,null,null,null,null,null,null,2,NA,NA,NA,NA,NA,NA,NA,NA,NA,NA
NA,NA,NA,NA,NA,choice_trial,survey-html-form,49,320112,0.0-4.0-1.22,312,1,2025-05-08T05:20:47Z,b60275e29fe2361ab97ac0ac217840d7,"Mozilla/5.0 (Macintosh; Intel Mac OS X 10_15_7) AppleWebKit/605.1.15 (KHTML, like Gecko) Version/18.3 Safari/605.1.15",Macintosh,Safari,18.3,OS X,10_15_7,https://5puzkbbxv1.cognition.run/?sona_id=57116,"en-US,en;q=0.9",f1t0nghald7y1v0,19,"[""Other""]",Yes,Female,NA,No,592320,NA,8326,NA,"{""product_choice"":""C""}",choice,dct,trinary,repulsion_B,2,washing machines,null,null,null,null,null,null,2,40,30,40,90,100,80,Average lifespan,Energy savings,NA,NA
NA,NA,NA,NA,NA,choice_trial_setup,html-keyboard-response,50,320415,0.0-4.0-0.23,312,1,2025-05-08T05:20:47Z,b60275e29fe2361ab97ac0ac217840d7,"Mozilla/5.0 (Macintosh; Intel Mac OS X 10_15_7) AppleWebKit/605.1.15 (KHTML, like Gecko) Version/18.3 Safari/605.1.15",Macintosh,Safari,18.3,OS X,10_15_7,https://5puzkbbxv1.cognition.run/?sona_id=57116,"en-US,en;q=0.9",f1t0nghald7y1v0,19,"[""Other""]",Yes,Female,NA,No,592320,NA,null,<p></p>,null,choice,bww,trinary,catch,null,televisions,90,75,20,25,10,35,2,NA,NA,NA,NA,NA,NA,NA,NA,NA,NA
NA,NA,NA,NA,NA,choice_trial,survey-html-form,51,325295,0.0-4.0-1.23,312,1,2025-05-08T05:20:47Z,b60275e29fe2361ab97ac0ac217840d7,"Mozilla/5.0 (Macintosh; Intel Mac OS X 10_15_7) AppleWebKit/605.1.15 (KHTML, like Gecko) Version/18.3 Safari/605.1.15",Macintosh,Safari,18.3,OS X,10_15_7,https://5puzkbbxv1.cognition.run/?sona_id=57116,"en-US,en;q=0.9",f1t0nghald7y1v0,19,"[""Other""]",Yes,Female,NA,No,592320,NA,4876,NA,"{""product_choice"":""A""}",choice,bww,trinary,catch,null,televisions,90,75,20,25,10,35,2,null,null,null,null,null,null,Screen size,Average lifespan,NA,NA
NA,NA,NA,NA,NA,choice_trial_setup,html-keyboard-response,52,325598,0.0-4.0-0.24,312,1,2025-05-08T05:20:47Z,b60275e29fe2361ab97ac0ac217840d7,"Mozilla/5.0 (Macintosh; Intel Mac OS X 10_15_7) AppleWebKit/605.1.15 (KHTML, like Gecko) Version/18.3 Safari/605.1.15",Macintosh,Safari,18.3,OS X,10_15_7,https://5puzkbbxv1.cognition.run/?sona_id=57116,"en-US,en;q=0.9",f1t0nghald7y1v0,19,"[""Other""]",Yes,Female,NA,No,592320,NA,null,<p></p>,null,choice,ct,binary,repulsion,1,laptops,null,null,null,null,null,null,2,NA,NA,NA,NA,NA,NA,NA,NA,NA,NA
NA,NA,NA,NA,NA,choice_trial,survey-html-form,53,334880,0.0-4.0-1.24,312,1,2025-05-08T05:20:47Z,b60275e29fe2361ab97ac0ac217840d7,"Mozilla/5.0 (Macintosh; Intel Mac OS X 10_15_7) AppleWebKit/605.1.15 (KHTML, like Gecko) Version/18.3 Safari/605.1.15",Macintosh,Safari,18.3,OS X,10_15_7,https://5puzkbbxv1.cognition.run/?sona_id=57116,"en-US,en;q=0.9",f1t0nghald7y1v0,19,"[""Other""]",Yes,Female,NA,No,592320,NA,9277,NA,"{""product_choice"":""B""}",choice,ct,binary,repulsion,1,laptops,null,null,null,null,null,null,2,100,90,null,30,40,null,Processing speed,Memory (RAM),NA,NA
NA,NA,NA,NA,NA,choice_trial_setup,html-keyboard-response,54,335184,0.0-4.0-0.25,312,1,2025-05-08T05:20:47Z,b60275e29fe2361ab97ac0ac217840d7,"Mozilla/5.0 (Macintosh; Intel Mac OS X 10_15_7) AppleWebKit/605.1.15 (KHTML, like Gecko) Version/18.3 Safari/605.1.15",Macintosh,Safari,18.3,OS X,10_15_7,https://5puzkbbxv1.cognition.run/?sona_id=57116,"en-US,en;q=0.9",f1t0nghald7y1v0,19,"[""Other""]",Yes,Female,NA,No,592320,NA,null,<p></p>,null,choice,tdc,trinary,repulsion_A,2,televisions,null,null,null,null,null,null,2,NA,NA,NA,NA,NA,NA,NA,NA,NA,NA
NA,NA,NA,NA,NA,choice_trial,survey-html-form,55,340795,0.0-4.0-1.25,312,1,2025-05-08T05:20:47Z,b60275e29fe2361ab97ac0ac217840d7,"Mozilla/5.0 (Macintosh; Intel Mac OS X 10_15_7) AppleWebKit/605.1.15 (KHTML, like Gecko) Version/18.3 Safari/605.1.15",Macintosh,Safari,18.3,OS X,10_15_7,https://5puzkbbxv1.cognition.run/?sona_id=57116,"en-US,en;q=0.9",f1t0nghald7y1v0,19,"[""Other""]",Yes,Female,NA,No,592320,NA,5606,NA,"{""product_choice"":""A""}",choice,tdc,trinary,repulsion_A,2,televisions,null,null,null,null,null,null,2,30,40,20,100,90,100,Screen size,Average lifespan,NA,NA
NA,NA,NA,NA,NA,choice_trial_setup,html-keyboard-response,56,341099,0.0-4.0-0.26,312,1,2025-05-08T05:20:47Z,b60275e29fe2361ab97ac0ac217840d7,"Mozilla/5.0 (Macintosh; Intel Mac OS X 10_15_7) AppleWebKit/605.1.15 (KHTML, like Gecko) Version/18.3 Safari/605.1.15",Macintosh,Safari,18.3,OS X,10_15_7,https://5puzkbbxv1.cognition.run/?sona_id=57116,"en-US,en;q=0.9",f1t0nghald7y1v0,19,"[""Other""]",Yes,Female,NA,No,592320,NA,null,<p></p>,null,choice,ctd,trinary,repulsion_B,2,laptops,null,null,null,null,null,null,2,NA,NA,NA,NA,NA,NA,NA,NA,NA,NA
NA,NA,NA,NA,NA,choice_trial,survey-html-form,57,347346,0.0-4.0-1.26,312,1,2025-05-08T05:20:47Z,b60275e29fe2361ab97ac0ac217840d7,"Mozilla/5.0 (Macintosh; Intel Mac OS X 10_15_7) AppleWebKit/605.1.15 (KHTML, like Gecko) Version/18.3 Safari/605.1.15",Macintosh,Safari,18.3,OS X,10_15_7,https://5puzkbbxv1.cognition.run/?sona_id=57116,"en-US,en;q=0.9",f1t0nghald7y1v0,19,"[""Other""]",Yes,Female,NA,No,592320,NA,6243,NA,"{""product_choice"":""B""}",choice,ctd,trinary,repulsion_B,2,laptops,null,null,null,null,null,null,2,40,30,40,90,100,80,Processing speed,Memory (RAM),NA,NA
NA,NA,NA,NA,NA,choice_trial_setup,html-keyboard-response,58,347649,0.0-4.0-0.27,312,1,2025-05-08T05:20:47Z,b60275e29fe2361ab97ac0ac217840d7,"Mozilla/5.0 (Macintosh; Intel Mac OS X 10_15_7) AppleWebKit/605.1.15 (KHTML, like Gecko) Version/18.3 Safari/605.1.15",Macintosh,Safari,18.3,OS X,10_15_7,https://5puzkbbxv1.cognition.run/?sona_id=57116,"en-US,en;q=0.9",f1t0nghald7y1v0,19,"[""Other""]",Yes,Female,NA,No,592320,NA,null,<p></p>,null,choice,ctd,trinary,repulsion_A,1,microwave ovens,null,null,null,null,null,null,1,NA,NA,NA,NA,NA,NA,NA,NA,NA,NA
NA,NA,NA,NA,NA,choice_trial,survey-html-form,59,358994,0.0-4.0-1.27,312,1,2025-05-08T05:20:47Z,b60275e29fe2361ab97ac0ac217840d7,"Mozilla/5.0 (Macintosh; Intel Mac OS X 10_15_7) AppleWebKit/605.1.15 (KHTML, like Gecko) Version/18.3 Safari/605.1.15",Macintosh,Safari,18.3,OS X,10_15_7,https://5puzkbbxv1.cognition.run/?sona_id=57116,"en-US,en;q=0.9",f1t0nghald7y1v0,19,"[""Other""]",Yes,Female,NA,No,592320,NA,11341,NA,"{""product_choice"":""B""}",choice,ctd,trinary,repulsion_A,1,microwave ovens,null,null,null,null,null,null,1,100,90,100,30,40,20,Warranty,Cooking power,NA,NA
NA,NA,NA,NA,NA,choice_trial_setup,html-keyboard-response,60,359296,0.0-4.0-0.28,312,1,2025-05-08T05:20:47Z,b60275e29fe2361ab97ac0ac217840d7,"Mozilla/5.0 (Macintosh; Intel Mac OS X 10_15_7) AppleWebKit/605.1.15 (KHTML, like Gecko) Version/18.3 Safari/605.1.15",Macintosh,Safari,18.3,OS X,10_15_7,https://5puzkbbxv1.cognition.run/?sona_id=57116,"en-US,en;q=0.9",f1t0nghald7y1v0,19,"[""Other""]",Yes,Female,NA,No,592320,NA,null,<p></p>,null,choice,dtc,trinary,attraction,2,washing machines,null,null,null,null,null,null,1,NA,NA,NA,NA,NA,NA,NA,NA,NA,NA
NA,NA,NA,NA,NA,choice_trial,survey-html-form,61,364513,0.0-4.0-1.28,312,1,2025-05-08T05:20:47Z,b60275e29fe2361ab97ac0ac217840d7,"Mozilla/5.0 (Macintosh; Intel Mac OS X 10_15_7) AppleWebKit/605.1.15 (KHTML, like Gecko) Version/18.3 Safari/605.1.15",Macintosh,Safari,18.3,OS X,10_15_7,https://5puzkbbxv1.cognition.run/?sona_id=57116,"en-US,en;q=0.9",f1t0nghald7y1v0,19,"[""Other""]",Yes,Female,NA,No,592320,NA,5212,NA,"{""product_choice"":""C""}",choice,dtc,trinary,attraction,2,washing machines,null,null,null,null,null,null,1,50,60,40,60,50,60,Average lifespan,Energy savings,NA,NA
NA,NA,NA,NA,NA,choice_trial_setup,html-keyboard-response,62,364816,0.0-4.0-0.29,312,1,2025-05-08T05:20:47Z,b60275e29fe2361ab97ac0ac217840d7,"Mozilla/5.0 (Macintosh; Intel Mac OS X 10_15_7) AppleWebKit/605.1.15 (KHTML, like Gecko) Version/18.3 Safari/605.1.15",Macintosh,Safari,18.3,OS X,10_15_7,https://5puzkbbxv1.cognition.run/?sona_id=57116,"en-US,en;q=0.9",f1t0nghald7y1v0,19,"[""Other""]",Yes,Female,NA,No,592320,NA,null,<p></p>,null,choice,cdt,trinary,attraction,1,televisions,null,null,null,null,null,null,1,NA,NA,NA,NA,NA,NA,NA,NA,NA,NA
NA,NA,NA,NA,NA,choice_trial,survey-html-form,63,370546,0.0-4.0-1.29,312,1,2025-05-08T05:20:47Z,b60275e29fe2361ab97ac0ac217840d7,"Mozilla/5.0 (Macintosh; Intel Mac OS X 10_15_7) AppleWebKit/605.1.15 (KHTML, like Gecko) Version/18.3 Safari/605.1.15",Macintosh,Safari,18.3,OS X,10_15_7,https://5puzkbbxv1.cognition.run/?sona_id=57116,"en-US,en;q=0.9",f1t0nghald7y1v0,19,"[""Other""]",Yes,Female,NA,No,592320,NA,5725,NA,"{""product_choice"":""A""}",choice,cdt,trinary,attraction,1,televisions,null,null,null,null,null,null,1,60,50,60,50,60,40,Screen size,Average lifespan,NA,NA
NA,NA,NA,NA,NA,choice_trial_setup,html-keyboard-response,64,370849,0.0-4.0-0.30,312,1,2025-05-08T05:20:47Z,b60275e29fe2361ab97ac0ac217840d7,"Mozilla/5.0 (Macintosh; Intel Mac OS X 10_15_7) AppleWebKit/605.1.15 (KHTML, like Gecko) Version/18.3 Safari/605.1.15",Macintosh,Safari,18.3,OS X,10_15_7,https://5puzkbbxv1.cognition.run/?sona_id=57116,"en-US,en;q=0.9",f1t0nghald7y1v0,19,"[""Other""]",Yes,Female,NA,No,592320,NA,null,<p></p>,null,choice,ct,binary,attraction,NA,washing machines,null,null,null,null,null,null,1,NA,NA,NA,NA,NA,NA,NA,NA,NA,NA
NA,NA,NA,NA,NA,choice_trial,survey-html-form,65,374812,0.0-4.0-1.30,312,1,2025-05-08T05:20:47Z,b60275e29fe2361ab97ac0ac217840d7,"Mozilla/5.0 (Macintosh; Intel Mac OS X 10_15_7) AppleWebKit/605.1.15 (KHTML, like Gecko) Version/18.3 Safari/605.1.15",Macintosh,Safari,18.3,OS X,10_15_7,https://5puzkbbxv1.cognition.run/?sona_id=57116,"en-US,en;q=0.9",f1t0nghald7y1v0,19,"[""Other""]",Yes,Female,NA,No,592320,NA,3959,NA,"{""product_choice"":""B""}",choice,ct,binary,attraction,NA,washing machines,null,null,null,null,null,null,1,60,50,null,50,60,null,Average lifespan,Energy savings,NA,NA
NA,NA,NA,NA,NA,choice_trial_setup,html-keyboard-response,66,375116,0.0-4.0-0.31,312,1,2025-05-08T05:20:47Z,b60275e29fe2361ab97ac0ac217840d7,"Mozilla/5.0 (Macintosh; Intel Mac OS X 10_15_7) AppleWebKit/605.1.15 (KHTML, like Gecko) Version/18.3 Safari/605.1.15",Macintosh,Safari,18.3,OS X,10_15_7,https://5puzkbbxv1.cognition.run/?sona_id=57116,"en-US,en;q=0.9",f1t0nghald7y1v0,19,"[""Other""]",Yes,Female,NA,No,592320,NA,null,<p></p>,null,choice,tdc,trinary,repulsion_B,2,televisions,null,null,null,null,null,null,1,NA,NA,NA,NA,NA,NA,NA,NA,NA,NA
NA,NA,NA,NA,NA,choice_trial,survey-html-form,67,383228,0.0-4.0-1.31,312,1,2025-05-08T05:20:47Z,b60275e29fe2361ab97ac0ac217840d7,"Mozilla/5.0 (Macintosh; Intel Mac OS X 10_15_7) AppleWebKit/605.1.15 (KHTML, like Gecko) Version/18.3 Safari/605.1.15",Macintosh,Safari,18.3,OS X,10_15_7,https://5puzkbbxv1.cognition.run/?sona_id=57116,"en-US,en;q=0.9",f1t0nghald7y1v0,19,"[""Other""]",Yes,Female,NA,No,592320,NA,8109,NA,"{""product_choice"":""C""}",choice,tdc,trinary,repulsion_B,2,televisions,null,null,null,null,null,null,1,40,30,40,90,100,80,Screen size,Average lifespan,NA,NA
NA,NA,NA,NA,NA,choice_trial_setup,html-keyboard-response,68,383532,0.0-4.0-0.32,312,1,2025-05-08T05:20:47Z,b60275e29fe2361ab97ac0ac217840d7,"Mozilla/5.0 (Macintosh; Intel Mac OS X 10_15_7) AppleWebKit/605.1.15 (KHTML, like Gecko) Version/18.3 Safari/605.1.15",Macintosh,Safari,18.3,OS X,10_15_7,https://5puzkbbxv1.cognition.run/?sona_id=57116,"en-US,en;q=0.9",f1t0nghald7y1v0,19,"[""Other""]",Yes,Female,NA,No,592320,NA,null,<p></p>,null,choice,ctd,trinary,repulsion_A,1,washing machines,null,null,null,null,null,null,2,NA,NA,NA,NA,NA,NA,NA,NA,NA,NA
NA,NA,NA,NA,NA,choice_trial,survey-html-form,69,389746,0.0-4.0-1.32,312,1,2025-05-08T05:20:47Z,b60275e29fe2361ab97ac0ac217840d7,"Mozilla/5.0 (Macintosh; Intel Mac OS X 10_15_7) AppleWebKit/605.1.15 (KHTML, like Gecko) Version/18.3 Safari/605.1.15",Macintosh,Safari,18.3,OS X,10_15_7,https://5puzkbbxv1.cognition.run/?sona_id=57116,"en-US,en;q=0.9",f1t0nghald7y1v0,19,"[""Other""]",Yes,Female,NA,No,592320,NA,6209,NA,"{""product_choice"":""B""}",choice,ctd,trinary,repulsion_A,1,washing machines,null,null,null,null,null,null,2,100,90,100,30,40,20,Average lifespan,Energy savings,NA,NA
NA,NA,NA,NA,NA,choice_trial_setup,html-keyboard-response,70,390050,0.0-4.0-0.33,312,1,2025-05-08T05:20:47Z,b60275e29fe2361ab97ac0ac217840d7,"Mozilla/5.0 (Macintosh; Intel Mac OS X 10_15_7) AppleWebKit/605.1.15 (KHTML, like Gecko) Version/18.3 Safari/605.1.15",Macintosh,Safari,18.3,OS X,10_15_7,https://5puzkbbxv1.cognition.run/?sona_id=57116,"en-US,en;q=0.9",f1t0nghald7y1v0,19,"[""Other""]",Yes,Female,NA,No,592320,NA,null,<p></p>,null,choice,dtc,trinary,attraction,2,microwave ovens,null,null,null,null,null,null,1,NA,NA,NA,NA,NA,NA,NA,NA,NA,NA
NA,NA,NA,NA,NA,choice_trial,survey-html-form,71,396012,0.0-4.0-1.33,312,1,2025-05-08T05:20:47Z,b60275e29fe2361ab97ac0ac217840d7,"Mozilla/5.0 (Macintosh; Intel Mac OS X 10_15_7) AppleWebKit/605.1.15 (KHTML, like Gecko) Version/18.3 Safari/605.1.15",Macintosh,Safari,18.3,OS X,10_15_7,https://5puzkbbxv1.cognition.run/?sona_id=57116,"en-US,en;q=0.9",f1t0nghald7y1v0,19,"[""Other""]",Yes,Female,NA,No,592320,NA,5957,NA,"{""product_choice"":""B""}",choice,dtc,trinary,attraction,2,microwave ovens,null,null,null,null,null,null,1,50,60,40,60,50,60,Warranty,Cooking power,NA,NA
NA,NA,NA,NA,NA,choice_trial_setup,html-keyboard-response,72,396315,0.0-4.0-0.34,312,1,2025-05-08T05:20:47Z,b60275e29fe2361ab97ac0ac217840d7,"Mozilla/5.0 (Macintosh; Intel Mac OS X 10_15_7) AppleWebKit/605.1.15 (KHTML, like Gecko) Version/18.3 Safari/605.1.15",Macintosh,Safari,18.3,OS X,10_15_7,https://5puzkbbxv1.cognition.run/?sona_id=57116,"en-US,en;q=0.9",f1t0nghald7y1v0,19,"[""Other""]",Yes,Female,NA,No,592320,NA,null,<p></p>,null,choice,ct,binary,repulsion,1,televisions,null,null,null,null,null,null,2,NA,NA,NA,NA,NA,NA,NA,NA,NA,NA
NA,NA,NA,NA,NA,choice_trial,survey-html-form,73,402379,0.0-4.0-1.34,312,1,2025-05-08T05:20:47Z,b60275e29fe2361ab97ac0ac217840d7,"Mozilla/5.0 (Macintosh; Intel Mac OS X 10_15_7) AppleWebKit/605.1.15 (KHTML, like Gecko) Version/18.3 Safari/605.1.15",Macintosh,Safari,18.3,OS X,10_15_7,https://5puzkbbxv1.cognition.run/?sona_id=57116,"en-US,en;q=0.9",f1t0nghald7y1v0,19,"[""Other""]",Yes,Female,NA,No,592320,NA,6059,NA,"{""product_choice"":""A""}",choice,ct,binary,repulsion,1,televisions,null,null,null,null,null,null,2,100,90,null,30,40,null,Screen size,Average lifespan,NA,NA
NA,NA,NA,NA,NA,choice_trial_setup,html-keyboard-response,74,402682,0.0-4.0-0.35,312,1,2025-05-08T05:20:47Z,b60275e29fe2361ab97ac0ac217840d7,"Mozilla/5.0 (Macintosh; Intel Mac OS X 10_15_7) AppleWebKit/605.1.15 (KHTML, like Gecko) Version/18.3 Safari/605.1.15",Macintosh,Safari,18.3,OS X,10_15_7,https://5puzkbbxv1.cognition.run/?sona_id=57116,"en-US,en;q=0.9",f1t0nghald7y1v0,19,"[""Other""]",Yes,Female,NA,No,592320,NA,null,<p></p>,null,choice,ctd,trinary,repulsion_A,1,televisions,null,null,null,null,null,null,1,NA,NA,NA,NA,NA,NA,NA,NA,NA,NA
NA,NA,NA,NA,NA,choice_trial,survey-html-form,75,411545,0.0-4.0-1.35,312,1,2025-05-08T05:20:47Z,b60275e29fe2361ab97ac0ac217840d7,"Mozilla/5.0 (Macintosh; Intel Mac OS X 10_15_7) AppleWebKit/605.1.15 (KHTML, like Gecko) Version/18.3 Safari/605.1.15",Macintosh,Safari,18.3,OS X,10_15_7,https://5puzkbbxv1.cognition.run/?sona_id=57116,"en-US,en;q=0.9",f1t0nghald7y1v0,19,"[""Other""]",Yes,Female,NA,No,592320,NA,8859,NA,"{""product_choice"":""A""}",choice,ctd,trinary,repulsion_A,1,televisions,null,null,null,null,null,null,1,100,90,100,30,40,20,Screen size,Average lifespan,NA,NA
NA,NA,NA,NA,NA,choice_trial_setup,html-keyboard-response,76,411849,0.0-4.0-0.36,312,1,2025-05-08T05:20:47Z,b60275e29fe2361ab97ac0ac217840d7,"Mozilla/5.0 (Macintosh; Intel Mac OS X 10_15_7) AppleWebKit/605.1.15 (KHTML, like Gecko) Version/18.3 Safari/605.1.15",Macintosh,Safari,18.3,OS X,10_15_7,https://5puzkbbxv1.cognition.run/?sona_id=57116,"en-US,en;q=0.9",f1t0nghald7y1v0,19,"[""Other""]",Yes,Female,NA,No,592320,NA,null,<p></p>,null,choice,tdc,trinary,repulsion_B,1,microwave ovens,null,null,null,null,null,null,2,NA,NA,NA,NA,NA,NA,NA,NA,NA,NA
NA,NA,NA,NA,NA,choice_trial,survey-html-form,77,431379,0.0-4.0-1.36,312,1,2025-05-08T05:20:47Z,b60275e29fe2361ab97ac0ac217840d7,"Mozilla/5.0 (Macintosh; Intel Mac OS X 10_15_7) AppleWebKit/605.1.15 (KHTML, like Gecko) Version/18.3 Safari/605.1.15",Macintosh,Safari,18.3,OS X,10_15_7,https://5puzkbbxv1.cognition.run/?sona_id=57116,"en-US,en;q=0.9",f1t0nghald7y1v0,19,"[""Other""]",Yes,Female,NA,No,592320,NA,19522,NA,"{""product_choice"":""A""}",choice,tdc,trinary,repulsion_B,1,microwave ovens,null,null,null,null,null,null,2,90,100,80,40,30,40,Warranty,Cooking power,NA,NA
NA,NA,NA,NA,NA,choice_trial_setup,html-keyboard-response,78,431682,0.0-4.0-0.37,312,1,2025-05-08T05:20:47Z,b60275e29fe2361ab97ac0ac217840d7,"Mozilla/5.0 (Macintosh; Intel Mac OS X 10_15_7) AppleWebKit/605.1.15 (KHTML, like Gecko) Version/18.3 Safari/605.1.15",Macintosh,Safari,18.3,OS X,10_15_7,https://5puzkbbxv1.cognition.run/?sona_id=57116,"en-US,en;q=0.9",f1t0nghald7y1v0,19,"[""Other""]",Yes,Female,NA,No,592320,NA,null,<p></p>,null,choice,cdt,trinary,repulsion_B,1,televisions,null,null,null,null,null,null,2,NA,NA,NA,NA,NA,NA,NA,NA,NA,NA
NA,NA,NA,NA,NA,choice_trial,survey-html-form,79,436980,0.0-4.0-1.37,312,1,2025-05-08T05:20:47Z,b60275e29fe2361ab97ac0ac217840d7,"Mozilla/5.0 (Macintosh; Intel Mac OS X 10_15_7) AppleWebKit/605.1.15 (KHTML, like Gecko) Version/18.3 Safari/605.1.15",Macintosh,Safari,18.3,OS X,10_15_7,https://5puzkbbxv1.cognition.run/?sona_id=57116,"en-US,en;q=0.9",f1t0nghald7y1v0,19,"[""Other""]",Yes,Female,NA,No,592320,NA,5292,NA,"{""product_choice"":""C""}",choice,cdt,trinary,repulsion_B,1,televisions,null,null,null,null,null,null,2,90,100,80,40,30,40,Screen size,Average lifespan,NA,NA
NA,NA,NA,NA,NA,choice_trial_setup,html-keyboard-response,80,437284,0.0-4.0-0.38,312,1,2025-05-08T05:20:47Z,b60275e29fe2361ab97ac0ac217840d7,"Mozilla/5.0 (Macintosh; Intel Mac OS X 10_15_7) AppleWebKit/605.1.15 (KHTML, like Gecko) Version/18.3 Safari/605.1.15",Macintosh,Safari,18.3,OS X,10_15_7,https://5puzkbbxv1.cognition.run/?sona_id=57116,"en-US,en;q=0.9",f1t0nghald7y1v0,19,"[""Other""]",Yes,Female,NA,No,592320,NA,null,<p></p>,null,choice,tcd,trinary,repulsion_B,1,washing machines,null,null,null,null,null,null,1,NA,NA,NA,NA,NA,NA,NA,NA,NA,NA
NA,NA,NA,NA,NA,choice_trial,survey-html-form,81,451785,0.0-4.0-1.38,312,1,2025-05-08T05:20:47Z,b60275e29fe2361ab97ac0ac217840d7,"Mozilla/5.0 (Macintosh; Intel Mac OS X 10_15_7) AppleWebKit/605.1.15 (KHTML, like Gecko) Version/18.3 Safari/605.1.15",Macintosh,Safari,18.3,OS X,10_15_7,https://5puzkbbxv1.cognition.run/?sona_id=57116,"en-US,en;q=0.9",f1t0nghald7y1v0,19,"[""Other""]",Yes,Female,NA,No,592320,NA,14490,NA,"{""product_choice"":""A""}",choice,tcd,trinary,repulsion_B,1,washing machines,null,null,null,null,null,null,1,90,100,80,40,30,40,Average lifespan,Energy savings,NA,NA
NA,NA,NA,NA,NA,choice_trial_setup,html-keyboard-response,82,452088,0.0-4.0-0.39,312,1,2025-05-08T05:20:47Z,b60275e29fe2361ab97ac0ac217840d7,"Mozilla/5.0 (Macintosh; Intel Mac OS X 10_15_7) AppleWebKit/605.1.15 (KHTML, like Gecko) Version/18.3 Safari/605.1.15",Macintosh,Safari,18.3,OS X,10_15_7,https://5puzkbbxv1.cognition.run/?sona_id=57116,"en-US,en;q=0.9",f1t0nghald7y1v0,19,"[""Other""]",Yes,Female,NA,No,592320,NA,null,<p></p>,null,choice,wb,binary,catch,null,laptops,85,95,25,45,null,null,2,NA,NA,NA,NA,NA,NA,NA,NA,NA,NA
NA,NA,NA,NA,NA,choice_trial,survey-html-form,83,457155,0.0-4.0-1.39,312,1,2025-05-08T05:20:47Z,b60275e29fe2361ab97ac0ac217840d7,"Mozilla/5.0 (Macintosh; Intel Mac OS X 10_15_7) AppleWebKit/605.1.15 (KHTML, like Gecko) Version/18.3 Safari/605.1.15",Macintosh,Safari,18.3,OS X,10_15_7,https://5puzkbbxv1.cognition.run/?sona_id=57116,"en-US,en;q=0.9",f1t0nghald7y1v0,19,"[""Other""]",Yes,Female,NA,No,592320,NA,5061,NA,"{""product_choice"":""B""}",choice,wb,binary,catch,null,laptops,85,95,25,45,null,null,2,null,null,null,null,null,null,Processing speed,Memory (RAM),NA,NA
NA,NA,NA,NA,NA,choice_trial_setup,html-keyboard-response,84,457459,0.0-4.0-0.40,312,1,2025-05-08T05:20:47Z,b60275e29fe2361ab97ac0ac217840d7,"Mozilla/5.0 (Macintosh; Intel Mac OS X 10_15_7) AppleWebKit/605.1.15 (KHTML, like Gecko) Version/18.3 Safari/605.1.15",Macintosh,Safari,18.3,OS X,10_15_7,https://5puzkbbxv1.cognition.run/?sona_id=57116,"en-US,en;q=0.9",f1t0nghald7y1v0,19,"[""Other""]",Yes,Female,NA,No,592320,NA,null,<p></p>,null,choice,tcd,trinary,repulsion_A,2,microwave ovens,null,null,null,null,null,null,2,NA,NA,NA,NA,NA,NA,NA,NA,NA,NA
NA,NA,NA,NA,NA,choice_trial,survey-html-form,85,461671,0.0-4.0-1.40,312,1,2025-05-08T05:20:47Z,b60275e29fe2361ab97ac0ac217840d7,"Mozilla/5.0 (Macintosh; Intel Mac OS X 10_15_7) AppleWebKit/605.1.15 (KHTML, like Gecko) Version/18.3 Safari/605.1.15",Macintosh,Safari,18.3,OS X,10_15_7,https://5puzkbbxv1.cognition.run/?sona_id=57116,"en-US,en;q=0.9",f1t0nghald7y1v0,19,"[""Other""]",Yes,Female,NA,No,592320,NA,4207,NA,"{""product_choice"":""A""}",choice,tcd,trinary,repulsion_A,2,microwave ovens,null,null,null,null,null,null,2,30,40,20,100,90,100,Warranty,Cooking power,NA,NA
NA,NA,NA,NA,NA,choice_trial_setup,html-keyboard-response,86,461975,0.0-4.0-0.41,312,1,2025-05-08T05:20:47Z,b60275e29fe2361ab97ac0ac217840d7,"Mozilla/5.0 (Macintosh; Intel Mac OS X 10_15_7) AppleWebKit/605.1.15 (KHTML, like Gecko) Version/18.3 Safari/605.1.15",Macintosh,Safari,18.3,OS X,10_15_7,https://5puzkbbxv1.cognition.run/?sona_id=57116,"en-US,en;q=0.9",f1t0nghald7y1v0,19,"[""Other""]",Yes,Female,NA,No,592320,NA,null,<p></p>,null,choice,tc,binary,repulsion,2,laptops,null,null,null,null,null,null,1,NA,NA,NA,NA,NA,NA,NA,NA,NA,NA
NA,NA,NA,NA,NA,choice_trial,survey-html-form,87,467388,0.0-4.0-1.41,312,1,2025-05-08T05:20:47Z,b60275e29fe2361ab97ac0ac217840d7,"Mozilla/5.0 (Macintosh; Intel Mac OS X 10_15_7) AppleWebKit/605.1.15 (KHTML, like Gecko) Version/18.3 Safari/605.1.15",Macintosh,Safari,18.3,OS X,10_15_7,https://5puzkbbxv1.cognition.run/?sona_id=57116,"en-US,en;q=0.9",f1t0nghald7y1v0,19,"[""Other""]",Yes,Female,NA,No,592320,NA,5409,NA,"{""product_choice"":""B""}",choice,tc,binary,repulsion,2,laptops,null,null,null,null,null,null,1,30,40,null,100,90,null,Processing speed,Memory (RAM),NA,NA
NA,NA,NA,NA,NA,choice_trial_setup,html-keyboard-response,88,467691,0.0-4.0-0.42,312,1,2025-05-08T05:20:47Z,b60275e29fe2361ab97ac0ac217840d7,"Mozilla/5.0 (Macintosh; Intel Mac OS X 10_15_7) AppleWebKit/605.1.15 (KHTML, like Gecko) Version/18.3 Safari/605.1.15",Macintosh,Safari,18.3,OS X,10_15_7,https://5puzkbbxv1.cognition.run/?sona_id=57116,"en-US,en;q=0.9",f1t0nghald7y1v0,19,"[""Other""]",Yes,Female,NA,No,592320,NA,null,<p></p>,null,choice,bww,trinary,catch,null,washing machines,95,65,45,15,15,15,2,NA,NA,NA,NA,NA,NA,NA,NA,NA,NA
NA,NA,NA,NA,NA,choice_trial,survey-html-form,89,481743,0.0-4.0-1.42,312,1,2025-05-08T05:20:47Z,b60275e29fe2361ab97ac0ac217840d7,"Mozilla/5.0 (Macintosh; Intel Mac OS X 10_15_7) AppleWebKit/605.1.15 (KHTML, like Gecko) Version/18.3 Safari/605.1.15",Macintosh,Safari,18.3,OS X,10_15_7,https://5puzkbbxv1.cognition.run/?sona_id=57116,"en-US,en;q=0.9",f1t0nghald7y1v0,19,"[""Other""]",Yes,Female,NA,No,592320,NA,14046,NA,"{""product_choice"":""A""}",choice,bww,trinary,catch,null,washing machines,95,65,45,15,15,15,2,null,null,null,null,null,null,Average lifespan,Energy savings,NA,NA
NA,NA,NA,NA,NA,choice_trial_setup,html-keyboard-response,90,482046,0.0-4.0-0.43,312,1,2025-05-08T05:20:47Z,b60275e29fe2361ab97ac0ac217840d7,"Mozilla/5.0 (Macintosh; Intel Mac OS X 10_15_7) AppleWebKit/605.1.15 (KHTML, like Gecko) Version/18.3 Safari/605.1.15",Macintosh,Safari,18.3,OS X,10_15_7,https://5puzkbbxv1.cognition.run/?sona_id=57116,"en-US,en;q=0.9",f1t0nghald7y1v0,19,"[""Other""]",Yes,Female,NA,No,592320,NA,null,<p></p>,null,choice,dtc,trinary,attraction,2,laptops,null,null,null,null,null,null,2,NA,NA,NA,NA,NA,NA,NA,NA,NA,NA
NA,NA,NA,NA,NA,choice_trial,survey-html-form,91,486689,0.0-4.0-1.43,312,1,2025-05-08T05:20:47Z,b60275e29fe2361ab97ac0ac217840d7,"Mozilla/5.0 (Macintosh; Intel Mac OS X 10_15_7) AppleWebKit/605.1.15 (KHTML, like Gecko) Version/18.3 Safari/605.1.15",Macintosh,Safari,18.3,OS X,10_15_7,https://5puzkbbxv1.cognition.run/?sona_id=57116,"en-US,en;q=0.9",f1t0nghald7y1v0,19,"[""Other""]",Yes,Female,NA,No,592320,NA,4640,NA,"{""product_choice"":""C""}",choice,dtc,trinary,attraction,2,laptops,null,null,null,null,null,null,2,50,60,40,60,50,60,Processing speed,Memory (RAM),NA,NA
NA,NA,NA,NA,NA,post_trials_message,html-button-response,92,488621,0.0-5.0,312,1,2025-05-08T05:20:47Z,b60275e29fe2361ab97ac0ac217840d7,"Mozilla/5.0 (Macintosh; Intel Mac OS X 10_15_7) AppleWebKit/605.1.15 (KHTML, like Gecko) Version/18.3 Safari/605.1.15",Macintosh,Safari,18.3,OS X,10_15_7,https://5puzkbbxv1.cognition.run/?sona_id=57116,"en-US,en;q=0.9",f1t0nghald7y1v0,19,"[""Other""]",Yes,Female,NA,No,592320,NA,1923,<p> <b>Thank you for your patience!</b></p><p>  The study will be done after completing a brief form. </p>,0,NA,NA,NA,NA,NA,NA,NA,NA,NA,NA,NA,NA,NA,NA,NA,NA,NA,NA,NA,NA,NA,NA,NA
NA,NA,NA,NA,NA,survey_message,survey-text,93,529308,0.0-6.0,312,1,2025-05-08T05:20:47Z,b60275e29fe2361ab97ac0ac217840d7,"Mozilla/5.0 (Macintosh; Intel Mac OS X 10_15_7) AppleWebKit/605.1.15 (KHTML, like Gecko) Version/18.3 Safari/605.1.15",Macintosh,Safari,18.3,OS X,10_15_7,https://5puzkbbxv1.cognition.run/?sona_id=57116,"en-US,en;q=0.9",f1t0nghald7y1v0,19,"[""Other""]",Yes,Female,NA,No,592320,NA,40666,NA,"{""Q0"":""I payed attention to which would be more durable""}",NA,NA,NA,NA,NA,NA,NA,NA,NA,NA,NA,NA,NA,NA,NA,NA,NA,NA,NA,NA,NA,I payed attention to which would be more durable,NA
NA,NA,NA,NA,NA,demo_age,survey-text,94,533241,0.0-7.0,312,1,2025-05-08T05:20:47Z,b60275e29fe2361ab97ac0ac217840d7,"Mozilla/5.0 (Macintosh; Intel Mac OS X 10_15_7) AppleWebKit/605.1.15 (KHTML, like Gecko) Version/18.3 Safari/605.1.15",Macintosh,Safari,18.3,OS X,10_15_7,https://5puzkbbxv1.cognition.run/?sona_id=57116,"en-US,en;q=0.9",f1t0nghald7y1v0,19,"[""Other""]",Yes,Female,NA,No,592320,NA,3925,NA,"{""Q0"":""19""}",NA,NA,NA,NA,NA,NA,NA,NA,NA,NA,NA,NA,NA,NA,NA,NA,NA,NA,NA,NA,NA,NA,NA
NA,NA,NA,NA,NA,demo_race,survey-multi-select,95,539476,0.0-8.0,312,1,2025-05-08T05:20:47Z,b60275e29fe2361ab97ac0ac217840d7,"Mozilla/5.0 (Macintosh; Intel Mac OS X 10_15_7) AppleWebKit/605.1.15 (KHTML, like Gecko) Version/18.3 Safari/605.1.15",Macintosh,Safari,18.3,OS X,10_15_7,https://5puzkbbxv1.cognition.run/?sona_id=57116,"en-US,en;q=0.9",f1t0nghald7y1v0,19,"[""Other""]",Yes,Female,NA,No,592320,NA,6228,NA,"{""Q0"":[""Other""]}",NA,NA,NA,NA,NA,NA,NA,NA,NA,NA,NA,NA,NA,NA,NA,NA,NA,NA,NA,NA,NA,NA,[0]
NA,NA,NA,NA,NA,demo_ethnicity_gender,survey-multi-choice,96,545708,0.0-9.0,312,1,2025-05-08T05:20:47Z,b60275e29fe2361ab97ac0ac217840d7,"Mozilla/5.0 (Macintosh; Intel Mac OS X 10_15_7) AppleWebKit/605.1.15 (KHTML, like Gecko) Version/18.3 Safari/605.1.15",Macintosh,Safari,18.3,OS X,10_15_7,https://5puzkbbxv1.cognition.run/?sona_id=57116,"en-US,en;q=0.9",f1t0nghald7y1v0,19,"[""Other""]",Yes,Female,NA,No,592320,NA,6226,NA,"{""Q0"":""Yes"",""Q1"":""Female""}",NA,NA,NA,NA,NA,NA,NA,NA,NA,NA,NA,NA,NA,NA,NA,NA,NA,NA,NA,NA,NA,NA,"[0,1]"
NA,NA,NA,NA,NA,demo_countries,survey-text,97,560579,0.0-10.0,312,1,2025-05-08T05:20:47Z,b60275e29fe2361ab97ac0ac217840d7,"Mozilla/5.0 (Macintosh; Intel Mac OS X 10_15_7) AppleWebKit/605.1.15 (KHTML, like Gecko) Version/18.3 Safari/605.1.15",Macintosh,Safari,18.3,OS X,10_15_7,https://5puzkbbxv1.cognition.run/?sona_id=57116,"en-US,en;q=0.9",f1t0nghald7y1v0,19,"[""Other""]",Yes,Female,NA,No,592320,NA,14866,NA,"{""Q0"":""NA""}",NA,NA,NA,NA,NA,NA,NA,NA,NA,NA,NA,NA,NA,NA,NA,NA,NA,NA,NA,NA,NA,NA,NA
NA,NA,NA,NA,NA,demo_prev_study,survey-multi-choice,98,566956,0.0-11.0,312,1,2025-05-08T05:20:47Z,b60275e29fe2361ab97ac0ac217840d7,"Mozilla/5.0 (Macintosh; Intel Mac OS X 10_15_7) AppleWebKit/605.1.15 (KHTML, like Gecko) Version/18.3 Safari/605.1.15",Macintosh,Safari,18.3,OS X,10_15_7,https://5puzkbbxv1.cognition.run/?sona_id=57116,"en-US,en;q=0.9",f1t0nghald7y1v0,19,"[""Other""]",Yes,Female,NA,No,592320,NA,6374,NA,"{""Q0"":""No""}",NA,NA,NA,NA,NA,NA,NA,NA,NA,NA,NA,NA,NA,NA,NA,NA,NA,NA,NA,NA,NA,NA,[0]
NA,NA,NA,NA,NA,post_survey_message,html-keyboard-response,99,584820,0.0-12.0,312,1,2025-05-08T05:20:47Z,b60275e29fe2361ab97ac0ac217840d7,"Mozilla/5.0 (Macintosh; Intel Mac OS X 10_15_7) AppleWebKit/605.1.15 (KHTML, like Gecko) Version/18.3 Safari/605.1.15",Macintosh,Safari,18.3,OS X,10_15_7,https://5puzkbbxv1.cognition.run/?sona_id=57116,"en-US,en;q=0.9",f1t0nghald7y1v0,19,"[""Other""]",Yes,Female,NA,No,592320,NA,17859,NA,j,NA,NA,NA,NA,NA,NA,NA,NA,NA,NA,NA,NA,NA,NA,NA,NA,NA,NA,NA,NA,NA,NA,NA
NA,NA,NA,NA,NA,debrief,image-keyboard-response,100,592337,0.0-13.0,312,1,2025-05-08T05:20:47Z,b60275e29fe2361ab97ac0ac217840d7,"Mozilla/5.0 (Macintosh; Intel Mac OS X 10_15_7) AppleWebKit/605.1.15 (KHTML, like Gecko) Version/18.3 Safari/605.1.15",Macintosh,Safari,18.3,OS X,10_15_7,https://5puzkbbxv1.cognition.run/?sona_id=57116,"en-US,en;q=0.9",f1t0nghald7y1v0,19,"[""Other""]",Yes,Female,NA,No,592320,NA,7490,Judg_choice_debrief.png,p,NA,NA,NA,NA,NA,NA,NA,NA,NA,NA,NA,NA,NA,NA,NA,NA,NA,NA,NA,NA,NA,NA,NA
