success,timeout,failed_images,failed_audio,failed_video,screen_id,trial_type,trial_index,time_elapsed,internal_node_id,run_id,condition,recorded_at,source_code_version,user_agent,device,browser,browser_version,platform,platform_version,referer,accept_language,ppt_id,age,race,ethnicity,gender,other_countries,prev_study,exp_duration,view_history,rt,stimulus,response,phase,order,set,effect,t_high,category,d1_best,d2_best,d1_worst1,d2_worst1,d1_worst2,d2_worst2,first_dim,d1_t,d1_c,d1_d,d2_t,d2_c,d2_d,d1_name,d2_name,strategy_response,question_order
TRUE,FALSE,[],[],[],img preload,preload,0,131,0.0-0.0,314,1,2025-05-08T14:33:58Z,b60275e29fe2361ab97ac0ac217840d7,"Mozilla/5.0 (Macintosh; Intel Mac OS X 10_15_7) AppleWebKit/537.36 (KHTML, like Gecko) Chrome/134.0.0.0 Safari/537.36",Macintosh,Chrome,134.0.0.0,OS X,10_15_7,https://5puzkbbxv1.cognition.run/?sona_id=47912,"en-US,en;q=0.9",ufvtzbsp1ag4xd4,22,"[""Black or African-American""]",No,Female,"Uganda for 5 years
Kenya for 1 year",I'm not sure,327601.7999999523,NA,NA,NA,NA,NA,NA,NA,NA,NA,NA,NA,NA,NA,NA,NA,NA,NA,NA,NA,NA,NA,NA,NA,NA,NA,NA,NA
NA,NA,NA,NA,NA,computer_message,instructions,1,1966,0.0-1.0,314,1,2025-05-08T14:33:58Z,b60275e29fe2361ab97ac0ac217840d7,"Mozilla/5.0 (Macintosh; Intel Mac OS X 10_15_7) AppleWebKit/537.36 (KHTML, like Gecko) Chrome/134.0.0.0 Safari/537.36",Macintosh,Chrome,134.0.0.0,OS X,10_15_7,https://5puzkbbxv1.cognition.run/?sona_id=47912,"en-US,en;q=0.9",ufvtzbsp1ag4xd4,22,"[""Black or African-American""]",No,Female,"Uganda for 5 years
Kenya for 1 year",I'm not sure,327601.7999999523,"[{""page_index"":0,""viewing_time"":1834}]",1834,NA,NA,NA,NA,NA,NA,NA,NA,NA,NA,NA,NA,NA,NA,NA,NA,NA,NA,NA,NA,NA,NA,NA,NA,NA
TRUE,NA,NA,NA,NA,NA,fullscreen,2,4134,0.0-2.0,314,1,2025-05-08T14:33:58Z,b60275e29fe2361ab97ac0ac217840d7,"Mozilla/5.0 (Macintosh; Intel Mac OS X 10_15_7) AppleWebKit/537.36 (KHTML, like Gecko) Chrome/134.0.0.0 Safari/537.36",Macintosh,Chrome,134.0.0.0,OS X,10_15_7,https://5puzkbbxv1.cognition.run/?sona_id=47912,"en-US,en;q=0.9",ufvtzbsp1ag4xd4,22,"[""Black or African-American""]",No,Female,"Uganda for 5 years
Kenya for 1 year",I'm not sure,327601.7999999523,NA,1164,NA,NA,NA,NA,NA,NA,NA,NA,NA,NA,NA,NA,NA,NA,NA,NA,NA,NA,NA,NA,NA,NA,NA,NA,NA
NA,NA,NA,NA,NA,choice_instructions,instructions,3,26134,0.0-3.0,314,1,2025-05-08T14:33:58Z,b60275e29fe2361ab97ac0ac217840d7,"Mozilla/5.0 (Macintosh; Intel Mac OS X 10_15_7) AppleWebKit/537.36 (KHTML, like Gecko) Chrome/134.0.0.0 Safari/537.36",Macintosh,Chrome,134.0.0.0,OS X,10_15_7,https://5puzkbbxv1.cognition.run/?sona_id=47912,"en-US,en;q=0.9",ufvtzbsp1ag4xd4,22,"[""Black or African-American""]",No,Female,"Uganda for 5 years
Kenya for 1 year",I'm not sure,327601.7999999523,"[{""page_index"":0,""viewing_time"":1031},{""page_index"":1,""viewing_time"":3367},{""page_index"":2,""viewing_time"":3384},{""page_index"":3,""viewing_time"":1549},{""page_index"":4,""viewing_time"":1065},{""page_index"":5,""viewing_time"":7336},{""page_index"":6,""viewing_time"":4267}]",22000,NA,NA,NA,NA,NA,NA,NA,NA,NA,NA,NA,NA,NA,NA,NA,NA,NA,NA,NA,NA,NA,NA,NA,NA,NA
NA,NA,NA,NA,NA,choice_trial_setup,html-keyboard-response,4,26439,0.0-4.0-0.0,314,1,2025-05-08T14:33:58Z,b60275e29fe2361ab97ac0ac217840d7,"Mozilla/5.0 (Macintosh; Intel Mac OS X 10_15_7) AppleWebKit/537.36 (KHTML, like Gecko) Chrome/134.0.0.0 Safari/537.36",Macintosh,Chrome,134.0.0.0,OS X,10_15_7,https://5puzkbbxv1.cognition.run/?sona_id=47912,"en-US,en;q=0.9",ufvtzbsp1ag4xd4,22,"[""Black or African-American""]",No,Female,"Uganda for 5 years
Kenya for 1 year",I'm not sure,327601.7999999523,NA,null,<p></p>,null,choice,ctd,trinary,repulsion_A,2,microwave ovens,null,null,null,null,null,null,1,NA,NA,NA,NA,NA,NA,NA,NA,NA,NA
NA,NA,NA,NA,NA,choice_trial,survey-html-form,5,37752,0.0-4.0-1.0,314,1,2025-05-08T14:33:58Z,b60275e29fe2361ab97ac0ac217840d7,"Mozilla/5.0 (Macintosh; Intel Mac OS X 10_15_7) AppleWebKit/537.36 (KHTML, like Gecko) Chrome/134.0.0.0 Safari/537.36",Macintosh,Chrome,134.0.0.0,OS X,10_15_7,https://5puzkbbxv1.cognition.run/?sona_id=47912,"en-US,en;q=0.9",ufvtzbsp1ag4xd4,22,"[""Black or African-American""]",No,Female,"Uganda for 5 years
Kenya for 1 year",I'm not sure,327601.7999999523,NA,11308,NA,"{""product_choice"":""A""}",choice,ctd,trinary,repulsion_A,2,microwave ovens,null,null,null,null,null,null,1,30,40,20,100,90,100,Warranty,Cooking power,NA,NA
NA,NA,NA,NA,NA,choice_trial_setup,html-keyboard-response,6,38056,0.0-4.0-0.1,314,1,2025-05-08T14:33:58Z,b60275e29fe2361ab97ac0ac217840d7,"Mozilla/5.0 (Macintosh; Intel Mac OS X 10_15_7) AppleWebKit/537.36 (KHTML, like Gecko) Chrome/134.0.0.0 Safari/537.36",Macintosh,Chrome,134.0.0.0,OS X,10_15_7,https://5puzkbbxv1.cognition.run/?sona_id=47912,"en-US,en;q=0.9",ufvtzbsp1ag4xd4,22,"[""Black or African-American""]",No,Female,"Uganda for 5 years
Kenya for 1 year",I'm not sure,327601.7999999523,NA,null,<p></p>,null,choice,ctd,trinary,repulsion_B,1,washing machines,null,null,null,null,null,null,1,NA,NA,NA,NA,NA,NA,NA,NA,NA,NA
NA,NA,NA,NA,NA,choice_trial,survey-html-form,7,62187,0.0-4.0-1.1,314,1,2025-05-08T14:33:58Z,b60275e29fe2361ab97ac0ac217840d7,"Mozilla/5.0 (Macintosh; Intel Mac OS X 10_15_7) AppleWebKit/537.36 (KHTML, like Gecko) Chrome/134.0.0.0 Safari/537.36",Macintosh,Chrome,134.0.0.0,OS X,10_15_7,https://5puzkbbxv1.cognition.run/?sona_id=47912,"en-US,en;q=0.9",ufvtzbsp1ag4xd4,22,"[""Black or African-American""]",No,Female,"Uganda for 5 years
Kenya for 1 year",I'm not sure,327601.7999999523,NA,24126,NA,"{""product_choice"":""B""}",choice,ctd,trinary,repulsion_B,1,washing machines,null,null,null,null,null,null,1,90,100,80,40,30,40,Average lifespan,Energy savings,NA,NA
NA,NA,NA,NA,NA,choice_trial_setup,html-keyboard-response,8,62490,0.0-4.0-0.2,314,1,2025-05-08T14:33:58Z,b60275e29fe2361ab97ac0ac217840d7,"Mozilla/5.0 (Macintosh; Intel Mac OS X 10_15_7) AppleWebKit/537.36 (KHTML, like Gecko) Chrome/134.0.0.0 Safari/537.36",Macintosh,Chrome,134.0.0.0,OS X,10_15_7,https://5puzkbbxv1.cognition.run/?sona_id=47912,"en-US,en;q=0.9",ufvtzbsp1ag4xd4,22,"[""Black or African-American""]",No,Female,"Uganda for 5 years
Kenya for 1 year",I'm not sure,327601.7999999523,NA,null,<p></p>,null,choice,tcd,trinary,repulsion_A,2,laptops,null,null,null,null,null,null,1,NA,NA,NA,NA,NA,NA,NA,NA,NA,NA
NA,NA,NA,NA,NA,choice_trial,survey-html-form,9,70404,0.0-4.0-1.2,314,1,2025-05-08T14:33:58Z,b60275e29fe2361ab97ac0ac217840d7,"Mozilla/5.0 (Macintosh; Intel Mac OS X 10_15_7) AppleWebKit/537.36 (KHTML, like Gecko) Chrome/134.0.0.0 Safari/537.36",Macintosh,Chrome,134.0.0.0,OS X,10_15_7,https://5puzkbbxv1.cognition.run/?sona_id=47912,"en-US,en;q=0.9",ufvtzbsp1ag4xd4,22,"[""Black or African-American""]",No,Female,"Uganda for 5 years
Kenya for 1 year",I'm not sure,327601.7999999523,NA,7910,NA,"{""product_choice"":""B""}",choice,tcd,trinary,repulsion_A,2,laptops,null,null,null,null,null,null,1,30,40,20,100,90,100,Processing speed,Memory (RAM),NA,NA
NA,NA,NA,NA,NA,choice_trial_setup,html-keyboard-response,10,70707,0.0-4.0-0.3,314,1,2025-05-08T14:33:58Z,b60275e29fe2361ab97ac0ac217840d7,"Mozilla/5.0 (Macintosh; Intel Mac OS X 10_15_7) AppleWebKit/537.36 (KHTML, like Gecko) Chrome/134.0.0.0 Safari/537.36",Macintosh,Chrome,134.0.0.0,OS X,10_15_7,https://5puzkbbxv1.cognition.run/?sona_id=47912,"en-US,en;q=0.9",ufvtzbsp1ag4xd4,22,"[""Black or African-American""]",No,Female,"Uganda for 5 years
Kenya for 1 year",I'm not sure,327601.7999999523,NA,null,<p></p>,null,choice,wbw,trinary,catch,null,televisions,75,50,15,10,30,45,1,NA,NA,NA,NA,NA,NA,NA,NA,NA,NA
NA,NA,NA,NA,NA,choice_trial,survey-html-form,11,84021,0.0-4.0-1.3,314,1,2025-05-08T14:33:58Z,b60275e29fe2361ab97ac0ac217840d7,"Mozilla/5.0 (Macintosh; Intel Mac OS X 10_15_7) AppleWebKit/537.36 (KHTML, like Gecko) Chrome/134.0.0.0 Safari/537.36",Macintosh,Chrome,134.0.0.0,OS X,10_15_7,https://5puzkbbxv1.cognition.run/?sona_id=47912,"en-US,en;q=0.9",ufvtzbsp1ag4xd4,22,"[""Black or African-American""]",No,Female,"Uganda for 5 years
Kenya for 1 year",I'm not sure,327601.7999999523,NA,13310,NA,"{""product_choice"":""C""}",choice,wbw,trinary,catch,null,televisions,75,50,15,10,30,45,1,null,null,null,null,null,null,Screen size,Average lifespan,NA,NA
NA,NA,NA,NA,NA,choice_trial_setup,html-keyboard-response,12,84325,0.0-4.0-0.4,314,1,2025-05-08T14:33:58Z,b60275e29fe2361ab97ac0ac217840d7,"Mozilla/5.0 (Macintosh; Intel Mac OS X 10_15_7) AppleWebKit/537.36 (KHTML, like Gecko) Chrome/134.0.0.0 Safari/537.36",Macintosh,Chrome,134.0.0.0,OS X,10_15_7,https://5puzkbbxv1.cognition.run/?sona_id=47912,"en-US,en;q=0.9",ufvtzbsp1ag4xd4,22,"[""Black or African-American""]",No,Female,"Uganda for 5 years
Kenya for 1 year",I'm not sure,327601.7999999523,NA,null,<p></p>,null,choice,ct,binary,attraction,NA,washing machines,null,null,null,null,null,null,2,NA,NA,NA,NA,NA,NA,NA,NA,NA,NA
NA,NA,NA,NA,NA,choice_trial,survey-html-form,13,94570,0.0-4.0-1.4,314,1,2025-05-08T14:33:58Z,b60275e29fe2361ab97ac0ac217840d7,"Mozilla/5.0 (Macintosh; Intel Mac OS X 10_15_7) AppleWebKit/537.36 (KHTML, like Gecko) Chrome/134.0.0.0 Safari/537.36",Macintosh,Chrome,134.0.0.0,OS X,10_15_7,https://5puzkbbxv1.cognition.run/?sona_id=47912,"en-US,en;q=0.9",ufvtzbsp1ag4xd4,22,"[""Black or African-American""]",No,Female,"Uganda for 5 years
Kenya for 1 year",I'm not sure,327601.7999999523,NA,10242,NA,"{""product_choice"":""A""}",choice,ct,binary,attraction,NA,washing machines,null,null,null,null,null,null,2,60,50,null,50,60,null,Average lifespan,Energy savings,NA,NA
NA,NA,NA,NA,NA,choice_trial_setup,html-keyboard-response,14,94873,0.0-4.0-0.5,314,1,2025-05-08T14:33:58Z,b60275e29fe2361ab97ac0ac217840d7,"Mozilla/5.0 (Macintosh; Intel Mac OS X 10_15_7) AppleWebKit/537.36 (KHTML, like Gecko) Chrome/134.0.0.0 Safari/537.36",Macintosh,Chrome,134.0.0.0,OS X,10_15_7,https://5puzkbbxv1.cognition.run/?sona_id=47912,"en-US,en;q=0.9",ufvtzbsp1ag4xd4,22,"[""Black or African-American""]",No,Female,"Uganda for 5 years
Kenya for 1 year",I'm not sure,327601.7999999523,NA,null,<p></p>,null,choice,bww,trinary,catch,null,microwave ovens,70,65,45,30,45,15,1,NA,NA,NA,NA,NA,NA,NA,NA,NA,NA
NA,NA,NA,NA,NA,choice_trial,survey-html-form,15,101770,0.0-4.0-1.5,314,1,2025-05-08T14:33:58Z,b60275e29fe2361ab97ac0ac217840d7,"Mozilla/5.0 (Macintosh; Intel Mac OS X 10_15_7) AppleWebKit/537.36 (KHTML, like Gecko) Chrome/134.0.0.0 Safari/537.36",Macintosh,Chrome,134.0.0.0,OS X,10_15_7,https://5puzkbbxv1.cognition.run/?sona_id=47912,"en-US,en;q=0.9",ufvtzbsp1ag4xd4,22,"[""Black or African-American""]",No,Female,"Uganda for 5 years
Kenya for 1 year",I'm not sure,327601.7999999523,NA,6895,NA,"{""product_choice"":""A""}",choice,bww,trinary,catch,null,microwave ovens,70,65,45,30,45,15,1,null,null,null,null,null,null,Warranty,Cooking power,NA,NA
NA,NA,NA,NA,NA,choice_trial_setup,html-keyboard-response,16,102073,0.0-4.0-0.6,314,1,2025-05-08T14:33:58Z,b60275e29fe2361ab97ac0ac217840d7,"Mozilla/5.0 (Macintosh; Intel Mac OS X 10_15_7) AppleWebKit/537.36 (KHTML, like Gecko) Chrome/134.0.0.0 Safari/537.36",Macintosh,Chrome,134.0.0.0,OS X,10_15_7,https://5puzkbbxv1.cognition.run/?sona_id=47912,"en-US,en;q=0.9",ufvtzbsp1ag4xd4,22,"[""Black or African-American""]",No,Female,"Uganda for 5 years
Kenya for 1 year",I'm not sure,327601.7999999523,NA,null,<p></p>,null,choice,ct,binary,repulsion,2,laptops,null,null,null,null,null,null,1,NA,NA,NA,NA,NA,NA,NA,NA,NA,NA
NA,NA,NA,NA,NA,choice_trial,survey-html-form,17,107455,0.0-4.0-1.6,314,1,2025-05-08T14:33:58Z,b60275e29fe2361ab97ac0ac217840d7,"Mozilla/5.0 (Macintosh; Intel Mac OS X 10_15_7) AppleWebKit/537.36 (KHTML, like Gecko) Chrome/134.0.0.0 Safari/537.36",Macintosh,Chrome,134.0.0.0,OS X,10_15_7,https://5puzkbbxv1.cognition.run/?sona_id=47912,"en-US,en;q=0.9",ufvtzbsp1ag4xd4,22,"[""Black or African-American""]",No,Female,"Uganda for 5 years
Kenya for 1 year",I'm not sure,327601.7999999523,NA,5378,NA,"{""product_choice"":""A""}",choice,ct,binary,repulsion,2,laptops,null,null,null,null,null,null,1,30,40,null,100,90,null,Processing speed,Memory (RAM),NA,NA
NA,NA,NA,NA,NA,choice_trial_setup,html-keyboard-response,18,107759,0.0-4.0-0.7,314,1,2025-05-08T14:33:58Z,b60275e29fe2361ab97ac0ac217840d7,"Mozilla/5.0 (Macintosh; Intel Mac OS X 10_15_7) AppleWebKit/537.36 (KHTML, like Gecko) Chrome/134.0.0.0 Safari/537.36",Macintosh,Chrome,134.0.0.0,OS X,10_15_7,https://5puzkbbxv1.cognition.run/?sona_id=47912,"en-US,en;q=0.9",ufvtzbsp1ag4xd4,22,"[""Black or African-American""]",No,Female,"Uganda for 5 years
Kenya for 1 year",I'm not sure,327601.7999999523,NA,null,<p></p>,null,choice,tc,binary,repulsion,1,televisions,null,null,null,null,null,null,1,NA,NA,NA,NA,NA,NA,NA,NA,NA,NA
NA,NA,NA,NA,NA,choice_trial,survey-html-form,19,111353,0.0-4.0-1.7,314,1,2025-05-08T14:33:58Z,b60275e29fe2361ab97ac0ac217840d7,"Mozilla/5.0 (Macintosh; Intel Mac OS X 10_15_7) AppleWebKit/537.36 (KHTML, like Gecko) Chrome/134.0.0.0 Safari/537.36",Macintosh,Chrome,134.0.0.0,OS X,10_15_7,https://5puzkbbxv1.cognition.run/?sona_id=47912,"en-US,en;q=0.9",ufvtzbsp1ag4xd4,22,"[""Black or African-American""]",No,Female,"Uganda for 5 years
Kenya for 1 year",I'm not sure,327601.7999999523,NA,3591,NA,"{""product_choice"":""B""}",choice,tc,binary,repulsion,1,televisions,null,null,null,null,null,null,1,100,90,null,30,40,null,Screen size,Average lifespan,NA,NA
NA,NA,NA,NA,NA,choice_trial_setup,html-keyboard-response,20,111656,0.0-4.0-0.8,314,1,2025-05-08T14:33:58Z,b60275e29fe2361ab97ac0ac217840d7,"Mozilla/5.0 (Macintosh; Intel Mac OS X 10_15_7) AppleWebKit/537.36 (KHTML, like Gecko) Chrome/134.0.0.0 Safari/537.36",Macintosh,Chrome,134.0.0.0,OS X,10_15_7,https://5puzkbbxv1.cognition.run/?sona_id=47912,"en-US,en;q=0.9",ufvtzbsp1ag4xd4,22,"[""Black or African-American""]",No,Female,"Uganda for 5 years
Kenya for 1 year",I'm not sure,327601.7999999523,NA,null,<p></p>,null,choice,ct,binary,repulsion,1,washing machines,null,null,null,null,null,null,2,NA,NA,NA,NA,NA,NA,NA,NA,NA,NA
NA,NA,NA,NA,NA,choice_trial,survey-html-form,21,114954,0.0-4.0-1.8,314,1,2025-05-08T14:33:58Z,b60275e29fe2361ab97ac0ac217840d7,"Mozilla/5.0 (Macintosh; Intel Mac OS X 10_15_7) AppleWebKit/537.36 (KHTML, like Gecko) Chrome/134.0.0.0 Safari/537.36",Macintosh,Chrome,134.0.0.0,OS X,10_15_7,https://5puzkbbxv1.cognition.run/?sona_id=47912,"en-US,en;q=0.9",ufvtzbsp1ag4xd4,22,"[""Black or African-American""]",No,Female,"Uganda for 5 years
Kenya for 1 year",I'm not sure,327601.7999999523,NA,3295,NA,"{""product_choice"":""B""}",choice,ct,binary,repulsion,1,washing machines,null,null,null,null,null,null,2,100,90,null,30,40,null,Average lifespan,Energy savings,NA,NA
NA,NA,NA,NA,NA,choice_trial_setup,html-keyboard-response,22,115256,0.0-4.0-0.9,314,1,2025-05-08T14:33:58Z,b60275e29fe2361ab97ac0ac217840d7,"Mozilla/5.0 (Macintosh; Intel Mac OS X 10_15_7) AppleWebKit/537.36 (KHTML, like Gecko) Chrome/134.0.0.0 Safari/537.36",Macintosh,Chrome,134.0.0.0,OS X,10_15_7,https://5puzkbbxv1.cognition.run/?sona_id=47912,"en-US,en;q=0.9",ufvtzbsp1ag4xd4,22,"[""Black or African-American""]",No,Female,"Uganda for 5 years
Kenya for 1 year",I'm not sure,327601.7999999523,NA,null,<p></p>,null,choice,dtc,trinary,repulsion_B,1,televisions,null,null,null,null,null,null,1,NA,NA,NA,NA,NA,NA,NA,NA,NA,NA
NA,NA,NA,NA,NA,choice_trial,survey-html-form,23,123354,0.0-4.0-1.9,314,1,2025-05-08T14:33:58Z,b60275e29fe2361ab97ac0ac217840d7,"Mozilla/5.0 (Macintosh; Intel Mac OS X 10_15_7) AppleWebKit/537.36 (KHTML, like Gecko) Chrome/134.0.0.0 Safari/537.36",Macintosh,Chrome,134.0.0.0,OS X,10_15_7,https://5puzkbbxv1.cognition.run/?sona_id=47912,"en-US,en;q=0.9",ufvtzbsp1ag4xd4,22,"[""Black or African-American""]",No,Female,"Uganda for 5 years
Kenya for 1 year",I'm not sure,327601.7999999523,NA,8096,NA,"{""product_choice"":""B""}",choice,dtc,trinary,repulsion_B,1,televisions,null,null,null,null,null,null,1,90,100,80,40,30,40,Screen size,Average lifespan,NA,NA
NA,NA,NA,NA,NA,choice_trial_setup,html-keyboard-response,24,123658,0.0-4.0-0.10,314,1,2025-05-08T14:33:58Z,b60275e29fe2361ab97ac0ac217840d7,"Mozilla/5.0 (Macintosh; Intel Mac OS X 10_15_7) AppleWebKit/537.36 (KHTML, like Gecko) Chrome/134.0.0.0 Safari/537.36",Macintosh,Chrome,134.0.0.0,OS X,10_15_7,https://5puzkbbxv1.cognition.run/?sona_id=47912,"en-US,en;q=0.9",ufvtzbsp1ag4xd4,22,"[""Black or African-American""]",No,Female,"Uganda for 5 years
Kenya for 1 year",I'm not sure,327601.7999999523,NA,null,<p></p>,null,choice,tcd,trinary,repulsion_B,2,microwave ovens,null,null,null,null,null,null,1,NA,NA,NA,NA,NA,NA,NA,NA,NA,NA
NA,NA,NA,NA,NA,choice_trial,survey-html-form,25,128303,0.0-4.0-1.10,314,1,2025-05-08T14:33:58Z,b60275e29fe2361ab97ac0ac217840d7,"Mozilla/5.0 (Macintosh; Intel Mac OS X 10_15_7) AppleWebKit/537.36 (KHTML, like Gecko) Chrome/134.0.0.0 Safari/537.36",Macintosh,Chrome,134.0.0.0,OS X,10_15_7,https://5puzkbbxv1.cognition.run/?sona_id=47912,"en-US,en;q=0.9",ufvtzbsp1ag4xd4,22,"[""Black or African-American""]",No,Female,"Uganda for 5 years
Kenya for 1 year",I'm not sure,327601.7999999523,NA,4642,NA,"{""product_choice"":""A""}",choice,tcd,trinary,repulsion_B,2,microwave ovens,null,null,null,null,null,null,1,40,30,40,90,100,80,Warranty,Cooking power,NA,NA
NA,NA,NA,NA,NA,choice_trial_setup,html-keyboard-response,26,128606,0.0-4.0-0.11,314,1,2025-05-08T14:33:58Z,b60275e29fe2361ab97ac0ac217840d7,"Mozilla/5.0 (Macintosh; Intel Mac OS X 10_15_7) AppleWebKit/537.36 (KHTML, like Gecko) Chrome/134.0.0.0 Safari/537.36",Macintosh,Chrome,134.0.0.0,OS X,10_15_7,https://5puzkbbxv1.cognition.run/?sona_id=47912,"en-US,en;q=0.9",ufvtzbsp1ag4xd4,22,"[""Black or African-American""]",No,Female,"Uganda for 5 years
Kenya for 1 year",I'm not sure,327601.7999999523,NA,null,<p></p>,null,choice,dtc,trinary,attraction,1,microwave ovens,null,null,null,null,null,null,2,NA,NA,NA,NA,NA,NA,NA,NA,NA,NA
NA,NA,NA,NA,NA,choice_trial,survey-html-form,27,130637,0.0-4.0-1.11,314,1,2025-05-08T14:33:58Z,b60275e29fe2361ab97ac0ac217840d7,"Mozilla/5.0 (Macintosh; Intel Mac OS X 10_15_7) AppleWebKit/537.36 (KHTML, like Gecko) Chrome/134.0.0.0 Safari/537.36",Macintosh,Chrome,134.0.0.0,OS X,10_15_7,https://5puzkbbxv1.cognition.run/?sona_id=47912,"en-US,en;q=0.9",ufvtzbsp1ag4xd4,22,"[""Black or African-American""]",No,Female,"Uganda for 5 years
Kenya for 1 year",I'm not sure,327601.7999999523,NA,2028,NA,"{""product_choice"":""B""}",choice,dtc,trinary,attraction,1,microwave ovens,null,null,null,null,null,null,2,60,50,60,50,60,40,Warranty,Cooking power,NA,NA
NA,NA,NA,NA,NA,choice_trial_setup,html-keyboard-response,28,130940,0.0-4.0-0.12,314,1,2025-05-08T14:33:58Z,b60275e29fe2361ab97ac0ac217840d7,"Mozilla/5.0 (Macintosh; Intel Mac OS X 10_15_7) AppleWebKit/537.36 (KHTML, like Gecko) Chrome/134.0.0.0 Safari/537.36",Macintosh,Chrome,134.0.0.0,OS X,10_15_7,https://5puzkbbxv1.cognition.run/?sona_id=47912,"en-US,en;q=0.9",ufvtzbsp1ag4xd4,22,"[""Black or African-American""]",No,Female,"Uganda for 5 years
Kenya for 1 year",I'm not sure,327601.7999999523,NA,null,<p></p>,null,choice,dtc,trinary,repulsion_B,2,laptops,null,null,null,null,null,null,1,NA,NA,NA,NA,NA,NA,NA,NA,NA,NA
NA,NA,NA,NA,NA,choice_trial,survey-html-form,29,133254,0.0-4.0-1.12,314,1,2025-05-08T14:33:58Z,b60275e29fe2361ab97ac0ac217840d7,"Mozilla/5.0 (Macintosh; Intel Mac OS X 10_15_7) AppleWebKit/537.36 (KHTML, like Gecko) Chrome/134.0.0.0 Safari/537.36",Macintosh,Chrome,134.0.0.0,OS X,10_15_7,https://5puzkbbxv1.cognition.run/?sona_id=47912,"en-US,en;q=0.9",ufvtzbsp1ag4xd4,22,"[""Black or African-American""]",No,Female,"Uganda for 5 years
Kenya for 1 year",I'm not sure,327601.7999999523,NA,2312,NA,"{""product_choice"":""A""}",choice,dtc,trinary,repulsion_B,2,laptops,null,null,null,null,null,null,1,40,30,40,90,100,80,Processing speed,Memory (RAM),NA,NA
NA,NA,NA,NA,NA,choice_trial_setup,html-keyboard-response,30,133558,0.0-4.0-0.13,314,1,2025-05-08T14:33:58Z,b60275e29fe2361ab97ac0ac217840d7,"Mozilla/5.0 (Macintosh; Intel Mac OS X 10_15_7) AppleWebKit/537.36 (KHTML, like Gecko) Chrome/134.0.0.0 Safari/537.36",Macintosh,Chrome,134.0.0.0,OS X,10_15_7,https://5puzkbbxv1.cognition.run/?sona_id=47912,"en-US,en;q=0.9",ufvtzbsp1ag4xd4,22,"[""Black or African-American""]",No,Female,"Uganda for 5 years
Kenya for 1 year",I'm not sure,327601.7999999523,NA,null,<p></p>,null,choice,dct,trinary,repulsion_B,2,washing machines,null,null,null,null,null,null,1,NA,NA,NA,NA,NA,NA,NA,NA,NA,NA
NA,NA,NA,NA,NA,choice_trial,survey-html-form,31,135420,0.0-4.0-1.13,314,1,2025-05-08T14:33:58Z,b60275e29fe2361ab97ac0ac217840d7,"Mozilla/5.0 (Macintosh; Intel Mac OS X 10_15_7) AppleWebKit/537.36 (KHTML, like Gecko) Chrome/134.0.0.0 Safari/537.36",Macintosh,Chrome,134.0.0.0,OS X,10_15_7,https://5puzkbbxv1.cognition.run/?sona_id=47912,"en-US,en;q=0.9",ufvtzbsp1ag4xd4,22,"[""Black or African-American""]",No,Female,"Uganda for 5 years
Kenya for 1 year",I'm not sure,327601.7999999523,NA,1860,NA,"{""product_choice"":""B""}",choice,dct,trinary,repulsion_B,2,washing machines,null,null,null,null,null,null,1,40,30,40,90,100,80,Average lifespan,Energy savings,NA,NA
NA,NA,NA,NA,NA,choice_trial_setup,html-keyboard-response,32,135723,0.0-4.0-0.14,314,1,2025-05-08T14:33:58Z,b60275e29fe2361ab97ac0ac217840d7,"Mozilla/5.0 (Macintosh; Intel Mac OS X 10_15_7) AppleWebKit/537.36 (KHTML, like Gecko) Chrome/134.0.0.0 Safari/537.36",Macintosh,Chrome,134.0.0.0,OS X,10_15_7,https://5puzkbbxv1.cognition.run/?sona_id=47912,"en-US,en;q=0.9",ufvtzbsp1ag4xd4,22,"[""Black or African-American""]",No,Female,"Uganda for 5 years
Kenya for 1 year",I'm not sure,327601.7999999523,NA,null,<p></p>,null,choice,dct,trinary,attraction,1,washing machines,null,null,null,null,null,null,1,NA,NA,NA,NA,NA,NA,NA,NA,NA,NA
NA,NA,NA,NA,NA,choice_trial,survey-html-form,33,152288,0.0-4.0-1.14,314,1,2025-05-08T14:33:58Z,b60275e29fe2361ab97ac0ac217840d7,"Mozilla/5.0 (Macintosh; Intel Mac OS X 10_15_7) AppleWebKit/537.36 (KHTML, like Gecko) Chrome/134.0.0.0 Safari/537.36",Macintosh,Chrome,134.0.0.0,OS X,10_15_7,https://5puzkbbxv1.cognition.run/?sona_id=47912,"en-US,en;q=0.9",ufvtzbsp1ag4xd4,22,"[""Black or African-American""]",No,Female,"Uganda for 5 years
Kenya for 1 year",I'm not sure,327601.7999999523,NA,16562,NA,"{""product_choice"":""C""}",choice,dct,trinary,attraction,1,washing machines,null,null,null,null,null,null,1,60,50,60,50,60,40,Average lifespan,Energy savings,NA,NA
NA,NA,NA,NA,NA,choice_trial_setup,html-keyboard-response,34,152592,0.0-4.0-0.15,314,1,2025-05-08T14:33:58Z,b60275e29fe2361ab97ac0ac217840d7,"Mozilla/5.0 (Macintosh; Intel Mac OS X 10_15_7) AppleWebKit/537.36 (KHTML, like Gecko) Chrome/134.0.0.0 Safari/537.36",Macintosh,Chrome,134.0.0.0,OS X,10_15_7,https://5puzkbbxv1.cognition.run/?sona_id=47912,"en-US,en;q=0.9",ufvtzbsp1ag4xd4,22,"[""Black or African-American""]",No,Female,"Uganda for 5 years
Kenya for 1 year",I'm not sure,327601.7999999523,NA,null,<p></p>,null,choice,tcd,trinary,repulsion_B,1,microwave ovens,null,null,null,null,null,null,1,NA,NA,NA,NA,NA,NA,NA,NA,NA,NA
NA,NA,NA,NA,NA,choice_trial,survey-html-form,35,156903,0.0-4.0-1.15,314,1,2025-05-08T14:33:58Z,b60275e29fe2361ab97ac0ac217840d7,"Mozilla/5.0 (Macintosh; Intel Mac OS X 10_15_7) AppleWebKit/537.36 (KHTML, like Gecko) Chrome/134.0.0.0 Safari/537.36",Macintosh,Chrome,134.0.0.0,OS X,10_15_7,https://5puzkbbxv1.cognition.run/?sona_id=47912,"en-US,en;q=0.9",ufvtzbsp1ag4xd4,22,"[""Black or African-American""]",No,Female,"Uganda for 5 years
Kenya for 1 year",I'm not sure,327601.7999999523,NA,4307,NA,"{""product_choice"":""A""}",choice,tcd,trinary,repulsion_B,1,microwave ovens,null,null,null,null,null,null,1,90,100,80,40,30,40,Warranty,Cooking power,NA,NA
NA,NA,NA,NA,NA,choice_trial_setup,html-keyboard-response,36,157206,0.0-4.0-0.16,314,1,2025-05-08T14:33:58Z,b60275e29fe2361ab97ac0ac217840d7,"Mozilla/5.0 (Macintosh; Intel Mac OS X 10_15_7) AppleWebKit/537.36 (KHTML, like Gecko) Chrome/134.0.0.0 Safari/537.36",Macintosh,Chrome,134.0.0.0,OS X,10_15_7,https://5puzkbbxv1.cognition.run/?sona_id=47912,"en-US,en;q=0.9",ufvtzbsp1ag4xd4,22,"[""Black or African-American""]",No,Female,"Uganda for 5 years
Kenya for 1 year",I'm not sure,327601.7999999523,NA,null,<p></p>,null,choice,bw,binary,catch,null,televisions,95,95,30,35,null,null,1,NA,NA,NA,NA,NA,NA,NA,NA,NA,NA
NA,NA,NA,NA,NA,choice_trial,survey-html-form,37,161921,0.0-4.0-1.16,314,1,2025-05-08T14:33:58Z,b60275e29fe2361ab97ac0ac217840d7,"Mozilla/5.0 (Macintosh; Intel Mac OS X 10_15_7) AppleWebKit/537.36 (KHTML, like Gecko) Chrome/134.0.0.0 Safari/537.36",Macintosh,Chrome,134.0.0.0,OS X,10_15_7,https://5puzkbbxv1.cognition.run/?sona_id=47912,"en-US,en;q=0.9",ufvtzbsp1ag4xd4,22,"[""Black or African-American""]",No,Female,"Uganda for 5 years
Kenya for 1 year",I'm not sure,327601.7999999523,NA,4712,NA,"{""product_choice"":""A""}",choice,bw,binary,catch,null,televisions,95,95,30,35,null,null,1,null,null,null,null,null,null,Screen size,Average lifespan,NA,NA
NA,NA,NA,NA,NA,choice_trial_setup,html-keyboard-response,38,162225,0.0-4.0-0.17,314,1,2025-05-08T14:33:58Z,b60275e29fe2361ab97ac0ac217840d7,"Mozilla/5.0 (Macintosh; Intel Mac OS X 10_15_7) AppleWebKit/537.36 (KHTML, like Gecko) Chrome/134.0.0.0 Safari/537.36",Macintosh,Chrome,134.0.0.0,OS X,10_15_7,https://5puzkbbxv1.cognition.run/?sona_id=47912,"en-US,en;q=0.9",ufvtzbsp1ag4xd4,22,"[""Black or African-American""]",No,Female,"Uganda for 5 years
Kenya for 1 year",I'm not sure,327601.7999999523,NA,null,<p></p>,null,choice,ct,binary,attraction,NA,microwave ovens,null,null,null,null,null,null,1,NA,NA,NA,NA,NA,NA,NA,NA,NA,NA
NA,NA,NA,NA,NA,choice_trial,survey-html-form,39,166270,0.0-4.0-1.17,314,1,2025-05-08T14:33:58Z,b60275e29fe2361ab97ac0ac217840d7,"Mozilla/5.0 (Macintosh; Intel Mac OS X 10_15_7) AppleWebKit/537.36 (KHTML, like Gecko) Chrome/134.0.0.0 Safari/537.36",Macintosh,Chrome,134.0.0.0,OS X,10_15_7,https://5puzkbbxv1.cognition.run/?sona_id=47912,"en-US,en;q=0.9",ufvtzbsp1ag4xd4,22,"[""Black or African-American""]",No,Female,"Uganda for 5 years
Kenya for 1 year",I'm not sure,327601.7999999523,NA,4042,NA,"{""product_choice"":""A""}",choice,ct,binary,attraction,NA,microwave ovens,null,null,null,null,null,null,1,60,50,null,50,60,null,Warranty,Cooking power,NA,NA
NA,NA,NA,NA,NA,choice_trial_setup,html-keyboard-response,40,166574,0.0-4.0-0.18,314,1,2025-05-08T14:33:58Z,b60275e29fe2361ab97ac0ac217840d7,"Mozilla/5.0 (Macintosh; Intel Mac OS X 10_15_7) AppleWebKit/537.36 (KHTML, like Gecko) Chrome/134.0.0.0 Safari/537.36",Macintosh,Chrome,134.0.0.0,OS X,10_15_7,https://5puzkbbxv1.cognition.run/?sona_id=47912,"en-US,en;q=0.9",ufvtzbsp1ag4xd4,22,"[""Black or African-American""]",No,Female,"Uganda for 5 years
Kenya for 1 year",I'm not sure,327601.7999999523,NA,null,<p></p>,null,choice,dtc,trinary,repulsion_A,2,washing machines,null,null,null,null,null,null,2,NA,NA,NA,NA,NA,NA,NA,NA,NA,NA
NA,NA,NA,NA,NA,choice_trial,survey-html-form,41,169487,0.0-4.0-1.18,314,1,2025-05-08T14:33:58Z,b60275e29fe2361ab97ac0ac217840d7,"Mozilla/5.0 (Macintosh; Intel Mac OS X 10_15_7) AppleWebKit/537.36 (KHTML, like Gecko) Chrome/134.0.0.0 Safari/537.36",Macintosh,Chrome,134.0.0.0,OS X,10_15_7,https://5puzkbbxv1.cognition.run/?sona_id=47912,"en-US,en;q=0.9",ufvtzbsp1ag4xd4,22,"[""Black or African-American""]",No,Female,"Uganda for 5 years
Kenya for 1 year",I'm not sure,327601.7999999523,NA,2910,NA,"{""product_choice"":""C""}",choice,dtc,trinary,repulsion_A,2,washing machines,null,null,null,null,null,null,2,30,40,20,100,90,100,Average lifespan,Energy savings,NA,NA
NA,NA,NA,NA,NA,choice_trial_setup,html-keyboard-response,42,169791,0.0-4.0-0.19,314,1,2025-05-08T14:33:58Z,b60275e29fe2361ab97ac0ac217840d7,"Mozilla/5.0 (Macintosh; Intel Mac OS X 10_15_7) AppleWebKit/537.36 (KHTML, like Gecko) Chrome/134.0.0.0 Safari/537.36",Macintosh,Chrome,134.0.0.0,OS X,10_15_7,https://5puzkbbxv1.cognition.run/?sona_id=47912,"en-US,en;q=0.9",ufvtzbsp1ag4xd4,22,"[""Black or African-American""]",No,Female,"Uganda for 5 years
Kenya for 1 year",I'm not sure,327601.7999999523,NA,null,<p></p>,null,choice,ctd,trinary,attraction,2,microwave ovens,null,null,null,null,null,null,1,NA,NA,NA,NA,NA,NA,NA,NA,NA,NA
NA,NA,NA,NA,NA,choice_trial,survey-html-form,43,175005,0.0-4.0-1.19,314,1,2025-05-08T14:33:58Z,b60275e29fe2361ab97ac0ac217840d7,"Mozilla/5.0 (Macintosh; Intel Mac OS X 10_15_7) AppleWebKit/537.36 (KHTML, like Gecko) Chrome/134.0.0.0 Safari/537.36",Macintosh,Chrome,134.0.0.0,OS X,10_15_7,https://5puzkbbxv1.cognition.run/?sona_id=47912,"en-US,en;q=0.9",ufvtzbsp1ag4xd4,22,"[""Black or African-American""]",No,Female,"Uganda for 5 years
Kenya for 1 year",I'm not sure,327601.7999999523,NA,5211,NA,"{""product_choice"":""B""}",choice,ctd,trinary,attraction,2,microwave ovens,null,null,null,null,null,null,1,50,60,40,60,50,60,Warranty,Cooking power,NA,NA
NA,NA,NA,NA,NA,choice_trial_setup,html-keyboard-response,44,175310,0.0-4.0-0.20,314,1,2025-05-08T14:33:58Z,b60275e29fe2361ab97ac0ac217840d7,"Mozilla/5.0 (Macintosh; Intel Mac OS X 10_15_7) AppleWebKit/537.36 (KHTML, like Gecko) Chrome/134.0.0.0 Safari/537.36",Macintosh,Chrome,134.0.0.0,OS X,10_15_7,https://5puzkbbxv1.cognition.run/?sona_id=47912,"en-US,en;q=0.9",ufvtzbsp1ag4xd4,22,"[""Black or African-American""]",No,Female,"Uganda for 5 years
Kenya for 1 year",I'm not sure,327601.7999999523,NA,null,<p></p>,null,choice,tc,binary,repulsion,2,televisions,null,null,null,null,null,null,2,NA,NA,NA,NA,NA,NA,NA,NA,NA,NA
NA,NA,NA,NA,NA,choice_trial,survey-html-form,45,180421,0.0-4.0-1.20,314,1,2025-05-08T14:33:58Z,b60275e29fe2361ab97ac0ac217840d7,"Mozilla/5.0 (Macintosh; Intel Mac OS X 10_15_7) AppleWebKit/537.36 (KHTML, like Gecko) Chrome/134.0.0.0 Safari/537.36",Macintosh,Chrome,134.0.0.0,OS X,10_15_7,https://5puzkbbxv1.cognition.run/?sona_id=47912,"en-US,en;q=0.9",ufvtzbsp1ag4xd4,22,"[""Black or African-American""]",No,Female,"Uganda for 5 years
Kenya for 1 year",I'm not sure,327601.7999999523,NA,5107,NA,"{""product_choice"":""A""}",choice,tc,binary,repulsion,2,televisions,null,null,null,null,null,null,2,30,40,null,100,90,null,Screen size,Average lifespan,NA,NA
NA,NA,NA,NA,NA,choice_trial_setup,html-keyboard-response,46,180726,0.0-4.0-0.21,314,1,2025-05-08T14:33:58Z,b60275e29fe2361ab97ac0ac217840d7,"Mozilla/5.0 (Macintosh; Intel Mac OS X 10_15_7) AppleWebKit/537.36 (KHTML, like Gecko) Chrome/134.0.0.0 Safari/537.36",Macintosh,Chrome,134.0.0.0,OS X,10_15_7,https://5puzkbbxv1.cognition.run/?sona_id=47912,"en-US,en;q=0.9",ufvtzbsp1ag4xd4,22,"[""Black or African-American""]",No,Female,"Uganda for 5 years
Kenya for 1 year",I'm not sure,327601.7999999523,NA,null,<p></p>,null,choice,bww,trinary,catch,null,laptops,95,65,10,40,25,50,1,NA,NA,NA,NA,NA,NA,NA,NA,NA,NA
NA,NA,NA,NA,NA,choice_trial,survey-html-form,47,185621,0.0-4.0-1.21,314,1,2025-05-08T14:33:58Z,b60275e29fe2361ab97ac0ac217840d7,"Mozilla/5.0 (Macintosh; Intel Mac OS X 10_15_7) AppleWebKit/537.36 (KHTML, like Gecko) Chrome/134.0.0.0 Safari/537.36",Macintosh,Chrome,134.0.0.0,OS X,10_15_7,https://5puzkbbxv1.cognition.run/?sona_id=47912,"en-US,en;q=0.9",ufvtzbsp1ag4xd4,22,"[""Black or African-American""]",No,Female,"Uganda for 5 years
Kenya for 1 year",I'm not sure,327601.7999999523,NA,4892,NA,"{""product_choice"":""A""}",choice,bww,trinary,catch,null,laptops,95,65,10,40,25,50,1,null,null,null,null,null,null,Processing speed,Memory (RAM),NA,NA
NA,NA,NA,NA,NA,choice_trial_setup,html-keyboard-response,48,185924,0.0-4.0-0.22,314,1,2025-05-08T14:33:58Z,b60275e29fe2361ab97ac0ac217840d7,"Mozilla/5.0 (Macintosh; Intel Mac OS X 10_15_7) AppleWebKit/537.36 (KHTML, like Gecko) Chrome/134.0.0.0 Safari/537.36",Macintosh,Chrome,134.0.0.0,OS X,10_15_7,https://5puzkbbxv1.cognition.run/?sona_id=47912,"en-US,en;q=0.9",ufvtzbsp1ag4xd4,22,"[""Black or African-American""]",No,Female,"Uganda for 5 years
Kenya for 1 year",I'm not sure,327601.7999999523,NA,null,<p></p>,null,choice,ctd,trinary,repulsion_A,1,washing machines,null,null,null,null,null,null,1,NA,NA,NA,NA,NA,NA,NA,NA,NA,NA
NA,NA,NA,NA,NA,choice_trial,survey-html-form,49,191055,0.0-4.0-1.22,314,1,2025-05-08T14:33:58Z,b60275e29fe2361ab97ac0ac217840d7,"Mozilla/5.0 (Macintosh; Intel Mac OS X 10_15_7) AppleWebKit/537.36 (KHTML, like Gecko) Chrome/134.0.0.0 Safari/537.36",Macintosh,Chrome,134.0.0.0,OS X,10_15_7,https://5puzkbbxv1.cognition.run/?sona_id=47912,"en-US,en;q=0.9",ufvtzbsp1ag4xd4,22,"[""Black or African-American""]",No,Female,"Uganda for 5 years
Kenya for 1 year",I'm not sure,327601.7999999523,NA,5128,NA,"{""product_choice"":""A""}",choice,ctd,trinary,repulsion_A,1,washing machines,null,null,null,null,null,null,1,100,90,100,30,40,20,Average lifespan,Energy savings,NA,NA
NA,NA,NA,NA,NA,choice_trial_setup,html-keyboard-response,50,191358,0.0-4.0-0.23,314,1,2025-05-08T14:33:58Z,b60275e29fe2361ab97ac0ac217840d7,"Mozilla/5.0 (Macintosh; Intel Mac OS X 10_15_7) AppleWebKit/537.36 (KHTML, like Gecko) Chrome/134.0.0.0 Safari/537.36",Macintosh,Chrome,134.0.0.0,OS X,10_15_7,https://5puzkbbxv1.cognition.run/?sona_id=47912,"en-US,en;q=0.9",ufvtzbsp1ag4xd4,22,"[""Black or African-American""]",No,Female,"Uganda for 5 years
Kenya for 1 year",I'm not sure,327601.7999999523,NA,null,<p></p>,null,choice,dtc,trinary,repulsion_A,1,microwave ovens,null,null,null,null,null,null,2,NA,NA,NA,NA,NA,NA,NA,NA,NA,NA
NA,NA,NA,NA,NA,choice_trial,survey-html-form,51,197025,0.0-4.0-1.23,314,1,2025-05-08T14:33:58Z,b60275e29fe2361ab97ac0ac217840d7,"Mozilla/5.0 (Macintosh; Intel Mac OS X 10_15_7) AppleWebKit/537.36 (KHTML, like Gecko) Chrome/134.0.0.0 Safari/537.36",Macintosh,Chrome,134.0.0.0,OS X,10_15_7,https://5puzkbbxv1.cognition.run/?sona_id=47912,"en-US,en;q=0.9",ufvtzbsp1ag4xd4,22,"[""Black or African-American""]",No,Female,"Uganda for 5 years
Kenya for 1 year",I'm not sure,327601.7999999523,NA,5664,NA,"{""product_choice"":""C""}",choice,dtc,trinary,repulsion_A,1,microwave ovens,null,null,null,null,null,null,2,100,90,100,30,40,20,Warranty,Cooking power,NA,NA
NA,NA,NA,NA,NA,choice_trial_setup,html-keyboard-response,52,197329,0.0-4.0-0.24,314,1,2025-05-08T14:33:58Z,b60275e29fe2361ab97ac0ac217840d7,"Mozilla/5.0 (Macintosh; Intel Mac OS X 10_15_7) AppleWebKit/537.36 (KHTML, like Gecko) Chrome/134.0.0.0 Safari/537.36",Macintosh,Chrome,134.0.0.0,OS X,10_15_7,https://5puzkbbxv1.cognition.run/?sona_id=47912,"en-US,en;q=0.9",ufvtzbsp1ag4xd4,22,"[""Black or African-American""]",No,Female,"Uganda for 5 years
Kenya for 1 year",I'm not sure,327601.7999999523,NA,null,<p></p>,null,choice,tc,binary,repulsion,2,washing machines,null,null,null,null,null,null,1,NA,NA,NA,NA,NA,NA,NA,NA,NA,NA
NA,NA,NA,NA,NA,choice_trial,survey-html-form,53,200470,0.0-4.0-1.24,314,1,2025-05-08T14:33:58Z,b60275e29fe2361ab97ac0ac217840d7,"Mozilla/5.0 (Macintosh; Intel Mac OS X 10_15_7) AppleWebKit/537.36 (KHTML, like Gecko) Chrome/134.0.0.0 Safari/537.36",Macintosh,Chrome,134.0.0.0,OS X,10_15_7,https://5puzkbbxv1.cognition.run/?sona_id=47912,"en-US,en;q=0.9",ufvtzbsp1ag4xd4,22,"[""Black or African-American""]",No,Female,"Uganda for 5 years
Kenya for 1 year",I'm not sure,327601.7999999523,NA,3139,NA,"{""product_choice"":""B""}",choice,tc,binary,repulsion,2,washing machines,null,null,null,null,null,null,1,30,40,null,100,90,null,Average lifespan,Energy savings,NA,NA
NA,NA,NA,NA,NA,choice_trial_setup,html-keyboard-response,54,200775,0.0-4.0-0.25,314,1,2025-05-08T14:33:58Z,b60275e29fe2361ab97ac0ac217840d7,"Mozilla/5.0 (Macintosh; Intel Mac OS X 10_15_7) AppleWebKit/537.36 (KHTML, like Gecko) Chrome/134.0.0.0 Safari/537.36",Macintosh,Chrome,134.0.0.0,OS X,10_15_7,https://5puzkbbxv1.cognition.run/?sona_id=47912,"en-US,en;q=0.9",ufvtzbsp1ag4xd4,22,"[""Black or African-American""]",No,Female,"Uganda for 5 years
Kenya for 1 year",I'm not sure,327601.7999999523,NA,null,<p></p>,null,choice,wbw,trinary,catch,null,washing machines,85,55,50,15,15,15,1,NA,NA,NA,NA,NA,NA,NA,NA,NA,NA
NA,NA,NA,NA,NA,choice_trial,survey-html-form,55,203754,0.0-4.0-1.25,314,1,2025-05-08T14:33:58Z,b60275e29fe2361ab97ac0ac217840d7,"Mozilla/5.0 (Macintosh; Intel Mac OS X 10_15_7) AppleWebKit/537.36 (KHTML, like Gecko) Chrome/134.0.0.0 Safari/537.36",Macintosh,Chrome,134.0.0.0,OS X,10_15_7,https://5puzkbbxv1.cognition.run/?sona_id=47912,"en-US,en;q=0.9",ufvtzbsp1ag4xd4,22,"[""Black or African-American""]",No,Female,"Uganda for 5 years
Kenya for 1 year",I'm not sure,327601.7999999523,NA,2973,NA,"{""product_choice"":""B""}",choice,wbw,trinary,catch,null,washing machines,85,55,50,15,15,15,1,null,null,null,null,null,null,Average lifespan,Energy savings,NA,NA
NA,NA,NA,NA,NA,choice_trial_setup,html-keyboard-response,56,204058,0.0-4.0-0.26,314,1,2025-05-08T14:33:58Z,b60275e29fe2361ab97ac0ac217840d7,"Mozilla/5.0 (Macintosh; Intel Mac OS X 10_15_7) AppleWebKit/537.36 (KHTML, like Gecko) Chrome/134.0.0.0 Safari/537.36",Macintosh,Chrome,134.0.0.0,OS X,10_15_7,https://5puzkbbxv1.cognition.run/?sona_id=47912,"en-US,en;q=0.9",ufvtzbsp1ag4xd4,22,"[""Black or African-American""]",No,Female,"Uganda for 5 years
Kenya for 1 year",I'm not sure,327601.7999999523,NA,null,<p></p>,null,choice,wb,binary,catch,null,microwave ovens,50,60,30,5,null,null,1,NA,NA,NA,NA,NA,NA,NA,NA,NA,NA
NA,NA,NA,NA,NA,choice_trial,survey-html-form,57,206704,0.0-4.0-1.26,314,1,2025-05-08T14:33:58Z,b60275e29fe2361ab97ac0ac217840d7,"Mozilla/5.0 (Macintosh; Intel Mac OS X 10_15_7) AppleWebKit/537.36 (KHTML, like Gecko) Chrome/134.0.0.0 Safari/537.36",Macintosh,Chrome,134.0.0.0,OS X,10_15_7,https://5puzkbbxv1.cognition.run/?sona_id=47912,"en-US,en;q=0.9",ufvtzbsp1ag4xd4,22,"[""Black or African-American""]",No,Female,"Uganda for 5 years
Kenya for 1 year",I'm not sure,327601.7999999523,NA,2641,NA,"{""product_choice"":""B""}",choice,wb,binary,catch,null,microwave ovens,50,60,30,5,null,null,1,null,null,null,null,null,null,Warranty,Cooking power,NA,NA
NA,NA,NA,NA,NA,choice_trial_setup,html-keyboard-response,58,207009,0.0-4.0-0.27,314,1,2025-05-08T14:33:58Z,b60275e29fe2361ab97ac0ac217840d7,"Mozilla/5.0 (Macintosh; Intel Mac OS X 10_15_7) AppleWebKit/537.36 (KHTML, like Gecko) Chrome/134.0.0.0 Safari/537.36",Macintosh,Chrome,134.0.0.0,OS X,10_15_7,https://5puzkbbxv1.cognition.run/?sona_id=47912,"en-US,en;q=0.9",ufvtzbsp1ag4xd4,22,"[""Black or African-American""]",No,Female,"Uganda for 5 years
Kenya for 1 year",I'm not sure,327601.7999999523,NA,null,<p></p>,null,choice,tdc,trinary,attraction,1,televisions,null,null,null,null,null,null,2,NA,NA,NA,NA,NA,NA,NA,NA,NA,NA
NA,NA,NA,NA,NA,choice_trial,survey-html-form,59,211955,0.0-4.0-1.27,314,1,2025-05-08T14:33:58Z,b60275e29fe2361ab97ac0ac217840d7,"Mozilla/5.0 (Macintosh; Intel Mac OS X 10_15_7) AppleWebKit/537.36 (KHTML, like Gecko) Chrome/134.0.0.0 Safari/537.36",Macintosh,Chrome,134.0.0.0,OS X,10_15_7,https://5puzkbbxv1.cognition.run/?sona_id=47912,"en-US,en;q=0.9",ufvtzbsp1ag4xd4,22,"[""Black or African-American""]",No,Female,"Uganda for 5 years
Kenya for 1 year",I'm not sure,327601.7999999523,NA,4941,NA,"{""product_choice"":""C""}",choice,tdc,trinary,attraction,1,televisions,null,null,null,null,null,null,2,60,50,60,50,60,40,Screen size,Average lifespan,NA,NA
NA,NA,NA,NA,NA,choice_trial_setup,html-keyboard-response,60,212260,0.0-4.0-0.28,314,1,2025-05-08T14:33:58Z,b60275e29fe2361ab97ac0ac217840d7,"Mozilla/5.0 (Macintosh; Intel Mac OS X 10_15_7) AppleWebKit/537.36 (KHTML, like Gecko) Chrome/134.0.0.0 Safari/537.36",Macintosh,Chrome,134.0.0.0,OS X,10_15_7,https://5puzkbbxv1.cognition.run/?sona_id=47912,"en-US,en;q=0.9",ufvtzbsp1ag4xd4,22,"[""Black or African-American""]",No,Female,"Uganda for 5 years
Kenya for 1 year",I'm not sure,327601.7999999523,NA,null,<p></p>,null,choice,ct,binary,repulsion,1,laptops,null,null,null,null,null,null,2,NA,NA,NA,NA,NA,NA,NA,NA,NA,NA
NA,NA,NA,NA,NA,choice_trial,survey-html-form,61,215572,0.0-4.0-1.28,314,1,2025-05-08T14:33:58Z,b60275e29fe2361ab97ac0ac217840d7,"Mozilla/5.0 (Macintosh; Intel Mac OS X 10_15_7) AppleWebKit/537.36 (KHTML, like Gecko) Chrome/134.0.0.0 Safari/537.36",Macintosh,Chrome,134.0.0.0,OS X,10_15_7,https://5puzkbbxv1.cognition.run/?sona_id=47912,"en-US,en;q=0.9",ufvtzbsp1ag4xd4,22,"[""Black or African-American""]",No,Female,"Uganda for 5 years
Kenya for 1 year",I'm not sure,327601.7999999523,NA,3307,NA,"{""product_choice"":""A""}",choice,ct,binary,repulsion,1,laptops,null,null,null,null,null,null,2,100,90,null,30,40,null,Processing speed,Memory (RAM),NA,NA
NA,NA,NA,NA,NA,choice_trial_setup,html-keyboard-response,62,215877,0.0-4.0-0.29,314,1,2025-05-08T14:33:58Z,b60275e29fe2361ab97ac0ac217840d7,"Mozilla/5.0 (Macintosh; Intel Mac OS X 10_15_7) AppleWebKit/537.36 (KHTML, like Gecko) Chrome/134.0.0.0 Safari/537.36",Macintosh,Chrome,134.0.0.0,OS X,10_15_7,https://5puzkbbxv1.cognition.run/?sona_id=47912,"en-US,en;q=0.9",ufvtzbsp1ag4xd4,22,"[""Black or African-American""]",No,Female,"Uganda for 5 years
Kenya for 1 year",I'm not sure,327601.7999999523,NA,null,<p></p>,null,choice,dtc,trinary,repulsion_B,2,televisions,null,null,null,null,null,null,1,NA,NA,NA,NA,NA,NA,NA,NA,NA,NA
NA,NA,NA,NA,NA,choice_trial,survey-html-form,63,221955,0.0-4.0-1.29,314,1,2025-05-08T14:33:58Z,b60275e29fe2361ab97ac0ac217840d7,"Mozilla/5.0 (Macintosh; Intel Mac OS X 10_15_7) AppleWebKit/537.36 (KHTML, like Gecko) Chrome/134.0.0.0 Safari/537.36",Macintosh,Chrome,134.0.0.0,OS X,10_15_7,https://5puzkbbxv1.cognition.run/?sona_id=47912,"en-US,en;q=0.9",ufvtzbsp1ag4xd4,22,"[""Black or African-American""]",No,Female,"Uganda for 5 years
Kenya for 1 year",I'm not sure,327601.7999999523,NA,6074,NA,"{""product_choice"":""B""}",choice,dtc,trinary,repulsion_B,2,televisions,null,null,null,null,null,null,1,40,30,40,90,100,80,Screen size,Average lifespan,NA,NA
NA,NA,NA,NA,NA,choice_trial_setup,html-keyboard-response,64,222260,0.0-4.0-0.30,314,1,2025-05-08T14:33:58Z,b60275e29fe2361ab97ac0ac217840d7,"Mozilla/5.0 (Macintosh; Intel Mac OS X 10_15_7) AppleWebKit/537.36 (KHTML, like Gecko) Chrome/134.0.0.0 Safari/537.36",Macintosh,Chrome,134.0.0.0,OS X,10_15_7,https://5puzkbbxv1.cognition.run/?sona_id=47912,"en-US,en;q=0.9",ufvtzbsp1ag4xd4,22,"[""Black or African-American""]",No,Female,"Uganda for 5 years
Kenya for 1 year",I'm not sure,327601.7999999523,NA,null,<p></p>,null,choice,ct,binary,repulsion,2,microwave ovens,null,null,null,null,null,null,2,NA,NA,NA,NA,NA,NA,NA,NA,NA,NA
NA,NA,NA,NA,NA,choice_trial,survey-html-form,65,227187,0.0-4.0-1.30,314,1,2025-05-08T14:33:58Z,b60275e29fe2361ab97ac0ac217840d7,"Mozilla/5.0 (Macintosh; Intel Mac OS X 10_15_7) AppleWebKit/537.36 (KHTML, like Gecko) Chrome/134.0.0.0 Safari/537.36",Macintosh,Chrome,134.0.0.0,OS X,10_15_7,https://5puzkbbxv1.cognition.run/?sona_id=47912,"en-US,en;q=0.9",ufvtzbsp1ag4xd4,22,"[""Black or African-American""]",No,Female,"Uganda for 5 years
Kenya for 1 year",I'm not sure,327601.7999999523,NA,4921,NA,"{""product_choice"":""B""}",choice,ct,binary,repulsion,2,microwave ovens,null,null,null,null,null,null,2,30,40,null,100,90,null,Warranty,Cooking power,NA,NA
NA,NA,NA,NA,NA,choice_trial_setup,html-keyboard-response,66,227493,0.0-4.0-0.31,314,1,2025-05-08T14:33:58Z,b60275e29fe2361ab97ac0ac217840d7,"Mozilla/5.0 (Macintosh; Intel Mac OS X 10_15_7) AppleWebKit/537.36 (KHTML, like Gecko) Chrome/134.0.0.0 Safari/537.36",Macintosh,Chrome,134.0.0.0,OS X,10_15_7,https://5puzkbbxv1.cognition.run/?sona_id=47912,"en-US,en;q=0.9",ufvtzbsp1ag4xd4,22,"[""Black or African-American""]",No,Female,"Uganda for 5 years
Kenya for 1 year",I'm not sure,327601.7999999523,NA,null,<p></p>,null,choice,tdc,trinary,attraction,2,laptops,null,null,null,null,null,null,1,NA,NA,NA,NA,NA,NA,NA,NA,NA,NA
NA,NA,NA,NA,NA,choice_trial,survey-html-form,67,233004,0.0-4.0-1.31,314,1,2025-05-08T14:33:58Z,b60275e29fe2361ab97ac0ac217840d7,"Mozilla/5.0 (Macintosh; Intel Mac OS X 10_15_7) AppleWebKit/537.36 (KHTML, like Gecko) Chrome/134.0.0.0 Safari/537.36",Macintosh,Chrome,134.0.0.0,OS X,10_15_7,https://5puzkbbxv1.cognition.run/?sona_id=47912,"en-US,en;q=0.9",ufvtzbsp1ag4xd4,22,"[""Black or African-American""]",No,Female,"Uganda for 5 years
Kenya for 1 year",I'm not sure,327601.7999999523,NA,5506,NA,"{""product_choice"":""A""}",choice,tdc,trinary,attraction,2,laptops,null,null,null,null,null,null,1,50,60,40,60,50,60,Processing speed,Memory (RAM),NA,NA
NA,NA,NA,NA,NA,choice_trial_setup,html-keyboard-response,68,233310,0.0-4.0-0.32,314,1,2025-05-08T14:33:58Z,b60275e29fe2361ab97ac0ac217840d7,"Mozilla/5.0 (Macintosh; Intel Mac OS X 10_15_7) AppleWebKit/537.36 (KHTML, like Gecko) Chrome/134.0.0.0 Safari/537.36",Macintosh,Chrome,134.0.0.0,OS X,10_15_7,https://5puzkbbxv1.cognition.run/?sona_id=47912,"en-US,en;q=0.9",ufvtzbsp1ag4xd4,22,"[""Black or African-American""]",No,Female,"Uganda for 5 years
Kenya for 1 year",I'm not sure,327601.7999999523,NA,null,<p></p>,null,choice,dct,trinary,attraction,1,laptops,null,null,null,null,null,null,1,NA,NA,NA,NA,NA,NA,NA,NA,NA,NA
NA,NA,NA,NA,NA,choice_trial,survey-html-form,69,234938,0.0-4.0-1.32,314,1,2025-05-08T14:33:58Z,b60275e29fe2361ab97ac0ac217840d7,"Mozilla/5.0 (Macintosh; Intel Mac OS X 10_15_7) AppleWebKit/537.36 (KHTML, like Gecko) Chrome/134.0.0.0 Safari/537.36",Macintosh,Chrome,134.0.0.0,OS X,10_15_7,https://5puzkbbxv1.cognition.run/?sona_id=47912,"en-US,en;q=0.9",ufvtzbsp1ag4xd4,22,"[""Black or African-American""]",No,Female,"Uganda for 5 years
Kenya for 1 year",I'm not sure,327601.7999999523,NA,1622,NA,"{""product_choice"":""B""}",choice,dct,trinary,attraction,1,laptops,null,null,null,null,null,null,1,60,50,60,50,60,40,Processing speed,Memory (RAM),NA,NA
NA,NA,NA,NA,NA,choice_trial_setup,html-keyboard-response,70,235242,0.0-4.0-0.33,314,1,2025-05-08T14:33:58Z,b60275e29fe2361ab97ac0ac217840d7,"Mozilla/5.0 (Macintosh; Intel Mac OS X 10_15_7) AppleWebKit/537.36 (KHTML, like Gecko) Chrome/134.0.0.0 Safari/537.36",Macintosh,Chrome,134.0.0.0,OS X,10_15_7,https://5puzkbbxv1.cognition.run/?sona_id=47912,"en-US,en;q=0.9",ufvtzbsp1ag4xd4,22,"[""Black or African-American""]",No,Female,"Uganda for 5 years
Kenya for 1 year",I'm not sure,327601.7999999523,NA,null,<p></p>,null,choice,cdt,trinary,attraction,2,televisions,null,null,null,null,null,null,2,NA,NA,NA,NA,NA,NA,NA,NA,NA,NA
NA,NA,NA,NA,NA,choice_trial,survey-html-form,71,241738,0.0-4.0-1.33,314,1,2025-05-08T14:33:58Z,b60275e29fe2361ab97ac0ac217840d7,"Mozilla/5.0 (Macintosh; Intel Mac OS X 10_15_7) AppleWebKit/537.36 (KHTML, like Gecko) Chrome/134.0.0.0 Safari/537.36",Macintosh,Chrome,134.0.0.0,OS X,10_15_7,https://5puzkbbxv1.cognition.run/?sona_id=47912,"en-US,en;q=0.9",ufvtzbsp1ag4xd4,22,"[""Black or African-American""]",No,Female,"Uganda for 5 years
Kenya for 1 year",I'm not sure,327601.7999999523,NA,6492,NA,"{""product_choice"":""C""}",choice,cdt,trinary,attraction,2,televisions,null,null,null,null,null,null,2,50,60,40,60,50,60,Screen size,Average lifespan,NA,NA
NA,NA,NA,NA,NA,choice_trial_setup,html-keyboard-response,72,242042,0.0-4.0-0.34,314,1,2025-05-08T14:33:58Z,b60275e29fe2361ab97ac0ac217840d7,"Mozilla/5.0 (Macintosh; Intel Mac OS X 10_15_7) AppleWebKit/537.36 (KHTML, like Gecko) Chrome/134.0.0.0 Safari/537.36",Macintosh,Chrome,134.0.0.0,OS X,10_15_7,https://5puzkbbxv1.cognition.run/?sona_id=47912,"en-US,en;q=0.9",ufvtzbsp1ag4xd4,22,"[""Black or African-American""]",No,Female,"Uganda for 5 years
Kenya for 1 year",I'm not sure,327601.7999999523,NA,null,<p></p>,null,choice,tcd,trinary,repulsion_A,2,televisions,null,null,null,null,null,null,1,NA,NA,NA,NA,NA,NA,NA,NA,NA,NA
NA,NA,NA,NA,NA,choice_trial,survey-html-form,73,246954,0.0-4.0-1.34,314,1,2025-05-08T14:33:58Z,b60275e29fe2361ab97ac0ac217840d7,"Mozilla/5.0 (Macintosh; Intel Mac OS X 10_15_7) AppleWebKit/537.36 (KHTML, like Gecko) Chrome/134.0.0.0 Safari/537.36",Macintosh,Chrome,134.0.0.0,OS X,10_15_7,https://5puzkbbxv1.cognition.run/?sona_id=47912,"en-US,en;q=0.9",ufvtzbsp1ag4xd4,22,"[""Black or African-American""]",No,Female,"Uganda for 5 years
Kenya for 1 year",I'm not sure,327601.7999999523,NA,4909,NA,"{""product_choice"":""B""}",choice,tcd,trinary,repulsion_A,2,televisions,null,null,null,null,null,null,1,30,40,20,100,90,100,Screen size,Average lifespan,NA,NA
NA,NA,NA,NA,NA,choice_trial_setup,html-keyboard-response,74,247257,0.0-4.0-0.35,314,1,2025-05-08T14:33:58Z,b60275e29fe2361ab97ac0ac217840d7,"Mozilla/5.0 (Macintosh; Intel Mac OS X 10_15_7) AppleWebKit/537.36 (KHTML, like Gecko) Chrome/134.0.0.0 Safari/537.36",Macintosh,Chrome,134.0.0.0,OS X,10_15_7,https://5puzkbbxv1.cognition.run/?sona_id=47912,"en-US,en;q=0.9",ufvtzbsp1ag4xd4,22,"[""Black or African-American""]",No,Female,"Uganda for 5 years
Kenya for 1 year",I'm not sure,327601.7999999523,NA,null,<p></p>,null,choice,bw,binary,catch,null,laptops,75,95,20,25,null,null,2,NA,NA,NA,NA,NA,NA,NA,NA,NA,NA
NA,NA,NA,NA,NA,choice_trial,survey-html-form,75,250621,0.0-4.0-1.35,314,1,2025-05-08T14:33:58Z,b60275e29fe2361ab97ac0ac217840d7,"Mozilla/5.0 (Macintosh; Intel Mac OS X 10_15_7) AppleWebKit/537.36 (KHTML, like Gecko) Chrome/134.0.0.0 Safari/537.36",Macintosh,Chrome,134.0.0.0,OS X,10_15_7,https://5puzkbbxv1.cognition.run/?sona_id=47912,"en-US,en;q=0.9",ufvtzbsp1ag4xd4,22,"[""Black or African-American""]",No,Female,"Uganda for 5 years
Kenya for 1 year",I'm not sure,327601.7999999523,NA,3360,NA,"{""product_choice"":""A""}",choice,bw,binary,catch,null,laptops,75,95,20,25,null,null,2,null,null,null,null,null,null,Processing speed,Memory (RAM),NA,NA
NA,NA,NA,NA,NA,choice_trial_setup,html-keyboard-response,76,250926,0.0-4.0-0.36,314,1,2025-05-08T14:33:58Z,b60275e29fe2361ab97ac0ac217840d7,"Mozilla/5.0 (Macintosh; Intel Mac OS X 10_15_7) AppleWebKit/537.36 (KHTML, like Gecko) Chrome/134.0.0.0 Safari/537.36",Macintosh,Chrome,134.0.0.0,OS X,10_15_7,https://5puzkbbxv1.cognition.run/?sona_id=47912,"en-US,en;q=0.9",ufvtzbsp1ag4xd4,22,"[""Black or African-American""]",No,Female,"Uganda for 5 years
Kenya for 1 year",I'm not sure,327601.7999999523,NA,null,<p></p>,null,choice,ct,binary,attraction,NA,televisions,null,null,null,null,null,null,1,NA,NA,NA,NA,NA,NA,NA,NA,NA,NA
NA,NA,NA,NA,NA,choice_trial,survey-html-form,77,252140,0.0-4.0-1.36,314,1,2025-05-08T14:33:58Z,b60275e29fe2361ab97ac0ac217840d7,"Mozilla/5.0 (Macintosh; Intel Mac OS X 10_15_7) AppleWebKit/537.36 (KHTML, like Gecko) Chrome/134.0.0.0 Safari/537.36",Macintosh,Chrome,134.0.0.0,OS X,10_15_7,https://5puzkbbxv1.cognition.run/?sona_id=47912,"en-US,en;q=0.9",ufvtzbsp1ag4xd4,22,"[""Black or African-American""]",No,Female,"Uganda for 5 years
Kenya for 1 year",I'm not sure,327601.7999999523,NA,1209,NA,"{""product_choice"":""B""}",choice,ct,binary,attraction,NA,televisions,null,null,null,null,null,null,1,60,50,null,50,60,null,Screen size,Average lifespan,NA,NA
NA,NA,NA,NA,NA,choice_trial_setup,html-keyboard-response,78,252445,0.0-4.0-0.37,314,1,2025-05-08T14:33:58Z,b60275e29fe2361ab97ac0ac217840d7,"Mozilla/5.0 (Macintosh; Intel Mac OS X 10_15_7) AppleWebKit/537.36 (KHTML, like Gecko) Chrome/134.0.0.0 Safari/537.36",Macintosh,Chrome,134.0.0.0,OS X,10_15_7,https://5puzkbbxv1.cognition.run/?sona_id=47912,"en-US,en;q=0.9",ufvtzbsp1ag4xd4,22,"[""Black or African-American""]",No,Female,"Uganda for 5 years
Kenya for 1 year",I'm not sure,327601.7999999523,NA,null,<p></p>,null,choice,ct,binary,repulsion,1,microwave ovens,null,null,null,null,null,null,1,NA,NA,NA,NA,NA,NA,NA,NA,NA,NA
NA,NA,NA,NA,NA,choice_trial,survey-html-form,79,255071,0.0-4.0-1.37,314,1,2025-05-08T14:33:58Z,b60275e29fe2361ab97ac0ac217840d7,"Mozilla/5.0 (Macintosh; Intel Mac OS X 10_15_7) AppleWebKit/537.36 (KHTML, like Gecko) Chrome/134.0.0.0 Safari/537.36",Macintosh,Chrome,134.0.0.0,OS X,10_15_7,https://5puzkbbxv1.cognition.run/?sona_id=47912,"en-US,en;q=0.9",ufvtzbsp1ag4xd4,22,"[""Black or African-American""]",No,Female,"Uganda for 5 years
Kenya for 1 year",I'm not sure,327601.7999999523,NA,2622,NA,"{""product_choice"":""A""}",choice,ct,binary,repulsion,1,microwave ovens,null,null,null,null,null,null,1,100,90,null,30,40,null,Warranty,Cooking power,NA,NA
NA,NA,NA,NA,NA,choice_trial_setup,html-keyboard-response,80,255375,0.0-4.0-0.38,314,1,2025-05-08T14:33:58Z,b60275e29fe2361ab97ac0ac217840d7,"Mozilla/5.0 (Macintosh; Intel Mac OS X 10_15_7) AppleWebKit/537.36 (KHTML, like Gecko) Chrome/134.0.0.0 Safari/537.36",Macintosh,Chrome,134.0.0.0,OS X,10_15_7,https://5puzkbbxv1.cognition.run/?sona_id=47912,"en-US,en;q=0.9",ufvtzbsp1ag4xd4,22,"[""Black or African-American""]",No,Female,"Uganda for 5 years
Kenya for 1 year",I'm not sure,327601.7999999523,NA,null,<p></p>,null,choice,dct,trinary,repulsion_A,1,televisions,null,null,null,null,null,null,1,NA,NA,NA,NA,NA,NA,NA,NA,NA,NA
NA,NA,NA,NA,NA,choice_trial,survey-html-form,81,258288,0.0-4.0-1.38,314,1,2025-05-08T14:33:58Z,b60275e29fe2361ab97ac0ac217840d7,"Mozilla/5.0 (Macintosh; Intel Mac OS X 10_15_7) AppleWebKit/537.36 (KHTML, like Gecko) Chrome/134.0.0.0 Safari/537.36",Macintosh,Chrome,134.0.0.0,OS X,10_15_7,https://5puzkbbxv1.cognition.run/?sona_id=47912,"en-US,en;q=0.9",ufvtzbsp1ag4xd4,22,"[""Black or African-American""]",No,Female,"Uganda for 5 years
Kenya for 1 year",I'm not sure,327601.7999999523,NA,2909,NA,"{""product_choice"":""B""}",choice,dct,trinary,repulsion_A,1,televisions,null,null,null,null,null,null,1,100,90,100,30,40,20,Screen size,Average lifespan,NA,NA
NA,NA,NA,NA,NA,choice_trial_setup,html-keyboard-response,82,258593,0.0-4.0-0.39,314,1,2025-05-08T14:33:58Z,b60275e29fe2361ab97ac0ac217840d7,"Mozilla/5.0 (Macintosh; Intel Mac OS X 10_15_7) AppleWebKit/537.36 (KHTML, like Gecko) Chrome/134.0.0.0 Safari/537.36",Macintosh,Chrome,134.0.0.0,OS X,10_15_7,https://5puzkbbxv1.cognition.run/?sona_id=47912,"en-US,en;q=0.9",ufvtzbsp1ag4xd4,22,"[""Black or African-American""]",No,Female,"Uganda for 5 years
Kenya for 1 year",I'm not sure,327601.7999999523,NA,null,<p></p>,null,choice,dct,trinary,repulsion_B,1,laptops,null,null,null,null,null,null,1,NA,NA,NA,NA,NA,NA,NA,NA,NA,NA
NA,NA,NA,NA,NA,choice_trial,survey-html-form,83,260621,0.0-4.0-1.39,314,1,2025-05-08T14:33:58Z,b60275e29fe2361ab97ac0ac217840d7,"Mozilla/5.0 (Macintosh; Intel Mac OS X 10_15_7) AppleWebKit/537.36 (KHTML, like Gecko) Chrome/134.0.0.0 Safari/537.36",Macintosh,Chrome,134.0.0.0,OS X,10_15_7,https://5puzkbbxv1.cognition.run/?sona_id=47912,"en-US,en;q=0.9",ufvtzbsp1ag4xd4,22,"[""Black or African-American""]",No,Female,"Uganda for 5 years
Kenya for 1 year",I'm not sure,327601.7999999523,NA,2025,NA,"{""product_choice"":""A""}",choice,dct,trinary,repulsion_B,1,laptops,null,null,null,null,null,null,1,90,100,80,40,30,40,Processing speed,Memory (RAM),NA,NA
NA,NA,NA,NA,NA,choice_trial_setup,html-keyboard-response,84,260926,0.0-4.0-0.40,314,1,2025-05-08T14:33:58Z,b60275e29fe2361ab97ac0ac217840d7,"Mozilla/5.0 (Macintosh; Intel Mac OS X 10_15_7) AppleWebKit/537.36 (KHTML, like Gecko) Chrome/134.0.0.0 Safari/537.36",Macintosh,Chrome,134.0.0.0,OS X,10_15_7,https://5puzkbbxv1.cognition.run/?sona_id=47912,"en-US,en;q=0.9",ufvtzbsp1ag4xd4,22,"[""Black or African-American""]",No,Female,"Uganda for 5 years
Kenya for 1 year",I'm not sure,327601.7999999523,NA,null,<p></p>,null,choice,cdt,trinary,attraction,2,washing machines,null,null,null,null,null,null,2,NA,NA,NA,NA,NA,NA,NA,NA,NA,NA
NA,NA,NA,NA,NA,choice_trial,survey-html-form,85,262438,0.0-4.0-1.40,314,1,2025-05-08T14:33:58Z,b60275e29fe2361ab97ac0ac217840d7,"Mozilla/5.0 (Macintosh; Intel Mac OS X 10_15_7) AppleWebKit/537.36 (KHTML, like Gecko) Chrome/134.0.0.0 Safari/537.36",Macintosh,Chrome,134.0.0.0,OS X,10_15_7,https://5puzkbbxv1.cognition.run/?sona_id=47912,"en-US,en;q=0.9",ufvtzbsp1ag4xd4,22,"[""Black or African-American""]",No,Female,"Uganda for 5 years
Kenya for 1 year",I'm not sure,327601.7999999523,NA,1507,NA,"{""product_choice"":""B""}",choice,cdt,trinary,attraction,2,washing machines,null,null,null,null,null,null,2,50,60,40,60,50,60,Average lifespan,Energy savings,NA,NA
NA,NA,NA,NA,NA,choice_trial_setup,html-keyboard-response,86,262744,0.0-4.0-0.41,314,1,2025-05-08T14:33:58Z,b60275e29fe2361ab97ac0ac217840d7,"Mozilla/5.0 (Macintosh; Intel Mac OS X 10_15_7) AppleWebKit/537.36 (KHTML, like Gecko) Chrome/134.0.0.0 Safari/537.36",Macintosh,Chrome,134.0.0.0,OS X,10_15_7,https://5puzkbbxv1.cognition.run/?sona_id=47912,"en-US,en;q=0.9",ufvtzbsp1ag4xd4,22,"[""Black or African-American""]",No,Female,"Uganda for 5 years
Kenya for 1 year",I'm not sure,327601.7999999523,NA,null,<p></p>,null,choice,tc,binary,attraction,NA,laptops,null,null,null,null,null,null,1,NA,NA,NA,NA,NA,NA,NA,NA,NA,NA
NA,NA,NA,NA,NA,choice_trial,survey-html-form,87,264238,0.0-4.0-1.41,314,1,2025-05-08T14:33:58Z,b60275e29fe2361ab97ac0ac217840d7,"Mozilla/5.0 (Macintosh; Intel Mac OS X 10_15_7) AppleWebKit/537.36 (KHTML, like Gecko) Chrome/134.0.0.0 Safari/537.36",Macintosh,Chrome,134.0.0.0,OS X,10_15_7,https://5puzkbbxv1.cognition.run/?sona_id=47912,"en-US,en;q=0.9",ufvtzbsp1ag4xd4,22,"[""Black or African-American""]",No,Female,"Uganda for 5 years
Kenya for 1 year",I'm not sure,327601.7999999523,NA,1488,NA,"{""product_choice"":""B""}",choice,tc,binary,attraction,NA,laptops,null,null,null,null,null,null,1,60,50,null,50,60,null,Processing speed,Memory (RAM),NA,NA
NA,NA,NA,NA,NA,choice_trial_setup,html-keyboard-response,88,264543,0.0-4.0-0.42,314,1,2025-05-08T14:33:58Z,b60275e29fe2361ab97ac0ac217840d7,"Mozilla/5.0 (Macintosh; Intel Mac OS X 10_15_7) AppleWebKit/537.36 (KHTML, like Gecko) Chrome/134.0.0.0 Safari/537.36",Macintosh,Chrome,134.0.0.0,OS X,10_15_7,https://5puzkbbxv1.cognition.run/?sona_id=47912,"en-US,en;q=0.9",ufvtzbsp1ag4xd4,22,"[""Black or African-American""]",No,Female,"Uganda for 5 years
Kenya for 1 year",I'm not sure,327601.7999999523,NA,null,<p></p>,null,choice,bw,binary,catch,null,washing machines,90,50,40,35,null,null,2,NA,NA,NA,NA,NA,NA,NA,NA,NA,NA
NA,NA,NA,NA,NA,choice_trial,survey-html-form,89,265888,0.0-4.0-1.42,314,1,2025-05-08T14:33:58Z,b60275e29fe2361ab97ac0ac217840d7,"Mozilla/5.0 (Macintosh; Intel Mac OS X 10_15_7) AppleWebKit/537.36 (KHTML, like Gecko) Chrome/134.0.0.0 Safari/537.36",Macintosh,Chrome,134.0.0.0,OS X,10_15_7,https://5puzkbbxv1.cognition.run/?sona_id=47912,"en-US,en;q=0.9",ufvtzbsp1ag4xd4,22,"[""Black or African-American""]",No,Female,"Uganda for 5 years
Kenya for 1 year",I'm not sure,327601.7999999523,NA,1340,NA,"{""product_choice"":""A""}",choice,bw,binary,catch,null,washing machines,90,50,40,35,null,null,2,null,null,null,null,null,null,Average lifespan,Energy savings,NA,NA
NA,NA,NA,NA,NA,choice_trial_setup,html-keyboard-response,90,266192,0.0-4.0-0.43,314,1,2025-05-08T14:33:58Z,b60275e29fe2361ab97ac0ac217840d7,"Mozilla/5.0 (Macintosh; Intel Mac OS X 10_15_7) AppleWebKit/537.36 (KHTML, like Gecko) Chrome/134.0.0.0 Safari/537.36",Macintosh,Chrome,134.0.0.0,OS X,10_15_7,https://5puzkbbxv1.cognition.run/?sona_id=47912,"en-US,en;q=0.9",ufvtzbsp1ag4xd4,22,"[""Black or African-American""]",No,Female,"Uganda for 5 years
Kenya for 1 year",I'm not sure,327601.7999999523,NA,null,<p></p>,null,choice,dtc,trinary,repulsion_A,1,laptops,null,null,null,null,null,null,2,NA,NA,NA,NA,NA,NA,NA,NA,NA,NA
NA,NA,NA,NA,NA,choice_trial,survey-html-form,91,269588,0.0-4.0-1.43,314,1,2025-05-08T14:33:58Z,b60275e29fe2361ab97ac0ac217840d7,"Mozilla/5.0 (Macintosh; Intel Mac OS X 10_15_7) AppleWebKit/537.36 (KHTML, like Gecko) Chrome/134.0.0.0 Safari/537.36",Macintosh,Chrome,134.0.0.0,OS X,10_15_7,https://5puzkbbxv1.cognition.run/?sona_id=47912,"en-US,en;q=0.9",ufvtzbsp1ag4xd4,22,"[""Black or African-American""]",No,Female,"Uganda for 5 years
Kenya for 1 year",I'm not sure,327601.7999999523,NA,3391,NA,"{""product_choice"":""C""}",choice,dtc,trinary,repulsion_A,1,laptops,null,null,null,null,null,null,2,100,90,100,30,40,20,Processing speed,Memory (RAM),NA,NA
NA,NA,NA,NA,NA,post_trials_message,html-button-response,92,271838,0.0-5.0,314,1,2025-05-08T14:33:58Z,b60275e29fe2361ab97ac0ac217840d7,"Mozilla/5.0 (Macintosh; Intel Mac OS X 10_15_7) AppleWebKit/537.36 (KHTML, like Gecko) Chrome/134.0.0.0 Safari/537.36",Macintosh,Chrome,134.0.0.0,OS X,10_15_7,https://5puzkbbxv1.cognition.run/?sona_id=47912,"en-US,en;q=0.9",ufvtzbsp1ag4xd4,22,"[""Black or African-American""]",No,Female,"Uganda for 5 years
Kenya for 1 year",I'm not sure,327601.7999999523,NA,2245,<p> <b>Thank you for your patience!</b></p><p>  The study will be done after completing a brief form. </p>,0,NA,NA,NA,NA,NA,NA,NA,NA,NA,NA,NA,NA,NA,NA,NA,NA,NA,NA,NA,NA,NA,NA,NA
NA,NA,NA,NA,NA,survey_message,survey-text,93,291054,0.0-6.0,314,1,2025-05-08T14:33:58Z,b60275e29fe2361ab97ac0ac217840d7,"Mozilla/5.0 (Macintosh; Intel Mac OS X 10_15_7) AppleWebKit/537.36 (KHTML, like Gecko) Chrome/134.0.0.0 Safari/537.36",Macintosh,Chrome,134.0.0.0,OS X,10_15_7,https://5puzkbbxv1.cognition.run/?sona_id=47912,"en-US,en;q=0.9",ufvtzbsp1ag4xd4,22,"[""Black or African-American""]",No,Female,"Uganda for 5 years
Kenya for 1 year",I'm not sure,327601.7999999523,NA,19211,NA,"{""Q0"":""I focused on the avg lifespan and memory would choose those with higher numbers ""}",NA,NA,NA,NA,NA,NA,NA,NA,NA,NA,NA,NA,NA,NA,NA,NA,NA,NA,NA,NA,NA,I focused on the avg lifespan and memory would choose those with higher numbers,NA
NA,NA,NA,NA,NA,demo_age,survey-text,94,293121,0.0-7.0,314,1,2025-05-08T14:33:58Z,b60275e29fe2361ab97ac0ac217840d7,"Mozilla/5.0 (Macintosh; Intel Mac OS X 10_15_7) AppleWebKit/537.36 (KHTML, like Gecko) Chrome/134.0.0.0 Safari/537.36",Macintosh,Chrome,134.0.0.0,OS X,10_15_7,https://5puzkbbxv1.cognition.run/?sona_id=47912,"en-US,en;q=0.9",ufvtzbsp1ag4xd4,22,"[""Black or African-American""]",No,Female,"Uganda for 5 years
Kenya for 1 year",I'm not sure,327601.7999999523,NA,2064,NA,"{""Q0"":""22""}",NA,NA,NA,NA,NA,NA,NA,NA,NA,NA,NA,NA,NA,NA,NA,NA,NA,NA,NA,NA,NA,NA,NA
NA,NA,NA,NA,NA,demo_race,survey-multi-select,95,294688,0.0-8.0,314,1,2025-05-08T14:33:58Z,b60275e29fe2361ab97ac0ac217840d7,"Mozilla/5.0 (Macintosh; Intel Mac OS X 10_15_7) AppleWebKit/537.36 (KHTML, like Gecko) Chrome/134.0.0.0 Safari/537.36",Macintosh,Chrome,134.0.0.0,OS X,10_15_7,https://5puzkbbxv1.cognition.run/?sona_id=47912,"en-US,en;q=0.9",ufvtzbsp1ag4xd4,22,"[""Black or African-American""]",No,Female,"Uganda for 5 years
Kenya for 1 year",I'm not sure,327601.7999999523,NA,1562,NA,"{""Q0"":[""Black or African-American""]}",NA,NA,NA,NA,NA,NA,NA,NA,NA,NA,NA,NA,NA,NA,NA,NA,NA,NA,NA,NA,NA,NA,[0]
NA,NA,NA,NA,NA,demo_ethnicity_gender,survey-multi-choice,96,298139,0.0-9.0,314,1,2025-05-08T14:33:58Z,b60275e29fe2361ab97ac0ac217840d7,"Mozilla/5.0 (Macintosh; Intel Mac OS X 10_15_7) AppleWebKit/537.36 (KHTML, like Gecko) Chrome/134.0.0.0 Safari/537.36",Macintosh,Chrome,134.0.0.0,OS X,10_15_7,https://5puzkbbxv1.cognition.run/?sona_id=47912,"en-US,en;q=0.9",ufvtzbsp1ag4xd4,22,"[""Black or African-American""]",No,Female,"Uganda for 5 years
Kenya for 1 year",I'm not sure,327601.7999999523,NA,3446,NA,"{""Q0"":""No"",""Q1"":""Female""}",NA,NA,NA,NA,NA,NA,NA,NA,NA,NA,NA,NA,NA,NA,NA,NA,NA,NA,NA,NA,NA,NA,"[0,1]"
NA,NA,NA,NA,NA,demo_countries,survey-text,97,310921,0.0-10.0,314,1,2025-05-08T14:33:58Z,b60275e29fe2361ab97ac0ac217840d7,"Mozilla/5.0 (Macintosh; Intel Mac OS X 10_15_7) AppleWebKit/537.36 (KHTML, like Gecko) Chrome/134.0.0.0 Safari/537.36",Macintosh,Chrome,134.0.0.0,OS X,10_15_7,https://5puzkbbxv1.cognition.run/?sona_id=47912,"en-US,en;q=0.9",ufvtzbsp1ag4xd4,22,"[""Black or African-American""]",No,Female,"Uganda for 5 years
Kenya for 1 year",I'm not sure,327601.7999999523,NA,12771,NA,"{""Q0"":""Uganda for 5 years\nKenya for 1 year""}",NA,NA,NA,NA,NA,NA,NA,NA,NA,NA,NA,NA,NA,NA,NA,NA,NA,NA,NA,NA,NA,NA,NA
NA,NA,NA,NA,NA,demo_prev_study,survey-multi-choice,98,316256,0.0-11.0,314,1,2025-05-08T14:33:58Z,b60275e29fe2361ab97ac0ac217840d7,"Mozilla/5.0 (Macintosh; Intel Mac OS X 10_15_7) AppleWebKit/537.36 (KHTML, like Gecko) Chrome/134.0.0.0 Safari/537.36",Macintosh,Chrome,134.0.0.0,OS X,10_15_7,https://5puzkbbxv1.cognition.run/?sona_id=47912,"en-US,en;q=0.9",ufvtzbsp1ag4xd4,22,"[""Black or African-American""]",No,Female,"Uganda for 5 years
Kenya for 1 year",I'm not sure,327601.7999999523,NA,5330,NA,"{""Q0"":""I'm not sure""}",NA,NA,NA,NA,NA,NA,NA,NA,NA,NA,NA,NA,NA,NA,NA,NA,NA,NA,NA,NA,NA,NA,[0]
NA,NA,NA,NA,NA,post_survey_message,html-keyboard-response,99,322507,0.0-12.0,314,1,2025-05-08T14:33:58Z,b60275e29fe2361ab97ac0ac217840d7,"Mozilla/5.0 (Macintosh; Intel Mac OS X 10_15_7) AppleWebKit/537.36 (KHTML, like Gecko) Chrome/134.0.0.0 Safari/537.36",Macintosh,Chrome,134.0.0.0,OS X,10_15_7,https://5puzkbbxv1.cognition.run/?sona_id=47912,"en-US,en;q=0.9",ufvtzbsp1ag4xd4,22,"[""Black or African-American""]",No,Female,"Uganda for 5 years
Kenya for 1 year",I'm not sure,327601.7999999523,NA,6246,NA,j,NA,NA,NA,NA,NA,NA,NA,NA,NA,NA,NA,NA,NA,NA,NA,NA,NA,NA,NA,NA,NA,NA,NA
NA,NA,NA,NA,NA,debrief,image-keyboard-response,100,327593,0.0-13.0,314,1,2025-05-08T14:33:58Z,b60275e29fe2361ab97ac0ac217840d7,"Mozilla/5.0 (Macintosh; Intel Mac OS X 10_15_7) AppleWebKit/537.36 (KHTML, like Gecko) Chrome/134.0.0.0 Safari/537.36",Macintosh,Chrome,134.0.0.0,OS X,10_15_7,https://5puzkbbxv1.cognition.run/?sona_id=47912,"en-US,en;q=0.9",ufvtzbsp1ag4xd4,22,"[""Black or African-American""]",No,Female,"Uganda for 5 years
Kenya for 1 year",I'm not sure,327601.7999999523,NA,5079,Judg_choice_debrief.png,p,NA,NA,NA,NA,NA,NA,NA,NA,NA,NA,NA,NA,NA,NA,NA,NA,NA,NA,NA,NA,NA,NA,NA
