success,timeout,failed_images,failed_audio,failed_video,screen_id,trial_type,trial_index,time_elapsed,internal_node_id,run_id,condition,recorded_at,source_code_version,user_agent,device,browser,browser_version,platform,platform_version,referer,accept_language,ppt_id,age,race,ethnicity,gender,other_countries,prev_study,exp_duration,view_history,rt,stimulus,response,phase,order,set,effect,t_high,category,d1_best,d2_best,d1_worst1,d2_worst1,d1_worst2,d2_worst2,first_dim,d1_t,d1_c,d1_d,d2_t,d2_c,d2_d,d1_name,d2_name,strategy_response,question_order
TRUE,FALSE,[],[],[],img preload,preload,0,557,0.0-0.0,316,1,2025-05-08T14:52:02Z,b60275e29fe2361ab97ac0ac217840d7,"Mozilla/5.0 (Windows NT 10.0; Win64; x64) AppleWebKit/537.36 (KHTML, like Gecko) Chrome/136.0.0.0 Safari/537.36 Edg/136.0.0.0",WebKit,Edge,136.0.0.0,Windows,10,https://5puzkbbxv1.cognition.run/?sona_id=57774,"en-US,en;q=0.9",z6ftv8uvlzvul6v,20 years old,"[""Prefer not to say""]",No,Female,NA,No,524901.599999994,NA,NA,NA,NA,NA,NA,NA,NA,NA,NA,NA,NA,NA,NA,NA,NA,NA,NA,NA,NA,NA,NA,NA,NA,NA,NA,NA
NA,NA,NA,NA,NA,computer_message,instructions,1,14737,0.0-1.0,316,1,2025-05-08T14:52:02Z,b60275e29fe2361ab97ac0ac217840d7,"Mozilla/5.0 (Windows NT 10.0; Win64; x64) AppleWebKit/537.36 (KHTML, like Gecko) Chrome/136.0.0.0 Safari/537.36 Edg/136.0.0.0",WebKit,Edge,136.0.0.0,Windows,10,https://5puzkbbxv1.cognition.run/?sona_id=57774,"en-US,en;q=0.9",z6ftv8uvlzvul6v,20 years old,"[""Prefer not to say""]",No,Female,NA,No,524901.599999994,"[{""page_index"":0,""viewing_time"":14177}]",14177,NA,NA,NA,NA,NA,NA,NA,NA,NA,NA,NA,NA,NA,NA,NA,NA,NA,NA,NA,NA,NA,NA,NA,NA,NA
TRUE,NA,NA,NA,NA,NA,fullscreen,2,17113,0.0-2.0,316,1,2025-05-08T14:52:02Z,b60275e29fe2361ab97ac0ac217840d7,"Mozilla/5.0 (Windows NT 10.0; Win64; x64) AppleWebKit/537.36 (KHTML, like Gecko) Chrome/136.0.0.0 Safari/537.36 Edg/136.0.0.0",WebKit,Edge,136.0.0.0,Windows,10,https://5puzkbbxv1.cognition.run/?sona_id=57774,"en-US,en;q=0.9",z6ftv8uvlzvul6v,20 years old,"[""Prefer not to say""]",No,Female,NA,No,524901.599999994,NA,1372,NA,NA,NA,NA,NA,NA,NA,NA,NA,NA,NA,NA,NA,NA,NA,NA,NA,NA,NA,NA,NA,NA,NA,NA,NA
NA,NA,NA,NA,NA,choice_instructions,instructions,3,48983,0.0-3.0,316,1,2025-05-08T14:52:02Z,b60275e29fe2361ab97ac0ac217840d7,"Mozilla/5.0 (Windows NT 10.0; Win64; x64) AppleWebKit/537.36 (KHTML, like Gecko) Chrome/136.0.0.0 Safari/537.36 Edg/136.0.0.0",WebKit,Edge,136.0.0.0,Windows,10,https://5puzkbbxv1.cognition.run/?sona_id=57774,"en-US,en;q=0.9",z6ftv8uvlzvul6v,20 years old,"[""Prefer not to say""]",No,Female,NA,No,524901.599999994,"[{""page_index"":0,""viewing_time"":1562},{""page_index"":1,""viewing_time"":1970},{""page_index"":2,""viewing_time"":2263},{""page_index"":3,""viewing_time"":3072},{""page_index"":4,""viewing_time"":2156},{""page_index"":5,""viewing_time"":19384},{""page_index"":6,""viewing_time"":1462}]",31868,NA,NA,NA,NA,NA,NA,NA,NA,NA,NA,NA,NA,NA,NA,NA,NA,NA,NA,NA,NA,NA,NA,NA,NA,NA
NA,NA,NA,NA,NA,choice_trial_setup,html-keyboard-response,4,49294,0.0-4.0-0.0,316,1,2025-05-08T14:52:02Z,b60275e29fe2361ab97ac0ac217840d7,"Mozilla/5.0 (Windows NT 10.0; Win64; x64) AppleWebKit/537.36 (KHTML, like Gecko) Chrome/136.0.0.0 Safari/537.36 Edg/136.0.0.0",WebKit,Edge,136.0.0.0,Windows,10,https://5puzkbbxv1.cognition.run/?sona_id=57774,"en-US,en;q=0.9",z6ftv8uvlzvul6v,20 years old,"[""Prefer not to say""]",No,Female,NA,No,524901.599999994,NA,null,<p></p>,null,choice,dtc,trinary,attraction,1,televisions,null,null,null,null,null,null,2,NA,NA,NA,NA,NA,NA,NA,NA,NA,NA
NA,NA,NA,NA,NA,choice_trial,survey-html-form,5,61976,0.0-4.0-1.0,316,1,2025-05-08T14:52:02Z,b60275e29fe2361ab97ac0ac217840d7,"Mozilla/5.0 (Windows NT 10.0; Win64; x64) AppleWebKit/537.36 (KHTML, like Gecko) Chrome/136.0.0.0 Safari/537.36 Edg/136.0.0.0",WebKit,Edge,136.0.0.0,Windows,10,https://5puzkbbxv1.cognition.run/?sona_id=57774,"en-US,en;q=0.9",z6ftv8uvlzvul6v,20 years old,"[""Prefer not to say""]",No,Female,NA,No,524901.599999994,NA,12677,NA,"{""product_choice"":""C""}",choice,dtc,trinary,attraction,1,televisions,null,null,null,null,null,null,2,60,50,60,50,60,40,Screen size,Average lifespan,NA,NA
NA,NA,NA,NA,NA,choice_trial_setup,html-keyboard-response,6,62280,0.0-4.0-0.1,316,1,2025-05-08T14:52:02Z,b60275e29fe2361ab97ac0ac217840d7,"Mozilla/5.0 (Windows NT 10.0; Win64; x64) AppleWebKit/537.36 (KHTML, like Gecko) Chrome/136.0.0.0 Safari/537.36 Edg/136.0.0.0",WebKit,Edge,136.0.0.0,Windows,10,https://5puzkbbxv1.cognition.run/?sona_id=57774,"en-US,en;q=0.9",z6ftv8uvlzvul6v,20 years old,"[""Prefer not to say""]",No,Female,NA,No,524901.599999994,NA,null,<p></p>,null,choice,tcd,trinary,attraction,1,laptops,null,null,null,null,null,null,2,NA,NA,NA,NA,NA,NA,NA,NA,NA,NA
NA,NA,NA,NA,NA,choice_trial,survey-html-form,7,72628,0.0-4.0-1.1,316,1,2025-05-08T14:52:02Z,b60275e29fe2361ab97ac0ac217840d7,"Mozilla/5.0 (Windows NT 10.0; Win64; x64) AppleWebKit/537.36 (KHTML, like Gecko) Chrome/136.0.0.0 Safari/537.36 Edg/136.0.0.0",WebKit,Edge,136.0.0.0,Windows,10,https://5puzkbbxv1.cognition.run/?sona_id=57774,"en-US,en;q=0.9",z6ftv8uvlzvul6v,20 years old,"[""Prefer not to say""]",No,Female,NA,No,524901.599999994,NA,10344,NA,"{""product_choice"":""B""}",choice,tcd,trinary,attraction,1,laptops,null,null,null,null,null,null,2,60,50,60,50,60,40,Processing speed,Memory (RAM),NA,NA
NA,NA,NA,NA,NA,choice_trial_setup,html-keyboard-response,8,72938,0.0-4.0-0.2,316,1,2025-05-08T14:52:02Z,b60275e29fe2361ab97ac0ac217840d7,"Mozilla/5.0 (Windows NT 10.0; Win64; x64) AppleWebKit/537.36 (KHTML, like Gecko) Chrome/136.0.0.0 Safari/537.36 Edg/136.0.0.0",WebKit,Edge,136.0.0.0,Windows,10,https://5puzkbbxv1.cognition.run/?sona_id=57774,"en-US,en;q=0.9",z6ftv8uvlzvul6v,20 years old,"[""Prefer not to say""]",No,Female,NA,No,524901.599999994,NA,null,<p></p>,null,choice,dct,trinary,repulsion_B,1,laptops,null,null,null,null,null,null,2,NA,NA,NA,NA,NA,NA,NA,NA,NA,NA
NA,NA,NA,NA,NA,choice_trial,survey-html-form,9,84072,0.0-4.0-1.2,316,1,2025-05-08T14:52:02Z,b60275e29fe2361ab97ac0ac217840d7,"Mozilla/5.0 (Windows NT 10.0; Win64; x64) AppleWebKit/537.36 (KHTML, like Gecko) Chrome/136.0.0.0 Safari/537.36 Edg/136.0.0.0",WebKit,Edge,136.0.0.0,Windows,10,https://5puzkbbxv1.cognition.run/?sona_id=57774,"en-US,en;q=0.9",z6ftv8uvlzvul6v,20 years old,"[""Prefer not to say""]",No,Female,NA,No,524901.599999994,NA,11131,NA,"{""product_choice"":""C""}",choice,dct,trinary,repulsion_B,1,laptops,null,null,null,null,null,null,2,90,100,80,40,30,40,Processing speed,Memory (RAM),NA,NA
NA,NA,NA,NA,NA,choice_trial_setup,html-keyboard-response,10,84378,0.0-4.0-0.3,316,1,2025-05-08T14:52:02Z,b60275e29fe2361ab97ac0ac217840d7,"Mozilla/5.0 (Windows NT 10.0; Win64; x64) AppleWebKit/537.36 (KHTML, like Gecko) Chrome/136.0.0.0 Safari/537.36 Edg/136.0.0.0",WebKit,Edge,136.0.0.0,Windows,10,https://5puzkbbxv1.cognition.run/?sona_id=57774,"en-US,en;q=0.9",z6ftv8uvlzvul6v,20 years old,"[""Prefer not to say""]",No,Female,NA,No,524901.599999994,NA,null,<p></p>,null,choice,dtc,trinary,attraction,1,washing machines,null,null,null,null,null,null,2,NA,NA,NA,NA,NA,NA,NA,NA,NA,NA
NA,NA,NA,NA,NA,choice_trial,survey-html-form,11,91459,0.0-4.0-1.3,316,1,2025-05-08T14:52:02Z,b60275e29fe2361ab97ac0ac217840d7,"Mozilla/5.0 (Windows NT 10.0; Win64; x64) AppleWebKit/537.36 (KHTML, like Gecko) Chrome/136.0.0.0 Safari/537.36 Edg/136.0.0.0",WebKit,Edge,136.0.0.0,Windows,10,https://5puzkbbxv1.cognition.run/?sona_id=57774,"en-US,en;q=0.9",z6ftv8uvlzvul6v,20 years old,"[""Prefer not to say""]",No,Female,NA,No,524901.599999994,NA,7077,NA,"{""product_choice"":""C""}",choice,dtc,trinary,attraction,1,washing machines,null,null,null,null,null,null,2,60,50,60,50,60,40,Average lifespan,Energy savings,NA,NA
NA,NA,NA,NA,NA,choice_trial_setup,html-keyboard-response,12,91771,0.0-4.0-0.4,316,1,2025-05-08T14:52:02Z,b60275e29fe2361ab97ac0ac217840d7,"Mozilla/5.0 (Windows NT 10.0; Win64; x64) AppleWebKit/537.36 (KHTML, like Gecko) Chrome/136.0.0.0 Safari/537.36 Edg/136.0.0.0",WebKit,Edge,136.0.0.0,Windows,10,https://5puzkbbxv1.cognition.run/?sona_id=57774,"en-US,en;q=0.9",z6ftv8uvlzvul6v,20 years old,"[""Prefer not to say""]",No,Female,NA,No,524901.599999994,NA,null,<p></p>,null,choice,bww,trinary,catch,null,washing machines,65,90,15,40,30,10,2,NA,NA,NA,NA,NA,NA,NA,NA,NA,NA
NA,NA,NA,NA,NA,choice_trial,survey-html-form,13,101910,0.0-4.0-1.4,316,1,2025-05-08T14:52:02Z,b60275e29fe2361ab97ac0ac217840d7,"Mozilla/5.0 (Windows NT 10.0; Win64; x64) AppleWebKit/537.36 (KHTML, like Gecko) Chrome/136.0.0.0 Safari/537.36 Edg/136.0.0.0",WebKit,Edge,136.0.0.0,Windows,10,https://5puzkbbxv1.cognition.run/?sona_id=57774,"en-US,en;q=0.9",z6ftv8uvlzvul6v,20 years old,"[""Prefer not to say""]",No,Female,NA,No,524901.599999994,NA,10135,NA,"{""product_choice"":""A""}",choice,bww,trinary,catch,null,washing machines,65,90,15,40,30,10,2,null,null,null,null,null,null,Average lifespan,Energy savings,NA,NA
NA,NA,NA,NA,NA,choice_trial_setup,html-keyboard-response,14,102215,0.0-4.0-0.5,316,1,2025-05-08T14:52:02Z,b60275e29fe2361ab97ac0ac217840d7,"Mozilla/5.0 (Windows NT 10.0; Win64; x64) AppleWebKit/537.36 (KHTML, like Gecko) Chrome/136.0.0.0 Safari/537.36 Edg/136.0.0.0",WebKit,Edge,136.0.0.0,Windows,10,https://5puzkbbxv1.cognition.run/?sona_id=57774,"en-US,en;q=0.9",z6ftv8uvlzvul6v,20 years old,"[""Prefer not to say""]",No,Female,NA,No,524901.599999994,NA,null,<p></p>,null,choice,tcd,trinary,repulsion_A,2,washing machines,null,null,null,null,null,null,1,NA,NA,NA,NA,NA,NA,NA,NA,NA,NA
NA,NA,NA,NA,NA,choice_trial,survey-html-form,15,108838,0.0-4.0-1.5,316,1,2025-05-08T14:52:02Z,b60275e29fe2361ab97ac0ac217840d7,"Mozilla/5.0 (Windows NT 10.0; Win64; x64) AppleWebKit/537.36 (KHTML, like Gecko) Chrome/136.0.0.0 Safari/537.36 Edg/136.0.0.0",WebKit,Edge,136.0.0.0,Windows,10,https://5puzkbbxv1.cognition.run/?sona_id=57774,"en-US,en;q=0.9",z6ftv8uvlzvul6v,20 years old,"[""Prefer not to say""]",No,Female,NA,No,524901.599999994,NA,6619,NA,"{""product_choice"":""B""}",choice,tcd,trinary,repulsion_A,2,washing machines,null,null,null,null,null,null,1,30,40,20,100,90,100,Average lifespan,Energy savings,NA,NA
NA,NA,NA,NA,NA,choice_trial_setup,html-keyboard-response,16,109150,0.0-4.0-0.6,316,1,2025-05-08T14:52:02Z,b60275e29fe2361ab97ac0ac217840d7,"Mozilla/5.0 (Windows NT 10.0; Win64; x64) AppleWebKit/537.36 (KHTML, like Gecko) Chrome/136.0.0.0 Safari/537.36 Edg/136.0.0.0",WebKit,Edge,136.0.0.0,Windows,10,https://5puzkbbxv1.cognition.run/?sona_id=57774,"en-US,en;q=0.9",z6ftv8uvlzvul6v,20 years old,"[""Prefer not to say""]",No,Female,NA,No,524901.599999994,NA,null,<p></p>,null,choice,bw,binary,catch,null,washing machines,55,55,15,15,null,null,1,NA,NA,NA,NA,NA,NA,NA,NA,NA,NA
NA,NA,NA,NA,NA,choice_trial,survey-html-form,17,119649,0.0-4.0-1.6,316,1,2025-05-08T14:52:02Z,b60275e29fe2361ab97ac0ac217840d7,"Mozilla/5.0 (Windows NT 10.0; Win64; x64) AppleWebKit/537.36 (KHTML, like Gecko) Chrome/136.0.0.0 Safari/537.36 Edg/136.0.0.0",WebKit,Edge,136.0.0.0,Windows,10,https://5puzkbbxv1.cognition.run/?sona_id=57774,"en-US,en;q=0.9",z6ftv8uvlzvul6v,20 years old,"[""Prefer not to say""]",No,Female,NA,No,524901.599999994,NA,10496,NA,"{""product_choice"":""A""}",choice,bw,binary,catch,null,washing machines,55,55,15,15,null,null,1,null,null,null,null,null,null,Average lifespan,Energy savings,NA,NA
NA,NA,NA,NA,NA,choice_trial_setup,html-keyboard-response,18,119958,0.0-4.0-0.7,316,1,2025-05-08T14:52:02Z,b60275e29fe2361ab97ac0ac217840d7,"Mozilla/5.0 (Windows NT 10.0; Win64; x64) AppleWebKit/537.36 (KHTML, like Gecko) Chrome/136.0.0.0 Safari/537.36 Edg/136.0.0.0",WebKit,Edge,136.0.0.0,Windows,10,https://5puzkbbxv1.cognition.run/?sona_id=57774,"en-US,en;q=0.9",z6ftv8uvlzvul6v,20 years old,"[""Prefer not to say""]",No,Female,NA,No,524901.599999994,NA,null,<p></p>,null,choice,dtc,trinary,repulsion_A,1,laptops,null,null,null,null,null,null,1,NA,NA,NA,NA,NA,NA,NA,NA,NA,NA
NA,NA,NA,NA,NA,choice_trial,survey-html-form,19,126592,0.0-4.0-1.7,316,1,2025-05-08T14:52:02Z,b60275e29fe2361ab97ac0ac217840d7,"Mozilla/5.0 (Windows NT 10.0; Win64; x64) AppleWebKit/537.36 (KHTML, like Gecko) Chrome/136.0.0.0 Safari/537.36 Edg/136.0.0.0",WebKit,Edge,136.0.0.0,Windows,10,https://5puzkbbxv1.cognition.run/?sona_id=57774,"en-US,en;q=0.9",z6ftv8uvlzvul6v,20 years old,"[""Prefer not to say""]",No,Female,NA,No,524901.599999994,NA,6631,NA,"{""product_choice"":""C""}",choice,dtc,trinary,repulsion_A,1,laptops,null,null,null,null,null,null,1,100,90,100,30,40,20,Processing speed,Memory (RAM),NA,NA
NA,NA,NA,NA,NA,choice_trial_setup,html-keyboard-response,20,126904,0.0-4.0-0.8,316,1,2025-05-08T14:52:02Z,b60275e29fe2361ab97ac0ac217840d7,"Mozilla/5.0 (Windows NT 10.0; Win64; x64) AppleWebKit/537.36 (KHTML, like Gecko) Chrome/136.0.0.0 Safari/537.36 Edg/136.0.0.0",WebKit,Edge,136.0.0.0,Windows,10,https://5puzkbbxv1.cognition.run/?sona_id=57774,"en-US,en;q=0.9",z6ftv8uvlzvul6v,20 years old,"[""Prefer not to say""]",No,Female,NA,No,524901.599999994,NA,null,<p></p>,null,choice,ct,binary,attraction,NA,microwave ovens,null,null,null,null,null,null,2,NA,NA,NA,NA,NA,NA,NA,NA,NA,NA
NA,NA,NA,NA,NA,choice_trial,survey-html-form,21,133994,0.0-4.0-1.8,316,1,2025-05-08T14:52:02Z,b60275e29fe2361ab97ac0ac217840d7,"Mozilla/5.0 (Windows NT 10.0; Win64; x64) AppleWebKit/537.36 (KHTML, like Gecko) Chrome/136.0.0.0 Safari/537.36 Edg/136.0.0.0",WebKit,Edge,136.0.0.0,Windows,10,https://5puzkbbxv1.cognition.run/?sona_id=57774,"en-US,en;q=0.9",z6ftv8uvlzvul6v,20 years old,"[""Prefer not to say""]",No,Female,NA,No,524901.599999994,NA,7086,NA,"{""product_choice"":""A""}",choice,ct,binary,attraction,NA,microwave ovens,null,null,null,null,null,null,2,60,50,null,50,60,null,Warranty,Cooking power,NA,NA
NA,NA,NA,NA,NA,choice_trial_setup,html-keyboard-response,22,134299,0.0-4.0-0.9,316,1,2025-05-08T14:52:02Z,b60275e29fe2361ab97ac0ac217840d7,"Mozilla/5.0 (Windows NT 10.0; Win64; x64) AppleWebKit/537.36 (KHTML, like Gecko) Chrome/136.0.0.0 Safari/537.36 Edg/136.0.0.0",WebKit,Edge,136.0.0.0,Windows,10,https://5puzkbbxv1.cognition.run/?sona_id=57774,"en-US,en;q=0.9",z6ftv8uvlzvul6v,20 years old,"[""Prefer not to say""]",No,Female,NA,No,524901.599999994,NA,null,<p></p>,null,choice,ctd,trinary,repulsion_A,2,laptops,null,null,null,null,null,null,1,NA,NA,NA,NA,NA,NA,NA,NA,NA,NA
NA,NA,NA,NA,NA,choice_trial,survey-html-form,23,174220,0.0-4.0-1.9,316,1,2025-05-08T14:52:02Z,b60275e29fe2361ab97ac0ac217840d7,"Mozilla/5.0 (Windows NT 10.0; Win64; x64) AppleWebKit/537.36 (KHTML, like Gecko) Chrome/136.0.0.0 Safari/537.36 Edg/136.0.0.0",WebKit,Edge,136.0.0.0,Windows,10,https://5puzkbbxv1.cognition.run/?sona_id=57774,"en-US,en;q=0.9",z6ftv8uvlzvul6v,20 years old,"[""Prefer not to say""]",No,Female,NA,No,524901.599999994,NA,39918,NA,"{""product_choice"":""A""}",choice,ctd,trinary,repulsion_A,2,laptops,null,null,null,null,null,null,1,30,40,20,100,90,100,Processing speed,Memory (RAM),NA,NA
NA,NA,NA,NA,NA,choice_trial_setup,html-keyboard-response,24,174530,0.0-4.0-0.10,316,1,2025-05-08T14:52:02Z,b60275e29fe2361ab97ac0ac217840d7,"Mozilla/5.0 (Windows NT 10.0; Win64; x64) AppleWebKit/537.36 (KHTML, like Gecko) Chrome/136.0.0.0 Safari/537.36 Edg/136.0.0.0",WebKit,Edge,136.0.0.0,Windows,10,https://5puzkbbxv1.cognition.run/?sona_id=57774,"en-US,en;q=0.9",z6ftv8uvlzvul6v,20 years old,"[""Prefer not to say""]",No,Female,NA,No,524901.599999994,NA,null,<p></p>,null,choice,wwb,trinary,catch,null,laptops,65,85,20,20,15,25,2,NA,NA,NA,NA,NA,NA,NA,NA,NA,NA
NA,NA,NA,NA,NA,choice_trial,survey-html-form,25,178069,0.0-4.0-1.10,316,1,2025-05-08T14:52:02Z,b60275e29fe2361ab97ac0ac217840d7,"Mozilla/5.0 (Windows NT 10.0; Win64; x64) AppleWebKit/537.36 (KHTML, like Gecko) Chrome/136.0.0.0 Safari/537.36 Edg/136.0.0.0",WebKit,Edge,136.0.0.0,Windows,10,https://5puzkbbxv1.cognition.run/?sona_id=57774,"en-US,en;q=0.9",z6ftv8uvlzvul6v,20 years old,"[""Prefer not to say""]",No,Female,NA,No,524901.599999994,NA,3535,NA,"{""product_choice"":""C""}",choice,wwb,trinary,catch,null,laptops,65,85,20,20,15,25,2,null,null,null,null,null,null,Processing speed,Memory (RAM),NA,NA
NA,NA,NA,NA,NA,choice_trial_setup,html-keyboard-response,26,178373,0.0-4.0-0.11,316,1,2025-05-08T14:52:02Z,b60275e29fe2361ab97ac0ac217840d7,"Mozilla/5.0 (Windows NT 10.0; Win64; x64) AppleWebKit/537.36 (KHTML, like Gecko) Chrome/136.0.0.0 Safari/537.36 Edg/136.0.0.0",WebKit,Edge,136.0.0.0,Windows,10,https://5puzkbbxv1.cognition.run/?sona_id=57774,"en-US,en;q=0.9",z6ftv8uvlzvul6v,20 years old,"[""Prefer not to say""]",No,Female,NA,No,524901.599999994,NA,null,<p></p>,null,choice,ctd,trinary,repulsion_B,1,microwave ovens,null,null,null,null,null,null,2,NA,NA,NA,NA,NA,NA,NA,NA,NA,NA
NA,NA,NA,NA,NA,choice_trial,survey-html-form,27,183256,0.0-4.0-1.11,316,1,2025-05-08T14:52:02Z,b60275e29fe2361ab97ac0ac217840d7,"Mozilla/5.0 (Windows NT 10.0; Win64; x64) AppleWebKit/537.36 (KHTML, like Gecko) Chrome/136.0.0.0 Safari/537.36 Edg/136.0.0.0",WebKit,Edge,136.0.0.0,Windows,10,https://5puzkbbxv1.cognition.run/?sona_id=57774,"en-US,en;q=0.9",z6ftv8uvlzvul6v,20 years old,"[""Prefer not to say""]",No,Female,NA,No,524901.599999994,NA,4879,NA,"{""product_choice"":""B""}",choice,ctd,trinary,repulsion_B,1,microwave ovens,null,null,null,null,null,null,2,90,100,80,40,30,40,Warranty,Cooking power,NA,NA
NA,NA,NA,NA,NA,choice_trial_setup,html-keyboard-response,28,183561,0.0-4.0-0.12,316,1,2025-05-08T14:52:02Z,b60275e29fe2361ab97ac0ac217840d7,"Mozilla/5.0 (Windows NT 10.0; Win64; x64) AppleWebKit/537.36 (KHTML, like Gecko) Chrome/136.0.0.0 Safari/537.36 Edg/136.0.0.0",WebKit,Edge,136.0.0.0,Windows,10,https://5puzkbbxv1.cognition.run/?sona_id=57774,"en-US,en;q=0.9",z6ftv8uvlzvul6v,20 years old,"[""Prefer not to say""]",No,Female,NA,No,524901.599999994,NA,null,<p></p>,null,choice,wwb,trinary,catch,null,microwave ovens,65,80,30,5,10,15,2,NA,NA,NA,NA,NA,NA,NA,NA,NA,NA
NA,NA,NA,NA,NA,choice_trial,survey-html-form,29,188156,0.0-4.0-1.12,316,1,2025-05-08T14:52:02Z,b60275e29fe2361ab97ac0ac217840d7,"Mozilla/5.0 (Windows NT 10.0; Win64; x64) AppleWebKit/537.36 (KHTML, like Gecko) Chrome/136.0.0.0 Safari/537.36 Edg/136.0.0.0",WebKit,Edge,136.0.0.0,Windows,10,https://5puzkbbxv1.cognition.run/?sona_id=57774,"en-US,en;q=0.9",z6ftv8uvlzvul6v,20 years old,"[""Prefer not to say""]",No,Female,NA,No,524901.599999994,NA,4591,NA,"{""product_choice"":""C""}",choice,wwb,trinary,catch,null,microwave ovens,65,80,30,5,10,15,2,null,null,null,null,null,null,Warranty,Cooking power,NA,NA
NA,NA,NA,NA,NA,choice_trial_setup,html-keyboard-response,30,188465,0.0-4.0-0.13,316,1,2025-05-08T14:52:02Z,b60275e29fe2361ab97ac0ac217840d7,"Mozilla/5.0 (Windows NT 10.0; Win64; x64) AppleWebKit/537.36 (KHTML, like Gecko) Chrome/136.0.0.0 Safari/537.36 Edg/136.0.0.0",WebKit,Edge,136.0.0.0,Windows,10,https://5puzkbbxv1.cognition.run/?sona_id=57774,"en-US,en;q=0.9",z6ftv8uvlzvul6v,20 years old,"[""Prefer not to say""]",No,Female,NA,No,524901.599999994,NA,null,<p></p>,null,choice,tdc,trinary,repulsion_A,2,microwave ovens,null,null,null,null,null,null,2,NA,NA,NA,NA,NA,NA,NA,NA,NA,NA
NA,NA,NA,NA,NA,choice_trial,survey-html-form,31,192708,0.0-4.0-1.13,316,1,2025-05-08T14:52:02Z,b60275e29fe2361ab97ac0ac217840d7,"Mozilla/5.0 (Windows NT 10.0; Win64; x64) AppleWebKit/537.36 (KHTML, like Gecko) Chrome/136.0.0.0 Safari/537.36 Edg/136.0.0.0",WebKit,Edge,136.0.0.0,Windows,10,https://5puzkbbxv1.cognition.run/?sona_id=57774,"en-US,en;q=0.9",z6ftv8uvlzvul6v,20 years old,"[""Prefer not to say""]",No,Female,NA,No,524901.599999994,NA,4238,NA,"{""product_choice"":""C""}",choice,tdc,trinary,repulsion_A,2,microwave ovens,null,null,null,null,null,null,2,30,40,20,100,90,100,Warranty,Cooking power,NA,NA
NA,NA,NA,NA,NA,choice_trial_setup,html-keyboard-response,32,193021,0.0-4.0-0.14,316,1,2025-05-08T14:52:02Z,b60275e29fe2361ab97ac0ac217840d7,"Mozilla/5.0 (Windows NT 10.0; Win64; x64) AppleWebKit/537.36 (KHTML, like Gecko) Chrome/136.0.0.0 Safari/537.36 Edg/136.0.0.0",WebKit,Edge,136.0.0.0,Windows,10,https://5puzkbbxv1.cognition.run/?sona_id=57774,"en-US,en;q=0.9",z6ftv8uvlzvul6v,20 years old,"[""Prefer not to say""]",No,Female,NA,No,524901.599999994,NA,null,<p></p>,null,choice,ct,binary,repulsion,1,microwave ovens,null,null,null,null,null,null,1,NA,NA,NA,NA,NA,NA,NA,NA,NA,NA
NA,NA,NA,NA,NA,choice_trial,survey-html-form,33,198942,0.0-4.0-1.14,316,1,2025-05-08T14:52:02Z,b60275e29fe2361ab97ac0ac217840d7,"Mozilla/5.0 (Windows NT 10.0; Win64; x64) AppleWebKit/537.36 (KHTML, like Gecko) Chrome/136.0.0.0 Safari/537.36 Edg/136.0.0.0",WebKit,Edge,136.0.0.0,Windows,10,https://5puzkbbxv1.cognition.run/?sona_id=57774,"en-US,en;q=0.9",z6ftv8uvlzvul6v,20 years old,"[""Prefer not to say""]",No,Female,NA,No,524901.599999994,NA,5916,NA,"{""product_choice"":""A""}",choice,ct,binary,repulsion,1,microwave ovens,null,null,null,null,null,null,1,100,90,null,30,40,null,Warranty,Cooking power,NA,NA
NA,NA,NA,NA,NA,choice_trial_setup,html-keyboard-response,34,199248,0.0-4.0-0.15,316,1,2025-05-08T14:52:02Z,b60275e29fe2361ab97ac0ac217840d7,"Mozilla/5.0 (Windows NT 10.0; Win64; x64) AppleWebKit/537.36 (KHTML, like Gecko) Chrome/136.0.0.0 Safari/537.36 Edg/136.0.0.0",WebKit,Edge,136.0.0.0,Windows,10,https://5puzkbbxv1.cognition.run/?sona_id=57774,"en-US,en;q=0.9",z6ftv8uvlzvul6v,20 years old,"[""Prefer not to say""]",No,Female,NA,No,524901.599999994,NA,null,<p></p>,null,choice,tc,binary,repulsion,1,laptops,null,null,null,null,null,null,1,NA,NA,NA,NA,NA,NA,NA,NA,NA,NA
NA,NA,NA,NA,NA,choice_trial,survey-html-form,35,202817,0.0-4.0-1.15,316,1,2025-05-08T14:52:02Z,b60275e29fe2361ab97ac0ac217840d7,"Mozilla/5.0 (Windows NT 10.0; Win64; x64) AppleWebKit/537.36 (KHTML, like Gecko) Chrome/136.0.0.0 Safari/537.36 Edg/136.0.0.0",WebKit,Edge,136.0.0.0,Windows,10,https://5puzkbbxv1.cognition.run/?sona_id=57774,"en-US,en;q=0.9",z6ftv8uvlzvul6v,20 years old,"[""Prefer not to say""]",No,Female,NA,No,524901.599999994,NA,3566,NA,"{""product_choice"":""B""}",choice,tc,binary,repulsion,1,laptops,null,null,null,null,null,null,1,100,90,null,30,40,null,Processing speed,Memory (RAM),NA,NA
NA,NA,NA,NA,NA,choice_trial_setup,html-keyboard-response,36,203138,0.0-4.0-0.16,316,1,2025-05-08T14:52:02Z,b60275e29fe2361ab97ac0ac217840d7,"Mozilla/5.0 (Windows NT 10.0; Win64; x64) AppleWebKit/537.36 (KHTML, like Gecko) Chrome/136.0.0.0 Safari/537.36 Edg/136.0.0.0",WebKit,Edge,136.0.0.0,Windows,10,https://5puzkbbxv1.cognition.run/?sona_id=57774,"en-US,en;q=0.9",z6ftv8uvlzvul6v,20 years old,"[""Prefer not to say""]",No,Female,NA,No,524901.599999994,NA,null,<p></p>,null,choice,dct,trinary,repulsion_A,1,microwave ovens,null,null,null,null,null,null,1,NA,NA,NA,NA,NA,NA,NA,NA,NA,NA
NA,NA,NA,NA,NA,choice_trial,survey-html-form,37,207286,0.0-4.0-1.16,316,1,2025-05-08T14:52:02Z,b60275e29fe2361ab97ac0ac217840d7,"Mozilla/5.0 (Windows NT 10.0; Win64; x64) AppleWebKit/537.36 (KHTML, like Gecko) Chrome/136.0.0.0 Safari/537.36 Edg/136.0.0.0",WebKit,Edge,136.0.0.0,Windows,10,https://5puzkbbxv1.cognition.run/?sona_id=57774,"en-US,en;q=0.9",z6ftv8uvlzvul6v,20 years old,"[""Prefer not to say""]",No,Female,NA,No,524901.599999994,NA,4145,NA,"{""product_choice"":""B""}",choice,dct,trinary,repulsion_A,1,microwave ovens,null,null,null,null,null,null,1,100,90,100,30,40,20,Warranty,Cooking power,NA,NA
NA,NA,NA,NA,NA,choice_trial_setup,html-keyboard-response,38,207591,0.0-4.0-0.17,316,1,2025-05-08T14:52:02Z,b60275e29fe2361ab97ac0ac217840d7,"Mozilla/5.0 (Windows NT 10.0; Win64; x64) AppleWebKit/537.36 (KHTML, like Gecko) Chrome/136.0.0.0 Safari/537.36 Edg/136.0.0.0",WebKit,Edge,136.0.0.0,Windows,10,https://5puzkbbxv1.cognition.run/?sona_id=57774,"en-US,en;q=0.9",z6ftv8uvlzvul6v,20 years old,"[""Prefer not to say""]",No,Female,NA,No,524901.599999994,NA,null,<p></p>,null,choice,tc,binary,repulsion,2,microwave ovens,null,null,null,null,null,null,2,NA,NA,NA,NA,NA,NA,NA,NA,NA,NA
NA,NA,NA,NA,NA,choice_trial,survey-html-form,39,210413,0.0-4.0-1.17,316,1,2025-05-08T14:52:02Z,b60275e29fe2361ab97ac0ac217840d7,"Mozilla/5.0 (Windows NT 10.0; Win64; x64) AppleWebKit/537.36 (KHTML, like Gecko) Chrome/136.0.0.0 Safari/537.36 Edg/136.0.0.0",WebKit,Edge,136.0.0.0,Windows,10,https://5puzkbbxv1.cognition.run/?sona_id=57774,"en-US,en;q=0.9",z6ftv8uvlzvul6v,20 years old,"[""Prefer not to say""]",No,Female,NA,No,524901.599999994,NA,2818,NA,"{""product_choice"":""B""}",choice,tc,binary,repulsion,2,microwave ovens,null,null,null,null,null,null,2,30,40,null,100,90,null,Warranty,Cooking power,NA,NA
NA,NA,NA,NA,NA,choice_trial_setup,html-keyboard-response,40,210726,0.0-4.0-0.18,316,1,2025-05-08T14:52:02Z,b60275e29fe2361ab97ac0ac217840d7,"Mozilla/5.0 (Windows NT 10.0; Win64; x64) AppleWebKit/537.36 (KHTML, like Gecko) Chrome/136.0.0.0 Safari/537.36 Edg/136.0.0.0",WebKit,Edge,136.0.0.0,Windows,10,https://5puzkbbxv1.cognition.run/?sona_id=57774,"en-US,en;q=0.9",z6ftv8uvlzvul6v,20 years old,"[""Prefer not to say""]",No,Female,NA,No,524901.599999994,NA,null,<p></p>,null,choice,wb,binary,catch,null,laptops,95,50,10,5,null,null,2,NA,NA,NA,NA,NA,NA,NA,NA,NA,NA
NA,NA,NA,NA,NA,choice_trial,survey-html-form,41,213772,0.0-4.0-1.18,316,1,2025-05-08T14:52:02Z,b60275e29fe2361ab97ac0ac217840d7,"Mozilla/5.0 (Windows NT 10.0; Win64; x64) AppleWebKit/537.36 (KHTML, like Gecko) Chrome/136.0.0.0 Safari/537.36 Edg/136.0.0.0",WebKit,Edge,136.0.0.0,Windows,10,https://5puzkbbxv1.cognition.run/?sona_id=57774,"en-US,en;q=0.9",z6ftv8uvlzvul6v,20 years old,"[""Prefer not to say""]",No,Female,NA,No,524901.599999994,NA,3042,NA,"{""product_choice"":""B""}",choice,wb,binary,catch,null,laptops,95,50,10,5,null,null,2,null,null,null,null,null,null,Processing speed,Memory (RAM),NA,NA
NA,NA,NA,NA,NA,choice_trial_setup,html-keyboard-response,42,214077,0.0-4.0-0.19,316,1,2025-05-08T14:52:02Z,b60275e29fe2361ab97ac0ac217840d7,"Mozilla/5.0 (Windows NT 10.0; Win64; x64) AppleWebKit/537.36 (KHTML, like Gecko) Chrome/136.0.0.0 Safari/537.36 Edg/136.0.0.0",WebKit,Edge,136.0.0.0,Windows,10,https://5puzkbbxv1.cognition.run/?sona_id=57774,"en-US,en;q=0.9",z6ftv8uvlzvul6v,20 years old,"[""Prefer not to say""]",No,Female,NA,No,524901.599999994,NA,null,<p></p>,null,choice,ct,binary,repulsion,2,laptops,null,null,null,null,null,null,1,NA,NA,NA,NA,NA,NA,NA,NA,NA,NA
NA,NA,NA,NA,NA,choice_trial,survey-html-form,43,217064,0.0-4.0-1.19,316,1,2025-05-08T14:52:02Z,b60275e29fe2361ab97ac0ac217840d7,"Mozilla/5.0 (Windows NT 10.0; Win64; x64) AppleWebKit/537.36 (KHTML, like Gecko) Chrome/136.0.0.0 Safari/537.36 Edg/136.0.0.0",WebKit,Edge,136.0.0.0,Windows,10,https://5puzkbbxv1.cognition.run/?sona_id=57774,"en-US,en;q=0.9",z6ftv8uvlzvul6v,20 years old,"[""Prefer not to say""]",No,Female,NA,No,524901.599999994,NA,2983,NA,"{""product_choice"":""A""}",choice,ct,binary,repulsion,2,laptops,null,null,null,null,null,null,1,30,40,null,100,90,null,Processing speed,Memory (RAM),NA,NA
NA,NA,NA,NA,NA,choice_trial_setup,html-keyboard-response,44,217371,0.0-4.0-0.20,316,1,2025-05-08T14:52:02Z,b60275e29fe2361ab97ac0ac217840d7,"Mozilla/5.0 (Windows NT 10.0; Win64; x64) AppleWebKit/537.36 (KHTML, like Gecko) Chrome/136.0.0.0 Safari/537.36 Edg/136.0.0.0",WebKit,Edge,136.0.0.0,Windows,10,https://5puzkbbxv1.cognition.run/?sona_id=57774,"en-US,en;q=0.9",z6ftv8uvlzvul6v,20 years old,"[""Prefer not to say""]",No,Female,NA,No,524901.599999994,NA,null,<p></p>,null,choice,wb,binary,catch,null,microwave ovens,85,90,5,25,null,null,1,NA,NA,NA,NA,NA,NA,NA,NA,NA,NA
NA,NA,NA,NA,NA,choice_trial,survey-html-form,45,220923,0.0-4.0-1.20,316,1,2025-05-08T14:52:02Z,b60275e29fe2361ab97ac0ac217840d7,"Mozilla/5.0 (Windows NT 10.0; Win64; x64) AppleWebKit/537.36 (KHTML, like Gecko) Chrome/136.0.0.0 Safari/537.36 Edg/136.0.0.0",WebKit,Edge,136.0.0.0,Windows,10,https://5puzkbbxv1.cognition.run/?sona_id=57774,"en-US,en;q=0.9",z6ftv8uvlzvul6v,20 years old,"[""Prefer not to say""]",No,Female,NA,No,524901.599999994,NA,3548,NA,"{""product_choice"":""B""}",choice,wb,binary,catch,null,microwave ovens,85,90,5,25,null,null,1,null,null,null,null,null,null,Warranty,Cooking power,NA,NA
NA,NA,NA,NA,NA,choice_trial_setup,html-keyboard-response,46,221238,0.0-4.0-0.21,316,1,2025-05-08T14:52:02Z,b60275e29fe2361ab97ac0ac217840d7,"Mozilla/5.0 (Windows NT 10.0; Win64; x64) AppleWebKit/537.36 (KHTML, like Gecko) Chrome/136.0.0.0 Safari/537.36 Edg/136.0.0.0",WebKit,Edge,136.0.0.0,Windows,10,https://5puzkbbxv1.cognition.run/?sona_id=57774,"en-US,en;q=0.9",z6ftv8uvlzvul6v,20 years old,"[""Prefer not to say""]",No,Female,NA,No,524901.599999994,NA,null,<p></p>,null,choice,tc,binary,repulsion,1,washing machines,null,null,null,null,null,null,2,NA,NA,NA,NA,NA,NA,NA,NA,NA,NA
NA,NA,NA,NA,NA,choice_trial,survey-html-form,47,225549,0.0-4.0-1.21,316,1,2025-05-08T14:52:02Z,b60275e29fe2361ab97ac0ac217840d7,"Mozilla/5.0 (Windows NT 10.0; Win64; x64) AppleWebKit/537.36 (KHTML, like Gecko) Chrome/136.0.0.0 Safari/537.36 Edg/136.0.0.0",WebKit,Edge,136.0.0.0,Windows,10,https://5puzkbbxv1.cognition.run/?sona_id=57774,"en-US,en;q=0.9",z6ftv8uvlzvul6v,20 years old,"[""Prefer not to say""]",No,Female,NA,No,524901.599999994,NA,4307,NA,"{""product_choice"":""B""}",choice,tc,binary,repulsion,1,washing machines,null,null,null,null,null,null,2,100,90,null,30,40,null,Average lifespan,Energy savings,NA,NA
NA,NA,NA,NA,NA,choice_trial_setup,html-keyboard-response,48,225859,0.0-4.0-0.22,316,1,2025-05-08T14:52:02Z,b60275e29fe2361ab97ac0ac217840d7,"Mozilla/5.0 (Windows NT 10.0; Win64; x64) AppleWebKit/537.36 (KHTML, like Gecko) Chrome/136.0.0.0 Safari/537.36 Edg/136.0.0.0",WebKit,Edge,136.0.0.0,Windows,10,https://5puzkbbxv1.cognition.run/?sona_id=57774,"en-US,en;q=0.9",z6ftv8uvlzvul6v,20 years old,"[""Prefer not to say""]",No,Female,NA,No,524901.599999994,NA,null,<p></p>,null,choice,dct,trinary,repulsion_B,2,microwave ovens,null,null,null,null,null,null,1,NA,NA,NA,NA,NA,NA,NA,NA,NA,NA
NA,NA,NA,NA,NA,choice_trial,survey-html-form,49,230984,0.0-4.0-1.22,316,1,2025-05-08T14:52:02Z,b60275e29fe2361ab97ac0ac217840d7,"Mozilla/5.0 (Windows NT 10.0; Win64; x64) AppleWebKit/537.36 (KHTML, like Gecko) Chrome/136.0.0.0 Safari/537.36 Edg/136.0.0.0",WebKit,Edge,136.0.0.0,Windows,10,https://5puzkbbxv1.cognition.run/?sona_id=57774,"en-US,en;q=0.9",z6ftv8uvlzvul6v,20 years old,"[""Prefer not to say""]",No,Female,NA,No,524901.599999994,NA,5120,NA,"{""product_choice"":""C""}",choice,dct,trinary,repulsion_B,2,microwave ovens,null,null,null,null,null,null,1,40,30,40,90,100,80,Warranty,Cooking power,NA,NA
NA,NA,NA,NA,NA,choice_trial_setup,html-keyboard-response,50,231288,0.0-4.0-0.23,316,1,2025-05-08T14:52:02Z,b60275e29fe2361ab97ac0ac217840d7,"Mozilla/5.0 (Windows NT 10.0; Win64; x64) AppleWebKit/537.36 (KHTML, like Gecko) Chrome/136.0.0.0 Safari/537.36 Edg/136.0.0.0",WebKit,Edge,136.0.0.0,Windows,10,https://5puzkbbxv1.cognition.run/?sona_id=57774,"en-US,en;q=0.9",z6ftv8uvlzvul6v,20 years old,"[""Prefer not to say""]",No,Female,NA,No,524901.599999994,NA,null,<p></p>,null,choice,dtc,trinary,repulsion_A,1,washing machines,null,null,null,null,null,null,1,NA,NA,NA,NA,NA,NA,NA,NA,NA,NA
NA,NA,NA,NA,NA,choice_trial,survey-html-form,51,234911,0.0-4.0-1.23,316,1,2025-05-08T14:52:02Z,b60275e29fe2361ab97ac0ac217840d7,"Mozilla/5.0 (Windows NT 10.0; Win64; x64) AppleWebKit/537.36 (KHTML, like Gecko) Chrome/136.0.0.0 Safari/537.36 Edg/136.0.0.0",WebKit,Edge,136.0.0.0,Windows,10,https://5puzkbbxv1.cognition.run/?sona_id=57774,"en-US,en;q=0.9",z6ftv8uvlzvul6v,20 years old,"[""Prefer not to say""]",No,Female,NA,No,524901.599999994,NA,3634,NA,"{""product_choice"":""C""}",choice,dtc,trinary,repulsion_A,1,washing machines,null,null,null,null,null,null,1,100,90,100,30,40,20,Average lifespan,Energy savings,NA,NA
NA,NA,NA,NA,NA,choice_trial_setup,html-keyboard-response,52,235225,0.0-4.0-0.24,316,1,2025-05-08T14:52:02Z,b60275e29fe2361ab97ac0ac217840d7,"Mozilla/5.0 (Windows NT 10.0; Win64; x64) AppleWebKit/537.36 (KHTML, like Gecko) Chrome/136.0.0.0 Safari/537.36 Edg/136.0.0.0",WebKit,Edge,136.0.0.0,Windows,10,https://5puzkbbxv1.cognition.run/?sona_id=57774,"en-US,en;q=0.9",z6ftv8uvlzvul6v,20 years old,"[""Prefer not to say""]",No,Female,NA,No,524901.599999994,NA,null,<p></p>,null,choice,dtc,trinary,repulsion_A,1,televisions,null,null,null,null,null,null,2,NA,NA,NA,NA,NA,NA,NA,NA,NA,NA
NA,NA,NA,NA,NA,choice_trial,survey-html-form,53,240238,0.0-4.0-1.24,316,1,2025-05-08T14:52:02Z,b60275e29fe2361ab97ac0ac217840d7,"Mozilla/5.0 (Windows NT 10.0; Win64; x64) AppleWebKit/537.36 (KHTML, like Gecko) Chrome/136.0.0.0 Safari/537.36 Edg/136.0.0.0",WebKit,Edge,136.0.0.0,Windows,10,https://5puzkbbxv1.cognition.run/?sona_id=57774,"en-US,en;q=0.9",z6ftv8uvlzvul6v,20 years old,"[""Prefer not to say""]",No,Female,NA,No,524901.599999994,NA,5008,NA,"{""product_choice"":""C""}",choice,dtc,trinary,repulsion_A,1,televisions,null,null,null,null,null,null,2,100,90,100,30,40,20,Screen size,Average lifespan,NA,NA
NA,NA,NA,NA,NA,choice_trial_setup,html-keyboard-response,54,240544,0.0-4.0-0.25,316,1,2025-05-08T14:52:02Z,b60275e29fe2361ab97ac0ac217840d7,"Mozilla/5.0 (Windows NT 10.0; Win64; x64) AppleWebKit/537.36 (KHTML, like Gecko) Chrome/136.0.0.0 Safari/537.36 Edg/136.0.0.0",WebKit,Edge,136.0.0.0,Windows,10,https://5puzkbbxv1.cognition.run/?sona_id=57774,"en-US,en;q=0.9",z6ftv8uvlzvul6v,20 years old,"[""Prefer not to say""]",No,Female,NA,No,524901.599999994,NA,null,<p></p>,null,choice,tcd,trinary,attraction,2,televisions,null,null,null,null,null,null,2,NA,NA,NA,NA,NA,NA,NA,NA,NA,NA
NA,NA,NA,NA,NA,choice_trial,survey-html-form,55,248402,0.0-4.0-1.25,316,1,2025-05-08T14:52:02Z,b60275e29fe2361ab97ac0ac217840d7,"Mozilla/5.0 (Windows NT 10.0; Win64; x64) AppleWebKit/537.36 (KHTML, like Gecko) Chrome/136.0.0.0 Safari/537.36 Edg/136.0.0.0",WebKit,Edge,136.0.0.0,Windows,10,https://5puzkbbxv1.cognition.run/?sona_id=57774,"en-US,en;q=0.9",z6ftv8uvlzvul6v,20 years old,"[""Prefer not to say""]",No,Female,NA,No,524901.599999994,NA,7854,NA,"{""product_choice"":""B""}",choice,tcd,trinary,attraction,2,televisions,null,null,null,null,null,null,2,50,60,40,60,50,60,Screen size,Average lifespan,NA,NA
NA,NA,NA,NA,NA,choice_trial_setup,html-keyboard-response,56,248720,0.0-4.0-0.26,316,1,2025-05-08T14:52:02Z,b60275e29fe2361ab97ac0ac217840d7,"Mozilla/5.0 (Windows NT 10.0; Win64; x64) AppleWebKit/537.36 (KHTML, like Gecko) Chrome/136.0.0.0 Safari/537.36 Edg/136.0.0.0",WebKit,Edge,136.0.0.0,Windows,10,https://5puzkbbxv1.cognition.run/?sona_id=57774,"en-US,en;q=0.9",z6ftv8uvlzvul6v,20 years old,"[""Prefer not to say""]",No,Female,NA,No,524901.599999994,NA,null,<p></p>,null,choice,tcd,trinary,repulsion_B,2,televisions,null,null,null,null,null,null,2,NA,NA,NA,NA,NA,NA,NA,NA,NA,NA
NA,NA,NA,NA,NA,choice_trial,survey-html-form,57,255691,0.0-4.0-1.26,316,1,2025-05-08T14:52:02Z,b60275e29fe2361ab97ac0ac217840d7,"Mozilla/5.0 (Windows NT 10.0; Win64; x64) AppleWebKit/537.36 (KHTML, like Gecko) Chrome/136.0.0.0 Safari/537.36 Edg/136.0.0.0",WebKit,Edge,136.0.0.0,Windows,10,https://5puzkbbxv1.cognition.run/?sona_id=57774,"en-US,en;q=0.9",z6ftv8uvlzvul6v,20 years old,"[""Prefer not to say""]",No,Female,NA,No,524901.599999994,NA,6966,NA,"{""product_choice"":""A""}",choice,tcd,trinary,repulsion_B,2,televisions,null,null,null,null,null,null,2,40,30,40,90,100,80,Screen size,Average lifespan,NA,NA
NA,NA,NA,NA,NA,choice_trial_setup,html-keyboard-response,58,255997,0.0-4.0-0.27,316,1,2025-05-08T14:52:02Z,b60275e29fe2361ab97ac0ac217840d7,"Mozilla/5.0 (Windows NT 10.0; Win64; x64) AppleWebKit/537.36 (KHTML, like Gecko) Chrome/136.0.0.0 Safari/537.36 Edg/136.0.0.0",WebKit,Edge,136.0.0.0,Windows,10,https://5puzkbbxv1.cognition.run/?sona_id=57774,"en-US,en;q=0.9",z6ftv8uvlzvul6v,20 years old,"[""Prefer not to say""]",No,Female,NA,No,524901.599999994,NA,null,<p></p>,null,choice,tc,binary,repulsion,2,washing machines,null,null,null,null,null,null,2,NA,NA,NA,NA,NA,NA,NA,NA,NA,NA
NA,NA,NA,NA,NA,choice_trial,survey-html-form,59,259060,0.0-4.0-1.27,316,1,2025-05-08T14:52:02Z,b60275e29fe2361ab97ac0ac217840d7,"Mozilla/5.0 (Windows NT 10.0; Win64; x64) AppleWebKit/537.36 (KHTML, like Gecko) Chrome/136.0.0.0 Safari/537.36 Edg/136.0.0.0",WebKit,Edge,136.0.0.0,Windows,10,https://5puzkbbxv1.cognition.run/?sona_id=57774,"en-US,en;q=0.9",z6ftv8uvlzvul6v,20 years old,"[""Prefer not to say""]",No,Female,NA,No,524901.599999994,NA,3058,NA,"{""product_choice"":""B""}",choice,tc,binary,repulsion,2,washing machines,null,null,null,null,null,null,2,30,40,null,100,90,null,Average lifespan,Energy savings,NA,NA
NA,NA,NA,NA,NA,choice_trial_setup,html-keyboard-response,60,259371,0.0-4.0-0.28,316,1,2025-05-08T14:52:02Z,b60275e29fe2361ab97ac0ac217840d7,"Mozilla/5.0 (Windows NT 10.0; Win64; x64) AppleWebKit/537.36 (KHTML, like Gecko) Chrome/136.0.0.0 Safari/537.36 Edg/136.0.0.0",WebKit,Edge,136.0.0.0,Windows,10,https://5puzkbbxv1.cognition.run/?sona_id=57774,"en-US,en;q=0.9",z6ftv8uvlzvul6v,20 years old,"[""Prefer not to say""]",No,Female,NA,No,524901.599999994,NA,null,<p></p>,null,choice,dct,trinary,repulsion_B,1,televisions,null,null,null,null,null,null,1,NA,NA,NA,NA,NA,NA,NA,NA,NA,NA
NA,NA,NA,NA,NA,choice_trial,survey-html-form,61,294840,0.0-4.0-1.28,316,1,2025-05-08T14:52:02Z,b60275e29fe2361ab97ac0ac217840d7,"Mozilla/5.0 (Windows NT 10.0; Win64; x64) AppleWebKit/537.36 (KHTML, like Gecko) Chrome/136.0.0.0 Safari/537.36 Edg/136.0.0.0",WebKit,Edge,136.0.0.0,Windows,10,https://5puzkbbxv1.cognition.run/?sona_id=57774,"en-US,en;q=0.9",z6ftv8uvlzvul6v,20 years old,"[""Prefer not to say""]",No,Female,NA,No,524901.599999994,NA,35478,NA,"{""product_choice"":""C""}",choice,dct,trinary,repulsion_B,1,televisions,null,null,null,null,null,null,1,90,100,80,40,30,40,Screen size,Average lifespan,NA,NA
NA,NA,NA,NA,NA,choice_trial_setup,html-keyboard-response,62,295159,0.0-4.0-0.29,316,1,2025-05-08T14:52:02Z,b60275e29fe2361ab97ac0ac217840d7,"Mozilla/5.0 (Windows NT 10.0; Win64; x64) AppleWebKit/537.36 (KHTML, like Gecko) Chrome/136.0.0.0 Safari/537.36 Edg/136.0.0.0",WebKit,Edge,136.0.0.0,Windows,10,https://5puzkbbxv1.cognition.run/?sona_id=57774,"en-US,en;q=0.9",z6ftv8uvlzvul6v,20 years old,"[""Prefer not to say""]",No,Female,NA,No,524901.599999994,NA,null,<p></p>,null,choice,ct,binary,repulsion,2,televisions,null,null,null,null,null,null,2,NA,NA,NA,NA,NA,NA,NA,NA,NA,NA
NA,NA,NA,NA,NA,choice_trial,survey-html-form,63,299272,0.0-4.0-1.29,316,1,2025-05-08T14:52:02Z,b60275e29fe2361ab97ac0ac217840d7,"Mozilla/5.0 (Windows NT 10.0; Win64; x64) AppleWebKit/537.36 (KHTML, like Gecko) Chrome/136.0.0.0 Safari/537.36 Edg/136.0.0.0",WebKit,Edge,136.0.0.0,Windows,10,https://5puzkbbxv1.cognition.run/?sona_id=57774,"en-US,en;q=0.9",z6ftv8uvlzvul6v,20 years old,"[""Prefer not to say""]",No,Female,NA,No,524901.599999994,NA,4108,NA,"{""product_choice"":""A""}",choice,ct,binary,repulsion,2,televisions,null,null,null,null,null,null,2,30,40,null,100,90,null,Screen size,Average lifespan,NA,NA
NA,NA,NA,NA,NA,choice_trial_setup,html-keyboard-response,64,299591,0.0-4.0-0.30,316,1,2025-05-08T14:52:02Z,b60275e29fe2361ab97ac0ac217840d7,"Mozilla/5.0 (Windows NT 10.0; Win64; x64) AppleWebKit/537.36 (KHTML, like Gecko) Chrome/136.0.0.0 Safari/537.36 Edg/136.0.0.0",WebKit,Edge,136.0.0.0,Windows,10,https://5puzkbbxv1.cognition.run/?sona_id=57774,"en-US,en;q=0.9",z6ftv8uvlzvul6v,20 years old,"[""Prefer not to say""]",No,Female,NA,No,524901.599999994,NA,null,<p></p>,null,choice,tc,binary,attraction,NA,washing machines,null,null,null,null,null,null,2,NA,NA,NA,NA,NA,NA,NA,NA,NA,NA
NA,NA,NA,NA,NA,choice_trial,survey-html-form,65,302580,0.0-4.0-1.30,316,1,2025-05-08T14:52:02Z,b60275e29fe2361ab97ac0ac217840d7,"Mozilla/5.0 (Windows NT 10.0; Win64; x64) AppleWebKit/537.36 (KHTML, like Gecko) Chrome/136.0.0.0 Safari/537.36 Edg/136.0.0.0",WebKit,Edge,136.0.0.0,Windows,10,https://5puzkbbxv1.cognition.run/?sona_id=57774,"en-US,en;q=0.9",z6ftv8uvlzvul6v,20 years old,"[""Prefer not to say""]",No,Female,NA,No,524901.599999994,NA,2984,NA,"{""product_choice"":""B""}",choice,tc,binary,attraction,NA,washing machines,null,null,null,null,null,null,2,60,50,null,50,60,null,Average lifespan,Energy savings,NA,NA
NA,NA,NA,NA,NA,choice_trial_setup,html-keyboard-response,66,302893,0.0-4.0-0.31,316,1,2025-05-08T14:52:02Z,b60275e29fe2361ab97ac0ac217840d7,"Mozilla/5.0 (Windows NT 10.0; Win64; x64) AppleWebKit/537.36 (KHTML, like Gecko) Chrome/136.0.0.0 Safari/537.36 Edg/136.0.0.0",WebKit,Edge,136.0.0.0,Windows,10,https://5puzkbbxv1.cognition.run/?sona_id=57774,"en-US,en;q=0.9",z6ftv8uvlzvul6v,20 years old,"[""Prefer not to say""]",No,Female,NA,No,524901.599999994,NA,null,<p></p>,null,choice,dtc,trinary,repulsion_A,2,televisions,null,null,null,null,null,null,2,NA,NA,NA,NA,NA,NA,NA,NA,NA,NA
NA,NA,NA,NA,NA,choice_trial,survey-html-form,67,368858,0.0-4.0-1.31,316,1,2025-05-08T14:52:02Z,b60275e29fe2361ab97ac0ac217840d7,"Mozilla/5.0 (Windows NT 10.0; Win64; x64) AppleWebKit/537.36 (KHTML, like Gecko) Chrome/136.0.0.0 Safari/537.36 Edg/136.0.0.0",WebKit,Edge,136.0.0.0,Windows,10,https://5puzkbbxv1.cognition.run/?sona_id=57774,"en-US,en;q=0.9",z6ftv8uvlzvul6v,20 years old,"[""Prefer not to say""]",No,Female,NA,No,524901.599999994,NA,65977,NA,"{""product_choice"":""C""}",choice,dtc,trinary,repulsion_A,2,televisions,null,null,null,null,null,null,2,30,40,20,100,90,100,Screen size,Average lifespan,NA,NA
NA,NA,NA,NA,NA,choice_trial_setup,html-keyboard-response,68,369164,0.0-4.0-0.32,316,1,2025-05-08T14:52:02Z,b60275e29fe2361ab97ac0ac217840d7,"Mozilla/5.0 (Windows NT 10.0; Win64; x64) AppleWebKit/537.36 (KHTML, like Gecko) Chrome/136.0.0.0 Safari/537.36 Edg/136.0.0.0",WebKit,Edge,136.0.0.0,Windows,10,https://5puzkbbxv1.cognition.run/?sona_id=57774,"en-US,en;q=0.9",z6ftv8uvlzvul6v,20 years old,"[""Prefer not to say""]",No,Female,NA,No,524901.599999994,NA,null,<p></p>,null,choice,ctd,trinary,attraction,2,microwave ovens,null,null,null,null,null,null,2,NA,NA,NA,NA,NA,NA,NA,NA,NA,NA
NA,NA,NA,NA,NA,choice_trial,survey-html-form,69,376360,0.0-4.0-1.32,316,1,2025-05-08T14:52:02Z,b60275e29fe2361ab97ac0ac217840d7,"Mozilla/5.0 (Windows NT 10.0; Win64; x64) AppleWebKit/537.36 (KHTML, like Gecko) Chrome/136.0.0.0 Safari/537.36 Edg/136.0.0.0",WebKit,Edge,136.0.0.0,Windows,10,https://5puzkbbxv1.cognition.run/?sona_id=57774,"en-US,en;q=0.9",z6ftv8uvlzvul6v,20 years old,"[""Prefer not to say""]",No,Female,NA,No,524901.599999994,NA,7192,NA,"{""product_choice"":""B""}",choice,ctd,trinary,attraction,2,microwave ovens,null,null,null,null,null,null,2,50,60,40,60,50,60,Warranty,Cooking power,NA,NA
NA,NA,NA,NA,NA,choice_trial_setup,html-keyboard-response,70,376669,0.0-4.0-0.33,316,1,2025-05-08T14:52:02Z,b60275e29fe2361ab97ac0ac217840d7,"Mozilla/5.0 (Windows NT 10.0; Win64; x64) AppleWebKit/537.36 (KHTML, like Gecko) Chrome/136.0.0.0 Safari/537.36 Edg/136.0.0.0",WebKit,Edge,136.0.0.0,Windows,10,https://5puzkbbxv1.cognition.run/?sona_id=57774,"en-US,en;q=0.9",z6ftv8uvlzvul6v,20 years old,"[""Prefer not to say""]",No,Female,NA,No,524901.599999994,NA,null,<p></p>,null,choice,tc,binary,attraction,NA,laptops,null,null,null,null,null,null,2,NA,NA,NA,NA,NA,NA,NA,NA,NA,NA
NA,NA,NA,NA,NA,choice_trial,survey-html-form,71,381795,0.0-4.0-1.33,316,1,2025-05-08T14:52:02Z,b60275e29fe2361ab97ac0ac217840d7,"Mozilla/5.0 (Windows NT 10.0; Win64; x64) AppleWebKit/537.36 (KHTML, like Gecko) Chrome/136.0.0.0 Safari/537.36 Edg/136.0.0.0",WebKit,Edge,136.0.0.0,Windows,10,https://5puzkbbxv1.cognition.run/?sona_id=57774,"en-US,en;q=0.9",z6ftv8uvlzvul6v,20 years old,"[""Prefer not to say""]",No,Female,NA,No,524901.599999994,NA,5120,NA,"{""product_choice"":""A""}",choice,tc,binary,attraction,NA,laptops,null,null,null,null,null,null,2,60,50,null,50,60,null,Processing speed,Memory (RAM),NA,NA
NA,NA,NA,NA,NA,choice_trial_setup,html-keyboard-response,72,382108,0.0-4.0-0.34,316,1,2025-05-08T14:52:02Z,b60275e29fe2361ab97ac0ac217840d7,"Mozilla/5.0 (Windows NT 10.0; Win64; x64) AppleWebKit/537.36 (KHTML, like Gecko) Chrome/136.0.0.0 Safari/537.36 Edg/136.0.0.0",WebKit,Edge,136.0.0.0,Windows,10,https://5puzkbbxv1.cognition.run/?sona_id=57774,"en-US,en;q=0.9",z6ftv8uvlzvul6v,20 years old,"[""Prefer not to say""]",No,Female,NA,No,524901.599999994,NA,null,<p></p>,null,choice,tdc,trinary,attraction,2,laptops,null,null,null,null,null,null,1,NA,NA,NA,NA,NA,NA,NA,NA,NA,NA
NA,NA,NA,NA,NA,choice_trial,survey-html-form,73,387265,0.0-4.0-1.34,316,1,2025-05-08T14:52:02Z,b60275e29fe2361ab97ac0ac217840d7,"Mozilla/5.0 (Windows NT 10.0; Win64; x64) AppleWebKit/537.36 (KHTML, like Gecko) Chrome/136.0.0.0 Safari/537.36 Edg/136.0.0.0",WebKit,Edge,136.0.0.0,Windows,10,https://5puzkbbxv1.cognition.run/?sona_id=57774,"en-US,en;q=0.9",z6ftv8uvlzvul6v,20 years old,"[""Prefer not to say""]",No,Female,NA,No,524901.599999994,NA,5151,NA,"{""product_choice"":""A""}",choice,tdc,trinary,attraction,2,laptops,null,null,null,null,null,null,1,50,60,40,60,50,60,Processing speed,Memory (RAM),NA,NA
NA,NA,NA,NA,NA,choice_trial_setup,html-keyboard-response,74,387576,0.0-4.0-0.35,316,1,2025-05-08T14:52:02Z,b60275e29fe2361ab97ac0ac217840d7,"Mozilla/5.0 (Windows NT 10.0; Win64; x64) AppleWebKit/537.36 (KHTML, like Gecko) Chrome/136.0.0.0 Safari/537.36 Edg/136.0.0.0",WebKit,Edge,136.0.0.0,Windows,10,https://5puzkbbxv1.cognition.run/?sona_id=57774,"en-US,en;q=0.9",z6ftv8uvlzvul6v,20 years old,"[""Prefer not to say""]",No,Female,NA,No,524901.599999994,NA,null,<p></p>,null,choice,dct,trinary,repulsion_B,2,washing machines,null,null,null,null,null,null,2,NA,NA,NA,NA,NA,NA,NA,NA,NA,NA
NA,NA,NA,NA,NA,choice_trial,survey-html-form,75,392982,0.0-4.0-1.35,316,1,2025-05-08T14:52:02Z,b60275e29fe2361ab97ac0ac217840d7,"Mozilla/5.0 (Windows NT 10.0; Win64; x64) AppleWebKit/537.36 (KHTML, like Gecko) Chrome/136.0.0.0 Safari/537.36 Edg/136.0.0.0",WebKit,Edge,136.0.0.0,Windows,10,https://5puzkbbxv1.cognition.run/?sona_id=57774,"en-US,en;q=0.9",z6ftv8uvlzvul6v,20 years old,"[""Prefer not to say""]",No,Female,NA,No,524901.599999994,NA,5401,NA,"{""product_choice"":""C""}",choice,dct,trinary,repulsion_B,2,washing machines,null,null,null,null,null,null,2,40,30,40,90,100,80,Average lifespan,Energy savings,NA,NA
NA,NA,NA,NA,NA,choice_trial_setup,html-keyboard-response,76,393303,0.0-4.0-0.36,316,1,2025-05-08T14:52:02Z,b60275e29fe2361ab97ac0ac217840d7,"Mozilla/5.0 (Windows NT 10.0; Win64; x64) AppleWebKit/537.36 (KHTML, like Gecko) Chrome/136.0.0.0 Safari/537.36 Edg/136.0.0.0",WebKit,Edge,136.0.0.0,Windows,10,https://5puzkbbxv1.cognition.run/?sona_id=57774,"en-US,en;q=0.9",z6ftv8uvlzvul6v,20 years old,"[""Prefer not to say""]",No,Female,NA,No,524901.599999994,NA,null,<p></p>,null,choice,ctd,trinary,repulsion_B,1,washing machines,null,null,null,null,null,null,2,NA,NA,NA,NA,NA,NA,NA,NA,NA,NA
NA,NA,NA,NA,NA,choice_trial,survey-html-form,77,397501,0.0-4.0-1.36,316,1,2025-05-08T14:52:02Z,b60275e29fe2361ab97ac0ac217840d7,"Mozilla/5.0 (Windows NT 10.0; Win64; x64) AppleWebKit/537.36 (KHTML, like Gecko) Chrome/136.0.0.0 Safari/537.36 Edg/136.0.0.0",WebKit,Edge,136.0.0.0,Windows,10,https://5puzkbbxv1.cognition.run/?sona_id=57774,"en-US,en;q=0.9",z6ftv8uvlzvul6v,20 years old,"[""Prefer not to say""]",No,Female,NA,No,524901.599999994,NA,4194,NA,"{""product_choice"":""B""}",choice,ctd,trinary,repulsion_B,1,washing machines,null,null,null,null,null,null,2,90,100,80,40,30,40,Average lifespan,Energy savings,NA,NA
NA,NA,NA,NA,NA,choice_trial_setup,html-keyboard-response,78,397812,0.0-4.0-0.37,316,1,2025-05-08T14:52:02Z,b60275e29fe2361ab97ac0ac217840d7,"Mozilla/5.0 (Windows NT 10.0; Win64; x64) AppleWebKit/537.36 (KHTML, like Gecko) Chrome/136.0.0.0 Safari/537.36 Edg/136.0.0.0",WebKit,Edge,136.0.0.0,Windows,10,https://5puzkbbxv1.cognition.run/?sona_id=57774,"en-US,en;q=0.9",z6ftv8uvlzvul6v,20 years old,"[""Prefer not to say""]",No,Female,NA,No,524901.599999994,NA,null,<p></p>,null,choice,dct,trinary,repulsion_B,2,laptops,null,null,null,null,null,null,2,NA,NA,NA,NA,NA,NA,NA,NA,NA,NA
NA,NA,NA,NA,NA,choice_trial,survey-html-form,79,407318,0.0-4.0-1.37,316,1,2025-05-08T14:52:02Z,b60275e29fe2361ab97ac0ac217840d7,"Mozilla/5.0 (Windows NT 10.0; Win64; x64) AppleWebKit/537.36 (KHTML, like Gecko) Chrome/136.0.0.0 Safari/537.36 Edg/136.0.0.0",WebKit,Edge,136.0.0.0,Windows,10,https://5puzkbbxv1.cognition.run/?sona_id=57774,"en-US,en;q=0.9",z6ftv8uvlzvul6v,20 years old,"[""Prefer not to say""]",No,Female,NA,No,524901.599999994,NA,9502,NA,"{""product_choice"":""C""}",choice,dct,trinary,repulsion_B,2,laptops,null,null,null,null,null,null,2,40,30,40,90,100,80,Processing speed,Memory (RAM),NA,NA
NA,NA,NA,NA,NA,choice_trial_setup,html-keyboard-response,80,407629,0.0-4.0-0.38,316,1,2025-05-08T14:52:02Z,b60275e29fe2361ab97ac0ac217840d7,"Mozilla/5.0 (Windows NT 10.0; Win64; x64) AppleWebKit/537.36 (KHTML, like Gecko) Chrome/136.0.0.0 Safari/537.36 Edg/136.0.0.0",WebKit,Edge,136.0.0.0,Windows,10,https://5puzkbbxv1.cognition.run/?sona_id=57774,"en-US,en;q=0.9",z6ftv8uvlzvul6v,20 years old,"[""Prefer not to say""]",No,Female,NA,No,524901.599999994,NA,null,<p></p>,null,choice,dtc,trinary,attraction,1,microwave ovens,null,null,null,null,null,null,2,NA,NA,NA,NA,NA,NA,NA,NA,NA,NA
NA,NA,NA,NA,NA,choice_trial,survey-html-form,81,411243,0.0-4.0-1.38,316,1,2025-05-08T14:52:02Z,b60275e29fe2361ab97ac0ac217840d7,"Mozilla/5.0 (Windows NT 10.0; Win64; x64) AppleWebKit/537.36 (KHTML, like Gecko) Chrome/136.0.0.0 Safari/537.36 Edg/136.0.0.0",WebKit,Edge,136.0.0.0,Windows,10,https://5puzkbbxv1.cognition.run/?sona_id=57774,"en-US,en;q=0.9",z6ftv8uvlzvul6v,20 years old,"[""Prefer not to say""]",No,Female,NA,No,524901.599999994,NA,3607,NA,"{""product_choice"":""B""}",choice,dtc,trinary,attraction,1,microwave ovens,null,null,null,null,null,null,2,60,50,60,50,60,40,Warranty,Cooking power,NA,NA
NA,NA,NA,NA,NA,choice_trial_setup,html-keyboard-response,82,411552,0.0-4.0-0.39,316,1,2025-05-08T14:52:02Z,b60275e29fe2361ab97ac0ac217840d7,"Mozilla/5.0 (Windows NT 10.0; Win64; x64) AppleWebKit/537.36 (KHTML, like Gecko) Chrome/136.0.0.0 Safari/537.36 Edg/136.0.0.0",WebKit,Edge,136.0.0.0,Windows,10,https://5puzkbbxv1.cognition.run/?sona_id=57774,"en-US,en;q=0.9",z6ftv8uvlzvul6v,20 years old,"[""Prefer not to say""]",No,Female,NA,No,524901.599999994,NA,null,<p></p>,null,choice,dct,trinary,attraction,2,washing machines,null,null,null,null,null,null,2,NA,NA,NA,NA,NA,NA,NA,NA,NA,NA
NA,NA,NA,NA,NA,choice_trial,survey-html-form,83,434144,0.0-4.0-1.39,316,1,2025-05-08T14:52:02Z,b60275e29fe2361ab97ac0ac217840d7,"Mozilla/5.0 (Windows NT 10.0; Win64; x64) AppleWebKit/537.36 (KHTML, like Gecko) Chrome/136.0.0.0 Safari/537.36 Edg/136.0.0.0",WebKit,Edge,136.0.0.0,Windows,10,https://5puzkbbxv1.cognition.run/?sona_id=57774,"en-US,en;q=0.9",z6ftv8uvlzvul6v,20 years old,"[""Prefer not to say""]",No,Female,NA,No,524901.599999994,NA,22602,NA,"{""product_choice"":""C""}",choice,dct,trinary,attraction,2,washing machines,null,null,null,null,null,null,2,50,60,40,60,50,60,Average lifespan,Energy savings,NA,NA
NA,NA,NA,NA,NA,choice_trial_setup,html-keyboard-response,84,434452,0.0-4.0-0.40,316,1,2025-05-08T14:52:02Z,b60275e29fe2361ab97ac0ac217840d7,"Mozilla/5.0 (Windows NT 10.0; Win64; x64) AppleWebKit/537.36 (KHTML, like Gecko) Chrome/136.0.0.0 Safari/537.36 Edg/136.0.0.0",WebKit,Edge,136.0.0.0,Windows,10,https://5puzkbbxv1.cognition.run/?sona_id=57774,"en-US,en;q=0.9",z6ftv8uvlzvul6v,20 years old,"[""Prefer not to say""]",No,Female,NA,No,524901.599999994,NA,null,<p></p>,null,choice,bww,trinary,catch,null,televisions,60,90,20,25,45,50,2,NA,NA,NA,NA,NA,NA,NA,NA,NA,NA
NA,NA,NA,NA,NA,choice_trial,survey-html-form,85,440066,0.0-4.0-1.40,316,1,2025-05-08T14:52:02Z,b60275e29fe2361ab97ac0ac217840d7,"Mozilla/5.0 (Windows NT 10.0; Win64; x64) AppleWebKit/537.36 (KHTML, like Gecko) Chrome/136.0.0.0 Safari/537.36 Edg/136.0.0.0",WebKit,Edge,136.0.0.0,Windows,10,https://5puzkbbxv1.cognition.run/?sona_id=57774,"en-US,en;q=0.9",z6ftv8uvlzvul6v,20 years old,"[""Prefer not to say""]",No,Female,NA,No,524901.599999994,NA,5607,NA,"{""product_choice"":""A""}",choice,bww,trinary,catch,null,televisions,60,90,20,25,45,50,2,null,null,null,null,null,null,Screen size,Average lifespan,NA,NA
NA,NA,NA,NA,NA,choice_trial_setup,html-keyboard-response,86,440383,0.0-4.0-0.41,316,1,2025-05-08T14:52:02Z,b60275e29fe2361ab97ac0ac217840d7,"Mozilla/5.0 (Windows NT 10.0; Win64; x64) AppleWebKit/537.36 (KHTML, like Gecko) Chrome/136.0.0.0 Safari/537.36 Edg/136.0.0.0",WebKit,Edge,136.0.0.0,Windows,10,https://5puzkbbxv1.cognition.run/?sona_id=57774,"en-US,en;q=0.9",z6ftv8uvlzvul6v,20 years old,"[""Prefer not to say""]",No,Female,NA,No,524901.599999994,NA,null,<p></p>,null,choice,ct,binary,repulsion,1,televisions,null,null,null,null,null,null,1,NA,NA,NA,NA,NA,NA,NA,NA,NA,NA
NA,NA,NA,NA,NA,choice_trial,survey-html-form,87,443186,0.0-4.0-1.41,316,1,2025-05-08T14:52:02Z,b60275e29fe2361ab97ac0ac217840d7,"Mozilla/5.0 (Windows NT 10.0; Win64; x64) AppleWebKit/537.36 (KHTML, like Gecko) Chrome/136.0.0.0 Safari/537.36 Edg/136.0.0.0",WebKit,Edge,136.0.0.0,Windows,10,https://5puzkbbxv1.cognition.run/?sona_id=57774,"en-US,en;q=0.9",z6ftv8uvlzvul6v,20 years old,"[""Prefer not to say""]",No,Female,NA,No,524901.599999994,NA,2797,NA,"{""product_choice"":""A""}",choice,ct,binary,repulsion,1,televisions,null,null,null,null,null,null,1,100,90,null,30,40,null,Screen size,Average lifespan,NA,NA
NA,NA,NA,NA,NA,choice_trial_setup,html-keyboard-response,88,443501,0.0-4.0-0.42,316,1,2025-05-08T14:52:02Z,b60275e29fe2361ab97ac0ac217840d7,"Mozilla/5.0 (Windows NT 10.0; Win64; x64) AppleWebKit/537.36 (KHTML, like Gecko) Chrome/136.0.0.0 Safari/537.36 Edg/136.0.0.0",WebKit,Edge,136.0.0.0,Windows,10,https://5puzkbbxv1.cognition.run/?sona_id=57774,"en-US,en;q=0.9",z6ftv8uvlzvul6v,20 years old,"[""Prefer not to say""]",No,Female,NA,No,524901.599999994,NA,null,<p></p>,null,choice,ct,binary,attraction,NA,televisions,null,null,null,null,null,null,1,NA,NA,NA,NA,NA,NA,NA,NA,NA,NA
NA,NA,NA,NA,NA,choice_trial,survey-html-form,89,446080,0.0-4.0-1.42,316,1,2025-05-08T14:52:02Z,b60275e29fe2361ab97ac0ac217840d7,"Mozilla/5.0 (Windows NT 10.0; Win64; x64) AppleWebKit/537.36 (KHTML, like Gecko) Chrome/136.0.0.0 Safari/537.36 Edg/136.0.0.0",WebKit,Edge,136.0.0.0,Windows,10,https://5puzkbbxv1.cognition.run/?sona_id=57774,"en-US,en;q=0.9",z6ftv8uvlzvul6v,20 years old,"[""Prefer not to say""]",No,Female,NA,No,524901.599999994,NA,2573,NA,"{""product_choice"":""A""}",choice,ct,binary,attraction,NA,televisions,null,null,null,null,null,null,1,60,50,null,50,60,null,Screen size,Average lifespan,NA,NA
NA,NA,NA,NA,NA,choice_trial_setup,html-keyboard-response,90,446401,0.0-4.0-0.43,316,1,2025-05-08T14:52:02Z,b60275e29fe2361ab97ac0ac217840d7,"Mozilla/5.0 (Windows NT 10.0; Win64; x64) AppleWebKit/537.36 (KHTML, like Gecko) Chrome/136.0.0.0 Safari/537.36 Edg/136.0.0.0",WebKit,Edge,136.0.0.0,Windows,10,https://5puzkbbxv1.cognition.run/?sona_id=57774,"en-US,en;q=0.9",z6ftv8uvlzvul6v,20 years old,"[""Prefer not to say""]",No,Female,NA,No,524901.599999994,NA,null,<p></p>,null,choice,wb,binary,catch,null,televisions,65,60,10,35,null,null,1,NA,NA,NA,NA,NA,NA,NA,NA,NA,NA
NA,NA,NA,NA,NA,choice_trial,survey-html-form,91,449138,0.0-4.0-1.43,316,1,2025-05-08T14:52:02Z,b60275e29fe2361ab97ac0ac217840d7,"Mozilla/5.0 (Windows NT 10.0; Win64; x64) AppleWebKit/537.36 (KHTML, like Gecko) Chrome/136.0.0.0 Safari/537.36 Edg/136.0.0.0",WebKit,Edge,136.0.0.0,Windows,10,https://5puzkbbxv1.cognition.run/?sona_id=57774,"en-US,en;q=0.9",z6ftv8uvlzvul6v,20 years old,"[""Prefer not to say""]",No,Female,NA,No,524901.599999994,NA,2730,NA,"{""product_choice"":""B""}",choice,wb,binary,catch,null,televisions,65,60,10,35,null,null,1,null,null,null,null,null,null,Screen size,Average lifespan,NA,NA
NA,NA,NA,NA,NA,post_trials_message,html-button-response,92,450715,0.0-5.0,316,1,2025-05-08T14:52:02Z,b60275e29fe2361ab97ac0ac217840d7,"Mozilla/5.0 (Windows NT 10.0; Win64; x64) AppleWebKit/537.36 (KHTML, like Gecko) Chrome/136.0.0.0 Safari/537.36 Edg/136.0.0.0",WebKit,Edge,136.0.0.0,Windows,10,https://5puzkbbxv1.cognition.run/?sona_id=57774,"en-US,en;q=0.9",z6ftv8uvlzvul6v,20 years old,"[""Prefer not to say""]",No,Female,NA,No,524901.599999994,NA,1570,<p> <b>Thank you for your patience!</b></p><p>  The study will be done after completing a brief form. </p>,0,NA,NA,NA,NA,NA,NA,NA,NA,NA,NA,NA,NA,NA,NA,NA,NA,NA,NA,NA,NA,NA,NA,NA
NA,NA,NA,NA,NA,survey_message,survey-text,93,484849,0.0-6.0,316,1,2025-05-08T14:52:02Z,b60275e29fe2361ab97ac0ac217840d7,"Mozilla/5.0 (Windows NT 10.0; Win64; x64) AppleWebKit/537.36 (KHTML, like Gecko) Chrome/136.0.0.0 Safari/537.36 Edg/136.0.0.0",WebKit,Edge,136.0.0.0,Windows,10,https://5puzkbbxv1.cognition.run/?sona_id=57774,"en-US,en;q=0.9",z6ftv8uvlzvul6v,20 years old,"[""Prefer not to say""]",No,Female,NA,No,524901.599999994,NA,34143,NA,"{""Q0"":""I went based on the best balance between how long the product last and the efficency of it""}",NA,NA,NA,NA,NA,NA,NA,NA,NA,NA,NA,NA,NA,NA,NA,NA,NA,NA,NA,NA,NA,I went based on the best balance between how long the product last and the efficency of it,NA
NA,NA,NA,NA,NA,demo_age,survey-text,94,490016,0.0-7.0,316,1,2025-05-08T14:52:02Z,b60275e29fe2361ab97ac0ac217840d7,"Mozilla/5.0 (Windows NT 10.0; Win64; x64) AppleWebKit/537.36 (KHTML, like Gecko) Chrome/136.0.0.0 Safari/537.36 Edg/136.0.0.0",WebKit,Edge,136.0.0.0,Windows,10,https://5puzkbbxv1.cognition.run/?sona_id=57774,"en-US,en;q=0.9",z6ftv8uvlzvul6v,20 years old,"[""Prefer not to say""]",No,Female,NA,No,524901.599999994,NA,5156,NA,"{""Q0"":""20 years old""}",NA,NA,NA,NA,NA,NA,NA,NA,NA,NA,NA,NA,NA,NA,NA,NA,NA,NA,NA,NA,NA,NA,NA
NA,NA,NA,NA,NA,demo_race,survey-multi-select,95,495261,0.0-8.0,316,1,2025-05-08T14:52:02Z,b60275e29fe2361ab97ac0ac217840d7,"Mozilla/5.0 (Windows NT 10.0; Win64; x64) AppleWebKit/537.36 (KHTML, like Gecko) Chrome/136.0.0.0 Safari/537.36 Edg/136.0.0.0",WebKit,Edge,136.0.0.0,Windows,10,https://5puzkbbxv1.cognition.run/?sona_id=57774,"en-US,en;q=0.9",z6ftv8uvlzvul6v,20 years old,"[""Prefer not to say""]",No,Female,NA,No,524901.599999994,NA,5235,NA,"{""Q0"":[""Prefer not to say""]}",NA,NA,NA,NA,NA,NA,NA,NA,NA,NA,NA,NA,NA,NA,NA,NA,NA,NA,NA,NA,NA,NA,[0]
NA,NA,NA,NA,NA,demo_ethnicity_gender,survey-multi-choice,96,499379,0.0-9.0,316,1,2025-05-08T14:52:02Z,b60275e29fe2361ab97ac0ac217840d7,"Mozilla/5.0 (Windows NT 10.0; Win64; x64) AppleWebKit/537.36 (KHTML, like Gecko) Chrome/136.0.0.0 Safari/537.36 Edg/136.0.0.0",WebKit,Edge,136.0.0.0,Windows,10,https://5puzkbbxv1.cognition.run/?sona_id=57774,"en-US,en;q=0.9",z6ftv8uvlzvul6v,20 years old,"[""Prefer not to say""]",No,Female,NA,No,524901.599999994,NA,4111,NA,"{""Q0"":""No"",""Q1"":""Female""}",NA,NA,NA,NA,NA,NA,NA,NA,NA,NA,NA,NA,NA,NA,NA,NA,NA,NA,NA,NA,NA,NA,"[0,1]"
NA,NA,NA,NA,NA,demo_countries,survey-text,97,505282,0.0-10.0,316,1,2025-05-08T14:52:02Z,b60275e29fe2361ab97ac0ac217840d7,"Mozilla/5.0 (Windows NT 10.0; Win64; x64) AppleWebKit/537.36 (KHTML, like Gecko) Chrome/136.0.0.0 Safari/537.36 Edg/136.0.0.0",WebKit,Edge,136.0.0.0,Windows,10,https://5puzkbbxv1.cognition.run/?sona_id=57774,"en-US,en;q=0.9",z6ftv8uvlzvul6v,20 years old,"[""Prefer not to say""]",No,Female,NA,No,524901.599999994,NA,5891,NA,"{""Q0"":""NA""}",NA,NA,NA,NA,NA,NA,NA,NA,NA,NA,NA,NA,NA,NA,NA,NA,NA,NA,NA,NA,NA,NA,NA
NA,NA,NA,NA,NA,demo_prev_study,survey-multi-choice,98,510356,0.0-11.0,316,1,2025-05-08T14:52:02Z,b60275e29fe2361ab97ac0ac217840d7,"Mozilla/5.0 (Windows NT 10.0; Win64; x64) AppleWebKit/537.36 (KHTML, like Gecko) Chrome/136.0.0.0 Safari/537.36 Edg/136.0.0.0",WebKit,Edge,136.0.0.0,Windows,10,https://5puzkbbxv1.cognition.run/?sona_id=57774,"en-US,en;q=0.9",z6ftv8uvlzvul6v,20 years old,"[""Prefer not to say""]",No,Female,NA,No,524901.599999994,NA,5066,NA,"{""Q0"":""No""}",NA,NA,NA,NA,NA,NA,NA,NA,NA,NA,NA,NA,NA,NA,NA,NA,NA,NA,NA,NA,NA,NA,[0]
NA,NA,NA,NA,NA,post_survey_message,html-keyboard-response,99,517629,0.0-12.0,316,1,2025-05-08T14:52:02Z,b60275e29fe2361ab97ac0ac217840d7,"Mozilla/5.0 (Windows NT 10.0; Win64; x64) AppleWebKit/537.36 (KHTML, like Gecko) Chrome/136.0.0.0 Safari/537.36 Edg/136.0.0.0",WebKit,Edge,136.0.0.0,Windows,10,https://5puzkbbxv1.cognition.run/?sona_id=57774,"en-US,en;q=0.9",z6ftv8uvlzvul6v,20 years old,"[""Prefer not to say""]",No,Female,NA,No,524901.599999994,NA,7268,NA,j,NA,NA,NA,NA,NA,NA,NA,NA,NA,NA,NA,NA,NA,NA,NA,NA,NA,NA,NA,NA,NA,NA,NA
NA,NA,NA,NA,NA,debrief,image-keyboard-response,100,524818,0.0-13.0,316,1,2025-05-08T14:52:02Z,b60275e29fe2361ab97ac0ac217840d7,"Mozilla/5.0 (Windows NT 10.0; Win64; x64) AppleWebKit/537.36 (KHTML, like Gecko) Chrome/136.0.0.0 Safari/537.36 Edg/136.0.0.0",WebKit,Edge,136.0.0.0,Windows,10,https://5puzkbbxv1.cognition.run/?sona_id=57774,"en-US,en;q=0.9",z6ftv8uvlzvul6v,20 years old,"[""Prefer not to say""]",No,Female,NA,No,524901.599999994,NA,7179,Judg_choice_debrief.png,p,NA,NA,NA,NA,NA,NA,NA,NA,NA,NA,NA,NA,NA,NA,NA,NA,NA,NA,NA,NA,NA,NA,NA
