success,timeout,failed_images,failed_audio,failed_video,screen_id,trial_type,trial_index,time_elapsed,internal_node_id,run_id,condition,recorded_at,source_code_version,user_agent,device,browser,browser_version,platform,platform_version,referer,accept_language,ppt_id,age,race,ethnicity,gender,other_countries,prev_study,exp_duration,view_history,rt,stimulus,response,phase,order,set,effect,t_high,category,d1_best,d2_best,d1_worst1,d2_worst1,d1_worst2,d2_worst2,first_dim,d1_t,d1_c,d1_d,d2_t,d2_c,d2_d,d1_name,d2_name,strategy_response,question_order
TRUE,FALSE,[],[],[],img preload,preload,0,120,0.0-0.0,318,1,2025-05-08T15:18:27Z,b60275e29fe2361ab97ac0ac217840d7,"Mozilla/5.0 (Macintosh; Intel Mac OS X 10_15_7) AppleWebKit/605.1.15 (KHTML, like Gecko) Version/17.6 Safari/605.1.15",Macintosh,Safari,17.6,OS X,10_15_7,https://5puzkbbxv1.cognition.run/?sona_id=55011,"en-US,en;q=0.9",wywz24qe55c9hf8,22,"[""White""]",No,Female,NA,I'm not sure,960885,NA,NA,NA,NA,NA,NA,NA,NA,NA,NA,NA,NA,NA,NA,NA,NA,NA,NA,NA,NA,NA,NA,NA,NA,NA,NA,NA
NA,NA,NA,NA,NA,computer_message,instructions,1,2799,0.0-1.0,318,1,2025-05-08T15:18:27Z,b60275e29fe2361ab97ac0ac217840d7,"Mozilla/5.0 (Macintosh; Intel Mac OS X 10_15_7) AppleWebKit/605.1.15 (KHTML, like Gecko) Version/17.6 Safari/605.1.15",Macintosh,Safari,17.6,OS X,10_15_7,https://5puzkbbxv1.cognition.run/?sona_id=55011,"en-US,en;q=0.9",wywz24qe55c9hf8,22,"[""White""]",No,Female,NA,I'm not sure,960885,"[{""page_index"":0,""viewing_time"":2678}]",2678,NA,NA,NA,NA,NA,NA,NA,NA,NA,NA,NA,NA,NA,NA,NA,NA,NA,NA,NA,NA,NA,NA,NA,NA,NA
TRUE,NA,NA,NA,NA,NA,fullscreen,2,7704,0.0-2.0,318,1,2025-05-08T15:18:27Z,b60275e29fe2361ab97ac0ac217840d7,"Mozilla/5.0 (Macintosh; Intel Mac OS X 10_15_7) AppleWebKit/605.1.15 (KHTML, like Gecko) Version/17.6 Safari/605.1.15",Macintosh,Safari,17.6,OS X,10_15_7,https://5puzkbbxv1.cognition.run/?sona_id=55011,"en-US,en;q=0.9",wywz24qe55c9hf8,22,"[""White""]",No,Female,NA,I'm not sure,960885,NA,3899,NA,NA,NA,NA,NA,NA,NA,NA,NA,NA,NA,NA,NA,NA,NA,NA,NA,NA,NA,NA,NA,NA,NA,NA,NA
NA,NA,NA,NA,NA,choice_instructions,instructions,3,46350,0.0-3.0,318,1,2025-05-08T15:18:27Z,b60275e29fe2361ab97ac0ac217840d7,"Mozilla/5.0 (Macintosh; Intel Mac OS X 10_15_7) AppleWebKit/605.1.15 (KHTML, like Gecko) Version/17.6 Safari/605.1.15",Macintosh,Safari,17.6,OS X,10_15_7,https://5puzkbbxv1.cognition.run/?sona_id=55011,"en-US,en;q=0.9",wywz24qe55c9hf8,22,"[""White""]",No,Female,NA,I'm not sure,960885,"[{""page_index"":0,""viewing_time"":2529},{""page_index"":1,""viewing_time"":3735},{""page_index"":2,""viewing_time"":3431},{""page_index"":3,""viewing_time"":3000},{""page_index"":4,""viewing_time"":3551},{""page_index"":5,""viewing_time"":18236},{""page_index"":6,""viewing_time"":4164}]",38647,NA,NA,NA,NA,NA,NA,NA,NA,NA,NA,NA,NA,NA,NA,NA,NA,NA,NA,NA,NA,NA,NA,NA,NA,NA
NA,NA,NA,NA,NA,choice_trial_setup,html-keyboard-response,4,46656,0.0-4.0-0.0,318,1,2025-05-08T15:18:27Z,b60275e29fe2361ab97ac0ac217840d7,"Mozilla/5.0 (Macintosh; Intel Mac OS X 10_15_7) AppleWebKit/605.1.15 (KHTML, like Gecko) Version/17.6 Safari/605.1.15",Macintosh,Safari,17.6,OS X,10_15_7,https://5puzkbbxv1.cognition.run/?sona_id=55011,"en-US,en;q=0.9",wywz24qe55c9hf8,22,"[""White""]",No,Female,NA,I'm not sure,960885,NA,null,<p></p>,null,choice,ctd,trinary,repulsion_A,2,laptops,null,null,null,null,null,null,1,NA,NA,NA,NA,NA,NA,NA,NA,NA,NA
NA,NA,NA,NA,NA,choice_trial,survey-html-form,5,59205,0.0-4.0-1.0,318,1,2025-05-08T15:18:27Z,b60275e29fe2361ab97ac0ac217840d7,"Mozilla/5.0 (Macintosh; Intel Mac OS X 10_15_7) AppleWebKit/605.1.15 (KHTML, like Gecko) Version/17.6 Safari/605.1.15",Macintosh,Safari,17.6,OS X,10_15_7,https://5puzkbbxv1.cognition.run/?sona_id=55011,"en-US,en;q=0.9",wywz24qe55c9hf8,22,"[""White""]",No,Female,NA,I'm not sure,960885,NA,12544,NA,"{""product_choice"":""A""}",choice,ctd,trinary,repulsion_A,2,laptops,null,null,null,null,null,null,1,30,40,20,100,90,100,Processing speed,Memory (RAM),NA,NA
NA,NA,NA,NA,NA,choice_trial_setup,html-keyboard-response,6,59508,0.0-4.0-0.1,318,1,2025-05-08T15:18:27Z,b60275e29fe2361ab97ac0ac217840d7,"Mozilla/5.0 (Macintosh; Intel Mac OS X 10_15_7) AppleWebKit/605.1.15 (KHTML, like Gecko) Version/17.6 Safari/605.1.15",Macintosh,Safari,17.6,OS X,10_15_7,https://5puzkbbxv1.cognition.run/?sona_id=55011,"en-US,en;q=0.9",wywz24qe55c9hf8,22,"[""White""]",No,Female,NA,I'm not sure,960885,NA,null,<p></p>,null,choice,ctd,trinary,attraction,2,microwave ovens,null,null,null,null,null,null,2,NA,NA,NA,NA,NA,NA,NA,NA,NA,NA
NA,NA,NA,NA,NA,choice_trial,survey-html-form,7,66569,0.0-4.0-1.1,318,1,2025-05-08T15:18:27Z,b60275e29fe2361ab97ac0ac217840d7,"Mozilla/5.0 (Macintosh; Intel Mac OS X 10_15_7) AppleWebKit/605.1.15 (KHTML, like Gecko) Version/17.6 Safari/605.1.15",Macintosh,Safari,17.6,OS X,10_15_7,https://5puzkbbxv1.cognition.run/?sona_id=55011,"en-US,en;q=0.9",wywz24qe55c9hf8,22,"[""White""]",No,Female,NA,I'm not sure,960885,NA,7058,NA,"{""product_choice"":""A""}",choice,ctd,trinary,attraction,2,microwave ovens,null,null,null,null,null,null,2,50,60,40,60,50,60,Warranty,Cooking power,NA,NA
NA,NA,NA,NA,NA,choice_trial_setup,html-keyboard-response,8,66871,0.0-4.0-0.2,318,1,2025-05-08T15:18:27Z,b60275e29fe2361ab97ac0ac217840d7,"Mozilla/5.0 (Macintosh; Intel Mac OS X 10_15_7) AppleWebKit/605.1.15 (KHTML, like Gecko) Version/17.6 Safari/605.1.15",Macintosh,Safari,17.6,OS X,10_15_7,https://5puzkbbxv1.cognition.run/?sona_id=55011,"en-US,en;q=0.9",wywz24qe55c9hf8,22,"[""White""]",No,Female,NA,I'm not sure,960885,NA,null,<p></p>,null,choice,dct,trinary,attraction,1,televisions,null,null,null,null,null,null,1,NA,NA,NA,NA,NA,NA,NA,NA,NA,NA
NA,NA,NA,NA,NA,choice_trial,survey-html-form,9,74369,0.0-4.0-1.2,318,1,2025-05-08T15:18:27Z,b60275e29fe2361ab97ac0ac217840d7,"Mozilla/5.0 (Macintosh; Intel Mac OS X 10_15_7) AppleWebKit/605.1.15 (KHTML, like Gecko) Version/17.6 Safari/605.1.15",Macintosh,Safari,17.6,OS X,10_15_7,https://5puzkbbxv1.cognition.run/?sona_id=55011,"en-US,en;q=0.9",wywz24qe55c9hf8,22,"[""White""]",No,Female,NA,I'm not sure,960885,NA,7495,NA,"{""product_choice"":""B""}",choice,dct,trinary,attraction,1,televisions,null,null,null,null,null,null,1,60,50,60,50,60,40,Screen size,Average lifespan,NA,NA
NA,NA,NA,NA,NA,choice_trial_setup,html-keyboard-response,10,74671,0.0-4.0-0.3,318,1,2025-05-08T15:18:27Z,b60275e29fe2361ab97ac0ac217840d7,"Mozilla/5.0 (Macintosh; Intel Mac OS X 10_15_7) AppleWebKit/605.1.15 (KHTML, like Gecko) Version/17.6 Safari/605.1.15",Macintosh,Safari,17.6,OS X,10_15_7,https://5puzkbbxv1.cognition.run/?sona_id=55011,"en-US,en;q=0.9",wywz24qe55c9hf8,22,"[""White""]",No,Female,NA,I'm not sure,960885,NA,null,<p></p>,null,choice,wb,binary,catch,null,washing machines,95,55,25,35,null,null,1,NA,NA,NA,NA,NA,NA,NA,NA,NA,NA
NA,NA,NA,NA,NA,choice_trial,survey-html-form,11,144285,0.0-4.0-1.3,318,1,2025-05-08T15:18:27Z,b60275e29fe2361ab97ac0ac217840d7,"Mozilla/5.0 (Macintosh; Intel Mac OS X 10_15_7) AppleWebKit/605.1.15 (KHTML, like Gecko) Version/17.6 Safari/605.1.15",Macintosh,Safari,17.6,OS X,10_15_7,https://5puzkbbxv1.cognition.run/?sona_id=55011,"en-US,en;q=0.9",wywz24qe55c9hf8,22,"[""White""]",No,Female,NA,I'm not sure,960885,NA,69613,NA,"{""product_choice"":""B""}",choice,wb,binary,catch,null,washing machines,95,55,25,35,null,null,1,null,null,null,null,null,null,Average lifespan,Energy savings,NA,NA
NA,NA,NA,NA,NA,choice_trial_setup,html-keyboard-response,12,144588,0.0-4.0-0.4,318,1,2025-05-08T15:18:27Z,b60275e29fe2361ab97ac0ac217840d7,"Mozilla/5.0 (Macintosh; Intel Mac OS X 10_15_7) AppleWebKit/605.1.15 (KHTML, like Gecko) Version/17.6 Safari/605.1.15",Macintosh,Safari,17.6,OS X,10_15_7,https://5puzkbbxv1.cognition.run/?sona_id=55011,"en-US,en;q=0.9",wywz24qe55c9hf8,22,"[""White""]",No,Female,NA,I'm not sure,960885,NA,null,<p></p>,null,choice,ct,binary,repulsion,2,televisions,null,null,null,null,null,null,2,NA,NA,NA,NA,NA,NA,NA,NA,NA,NA
NA,NA,NA,NA,NA,choice_trial,survey-html-form,13,222238,0.0-4.0-1.4,318,1,2025-05-08T15:18:27Z,b60275e29fe2361ab97ac0ac217840d7,"Mozilla/5.0 (Macintosh; Intel Mac OS X 10_15_7) AppleWebKit/605.1.15 (KHTML, like Gecko) Version/17.6 Safari/605.1.15",Macintosh,Safari,17.6,OS X,10_15_7,https://5puzkbbxv1.cognition.run/?sona_id=55011,"en-US,en;q=0.9",wywz24qe55c9hf8,22,"[""White""]",No,Female,NA,I'm not sure,960885,NA,77649,NA,"{""product_choice"":""A""}",choice,ct,binary,repulsion,2,televisions,null,null,null,null,null,null,2,30,40,null,100,90,null,Screen size,Average lifespan,NA,NA
NA,NA,NA,NA,NA,choice_trial_setup,html-keyboard-response,14,222542,0.0-4.0-0.5,318,1,2025-05-08T15:18:27Z,b60275e29fe2361ab97ac0ac217840d7,"Mozilla/5.0 (Macintosh; Intel Mac OS X 10_15_7) AppleWebKit/605.1.15 (KHTML, like Gecko) Version/17.6 Safari/605.1.15",Macintosh,Safari,17.6,OS X,10_15_7,https://5puzkbbxv1.cognition.run/?sona_id=55011,"en-US,en;q=0.9",wywz24qe55c9hf8,22,"[""White""]",No,Female,NA,I'm not sure,960885,NA,null,<p></p>,null,choice,tcd,trinary,attraction,2,televisions,null,null,null,null,null,null,2,NA,NA,NA,NA,NA,NA,NA,NA,NA,NA
NA,NA,NA,NA,NA,choice_trial,survey-html-form,15,245584,0.0-4.0-1.5,318,1,2025-05-08T15:18:27Z,b60275e29fe2361ab97ac0ac217840d7,"Mozilla/5.0 (Macintosh; Intel Mac OS X 10_15_7) AppleWebKit/605.1.15 (KHTML, like Gecko) Version/17.6 Safari/605.1.15",Macintosh,Safari,17.6,OS X,10_15_7,https://5puzkbbxv1.cognition.run/?sona_id=55011,"en-US,en;q=0.9",wywz24qe55c9hf8,22,"[""White""]",No,Female,NA,I'm not sure,960885,NA,23038,NA,"{""product_choice"":""A""}",choice,tcd,trinary,attraction,2,televisions,null,null,null,null,null,null,2,50,60,40,60,50,60,Screen size,Average lifespan,NA,NA
NA,NA,NA,NA,NA,choice_trial_setup,html-keyboard-response,16,245887,0.0-4.0-0.6,318,1,2025-05-08T15:18:27Z,b60275e29fe2361ab97ac0ac217840d7,"Mozilla/5.0 (Macintosh; Intel Mac OS X 10_15_7) AppleWebKit/605.1.15 (KHTML, like Gecko) Version/17.6 Safari/605.1.15",Macintosh,Safari,17.6,OS X,10_15_7,https://5puzkbbxv1.cognition.run/?sona_id=55011,"en-US,en;q=0.9",wywz24qe55c9hf8,22,"[""White""]",No,Female,NA,I'm not sure,960885,NA,null,<p></p>,null,choice,tcd,trinary,repulsion_B,2,televisions,null,null,null,null,null,null,2,NA,NA,NA,NA,NA,NA,NA,NA,NA,NA
NA,NA,NA,NA,NA,choice_trial,survey-html-form,17,255518,0.0-4.0-1.6,318,1,2025-05-08T15:18:27Z,b60275e29fe2361ab97ac0ac217840d7,"Mozilla/5.0 (Macintosh; Intel Mac OS X 10_15_7) AppleWebKit/605.1.15 (KHTML, like Gecko) Version/17.6 Safari/605.1.15",Macintosh,Safari,17.6,OS X,10_15_7,https://5puzkbbxv1.cognition.run/?sona_id=55011,"en-US,en;q=0.9",wywz24qe55c9hf8,22,"[""White""]",No,Female,NA,I'm not sure,960885,NA,9628,NA,"{""product_choice"":""A""}",choice,tcd,trinary,repulsion_B,2,televisions,null,null,null,null,null,null,2,40,30,40,90,100,80,Screen size,Average lifespan,NA,NA
NA,NA,NA,NA,NA,choice_trial_setup,html-keyboard-response,18,255820,0.0-4.0-0.7,318,1,2025-05-08T15:18:27Z,b60275e29fe2361ab97ac0ac217840d7,"Mozilla/5.0 (Macintosh; Intel Mac OS X 10_15_7) AppleWebKit/605.1.15 (KHTML, like Gecko) Version/17.6 Safari/605.1.15",Macintosh,Safari,17.6,OS X,10_15_7,https://5puzkbbxv1.cognition.run/?sona_id=55011,"en-US,en;q=0.9",wywz24qe55c9hf8,22,"[""White""]",No,Female,NA,I'm not sure,960885,NA,null,<p></p>,null,choice,cdt,trinary,attraction,1,washing machines,null,null,null,null,null,null,2,NA,NA,NA,NA,NA,NA,NA,NA,NA,NA
NA,NA,NA,NA,NA,choice_trial,survey-html-form,19,272216,0.0-4.0-1.7,318,1,2025-05-08T15:18:27Z,b60275e29fe2361ab97ac0ac217840d7,"Mozilla/5.0 (Macintosh; Intel Mac OS X 10_15_7) AppleWebKit/605.1.15 (KHTML, like Gecko) Version/17.6 Safari/605.1.15",Macintosh,Safari,17.6,OS X,10_15_7,https://5puzkbbxv1.cognition.run/?sona_id=55011,"en-US,en;q=0.9",wywz24qe55c9hf8,22,"[""White""]",No,Female,NA,I'm not sure,960885,NA,16393,NA,"{""product_choice"":""C""}",choice,cdt,trinary,attraction,1,washing machines,null,null,null,null,null,null,2,60,50,60,50,60,40,Average lifespan,Energy savings,NA,NA
NA,NA,NA,NA,NA,choice_trial_setup,html-keyboard-response,20,272520,0.0-4.0-0.8,318,1,2025-05-08T15:18:27Z,b60275e29fe2361ab97ac0ac217840d7,"Mozilla/5.0 (Macintosh; Intel Mac OS X 10_15_7) AppleWebKit/605.1.15 (KHTML, like Gecko) Version/17.6 Safari/605.1.15",Macintosh,Safari,17.6,OS X,10_15_7,https://5puzkbbxv1.cognition.run/?sona_id=55011,"en-US,en;q=0.9",wywz24qe55c9hf8,22,"[""White""]",No,Female,NA,I'm not sure,960885,NA,null,<p></p>,null,choice,ct,binary,repulsion,1,laptops,null,null,null,null,null,null,2,NA,NA,NA,NA,NA,NA,NA,NA,NA,NA
NA,NA,NA,NA,NA,choice_trial,survey-html-form,21,303019,0.0-4.0-1.8,318,1,2025-05-08T15:18:27Z,b60275e29fe2361ab97ac0ac217840d7,"Mozilla/5.0 (Macintosh; Intel Mac OS X 10_15_7) AppleWebKit/605.1.15 (KHTML, like Gecko) Version/17.6 Safari/605.1.15",Macintosh,Safari,17.6,OS X,10_15_7,https://5puzkbbxv1.cognition.run/?sona_id=55011,"en-US,en;q=0.9",wywz24qe55c9hf8,22,"[""White""]",No,Female,NA,I'm not sure,960885,NA,30498,NA,"{""product_choice"":""A""}",choice,ct,binary,repulsion,1,laptops,null,null,null,null,null,null,2,100,90,null,30,40,null,Processing speed,Memory (RAM),NA,NA
NA,NA,NA,NA,NA,choice_trial_setup,html-keyboard-response,22,303322,0.0-4.0-0.9,318,1,2025-05-08T15:18:27Z,b60275e29fe2361ab97ac0ac217840d7,"Mozilla/5.0 (Macintosh; Intel Mac OS X 10_15_7) AppleWebKit/605.1.15 (KHTML, like Gecko) Version/17.6 Safari/605.1.15",Macintosh,Safari,17.6,OS X,10_15_7,https://5puzkbbxv1.cognition.run/?sona_id=55011,"en-US,en;q=0.9",wywz24qe55c9hf8,22,"[""White""]",No,Female,NA,I'm not sure,960885,NA,null,<p></p>,null,choice,cdt,trinary,repulsion_B,2,laptops,null,null,null,null,null,null,2,NA,NA,NA,NA,NA,NA,NA,NA,NA,NA
NA,NA,NA,NA,NA,choice_trial,survey-html-form,23,312418,0.0-4.0-1.9,318,1,2025-05-08T15:18:27Z,b60275e29fe2361ab97ac0ac217840d7,"Mozilla/5.0 (Macintosh; Intel Mac OS X 10_15_7) AppleWebKit/605.1.15 (KHTML, like Gecko) Version/17.6 Safari/605.1.15",Macintosh,Safari,17.6,OS X,10_15_7,https://5puzkbbxv1.cognition.run/?sona_id=55011,"en-US,en;q=0.9",wywz24qe55c9hf8,22,"[""White""]",No,Female,NA,I'm not sure,960885,NA,9096,NA,"{""product_choice"":""C""}",choice,cdt,trinary,repulsion_B,2,laptops,null,null,null,null,null,null,2,40,30,40,90,100,80,Processing speed,Memory (RAM),NA,NA
NA,NA,NA,NA,NA,choice_trial_setup,html-keyboard-response,24,312721,0.0-4.0-0.10,318,1,2025-05-08T15:18:27Z,b60275e29fe2361ab97ac0ac217840d7,"Mozilla/5.0 (Macintosh; Intel Mac OS X 10_15_7) AppleWebKit/605.1.15 (KHTML, like Gecko) Version/17.6 Safari/605.1.15",Macintosh,Safari,17.6,OS X,10_15_7,https://5puzkbbxv1.cognition.run/?sona_id=55011,"en-US,en;q=0.9",wywz24qe55c9hf8,22,"[""White""]",No,Female,NA,I'm not sure,960885,NA,null,<p></p>,null,choice,wb,binary,catch,null,microwave ovens,60,90,30,15,null,null,2,NA,NA,NA,NA,NA,NA,NA,NA,NA,NA
NA,NA,NA,NA,NA,choice_trial,survey-html-form,25,320101,0.0-4.0-1.10,318,1,2025-05-08T15:18:27Z,b60275e29fe2361ab97ac0ac217840d7,"Mozilla/5.0 (Macintosh; Intel Mac OS X 10_15_7) AppleWebKit/605.1.15 (KHTML, like Gecko) Version/17.6 Safari/605.1.15",Macintosh,Safari,17.6,OS X,10_15_7,https://5puzkbbxv1.cognition.run/?sona_id=55011,"en-US,en;q=0.9",wywz24qe55c9hf8,22,"[""White""]",No,Female,NA,I'm not sure,960885,NA,7377,NA,"{""product_choice"":""B""}",choice,wb,binary,catch,null,microwave ovens,60,90,30,15,null,null,2,null,null,null,null,null,null,Warranty,Cooking power,NA,NA
NA,NA,NA,NA,NA,choice_trial_setup,html-keyboard-response,26,320403,0.0-4.0-0.11,318,1,2025-05-08T15:18:27Z,b60275e29fe2361ab97ac0ac217840d7,"Mozilla/5.0 (Macintosh; Intel Mac OS X 10_15_7) AppleWebKit/605.1.15 (KHTML, like Gecko) Version/17.6 Safari/605.1.15",Macintosh,Safari,17.6,OS X,10_15_7,https://5puzkbbxv1.cognition.run/?sona_id=55011,"en-US,en;q=0.9",wywz24qe55c9hf8,22,"[""White""]",No,Female,NA,I'm not sure,960885,NA,null,<p></p>,null,choice,tcd,trinary,repulsion_B,1,televisions,null,null,null,null,null,null,1,NA,NA,NA,NA,NA,NA,NA,NA,NA,NA
NA,NA,NA,NA,NA,choice_trial,survey-html-form,27,330318,0.0-4.0-1.11,318,1,2025-05-08T15:18:27Z,b60275e29fe2361ab97ac0ac217840d7,"Mozilla/5.0 (Macintosh; Intel Mac OS X 10_15_7) AppleWebKit/605.1.15 (KHTML, like Gecko) Version/17.6 Safari/605.1.15",Macintosh,Safari,17.6,OS X,10_15_7,https://5puzkbbxv1.cognition.run/?sona_id=55011,"en-US,en;q=0.9",wywz24qe55c9hf8,22,"[""White""]",No,Female,NA,I'm not sure,960885,NA,9912,NA,"{""product_choice"":""A""}",choice,tcd,trinary,repulsion_B,1,televisions,null,null,null,null,null,null,1,90,100,80,40,30,40,Screen size,Average lifespan,NA,NA
NA,NA,NA,NA,NA,choice_trial_setup,html-keyboard-response,28,330621,0.0-4.0-0.12,318,1,2025-05-08T15:18:27Z,b60275e29fe2361ab97ac0ac217840d7,"Mozilla/5.0 (Macintosh; Intel Mac OS X 10_15_7) AppleWebKit/605.1.15 (KHTML, like Gecko) Version/17.6 Safari/605.1.15",Macintosh,Safari,17.6,OS X,10_15_7,https://5puzkbbxv1.cognition.run/?sona_id=55011,"en-US,en;q=0.9",wywz24qe55c9hf8,22,"[""White""]",No,Female,NA,I'm not sure,960885,NA,null,<p></p>,null,choice,bw,binary,catch,null,laptops,80,70,10,35,null,null,2,NA,NA,NA,NA,NA,NA,NA,NA,NA,NA
NA,NA,NA,NA,NA,choice_trial,survey-html-form,29,334733,0.0-4.0-1.12,318,1,2025-05-08T15:18:27Z,b60275e29fe2361ab97ac0ac217840d7,"Mozilla/5.0 (Macintosh; Intel Mac OS X 10_15_7) AppleWebKit/605.1.15 (KHTML, like Gecko) Version/17.6 Safari/605.1.15",Macintosh,Safari,17.6,OS X,10_15_7,https://5puzkbbxv1.cognition.run/?sona_id=55011,"en-US,en;q=0.9",wywz24qe55c9hf8,22,"[""White""]",No,Female,NA,I'm not sure,960885,NA,4108,NA,"{""product_choice"":""A""}",choice,bw,binary,catch,null,laptops,80,70,10,35,null,null,2,null,null,null,null,null,null,Processing speed,Memory (RAM),NA,NA
NA,NA,NA,NA,NA,choice_trial_setup,html-keyboard-response,30,335035,0.0-4.0-0.13,318,1,2025-05-08T15:18:27Z,b60275e29fe2361ab97ac0ac217840d7,"Mozilla/5.0 (Macintosh; Intel Mac OS X 10_15_7) AppleWebKit/605.1.15 (KHTML, like Gecko) Version/17.6 Safari/605.1.15",Macintosh,Safari,17.6,OS X,10_15_7,https://5puzkbbxv1.cognition.run/?sona_id=55011,"en-US,en;q=0.9",wywz24qe55c9hf8,22,"[""White""]",No,Female,NA,I'm not sure,960885,NA,null,<p></p>,null,choice,ct,binary,attraction,NA,televisions,null,null,null,null,null,null,2,NA,NA,NA,NA,NA,NA,NA,NA,NA,NA
NA,NA,NA,NA,NA,choice_trial,survey-html-form,31,344233,0.0-4.0-1.13,318,1,2025-05-08T15:18:27Z,b60275e29fe2361ab97ac0ac217840d7,"Mozilla/5.0 (Macintosh; Intel Mac OS X 10_15_7) AppleWebKit/605.1.15 (KHTML, like Gecko) Version/17.6 Safari/605.1.15",Macintosh,Safari,17.6,OS X,10_15_7,https://5puzkbbxv1.cognition.run/?sona_id=55011,"en-US,en;q=0.9",wywz24qe55c9hf8,22,"[""White""]",No,Female,NA,I'm not sure,960885,NA,9195,NA,"{""product_choice"":""A""}",choice,ct,binary,attraction,NA,televisions,null,null,null,null,null,null,2,60,50,null,50,60,null,Screen size,Average lifespan,NA,NA
NA,NA,NA,NA,NA,choice_trial_setup,html-keyboard-response,32,344536,0.0-4.0-0.14,318,1,2025-05-08T15:18:27Z,b60275e29fe2361ab97ac0ac217840d7,"Mozilla/5.0 (Macintosh; Intel Mac OS X 10_15_7) AppleWebKit/605.1.15 (KHTML, like Gecko) Version/17.6 Safari/605.1.15",Macintosh,Safari,17.6,OS X,10_15_7,https://5puzkbbxv1.cognition.run/?sona_id=55011,"en-US,en;q=0.9",wywz24qe55c9hf8,22,"[""White""]",No,Female,NA,I'm not sure,960885,NA,null,<p></p>,null,choice,dct,trinary,repulsion_B,1,washing machines,null,null,null,null,null,null,1,NA,NA,NA,NA,NA,NA,NA,NA,NA,NA
NA,NA,NA,NA,NA,choice_trial,survey-html-form,33,355053,0.0-4.0-1.14,318,1,2025-05-08T15:18:27Z,b60275e29fe2361ab97ac0ac217840d7,"Mozilla/5.0 (Macintosh; Intel Mac OS X 10_15_7) AppleWebKit/605.1.15 (KHTML, like Gecko) Version/17.6 Safari/605.1.15",Macintosh,Safari,17.6,OS X,10_15_7,https://5puzkbbxv1.cognition.run/?sona_id=55011,"en-US,en;q=0.9",wywz24qe55c9hf8,22,"[""White""]",No,Female,NA,I'm not sure,960885,NA,10513,NA,"{""product_choice"":""C""}",choice,dct,trinary,repulsion_B,1,washing machines,null,null,null,null,null,null,1,90,100,80,40,30,40,Average lifespan,Energy savings,NA,NA
NA,NA,NA,NA,NA,choice_trial_setup,html-keyboard-response,34,355356,0.0-4.0-0.15,318,1,2025-05-08T15:18:27Z,b60275e29fe2361ab97ac0ac217840d7,"Mozilla/5.0 (Macintosh; Intel Mac OS X 10_15_7) AppleWebKit/605.1.15 (KHTML, like Gecko) Version/17.6 Safari/605.1.15",Macintosh,Safari,17.6,OS X,10_15_7,https://5puzkbbxv1.cognition.run/?sona_id=55011,"en-US,en;q=0.9",wywz24qe55c9hf8,22,"[""White""]",No,Female,NA,I'm not sure,960885,NA,null,<p></p>,null,choice,wbw,trinary,catch,null,laptops,85,85,50,15,25,20,2,NA,NA,NA,NA,NA,NA,NA,NA,NA,NA
NA,NA,NA,NA,NA,choice_trial,survey-html-form,35,361301,0.0-4.0-1.15,318,1,2025-05-08T15:18:27Z,b60275e29fe2361ab97ac0ac217840d7,"Mozilla/5.0 (Macintosh; Intel Mac OS X 10_15_7) AppleWebKit/605.1.15 (KHTML, like Gecko) Version/17.6 Safari/605.1.15",Macintosh,Safari,17.6,OS X,10_15_7,https://5puzkbbxv1.cognition.run/?sona_id=55011,"en-US,en;q=0.9",wywz24qe55c9hf8,22,"[""White""]",No,Female,NA,I'm not sure,960885,NA,5941,NA,"{""product_choice"":""B""}",choice,wbw,trinary,catch,null,laptops,85,85,50,15,25,20,2,null,null,null,null,null,null,Processing speed,Memory (RAM),NA,NA
NA,NA,NA,NA,NA,choice_trial_setup,html-keyboard-response,36,361604,0.0-4.0-0.16,318,1,2025-05-08T15:18:27Z,b60275e29fe2361ab97ac0ac217840d7,"Mozilla/5.0 (Macintosh; Intel Mac OS X 10_15_7) AppleWebKit/605.1.15 (KHTML, like Gecko) Version/17.6 Safari/605.1.15",Macintosh,Safari,17.6,OS X,10_15_7,https://5puzkbbxv1.cognition.run/?sona_id=55011,"en-US,en;q=0.9",wywz24qe55c9hf8,22,"[""White""]",No,Female,NA,I'm not sure,960885,NA,null,<p></p>,null,choice,tdc,trinary,repulsion_A,1,washing machines,null,null,null,null,null,null,2,NA,NA,NA,NA,NA,NA,NA,NA,NA,NA
NA,NA,NA,NA,NA,choice_trial,survey-html-form,37,368100,0.0-4.0-1.16,318,1,2025-05-08T15:18:27Z,b60275e29fe2361ab97ac0ac217840d7,"Mozilla/5.0 (Macintosh; Intel Mac OS X 10_15_7) AppleWebKit/605.1.15 (KHTML, like Gecko) Version/17.6 Safari/605.1.15",Macintosh,Safari,17.6,OS X,10_15_7,https://5puzkbbxv1.cognition.run/?sona_id=55011,"en-US,en;q=0.9",wywz24qe55c9hf8,22,"[""White""]",No,Female,NA,I'm not sure,960885,NA,6493,NA,"{""product_choice"":""C""}",choice,tdc,trinary,repulsion_A,1,washing machines,null,null,null,null,null,null,2,100,90,100,30,40,20,Average lifespan,Energy savings,NA,NA
NA,NA,NA,NA,NA,choice_trial_setup,html-keyboard-response,38,368403,0.0-4.0-0.17,318,1,2025-05-08T15:18:27Z,b60275e29fe2361ab97ac0ac217840d7,"Mozilla/5.0 (Macintosh; Intel Mac OS X 10_15_7) AppleWebKit/605.1.15 (KHTML, like Gecko) Version/17.6 Safari/605.1.15",Macintosh,Safari,17.6,OS X,10_15_7,https://5puzkbbxv1.cognition.run/?sona_id=55011,"en-US,en;q=0.9",wywz24qe55c9hf8,22,"[""White""]",No,Female,NA,I'm not sure,960885,NA,null,<p></p>,null,choice,tdc,trinary,repulsion_B,2,microwave ovens,null,null,null,null,null,null,2,NA,NA,NA,NA,NA,NA,NA,NA,NA,NA
NA,NA,NA,NA,NA,choice_trial,survey-html-form,39,375334,0.0-4.0-1.17,318,1,2025-05-08T15:18:27Z,b60275e29fe2361ab97ac0ac217840d7,"Mozilla/5.0 (Macintosh; Intel Mac OS X 10_15_7) AppleWebKit/605.1.15 (KHTML, like Gecko) Version/17.6 Safari/605.1.15",Macintosh,Safari,17.6,OS X,10_15_7,https://5puzkbbxv1.cognition.run/?sona_id=55011,"en-US,en;q=0.9",wywz24qe55c9hf8,22,"[""White""]",No,Female,NA,I'm not sure,960885,NA,6927,NA,"{""product_choice"":""A""}",choice,tdc,trinary,repulsion_B,2,microwave ovens,null,null,null,null,null,null,2,40,30,40,90,100,80,Warranty,Cooking power,NA,NA
NA,NA,NA,NA,NA,choice_trial_setup,html-keyboard-response,40,375636,0.0-4.0-0.18,318,1,2025-05-08T15:18:27Z,b60275e29fe2361ab97ac0ac217840d7,"Mozilla/5.0 (Macintosh; Intel Mac OS X 10_15_7) AppleWebKit/605.1.15 (KHTML, like Gecko) Version/17.6 Safari/605.1.15",Macintosh,Safari,17.6,OS X,10_15_7,https://5puzkbbxv1.cognition.run/?sona_id=55011,"en-US,en;q=0.9",wywz24qe55c9hf8,22,"[""White""]",No,Female,NA,I'm not sure,960885,NA,null,<p></p>,null,choice,tc,binary,repulsion,1,washing machines,null,null,null,null,null,null,1,NA,NA,NA,NA,NA,NA,NA,NA,NA,NA
NA,NA,NA,NA,NA,choice_trial,survey-html-form,41,380617,0.0-4.0-1.18,318,1,2025-05-08T15:18:27Z,b60275e29fe2361ab97ac0ac217840d7,"Mozilla/5.0 (Macintosh; Intel Mac OS X 10_15_7) AppleWebKit/605.1.15 (KHTML, like Gecko) Version/17.6 Safari/605.1.15",Macintosh,Safari,17.6,OS X,10_15_7,https://5puzkbbxv1.cognition.run/?sona_id=55011,"en-US,en;q=0.9",wywz24qe55c9hf8,22,"[""White""]",No,Female,NA,I'm not sure,960885,NA,4977,NA,"{""product_choice"":""B""}",choice,tc,binary,repulsion,1,washing machines,null,null,null,null,null,null,1,100,90,null,30,40,null,Average lifespan,Energy savings,NA,NA
NA,NA,NA,NA,NA,choice_trial_setup,html-keyboard-response,42,380920,0.0-4.0-0.19,318,1,2025-05-08T15:18:27Z,b60275e29fe2361ab97ac0ac217840d7,"Mozilla/5.0 (Macintosh; Intel Mac OS X 10_15_7) AppleWebKit/605.1.15 (KHTML, like Gecko) Version/17.6 Safari/605.1.15",Macintosh,Safari,17.6,OS X,10_15_7,https://5puzkbbxv1.cognition.run/?sona_id=55011,"en-US,en;q=0.9",wywz24qe55c9hf8,22,"[""White""]",No,Female,NA,I'm not sure,960885,NA,null,<p></p>,null,choice,wbw,trinary,catch,null,microwave ovens,60,90,30,40,10,35,2,NA,NA,NA,NA,NA,NA,NA,NA,NA,NA
NA,NA,NA,NA,NA,choice_trial,survey-html-form,43,391087,0.0-4.0-1.19,318,1,2025-05-08T15:18:27Z,b60275e29fe2361ab97ac0ac217840d7,"Mozilla/5.0 (Macintosh; Intel Mac OS X 10_15_7) AppleWebKit/605.1.15 (KHTML, like Gecko) Version/17.6 Safari/605.1.15",Macintosh,Safari,17.6,OS X,10_15_7,https://5puzkbbxv1.cognition.run/?sona_id=55011,"en-US,en;q=0.9",wywz24qe55c9hf8,22,"[""White""]",No,Female,NA,I'm not sure,960885,NA,10163,NA,"{""product_choice"":""B""}",choice,wbw,trinary,catch,null,microwave ovens,60,90,30,40,10,35,2,null,null,null,null,null,null,Warranty,Cooking power,NA,NA
NA,NA,NA,NA,NA,choice_trial_setup,html-keyboard-response,44,391392,0.0-4.0-0.20,318,1,2025-05-08T15:18:27Z,b60275e29fe2361ab97ac0ac217840d7,"Mozilla/5.0 (Macintosh; Intel Mac OS X 10_15_7) AppleWebKit/605.1.15 (KHTML, like Gecko) Version/17.6 Safari/605.1.15",Macintosh,Safari,17.6,OS X,10_15_7,https://5puzkbbxv1.cognition.run/?sona_id=55011,"en-US,en;q=0.9",wywz24qe55c9hf8,22,"[""White""]",No,Female,NA,I'm not sure,960885,NA,null,<p></p>,null,choice,ct,binary,attraction,NA,washing machines,null,null,null,null,null,null,2,NA,NA,NA,NA,NA,NA,NA,NA,NA,NA
NA,NA,NA,NA,NA,choice_trial,survey-html-form,45,397266,0.0-4.0-1.20,318,1,2025-05-08T15:18:27Z,b60275e29fe2361ab97ac0ac217840d7,"Mozilla/5.0 (Macintosh; Intel Mac OS X 10_15_7) AppleWebKit/605.1.15 (KHTML, like Gecko) Version/17.6 Safari/605.1.15",Macintosh,Safari,17.6,OS X,10_15_7,https://5puzkbbxv1.cognition.run/?sona_id=55011,"en-US,en;q=0.9",wywz24qe55c9hf8,22,"[""White""]",No,Female,NA,I'm not sure,960885,NA,5868,NA,"{""product_choice"":""A""}",choice,ct,binary,attraction,NA,washing machines,null,null,null,null,null,null,2,60,50,null,50,60,null,Average lifespan,Energy savings,NA,NA
NA,NA,NA,NA,NA,choice_trial_setup,html-keyboard-response,46,397569,0.0-4.0-0.21,318,1,2025-05-08T15:18:27Z,b60275e29fe2361ab97ac0ac217840d7,"Mozilla/5.0 (Macintosh; Intel Mac OS X 10_15_7) AppleWebKit/605.1.15 (KHTML, like Gecko) Version/17.6 Safari/605.1.15",Macintosh,Safari,17.6,OS X,10_15_7,https://5puzkbbxv1.cognition.run/?sona_id=55011,"en-US,en;q=0.9",wywz24qe55c9hf8,22,"[""White""]",No,Female,NA,I'm not sure,960885,NA,null,<p></p>,null,choice,ctd,trinary,repulsion_B,1,microwave ovens,null,null,null,null,null,null,2,NA,NA,NA,NA,NA,NA,NA,NA,NA,NA
NA,NA,NA,NA,NA,choice_trial,survey-html-form,47,403667,0.0-4.0-1.21,318,1,2025-05-08T15:18:27Z,b60275e29fe2361ab97ac0ac217840d7,"Mozilla/5.0 (Macintosh; Intel Mac OS X 10_15_7) AppleWebKit/605.1.15 (KHTML, like Gecko) Version/17.6 Safari/605.1.15",Macintosh,Safari,17.6,OS X,10_15_7,https://5puzkbbxv1.cognition.run/?sona_id=55011,"en-US,en;q=0.9",wywz24qe55c9hf8,22,"[""White""]",No,Female,NA,I'm not sure,960885,NA,6093,NA,"{""product_choice"":""B""}",choice,ctd,trinary,repulsion_B,1,microwave ovens,null,null,null,null,null,null,2,90,100,80,40,30,40,Warranty,Cooking power,NA,NA
NA,NA,NA,NA,NA,choice_trial_setup,html-keyboard-response,48,403969,0.0-4.0-0.22,318,1,2025-05-08T15:18:27Z,b60275e29fe2361ab97ac0ac217840d7,"Mozilla/5.0 (Macintosh; Intel Mac OS X 10_15_7) AppleWebKit/605.1.15 (KHTML, like Gecko) Version/17.6 Safari/605.1.15",Macintosh,Safari,17.6,OS X,10_15_7,https://5puzkbbxv1.cognition.run/?sona_id=55011,"en-US,en;q=0.9",wywz24qe55c9hf8,22,"[""White""]",No,Female,NA,I'm not sure,960885,NA,null,<p></p>,null,choice,tdc,trinary,repulsion_A,2,washing machines,null,null,null,null,null,null,1,NA,NA,NA,NA,NA,NA,NA,NA,NA,NA
NA,NA,NA,NA,NA,choice_trial,survey-html-form,49,417333,0.0-4.0-1.22,318,1,2025-05-08T15:18:27Z,b60275e29fe2361ab97ac0ac217840d7,"Mozilla/5.0 (Macintosh; Intel Mac OS X 10_15_7) AppleWebKit/605.1.15 (KHTML, like Gecko) Version/17.6 Safari/605.1.15",Macintosh,Safari,17.6,OS X,10_15_7,https://5puzkbbxv1.cognition.run/?sona_id=55011,"en-US,en;q=0.9",wywz24qe55c9hf8,22,"[""White""]",No,Female,NA,I'm not sure,960885,NA,13361,NA,"{""product_choice"":""A""}",choice,tdc,trinary,repulsion_A,2,washing machines,null,null,null,null,null,null,1,30,40,20,100,90,100,Average lifespan,Energy savings,NA,NA
NA,NA,NA,NA,NA,choice_trial_setup,html-keyboard-response,50,417636,0.0-4.0-0.23,318,1,2025-05-08T15:18:27Z,b60275e29fe2361ab97ac0ac217840d7,"Mozilla/5.0 (Macintosh; Intel Mac OS X 10_15_7) AppleWebKit/605.1.15 (KHTML, like Gecko) Version/17.6 Safari/605.1.15",Macintosh,Safari,17.6,OS X,10_15_7,https://5puzkbbxv1.cognition.run/?sona_id=55011,"en-US,en;q=0.9",wywz24qe55c9hf8,22,"[""White""]",No,Female,NA,I'm not sure,960885,NA,null,<p></p>,null,choice,tcd,trinary,attraction,2,laptops,null,null,null,null,null,null,2,NA,NA,NA,NA,NA,NA,NA,NA,NA,NA
NA,NA,NA,NA,NA,choice_trial,survey-html-form,51,541670,0.0-4.0-1.23,318,1,2025-05-08T15:18:27Z,b60275e29fe2361ab97ac0ac217840d7,"Mozilla/5.0 (Macintosh; Intel Mac OS X 10_15_7) AppleWebKit/605.1.15 (KHTML, like Gecko) Version/17.6 Safari/605.1.15",Macintosh,Safari,17.6,OS X,10_15_7,https://5puzkbbxv1.cognition.run/?sona_id=55011,"en-US,en;q=0.9",wywz24qe55c9hf8,22,"[""White""]",No,Female,NA,I'm not sure,960885,NA,124035,NA,"{""product_choice"":""B""}",choice,tcd,trinary,attraction,2,laptops,null,null,null,null,null,null,2,50,60,40,60,50,60,Processing speed,Memory (RAM),NA,NA
NA,NA,NA,NA,NA,choice_trial_setup,html-keyboard-response,52,541975,0.0-4.0-0.24,318,1,2025-05-08T15:18:27Z,b60275e29fe2361ab97ac0ac217840d7,"Mozilla/5.0 (Macintosh; Intel Mac OS X 10_15_7) AppleWebKit/605.1.15 (KHTML, like Gecko) Version/17.6 Safari/605.1.15",Macintosh,Safari,17.6,OS X,10_15_7,https://5puzkbbxv1.cognition.run/?sona_id=55011,"en-US,en;q=0.9",wywz24qe55c9hf8,22,"[""White""]",No,Female,NA,I'm not sure,960885,NA,null,<p></p>,null,choice,tc,binary,attraction,NA,laptops,null,null,null,null,null,null,2,NA,NA,NA,NA,NA,NA,NA,NA,NA,NA
NA,NA,NA,NA,NA,choice_trial,survey-html-form,53,548000,0.0-4.0-1.24,318,1,2025-05-08T15:18:27Z,b60275e29fe2361ab97ac0ac217840d7,"Mozilla/5.0 (Macintosh; Intel Mac OS X 10_15_7) AppleWebKit/605.1.15 (KHTML, like Gecko) Version/17.6 Safari/605.1.15",Macintosh,Safari,17.6,OS X,10_15_7,https://5puzkbbxv1.cognition.run/?sona_id=55011,"en-US,en;q=0.9",wywz24qe55c9hf8,22,"[""White""]",No,Female,NA,I'm not sure,960885,NA,6023,NA,"{""product_choice"":""A""}",choice,tc,binary,attraction,NA,laptops,null,null,null,null,null,null,2,60,50,null,50,60,null,Processing speed,Memory (RAM),NA,NA
NA,NA,NA,NA,NA,choice_trial_setup,html-keyboard-response,54,548303,0.0-4.0-0.25,318,1,2025-05-08T15:18:27Z,b60275e29fe2361ab97ac0ac217840d7,"Mozilla/5.0 (Macintosh; Intel Mac OS X 10_15_7) AppleWebKit/605.1.15 (KHTML, like Gecko) Version/17.6 Safari/605.1.15",Macintosh,Safari,17.6,OS X,10_15_7,https://5puzkbbxv1.cognition.run/?sona_id=55011,"en-US,en;q=0.9",wywz24qe55c9hf8,22,"[""White""]",No,Female,NA,I'm not sure,960885,NA,null,<p></p>,null,choice,dtc,trinary,repulsion_A,1,laptops,null,null,null,null,null,null,2,NA,NA,NA,NA,NA,NA,NA,NA,NA,NA
NA,NA,NA,NA,NA,choice_trial,survey-html-form,55,554617,0.0-4.0-1.25,318,1,2025-05-08T15:18:27Z,b60275e29fe2361ab97ac0ac217840d7,"Mozilla/5.0 (Macintosh; Intel Mac OS X 10_15_7) AppleWebKit/605.1.15 (KHTML, like Gecko) Version/17.6 Safari/605.1.15",Macintosh,Safari,17.6,OS X,10_15_7,https://5puzkbbxv1.cognition.run/?sona_id=55011,"en-US,en;q=0.9",wywz24qe55c9hf8,22,"[""White""]",No,Female,NA,I'm not sure,960885,NA,6309,NA,"{""product_choice"":""C""}",choice,dtc,trinary,repulsion_A,1,laptops,null,null,null,null,null,null,2,100,90,100,30,40,20,Processing speed,Memory (RAM),NA,NA
NA,NA,NA,NA,NA,choice_trial_setup,html-keyboard-response,56,554920,0.0-4.0-0.26,318,1,2025-05-08T15:18:27Z,b60275e29fe2361ab97ac0ac217840d7,"Mozilla/5.0 (Macintosh; Intel Mac OS X 10_15_7) AppleWebKit/605.1.15 (KHTML, like Gecko) Version/17.6 Safari/605.1.15",Macintosh,Safari,17.6,OS X,10_15_7,https://5puzkbbxv1.cognition.run/?sona_id=55011,"en-US,en;q=0.9",wywz24qe55c9hf8,22,"[""White""]",No,Female,NA,I'm not sure,960885,NA,null,<p></p>,null,choice,ctd,trinary,repulsion_A,2,microwave ovens,null,null,null,null,null,null,2,NA,NA,NA,NA,NA,NA,NA,NA,NA,NA
NA,NA,NA,NA,NA,choice_trial,survey-html-form,57,567014,0.0-4.0-1.26,318,1,2025-05-08T15:18:27Z,b60275e29fe2361ab97ac0ac217840d7,"Mozilla/5.0 (Macintosh; Intel Mac OS X 10_15_7) AppleWebKit/605.1.15 (KHTML, like Gecko) Version/17.6 Safari/605.1.15",Macintosh,Safari,17.6,OS X,10_15_7,https://5puzkbbxv1.cognition.run/?sona_id=55011,"en-US,en;q=0.9",wywz24qe55c9hf8,22,"[""White""]",No,Female,NA,I'm not sure,960885,NA,12090,NA,"{""product_choice"":""A""}",choice,ctd,trinary,repulsion_A,2,microwave ovens,null,null,null,null,null,null,2,30,40,20,100,90,100,Warranty,Cooking power,NA,NA
NA,NA,NA,NA,NA,choice_trial_setup,html-keyboard-response,58,567323,0.0-4.0-0.27,318,1,2025-05-08T15:18:27Z,b60275e29fe2361ab97ac0ac217840d7,"Mozilla/5.0 (Macintosh; Intel Mac OS X 10_15_7) AppleWebKit/605.1.15 (KHTML, like Gecko) Version/17.6 Safari/605.1.15",Macintosh,Safari,17.6,OS X,10_15_7,https://5puzkbbxv1.cognition.run/?sona_id=55011,"en-US,en;q=0.9",wywz24qe55c9hf8,22,"[""White""]",No,Female,NA,I'm not sure,960885,NA,null,<p></p>,null,choice,tdc,trinary,attraction,1,laptops,null,null,null,null,null,null,2,NA,NA,NA,NA,NA,NA,NA,NA,NA,NA
NA,NA,NA,NA,NA,choice_trial,survey-html-form,59,643503,0.0-4.0-1.27,318,1,2025-05-08T15:18:27Z,b60275e29fe2361ab97ac0ac217840d7,"Mozilla/5.0 (Macintosh; Intel Mac OS X 10_15_7) AppleWebKit/605.1.15 (KHTML, like Gecko) Version/17.6 Safari/605.1.15",Macintosh,Safari,17.6,OS X,10_15_7,https://5puzkbbxv1.cognition.run/?sona_id=55011,"en-US,en;q=0.9",wywz24qe55c9hf8,22,"[""White""]",No,Female,NA,I'm not sure,960885,NA,76178,NA,"{""product_choice"":""B""}",choice,tdc,trinary,attraction,1,laptops,null,null,null,null,null,null,2,60,50,60,50,60,40,Processing speed,Memory (RAM),NA,NA
NA,NA,NA,NA,NA,choice_trial_setup,html-keyboard-response,60,643810,0.0-4.0-0.28,318,1,2025-05-08T15:18:27Z,b60275e29fe2361ab97ac0ac217840d7,"Mozilla/5.0 (Macintosh; Intel Mac OS X 10_15_7) AppleWebKit/605.1.15 (KHTML, like Gecko) Version/17.6 Safari/605.1.15",Macintosh,Safari,17.6,OS X,10_15_7,https://5puzkbbxv1.cognition.run/?sona_id=55011,"en-US,en;q=0.9",wywz24qe55c9hf8,22,"[""White""]",No,Female,NA,I'm not sure,960885,NA,null,<p></p>,null,choice,tc,binary,repulsion,2,microwave ovens,null,null,null,null,null,null,1,NA,NA,NA,NA,NA,NA,NA,NA,NA,NA
NA,NA,NA,NA,NA,choice_trial,survey-html-form,61,649383,0.0-4.0-1.28,318,1,2025-05-08T15:18:27Z,b60275e29fe2361ab97ac0ac217840d7,"Mozilla/5.0 (Macintosh; Intel Mac OS X 10_15_7) AppleWebKit/605.1.15 (KHTML, like Gecko) Version/17.6 Safari/605.1.15",Macintosh,Safari,17.6,OS X,10_15_7,https://5puzkbbxv1.cognition.run/?sona_id=55011,"en-US,en;q=0.9",wywz24qe55c9hf8,22,"[""White""]",No,Female,NA,I'm not sure,960885,NA,5566,NA,"{""product_choice"":""B""}",choice,tc,binary,repulsion,2,microwave ovens,null,null,null,null,null,null,1,30,40,null,100,90,null,Warranty,Cooking power,NA,NA
NA,NA,NA,NA,NA,choice_trial_setup,html-keyboard-response,62,649686,0.0-4.0-0.29,318,1,2025-05-08T15:18:27Z,b60275e29fe2361ab97ac0ac217840d7,"Mozilla/5.0 (Macintosh; Intel Mac OS X 10_15_7) AppleWebKit/605.1.15 (KHTML, like Gecko) Version/17.6 Safari/605.1.15",Macintosh,Safari,17.6,OS X,10_15_7,https://5puzkbbxv1.cognition.run/?sona_id=55011,"en-US,en;q=0.9",wywz24qe55c9hf8,22,"[""White""]",No,Female,NA,I'm not sure,960885,NA,null,<p></p>,null,choice,wwb,trinary,catch,null,televisions,65,85,40,40,45,5,1,NA,NA,NA,NA,NA,NA,NA,NA,NA,NA
NA,NA,NA,NA,NA,choice_trial,survey-html-form,63,658347,0.0-4.0-1.29,318,1,2025-05-08T15:18:27Z,b60275e29fe2361ab97ac0ac217840d7,"Mozilla/5.0 (Macintosh; Intel Mac OS X 10_15_7) AppleWebKit/605.1.15 (KHTML, like Gecko) Version/17.6 Safari/605.1.15",Macintosh,Safari,17.6,OS X,10_15_7,https://5puzkbbxv1.cognition.run/?sona_id=55011,"en-US,en;q=0.9",wywz24qe55c9hf8,22,"[""White""]",No,Female,NA,I'm not sure,960885,NA,8656,NA,"{""product_choice"":""C""}",choice,wwb,trinary,catch,null,televisions,65,85,40,40,45,5,1,null,null,null,null,null,null,Screen size,Average lifespan,NA,NA
NA,NA,NA,NA,NA,choice_trial_setup,html-keyboard-response,64,658650,0.0-4.0-0.30,318,1,2025-05-08T15:18:27Z,b60275e29fe2361ab97ac0ac217840d7,"Mozilla/5.0 (Macintosh; Intel Mac OS X 10_15_7) AppleWebKit/605.1.15 (KHTML, like Gecko) Version/17.6 Safari/605.1.15",Macintosh,Safari,17.6,OS X,10_15_7,https://5puzkbbxv1.cognition.run/?sona_id=55011,"en-US,en;q=0.9",wywz24qe55c9hf8,22,"[""White""]",No,Female,NA,I'm not sure,960885,NA,null,<p></p>,null,choice,dtc,trinary,repulsion_A,2,televisions,null,null,null,null,null,null,1,NA,NA,NA,NA,NA,NA,NA,NA,NA,NA
NA,NA,NA,NA,NA,choice_trial,survey-html-form,65,669214,0.0-4.0-1.30,318,1,2025-05-08T15:18:27Z,b60275e29fe2361ab97ac0ac217840d7,"Mozilla/5.0 (Macintosh; Intel Mac OS X 10_15_7) AppleWebKit/605.1.15 (KHTML, like Gecko) Version/17.6 Safari/605.1.15",Macintosh,Safari,17.6,OS X,10_15_7,https://5puzkbbxv1.cognition.run/?sona_id=55011,"en-US,en;q=0.9",wywz24qe55c9hf8,22,"[""White""]",No,Female,NA,I'm not sure,960885,NA,10560,NA,"{""product_choice"":""C""}",choice,dtc,trinary,repulsion_A,2,televisions,null,null,null,null,null,null,1,30,40,20,100,90,100,Screen size,Average lifespan,NA,NA
NA,NA,NA,NA,NA,choice_trial_setup,html-keyboard-response,66,669518,0.0-4.0-0.31,318,1,2025-05-08T15:18:27Z,b60275e29fe2361ab97ac0ac217840d7,"Mozilla/5.0 (Macintosh; Intel Mac OS X 10_15_7) AppleWebKit/605.1.15 (KHTML, like Gecko) Version/17.6 Safari/605.1.15",Macintosh,Safari,17.6,OS X,10_15_7,https://5puzkbbxv1.cognition.run/?sona_id=55011,"en-US,en;q=0.9",wywz24qe55c9hf8,22,"[""White""]",No,Female,NA,I'm not sure,960885,NA,null,<p></p>,null,choice,ct,binary,repulsion,1,televisions,null,null,null,null,null,null,2,NA,NA,NA,NA,NA,NA,NA,NA,NA,NA
NA,NA,NA,NA,NA,choice_trial,survey-html-form,67,676581,0.0-4.0-1.31,318,1,2025-05-08T15:18:27Z,b60275e29fe2361ab97ac0ac217840d7,"Mozilla/5.0 (Macintosh; Intel Mac OS X 10_15_7) AppleWebKit/605.1.15 (KHTML, like Gecko) Version/17.6 Safari/605.1.15",Macintosh,Safari,17.6,OS X,10_15_7,https://5puzkbbxv1.cognition.run/?sona_id=55011,"en-US,en;q=0.9",wywz24qe55c9hf8,22,"[""White""]",No,Female,NA,I'm not sure,960885,NA,7058,NA,"{""product_choice"":""A""}",choice,ct,binary,repulsion,1,televisions,null,null,null,null,null,null,2,100,90,null,30,40,null,Screen size,Average lifespan,NA,NA
NA,NA,NA,NA,NA,choice_trial_setup,html-keyboard-response,68,676884,0.0-4.0-0.32,318,1,2025-05-08T15:18:27Z,b60275e29fe2361ab97ac0ac217840d7,"Mozilla/5.0 (Macintosh; Intel Mac OS X 10_15_7) AppleWebKit/605.1.15 (KHTML, like Gecko) Version/17.6 Safari/605.1.15",Macintosh,Safari,17.6,OS X,10_15_7,https://5puzkbbxv1.cognition.run/?sona_id=55011,"en-US,en;q=0.9",wywz24qe55c9hf8,22,"[""White""]",No,Female,NA,I'm not sure,960885,NA,null,<p></p>,null,choice,bw,binary,catch,null,televisions,65,50,10,30,null,null,2,NA,NA,NA,NA,NA,NA,NA,NA,NA,NA
NA,NA,NA,NA,NA,choice_trial,survey-html-form,69,682582,0.0-4.0-1.32,318,1,2025-05-08T15:18:27Z,b60275e29fe2361ab97ac0ac217840d7,"Mozilla/5.0 (Macintosh; Intel Mac OS X 10_15_7) AppleWebKit/605.1.15 (KHTML, like Gecko) Version/17.6 Safari/605.1.15",Macintosh,Safari,17.6,OS X,10_15_7,https://5puzkbbxv1.cognition.run/?sona_id=55011,"en-US,en;q=0.9",wywz24qe55c9hf8,22,"[""White""]",No,Female,NA,I'm not sure,960885,NA,5693,NA,"{""product_choice"":""A""}",choice,bw,binary,catch,null,televisions,65,50,10,30,null,null,2,null,null,null,null,null,null,Screen size,Average lifespan,NA,NA
NA,NA,NA,NA,NA,choice_trial_setup,html-keyboard-response,70,682885,0.0-4.0-0.33,318,1,2025-05-08T15:18:27Z,b60275e29fe2361ab97ac0ac217840d7,"Mozilla/5.0 (Macintosh; Intel Mac OS X 10_15_7) AppleWebKit/605.1.15 (KHTML, like Gecko) Version/17.6 Safari/605.1.15",Macintosh,Safari,17.6,OS X,10_15_7,https://5puzkbbxv1.cognition.run/?sona_id=55011,"en-US,en;q=0.9",wywz24qe55c9hf8,22,"[""White""]",No,Female,NA,I'm not sure,960885,NA,null,<p></p>,null,choice,tdc,trinary,attraction,1,microwave ovens,null,null,null,null,null,null,2,NA,NA,NA,NA,NA,NA,NA,NA,NA,NA
NA,NA,NA,NA,NA,choice_trial,survey-html-form,71,691935,0.0-4.0-1.33,318,1,2025-05-08T15:18:27Z,b60275e29fe2361ab97ac0ac217840d7,"Mozilla/5.0 (Macintosh; Intel Mac OS X 10_15_7) AppleWebKit/605.1.15 (KHTML, like Gecko) Version/17.6 Safari/605.1.15",Macintosh,Safari,17.6,OS X,10_15_7,https://5puzkbbxv1.cognition.run/?sona_id=55011,"en-US,en;q=0.9",wywz24qe55c9hf8,22,"[""White""]",No,Female,NA,I'm not sure,960885,NA,9045,NA,"{""product_choice"":""A""}",choice,tdc,trinary,attraction,1,microwave ovens,null,null,null,null,null,null,2,60,50,60,50,60,40,Warranty,Cooking power,NA,NA
NA,NA,NA,NA,NA,choice_trial_setup,html-keyboard-response,72,692239,0.0-4.0-0.34,318,1,2025-05-08T15:18:27Z,b60275e29fe2361ab97ac0ac217840d7,"Mozilla/5.0 (Macintosh; Intel Mac OS X 10_15_7) AppleWebKit/605.1.15 (KHTML, like Gecko) Version/17.6 Safari/605.1.15",Macintosh,Safari,17.6,OS X,10_15_7,https://5puzkbbxv1.cognition.run/?sona_id=55011,"en-US,en;q=0.9",wywz24qe55c9hf8,22,"[""White""]",No,Female,NA,I'm not sure,960885,NA,null,<p></p>,null,choice,dct,trinary,repulsion_A,1,televisions,null,null,null,null,null,null,1,NA,NA,NA,NA,NA,NA,NA,NA,NA,NA
NA,NA,NA,NA,NA,choice_trial,survey-html-form,73,696832,0.0-4.0-1.34,318,1,2025-05-08T15:18:27Z,b60275e29fe2361ab97ac0ac217840d7,"Mozilla/5.0 (Macintosh; Intel Mac OS X 10_15_7) AppleWebKit/605.1.15 (KHTML, like Gecko) Version/17.6 Safari/605.1.15",Macintosh,Safari,17.6,OS X,10_15_7,https://5puzkbbxv1.cognition.run/?sona_id=55011,"en-US,en;q=0.9",wywz24qe55c9hf8,22,"[""White""]",No,Female,NA,I'm not sure,960885,NA,4588,NA,"{""product_choice"":""B""}",choice,dct,trinary,repulsion_A,1,televisions,null,null,null,null,null,null,1,100,90,100,30,40,20,Screen size,Average lifespan,NA,NA
NA,NA,NA,NA,NA,choice_trial_setup,html-keyboard-response,74,697136,0.0-4.0-0.35,318,1,2025-05-08T15:18:27Z,b60275e29fe2361ab97ac0ac217840d7,"Mozilla/5.0 (Macintosh; Intel Mac OS X 10_15_7) AppleWebKit/605.1.15 (KHTML, like Gecko) Version/17.6 Safari/605.1.15",Macintosh,Safari,17.6,OS X,10_15_7,https://5puzkbbxv1.cognition.run/?sona_id=55011,"en-US,en;q=0.9",wywz24qe55c9hf8,22,"[""White""]",No,Female,NA,I'm not sure,960885,NA,null,<p></p>,null,choice,tdc,trinary,repulsion_A,1,microwave ovens,null,null,null,null,null,null,1,NA,NA,NA,NA,NA,NA,NA,NA,NA,NA
NA,NA,NA,NA,NA,choice_trial,survey-html-form,75,704465,0.0-4.0-1.35,318,1,2025-05-08T15:18:27Z,b60275e29fe2361ab97ac0ac217840d7,"Mozilla/5.0 (Macintosh; Intel Mac OS X 10_15_7) AppleWebKit/605.1.15 (KHTML, like Gecko) Version/17.6 Safari/605.1.15",Macintosh,Safari,17.6,OS X,10_15_7,https://5puzkbbxv1.cognition.run/?sona_id=55011,"en-US,en;q=0.9",wywz24qe55c9hf8,22,"[""White""]",No,Female,NA,I'm not sure,960885,NA,7325,NA,"{""product_choice"":""C""}",choice,tdc,trinary,repulsion_A,1,microwave ovens,null,null,null,null,null,null,1,100,90,100,30,40,20,Warranty,Cooking power,NA,NA
NA,NA,NA,NA,NA,choice_trial_setup,html-keyboard-response,76,704769,0.0-4.0-0.36,318,1,2025-05-08T15:18:27Z,b60275e29fe2361ab97ac0ac217840d7,"Mozilla/5.0 (Macintosh; Intel Mac OS X 10_15_7) AppleWebKit/605.1.15 (KHTML, like Gecko) Version/17.6 Safari/605.1.15",Macintosh,Safari,17.6,OS X,10_15_7,https://5puzkbbxv1.cognition.run/?sona_id=55011,"en-US,en;q=0.9",wywz24qe55c9hf8,22,"[""White""]",No,Female,NA,I'm not sure,960885,NA,null,<p></p>,null,choice,tc,binary,repulsion,2,washing machines,null,null,null,null,null,null,2,NA,NA,NA,NA,NA,NA,NA,NA,NA,NA
NA,NA,NA,NA,NA,choice_trial,survey-html-form,77,712865,0.0-4.0-1.36,318,1,2025-05-08T15:18:27Z,b60275e29fe2361ab97ac0ac217840d7,"Mozilla/5.0 (Macintosh; Intel Mac OS X 10_15_7) AppleWebKit/605.1.15 (KHTML, like Gecko) Version/17.6 Safari/605.1.15",Macintosh,Safari,17.6,OS X,10_15_7,https://5puzkbbxv1.cognition.run/?sona_id=55011,"en-US,en;q=0.9",wywz24qe55c9hf8,22,"[""White""]",No,Female,NA,I'm not sure,960885,NA,8091,NA,"{""product_choice"":""A""}",choice,tc,binary,repulsion,2,washing machines,null,null,null,null,null,null,2,30,40,null,100,90,null,Average lifespan,Energy savings,NA,NA
NA,NA,NA,NA,NA,choice_trial_setup,html-keyboard-response,78,713170,0.0-4.0-0.37,318,1,2025-05-08T15:18:27Z,b60275e29fe2361ab97ac0ac217840d7,"Mozilla/5.0 (Macintosh; Intel Mac OS X 10_15_7) AppleWebKit/605.1.15 (KHTML, like Gecko) Version/17.6 Safari/605.1.15",Macintosh,Safari,17.6,OS X,10_15_7,https://5puzkbbxv1.cognition.run/?sona_id=55011,"en-US,en;q=0.9",wywz24qe55c9hf8,22,"[""White""]",No,Female,NA,I'm not sure,960885,NA,null,<p></p>,null,choice,dct,trinary,attraction,2,washing machines,null,null,null,null,null,null,2,NA,NA,NA,NA,NA,NA,NA,NA,NA,NA
NA,NA,NA,NA,NA,choice_trial,survey-html-form,79,759320,0.0-4.0-1.37,318,1,2025-05-08T15:18:27Z,b60275e29fe2361ab97ac0ac217840d7,"Mozilla/5.0 (Macintosh; Intel Mac OS X 10_15_7) AppleWebKit/605.1.15 (KHTML, like Gecko) Version/17.6 Safari/605.1.15",Macintosh,Safari,17.6,OS X,10_15_7,https://5puzkbbxv1.cognition.run/?sona_id=55011,"en-US,en;q=0.9",wywz24qe55c9hf8,22,"[""White""]",No,Female,NA,I'm not sure,960885,NA,46144,NA,"{""product_choice"":""C""}",choice,dct,trinary,attraction,2,washing machines,null,null,null,null,null,null,2,50,60,40,60,50,60,Average lifespan,Energy savings,NA,NA
NA,NA,NA,NA,NA,choice_trial_setup,html-keyboard-response,80,759626,0.0-4.0-0.38,318,1,2025-05-08T15:18:27Z,b60275e29fe2361ab97ac0ac217840d7,"Mozilla/5.0 (Macintosh; Intel Mac OS X 10_15_7) AppleWebKit/605.1.15 (KHTML, like Gecko) Version/17.6 Safari/605.1.15",Macintosh,Safari,17.6,OS X,10_15_7,https://5puzkbbxv1.cognition.run/?sona_id=55011,"en-US,en;q=0.9",wywz24qe55c9hf8,22,"[""White""]",No,Female,NA,I'm not sure,960885,NA,null,<p></p>,null,choice,dtc,trinary,repulsion_B,1,laptops,null,null,null,null,null,null,2,NA,NA,NA,NA,NA,NA,NA,NA,NA,NA
NA,NA,NA,NA,NA,choice_trial,survey-html-form,81,766314,0.0-4.0-1.38,318,1,2025-05-08T15:18:27Z,b60275e29fe2361ab97ac0ac217840d7,"Mozilla/5.0 (Macintosh; Intel Mac OS X 10_15_7) AppleWebKit/605.1.15 (KHTML, like Gecko) Version/17.6 Safari/605.1.15",Macintosh,Safari,17.6,OS X,10_15_7,https://5puzkbbxv1.cognition.run/?sona_id=55011,"en-US,en;q=0.9",wywz24qe55c9hf8,22,"[""White""]",No,Female,NA,I'm not sure,960885,NA,6681,NA,"{""product_choice"":""B""}",choice,dtc,trinary,repulsion_B,1,laptops,null,null,null,null,null,null,2,90,100,80,40,30,40,Processing speed,Memory (RAM),NA,NA
NA,NA,NA,NA,NA,choice_trial_setup,html-keyboard-response,82,766617,0.0-4.0-0.39,318,1,2025-05-08T15:18:27Z,b60275e29fe2361ab97ac0ac217840d7,"Mozilla/5.0 (Macintosh; Intel Mac OS X 10_15_7) AppleWebKit/605.1.15 (KHTML, like Gecko) Version/17.6 Safari/605.1.15",Macintosh,Safari,17.6,OS X,10_15_7,https://5puzkbbxv1.cognition.run/?sona_id=55011,"en-US,en;q=0.9",wywz24qe55c9hf8,22,"[""White""]",No,Female,NA,I'm not sure,960885,NA,null,<p></p>,null,choice,wwb,trinary,catch,null,washing machines,65,85,10,45,50,30,2,NA,NA,NA,NA,NA,NA,NA,NA,NA,NA
NA,NA,NA,NA,NA,choice_trial,survey-html-form,83,772580,0.0-4.0-1.39,318,1,2025-05-08T15:18:27Z,b60275e29fe2361ab97ac0ac217840d7,"Mozilla/5.0 (Macintosh; Intel Mac OS X 10_15_7) AppleWebKit/605.1.15 (KHTML, like Gecko) Version/17.6 Safari/605.1.15",Macintosh,Safari,17.6,OS X,10_15_7,https://5puzkbbxv1.cognition.run/?sona_id=55011,"en-US,en;q=0.9",wywz24qe55c9hf8,22,"[""White""]",No,Female,NA,I'm not sure,960885,NA,5958,NA,"{""product_choice"":""C""}",choice,wwb,trinary,catch,null,washing machines,65,85,10,45,50,30,2,null,null,null,null,null,null,Average lifespan,Energy savings,NA,NA
NA,NA,NA,NA,NA,choice_trial_setup,html-keyboard-response,84,772884,0.0-4.0-0.40,318,1,2025-05-08T15:18:27Z,b60275e29fe2361ab97ac0ac217840d7,"Mozilla/5.0 (Macintosh; Intel Mac OS X 10_15_7) AppleWebKit/605.1.15 (KHTML, like Gecko) Version/17.6 Safari/605.1.15",Macintosh,Safari,17.6,OS X,10_15_7,https://5puzkbbxv1.cognition.run/?sona_id=55011,"en-US,en;q=0.9",wywz24qe55c9hf8,22,"[""White""]",No,Female,NA,I'm not sure,960885,NA,null,<p></p>,null,choice,tc,binary,repulsion,1,microwave ovens,null,null,null,null,null,null,1,NA,NA,NA,NA,NA,NA,NA,NA,NA,NA
NA,NA,NA,NA,NA,choice_trial,survey-html-form,85,786462,0.0-4.0-1.40,318,1,2025-05-08T15:18:27Z,b60275e29fe2361ab97ac0ac217840d7,"Mozilla/5.0 (Macintosh; Intel Mac OS X 10_15_7) AppleWebKit/605.1.15 (KHTML, like Gecko) Version/17.6 Safari/605.1.15",Macintosh,Safari,17.6,OS X,10_15_7,https://5puzkbbxv1.cognition.run/?sona_id=55011,"en-US,en;q=0.9",wywz24qe55c9hf8,22,"[""White""]",No,Female,NA,I'm not sure,960885,NA,13574,NA,"{""product_choice"":""B""}",choice,tc,binary,repulsion,1,microwave ovens,null,null,null,null,null,null,1,100,90,null,30,40,null,Warranty,Cooking power,NA,NA
NA,NA,NA,NA,NA,choice_trial_setup,html-keyboard-response,86,786767,0.0-4.0-0.41,318,1,2025-05-08T15:18:27Z,b60275e29fe2361ab97ac0ac217840d7,"Mozilla/5.0 (Macintosh; Intel Mac OS X 10_15_7) AppleWebKit/605.1.15 (KHTML, like Gecko) Version/17.6 Safari/605.1.15",Macintosh,Safari,17.6,OS X,10_15_7,https://5puzkbbxv1.cognition.run/?sona_id=55011,"en-US,en;q=0.9",wywz24qe55c9hf8,22,"[""White""]",No,Female,NA,I'm not sure,960885,NA,null,<p></p>,null,choice,tc,binary,repulsion,2,laptops,null,null,null,null,null,null,1,NA,NA,NA,NA,NA,NA,NA,NA,NA,NA
NA,NA,NA,NA,NA,choice_trial,survey-html-form,87,792398,0.0-4.0-1.41,318,1,2025-05-08T15:18:27Z,b60275e29fe2361ab97ac0ac217840d7,"Mozilla/5.0 (Macintosh; Intel Mac OS X 10_15_7) AppleWebKit/605.1.15 (KHTML, like Gecko) Version/17.6 Safari/605.1.15",Macintosh,Safari,17.6,OS X,10_15_7,https://5puzkbbxv1.cognition.run/?sona_id=55011,"en-US,en;q=0.9",wywz24qe55c9hf8,22,"[""White""]",No,Female,NA,I'm not sure,960885,NA,5627,NA,"{""product_choice"":""B""}",choice,tc,binary,repulsion,2,laptops,null,null,null,null,null,null,1,30,40,null,100,90,null,Processing speed,Memory (RAM),NA,NA
NA,NA,NA,NA,NA,choice_trial_setup,html-keyboard-response,88,792702,0.0-4.0-0.42,318,1,2025-05-08T15:18:27Z,b60275e29fe2361ab97ac0ac217840d7,"Mozilla/5.0 (Macintosh; Intel Mac OS X 10_15_7) AppleWebKit/605.1.15 (KHTML, like Gecko) Version/17.6 Safari/605.1.15",Macintosh,Safari,17.6,OS X,10_15_7,https://5puzkbbxv1.cognition.run/?sona_id=55011,"en-US,en;q=0.9",wywz24qe55c9hf8,22,"[""White""]",No,Female,NA,I'm not sure,960885,NA,null,<p></p>,null,choice,ct,binary,attraction,NA,microwave ovens,null,null,null,null,null,null,2,NA,NA,NA,NA,NA,NA,NA,NA,NA,NA
NA,NA,NA,NA,NA,choice_trial,survey-html-form,89,800929,0.0-4.0-1.42,318,1,2025-05-08T15:18:27Z,b60275e29fe2361ab97ac0ac217840d7,"Mozilla/5.0 (Macintosh; Intel Mac OS X 10_15_7) AppleWebKit/605.1.15 (KHTML, like Gecko) Version/17.6 Safari/605.1.15",Macintosh,Safari,17.6,OS X,10_15_7,https://5puzkbbxv1.cognition.run/?sona_id=55011,"en-US,en;q=0.9",wywz24qe55c9hf8,22,"[""White""]",No,Female,NA,I'm not sure,960885,NA,8222,NA,"{""product_choice"":""B""}",choice,ct,binary,attraction,NA,microwave ovens,null,null,null,null,null,null,2,60,50,null,50,60,null,Warranty,Cooking power,NA,NA
NA,NA,NA,NA,NA,choice_trial_setup,html-keyboard-response,90,801233,0.0-4.0-0.43,318,1,2025-05-08T15:18:27Z,b60275e29fe2361ab97ac0ac217840d7,"Mozilla/5.0 (Macintosh; Intel Mac OS X 10_15_7) AppleWebKit/605.1.15 (KHTML, like Gecko) Version/17.6 Safari/605.1.15",Macintosh,Safari,17.6,OS X,10_15_7,https://5puzkbbxv1.cognition.run/?sona_id=55011,"en-US,en;q=0.9",wywz24qe55c9hf8,22,"[""White""]",No,Female,NA,I'm not sure,960885,NA,null,<p></p>,null,choice,cdt,trinary,repulsion_B,2,washing machines,null,null,null,null,null,null,2,NA,NA,NA,NA,NA,NA,NA,NA,NA,NA
NA,NA,NA,NA,NA,choice_trial,survey-html-form,91,810883,0.0-4.0-1.43,318,1,2025-05-08T15:18:27Z,b60275e29fe2361ab97ac0ac217840d7,"Mozilla/5.0 (Macintosh; Intel Mac OS X 10_15_7) AppleWebKit/605.1.15 (KHTML, like Gecko) Version/17.6 Safari/605.1.15",Macintosh,Safari,17.6,OS X,10_15_7,https://5puzkbbxv1.cognition.run/?sona_id=55011,"en-US,en;q=0.9",wywz24qe55c9hf8,22,"[""White""]",No,Female,NA,I'm not sure,960885,NA,9643,NA,"{""product_choice"":""C""}",choice,cdt,trinary,repulsion_B,2,washing machines,null,null,null,null,null,null,2,40,30,40,90,100,80,Average lifespan,Energy savings,NA,NA
NA,NA,NA,NA,NA,post_trials_message,html-button-response,92,812397,0.0-5.0,318,1,2025-05-08T15:18:27Z,b60275e29fe2361ab97ac0ac217840d7,"Mozilla/5.0 (Macintosh; Intel Mac OS X 10_15_7) AppleWebKit/605.1.15 (KHTML, like Gecko) Version/17.6 Safari/605.1.15",Macintosh,Safari,17.6,OS X,10_15_7,https://5puzkbbxv1.cognition.run/?sona_id=55011,"en-US,en;q=0.9",wywz24qe55c9hf8,22,"[""White""]",No,Female,NA,I'm not sure,960885,NA,1504,<p> <b>Thank you for your patience!</b></p><p>  The study will be done after completing a brief form. </p>,0,NA,NA,NA,NA,NA,NA,NA,NA,NA,NA,NA,NA,NA,NA,NA,NA,NA,NA,NA,NA,NA,NA,NA
NA,NA,NA,NA,NA,survey_message,survey-text,93,923631,0.0-6.0,318,1,2025-05-08T15:18:27Z,b60275e29fe2361ab97ac0ac217840d7,"Mozilla/5.0 (Macintosh; Intel Mac OS X 10_15_7) AppleWebKit/605.1.15 (KHTML, like Gecko) Version/17.6 Safari/605.1.15",Macintosh,Safari,17.6,OS X,10_15_7,https://5puzkbbxv1.cognition.run/?sona_id=55011,"en-US,en;q=0.9",wywz24qe55c9hf8,22,"[""White""]",No,Female,NA,I'm not sure,960885,NA,111191,NA,"{""Q0"":""I tried to keep both options for the product as equal as possible. however, something like warranty, average life span and energy savings are the most important to me when purchasing a product so I will choose the product with a higher option for those. ""}",NA,NA,NA,NA,NA,NA,NA,NA,NA,NA,NA,NA,NA,NA,NA,NA,NA,NA,NA,NA,NA,"I tried to keep both options for the product as equal as possible. however, something like warranty, average life span and energy savings are the most important to me when purchasing a product so I will choose the product with a higher option for those.",NA
NA,NA,NA,NA,NA,demo_age,survey-text,94,925866,0.0-7.0,318,1,2025-05-08T15:18:27Z,b60275e29fe2361ab97ac0ac217840d7,"Mozilla/5.0 (Macintosh; Intel Mac OS X 10_15_7) AppleWebKit/605.1.15 (KHTML, like Gecko) Version/17.6 Safari/605.1.15",Macintosh,Safari,17.6,OS X,10_15_7,https://5puzkbbxv1.cognition.run/?sona_id=55011,"en-US,en;q=0.9",wywz24qe55c9hf8,22,"[""White""]",No,Female,NA,I'm not sure,960885,NA,2225,NA,"{""Q0"":""22""}",NA,NA,NA,NA,NA,NA,NA,NA,NA,NA,NA,NA,NA,NA,NA,NA,NA,NA,NA,NA,NA,NA,NA
NA,NA,NA,NA,NA,demo_race,survey-multi-select,95,929002,0.0-8.0,318,1,2025-05-08T15:18:27Z,b60275e29fe2361ab97ac0ac217840d7,"Mozilla/5.0 (Macintosh; Intel Mac OS X 10_15_7) AppleWebKit/605.1.15 (KHTML, like Gecko) Version/17.6 Safari/605.1.15",Macintosh,Safari,17.6,OS X,10_15_7,https://5puzkbbxv1.cognition.run/?sona_id=55011,"en-US,en;q=0.9",wywz24qe55c9hf8,22,"[""White""]",No,Female,NA,I'm not sure,960885,NA,3129,NA,"{""Q0"":[""White""]}",NA,NA,NA,NA,NA,NA,NA,NA,NA,NA,NA,NA,NA,NA,NA,NA,NA,NA,NA,NA,NA,NA,[0]
NA,NA,NA,NA,NA,demo_ethnicity_gender,survey-multi-choice,96,932213,0.0-9.0,318,1,2025-05-08T15:18:27Z,b60275e29fe2361ab97ac0ac217840d7,"Mozilla/5.0 (Macintosh; Intel Mac OS X 10_15_7) AppleWebKit/605.1.15 (KHTML, like Gecko) Version/17.6 Safari/605.1.15",Macintosh,Safari,17.6,OS X,10_15_7,https://5puzkbbxv1.cognition.run/?sona_id=55011,"en-US,en;q=0.9",wywz24qe55c9hf8,22,"[""White""]",No,Female,NA,I'm not sure,960885,NA,3203,NA,"{""Q0"":""No"",""Q1"":""Female""}",NA,NA,NA,NA,NA,NA,NA,NA,NA,NA,NA,NA,NA,NA,NA,NA,NA,NA,NA,NA,NA,NA,"[0,1]"
NA,NA,NA,NA,NA,demo_countries,survey-text,97,939115,0.0-10.0,318,1,2025-05-08T15:18:27Z,b60275e29fe2361ab97ac0ac217840d7,"Mozilla/5.0 (Macintosh; Intel Mac OS X 10_15_7) AppleWebKit/605.1.15 (KHTML, like Gecko) Version/17.6 Safari/605.1.15",Macintosh,Safari,17.6,OS X,10_15_7,https://5puzkbbxv1.cognition.run/?sona_id=55011,"en-US,en;q=0.9",wywz24qe55c9hf8,22,"[""White""]",No,Female,NA,I'm not sure,960885,NA,6896,NA,"{""Q0"":""NA""}",NA,NA,NA,NA,NA,NA,NA,NA,NA,NA,NA,NA,NA,NA,NA,NA,NA,NA,NA,NA,NA,NA,NA
NA,NA,NA,NA,NA,demo_prev_study,survey-multi-choice,98,946546,0.0-11.0,318,1,2025-05-08T15:18:27Z,b60275e29fe2361ab97ac0ac217840d7,"Mozilla/5.0 (Macintosh; Intel Mac OS X 10_15_7) AppleWebKit/605.1.15 (KHTML, like Gecko) Version/17.6 Safari/605.1.15",Macintosh,Safari,17.6,OS X,10_15_7,https://5puzkbbxv1.cognition.run/?sona_id=55011,"en-US,en;q=0.9",wywz24qe55c9hf8,22,"[""White""]",No,Female,NA,I'm not sure,960885,NA,7428,NA,"{""Q0"":""I'm not sure""}",NA,NA,NA,NA,NA,NA,NA,NA,NA,NA,NA,NA,NA,NA,NA,NA,NA,NA,NA,NA,NA,NA,[0]
NA,NA,NA,NA,NA,post_survey_message,html-keyboard-response,99,956107,0.0-12.0,318,1,2025-05-08T15:18:27Z,b60275e29fe2361ab97ac0ac217840d7,"Mozilla/5.0 (Macintosh; Intel Mac OS X 10_15_7) AppleWebKit/605.1.15 (KHTML, like Gecko) Version/17.6 Safari/605.1.15",Macintosh,Safari,17.6,OS X,10_15_7,https://5puzkbbxv1.cognition.run/?sona_id=55011,"en-US,en;q=0.9",wywz24qe55c9hf8,22,"[""White""]",No,Female,NA,I'm not sure,960885,NA,9555,NA,j,NA,NA,NA,NA,NA,NA,NA,NA,NA,NA,NA,NA,NA,NA,NA,NA,NA,NA,NA,NA,NA,NA,NA
NA,NA,NA,NA,NA,debrief,image-keyboard-response,100,960836,0.0-13.0,318,1,2025-05-08T15:18:27Z,b60275e29fe2361ab97ac0ac217840d7,"Mozilla/5.0 (Macintosh; Intel Mac OS X 10_15_7) AppleWebKit/605.1.15 (KHTML, like Gecko) Version/17.6 Safari/605.1.15",Macintosh,Safari,17.6,OS X,10_15_7,https://5puzkbbxv1.cognition.run/?sona_id=55011,"en-US,en;q=0.9",wywz24qe55c9hf8,22,"[""White""]",No,Female,NA,I'm not sure,960885,NA,4690,Judg_choice_debrief.png,p,NA,NA,NA,NA,NA,NA,NA,NA,NA,NA,NA,NA,NA,NA,NA,NA,NA,NA,NA,NA,NA,NA,NA
