success,timeout,failed_images,failed_audio,failed_video,screen_id,trial_type,trial_index,time_elapsed,internal_node_id,run_id,condition,recorded_at,source_code_version,user_agent,device,browser,browser_version,platform,platform_version,referer,accept_language,ppt_id,age,race,ethnicity,gender,other_countries,prev_study,exp_duration,view_history,rt,stimulus,response,phase,order,set,effect,t_high,category,d1_best,d2_best,d1_worst1,d2_worst1,d1_worst2,d2_worst2,first_dim,d1_t,d1_c,d1_d,d2_t,d2_c,d2_d,d1_name,d2_name,strategy_response,question_order
TRUE,FALSE,[],[],[],img preload,preload,0,881,0.0-0.0,320,1,2025-05-08T15:36:43Z,b60275e29fe2361ab97ac0ac217840d7,"Mozilla/5.0 (Macintosh; Intel Mac OS X 10_15_7) AppleWebKit/537.36 (KHTML, like Gecko) Chrome/135.0.0.0 Safari/537.36",Macintosh,Chrome,135.0.0.0,OS X,10_15_7,https://5puzkbbxv1.cognition.run/?sona_id=57769,"en-US,en;q=0.9",k3hzxcy0qjuebc4,19,"[""White""]",No,Male,NA,Yes,514694.7999999523,NA,NA,NA,NA,NA,NA,NA,NA,NA,NA,NA,NA,NA,NA,NA,NA,NA,NA,NA,NA,NA,NA,NA,NA,NA,NA,NA
NA,NA,NA,NA,NA,computer_message,instructions,1,2800,0.0-1.0,320,1,2025-05-08T15:36:43Z,b60275e29fe2361ab97ac0ac217840d7,"Mozilla/5.0 (Macintosh; Intel Mac OS X 10_15_7) AppleWebKit/537.36 (KHTML, like Gecko) Chrome/135.0.0.0 Safari/537.36",Macintosh,Chrome,135.0.0.0,OS X,10_15_7,https://5puzkbbxv1.cognition.run/?sona_id=57769,"en-US,en;q=0.9",k3hzxcy0qjuebc4,19,"[""White""]",No,Male,NA,Yes,514694.7999999523,"[{""page_index"":0,""viewing_time"":1916}]",1917,NA,NA,NA,NA,NA,NA,NA,NA,NA,NA,NA,NA,NA,NA,NA,NA,NA,NA,NA,NA,NA,NA,NA,NA,NA
TRUE,NA,NA,NA,NA,NA,fullscreen,2,5038,0.0-2.0,320,1,2025-05-08T15:36:43Z,b60275e29fe2361ab97ac0ac217840d7,"Mozilla/5.0 (Macintosh; Intel Mac OS X 10_15_7) AppleWebKit/537.36 (KHTML, like Gecko) Chrome/135.0.0.0 Safari/537.36",Macintosh,Chrome,135.0.0.0,OS X,10_15_7,https://5puzkbbxv1.cognition.run/?sona_id=57769,"en-US,en;q=0.9",k3hzxcy0qjuebc4,19,"[""White""]",No,Male,NA,Yes,514694.7999999523,NA,1235,NA,NA,NA,NA,NA,NA,NA,NA,NA,NA,NA,NA,NA,NA,NA,NA,NA,NA,NA,NA,NA,NA,NA,NA,NA
NA,NA,NA,NA,NA,choice_instructions,instructions,3,35898,0.0-3.0,320,1,2025-05-08T15:36:43Z,b60275e29fe2361ab97ac0ac217840d7,"Mozilla/5.0 (Macintosh; Intel Mac OS X 10_15_7) AppleWebKit/537.36 (KHTML, like Gecko) Chrome/135.0.0.0 Safari/537.36",Macintosh,Chrome,135.0.0.0,OS X,10_15_7,https://5puzkbbxv1.cognition.run/?sona_id=57769,"en-US,en;q=0.9",k3hzxcy0qjuebc4,19,"[""White""]",No,Male,NA,Yes,514694.7999999523,"[{""page_index"":0,""viewing_time"":1739},{""page_index"":1,""viewing_time"":4271},{""page_index"":2,""viewing_time"":1684},{""page_index"":3,""viewing_time"":3502},{""page_index"":4,""viewing_time"":1826},{""page_index"":5,""viewing_time"":15192},{""page_index"":6,""viewing_time"":2645}]",30859,NA,NA,NA,NA,NA,NA,NA,NA,NA,NA,NA,NA,NA,NA,NA,NA,NA,NA,NA,NA,NA,NA,NA,NA,NA
NA,NA,NA,NA,NA,choice_trial_setup,html-keyboard-response,4,36200,0.0-4.0-0.0,320,1,2025-05-08T15:36:43Z,b60275e29fe2361ab97ac0ac217840d7,"Mozilla/5.0 (Macintosh; Intel Mac OS X 10_15_7) AppleWebKit/537.36 (KHTML, like Gecko) Chrome/135.0.0.0 Safari/537.36",Macintosh,Chrome,135.0.0.0,OS X,10_15_7,https://5puzkbbxv1.cognition.run/?sona_id=57769,"en-US,en;q=0.9",k3hzxcy0qjuebc4,19,"[""White""]",No,Male,NA,Yes,514694.7999999523,NA,null,<p></p>,null,choice,dct,trinary,attraction,1,televisions,null,null,null,null,null,null,1,NA,NA,NA,NA,NA,NA,NA,NA,NA,NA
NA,NA,NA,NA,NA,choice_trial,survey-html-form,5,50368,0.0-4.0-1.0,320,1,2025-05-08T15:36:43Z,b60275e29fe2361ab97ac0ac217840d7,"Mozilla/5.0 (Macintosh; Intel Mac OS X 10_15_7) AppleWebKit/537.36 (KHTML, like Gecko) Chrome/135.0.0.0 Safari/537.36",Macintosh,Chrome,135.0.0.0,OS X,10_15_7,https://5puzkbbxv1.cognition.run/?sona_id=57769,"en-US,en;q=0.9",k3hzxcy0qjuebc4,19,"[""White""]",No,Male,NA,Yes,514694.7999999523,NA,14163,NA,"{""product_choice"":""B""}",choice,dct,trinary,attraction,1,televisions,null,null,null,null,null,null,1,60,50,60,50,60,40,Screen size,Average lifespan,NA,NA
NA,NA,NA,NA,NA,choice_trial_setup,html-keyboard-response,6,50671,0.0-4.0-0.1,320,1,2025-05-08T15:36:43Z,b60275e29fe2361ab97ac0ac217840d7,"Mozilla/5.0 (Macintosh; Intel Mac OS X 10_15_7) AppleWebKit/537.36 (KHTML, like Gecko) Chrome/135.0.0.0 Safari/537.36",Macintosh,Chrome,135.0.0.0,OS X,10_15_7,https://5puzkbbxv1.cognition.run/?sona_id=57769,"en-US,en;q=0.9",k3hzxcy0qjuebc4,19,"[""White""]",No,Male,NA,Yes,514694.7999999523,NA,null,<p></p>,null,choice,tdc,trinary,repulsion_A,1,televisions,null,null,null,null,null,null,1,NA,NA,NA,NA,NA,NA,NA,NA,NA,NA
NA,NA,NA,NA,NA,choice_trial,survey-html-form,7,58779,0.0-4.0-1.1,320,1,2025-05-08T15:36:43Z,b60275e29fe2361ab97ac0ac217840d7,"Mozilla/5.0 (Macintosh; Intel Mac OS X 10_15_7) AppleWebKit/537.36 (KHTML, like Gecko) Chrome/135.0.0.0 Safari/537.36",Macintosh,Chrome,135.0.0.0,OS X,10_15_7,https://5puzkbbxv1.cognition.run/?sona_id=57769,"en-US,en;q=0.9",k3hzxcy0qjuebc4,19,"[""White""]",No,Male,NA,Yes,514694.7999999523,NA,8105,NA,"{""product_choice"":""C""}",choice,tdc,trinary,repulsion_A,1,televisions,null,null,null,null,null,null,1,100,90,100,30,40,20,Screen size,Average lifespan,NA,NA
NA,NA,NA,NA,NA,choice_trial_setup,html-keyboard-response,8,59082,0.0-4.0-0.2,320,1,2025-05-08T15:36:43Z,b60275e29fe2361ab97ac0ac217840d7,"Mozilla/5.0 (Macintosh; Intel Mac OS X 10_15_7) AppleWebKit/537.36 (KHTML, like Gecko) Chrome/135.0.0.0 Safari/537.36",Macintosh,Chrome,135.0.0.0,OS X,10_15_7,https://5puzkbbxv1.cognition.run/?sona_id=57769,"en-US,en;q=0.9",k3hzxcy0qjuebc4,19,"[""White""]",No,Male,NA,Yes,514694.7999999523,NA,null,<p></p>,null,choice,bw,binary,catch,null,microwave ovens,55,95,25,15,null,null,2,NA,NA,NA,NA,NA,NA,NA,NA,NA,NA
NA,NA,NA,NA,NA,choice_trial,survey-html-form,9,67497,0.0-4.0-1.2,320,1,2025-05-08T15:36:43Z,b60275e29fe2361ab97ac0ac217840d7,"Mozilla/5.0 (Macintosh; Intel Mac OS X 10_15_7) AppleWebKit/537.36 (KHTML, like Gecko) Chrome/135.0.0.0 Safari/537.36",Macintosh,Chrome,135.0.0.0,OS X,10_15_7,https://5puzkbbxv1.cognition.run/?sona_id=57769,"en-US,en;q=0.9",k3hzxcy0qjuebc4,19,"[""White""]",No,Male,NA,Yes,514694.7999999523,NA,8412,NA,"{""product_choice"":""A""}",choice,bw,binary,catch,null,microwave ovens,55,95,25,15,null,null,2,null,null,null,null,null,null,Warranty,Cooking power,NA,NA
NA,NA,NA,NA,NA,choice_trial_setup,html-keyboard-response,10,67799,0.0-4.0-0.3,320,1,2025-05-08T15:36:43Z,b60275e29fe2361ab97ac0ac217840d7,"Mozilla/5.0 (Macintosh; Intel Mac OS X 10_15_7) AppleWebKit/537.36 (KHTML, like Gecko) Chrome/135.0.0.0 Safari/537.36",Macintosh,Chrome,135.0.0.0,OS X,10_15_7,https://5puzkbbxv1.cognition.run/?sona_id=57769,"en-US,en;q=0.9",k3hzxcy0qjuebc4,19,"[""White""]",No,Male,NA,Yes,514694.7999999523,NA,null,<p></p>,null,choice,bw,binary,catch,null,laptops,60,95,40,50,null,null,1,NA,NA,NA,NA,NA,NA,NA,NA,NA,NA
NA,NA,NA,NA,NA,choice_trial,survey-html-form,11,77470,0.0-4.0-1.3,320,1,2025-05-08T15:36:43Z,b60275e29fe2361ab97ac0ac217840d7,"Mozilla/5.0 (Macintosh; Intel Mac OS X 10_15_7) AppleWebKit/537.36 (KHTML, like Gecko) Chrome/135.0.0.0 Safari/537.36",Macintosh,Chrome,135.0.0.0,OS X,10_15_7,https://5puzkbbxv1.cognition.run/?sona_id=57769,"en-US,en;q=0.9",k3hzxcy0qjuebc4,19,"[""White""]",No,Male,NA,Yes,514694.7999999523,NA,9668,NA,"{""product_choice"":""A""}",choice,bw,binary,catch,null,laptops,60,95,40,50,null,null,1,null,null,null,null,null,null,Processing speed,Memory (RAM),NA,NA
NA,NA,NA,NA,NA,choice_trial_setup,html-keyboard-response,12,77773,0.0-4.0-0.4,320,1,2025-05-08T15:36:43Z,b60275e29fe2361ab97ac0ac217840d7,"Mozilla/5.0 (Macintosh; Intel Mac OS X 10_15_7) AppleWebKit/537.36 (KHTML, like Gecko) Chrome/135.0.0.0 Safari/537.36",Macintosh,Chrome,135.0.0.0,OS X,10_15_7,https://5puzkbbxv1.cognition.run/?sona_id=57769,"en-US,en;q=0.9",k3hzxcy0qjuebc4,19,"[""White""]",No,Male,NA,Yes,514694.7999999523,NA,null,<p></p>,null,choice,tc,binary,repulsion,2,televisions,null,null,null,null,null,null,2,NA,NA,NA,NA,NA,NA,NA,NA,NA,NA
NA,NA,NA,NA,NA,choice_trial,survey-html-form,13,86072,0.0-4.0-1.4,320,1,2025-05-08T15:36:43Z,b60275e29fe2361ab97ac0ac217840d7,"Mozilla/5.0 (Macintosh; Intel Mac OS X 10_15_7) AppleWebKit/537.36 (KHTML, like Gecko) Chrome/135.0.0.0 Safari/537.36",Macintosh,Chrome,135.0.0.0,OS X,10_15_7,https://5puzkbbxv1.cognition.run/?sona_id=57769,"en-US,en;q=0.9",k3hzxcy0qjuebc4,19,"[""White""]",No,Male,NA,Yes,514694.7999999523,NA,8296,NA,"{""product_choice"":""B""}",choice,tc,binary,repulsion,2,televisions,null,null,null,null,null,null,2,30,40,null,100,90,null,Screen size,Average lifespan,NA,NA
NA,NA,NA,NA,NA,choice_trial_setup,html-keyboard-response,14,86373,0.0-4.0-0.5,320,1,2025-05-08T15:36:43Z,b60275e29fe2361ab97ac0ac217840d7,"Mozilla/5.0 (Macintosh; Intel Mac OS X 10_15_7) AppleWebKit/537.36 (KHTML, like Gecko) Chrome/135.0.0.0 Safari/537.36",Macintosh,Chrome,135.0.0.0,OS X,10_15_7,https://5puzkbbxv1.cognition.run/?sona_id=57769,"en-US,en;q=0.9",k3hzxcy0qjuebc4,19,"[""White""]",No,Male,NA,Yes,514694.7999999523,NA,null,<p></p>,null,choice,wbw,trinary,catch,null,microwave ovens,75,90,35,40,25,30,2,NA,NA,NA,NA,NA,NA,NA,NA,NA,NA
NA,NA,NA,NA,NA,choice_trial,survey-html-form,15,92042,0.0-4.0-1.5,320,1,2025-05-08T15:36:43Z,b60275e29fe2361ab97ac0ac217840d7,"Mozilla/5.0 (Macintosh; Intel Mac OS X 10_15_7) AppleWebKit/537.36 (KHTML, like Gecko) Chrome/135.0.0.0 Safari/537.36",Macintosh,Chrome,135.0.0.0,OS X,10_15_7,https://5puzkbbxv1.cognition.run/?sona_id=57769,"en-US,en;q=0.9",k3hzxcy0qjuebc4,19,"[""White""]",No,Male,NA,Yes,514694.7999999523,NA,5668,NA,"{""product_choice"":""B""}",choice,wbw,trinary,catch,null,microwave ovens,75,90,35,40,25,30,2,null,null,null,null,null,null,Warranty,Cooking power,NA,NA
NA,NA,NA,NA,NA,choice_trial_setup,html-keyboard-response,16,92345,0.0-4.0-0.6,320,1,2025-05-08T15:36:43Z,b60275e29fe2361ab97ac0ac217840d7,"Mozilla/5.0 (Macintosh; Intel Mac OS X 10_15_7) AppleWebKit/537.36 (KHTML, like Gecko) Chrome/135.0.0.0 Safari/537.36",Macintosh,Chrome,135.0.0.0,OS X,10_15_7,https://5puzkbbxv1.cognition.run/?sona_id=57769,"en-US,en;q=0.9",k3hzxcy0qjuebc4,19,"[""White""]",No,Male,NA,Yes,514694.7999999523,NA,null,<p></p>,null,choice,dtc,trinary,repulsion_A,2,televisions,null,null,null,null,null,null,1,NA,NA,NA,NA,NA,NA,NA,NA,NA,NA
NA,NA,NA,NA,NA,choice_trial,survey-html-form,17,105667,0.0-4.0-1.6,320,1,2025-05-08T15:36:43Z,b60275e29fe2361ab97ac0ac217840d7,"Mozilla/5.0 (Macintosh; Intel Mac OS X 10_15_7) AppleWebKit/537.36 (KHTML, like Gecko) Chrome/135.0.0.0 Safari/537.36",Macintosh,Chrome,135.0.0.0,OS X,10_15_7,https://5puzkbbxv1.cognition.run/?sona_id=57769,"en-US,en;q=0.9",k3hzxcy0qjuebc4,19,"[""White""]",No,Male,NA,Yes,514694.7999999523,NA,13319,NA,"{""product_choice"":""C""}",choice,dtc,trinary,repulsion_A,2,televisions,null,null,null,null,null,null,1,30,40,20,100,90,100,Screen size,Average lifespan,NA,NA
NA,NA,NA,NA,NA,choice_trial_setup,html-keyboard-response,18,105969,0.0-4.0-0.7,320,1,2025-05-08T15:36:43Z,b60275e29fe2361ab97ac0ac217840d7,"Mozilla/5.0 (Macintosh; Intel Mac OS X 10_15_7) AppleWebKit/537.36 (KHTML, like Gecko) Chrome/135.0.0.0 Safari/537.36",Macintosh,Chrome,135.0.0.0,OS X,10_15_7,https://5puzkbbxv1.cognition.run/?sona_id=57769,"en-US,en;q=0.9",k3hzxcy0qjuebc4,19,"[""White""]",No,Male,NA,Yes,514694.7999999523,NA,null,<p></p>,null,choice,cdt,trinary,repulsion_B,2,microwave ovens,null,null,null,null,null,null,2,NA,NA,NA,NA,NA,NA,NA,NA,NA,NA
NA,NA,NA,NA,NA,choice_trial,survey-html-form,19,111471,0.0-4.0-1.7,320,1,2025-05-08T15:36:43Z,b60275e29fe2361ab97ac0ac217840d7,"Mozilla/5.0 (Macintosh; Intel Mac OS X 10_15_7) AppleWebKit/537.36 (KHTML, like Gecko) Chrome/135.0.0.0 Safari/537.36",Macintosh,Chrome,135.0.0.0,OS X,10_15_7,https://5puzkbbxv1.cognition.run/?sona_id=57769,"en-US,en;q=0.9",k3hzxcy0qjuebc4,19,"[""White""]",No,Male,NA,Yes,514694.7999999523,NA,5500,NA,"{""product_choice"":""A""}",choice,cdt,trinary,repulsion_B,2,microwave ovens,null,null,null,null,null,null,2,40,30,40,90,100,80,Warranty,Cooking power,NA,NA
NA,NA,NA,NA,NA,choice_trial_setup,html-keyboard-response,20,111773,0.0-4.0-0.8,320,1,2025-05-08T15:36:43Z,b60275e29fe2361ab97ac0ac217840d7,"Mozilla/5.0 (Macintosh; Intel Mac OS X 10_15_7) AppleWebKit/537.36 (KHTML, like Gecko) Chrome/135.0.0.0 Safari/537.36",Macintosh,Chrome,135.0.0.0,OS X,10_15_7,https://5puzkbbxv1.cognition.run/?sona_id=57769,"en-US,en;q=0.9",k3hzxcy0qjuebc4,19,"[""White""]",No,Male,NA,Yes,514694.7999999523,NA,null,<p></p>,null,choice,dtc,trinary,attraction,1,microwave ovens,null,null,null,null,null,null,1,NA,NA,NA,NA,NA,NA,NA,NA,NA,NA
NA,NA,NA,NA,NA,choice_trial,survey-html-form,21,120771,0.0-4.0-1.8,320,1,2025-05-08T15:36:43Z,b60275e29fe2361ab97ac0ac217840d7,"Mozilla/5.0 (Macintosh; Intel Mac OS X 10_15_7) AppleWebKit/537.36 (KHTML, like Gecko) Chrome/135.0.0.0 Safari/537.36",Macintosh,Chrome,135.0.0.0,OS X,10_15_7,https://5puzkbbxv1.cognition.run/?sona_id=57769,"en-US,en;q=0.9",k3hzxcy0qjuebc4,19,"[""White""]",No,Male,NA,Yes,514694.7999999523,NA,8994,NA,"{""product_choice"":""C""}",choice,dtc,trinary,attraction,1,microwave ovens,null,null,null,null,null,null,1,60,50,60,50,60,40,Warranty,Cooking power,NA,NA
NA,NA,NA,NA,NA,choice_trial_setup,html-keyboard-response,22,121073,0.0-4.0-0.9,320,1,2025-05-08T15:36:43Z,b60275e29fe2361ab97ac0ac217840d7,"Mozilla/5.0 (Macintosh; Intel Mac OS X 10_15_7) AppleWebKit/537.36 (KHTML, like Gecko) Chrome/135.0.0.0 Safari/537.36",Macintosh,Chrome,135.0.0.0,OS X,10_15_7,https://5puzkbbxv1.cognition.run/?sona_id=57769,"en-US,en;q=0.9",k3hzxcy0qjuebc4,19,"[""White""]",No,Male,NA,Yes,514694.7999999523,NA,null,<p></p>,null,choice,ct,binary,repulsion,2,washing machines,null,null,null,null,null,null,2,NA,NA,NA,NA,NA,NA,NA,NA,NA,NA
NA,NA,NA,NA,NA,choice_trial,survey-html-form,23,139562,0.0-4.0-1.9,320,1,2025-05-08T15:36:43Z,b60275e29fe2361ab97ac0ac217840d7,"Mozilla/5.0 (Macintosh; Intel Mac OS X 10_15_7) AppleWebKit/537.36 (KHTML, like Gecko) Chrome/135.0.0.0 Safari/537.36",Macintosh,Chrome,135.0.0.0,OS X,10_15_7,https://5puzkbbxv1.cognition.run/?sona_id=57769,"en-US,en;q=0.9",k3hzxcy0qjuebc4,19,"[""White""]",No,Male,NA,Yes,514694.7999999523,NA,18487,NA,"{""product_choice"":""A""}",choice,ct,binary,repulsion,2,washing machines,null,null,null,null,null,null,2,30,40,null,100,90,null,Average lifespan,Energy savings,NA,NA
NA,NA,NA,NA,NA,choice_trial_setup,html-keyboard-response,24,139865,0.0-4.0-0.10,320,1,2025-05-08T15:36:43Z,b60275e29fe2361ab97ac0ac217840d7,"Mozilla/5.0 (Macintosh; Intel Mac OS X 10_15_7) AppleWebKit/537.36 (KHTML, like Gecko) Chrome/135.0.0.0 Safari/537.36",Macintosh,Chrome,135.0.0.0,OS X,10_15_7,https://5puzkbbxv1.cognition.run/?sona_id=57769,"en-US,en;q=0.9",k3hzxcy0qjuebc4,19,"[""White""]",No,Male,NA,Yes,514694.7999999523,NA,null,<p></p>,null,choice,wb,binary,catch,null,washing machines,90,95,10,25,null,null,2,NA,NA,NA,NA,NA,NA,NA,NA,NA,NA
NA,NA,NA,NA,NA,choice_trial,survey-html-form,25,154152,0.0-4.0-1.10,320,1,2025-05-08T15:36:43Z,b60275e29fe2361ab97ac0ac217840d7,"Mozilla/5.0 (Macintosh; Intel Mac OS X 10_15_7) AppleWebKit/537.36 (KHTML, like Gecko) Chrome/135.0.0.0 Safari/537.36",Macintosh,Chrome,135.0.0.0,OS X,10_15_7,https://5puzkbbxv1.cognition.run/?sona_id=57769,"en-US,en;q=0.9",k3hzxcy0qjuebc4,19,"[""White""]",No,Male,NA,Yes,514694.7999999523,NA,14283,NA,"{""product_choice"":""B""}",choice,wb,binary,catch,null,washing machines,90,95,10,25,null,null,2,null,null,null,null,null,null,Average lifespan,Energy savings,NA,NA
NA,NA,NA,NA,NA,choice_trial_setup,html-keyboard-response,26,154455,0.0-4.0-0.11,320,1,2025-05-08T15:36:43Z,b60275e29fe2361ab97ac0ac217840d7,"Mozilla/5.0 (Macintosh; Intel Mac OS X 10_15_7) AppleWebKit/537.36 (KHTML, like Gecko) Chrome/135.0.0.0 Safari/537.36",Macintosh,Chrome,135.0.0.0,OS X,10_15_7,https://5puzkbbxv1.cognition.run/?sona_id=57769,"en-US,en;q=0.9",k3hzxcy0qjuebc4,19,"[""White""]",No,Male,NA,Yes,514694.7999999523,NA,null,<p></p>,null,choice,tc,binary,attraction,NA,televisions,null,null,null,null,null,null,2,NA,NA,NA,NA,NA,NA,NA,NA,NA,NA
NA,NA,NA,NA,NA,choice_trial,survey-html-form,27,168484,0.0-4.0-1.11,320,1,2025-05-08T15:36:43Z,b60275e29fe2361ab97ac0ac217840d7,"Mozilla/5.0 (Macintosh; Intel Mac OS X 10_15_7) AppleWebKit/537.36 (KHTML, like Gecko) Chrome/135.0.0.0 Safari/537.36",Macintosh,Chrome,135.0.0.0,OS X,10_15_7,https://5puzkbbxv1.cognition.run/?sona_id=57769,"en-US,en;q=0.9",k3hzxcy0qjuebc4,19,"[""White""]",No,Male,NA,Yes,514694.7999999523,NA,14027,NA,"{""product_choice"":""B""}",choice,tc,binary,attraction,NA,televisions,null,null,null,null,null,null,2,60,50,null,50,60,null,Screen size,Average lifespan,NA,NA
NA,NA,NA,NA,NA,choice_trial_setup,html-keyboard-response,28,168788,0.0-4.0-0.12,320,1,2025-05-08T15:36:43Z,b60275e29fe2361ab97ac0ac217840d7,"Mozilla/5.0 (Macintosh; Intel Mac OS X 10_15_7) AppleWebKit/537.36 (KHTML, like Gecko) Chrome/135.0.0.0 Safari/537.36",Macintosh,Chrome,135.0.0.0,OS X,10_15_7,https://5puzkbbxv1.cognition.run/?sona_id=57769,"en-US,en;q=0.9",k3hzxcy0qjuebc4,19,"[""White""]",No,Male,NA,Yes,514694.7999999523,NA,null,<p></p>,null,choice,tc,binary,repulsion,1,microwave ovens,null,null,null,null,null,null,2,NA,NA,NA,NA,NA,NA,NA,NA,NA,NA
NA,NA,NA,NA,NA,choice_trial,survey-html-form,29,175678,0.0-4.0-1.12,320,1,2025-05-08T15:36:43Z,b60275e29fe2361ab97ac0ac217840d7,"Mozilla/5.0 (Macintosh; Intel Mac OS X 10_15_7) AppleWebKit/537.36 (KHTML, like Gecko) Chrome/135.0.0.0 Safari/537.36",Macintosh,Chrome,135.0.0.0,OS X,10_15_7,https://5puzkbbxv1.cognition.run/?sona_id=57769,"en-US,en;q=0.9",k3hzxcy0qjuebc4,19,"[""White""]",No,Male,NA,Yes,514694.7999999523,NA,6887,NA,"{""product_choice"":""B""}",choice,tc,binary,repulsion,1,microwave ovens,null,null,null,null,null,null,2,100,90,null,30,40,null,Warranty,Cooking power,NA,NA
NA,NA,NA,NA,NA,choice_trial_setup,html-keyboard-response,30,175981,0.0-4.0-0.13,320,1,2025-05-08T15:36:43Z,b60275e29fe2361ab97ac0ac217840d7,"Mozilla/5.0 (Macintosh; Intel Mac OS X 10_15_7) AppleWebKit/537.36 (KHTML, like Gecko) Chrome/135.0.0.0 Safari/537.36",Macintosh,Chrome,135.0.0.0,OS X,10_15_7,https://5puzkbbxv1.cognition.run/?sona_id=57769,"en-US,en;q=0.9",k3hzxcy0qjuebc4,19,"[""White""]",No,Male,NA,Yes,514694.7999999523,NA,null,<p></p>,null,choice,bww,trinary,catch,null,laptops,80,90,30,25,20,35,1,NA,NA,NA,NA,NA,NA,NA,NA,NA,NA
NA,NA,NA,NA,NA,choice_trial,survey-html-form,31,187524,0.0-4.0-1.13,320,1,2025-05-08T15:36:43Z,b60275e29fe2361ab97ac0ac217840d7,"Mozilla/5.0 (Macintosh; Intel Mac OS X 10_15_7) AppleWebKit/537.36 (KHTML, like Gecko) Chrome/135.0.0.0 Safari/537.36",Macintosh,Chrome,135.0.0.0,OS X,10_15_7,https://5puzkbbxv1.cognition.run/?sona_id=57769,"en-US,en;q=0.9",k3hzxcy0qjuebc4,19,"[""White""]",No,Male,NA,Yes,514694.7999999523,NA,11539,NA,"{""product_choice"":""A""}",choice,bww,trinary,catch,null,laptops,80,90,30,25,20,35,1,null,null,null,null,null,null,Processing speed,Memory (RAM),NA,NA
NA,NA,NA,NA,NA,choice_trial_setup,html-keyboard-response,32,187826,0.0-4.0-0.14,320,1,2025-05-08T15:36:43Z,b60275e29fe2361ab97ac0ac217840d7,"Mozilla/5.0 (Macintosh; Intel Mac OS X 10_15_7) AppleWebKit/537.36 (KHTML, like Gecko) Chrome/135.0.0.0 Safari/537.36",Macintosh,Chrome,135.0.0.0,OS X,10_15_7,https://5puzkbbxv1.cognition.run/?sona_id=57769,"en-US,en;q=0.9",k3hzxcy0qjuebc4,19,"[""White""]",No,Male,NA,Yes,514694.7999999523,NA,null,<p></p>,null,choice,bww,trinary,catch,null,televisions,60,95,15,35,50,25,1,NA,NA,NA,NA,NA,NA,NA,NA,NA,NA
NA,NA,NA,NA,NA,choice_trial,survey-html-form,33,196750,0.0-4.0-1.14,320,1,2025-05-08T15:36:43Z,b60275e29fe2361ab97ac0ac217840d7,"Mozilla/5.0 (Macintosh; Intel Mac OS X 10_15_7) AppleWebKit/537.36 (KHTML, like Gecko) Chrome/135.0.0.0 Safari/537.36",Macintosh,Chrome,135.0.0.0,OS X,10_15_7,https://5puzkbbxv1.cognition.run/?sona_id=57769,"en-US,en;q=0.9",k3hzxcy0qjuebc4,19,"[""White""]",No,Male,NA,Yes,514694.7999999523,NA,8920,NA,"{""product_choice"":""A""}",choice,bww,trinary,catch,null,televisions,60,95,15,35,50,25,1,null,null,null,null,null,null,Screen size,Average lifespan,NA,NA
NA,NA,NA,NA,NA,choice_trial_setup,html-keyboard-response,34,197053,0.0-4.0-0.15,320,1,2025-05-08T15:36:43Z,b60275e29fe2361ab97ac0ac217840d7,"Mozilla/5.0 (Macintosh; Intel Mac OS X 10_15_7) AppleWebKit/537.36 (KHTML, like Gecko) Chrome/135.0.0.0 Safari/537.36",Macintosh,Chrome,135.0.0.0,OS X,10_15_7,https://5puzkbbxv1.cognition.run/?sona_id=57769,"en-US,en;q=0.9",k3hzxcy0qjuebc4,19,"[""White""]",No,Male,NA,Yes,514694.7999999523,NA,null,<p></p>,null,choice,dtc,trinary,repulsion_A,2,laptops,null,null,null,null,null,null,2,NA,NA,NA,NA,NA,NA,NA,NA,NA,NA
NA,NA,NA,NA,NA,choice_trial,survey-html-form,35,206621,0.0-4.0-1.15,320,1,2025-05-08T15:36:43Z,b60275e29fe2361ab97ac0ac217840d7,"Mozilla/5.0 (Macintosh; Intel Mac OS X 10_15_7) AppleWebKit/537.36 (KHTML, like Gecko) Chrome/135.0.0.0 Safari/537.36",Macintosh,Chrome,135.0.0.0,OS X,10_15_7,https://5puzkbbxv1.cognition.run/?sona_id=57769,"en-US,en;q=0.9",k3hzxcy0qjuebc4,19,"[""White""]",No,Male,NA,Yes,514694.7999999523,NA,9564,NA,"{""product_choice"":""C""}",choice,dtc,trinary,repulsion_A,2,laptops,null,null,null,null,null,null,2,30,40,20,100,90,100,Processing speed,Memory (RAM),NA,NA
NA,NA,NA,NA,NA,choice_trial_setup,html-keyboard-response,36,206924,0.0-4.0-0.16,320,1,2025-05-08T15:36:43Z,b60275e29fe2361ab97ac0ac217840d7,"Mozilla/5.0 (Macintosh; Intel Mac OS X 10_15_7) AppleWebKit/537.36 (KHTML, like Gecko) Chrome/135.0.0.0 Safari/537.36",Macintosh,Chrome,135.0.0.0,OS X,10_15_7,https://5puzkbbxv1.cognition.run/?sona_id=57769,"en-US,en;q=0.9",k3hzxcy0qjuebc4,19,"[""White""]",No,Male,NA,Yes,514694.7999999523,NA,null,<p></p>,null,choice,ct,binary,repulsion,1,washing machines,null,null,null,null,null,null,2,NA,NA,NA,NA,NA,NA,NA,NA,NA,NA
NA,NA,NA,NA,NA,choice_trial,survey-html-form,37,215750,0.0-4.0-1.16,320,1,2025-05-08T15:36:43Z,b60275e29fe2361ab97ac0ac217840d7,"Mozilla/5.0 (Macintosh; Intel Mac OS X 10_15_7) AppleWebKit/537.36 (KHTML, like Gecko) Chrome/135.0.0.0 Safari/537.36",Macintosh,Chrome,135.0.0.0,OS X,10_15_7,https://5puzkbbxv1.cognition.run/?sona_id=57769,"en-US,en;q=0.9",k3hzxcy0qjuebc4,19,"[""White""]",No,Male,NA,Yes,514694.7999999523,NA,8824,NA,"{""product_choice"":""B""}",choice,ct,binary,repulsion,1,washing machines,null,null,null,null,null,null,2,100,90,null,30,40,null,Average lifespan,Energy savings,NA,NA
NA,NA,NA,NA,NA,choice_trial_setup,html-keyboard-response,38,216053,0.0-4.0-0.17,320,1,2025-05-08T15:36:43Z,b60275e29fe2361ab97ac0ac217840d7,"Mozilla/5.0 (Macintosh; Intel Mac OS X 10_15_7) AppleWebKit/537.36 (KHTML, like Gecko) Chrome/135.0.0.0 Safari/537.36",Macintosh,Chrome,135.0.0.0,OS X,10_15_7,https://5puzkbbxv1.cognition.run/?sona_id=57769,"en-US,en;q=0.9",k3hzxcy0qjuebc4,19,"[""White""]",No,Male,NA,Yes,514694.7999999523,NA,null,<p></p>,null,choice,cdt,trinary,repulsion_B,1,laptops,null,null,null,null,null,null,2,NA,NA,NA,NA,NA,NA,NA,NA,NA,NA
NA,NA,NA,NA,NA,choice_trial,survey-html-form,39,238371,0.0-4.0-1.17,320,1,2025-05-08T15:36:43Z,b60275e29fe2361ab97ac0ac217840d7,"Mozilla/5.0 (Macintosh; Intel Mac OS X 10_15_7) AppleWebKit/537.36 (KHTML, like Gecko) Chrome/135.0.0.0 Safari/537.36",Macintosh,Chrome,135.0.0.0,OS X,10_15_7,https://5puzkbbxv1.cognition.run/?sona_id=57769,"en-US,en;q=0.9",k3hzxcy0qjuebc4,19,"[""White""]",No,Male,NA,Yes,514694.7999999523,NA,22313,NA,"{""product_choice"":""A""}",choice,cdt,trinary,repulsion_B,1,laptops,null,null,null,null,null,null,2,90,100,80,40,30,40,Processing speed,Memory (RAM),NA,NA
NA,NA,NA,NA,NA,choice_trial_setup,html-keyboard-response,40,238674,0.0-4.0-0.18,320,1,2025-05-08T15:36:43Z,b60275e29fe2361ab97ac0ac217840d7,"Mozilla/5.0 (Macintosh; Intel Mac OS X 10_15_7) AppleWebKit/537.36 (KHTML, like Gecko) Chrome/135.0.0.0 Safari/537.36",Macintosh,Chrome,135.0.0.0,OS X,10_15_7,https://5puzkbbxv1.cognition.run/?sona_id=57769,"en-US,en;q=0.9",k3hzxcy0qjuebc4,19,"[""White""]",No,Male,NA,Yes,514694.7999999523,NA,null,<p></p>,null,choice,ctd,trinary,repulsion_A,1,laptops,null,null,null,null,null,null,2,NA,NA,NA,NA,NA,NA,NA,NA,NA,NA
NA,NA,NA,NA,NA,choice_trial,survey-html-form,41,246985,0.0-4.0-1.18,320,1,2025-05-08T15:36:43Z,b60275e29fe2361ab97ac0ac217840d7,"Mozilla/5.0 (Macintosh; Intel Mac OS X 10_15_7) AppleWebKit/537.36 (KHTML, like Gecko) Chrome/135.0.0.0 Safari/537.36",Macintosh,Chrome,135.0.0.0,OS X,10_15_7,https://5puzkbbxv1.cognition.run/?sona_id=57769,"en-US,en;q=0.9",k3hzxcy0qjuebc4,19,"[""White""]",No,Male,NA,Yes,514694.7999999523,NA,8308,NA,"{""product_choice"":""B""}",choice,ctd,trinary,repulsion_A,1,laptops,null,null,null,null,null,null,2,100,90,100,30,40,20,Processing speed,Memory (RAM),NA,NA
NA,NA,NA,NA,NA,choice_trial_setup,html-keyboard-response,42,247288,0.0-4.0-0.19,320,1,2025-05-08T15:36:43Z,b60275e29fe2361ab97ac0ac217840d7,"Mozilla/5.0 (Macintosh; Intel Mac OS X 10_15_7) AppleWebKit/537.36 (KHTML, like Gecko) Chrome/135.0.0.0 Safari/537.36",Macintosh,Chrome,135.0.0.0,OS X,10_15_7,https://5puzkbbxv1.cognition.run/?sona_id=57769,"en-US,en;q=0.9",k3hzxcy0qjuebc4,19,"[""White""]",No,Male,NA,Yes,514694.7999999523,NA,null,<p></p>,null,choice,ctd,trinary,repulsion_B,2,washing machines,null,null,null,null,null,null,2,NA,NA,NA,NA,NA,NA,NA,NA,NA,NA
NA,NA,NA,NA,NA,choice_trial,survey-html-form,43,255668,0.0-4.0-1.19,320,1,2025-05-08T15:36:43Z,b60275e29fe2361ab97ac0ac217840d7,"Mozilla/5.0 (Macintosh; Intel Mac OS X 10_15_7) AppleWebKit/537.36 (KHTML, like Gecko) Chrome/135.0.0.0 Safari/537.36",Macintosh,Chrome,135.0.0.0,OS X,10_15_7,https://5puzkbbxv1.cognition.run/?sona_id=57769,"en-US,en;q=0.9",k3hzxcy0qjuebc4,19,"[""White""]",No,Male,NA,Yes,514694.7999999523,NA,8376,NA,"{""product_choice"":""B""}",choice,ctd,trinary,repulsion_B,2,washing machines,null,null,null,null,null,null,2,40,30,40,90,100,80,Average lifespan,Energy savings,NA,NA
NA,NA,NA,NA,NA,choice_trial_setup,html-keyboard-response,44,255971,0.0-4.0-0.20,320,1,2025-05-08T15:36:43Z,b60275e29fe2361ab97ac0ac217840d7,"Mozilla/5.0 (Macintosh; Intel Mac OS X 10_15_7) AppleWebKit/537.36 (KHTML, like Gecko) Chrome/135.0.0.0 Safari/537.36",Macintosh,Chrome,135.0.0.0,OS X,10_15_7,https://5puzkbbxv1.cognition.run/?sona_id=57769,"en-US,en;q=0.9",k3hzxcy0qjuebc4,19,"[""White""]",No,Male,NA,Yes,514694.7999999523,NA,null,<p></p>,null,choice,dtc,trinary,attraction,2,televisions,null,null,null,null,null,null,1,NA,NA,NA,NA,NA,NA,NA,NA,NA,NA
NA,NA,NA,NA,NA,choice_trial,survey-html-form,45,267076,0.0-4.0-1.20,320,1,2025-05-08T15:36:43Z,b60275e29fe2361ab97ac0ac217840d7,"Mozilla/5.0 (Macintosh; Intel Mac OS X 10_15_7) AppleWebKit/537.36 (KHTML, like Gecko) Chrome/135.0.0.0 Safari/537.36",Macintosh,Chrome,135.0.0.0,OS X,10_15_7,https://5puzkbbxv1.cognition.run/?sona_id=57769,"en-US,en;q=0.9",k3hzxcy0qjuebc4,19,"[""White""]",No,Male,NA,Yes,514694.7999999523,NA,11102,NA,"{""product_choice"":""B""}",choice,dtc,trinary,attraction,2,televisions,null,null,null,null,null,null,1,50,60,40,60,50,60,Screen size,Average lifespan,NA,NA
NA,NA,NA,NA,NA,choice_trial_setup,html-keyboard-response,46,267379,0.0-4.0-0.21,320,1,2025-05-08T15:36:43Z,b60275e29fe2361ab97ac0ac217840d7,"Mozilla/5.0 (Macintosh; Intel Mac OS X 10_15_7) AppleWebKit/537.36 (KHTML, like Gecko) Chrome/135.0.0.0 Safari/537.36",Macintosh,Chrome,135.0.0.0,OS X,10_15_7,https://5puzkbbxv1.cognition.run/?sona_id=57769,"en-US,en;q=0.9",k3hzxcy0qjuebc4,19,"[""White""]",No,Male,NA,Yes,514694.7999999523,NA,null,<p></p>,null,choice,ct,binary,attraction,NA,laptops,null,null,null,null,null,null,1,NA,NA,NA,NA,NA,NA,NA,NA,NA,NA
NA,NA,NA,NA,NA,choice_trial,survey-html-form,47,275391,0.0-4.0-1.21,320,1,2025-05-08T15:36:43Z,b60275e29fe2361ab97ac0ac217840d7,"Mozilla/5.0 (Macintosh; Intel Mac OS X 10_15_7) AppleWebKit/537.36 (KHTML, like Gecko) Chrome/135.0.0.0 Safari/537.36",Macintosh,Chrome,135.0.0.0,OS X,10_15_7,https://5puzkbbxv1.cognition.run/?sona_id=57769,"en-US,en;q=0.9",k3hzxcy0qjuebc4,19,"[""White""]",No,Male,NA,Yes,514694.7999999523,NA,8007,NA,"{""product_choice"":""B""}",choice,ct,binary,attraction,NA,laptops,null,null,null,null,null,null,1,60,50,null,50,60,null,Processing speed,Memory (RAM),NA,NA
NA,NA,NA,NA,NA,choice_trial_setup,html-keyboard-response,48,275695,0.0-4.0-0.22,320,1,2025-05-08T15:36:43Z,b60275e29fe2361ab97ac0ac217840d7,"Mozilla/5.0 (Macintosh; Intel Mac OS X 10_15_7) AppleWebKit/537.36 (KHTML, like Gecko) Chrome/135.0.0.0 Safari/537.36",Macintosh,Chrome,135.0.0.0,OS X,10_15_7,https://5puzkbbxv1.cognition.run/?sona_id=57769,"en-US,en;q=0.9",k3hzxcy0qjuebc4,19,"[""White""]",No,Male,NA,Yes,514694.7999999523,NA,null,<p></p>,null,choice,cdt,trinary,repulsion_B,1,microwave ovens,null,null,null,null,null,null,2,NA,NA,NA,NA,NA,NA,NA,NA,NA,NA
NA,NA,NA,NA,NA,choice_trial,survey-html-form,49,280661,0.0-4.0-1.22,320,1,2025-05-08T15:36:43Z,b60275e29fe2361ab97ac0ac217840d7,"Mozilla/5.0 (Macintosh; Intel Mac OS X 10_15_7) AppleWebKit/537.36 (KHTML, like Gecko) Chrome/135.0.0.0 Safari/537.36",Macintosh,Chrome,135.0.0.0,OS X,10_15_7,https://5puzkbbxv1.cognition.run/?sona_id=57769,"en-US,en;q=0.9",k3hzxcy0qjuebc4,19,"[""White""]",No,Male,NA,Yes,514694.7999999523,NA,4961,NA,"{""product_choice"":""C""}",choice,cdt,trinary,repulsion_B,1,microwave ovens,null,null,null,null,null,null,2,90,100,80,40,30,40,Warranty,Cooking power,NA,NA
NA,NA,NA,NA,NA,choice_trial_setup,html-keyboard-response,50,280964,0.0-4.0-0.23,320,1,2025-05-08T15:36:43Z,b60275e29fe2361ab97ac0ac217840d7,"Mozilla/5.0 (Macintosh; Intel Mac OS X 10_15_7) AppleWebKit/537.36 (KHTML, like Gecko) Chrome/135.0.0.0 Safari/537.36",Macintosh,Chrome,135.0.0.0,OS X,10_15_7,https://5puzkbbxv1.cognition.run/?sona_id=57769,"en-US,en;q=0.9",k3hzxcy0qjuebc4,19,"[""White""]",No,Male,NA,Yes,514694.7999999523,NA,null,<p></p>,null,choice,cdt,trinary,attraction,1,laptops,null,null,null,null,null,null,2,NA,NA,NA,NA,NA,NA,NA,NA,NA,NA
NA,NA,NA,NA,NA,choice_trial,survey-html-form,51,287905,0.0-4.0-1.23,320,1,2025-05-08T15:36:43Z,b60275e29fe2361ab97ac0ac217840d7,"Mozilla/5.0 (Macintosh; Intel Mac OS X 10_15_7) AppleWebKit/537.36 (KHTML, like Gecko) Chrome/135.0.0.0 Safari/537.36",Macintosh,Chrome,135.0.0.0,OS X,10_15_7,https://5puzkbbxv1.cognition.run/?sona_id=57769,"en-US,en;q=0.9",k3hzxcy0qjuebc4,19,"[""White""]",No,Male,NA,Yes,514694.7999999523,NA,6937,NA,"{""product_choice"":""C""}",choice,cdt,trinary,attraction,1,laptops,null,null,null,null,null,null,2,60,50,60,50,60,40,Processing speed,Memory (RAM),NA,NA
NA,NA,NA,NA,NA,choice_trial_setup,html-keyboard-response,52,288208,0.0-4.0-0.24,320,1,2025-05-08T15:36:43Z,b60275e29fe2361ab97ac0ac217840d7,"Mozilla/5.0 (Macintosh; Intel Mac OS X 10_15_7) AppleWebKit/537.36 (KHTML, like Gecko) Chrome/135.0.0.0 Safari/537.36",Macintosh,Chrome,135.0.0.0,OS X,10_15_7,https://5puzkbbxv1.cognition.run/?sona_id=57769,"en-US,en;q=0.9",k3hzxcy0qjuebc4,19,"[""White""]",No,Male,NA,Yes,514694.7999999523,NA,null,<p></p>,null,choice,bww,trinary,catch,null,washing machines,75,65,35,5,45,45,1,NA,NA,NA,NA,NA,NA,NA,NA,NA,NA
NA,NA,NA,NA,NA,choice_trial,survey-html-form,53,295247,0.0-4.0-1.24,320,1,2025-05-08T15:36:43Z,b60275e29fe2361ab97ac0ac217840d7,"Mozilla/5.0 (Macintosh; Intel Mac OS X 10_15_7) AppleWebKit/537.36 (KHTML, like Gecko) Chrome/135.0.0.0 Safari/537.36",Macintosh,Chrome,135.0.0.0,OS X,10_15_7,https://5puzkbbxv1.cognition.run/?sona_id=57769,"en-US,en;q=0.9",k3hzxcy0qjuebc4,19,"[""White""]",No,Male,NA,Yes,514694.7999999523,NA,7034,NA,"{""product_choice"":""A""}",choice,bww,trinary,catch,null,washing machines,75,65,35,5,45,45,1,null,null,null,null,null,null,Average lifespan,Energy savings,NA,NA
NA,NA,NA,NA,NA,choice_trial_setup,html-keyboard-response,54,295549,0.0-4.0-0.25,320,1,2025-05-08T15:36:43Z,b60275e29fe2361ab97ac0ac217840d7,"Mozilla/5.0 (Macintosh; Intel Mac OS X 10_15_7) AppleWebKit/537.36 (KHTML, like Gecko) Chrome/135.0.0.0 Safari/537.36",Macintosh,Chrome,135.0.0.0,OS X,10_15_7,https://5puzkbbxv1.cognition.run/?sona_id=57769,"en-US,en;q=0.9",k3hzxcy0qjuebc4,19,"[""White""]",No,Male,NA,Yes,514694.7999999523,NA,null,<p></p>,null,choice,ct,binary,attraction,NA,washing machines,null,null,null,null,null,null,2,NA,NA,NA,NA,NA,NA,NA,NA,NA,NA
NA,NA,NA,NA,NA,choice_trial,survey-html-form,55,302361,0.0-4.0-1.25,320,1,2025-05-08T15:36:43Z,b60275e29fe2361ab97ac0ac217840d7,"Mozilla/5.0 (Macintosh; Intel Mac OS X 10_15_7) AppleWebKit/537.36 (KHTML, like Gecko) Chrome/135.0.0.0 Safari/537.36",Macintosh,Chrome,135.0.0.0,OS X,10_15_7,https://5puzkbbxv1.cognition.run/?sona_id=57769,"en-US,en;q=0.9",k3hzxcy0qjuebc4,19,"[""White""]",No,Male,NA,Yes,514694.7999999523,NA,6808,NA,"{""product_choice"":""B""}",choice,ct,binary,attraction,NA,washing machines,null,null,null,null,null,null,2,60,50,null,50,60,null,Average lifespan,Energy savings,NA,NA
NA,NA,NA,NA,NA,choice_trial_setup,html-keyboard-response,56,302665,0.0-4.0-0.26,320,1,2025-05-08T15:36:43Z,b60275e29fe2361ab97ac0ac217840d7,"Mozilla/5.0 (Macintosh; Intel Mac OS X 10_15_7) AppleWebKit/537.36 (KHTML, like Gecko) Chrome/135.0.0.0 Safari/537.36",Macintosh,Chrome,135.0.0.0,OS X,10_15_7,https://5puzkbbxv1.cognition.run/?sona_id=57769,"en-US,en;q=0.9",k3hzxcy0qjuebc4,19,"[""White""]",No,Male,NA,Yes,514694.7999999523,NA,null,<p></p>,null,choice,ct,binary,repulsion,2,microwave ovens,null,null,null,null,null,null,2,NA,NA,NA,NA,NA,NA,NA,NA,NA,NA
NA,NA,NA,NA,NA,choice_trial,survey-html-form,57,305984,0.0-4.0-1.26,320,1,2025-05-08T15:36:43Z,b60275e29fe2361ab97ac0ac217840d7,"Mozilla/5.0 (Macintosh; Intel Mac OS X 10_15_7) AppleWebKit/537.36 (KHTML, like Gecko) Chrome/135.0.0.0 Safari/537.36",Macintosh,Chrome,135.0.0.0,OS X,10_15_7,https://5puzkbbxv1.cognition.run/?sona_id=57769,"en-US,en;q=0.9",k3hzxcy0qjuebc4,19,"[""White""]",No,Male,NA,Yes,514694.7999999523,NA,3316,NA,"{""product_choice"":""B""}",choice,ct,binary,repulsion,2,microwave ovens,null,null,null,null,null,null,2,30,40,null,100,90,null,Warranty,Cooking power,NA,NA
NA,NA,NA,NA,NA,choice_trial_setup,html-keyboard-response,58,306287,0.0-4.0-0.27,320,1,2025-05-08T15:36:43Z,b60275e29fe2361ab97ac0ac217840d7,"Mozilla/5.0 (Macintosh; Intel Mac OS X 10_15_7) AppleWebKit/537.36 (KHTML, like Gecko) Chrome/135.0.0.0 Safari/537.36",Macintosh,Chrome,135.0.0.0,OS X,10_15_7,https://5puzkbbxv1.cognition.run/?sona_id=57769,"en-US,en;q=0.9",k3hzxcy0qjuebc4,19,"[""White""]",No,Male,NA,Yes,514694.7999999523,NA,null,<p></p>,null,choice,tc,binary,repulsion,1,laptops,null,null,null,null,null,null,1,NA,NA,NA,NA,NA,NA,NA,NA,NA,NA
NA,NA,NA,NA,NA,choice_trial,survey-html-form,59,308723,0.0-4.0-1.27,320,1,2025-05-08T15:36:43Z,b60275e29fe2361ab97ac0ac217840d7,"Mozilla/5.0 (Macintosh; Intel Mac OS X 10_15_7) AppleWebKit/537.36 (KHTML, like Gecko) Chrome/135.0.0.0 Safari/537.36",Macintosh,Chrome,135.0.0.0,OS X,10_15_7,https://5puzkbbxv1.cognition.run/?sona_id=57769,"en-US,en;q=0.9",k3hzxcy0qjuebc4,19,"[""White""]",No,Male,NA,Yes,514694.7999999523,NA,2431,NA,"{""product_choice"":""A""}",choice,tc,binary,repulsion,1,laptops,null,null,null,null,null,null,1,100,90,null,30,40,null,Processing speed,Memory (RAM),NA,NA
NA,NA,NA,NA,NA,choice_trial_setup,html-keyboard-response,60,309027,0.0-4.0-0.28,320,1,2025-05-08T15:36:43Z,b60275e29fe2361ab97ac0ac217840d7,"Mozilla/5.0 (Macintosh; Intel Mac OS X 10_15_7) AppleWebKit/537.36 (KHTML, like Gecko) Chrome/135.0.0.0 Safari/537.36",Macintosh,Chrome,135.0.0.0,OS X,10_15_7,https://5puzkbbxv1.cognition.run/?sona_id=57769,"en-US,en;q=0.9",k3hzxcy0qjuebc4,19,"[""White""]",No,Male,NA,Yes,514694.7999999523,NA,null,<p></p>,null,choice,wb,binary,catch,null,televisions,85,75,15,30,null,null,2,NA,NA,NA,NA,NA,NA,NA,NA,NA,NA
NA,NA,NA,NA,NA,choice_trial,survey-html-form,61,312631,0.0-4.0-1.28,320,1,2025-05-08T15:36:43Z,b60275e29fe2361ab97ac0ac217840d7,"Mozilla/5.0 (Macintosh; Intel Mac OS X 10_15_7) AppleWebKit/537.36 (KHTML, like Gecko) Chrome/135.0.0.0 Safari/537.36",Macintosh,Chrome,135.0.0.0,OS X,10_15_7,https://5puzkbbxv1.cognition.run/?sona_id=57769,"en-US,en;q=0.9",k3hzxcy0qjuebc4,19,"[""White""]",No,Male,NA,Yes,514694.7999999523,NA,3599,NA,"{""product_choice"":""B""}",choice,wb,binary,catch,null,televisions,85,75,15,30,null,null,2,null,null,null,null,null,null,Screen size,Average lifespan,NA,NA
NA,NA,NA,NA,NA,choice_trial_setup,html-keyboard-response,62,312934,0.0-4.0-0.29,320,1,2025-05-08T15:36:43Z,b60275e29fe2361ab97ac0ac217840d7,"Mozilla/5.0 (Macintosh; Intel Mac OS X 10_15_7) AppleWebKit/537.36 (KHTML, like Gecko) Chrome/135.0.0.0 Safari/537.36",Macintosh,Chrome,135.0.0.0,OS X,10_15_7,https://5puzkbbxv1.cognition.run/?sona_id=57769,"en-US,en;q=0.9",k3hzxcy0qjuebc4,19,"[""White""]",No,Male,NA,Yes,514694.7999999523,NA,null,<p></p>,null,choice,cdt,trinary,repulsion_B,2,laptops,null,null,null,null,null,null,2,NA,NA,NA,NA,NA,NA,NA,NA,NA,NA
NA,NA,NA,NA,NA,choice_trial,survey-html-form,63,316878,0.0-4.0-1.29,320,1,2025-05-08T15:36:43Z,b60275e29fe2361ab97ac0ac217840d7,"Mozilla/5.0 (Macintosh; Intel Mac OS X 10_15_7) AppleWebKit/537.36 (KHTML, like Gecko) Chrome/135.0.0.0 Safari/537.36",Macintosh,Chrome,135.0.0.0,OS X,10_15_7,https://5puzkbbxv1.cognition.run/?sona_id=57769,"en-US,en;q=0.9",k3hzxcy0qjuebc4,19,"[""White""]",No,Male,NA,Yes,514694.7999999523,NA,3940,NA,"{""product_choice"":""C""}",choice,cdt,trinary,repulsion_B,2,laptops,null,null,null,null,null,null,2,40,30,40,90,100,80,Processing speed,Memory (RAM),NA,NA
NA,NA,NA,NA,NA,choice_trial_setup,html-keyboard-response,64,317182,0.0-4.0-0.30,320,1,2025-05-08T15:36:43Z,b60275e29fe2361ab97ac0ac217840d7,"Mozilla/5.0 (Macintosh; Intel Mac OS X 10_15_7) AppleWebKit/537.36 (KHTML, like Gecko) Chrome/135.0.0.0 Safari/537.36",Macintosh,Chrome,135.0.0.0,OS X,10_15_7,https://5puzkbbxv1.cognition.run/?sona_id=57769,"en-US,en;q=0.9",k3hzxcy0qjuebc4,19,"[""White""]",No,Male,NA,Yes,514694.7999999523,NA,null,<p></p>,null,choice,ct,binary,attraction,NA,microwave ovens,null,null,null,null,null,null,1,NA,NA,NA,NA,NA,NA,NA,NA,NA,NA
NA,NA,NA,NA,NA,choice_trial,survey-html-form,65,320553,0.0-4.0-1.30,320,1,2025-05-08T15:36:43Z,b60275e29fe2361ab97ac0ac217840d7,"Mozilla/5.0 (Macintosh; Intel Mac OS X 10_15_7) AppleWebKit/537.36 (KHTML, like Gecko) Chrome/135.0.0.0 Safari/537.36",Macintosh,Chrome,135.0.0.0,OS X,10_15_7,https://5puzkbbxv1.cognition.run/?sona_id=57769,"en-US,en;q=0.9",k3hzxcy0qjuebc4,19,"[""White""]",No,Male,NA,Yes,514694.7999999523,NA,3364,NA,"{""product_choice"":""A""}",choice,ct,binary,attraction,NA,microwave ovens,null,null,null,null,null,null,1,60,50,null,50,60,null,Warranty,Cooking power,NA,NA
NA,NA,NA,NA,NA,choice_trial_setup,html-keyboard-response,66,320858,0.0-4.0-0.31,320,1,2025-05-08T15:36:43Z,b60275e29fe2361ab97ac0ac217840d7,"Mozilla/5.0 (Macintosh; Intel Mac OS X 10_15_7) AppleWebKit/537.36 (KHTML, like Gecko) Chrome/135.0.0.0 Safari/537.36",Macintosh,Chrome,135.0.0.0,OS X,10_15_7,https://5puzkbbxv1.cognition.run/?sona_id=57769,"en-US,en;q=0.9",k3hzxcy0qjuebc4,19,"[""White""]",No,Male,NA,Yes,514694.7999999523,NA,null,<p></p>,null,choice,dtc,trinary,repulsion_A,2,microwave ovens,null,null,null,null,null,null,2,NA,NA,NA,NA,NA,NA,NA,NA,NA,NA
NA,NA,NA,NA,NA,choice_trial,survey-html-form,67,323961,0.0-4.0-1.31,320,1,2025-05-08T15:36:43Z,b60275e29fe2361ab97ac0ac217840d7,"Mozilla/5.0 (Macintosh; Intel Mac OS X 10_15_7) AppleWebKit/537.36 (KHTML, like Gecko) Chrome/135.0.0.0 Safari/537.36",Macintosh,Chrome,135.0.0.0,OS X,10_15_7,https://5puzkbbxv1.cognition.run/?sona_id=57769,"en-US,en;q=0.9",k3hzxcy0qjuebc4,19,"[""White""]",No,Male,NA,Yes,514694.7999999523,NA,3098,NA,"{""product_choice"":""B""}",choice,dtc,trinary,repulsion_A,2,microwave ovens,null,null,null,null,null,null,2,30,40,20,100,90,100,Warranty,Cooking power,NA,NA
NA,NA,NA,NA,NA,choice_trial_setup,html-keyboard-response,68,324266,0.0-4.0-0.32,320,1,2025-05-08T15:36:43Z,b60275e29fe2361ab97ac0ac217840d7,"Mozilla/5.0 (Macintosh; Intel Mac OS X 10_15_7) AppleWebKit/537.36 (KHTML, like Gecko) Chrome/135.0.0.0 Safari/537.36",Macintosh,Chrome,135.0.0.0,OS X,10_15_7,https://5puzkbbxv1.cognition.run/?sona_id=57769,"en-US,en;q=0.9",k3hzxcy0qjuebc4,19,"[""White""]",No,Male,NA,Yes,514694.7999999523,NA,null,<p></p>,null,choice,cdt,trinary,attraction,2,washing machines,null,null,null,null,null,null,1,NA,NA,NA,NA,NA,NA,NA,NA,NA,NA
NA,NA,NA,NA,NA,choice_trial,survey-html-form,69,329061,0.0-4.0-1.32,320,1,2025-05-08T15:36:43Z,b60275e29fe2361ab97ac0ac217840d7,"Mozilla/5.0 (Macintosh; Intel Mac OS X 10_15_7) AppleWebKit/537.36 (KHTML, like Gecko) Chrome/135.0.0.0 Safari/537.36",Macintosh,Chrome,135.0.0.0,OS X,10_15_7,https://5puzkbbxv1.cognition.run/?sona_id=57769,"en-US,en;q=0.9",k3hzxcy0qjuebc4,19,"[""White""]",No,Male,NA,Yes,514694.7999999523,NA,4791,NA,"{""product_choice"":""A""}",choice,cdt,trinary,attraction,2,washing machines,null,null,null,null,null,null,1,50,60,40,60,50,60,Average lifespan,Energy savings,NA,NA
NA,NA,NA,NA,NA,choice_trial_setup,html-keyboard-response,70,329365,0.0-4.0-0.33,320,1,2025-05-08T15:36:43Z,b60275e29fe2361ab97ac0ac217840d7,"Mozilla/5.0 (Macintosh; Intel Mac OS X 10_15_7) AppleWebKit/537.36 (KHTML, like Gecko) Chrome/135.0.0.0 Safari/537.36",Macintosh,Chrome,135.0.0.0,OS X,10_15_7,https://5puzkbbxv1.cognition.run/?sona_id=57769,"en-US,en;q=0.9",k3hzxcy0qjuebc4,19,"[""White""]",No,Male,NA,Yes,514694.7999999523,NA,null,<p></p>,null,choice,cdt,trinary,repulsion_A,1,microwave ovens,null,null,null,null,null,null,1,NA,NA,NA,NA,NA,NA,NA,NA,NA,NA
NA,NA,NA,NA,NA,choice_trial,survey-html-form,71,332888,0.0-4.0-1.33,320,1,2025-05-08T15:36:43Z,b60275e29fe2361ab97ac0ac217840d7,"Mozilla/5.0 (Macintosh; Intel Mac OS X 10_15_7) AppleWebKit/537.36 (KHTML, like Gecko) Chrome/135.0.0.0 Safari/537.36",Macintosh,Chrome,135.0.0.0,OS X,10_15_7,https://5puzkbbxv1.cognition.run/?sona_id=57769,"en-US,en;q=0.9",k3hzxcy0qjuebc4,19,"[""White""]",No,Male,NA,Yes,514694.7999999523,NA,3517,NA,"{""product_choice"":""A""}",choice,cdt,trinary,repulsion_A,1,microwave ovens,null,null,null,null,null,null,1,100,90,100,30,40,20,Warranty,Cooking power,NA,NA
NA,NA,NA,NA,NA,choice_trial_setup,html-keyboard-response,72,333190,0.0-4.0-0.34,320,1,2025-05-08T15:36:43Z,b60275e29fe2361ab97ac0ac217840d7,"Mozilla/5.0 (Macintosh; Intel Mac OS X 10_15_7) AppleWebKit/537.36 (KHTML, like Gecko) Chrome/135.0.0.0 Safari/537.36",Macintosh,Chrome,135.0.0.0,OS X,10_15_7,https://5puzkbbxv1.cognition.run/?sona_id=57769,"en-US,en;q=0.9",k3hzxcy0qjuebc4,19,"[""White""]",No,Male,NA,Yes,514694.7999999523,NA,null,<p></p>,null,choice,dtc,trinary,repulsion_B,1,televisions,null,null,null,null,null,null,2,NA,NA,NA,NA,NA,NA,NA,NA,NA,NA
NA,NA,NA,NA,NA,choice_trial,survey-html-form,73,344939,0.0-4.0-1.34,320,1,2025-05-08T15:36:43Z,b60275e29fe2361ab97ac0ac217840d7,"Mozilla/5.0 (Macintosh; Intel Mac OS X 10_15_7) AppleWebKit/537.36 (KHTML, like Gecko) Chrome/135.0.0.0 Safari/537.36",Macintosh,Chrome,135.0.0.0,OS X,10_15_7,https://5puzkbbxv1.cognition.run/?sona_id=57769,"en-US,en;q=0.9",k3hzxcy0qjuebc4,19,"[""White""]",No,Male,NA,Yes,514694.7999999523,NA,11744,NA,"{""product_choice"":""B""}",choice,dtc,trinary,repulsion_B,1,televisions,null,null,null,null,null,null,2,90,100,80,40,30,40,Screen size,Average lifespan,NA,NA
NA,NA,NA,NA,NA,choice_trial_setup,html-keyboard-response,74,345243,0.0-4.0-0.35,320,1,2025-05-08T15:36:43Z,b60275e29fe2361ab97ac0ac217840d7,"Mozilla/5.0 (Macintosh; Intel Mac OS X 10_15_7) AppleWebKit/537.36 (KHTML, like Gecko) Chrome/135.0.0.0 Safari/537.36",Macintosh,Chrome,135.0.0.0,OS X,10_15_7,https://5puzkbbxv1.cognition.run/?sona_id=57769,"en-US,en;q=0.9",k3hzxcy0qjuebc4,19,"[""White""]",No,Male,NA,Yes,514694.7999999523,NA,null,<p></p>,null,choice,tcd,trinary,repulsion_A,1,washing machines,null,null,null,null,null,null,1,NA,NA,NA,NA,NA,NA,NA,NA,NA,NA
NA,NA,NA,NA,NA,choice_trial,survey-html-form,75,351964,0.0-4.0-1.35,320,1,2025-05-08T15:36:43Z,b60275e29fe2361ab97ac0ac217840d7,"Mozilla/5.0 (Macintosh; Intel Mac OS X 10_15_7) AppleWebKit/537.36 (KHTML, like Gecko) Chrome/135.0.0.0 Safari/537.36",Macintosh,Chrome,135.0.0.0,OS X,10_15_7,https://5puzkbbxv1.cognition.run/?sona_id=57769,"en-US,en;q=0.9",k3hzxcy0qjuebc4,19,"[""White""]",No,Male,NA,Yes,514694.7999999523,NA,6715,NA,"{""product_choice"":""A""}",choice,tcd,trinary,repulsion_A,1,washing machines,null,null,null,null,null,null,1,100,90,100,30,40,20,Average lifespan,Energy savings,NA,NA
NA,NA,NA,NA,NA,choice_trial_setup,html-keyboard-response,76,352268,0.0-4.0-0.36,320,1,2025-05-08T15:36:43Z,b60275e29fe2361ab97ac0ac217840d7,"Mozilla/5.0 (Macintosh; Intel Mac OS X 10_15_7) AppleWebKit/537.36 (KHTML, like Gecko) Chrome/135.0.0.0 Safari/537.36",Macintosh,Chrome,135.0.0.0,OS X,10_15_7,https://5puzkbbxv1.cognition.run/?sona_id=57769,"en-US,en;q=0.9",k3hzxcy0qjuebc4,19,"[""White""]",No,Male,NA,Yes,514694.7999999523,NA,null,<p></p>,null,choice,dtc,trinary,repulsion_A,2,washing machines,null,null,null,null,null,null,1,NA,NA,NA,NA,NA,NA,NA,NA,NA,NA
NA,NA,NA,NA,NA,choice_trial,survey-html-form,77,360864,0.0-4.0-1.36,320,1,2025-05-08T15:36:43Z,b60275e29fe2361ab97ac0ac217840d7,"Mozilla/5.0 (Macintosh; Intel Mac OS X 10_15_7) AppleWebKit/537.36 (KHTML, like Gecko) Chrome/135.0.0.0 Safari/537.36",Macintosh,Chrome,135.0.0.0,OS X,10_15_7,https://5puzkbbxv1.cognition.run/?sona_id=57769,"en-US,en;q=0.9",k3hzxcy0qjuebc4,19,"[""White""]",No,Male,NA,Yes,514694.7999999523,NA,8590,NA,"{""product_choice"":""C""}",choice,dtc,trinary,repulsion_A,2,washing machines,null,null,null,null,null,null,1,30,40,20,100,90,100,Average lifespan,Energy savings,NA,NA
NA,NA,NA,NA,NA,choice_trial_setup,html-keyboard-response,78,361168,0.0-4.0-0.37,320,1,2025-05-08T15:36:43Z,b60275e29fe2361ab97ac0ac217840d7,"Mozilla/5.0 (Macintosh; Intel Mac OS X 10_15_7) AppleWebKit/537.36 (KHTML, like Gecko) Chrome/135.0.0.0 Safari/537.36",Macintosh,Chrome,135.0.0.0,OS X,10_15_7,https://5puzkbbxv1.cognition.run/?sona_id=57769,"en-US,en;q=0.9",k3hzxcy0qjuebc4,19,"[""White""]",No,Male,NA,Yes,514694.7999999523,NA,null,<p></p>,null,choice,dct,trinary,attraction,2,microwave ovens,null,null,null,null,null,null,2,NA,NA,NA,NA,NA,NA,NA,NA,NA,NA
NA,NA,NA,NA,NA,choice_trial,survey-html-form,79,370383,0.0-4.0-1.37,320,1,2025-05-08T15:36:43Z,b60275e29fe2361ab97ac0ac217840d7,"Mozilla/5.0 (Macintosh; Intel Mac OS X 10_15_7) AppleWebKit/537.36 (KHTML, like Gecko) Chrome/135.0.0.0 Safari/537.36",Macintosh,Chrome,135.0.0.0,OS X,10_15_7,https://5puzkbbxv1.cognition.run/?sona_id=57769,"en-US,en;q=0.9",k3hzxcy0qjuebc4,19,"[""White""]",No,Male,NA,Yes,514694.7999999523,NA,9209,NA,"{""product_choice"":""C""}",choice,dct,trinary,attraction,2,microwave ovens,null,null,null,null,null,null,2,50,60,40,60,50,60,Warranty,Cooking power,NA,NA
NA,NA,NA,NA,NA,choice_trial_setup,html-keyboard-response,80,370686,0.0-4.0-0.38,320,1,2025-05-08T15:36:43Z,b60275e29fe2361ab97ac0ac217840d7,"Mozilla/5.0 (Macintosh; Intel Mac OS X 10_15_7) AppleWebKit/537.36 (KHTML, like Gecko) Chrome/135.0.0.0 Safari/537.36",Macintosh,Chrome,135.0.0.0,OS X,10_15_7,https://5puzkbbxv1.cognition.run/?sona_id=57769,"en-US,en;q=0.9",k3hzxcy0qjuebc4,19,"[""White""]",No,Male,NA,Yes,514694.7999999523,NA,null,<p></p>,null,choice,tc,binary,repulsion,1,televisions,null,null,null,null,null,null,2,NA,NA,NA,NA,NA,NA,NA,NA,NA,NA
NA,NA,NA,NA,NA,choice_trial,survey-html-form,81,374810,0.0-4.0-1.38,320,1,2025-05-08T15:36:43Z,b60275e29fe2361ab97ac0ac217840d7,"Mozilla/5.0 (Macintosh; Intel Mac OS X 10_15_7) AppleWebKit/537.36 (KHTML, like Gecko) Chrome/135.0.0.0 Safari/537.36",Macintosh,Chrome,135.0.0.0,OS X,10_15_7,https://5puzkbbxv1.cognition.run/?sona_id=57769,"en-US,en;q=0.9",k3hzxcy0qjuebc4,19,"[""White""]",No,Male,NA,Yes,514694.7999999523,NA,4119,NA,"{""product_choice"":""B""}",choice,tc,binary,repulsion,1,televisions,null,null,null,null,null,null,2,100,90,null,30,40,null,Screen size,Average lifespan,NA,NA
NA,NA,NA,NA,NA,choice_trial_setup,html-keyboard-response,82,375115,0.0-4.0-0.39,320,1,2025-05-08T15:36:43Z,b60275e29fe2361ab97ac0ac217840d7,"Mozilla/5.0 (Macintosh; Intel Mac OS X 10_15_7) AppleWebKit/537.36 (KHTML, like Gecko) Chrome/135.0.0.0 Safari/537.36",Macintosh,Chrome,135.0.0.0,OS X,10_15_7,https://5puzkbbxv1.cognition.run/?sona_id=57769,"en-US,en;q=0.9",k3hzxcy0qjuebc4,19,"[""White""]",No,Male,NA,Yes,514694.7999999523,NA,null,<p></p>,null,choice,ctd,trinary,attraction,2,laptops,null,null,null,null,null,null,2,NA,NA,NA,NA,NA,NA,NA,NA,NA,NA
NA,NA,NA,NA,NA,choice_trial,survey-html-form,83,377980,0.0-4.0-1.39,320,1,2025-05-08T15:36:43Z,b60275e29fe2361ab97ac0ac217840d7,"Mozilla/5.0 (Macintosh; Intel Mac OS X 10_15_7) AppleWebKit/537.36 (KHTML, like Gecko) Chrome/135.0.0.0 Safari/537.36",Macintosh,Chrome,135.0.0.0,OS X,10_15_7,https://5puzkbbxv1.cognition.run/?sona_id=57769,"en-US,en;q=0.9",k3hzxcy0qjuebc4,19,"[""White""]",No,Male,NA,Yes,514694.7999999523,NA,2860,NA,"{""product_choice"":""A""}",choice,ctd,trinary,attraction,2,laptops,null,null,null,null,null,null,2,50,60,40,60,50,60,Processing speed,Memory (RAM),NA,NA
NA,NA,NA,NA,NA,choice_trial_setup,html-keyboard-response,84,378284,0.0-4.0-0.40,320,1,2025-05-08T15:36:43Z,b60275e29fe2361ab97ac0ac217840d7,"Mozilla/5.0 (Macintosh; Intel Mac OS X 10_15_7) AppleWebKit/537.36 (KHTML, like Gecko) Chrome/135.0.0.0 Safari/537.36",Macintosh,Chrome,135.0.0.0,OS X,10_15_7,https://5puzkbbxv1.cognition.run/?sona_id=57769,"en-US,en;q=0.9",k3hzxcy0qjuebc4,19,"[""White""]",No,Male,NA,Yes,514694.7999999523,NA,null,<p></p>,null,choice,ctd,trinary,repulsion_B,2,televisions,null,null,null,null,null,null,2,NA,NA,NA,NA,NA,NA,NA,NA,NA,NA
NA,NA,NA,NA,NA,choice_trial,survey-html-form,85,381421,0.0-4.0-1.40,320,1,2025-05-08T15:36:43Z,b60275e29fe2361ab97ac0ac217840d7,"Mozilla/5.0 (Macintosh; Intel Mac OS X 10_15_7) AppleWebKit/537.36 (KHTML, like Gecko) Chrome/135.0.0.0 Safari/537.36",Macintosh,Chrome,135.0.0.0,OS X,10_15_7,https://5puzkbbxv1.cognition.run/?sona_id=57769,"en-US,en;q=0.9",k3hzxcy0qjuebc4,19,"[""White""]",No,Male,NA,Yes,514694.7999999523,NA,3131,NA,"{""product_choice"":""A""}",choice,ctd,trinary,repulsion_B,2,televisions,null,null,null,null,null,null,2,40,30,40,90,100,80,Screen size,Average lifespan,NA,NA
NA,NA,NA,NA,NA,choice_trial_setup,html-keyboard-response,86,381725,0.0-4.0-0.41,320,1,2025-05-08T15:36:43Z,b60275e29fe2361ab97ac0ac217840d7,"Mozilla/5.0 (Macintosh; Intel Mac OS X 10_15_7) AppleWebKit/537.36 (KHTML, like Gecko) Chrome/135.0.0.0 Safari/537.36",Macintosh,Chrome,135.0.0.0,OS X,10_15_7,https://5puzkbbxv1.cognition.run/?sona_id=57769,"en-US,en;q=0.9",k3hzxcy0qjuebc4,19,"[""White""]",No,Male,NA,Yes,514694.7999999523,NA,null,<p></p>,null,choice,cdt,trinary,repulsion_B,1,washing machines,null,null,null,null,null,null,1,NA,NA,NA,NA,NA,NA,NA,NA,NA,NA
NA,NA,NA,NA,NA,choice_trial,survey-html-form,87,384752,0.0-4.0-1.41,320,1,2025-05-08T15:36:43Z,b60275e29fe2361ab97ac0ac217840d7,"Mozilla/5.0 (Macintosh; Intel Mac OS X 10_15_7) AppleWebKit/537.36 (KHTML, like Gecko) Chrome/135.0.0.0 Safari/537.36",Macintosh,Chrome,135.0.0.0,OS X,10_15_7,https://5puzkbbxv1.cognition.run/?sona_id=57769,"en-US,en;q=0.9",k3hzxcy0qjuebc4,19,"[""White""]",No,Male,NA,Yes,514694.7999999523,NA,3021,NA,"{""product_choice"":""A""}",choice,cdt,trinary,repulsion_B,1,washing machines,null,null,null,null,null,null,1,90,100,80,40,30,40,Average lifespan,Energy savings,NA,NA
NA,NA,NA,NA,NA,choice_trial_setup,html-keyboard-response,88,385056,0.0-4.0-0.42,320,1,2025-05-08T15:36:43Z,b60275e29fe2361ab97ac0ac217840d7,"Mozilla/5.0 (Macintosh; Intel Mac OS X 10_15_7) AppleWebKit/537.36 (KHTML, like Gecko) Chrome/135.0.0.0 Safari/537.36",Macintosh,Chrome,135.0.0.0,OS X,10_15_7,https://5puzkbbxv1.cognition.run/?sona_id=57769,"en-US,en;q=0.9",k3hzxcy0qjuebc4,19,"[""White""]",No,Male,NA,Yes,514694.7999999523,NA,null,<p></p>,null,choice,ct,binary,repulsion,2,laptops,null,null,null,null,null,null,2,NA,NA,NA,NA,NA,NA,NA,NA,NA,NA
NA,NA,NA,NA,NA,choice_trial,survey-html-form,89,387485,0.0-4.0-1.42,320,1,2025-05-08T15:36:43Z,b60275e29fe2361ab97ac0ac217840d7,"Mozilla/5.0 (Macintosh; Intel Mac OS X 10_15_7) AppleWebKit/537.36 (KHTML, like Gecko) Chrome/135.0.0.0 Safari/537.36",Macintosh,Chrome,135.0.0.0,OS X,10_15_7,https://5puzkbbxv1.cognition.run/?sona_id=57769,"en-US,en;q=0.9",k3hzxcy0qjuebc4,19,"[""White""]",No,Male,NA,Yes,514694.7999999523,NA,2424,NA,"{""product_choice"":""B""}",choice,ct,binary,repulsion,2,laptops,null,null,null,null,null,null,2,30,40,null,100,90,null,Processing speed,Memory (RAM),NA,NA
NA,NA,NA,NA,NA,choice_trial_setup,html-keyboard-response,90,387790,0.0-4.0-0.43,320,1,2025-05-08T15:36:43Z,b60275e29fe2361ab97ac0ac217840d7,"Mozilla/5.0 (Macintosh; Intel Mac OS X 10_15_7) AppleWebKit/537.36 (KHTML, like Gecko) Chrome/135.0.0.0 Safari/537.36",Macintosh,Chrome,135.0.0.0,OS X,10_15_7,https://5puzkbbxv1.cognition.run/?sona_id=57769,"en-US,en;q=0.9",k3hzxcy0qjuebc4,19,"[""White""]",No,Male,NA,Yes,514694.7999999523,NA,null,<p></p>,null,choice,cdt,trinary,attraction,1,washing machines,null,null,null,null,null,null,1,NA,NA,NA,NA,NA,NA,NA,NA,NA,NA
NA,NA,NA,NA,NA,choice_trial,survey-html-form,91,392595,0.0-4.0-1.43,320,1,2025-05-08T15:36:43Z,b60275e29fe2361ab97ac0ac217840d7,"Mozilla/5.0 (Macintosh; Intel Mac OS X 10_15_7) AppleWebKit/537.36 (KHTML, like Gecko) Chrome/135.0.0.0 Safari/537.36",Macintosh,Chrome,135.0.0.0,OS X,10_15_7,https://5puzkbbxv1.cognition.run/?sona_id=57769,"en-US,en;q=0.9",k3hzxcy0qjuebc4,19,"[""White""]",No,Male,NA,Yes,514694.7999999523,NA,4799,NA,"{""product_choice"":""C""}",choice,cdt,trinary,attraction,1,washing machines,null,null,null,null,null,null,1,60,50,60,50,60,40,Average lifespan,Energy savings,NA,NA
NA,NA,NA,NA,NA,post_trials_message,html-button-response,92,394175,0.0-5.0,320,1,2025-05-08T15:36:43Z,b60275e29fe2361ab97ac0ac217840d7,"Mozilla/5.0 (Macintosh; Intel Mac OS X 10_15_7) AppleWebKit/537.36 (KHTML, like Gecko) Chrome/135.0.0.0 Safari/537.36",Macintosh,Chrome,135.0.0.0,OS X,10_15_7,https://5puzkbbxv1.cognition.run/?sona_id=57769,"en-US,en;q=0.9",k3hzxcy0qjuebc4,19,"[""White""]",No,Male,NA,Yes,514694.7999999523,NA,1579,<p> <b>Thank you for your patience!</b></p><p>  The study will be done after completing a brief form. </p>,0,NA,NA,NA,NA,NA,NA,NA,NA,NA,NA,NA,NA,NA,NA,NA,NA,NA,NA,NA,NA,NA,NA,NA
NA,NA,NA,NA,NA,survey_message,survey-text,93,459577,0.0-6.0,320,1,2025-05-08T15:36:43Z,b60275e29fe2361ab97ac0ac217840d7,"Mozilla/5.0 (Macintosh; Intel Mac OS X 10_15_7) AppleWebKit/537.36 (KHTML, like Gecko) Chrome/135.0.0.0 Safari/537.36",Macintosh,Chrome,135.0.0.0,OS X,10_15_7,https://5puzkbbxv1.cognition.run/?sona_id=57769,"en-US,en;q=0.9",k3hzxcy0qjuebc4,19,"[""White""]",No,Male,NA,Yes,514694.7999999523,NA,65398,NA,"{""Q0"":""I usually had some ranking of how important the qualities of the product are, and I would try to get the highest ranked ones as good as possible without compromising the others too much.""}",NA,NA,NA,NA,NA,NA,NA,NA,NA,NA,NA,NA,NA,NA,NA,NA,NA,NA,NA,NA,NA,"I usually had some ranking of how important the qualities of the product are, and I would try to get the highest ranked ones as good as possible without compromising the others too much.",NA
NA,NA,NA,NA,NA,demo_age,survey-text,94,465322,0.0-7.0,320,1,2025-05-08T15:36:43Z,b60275e29fe2361ab97ac0ac217840d7,"Mozilla/5.0 (Macintosh; Intel Mac OS X 10_15_7) AppleWebKit/537.36 (KHTML, like Gecko) Chrome/135.0.0.0 Safari/537.36",Macintosh,Chrome,135.0.0.0,OS X,10_15_7,https://5puzkbbxv1.cognition.run/?sona_id=57769,"en-US,en;q=0.9",k3hzxcy0qjuebc4,19,"[""White""]",No,Male,NA,Yes,514694.7999999523,NA,5739,NA,"{""Q0"":""19""}",NA,NA,NA,NA,NA,NA,NA,NA,NA,NA,NA,NA,NA,NA,NA,NA,NA,NA,NA,NA,NA,NA,NA
NA,NA,NA,NA,NA,demo_race,survey-multi-select,95,467684,0.0-8.0,320,1,2025-05-08T15:36:43Z,b60275e29fe2361ab97ac0ac217840d7,"Mozilla/5.0 (Macintosh; Intel Mac OS X 10_15_7) AppleWebKit/537.36 (KHTML, like Gecko) Chrome/135.0.0.0 Safari/537.36",Macintosh,Chrome,135.0.0.0,OS X,10_15_7,https://5puzkbbxv1.cognition.run/?sona_id=57769,"en-US,en;q=0.9",k3hzxcy0qjuebc4,19,"[""White""]",No,Male,NA,Yes,514694.7999999523,NA,2354,NA,"{""Q0"":[""White""]}",NA,NA,NA,NA,NA,NA,NA,NA,NA,NA,NA,NA,NA,NA,NA,NA,NA,NA,NA,NA,NA,NA,[0]
NA,NA,NA,NA,NA,demo_ethnicity_gender,survey-multi-choice,96,470878,0.0-9.0,320,1,2025-05-08T15:36:43Z,b60275e29fe2361ab97ac0ac217840d7,"Mozilla/5.0 (Macintosh; Intel Mac OS X 10_15_7) AppleWebKit/537.36 (KHTML, like Gecko) Chrome/135.0.0.0 Safari/537.36",Macintosh,Chrome,135.0.0.0,OS X,10_15_7,https://5puzkbbxv1.cognition.run/?sona_id=57769,"en-US,en;q=0.9",k3hzxcy0qjuebc4,19,"[""White""]",No,Male,NA,Yes,514694.7999999523,NA,3189,NA,"{""Q0"":""No"",""Q1"":""Male""}",NA,NA,NA,NA,NA,NA,NA,NA,NA,NA,NA,NA,NA,NA,NA,NA,NA,NA,NA,NA,NA,NA,"[0,1]"
NA,NA,NA,NA,NA,demo_countries,survey-text,97,485755,0.0-10.0,320,1,2025-05-08T15:36:43Z,b60275e29fe2361ab97ac0ac217840d7,"Mozilla/5.0 (Macintosh; Intel Mac OS X 10_15_7) AppleWebKit/537.36 (KHTML, like Gecko) Chrome/135.0.0.0 Safari/537.36",Macintosh,Chrome,135.0.0.0,OS X,10_15_7,https://5puzkbbxv1.cognition.run/?sona_id=57769,"en-US,en;q=0.9",k3hzxcy0qjuebc4,19,"[""White""]",No,Male,NA,Yes,514694.7999999523,NA,14869,NA,"{""Q0"":""NA""}",NA,NA,NA,NA,NA,NA,NA,NA,NA,NA,NA,NA,NA,NA,NA,NA,NA,NA,NA,NA,NA,NA,NA
NA,NA,NA,NA,NA,demo_prev_study,survey-multi-choice,98,492328,0.0-11.0,320,1,2025-05-08T15:36:43Z,b60275e29fe2361ab97ac0ac217840d7,"Mozilla/5.0 (Macintosh; Intel Mac OS X 10_15_7) AppleWebKit/537.36 (KHTML, like Gecko) Chrome/135.0.0.0 Safari/537.36",Macintosh,Chrome,135.0.0.0,OS X,10_15_7,https://5puzkbbxv1.cognition.run/?sona_id=57769,"en-US,en;q=0.9",k3hzxcy0qjuebc4,19,"[""White""]",No,Male,NA,Yes,514694.7999999523,NA,6571,NA,"{""Q0"":""Yes""}",NA,NA,NA,NA,NA,NA,NA,NA,NA,NA,NA,NA,NA,NA,NA,NA,NA,NA,NA,NA,NA,NA,[0]
NA,NA,NA,NA,NA,post_survey_message,html-keyboard-response,99,495680,0.0-12.0,320,1,2025-05-08T15:36:43Z,b60275e29fe2361ab97ac0ac217840d7,"Mozilla/5.0 (Macintosh; Intel Mac OS X 10_15_7) AppleWebKit/537.36 (KHTML, like Gecko) Chrome/135.0.0.0 Safari/537.36",Macintosh,Chrome,135.0.0.0,OS X,10_15_7,https://5puzkbbxv1.cognition.run/?sona_id=57769,"en-US,en;q=0.9",k3hzxcy0qjuebc4,19,"[""White""]",No,Male,NA,Yes,514694.7999999523,NA,3348,NA,j,NA,NA,NA,NA,NA,NA,NA,NA,NA,NA,NA,NA,NA,NA,NA,NA,NA,NA,NA,NA,NA,NA,NA
NA,NA,NA,NA,NA,debrief,image-keyboard-response,100,514684,0.0-13.0,320,1,2025-05-08T15:36:43Z,b60275e29fe2361ab97ac0ac217840d7,"Mozilla/5.0 (Macintosh; Intel Mac OS X 10_15_7) AppleWebKit/537.36 (KHTML, like Gecko) Chrome/135.0.0.0 Safari/537.36",Macintosh,Chrome,135.0.0.0,OS X,10_15_7,https://5puzkbbxv1.cognition.run/?sona_id=57769,"en-US,en;q=0.9",k3hzxcy0qjuebc4,19,"[""White""]",No,Male,NA,Yes,514694.7999999523,NA,18998,Judg_choice_debrief.png,p,NA,NA,NA,NA,NA,NA,NA,NA,NA,NA,NA,NA,NA,NA,NA,NA,NA,NA,NA,NA,NA,NA,NA
