success,timeout,failed_images,failed_audio,failed_video,screen_id,trial_type,trial_index,time_elapsed,internal_node_id,run_id,condition,recorded_at,source_code_version,user_agent,device,browser,browser_version,platform,platform_version,referer,accept_language,ppt_id,age,race,ethnicity,gender,other_countries,prev_study,exp_duration,view_history,rt,stimulus,response,phase,order,set,effect,t_high,category,d1_best,d2_best,d1_worst1,d2_worst1,d1_worst2,d2_worst2,first_dim,d1_t,d1_c,d1_d,d2_t,d2_c,d2_d,d1_name,d2_name,strategy_response,question_order
TRUE,FALSE,[],[],[],img preload,preload,0,896,0.0-0.0,322,1,2025-05-08T17:22:56Z,b60275e29fe2361ab97ac0ac217840d7,"Mozilla/5.0 (Windows NT 10.0; Win64; x64) AppleWebKit/537.36 (KHTML, like Gecko) Chrome/134.0.0.0 Safari/537.36",WebKit,Chrome,134.0.0.0,Windows,10,https://5puzkbbxv1.cognition.run/?sona_id=58078,"en-US,en;q=0.9",q1ld8o8xy18m2yw,20,"[""Asian""]",No,Male,NA,No,248871,NA,NA,NA,NA,NA,NA,NA,NA,NA,NA,NA,NA,NA,NA,NA,NA,NA,NA,NA,NA,NA,NA,NA,NA,NA,NA,NA
NA,NA,NA,NA,NA,computer_message,instructions,1,6329,0.0-1.0,322,1,2025-05-08T17:22:56Z,b60275e29fe2361ab97ac0ac217840d7,"Mozilla/5.0 (Windows NT 10.0; Win64; x64) AppleWebKit/537.36 (KHTML, like Gecko) Chrome/134.0.0.0 Safari/537.36",WebKit,Chrome,134.0.0.0,Windows,10,https://5puzkbbxv1.cognition.run/?sona_id=58078,"en-US,en;q=0.9",q1ld8o8xy18m2yw,20,"[""Asian""]",No,Male,NA,No,248871,"[{""page_index"":0,""viewing_time"":5432}]",5432,NA,NA,NA,NA,NA,NA,NA,NA,NA,NA,NA,NA,NA,NA,NA,NA,NA,NA,NA,NA,NA,NA,NA,NA,NA
TRUE,NA,NA,NA,NA,NA,fullscreen,2,8505,0.0-2.0,322,1,2025-05-08T17:22:56Z,b60275e29fe2361ab97ac0ac217840d7,"Mozilla/5.0 (Windows NT 10.0; Win64; x64) AppleWebKit/537.36 (KHTML, like Gecko) Chrome/134.0.0.0 Safari/537.36",WebKit,Chrome,134.0.0.0,Windows,10,https://5puzkbbxv1.cognition.run/?sona_id=58078,"en-US,en;q=0.9",q1ld8o8xy18m2yw,20,"[""Asian""]",No,Male,NA,No,248871,NA,1162,NA,NA,NA,NA,NA,NA,NA,NA,NA,NA,NA,NA,NA,NA,NA,NA,NA,NA,NA,NA,NA,NA,NA,NA,NA
NA,NA,NA,NA,NA,choice_instructions,instructions,3,22992,0.0-3.0,322,1,2025-05-08T17:22:56Z,b60275e29fe2361ab97ac0ac217840d7,"Mozilla/5.0 (Windows NT 10.0; Win64; x64) AppleWebKit/537.36 (KHTML, like Gecko) Chrome/134.0.0.0 Safari/537.36",WebKit,Chrome,134.0.0.0,Windows,10,https://5puzkbbxv1.cognition.run/?sona_id=58078,"en-US,en;q=0.9",q1ld8o8xy18m2yw,20,"[""Asian""]",No,Male,NA,No,248871,"[{""page_index"":0,""viewing_time"":949},{""page_index"":1,""viewing_time"":1381},{""page_index"":2,""viewing_time"":745},{""page_index"":3,""viewing_time"":676},{""page_index"":4,""viewing_time"":458},{""page_index"":5,""viewing_time"":6120},{""page_index"":6,""viewing_time"":1215},{""page_index"":5,""viewing_time"":2187},{""page_index"":6,""viewing_time"":753}]",14485,NA,NA,NA,NA,NA,NA,NA,NA,NA,NA,NA,NA,NA,NA,NA,NA,NA,NA,NA,NA,NA,NA,NA,NA,NA
NA,NA,NA,NA,NA,choice_trial_setup,html-keyboard-response,4,23300,0.0-4.0-0.0,322,1,2025-05-08T17:22:56Z,b60275e29fe2361ab97ac0ac217840d7,"Mozilla/5.0 (Windows NT 10.0; Win64; x64) AppleWebKit/537.36 (KHTML, like Gecko) Chrome/134.0.0.0 Safari/537.36",WebKit,Chrome,134.0.0.0,Windows,10,https://5puzkbbxv1.cognition.run/?sona_id=58078,"en-US,en;q=0.9",q1ld8o8xy18m2yw,20,"[""Asian""]",No,Male,NA,No,248871,NA,null,<p></p>,null,choice,dtc,trinary,attraction,2,microwave ovens,null,null,null,null,null,null,2,NA,NA,NA,NA,NA,NA,NA,NA,NA,NA
NA,NA,NA,NA,NA,choice_trial,survey-html-form,5,30138,0.0-4.0-1.0,322,1,2025-05-08T17:22:56Z,b60275e29fe2361ab97ac0ac217840d7,"Mozilla/5.0 (Windows NT 10.0; Win64; x64) AppleWebKit/537.36 (KHTML, like Gecko) Chrome/134.0.0.0 Safari/537.36",WebKit,Chrome,134.0.0.0,Windows,10,https://5puzkbbxv1.cognition.run/?sona_id=58078,"en-US,en;q=0.9",q1ld8o8xy18m2yw,20,"[""Asian""]",No,Male,NA,No,248871,NA,6834,NA,"{""product_choice"":""B""}",choice,dtc,trinary,attraction,2,microwave ovens,null,null,null,null,null,null,2,50,60,40,60,50,60,Warranty,Cooking power,NA,NA
NA,NA,NA,NA,NA,choice_trial_setup,html-keyboard-response,6,30455,0.0-4.0-0.1,322,1,2025-05-08T17:22:56Z,b60275e29fe2361ab97ac0ac217840d7,"Mozilla/5.0 (Windows NT 10.0; Win64; x64) AppleWebKit/537.36 (KHTML, like Gecko) Chrome/134.0.0.0 Safari/537.36",WebKit,Chrome,134.0.0.0,Windows,10,https://5puzkbbxv1.cognition.run/?sona_id=58078,"en-US,en;q=0.9",q1ld8o8xy18m2yw,20,"[""Asian""]",No,Male,NA,No,248871,NA,null,<p></p>,null,choice,tdc,trinary,repulsion_A,2,washing machines,null,null,null,null,null,null,2,NA,NA,NA,NA,NA,NA,NA,NA,NA,NA
NA,NA,NA,NA,NA,choice_trial,survey-html-form,7,32297,0.0-4.0-1.1,322,1,2025-05-08T17:22:56Z,b60275e29fe2361ab97ac0ac217840d7,"Mozilla/5.0 (Windows NT 10.0; Win64; x64) AppleWebKit/537.36 (KHTML, like Gecko) Chrome/134.0.0.0 Safari/537.36",WebKit,Chrome,134.0.0.0,Windows,10,https://5puzkbbxv1.cognition.run/?sona_id=58078,"en-US,en;q=0.9",q1ld8o8xy18m2yw,20,"[""Asian""]",No,Male,NA,No,248871,NA,1837,NA,"{""product_choice"":""B""}",choice,tdc,trinary,repulsion_A,2,washing machines,null,null,null,null,null,null,2,30,40,20,100,90,100,Average lifespan,Energy savings,NA,NA
NA,NA,NA,NA,NA,choice_trial_setup,html-keyboard-response,8,32603,0.0-4.0-0.2,322,1,2025-05-08T17:22:56Z,b60275e29fe2361ab97ac0ac217840d7,"Mozilla/5.0 (Windows NT 10.0; Win64; x64) AppleWebKit/537.36 (KHTML, like Gecko) Chrome/134.0.0.0 Safari/537.36",WebKit,Chrome,134.0.0.0,Windows,10,https://5puzkbbxv1.cognition.run/?sona_id=58078,"en-US,en;q=0.9",q1ld8o8xy18m2yw,20,"[""Asian""]",No,Male,NA,No,248871,NA,null,<p></p>,null,choice,tc,binary,repulsion,1,televisions,null,null,null,null,null,null,1,NA,NA,NA,NA,NA,NA,NA,NA,NA,NA
NA,NA,NA,NA,NA,choice_trial,survey-html-form,9,34737,0.0-4.0-1.2,322,1,2025-05-08T17:22:56Z,b60275e29fe2361ab97ac0ac217840d7,"Mozilla/5.0 (Windows NT 10.0; Win64; x64) AppleWebKit/537.36 (KHTML, like Gecko) Chrome/134.0.0.0 Safari/537.36",WebKit,Chrome,134.0.0.0,Windows,10,https://5puzkbbxv1.cognition.run/?sona_id=58078,"en-US,en;q=0.9",q1ld8o8xy18m2yw,20,"[""Asian""]",No,Male,NA,No,248871,NA,2131,NA,"{""product_choice"":""A""}",choice,tc,binary,repulsion,1,televisions,null,null,null,null,null,null,1,100,90,null,30,40,null,Screen size,Average lifespan,NA,NA
NA,NA,NA,NA,NA,choice_trial_setup,html-keyboard-response,10,35046,0.0-4.0-0.3,322,1,2025-05-08T17:22:56Z,b60275e29fe2361ab97ac0ac217840d7,"Mozilla/5.0 (Windows NT 10.0; Win64; x64) AppleWebKit/537.36 (KHTML, like Gecko) Chrome/134.0.0.0 Safari/537.36",WebKit,Chrome,134.0.0.0,Windows,10,https://5puzkbbxv1.cognition.run/?sona_id=58078,"en-US,en;q=0.9",q1ld8o8xy18m2yw,20,"[""Asian""]",No,Male,NA,No,248871,NA,null,<p></p>,null,choice,dct,trinary,repulsion_B,1,microwave ovens,null,null,null,null,null,null,1,NA,NA,NA,NA,NA,NA,NA,NA,NA,NA
NA,NA,NA,NA,NA,choice_trial,survey-html-form,11,39727,0.0-4.0-1.3,322,1,2025-05-08T17:22:56Z,b60275e29fe2361ab97ac0ac217840d7,"Mozilla/5.0 (Windows NT 10.0; Win64; x64) AppleWebKit/537.36 (KHTML, like Gecko) Chrome/134.0.0.0 Safari/537.36",WebKit,Chrome,134.0.0.0,Windows,10,https://5puzkbbxv1.cognition.run/?sona_id=58078,"en-US,en;q=0.9",q1ld8o8xy18m2yw,20,"[""Asian""]",No,Male,NA,No,248871,NA,4679,NA,"{""product_choice"":""C""}",choice,dct,trinary,repulsion_B,1,microwave ovens,null,null,null,null,null,null,1,90,100,80,40,30,40,Warranty,Cooking power,NA,NA
NA,NA,NA,NA,NA,choice_trial_setup,html-keyboard-response,12,40034,0.0-4.0-0.4,322,1,2025-05-08T17:22:56Z,b60275e29fe2361ab97ac0ac217840d7,"Mozilla/5.0 (Windows NT 10.0; Win64; x64) AppleWebKit/537.36 (KHTML, like Gecko) Chrome/134.0.0.0 Safari/537.36",WebKit,Chrome,134.0.0.0,Windows,10,https://5puzkbbxv1.cognition.run/?sona_id=58078,"en-US,en;q=0.9",q1ld8o8xy18m2yw,20,"[""Asian""]",No,Male,NA,No,248871,NA,null,<p></p>,null,choice,tcd,trinary,repulsion_A,2,laptops,null,null,null,null,null,null,1,NA,NA,NA,NA,NA,NA,NA,NA,NA,NA
NA,NA,NA,NA,NA,choice_trial,survey-html-form,13,41328,0.0-4.0-1.4,322,1,2025-05-08T17:22:56Z,b60275e29fe2361ab97ac0ac217840d7,"Mozilla/5.0 (Windows NT 10.0; Win64; x64) AppleWebKit/537.36 (KHTML, like Gecko) Chrome/134.0.0.0 Safari/537.36",WebKit,Chrome,134.0.0.0,Windows,10,https://5puzkbbxv1.cognition.run/?sona_id=58078,"en-US,en;q=0.9",q1ld8o8xy18m2yw,20,"[""Asian""]",No,Male,NA,No,248871,NA,1292,NA,"{""product_choice"":""A""}",choice,tcd,trinary,repulsion_A,2,laptops,null,null,null,null,null,null,1,30,40,20,100,90,100,Processing speed,Memory (RAM),NA,NA
NA,NA,NA,NA,NA,choice_trial_setup,html-keyboard-response,14,41635,0.0-4.0-0.5,322,1,2025-05-08T17:22:56Z,b60275e29fe2361ab97ac0ac217840d7,"Mozilla/5.0 (Windows NT 10.0; Win64; x64) AppleWebKit/537.36 (KHTML, like Gecko) Chrome/134.0.0.0 Safari/537.36",WebKit,Chrome,134.0.0.0,Windows,10,https://5puzkbbxv1.cognition.run/?sona_id=58078,"en-US,en;q=0.9",q1ld8o8xy18m2yw,20,"[""Asian""]",No,Male,NA,No,248871,NA,null,<p></p>,null,choice,dtc,trinary,repulsion_A,1,washing machines,null,null,null,null,null,null,1,NA,NA,NA,NA,NA,NA,NA,NA,NA,NA
NA,NA,NA,NA,NA,choice_trial,survey-html-form,15,44471,0.0-4.0-1.5,322,1,2025-05-08T17:22:56Z,b60275e29fe2361ab97ac0ac217840d7,"Mozilla/5.0 (Windows NT 10.0; Win64; x64) AppleWebKit/537.36 (KHTML, like Gecko) Chrome/134.0.0.0 Safari/537.36",WebKit,Chrome,134.0.0.0,Windows,10,https://5puzkbbxv1.cognition.run/?sona_id=58078,"en-US,en;q=0.9",q1ld8o8xy18m2yw,20,"[""Asian""]",No,Male,NA,No,248871,NA,2834,NA,"{""product_choice"":""B""}",choice,dtc,trinary,repulsion_A,1,washing machines,null,null,null,null,null,null,1,100,90,100,30,40,20,Average lifespan,Energy savings,NA,NA
NA,NA,NA,NA,NA,choice_trial_setup,html-keyboard-response,16,44777,0.0-4.0-0.6,322,1,2025-05-08T17:22:56Z,b60275e29fe2361ab97ac0ac217840d7,"Mozilla/5.0 (Windows NT 10.0; Win64; x64) AppleWebKit/537.36 (KHTML, like Gecko) Chrome/134.0.0.0 Safari/537.36",WebKit,Chrome,134.0.0.0,Windows,10,https://5puzkbbxv1.cognition.run/?sona_id=58078,"en-US,en;q=0.9",q1ld8o8xy18m2yw,20,"[""Asian""]",No,Male,NA,No,248871,NA,null,<p></p>,null,choice,tc,binary,repulsion,2,laptops,null,null,null,null,null,null,1,NA,NA,NA,NA,NA,NA,NA,NA,NA,NA
NA,NA,NA,NA,NA,choice_trial,survey-html-form,17,47994,0.0-4.0-1.6,322,1,2025-05-08T17:22:56Z,b60275e29fe2361ab97ac0ac217840d7,"Mozilla/5.0 (Windows NT 10.0; Win64; x64) AppleWebKit/537.36 (KHTML, like Gecko) Chrome/134.0.0.0 Safari/537.36",WebKit,Chrome,134.0.0.0,Windows,10,https://5puzkbbxv1.cognition.run/?sona_id=58078,"en-US,en;q=0.9",q1ld8o8xy18m2yw,20,"[""Asian""]",No,Male,NA,No,248871,NA,3212,NA,"{""product_choice"":""A""}",choice,tc,binary,repulsion,2,laptops,null,null,null,null,null,null,1,30,40,null,100,90,null,Processing speed,Memory (RAM),NA,NA
NA,NA,NA,NA,NA,choice_trial_setup,html-keyboard-response,18,48296,0.0-4.0-0.7,322,1,2025-05-08T17:22:56Z,b60275e29fe2361ab97ac0ac217840d7,"Mozilla/5.0 (Windows NT 10.0; Win64; x64) AppleWebKit/537.36 (KHTML, like Gecko) Chrome/134.0.0.0 Safari/537.36",WebKit,Chrome,134.0.0.0,Windows,10,https://5puzkbbxv1.cognition.run/?sona_id=58078,"en-US,en;q=0.9",q1ld8o8xy18m2yw,20,"[""Asian""]",No,Male,NA,No,248871,NA,null,<p></p>,null,choice,dct,trinary,repulsion_A,1,televisions,null,null,null,null,null,null,2,NA,NA,NA,NA,NA,NA,NA,NA,NA,NA
NA,NA,NA,NA,NA,choice_trial,survey-html-form,19,49853,0.0-4.0-1.7,322,1,2025-05-08T17:22:56Z,b60275e29fe2361ab97ac0ac217840d7,"Mozilla/5.0 (Windows NT 10.0; Win64; x64) AppleWebKit/537.36 (KHTML, like Gecko) Chrome/134.0.0.0 Safari/537.36",WebKit,Chrome,134.0.0.0,Windows,10,https://5puzkbbxv1.cognition.run/?sona_id=58078,"en-US,en;q=0.9",q1ld8o8xy18m2yw,20,"[""Asian""]",No,Male,NA,No,248871,NA,1554,NA,"{""product_choice"":""B""}",choice,dct,trinary,repulsion_A,1,televisions,null,null,null,null,null,null,2,100,90,100,30,40,20,Screen size,Average lifespan,NA,NA
NA,NA,NA,NA,NA,choice_trial_setup,html-keyboard-response,20,50157,0.0-4.0-0.8,322,1,2025-05-08T17:22:56Z,b60275e29fe2361ab97ac0ac217840d7,"Mozilla/5.0 (Windows NT 10.0; Win64; x64) AppleWebKit/537.36 (KHTML, like Gecko) Chrome/134.0.0.0 Safari/537.36",WebKit,Chrome,134.0.0.0,Windows,10,https://5puzkbbxv1.cognition.run/?sona_id=58078,"en-US,en;q=0.9",q1ld8o8xy18m2yw,20,"[""Asian""]",No,Male,NA,No,248871,NA,null,<p></p>,null,choice,wbw,trinary,catch,null,washing machines,80,65,40,15,15,35,2,NA,NA,NA,NA,NA,NA,NA,NA,NA,NA
NA,NA,NA,NA,NA,choice_trial,survey-html-form,21,57563,0.0-4.0-1.8,322,1,2025-05-08T17:22:56Z,b60275e29fe2361ab97ac0ac217840d7,"Mozilla/5.0 (Windows NT 10.0; Win64; x64) AppleWebKit/537.36 (KHTML, like Gecko) Chrome/134.0.0.0 Safari/537.36",WebKit,Chrome,134.0.0.0,Windows,10,https://5puzkbbxv1.cognition.run/?sona_id=58078,"en-US,en;q=0.9",q1ld8o8xy18m2yw,20,"[""Asian""]",No,Male,NA,No,248871,NA,7402,NA,"{""product_choice"":""B""}",choice,wbw,trinary,catch,null,washing machines,80,65,40,15,15,35,2,null,null,null,null,null,null,Average lifespan,Energy savings,NA,NA
NA,NA,NA,NA,NA,choice_trial_setup,html-keyboard-response,22,57869,0.0-4.0-0.9,322,1,2025-05-08T17:22:56Z,b60275e29fe2361ab97ac0ac217840d7,"Mozilla/5.0 (Windows NT 10.0; Win64; x64) AppleWebKit/537.36 (KHTML, like Gecko) Chrome/134.0.0.0 Safari/537.36",WebKit,Chrome,134.0.0.0,Windows,10,https://5puzkbbxv1.cognition.run/?sona_id=58078,"en-US,en;q=0.9",q1ld8o8xy18m2yw,20,"[""Asian""]",No,Male,NA,No,248871,NA,null,<p></p>,null,choice,tcd,trinary,attraction,2,laptops,null,null,null,null,null,null,1,NA,NA,NA,NA,NA,NA,NA,NA,NA,NA
NA,NA,NA,NA,NA,choice_trial,survey-html-form,23,61696,0.0-4.0-1.9,322,1,2025-05-08T17:22:56Z,b60275e29fe2361ab97ac0ac217840d7,"Mozilla/5.0 (Windows NT 10.0; Win64; x64) AppleWebKit/537.36 (KHTML, like Gecko) Chrome/134.0.0.0 Safari/537.36",WebKit,Chrome,134.0.0.0,Windows,10,https://5puzkbbxv1.cognition.run/?sona_id=58078,"en-US,en;q=0.9",q1ld8o8xy18m2yw,20,"[""Asian""]",No,Male,NA,No,248871,NA,3821,NA,"{""product_choice"":""B""}",choice,tcd,trinary,attraction,2,laptops,null,null,null,null,null,null,1,50,60,40,60,50,60,Processing speed,Memory (RAM),NA,NA
NA,NA,NA,NA,NA,choice_trial_setup,html-keyboard-response,24,61999,0.0-4.0-0.10,322,1,2025-05-08T17:22:56Z,b60275e29fe2361ab97ac0ac217840d7,"Mozilla/5.0 (Windows NT 10.0; Win64; x64) AppleWebKit/537.36 (KHTML, like Gecko) Chrome/134.0.0.0 Safari/537.36",WebKit,Chrome,134.0.0.0,Windows,10,https://5puzkbbxv1.cognition.run/?sona_id=58078,"en-US,en;q=0.9",q1ld8o8xy18m2yw,20,"[""Asian""]",No,Male,NA,No,248871,NA,null,<p></p>,null,choice,wwb,trinary,catch,null,laptops,55,60,45,45,50,35,2,NA,NA,NA,NA,NA,NA,NA,NA,NA,NA
NA,NA,NA,NA,NA,choice_trial,survey-html-form,25,65026,0.0-4.0-1.10,322,1,2025-05-08T17:22:56Z,b60275e29fe2361ab97ac0ac217840d7,"Mozilla/5.0 (Windows NT 10.0; Win64; x64) AppleWebKit/537.36 (KHTML, like Gecko) Chrome/134.0.0.0 Safari/537.36",WebKit,Chrome,134.0.0.0,Windows,10,https://5puzkbbxv1.cognition.run/?sona_id=58078,"en-US,en;q=0.9",q1ld8o8xy18m2yw,20,"[""Asian""]",No,Male,NA,No,248871,NA,3025,NA,"{""product_choice"":""C""}",choice,wwb,trinary,catch,null,laptops,55,60,45,45,50,35,2,null,null,null,null,null,null,Processing speed,Memory (RAM),NA,NA
NA,NA,NA,NA,NA,choice_trial_setup,html-keyboard-response,26,65329,0.0-4.0-0.11,322,1,2025-05-08T17:22:56Z,b60275e29fe2361ab97ac0ac217840d7,"Mozilla/5.0 (Windows NT 10.0; Win64; x64) AppleWebKit/537.36 (KHTML, like Gecko) Chrome/134.0.0.0 Safari/537.36",WebKit,Chrome,134.0.0.0,Windows,10,https://5puzkbbxv1.cognition.run/?sona_id=58078,"en-US,en;q=0.9",q1ld8o8xy18m2yw,20,"[""Asian""]",No,Male,NA,No,248871,NA,null,<p></p>,null,choice,ct,binary,attraction,NA,microwave ovens,null,null,null,null,null,null,1,NA,NA,NA,NA,NA,NA,NA,NA,NA,NA
NA,NA,NA,NA,NA,choice_trial,survey-html-form,27,69069,0.0-4.0-1.11,322,1,2025-05-08T17:22:56Z,b60275e29fe2361ab97ac0ac217840d7,"Mozilla/5.0 (Windows NT 10.0; Win64; x64) AppleWebKit/537.36 (KHTML, like Gecko) Chrome/134.0.0.0 Safari/537.36",WebKit,Chrome,134.0.0.0,Windows,10,https://5puzkbbxv1.cognition.run/?sona_id=58078,"en-US,en;q=0.9",q1ld8o8xy18m2yw,20,"[""Asian""]",No,Male,NA,No,248871,NA,3737,NA,"{""product_choice"":""A""}",choice,ct,binary,attraction,NA,microwave ovens,null,null,null,null,null,null,1,60,50,null,50,60,null,Warranty,Cooking power,NA,NA
NA,NA,NA,NA,NA,choice_trial_setup,html-keyboard-response,28,69378,0.0-4.0-0.12,322,1,2025-05-08T17:22:56Z,b60275e29fe2361ab97ac0ac217840d7,"Mozilla/5.0 (Windows NT 10.0; Win64; x64) AppleWebKit/537.36 (KHTML, like Gecko) Chrome/134.0.0.0 Safari/537.36",WebKit,Chrome,134.0.0.0,Windows,10,https://5puzkbbxv1.cognition.run/?sona_id=58078,"en-US,en;q=0.9",q1ld8o8xy18m2yw,20,"[""Asian""]",No,Male,NA,No,248871,NA,null,<p></p>,null,choice,cdt,trinary,attraction,1,washing machines,null,null,null,null,null,null,2,NA,NA,NA,NA,NA,NA,NA,NA,NA,NA
NA,NA,NA,NA,NA,choice_trial,survey-html-form,29,74939,0.0-4.0-1.12,322,1,2025-05-08T17:22:56Z,b60275e29fe2361ab97ac0ac217840d7,"Mozilla/5.0 (Windows NT 10.0; Win64; x64) AppleWebKit/537.36 (KHTML, like Gecko) Chrome/134.0.0.0 Safari/537.36",WebKit,Chrome,134.0.0.0,Windows,10,https://5puzkbbxv1.cognition.run/?sona_id=58078,"en-US,en;q=0.9",q1ld8o8xy18m2yw,20,"[""Asian""]",No,Male,NA,No,248871,NA,5557,NA,"{""product_choice"":""A""}",choice,cdt,trinary,attraction,1,washing machines,null,null,null,null,null,null,2,60,50,60,50,60,40,Average lifespan,Energy savings,NA,NA
NA,NA,NA,NA,NA,choice_trial_setup,html-keyboard-response,30,75242,0.0-4.0-0.13,322,1,2025-05-08T17:22:56Z,b60275e29fe2361ab97ac0ac217840d7,"Mozilla/5.0 (Windows NT 10.0; Win64; x64) AppleWebKit/537.36 (KHTML, like Gecko) Chrome/134.0.0.0 Safari/537.36",WebKit,Chrome,134.0.0.0,Windows,10,https://5puzkbbxv1.cognition.run/?sona_id=58078,"en-US,en;q=0.9",q1ld8o8xy18m2yw,20,"[""Asian""]",No,Male,NA,No,248871,NA,null,<p></p>,null,choice,tc,binary,attraction,NA,washing machines,null,null,null,null,null,null,2,NA,NA,NA,NA,NA,NA,NA,NA,NA,NA
NA,NA,NA,NA,NA,choice_trial,survey-html-form,31,77874,0.0-4.0-1.13,322,1,2025-05-08T17:22:56Z,b60275e29fe2361ab97ac0ac217840d7,"Mozilla/5.0 (Windows NT 10.0; Win64; x64) AppleWebKit/537.36 (KHTML, like Gecko) Chrome/134.0.0.0 Safari/537.36",WebKit,Chrome,134.0.0.0,Windows,10,https://5puzkbbxv1.cognition.run/?sona_id=58078,"en-US,en;q=0.9",q1ld8o8xy18m2yw,20,"[""Asian""]",No,Male,NA,No,248871,NA,2629,NA,"{""product_choice"":""A""}",choice,tc,binary,attraction,NA,washing machines,null,null,null,null,null,null,2,60,50,null,50,60,null,Average lifespan,Energy savings,NA,NA
NA,NA,NA,NA,NA,choice_trial_setup,html-keyboard-response,32,78179,0.0-4.0-0.14,322,1,2025-05-08T17:22:56Z,b60275e29fe2361ab97ac0ac217840d7,"Mozilla/5.0 (Windows NT 10.0; Win64; x64) AppleWebKit/537.36 (KHTML, like Gecko) Chrome/134.0.0.0 Safari/537.36",WebKit,Chrome,134.0.0.0,Windows,10,https://5puzkbbxv1.cognition.run/?sona_id=58078,"en-US,en;q=0.9",q1ld8o8xy18m2yw,20,"[""Asian""]",No,Male,NA,No,248871,NA,null,<p></p>,null,choice,dtc,trinary,repulsion_B,1,laptops,null,null,null,null,null,null,1,NA,NA,NA,NA,NA,NA,NA,NA,NA,NA
NA,NA,NA,NA,NA,choice_trial,survey-html-form,33,80241,0.0-4.0-1.14,322,1,2025-05-08T17:22:56Z,b60275e29fe2361ab97ac0ac217840d7,"Mozilla/5.0 (Windows NT 10.0; Win64; x64) AppleWebKit/537.36 (KHTML, like Gecko) Chrome/134.0.0.0 Safari/537.36",WebKit,Chrome,134.0.0.0,Windows,10,https://5puzkbbxv1.cognition.run/?sona_id=58078,"en-US,en;q=0.9",q1ld8o8xy18m2yw,20,"[""Asian""]",No,Male,NA,No,248871,NA,2059,NA,"{""product_choice"":""B""}",choice,dtc,trinary,repulsion_B,1,laptops,null,null,null,null,null,null,1,90,100,80,40,30,40,Processing speed,Memory (RAM),NA,NA
NA,NA,NA,NA,NA,choice_trial_setup,html-keyboard-response,34,80543,0.0-4.0-0.15,322,1,2025-05-08T17:22:56Z,b60275e29fe2361ab97ac0ac217840d7,"Mozilla/5.0 (Windows NT 10.0; Win64; x64) AppleWebKit/537.36 (KHTML, like Gecko) Chrome/134.0.0.0 Safari/537.36",WebKit,Chrome,134.0.0.0,Windows,10,https://5puzkbbxv1.cognition.run/?sona_id=58078,"en-US,en;q=0.9",q1ld8o8xy18m2yw,20,"[""Asian""]",No,Male,NA,No,248871,NA,null,<p></p>,null,choice,tcd,trinary,repulsion_B,1,washing machines,null,null,null,null,null,null,1,NA,NA,NA,NA,NA,NA,NA,NA,NA,NA
NA,NA,NA,NA,NA,choice_trial,survey-html-form,35,82544,0.0-4.0-1.15,322,1,2025-05-08T17:22:56Z,b60275e29fe2361ab97ac0ac217840d7,"Mozilla/5.0 (Windows NT 10.0; Win64; x64) AppleWebKit/537.36 (KHTML, like Gecko) Chrome/134.0.0.0 Safari/537.36",WebKit,Chrome,134.0.0.0,Windows,10,https://5puzkbbxv1.cognition.run/?sona_id=58078,"en-US,en;q=0.9",q1ld8o8xy18m2yw,20,"[""Asian""]",No,Male,NA,No,248871,NA,1999,NA,"{""product_choice"":""B""}",choice,tcd,trinary,repulsion_B,1,washing machines,null,null,null,null,null,null,1,90,100,80,40,30,40,Average lifespan,Energy savings,NA,NA
NA,NA,NA,NA,NA,choice_trial_setup,html-keyboard-response,36,82847,0.0-4.0-0.16,322,1,2025-05-08T17:22:56Z,b60275e29fe2361ab97ac0ac217840d7,"Mozilla/5.0 (Windows NT 10.0; Win64; x64) AppleWebKit/537.36 (KHTML, like Gecko) Chrome/134.0.0.0 Safari/537.36",WebKit,Chrome,134.0.0.0,Windows,10,https://5puzkbbxv1.cognition.run/?sona_id=58078,"en-US,en;q=0.9",q1ld8o8xy18m2yw,20,"[""Asian""]",No,Male,NA,No,248871,NA,null,<p></p>,null,choice,wb,binary,catch,null,televisions,55,95,45,40,null,null,2,NA,NA,NA,NA,NA,NA,NA,NA,NA,NA
NA,NA,NA,NA,NA,choice_trial,survey-html-form,37,83937,0.0-4.0-1.16,322,1,2025-05-08T17:22:56Z,b60275e29fe2361ab97ac0ac217840d7,"Mozilla/5.0 (Windows NT 10.0; Win64; x64) AppleWebKit/537.36 (KHTML, like Gecko) Chrome/134.0.0.0 Safari/537.36",WebKit,Chrome,134.0.0.0,Windows,10,https://5puzkbbxv1.cognition.run/?sona_id=58078,"en-US,en;q=0.9",q1ld8o8xy18m2yw,20,"[""Asian""]",No,Male,NA,No,248871,NA,1086,NA,"{""product_choice"":""A""}",choice,wb,binary,catch,null,televisions,55,95,45,40,null,null,2,null,null,null,null,null,null,Screen size,Average lifespan,NA,NA
NA,NA,NA,NA,NA,choice_trial_setup,html-keyboard-response,38,84240,0.0-4.0-0.17,322,1,2025-05-08T17:22:56Z,b60275e29fe2361ab97ac0ac217840d7,"Mozilla/5.0 (Windows NT 10.0; Win64; x64) AppleWebKit/537.36 (KHTML, like Gecko) Chrome/134.0.0.0 Safari/537.36",WebKit,Chrome,134.0.0.0,Windows,10,https://5puzkbbxv1.cognition.run/?sona_id=58078,"en-US,en;q=0.9",q1ld8o8xy18m2yw,20,"[""Asian""]",No,Male,NA,No,248871,NA,null,<p></p>,null,choice,bw,binary,catch,null,microwave ovens,75,75,15,20,null,null,2,NA,NA,NA,NA,NA,NA,NA,NA,NA,NA
NA,NA,NA,NA,NA,choice_trial,survey-html-form,39,88038,0.0-4.0-1.17,322,1,2025-05-08T17:22:56Z,b60275e29fe2361ab97ac0ac217840d7,"Mozilla/5.0 (Windows NT 10.0; Win64; x64) AppleWebKit/537.36 (KHTML, like Gecko) Chrome/134.0.0.0 Safari/537.36",WebKit,Chrome,134.0.0.0,Windows,10,https://5puzkbbxv1.cognition.run/?sona_id=58078,"en-US,en;q=0.9",q1ld8o8xy18m2yw,20,"[""Asian""]",No,Male,NA,No,248871,NA,3795,NA,"{""product_choice"":""A""}",choice,bw,binary,catch,null,microwave ovens,75,75,15,20,null,null,2,null,null,null,null,null,null,Warranty,Cooking power,NA,NA
NA,NA,NA,NA,NA,choice_trial_setup,html-keyboard-response,40,88351,0.0-4.0-0.18,322,1,2025-05-08T17:22:56Z,b60275e29fe2361ab97ac0ac217840d7,"Mozilla/5.0 (Windows NT 10.0; Win64; x64) AppleWebKit/537.36 (KHTML, like Gecko) Chrome/134.0.0.0 Safari/537.36",WebKit,Chrome,134.0.0.0,Windows,10,https://5puzkbbxv1.cognition.run/?sona_id=58078,"en-US,en;q=0.9",q1ld8o8xy18m2yw,20,"[""Asian""]",No,Male,NA,No,248871,NA,null,<p></p>,null,choice,ct,binary,repulsion,2,televisions,null,null,null,null,null,null,2,NA,NA,NA,NA,NA,NA,NA,NA,NA,NA
NA,NA,NA,NA,NA,choice_trial,survey-html-form,41,93899,0.0-4.0-1.18,322,1,2025-05-08T17:22:56Z,b60275e29fe2361ab97ac0ac217840d7,"Mozilla/5.0 (Windows NT 10.0; Win64; x64) AppleWebKit/537.36 (KHTML, like Gecko) Chrome/134.0.0.0 Safari/537.36",WebKit,Chrome,134.0.0.0,Windows,10,https://5puzkbbxv1.cognition.run/?sona_id=58078,"en-US,en;q=0.9",q1ld8o8xy18m2yw,20,"[""Asian""]",No,Male,NA,No,248871,NA,5546,NA,"{""product_choice"":""B""}",choice,ct,binary,repulsion,2,televisions,null,null,null,null,null,null,2,30,40,null,100,90,null,Screen size,Average lifespan,NA,NA
NA,NA,NA,NA,NA,choice_trial_setup,html-keyboard-response,42,94204,0.0-4.0-0.19,322,1,2025-05-08T17:22:56Z,b60275e29fe2361ab97ac0ac217840d7,"Mozilla/5.0 (Windows NT 10.0; Win64; x64) AppleWebKit/537.36 (KHTML, like Gecko) Chrome/134.0.0.0 Safari/537.36",WebKit,Chrome,134.0.0.0,Windows,10,https://5puzkbbxv1.cognition.run/?sona_id=58078,"en-US,en;q=0.9",q1ld8o8xy18m2yw,20,"[""Asian""]",No,Male,NA,No,248871,NA,null,<p></p>,null,choice,ct,binary,attraction,NA,laptops,null,null,null,null,null,null,1,NA,NA,NA,NA,NA,NA,NA,NA,NA,NA
NA,NA,NA,NA,NA,choice_trial,survey-html-form,43,96222,0.0-4.0-1.19,322,1,2025-05-08T17:22:56Z,b60275e29fe2361ab97ac0ac217840d7,"Mozilla/5.0 (Windows NT 10.0; Win64; x64) AppleWebKit/537.36 (KHTML, like Gecko) Chrome/134.0.0.0 Safari/537.36",WebKit,Chrome,134.0.0.0,Windows,10,https://5puzkbbxv1.cognition.run/?sona_id=58078,"en-US,en;q=0.9",q1ld8o8xy18m2yw,20,"[""Asian""]",No,Male,NA,No,248871,NA,2015,NA,"{""product_choice"":""B""}",choice,ct,binary,attraction,NA,laptops,null,null,null,null,null,null,1,60,50,null,50,60,null,Processing speed,Memory (RAM),NA,NA
NA,NA,NA,NA,NA,choice_trial_setup,html-keyboard-response,44,96528,0.0-4.0-0.20,322,1,2025-05-08T17:22:56Z,b60275e29fe2361ab97ac0ac217840d7,"Mozilla/5.0 (Windows NT 10.0; Win64; x64) AppleWebKit/537.36 (KHTML, like Gecko) Chrome/134.0.0.0 Safari/537.36",WebKit,Chrome,134.0.0.0,Windows,10,https://5puzkbbxv1.cognition.run/?sona_id=58078,"en-US,en;q=0.9",q1ld8o8xy18m2yw,20,"[""Asian""]",No,Male,NA,No,248871,NA,null,<p></p>,null,choice,bww,trinary,catch,null,microwave ovens,80,75,15,5,45,10,2,NA,NA,NA,NA,NA,NA,NA,NA,NA,NA
NA,NA,NA,NA,NA,choice_trial,survey-html-form,45,99843,0.0-4.0-1.20,322,1,2025-05-08T17:22:56Z,b60275e29fe2361ab97ac0ac217840d7,"Mozilla/5.0 (Windows NT 10.0; Win64; x64) AppleWebKit/537.36 (KHTML, like Gecko) Chrome/134.0.0.0 Safari/537.36",WebKit,Chrome,134.0.0.0,Windows,10,https://5puzkbbxv1.cognition.run/?sona_id=58078,"en-US,en;q=0.9",q1ld8o8xy18m2yw,20,"[""Asian""]",No,Male,NA,No,248871,NA,3309,NA,"{""product_choice"":""A""}",choice,bww,trinary,catch,null,microwave ovens,80,75,15,5,45,10,2,null,null,null,null,null,null,Warranty,Cooking power,NA,NA
NA,NA,NA,NA,NA,choice_trial_setup,html-keyboard-response,46,100155,0.0-4.0-0.21,322,1,2025-05-08T17:22:56Z,b60275e29fe2361ab97ac0ac217840d7,"Mozilla/5.0 (Windows NT 10.0; Win64; x64) AppleWebKit/537.36 (KHTML, like Gecko) Chrome/134.0.0.0 Safari/537.36",WebKit,Chrome,134.0.0.0,Windows,10,https://5puzkbbxv1.cognition.run/?sona_id=58078,"en-US,en;q=0.9",q1ld8o8xy18m2yw,20,"[""Asian""]",No,Male,NA,No,248871,NA,null,<p></p>,null,choice,tcd,trinary,repulsion_B,2,laptops,null,null,null,null,null,null,2,NA,NA,NA,NA,NA,NA,NA,NA,NA,NA
NA,NA,NA,NA,NA,choice_trial,survey-html-form,47,104104,0.0-4.0-1.21,322,1,2025-05-08T17:22:56Z,b60275e29fe2361ab97ac0ac217840d7,"Mozilla/5.0 (Windows NT 10.0; Win64; x64) AppleWebKit/537.36 (KHTML, like Gecko) Chrome/134.0.0.0 Safari/537.36",WebKit,Chrome,134.0.0.0,Windows,10,https://5puzkbbxv1.cognition.run/?sona_id=58078,"en-US,en;q=0.9",q1ld8o8xy18m2yw,20,"[""Asian""]",No,Male,NA,No,248871,NA,3943,NA,"{""product_choice"":""A""}",choice,tcd,trinary,repulsion_B,2,laptops,null,null,null,null,null,null,2,40,30,40,90,100,80,Processing speed,Memory (RAM),NA,NA
NA,NA,NA,NA,NA,choice_trial_setup,html-keyboard-response,48,104411,0.0-4.0-0.22,322,1,2025-05-08T17:22:56Z,b60275e29fe2361ab97ac0ac217840d7,"Mozilla/5.0 (Windows NT 10.0; Win64; x64) AppleWebKit/537.36 (KHTML, like Gecko) Chrome/134.0.0.0 Safari/537.36",WebKit,Chrome,134.0.0.0,Windows,10,https://5puzkbbxv1.cognition.run/?sona_id=58078,"en-US,en;q=0.9",q1ld8o8xy18m2yw,20,"[""Asian""]",No,Male,NA,No,248871,NA,null,<p></p>,null,choice,dtc,trinary,repulsion_B,2,televisions,null,null,null,null,null,null,2,NA,NA,NA,NA,NA,NA,NA,NA,NA,NA
NA,NA,NA,NA,NA,choice_trial,survey-html-form,49,108518,0.0-4.0-1.22,322,1,2025-05-08T17:22:56Z,b60275e29fe2361ab97ac0ac217840d7,"Mozilla/5.0 (Windows NT 10.0; Win64; x64) AppleWebKit/537.36 (KHTML, like Gecko) Chrome/134.0.0.0 Safari/537.36",WebKit,Chrome,134.0.0.0,Windows,10,https://5puzkbbxv1.cognition.run/?sona_id=58078,"en-US,en;q=0.9",q1ld8o8xy18m2yw,20,"[""Asian""]",No,Male,NA,No,248871,NA,4102,NA,"{""product_choice"":""B""}",choice,dtc,trinary,repulsion_B,2,televisions,null,null,null,null,null,null,2,40,30,40,90,100,80,Screen size,Average lifespan,NA,NA
NA,NA,NA,NA,NA,choice_trial_setup,html-keyboard-response,50,108829,0.0-4.0-0.23,322,1,2025-05-08T17:22:56Z,b60275e29fe2361ab97ac0ac217840d7,"Mozilla/5.0 (Windows NT 10.0; Win64; x64) AppleWebKit/537.36 (KHTML, like Gecko) Chrome/134.0.0.0 Safari/537.36",WebKit,Chrome,134.0.0.0,Windows,10,https://5puzkbbxv1.cognition.run/?sona_id=58078,"en-US,en;q=0.9",q1ld8o8xy18m2yw,20,"[""Asian""]",No,Male,NA,No,248871,NA,null,<p></p>,null,choice,dct,trinary,attraction,1,televisions,null,null,null,null,null,null,2,NA,NA,NA,NA,NA,NA,NA,NA,NA,NA
NA,NA,NA,NA,NA,choice_trial,survey-html-form,51,111822,0.0-4.0-1.23,322,1,2025-05-08T17:22:56Z,b60275e29fe2361ab97ac0ac217840d7,"Mozilla/5.0 (Windows NT 10.0; Win64; x64) AppleWebKit/537.36 (KHTML, like Gecko) Chrome/134.0.0.0 Safari/537.36",WebKit,Chrome,134.0.0.0,Windows,10,https://5puzkbbxv1.cognition.run/?sona_id=58078,"en-US,en;q=0.9",q1ld8o8xy18m2yw,20,"[""Asian""]",No,Male,NA,No,248871,NA,2987,NA,"{""product_choice"":""B""}",choice,dct,trinary,attraction,1,televisions,null,null,null,null,null,null,2,60,50,60,50,60,40,Screen size,Average lifespan,NA,NA
NA,NA,NA,NA,NA,choice_trial_setup,html-keyboard-response,52,112126,0.0-4.0-0.24,322,1,2025-05-08T17:22:56Z,b60275e29fe2361ab97ac0ac217840d7,"Mozilla/5.0 (Windows NT 10.0; Win64; x64) AppleWebKit/537.36 (KHTML, like Gecko) Chrome/134.0.0.0 Safari/537.36",WebKit,Chrome,134.0.0.0,Windows,10,https://5puzkbbxv1.cognition.run/?sona_id=58078,"en-US,en;q=0.9",q1ld8o8xy18m2yw,20,"[""Asian""]",No,Male,NA,No,248871,NA,null,<p></p>,null,choice,ct,binary,repulsion,1,microwave ovens,null,null,null,null,null,null,2,NA,NA,NA,NA,NA,NA,NA,NA,NA,NA
NA,NA,NA,NA,NA,choice_trial,survey-html-form,53,114287,0.0-4.0-1.24,322,1,2025-05-08T17:22:56Z,b60275e29fe2361ab97ac0ac217840d7,"Mozilla/5.0 (Windows NT 10.0; Win64; x64) AppleWebKit/537.36 (KHTML, like Gecko) Chrome/134.0.0.0 Safari/537.36",WebKit,Chrome,134.0.0.0,Windows,10,https://5puzkbbxv1.cognition.run/?sona_id=58078,"en-US,en;q=0.9",q1ld8o8xy18m2yw,20,"[""Asian""]",No,Male,NA,No,248871,NA,2157,NA,"{""product_choice"":""A""}",choice,ct,binary,repulsion,1,microwave ovens,null,null,null,null,null,null,2,100,90,null,30,40,null,Warranty,Cooking power,NA,NA
NA,NA,NA,NA,NA,choice_trial_setup,html-keyboard-response,54,114605,0.0-4.0-0.25,322,1,2025-05-08T17:22:56Z,b60275e29fe2361ab97ac0ac217840d7,"Mozilla/5.0 (Windows NT 10.0; Win64; x64) AppleWebKit/537.36 (KHTML, like Gecko) Chrome/134.0.0.0 Safari/537.36",WebKit,Chrome,134.0.0.0,Windows,10,https://5puzkbbxv1.cognition.run/?sona_id=58078,"en-US,en;q=0.9",q1ld8o8xy18m2yw,20,"[""Asian""]",No,Male,NA,No,248871,NA,null,<p></p>,null,choice,ctd,trinary,repulsion_A,2,televisions,null,null,null,null,null,null,2,NA,NA,NA,NA,NA,NA,NA,NA,NA,NA
NA,NA,NA,NA,NA,choice_trial,survey-html-form,55,121441,0.0-4.0-1.25,322,1,2025-05-08T17:22:56Z,b60275e29fe2361ab97ac0ac217840d7,"Mozilla/5.0 (Windows NT 10.0; Win64; x64) AppleWebKit/537.36 (KHTML, like Gecko) Chrome/134.0.0.0 Safari/537.36",WebKit,Chrome,134.0.0.0,Windows,10,https://5puzkbbxv1.cognition.run/?sona_id=58078,"en-US,en;q=0.9",q1ld8o8xy18m2yw,20,"[""Asian""]",No,Male,NA,No,248871,NA,6829,NA,"{""product_choice"":""A""}",choice,ctd,trinary,repulsion_A,2,televisions,null,null,null,null,null,null,2,30,40,20,100,90,100,Screen size,Average lifespan,NA,NA
NA,NA,NA,NA,NA,choice_trial_setup,html-keyboard-response,56,121746,0.0-4.0-0.26,322,1,2025-05-08T17:22:56Z,b60275e29fe2361ab97ac0ac217840d7,"Mozilla/5.0 (Windows NT 10.0; Win64; x64) AppleWebKit/537.36 (KHTML, like Gecko) Chrome/134.0.0.0 Safari/537.36",WebKit,Chrome,134.0.0.0,Windows,10,https://5puzkbbxv1.cognition.run/?sona_id=58078,"en-US,en;q=0.9",q1ld8o8xy18m2yw,20,"[""Asian""]",No,Male,NA,No,248871,NA,null,<p></p>,null,choice,tcd,trinary,attraction,1,laptops,null,null,null,null,null,null,2,NA,NA,NA,NA,NA,NA,NA,NA,NA,NA
NA,NA,NA,NA,NA,choice_trial,survey-html-form,57,127930,0.0-4.0-1.26,322,1,2025-05-08T17:22:56Z,b60275e29fe2361ab97ac0ac217840d7,"Mozilla/5.0 (Windows NT 10.0; Win64; x64) AppleWebKit/537.36 (KHTML, like Gecko) Chrome/134.0.0.0 Safari/537.36",WebKit,Chrome,134.0.0.0,Windows,10,https://5puzkbbxv1.cognition.run/?sona_id=58078,"en-US,en;q=0.9",q1ld8o8xy18m2yw,20,"[""Asian""]",No,Male,NA,No,248871,NA,6180,NA,"{""product_choice"":""A""}",choice,tcd,trinary,attraction,1,laptops,null,null,null,null,null,null,2,60,50,60,50,60,40,Processing speed,Memory (RAM),NA,NA
NA,NA,NA,NA,NA,choice_trial_setup,html-keyboard-response,58,128243,0.0-4.0-0.27,322,1,2025-05-08T17:22:56Z,b60275e29fe2361ab97ac0ac217840d7,"Mozilla/5.0 (Windows NT 10.0; Win64; x64) AppleWebKit/537.36 (KHTML, like Gecko) Chrome/134.0.0.0 Safari/537.36",WebKit,Chrome,134.0.0.0,Windows,10,https://5puzkbbxv1.cognition.run/?sona_id=58078,"en-US,en;q=0.9",q1ld8o8xy18m2yw,20,"[""Asian""]",No,Male,NA,No,248871,NA,null,<p></p>,null,choice,ct,binary,repulsion,1,washing machines,null,null,null,null,null,null,1,NA,NA,NA,NA,NA,NA,NA,NA,NA,NA
NA,NA,NA,NA,NA,choice_trial,survey-html-form,59,131039,0.0-4.0-1.27,322,1,2025-05-08T17:22:56Z,b60275e29fe2361ab97ac0ac217840d7,"Mozilla/5.0 (Windows NT 10.0; Win64; x64) AppleWebKit/537.36 (KHTML, like Gecko) Chrome/134.0.0.0 Safari/537.36",WebKit,Chrome,134.0.0.0,Windows,10,https://5puzkbbxv1.cognition.run/?sona_id=58078,"en-US,en;q=0.9",q1ld8o8xy18m2yw,20,"[""Asian""]",No,Male,NA,No,248871,NA,2793,NA,"{""product_choice"":""A""}",choice,ct,binary,repulsion,1,washing machines,null,null,null,null,null,null,1,100,90,null,30,40,null,Average lifespan,Energy savings,NA,NA
NA,NA,NA,NA,NA,choice_trial_setup,html-keyboard-response,60,131346,0.0-4.0-0.28,322,1,2025-05-08T17:22:56Z,b60275e29fe2361ab97ac0ac217840d7,"Mozilla/5.0 (Windows NT 10.0; Win64; x64) AppleWebKit/537.36 (KHTML, like Gecko) Chrome/134.0.0.0 Safari/537.36",WebKit,Chrome,134.0.0.0,Windows,10,https://5puzkbbxv1.cognition.run/?sona_id=58078,"en-US,en;q=0.9",q1ld8o8xy18m2yw,20,"[""Asian""]",No,Male,NA,No,248871,NA,null,<p></p>,null,choice,tc,binary,repulsion,2,microwave ovens,null,null,null,null,null,null,1,NA,NA,NA,NA,NA,NA,NA,NA,NA,NA
NA,NA,NA,NA,NA,choice_trial,survey-html-form,61,135226,0.0-4.0-1.28,322,1,2025-05-08T17:22:56Z,b60275e29fe2361ab97ac0ac217840d7,"Mozilla/5.0 (Windows NT 10.0; Win64; x64) AppleWebKit/537.36 (KHTML, like Gecko) Chrome/134.0.0.0 Safari/537.36",WebKit,Chrome,134.0.0.0,Windows,10,https://5puzkbbxv1.cognition.run/?sona_id=58078,"en-US,en;q=0.9",q1ld8o8xy18m2yw,20,"[""Asian""]",No,Male,NA,No,248871,NA,3875,NA,"{""product_choice"":""A""}",choice,tc,binary,repulsion,2,microwave ovens,null,null,null,null,null,null,1,30,40,null,100,90,null,Warranty,Cooking power,NA,NA
NA,NA,NA,NA,NA,choice_trial_setup,html-keyboard-response,62,135533,0.0-4.0-0.29,322,1,2025-05-08T17:22:56Z,b60275e29fe2361ab97ac0ac217840d7,"Mozilla/5.0 (Windows NT 10.0; Win64; x64) AppleWebKit/537.36 (KHTML, like Gecko) Chrome/134.0.0.0 Safari/537.36",WebKit,Chrome,134.0.0.0,Windows,10,https://5puzkbbxv1.cognition.run/?sona_id=58078,"en-US,en;q=0.9",q1ld8o8xy18m2yw,20,"[""Asian""]",No,Male,NA,No,248871,NA,null,<p></p>,null,choice,ctd,trinary,repulsion_A,1,microwave ovens,null,null,null,null,null,null,2,NA,NA,NA,NA,NA,NA,NA,NA,NA,NA
NA,NA,NA,NA,NA,choice_trial,survey-html-form,63,139305,0.0-4.0-1.29,322,1,2025-05-08T17:22:56Z,b60275e29fe2361ab97ac0ac217840d7,"Mozilla/5.0 (Windows NT 10.0; Win64; x64) AppleWebKit/537.36 (KHTML, like Gecko) Chrome/134.0.0.0 Safari/537.36",WebKit,Chrome,134.0.0.0,Windows,10,https://5puzkbbxv1.cognition.run/?sona_id=58078,"en-US,en;q=0.9",q1ld8o8xy18m2yw,20,"[""Asian""]",No,Male,NA,No,248871,NA,3769,NA,"{""product_choice"":""B""}",choice,ctd,trinary,repulsion_A,1,microwave ovens,null,null,null,null,null,null,2,100,90,100,30,40,20,Warranty,Cooking power,NA,NA
NA,NA,NA,NA,NA,choice_trial_setup,html-keyboard-response,64,139611,0.0-4.0-0.30,322,1,2025-05-08T17:22:56Z,b60275e29fe2361ab97ac0ac217840d7,"Mozilla/5.0 (Windows NT 10.0; Win64; x64) AppleWebKit/537.36 (KHTML, like Gecko) Chrome/134.0.0.0 Safari/537.36",WebKit,Chrome,134.0.0.0,Windows,10,https://5puzkbbxv1.cognition.run/?sona_id=58078,"en-US,en;q=0.9",q1ld8o8xy18m2yw,20,"[""Asian""]",No,Male,NA,No,248871,NA,null,<p></p>,null,choice,ctd,trinary,repulsion_B,2,microwave ovens,null,null,null,null,null,null,1,NA,NA,NA,NA,NA,NA,NA,NA,NA,NA
NA,NA,NA,NA,NA,choice_trial,survey-html-form,65,141911,0.0-4.0-1.30,322,1,2025-05-08T17:22:56Z,b60275e29fe2361ab97ac0ac217840d7,"Mozilla/5.0 (Windows NT 10.0; Win64; x64) AppleWebKit/537.36 (KHTML, like Gecko) Chrome/134.0.0.0 Safari/537.36",WebKit,Chrome,134.0.0.0,Windows,10,https://5puzkbbxv1.cognition.run/?sona_id=58078,"en-US,en;q=0.9",q1ld8o8xy18m2yw,20,"[""Asian""]",No,Male,NA,No,248871,NA,2295,NA,"{""product_choice"":""B""}",choice,ctd,trinary,repulsion_B,2,microwave ovens,null,null,null,null,null,null,1,40,30,40,90,100,80,Warranty,Cooking power,NA,NA
NA,NA,NA,NA,NA,choice_trial_setup,html-keyboard-response,66,142220,0.0-4.0-0.31,322,1,2025-05-08T17:22:56Z,b60275e29fe2361ab97ac0ac217840d7,"Mozilla/5.0 (Windows NT 10.0; Win64; x64) AppleWebKit/537.36 (KHTML, like Gecko) Chrome/134.0.0.0 Safari/537.36",WebKit,Chrome,134.0.0.0,Windows,10,https://5puzkbbxv1.cognition.run/?sona_id=58078,"en-US,en;q=0.9",q1ld8o8xy18m2yw,20,"[""Asian""]",No,Male,NA,No,248871,NA,null,<p></p>,null,choice,bw,binary,catch,null,laptops,65,95,5,50,null,null,2,NA,NA,NA,NA,NA,NA,NA,NA,NA,NA
NA,NA,NA,NA,NA,choice_trial,survey-html-form,67,144329,0.0-4.0-1.31,322,1,2025-05-08T17:22:56Z,b60275e29fe2361ab97ac0ac217840d7,"Mozilla/5.0 (Windows NT 10.0; Win64; x64) AppleWebKit/537.36 (KHTML, like Gecko) Chrome/134.0.0.0 Safari/537.36",WebKit,Chrome,134.0.0.0,Windows,10,https://5puzkbbxv1.cognition.run/?sona_id=58078,"en-US,en;q=0.9",q1ld8o8xy18m2yw,20,"[""Asian""]",No,Male,NA,No,248871,NA,2105,NA,"{""product_choice"":""A""}",choice,bw,binary,catch,null,laptops,65,95,5,50,null,null,2,null,null,null,null,null,null,Processing speed,Memory (RAM),NA,NA
NA,NA,NA,NA,NA,choice_trial_setup,html-keyboard-response,68,144642,0.0-4.0-0.32,322,1,2025-05-08T17:22:56Z,b60275e29fe2361ab97ac0ac217840d7,"Mozilla/5.0 (Windows NT 10.0; Win64; x64) AppleWebKit/537.36 (KHTML, like Gecko) Chrome/134.0.0.0 Safari/537.36",WebKit,Chrome,134.0.0.0,Windows,10,https://5puzkbbxv1.cognition.run/?sona_id=58078,"en-US,en;q=0.9",q1ld8o8xy18m2yw,20,"[""Asian""]",No,Male,NA,No,248871,NA,null,<p></p>,null,choice,tc,binary,attraction,NA,televisions,null,null,null,null,null,null,2,NA,NA,NA,NA,NA,NA,NA,NA,NA,NA
NA,NA,NA,NA,NA,choice_trial,survey-html-form,69,147503,0.0-4.0-1.32,322,1,2025-05-08T17:22:56Z,b60275e29fe2361ab97ac0ac217840d7,"Mozilla/5.0 (Windows NT 10.0; Win64; x64) AppleWebKit/537.36 (KHTML, like Gecko) Chrome/134.0.0.0 Safari/537.36",WebKit,Chrome,134.0.0.0,Windows,10,https://5puzkbbxv1.cognition.run/?sona_id=58078,"en-US,en;q=0.9",q1ld8o8xy18m2yw,20,"[""Asian""]",No,Male,NA,No,248871,NA,2855,NA,"{""product_choice"":""B""}",choice,tc,binary,attraction,NA,televisions,null,null,null,null,null,null,2,60,50,null,50,60,null,Screen size,Average lifespan,NA,NA
NA,NA,NA,NA,NA,choice_trial_setup,html-keyboard-response,70,147818,0.0-4.0-0.33,322,1,2025-05-08T17:22:56Z,b60275e29fe2361ab97ac0ac217840d7,"Mozilla/5.0 (Windows NT 10.0; Win64; x64) AppleWebKit/537.36 (KHTML, like Gecko) Chrome/134.0.0.0 Safari/537.36",WebKit,Chrome,134.0.0.0,Windows,10,https://5puzkbbxv1.cognition.run/?sona_id=58078,"en-US,en;q=0.9",q1ld8o8xy18m2yw,20,"[""Asian""]",No,Male,NA,No,248871,NA,null,<p></p>,null,choice,dct,trinary,repulsion_A,2,microwave ovens,null,null,null,null,null,null,2,NA,NA,NA,NA,NA,NA,NA,NA,NA,NA
NA,NA,NA,NA,NA,choice_trial,survey-html-form,71,155031,0.0-4.0-1.33,322,1,2025-05-08T17:22:56Z,b60275e29fe2361ab97ac0ac217840d7,"Mozilla/5.0 (Windows NT 10.0; Win64; x64) AppleWebKit/537.36 (KHTML, like Gecko) Chrome/134.0.0.0 Safari/537.36",WebKit,Chrome,134.0.0.0,Windows,10,https://5puzkbbxv1.cognition.run/?sona_id=58078,"en-US,en;q=0.9",q1ld8o8xy18m2yw,20,"[""Asian""]",No,Male,NA,No,248871,NA,7204,NA,"{""product_choice"":""C""}",choice,dct,trinary,repulsion_A,2,microwave ovens,null,null,null,null,null,null,2,30,40,20,100,90,100,Warranty,Cooking power,NA,NA
NA,NA,NA,NA,NA,choice_trial_setup,html-keyboard-response,72,155338,0.0-4.0-0.34,322,1,2025-05-08T17:22:56Z,b60275e29fe2361ab97ac0ac217840d7,"Mozilla/5.0 (Windows NT 10.0; Win64; x64) AppleWebKit/537.36 (KHTML, like Gecko) Chrome/134.0.0.0 Safari/537.36",WebKit,Chrome,134.0.0.0,Windows,10,https://5puzkbbxv1.cognition.run/?sona_id=58078,"en-US,en;q=0.9",q1ld8o8xy18m2yw,20,"[""Asian""]",No,Male,NA,No,248871,NA,null,<p></p>,null,choice,cdt,trinary,repulsion_A,1,laptops,null,null,null,null,null,null,1,NA,NA,NA,NA,NA,NA,NA,NA,NA,NA
NA,NA,NA,NA,NA,choice_trial,survey-html-form,73,157959,0.0-4.0-1.34,322,1,2025-05-08T17:22:56Z,b60275e29fe2361ab97ac0ac217840d7,"Mozilla/5.0 (Windows NT 10.0; Win64; x64) AppleWebKit/537.36 (KHTML, like Gecko) Chrome/134.0.0.0 Safari/537.36",WebKit,Chrome,134.0.0.0,Windows,10,https://5puzkbbxv1.cognition.run/?sona_id=58078,"en-US,en;q=0.9",q1ld8o8xy18m2yw,20,"[""Asian""]",No,Male,NA,No,248871,NA,2614,NA,"{""product_choice"":""C""}",choice,cdt,trinary,repulsion_A,1,laptops,null,null,null,null,null,null,1,100,90,100,30,40,20,Processing speed,Memory (RAM),NA,NA
NA,NA,NA,NA,NA,choice_trial_setup,html-keyboard-response,74,158269,0.0-4.0-0.35,322,1,2025-05-08T17:22:56Z,b60275e29fe2361ab97ac0ac217840d7,"Mozilla/5.0 (Windows NT 10.0; Win64; x64) AppleWebKit/537.36 (KHTML, like Gecko) Chrome/134.0.0.0 Safari/537.36",WebKit,Chrome,134.0.0.0,Windows,10,https://5puzkbbxv1.cognition.run/?sona_id=58078,"en-US,en;q=0.9",q1ld8o8xy18m2yw,20,"[""Asian""]",No,Male,NA,No,248871,NA,null,<p></p>,null,choice,ctd,trinary,attraction,1,microwave ovens,null,null,null,null,null,null,2,NA,NA,NA,NA,NA,NA,NA,NA,NA,NA
NA,NA,NA,NA,NA,choice_trial,survey-html-form,75,162118,0.0-4.0-1.35,322,1,2025-05-08T17:22:56Z,b60275e29fe2361ab97ac0ac217840d7,"Mozilla/5.0 (Windows NT 10.0; Win64; x64) AppleWebKit/537.36 (KHTML, like Gecko) Chrome/134.0.0.0 Safari/537.36",WebKit,Chrome,134.0.0.0,Windows,10,https://5puzkbbxv1.cognition.run/?sona_id=58078,"en-US,en;q=0.9",q1ld8o8xy18m2yw,20,"[""Asian""]",No,Male,NA,No,248871,NA,3843,NA,"{""product_choice"":""B""}",choice,ctd,trinary,attraction,1,microwave ovens,null,null,null,null,null,null,2,60,50,60,50,60,40,Warranty,Cooking power,NA,NA
NA,NA,NA,NA,NA,choice_trial_setup,html-keyboard-response,76,162437,0.0-4.0-0.36,322,1,2025-05-08T17:22:56Z,b60275e29fe2361ab97ac0ac217840d7,"Mozilla/5.0 (Windows NT 10.0; Win64; x64) AppleWebKit/537.36 (KHTML, like Gecko) Chrome/134.0.0.0 Safari/537.36",WebKit,Chrome,134.0.0.0,Windows,10,https://5puzkbbxv1.cognition.run/?sona_id=58078,"en-US,en;q=0.9",q1ld8o8xy18m2yw,20,"[""Asian""]",No,Male,NA,No,248871,NA,null,<p></p>,null,choice,dtc,trinary,attraction,2,televisions,null,null,null,null,null,null,2,NA,NA,NA,NA,NA,NA,NA,NA,NA,NA
NA,NA,NA,NA,NA,choice_trial,survey-html-form,77,166758,0.0-4.0-1.36,322,1,2025-05-08T17:22:56Z,b60275e29fe2361ab97ac0ac217840d7,"Mozilla/5.0 (Windows NT 10.0; Win64; x64) AppleWebKit/537.36 (KHTML, like Gecko) Chrome/134.0.0.0 Safari/537.36",WebKit,Chrome,134.0.0.0,Windows,10,https://5puzkbbxv1.cognition.run/?sona_id=58078,"en-US,en;q=0.9",q1ld8o8xy18m2yw,20,"[""Asian""]",No,Male,NA,No,248871,NA,4313,NA,"{""product_choice"":""B""}",choice,dtc,trinary,attraction,2,televisions,null,null,null,null,null,null,2,50,60,40,60,50,60,Screen size,Average lifespan,NA,NA
NA,NA,NA,NA,NA,choice_trial_setup,html-keyboard-response,78,167068,0.0-4.0-0.37,322,1,2025-05-08T17:22:56Z,b60275e29fe2361ab97ac0ac217840d7,"Mozilla/5.0 (Windows NT 10.0; Win64; x64) AppleWebKit/537.36 (KHTML, like Gecko) Chrome/134.0.0.0 Safari/537.36",WebKit,Chrome,134.0.0.0,Windows,10,https://5puzkbbxv1.cognition.run/?sona_id=58078,"en-US,en;q=0.9",q1ld8o8xy18m2yw,20,"[""Asian""]",No,Male,NA,No,248871,NA,null,<p></p>,null,choice,tc,binary,repulsion,2,washing machines,null,null,null,null,null,null,2,NA,NA,NA,NA,NA,NA,NA,NA,NA,NA
NA,NA,NA,NA,NA,choice_trial,survey-html-form,79,168561,0.0-4.0-1.37,322,1,2025-05-08T17:22:56Z,b60275e29fe2361ab97ac0ac217840d7,"Mozilla/5.0 (Windows NT 10.0; Win64; x64) AppleWebKit/537.36 (KHTML, like Gecko) Chrome/134.0.0.0 Safari/537.36",WebKit,Chrome,134.0.0.0,Windows,10,https://5puzkbbxv1.cognition.run/?sona_id=58078,"en-US,en;q=0.9",q1ld8o8xy18m2yw,20,"[""Asian""]",No,Male,NA,No,248871,NA,1488,NA,"{""product_choice"":""B""}",choice,tc,binary,repulsion,2,washing machines,null,null,null,null,null,null,2,30,40,null,100,90,null,Average lifespan,Energy savings,NA,NA
NA,NA,NA,NA,NA,choice_trial_setup,html-keyboard-response,80,168871,0.0-4.0-0.38,322,1,2025-05-08T17:22:56Z,b60275e29fe2361ab97ac0ac217840d7,"Mozilla/5.0 (Windows NT 10.0; Win64; x64) AppleWebKit/537.36 (KHTML, like Gecko) Chrome/134.0.0.0 Safari/537.36",WebKit,Chrome,134.0.0.0,Windows,10,https://5puzkbbxv1.cognition.run/?sona_id=58078,"en-US,en;q=0.9",q1ld8o8xy18m2yw,20,"[""Asian""]",No,Male,NA,No,248871,NA,null,<p></p>,null,choice,dct,trinary,repulsion_B,1,televisions,null,null,null,null,null,null,2,NA,NA,NA,NA,NA,NA,NA,NA,NA,NA
NA,NA,NA,NA,NA,choice_trial,survey-html-form,81,170993,0.0-4.0-1.38,322,1,2025-05-08T17:22:56Z,b60275e29fe2361ab97ac0ac217840d7,"Mozilla/5.0 (Windows NT 10.0; Win64; x64) AppleWebKit/537.36 (KHTML, like Gecko) Chrome/134.0.0.0 Safari/537.36",WebKit,Chrome,134.0.0.0,Windows,10,https://5puzkbbxv1.cognition.run/?sona_id=58078,"en-US,en;q=0.9",q1ld8o8xy18m2yw,20,"[""Asian""]",No,Male,NA,No,248871,NA,2117,NA,"{""product_choice"":""C""}",choice,dct,trinary,repulsion_B,1,televisions,null,null,null,null,null,null,2,90,100,80,40,30,40,Screen size,Average lifespan,NA,NA
NA,NA,NA,NA,NA,choice_trial_setup,html-keyboard-response,82,171299,0.0-4.0-0.39,322,1,2025-05-08T17:22:56Z,b60275e29fe2361ab97ac0ac217840d7,"Mozilla/5.0 (Windows NT 10.0; Win64; x64) AppleWebKit/537.36 (KHTML, like Gecko) Chrome/134.0.0.0 Safari/537.36",WebKit,Chrome,134.0.0.0,Windows,10,https://5puzkbbxv1.cognition.run/?sona_id=58078,"en-US,en;q=0.9",q1ld8o8xy18m2yw,20,"[""Asian""]",No,Male,NA,No,248871,NA,null,<p></p>,null,choice,tcd,trinary,repulsion_B,2,washing machines,null,null,null,null,null,null,2,NA,NA,NA,NA,NA,NA,NA,NA,NA,NA
NA,NA,NA,NA,NA,choice_trial,survey-html-form,83,172495,0.0-4.0-1.39,322,1,2025-05-08T17:22:56Z,b60275e29fe2361ab97ac0ac217840d7,"Mozilla/5.0 (Windows NT 10.0; Win64; x64) AppleWebKit/537.36 (KHTML, like Gecko) Chrome/134.0.0.0 Safari/537.36",WebKit,Chrome,134.0.0.0,Windows,10,https://5puzkbbxv1.cognition.run/?sona_id=58078,"en-US,en;q=0.9",q1ld8o8xy18m2yw,20,"[""Asian""]",No,Male,NA,No,248871,NA,1191,NA,"{""product_choice"":""A""}",choice,tcd,trinary,repulsion_B,2,washing machines,null,null,null,null,null,null,2,40,30,40,90,100,80,Average lifespan,Energy savings,NA,NA
NA,NA,NA,NA,NA,choice_trial_setup,html-keyboard-response,84,172804,0.0-4.0-0.40,322,1,2025-05-08T17:22:56Z,b60275e29fe2361ab97ac0ac217840d7,"Mozilla/5.0 (Windows NT 10.0; Win64; x64) AppleWebKit/537.36 (KHTML, like Gecko) Chrome/134.0.0.0 Safari/537.36",WebKit,Chrome,134.0.0.0,Windows,10,https://5puzkbbxv1.cognition.run/?sona_id=58078,"en-US,en;q=0.9",q1ld8o8xy18m2yw,20,"[""Asian""]",No,Male,NA,No,248871,NA,null,<p></p>,null,choice,wb,binary,catch,null,washing machines,90,50,45,35,null,null,2,NA,NA,NA,NA,NA,NA,NA,NA,NA,NA
NA,NA,NA,NA,NA,choice_trial,survey-html-form,85,174066,0.0-4.0-1.40,322,1,2025-05-08T17:22:56Z,b60275e29fe2361ab97ac0ac217840d7,"Mozilla/5.0 (Windows NT 10.0; Win64; x64) AppleWebKit/537.36 (KHTML, like Gecko) Chrome/134.0.0.0 Safari/537.36",WebKit,Chrome,134.0.0.0,Windows,10,https://5puzkbbxv1.cognition.run/?sona_id=58078,"en-US,en;q=0.9",q1ld8o8xy18m2yw,20,"[""Asian""]",No,Male,NA,No,248871,NA,1257,NA,"{""product_choice"":""A""}",choice,wb,binary,catch,null,washing machines,90,50,45,35,null,null,2,null,null,null,null,null,null,Average lifespan,Energy savings,NA,NA
NA,NA,NA,NA,NA,choice_trial_setup,html-keyboard-response,86,174373,0.0-4.0-0.41,322,1,2025-05-08T17:22:56Z,b60275e29fe2361ab97ac0ac217840d7,"Mozilla/5.0 (Windows NT 10.0; Win64; x64) AppleWebKit/537.36 (KHTML, like Gecko) Chrome/134.0.0.0 Safari/537.36",WebKit,Chrome,134.0.0.0,Windows,10,https://5puzkbbxv1.cognition.run/?sona_id=58078,"en-US,en;q=0.9",q1ld8o8xy18m2yw,20,"[""Asian""]",No,Male,NA,No,248871,NA,null,<p></p>,null,choice,wwb,trinary,catch,null,televisions,65,50,45,30,30,5,1,NA,NA,NA,NA,NA,NA,NA,NA,NA,NA
NA,NA,NA,NA,NA,choice_trial,survey-html-form,87,175746,0.0-4.0-1.41,322,1,2025-05-08T17:22:56Z,b60275e29fe2361ab97ac0ac217840d7,"Mozilla/5.0 (Windows NT 10.0; Win64; x64) AppleWebKit/537.36 (KHTML, like Gecko) Chrome/134.0.0.0 Safari/537.36",WebKit,Chrome,134.0.0.0,Windows,10,https://5puzkbbxv1.cognition.run/?sona_id=58078,"en-US,en;q=0.9",q1ld8o8xy18m2yw,20,"[""Asian""]",No,Male,NA,No,248871,NA,1366,NA,"{""product_choice"":""B""}",choice,wwb,trinary,catch,null,televisions,65,50,45,30,30,5,1,null,null,null,null,null,null,Screen size,Average lifespan,NA,NA
NA,NA,NA,NA,NA,choice_trial_setup,html-keyboard-response,88,176058,0.0-4.0-0.42,322,1,2025-05-08T17:22:56Z,b60275e29fe2361ab97ac0ac217840d7,"Mozilla/5.0 (Windows NT 10.0; Win64; x64) AppleWebKit/537.36 (KHTML, like Gecko) Chrome/134.0.0.0 Safari/537.36",WebKit,Chrome,134.0.0.0,Windows,10,https://5puzkbbxv1.cognition.run/?sona_id=58078,"en-US,en;q=0.9",q1ld8o8xy18m2yw,20,"[""Asian""]",No,Male,NA,No,248871,NA,null,<p></p>,null,choice,tcd,trinary,attraction,2,washing machines,null,null,null,null,null,null,2,NA,NA,NA,NA,NA,NA,NA,NA,NA,NA
NA,NA,NA,NA,NA,choice_trial,survey-html-form,89,177403,0.0-4.0-1.42,322,1,2025-05-08T17:22:56Z,b60275e29fe2361ab97ac0ac217840d7,"Mozilla/5.0 (Windows NT 10.0; Win64; x64) AppleWebKit/537.36 (KHTML, like Gecko) Chrome/134.0.0.0 Safari/537.36",WebKit,Chrome,134.0.0.0,Windows,10,https://5puzkbbxv1.cognition.run/?sona_id=58078,"en-US,en;q=0.9",q1ld8o8xy18m2yw,20,"[""Asian""]",No,Male,NA,No,248871,NA,1340,NA,"{""product_choice"":""A""}",choice,tcd,trinary,attraction,2,washing machines,null,null,null,null,null,null,2,50,60,40,60,50,60,Average lifespan,Energy savings,NA,NA
NA,NA,NA,NA,NA,choice_trial_setup,html-keyboard-response,90,177709,0.0-4.0-0.43,322,1,2025-05-08T17:22:56Z,b60275e29fe2361ab97ac0ac217840d7,"Mozilla/5.0 (Windows NT 10.0; Win64; x64) AppleWebKit/537.36 (KHTML, like Gecko) Chrome/134.0.0.0 Safari/537.36",WebKit,Chrome,134.0.0.0,Windows,10,https://5puzkbbxv1.cognition.run/?sona_id=58078,"en-US,en;q=0.9",q1ld8o8xy18m2yw,20,"[""Asian""]",No,Male,NA,No,248871,NA,null,<p></p>,null,choice,ct,binary,repulsion,1,laptops,null,null,null,null,null,null,1,NA,NA,NA,NA,NA,NA,NA,NA,NA,NA
NA,NA,NA,NA,NA,choice_trial,survey-html-form,91,179033,0.0-4.0-1.43,322,1,2025-05-08T17:22:56Z,b60275e29fe2361ab97ac0ac217840d7,"Mozilla/5.0 (Windows NT 10.0; Win64; x64) AppleWebKit/537.36 (KHTML, like Gecko) Chrome/134.0.0.0 Safari/537.36",WebKit,Chrome,134.0.0.0,Windows,10,https://5puzkbbxv1.cognition.run/?sona_id=58078,"en-US,en;q=0.9",q1ld8o8xy18m2yw,20,"[""Asian""]",No,Male,NA,No,248871,NA,1320,NA,"{""product_choice"":""A""}",choice,ct,binary,repulsion,1,laptops,null,null,null,null,null,null,1,100,90,null,30,40,null,Processing speed,Memory (RAM),NA,NA
NA,NA,NA,NA,NA,post_trials_message,html-button-response,92,180280,0.0-5.0,322,1,2025-05-08T17:22:56Z,b60275e29fe2361ab97ac0ac217840d7,"Mozilla/5.0 (Windows NT 10.0; Win64; x64) AppleWebKit/537.36 (KHTML, like Gecko) Chrome/134.0.0.0 Safari/537.36",WebKit,Chrome,134.0.0.0,Windows,10,https://5puzkbbxv1.cognition.run/?sona_id=58078,"en-US,en;q=0.9",q1ld8o8xy18m2yw,20,"[""Asian""]",No,Male,NA,No,248871,NA,1240,<p> <b>Thank you for your patience!</b></p><p>  The study will be done after completing a brief form. </p>,0,NA,NA,NA,NA,NA,NA,NA,NA,NA,NA,NA,NA,NA,NA,NA,NA,NA,NA,NA,NA,NA,NA,NA
NA,NA,NA,NA,NA,survey_message,survey-text,93,206939,0.0-6.0,322,1,2025-05-08T17:22:56Z,b60275e29fe2361ab97ac0ac217840d7,"Mozilla/5.0 (Windows NT 10.0; Win64; x64) AppleWebKit/537.36 (KHTML, like Gecko) Chrome/134.0.0.0 Safari/537.36",WebKit,Chrome,134.0.0.0,Windows,10,https://5puzkbbxv1.cognition.run/?sona_id=58078,"en-US,en;q=0.9",q1ld8o8xy18m2yw,20,"[""Asian""]",No,Male,NA,No,248871,NA,26654,NA,"{""Q0"":""Opp. cost, and where if find value""}",NA,NA,NA,NA,NA,NA,NA,NA,NA,NA,NA,NA,NA,NA,NA,NA,NA,NA,NA,NA,NA,"Opp. cost, and where if find value",NA
NA,NA,NA,NA,NA,demo_age,survey-text,94,208552,0.0-7.0,322,1,2025-05-08T17:22:56Z,b60275e29fe2361ab97ac0ac217840d7,"Mozilla/5.0 (Windows NT 10.0; Win64; x64) AppleWebKit/537.36 (KHTML, like Gecko) Chrome/134.0.0.0 Safari/537.36",WebKit,Chrome,134.0.0.0,Windows,10,https://5puzkbbxv1.cognition.run/?sona_id=58078,"en-US,en;q=0.9",q1ld8o8xy18m2yw,20,"[""Asian""]",No,Male,NA,No,248871,NA,1606,NA,"{""Q0"":""20""}",NA,NA,NA,NA,NA,NA,NA,NA,NA,NA,NA,NA,NA,NA,NA,NA,NA,NA,NA,NA,NA,NA,NA
NA,NA,NA,NA,NA,demo_race,survey-multi-select,95,210582,0.0-8.0,322,1,2025-05-08T17:22:56Z,b60275e29fe2361ab97ac0ac217840d7,"Mozilla/5.0 (Windows NT 10.0; Win64; x64) AppleWebKit/537.36 (KHTML, like Gecko) Chrome/134.0.0.0 Safari/537.36",WebKit,Chrome,134.0.0.0,Windows,10,https://5puzkbbxv1.cognition.run/?sona_id=58078,"en-US,en;q=0.9",q1ld8o8xy18m2yw,20,"[""Asian""]",No,Male,NA,No,248871,NA,2025,NA,"{""Q0"":[""Asian""]}",NA,NA,NA,NA,NA,NA,NA,NA,NA,NA,NA,NA,NA,NA,NA,NA,NA,NA,NA,NA,NA,NA,[0]
NA,NA,NA,NA,NA,demo_ethnicity_gender,survey-multi-choice,96,213914,0.0-9.0,322,1,2025-05-08T17:22:56Z,b60275e29fe2361ab97ac0ac217840d7,"Mozilla/5.0 (Windows NT 10.0; Win64; x64) AppleWebKit/537.36 (KHTML, like Gecko) Chrome/134.0.0.0 Safari/537.36",WebKit,Chrome,134.0.0.0,Windows,10,https://5puzkbbxv1.cognition.run/?sona_id=58078,"en-US,en;q=0.9",q1ld8o8xy18m2yw,20,"[""Asian""]",No,Male,NA,No,248871,NA,3324,NA,"{""Q0"":""No"",""Q1"":""Male""}",NA,NA,NA,NA,NA,NA,NA,NA,NA,NA,NA,NA,NA,NA,NA,NA,NA,NA,NA,NA,NA,NA,"[0,1]"
NA,NA,NA,NA,NA,demo_countries,survey-text,97,217106,0.0-10.0,322,1,2025-05-08T17:22:56Z,b60275e29fe2361ab97ac0ac217840d7,"Mozilla/5.0 (Windows NT 10.0; Win64; x64) AppleWebKit/537.36 (KHTML, like Gecko) Chrome/134.0.0.0 Safari/537.36",WebKit,Chrome,134.0.0.0,Windows,10,https://5puzkbbxv1.cognition.run/?sona_id=58078,"en-US,en;q=0.9",q1ld8o8xy18m2yw,20,"[""Asian""]",No,Male,NA,No,248871,NA,3177,NA,"{""Q0"":""NA""}",NA,NA,NA,NA,NA,NA,NA,NA,NA,NA,NA,NA,NA,NA,NA,NA,NA,NA,NA,NA,NA,NA,NA
NA,NA,NA,NA,NA,demo_prev_study,survey-multi-choice,98,221960,0.0-11.0,322,1,2025-05-08T17:22:56Z,b60275e29fe2361ab97ac0ac217840d7,"Mozilla/5.0 (Windows NT 10.0; Win64; x64) AppleWebKit/537.36 (KHTML, like Gecko) Chrome/134.0.0.0 Safari/537.36",WebKit,Chrome,134.0.0.0,Windows,10,https://5puzkbbxv1.cognition.run/?sona_id=58078,"en-US,en;q=0.9",q1ld8o8xy18m2yw,20,"[""Asian""]",No,Male,NA,No,248871,NA,4849,NA,"{""Q0"":""No""}",NA,NA,NA,NA,NA,NA,NA,NA,NA,NA,NA,NA,NA,NA,NA,NA,NA,NA,NA,NA,NA,NA,[0]
NA,NA,NA,NA,NA,post_survey_message,html-keyboard-response,99,230813,0.0-12.0,322,1,2025-05-08T17:22:56Z,b60275e29fe2361ab97ac0ac217840d7,"Mozilla/5.0 (Windows NT 10.0; Win64; x64) AppleWebKit/537.36 (KHTML, like Gecko) Chrome/134.0.0.0 Safari/537.36",WebKit,Chrome,134.0.0.0,Windows,10,https://5puzkbbxv1.cognition.run/?sona_id=58078,"en-US,en;q=0.9",q1ld8o8xy18m2yw,20,"[""Asian""]",No,Male,NA,No,248871,NA,8846,NA,j,NA,NA,NA,NA,NA,NA,NA,NA,NA,NA,NA,NA,NA,NA,NA,NA,NA,NA,NA,NA,NA,NA,NA
NA,NA,NA,NA,NA,debrief,image-keyboard-response,100,248868,0.0-13.0,322,1,2025-05-08T17:22:56Z,b60275e29fe2361ab97ac0ac217840d7,"Mozilla/5.0 (Windows NT 10.0; Win64; x64) AppleWebKit/537.36 (KHTML, like Gecko) Chrome/134.0.0.0 Safari/537.36",WebKit,Chrome,134.0.0.0,Windows,10,https://5puzkbbxv1.cognition.run/?sona_id=58078,"en-US,en;q=0.9",q1ld8o8xy18m2yw,20,"[""Asian""]",No,Male,NA,No,248871,NA,18046,Judg_choice_debrief.png,p,NA,NA,NA,NA,NA,NA,NA,NA,NA,NA,NA,NA,NA,NA,NA,NA,NA,NA,NA,NA,NA,NA,NA
