success,timeout,failed_images,failed_audio,failed_video,screen_id,trial_type,trial_index,time_elapsed,internal_node_id,run_id,condition,recorded_at,source_code_version,user_agent,device,browser,browser_version,platform,platform_version,referer,accept_language,ppt_id,age,race,ethnicity,gender,other_countries,prev_study,exp_duration,view_history,rt,stimulus,response,phase,order,set,effect,t_high,category,d1_best,d2_best,d1_worst1,d2_worst1,d1_worst2,d2_worst2,first_dim,d1_t,d1_c,d1_d,d2_t,d2_c,d2_d,d1_name,d2_name,strategy_response,question_order
TRUE,FALSE,[],[],[],img preload,preload,0,855,0.0-0.0,323,1,2025-05-08T18:23:56Z,b60275e29fe2361ab97ac0ac217840d7,Mozilla/5.0 (Windows NT 10.0; Win64; x64; rv:138.0) Gecko/20100101 Firefox/138.0,NA,Firefox,138,Windows,10,https://5puzkbbxv1.cognition.run/?sona_id=57055,"en-US,en;q=0.5",zbcrokv6o3cce5p,21,"[""White""]",No,Female,n/a,No,320837,NA,NA,NA,NA,NA,NA,NA,NA,NA,NA,NA,NA,NA,NA,NA,NA,NA,NA,NA,NA,NA,NA,NA,NA,NA,NA,NA
NA,NA,NA,NA,NA,computer_message,instructions,1,2842,0.0-1.0,323,1,2025-05-08T18:23:56Z,b60275e29fe2361ab97ac0ac217840d7,Mozilla/5.0 (Windows NT 10.0; Win64; x64; rv:138.0) Gecko/20100101 Firefox/138.0,NA,Firefox,138,Windows,10,https://5puzkbbxv1.cognition.run/?sona_id=57055,"en-US,en;q=0.5",zbcrokv6o3cce5p,21,"[""White""]",No,Female,n/a,No,320837,"[{""page_index"":0,""viewing_time"":1983}]",1984,NA,NA,NA,NA,NA,NA,NA,NA,NA,NA,NA,NA,NA,NA,NA,NA,NA,NA,NA,NA,NA,NA,NA,NA,NA
TRUE,NA,NA,NA,NA,NA,fullscreen,2,4866,0.0-2.0,323,1,2025-05-08T18:23:56Z,b60275e29fe2361ab97ac0ac217840d7,Mozilla/5.0 (Windows NT 10.0; Win64; x64; rv:138.0) Gecko/20100101 Firefox/138.0,NA,Firefox,138,Windows,10,https://5puzkbbxv1.cognition.run/?sona_id=57055,"en-US,en;q=0.5",zbcrokv6o3cce5p,21,"[""White""]",No,Female,n/a,No,320837,NA,999,NA,NA,NA,NA,NA,NA,NA,NA,NA,NA,NA,NA,NA,NA,NA,NA,NA,NA,NA,NA,NA,NA,NA,NA,NA
NA,NA,NA,NA,NA,choice_instructions,instructions,3,21816,0.0-3.0,323,1,2025-05-08T18:23:56Z,b60275e29fe2361ab97ac0ac217840d7,Mozilla/5.0 (Windows NT 10.0; Win64; x64; rv:138.0) Gecko/20100101 Firefox/138.0,NA,Firefox,138,Windows,10,https://5puzkbbxv1.cognition.run/?sona_id=57055,"en-US,en;q=0.5",zbcrokv6o3cce5p,21,"[""White""]",No,Female,n/a,No,320837,"[{""page_index"":0,""viewing_time"":1152},{""page_index"":1,""viewing_time"":3649},{""page_index"":2,""viewing_time"":1903},{""page_index"":3,""viewing_time"":1177},{""page_index"":4,""viewing_time"":825},{""page_index"":5,""viewing_time"":6464},{""page_index"":6,""viewing_time"":1772}]",16943,NA,NA,NA,NA,NA,NA,NA,NA,NA,NA,NA,NA,NA,NA,NA,NA,NA,NA,NA,NA,NA,NA,NA,NA,NA
NA,NA,NA,NA,NA,choice_trial_setup,html-keyboard-response,4,22129,0.0-4.0-0.0,323,1,2025-05-08T18:23:56Z,b60275e29fe2361ab97ac0ac217840d7,Mozilla/5.0 (Windows NT 10.0; Win64; x64; rv:138.0) Gecko/20100101 Firefox/138.0,NA,Firefox,138,Windows,10,https://5puzkbbxv1.cognition.run/?sona_id=57055,"en-US,en;q=0.5",zbcrokv6o3cce5p,21,"[""White""]",No,Female,n/a,No,320837,NA,null,<p></p>,null,choice,wwb,trinary,catch,null,washing machines,75,90,30,15,35,50,1,NA,NA,NA,NA,NA,NA,NA,NA,NA,NA
NA,NA,NA,NA,NA,choice_trial,survey-html-form,5,33865,0.0-4.0-1.0,323,1,2025-05-08T18:23:56Z,b60275e29fe2361ab97ac0ac217840d7,Mozilla/5.0 (Windows NT 10.0; Win64; x64; rv:138.0) Gecko/20100101 Firefox/138.0,NA,Firefox,138,Windows,10,https://5puzkbbxv1.cognition.run/?sona_id=57055,"en-US,en;q=0.5",zbcrokv6o3cce5p,21,"[""White""]",No,Female,n/a,No,320837,NA,11708,NA,"{""product_choice"":""C""}",choice,wwb,trinary,catch,null,washing machines,75,90,30,15,35,50,1,null,null,null,null,null,null,Average lifespan,Energy savings,NA,NA
NA,NA,NA,NA,NA,choice_trial_setup,html-keyboard-response,6,34171,0.0-4.0-0.1,323,1,2025-05-08T18:23:56Z,b60275e29fe2361ab97ac0ac217840d7,Mozilla/5.0 (Windows NT 10.0; Win64; x64; rv:138.0) Gecko/20100101 Firefox/138.0,NA,Firefox,138,Windows,10,https://5puzkbbxv1.cognition.run/?sona_id=57055,"en-US,en;q=0.5",zbcrokv6o3cce5p,21,"[""White""]",No,Female,n/a,No,320837,NA,null,<p></p>,null,choice,tdc,trinary,repulsion_A,1,washing machines,null,null,null,null,null,null,1,NA,NA,NA,NA,NA,NA,NA,NA,NA,NA
NA,NA,NA,NA,NA,choice_trial,survey-html-form,7,46300,0.0-4.0-1.1,323,1,2025-05-08T18:23:56Z,b60275e29fe2361ab97ac0ac217840d7,Mozilla/5.0 (Windows NT 10.0; Win64; x64; rv:138.0) Gecko/20100101 Firefox/138.0,NA,Firefox,138,Windows,10,https://5puzkbbxv1.cognition.run/?sona_id=57055,"en-US,en;q=0.5",zbcrokv6o3cce5p,21,"[""White""]",No,Female,n/a,No,320837,NA,12125,NA,"{""product_choice"":""A""}",choice,tdc,trinary,repulsion_A,1,washing machines,null,null,null,null,null,null,1,100,90,100,30,40,20,Average lifespan,Energy savings,NA,NA
NA,NA,NA,NA,NA,choice_trial_setup,html-keyboard-response,8,46606,0.0-4.0-0.2,323,1,2025-05-08T18:23:56Z,b60275e29fe2361ab97ac0ac217840d7,Mozilla/5.0 (Windows NT 10.0; Win64; x64; rv:138.0) Gecko/20100101 Firefox/138.0,NA,Firefox,138,Windows,10,https://5puzkbbxv1.cognition.run/?sona_id=57055,"en-US,en;q=0.5",zbcrokv6o3cce5p,21,"[""White""]",No,Female,n/a,No,320837,NA,null,<p></p>,null,choice,tc,binary,repulsion,1,laptops,null,null,null,null,null,null,2,NA,NA,NA,NA,NA,NA,NA,NA,NA,NA
NA,NA,NA,NA,NA,choice_trial,survey-html-form,9,57479,0.0-4.0-1.2,323,1,2025-05-08T18:23:56Z,b60275e29fe2361ab97ac0ac217840d7,Mozilla/5.0 (Windows NT 10.0; Win64; x64; rv:138.0) Gecko/20100101 Firefox/138.0,NA,Firefox,138,Windows,10,https://5puzkbbxv1.cognition.run/?sona_id=57055,"en-US,en;q=0.5",zbcrokv6o3cce5p,21,"[""White""]",No,Female,n/a,No,320837,NA,10869,NA,"{""product_choice"":""A""}",choice,tc,binary,repulsion,1,laptops,null,null,null,null,null,null,2,100,90,null,30,40,null,Processing speed,Memory (RAM),NA,NA
NA,NA,NA,NA,NA,choice_trial_setup,html-keyboard-response,10,57790,0.0-4.0-0.3,323,1,2025-05-08T18:23:56Z,b60275e29fe2361ab97ac0ac217840d7,Mozilla/5.0 (Windows NT 10.0; Win64; x64; rv:138.0) Gecko/20100101 Firefox/138.0,NA,Firefox,138,Windows,10,https://5puzkbbxv1.cognition.run/?sona_id=57055,"en-US,en;q=0.5",zbcrokv6o3cce5p,21,"[""White""]",No,Female,n/a,No,320837,NA,null,<p></p>,null,choice,tcd,trinary,repulsion_B,1,microwave ovens,null,null,null,null,null,null,1,NA,NA,NA,NA,NA,NA,NA,NA,NA,NA
NA,NA,NA,NA,NA,choice_trial,survey-html-form,11,72008,0.0-4.0-1.3,323,1,2025-05-08T18:23:56Z,b60275e29fe2361ab97ac0ac217840d7,Mozilla/5.0 (Windows NT 10.0; Win64; x64; rv:138.0) Gecko/20100101 Firefox/138.0,NA,Firefox,138,Windows,10,https://5puzkbbxv1.cognition.run/?sona_id=57055,"en-US,en;q=0.5",zbcrokv6o3cce5p,21,"[""White""]",No,Female,n/a,No,320837,NA,14212,NA,"{""product_choice"":""B""}",choice,tcd,trinary,repulsion_B,1,microwave ovens,null,null,null,null,null,null,1,90,100,80,40,30,40,Warranty,Cooking power,NA,NA
NA,NA,NA,NA,NA,choice_trial_setup,html-keyboard-response,12,72328,0.0-4.0-0.4,323,1,2025-05-08T18:23:56Z,b60275e29fe2361ab97ac0ac217840d7,Mozilla/5.0 (Windows NT 10.0; Win64; x64; rv:138.0) Gecko/20100101 Firefox/138.0,NA,Firefox,138,Windows,10,https://5puzkbbxv1.cognition.run/?sona_id=57055,"en-US,en;q=0.5",zbcrokv6o3cce5p,21,"[""White""]",No,Female,n/a,No,320837,NA,null,<p></p>,null,choice,tc,binary,repulsion,1,microwave ovens,null,null,null,null,null,null,2,NA,NA,NA,NA,NA,NA,NA,NA,NA,NA
NA,NA,NA,NA,NA,choice_trial,survey-html-form,13,75336,0.0-4.0-1.4,323,1,2025-05-08T18:23:56Z,b60275e29fe2361ab97ac0ac217840d7,Mozilla/5.0 (Windows NT 10.0; Win64; x64; rv:138.0) Gecko/20100101 Firefox/138.0,NA,Firefox,138,Windows,10,https://5puzkbbxv1.cognition.run/?sona_id=57055,"en-US,en;q=0.5",zbcrokv6o3cce5p,21,"[""White""]",No,Female,n/a,No,320837,NA,3000,NA,"{""product_choice"":""A""}",choice,tc,binary,repulsion,1,microwave ovens,null,null,null,null,null,null,2,100,90,null,30,40,null,Warranty,Cooking power,NA,NA
NA,NA,NA,NA,NA,choice_trial_setup,html-keyboard-response,14,75646,0.0-4.0-0.5,323,1,2025-05-08T18:23:56Z,b60275e29fe2361ab97ac0ac217840d7,Mozilla/5.0 (Windows NT 10.0; Win64; x64; rv:138.0) Gecko/20100101 Firefox/138.0,NA,Firefox,138,Windows,10,https://5puzkbbxv1.cognition.run/?sona_id=57055,"en-US,en;q=0.5",zbcrokv6o3cce5p,21,"[""White""]",No,Female,n/a,No,320837,NA,null,<p></p>,null,choice,dct,trinary,attraction,1,televisions,null,null,null,null,null,null,2,NA,NA,NA,NA,NA,NA,NA,NA,NA,NA
NA,NA,NA,NA,NA,choice_trial,survey-html-form,15,84144,0.0-4.0-1.5,323,1,2025-05-08T18:23:56Z,b60275e29fe2361ab97ac0ac217840d7,Mozilla/5.0 (Windows NT 10.0; Win64; x64; rv:138.0) Gecko/20100101 Firefox/138.0,NA,Firefox,138,Windows,10,https://5puzkbbxv1.cognition.run/?sona_id=57055,"en-US,en;q=0.5",zbcrokv6o3cce5p,21,"[""White""]",No,Female,n/a,No,320837,NA,8482,NA,"{""product_choice"":""B""}",choice,dct,trinary,attraction,1,televisions,null,null,null,null,null,null,2,60,50,60,50,60,40,Screen size,Average lifespan,NA,NA
NA,NA,NA,NA,NA,choice_trial_setup,html-keyboard-response,16,84455,0.0-4.0-0.6,323,1,2025-05-08T18:23:56Z,b60275e29fe2361ab97ac0ac217840d7,Mozilla/5.0 (Windows NT 10.0; Win64; x64; rv:138.0) Gecko/20100101 Firefox/138.0,NA,Firefox,138,Windows,10,https://5puzkbbxv1.cognition.run/?sona_id=57055,"en-US,en;q=0.5",zbcrokv6o3cce5p,21,"[""White""]",No,Female,n/a,No,320837,NA,null,<p></p>,null,choice,tdc,trinary,repulsion_A,1,televisions,null,null,null,null,null,null,1,NA,NA,NA,NA,NA,NA,NA,NA,NA,NA
NA,NA,NA,NA,NA,choice_trial,survey-html-form,17,93621,0.0-4.0-1.6,323,1,2025-05-08T18:23:56Z,b60275e29fe2361ab97ac0ac217840d7,Mozilla/5.0 (Windows NT 10.0; Win64; x64; rv:138.0) Gecko/20100101 Firefox/138.0,NA,Firefox,138,Windows,10,https://5puzkbbxv1.cognition.run/?sona_id=57055,"en-US,en;q=0.5",zbcrokv6o3cce5p,21,"[""White""]",No,Female,n/a,No,320837,NA,9164,NA,"{""product_choice"":""C""}",choice,tdc,trinary,repulsion_A,1,televisions,null,null,null,null,null,null,1,100,90,100,30,40,20,Screen size,Average lifespan,NA,NA
NA,NA,NA,NA,NA,choice_trial_setup,html-keyboard-response,18,93928,0.0-4.0-0.7,323,1,2025-05-08T18:23:56Z,b60275e29fe2361ab97ac0ac217840d7,Mozilla/5.0 (Windows NT 10.0; Win64; x64; rv:138.0) Gecko/20100101 Firefox/138.0,NA,Firefox,138,Windows,10,https://5puzkbbxv1.cognition.run/?sona_id=57055,"en-US,en;q=0.5",zbcrokv6o3cce5p,21,"[""White""]",No,Female,n/a,No,320837,NA,null,<p></p>,null,choice,wb,binary,catch,null,washing machines,55,70,35,15,null,null,1,NA,NA,NA,NA,NA,NA,NA,NA,NA,NA
NA,NA,NA,NA,NA,choice_trial,survey-html-form,19,98045,0.0-4.0-1.7,323,1,2025-05-08T18:23:56Z,b60275e29fe2361ab97ac0ac217840d7,Mozilla/5.0 (Windows NT 10.0; Win64; x64; rv:138.0) Gecko/20100101 Firefox/138.0,NA,Firefox,138,Windows,10,https://5puzkbbxv1.cognition.run/?sona_id=57055,"en-US,en;q=0.5",zbcrokv6o3cce5p,21,"[""White""]",No,Female,n/a,No,320837,NA,4113,NA,"{""product_choice"":""B""}",choice,wb,binary,catch,null,washing machines,55,70,35,15,null,null,1,null,null,null,null,null,null,Average lifespan,Energy savings,NA,NA
NA,NA,NA,NA,NA,choice_trial_setup,html-keyboard-response,20,98351,0.0-4.0-0.8,323,1,2025-05-08T18:23:56Z,b60275e29fe2361ab97ac0ac217840d7,Mozilla/5.0 (Windows NT 10.0; Win64; x64; rv:138.0) Gecko/20100101 Firefox/138.0,NA,Firefox,138,Windows,10,https://5puzkbbxv1.cognition.run/?sona_id=57055,"en-US,en;q=0.5",zbcrokv6o3cce5p,21,"[""White""]",No,Female,n/a,No,320837,NA,null,<p></p>,null,choice,tcd,trinary,attraction,2,washing machines,null,null,null,null,null,null,2,NA,NA,NA,NA,NA,NA,NA,NA,NA,NA
NA,NA,NA,NA,NA,choice_trial,survey-html-form,21,103525,0.0-4.0-1.8,323,1,2025-05-08T18:23:56Z,b60275e29fe2361ab97ac0ac217840d7,Mozilla/5.0 (Windows NT 10.0; Win64; x64; rv:138.0) Gecko/20100101 Firefox/138.0,NA,Firefox,138,Windows,10,https://5puzkbbxv1.cognition.run/?sona_id=57055,"en-US,en;q=0.5",zbcrokv6o3cce5p,21,"[""White""]",No,Female,n/a,No,320837,NA,5169,NA,"{""product_choice"":""B""}",choice,tcd,trinary,attraction,2,washing machines,null,null,null,null,null,null,2,50,60,40,60,50,60,Average lifespan,Energy savings,NA,NA
NA,NA,NA,NA,NA,choice_trial_setup,html-keyboard-response,22,103876,0.0-4.0-0.9,323,1,2025-05-08T18:23:56Z,b60275e29fe2361ab97ac0ac217840d7,Mozilla/5.0 (Windows NT 10.0; Win64; x64; rv:138.0) Gecko/20100101 Firefox/138.0,NA,Firefox,138,Windows,10,https://5puzkbbxv1.cognition.run/?sona_id=57055,"en-US,en;q=0.5",zbcrokv6o3cce5p,21,"[""White""]",No,Female,n/a,No,320837,NA,null,<p></p>,null,choice,tc,binary,attraction,NA,washing machines,null,null,null,null,null,null,2,NA,NA,NA,NA,NA,NA,NA,NA,NA,NA
NA,NA,NA,NA,NA,choice_trial,survey-html-form,23,110270,0.0-4.0-1.9,323,1,2025-05-08T18:23:56Z,b60275e29fe2361ab97ac0ac217840d7,Mozilla/5.0 (Windows NT 10.0; Win64; x64; rv:138.0) Gecko/20100101 Firefox/138.0,NA,Firefox,138,Windows,10,https://5puzkbbxv1.cognition.run/?sona_id=57055,"en-US,en;q=0.5",zbcrokv6o3cce5p,21,"[""White""]",No,Female,n/a,No,320837,NA,6388,NA,"{""product_choice"":""A""}",choice,tc,binary,attraction,NA,washing machines,null,null,null,null,null,null,2,60,50,null,50,60,null,Average lifespan,Energy savings,NA,NA
NA,NA,NA,NA,NA,choice_trial_setup,html-keyboard-response,24,110577,0.0-4.0-0.10,323,1,2025-05-08T18:23:56Z,b60275e29fe2361ab97ac0ac217840d7,Mozilla/5.0 (Windows NT 10.0; Win64; x64; rv:138.0) Gecko/20100101 Firefox/138.0,NA,Firefox,138,Windows,10,https://5puzkbbxv1.cognition.run/?sona_id=57055,"en-US,en;q=0.5",zbcrokv6o3cce5p,21,"[""White""]",No,Female,n/a,No,320837,NA,null,<p></p>,null,choice,tcd,trinary,repulsion_B,2,televisions,null,null,null,null,null,null,2,NA,NA,NA,NA,NA,NA,NA,NA,NA,NA
NA,NA,NA,NA,NA,choice_trial,survey-html-form,25,114838,0.0-4.0-1.10,323,1,2025-05-08T18:23:56Z,b60275e29fe2361ab97ac0ac217840d7,Mozilla/5.0 (Windows NT 10.0; Win64; x64; rv:138.0) Gecko/20100101 Firefox/138.0,NA,Firefox,138,Windows,10,https://5puzkbbxv1.cognition.run/?sona_id=57055,"en-US,en;q=0.5",zbcrokv6o3cce5p,21,"[""White""]",No,Female,n/a,No,320837,NA,4256,NA,"{""product_choice"":""B""}",choice,tcd,trinary,repulsion_B,2,televisions,null,null,null,null,null,null,2,40,30,40,90,100,80,Screen size,Average lifespan,NA,NA
NA,NA,NA,NA,NA,choice_trial_setup,html-keyboard-response,26,115145,0.0-4.0-0.11,323,1,2025-05-08T18:23:56Z,b60275e29fe2361ab97ac0ac217840d7,Mozilla/5.0 (Windows NT 10.0; Win64; x64; rv:138.0) Gecko/20100101 Firefox/138.0,NA,Firefox,138,Windows,10,https://5puzkbbxv1.cognition.run/?sona_id=57055,"en-US,en;q=0.5",zbcrokv6o3cce5p,21,"[""White""]",No,Female,n/a,No,320837,NA,null,<p></p>,null,choice,tdc,trinary,repulsion_B,2,washing machines,null,null,null,null,null,null,2,NA,NA,NA,NA,NA,NA,NA,NA,NA,NA
NA,NA,NA,NA,NA,choice_trial,survey-html-form,27,117679,0.0-4.0-1.11,323,1,2025-05-08T18:23:56Z,b60275e29fe2361ab97ac0ac217840d7,Mozilla/5.0 (Windows NT 10.0; Win64; x64; rv:138.0) Gecko/20100101 Firefox/138.0,NA,Firefox,138,Windows,10,https://5puzkbbxv1.cognition.run/?sona_id=57055,"en-US,en;q=0.5",zbcrokv6o3cce5p,21,"[""White""]",No,Female,n/a,No,320837,NA,2529,NA,"{""product_choice"":""C""}",choice,tdc,trinary,repulsion_B,2,washing machines,null,null,null,null,null,null,2,40,30,40,90,100,80,Average lifespan,Energy savings,NA,NA
NA,NA,NA,NA,NA,choice_trial_setup,html-keyboard-response,28,117988,0.0-4.0-0.12,323,1,2025-05-08T18:23:56Z,b60275e29fe2361ab97ac0ac217840d7,Mozilla/5.0 (Windows NT 10.0; Win64; x64; rv:138.0) Gecko/20100101 Firefox/138.0,NA,Firefox,138,Windows,10,https://5puzkbbxv1.cognition.run/?sona_id=57055,"en-US,en;q=0.5",zbcrokv6o3cce5p,21,"[""White""]",No,Female,n/a,No,320837,NA,null,<p></p>,null,choice,ctd,trinary,repulsion_A,2,microwave ovens,null,null,null,null,null,null,2,NA,NA,NA,NA,NA,NA,NA,NA,NA,NA
NA,NA,NA,NA,NA,choice_trial,survey-html-form,29,121734,0.0-4.0-1.12,323,1,2025-05-08T18:23:56Z,b60275e29fe2361ab97ac0ac217840d7,Mozilla/5.0 (Windows NT 10.0; Win64; x64; rv:138.0) Gecko/20100101 Firefox/138.0,NA,Firefox,138,Windows,10,https://5puzkbbxv1.cognition.run/?sona_id=57055,"en-US,en;q=0.5",zbcrokv6o3cce5p,21,"[""White""]",No,Female,n/a,No,320837,NA,3741,NA,"{""product_choice"":""B""}",choice,ctd,trinary,repulsion_A,2,microwave ovens,null,null,null,null,null,null,2,30,40,20,100,90,100,Warranty,Cooking power,NA,NA
NA,NA,NA,NA,NA,choice_trial_setup,html-keyboard-response,30,122049,0.0-4.0-0.13,323,1,2025-05-08T18:23:56Z,b60275e29fe2361ab97ac0ac217840d7,Mozilla/5.0 (Windows NT 10.0; Win64; x64; rv:138.0) Gecko/20100101 Firefox/138.0,NA,Firefox,138,Windows,10,https://5puzkbbxv1.cognition.run/?sona_id=57055,"en-US,en;q=0.5",zbcrokv6o3cce5p,21,"[""White""]",No,Female,n/a,No,320837,NA,null,<p></p>,null,choice,tdc,trinary,attraction,1,washing machines,null,null,null,null,null,null,1,NA,NA,NA,NA,NA,NA,NA,NA,NA,NA
NA,NA,NA,NA,NA,choice_trial,survey-html-form,31,128222,0.0-4.0-1.13,323,1,2025-05-08T18:23:56Z,b60275e29fe2361ab97ac0ac217840d7,Mozilla/5.0 (Windows NT 10.0; Win64; x64; rv:138.0) Gecko/20100101 Firefox/138.0,NA,Firefox,138,Windows,10,https://5puzkbbxv1.cognition.run/?sona_id=57055,"en-US,en;q=0.5",zbcrokv6o3cce5p,21,"[""White""]",No,Female,n/a,No,320837,NA,6169,NA,"{""product_choice"":""A""}",choice,tdc,trinary,attraction,1,washing machines,null,null,null,null,null,null,1,60,50,60,50,60,40,Average lifespan,Energy savings,NA,NA
NA,NA,NA,NA,NA,choice_trial_setup,html-keyboard-response,32,128533,0.0-4.0-0.14,323,1,2025-05-08T18:23:56Z,b60275e29fe2361ab97ac0ac217840d7,Mozilla/5.0 (Windows NT 10.0; Win64; x64; rv:138.0) Gecko/20100101 Firefox/138.0,NA,Firefox,138,Windows,10,https://5puzkbbxv1.cognition.run/?sona_id=57055,"en-US,en;q=0.5",zbcrokv6o3cce5p,21,"[""White""]",No,Female,n/a,No,320837,NA,null,<p></p>,null,choice,dct,trinary,repulsion_A,2,laptops,null,null,null,null,null,null,2,NA,NA,NA,NA,NA,NA,NA,NA,NA,NA
NA,NA,NA,NA,NA,choice_trial,survey-html-form,33,135415,0.0-4.0-1.14,323,1,2025-05-08T18:23:56Z,b60275e29fe2361ab97ac0ac217840d7,Mozilla/5.0 (Windows NT 10.0; Win64; x64; rv:138.0) Gecko/20100101 Firefox/138.0,NA,Firefox,138,Windows,10,https://5puzkbbxv1.cognition.run/?sona_id=57055,"en-US,en;q=0.5",zbcrokv6o3cce5p,21,"[""White""]",No,Female,n/a,No,320837,NA,6876,NA,"{""product_choice"":""C""}",choice,dct,trinary,repulsion_A,2,laptops,null,null,null,null,null,null,2,30,40,20,100,90,100,Processing speed,Memory (RAM),NA,NA
NA,NA,NA,NA,NA,choice_trial_setup,html-keyboard-response,34,135733,0.0-4.0-0.15,323,1,2025-05-08T18:23:56Z,b60275e29fe2361ab97ac0ac217840d7,Mozilla/5.0 (Windows NT 10.0; Win64; x64; rv:138.0) Gecko/20100101 Firefox/138.0,NA,Firefox,138,Windows,10,https://5puzkbbxv1.cognition.run/?sona_id=57055,"en-US,en;q=0.5",zbcrokv6o3cce5p,21,"[""White""]",No,Female,n/a,No,320837,NA,null,<p></p>,null,choice,bw,binary,catch,null,microwave ovens,60,80,50,15,null,null,1,NA,NA,NA,NA,NA,NA,NA,NA,NA,NA
NA,NA,NA,NA,NA,choice_trial,survey-html-form,35,142786,0.0-4.0-1.15,323,1,2025-05-08T18:23:56Z,b60275e29fe2361ab97ac0ac217840d7,Mozilla/5.0 (Windows NT 10.0; Win64; x64; rv:138.0) Gecko/20100101 Firefox/138.0,NA,Firefox,138,Windows,10,https://5puzkbbxv1.cognition.run/?sona_id=57055,"en-US,en;q=0.5",zbcrokv6o3cce5p,21,"[""White""]",No,Female,n/a,No,320837,NA,7047,NA,"{""product_choice"":""A""}",choice,bw,binary,catch,null,microwave ovens,60,80,50,15,null,null,1,null,null,null,null,null,null,Warranty,Cooking power,NA,NA
NA,NA,NA,NA,NA,choice_trial_setup,html-keyboard-response,36,143106,0.0-4.0-0.16,323,1,2025-05-08T18:23:56Z,b60275e29fe2361ab97ac0ac217840d7,Mozilla/5.0 (Windows NT 10.0; Win64; x64; rv:138.0) Gecko/20100101 Firefox/138.0,NA,Firefox,138,Windows,10,https://5puzkbbxv1.cognition.run/?sona_id=57055,"en-US,en;q=0.5",zbcrokv6o3cce5p,21,"[""White""]",No,Female,n/a,No,320837,NA,null,<p></p>,null,choice,dct,trinary,repulsion_B,1,televisions,null,null,null,null,null,null,1,NA,NA,NA,NA,NA,NA,NA,NA,NA,NA
NA,NA,NA,NA,NA,choice_trial,survey-html-form,37,146943,0.0-4.0-1.16,323,1,2025-05-08T18:23:56Z,b60275e29fe2361ab97ac0ac217840d7,Mozilla/5.0 (Windows NT 10.0; Win64; x64; rv:138.0) Gecko/20100101 Firefox/138.0,NA,Firefox,138,Windows,10,https://5puzkbbxv1.cognition.run/?sona_id=57055,"en-US,en;q=0.5",zbcrokv6o3cce5p,21,"[""White""]",No,Female,n/a,No,320837,NA,3826,NA,"{""product_choice"":""B""}",choice,dct,trinary,repulsion_B,1,televisions,null,null,null,null,null,null,1,90,100,80,40,30,40,Screen size,Average lifespan,NA,NA
NA,NA,NA,NA,NA,choice_trial_setup,html-keyboard-response,38,147251,0.0-4.0-0.17,323,1,2025-05-08T18:23:56Z,b60275e29fe2361ab97ac0ac217840d7,Mozilla/5.0 (Windows NT 10.0; Win64; x64; rv:138.0) Gecko/20100101 Firefox/138.0,NA,Firefox,138,Windows,10,https://5puzkbbxv1.cognition.run/?sona_id=57055,"en-US,en;q=0.5",zbcrokv6o3cce5p,21,"[""White""]",No,Female,n/a,No,320837,NA,null,<p></p>,null,choice,dtc,trinary,attraction,2,microwave ovens,null,null,null,null,null,null,2,NA,NA,NA,NA,NA,NA,NA,NA,NA,NA
NA,NA,NA,NA,NA,choice_trial,survey-html-form,39,150059,0.0-4.0-1.17,323,1,2025-05-08T18:23:56Z,b60275e29fe2361ab97ac0ac217840d7,Mozilla/5.0 (Windows NT 10.0; Win64; x64; rv:138.0) Gecko/20100101 Firefox/138.0,NA,Firefox,138,Windows,10,https://5puzkbbxv1.cognition.run/?sona_id=57055,"en-US,en;q=0.5",zbcrokv6o3cce5p,21,"[""White""]",No,Female,n/a,No,320837,NA,2801,NA,"{""product_choice"":""B""}",choice,dtc,trinary,attraction,2,microwave ovens,null,null,null,null,null,null,2,50,60,40,60,50,60,Warranty,Cooking power,NA,NA
NA,NA,NA,NA,NA,choice_trial_setup,html-keyboard-response,40,150371,0.0-4.0-0.18,323,1,2025-05-08T18:23:56Z,b60275e29fe2361ab97ac0ac217840d7,Mozilla/5.0 (Windows NT 10.0; Win64; x64; rv:138.0) Gecko/20100101 Firefox/138.0,NA,Firefox,138,Windows,10,https://5puzkbbxv1.cognition.run/?sona_id=57055,"en-US,en;q=0.5",zbcrokv6o3cce5p,21,"[""White""]",No,Female,n/a,No,320837,NA,null,<p></p>,null,choice,tc,binary,repulsion,2,washing machines,null,null,null,null,null,null,2,NA,NA,NA,NA,NA,NA,NA,NA,NA,NA
NA,NA,NA,NA,NA,choice_trial,survey-html-form,41,152470,0.0-4.0-1.18,323,1,2025-05-08T18:23:56Z,b60275e29fe2361ab97ac0ac217840d7,Mozilla/5.0 (Windows NT 10.0; Win64; x64; rv:138.0) Gecko/20100101 Firefox/138.0,NA,Firefox,138,Windows,10,https://5puzkbbxv1.cognition.run/?sona_id=57055,"en-US,en;q=0.5",zbcrokv6o3cce5p,21,"[""White""]",No,Female,n/a,No,320837,NA,2087,NA,"{""product_choice"":""A""}",choice,tc,binary,repulsion,2,washing machines,null,null,null,null,null,null,2,30,40,null,100,90,null,Average lifespan,Energy savings,NA,NA
NA,NA,NA,NA,NA,choice_trial_setup,html-keyboard-response,42,152780,0.0-4.0-0.19,323,1,2025-05-08T18:23:56Z,b60275e29fe2361ab97ac0ac217840d7,Mozilla/5.0 (Windows NT 10.0; Win64; x64; rv:138.0) Gecko/20100101 Firefox/138.0,NA,Firefox,138,Windows,10,https://5puzkbbxv1.cognition.run/?sona_id=57055,"en-US,en;q=0.5",zbcrokv6o3cce5p,21,"[""White""]",No,Female,n/a,No,320837,NA,null,<p></p>,null,choice,wb,binary,catch,null,laptops,70,60,35,25,null,null,1,NA,NA,NA,NA,NA,NA,NA,NA,NA,NA
NA,NA,NA,NA,NA,choice_trial,survey-html-form,43,154720,0.0-4.0-1.19,323,1,2025-05-08T18:23:56Z,b60275e29fe2361ab97ac0ac217840d7,Mozilla/5.0 (Windows NT 10.0; Win64; x64; rv:138.0) Gecko/20100101 Firefox/138.0,NA,Firefox,138,Windows,10,https://5puzkbbxv1.cognition.run/?sona_id=57055,"en-US,en;q=0.5",zbcrokv6o3cce5p,21,"[""White""]",No,Female,n/a,No,320837,NA,1933,NA,"{""product_choice"":""B""}",choice,wb,binary,catch,null,laptops,70,60,35,25,null,null,1,null,null,null,null,null,null,Processing speed,Memory (RAM),NA,NA
NA,NA,NA,NA,NA,choice_trial_setup,html-keyboard-response,44,155029,0.0-4.0-0.20,323,1,2025-05-08T18:23:56Z,b60275e29fe2361ab97ac0ac217840d7,Mozilla/5.0 (Windows NT 10.0; Win64; x64; rv:138.0) Gecko/20100101 Firefox/138.0,NA,Firefox,138,Windows,10,https://5puzkbbxv1.cognition.run/?sona_id=57055,"en-US,en;q=0.5",zbcrokv6o3cce5p,21,"[""White""]",No,Female,n/a,No,320837,NA,null,<p></p>,null,choice,tcd,trinary,repulsion_B,2,microwave ovens,null,null,null,null,null,null,2,NA,NA,NA,NA,NA,NA,NA,NA,NA,NA
NA,NA,NA,NA,NA,choice_trial,survey-html-form,45,157609,0.0-4.0-1.20,323,1,2025-05-08T18:23:56Z,b60275e29fe2361ab97ac0ac217840d7,Mozilla/5.0 (Windows NT 10.0; Win64; x64; rv:138.0) Gecko/20100101 Firefox/138.0,NA,Firefox,138,Windows,10,https://5puzkbbxv1.cognition.run/?sona_id=57055,"en-US,en;q=0.5",zbcrokv6o3cce5p,21,"[""White""]",No,Female,n/a,No,320837,NA,2574,NA,"{""product_choice"":""B""}",choice,tcd,trinary,repulsion_B,2,microwave ovens,null,null,null,null,null,null,2,40,30,40,90,100,80,Warranty,Cooking power,NA,NA
NA,NA,NA,NA,NA,choice_trial_setup,html-keyboard-response,46,157923,0.0-4.0-0.21,323,1,2025-05-08T18:23:56Z,b60275e29fe2361ab97ac0ac217840d7,Mozilla/5.0 (Windows NT 10.0; Win64; x64; rv:138.0) Gecko/20100101 Firefox/138.0,NA,Firefox,138,Windows,10,https://5puzkbbxv1.cognition.run/?sona_id=57055,"en-US,en;q=0.5",zbcrokv6o3cce5p,21,"[""White""]",No,Female,n/a,No,320837,NA,null,<p></p>,null,choice,wwb,trinary,catch,null,microwave ovens,55,65,10,5,15,25,1,NA,NA,NA,NA,NA,NA,NA,NA,NA,NA
NA,NA,NA,NA,NA,choice_trial,survey-html-form,47,160482,0.0-4.0-1.21,323,1,2025-05-08T18:23:56Z,b60275e29fe2361ab97ac0ac217840d7,Mozilla/5.0 (Windows NT 10.0; Win64; x64; rv:138.0) Gecko/20100101 Firefox/138.0,NA,Firefox,138,Windows,10,https://5puzkbbxv1.cognition.run/?sona_id=57055,"en-US,en;q=0.5",zbcrokv6o3cce5p,21,"[""White""]",No,Female,n/a,No,320837,NA,2552,NA,"{""product_choice"":""C""}",choice,wwb,trinary,catch,null,microwave ovens,55,65,10,5,15,25,1,null,null,null,null,null,null,Warranty,Cooking power,NA,NA
NA,NA,NA,NA,NA,choice_trial_setup,html-keyboard-response,48,160803,0.0-4.0-0.22,323,1,2025-05-08T18:23:56Z,b60275e29fe2361ab97ac0ac217840d7,Mozilla/5.0 (Windows NT 10.0; Win64; x64; rv:138.0) Gecko/20100101 Firefox/138.0,NA,Firefox,138,Windows,10,https://5puzkbbxv1.cognition.run/?sona_id=57055,"en-US,en;q=0.5",zbcrokv6o3cce5p,21,"[""White""]",No,Female,n/a,No,320837,NA,null,<p></p>,null,choice,dtc,trinary,repulsion_B,1,laptops,null,null,null,null,null,null,2,NA,NA,NA,NA,NA,NA,NA,NA,NA,NA
NA,NA,NA,NA,NA,choice_trial,survey-html-form,49,167029,0.0-4.0-1.22,323,1,2025-05-08T18:23:56Z,b60275e29fe2361ab97ac0ac217840d7,Mozilla/5.0 (Windows NT 10.0; Win64; x64; rv:138.0) Gecko/20100101 Firefox/138.0,NA,Firefox,138,Windows,10,https://5puzkbbxv1.cognition.run/?sona_id=57055,"en-US,en;q=0.5",zbcrokv6o3cce5p,21,"[""White""]",No,Female,n/a,No,320837,NA,6220,NA,"{""product_choice"":""B""}",choice,dtc,trinary,repulsion_B,1,laptops,null,null,null,null,null,null,2,90,100,80,40,30,40,Processing speed,Memory (RAM),NA,NA
NA,NA,NA,NA,NA,choice_trial_setup,html-keyboard-response,50,167334,0.0-4.0-0.23,323,1,2025-05-08T18:23:56Z,b60275e29fe2361ab97ac0ac217840d7,Mozilla/5.0 (Windows NT 10.0; Win64; x64; rv:138.0) Gecko/20100101 Firefox/138.0,NA,Firefox,138,Windows,10,https://5puzkbbxv1.cognition.run/?sona_id=57055,"en-US,en;q=0.5",zbcrokv6o3cce5p,21,"[""White""]",No,Female,n/a,No,320837,NA,null,<p></p>,null,choice,tc,binary,attraction,NA,microwave ovens,null,null,null,null,null,null,2,NA,NA,NA,NA,NA,NA,NA,NA,NA,NA
NA,NA,NA,NA,NA,choice_trial,survey-html-form,51,171424,0.0-4.0-1.23,323,1,2025-05-08T18:23:56Z,b60275e29fe2361ab97ac0ac217840d7,Mozilla/5.0 (Windows NT 10.0; Win64; x64; rv:138.0) Gecko/20100101 Firefox/138.0,NA,Firefox,138,Windows,10,https://5puzkbbxv1.cognition.run/?sona_id=57055,"en-US,en;q=0.5",zbcrokv6o3cce5p,21,"[""White""]",No,Female,n/a,No,320837,NA,4083,NA,"{""product_choice"":""B""}",choice,tc,binary,attraction,NA,microwave ovens,null,null,null,null,null,null,2,60,50,null,50,60,null,Warranty,Cooking power,NA,NA
NA,NA,NA,NA,NA,choice_trial_setup,html-keyboard-response,52,171731,0.0-4.0-0.24,323,1,2025-05-08T18:23:56Z,b60275e29fe2361ab97ac0ac217840d7,Mozilla/5.0 (Windows NT 10.0; Win64; x64; rv:138.0) Gecko/20100101 Firefox/138.0,NA,Firefox,138,Windows,10,https://5puzkbbxv1.cognition.run/?sona_id=57055,"en-US,en;q=0.5",zbcrokv6o3cce5p,21,"[""White""]",No,Female,n/a,No,320837,NA,null,<p></p>,null,choice,wwb,trinary,catch,null,laptops,70,55,40,25,5,5,1,NA,NA,NA,NA,NA,NA,NA,NA,NA,NA
NA,NA,NA,NA,NA,choice_trial,survey-html-form,53,175529,0.0-4.0-1.24,323,1,2025-05-08T18:23:56Z,b60275e29fe2361ab97ac0ac217840d7,Mozilla/5.0 (Windows NT 10.0; Win64; x64; rv:138.0) Gecko/20100101 Firefox/138.0,NA,Firefox,138,Windows,10,https://5puzkbbxv1.cognition.run/?sona_id=57055,"en-US,en;q=0.5",zbcrokv6o3cce5p,21,"[""White""]",No,Female,n/a,No,320837,NA,3790,NA,"{""product_choice"":""C""}",choice,wwb,trinary,catch,null,laptops,70,55,40,25,5,5,1,null,null,null,null,null,null,Processing speed,Memory (RAM),NA,NA
NA,NA,NA,NA,NA,choice_trial_setup,html-keyboard-response,54,175836,0.0-4.0-0.25,323,1,2025-05-08T18:23:56Z,b60275e29fe2361ab97ac0ac217840d7,Mozilla/5.0 (Windows NT 10.0; Win64; x64; rv:138.0) Gecko/20100101 Firefox/138.0,NA,Firefox,138,Windows,10,https://5puzkbbxv1.cognition.run/?sona_id=57055,"en-US,en;q=0.5",zbcrokv6o3cce5p,21,"[""White""]",No,Female,n/a,No,320837,NA,null,<p></p>,null,choice,ct,binary,repulsion,2,televisions,null,null,null,null,null,null,1,NA,NA,NA,NA,NA,NA,NA,NA,NA,NA
NA,NA,NA,NA,NA,choice_trial,survey-html-form,55,181162,0.0-4.0-1.25,323,1,2025-05-08T18:23:56Z,b60275e29fe2361ab97ac0ac217840d7,Mozilla/5.0 (Windows NT 10.0; Win64; x64; rv:138.0) Gecko/20100101 Firefox/138.0,NA,Firefox,138,Windows,10,https://5puzkbbxv1.cognition.run/?sona_id=57055,"en-US,en;q=0.5",zbcrokv6o3cce5p,21,"[""White""]",No,Female,n/a,No,320837,NA,5317,NA,"{""product_choice"":""A""}",choice,ct,binary,repulsion,2,televisions,null,null,null,null,null,null,1,30,40,null,100,90,null,Screen size,Average lifespan,NA,NA
NA,NA,NA,NA,NA,choice_trial_setup,html-keyboard-response,56,181481,0.0-4.0-0.26,323,1,2025-05-08T18:23:56Z,b60275e29fe2361ab97ac0ac217840d7,Mozilla/5.0 (Windows NT 10.0; Win64; x64; rv:138.0) Gecko/20100101 Firefox/138.0,NA,Firefox,138,Windows,10,https://5puzkbbxv1.cognition.run/?sona_id=57055,"en-US,en;q=0.5",zbcrokv6o3cce5p,21,"[""White""]",No,Female,n/a,No,320837,NA,null,<p></p>,null,choice,ct,binary,attraction,NA,laptops,null,null,null,null,null,null,2,NA,NA,NA,NA,NA,NA,NA,NA,NA,NA
NA,NA,NA,NA,NA,choice_trial,survey-html-form,57,186610,0.0-4.0-1.26,323,1,2025-05-08T18:23:56Z,b60275e29fe2361ab97ac0ac217840d7,Mozilla/5.0 (Windows NT 10.0; Win64; x64; rv:138.0) Gecko/20100101 Firefox/138.0,NA,Firefox,138,Windows,10,https://5puzkbbxv1.cognition.run/?sona_id=57055,"en-US,en;q=0.5",zbcrokv6o3cce5p,21,"[""White""]",No,Female,n/a,No,320837,NA,5121,NA,"{""product_choice"":""A""}",choice,ct,binary,attraction,NA,laptops,null,null,null,null,null,null,2,60,50,null,50,60,null,Processing speed,Memory (RAM),NA,NA
NA,NA,NA,NA,NA,choice_trial_setup,html-keyboard-response,58,186922,0.0-4.0-0.27,323,1,2025-05-08T18:23:56Z,b60275e29fe2361ab97ac0ac217840d7,Mozilla/5.0 (Windows NT 10.0; Win64; x64; rv:138.0) Gecko/20100101 Firefox/138.0,NA,Firefox,138,Windows,10,https://5puzkbbxv1.cognition.run/?sona_id=57055,"en-US,en;q=0.5",zbcrokv6o3cce5p,21,"[""White""]",No,Female,n/a,No,320837,NA,null,<p></p>,null,choice,cdt,trinary,attraction,1,microwave ovens,null,null,null,null,null,null,2,NA,NA,NA,NA,NA,NA,NA,NA,NA,NA
NA,NA,NA,NA,NA,choice_trial,survey-html-form,59,190605,0.0-4.0-1.27,323,1,2025-05-08T18:23:56Z,b60275e29fe2361ab97ac0ac217840d7,Mozilla/5.0 (Windows NT 10.0; Win64; x64; rv:138.0) Gecko/20100101 Firefox/138.0,NA,Firefox,138,Windows,10,https://5puzkbbxv1.cognition.run/?sona_id=57055,"en-US,en;q=0.5",zbcrokv6o3cce5p,21,"[""White""]",No,Female,n/a,No,320837,NA,3671,NA,"{""product_choice"":""A""}",choice,cdt,trinary,attraction,1,microwave ovens,null,null,null,null,null,null,2,60,50,60,50,60,40,Warranty,Cooking power,NA,NA
NA,NA,NA,NA,NA,choice_trial_setup,html-keyboard-response,60,190945,0.0-4.0-0.28,323,1,2025-05-08T18:23:56Z,b60275e29fe2361ab97ac0ac217840d7,Mozilla/5.0 (Windows NT 10.0; Win64; x64; rv:138.0) Gecko/20100101 Firefox/138.0,NA,Firefox,138,Windows,10,https://5puzkbbxv1.cognition.run/?sona_id=57055,"en-US,en;q=0.5",zbcrokv6o3cce5p,21,"[""White""]",No,Female,n/a,No,320837,NA,null,<p></p>,null,choice,cdt,trinary,attraction,2,laptops,null,null,null,null,null,null,1,NA,NA,NA,NA,NA,NA,NA,NA,NA,NA
NA,NA,NA,NA,NA,choice_trial,survey-html-form,61,196328,0.0-4.0-1.28,323,1,2025-05-08T18:23:56Z,b60275e29fe2361ab97ac0ac217840d7,Mozilla/5.0 (Windows NT 10.0; Win64; x64; rv:138.0) Gecko/20100101 Firefox/138.0,NA,Firefox,138,Windows,10,https://5puzkbbxv1.cognition.run/?sona_id=57055,"en-US,en;q=0.5",zbcrokv6o3cce5p,21,"[""White""]",No,Female,n/a,No,320837,NA,5378,NA,"{""product_choice"":""A""}",choice,cdt,trinary,attraction,2,laptops,null,null,null,null,null,null,1,50,60,40,60,50,60,Processing speed,Memory (RAM),NA,NA
NA,NA,NA,NA,NA,choice_trial_setup,html-keyboard-response,62,196640,0.0-4.0-0.29,323,1,2025-05-08T18:23:56Z,b60275e29fe2361ab97ac0ac217840d7,Mozilla/5.0 (Windows NT 10.0; Win64; x64; rv:138.0) Gecko/20100101 Firefox/138.0,NA,Firefox,138,Windows,10,https://5puzkbbxv1.cognition.run/?sona_id=57055,"en-US,en;q=0.5",zbcrokv6o3cce5p,21,"[""White""]",No,Female,n/a,No,320837,NA,null,<p></p>,null,choice,tc,binary,attraction,NA,televisions,null,null,null,null,null,null,1,NA,NA,NA,NA,NA,NA,NA,NA,NA,NA
NA,NA,NA,NA,NA,choice_trial,survey-html-form,63,199909,0.0-4.0-1.29,323,1,2025-05-08T18:23:56Z,b60275e29fe2361ab97ac0ac217840d7,Mozilla/5.0 (Windows NT 10.0; Win64; x64; rv:138.0) Gecko/20100101 Firefox/138.0,NA,Firefox,138,Windows,10,https://5puzkbbxv1.cognition.run/?sona_id=57055,"en-US,en;q=0.5",zbcrokv6o3cce5p,21,"[""White""]",No,Female,n/a,No,320837,NA,3262,NA,"{""product_choice"":""A""}",choice,tc,binary,attraction,NA,televisions,null,null,null,null,null,null,1,60,50,null,50,60,null,Screen size,Average lifespan,NA,NA
NA,NA,NA,NA,NA,choice_trial_setup,html-keyboard-response,64,200234,0.0-4.0-0.30,323,1,2025-05-08T18:23:56Z,b60275e29fe2361ab97ac0ac217840d7,Mozilla/5.0 (Windows NT 10.0; Win64; x64; rv:138.0) Gecko/20100101 Firefox/138.0,NA,Firefox,138,Windows,10,https://5puzkbbxv1.cognition.run/?sona_id=57055,"en-US,en;q=0.5",zbcrokv6o3cce5p,21,"[""White""]",No,Female,n/a,No,320837,NA,null,<p></p>,null,choice,dct,trinary,repulsion_A,2,washing machines,null,null,null,null,null,null,1,NA,NA,NA,NA,NA,NA,NA,NA,NA,NA
NA,NA,NA,NA,NA,choice_trial,survey-html-form,65,204737,0.0-4.0-1.30,323,1,2025-05-08T18:23:56Z,b60275e29fe2361ab97ac0ac217840d7,Mozilla/5.0 (Windows NT 10.0; Win64; x64; rv:138.0) Gecko/20100101 Firefox/138.0,NA,Firefox,138,Windows,10,https://5puzkbbxv1.cognition.run/?sona_id=57055,"en-US,en;q=0.5",zbcrokv6o3cce5p,21,"[""White""]",No,Female,n/a,No,320837,NA,4490,NA,"{""product_choice"":""C""}",choice,dct,trinary,repulsion_A,2,washing machines,null,null,null,null,null,null,1,30,40,20,100,90,100,Average lifespan,Energy savings,NA,NA
NA,NA,NA,NA,NA,choice_trial_setup,html-keyboard-response,66,205057,0.0-4.0-0.31,323,1,2025-05-08T18:23:56Z,b60275e29fe2361ab97ac0ac217840d7,Mozilla/5.0 (Windows NT 10.0; Win64; x64; rv:138.0) Gecko/20100101 Firefox/138.0,NA,Firefox,138,Windows,10,https://5puzkbbxv1.cognition.run/?sona_id=57055,"en-US,en;q=0.5",zbcrokv6o3cce5p,21,"[""White""]",No,Female,n/a,No,320837,NA,null,<p></p>,null,choice,dtc,trinary,repulsion_A,1,laptops,null,null,null,null,null,null,1,NA,NA,NA,NA,NA,NA,NA,NA,NA,NA
NA,NA,NA,NA,NA,choice_trial,survey-html-form,67,207642,0.0-4.0-1.31,323,1,2025-05-08T18:23:56Z,b60275e29fe2361ab97ac0ac217840d7,Mozilla/5.0 (Windows NT 10.0; Win64; x64; rv:138.0) Gecko/20100101 Firefox/138.0,NA,Firefox,138,Windows,10,https://5puzkbbxv1.cognition.run/?sona_id=57055,"en-US,en;q=0.5",zbcrokv6o3cce5p,21,"[""White""]",No,Female,n/a,No,320837,NA,2571,NA,"{""product_choice"":""B""}",choice,dtc,trinary,repulsion_A,1,laptops,null,null,null,null,null,null,1,100,90,100,30,40,20,Processing speed,Memory (RAM),NA,NA
NA,NA,NA,NA,NA,choice_trial_setup,html-keyboard-response,68,207948,0.0-4.0-0.32,323,1,2025-05-08T18:23:56Z,b60275e29fe2361ab97ac0ac217840d7,Mozilla/5.0 (Windows NT 10.0; Win64; x64; rv:138.0) Gecko/20100101 Firefox/138.0,NA,Firefox,138,Windows,10,https://5puzkbbxv1.cognition.run/?sona_id=57055,"en-US,en;q=0.5",zbcrokv6o3cce5p,21,"[""White""]",No,Female,n/a,No,320837,NA,null,<p></p>,null,choice,ctd,trinary,attraction,2,televisions,null,null,null,null,null,null,2,NA,NA,NA,NA,NA,NA,NA,NA,NA,NA
NA,NA,NA,NA,NA,choice_trial,survey-html-form,69,210562,0.0-4.0-1.32,323,1,2025-05-08T18:23:56Z,b60275e29fe2361ab97ac0ac217840d7,Mozilla/5.0 (Windows NT 10.0; Win64; x64; rv:138.0) Gecko/20100101 Firefox/138.0,NA,Firefox,138,Windows,10,https://5puzkbbxv1.cognition.run/?sona_id=57055,"en-US,en;q=0.5",zbcrokv6o3cce5p,21,"[""White""]",No,Female,n/a,No,320837,NA,2603,NA,"{""product_choice"":""B""}",choice,ctd,trinary,attraction,2,televisions,null,null,null,null,null,null,2,50,60,40,60,50,60,Screen size,Average lifespan,NA,NA
NA,NA,NA,NA,NA,choice_trial_setup,html-keyboard-response,70,210866,0.0-4.0-0.33,323,1,2025-05-08T18:23:56Z,b60275e29fe2361ab97ac0ac217840d7,Mozilla/5.0 (Windows NT 10.0; Win64; x64; rv:138.0) Gecko/20100101 Firefox/138.0,NA,Firefox,138,Windows,10,https://5puzkbbxv1.cognition.run/?sona_id=57055,"en-US,en;q=0.5",zbcrokv6o3cce5p,21,"[""White""]",No,Female,n/a,No,320837,NA,null,<p></p>,null,choice,tc,binary,repulsion,1,televisions,null,null,null,null,null,null,1,NA,NA,NA,NA,NA,NA,NA,NA,NA,NA
NA,NA,NA,NA,NA,choice_trial,survey-html-form,71,215230,0.0-4.0-1.33,323,1,2025-05-08T18:23:56Z,b60275e29fe2361ab97ac0ac217840d7,Mozilla/5.0 (Windows NT 10.0; Win64; x64; rv:138.0) Gecko/20100101 Firefox/138.0,NA,Firefox,138,Windows,10,https://5puzkbbxv1.cognition.run/?sona_id=57055,"en-US,en;q=0.5",zbcrokv6o3cce5p,21,"[""White""]",No,Female,n/a,No,320837,NA,4357,NA,"{""product_choice"":""B""}",choice,tc,binary,repulsion,1,televisions,null,null,null,null,null,null,1,100,90,null,30,40,null,Screen size,Average lifespan,NA,NA
NA,NA,NA,NA,NA,choice_trial_setup,html-keyboard-response,72,215549,0.0-4.0-0.34,323,1,2025-05-08T18:23:56Z,b60275e29fe2361ab97ac0ac217840d7,Mozilla/5.0 (Windows NT 10.0; Win64; x64; rv:138.0) Gecko/20100101 Firefox/138.0,NA,Firefox,138,Windows,10,https://5puzkbbxv1.cognition.run/?sona_id=57055,"en-US,en;q=0.5",zbcrokv6o3cce5p,21,"[""White""]",No,Female,n/a,No,320837,NA,null,<p></p>,null,choice,wb,binary,catch,null,televisions,70,65,40,15,null,null,1,NA,NA,NA,NA,NA,NA,NA,NA,NA,NA
NA,NA,NA,NA,NA,choice_trial,survey-html-form,73,219569,0.0-4.0-1.34,323,1,2025-05-08T18:23:56Z,b60275e29fe2361ab97ac0ac217840d7,Mozilla/5.0 (Windows NT 10.0; Win64; x64; rv:138.0) Gecko/20100101 Firefox/138.0,NA,Firefox,138,Windows,10,https://5puzkbbxv1.cognition.run/?sona_id=57055,"en-US,en;q=0.5",zbcrokv6o3cce5p,21,"[""White""]",No,Female,n/a,No,320837,NA,4013,NA,"{""product_choice"":""B""}",choice,wb,binary,catch,null,televisions,70,65,40,15,null,null,1,null,null,null,null,null,null,Screen size,Average lifespan,NA,NA
NA,NA,NA,NA,NA,choice_trial_setup,html-keyboard-response,74,219884,0.0-4.0-0.35,323,1,2025-05-08T18:23:56Z,b60275e29fe2361ab97ac0ac217840d7,Mozilla/5.0 (Windows NT 10.0; Win64; x64; rv:138.0) Gecko/20100101 Firefox/138.0,NA,Firefox,138,Windows,10,https://5puzkbbxv1.cognition.run/?sona_id=57055,"en-US,en;q=0.5",zbcrokv6o3cce5p,21,"[""White""]",No,Female,n/a,No,320837,NA,null,<p></p>,null,choice,bww,trinary,catch,null,televisions,55,60,30,50,15,20,1,NA,NA,NA,NA,NA,NA,NA,NA,NA,NA
NA,NA,NA,NA,NA,choice_trial,survey-html-form,75,223578,0.0-4.0-1.35,323,1,2025-05-08T18:23:56Z,b60275e29fe2361ab97ac0ac217840d7,Mozilla/5.0 (Windows NT 10.0; Win64; x64; rv:138.0) Gecko/20100101 Firefox/138.0,NA,Firefox,138,Windows,10,https://5puzkbbxv1.cognition.run/?sona_id=57055,"en-US,en;q=0.5",zbcrokv6o3cce5p,21,"[""White""]",No,Female,n/a,No,320837,NA,3684,NA,"{""product_choice"":""A""}",choice,bww,trinary,catch,null,televisions,55,60,30,50,15,20,1,null,null,null,null,null,null,Screen size,Average lifespan,NA,NA
NA,NA,NA,NA,NA,choice_trial_setup,html-keyboard-response,76,223891,0.0-4.0-0.36,323,1,2025-05-08T18:23:56Z,b60275e29fe2361ab97ac0ac217840d7,Mozilla/5.0 (Windows NT 10.0; Win64; x64; rv:138.0) Gecko/20100101 Firefox/138.0,NA,Firefox,138,Windows,10,https://5puzkbbxv1.cognition.run/?sona_id=57055,"en-US,en;q=0.5",zbcrokv6o3cce5p,21,"[""White""]",No,Female,n/a,No,320837,NA,null,<p></p>,null,choice,tcd,trinary,repulsion_A,2,televisions,null,null,null,null,null,null,1,NA,NA,NA,NA,NA,NA,NA,NA,NA,NA
NA,NA,NA,NA,NA,choice_trial,survey-html-form,77,227851,0.0-4.0-1.36,323,1,2025-05-08T18:23:56Z,b60275e29fe2361ab97ac0ac217840d7,Mozilla/5.0 (Windows NT 10.0; Win64; x64; rv:138.0) Gecko/20100101 Firefox/138.0,NA,Firefox,138,Windows,10,https://5puzkbbxv1.cognition.run/?sona_id=57055,"en-US,en;q=0.5",zbcrokv6o3cce5p,21,"[""White""]",No,Female,n/a,No,320837,NA,3953,NA,"{""product_choice"":""A""}",choice,tcd,trinary,repulsion_A,2,televisions,null,null,null,null,null,null,1,30,40,20,100,90,100,Screen size,Average lifespan,NA,NA
NA,NA,NA,NA,NA,choice_trial_setup,html-keyboard-response,78,228161,0.0-4.0-0.37,323,1,2025-05-08T18:23:56Z,b60275e29fe2361ab97ac0ac217840d7,Mozilla/5.0 (Windows NT 10.0; Win64; x64; rv:138.0) Gecko/20100101 Firefox/138.0,NA,Firefox,138,Windows,10,https://5puzkbbxv1.cognition.run/?sona_id=57055,"en-US,en;q=0.5",zbcrokv6o3cce5p,21,"[""White""]",No,Female,n/a,No,320837,NA,null,<p></p>,null,choice,tc,binary,repulsion,2,microwave ovens,null,null,null,null,null,null,1,NA,NA,NA,NA,NA,NA,NA,NA,NA,NA
NA,NA,NA,NA,NA,choice_trial,survey-html-form,79,231154,0.0-4.0-1.37,323,1,2025-05-08T18:23:56Z,b60275e29fe2361ab97ac0ac217840d7,Mozilla/5.0 (Windows NT 10.0; Win64; x64; rv:138.0) Gecko/20100101 Firefox/138.0,NA,Firefox,138,Windows,10,https://5puzkbbxv1.cognition.run/?sona_id=57055,"en-US,en;q=0.5",zbcrokv6o3cce5p,21,"[""White""]",No,Female,n/a,No,320837,NA,2988,NA,"{""product_choice"":""A""}",choice,tc,binary,repulsion,2,microwave ovens,null,null,null,null,null,null,1,30,40,null,100,90,null,Warranty,Cooking power,NA,NA
NA,NA,NA,NA,NA,choice_trial_setup,html-keyboard-response,80,231462,0.0-4.0-0.38,323,1,2025-05-08T18:23:56Z,b60275e29fe2361ab97ac0ac217840d7,Mozilla/5.0 (Windows NT 10.0; Win64; x64; rv:138.0) Gecko/20100101 Firefox/138.0,NA,Firefox,138,Windows,10,https://5puzkbbxv1.cognition.run/?sona_id=57055,"en-US,en;q=0.5",zbcrokv6o3cce5p,21,"[""White""]",No,Female,n/a,No,320837,NA,null,<p></p>,null,choice,cdt,trinary,repulsion_A,1,microwave ovens,null,null,null,null,null,null,1,NA,NA,NA,NA,NA,NA,NA,NA,NA,NA
NA,NA,NA,NA,NA,choice_trial,survey-html-form,81,234002,0.0-4.0-1.38,323,1,2025-05-08T18:23:56Z,b60275e29fe2361ab97ac0ac217840d7,Mozilla/5.0 (Windows NT 10.0; Win64; x64; rv:138.0) Gecko/20100101 Firefox/138.0,NA,Firefox,138,Windows,10,https://5puzkbbxv1.cognition.run/?sona_id=57055,"en-US,en;q=0.5",zbcrokv6o3cce5p,21,"[""White""]",No,Female,n/a,No,320837,NA,2531,NA,"{""product_choice"":""C""}",choice,cdt,trinary,repulsion_A,1,microwave ovens,null,null,null,null,null,null,1,100,90,100,30,40,20,Warranty,Cooking power,NA,NA
NA,NA,NA,NA,NA,choice_trial_setup,html-keyboard-response,82,234308,0.0-4.0-0.39,323,1,2025-05-08T18:23:56Z,b60275e29fe2361ab97ac0ac217840d7,Mozilla/5.0 (Windows NT 10.0; Win64; x64; rv:138.0) Gecko/20100101 Firefox/138.0,NA,Firefox,138,Windows,10,https://5puzkbbxv1.cognition.run/?sona_id=57055,"en-US,en;q=0.5",zbcrokv6o3cce5p,21,"[""White""]",No,Female,n/a,No,320837,NA,null,<p></p>,null,choice,cdt,trinary,attraction,1,laptops,null,null,null,null,null,null,2,NA,NA,NA,NA,NA,NA,NA,NA,NA,NA
NA,NA,NA,NA,NA,choice_trial,survey-html-form,83,236707,0.0-4.0-1.39,323,1,2025-05-08T18:23:56Z,b60275e29fe2361ab97ac0ac217840d7,Mozilla/5.0 (Windows NT 10.0; Win64; x64; rv:138.0) Gecko/20100101 Firefox/138.0,NA,Firefox,138,Windows,10,https://5puzkbbxv1.cognition.run/?sona_id=57055,"en-US,en;q=0.5",zbcrokv6o3cce5p,21,"[""White""]",No,Female,n/a,No,320837,NA,2390,NA,"{""product_choice"":""A""}",choice,cdt,trinary,attraction,1,laptops,null,null,null,null,null,null,2,60,50,60,50,60,40,Processing speed,Memory (RAM),NA,NA
NA,NA,NA,NA,NA,choice_trial_setup,html-keyboard-response,84,237020,0.0-4.0-0.40,323,1,2025-05-08T18:23:56Z,b60275e29fe2361ab97ac0ac217840d7,Mozilla/5.0 (Windows NT 10.0; Win64; x64; rv:138.0) Gecko/20100101 Firefox/138.0,NA,Firefox,138,Windows,10,https://5puzkbbxv1.cognition.run/?sona_id=57055,"en-US,en;q=0.5",zbcrokv6o3cce5p,21,"[""White""]",No,Female,n/a,No,320837,NA,null,<p></p>,null,choice,ctd,trinary,repulsion_B,2,laptops,null,null,null,null,null,null,1,NA,NA,NA,NA,NA,NA,NA,NA,NA,NA
NA,NA,NA,NA,NA,choice_trial,survey-html-form,85,241002,0.0-4.0-1.40,323,1,2025-05-08T18:23:56Z,b60275e29fe2361ab97ac0ac217840d7,Mozilla/5.0 (Windows NT 10.0; Win64; x64; rv:138.0) Gecko/20100101 Firefox/138.0,NA,Firefox,138,Windows,10,https://5puzkbbxv1.cognition.run/?sona_id=57055,"en-US,en;q=0.5",zbcrokv6o3cce5p,21,"[""White""]",No,Female,n/a,No,320837,NA,3974,NA,"{""product_choice"":""A""}",choice,ctd,trinary,repulsion_B,2,laptops,null,null,null,null,null,null,1,40,30,40,90,100,80,Processing speed,Memory (RAM),NA,NA
NA,NA,NA,NA,NA,choice_trial_setup,html-keyboard-response,86,241310,0.0-4.0-0.41,323,1,2025-05-08T18:23:56Z,b60275e29fe2361ab97ac0ac217840d7,Mozilla/5.0 (Windows NT 10.0; Win64; x64; rv:138.0) Gecko/20100101 Firefox/138.0,NA,Firefox,138,Windows,10,https://5puzkbbxv1.cognition.run/?sona_id=57055,"en-US,en;q=0.5",zbcrokv6o3cce5p,21,"[""White""]",No,Female,n/a,No,320837,NA,null,<p></p>,null,choice,ct,binary,repulsion,2,laptops,null,null,null,null,null,null,1,NA,NA,NA,NA,NA,NA,NA,NA,NA,NA
NA,NA,NA,NA,NA,choice_trial,survey-html-form,87,243666,0.0-4.0-1.41,323,1,2025-05-08T18:23:56Z,b60275e29fe2361ab97ac0ac217840d7,Mozilla/5.0 (Windows NT 10.0; Win64; x64; rv:138.0) Gecko/20100101 Firefox/138.0,NA,Firefox,138,Windows,10,https://5puzkbbxv1.cognition.run/?sona_id=57055,"en-US,en;q=0.5",zbcrokv6o3cce5p,21,"[""White""]",No,Female,n/a,No,320837,NA,2351,NA,"{""product_choice"":""B""}",choice,ct,binary,repulsion,2,laptops,null,null,null,null,null,null,1,30,40,null,100,90,null,Processing speed,Memory (RAM),NA,NA
NA,NA,NA,NA,NA,choice_trial_setup,html-keyboard-response,88,243977,0.0-4.0-0.42,323,1,2025-05-08T18:23:56Z,b60275e29fe2361ab97ac0ac217840d7,Mozilla/5.0 (Windows NT 10.0; Win64; x64; rv:138.0) Gecko/20100101 Firefox/138.0,NA,Firefox,138,Windows,10,https://5puzkbbxv1.cognition.run/?sona_id=57055,"en-US,en;q=0.5",zbcrokv6o3cce5p,21,"[""White""]",No,Female,n/a,No,320837,NA,null,<p></p>,null,choice,ct,binary,repulsion,1,washing machines,null,null,null,null,null,null,2,NA,NA,NA,NA,NA,NA,NA,NA,NA,NA
NA,NA,NA,NA,NA,choice_trial,survey-html-form,89,248051,0.0-4.0-1.42,323,1,2025-05-08T18:23:56Z,b60275e29fe2361ab97ac0ac217840d7,Mozilla/5.0 (Windows NT 10.0; Win64; x64; rv:138.0) Gecko/20100101 Firefox/138.0,NA,Firefox,138,Windows,10,https://5puzkbbxv1.cognition.run/?sona_id=57055,"en-US,en;q=0.5",zbcrokv6o3cce5p,21,"[""White""]",No,Female,n/a,No,320837,NA,4063,NA,"{""product_choice"":""B""}",choice,ct,binary,repulsion,1,washing machines,null,null,null,null,null,null,2,100,90,null,30,40,null,Average lifespan,Energy savings,NA,NA
NA,NA,NA,NA,NA,choice_trial_setup,html-keyboard-response,90,248357,0.0-4.0-0.43,323,1,2025-05-08T18:23:56Z,b60275e29fe2361ab97ac0ac217840d7,Mozilla/5.0 (Windows NT 10.0; Win64; x64; rv:138.0) Gecko/20100101 Firefox/138.0,NA,Firefox,138,Windows,10,https://5puzkbbxv1.cognition.run/?sona_id=57055,"en-US,en;q=0.5",zbcrokv6o3cce5p,21,"[""White""]",No,Female,n/a,No,320837,NA,null,<p></p>,null,choice,tdc,trinary,repulsion_B,1,washing machines,null,null,null,null,null,null,1,NA,NA,NA,NA,NA,NA,NA,NA,NA,NA
NA,NA,NA,NA,NA,choice_trial,survey-html-form,91,252501,0.0-4.0-1.43,323,1,2025-05-08T18:23:56Z,b60275e29fe2361ab97ac0ac217840d7,Mozilla/5.0 (Windows NT 10.0; Win64; x64; rv:138.0) Gecko/20100101 Firefox/138.0,NA,Firefox,138,Windows,10,https://5puzkbbxv1.cognition.run/?sona_id=57055,"en-US,en;q=0.5",zbcrokv6o3cce5p,21,"[""White""]",No,Female,n/a,No,320837,NA,4134,NA,"{""product_choice"":""C""}",choice,tdc,trinary,repulsion_B,1,washing machines,null,null,null,null,null,null,1,90,100,80,40,30,40,Average lifespan,Energy savings,NA,NA
NA,NA,NA,NA,NA,post_trials_message,html-button-response,92,253834,0.0-5.0,323,1,2025-05-08T18:23:56Z,b60275e29fe2361ab97ac0ac217840d7,Mozilla/5.0 (Windows NT 10.0; Win64; x64; rv:138.0) Gecko/20100101 Firefox/138.0,NA,Firefox,138,Windows,10,https://5puzkbbxv1.cognition.run/?sona_id=57055,"en-US,en;q=0.5",zbcrokv6o3cce5p,21,"[""White""]",No,Female,n/a,No,320837,NA,1328,<p> <b>Thank you for your patience!</b></p><p>  The study will be done after completing a brief form. </p>,0,NA,NA,NA,NA,NA,NA,NA,NA,NA,NA,NA,NA,NA,NA,NA,NA,NA,NA,NA,NA,NA,NA,NA
NA,NA,NA,NA,NA,survey_message,survey-text,93,288837,0.0-6.0,323,1,2025-05-08T18:23:56Z,b60275e29fe2361ab97ac0ac217840d7,Mozilla/5.0 (Windows NT 10.0; Win64; x64; rv:138.0) Gecko/20100101 Firefox/138.0,NA,Firefox,138,Windows,10,https://5puzkbbxv1.cognition.run/?sona_id=57055,"en-US,en;q=0.5",zbcrokv6o3cce5p,21,"[""White""]",No,Female,n/a,No,320837,NA,34961,NA,"{""Q0"":""I picked what seemed like the best option ""}",NA,NA,NA,NA,NA,NA,NA,NA,NA,NA,NA,NA,NA,NA,NA,NA,NA,NA,NA,NA,NA,I picked what seemed like the best option,NA
NA,NA,NA,NA,NA,demo_age,survey-text,94,292133,0.0-7.0,323,1,2025-05-08T18:23:56Z,b60275e29fe2361ab97ac0ac217840d7,Mozilla/5.0 (Windows NT 10.0; Win64; x64; rv:138.0) Gecko/20100101 Firefox/138.0,NA,Firefox,138,Windows,10,https://5puzkbbxv1.cognition.run/?sona_id=57055,"en-US,en;q=0.5",zbcrokv6o3cce5p,21,"[""White""]",No,Female,n/a,No,320837,NA,3271,NA,"{""Q0"":""21""}",NA,NA,NA,NA,NA,NA,NA,NA,NA,NA,NA,NA,NA,NA,NA,NA,NA,NA,NA,NA,NA,NA,NA
NA,NA,NA,NA,NA,demo_race,survey-multi-select,95,295205,0.0-8.0,323,1,2025-05-08T18:23:56Z,b60275e29fe2361ab97ac0ac217840d7,Mozilla/5.0 (Windows NT 10.0; Win64; x64; rv:138.0) Gecko/20100101 Firefox/138.0,NA,Firefox,138,Windows,10,https://5puzkbbxv1.cognition.run/?sona_id=57055,"en-US,en;q=0.5",zbcrokv6o3cce5p,21,"[""White""]",No,Female,n/a,No,320837,NA,3066,NA,"{""Q0"":[""White""]}",NA,NA,NA,NA,NA,NA,NA,NA,NA,NA,NA,NA,NA,NA,NA,NA,NA,NA,NA,NA,NA,NA,[0]
NA,NA,NA,NA,NA,demo_ethnicity_gender,survey-multi-choice,96,299389,0.0-9.0,323,1,2025-05-08T18:23:56Z,b60275e29fe2361ab97ac0ac217840d7,Mozilla/5.0 (Windows NT 10.0; Win64; x64; rv:138.0) Gecko/20100101 Firefox/138.0,NA,Firefox,138,Windows,10,https://5puzkbbxv1.cognition.run/?sona_id=57055,"en-US,en;q=0.5",zbcrokv6o3cce5p,21,"[""White""]",No,Female,n/a,No,320837,NA,4174,NA,"{""Q0"":""No"",""Q1"":""Female""}",NA,NA,NA,NA,NA,NA,NA,NA,NA,NA,NA,NA,NA,NA,NA,NA,NA,NA,NA,NA,NA,NA,"[0,1]"
NA,NA,NA,NA,NA,demo_countries,survey-text,97,305718,0.0-10.0,323,1,2025-05-08T18:23:56Z,b60275e29fe2361ab97ac0ac217840d7,Mozilla/5.0 (Windows NT 10.0; Win64; x64; rv:138.0) Gecko/20100101 Firefox/138.0,NA,Firefox,138,Windows,10,https://5puzkbbxv1.cognition.run/?sona_id=57055,"en-US,en;q=0.5",zbcrokv6o3cce5p,21,"[""White""]",No,Female,n/a,No,320837,NA,6290,NA,"{""Q0"":""n/a""}",NA,NA,NA,NA,NA,NA,NA,NA,NA,NA,NA,NA,NA,NA,NA,NA,NA,NA,NA,NA,NA,NA,NA
NA,NA,NA,NA,NA,demo_prev_study,survey-multi-choice,98,313788,0.0-11.0,323,1,2025-05-08T18:23:56Z,b60275e29fe2361ab97ac0ac217840d7,Mozilla/5.0 (Windows NT 10.0; Win64; x64; rv:138.0) Gecko/20100101 Firefox/138.0,NA,Firefox,138,Windows,10,https://5puzkbbxv1.cognition.run/?sona_id=57055,"en-US,en;q=0.5",zbcrokv6o3cce5p,21,"[""White""]",No,Female,n/a,No,320837,NA,8063,NA,"{""Q0"":""No""}",NA,NA,NA,NA,NA,NA,NA,NA,NA,NA,NA,NA,NA,NA,NA,NA,NA,NA,NA,NA,NA,NA,[0]
NA,NA,NA,NA,NA,post_survey_message,html-keyboard-response,99,317058,0.0-12.0,323,1,2025-05-08T18:23:56Z,b60275e29fe2361ab97ac0ac217840d7,Mozilla/5.0 (Windows NT 10.0; Win64; x64; rv:138.0) Gecko/20100101 Firefox/138.0,NA,Firefox,138,Windows,10,https://5puzkbbxv1.cognition.run/?sona_id=57055,"en-US,en;q=0.5",zbcrokv6o3cce5p,21,"[""White""]",No,Female,n/a,No,320837,NA,3265,NA,j,NA,NA,NA,NA,NA,NA,NA,NA,NA,NA,NA,NA,NA,NA,NA,NA,NA,NA,NA,NA,NA,NA,NA
NA,NA,NA,NA,NA,debrief,image-keyboard-response,100,320834,0.0-13.0,323,1,2025-05-08T18:23:56Z,b60275e29fe2361ab97ac0ac217840d7,Mozilla/5.0 (Windows NT 10.0; Win64; x64; rv:138.0) Gecko/20100101 Firefox/138.0,NA,Firefox,138,Windows,10,https://5puzkbbxv1.cognition.run/?sona_id=57055,"en-US,en;q=0.5",zbcrokv6o3cce5p,21,"[""White""]",No,Female,n/a,No,320837,NA,3733,Judg_choice_debrief.png,p,NA,NA,NA,NA,NA,NA,NA,NA,NA,NA,NA,NA,NA,NA,NA,NA,NA,NA,NA,NA,NA,NA,NA
