success,timeout,failed_images,failed_audio,failed_video,screen_id,trial_type,trial_index,time_elapsed,internal_node_id,run_id,condition,recorded_at,source_code_version,user_agent,device,browser,browser_version,platform,platform_version,referer,accept_language,ppt_id,age,race,ethnicity,gender,other_countries,prev_study,view_history,rt,stimulus,response,phase,order,set,effect,t_high,category,d1_best,d2_best,d1_worst1,d2_worst1,d1_worst2,d2_worst2,first_dim,d1_t,d1_c,d1_d,d2_t,d2_c,d2_d,d1_name,d2_name,strategy_response,question_order
TRUE,FALSE,[],[],[],img preload,preload,0,211,0.0-0.0,324,1,2025-05-08T19:02:17Z,b60275e29fe2361ab97ac0ac217840d7,"Mozilla/5.0 (iPhone; CPU iPhone OS 17_6_1 like Mac OS X) AppleWebKit/605.1.15 (KHTML, like Gecko) Version/17.6 Mobile/15E148 Safari/604.1",iPhone,Safari,17.6,iOS,17_6_1,https://5puzkbbxv1.cognition.run/?sona_id=56587,"en-US,en;q=0.9",cugo0m1c5mqp98z,18,"[""Black or African-American""]",No,Female,N/A,No,NA,NA,NA,NA,NA,NA,NA,NA,NA,NA,NA,NA,NA,NA,NA,NA,NA,NA,NA,NA,NA,NA,NA,NA,NA,NA,NA
NA,NA,NA,NA,NA,computer_message,instructions,1,5556,0.0-1.0,324,1,2025-05-08T19:02:17Z,b60275e29fe2361ab97ac0ac217840d7,"Mozilla/5.0 (iPhone; CPU iPhone OS 17_6_1 like Mac OS X) AppleWebKit/605.1.15 (KHTML, like Gecko) Version/17.6 Mobile/15E148 Safari/604.1",iPhone,Safari,17.6,iOS,17_6_1,https://5puzkbbxv1.cognition.run/?sona_id=56587,"en-US,en;q=0.9",cugo0m1c5mqp98z,18,"[""Black or African-American""]",No,Female,N/A,No,"[{""page_index"":0,""viewing_time"":5342}]",5342,NA,NA,NA,NA,NA,NA,NA,NA,NA,NA,NA,NA,NA,NA,NA,NA,NA,NA,NA,NA,NA,NA,NA,NA,NA
TRUE,NA,NA,NA,NA,NA,fullscreen,2,7864,0.0-2.0,324,1,2025-05-08T19:02:17Z,b60275e29fe2361ab97ac0ac217840d7,"Mozilla/5.0 (iPhone; CPU iPhone OS 17_6_1 like Mac OS X) AppleWebKit/605.1.15 (KHTML, like Gecko) Version/17.6 Mobile/15E148 Safari/604.1",iPhone,Safari,17.6,iOS,17_6_1,https://5puzkbbxv1.cognition.run/?sona_id=56587,"en-US,en;q=0.9",cugo0m1c5mqp98z,18,"[""Black or African-American""]",No,Female,N/A,No,NA,1304,NA,NA,NA,NA,NA,NA,NA,NA,NA,NA,NA,NA,NA,NA,NA,NA,NA,NA,NA,NA,NA,NA,NA,NA,NA
NA,NA,NA,NA,NA,choice_instructions,instructions,3,44815,0.0-3.0,324,1,2025-05-08T19:02:17Z,b60275e29fe2361ab97ac0ac217840d7,"Mozilla/5.0 (iPhone; CPU iPhone OS 17_6_1 like Mac OS X) AppleWebKit/605.1.15 (KHTML, like Gecko) Version/17.6 Mobile/15E148 Safari/604.1",iPhone,Safari,17.6,iOS,17_6_1,https://5puzkbbxv1.cognition.run/?sona_id=56587,"en-US,en;q=0.9",cugo0m1c5mqp98z,18,"[""Black or African-American""]",No,Female,N/A,No,"[{""page_index"":0,""viewing_time"":1081},{""page_index"":1,""viewing_time"":1536},{""page_index"":2,""viewing_time"":1246},{""page_index"":3,""viewing_time"":869},{""page_index"":4,""viewing_time"":884},{""page_index"":5,""viewing_time"":24459},{""page_index"":6,""viewing_time"":6873}]",36949,NA,NA,NA,NA,NA,NA,NA,NA,NA,NA,NA,NA,NA,NA,NA,NA,NA,NA,NA,NA,NA,NA,NA,NA,NA
NA,NA,NA,NA,NA,choice_trial_setup,html-keyboard-response,4,45122,0.0-4.0-0.0,324,1,2025-05-08T19:02:17Z,b60275e29fe2361ab97ac0ac217840d7,"Mozilla/5.0 (iPhone; CPU iPhone OS 17_6_1 like Mac OS X) AppleWebKit/605.1.15 (KHTML, like Gecko) Version/17.6 Mobile/15E148 Safari/604.1",iPhone,Safari,17.6,iOS,17_6_1,https://5puzkbbxv1.cognition.run/?sona_id=56587,"en-US,en;q=0.9",cugo0m1c5mqp98z,18,"[""Black or African-American""]",No,Female,N/A,No,NA,null,<p></p>,null,choice,wb,binary,catch,null,televisions,80,75,35,25,null,null,2,NA,NA,NA,NA,NA,NA,NA,NA,NA,NA
NA,NA,NA,NA,NA,choice_trial,survey-html-form,5,59690,0.0-4.0-1.0,324,1,2025-05-08T19:02:17Z,b60275e29fe2361ab97ac0ac217840d7,"Mozilla/5.0 (iPhone; CPU iPhone OS 17_6_1 like Mac OS X) AppleWebKit/605.1.15 (KHTML, like Gecko) Version/17.6 Mobile/15E148 Safari/604.1",iPhone,Safari,17.6,iOS,17_6_1,https://5puzkbbxv1.cognition.run/?sona_id=56587,"en-US,en;q=0.9",cugo0m1c5mqp98z,18,"[""Black or African-American""]",No,Female,N/A,No,NA,14558,NA,"{""product_choice"":""B""}",choice,wb,binary,catch,null,televisions,80,75,35,25,null,null,2,null,null,null,null,null,null,Screen size,Average lifespan,NA,NA
NA,NA,NA,NA,NA,choice_trial_setup,html-keyboard-response,6,59994,0.0-4.0-0.1,324,1,2025-05-08T19:02:17Z,b60275e29fe2361ab97ac0ac217840d7,"Mozilla/5.0 (iPhone; CPU iPhone OS 17_6_1 like Mac OS X) AppleWebKit/605.1.15 (KHTML, like Gecko) Version/17.6 Mobile/15E148 Safari/604.1",iPhone,Safari,17.6,iOS,17_6_1,https://5puzkbbxv1.cognition.run/?sona_id=56587,"en-US,en;q=0.9",cugo0m1c5mqp98z,18,"[""Black or African-American""]",No,Female,N/A,No,NA,null,<p></p>,null,choice,ct,binary,attraction,NA,microwave ovens,null,null,null,null,null,null,1,NA,NA,NA,NA,NA,NA,NA,NA,NA,NA
NA,NA,NA,NA,NA,choice_trial,survey-html-form,7,76737,0.0-4.0-1.1,324,1,2025-05-08T19:02:17Z,b60275e29fe2361ab97ac0ac217840d7,"Mozilla/5.0 (iPhone; CPU iPhone OS 17_6_1 like Mac OS X) AppleWebKit/605.1.15 (KHTML, like Gecko) Version/17.6 Mobile/15E148 Safari/604.1",iPhone,Safari,17.6,iOS,17_6_1,https://5puzkbbxv1.cognition.run/?sona_id=56587,"en-US,en;q=0.9",cugo0m1c5mqp98z,18,"[""Black or African-American""]",No,Female,N/A,No,NA,16737,NA,"{""product_choice"":""A""}",choice,ct,binary,attraction,NA,microwave ovens,null,null,null,null,null,null,1,60,50,null,50,60,null,Warranty,Cooking power,NA,NA
NA,NA,NA,NA,NA,choice_trial_setup,html-keyboard-response,8,77041,0.0-4.0-0.2,324,1,2025-05-08T19:02:17Z,b60275e29fe2361ab97ac0ac217840d7,"Mozilla/5.0 (iPhone; CPU iPhone OS 17_6_1 like Mac OS X) AppleWebKit/605.1.15 (KHTML, like Gecko) Version/17.6 Mobile/15E148 Safari/604.1",iPhone,Safari,17.6,iOS,17_6_1,https://5puzkbbxv1.cognition.run/?sona_id=56587,"en-US,en;q=0.9",cugo0m1c5mqp98z,18,"[""Black or African-American""]",No,Female,N/A,No,NA,null,<p></p>,null,choice,dtc,trinary,repulsion_B,1,microwave ovens,null,null,null,null,null,null,2,NA,NA,NA,NA,NA,NA,NA,NA,NA,NA
NA,NA,NA,NA,NA,choice_trial,survey-html-form,9,90196,0.0-4.0-1.2,324,1,2025-05-08T19:02:17Z,b60275e29fe2361ab97ac0ac217840d7,"Mozilla/5.0 (iPhone; CPU iPhone OS 17_6_1 like Mac OS X) AppleWebKit/605.1.15 (KHTML, like Gecko) Version/17.6 Mobile/15E148 Safari/604.1",iPhone,Safari,17.6,iOS,17_6_1,https://5puzkbbxv1.cognition.run/?sona_id=56587,"en-US,en;q=0.9",cugo0m1c5mqp98z,18,"[""Black or African-American""]",No,Female,N/A,No,NA,13152,NA,"{""product_choice"":""B""}",choice,dtc,trinary,repulsion_B,1,microwave ovens,null,null,null,null,null,null,2,90,100,80,40,30,40,Warranty,Cooking power,NA,NA
NA,NA,NA,NA,NA,choice_trial_setup,html-keyboard-response,10,90499,0.0-4.0-0.3,324,1,2025-05-08T19:02:17Z,b60275e29fe2361ab97ac0ac217840d7,"Mozilla/5.0 (iPhone; CPU iPhone OS 17_6_1 like Mac OS X) AppleWebKit/605.1.15 (KHTML, like Gecko) Version/17.6 Mobile/15E148 Safari/604.1",iPhone,Safari,17.6,iOS,17_6_1,https://5puzkbbxv1.cognition.run/?sona_id=56587,"en-US,en;q=0.9",cugo0m1c5mqp98z,18,"[""Black or African-American""]",No,Female,N/A,No,NA,null,<p></p>,null,choice,ctd,trinary,repulsion_B,2,washing machines,null,null,null,null,null,null,1,NA,NA,NA,NA,NA,NA,NA,NA,NA,NA
NA,NA,NA,NA,NA,choice_trial,survey-html-form,11,98856,0.0-4.0-1.3,324,1,2025-05-08T19:02:17Z,b60275e29fe2361ab97ac0ac217840d7,"Mozilla/5.0 (iPhone; CPU iPhone OS 17_6_1 like Mac OS X) AppleWebKit/605.1.15 (KHTML, like Gecko) Version/17.6 Mobile/15E148 Safari/604.1",iPhone,Safari,17.6,iOS,17_6_1,https://5puzkbbxv1.cognition.run/?sona_id=56587,"en-US,en;q=0.9",cugo0m1c5mqp98z,18,"[""Black or African-American""]",No,Female,N/A,No,NA,8351,NA,"{""product_choice"":""B""}",choice,ctd,trinary,repulsion_B,2,washing machines,null,null,null,null,null,null,1,40,30,40,90,100,80,Average lifespan,Energy savings,NA,NA
NA,NA,NA,NA,NA,choice_trial_setup,html-keyboard-response,12,99160,0.0-4.0-0.4,324,1,2025-05-08T19:02:17Z,b60275e29fe2361ab97ac0ac217840d7,"Mozilla/5.0 (iPhone; CPU iPhone OS 17_6_1 like Mac OS X) AppleWebKit/605.1.15 (KHTML, like Gecko) Version/17.6 Mobile/15E148 Safari/604.1",iPhone,Safari,17.6,iOS,17_6_1,https://5puzkbbxv1.cognition.run/?sona_id=56587,"en-US,en;q=0.9",cugo0m1c5mqp98z,18,"[""Black or African-American""]",No,Female,N/A,No,NA,null,<p></p>,null,choice,ctd,trinary,attraction,2,microwave ovens,null,null,null,null,null,null,2,NA,NA,NA,NA,NA,NA,NA,NA,NA,NA
NA,NA,NA,NA,NA,choice_trial,survey-html-form,13,107846,0.0-4.0-1.4,324,1,2025-05-08T19:02:17Z,b60275e29fe2361ab97ac0ac217840d7,"Mozilla/5.0 (iPhone; CPU iPhone OS 17_6_1 like Mac OS X) AppleWebKit/605.1.15 (KHTML, like Gecko) Version/17.6 Mobile/15E148 Safari/604.1",iPhone,Safari,17.6,iOS,17_6_1,https://5puzkbbxv1.cognition.run/?sona_id=56587,"en-US,en;q=0.9",cugo0m1c5mqp98z,18,"[""Black or African-American""]",No,Female,N/A,No,NA,8683,NA,"{""product_choice"":""B""}",choice,ctd,trinary,attraction,2,microwave ovens,null,null,null,null,null,null,2,50,60,40,60,50,60,Warranty,Cooking power,NA,NA
NA,NA,NA,NA,NA,choice_trial_setup,html-keyboard-response,14,108149,0.0-4.0-0.5,324,1,2025-05-08T19:02:17Z,b60275e29fe2361ab97ac0ac217840d7,"Mozilla/5.0 (iPhone; CPU iPhone OS 17_6_1 like Mac OS X) AppleWebKit/605.1.15 (KHTML, like Gecko) Version/17.6 Mobile/15E148 Safari/604.1",iPhone,Safari,17.6,iOS,17_6_1,https://5puzkbbxv1.cognition.run/?sona_id=56587,"en-US,en;q=0.9",cugo0m1c5mqp98z,18,"[""Black or African-American""]",No,Female,N/A,No,NA,null,<p></p>,null,choice,ct,binary,repulsion,1,washing machines,null,null,null,null,null,null,2,NA,NA,NA,NA,NA,NA,NA,NA,NA,NA
NA,NA,NA,NA,NA,choice_trial,survey-html-form,15,114535,0.0-4.0-1.5,324,1,2025-05-08T19:02:17Z,b60275e29fe2361ab97ac0ac217840d7,"Mozilla/5.0 (iPhone; CPU iPhone OS 17_6_1 like Mac OS X) AppleWebKit/605.1.15 (KHTML, like Gecko) Version/17.6 Mobile/15E148 Safari/604.1",iPhone,Safari,17.6,iOS,17_6_1,https://5puzkbbxv1.cognition.run/?sona_id=56587,"en-US,en;q=0.9",cugo0m1c5mqp98z,18,"[""Black or African-American""]",No,Female,N/A,No,NA,6379,NA,"{""product_choice"":""B""}",choice,ct,binary,repulsion,1,washing machines,null,null,null,null,null,null,2,100,90,null,30,40,null,Average lifespan,Energy savings,NA,NA
NA,NA,NA,NA,NA,choice_trial_setup,html-keyboard-response,16,114839,0.0-4.0-0.6,324,1,2025-05-08T19:02:17Z,b60275e29fe2361ab97ac0ac217840d7,"Mozilla/5.0 (iPhone; CPU iPhone OS 17_6_1 like Mac OS X) AppleWebKit/605.1.15 (KHTML, like Gecko) Version/17.6 Mobile/15E148 Safari/604.1",iPhone,Safari,17.6,iOS,17_6_1,https://5puzkbbxv1.cognition.run/?sona_id=56587,"en-US,en;q=0.9",cugo0m1c5mqp98z,18,"[""Black or African-American""]",No,Female,N/A,No,NA,null,<p></p>,null,choice,ct,binary,attraction,NA,laptops,null,null,null,null,null,null,1,NA,NA,NA,NA,NA,NA,NA,NA,NA,NA
NA,NA,NA,NA,NA,choice_trial,survey-html-form,17,129017,0.0-4.0-1.6,324,1,2025-05-08T19:02:17Z,b60275e29fe2361ab97ac0ac217840d7,"Mozilla/5.0 (iPhone; CPU iPhone OS 17_6_1 like Mac OS X) AppleWebKit/605.1.15 (KHTML, like Gecko) Version/17.6 Mobile/15E148 Safari/604.1",iPhone,Safari,17.6,iOS,17_6_1,https://5puzkbbxv1.cognition.run/?sona_id=56587,"en-US,en;q=0.9",cugo0m1c5mqp98z,18,"[""Black or African-American""]",No,Female,N/A,No,NA,14172,NA,"{""product_choice"":""A""}",choice,ct,binary,attraction,NA,laptops,null,null,null,null,null,null,1,60,50,null,50,60,null,Processing speed,Memory (RAM),NA,NA
NA,NA,NA,NA,NA,choice_trial_setup,html-keyboard-response,18,129321,0.0-4.0-0.7,324,1,2025-05-08T19:02:17Z,b60275e29fe2361ab97ac0ac217840d7,"Mozilla/5.0 (iPhone; CPU iPhone OS 17_6_1 like Mac OS X) AppleWebKit/605.1.15 (KHTML, like Gecko) Version/17.6 Mobile/15E148 Safari/604.1",iPhone,Safari,17.6,iOS,17_6_1,https://5puzkbbxv1.cognition.run/?sona_id=56587,"en-US,en;q=0.9",cugo0m1c5mqp98z,18,"[""Black or African-American""]",No,Female,N/A,No,NA,null,<p></p>,null,choice,wb,binary,catch,null,microwave ovens,80,75,50,5,null,null,1,NA,NA,NA,NA,NA,NA,NA,NA,NA,NA
NA,NA,NA,NA,NA,choice_trial,survey-html-form,19,137373,0.0-4.0-1.7,324,1,2025-05-08T19:02:17Z,b60275e29fe2361ab97ac0ac217840d7,"Mozilla/5.0 (iPhone; CPU iPhone OS 17_6_1 like Mac OS X) AppleWebKit/605.1.15 (KHTML, like Gecko) Version/17.6 Mobile/15E148 Safari/604.1",iPhone,Safari,17.6,iOS,17_6_1,https://5puzkbbxv1.cognition.run/?sona_id=56587,"en-US,en;q=0.9",cugo0m1c5mqp98z,18,"[""Black or African-American""]",No,Female,N/A,No,NA,8048,NA,"{""product_choice"":""B""}",choice,wb,binary,catch,null,microwave ovens,80,75,50,5,null,null,1,null,null,null,null,null,null,Warranty,Cooking power,NA,NA
NA,NA,NA,NA,NA,choice_trial_setup,html-keyboard-response,20,137677,0.0-4.0-0.8,324,1,2025-05-08T19:02:17Z,b60275e29fe2361ab97ac0ac217840d7,"Mozilla/5.0 (iPhone; CPU iPhone OS 17_6_1 like Mac OS X) AppleWebKit/605.1.15 (KHTML, like Gecko) Version/17.6 Mobile/15E148 Safari/604.1",iPhone,Safari,17.6,iOS,17_6_1,https://5puzkbbxv1.cognition.run/?sona_id=56587,"en-US,en;q=0.9",cugo0m1c5mqp98z,18,"[""Black or African-American""]",No,Female,N/A,No,NA,null,<p></p>,null,choice,ct,binary,attraction,NA,washing machines,null,null,null,null,null,null,2,NA,NA,NA,NA,NA,NA,NA,NA,NA,NA
NA,NA,NA,NA,NA,choice_trial,survey-html-form,21,144580,0.0-4.0-1.8,324,1,2025-05-08T19:02:17Z,b60275e29fe2361ab97ac0ac217840d7,"Mozilla/5.0 (iPhone; CPU iPhone OS 17_6_1 like Mac OS X) AppleWebKit/605.1.15 (KHTML, like Gecko) Version/17.6 Mobile/15E148 Safari/604.1",iPhone,Safari,17.6,iOS,17_6_1,https://5puzkbbxv1.cognition.run/?sona_id=56587,"en-US,en;q=0.9",cugo0m1c5mqp98z,18,"[""Black or African-American""]",No,Female,N/A,No,NA,6898,NA,"{""product_choice"":""B""}",choice,ct,binary,attraction,NA,washing machines,null,null,null,null,null,null,2,60,50,null,50,60,null,Average lifespan,Energy savings,NA,NA
NA,NA,NA,NA,NA,choice_trial_setup,html-keyboard-response,22,144885,0.0-4.0-0.9,324,1,2025-05-08T19:02:17Z,b60275e29fe2361ab97ac0ac217840d7,"Mozilla/5.0 (iPhone; CPU iPhone OS 17_6_1 like Mac OS X) AppleWebKit/605.1.15 (KHTML, like Gecko) Version/17.6 Mobile/15E148 Safari/604.1",iPhone,Safari,17.6,iOS,17_6_1,https://5puzkbbxv1.cognition.run/?sona_id=56587,"en-US,en;q=0.9",cugo0m1c5mqp98z,18,"[""Black or African-American""]",No,Female,N/A,No,NA,null,<p></p>,null,choice,tdc,trinary,attraction,1,microwave ovens,null,null,null,null,null,null,2,NA,NA,NA,NA,NA,NA,NA,NA,NA,NA
NA,NA,NA,NA,NA,choice_trial,survey-html-form,23,150619,0.0-4.0-1.9,324,1,2025-05-08T19:02:17Z,b60275e29fe2361ab97ac0ac217840d7,"Mozilla/5.0 (iPhone; CPU iPhone OS 17_6_1 like Mac OS X) AppleWebKit/605.1.15 (KHTML, like Gecko) Version/17.6 Mobile/15E148 Safari/604.1",iPhone,Safari,17.6,iOS,17_6_1,https://5puzkbbxv1.cognition.run/?sona_id=56587,"en-US,en;q=0.9",cugo0m1c5mqp98z,18,"[""Black or African-American""]",No,Female,N/A,No,NA,5727,NA,"{""product_choice"":""C""}",choice,tdc,trinary,attraction,1,microwave ovens,null,null,null,null,null,null,2,60,50,60,50,60,40,Warranty,Cooking power,NA,NA
NA,NA,NA,NA,NA,choice_trial_setup,html-keyboard-response,24,150923,0.0-4.0-0.10,324,1,2025-05-08T19:02:17Z,b60275e29fe2361ab97ac0ac217840d7,"Mozilla/5.0 (iPhone; CPU iPhone OS 17_6_1 like Mac OS X) AppleWebKit/605.1.15 (KHTML, like Gecko) Version/17.6 Mobile/15E148 Safari/604.1",iPhone,Safari,17.6,iOS,17_6_1,https://5puzkbbxv1.cognition.run/?sona_id=56587,"en-US,en;q=0.9",cugo0m1c5mqp98z,18,"[""Black or African-American""]",No,Female,N/A,No,NA,null,<p></p>,null,choice,dtc,trinary,repulsion_A,2,laptops,null,null,null,null,null,null,1,NA,NA,NA,NA,NA,NA,NA,NA,NA,NA
NA,NA,NA,NA,NA,choice_trial,survey-html-form,25,158560,0.0-4.0-1.10,324,1,2025-05-08T19:02:17Z,b60275e29fe2361ab97ac0ac217840d7,"Mozilla/5.0 (iPhone; CPU iPhone OS 17_6_1 like Mac OS X) AppleWebKit/605.1.15 (KHTML, like Gecko) Version/17.6 Mobile/15E148 Safari/604.1",iPhone,Safari,17.6,iOS,17_6_1,https://5puzkbbxv1.cognition.run/?sona_id=56587,"en-US,en;q=0.9",cugo0m1c5mqp98z,18,"[""Black or African-American""]",No,Female,N/A,No,NA,7632,NA,"{""product_choice"":""B""}",choice,dtc,trinary,repulsion_A,2,laptops,null,null,null,null,null,null,1,30,40,20,100,90,100,Processing speed,Memory (RAM),NA,NA
NA,NA,NA,NA,NA,choice_trial_setup,html-keyboard-response,26,158864,0.0-4.0-0.11,324,1,2025-05-08T19:02:17Z,b60275e29fe2361ab97ac0ac217840d7,"Mozilla/5.0 (iPhone; CPU iPhone OS 17_6_1 like Mac OS X) AppleWebKit/605.1.15 (KHTML, like Gecko) Version/17.6 Mobile/15E148 Safari/604.1",iPhone,Safari,17.6,iOS,17_6_1,https://5puzkbbxv1.cognition.run/?sona_id=56587,"en-US,en;q=0.9",cugo0m1c5mqp98z,18,"[""Black or African-American""]",No,Female,N/A,No,NA,null,<p></p>,null,choice,ct,binary,repulsion,1,televisions,null,null,null,null,null,null,2,NA,NA,NA,NA,NA,NA,NA,NA,NA,NA
NA,NA,NA,NA,NA,choice_trial,survey-html-form,27,166665,0.0-4.0-1.11,324,1,2025-05-08T19:02:17Z,b60275e29fe2361ab97ac0ac217840d7,"Mozilla/5.0 (iPhone; CPU iPhone OS 17_6_1 like Mac OS X) AppleWebKit/605.1.15 (KHTML, like Gecko) Version/17.6 Mobile/15E148 Safari/604.1",iPhone,Safari,17.6,iOS,17_6_1,https://5puzkbbxv1.cognition.run/?sona_id=56587,"en-US,en;q=0.9",cugo0m1c5mqp98z,18,"[""Black or African-American""]",No,Female,N/A,No,NA,7794,NA,"{""product_choice"":""B""}",choice,ct,binary,repulsion,1,televisions,null,null,null,null,null,null,2,100,90,null,30,40,null,Screen size,Average lifespan,NA,NA
NA,NA,NA,NA,NA,choice_trial_setup,html-keyboard-response,28,166968,0.0-4.0-0.12,324,1,2025-05-08T19:02:17Z,b60275e29fe2361ab97ac0ac217840d7,"Mozilla/5.0 (iPhone; CPU iPhone OS 17_6_1 like Mac OS X) AppleWebKit/605.1.15 (KHTML, like Gecko) Version/17.6 Mobile/15E148 Safari/604.1",iPhone,Safari,17.6,iOS,17_6_1,https://5puzkbbxv1.cognition.run/?sona_id=56587,"en-US,en;q=0.9",cugo0m1c5mqp98z,18,"[""Black or African-American""]",No,Female,N/A,No,NA,null,<p></p>,null,choice,dct,trinary,repulsion_B,1,laptops,null,null,null,null,null,null,2,NA,NA,NA,NA,NA,NA,NA,NA,NA,NA
NA,NA,NA,NA,NA,choice_trial,survey-html-form,29,176372,0.0-4.0-1.12,324,1,2025-05-08T19:02:17Z,b60275e29fe2361ab97ac0ac217840d7,"Mozilla/5.0 (iPhone; CPU iPhone OS 17_6_1 like Mac OS X) AppleWebKit/605.1.15 (KHTML, like Gecko) Version/17.6 Mobile/15E148 Safari/604.1",iPhone,Safari,17.6,iOS,17_6_1,https://5puzkbbxv1.cognition.run/?sona_id=56587,"en-US,en;q=0.9",cugo0m1c5mqp98z,18,"[""Black or African-American""]",No,Female,N/A,No,NA,9397,NA,"{""product_choice"":""C""}",choice,dct,trinary,repulsion_B,1,laptops,null,null,null,null,null,null,2,90,100,80,40,30,40,Processing speed,Memory (RAM),NA,NA
NA,NA,NA,NA,NA,choice_trial_setup,html-keyboard-response,30,176676,0.0-4.0-0.13,324,1,2025-05-08T19:02:17Z,b60275e29fe2361ab97ac0ac217840d7,"Mozilla/5.0 (iPhone; CPU iPhone OS 17_6_1 like Mac OS X) AppleWebKit/605.1.15 (KHTML, like Gecko) Version/17.6 Mobile/15E148 Safari/604.1",iPhone,Safari,17.6,iOS,17_6_1,https://5puzkbbxv1.cognition.run/?sona_id=56587,"en-US,en;q=0.9",cugo0m1c5mqp98z,18,"[""Black or African-American""]",No,Female,N/A,No,NA,null,<p></p>,null,choice,ctd,trinary,repulsion_A,2,microwave ovens,null,null,null,null,null,null,2,NA,NA,NA,NA,NA,NA,NA,NA,NA,NA
NA,NA,NA,NA,NA,choice_trial,survey-html-form,31,183413,0.0-4.0-1.13,324,1,2025-05-08T19:02:17Z,b60275e29fe2361ab97ac0ac217840d7,"Mozilla/5.0 (iPhone; CPU iPhone OS 17_6_1 like Mac OS X) AppleWebKit/605.1.15 (KHTML, like Gecko) Version/17.6 Mobile/15E148 Safari/604.1",iPhone,Safari,17.6,iOS,17_6_1,https://5puzkbbxv1.cognition.run/?sona_id=56587,"en-US,en;q=0.9",cugo0m1c5mqp98z,18,"[""Black or African-American""]",No,Female,N/A,No,NA,6731,NA,"{""product_choice"":""B""}",choice,ctd,trinary,repulsion_A,2,microwave ovens,null,null,null,null,null,null,2,30,40,20,100,90,100,Warranty,Cooking power,NA,NA
NA,NA,NA,NA,NA,choice_trial_setup,html-keyboard-response,32,183717,0.0-4.0-0.14,324,1,2025-05-08T19:02:17Z,b60275e29fe2361ab97ac0ac217840d7,"Mozilla/5.0 (iPhone; CPU iPhone OS 17_6_1 like Mac OS X) AppleWebKit/605.1.15 (KHTML, like Gecko) Version/17.6 Mobile/15E148 Safari/604.1",iPhone,Safari,17.6,iOS,17_6_1,https://5puzkbbxv1.cognition.run/?sona_id=56587,"en-US,en;q=0.9",cugo0m1c5mqp98z,18,"[""Black or African-American""]",No,Female,N/A,No,NA,null,<p></p>,null,choice,cdt,trinary,repulsion_A,1,televisions,null,null,null,null,null,null,1,NA,NA,NA,NA,NA,NA,NA,NA,NA,NA
NA,NA,NA,NA,NA,choice_trial,survey-html-form,33,189571,0.0-4.0-1.14,324,1,2025-05-08T19:02:17Z,b60275e29fe2361ab97ac0ac217840d7,"Mozilla/5.0 (iPhone; CPU iPhone OS 17_6_1 like Mac OS X) AppleWebKit/605.1.15 (KHTML, like Gecko) Version/17.6 Mobile/15E148 Safari/604.1",iPhone,Safari,17.6,iOS,17_6_1,https://5puzkbbxv1.cognition.run/?sona_id=56587,"en-US,en;q=0.9",cugo0m1c5mqp98z,18,"[""Black or African-American""]",No,Female,N/A,No,NA,5846,NA,"{""product_choice"":""C""}",choice,cdt,trinary,repulsion_A,1,televisions,null,null,null,null,null,null,1,100,90,100,30,40,20,Screen size,Average lifespan,NA,NA
NA,NA,NA,NA,NA,choice_trial_setup,html-keyboard-response,34,189875,0.0-4.0-0.15,324,1,2025-05-08T19:02:17Z,b60275e29fe2361ab97ac0ac217840d7,"Mozilla/5.0 (iPhone; CPU iPhone OS 17_6_1 like Mac OS X) AppleWebKit/605.1.15 (KHTML, like Gecko) Version/17.6 Mobile/15E148 Safari/604.1",iPhone,Safari,17.6,iOS,17_6_1,https://5puzkbbxv1.cognition.run/?sona_id=56587,"en-US,en;q=0.9",cugo0m1c5mqp98z,18,"[""Black or African-American""]",No,Female,N/A,No,NA,null,<p></p>,null,choice,dtc,trinary,repulsion_A,1,laptops,null,null,null,null,null,null,2,NA,NA,NA,NA,NA,NA,NA,NA,NA,NA
NA,NA,NA,NA,NA,choice_trial,survey-html-form,35,197210,0.0-4.0-1.15,324,1,2025-05-08T19:02:17Z,b60275e29fe2361ab97ac0ac217840d7,"Mozilla/5.0 (iPhone; CPU iPhone OS 17_6_1 like Mac OS X) AppleWebKit/605.1.15 (KHTML, like Gecko) Version/17.6 Mobile/15E148 Safari/604.1",iPhone,Safari,17.6,iOS,17_6_1,https://5puzkbbxv1.cognition.run/?sona_id=56587,"en-US,en;q=0.9",cugo0m1c5mqp98z,18,"[""Black or African-American""]",No,Female,N/A,No,NA,7328,NA,"{""product_choice"":""C""}",choice,dtc,trinary,repulsion_A,1,laptops,null,null,null,null,null,null,2,100,90,100,30,40,20,Processing speed,Memory (RAM),NA,NA
NA,NA,NA,NA,NA,choice_trial_setup,html-keyboard-response,36,197515,0.0-4.0-0.16,324,1,2025-05-08T19:02:17Z,b60275e29fe2361ab97ac0ac217840d7,"Mozilla/5.0 (iPhone; CPU iPhone OS 17_6_1 like Mac OS X) AppleWebKit/605.1.15 (KHTML, like Gecko) Version/17.6 Mobile/15E148 Safari/604.1",iPhone,Safari,17.6,iOS,17_6_1,https://5puzkbbxv1.cognition.run/?sona_id=56587,"en-US,en;q=0.9",cugo0m1c5mqp98z,18,"[""Black or African-American""]",No,Female,N/A,No,NA,null,<p></p>,null,choice,bww,trinary,catch,null,televisions,65,70,35,25,20,20,2,NA,NA,NA,NA,NA,NA,NA,NA,NA,NA
NA,NA,NA,NA,NA,choice_trial,survey-html-form,37,203633,0.0-4.0-1.16,324,1,2025-05-08T19:02:17Z,b60275e29fe2361ab97ac0ac217840d7,"Mozilla/5.0 (iPhone; CPU iPhone OS 17_6_1 like Mac OS X) AppleWebKit/605.1.15 (KHTML, like Gecko) Version/17.6 Mobile/15E148 Safari/604.1",iPhone,Safari,17.6,iOS,17_6_1,https://5puzkbbxv1.cognition.run/?sona_id=56587,"en-US,en;q=0.9",cugo0m1c5mqp98z,18,"[""Black or African-American""]",No,Female,N/A,No,NA,6112,NA,"{""product_choice"":""A""}",choice,bww,trinary,catch,null,televisions,65,70,35,25,20,20,2,null,null,null,null,null,null,Screen size,Average lifespan,NA,NA
NA,NA,NA,NA,NA,choice_trial_setup,html-keyboard-response,38,203937,0.0-4.0-0.17,324,1,2025-05-08T19:02:17Z,b60275e29fe2361ab97ac0ac217840d7,"Mozilla/5.0 (iPhone; CPU iPhone OS 17_6_1 like Mac OS X) AppleWebKit/605.1.15 (KHTML, like Gecko) Version/17.6 Mobile/15E148 Safari/604.1",iPhone,Safari,17.6,iOS,17_6_1,https://5puzkbbxv1.cognition.run/?sona_id=56587,"en-US,en;q=0.9",cugo0m1c5mqp98z,18,"[""Black or African-American""]",No,Female,N/A,No,NA,null,<p></p>,null,choice,wb,binary,catch,null,washing machines,75,60,35,30,null,null,1,NA,NA,NA,NA,NA,NA,NA,NA,NA,NA
NA,NA,NA,NA,NA,choice_trial,survey-html-form,39,207403,0.0-4.0-1.17,324,1,2025-05-08T19:02:17Z,b60275e29fe2361ab97ac0ac217840d7,"Mozilla/5.0 (iPhone; CPU iPhone OS 17_6_1 like Mac OS X) AppleWebKit/605.1.15 (KHTML, like Gecko) Version/17.6 Mobile/15E148 Safari/604.1",iPhone,Safari,17.6,iOS,17_6_1,https://5puzkbbxv1.cognition.run/?sona_id=56587,"en-US,en;q=0.9",cugo0m1c5mqp98z,18,"[""Black or African-American""]",No,Female,N/A,No,NA,3458,NA,"{""product_choice"":""B""}",choice,wb,binary,catch,null,washing machines,75,60,35,30,null,null,1,null,null,null,null,null,null,Average lifespan,Energy savings,NA,NA
NA,NA,NA,NA,NA,choice_trial_setup,html-keyboard-response,40,207708,0.0-4.0-0.18,324,1,2025-05-08T19:02:17Z,b60275e29fe2361ab97ac0ac217840d7,"Mozilla/5.0 (iPhone; CPU iPhone OS 17_6_1 like Mac OS X) AppleWebKit/605.1.15 (KHTML, like Gecko) Version/17.6 Mobile/15E148 Safari/604.1",iPhone,Safari,17.6,iOS,17_6_1,https://5puzkbbxv1.cognition.run/?sona_id=56587,"en-US,en;q=0.9",cugo0m1c5mqp98z,18,"[""Black or African-American""]",No,Female,N/A,No,NA,null,<p></p>,null,choice,cdt,trinary,repulsion_B,1,televisions,null,null,null,null,null,null,2,NA,NA,NA,NA,NA,NA,NA,NA,NA,NA
NA,NA,NA,NA,NA,choice_trial,survey-html-form,41,219832,0.0-4.0-1.18,324,1,2025-05-08T19:02:17Z,b60275e29fe2361ab97ac0ac217840d7,"Mozilla/5.0 (iPhone; CPU iPhone OS 17_6_1 like Mac OS X) AppleWebKit/605.1.15 (KHTML, like Gecko) Version/17.6 Mobile/15E148 Safari/604.1",iPhone,Safari,17.6,iOS,17_6_1,https://5puzkbbxv1.cognition.run/?sona_id=56587,"en-US,en;q=0.9",cugo0m1c5mqp98z,18,"[""Black or African-American""]",No,Female,N/A,No,NA,12116,NA,"{""product_choice"":""C""}",choice,cdt,trinary,repulsion_B,1,televisions,null,null,null,null,null,null,2,90,100,80,40,30,40,Screen size,Average lifespan,NA,NA
NA,NA,NA,NA,NA,choice_trial_setup,html-keyboard-response,42,220137,0.0-4.0-0.19,324,1,2025-05-08T19:02:17Z,b60275e29fe2361ab97ac0ac217840d7,"Mozilla/5.0 (iPhone; CPU iPhone OS 17_6_1 like Mac OS X) AppleWebKit/605.1.15 (KHTML, like Gecko) Version/17.6 Mobile/15E148 Safari/604.1",iPhone,Safari,17.6,iOS,17_6_1,https://5puzkbbxv1.cognition.run/?sona_id=56587,"en-US,en;q=0.9",cugo0m1c5mqp98z,18,"[""Black or African-American""]",No,Female,N/A,No,NA,null,<p></p>,null,choice,ctd,trinary,repulsion_A,2,washing machines,null,null,null,null,null,null,2,NA,NA,NA,NA,NA,NA,NA,NA,NA,NA
NA,NA,NA,NA,NA,choice_trial,survey-html-form,43,226939,0.0-4.0-1.19,324,1,2025-05-08T19:02:17Z,b60275e29fe2361ab97ac0ac217840d7,"Mozilla/5.0 (iPhone; CPU iPhone OS 17_6_1 like Mac OS X) AppleWebKit/605.1.15 (KHTML, like Gecko) Version/17.6 Mobile/15E148 Safari/604.1",iPhone,Safari,17.6,iOS,17_6_1,https://5puzkbbxv1.cognition.run/?sona_id=56587,"en-US,en;q=0.9",cugo0m1c5mqp98z,18,"[""Black or African-American""]",No,Female,N/A,No,NA,6794,NA,"{""product_choice"":""A""}",choice,ctd,trinary,repulsion_A,2,washing machines,null,null,null,null,null,null,2,30,40,20,100,90,100,Average lifespan,Energy savings,NA,NA
NA,NA,NA,NA,NA,choice_trial_setup,html-keyboard-response,44,227244,0.0-4.0-0.20,324,1,2025-05-08T19:02:17Z,b60275e29fe2361ab97ac0ac217840d7,"Mozilla/5.0 (iPhone; CPU iPhone OS 17_6_1 like Mac OS X) AppleWebKit/605.1.15 (KHTML, like Gecko) Version/17.6 Mobile/15E148 Safari/604.1",iPhone,Safari,17.6,iOS,17_6_1,https://5puzkbbxv1.cognition.run/?sona_id=56587,"en-US,en;q=0.9",cugo0m1c5mqp98z,18,"[""Black or African-American""]",No,Female,N/A,No,NA,null,<p></p>,null,choice,tdc,trinary,attraction,1,laptops,null,null,null,null,null,null,1,NA,NA,NA,NA,NA,NA,NA,NA,NA,NA
NA,NA,NA,NA,NA,choice_trial,survey-html-form,45,233439,0.0-4.0-1.20,324,1,2025-05-08T19:02:17Z,b60275e29fe2361ab97ac0ac217840d7,"Mozilla/5.0 (iPhone; CPU iPhone OS 17_6_1 like Mac OS X) AppleWebKit/605.1.15 (KHTML, like Gecko) Version/17.6 Mobile/15E148 Safari/604.1",iPhone,Safari,17.6,iOS,17_6_1,https://5puzkbbxv1.cognition.run/?sona_id=56587,"en-US,en;q=0.9",cugo0m1c5mqp98z,18,"[""Black or African-American""]",No,Female,N/A,No,NA,6187,NA,"{""product_choice"":""C""}",choice,tdc,trinary,attraction,1,laptops,null,null,null,null,null,null,1,60,50,60,50,60,40,Processing speed,Memory (RAM),NA,NA
NA,NA,NA,NA,NA,choice_trial_setup,html-keyboard-response,46,233744,0.0-4.0-0.21,324,1,2025-05-08T19:02:17Z,b60275e29fe2361ab97ac0ac217840d7,"Mozilla/5.0 (iPhone; CPU iPhone OS 17_6_1 like Mac OS X) AppleWebKit/605.1.15 (KHTML, like Gecko) Version/17.6 Mobile/15E148 Safari/604.1",iPhone,Safari,17.6,iOS,17_6_1,https://5puzkbbxv1.cognition.run/?sona_id=56587,"en-US,en;q=0.9",cugo0m1c5mqp98z,18,"[""Black or African-American""]",No,Female,N/A,No,NA,null,<p></p>,null,choice,wbw,trinary,catch,null,laptops,70,90,50,10,20,45,1,NA,NA,NA,NA,NA,NA,NA,NA,NA,NA
NA,NA,NA,NA,NA,choice_trial,survey-html-form,47,239967,0.0-4.0-1.21,324,1,2025-05-08T19:02:17Z,b60275e29fe2361ab97ac0ac217840d7,"Mozilla/5.0 (iPhone; CPU iPhone OS 17_6_1 like Mac OS X) AppleWebKit/605.1.15 (KHTML, like Gecko) Version/17.6 Mobile/15E148 Safari/604.1",iPhone,Safari,17.6,iOS,17_6_1,https://5puzkbbxv1.cognition.run/?sona_id=56587,"en-US,en;q=0.9",cugo0m1c5mqp98z,18,"[""Black or African-American""]",No,Female,N/A,No,NA,6208,NA,"{""product_choice"":""B""}",choice,wbw,trinary,catch,null,laptops,70,90,50,10,20,45,1,null,null,null,null,null,null,Processing speed,Memory (RAM),NA,NA
NA,NA,NA,NA,NA,choice_trial_setup,html-keyboard-response,48,240278,0.0-4.0-0.22,324,1,2025-05-08T19:02:17Z,b60275e29fe2361ab97ac0ac217840d7,"Mozilla/5.0 (iPhone; CPU iPhone OS 17_6_1 like Mac OS X) AppleWebKit/605.1.15 (KHTML, like Gecko) Version/17.6 Mobile/15E148 Safari/604.1",iPhone,Safari,17.6,iOS,17_6_1,https://5puzkbbxv1.cognition.run/?sona_id=56587,"en-US,en;q=0.9",cugo0m1c5mqp98z,18,"[""Black or African-American""]",No,Female,N/A,No,NA,null,<p></p>,null,choice,dct,trinary,repulsion_B,1,washing machines,null,null,null,null,null,null,2,NA,NA,NA,NA,NA,NA,NA,NA,NA,NA
NA,NA,NA,NA,NA,choice_trial,survey-html-form,49,246420,0.0-4.0-1.22,324,1,2025-05-08T19:02:17Z,b60275e29fe2361ab97ac0ac217840d7,"Mozilla/5.0 (iPhone; CPU iPhone OS 17_6_1 like Mac OS X) AppleWebKit/605.1.15 (KHTML, like Gecko) Version/17.6 Mobile/15E148 Safari/604.1",iPhone,Safari,17.6,iOS,17_6_1,https://5puzkbbxv1.cognition.run/?sona_id=56587,"en-US,en;q=0.9",cugo0m1c5mqp98z,18,"[""Black or African-American""]",No,Female,N/A,No,NA,6135,NA,"{""product_choice"":""B""}",choice,dct,trinary,repulsion_B,1,washing machines,null,null,null,null,null,null,2,90,100,80,40,30,40,Average lifespan,Energy savings,NA,NA
NA,NA,NA,NA,NA,choice_trial_setup,html-keyboard-response,50,246725,0.0-4.0-0.23,324,1,2025-05-08T19:02:17Z,b60275e29fe2361ab97ac0ac217840d7,"Mozilla/5.0 (iPhone; CPU iPhone OS 17_6_1 like Mac OS X) AppleWebKit/605.1.15 (KHTML, like Gecko) Version/17.6 Mobile/15E148 Safari/604.1",iPhone,Safari,17.6,iOS,17_6_1,https://5puzkbbxv1.cognition.run/?sona_id=56587,"en-US,en;q=0.9",cugo0m1c5mqp98z,18,"[""Black or African-American""]",No,Female,N/A,No,NA,null,<p></p>,null,choice,bww,trinary,catch,null,washing machines,80,80,50,5,20,50,1,NA,NA,NA,NA,NA,NA,NA,NA,NA,NA
NA,NA,NA,NA,NA,choice_trial,survey-html-form,51,250886,0.0-4.0-1.23,324,1,2025-05-08T19:02:17Z,b60275e29fe2361ab97ac0ac217840d7,"Mozilla/5.0 (iPhone; CPU iPhone OS 17_6_1 like Mac OS X) AppleWebKit/605.1.15 (KHTML, like Gecko) Version/17.6 Mobile/15E148 Safari/604.1",iPhone,Safari,17.6,iOS,17_6_1,https://5puzkbbxv1.cognition.run/?sona_id=56587,"en-US,en;q=0.9",cugo0m1c5mqp98z,18,"[""Black or African-American""]",No,Female,N/A,No,NA,4153,NA,"{""product_choice"":""A""}",choice,bww,trinary,catch,null,washing machines,80,80,50,5,20,50,1,null,null,null,null,null,null,Average lifespan,Energy savings,NA,NA
NA,NA,NA,NA,NA,choice_trial_setup,html-keyboard-response,52,251189,0.0-4.0-0.24,324,1,2025-05-08T19:02:17Z,b60275e29fe2361ab97ac0ac217840d7,"Mozilla/5.0 (iPhone; CPU iPhone OS 17_6_1 like Mac OS X) AppleWebKit/605.1.15 (KHTML, like Gecko) Version/17.6 Mobile/15E148 Safari/604.1",iPhone,Safari,17.6,iOS,17_6_1,https://5puzkbbxv1.cognition.run/?sona_id=56587,"en-US,en;q=0.9",cugo0m1c5mqp98z,18,"[""Black or African-American""]",No,Female,N/A,No,NA,null,<p></p>,null,choice,tc,binary,attraction,NA,televisions,null,null,null,null,null,null,1,NA,NA,NA,NA,NA,NA,NA,NA,NA,NA
NA,NA,NA,NA,NA,choice_trial,survey-html-form,53,256115,0.0-4.0-1.24,324,1,2025-05-08T19:02:17Z,b60275e29fe2361ab97ac0ac217840d7,"Mozilla/5.0 (iPhone; CPU iPhone OS 17_6_1 like Mac OS X) AppleWebKit/605.1.15 (KHTML, like Gecko) Version/17.6 Mobile/15E148 Safari/604.1",iPhone,Safari,17.6,iOS,17_6_1,https://5puzkbbxv1.cognition.run/?sona_id=56587,"en-US,en;q=0.9",cugo0m1c5mqp98z,18,"[""Black or African-American""]",No,Female,N/A,No,NA,4917,NA,"{""product_choice"":""A""}",choice,tc,binary,attraction,NA,televisions,null,null,null,null,null,null,1,60,50,null,50,60,null,Screen size,Average lifespan,NA,NA
NA,NA,NA,NA,NA,choice_trial_setup,html-keyboard-response,54,256420,0.0-4.0-0.25,324,1,2025-05-08T19:02:17Z,b60275e29fe2361ab97ac0ac217840d7,"Mozilla/5.0 (iPhone; CPU iPhone OS 17_6_1 like Mac OS X) AppleWebKit/605.1.15 (KHTML, like Gecko) Version/17.6 Mobile/15E148 Safari/604.1",iPhone,Safari,17.6,iOS,17_6_1,https://5puzkbbxv1.cognition.run/?sona_id=56587,"en-US,en;q=0.9",cugo0m1c5mqp98z,18,"[""Black or African-American""]",No,Female,N/A,No,NA,null,<p></p>,null,choice,tc,binary,repulsion,2,washing machines,null,null,null,null,null,null,1,NA,NA,NA,NA,NA,NA,NA,NA,NA,NA
NA,NA,NA,NA,NA,choice_trial,survey-html-form,55,263785,0.0-4.0-1.25,324,1,2025-05-08T19:02:17Z,b60275e29fe2361ab97ac0ac217840d7,"Mozilla/5.0 (iPhone; CPU iPhone OS 17_6_1 like Mac OS X) AppleWebKit/605.1.15 (KHTML, like Gecko) Version/17.6 Mobile/15E148 Safari/604.1",iPhone,Safari,17.6,iOS,17_6_1,https://5puzkbbxv1.cognition.run/?sona_id=56587,"en-US,en;q=0.9",cugo0m1c5mqp98z,18,"[""Black or African-American""]",No,Female,N/A,No,NA,7356,NA,"{""product_choice"":""B""}",choice,tc,binary,repulsion,2,washing machines,null,null,null,null,null,null,1,30,40,null,100,90,null,Average lifespan,Energy savings,NA,NA
NA,NA,NA,NA,NA,choice_trial_setup,html-keyboard-response,56,264090,0.0-4.0-0.26,324,1,2025-05-08T19:02:17Z,b60275e29fe2361ab97ac0ac217840d7,"Mozilla/5.0 (iPhone; CPU iPhone OS 17_6_1 like Mac OS X) AppleWebKit/605.1.15 (KHTML, like Gecko) Version/17.6 Mobile/15E148 Safari/604.1",iPhone,Safari,17.6,iOS,17_6_1,https://5puzkbbxv1.cognition.run/?sona_id=56587,"en-US,en;q=0.9",cugo0m1c5mqp98z,18,"[""Black or African-American""]",No,Female,N/A,No,NA,null,<p></p>,null,choice,tdc,trinary,repulsion_B,2,televisions,null,null,null,null,null,null,1,NA,NA,NA,NA,NA,NA,NA,NA,NA,NA
NA,NA,NA,NA,NA,choice_trial,survey-html-form,57,274510,0.0-4.0-1.26,324,1,2025-05-08T19:02:17Z,b60275e29fe2361ab97ac0ac217840d7,"Mozilla/5.0 (iPhone; CPU iPhone OS 17_6_1 like Mac OS X) AppleWebKit/605.1.15 (KHTML, like Gecko) Version/17.6 Mobile/15E148 Safari/604.1",iPhone,Safari,17.6,iOS,17_6_1,https://5puzkbbxv1.cognition.run/?sona_id=56587,"en-US,en;q=0.9",cugo0m1c5mqp98z,18,"[""Black or African-American""]",No,Female,N/A,No,NA,10410,NA,"{""product_choice"":""A""}",choice,tdc,trinary,repulsion_B,2,televisions,null,null,null,null,null,null,1,40,30,40,90,100,80,Screen size,Average lifespan,NA,NA
NA,NA,NA,NA,NA,choice_trial_setup,html-keyboard-response,58,274815,0.0-4.0-0.27,324,1,2025-05-08T19:02:17Z,b60275e29fe2361ab97ac0ac217840d7,"Mozilla/5.0 (iPhone; CPU iPhone OS 17_6_1 like Mac OS X) AppleWebKit/605.1.15 (KHTML, like Gecko) Version/17.6 Mobile/15E148 Safari/604.1",iPhone,Safari,17.6,iOS,17_6_1,https://5puzkbbxv1.cognition.run/?sona_id=56587,"en-US,en;q=0.9",cugo0m1c5mqp98z,18,"[""Black or African-American""]",No,Female,N/A,No,NA,null,<p></p>,null,choice,wwb,trinary,catch,null,microwave ovens,50,75,25,35,35,45,2,NA,NA,NA,NA,NA,NA,NA,NA,NA,NA
NA,NA,NA,NA,NA,choice_trial,survey-html-form,59,281080,0.0-4.0-1.27,324,1,2025-05-08T19:02:17Z,b60275e29fe2361ab97ac0ac217840d7,"Mozilla/5.0 (iPhone; CPU iPhone OS 17_6_1 like Mac OS X) AppleWebKit/605.1.15 (KHTML, like Gecko) Version/17.6 Mobile/15E148 Safari/604.1",iPhone,Safari,17.6,iOS,17_6_1,https://5puzkbbxv1.cognition.run/?sona_id=56587,"en-US,en;q=0.9",cugo0m1c5mqp98z,18,"[""Black or African-American""]",No,Female,N/A,No,NA,6252,NA,"{""product_choice"":""C""}",choice,wwb,trinary,catch,null,microwave ovens,50,75,25,35,35,45,2,null,null,null,null,null,null,Warranty,Cooking power,NA,NA
NA,NA,NA,NA,NA,choice_trial_setup,html-keyboard-response,60,281385,0.0-4.0-0.28,324,1,2025-05-08T19:02:17Z,b60275e29fe2361ab97ac0ac217840d7,"Mozilla/5.0 (iPhone; CPU iPhone OS 17_6_1 like Mac OS X) AppleWebKit/605.1.15 (KHTML, like Gecko) Version/17.6 Mobile/15E148 Safari/604.1",iPhone,Safari,17.6,iOS,17_6_1,https://5puzkbbxv1.cognition.run/?sona_id=56587,"en-US,en;q=0.9",cugo0m1c5mqp98z,18,"[""Black or African-American""]",No,Female,N/A,No,NA,null,<p></p>,null,choice,tcd,trinary,repulsion_A,1,microwave ovens,null,null,null,null,null,null,1,NA,NA,NA,NA,NA,NA,NA,NA,NA,NA
NA,NA,NA,NA,NA,choice_trial,survey-html-form,61,288590,0.0-4.0-1.28,324,1,2025-05-08T19:02:17Z,b60275e29fe2361ab97ac0ac217840d7,"Mozilla/5.0 (iPhone; CPU iPhone OS 17_6_1 like Mac OS X) AppleWebKit/605.1.15 (KHTML, like Gecko) Version/17.6 Mobile/15E148 Safari/604.1",iPhone,Safari,17.6,iOS,17_6_1,https://5puzkbbxv1.cognition.run/?sona_id=56587,"en-US,en;q=0.9",cugo0m1c5mqp98z,18,"[""Black or African-American""]",No,Female,N/A,No,NA,7190,NA,"{""product_choice"":""B""}",choice,tcd,trinary,repulsion_A,1,microwave ovens,null,null,null,null,null,null,1,100,90,100,30,40,20,Warranty,Cooking power,NA,NA
NA,NA,NA,NA,NA,choice_trial_setup,html-keyboard-response,62,288896,0.0-4.0-0.29,324,1,2025-05-08T19:02:17Z,b60275e29fe2361ab97ac0ac217840d7,"Mozilla/5.0 (iPhone; CPU iPhone OS 17_6_1 like Mac OS X) AppleWebKit/605.1.15 (KHTML, like Gecko) Version/17.6 Mobile/15E148 Safari/604.1",iPhone,Safari,17.6,iOS,17_6_1,https://5puzkbbxv1.cognition.run/?sona_id=56587,"en-US,en;q=0.9",cugo0m1c5mqp98z,18,"[""Black or African-American""]",No,Female,N/A,No,NA,null,<p></p>,null,choice,tc,binary,repulsion,2,televisions,null,null,null,null,null,null,2,NA,NA,NA,NA,NA,NA,NA,NA,NA,NA
NA,NA,NA,NA,NA,choice_trial,survey-html-form,63,296729,0.0-4.0-1.29,324,1,2025-05-08T19:02:17Z,b60275e29fe2361ab97ac0ac217840d7,"Mozilla/5.0 (iPhone; CPU iPhone OS 17_6_1 like Mac OS X) AppleWebKit/605.1.15 (KHTML, like Gecko) Version/17.6 Mobile/15E148 Safari/604.1",iPhone,Safari,17.6,iOS,17_6_1,https://5puzkbbxv1.cognition.run/?sona_id=56587,"en-US,en;q=0.9",cugo0m1c5mqp98z,18,"[""Black or African-American""]",No,Female,N/A,No,NA,7824,NA,"{""product_choice"":""B""}",choice,tc,binary,repulsion,2,televisions,null,null,null,null,null,null,2,30,40,null,100,90,null,Screen size,Average lifespan,NA,NA
NA,NA,NA,NA,NA,choice_trial_setup,html-keyboard-response,64,297035,0.0-4.0-0.30,324,1,2025-05-08T19:02:17Z,b60275e29fe2361ab97ac0ac217840d7,"Mozilla/5.0 (iPhone; CPU iPhone OS 17_6_1 like Mac OS X) AppleWebKit/605.1.15 (KHTML, like Gecko) Version/17.6 Mobile/15E148 Safari/604.1",iPhone,Safari,17.6,iOS,17_6_1,https://5puzkbbxv1.cognition.run/?sona_id=56587,"en-US,en;q=0.9",cugo0m1c5mqp98z,18,"[""Black or African-American""]",No,Female,N/A,No,NA,null,<p></p>,null,choice,tdc,trinary,repulsion_B,2,laptops,null,null,null,null,null,null,1,NA,NA,NA,NA,NA,NA,NA,NA,NA,NA
NA,NA,NA,NA,NA,choice_trial,survey-html-form,65,308772,0.0-4.0-1.30,324,1,2025-05-08T19:02:17Z,b60275e29fe2361ab97ac0ac217840d7,"Mozilla/5.0 (iPhone; CPU iPhone OS 17_6_1 like Mac OS X) AppleWebKit/605.1.15 (KHTML, like Gecko) Version/17.6 Mobile/15E148 Safari/604.1",iPhone,Safari,17.6,iOS,17_6_1,https://5puzkbbxv1.cognition.run/?sona_id=56587,"en-US,en;q=0.9",cugo0m1c5mqp98z,18,"[""Black or African-American""]",No,Female,N/A,No,NA,11727,NA,"{""product_choice"":""A""}",choice,tdc,trinary,repulsion_B,2,laptops,null,null,null,null,null,null,1,40,30,40,90,100,80,Processing speed,Memory (RAM),NA,NA
NA,NA,NA,NA,NA,choice_trial_setup,html-keyboard-response,66,309077,0.0-4.0-0.31,324,1,2025-05-08T19:02:17Z,b60275e29fe2361ab97ac0ac217840d7,"Mozilla/5.0 (iPhone; CPU iPhone OS 17_6_1 like Mac OS X) AppleWebKit/605.1.15 (KHTML, like Gecko) Version/17.6 Mobile/15E148 Safari/604.1",iPhone,Safari,17.6,iOS,17_6_1,https://5puzkbbxv1.cognition.run/?sona_id=56587,"en-US,en;q=0.9",cugo0m1c5mqp98z,18,"[""Black or African-American""]",No,Female,N/A,No,NA,null,<p></p>,null,choice,dtc,trinary,repulsion_A,1,washing machines,null,null,null,null,null,null,2,NA,NA,NA,NA,NA,NA,NA,NA,NA,NA
NA,NA,NA,NA,NA,choice_trial,survey-html-form,67,313395,0.0-4.0-1.31,324,1,2025-05-08T19:02:17Z,b60275e29fe2361ab97ac0ac217840d7,"Mozilla/5.0 (iPhone; CPU iPhone OS 17_6_1 like Mac OS X) AppleWebKit/605.1.15 (KHTML, like Gecko) Version/17.6 Mobile/15E148 Safari/604.1",iPhone,Safari,17.6,iOS,17_6_1,https://5puzkbbxv1.cognition.run/?sona_id=56587,"en-US,en;q=0.9",cugo0m1c5mqp98z,18,"[""Black or African-American""]",No,Female,N/A,No,NA,4308,NA,"{""product_choice"":""B""}",choice,dtc,trinary,repulsion_A,1,washing machines,null,null,null,null,null,null,2,100,90,100,30,40,20,Average lifespan,Energy savings,NA,NA
NA,NA,NA,NA,NA,choice_trial_setup,html-keyboard-response,68,313701,0.0-4.0-0.32,324,1,2025-05-08T19:02:17Z,b60275e29fe2361ab97ac0ac217840d7,"Mozilla/5.0 (iPhone; CPU iPhone OS 17_6_1 like Mac OS X) AppleWebKit/605.1.15 (KHTML, like Gecko) Version/17.6 Mobile/15E148 Safari/604.1",iPhone,Safari,17.6,iOS,17_6_1,https://5puzkbbxv1.cognition.run/?sona_id=56587,"en-US,en;q=0.9",cugo0m1c5mqp98z,18,"[""Black or African-American""]",No,Female,N/A,No,NA,null,<p></p>,null,choice,dtc,trinary,repulsion_A,2,televisions,null,null,null,null,null,null,1,NA,NA,NA,NA,NA,NA,NA,NA,NA,NA
NA,NA,NA,NA,NA,choice_trial,survey-html-form,69,322451,0.0-4.0-1.32,324,1,2025-05-08T19:02:17Z,b60275e29fe2361ab97ac0ac217840d7,"Mozilla/5.0 (iPhone; CPU iPhone OS 17_6_1 like Mac OS X) AppleWebKit/605.1.15 (KHTML, like Gecko) Version/17.6 Mobile/15E148 Safari/604.1",iPhone,Safari,17.6,iOS,17_6_1,https://5puzkbbxv1.cognition.run/?sona_id=56587,"en-US,en;q=0.9",cugo0m1c5mqp98z,18,"[""Black or African-American""]",No,Female,N/A,No,NA,8742,NA,"{""product_choice"":""C""}",choice,dtc,trinary,repulsion_A,2,televisions,null,null,null,null,null,null,1,30,40,20,100,90,100,Screen size,Average lifespan,NA,NA
NA,NA,NA,NA,NA,choice_trial_setup,html-keyboard-response,70,322756,0.0-4.0-0.33,324,1,2025-05-08T19:02:17Z,b60275e29fe2361ab97ac0ac217840d7,"Mozilla/5.0 (iPhone; CPU iPhone OS 17_6_1 like Mac OS X) AppleWebKit/605.1.15 (KHTML, like Gecko) Version/17.6 Mobile/15E148 Safari/604.1",iPhone,Safari,17.6,iOS,17_6_1,https://5puzkbbxv1.cognition.run/?sona_id=56587,"en-US,en;q=0.9",cugo0m1c5mqp98z,18,"[""Black or African-American""]",No,Female,N/A,No,NA,null,<p></p>,null,choice,cdt,trinary,attraction,2,televisions,null,null,null,null,null,null,1,NA,NA,NA,NA,NA,NA,NA,NA,NA,NA
NA,NA,NA,NA,NA,choice_trial,survey-html-form,71,332048,0.0-4.0-1.33,324,1,2025-05-08T19:02:17Z,b60275e29fe2361ab97ac0ac217840d7,"Mozilla/5.0 (iPhone; CPU iPhone OS 17_6_1 like Mac OS X) AppleWebKit/605.1.15 (KHTML, like Gecko) Version/17.6 Mobile/15E148 Safari/604.1",iPhone,Safari,17.6,iOS,17_6_1,https://5puzkbbxv1.cognition.run/?sona_id=56587,"en-US,en;q=0.9",cugo0m1c5mqp98z,18,"[""Black or African-American""]",No,Female,N/A,No,NA,9287,NA,"{""product_choice"":""A""}",choice,cdt,trinary,attraction,2,televisions,null,null,null,null,null,null,1,50,60,40,60,50,60,Screen size,Average lifespan,NA,NA
NA,NA,NA,NA,NA,choice_trial_setup,html-keyboard-response,72,332354,0.0-4.0-0.34,324,1,2025-05-08T19:02:17Z,b60275e29fe2361ab97ac0ac217840d7,"Mozilla/5.0 (iPhone; CPU iPhone OS 17_6_1 like Mac OS X) AppleWebKit/605.1.15 (KHTML, like Gecko) Version/17.6 Mobile/15E148 Safari/604.1",iPhone,Safari,17.6,iOS,17_6_1,https://5puzkbbxv1.cognition.run/?sona_id=56587,"en-US,en;q=0.9",cugo0m1c5mqp98z,18,"[""Black or African-American""]",No,Female,N/A,No,NA,null,<p></p>,null,choice,tcd,trinary,attraction,1,televisions,null,null,null,null,null,null,2,NA,NA,NA,NA,NA,NA,NA,NA,NA,NA
NA,NA,NA,NA,NA,choice_trial,survey-html-form,73,338098,0.0-4.0-1.34,324,1,2025-05-08T19:02:17Z,b60275e29fe2361ab97ac0ac217840d7,"Mozilla/5.0 (iPhone; CPU iPhone OS 17_6_1 like Mac OS X) AppleWebKit/605.1.15 (KHTML, like Gecko) Version/17.6 Mobile/15E148 Safari/604.1",iPhone,Safari,17.6,iOS,17_6_1,https://5puzkbbxv1.cognition.run/?sona_id=56587,"en-US,en;q=0.9",cugo0m1c5mqp98z,18,"[""Black or African-American""]",No,Female,N/A,No,NA,5734,NA,"{""product_choice"":""A""}",choice,tcd,trinary,attraction,1,televisions,null,null,null,null,null,null,2,60,50,60,50,60,40,Screen size,Average lifespan,NA,NA
NA,NA,NA,NA,NA,choice_trial_setup,html-keyboard-response,74,338403,0.0-4.0-0.35,324,1,2025-05-08T19:02:17Z,b60275e29fe2361ab97ac0ac217840d7,"Mozilla/5.0 (iPhone; CPU iPhone OS 17_6_1 like Mac OS X) AppleWebKit/605.1.15 (KHTML, like Gecko) Version/17.6 Mobile/15E148 Safari/604.1",iPhone,Safari,17.6,iOS,17_6_1,https://5puzkbbxv1.cognition.run/?sona_id=56587,"en-US,en;q=0.9",cugo0m1c5mqp98z,18,"[""Black or African-American""]",No,Female,N/A,No,NA,null,<p></p>,null,choice,tc,binary,repulsion,1,laptops,null,null,null,null,null,null,1,NA,NA,NA,NA,NA,NA,NA,NA,NA,NA
NA,NA,NA,NA,NA,choice_trial,survey-html-form,75,347691,0.0-4.0-1.35,324,1,2025-05-08T19:02:17Z,b60275e29fe2361ab97ac0ac217840d7,"Mozilla/5.0 (iPhone; CPU iPhone OS 17_6_1 like Mac OS X) AppleWebKit/605.1.15 (KHTML, like Gecko) Version/17.6 Mobile/15E148 Safari/604.1",iPhone,Safari,17.6,iOS,17_6_1,https://5puzkbbxv1.cognition.run/?sona_id=56587,"en-US,en;q=0.9",cugo0m1c5mqp98z,18,"[""Black or African-American""]",No,Female,N/A,No,NA,9275,NA,"{""product_choice"":""B""}",choice,tc,binary,repulsion,1,laptops,null,null,null,null,null,null,1,100,90,null,30,40,null,Processing speed,Memory (RAM),NA,NA
NA,NA,NA,NA,NA,choice_trial_setup,html-keyboard-response,76,348005,0.0-4.0-0.36,324,1,2025-05-08T19:02:17Z,b60275e29fe2361ab97ac0ac217840d7,"Mozilla/5.0 (iPhone; CPU iPhone OS 17_6_1 like Mac OS X) AppleWebKit/605.1.15 (KHTML, like Gecko) Version/17.6 Mobile/15E148 Safari/604.1",iPhone,Safari,17.6,iOS,17_6_1,https://5puzkbbxv1.cognition.run/?sona_id=56587,"en-US,en;q=0.9",cugo0m1c5mqp98z,18,"[""Black or African-American""]",No,Female,N/A,No,NA,null,<p></p>,null,choice,wb,binary,catch,null,laptops,95,70,20,5,null,null,1,NA,NA,NA,NA,NA,NA,NA,NA,NA,NA
NA,NA,NA,NA,NA,choice_trial,survey-html-form,77,354078,0.0-4.0-1.36,324,1,2025-05-08T19:02:17Z,b60275e29fe2361ab97ac0ac217840d7,"Mozilla/5.0 (iPhone; CPU iPhone OS 17_6_1 like Mac OS X) AppleWebKit/605.1.15 (KHTML, like Gecko) Version/17.6 Mobile/15E148 Safari/604.1",iPhone,Safari,17.6,iOS,17_6_1,https://5puzkbbxv1.cognition.run/?sona_id=56587,"en-US,en;q=0.9",cugo0m1c5mqp98z,18,"[""Black or African-American""]",No,Female,N/A,No,NA,6065,NA,"{""product_choice"":""B""}",choice,wb,binary,catch,null,laptops,95,70,20,5,null,null,1,null,null,null,null,null,null,Processing speed,Memory (RAM),NA,NA
NA,NA,NA,NA,NA,choice_trial_setup,html-keyboard-response,78,354384,0.0-4.0-0.37,324,1,2025-05-08T19:02:17Z,b60275e29fe2361ab97ac0ac217840d7,"Mozilla/5.0 (iPhone; CPU iPhone OS 17_6_1 like Mac OS X) AppleWebKit/605.1.15 (KHTML, like Gecko) Version/17.6 Mobile/15E148 Safari/604.1",iPhone,Safari,17.6,iOS,17_6_1,https://5puzkbbxv1.cognition.run/?sona_id=56587,"en-US,en;q=0.9",cugo0m1c5mqp98z,18,"[""Black or African-American""]",No,Female,N/A,No,NA,null,<p></p>,null,choice,ct,binary,repulsion,1,microwave ovens,null,null,null,null,null,null,1,NA,NA,NA,NA,NA,NA,NA,NA,NA,NA
NA,NA,NA,NA,NA,choice_trial,survey-html-form,79,365721,0.0-4.0-1.37,324,1,2025-05-08T19:02:17Z,b60275e29fe2361ab97ac0ac217840d7,"Mozilla/5.0 (iPhone; CPU iPhone OS 17_6_1 like Mac OS X) AppleWebKit/605.1.15 (KHTML, like Gecko) Version/17.6 Mobile/15E148 Safari/604.1",iPhone,Safari,17.6,iOS,17_6_1,https://5puzkbbxv1.cognition.run/?sona_id=56587,"en-US,en;q=0.9",cugo0m1c5mqp98z,18,"[""Black or African-American""]",No,Female,N/A,No,NA,11325,NA,"{""product_choice"":""A""}",choice,ct,binary,repulsion,1,microwave ovens,null,null,null,null,null,null,1,100,90,null,30,40,null,Warranty,Cooking power,NA,NA
NA,NA,NA,NA,NA,choice_trial_setup,html-keyboard-response,80,366026,0.0-4.0-0.38,324,1,2025-05-08T19:02:17Z,b60275e29fe2361ab97ac0ac217840d7,"Mozilla/5.0 (iPhone; CPU iPhone OS 17_6_1 like Mac OS X) AppleWebKit/605.1.15 (KHTML, like Gecko) Version/17.6 Mobile/15E148 Safari/604.1",iPhone,Safari,17.6,iOS,17_6_1,https://5puzkbbxv1.cognition.run/?sona_id=56587,"en-US,en;q=0.9",cugo0m1c5mqp98z,18,"[""Black or African-American""]",No,Female,N/A,No,NA,null,<p></p>,null,choice,dct,trinary,attraction,2,laptops,null,null,null,null,null,null,2,NA,NA,NA,NA,NA,NA,NA,NA,NA,NA
NA,NA,NA,NA,NA,choice_trial,survey-html-form,81,371261,0.0-4.0-1.38,324,1,2025-05-08T19:02:17Z,b60275e29fe2361ab97ac0ac217840d7,"Mozilla/5.0 (iPhone; CPU iPhone OS 17_6_1 like Mac OS X) AppleWebKit/605.1.15 (KHTML, like Gecko) Version/17.6 Mobile/15E148 Safari/604.1",iPhone,Safari,17.6,iOS,17_6_1,https://5puzkbbxv1.cognition.run/?sona_id=56587,"en-US,en;q=0.9",cugo0m1c5mqp98z,18,"[""Black or African-American""]",No,Female,N/A,No,NA,5226,NA,"{""product_choice"":""C""}",choice,dct,trinary,attraction,2,laptops,null,null,null,null,null,null,2,50,60,40,60,50,60,Processing speed,Memory (RAM),NA,NA
NA,NA,NA,NA,NA,choice_trial_setup,html-keyboard-response,82,371568,0.0-4.0-0.39,324,1,2025-05-08T19:02:17Z,b60275e29fe2361ab97ac0ac217840d7,"Mozilla/5.0 (iPhone; CPU iPhone OS 17_6_1 like Mac OS X) AppleWebKit/605.1.15 (KHTML, like Gecko) Version/17.6 Mobile/15E148 Safari/604.1",iPhone,Safari,17.6,iOS,17_6_1,https://5puzkbbxv1.cognition.run/?sona_id=56587,"en-US,en;q=0.9",cugo0m1c5mqp98z,18,"[""Black or African-American""]",No,Female,N/A,No,NA,null,<p></p>,null,choice,ctd,trinary,repulsion_B,2,microwave ovens,null,null,null,null,null,null,2,NA,NA,NA,NA,NA,NA,NA,NA,NA,NA
NA,NA,NA,NA,NA,choice_trial,survey-html-form,83,381314,0.0-4.0-1.39,324,1,2025-05-08T19:02:17Z,b60275e29fe2361ab97ac0ac217840d7,"Mozilla/5.0 (iPhone; CPU iPhone OS 17_6_1 like Mac OS X) AppleWebKit/605.1.15 (KHTML, like Gecko) Version/17.6 Mobile/15E148 Safari/604.1",iPhone,Safari,17.6,iOS,17_6_1,https://5puzkbbxv1.cognition.run/?sona_id=56587,"en-US,en;q=0.9",cugo0m1c5mqp98z,18,"[""Black or African-American""]",No,Female,N/A,No,NA,9741,NA,"{""product_choice"":""A""}",choice,ctd,trinary,repulsion_B,2,microwave ovens,null,null,null,null,null,null,2,40,30,40,90,100,80,Warranty,Cooking power,NA,NA
NA,NA,NA,NA,NA,choice_trial_setup,html-keyboard-response,84,381620,0.0-4.0-0.40,324,1,2025-05-08T19:02:17Z,b60275e29fe2361ab97ac0ac217840d7,"Mozilla/5.0 (iPhone; CPU iPhone OS 17_6_1 like Mac OS X) AppleWebKit/605.1.15 (KHTML, like Gecko) Version/17.6 Mobile/15E148 Safari/604.1",iPhone,Safari,17.6,iOS,17_6_1,https://5puzkbbxv1.cognition.run/?sona_id=56587,"en-US,en;q=0.9",cugo0m1c5mqp98z,18,"[""Black or African-American""]",No,Female,N/A,No,NA,null,<p></p>,null,choice,ct,binary,repulsion,2,laptops,null,null,null,null,null,null,1,NA,NA,NA,NA,NA,NA,NA,NA,NA,NA
NA,NA,NA,NA,NA,choice_trial,survey-html-form,85,387475,0.0-4.0-1.40,324,1,2025-05-08T19:02:17Z,b60275e29fe2361ab97ac0ac217840d7,"Mozilla/5.0 (iPhone; CPU iPhone OS 17_6_1 like Mac OS X) AppleWebKit/605.1.15 (KHTML, like Gecko) Version/17.6 Mobile/15E148 Safari/604.1",iPhone,Safari,17.6,iOS,17_6_1,https://5puzkbbxv1.cognition.run/?sona_id=56587,"en-US,en;q=0.9",cugo0m1c5mqp98z,18,"[""Black or African-American""]",No,Female,N/A,No,NA,5850,NA,"{""product_choice"":""A""}",choice,ct,binary,repulsion,2,laptops,null,null,null,null,null,null,1,30,40,null,100,90,null,Processing speed,Memory (RAM),NA,NA
NA,NA,NA,NA,NA,choice_trial_setup,html-keyboard-response,86,387781,0.0-4.0-0.41,324,1,2025-05-08T19:02:17Z,b60275e29fe2361ab97ac0ac217840d7,"Mozilla/5.0 (iPhone; CPU iPhone OS 17_6_1 like Mac OS X) AppleWebKit/605.1.15 (KHTML, like Gecko) Version/17.6 Mobile/15E148 Safari/604.1",iPhone,Safari,17.6,iOS,17_6_1,https://5puzkbbxv1.cognition.run/?sona_id=56587,"en-US,en;q=0.9",cugo0m1c5mqp98z,18,"[""Black or African-American""]",No,Female,N/A,No,NA,null,<p></p>,null,choice,cdt,trinary,attraction,2,washing machines,null,null,null,null,null,null,2,NA,NA,NA,NA,NA,NA,NA,NA,NA,NA
NA,NA,NA,NA,NA,choice_trial,survey-html-form,87,394481,0.0-4.0-1.41,324,1,2025-05-08T19:02:17Z,b60275e29fe2361ab97ac0ac217840d7,"Mozilla/5.0 (iPhone; CPU iPhone OS 17_6_1 like Mac OS X) AppleWebKit/605.1.15 (KHTML, like Gecko) Version/17.6 Mobile/15E148 Safari/604.1",iPhone,Safari,17.6,iOS,17_6_1,https://5puzkbbxv1.cognition.run/?sona_id=56587,"en-US,en;q=0.9",cugo0m1c5mqp98z,18,"[""Black or African-American""]",No,Female,N/A,No,NA,6690,NA,"{""product_choice"":""A""}",choice,cdt,trinary,attraction,2,washing machines,null,null,null,null,null,null,2,50,60,40,60,50,60,Average lifespan,Energy savings,NA,NA
NA,NA,NA,NA,NA,choice_trial_setup,html-keyboard-response,88,394787,0.0-4.0-0.42,324,1,2025-05-08T19:02:17Z,b60275e29fe2361ab97ac0ac217840d7,"Mozilla/5.0 (iPhone; CPU iPhone OS 17_6_1 like Mac OS X) AppleWebKit/605.1.15 (KHTML, like Gecko) Version/17.6 Mobile/15E148 Safari/604.1",iPhone,Safari,17.6,iOS,17_6_1,https://5puzkbbxv1.cognition.run/?sona_id=56587,"en-US,en;q=0.9",cugo0m1c5mqp98z,18,"[""Black or African-American""]",No,Female,N/A,No,NA,null,<p></p>,null,choice,cdt,trinary,attraction,1,washing machines,null,null,null,null,null,null,2,NA,NA,NA,NA,NA,NA,NA,NA,NA,NA
NA,NA,NA,NA,NA,choice_trial,survey-html-form,89,398681,0.0-4.0-1.42,324,1,2025-05-08T19:02:17Z,b60275e29fe2361ab97ac0ac217840d7,"Mozilla/5.0 (iPhone; CPU iPhone OS 17_6_1 like Mac OS X) AppleWebKit/605.1.15 (KHTML, like Gecko) Version/17.6 Mobile/15E148 Safari/604.1",iPhone,Safari,17.6,iOS,17_6_1,https://5puzkbbxv1.cognition.run/?sona_id=56587,"en-US,en;q=0.9",cugo0m1c5mqp98z,18,"[""Black or African-American""]",No,Female,N/A,No,NA,3884,NA,"{""product_choice"":""C""}",choice,cdt,trinary,attraction,1,washing machines,null,null,null,null,null,null,2,60,50,60,50,60,40,Average lifespan,Energy savings,NA,NA
NA,NA,NA,NA,NA,choice_trial_setup,html-keyboard-response,90,398987,0.0-4.0-0.43,324,1,2025-05-08T19:02:17Z,b60275e29fe2361ab97ac0ac217840d7,"Mozilla/5.0 (iPhone; CPU iPhone OS 17_6_1 like Mac OS X) AppleWebKit/605.1.15 (KHTML, like Gecko) Version/17.6 Mobile/15E148 Safari/604.1",iPhone,Safari,17.6,iOS,17_6_1,https://5puzkbbxv1.cognition.run/?sona_id=56587,"en-US,en;q=0.9",cugo0m1c5mqp98z,18,"[""Black or African-American""]",No,Female,N/A,No,NA,null,<p></p>,null,choice,ct,binary,repulsion,2,microwave ovens,null,null,null,null,null,null,2,NA,NA,NA,NA,NA,NA,NA,NA,NA,NA
NA,NA,NA,NA,NA,choice_trial,survey-html-form,91,404691,0.0-4.0-1.43,324,1,2025-05-08T19:02:17Z,b60275e29fe2361ab97ac0ac217840d7,"Mozilla/5.0 (iPhone; CPU iPhone OS 17_6_1 like Mac OS X) AppleWebKit/605.1.15 (KHTML, like Gecko) Version/17.6 Mobile/15E148 Safari/604.1",iPhone,Safari,17.6,iOS,17_6_1,https://5puzkbbxv1.cognition.run/?sona_id=56587,"en-US,en;q=0.9",cugo0m1c5mqp98z,18,"[""Black or African-American""]",No,Female,N/A,No,NA,5692,NA,"{""product_choice"":""B""}",choice,ct,binary,repulsion,2,microwave ovens,null,null,null,null,null,null,2,30,40,null,100,90,null,Warranty,Cooking power,NA,NA
NA,NA,NA,NA,NA,post_trials_message,html-button-response,92,405909,0.0-5.0,324,1,2025-05-08T19:02:17Z,b60275e29fe2361ab97ac0ac217840d7,"Mozilla/5.0 (iPhone; CPU iPhone OS 17_6_1 like Mac OS X) AppleWebKit/605.1.15 (KHTML, like Gecko) Version/17.6 Mobile/15E148 Safari/604.1",iPhone,Safari,17.6,iOS,17_6_1,https://5puzkbbxv1.cognition.run/?sona_id=56587,"en-US,en;q=0.9",cugo0m1c5mqp98z,18,"[""Black or African-American""]",No,Female,N/A,No,NA,1212,<p> <b>Thank you for your patience!</b></p><p>  The study will be done after completing a brief form. </p>,0,NA,NA,NA,NA,NA,NA,NA,NA,NA,NA,NA,NA,NA,NA,NA,NA,NA,NA,NA,NA,NA,NA,NA
NA,NA,NA,NA,NA,survey_message,survey-text,93,646762,0.0-6.0,324,1,2025-05-08T19:02:17Z,b60275e29fe2361ab97ac0ac217840d7,"Mozilla/5.0 (iPhone; CPU iPhone OS 17_6_1 like Mac OS X) AppleWebKit/605.1.15 (KHTML, like Gecko) Version/17.6 Mobile/15E148 Safari/604.1",iPhone,Safari,17.6,iOS,17_6_1,https://5puzkbbxv1.cognition.run/?sona_id=56587,"en-US,en;q=0.9",cugo0m1c5mqp98z,18,"[""Black or African-American""]",No,Female,N/A,No,NA,240821,NA,"{""Q0"":""When it categorized microwave ( ex. Cook time and warranty) i choice which one was more. Valuable or important for me when getting a microwave. Although both are when it was higher than 80 for the option i felt was more important when getting a miceowave for me ( cook time), I would consider getting the option where cook time is still the highest but the warranty was also high as well, if that makes since.""}",NA,NA,NA,NA,NA,NA,NA,NA,NA,NA,NA,NA,NA,NA,NA,NA,NA,NA,NA,NA,NA,"When it categorized microwave ( ex. Cook time and warranty) i choice which one was more. Valuable or important for me when getting a microwave. Although both are when it was higher than 80 for the option i felt was more important when getting a miceowave for me ( cook time), I would consider getting the option where cook time is still the highest but the warranty was also high as well, if that makes since.",NA
NA,NA,NA,NA,NA,demo_age,survey-text,94,650151,0.0-7.0,324,1,2025-05-08T19:02:17Z,b60275e29fe2361ab97ac0ac217840d7,"Mozilla/5.0 (iPhone; CPU iPhone OS 17_6_1 like Mac OS X) AppleWebKit/605.1.15 (KHTML, like Gecko) Version/17.6 Mobile/15E148 Safari/604.1",iPhone,Safari,17.6,iOS,17_6_1,https://5puzkbbxv1.cognition.run/?sona_id=56587,"en-US,en;q=0.9",cugo0m1c5mqp98z,18,"[""Black or African-American""]",No,Female,N/A,No,NA,3373,NA,"{""Q0"":""18""}",NA,NA,NA,NA,NA,NA,NA,NA,NA,NA,NA,NA,NA,NA,NA,NA,NA,NA,NA,NA,NA,NA,NA
NA,NA,NA,NA,NA,demo_race,survey-multi-select,95,651924,0.0-8.0,324,1,2025-05-08T19:02:17Z,b60275e29fe2361ab97ac0ac217840d7,"Mozilla/5.0 (iPhone; CPU iPhone OS 17_6_1 like Mac OS X) AppleWebKit/605.1.15 (KHTML, like Gecko) Version/17.6 Mobile/15E148 Safari/604.1",iPhone,Safari,17.6,iOS,17_6_1,https://5puzkbbxv1.cognition.run/?sona_id=56587,"en-US,en;q=0.9",cugo0m1c5mqp98z,18,"[""Black or African-American""]",No,Female,N/A,No,NA,1764,NA,"{""Q0"":[""Black or African-American""]}",NA,NA,NA,NA,NA,NA,NA,NA,NA,NA,NA,NA,NA,NA,NA,NA,NA,NA,NA,NA,NA,NA,[0]
NA,NA,NA,NA,NA,demo_ethnicity_gender,survey-multi-choice,96,655305,0.0-9.0,324,1,2025-05-08T19:02:17Z,b60275e29fe2361ab97ac0ac217840d7,"Mozilla/5.0 (iPhone; CPU iPhone OS 17_6_1 like Mac OS X) AppleWebKit/605.1.15 (KHTML, like Gecko) Version/17.6 Mobile/15E148 Safari/604.1",iPhone,Safari,17.6,iOS,17_6_1,https://5puzkbbxv1.cognition.run/?sona_id=56587,"en-US,en;q=0.9",cugo0m1c5mqp98z,18,"[""Black or African-American""]",No,Female,N/A,No,NA,3372,NA,"{""Q0"":""No"",""Q1"":""Female""}",NA,NA,NA,NA,NA,NA,NA,NA,NA,NA,NA,NA,NA,NA,NA,NA,NA,NA,NA,NA,NA,NA,"[0,1]"
NA,NA,NA,NA,NA,demo_countries,survey-text,97,665622,0.0-10.0,324,1,2025-05-08T19:02:17Z,b60275e29fe2361ab97ac0ac217840d7,"Mozilla/5.0 (iPhone; CPU iPhone OS 17_6_1 like Mac OS X) AppleWebKit/605.1.15 (KHTML, like Gecko) Version/17.6 Mobile/15E148 Safari/604.1",iPhone,Safari,17.6,iOS,17_6_1,https://5puzkbbxv1.cognition.run/?sona_id=56587,"en-US,en;q=0.9",cugo0m1c5mqp98z,18,"[""Black or African-American""]",No,Female,N/A,No,NA,10307,NA,"{""Q0"":""N/A""}",NA,NA,NA,NA,NA,NA,NA,NA,NA,NA,NA,NA,NA,NA,NA,NA,NA,NA,NA,NA,NA,NA,NA
NA,NA,NA,NA,NA,demo_prev_study,survey-multi-choice,98,673169,0.0-11.0,324,1,2025-05-08T19:02:17Z,b60275e29fe2361ab97ac0ac217840d7,"Mozilla/5.0 (iPhone; CPU iPhone OS 17_6_1 like Mac OS X) AppleWebKit/605.1.15 (KHTML, like Gecko) Version/17.6 Mobile/15E148 Safari/604.1",iPhone,Safari,17.6,iOS,17_6_1,https://5puzkbbxv1.cognition.run/?sona_id=56587,"en-US,en;q=0.9",cugo0m1c5mqp98z,18,"[""Black or African-American""]",No,Female,N/A,No,NA,7541,NA,"{""Q0"":""No""}",NA,NA,NA,NA,NA,NA,NA,NA,NA,NA,NA,NA,NA,NA,NA,NA,NA,NA,NA,NA,NA,NA,[0]
