success,timeout,failed_images,failed_audio,failed_video,screen_id,trial_type,trial_index,time_elapsed,internal_node_id,run_id,condition,recorded_at,source_code_version,user_agent,device,browser,browser_version,platform,platform_version,referer,accept_language,ppt_id,age,race,ethnicity,gender,other_countries,prev_study,exp_duration,view_history,rt,stimulus,response,phase,order,set,effect,t_high,category,d1_best,d2_best,d1_worst1,d2_worst1,d1_worst2,d2_worst2,first_dim,d1_t,d1_c,d1_d,d2_t,d2_c,d2_d,d1_name,d2_name,strategy_response,question_order
TRUE,FALSE,[],[],[],img preload,preload,0,238,0.0-0.0,325,1,2025-05-08T19:09:11Z,b60275e29fe2361ab97ac0ac217840d7,"Mozilla/5.0 (Macintosh; Intel Mac OS X 10_15_7) AppleWebKit/537.36 (KHTML, like Gecko) Chrome/135.0.0.0 Safari/537.36",Macintosh,Chrome,135.0.0.0,OS X,10_15_7,https://5puzkbbxv1.cognition.run/?sona_id=53158,"en-US,en;q=0.9",xhmxldrj54gnjns,22,"[""White""]",No,Female,NA,No,464419.40000003576,NA,NA,NA,NA,NA,NA,NA,NA,NA,NA,NA,NA,NA,NA,NA,NA,NA,NA,NA,NA,NA,NA,NA,NA,NA,NA,NA
NA,NA,NA,NA,NA,computer_message,instructions,1,4171,0.0-1.0,325,1,2025-05-08T19:09:11Z,b60275e29fe2361ab97ac0ac217840d7,"Mozilla/5.0 (Macintosh; Intel Mac OS X 10_15_7) AppleWebKit/537.36 (KHTML, like Gecko) Chrome/135.0.0.0 Safari/537.36",Macintosh,Chrome,135.0.0.0,OS X,10_15_7,https://5puzkbbxv1.cognition.run/?sona_id=53158,"en-US,en;q=0.9",xhmxldrj54gnjns,22,"[""White""]",No,Female,NA,No,464419.40000003576,"[{""page_index"":0,""viewing_time"":3933}]",3933,NA,NA,NA,NA,NA,NA,NA,NA,NA,NA,NA,NA,NA,NA,NA,NA,NA,NA,NA,NA,NA,NA,NA,NA,NA
TRUE,NA,NA,NA,NA,NA,fullscreen,2,7706,0.0-2.0,325,1,2025-05-08T19:09:11Z,b60275e29fe2361ab97ac0ac217840d7,"Mozilla/5.0 (Macintosh; Intel Mac OS X 10_15_7) AppleWebKit/537.36 (KHTML, like Gecko) Chrome/135.0.0.0 Safari/537.36",Macintosh,Chrome,135.0.0.0,OS X,10_15_7,https://5puzkbbxv1.cognition.run/?sona_id=53158,"en-US,en;q=0.9",xhmxldrj54gnjns,22,"[""White""]",No,Female,NA,No,464419.40000003576,NA,2532,NA,NA,NA,NA,NA,NA,NA,NA,NA,NA,NA,NA,NA,NA,NA,NA,NA,NA,NA,NA,NA,NA,NA,NA,NA
NA,NA,NA,NA,NA,choice_instructions,instructions,3,57520,0.0-3.0,325,1,2025-05-08T19:09:11Z,b60275e29fe2361ab97ac0ac217840d7,"Mozilla/5.0 (Macintosh; Intel Mac OS X 10_15_7) AppleWebKit/537.36 (KHTML, like Gecko) Chrome/135.0.0.0 Safari/537.36",Macintosh,Chrome,135.0.0.0,OS X,10_15_7,https://5puzkbbxv1.cognition.run/?sona_id=53158,"en-US,en;q=0.9",xhmxldrj54gnjns,22,"[""White""]",No,Female,NA,No,464419.40000003576,"[{""page_index"":0,""viewing_time"":2268},{""page_index"":1,""viewing_time"":6363},{""page_index"":2,""viewing_time"":6386},{""page_index"":3,""viewing_time"":4615},{""page_index"":4,""viewing_time"":4867},{""page_index"":5,""viewing_time"":17382},{""page_index"":6,""viewing_time"":7933}]",49815,NA,NA,NA,NA,NA,NA,NA,NA,NA,NA,NA,NA,NA,NA,NA,NA,NA,NA,NA,NA,NA,NA,NA,NA,NA
NA,NA,NA,NA,NA,choice_trial_setup,html-keyboard-response,4,57822,0.0-4.0-0.0,325,1,2025-05-08T19:09:11Z,b60275e29fe2361ab97ac0ac217840d7,"Mozilla/5.0 (Macintosh; Intel Mac OS X 10_15_7) AppleWebKit/537.36 (KHTML, like Gecko) Chrome/135.0.0.0 Safari/537.36",Macintosh,Chrome,135.0.0.0,OS X,10_15_7,https://5puzkbbxv1.cognition.run/?sona_id=53158,"en-US,en;q=0.9",xhmxldrj54gnjns,22,"[""White""]",No,Female,NA,No,464419.40000003576,NA,null,<p></p>,null,choice,tcd,trinary,repulsion_A,2,microwave ovens,null,null,null,null,null,null,1,NA,NA,NA,NA,NA,NA,NA,NA,NA,NA
NA,NA,NA,NA,NA,choice_trial,survey-html-form,5,63523,0.0-4.0-1.0,325,1,2025-05-08T19:09:11Z,b60275e29fe2361ab97ac0ac217840d7,"Mozilla/5.0 (Macintosh; Intel Mac OS X 10_15_7) AppleWebKit/537.36 (KHTML, like Gecko) Chrome/135.0.0.0 Safari/537.36",Macintosh,Chrome,135.0.0.0,OS X,10_15_7,https://5puzkbbxv1.cognition.run/?sona_id=53158,"en-US,en;q=0.9",xhmxldrj54gnjns,22,"[""White""]",No,Female,NA,No,464419.40000003576,NA,5699,NA,"{""product_choice"":""B""}",choice,tcd,trinary,repulsion_A,2,microwave ovens,null,null,null,null,null,null,1,30,40,20,100,90,100,Warranty,Cooking power,NA,NA
NA,NA,NA,NA,NA,choice_trial_setup,html-keyboard-response,6,63825,0.0-4.0-0.1,325,1,2025-05-08T19:09:11Z,b60275e29fe2361ab97ac0ac217840d7,"Mozilla/5.0 (Macintosh; Intel Mac OS X 10_15_7) AppleWebKit/537.36 (KHTML, like Gecko) Chrome/135.0.0.0 Safari/537.36",Macintosh,Chrome,135.0.0.0,OS X,10_15_7,https://5puzkbbxv1.cognition.run/?sona_id=53158,"en-US,en;q=0.9",xhmxldrj54gnjns,22,"[""White""]",No,Female,NA,No,464419.40000003576,NA,null,<p></p>,null,choice,ct,binary,attraction,NA,televisions,null,null,null,null,null,null,2,NA,NA,NA,NA,NA,NA,NA,NA,NA,NA
NA,NA,NA,NA,NA,choice_trial,survey-html-form,7,67437,0.0-4.0-1.1,325,1,2025-05-08T19:09:11Z,b60275e29fe2361ab97ac0ac217840d7,"Mozilla/5.0 (Macintosh; Intel Mac OS X 10_15_7) AppleWebKit/537.36 (KHTML, like Gecko) Chrome/135.0.0.0 Safari/537.36",Macintosh,Chrome,135.0.0.0,OS X,10_15_7,https://5puzkbbxv1.cognition.run/?sona_id=53158,"en-US,en;q=0.9",xhmxldrj54gnjns,22,"[""White""]",No,Female,NA,No,464419.40000003576,NA,3611,NA,"{""product_choice"":""A""}",choice,ct,binary,attraction,NA,televisions,null,null,null,null,null,null,2,60,50,null,50,60,null,Screen size,Average lifespan,NA,NA
NA,NA,NA,NA,NA,choice_trial_setup,html-keyboard-response,8,67739,0.0-4.0-0.2,325,1,2025-05-08T19:09:11Z,b60275e29fe2361ab97ac0ac217840d7,"Mozilla/5.0 (Macintosh; Intel Mac OS X 10_15_7) AppleWebKit/537.36 (KHTML, like Gecko) Chrome/135.0.0.0 Safari/537.36",Macintosh,Chrome,135.0.0.0,OS X,10_15_7,https://5puzkbbxv1.cognition.run/?sona_id=53158,"en-US,en;q=0.9",xhmxldrj54gnjns,22,"[""White""]",No,Female,NA,No,464419.40000003576,NA,null,<p></p>,null,choice,tdc,trinary,repulsion_A,2,televisions,null,null,null,null,null,null,1,NA,NA,NA,NA,NA,NA,NA,NA,NA,NA
NA,NA,NA,NA,NA,choice_trial,survey-html-form,9,78538,0.0-4.0-1.2,325,1,2025-05-08T19:09:11Z,b60275e29fe2361ab97ac0ac217840d7,"Mozilla/5.0 (Macintosh; Intel Mac OS X 10_15_7) AppleWebKit/537.36 (KHTML, like Gecko) Chrome/135.0.0.0 Safari/537.36",Macintosh,Chrome,135.0.0.0,OS X,10_15_7,https://5puzkbbxv1.cognition.run/?sona_id=53158,"en-US,en;q=0.9",xhmxldrj54gnjns,22,"[""White""]",No,Female,NA,No,464419.40000003576,NA,10798,NA,"{""product_choice"":""A""}",choice,tdc,trinary,repulsion_A,2,televisions,null,null,null,null,null,null,1,30,40,20,100,90,100,Screen size,Average lifespan,NA,NA
NA,NA,NA,NA,NA,choice_trial_setup,html-keyboard-response,10,78841,0.0-4.0-0.3,325,1,2025-05-08T19:09:11Z,b60275e29fe2361ab97ac0ac217840d7,"Mozilla/5.0 (Macintosh; Intel Mac OS X 10_15_7) AppleWebKit/537.36 (KHTML, like Gecko) Chrome/135.0.0.0 Safari/537.36",Macintosh,Chrome,135.0.0.0,OS X,10_15_7,https://5puzkbbxv1.cognition.run/?sona_id=53158,"en-US,en;q=0.9",xhmxldrj54gnjns,22,"[""White""]",No,Female,NA,No,464419.40000003576,NA,null,<p></p>,null,choice,bw,binary,catch,null,microwave ovens,90,65,40,10,null,null,2,NA,NA,NA,NA,NA,NA,NA,NA,NA,NA
NA,NA,NA,NA,NA,choice_trial,survey-html-form,11,84755,0.0-4.0-1.3,325,1,2025-05-08T19:09:11Z,b60275e29fe2361ab97ac0ac217840d7,"Mozilla/5.0 (Macintosh; Intel Mac OS X 10_15_7) AppleWebKit/537.36 (KHTML, like Gecko) Chrome/135.0.0.0 Safari/537.36",Macintosh,Chrome,135.0.0.0,OS X,10_15_7,https://5puzkbbxv1.cognition.run/?sona_id=53158,"en-US,en;q=0.9",xhmxldrj54gnjns,22,"[""White""]",No,Female,NA,No,464419.40000003576,NA,5913,NA,"{""product_choice"":""A""}",choice,bw,binary,catch,null,microwave ovens,90,65,40,10,null,null,2,null,null,null,null,null,null,Warranty,Cooking power,NA,NA
NA,NA,NA,NA,NA,choice_trial_setup,html-keyboard-response,12,85058,0.0-4.0-0.4,325,1,2025-05-08T19:09:11Z,b60275e29fe2361ab97ac0ac217840d7,"Mozilla/5.0 (Macintosh; Intel Mac OS X 10_15_7) AppleWebKit/537.36 (KHTML, like Gecko) Chrome/135.0.0.0 Safari/537.36",Macintosh,Chrome,135.0.0.0,OS X,10_15_7,https://5puzkbbxv1.cognition.run/?sona_id=53158,"en-US,en;q=0.9",xhmxldrj54gnjns,22,"[""White""]",No,Female,NA,No,464419.40000003576,NA,null,<p></p>,null,choice,ct,binary,repulsion,2,televisions,null,null,null,null,null,null,1,NA,NA,NA,NA,NA,NA,NA,NA,NA,NA
NA,NA,NA,NA,NA,choice_trial,survey-html-form,13,95220,0.0-4.0-1.4,325,1,2025-05-08T19:09:11Z,b60275e29fe2361ab97ac0ac217840d7,"Mozilla/5.0 (Macintosh; Intel Mac OS X 10_15_7) AppleWebKit/537.36 (KHTML, like Gecko) Chrome/135.0.0.0 Safari/537.36",Macintosh,Chrome,135.0.0.0,OS X,10_15_7,https://5puzkbbxv1.cognition.run/?sona_id=53158,"en-US,en;q=0.9",xhmxldrj54gnjns,22,"[""White""]",No,Female,NA,No,464419.40000003576,NA,10159,NA,"{""product_choice"":""A""}",choice,ct,binary,repulsion,2,televisions,null,null,null,null,null,null,1,30,40,null,100,90,null,Screen size,Average lifespan,NA,NA
NA,NA,NA,NA,NA,choice_trial_setup,html-keyboard-response,14,95523,0.0-4.0-0.5,325,1,2025-05-08T19:09:11Z,b60275e29fe2361ab97ac0ac217840d7,"Mozilla/5.0 (Macintosh; Intel Mac OS X 10_15_7) AppleWebKit/537.36 (KHTML, like Gecko) Chrome/135.0.0.0 Safari/537.36",Macintosh,Chrome,135.0.0.0,OS X,10_15_7,https://5puzkbbxv1.cognition.run/?sona_id=53158,"en-US,en;q=0.9",xhmxldrj54gnjns,22,"[""White""]",No,Female,NA,No,464419.40000003576,NA,null,<p></p>,null,choice,wbw,trinary,catch,null,washing machines,65,80,25,10,35,5,2,NA,NA,NA,NA,NA,NA,NA,NA,NA,NA
NA,NA,NA,NA,NA,choice_trial,survey-html-form,15,103271,0.0-4.0-1.5,325,1,2025-05-08T19:09:11Z,b60275e29fe2361ab97ac0ac217840d7,"Mozilla/5.0 (Macintosh; Intel Mac OS X 10_15_7) AppleWebKit/537.36 (KHTML, like Gecko) Chrome/135.0.0.0 Safari/537.36",Macintosh,Chrome,135.0.0.0,OS X,10_15_7,https://5puzkbbxv1.cognition.run/?sona_id=53158,"en-US,en;q=0.9",xhmxldrj54gnjns,22,"[""White""]",No,Female,NA,No,464419.40000003576,NA,7746,NA,"{""product_choice"":""B""}",choice,wbw,trinary,catch,null,washing machines,65,80,25,10,35,5,2,null,null,null,null,null,null,Average lifespan,Energy savings,NA,NA
NA,NA,NA,NA,NA,choice_trial_setup,html-keyboard-response,16,103575,0.0-4.0-0.6,325,1,2025-05-08T19:09:11Z,b60275e29fe2361ab97ac0ac217840d7,"Mozilla/5.0 (Macintosh; Intel Mac OS X 10_15_7) AppleWebKit/537.36 (KHTML, like Gecko) Chrome/135.0.0.0 Safari/537.36",Macintosh,Chrome,135.0.0.0,OS X,10_15_7,https://5puzkbbxv1.cognition.run/?sona_id=53158,"en-US,en;q=0.9",xhmxldrj54gnjns,22,"[""White""]",No,Female,NA,No,464419.40000003576,NA,null,<p></p>,null,choice,tdc,trinary,attraction,1,televisions,null,null,null,null,null,null,2,NA,NA,NA,NA,NA,NA,NA,NA,NA,NA
NA,NA,NA,NA,NA,choice_trial,survey-html-form,17,112121,0.0-4.0-1.6,325,1,2025-05-08T19:09:11Z,b60275e29fe2361ab97ac0ac217840d7,"Mozilla/5.0 (Macintosh; Intel Mac OS X 10_15_7) AppleWebKit/537.36 (KHTML, like Gecko) Chrome/135.0.0.0 Safari/537.36",Macintosh,Chrome,135.0.0.0,OS X,10_15_7,https://5puzkbbxv1.cognition.run/?sona_id=53158,"en-US,en;q=0.9",xhmxldrj54gnjns,22,"[""White""]",No,Female,NA,No,464419.40000003576,NA,8543,NA,"{""product_choice"":""A""}",choice,tdc,trinary,attraction,1,televisions,null,null,null,null,null,null,2,60,50,60,50,60,40,Screen size,Average lifespan,NA,NA
NA,NA,NA,NA,NA,choice_trial_setup,html-keyboard-response,18,112424,0.0-4.0-0.7,325,1,2025-05-08T19:09:11Z,b60275e29fe2361ab97ac0ac217840d7,"Mozilla/5.0 (Macintosh; Intel Mac OS X 10_15_7) AppleWebKit/537.36 (KHTML, like Gecko) Chrome/135.0.0.0 Safari/537.36",Macintosh,Chrome,135.0.0.0,OS X,10_15_7,https://5puzkbbxv1.cognition.run/?sona_id=53158,"en-US,en;q=0.9",xhmxldrj54gnjns,22,"[""White""]",No,Female,NA,No,464419.40000003576,NA,null,<p></p>,null,choice,tc,binary,repulsion,2,microwave ovens,null,null,null,null,null,null,1,NA,NA,NA,NA,NA,NA,NA,NA,NA,NA
NA,NA,NA,NA,NA,choice_trial,survey-html-form,19,121074,0.0-4.0-1.7,325,1,2025-05-08T19:09:11Z,b60275e29fe2361ab97ac0ac217840d7,"Mozilla/5.0 (Macintosh; Intel Mac OS X 10_15_7) AppleWebKit/537.36 (KHTML, like Gecko) Chrome/135.0.0.0 Safari/537.36",Macintosh,Chrome,135.0.0.0,OS X,10_15_7,https://5puzkbbxv1.cognition.run/?sona_id=53158,"en-US,en;q=0.9",xhmxldrj54gnjns,22,"[""White""]",No,Female,NA,No,464419.40000003576,NA,8647,NA,"{""product_choice"":""A""}",choice,tc,binary,repulsion,2,microwave ovens,null,null,null,null,null,null,1,30,40,null,100,90,null,Warranty,Cooking power,NA,NA
NA,NA,NA,NA,NA,choice_trial_setup,html-keyboard-response,20,121376,0.0-4.0-0.8,325,1,2025-05-08T19:09:11Z,b60275e29fe2361ab97ac0ac217840d7,"Mozilla/5.0 (Macintosh; Intel Mac OS X 10_15_7) AppleWebKit/537.36 (KHTML, like Gecko) Chrome/135.0.0.0 Safari/537.36",Macintosh,Chrome,135.0.0.0,OS X,10_15_7,https://5puzkbbxv1.cognition.run/?sona_id=53158,"en-US,en;q=0.9",xhmxldrj54gnjns,22,"[""White""]",No,Female,NA,No,464419.40000003576,NA,null,<p></p>,null,choice,tc,binary,attraction,NA,microwave ovens,null,null,null,null,null,null,2,NA,NA,NA,NA,NA,NA,NA,NA,NA,NA
NA,NA,NA,NA,NA,choice_trial,survey-html-form,21,130075,0.0-4.0-1.8,325,1,2025-05-08T19:09:11Z,b60275e29fe2361ab97ac0ac217840d7,"Mozilla/5.0 (Macintosh; Intel Mac OS X 10_15_7) AppleWebKit/537.36 (KHTML, like Gecko) Chrome/135.0.0.0 Safari/537.36",Macintosh,Chrome,135.0.0.0,OS X,10_15_7,https://5puzkbbxv1.cognition.run/?sona_id=53158,"en-US,en;q=0.9",xhmxldrj54gnjns,22,"[""White""]",No,Female,NA,No,464419.40000003576,NA,8695,NA,"{""product_choice"":""B""}",choice,tc,binary,attraction,NA,microwave ovens,null,null,null,null,null,null,2,60,50,null,50,60,null,Warranty,Cooking power,NA,NA
NA,NA,NA,NA,NA,choice_trial_setup,html-keyboard-response,22,130378,0.0-4.0-0.9,325,1,2025-05-08T19:09:11Z,b60275e29fe2361ab97ac0ac217840d7,"Mozilla/5.0 (Macintosh; Intel Mac OS X 10_15_7) AppleWebKit/537.36 (KHTML, like Gecko) Chrome/135.0.0.0 Safari/537.36",Macintosh,Chrome,135.0.0.0,OS X,10_15_7,https://5puzkbbxv1.cognition.run/?sona_id=53158,"en-US,en;q=0.9",xhmxldrj54gnjns,22,"[""White""]",No,Female,NA,No,464419.40000003576,NA,null,<p></p>,null,choice,tcd,trinary,attraction,2,televisions,null,null,null,null,null,null,2,NA,NA,NA,NA,NA,NA,NA,NA,NA,NA
NA,NA,NA,NA,NA,choice_trial,survey-html-form,23,136236,0.0-4.0-1.9,325,1,2025-05-08T19:09:11Z,b60275e29fe2361ab97ac0ac217840d7,"Mozilla/5.0 (Macintosh; Intel Mac OS X 10_15_7) AppleWebKit/537.36 (KHTML, like Gecko) Chrome/135.0.0.0 Safari/537.36",Macintosh,Chrome,135.0.0.0,OS X,10_15_7,https://5puzkbbxv1.cognition.run/?sona_id=53158,"en-US,en;q=0.9",xhmxldrj54gnjns,22,"[""White""]",No,Female,NA,No,464419.40000003576,NA,5855,NA,"{""product_choice"":""B""}",choice,tcd,trinary,attraction,2,televisions,null,null,null,null,null,null,2,50,60,40,60,50,60,Screen size,Average lifespan,NA,NA
NA,NA,NA,NA,NA,choice_trial_setup,html-keyboard-response,24,136539,0.0-4.0-0.10,325,1,2025-05-08T19:09:11Z,b60275e29fe2361ab97ac0ac217840d7,"Mozilla/5.0 (Macintosh; Intel Mac OS X 10_15_7) AppleWebKit/537.36 (KHTML, like Gecko) Chrome/135.0.0.0 Safari/537.36",Macintosh,Chrome,135.0.0.0,OS X,10_15_7,https://5puzkbbxv1.cognition.run/?sona_id=53158,"en-US,en;q=0.9",xhmxldrj54gnjns,22,"[""White""]",No,Female,NA,No,464419.40000003576,NA,null,<p></p>,null,choice,dtc,trinary,repulsion_A,2,washing machines,null,null,null,null,null,null,2,NA,NA,NA,NA,NA,NA,NA,NA,NA,NA
NA,NA,NA,NA,NA,choice_trial,survey-html-form,25,143320,0.0-4.0-1.10,325,1,2025-05-08T19:09:11Z,b60275e29fe2361ab97ac0ac217840d7,"Mozilla/5.0 (Macintosh; Intel Mac OS X 10_15_7) AppleWebKit/537.36 (KHTML, like Gecko) Chrome/135.0.0.0 Safari/537.36",Macintosh,Chrome,135.0.0.0,OS X,10_15_7,https://5puzkbbxv1.cognition.run/?sona_id=53158,"en-US,en;q=0.9",xhmxldrj54gnjns,22,"[""White""]",No,Female,NA,No,464419.40000003576,NA,6778,NA,"{""product_choice"":""B""}",choice,dtc,trinary,repulsion_A,2,washing machines,null,null,null,null,null,null,2,30,40,20,100,90,100,Average lifespan,Energy savings,NA,NA
NA,NA,NA,NA,NA,choice_trial_setup,html-keyboard-response,26,143622,0.0-4.0-0.11,325,1,2025-05-08T19:09:11Z,b60275e29fe2361ab97ac0ac217840d7,"Mozilla/5.0 (Macintosh; Intel Mac OS X 10_15_7) AppleWebKit/537.36 (KHTML, like Gecko) Chrome/135.0.0.0 Safari/537.36",Macintosh,Chrome,135.0.0.0,OS X,10_15_7,https://5puzkbbxv1.cognition.run/?sona_id=53158,"en-US,en;q=0.9",xhmxldrj54gnjns,22,"[""White""]",No,Female,NA,No,464419.40000003576,NA,null,<p></p>,null,choice,tdc,trinary,attraction,1,washing machines,null,null,null,null,null,null,1,NA,NA,NA,NA,NA,NA,NA,NA,NA,NA
NA,NA,NA,NA,NA,choice_trial,survey-html-form,27,151387,0.0-4.0-1.11,325,1,2025-05-08T19:09:11Z,b60275e29fe2361ab97ac0ac217840d7,"Mozilla/5.0 (Macintosh; Intel Mac OS X 10_15_7) AppleWebKit/537.36 (KHTML, like Gecko) Chrome/135.0.0.0 Safari/537.36",Macintosh,Chrome,135.0.0.0,OS X,10_15_7,https://5puzkbbxv1.cognition.run/?sona_id=53158,"en-US,en;q=0.9",xhmxldrj54gnjns,22,"[""White""]",No,Female,NA,No,464419.40000003576,NA,7762,NA,"{""product_choice"":""A""}",choice,tdc,trinary,attraction,1,washing machines,null,null,null,null,null,null,1,60,50,60,50,60,40,Average lifespan,Energy savings,NA,NA
NA,NA,NA,NA,NA,choice_trial_setup,html-keyboard-response,28,151690,0.0-4.0-0.12,325,1,2025-05-08T19:09:11Z,b60275e29fe2361ab97ac0ac217840d7,"Mozilla/5.0 (Macintosh; Intel Mac OS X 10_15_7) AppleWebKit/537.36 (KHTML, like Gecko) Chrome/135.0.0.0 Safari/537.36",Macintosh,Chrome,135.0.0.0,OS X,10_15_7,https://5puzkbbxv1.cognition.run/?sona_id=53158,"en-US,en;q=0.9",xhmxldrj54gnjns,22,"[""White""]",No,Female,NA,No,464419.40000003576,NA,null,<p></p>,null,choice,ctd,trinary,attraction,1,laptops,null,null,null,null,null,null,2,NA,NA,NA,NA,NA,NA,NA,NA,NA,NA
NA,NA,NA,NA,NA,choice_trial,survey-html-form,29,160957,0.0-4.0-1.12,325,1,2025-05-08T19:09:11Z,b60275e29fe2361ab97ac0ac217840d7,"Mozilla/5.0 (Macintosh; Intel Mac OS X 10_15_7) AppleWebKit/537.36 (KHTML, like Gecko) Chrome/135.0.0.0 Safari/537.36",Macintosh,Chrome,135.0.0.0,OS X,10_15_7,https://5puzkbbxv1.cognition.run/?sona_id=53158,"en-US,en;q=0.9",xhmxldrj54gnjns,22,"[""White""]",No,Female,NA,No,464419.40000003576,NA,9263,NA,"{""product_choice"":""B""}",choice,ctd,trinary,attraction,1,laptops,null,null,null,null,null,null,2,60,50,60,50,60,40,Processing speed,Memory (RAM),NA,NA
NA,NA,NA,NA,NA,choice_trial_setup,html-keyboard-response,30,161260,0.0-4.0-0.13,325,1,2025-05-08T19:09:11Z,b60275e29fe2361ab97ac0ac217840d7,"Mozilla/5.0 (Macintosh; Intel Mac OS X 10_15_7) AppleWebKit/537.36 (KHTML, like Gecko) Chrome/135.0.0.0 Safari/537.36",Macintosh,Chrome,135.0.0.0,OS X,10_15_7,https://5puzkbbxv1.cognition.run/?sona_id=53158,"en-US,en;q=0.9",xhmxldrj54gnjns,22,"[""White""]",No,Female,NA,No,464419.40000003576,NA,null,<p></p>,null,choice,tc,binary,repulsion,1,laptops,null,null,null,null,null,null,1,NA,NA,NA,NA,NA,NA,NA,NA,NA,NA
NA,NA,NA,NA,NA,choice_trial,survey-html-form,31,171673,0.0-4.0-1.13,325,1,2025-05-08T19:09:11Z,b60275e29fe2361ab97ac0ac217840d7,"Mozilla/5.0 (Macintosh; Intel Mac OS X 10_15_7) AppleWebKit/537.36 (KHTML, like Gecko) Chrome/135.0.0.0 Safari/537.36",Macintosh,Chrome,135.0.0.0,OS X,10_15_7,https://5puzkbbxv1.cognition.run/?sona_id=53158,"en-US,en;q=0.9",xhmxldrj54gnjns,22,"[""White""]",No,Female,NA,No,464419.40000003576,NA,10408,NA,"{""product_choice"":""B""}",choice,tc,binary,repulsion,1,laptops,null,null,null,null,null,null,1,100,90,null,30,40,null,Processing speed,Memory (RAM),NA,NA
NA,NA,NA,NA,NA,choice_trial_setup,html-keyboard-response,32,171976,0.0-4.0-0.14,325,1,2025-05-08T19:09:11Z,b60275e29fe2361ab97ac0ac217840d7,"Mozilla/5.0 (Macintosh; Intel Mac OS X 10_15_7) AppleWebKit/537.36 (KHTML, like Gecko) Chrome/135.0.0.0 Safari/537.36",Macintosh,Chrome,135.0.0.0,OS X,10_15_7,https://5puzkbbxv1.cognition.run/?sona_id=53158,"en-US,en;q=0.9",xhmxldrj54gnjns,22,"[""White""]",No,Female,NA,No,464419.40000003576,NA,null,<p></p>,null,choice,ctd,trinary,repulsion_B,2,microwave ovens,null,null,null,null,null,null,2,NA,NA,NA,NA,NA,NA,NA,NA,NA,NA
NA,NA,NA,NA,NA,choice_trial,survey-html-form,33,176774,0.0-4.0-1.14,325,1,2025-05-08T19:09:11Z,b60275e29fe2361ab97ac0ac217840d7,"Mozilla/5.0 (Macintosh; Intel Mac OS X 10_15_7) AppleWebKit/537.36 (KHTML, like Gecko) Chrome/135.0.0.0 Safari/537.36",Macintosh,Chrome,135.0.0.0,OS X,10_15_7,https://5puzkbbxv1.cognition.run/?sona_id=53158,"en-US,en;q=0.9",xhmxldrj54gnjns,22,"[""White""]",No,Female,NA,No,464419.40000003576,NA,4794,NA,"{""product_choice"":""B""}",choice,ctd,trinary,repulsion_B,2,microwave ovens,null,null,null,null,null,null,2,40,30,40,90,100,80,Warranty,Cooking power,NA,NA
NA,NA,NA,NA,NA,choice_trial_setup,html-keyboard-response,34,177077,0.0-4.0-0.15,325,1,2025-05-08T19:09:11Z,b60275e29fe2361ab97ac0ac217840d7,"Mozilla/5.0 (Macintosh; Intel Mac OS X 10_15_7) AppleWebKit/537.36 (KHTML, like Gecko) Chrome/135.0.0.0 Safari/537.36",Macintosh,Chrome,135.0.0.0,OS X,10_15_7,https://5puzkbbxv1.cognition.run/?sona_id=53158,"en-US,en;q=0.9",xhmxldrj54gnjns,22,"[""White""]",No,Female,NA,No,464419.40000003576,NA,null,<p></p>,null,choice,cdt,trinary,repulsion_B,2,televisions,null,null,null,null,null,null,1,NA,NA,NA,NA,NA,NA,NA,NA,NA,NA
NA,NA,NA,NA,NA,choice_trial,survey-html-form,35,185236,0.0-4.0-1.15,325,1,2025-05-08T19:09:11Z,b60275e29fe2361ab97ac0ac217840d7,"Mozilla/5.0 (Macintosh; Intel Mac OS X 10_15_7) AppleWebKit/537.36 (KHTML, like Gecko) Chrome/135.0.0.0 Safari/537.36",Macintosh,Chrome,135.0.0.0,OS X,10_15_7,https://5puzkbbxv1.cognition.run/?sona_id=53158,"en-US,en;q=0.9",xhmxldrj54gnjns,22,"[""White""]",No,Female,NA,No,464419.40000003576,NA,8156,NA,"{""product_choice"":""C""}",choice,cdt,trinary,repulsion_B,2,televisions,null,null,null,null,null,null,1,40,30,40,90,100,80,Screen size,Average lifespan,NA,NA
NA,NA,NA,NA,NA,choice_trial_setup,html-keyboard-response,36,185539,0.0-4.0-0.16,325,1,2025-05-08T19:09:11Z,b60275e29fe2361ab97ac0ac217840d7,"Mozilla/5.0 (Macintosh; Intel Mac OS X 10_15_7) AppleWebKit/537.36 (KHTML, like Gecko) Chrome/135.0.0.0 Safari/537.36",Macintosh,Chrome,135.0.0.0,OS X,10_15_7,https://5puzkbbxv1.cognition.run/?sona_id=53158,"en-US,en;q=0.9",xhmxldrj54gnjns,22,"[""White""]",No,Female,NA,No,464419.40000003576,NA,null,<p></p>,null,choice,cdt,trinary,attraction,2,laptops,null,null,null,null,null,null,2,NA,NA,NA,NA,NA,NA,NA,NA,NA,NA
NA,NA,NA,NA,NA,choice_trial,survey-html-form,37,191754,0.0-4.0-1.16,325,1,2025-05-08T19:09:11Z,b60275e29fe2361ab97ac0ac217840d7,"Mozilla/5.0 (Macintosh; Intel Mac OS X 10_15_7) AppleWebKit/537.36 (KHTML, like Gecko) Chrome/135.0.0.0 Safari/537.36",Macintosh,Chrome,135.0.0.0,OS X,10_15_7,https://5puzkbbxv1.cognition.run/?sona_id=53158,"en-US,en;q=0.9",xhmxldrj54gnjns,22,"[""White""]",No,Female,NA,No,464419.40000003576,NA,6211,NA,"{""product_choice"":""A""}",choice,cdt,trinary,attraction,2,laptops,null,null,null,null,null,null,2,50,60,40,60,50,60,Processing speed,Memory (RAM),NA,NA
NA,NA,NA,NA,NA,choice_trial_setup,html-keyboard-response,38,192057,0.0-4.0-0.17,325,1,2025-05-08T19:09:11Z,b60275e29fe2361ab97ac0ac217840d7,"Mozilla/5.0 (Macintosh; Intel Mac OS X 10_15_7) AppleWebKit/537.36 (KHTML, like Gecko) Chrome/135.0.0.0 Safari/537.36",Macintosh,Chrome,135.0.0.0,OS X,10_15_7,https://5puzkbbxv1.cognition.run/?sona_id=53158,"en-US,en;q=0.9",xhmxldrj54gnjns,22,"[""White""]",No,Female,NA,No,464419.40000003576,NA,null,<p></p>,null,choice,tcd,trinary,repulsion_A,1,televisions,null,null,null,null,null,null,1,NA,NA,NA,NA,NA,NA,NA,NA,NA,NA
NA,NA,NA,NA,NA,choice_trial,survey-html-form,39,199220,0.0-4.0-1.17,325,1,2025-05-08T19:09:11Z,b60275e29fe2361ab97ac0ac217840d7,"Mozilla/5.0 (Macintosh; Intel Mac OS X 10_15_7) AppleWebKit/537.36 (KHTML, like Gecko) Chrome/135.0.0.0 Safari/537.36",Macintosh,Chrome,135.0.0.0,OS X,10_15_7,https://5puzkbbxv1.cognition.run/?sona_id=53158,"en-US,en;q=0.9",xhmxldrj54gnjns,22,"[""White""]",No,Female,NA,No,464419.40000003576,NA,7159,NA,"{""product_choice"":""A""}",choice,tcd,trinary,repulsion_A,1,televisions,null,null,null,null,null,null,1,100,90,100,30,40,20,Screen size,Average lifespan,NA,NA
NA,NA,NA,NA,NA,choice_trial_setup,html-keyboard-response,40,199522,0.0-4.0-0.18,325,1,2025-05-08T19:09:11Z,b60275e29fe2361ab97ac0ac217840d7,"Mozilla/5.0 (Macintosh; Intel Mac OS X 10_15_7) AppleWebKit/537.36 (KHTML, like Gecko) Chrome/135.0.0.0 Safari/537.36",Macintosh,Chrome,135.0.0.0,OS X,10_15_7,https://5puzkbbxv1.cognition.run/?sona_id=53158,"en-US,en;q=0.9",xhmxldrj54gnjns,22,"[""White""]",No,Female,NA,No,464419.40000003576,NA,null,<p></p>,null,choice,ct,binary,attraction,NA,washing machines,null,null,null,null,null,null,1,NA,NA,NA,NA,NA,NA,NA,NA,NA,NA
NA,NA,NA,NA,NA,choice_trial,survey-html-form,41,205236,0.0-4.0-1.18,325,1,2025-05-08T19:09:11Z,b60275e29fe2361ab97ac0ac217840d7,"Mozilla/5.0 (Macintosh; Intel Mac OS X 10_15_7) AppleWebKit/537.36 (KHTML, like Gecko) Chrome/135.0.0.0 Safari/537.36",Macintosh,Chrome,135.0.0.0,OS X,10_15_7,https://5puzkbbxv1.cognition.run/?sona_id=53158,"en-US,en;q=0.9",xhmxldrj54gnjns,22,"[""White""]",No,Female,NA,No,464419.40000003576,NA,5709,NA,"{""product_choice"":""A""}",choice,ct,binary,attraction,NA,washing machines,null,null,null,null,null,null,1,60,50,null,50,60,null,Average lifespan,Energy savings,NA,NA
NA,NA,NA,NA,NA,choice_trial_setup,html-keyboard-response,42,205538,0.0-4.0-0.19,325,1,2025-05-08T19:09:11Z,b60275e29fe2361ab97ac0ac217840d7,"Mozilla/5.0 (Macintosh; Intel Mac OS X 10_15_7) AppleWebKit/537.36 (KHTML, like Gecko) Chrome/135.0.0.0 Safari/537.36",Macintosh,Chrome,135.0.0.0,OS X,10_15_7,https://5puzkbbxv1.cognition.run/?sona_id=53158,"en-US,en;q=0.9",xhmxldrj54gnjns,22,"[""White""]",No,Female,NA,No,464419.40000003576,NA,null,<p></p>,null,choice,dtc,trinary,attraction,2,washing machines,null,null,null,null,null,null,2,NA,NA,NA,NA,NA,NA,NA,NA,NA,NA
NA,NA,NA,NA,NA,choice_trial,survey-html-form,43,213270,0.0-4.0-1.19,325,1,2025-05-08T19:09:11Z,b60275e29fe2361ab97ac0ac217840d7,"Mozilla/5.0 (Macintosh; Intel Mac OS X 10_15_7) AppleWebKit/537.36 (KHTML, like Gecko) Chrome/135.0.0.0 Safari/537.36",Macintosh,Chrome,135.0.0.0,OS X,10_15_7,https://5puzkbbxv1.cognition.run/?sona_id=53158,"en-US,en;q=0.9",xhmxldrj54gnjns,22,"[""White""]",No,Female,NA,No,464419.40000003576,NA,7728,NA,"{""product_choice"":""B""}",choice,dtc,trinary,attraction,2,washing machines,null,null,null,null,null,null,2,50,60,40,60,50,60,Average lifespan,Energy savings,NA,NA
NA,NA,NA,NA,NA,choice_trial_setup,html-keyboard-response,44,213573,0.0-4.0-0.20,325,1,2025-05-08T19:09:11Z,b60275e29fe2361ab97ac0ac217840d7,"Mozilla/5.0 (Macintosh; Intel Mac OS X 10_15_7) AppleWebKit/537.36 (KHTML, like Gecko) Chrome/135.0.0.0 Safari/537.36",Macintosh,Chrome,135.0.0.0,OS X,10_15_7,https://5puzkbbxv1.cognition.run/?sona_id=53158,"en-US,en;q=0.9",xhmxldrj54gnjns,22,"[""White""]",No,Female,NA,No,464419.40000003576,NA,null,<p></p>,null,choice,dct,trinary,repulsion_A,1,microwave ovens,null,null,null,null,null,null,2,NA,NA,NA,NA,NA,NA,NA,NA,NA,NA
NA,NA,NA,NA,NA,choice_trial,survey-html-form,45,219053,0.0-4.0-1.20,325,1,2025-05-08T19:09:11Z,b60275e29fe2361ab97ac0ac217840d7,"Mozilla/5.0 (Macintosh; Intel Mac OS X 10_15_7) AppleWebKit/537.36 (KHTML, like Gecko) Chrome/135.0.0.0 Safari/537.36",Macintosh,Chrome,135.0.0.0,OS X,10_15_7,https://5puzkbbxv1.cognition.run/?sona_id=53158,"en-US,en;q=0.9",xhmxldrj54gnjns,22,"[""White""]",No,Female,NA,No,464419.40000003576,NA,5476,NA,"{""product_choice"":""B""}",choice,dct,trinary,repulsion_A,1,microwave ovens,null,null,null,null,null,null,2,100,90,100,30,40,20,Warranty,Cooking power,NA,NA
NA,NA,NA,NA,NA,choice_trial_setup,html-keyboard-response,46,219355,0.0-4.0-0.21,325,1,2025-05-08T19:09:11Z,b60275e29fe2361ab97ac0ac217840d7,"Mozilla/5.0 (Macintosh; Intel Mac OS X 10_15_7) AppleWebKit/537.36 (KHTML, like Gecko) Chrome/135.0.0.0 Safari/537.36",Macintosh,Chrome,135.0.0.0,OS X,10_15_7,https://5puzkbbxv1.cognition.run/?sona_id=53158,"en-US,en;q=0.9",xhmxldrj54gnjns,22,"[""White""]",No,Female,NA,No,464419.40000003576,NA,null,<p></p>,null,choice,wwb,trinary,catch,null,televisions,95,65,45,15,20,50,1,NA,NA,NA,NA,NA,NA,NA,NA,NA,NA
NA,NA,NA,NA,NA,choice_trial,survey-html-form,47,225786,0.0-4.0-1.21,325,1,2025-05-08T19:09:11Z,b60275e29fe2361ab97ac0ac217840d7,"Mozilla/5.0 (Macintosh; Intel Mac OS X 10_15_7) AppleWebKit/537.36 (KHTML, like Gecko) Chrome/135.0.0.0 Safari/537.36",Macintosh,Chrome,135.0.0.0,OS X,10_15_7,https://5puzkbbxv1.cognition.run/?sona_id=53158,"en-US,en;q=0.9",xhmxldrj54gnjns,22,"[""White""]",No,Female,NA,No,464419.40000003576,NA,6426,NA,"{""product_choice"":""C""}",choice,wwb,trinary,catch,null,televisions,95,65,45,15,20,50,1,null,null,null,null,null,null,Screen size,Average lifespan,NA,NA
NA,NA,NA,NA,NA,choice_trial_setup,html-keyboard-response,48,226089,0.0-4.0-0.22,325,1,2025-05-08T19:09:11Z,b60275e29fe2361ab97ac0ac217840d7,"Mozilla/5.0 (Macintosh; Intel Mac OS X 10_15_7) AppleWebKit/537.36 (KHTML, like Gecko) Chrome/135.0.0.0 Safari/537.36",Macintosh,Chrome,135.0.0.0,OS X,10_15_7,https://5puzkbbxv1.cognition.run/?sona_id=53158,"en-US,en;q=0.9",xhmxldrj54gnjns,22,"[""White""]",No,Female,NA,No,464419.40000003576,NA,null,<p></p>,null,choice,dtc,trinary,repulsion_B,1,laptops,null,null,null,null,null,null,1,NA,NA,NA,NA,NA,NA,NA,NA,NA,NA
NA,NA,NA,NA,NA,choice_trial,survey-html-form,49,230855,0.0-4.0-1.22,325,1,2025-05-08T19:09:11Z,b60275e29fe2361ab97ac0ac217840d7,"Mozilla/5.0 (Macintosh; Intel Mac OS X 10_15_7) AppleWebKit/537.36 (KHTML, like Gecko) Chrome/135.0.0.0 Safari/537.36",Macintosh,Chrome,135.0.0.0,OS X,10_15_7,https://5puzkbbxv1.cognition.run/?sona_id=53158,"en-US,en;q=0.9",xhmxldrj54gnjns,22,"[""White""]",No,Female,NA,No,464419.40000003576,NA,4762,NA,"{""product_choice"":""C""}",choice,dtc,trinary,repulsion_B,1,laptops,null,null,null,null,null,null,1,90,100,80,40,30,40,Processing speed,Memory (RAM),NA,NA
NA,NA,NA,NA,NA,choice_trial_setup,html-keyboard-response,50,231158,0.0-4.0-0.23,325,1,2025-05-08T19:09:11Z,b60275e29fe2361ab97ac0ac217840d7,"Mozilla/5.0 (Macintosh; Intel Mac OS X 10_15_7) AppleWebKit/537.36 (KHTML, like Gecko) Chrome/135.0.0.0 Safari/537.36",Macintosh,Chrome,135.0.0.0,OS X,10_15_7,https://5puzkbbxv1.cognition.run/?sona_id=53158,"en-US,en;q=0.9",xhmxldrj54gnjns,22,"[""White""]",No,Female,NA,No,464419.40000003576,NA,null,<p></p>,null,choice,wb,binary,catch,null,washing machines,70,75,15,50,null,null,2,NA,NA,NA,NA,NA,NA,NA,NA,NA,NA
NA,NA,NA,NA,NA,choice_trial,survey-html-form,51,238156,0.0-4.0-1.23,325,1,2025-05-08T19:09:11Z,b60275e29fe2361ab97ac0ac217840d7,"Mozilla/5.0 (Macintosh; Intel Mac OS X 10_15_7) AppleWebKit/537.36 (KHTML, like Gecko) Chrome/135.0.0.0 Safari/537.36",Macintosh,Chrome,135.0.0.0,OS X,10_15_7,https://5puzkbbxv1.cognition.run/?sona_id=53158,"en-US,en;q=0.9",xhmxldrj54gnjns,22,"[""White""]",No,Female,NA,No,464419.40000003576,NA,6994,NA,"{""product_choice"":""B""}",choice,wb,binary,catch,null,washing machines,70,75,15,50,null,null,2,null,null,null,null,null,null,Average lifespan,Energy savings,NA,NA
NA,NA,NA,NA,NA,choice_trial_setup,html-keyboard-response,52,238459,0.0-4.0-0.24,325,1,2025-05-08T19:09:11Z,b60275e29fe2361ab97ac0ac217840d7,"Mozilla/5.0 (Macintosh; Intel Mac OS X 10_15_7) AppleWebKit/537.36 (KHTML, like Gecko) Chrome/135.0.0.0 Safari/537.36",Macintosh,Chrome,135.0.0.0,OS X,10_15_7,https://5puzkbbxv1.cognition.run/?sona_id=53158,"en-US,en;q=0.9",xhmxldrj54gnjns,22,"[""White""]",No,Female,NA,No,464419.40000003576,NA,null,<p></p>,null,choice,ct,binary,attraction,NA,laptops,null,null,null,null,null,null,2,NA,NA,NA,NA,NA,NA,NA,NA,NA,NA
NA,NA,NA,NA,NA,choice_trial,survey-html-form,53,243353,0.0-4.0-1.24,325,1,2025-05-08T19:09:11Z,b60275e29fe2361ab97ac0ac217840d7,"Mozilla/5.0 (Macintosh; Intel Mac OS X 10_15_7) AppleWebKit/537.36 (KHTML, like Gecko) Chrome/135.0.0.0 Safari/537.36",Macintosh,Chrome,135.0.0.0,OS X,10_15_7,https://5puzkbbxv1.cognition.run/?sona_id=53158,"en-US,en;q=0.9",xhmxldrj54gnjns,22,"[""White""]",No,Female,NA,No,464419.40000003576,NA,4889,NA,"{""product_choice"":""B""}",choice,ct,binary,attraction,NA,laptops,null,null,null,null,null,null,2,60,50,null,50,60,null,Processing speed,Memory (RAM),NA,NA
NA,NA,NA,NA,NA,choice_trial_setup,html-keyboard-response,54,243656,0.0-4.0-0.25,325,1,2025-05-08T19:09:11Z,b60275e29fe2361ab97ac0ac217840d7,"Mozilla/5.0 (Macintosh; Intel Mac OS X 10_15_7) AppleWebKit/537.36 (KHTML, like Gecko) Chrome/135.0.0.0 Safari/537.36",Macintosh,Chrome,135.0.0.0,OS X,10_15_7,https://5puzkbbxv1.cognition.run/?sona_id=53158,"en-US,en;q=0.9",xhmxldrj54gnjns,22,"[""White""]",No,Female,NA,No,464419.40000003576,NA,null,<p></p>,null,choice,dct,trinary,attraction,1,microwave ovens,null,null,null,null,null,null,2,NA,NA,NA,NA,NA,NA,NA,NA,NA,NA
NA,NA,NA,NA,NA,choice_trial,survey-html-form,55,254838,0.0-4.0-1.25,325,1,2025-05-08T19:09:11Z,b60275e29fe2361ab97ac0ac217840d7,"Mozilla/5.0 (Macintosh; Intel Mac OS X 10_15_7) AppleWebKit/537.36 (KHTML, like Gecko) Chrome/135.0.0.0 Safari/537.36",Macintosh,Chrome,135.0.0.0,OS X,10_15_7,https://5puzkbbxv1.cognition.run/?sona_id=53158,"en-US,en;q=0.9",xhmxldrj54gnjns,22,"[""White""]",No,Female,NA,No,464419.40000003576,NA,11176,NA,"{""product_choice"":""B""}",choice,dct,trinary,attraction,1,microwave ovens,null,null,null,null,null,null,2,60,50,60,50,60,40,Warranty,Cooking power,NA,NA
NA,NA,NA,NA,NA,choice_trial_setup,html-keyboard-response,56,255141,0.0-4.0-0.26,325,1,2025-05-08T19:09:11Z,b60275e29fe2361ab97ac0ac217840d7,"Mozilla/5.0 (Macintosh; Intel Mac OS X 10_15_7) AppleWebKit/537.36 (KHTML, like Gecko) Chrome/135.0.0.0 Safari/537.36",Macintosh,Chrome,135.0.0.0,OS X,10_15_7,https://5puzkbbxv1.cognition.run/?sona_id=53158,"en-US,en;q=0.9",xhmxldrj54gnjns,22,"[""White""]",No,Female,NA,No,464419.40000003576,NA,null,<p></p>,null,choice,dtc,trinary,repulsion_B,2,laptops,null,null,null,null,null,null,1,NA,NA,NA,NA,NA,NA,NA,NA,NA,NA
NA,NA,NA,NA,NA,choice_trial,survey-html-form,57,260736,0.0-4.0-1.26,325,1,2025-05-08T19:09:11Z,b60275e29fe2361ab97ac0ac217840d7,"Mozilla/5.0 (Macintosh; Intel Mac OS X 10_15_7) AppleWebKit/537.36 (KHTML, like Gecko) Chrome/135.0.0.0 Safari/537.36",Macintosh,Chrome,135.0.0.0,OS X,10_15_7,https://5puzkbbxv1.cognition.run/?sona_id=53158,"en-US,en;q=0.9",xhmxldrj54gnjns,22,"[""White""]",No,Female,NA,No,464419.40000003576,NA,5589,NA,"{""product_choice"":""B""}",choice,dtc,trinary,repulsion_B,2,laptops,null,null,null,null,null,null,1,40,30,40,90,100,80,Processing speed,Memory (RAM),NA,NA
NA,NA,NA,NA,NA,choice_trial_setup,html-keyboard-response,58,261039,0.0-4.0-0.27,325,1,2025-05-08T19:09:11Z,b60275e29fe2361ab97ac0ac217840d7,"Mozilla/5.0 (Macintosh; Intel Mac OS X 10_15_7) AppleWebKit/537.36 (KHTML, like Gecko) Chrome/135.0.0.0 Safari/537.36",Macintosh,Chrome,135.0.0.0,OS X,10_15_7,https://5puzkbbxv1.cognition.run/?sona_id=53158,"en-US,en;q=0.9",xhmxldrj54gnjns,22,"[""White""]",No,Female,NA,No,464419.40000003576,NA,null,<p></p>,null,choice,wwb,trinary,catch,null,laptops,55,70,35,30,50,10,1,NA,NA,NA,NA,NA,NA,NA,NA,NA,NA
NA,NA,NA,NA,NA,choice_trial,survey-html-form,59,266221,0.0-4.0-1.27,325,1,2025-05-08T19:09:11Z,b60275e29fe2361ab97ac0ac217840d7,"Mozilla/5.0 (Macintosh; Intel Mac OS X 10_15_7) AppleWebKit/537.36 (KHTML, like Gecko) Chrome/135.0.0.0 Safari/537.36",Macintosh,Chrome,135.0.0.0,OS X,10_15_7,https://5puzkbbxv1.cognition.run/?sona_id=53158,"en-US,en;q=0.9",xhmxldrj54gnjns,22,"[""White""]",No,Female,NA,No,464419.40000003576,NA,5176,NA,"{""product_choice"":""C""}",choice,wwb,trinary,catch,null,laptops,55,70,35,30,50,10,1,null,null,null,null,null,null,Processing speed,Memory (RAM),NA,NA
NA,NA,NA,NA,NA,choice_trial_setup,html-keyboard-response,60,266524,0.0-4.0-0.28,325,1,2025-05-08T19:09:11Z,b60275e29fe2361ab97ac0ac217840d7,"Mozilla/5.0 (Macintosh; Intel Mac OS X 10_15_7) AppleWebKit/537.36 (KHTML, like Gecko) Chrome/135.0.0.0 Safari/537.36",Macintosh,Chrome,135.0.0.0,OS X,10_15_7,https://5puzkbbxv1.cognition.run/?sona_id=53158,"en-US,en;q=0.9",xhmxldrj54gnjns,22,"[""White""]",No,Female,NA,No,464419.40000003576,NA,null,<p></p>,null,choice,ctd,trinary,attraction,2,microwave ovens,null,null,null,null,null,null,1,NA,NA,NA,NA,NA,NA,NA,NA,NA,NA
NA,NA,NA,NA,NA,choice_trial,survey-html-form,61,275021,0.0-4.0-1.28,325,1,2025-05-08T19:09:11Z,b60275e29fe2361ab97ac0ac217840d7,"Mozilla/5.0 (Macintosh; Intel Mac OS X 10_15_7) AppleWebKit/537.36 (KHTML, like Gecko) Chrome/135.0.0.0 Safari/537.36",Macintosh,Chrome,135.0.0.0,OS X,10_15_7,https://5puzkbbxv1.cognition.run/?sona_id=53158,"en-US,en;q=0.9",xhmxldrj54gnjns,22,"[""White""]",No,Female,NA,No,464419.40000003576,NA,8492,NA,"{""product_choice"":""A""}",choice,ctd,trinary,attraction,2,microwave ovens,null,null,null,null,null,null,1,50,60,40,60,50,60,Warranty,Cooking power,NA,NA
NA,NA,NA,NA,NA,choice_trial_setup,html-keyboard-response,62,275324,0.0-4.0-0.29,325,1,2025-05-08T19:09:11Z,b60275e29fe2361ab97ac0ac217840d7,"Mozilla/5.0 (Macintosh; Intel Mac OS X 10_15_7) AppleWebKit/537.36 (KHTML, like Gecko) Chrome/135.0.0.0 Safari/537.36",Macintosh,Chrome,135.0.0.0,OS X,10_15_7,https://5puzkbbxv1.cognition.run/?sona_id=53158,"en-US,en;q=0.9",xhmxldrj54gnjns,22,"[""White""]",No,Female,NA,No,464419.40000003576,NA,null,<p></p>,null,choice,dtc,trinary,repulsion_A,1,laptops,null,null,null,null,null,null,1,NA,NA,NA,NA,NA,NA,NA,NA,NA,NA
NA,NA,NA,NA,NA,choice_trial,survey-html-form,63,279754,0.0-4.0-1.29,325,1,2025-05-08T19:09:11Z,b60275e29fe2361ab97ac0ac217840d7,"Mozilla/5.0 (Macintosh; Intel Mac OS X 10_15_7) AppleWebKit/537.36 (KHTML, like Gecko) Chrome/135.0.0.0 Safari/537.36",Macintosh,Chrome,135.0.0.0,OS X,10_15_7,https://5puzkbbxv1.cognition.run/?sona_id=53158,"en-US,en;q=0.9",xhmxldrj54gnjns,22,"[""White""]",No,Female,NA,No,464419.40000003576,NA,4425,NA,"{""product_choice"":""B""}",choice,dtc,trinary,repulsion_A,1,laptops,null,null,null,null,null,null,1,100,90,100,30,40,20,Processing speed,Memory (RAM),NA,NA
NA,NA,NA,NA,NA,choice_trial_setup,html-keyboard-response,64,280057,0.0-4.0-0.30,325,1,2025-05-08T19:09:11Z,b60275e29fe2361ab97ac0ac217840d7,"Mozilla/5.0 (Macintosh; Intel Mac OS X 10_15_7) AppleWebKit/537.36 (KHTML, like Gecko) Chrome/135.0.0.0 Safari/537.36",Macintosh,Chrome,135.0.0.0,OS X,10_15_7,https://5puzkbbxv1.cognition.run/?sona_id=53158,"en-US,en;q=0.9",xhmxldrj54gnjns,22,"[""White""]",No,Female,NA,No,464419.40000003576,NA,null,<p></p>,null,choice,cdt,trinary,repulsion_B,1,microwave ovens,null,null,null,null,null,null,1,NA,NA,NA,NA,NA,NA,NA,NA,NA,NA
NA,NA,NA,NA,NA,choice_trial,survey-html-form,65,287469,0.0-4.0-1.30,325,1,2025-05-08T19:09:11Z,b60275e29fe2361ab97ac0ac217840d7,"Mozilla/5.0 (Macintosh; Intel Mac OS X 10_15_7) AppleWebKit/537.36 (KHTML, like Gecko) Chrome/135.0.0.0 Safari/537.36",Macintosh,Chrome,135.0.0.0,OS X,10_15_7,https://5puzkbbxv1.cognition.run/?sona_id=53158,"en-US,en;q=0.9",xhmxldrj54gnjns,22,"[""White""]",No,Female,NA,No,464419.40000003576,NA,7407,NA,"{""product_choice"":""C""}",choice,cdt,trinary,repulsion_B,1,microwave ovens,null,null,null,null,null,null,1,90,100,80,40,30,40,Warranty,Cooking power,NA,NA
NA,NA,NA,NA,NA,choice_trial_setup,html-keyboard-response,66,287772,0.0-4.0-0.31,325,1,2025-05-08T19:09:11Z,b60275e29fe2361ab97ac0ac217840d7,"Mozilla/5.0 (Macintosh; Intel Mac OS X 10_15_7) AppleWebKit/537.36 (KHTML, like Gecko) Chrome/135.0.0.0 Safari/537.36",Macintosh,Chrome,135.0.0.0,OS X,10_15_7,https://5puzkbbxv1.cognition.run/?sona_id=53158,"en-US,en;q=0.9",xhmxldrj54gnjns,22,"[""White""]",No,Female,NA,No,464419.40000003576,NA,null,<p></p>,null,choice,dct,trinary,repulsion_A,2,laptops,null,null,null,null,null,null,1,NA,NA,NA,NA,NA,NA,NA,NA,NA,NA
NA,NA,NA,NA,NA,choice_trial,survey-html-form,67,311802,0.0-4.0-1.31,325,1,2025-05-08T19:09:11Z,b60275e29fe2361ab97ac0ac217840d7,"Mozilla/5.0 (Macintosh; Intel Mac OS X 10_15_7) AppleWebKit/537.36 (KHTML, like Gecko) Chrome/135.0.0.0 Safari/537.36",Macintosh,Chrome,135.0.0.0,OS X,10_15_7,https://5puzkbbxv1.cognition.run/?sona_id=53158,"en-US,en;q=0.9",xhmxldrj54gnjns,22,"[""White""]",No,Female,NA,No,464419.40000003576,NA,24025,NA,"{""product_choice"":""B""}",choice,dct,trinary,repulsion_A,2,laptops,null,null,null,null,null,null,1,30,40,20,100,90,100,Processing speed,Memory (RAM),NA,NA
NA,NA,NA,NA,NA,choice_trial_setup,html-keyboard-response,68,312106,0.0-4.0-0.32,325,1,2025-05-08T19:09:11Z,b60275e29fe2361ab97ac0ac217840d7,"Mozilla/5.0 (Macintosh; Intel Mac OS X 10_15_7) AppleWebKit/537.36 (KHTML, like Gecko) Chrome/135.0.0.0 Safari/537.36",Macintosh,Chrome,135.0.0.0,OS X,10_15_7,https://5puzkbbxv1.cognition.run/?sona_id=53158,"en-US,en;q=0.9",xhmxldrj54gnjns,22,"[""White""]",No,Female,NA,No,464419.40000003576,NA,null,<p></p>,null,choice,tcd,trinary,repulsion_B,1,washing machines,null,null,null,null,null,null,1,NA,NA,NA,NA,NA,NA,NA,NA,NA,NA
NA,NA,NA,NA,NA,choice_trial,survey-html-form,69,321704,0.0-4.0-1.32,325,1,2025-05-08T19:09:11Z,b60275e29fe2361ab97ac0ac217840d7,"Mozilla/5.0 (Macintosh; Intel Mac OS X 10_15_7) AppleWebKit/537.36 (KHTML, like Gecko) Chrome/135.0.0.0 Safari/537.36",Macintosh,Chrome,135.0.0.0,OS X,10_15_7,https://5puzkbbxv1.cognition.run/?sona_id=53158,"en-US,en;q=0.9",xhmxldrj54gnjns,22,"[""White""]",No,Female,NA,No,464419.40000003576,NA,9595,NA,"{""product_choice"":""A""}",choice,tcd,trinary,repulsion_B,1,washing machines,null,null,null,null,null,null,1,90,100,80,40,30,40,Average lifespan,Energy savings,NA,NA
NA,NA,NA,NA,NA,choice_trial_setup,html-keyboard-response,70,322006,0.0-4.0-0.33,325,1,2025-05-08T19:09:11Z,b60275e29fe2361ab97ac0ac217840d7,"Mozilla/5.0 (Macintosh; Intel Mac OS X 10_15_7) AppleWebKit/537.36 (KHTML, like Gecko) Chrome/135.0.0.0 Safari/537.36",Macintosh,Chrome,135.0.0.0,OS X,10_15_7,https://5puzkbbxv1.cognition.run/?sona_id=53158,"en-US,en;q=0.9",xhmxldrj54gnjns,22,"[""White""]",No,Female,NA,No,464419.40000003576,NA,null,<p></p>,null,choice,tc,binary,repulsion,1,televisions,null,null,null,null,null,null,1,NA,NA,NA,NA,NA,NA,NA,NA,NA,NA
NA,NA,NA,NA,NA,choice_trial,survey-html-form,71,327319,0.0-4.0-1.33,325,1,2025-05-08T19:09:11Z,b60275e29fe2361ab97ac0ac217840d7,"Mozilla/5.0 (Macintosh; Intel Mac OS X 10_15_7) AppleWebKit/537.36 (KHTML, like Gecko) Chrome/135.0.0.0 Safari/537.36",Macintosh,Chrome,135.0.0.0,OS X,10_15_7,https://5puzkbbxv1.cognition.run/?sona_id=53158,"en-US,en;q=0.9",xhmxldrj54gnjns,22,"[""White""]",No,Female,NA,No,464419.40000003576,NA,5308,NA,"{""product_choice"":""A""}",choice,tc,binary,repulsion,1,televisions,null,null,null,null,null,null,1,100,90,null,30,40,null,Screen size,Average lifespan,NA,NA
NA,NA,NA,NA,NA,choice_trial_setup,html-keyboard-response,72,327622,0.0-4.0-0.34,325,1,2025-05-08T19:09:11Z,b60275e29fe2361ab97ac0ac217840d7,"Mozilla/5.0 (Macintosh; Intel Mac OS X 10_15_7) AppleWebKit/537.36 (KHTML, like Gecko) Chrome/135.0.0.0 Safari/537.36",Macintosh,Chrome,135.0.0.0,OS X,10_15_7,https://5puzkbbxv1.cognition.run/?sona_id=53158,"en-US,en;q=0.9",xhmxldrj54gnjns,22,"[""White""]",No,Female,NA,No,464419.40000003576,NA,null,<p></p>,null,choice,dtc,trinary,repulsion_B,2,washing machines,null,null,null,null,null,null,1,NA,NA,NA,NA,NA,NA,NA,NA,NA,NA
NA,NA,NA,NA,NA,choice_trial,survey-html-form,73,334036,0.0-4.0-1.34,325,1,2025-05-08T19:09:11Z,b60275e29fe2361ab97ac0ac217840d7,"Mozilla/5.0 (Macintosh; Intel Mac OS X 10_15_7) AppleWebKit/537.36 (KHTML, like Gecko) Chrome/135.0.0.0 Safari/537.36",Macintosh,Chrome,135.0.0.0,OS X,10_15_7,https://5puzkbbxv1.cognition.run/?sona_id=53158,"en-US,en;q=0.9",xhmxldrj54gnjns,22,"[""White""]",No,Female,NA,No,464419.40000003576,NA,6408,NA,"{""product_choice"":""B""}",choice,dtc,trinary,repulsion_B,2,washing machines,null,null,null,null,null,null,1,40,30,40,90,100,80,Average lifespan,Energy savings,NA,NA
NA,NA,NA,NA,NA,choice_trial_setup,html-keyboard-response,74,334339,0.0-4.0-0.35,325,1,2025-05-08T19:09:11Z,b60275e29fe2361ab97ac0ac217840d7,"Mozilla/5.0 (Macintosh; Intel Mac OS X 10_15_7) AppleWebKit/537.36 (KHTML, like Gecko) Chrome/135.0.0.0 Safari/537.36",Macintosh,Chrome,135.0.0.0,OS X,10_15_7,https://5puzkbbxv1.cognition.run/?sona_id=53158,"en-US,en;q=0.9",xhmxldrj54gnjns,22,"[""White""]",No,Female,NA,No,464419.40000003576,NA,null,<p></p>,null,choice,cdt,trinary,repulsion_A,1,washing machines,null,null,null,null,null,null,2,NA,NA,NA,NA,NA,NA,NA,NA,NA,NA
NA,NA,NA,NA,NA,choice_trial,survey-html-form,75,341153,0.0-4.0-1.35,325,1,2025-05-08T19:09:11Z,b60275e29fe2361ab97ac0ac217840d7,"Mozilla/5.0 (Macintosh; Intel Mac OS X 10_15_7) AppleWebKit/537.36 (KHTML, like Gecko) Chrome/135.0.0.0 Safari/537.36",Macintosh,Chrome,135.0.0.0,OS X,10_15_7,https://5puzkbbxv1.cognition.run/?sona_id=53158,"en-US,en;q=0.9",xhmxldrj54gnjns,22,"[""White""]",No,Female,NA,No,464419.40000003576,NA,6808,NA,"{""product_choice"":""A""}",choice,cdt,trinary,repulsion_A,1,washing machines,null,null,null,null,null,null,2,100,90,100,30,40,20,Average lifespan,Energy savings,NA,NA
NA,NA,NA,NA,NA,choice_trial_setup,html-keyboard-response,76,341456,0.0-4.0-0.36,325,1,2025-05-08T19:09:11Z,b60275e29fe2361ab97ac0ac217840d7,"Mozilla/5.0 (Macintosh; Intel Mac OS X 10_15_7) AppleWebKit/537.36 (KHTML, like Gecko) Chrome/135.0.0.0 Safari/537.36",Macintosh,Chrome,135.0.0.0,OS X,10_15_7,https://5puzkbbxv1.cognition.run/?sona_id=53158,"en-US,en;q=0.9",xhmxldrj54gnjns,22,"[""White""]",No,Female,NA,No,464419.40000003576,NA,null,<p></p>,null,choice,tc,binary,repulsion,1,washing machines,null,null,null,null,null,null,1,NA,NA,NA,NA,NA,NA,NA,NA,NA,NA
NA,NA,NA,NA,NA,choice_trial,survey-html-form,77,347902,0.0-4.0-1.36,325,1,2025-05-08T19:09:11Z,b60275e29fe2361ab97ac0ac217840d7,"Mozilla/5.0 (Macintosh; Intel Mac OS X 10_15_7) AppleWebKit/537.36 (KHTML, like Gecko) Chrome/135.0.0.0 Safari/537.36",Macintosh,Chrome,135.0.0.0,OS X,10_15_7,https://5puzkbbxv1.cognition.run/?sona_id=53158,"en-US,en;q=0.9",xhmxldrj54gnjns,22,"[""White""]",No,Female,NA,No,464419.40000003576,NA,6441,NA,"{""product_choice"":""B""}",choice,tc,binary,repulsion,1,washing machines,null,null,null,null,null,null,1,100,90,null,30,40,null,Average lifespan,Energy savings,NA,NA
NA,NA,NA,NA,NA,choice_trial_setup,html-keyboard-response,78,348206,0.0-4.0-0.37,325,1,2025-05-08T19:09:11Z,b60275e29fe2361ab97ac0ac217840d7,"Mozilla/5.0 (Macintosh; Intel Mac OS X 10_15_7) AppleWebKit/537.36 (KHTML, like Gecko) Chrome/135.0.0.0 Safari/537.36",Macintosh,Chrome,135.0.0.0,OS X,10_15_7,https://5puzkbbxv1.cognition.run/?sona_id=53158,"en-US,en;q=0.9",xhmxldrj54gnjns,22,"[""White""]",No,Female,NA,No,464419.40000003576,NA,null,<p></p>,null,choice,bw,binary,catch,null,laptops,60,65,25,35,null,null,1,NA,NA,NA,NA,NA,NA,NA,NA,NA,NA
NA,NA,NA,NA,NA,choice_trial,survey-html-form,79,355585,0.0-4.0-1.37,325,1,2025-05-08T19:09:11Z,b60275e29fe2361ab97ac0ac217840d7,"Mozilla/5.0 (Macintosh; Intel Mac OS X 10_15_7) AppleWebKit/537.36 (KHTML, like Gecko) Chrome/135.0.0.0 Safari/537.36",Macintosh,Chrome,135.0.0.0,OS X,10_15_7,https://5puzkbbxv1.cognition.run/?sona_id=53158,"en-US,en;q=0.9",xhmxldrj54gnjns,22,"[""White""]",No,Female,NA,No,464419.40000003576,NA,7374,NA,"{""product_choice"":""A""}",choice,bw,binary,catch,null,laptops,60,65,25,35,null,null,1,null,null,null,null,null,null,Processing speed,Memory (RAM),NA,NA
NA,NA,NA,NA,NA,choice_trial_setup,html-keyboard-response,80,355888,0.0-4.0-0.38,325,1,2025-05-08T19:09:11Z,b60275e29fe2361ab97ac0ac217840d7,"Mozilla/5.0 (Macintosh; Intel Mac OS X 10_15_7) AppleWebKit/537.36 (KHTML, like Gecko) Chrome/135.0.0.0 Safari/537.36",Macintosh,Chrome,135.0.0.0,OS X,10_15_7,https://5puzkbbxv1.cognition.run/?sona_id=53158,"en-US,en;q=0.9",xhmxldrj54gnjns,22,"[""White""]",No,Female,NA,No,464419.40000003576,NA,null,<p></p>,null,choice,tc,binary,repulsion,2,washing machines,null,null,null,null,null,null,2,NA,NA,NA,NA,NA,NA,NA,NA,NA,NA
NA,NA,NA,NA,NA,choice_trial,survey-html-form,81,362573,0.0-4.0-1.38,325,1,2025-05-08T19:09:11Z,b60275e29fe2361ab97ac0ac217840d7,"Mozilla/5.0 (Macintosh; Intel Mac OS X 10_15_7) AppleWebKit/537.36 (KHTML, like Gecko) Chrome/135.0.0.0 Safari/537.36",Macintosh,Chrome,135.0.0.0,OS X,10_15_7,https://5puzkbbxv1.cognition.run/?sona_id=53158,"en-US,en;q=0.9",xhmxldrj54gnjns,22,"[""White""]",No,Female,NA,No,464419.40000003576,NA,6679,NA,"{""product_choice"":""B""}",choice,tc,binary,repulsion,2,washing machines,null,null,null,null,null,null,2,30,40,null,100,90,null,Average lifespan,Energy savings,NA,NA
NA,NA,NA,NA,NA,choice_trial_setup,html-keyboard-response,82,362876,0.0-4.0-0.39,325,1,2025-05-08T19:09:11Z,b60275e29fe2361ab97ac0ac217840d7,"Mozilla/5.0 (Macintosh; Intel Mac OS X 10_15_7) AppleWebKit/537.36 (KHTML, like Gecko) Chrome/135.0.0.0 Safari/537.36",Macintosh,Chrome,135.0.0.0,OS X,10_15_7,https://5puzkbbxv1.cognition.run/?sona_id=53158,"en-US,en;q=0.9",xhmxldrj54gnjns,22,"[""White""]",No,Female,NA,No,464419.40000003576,NA,null,<p></p>,null,choice,wb,binary,catch,null,televisions,85,80,35,50,null,null,2,NA,NA,NA,NA,NA,NA,NA,NA,NA,NA
NA,NA,NA,NA,NA,choice_trial,survey-html-form,83,367219,0.0-4.0-1.39,325,1,2025-05-08T19:09:11Z,b60275e29fe2361ab97ac0ac217840d7,"Mozilla/5.0 (Macintosh; Intel Mac OS X 10_15_7) AppleWebKit/537.36 (KHTML, like Gecko) Chrome/135.0.0.0 Safari/537.36",Macintosh,Chrome,135.0.0.0,OS X,10_15_7,https://5puzkbbxv1.cognition.run/?sona_id=53158,"en-US,en;q=0.9",xhmxldrj54gnjns,22,"[""White""]",No,Female,NA,No,464419.40000003576,NA,4338,NA,"{""product_choice"":""B""}",choice,wb,binary,catch,null,televisions,85,80,35,50,null,null,2,null,null,null,null,null,null,Screen size,Average lifespan,NA,NA
NA,NA,NA,NA,NA,choice_trial_setup,html-keyboard-response,84,367522,0.0-4.0-0.40,325,1,2025-05-08T19:09:11Z,b60275e29fe2361ab97ac0ac217840d7,"Mozilla/5.0 (Macintosh; Intel Mac OS X 10_15_7) AppleWebKit/537.36 (KHTML, like Gecko) Chrome/135.0.0.0 Safari/537.36",Macintosh,Chrome,135.0.0.0,OS X,10_15_7,https://5puzkbbxv1.cognition.run/?sona_id=53158,"en-US,en;q=0.9",xhmxldrj54gnjns,22,"[""White""]",No,Female,NA,No,464419.40000003576,NA,null,<p></p>,null,choice,tc,binary,repulsion,1,microwave ovens,null,null,null,null,null,null,2,NA,NA,NA,NA,NA,NA,NA,NA,NA,NA
NA,NA,NA,NA,NA,choice_trial,survey-html-form,85,375535,0.0-4.0-1.40,325,1,2025-05-08T19:09:11Z,b60275e29fe2361ab97ac0ac217840d7,"Mozilla/5.0 (Macintosh; Intel Mac OS X 10_15_7) AppleWebKit/537.36 (KHTML, like Gecko) Chrome/135.0.0.0 Safari/537.36",Macintosh,Chrome,135.0.0.0,OS X,10_15_7,https://5puzkbbxv1.cognition.run/?sona_id=53158,"en-US,en;q=0.9",xhmxldrj54gnjns,22,"[""White""]",No,Female,NA,No,464419.40000003576,NA,8007,NA,"{""product_choice"":""B""}",choice,tc,binary,repulsion,1,microwave ovens,null,null,null,null,null,null,2,100,90,null,30,40,null,Warranty,Cooking power,NA,NA
NA,NA,NA,NA,NA,choice_trial_setup,html-keyboard-response,86,375838,0.0-4.0-0.41,325,1,2025-05-08T19:09:11Z,b60275e29fe2361ab97ac0ac217840d7,"Mozilla/5.0 (Macintosh; Intel Mac OS X 10_15_7) AppleWebKit/537.36 (KHTML, like Gecko) Chrome/135.0.0.0 Safari/537.36",Macintosh,Chrome,135.0.0.0,OS X,10_15_7,https://5puzkbbxv1.cognition.run/?sona_id=53158,"en-US,en;q=0.9",xhmxldrj54gnjns,22,"[""White""]",No,Female,NA,No,464419.40000003576,NA,null,<p></p>,null,choice,wwb,trinary,catch,null,microwave ovens,50,90,25,10,25,25,1,NA,NA,NA,NA,NA,NA,NA,NA,NA,NA
NA,NA,NA,NA,NA,choice_trial,survey-html-form,87,380603,0.0-4.0-1.41,325,1,2025-05-08T19:09:11Z,b60275e29fe2361ab97ac0ac217840d7,"Mozilla/5.0 (Macintosh; Intel Mac OS X 10_15_7) AppleWebKit/537.36 (KHTML, like Gecko) Chrome/135.0.0.0 Safari/537.36",Macintosh,Chrome,135.0.0.0,OS X,10_15_7,https://5puzkbbxv1.cognition.run/?sona_id=53158,"en-US,en;q=0.9",xhmxldrj54gnjns,22,"[""White""]",No,Female,NA,No,464419.40000003576,NA,4759,NA,"{""product_choice"":""C""}",choice,wwb,trinary,catch,null,microwave ovens,50,90,25,10,25,25,1,null,null,null,null,null,null,Warranty,Cooking power,NA,NA
NA,NA,NA,NA,NA,choice_trial_setup,html-keyboard-response,88,380907,0.0-4.0-0.42,325,1,2025-05-08T19:09:11Z,b60275e29fe2361ab97ac0ac217840d7,"Mozilla/5.0 (Macintosh; Intel Mac OS X 10_15_7) AppleWebKit/537.36 (KHTML, like Gecko) Chrome/135.0.0.0 Safari/537.36",Macintosh,Chrome,135.0.0.0,OS X,10_15_7,https://5puzkbbxv1.cognition.run/?sona_id=53158,"en-US,en;q=0.9",xhmxldrj54gnjns,22,"[""White""]",No,Female,NA,No,464419.40000003576,NA,null,<p></p>,null,choice,ctd,trinary,repulsion_B,1,televisions,null,null,null,null,null,null,2,NA,NA,NA,NA,NA,NA,NA,NA,NA,NA
NA,NA,NA,NA,NA,choice_trial,survey-html-form,89,390523,0.0-4.0-1.42,325,1,2025-05-08T19:09:11Z,b60275e29fe2361ab97ac0ac217840d7,"Mozilla/5.0 (Macintosh; Intel Mac OS X 10_15_7) AppleWebKit/537.36 (KHTML, like Gecko) Chrome/135.0.0.0 Safari/537.36",Macintosh,Chrome,135.0.0.0,OS X,10_15_7,https://5puzkbbxv1.cognition.run/?sona_id=53158,"en-US,en;q=0.9",xhmxldrj54gnjns,22,"[""White""]",No,Female,NA,No,464419.40000003576,NA,9609,NA,"{""product_choice"":""B""}",choice,ctd,trinary,repulsion_B,1,televisions,null,null,null,null,null,null,2,90,100,80,40,30,40,Screen size,Average lifespan,NA,NA
NA,NA,NA,NA,NA,choice_trial_setup,html-keyboard-response,90,390827,0.0-4.0-0.43,325,1,2025-05-08T19:09:11Z,b60275e29fe2361ab97ac0ac217840d7,"Mozilla/5.0 (Macintosh; Intel Mac OS X 10_15_7) AppleWebKit/537.36 (KHTML, like Gecko) Chrome/135.0.0.0 Safari/537.36",Macintosh,Chrome,135.0.0.0,OS X,10_15_7,https://5puzkbbxv1.cognition.run/?sona_id=53158,"en-US,en;q=0.9",xhmxldrj54gnjns,22,"[""White""]",No,Female,NA,No,464419.40000003576,NA,null,<p></p>,null,choice,ct,binary,repulsion,2,laptops,null,null,null,null,null,null,1,NA,NA,NA,NA,NA,NA,NA,NA,NA,NA
NA,NA,NA,NA,NA,choice_trial,survey-html-form,91,395369,0.0-4.0-1.43,325,1,2025-05-08T19:09:11Z,b60275e29fe2361ab97ac0ac217840d7,"Mozilla/5.0 (Macintosh; Intel Mac OS X 10_15_7) AppleWebKit/537.36 (KHTML, like Gecko) Chrome/135.0.0.0 Safari/537.36",Macintosh,Chrome,135.0.0.0,OS X,10_15_7,https://5puzkbbxv1.cognition.run/?sona_id=53158,"en-US,en;q=0.9",xhmxldrj54gnjns,22,"[""White""]",No,Female,NA,No,464419.40000003576,NA,4536,NA,"{""product_choice"":""A""}",choice,ct,binary,repulsion,2,laptops,null,null,null,null,null,null,1,30,40,null,100,90,null,Processing speed,Memory (RAM),NA,NA
NA,NA,NA,NA,NA,post_trials_message,html-button-response,92,396769,0.0-5.0,325,1,2025-05-08T19:09:11Z,b60275e29fe2361ab97ac0ac217840d7,"Mozilla/5.0 (Macintosh; Intel Mac OS X 10_15_7) AppleWebKit/537.36 (KHTML, like Gecko) Chrome/135.0.0.0 Safari/537.36",Macintosh,Chrome,135.0.0.0,OS X,10_15_7,https://5puzkbbxv1.cognition.run/?sona_id=53158,"en-US,en;q=0.9",xhmxldrj54gnjns,22,"[""White""]",No,Female,NA,No,464419.40000003576,NA,1397,<p> <b>Thank you for your patience!</b></p><p>  The study will be done after completing a brief form. </p>,0,NA,NA,NA,NA,NA,NA,NA,NA,NA,NA,NA,NA,NA,NA,NA,NA,NA,NA,NA,NA,NA,NA,NA
NA,NA,NA,NA,NA,survey_message,survey-text,93,418920,0.0-6.0,325,1,2025-05-08T19:09:11Z,b60275e29fe2361ab97ac0ac217840d7,"Mozilla/5.0 (Macintosh; Intel Mac OS X 10_15_7) AppleWebKit/537.36 (KHTML, like Gecko) Chrome/135.0.0.0 Safari/537.36",Macintosh,Chrome,135.0.0.0,OS X,10_15_7,https://5puzkbbxv1.cognition.run/?sona_id=53158,"en-US,en;q=0.9",xhmxldrj54gnjns,22,"[""White""]",No,Female,NA,No,464419.40000003576,NA,22148,NA,"{""Q0"":""best of both world but favoring the efficiency of the product""}",NA,NA,NA,NA,NA,NA,NA,NA,NA,NA,NA,NA,NA,NA,NA,NA,NA,NA,NA,NA,NA,best of both world but favoring the efficiency of the product,NA
NA,NA,NA,NA,NA,demo_age,survey-text,94,421315,0.0-7.0,325,1,2025-05-08T19:09:11Z,b60275e29fe2361ab97ac0ac217840d7,"Mozilla/5.0 (Macintosh; Intel Mac OS X 10_15_7) AppleWebKit/537.36 (KHTML, like Gecko) Chrome/135.0.0.0 Safari/537.36",Macintosh,Chrome,135.0.0.0,OS X,10_15_7,https://5puzkbbxv1.cognition.run/?sona_id=53158,"en-US,en;q=0.9",xhmxldrj54gnjns,22,"[""White""]",No,Female,NA,No,464419.40000003576,NA,2393,NA,"{""Q0"":""22""}",NA,NA,NA,NA,NA,NA,NA,NA,NA,NA,NA,NA,NA,NA,NA,NA,NA,NA,NA,NA,NA,NA,NA
NA,NA,NA,NA,NA,demo_race,survey-multi-select,95,424136,0.0-8.0,325,1,2025-05-08T19:09:11Z,b60275e29fe2361ab97ac0ac217840d7,"Mozilla/5.0 (Macintosh; Intel Mac OS X 10_15_7) AppleWebKit/537.36 (KHTML, like Gecko) Chrome/135.0.0.0 Safari/537.36",Macintosh,Chrome,135.0.0.0,OS X,10_15_7,https://5puzkbbxv1.cognition.run/?sona_id=53158,"en-US,en;q=0.9",xhmxldrj54gnjns,22,"[""White""]",No,Female,NA,No,464419.40000003576,NA,2815,NA,"{""Q0"":[""White""]}",NA,NA,NA,NA,NA,NA,NA,NA,NA,NA,NA,NA,NA,NA,NA,NA,NA,NA,NA,NA,NA,NA,[0]
NA,NA,NA,NA,NA,demo_ethnicity_gender,survey-multi-choice,96,427987,0.0-9.0,325,1,2025-05-08T19:09:11Z,b60275e29fe2361ab97ac0ac217840d7,"Mozilla/5.0 (Macintosh; Intel Mac OS X 10_15_7) AppleWebKit/537.36 (KHTML, like Gecko) Chrome/135.0.0.0 Safari/537.36",Macintosh,Chrome,135.0.0.0,OS X,10_15_7,https://5puzkbbxv1.cognition.run/?sona_id=53158,"en-US,en;q=0.9",xhmxldrj54gnjns,22,"[""White""]",No,Female,NA,No,464419.40000003576,NA,3848,NA,"{""Q0"":""No"",""Q1"":""Female""}",NA,NA,NA,NA,NA,NA,NA,NA,NA,NA,NA,NA,NA,NA,NA,NA,NA,NA,NA,NA,NA,NA,"[0,1]"
NA,NA,NA,NA,NA,demo_countries,survey-text,97,435836,0.0-10.0,325,1,2025-05-08T19:09:11Z,b60275e29fe2361ab97ac0ac217840d7,"Mozilla/5.0 (Macintosh; Intel Mac OS X 10_15_7) AppleWebKit/537.36 (KHTML, like Gecko) Chrome/135.0.0.0 Safari/537.36",Macintosh,Chrome,135.0.0.0,OS X,10_15_7,https://5puzkbbxv1.cognition.run/?sona_id=53158,"en-US,en;q=0.9",xhmxldrj54gnjns,22,"[""White""]",No,Female,NA,No,464419.40000003576,NA,7842,NA,"{""Q0"":""NA""}",NA,NA,NA,NA,NA,NA,NA,NA,NA,NA,NA,NA,NA,NA,NA,NA,NA,NA,NA,NA,NA,NA,NA
NA,NA,NA,NA,NA,demo_prev_study,survey-multi-choice,98,445219,0.0-11.0,325,1,2025-05-08T19:09:11Z,b60275e29fe2361ab97ac0ac217840d7,"Mozilla/5.0 (Macintosh; Intel Mac OS X 10_15_7) AppleWebKit/537.36 (KHTML, like Gecko) Chrome/135.0.0.0 Safari/537.36",Macintosh,Chrome,135.0.0.0,OS X,10_15_7,https://5puzkbbxv1.cognition.run/?sona_id=53158,"en-US,en;q=0.9",xhmxldrj54gnjns,22,"[""White""]",No,Female,NA,No,464419.40000003576,NA,9381,NA,"{""Q0"":""No""}",NA,NA,NA,NA,NA,NA,NA,NA,NA,NA,NA,NA,NA,NA,NA,NA,NA,NA,NA,NA,NA,NA,[0]
NA,NA,NA,NA,NA,post_survey_message,html-keyboard-response,99,449469,0.0-12.0,325,1,2025-05-08T19:09:11Z,b60275e29fe2361ab97ac0ac217840d7,"Mozilla/5.0 (Macintosh; Intel Mac OS X 10_15_7) AppleWebKit/537.36 (KHTML, like Gecko) Chrome/135.0.0.0 Safari/537.36",Macintosh,Chrome,135.0.0.0,OS X,10_15_7,https://5puzkbbxv1.cognition.run/?sona_id=53158,"en-US,en;q=0.9",xhmxldrj54gnjns,22,"[""White""]",No,Female,NA,No,464419.40000003576,NA,4247,NA,j,NA,NA,NA,NA,NA,NA,NA,NA,NA,NA,NA,NA,NA,NA,NA,NA,NA,NA,NA,NA,NA,NA,NA
NA,NA,NA,NA,NA,debrief,image-keyboard-response,100,464405,0.0-13.0,325,1,2025-05-08T19:09:11Z,b60275e29fe2361ab97ac0ac217840d7,"Mozilla/5.0 (Macintosh; Intel Mac OS X 10_15_7) AppleWebKit/537.36 (KHTML, like Gecko) Chrome/135.0.0.0 Safari/537.36",Macintosh,Chrome,135.0.0.0,OS X,10_15_7,https://5puzkbbxv1.cognition.run/?sona_id=53158,"en-US,en;q=0.9",xhmxldrj54gnjns,22,"[""White""]",No,Female,NA,No,464419.40000003576,NA,14930,Judg_choice_debrief.png,p,NA,NA,NA,NA,NA,NA,NA,NA,NA,NA,NA,NA,NA,NA,NA,NA,NA,NA,NA,NA,NA,NA,NA
