success,timeout,failed_images,failed_audio,failed_video,screen_id,trial_type,trial_index,time_elapsed,internal_node_id,run_id,condition,recorded_at,source_code_version,user_agent,device,browser,browser_version,platform,platform_version,referer,accept_language,ppt_id,age,race,ethnicity,gender,other_countries,prev_study,exp_duration,view_history,rt,stimulus,response,phase,order,set,effect,t_high,category,d1_best,d2_best,d1_worst1,d2_worst1,d1_worst2,d2_worst2,first_dim,d1_t,d1_c,d1_d,d2_t,d2_c,d2_d,d1_name,d2_name,strategy_response,question_order
TRUE,FALSE,[],[],[],img preload,preload,0,140,0.0-0.0,333,1,2025-05-08T21:40:29Z,b60275e29fe2361ab97ac0ac217840d7,"Mozilla/5.0 (Macintosh; Intel Mac OS X 10_15_7) AppleWebKit/537.36 (KHTML, like Gecko) Chrome/116.0.0.0 Safari/537.36",Macintosh,Chrome,116.0.0.0,OS X,10_15_7,https://5puzkbbxv1.cognition.run/?sona_id=52248,"en-US,en;q=0.9",4hfm0d1s1bafxuk,21,"[""Asian""]",No,Female,NA,I'm not sure,1003008.700000003,NA,NA,NA,NA,NA,NA,NA,NA,NA,NA,NA,NA,NA,NA,NA,NA,NA,NA,NA,NA,NA,NA,NA,NA,NA,NA,NA
NA,NA,NA,NA,NA,computer_message,instructions,1,3008,0.0-1.0,333,1,2025-05-08T21:40:29Z,b60275e29fe2361ab97ac0ac217840d7,"Mozilla/5.0 (Macintosh; Intel Mac OS X 10_15_7) AppleWebKit/537.36 (KHTML, like Gecko) Chrome/116.0.0.0 Safari/537.36",Macintosh,Chrome,116.0.0.0,OS X,10_15_7,https://5puzkbbxv1.cognition.run/?sona_id=52248,"en-US,en;q=0.9",4hfm0d1s1bafxuk,21,"[""Asian""]",No,Female,NA,I'm not sure,1003008.700000003,"[{""page_index"":0,""viewing_time"":2866}]",2867,NA,NA,NA,NA,NA,NA,NA,NA,NA,NA,NA,NA,NA,NA,NA,NA,NA,NA,NA,NA,NA,NA,NA,NA,NA
TRUE,NA,NA,NA,NA,NA,fullscreen,2,8782,0.0-2.0,333,1,2025-05-08T21:40:29Z,b60275e29fe2361ab97ac0ac217840d7,"Mozilla/5.0 (Macintosh; Intel Mac OS X 10_15_7) AppleWebKit/537.36 (KHTML, like Gecko) Chrome/116.0.0.0 Safari/537.36",Macintosh,Chrome,116.0.0.0,OS X,10_15_7,https://5puzkbbxv1.cognition.run/?sona_id=52248,"en-US,en;q=0.9",4hfm0d1s1bafxuk,21,"[""Asian""]",No,Female,NA,I'm not sure,1003008.700000003,NA,4761,NA,NA,NA,NA,NA,NA,NA,NA,NA,NA,NA,NA,NA,NA,NA,NA,NA,NA,NA,NA,NA,NA,NA,NA,NA
NA,NA,NA,NA,NA,choice_instructions,instructions,3,195145,0.0-3.0,333,1,2025-05-08T21:40:29Z,b60275e29fe2361ab97ac0ac217840d7,"Mozilla/5.0 (Macintosh; Intel Mac OS X 10_15_7) AppleWebKit/537.36 (KHTML, like Gecko) Chrome/116.0.0.0 Safari/537.36",Macintosh,Chrome,116.0.0.0,OS X,10_15_7,https://5puzkbbxv1.cognition.run/?sona_id=52248,"en-US,en;q=0.9",4hfm0d1s1bafxuk,21,"[""Asian""]",No,Female,NA,I'm not sure,1003008.700000003,"[{""page_index"":0,""viewing_time"":1638},{""page_index"":1,""viewing_time"":5195},{""page_index"":2,""viewing_time"":5889},{""page_index"":3,""viewing_time"":9006},{""page_index"":4,""viewing_time"":13369},{""page_index"":5,""viewing_time"":137496},{""page_index"":6,""viewing_time"":13768}]",186362,NA,NA,NA,NA,NA,NA,NA,NA,NA,NA,NA,NA,NA,NA,NA,NA,NA,NA,NA,NA,NA,NA,NA,NA,NA
NA,NA,NA,NA,NA,choice_trial_setup,html-keyboard-response,4,195450,0.0-4.0-0.0,333,1,2025-05-08T21:40:29Z,b60275e29fe2361ab97ac0ac217840d7,"Mozilla/5.0 (Macintosh; Intel Mac OS X 10_15_7) AppleWebKit/537.36 (KHTML, like Gecko) Chrome/116.0.0.0 Safari/537.36",Macintosh,Chrome,116.0.0.0,OS X,10_15_7,https://5puzkbbxv1.cognition.run/?sona_id=52248,"en-US,en;q=0.9",4hfm0d1s1bafxuk,21,"[""Asian""]",No,Female,NA,I'm not sure,1003008.700000003,NA,null,<p></p>,null,choice,tdc,trinary,repulsion_B,2,laptops,null,null,null,null,null,null,1,NA,NA,NA,NA,NA,NA,NA,NA,NA,NA
NA,NA,NA,NA,NA,choice_trial,survey-html-form,5,222680,0.0-4.0-1.0,333,1,2025-05-08T21:40:29Z,b60275e29fe2361ab97ac0ac217840d7,"Mozilla/5.0 (Macintosh; Intel Mac OS X 10_15_7) AppleWebKit/537.36 (KHTML, like Gecko) Chrome/116.0.0.0 Safari/537.36",Macintosh,Chrome,116.0.0.0,OS X,10_15_7,https://5puzkbbxv1.cognition.run/?sona_id=52248,"en-US,en;q=0.9",4hfm0d1s1bafxuk,21,"[""Asian""]",No,Female,NA,I'm not sure,1003008.700000003,NA,27225,NA,"{""product_choice"":""C""}",choice,tdc,trinary,repulsion_B,2,laptops,null,null,null,null,null,null,1,40,30,40,90,100,80,Processing speed,Memory (RAM),NA,NA
NA,NA,NA,NA,NA,choice_trial_setup,html-keyboard-response,6,222990,0.0-4.0-0.1,333,1,2025-05-08T21:40:29Z,b60275e29fe2361ab97ac0ac217840d7,"Mozilla/5.0 (Macintosh; Intel Mac OS X 10_15_7) AppleWebKit/537.36 (KHTML, like Gecko) Chrome/116.0.0.0 Safari/537.36",Macintosh,Chrome,116.0.0.0,OS X,10_15_7,https://5puzkbbxv1.cognition.run/?sona_id=52248,"en-US,en;q=0.9",4hfm0d1s1bafxuk,21,"[""Asian""]",No,Female,NA,I'm not sure,1003008.700000003,NA,null,<p></p>,null,choice,ct,binary,repulsion,2,televisions,null,null,null,null,null,null,1,NA,NA,NA,NA,NA,NA,NA,NA,NA,NA
NA,NA,NA,NA,NA,choice_trial,survey-html-form,7,230889,0.0-4.0-1.1,333,1,2025-05-08T21:40:29Z,b60275e29fe2361ab97ac0ac217840d7,"Mozilla/5.0 (Macintosh; Intel Mac OS X 10_15_7) AppleWebKit/537.36 (KHTML, like Gecko) Chrome/116.0.0.0 Safari/537.36",Macintosh,Chrome,116.0.0.0,OS X,10_15_7,https://5puzkbbxv1.cognition.run/?sona_id=52248,"en-US,en;q=0.9",4hfm0d1s1bafxuk,21,"[""Asian""]",No,Female,NA,I'm not sure,1003008.700000003,NA,7897,NA,"{""product_choice"":""B""}",choice,ct,binary,repulsion,2,televisions,null,null,null,null,null,null,1,30,40,null,100,90,null,Screen size,Average lifespan,NA,NA
NA,NA,NA,NA,NA,choice_trial_setup,html-keyboard-response,8,231198,0.0-4.0-0.2,333,1,2025-05-08T21:40:29Z,b60275e29fe2361ab97ac0ac217840d7,"Mozilla/5.0 (Macintosh; Intel Mac OS X 10_15_7) AppleWebKit/537.36 (KHTML, like Gecko) Chrome/116.0.0.0 Safari/537.36",Macintosh,Chrome,116.0.0.0,OS X,10_15_7,https://5puzkbbxv1.cognition.run/?sona_id=52248,"en-US,en;q=0.9",4hfm0d1s1bafxuk,21,"[""Asian""]",No,Female,NA,I'm not sure,1003008.700000003,NA,null,<p></p>,null,choice,dct,trinary,repulsion_B,1,microwave ovens,null,null,null,null,null,null,2,NA,NA,NA,NA,NA,NA,NA,NA,NA,NA
NA,NA,NA,NA,NA,choice_trial,survey-html-form,9,268439,0.0-4.0-1.2,333,1,2025-05-08T21:40:29Z,b60275e29fe2361ab97ac0ac217840d7,"Mozilla/5.0 (Macintosh; Intel Mac OS X 10_15_7) AppleWebKit/537.36 (KHTML, like Gecko) Chrome/116.0.0.0 Safari/537.36",Macintosh,Chrome,116.0.0.0,OS X,10_15_7,https://5puzkbbxv1.cognition.run/?sona_id=52248,"en-US,en;q=0.9",4hfm0d1s1bafxuk,21,"[""Asian""]",No,Female,NA,I'm not sure,1003008.700000003,NA,37238,NA,"{""product_choice"":""C""}",choice,dct,trinary,repulsion_B,1,microwave ovens,null,null,null,null,null,null,2,90,100,80,40,30,40,Warranty,Cooking power,NA,NA
NA,NA,NA,NA,NA,choice_trial_setup,html-keyboard-response,10,268744,0.0-4.0-0.3,333,1,2025-05-08T21:40:29Z,b60275e29fe2361ab97ac0ac217840d7,"Mozilla/5.0 (Macintosh; Intel Mac OS X 10_15_7) AppleWebKit/537.36 (KHTML, like Gecko) Chrome/116.0.0.0 Safari/537.36",Macintosh,Chrome,116.0.0.0,OS X,10_15_7,https://5puzkbbxv1.cognition.run/?sona_id=52248,"en-US,en;q=0.9",4hfm0d1s1bafxuk,21,"[""Asian""]",No,Female,NA,I'm not sure,1003008.700000003,NA,null,<p></p>,null,choice,tc,binary,attraction,NA,laptops,null,null,null,null,null,null,2,NA,NA,NA,NA,NA,NA,NA,NA,NA,NA
NA,NA,NA,NA,NA,choice_trial,survey-html-form,11,283451,0.0-4.0-1.3,333,1,2025-05-08T21:40:29Z,b60275e29fe2361ab97ac0ac217840d7,"Mozilla/5.0 (Macintosh; Intel Mac OS X 10_15_7) AppleWebKit/537.36 (KHTML, like Gecko) Chrome/116.0.0.0 Safari/537.36",Macintosh,Chrome,116.0.0.0,OS X,10_15_7,https://5puzkbbxv1.cognition.run/?sona_id=52248,"en-US,en;q=0.9",4hfm0d1s1bafxuk,21,"[""Asian""]",No,Female,NA,I'm not sure,1003008.700000003,NA,14704,NA,"{""product_choice"":""A""}",choice,tc,binary,attraction,NA,laptops,null,null,null,null,null,null,2,60,50,null,50,60,null,Processing speed,Memory (RAM),NA,NA
NA,NA,NA,NA,NA,choice_trial_setup,html-keyboard-response,12,283757,0.0-4.0-0.4,333,1,2025-05-08T21:40:29Z,b60275e29fe2361ab97ac0ac217840d7,"Mozilla/5.0 (Macintosh; Intel Mac OS X 10_15_7) AppleWebKit/537.36 (KHTML, like Gecko) Chrome/116.0.0.0 Safari/537.36",Macintosh,Chrome,116.0.0.0,OS X,10_15_7,https://5puzkbbxv1.cognition.run/?sona_id=52248,"en-US,en;q=0.9",4hfm0d1s1bafxuk,21,"[""Asian""]",No,Female,NA,I'm not sure,1003008.700000003,NA,null,<p></p>,null,choice,cdt,trinary,attraction,2,laptops,null,null,null,null,null,null,2,NA,NA,NA,NA,NA,NA,NA,NA,NA,NA
NA,NA,NA,NA,NA,choice_trial,survey-html-form,13,293866,0.0-4.0-1.4,333,1,2025-05-08T21:40:29Z,b60275e29fe2361ab97ac0ac217840d7,"Mozilla/5.0 (Macintosh; Intel Mac OS X 10_15_7) AppleWebKit/537.36 (KHTML, like Gecko) Chrome/116.0.0.0 Safari/537.36",Macintosh,Chrome,116.0.0.0,OS X,10_15_7,https://5puzkbbxv1.cognition.run/?sona_id=52248,"en-US,en;q=0.9",4hfm0d1s1bafxuk,21,"[""Asian""]",No,Female,NA,I'm not sure,1003008.700000003,NA,10106,NA,"{""product_choice"":""A""}",choice,cdt,trinary,attraction,2,laptops,null,null,null,null,null,null,2,50,60,40,60,50,60,Processing speed,Memory (RAM),NA,NA
NA,NA,NA,NA,NA,choice_trial_setup,html-keyboard-response,14,294171,0.0-4.0-0.5,333,1,2025-05-08T21:40:29Z,b60275e29fe2361ab97ac0ac217840d7,"Mozilla/5.0 (Macintosh; Intel Mac OS X 10_15_7) AppleWebKit/537.36 (KHTML, like Gecko) Chrome/116.0.0.0 Safari/537.36",Macintosh,Chrome,116.0.0.0,OS X,10_15_7,https://5puzkbbxv1.cognition.run/?sona_id=52248,"en-US,en;q=0.9",4hfm0d1s1bafxuk,21,"[""Asian""]",No,Female,NA,I'm not sure,1003008.700000003,NA,null,<p></p>,null,choice,dct,trinary,repulsion_B,2,televisions,null,null,null,null,null,null,2,NA,NA,NA,NA,NA,NA,NA,NA,NA,NA
NA,NA,NA,NA,NA,choice_trial,survey-html-form,15,302083,0.0-4.0-1.5,333,1,2025-05-08T21:40:29Z,b60275e29fe2361ab97ac0ac217840d7,"Mozilla/5.0 (Macintosh; Intel Mac OS X 10_15_7) AppleWebKit/537.36 (KHTML, like Gecko) Chrome/116.0.0.0 Safari/537.36",Macintosh,Chrome,116.0.0.0,OS X,10_15_7,https://5puzkbbxv1.cognition.run/?sona_id=52248,"en-US,en;q=0.9",4hfm0d1s1bafxuk,21,"[""Asian""]",No,Female,NA,I'm not sure,1003008.700000003,NA,7909,NA,"{""product_choice"":""B""}",choice,dct,trinary,repulsion_B,2,televisions,null,null,null,null,null,null,2,40,30,40,90,100,80,Screen size,Average lifespan,NA,NA
NA,NA,NA,NA,NA,choice_trial_setup,html-keyboard-response,16,302387,0.0-4.0-0.6,333,1,2025-05-08T21:40:29Z,b60275e29fe2361ab97ac0ac217840d7,"Mozilla/5.0 (Macintosh; Intel Mac OS X 10_15_7) AppleWebKit/537.36 (KHTML, like Gecko) Chrome/116.0.0.0 Safari/537.36",Macintosh,Chrome,116.0.0.0,OS X,10_15_7,https://5puzkbbxv1.cognition.run/?sona_id=52248,"en-US,en;q=0.9",4hfm0d1s1bafxuk,21,"[""Asian""]",No,Female,NA,I'm not sure,1003008.700000003,NA,null,<p></p>,null,choice,ct,binary,repulsion,1,washing machines,null,null,null,null,null,null,2,NA,NA,NA,NA,NA,NA,NA,NA,NA,NA
NA,NA,NA,NA,NA,choice_trial,survey-html-form,17,307255,0.0-4.0-1.6,333,1,2025-05-08T21:40:29Z,b60275e29fe2361ab97ac0ac217840d7,"Mozilla/5.0 (Macintosh; Intel Mac OS X 10_15_7) AppleWebKit/537.36 (KHTML, like Gecko) Chrome/116.0.0.0 Safari/537.36",Macintosh,Chrome,116.0.0.0,OS X,10_15_7,https://5puzkbbxv1.cognition.run/?sona_id=52248,"en-US,en;q=0.9",4hfm0d1s1bafxuk,21,"[""Asian""]",No,Female,NA,I'm not sure,1003008.700000003,NA,4865,NA,"{""product_choice"":""B""}",choice,ct,binary,repulsion,1,washing machines,null,null,null,null,null,null,2,100,90,null,30,40,null,Average lifespan,Energy savings,NA,NA
NA,NA,NA,NA,NA,choice_trial_setup,html-keyboard-response,18,307563,0.0-4.0-0.7,333,1,2025-05-08T21:40:29Z,b60275e29fe2361ab97ac0ac217840d7,"Mozilla/5.0 (Macintosh; Intel Mac OS X 10_15_7) AppleWebKit/537.36 (KHTML, like Gecko) Chrome/116.0.0.0 Safari/537.36",Macintosh,Chrome,116.0.0.0,OS X,10_15_7,https://5puzkbbxv1.cognition.run/?sona_id=52248,"en-US,en;q=0.9",4hfm0d1s1bafxuk,21,"[""Asian""]",No,Female,NA,I'm not sure,1003008.700000003,NA,null,<p></p>,null,choice,ctd,trinary,repulsion_A,1,washing machines,null,null,null,null,null,null,2,NA,NA,NA,NA,NA,NA,NA,NA,NA,NA
NA,NA,NA,NA,NA,choice_trial,survey-html-form,19,314505,0.0-4.0-1.7,333,1,2025-05-08T21:40:29Z,b60275e29fe2361ab97ac0ac217840d7,"Mozilla/5.0 (Macintosh; Intel Mac OS X 10_15_7) AppleWebKit/537.36 (KHTML, like Gecko) Chrome/116.0.0.0 Safari/537.36",Macintosh,Chrome,116.0.0.0,OS X,10_15_7,https://5puzkbbxv1.cognition.run/?sona_id=52248,"en-US,en;q=0.9",4hfm0d1s1bafxuk,21,"[""Asian""]",No,Female,NA,I'm not sure,1003008.700000003,NA,6939,NA,"{""product_choice"":""B""}",choice,ctd,trinary,repulsion_A,1,washing machines,null,null,null,null,null,null,2,100,90,100,30,40,20,Average lifespan,Energy savings,NA,NA
NA,NA,NA,NA,NA,choice_trial_setup,html-keyboard-response,20,314809,0.0-4.0-0.8,333,1,2025-05-08T21:40:29Z,b60275e29fe2361ab97ac0ac217840d7,"Mozilla/5.0 (Macintosh; Intel Mac OS X 10_15_7) AppleWebKit/537.36 (KHTML, like Gecko) Chrome/116.0.0.0 Safari/537.36",Macintosh,Chrome,116.0.0.0,OS X,10_15_7,https://5puzkbbxv1.cognition.run/?sona_id=52248,"en-US,en;q=0.9",4hfm0d1s1bafxuk,21,"[""Asian""]",No,Female,NA,I'm not sure,1003008.700000003,NA,null,<p></p>,null,choice,bw,binary,catch,null,laptops,95,95,40,25,null,null,2,NA,NA,NA,NA,NA,NA,NA,NA,NA,NA
NA,NA,NA,NA,NA,choice_trial,survey-html-form,21,323881,0.0-4.0-1.8,333,1,2025-05-08T21:40:29Z,b60275e29fe2361ab97ac0ac217840d7,"Mozilla/5.0 (Macintosh; Intel Mac OS X 10_15_7) AppleWebKit/537.36 (KHTML, like Gecko) Chrome/116.0.0.0 Safari/537.36",Macintosh,Chrome,116.0.0.0,OS X,10_15_7,https://5puzkbbxv1.cognition.run/?sona_id=52248,"en-US,en;q=0.9",4hfm0d1s1bafxuk,21,"[""Asian""]",No,Female,NA,I'm not sure,1003008.700000003,NA,9067,NA,"{""product_choice"":""A""}",choice,bw,binary,catch,null,laptops,95,95,40,25,null,null,2,null,null,null,null,null,null,Processing speed,Memory (RAM),NA,NA
NA,NA,NA,NA,NA,choice_trial_setup,html-keyboard-response,22,324188,0.0-4.0-0.9,333,1,2025-05-08T21:40:29Z,b60275e29fe2361ab97ac0ac217840d7,"Mozilla/5.0 (Macintosh; Intel Mac OS X 10_15_7) AppleWebKit/537.36 (KHTML, like Gecko) Chrome/116.0.0.0 Safari/537.36",Macintosh,Chrome,116.0.0.0,OS X,10_15_7,https://5puzkbbxv1.cognition.run/?sona_id=52248,"en-US,en;q=0.9",4hfm0d1s1bafxuk,21,"[""Asian""]",No,Female,NA,I'm not sure,1003008.700000003,NA,null,<p></p>,null,choice,tc,binary,attraction,NA,televisions,null,null,null,null,null,null,1,NA,NA,NA,NA,NA,NA,NA,NA,NA,NA
NA,NA,NA,NA,NA,choice_trial,survey-html-form,23,328461,0.0-4.0-1.9,333,1,2025-05-08T21:40:29Z,b60275e29fe2361ab97ac0ac217840d7,"Mozilla/5.0 (Macintosh; Intel Mac OS X 10_15_7) AppleWebKit/537.36 (KHTML, like Gecko) Chrome/116.0.0.0 Safari/537.36",Macintosh,Chrome,116.0.0.0,OS X,10_15_7,https://5puzkbbxv1.cognition.run/?sona_id=52248,"en-US,en;q=0.9",4hfm0d1s1bafxuk,21,"[""Asian""]",No,Female,NA,I'm not sure,1003008.700000003,NA,4269,NA,"{""product_choice"":""A""}",choice,tc,binary,attraction,NA,televisions,null,null,null,null,null,null,1,60,50,null,50,60,null,Screen size,Average lifespan,NA,NA
NA,NA,NA,NA,NA,choice_trial_setup,html-keyboard-response,24,328767,0.0-4.0-0.10,333,1,2025-05-08T21:40:29Z,b60275e29fe2361ab97ac0ac217840d7,"Mozilla/5.0 (Macintosh; Intel Mac OS X 10_15_7) AppleWebKit/537.36 (KHTML, like Gecko) Chrome/116.0.0.0 Safari/537.36",Macintosh,Chrome,116.0.0.0,OS X,10_15_7,https://5puzkbbxv1.cognition.run/?sona_id=52248,"en-US,en;q=0.9",4hfm0d1s1bafxuk,21,"[""Asian""]",No,Female,NA,I'm not sure,1003008.700000003,NA,null,<p></p>,null,choice,tdc,trinary,attraction,1,washing machines,null,null,null,null,null,null,1,NA,NA,NA,NA,NA,NA,NA,NA,NA,NA
NA,NA,NA,NA,NA,choice_trial,survey-html-form,25,343275,0.0-4.0-1.10,333,1,2025-05-08T21:40:29Z,b60275e29fe2361ab97ac0ac217840d7,"Mozilla/5.0 (Macintosh; Intel Mac OS X 10_15_7) AppleWebKit/537.36 (KHTML, like Gecko) Chrome/116.0.0.0 Safari/537.36",Macintosh,Chrome,116.0.0.0,OS X,10_15_7,https://5puzkbbxv1.cognition.run/?sona_id=52248,"en-US,en;q=0.9",4hfm0d1s1bafxuk,21,"[""Asian""]",No,Female,NA,I'm not sure,1003008.700000003,NA,14505,NA,"{""product_choice"":""A""}",choice,tdc,trinary,attraction,1,washing machines,null,null,null,null,null,null,1,60,50,60,50,60,40,Average lifespan,Energy savings,NA,NA
NA,NA,NA,NA,NA,choice_trial_setup,html-keyboard-response,26,343583,0.0-4.0-0.11,333,1,2025-05-08T21:40:29Z,b60275e29fe2361ab97ac0ac217840d7,"Mozilla/5.0 (Macintosh; Intel Mac OS X 10_15_7) AppleWebKit/537.36 (KHTML, like Gecko) Chrome/116.0.0.0 Safari/537.36",Macintosh,Chrome,116.0.0.0,OS X,10_15_7,https://5puzkbbxv1.cognition.run/?sona_id=52248,"en-US,en;q=0.9",4hfm0d1s1bafxuk,21,"[""Asian""]",No,Female,NA,I'm not sure,1003008.700000003,NA,null,<p></p>,null,choice,tdc,trinary,repulsion_B,2,microwave ovens,null,null,null,null,null,null,2,NA,NA,NA,NA,NA,NA,NA,NA,NA,NA
NA,NA,NA,NA,NA,choice_trial,survey-html-form,27,353648,0.0-4.0-1.11,333,1,2025-05-08T21:40:29Z,b60275e29fe2361ab97ac0ac217840d7,"Mozilla/5.0 (Macintosh; Intel Mac OS X 10_15_7) AppleWebKit/537.36 (KHTML, like Gecko) Chrome/116.0.0.0 Safari/537.36",Macintosh,Chrome,116.0.0.0,OS X,10_15_7,https://5puzkbbxv1.cognition.run/?sona_id=52248,"en-US,en;q=0.9",4hfm0d1s1bafxuk,21,"[""Asian""]",No,Female,NA,I'm not sure,1003008.700000003,NA,10062,NA,"{""product_choice"":""C""}",choice,tdc,trinary,repulsion_B,2,microwave ovens,null,null,null,null,null,null,2,40,30,40,90,100,80,Warranty,Cooking power,NA,NA
NA,NA,NA,NA,NA,choice_trial_setup,html-keyboard-response,28,353954,0.0-4.0-0.12,333,1,2025-05-08T21:40:29Z,b60275e29fe2361ab97ac0ac217840d7,"Mozilla/5.0 (Macintosh; Intel Mac OS X 10_15_7) AppleWebKit/537.36 (KHTML, like Gecko) Chrome/116.0.0.0 Safari/537.36",Macintosh,Chrome,116.0.0.0,OS X,10_15_7,https://5puzkbbxv1.cognition.run/?sona_id=52248,"en-US,en;q=0.9",4hfm0d1s1bafxuk,21,"[""Asian""]",No,Female,NA,I'm not sure,1003008.700000003,NA,null,<p></p>,null,choice,tdc,trinary,repulsion_B,2,washing machines,null,null,null,null,null,null,1,NA,NA,NA,NA,NA,NA,NA,NA,NA,NA
NA,NA,NA,NA,NA,choice_trial,survey-html-form,29,357954,0.0-4.0-1.12,333,1,2025-05-08T21:40:29Z,b60275e29fe2361ab97ac0ac217840d7,"Mozilla/5.0 (Macintosh; Intel Mac OS X 10_15_7) AppleWebKit/537.36 (KHTML, like Gecko) Chrome/116.0.0.0 Safari/537.36",Macintosh,Chrome,116.0.0.0,OS X,10_15_7,https://5puzkbbxv1.cognition.run/?sona_id=52248,"en-US,en;q=0.9",4hfm0d1s1bafxuk,21,"[""Asian""]",No,Female,NA,I'm not sure,1003008.700000003,NA,3998,NA,"{""product_choice"":""C""}",choice,tdc,trinary,repulsion_B,2,washing machines,null,null,null,null,null,null,1,40,30,40,90,100,80,Average lifespan,Energy savings,NA,NA
NA,NA,NA,NA,NA,choice_trial_setup,html-keyboard-response,30,358258,0.0-4.0-0.13,333,1,2025-05-08T21:40:29Z,b60275e29fe2361ab97ac0ac217840d7,"Mozilla/5.0 (Macintosh; Intel Mac OS X 10_15_7) AppleWebKit/537.36 (KHTML, like Gecko) Chrome/116.0.0.0 Safari/537.36",Macintosh,Chrome,116.0.0.0,OS X,10_15_7,https://5puzkbbxv1.cognition.run/?sona_id=52248,"en-US,en;q=0.9",4hfm0d1s1bafxuk,21,"[""Asian""]",No,Female,NA,I'm not sure,1003008.700000003,NA,null,<p></p>,null,choice,tdc,trinary,repulsion_A,2,laptops,null,null,null,null,null,null,1,NA,NA,NA,NA,NA,NA,NA,NA,NA,NA
NA,NA,NA,NA,NA,choice_trial,survey-html-form,31,362291,0.0-4.0-1.13,333,1,2025-05-08T21:40:29Z,b60275e29fe2361ab97ac0ac217840d7,"Mozilla/5.0 (Macintosh; Intel Mac OS X 10_15_7) AppleWebKit/537.36 (KHTML, like Gecko) Chrome/116.0.0.0 Safari/537.36",Macintosh,Chrome,116.0.0.0,OS X,10_15_7,https://5puzkbbxv1.cognition.run/?sona_id=52248,"en-US,en;q=0.9",4hfm0d1s1bafxuk,21,"[""Asian""]",No,Female,NA,I'm not sure,1003008.700000003,NA,4029,NA,"{""product_choice"":""A""}",choice,tdc,trinary,repulsion_A,2,laptops,null,null,null,null,null,null,1,30,40,20,100,90,100,Processing speed,Memory (RAM),NA,NA
NA,NA,NA,NA,NA,choice_trial_setup,html-keyboard-response,32,362594,0.0-4.0-0.14,333,1,2025-05-08T21:40:29Z,b60275e29fe2361ab97ac0ac217840d7,"Mozilla/5.0 (Macintosh; Intel Mac OS X 10_15_7) AppleWebKit/537.36 (KHTML, like Gecko) Chrome/116.0.0.0 Safari/537.36",Macintosh,Chrome,116.0.0.0,OS X,10_15_7,https://5puzkbbxv1.cognition.run/?sona_id=52248,"en-US,en;q=0.9",4hfm0d1s1bafxuk,21,"[""Asian""]",No,Female,NA,I'm not sure,1003008.700000003,NA,null,<p></p>,null,choice,ct,binary,repulsion,1,microwave ovens,null,null,null,null,null,null,2,NA,NA,NA,NA,NA,NA,NA,NA,NA,NA
NA,NA,NA,NA,NA,choice_trial,survey-html-form,33,368418,0.0-4.0-1.14,333,1,2025-05-08T21:40:29Z,b60275e29fe2361ab97ac0ac217840d7,"Mozilla/5.0 (Macintosh; Intel Mac OS X 10_15_7) AppleWebKit/537.36 (KHTML, like Gecko) Chrome/116.0.0.0 Safari/537.36",Macintosh,Chrome,116.0.0.0,OS X,10_15_7,https://5puzkbbxv1.cognition.run/?sona_id=52248,"en-US,en;q=0.9",4hfm0d1s1bafxuk,21,"[""Asian""]",No,Female,NA,I'm not sure,1003008.700000003,NA,5820,NA,"{""product_choice"":""A""}",choice,ct,binary,repulsion,1,microwave ovens,null,null,null,null,null,null,2,100,90,null,30,40,null,Warranty,Cooking power,NA,NA
NA,NA,NA,NA,NA,choice_trial_setup,html-keyboard-response,34,368726,0.0-4.0-0.15,333,1,2025-05-08T21:40:29Z,b60275e29fe2361ab97ac0ac217840d7,"Mozilla/5.0 (Macintosh; Intel Mac OS X 10_15_7) AppleWebKit/537.36 (KHTML, like Gecko) Chrome/116.0.0.0 Safari/537.36",Macintosh,Chrome,116.0.0.0,OS X,10_15_7,https://5puzkbbxv1.cognition.run/?sona_id=52248,"en-US,en;q=0.9",4hfm0d1s1bafxuk,21,"[""Asian""]",No,Female,NA,I'm not sure,1003008.700000003,NA,null,<p></p>,null,choice,tc,binary,repulsion,2,washing machines,null,null,null,null,null,null,2,NA,NA,NA,NA,NA,NA,NA,NA,NA,NA
NA,NA,NA,NA,NA,choice_trial,survey-html-form,35,377241,0.0-4.0-1.15,333,1,2025-05-08T21:40:29Z,b60275e29fe2361ab97ac0ac217840d7,"Mozilla/5.0 (Macintosh; Intel Mac OS X 10_15_7) AppleWebKit/537.36 (KHTML, like Gecko) Chrome/116.0.0.0 Safari/537.36",Macintosh,Chrome,116.0.0.0,OS X,10_15_7,https://5puzkbbxv1.cognition.run/?sona_id=52248,"en-US,en;q=0.9",4hfm0d1s1bafxuk,21,"[""Asian""]",No,Female,NA,I'm not sure,1003008.700000003,NA,8511,NA,"{""product_choice"":""A""}",choice,tc,binary,repulsion,2,washing machines,null,null,null,null,null,null,2,30,40,null,100,90,null,Average lifespan,Energy savings,NA,NA
NA,NA,NA,NA,NA,choice_trial_setup,html-keyboard-response,36,377546,0.0-4.0-0.16,333,1,2025-05-08T21:40:29Z,b60275e29fe2361ab97ac0ac217840d7,"Mozilla/5.0 (Macintosh; Intel Mac OS X 10_15_7) AppleWebKit/537.36 (KHTML, like Gecko) Chrome/116.0.0.0 Safari/537.36",Macintosh,Chrome,116.0.0.0,OS X,10_15_7,https://5puzkbbxv1.cognition.run/?sona_id=52248,"en-US,en;q=0.9",4hfm0d1s1bafxuk,21,"[""Asian""]",No,Female,NA,I'm not sure,1003008.700000003,NA,null,<p></p>,null,choice,wbw,trinary,catch,null,washing machines,85,85,5,20,50,30,2,NA,NA,NA,NA,NA,NA,NA,NA,NA,NA
NA,NA,NA,NA,NA,choice_trial,survey-html-form,37,382609,0.0-4.0-1.16,333,1,2025-05-08T21:40:29Z,b60275e29fe2361ab97ac0ac217840d7,"Mozilla/5.0 (Macintosh; Intel Mac OS X 10_15_7) AppleWebKit/537.36 (KHTML, like Gecko) Chrome/116.0.0.0 Safari/537.36",Macintosh,Chrome,116.0.0.0,OS X,10_15_7,https://5puzkbbxv1.cognition.run/?sona_id=52248,"en-US,en;q=0.9",4hfm0d1s1bafxuk,21,"[""Asian""]",No,Female,NA,I'm not sure,1003008.700000003,NA,5058,NA,"{""product_choice"":""B""}",choice,wbw,trinary,catch,null,washing machines,85,85,5,20,50,30,2,null,null,null,null,null,null,Average lifespan,Energy savings,NA,NA
NA,NA,NA,NA,NA,choice_trial_setup,html-keyboard-response,38,382918,0.0-4.0-0.17,333,1,2025-05-08T21:40:29Z,b60275e29fe2361ab97ac0ac217840d7,"Mozilla/5.0 (Macintosh; Intel Mac OS X 10_15_7) AppleWebKit/537.36 (KHTML, like Gecko) Chrome/116.0.0.0 Safari/537.36",Macintosh,Chrome,116.0.0.0,OS X,10_15_7,https://5puzkbbxv1.cognition.run/?sona_id=52248,"en-US,en;q=0.9",4hfm0d1s1bafxuk,21,"[""Asian""]",No,Female,NA,I'm not sure,1003008.700000003,NA,null,<p></p>,null,choice,ctd,trinary,attraction,2,televisions,null,null,null,null,null,null,2,NA,NA,NA,NA,NA,NA,NA,NA,NA,NA
NA,NA,NA,NA,NA,choice_trial,survey-html-form,39,392945,0.0-4.0-1.17,333,1,2025-05-08T21:40:29Z,b60275e29fe2361ab97ac0ac217840d7,"Mozilla/5.0 (Macintosh; Intel Mac OS X 10_15_7) AppleWebKit/537.36 (KHTML, like Gecko) Chrome/116.0.0.0 Safari/537.36",Macintosh,Chrome,116.0.0.0,OS X,10_15_7,https://5puzkbbxv1.cognition.run/?sona_id=52248,"en-US,en;q=0.9",4hfm0d1s1bafxuk,21,"[""Asian""]",No,Female,NA,I'm not sure,1003008.700000003,NA,10023,NA,"{""product_choice"":""A""}",choice,ctd,trinary,attraction,2,televisions,null,null,null,null,null,null,2,50,60,40,60,50,60,Screen size,Average lifespan,NA,NA
NA,NA,NA,NA,NA,choice_trial_setup,html-keyboard-response,40,393251,0.0-4.0-0.18,333,1,2025-05-08T21:40:29Z,b60275e29fe2361ab97ac0ac217840d7,"Mozilla/5.0 (Macintosh; Intel Mac OS X 10_15_7) AppleWebKit/537.36 (KHTML, like Gecko) Chrome/116.0.0.0 Safari/537.36",Macintosh,Chrome,116.0.0.0,OS X,10_15_7,https://5puzkbbxv1.cognition.run/?sona_id=52248,"en-US,en;q=0.9",4hfm0d1s1bafxuk,21,"[""Asian""]",No,Female,NA,I'm not sure,1003008.700000003,NA,null,<p></p>,null,choice,wbw,trinary,catch,null,televisions,95,80,15,30,30,45,1,NA,NA,NA,NA,NA,NA,NA,NA,NA,NA
NA,NA,NA,NA,NA,choice_trial,survey-html-form,41,400915,0.0-4.0-1.18,333,1,2025-05-08T21:40:29Z,b60275e29fe2361ab97ac0ac217840d7,"Mozilla/5.0 (Macintosh; Intel Mac OS X 10_15_7) AppleWebKit/537.36 (KHTML, like Gecko) Chrome/116.0.0.0 Safari/537.36",Macintosh,Chrome,116.0.0.0,OS X,10_15_7,https://5puzkbbxv1.cognition.run/?sona_id=52248,"en-US,en;q=0.9",4hfm0d1s1bafxuk,21,"[""Asian""]",No,Female,NA,I'm not sure,1003008.700000003,NA,7658,NA,"{""product_choice"":""B""}",choice,wbw,trinary,catch,null,televisions,95,80,15,30,30,45,1,null,null,null,null,null,null,Screen size,Average lifespan,NA,NA
NA,NA,NA,NA,NA,choice_trial_setup,html-keyboard-response,42,401221,0.0-4.0-0.19,333,1,2025-05-08T21:40:29Z,b60275e29fe2361ab97ac0ac217840d7,"Mozilla/5.0 (Macintosh; Intel Mac OS X 10_15_7) AppleWebKit/537.36 (KHTML, like Gecko) Chrome/116.0.0.0 Safari/537.36",Macintosh,Chrome,116.0.0.0,OS X,10_15_7,https://5puzkbbxv1.cognition.run/?sona_id=52248,"en-US,en;q=0.9",4hfm0d1s1bafxuk,21,"[""Asian""]",No,Female,NA,I'm not sure,1003008.700000003,NA,null,<p></p>,null,choice,dtc,trinary,repulsion_B,1,washing machines,null,null,null,null,null,null,1,NA,NA,NA,NA,NA,NA,NA,NA,NA,NA
NA,NA,NA,NA,NA,choice_trial,survey-html-form,43,412930,0.0-4.0-1.19,333,1,2025-05-08T21:40:29Z,b60275e29fe2361ab97ac0ac217840d7,"Mozilla/5.0 (Macintosh; Intel Mac OS X 10_15_7) AppleWebKit/537.36 (KHTML, like Gecko) Chrome/116.0.0.0 Safari/537.36",Macintosh,Chrome,116.0.0.0,OS X,10_15_7,https://5puzkbbxv1.cognition.run/?sona_id=52248,"en-US,en;q=0.9",4hfm0d1s1bafxuk,21,"[""Asian""]",No,Female,NA,I'm not sure,1003008.700000003,NA,11704,NA,"{""product_choice"":""C""}",choice,dtc,trinary,repulsion_B,1,washing machines,null,null,null,null,null,null,1,90,100,80,40,30,40,Average lifespan,Energy savings,NA,NA
NA,NA,NA,NA,NA,choice_trial_setup,html-keyboard-response,44,413237,0.0-4.0-0.20,333,1,2025-05-08T21:40:29Z,b60275e29fe2361ab97ac0ac217840d7,"Mozilla/5.0 (Macintosh; Intel Mac OS X 10_15_7) AppleWebKit/537.36 (KHTML, like Gecko) Chrome/116.0.0.0 Safari/537.36",Macintosh,Chrome,116.0.0.0,OS X,10_15_7,https://5puzkbbxv1.cognition.run/?sona_id=52248,"en-US,en;q=0.9",4hfm0d1s1bafxuk,21,"[""Asian""]",No,Female,NA,I'm not sure,1003008.700000003,NA,null,<p></p>,null,choice,wwb,trinary,catch,null,microwave ovens,50,55,5,20,50,20,2,NA,NA,NA,NA,NA,NA,NA,NA,NA,NA
NA,NA,NA,NA,NA,choice_trial,survey-html-form,45,419068,0.0-4.0-1.20,333,1,2025-05-08T21:40:29Z,b60275e29fe2361ab97ac0ac217840d7,"Mozilla/5.0 (Macintosh; Intel Mac OS X 10_15_7) AppleWebKit/537.36 (KHTML, like Gecko) Chrome/116.0.0.0 Safari/537.36",Macintosh,Chrome,116.0.0.0,OS X,10_15_7,https://5puzkbbxv1.cognition.run/?sona_id=52248,"en-US,en;q=0.9",4hfm0d1s1bafxuk,21,"[""Asian""]",No,Female,NA,I'm not sure,1003008.700000003,NA,5825,NA,"{""product_choice"":""C""}",choice,wwb,trinary,catch,null,microwave ovens,50,55,5,20,50,20,2,null,null,null,null,null,null,Warranty,Cooking power,NA,NA
NA,NA,NA,NA,NA,choice_trial_setup,html-keyboard-response,46,419373,0.0-4.0-0.21,333,1,2025-05-08T21:40:29Z,b60275e29fe2361ab97ac0ac217840d7,"Mozilla/5.0 (Macintosh; Intel Mac OS X 10_15_7) AppleWebKit/537.36 (KHTML, like Gecko) Chrome/116.0.0.0 Safari/537.36",Macintosh,Chrome,116.0.0.0,OS X,10_15_7,https://5puzkbbxv1.cognition.run/?sona_id=52248,"en-US,en;q=0.9",4hfm0d1s1bafxuk,21,"[""Asian""]",No,Female,NA,I'm not sure,1003008.700000003,NA,null,<p></p>,null,choice,tcd,trinary,attraction,1,laptops,null,null,null,null,null,null,1,NA,NA,NA,NA,NA,NA,NA,NA,NA,NA
NA,NA,NA,NA,NA,choice_trial,survey-html-form,47,427440,0.0-4.0-1.21,333,1,2025-05-08T21:40:29Z,b60275e29fe2361ab97ac0ac217840d7,"Mozilla/5.0 (Macintosh; Intel Mac OS X 10_15_7) AppleWebKit/537.36 (KHTML, like Gecko) Chrome/116.0.0.0 Safari/537.36",Macintosh,Chrome,116.0.0.0,OS X,10_15_7,https://5puzkbbxv1.cognition.run/?sona_id=52248,"en-US,en;q=0.9",4hfm0d1s1bafxuk,21,"[""Asian""]",No,Female,NA,I'm not sure,1003008.700000003,NA,8062,NA,"{""product_choice"":""A""}",choice,tcd,trinary,attraction,1,laptops,null,null,null,null,null,null,1,60,50,60,50,60,40,Processing speed,Memory (RAM),NA,NA
NA,NA,NA,NA,NA,choice_trial_setup,html-keyboard-response,48,427750,0.0-4.0-0.22,333,1,2025-05-08T21:40:29Z,b60275e29fe2361ab97ac0ac217840d7,"Mozilla/5.0 (Macintosh; Intel Mac OS X 10_15_7) AppleWebKit/537.36 (KHTML, like Gecko) Chrome/116.0.0.0 Safari/537.36",Macintosh,Chrome,116.0.0.0,OS X,10_15_7,https://5puzkbbxv1.cognition.run/?sona_id=52248,"en-US,en;q=0.9",4hfm0d1s1bafxuk,21,"[""Asian""]",No,Female,NA,I'm not sure,1003008.700000003,NA,null,<p></p>,null,choice,dct,trinary,attraction,1,microwave ovens,null,null,null,null,null,null,1,NA,NA,NA,NA,NA,NA,NA,NA,NA,NA
NA,NA,NA,NA,NA,choice_trial,survey-html-form,49,436761,0.0-4.0-1.22,333,1,2025-05-08T21:40:29Z,b60275e29fe2361ab97ac0ac217840d7,"Mozilla/5.0 (Macintosh; Intel Mac OS X 10_15_7) AppleWebKit/537.36 (KHTML, like Gecko) Chrome/116.0.0.0 Safari/537.36",Macintosh,Chrome,116.0.0.0,OS X,10_15_7,https://5puzkbbxv1.cognition.run/?sona_id=52248,"en-US,en;q=0.9",4hfm0d1s1bafxuk,21,"[""Asian""]",No,Female,NA,I'm not sure,1003008.700000003,NA,9006,NA,"{""product_choice"":""B""}",choice,dct,trinary,attraction,1,microwave ovens,null,null,null,null,null,null,1,60,50,60,50,60,40,Warranty,Cooking power,NA,NA
NA,NA,NA,NA,NA,choice_trial_setup,html-keyboard-response,50,437067,0.0-4.0-0.23,333,1,2025-05-08T21:40:29Z,b60275e29fe2361ab97ac0ac217840d7,"Mozilla/5.0 (Macintosh; Intel Mac OS X 10_15_7) AppleWebKit/537.36 (KHTML, like Gecko) Chrome/116.0.0.0 Safari/537.36",Macintosh,Chrome,116.0.0.0,OS X,10_15_7,https://5puzkbbxv1.cognition.run/?sona_id=52248,"en-US,en;q=0.9",4hfm0d1s1bafxuk,21,"[""Asian""]",No,Female,NA,I'm not sure,1003008.700000003,NA,null,<p></p>,null,choice,tcd,trinary,repulsion_A,1,laptops,null,null,null,null,null,null,1,NA,NA,NA,NA,NA,NA,NA,NA,NA,NA
NA,NA,NA,NA,NA,choice_trial,survey-html-form,51,443096,0.0-4.0-1.23,333,1,2025-05-08T21:40:29Z,b60275e29fe2361ab97ac0ac217840d7,"Mozilla/5.0 (Macintosh; Intel Mac OS X 10_15_7) AppleWebKit/537.36 (KHTML, like Gecko) Chrome/116.0.0.0 Safari/537.36",Macintosh,Chrome,116.0.0.0,OS X,10_15_7,https://5puzkbbxv1.cognition.run/?sona_id=52248,"en-US,en;q=0.9",4hfm0d1s1bafxuk,21,"[""Asian""]",No,Female,NA,I'm not sure,1003008.700000003,NA,6025,NA,"{""product_choice"":""A""}",choice,tcd,trinary,repulsion_A,1,laptops,null,null,null,null,null,null,1,100,90,100,30,40,20,Processing speed,Memory (RAM),NA,NA
NA,NA,NA,NA,NA,choice_trial_setup,html-keyboard-response,52,443406,0.0-4.0-0.24,333,1,2025-05-08T21:40:29Z,b60275e29fe2361ab97ac0ac217840d7,"Mozilla/5.0 (Macintosh; Intel Mac OS X 10_15_7) AppleWebKit/537.36 (KHTML, like Gecko) Chrome/116.0.0.0 Safari/537.36",Macintosh,Chrome,116.0.0.0,OS X,10_15_7,https://5puzkbbxv1.cognition.run/?sona_id=52248,"en-US,en;q=0.9",4hfm0d1s1bafxuk,21,"[""Asian""]",No,Female,NA,I'm not sure,1003008.700000003,NA,null,<p></p>,null,choice,tcd,trinary,repulsion_A,2,washing machines,null,null,null,null,null,null,1,NA,NA,NA,NA,NA,NA,NA,NA,NA,NA
NA,NA,NA,NA,NA,choice_trial,survey-html-form,53,452588,0.0-4.0-1.24,333,1,2025-05-08T21:40:29Z,b60275e29fe2361ab97ac0ac217840d7,"Mozilla/5.0 (Macintosh; Intel Mac OS X 10_15_7) AppleWebKit/537.36 (KHTML, like Gecko) Chrome/116.0.0.0 Safari/537.36",Macintosh,Chrome,116.0.0.0,OS X,10_15_7,https://5puzkbbxv1.cognition.run/?sona_id=52248,"en-US,en;q=0.9",4hfm0d1s1bafxuk,21,"[""Asian""]",No,Female,NA,I'm not sure,1003008.700000003,NA,9178,NA,"{""product_choice"":""A""}",choice,tcd,trinary,repulsion_A,2,washing machines,null,null,null,null,null,null,1,30,40,20,100,90,100,Average lifespan,Energy savings,NA,NA
NA,NA,NA,NA,NA,choice_trial_setup,html-keyboard-response,54,452903,0.0-4.0-0.25,333,1,2025-05-08T21:40:29Z,b60275e29fe2361ab97ac0ac217840d7,"Mozilla/5.0 (Macintosh; Intel Mac OS X 10_15_7) AppleWebKit/537.36 (KHTML, like Gecko) Chrome/116.0.0.0 Safari/537.36",Macintosh,Chrome,116.0.0.0,OS X,10_15_7,https://5puzkbbxv1.cognition.run/?sona_id=52248,"en-US,en;q=0.9",4hfm0d1s1bafxuk,21,"[""Asian""]",No,Female,NA,I'm not sure,1003008.700000003,NA,null,<p></p>,null,choice,tdc,trinary,attraction,2,washing machines,null,null,null,null,null,null,1,NA,NA,NA,NA,NA,NA,NA,NA,NA,NA
NA,NA,NA,NA,NA,choice_trial,survey-html-form,55,460011,0.0-4.0-1.25,333,1,2025-05-08T21:40:29Z,b60275e29fe2361ab97ac0ac217840d7,"Mozilla/5.0 (Macintosh; Intel Mac OS X 10_15_7) AppleWebKit/537.36 (KHTML, like Gecko) Chrome/116.0.0.0 Safari/537.36",Macintosh,Chrome,116.0.0.0,OS X,10_15_7,https://5puzkbbxv1.cognition.run/?sona_id=52248,"en-US,en;q=0.9",4hfm0d1s1bafxuk,21,"[""Asian""]",No,Female,NA,I'm not sure,1003008.700000003,NA,7103,NA,"{""product_choice"":""C""}",choice,tdc,trinary,attraction,2,washing machines,null,null,null,null,null,null,1,50,60,40,60,50,60,Average lifespan,Energy savings,NA,NA
NA,NA,NA,NA,NA,choice_trial_setup,html-keyboard-response,56,460327,0.0-4.0-0.26,333,1,2025-05-08T21:40:29Z,b60275e29fe2361ab97ac0ac217840d7,"Mozilla/5.0 (Macintosh; Intel Mac OS X 10_15_7) AppleWebKit/537.36 (KHTML, like Gecko) Chrome/116.0.0.0 Safari/537.36",Macintosh,Chrome,116.0.0.0,OS X,10_15_7,https://5puzkbbxv1.cognition.run/?sona_id=52248,"en-US,en;q=0.9",4hfm0d1s1bafxuk,21,"[""Asian""]",No,Female,NA,I'm not sure,1003008.700000003,NA,null,<p></p>,null,choice,bw,binary,catch,null,microwave ovens,95,60,40,30,null,null,2,NA,NA,NA,NA,NA,NA,NA,NA,NA,NA
NA,NA,NA,NA,NA,choice_trial,survey-html-form,57,465160,0.0-4.0-1.26,333,1,2025-05-08T21:40:29Z,b60275e29fe2361ab97ac0ac217840d7,"Mozilla/5.0 (Macintosh; Intel Mac OS X 10_15_7) AppleWebKit/537.36 (KHTML, like Gecko) Chrome/116.0.0.0 Safari/537.36",Macintosh,Chrome,116.0.0.0,OS X,10_15_7,https://5puzkbbxv1.cognition.run/?sona_id=52248,"en-US,en;q=0.9",4hfm0d1s1bafxuk,21,"[""Asian""]",No,Female,NA,I'm not sure,1003008.700000003,NA,4826,NA,"{""product_choice"":""A""}",choice,bw,binary,catch,null,microwave ovens,95,60,40,30,null,null,2,null,null,null,null,null,null,Warranty,Cooking power,NA,NA
NA,NA,NA,NA,NA,choice_trial_setup,html-keyboard-response,58,465470,0.0-4.0-0.27,333,1,2025-05-08T21:40:29Z,b60275e29fe2361ab97ac0ac217840d7,"Mozilla/5.0 (Macintosh; Intel Mac OS X 10_15_7) AppleWebKit/537.36 (KHTML, like Gecko) Chrome/116.0.0.0 Safari/537.36",Macintosh,Chrome,116.0.0.0,OS X,10_15_7,https://5puzkbbxv1.cognition.run/?sona_id=52248,"en-US,en;q=0.9",4hfm0d1s1bafxuk,21,"[""Asian""]",No,Female,NA,I'm not sure,1003008.700000003,NA,null,<p></p>,null,choice,ct,binary,attraction,NA,microwave ovens,null,null,null,null,null,null,2,NA,NA,NA,NA,NA,NA,NA,NA,NA,NA
NA,NA,NA,NA,NA,choice_trial,survey-html-form,59,469575,0.0-4.0-1.27,333,1,2025-05-08T21:40:29Z,b60275e29fe2361ab97ac0ac217840d7,"Mozilla/5.0 (Macintosh; Intel Mac OS X 10_15_7) AppleWebKit/537.36 (KHTML, like Gecko) Chrome/116.0.0.0 Safari/537.36",Macintosh,Chrome,116.0.0.0,OS X,10_15_7,https://5puzkbbxv1.cognition.run/?sona_id=52248,"en-US,en;q=0.9",4hfm0d1s1bafxuk,21,"[""Asian""]",No,Female,NA,I'm not sure,1003008.700000003,NA,4101,NA,"{""product_choice"":""A""}",choice,ct,binary,attraction,NA,microwave ovens,null,null,null,null,null,null,2,60,50,null,50,60,null,Warranty,Cooking power,NA,NA
NA,NA,NA,NA,NA,choice_trial_setup,html-keyboard-response,60,469885,0.0-4.0-0.28,333,1,2025-05-08T21:40:29Z,b60275e29fe2361ab97ac0ac217840d7,"Mozilla/5.0 (Macintosh; Intel Mac OS X 10_15_7) AppleWebKit/537.36 (KHTML, like Gecko) Chrome/116.0.0.0 Safari/537.36",Macintosh,Chrome,116.0.0.0,OS X,10_15_7,https://5puzkbbxv1.cognition.run/?sona_id=52248,"en-US,en;q=0.9",4hfm0d1s1bafxuk,21,"[""Asian""]",No,Female,NA,I'm not sure,1003008.700000003,NA,null,<p></p>,null,choice,ct,binary,repulsion,1,laptops,null,null,null,null,null,null,1,NA,NA,NA,NA,NA,NA,NA,NA,NA,NA
NA,NA,NA,NA,NA,choice_trial,survey-html-form,61,473110,0.0-4.0-1.28,333,1,2025-05-08T21:40:29Z,b60275e29fe2361ab97ac0ac217840d7,"Mozilla/5.0 (Macintosh; Intel Mac OS X 10_15_7) AppleWebKit/537.36 (KHTML, like Gecko) Chrome/116.0.0.0 Safari/537.36",Macintosh,Chrome,116.0.0.0,OS X,10_15_7,https://5puzkbbxv1.cognition.run/?sona_id=52248,"en-US,en;q=0.9",4hfm0d1s1bafxuk,21,"[""Asian""]",No,Female,NA,I'm not sure,1003008.700000003,NA,3220,NA,"{""product_choice"":""B""}",choice,ct,binary,repulsion,1,laptops,null,null,null,null,null,null,1,100,90,null,30,40,null,Processing speed,Memory (RAM),NA,NA
NA,NA,NA,NA,NA,choice_trial_setup,html-keyboard-response,62,473420,0.0-4.0-0.29,333,1,2025-05-08T21:40:29Z,b60275e29fe2361ab97ac0ac217840d7,"Mozilla/5.0 (Macintosh; Intel Mac OS X 10_15_7) AppleWebKit/537.36 (KHTML, like Gecko) Chrome/116.0.0.0 Safari/537.36",Macintosh,Chrome,116.0.0.0,OS X,10_15_7,https://5puzkbbxv1.cognition.run/?sona_id=52248,"en-US,en;q=0.9",4hfm0d1s1bafxuk,21,"[""Asian""]",No,Female,NA,I'm not sure,1003008.700000003,NA,null,<p></p>,null,choice,wb,binary,catch,null,washing machines,65,55,50,45,null,null,2,NA,NA,NA,NA,NA,NA,NA,NA,NA,NA
NA,NA,NA,NA,NA,choice_trial,survey-html-form,63,478478,0.0-4.0-1.29,333,1,2025-05-08T21:40:29Z,b60275e29fe2361ab97ac0ac217840d7,"Mozilla/5.0 (Macintosh; Intel Mac OS X 10_15_7) AppleWebKit/537.36 (KHTML, like Gecko) Chrome/116.0.0.0 Safari/537.36",Macintosh,Chrome,116.0.0.0,OS X,10_15_7,https://5puzkbbxv1.cognition.run/?sona_id=52248,"en-US,en;q=0.9",4hfm0d1s1bafxuk,21,"[""Asian""]",No,Female,NA,I'm not sure,1003008.700000003,NA,5052,NA,"{""product_choice"":""B""}",choice,wb,binary,catch,null,washing machines,65,55,50,45,null,null,2,null,null,null,null,null,null,Average lifespan,Energy savings,NA,NA
NA,NA,NA,NA,NA,choice_trial_setup,html-keyboard-response,64,478787,0.0-4.0-0.30,333,1,2025-05-08T21:40:29Z,b60275e29fe2361ab97ac0ac217840d7,"Mozilla/5.0 (Macintosh; Intel Mac OS X 10_15_7) AppleWebKit/537.36 (KHTML, like Gecko) Chrome/116.0.0.0 Safari/537.36",Macintosh,Chrome,116.0.0.0,OS X,10_15_7,https://5puzkbbxv1.cognition.run/?sona_id=52248,"en-US,en;q=0.9",4hfm0d1s1bafxuk,21,"[""Asian""]",No,Female,NA,I'm not sure,1003008.700000003,NA,null,<p></p>,null,choice,dct,trinary,repulsion_A,1,microwave ovens,null,null,null,null,null,null,2,NA,NA,NA,NA,NA,NA,NA,NA,NA,NA
NA,NA,NA,NA,NA,choice_trial,survey-html-form,65,485003,0.0-4.0-1.30,333,1,2025-05-08T21:40:29Z,b60275e29fe2361ab97ac0ac217840d7,"Mozilla/5.0 (Macintosh; Intel Mac OS X 10_15_7) AppleWebKit/537.36 (KHTML, like Gecko) Chrome/116.0.0.0 Safari/537.36",Macintosh,Chrome,116.0.0.0,OS X,10_15_7,https://5puzkbbxv1.cognition.run/?sona_id=52248,"en-US,en;q=0.9",4hfm0d1s1bafxuk,21,"[""Asian""]",No,Female,NA,I'm not sure,1003008.700000003,NA,6210,NA,"{""product_choice"":""B""}",choice,dct,trinary,repulsion_A,1,microwave ovens,null,null,null,null,null,null,2,100,90,100,30,40,20,Warranty,Cooking power,NA,NA
NA,NA,NA,NA,NA,choice_trial_setup,html-keyboard-response,66,485318,0.0-4.0-0.31,333,1,2025-05-08T21:40:29Z,b60275e29fe2361ab97ac0ac217840d7,"Mozilla/5.0 (Macintosh; Intel Mac OS X 10_15_7) AppleWebKit/537.36 (KHTML, like Gecko) Chrome/116.0.0.0 Safari/537.36",Macintosh,Chrome,116.0.0.0,OS X,10_15_7,https://5puzkbbxv1.cognition.run/?sona_id=52248,"en-US,en;q=0.9",4hfm0d1s1bafxuk,21,"[""Asian""]",No,Female,NA,I'm not sure,1003008.700000003,NA,null,<p></p>,null,choice,dct,trinary,repulsion_B,1,laptops,null,null,null,null,null,null,2,NA,NA,NA,NA,NA,NA,NA,NA,NA,NA
NA,NA,NA,NA,NA,choice_trial,survey-html-form,67,493210,0.0-4.0-1.31,333,1,2025-05-08T21:40:29Z,b60275e29fe2361ab97ac0ac217840d7,"Mozilla/5.0 (Macintosh; Intel Mac OS X 10_15_7) AppleWebKit/537.36 (KHTML, like Gecko) Chrome/116.0.0.0 Safari/537.36",Macintosh,Chrome,116.0.0.0,OS X,10_15_7,https://5puzkbbxv1.cognition.run/?sona_id=52248,"en-US,en;q=0.9",4hfm0d1s1bafxuk,21,"[""Asian""]",No,Female,NA,I'm not sure,1003008.700000003,NA,7886,NA,"{""product_choice"":""B""}",choice,dct,trinary,repulsion_B,1,laptops,null,null,null,null,null,null,2,90,100,80,40,30,40,Processing speed,Memory (RAM),NA,NA
NA,NA,NA,NA,NA,choice_trial_setup,html-keyboard-response,68,493516,0.0-4.0-0.32,333,1,2025-05-08T21:40:29Z,b60275e29fe2361ab97ac0ac217840d7,"Mozilla/5.0 (Macintosh; Intel Mac OS X 10_15_7) AppleWebKit/537.36 (KHTML, like Gecko) Chrome/116.0.0.0 Safari/537.36",Macintosh,Chrome,116.0.0.0,OS X,10_15_7,https://5puzkbbxv1.cognition.run/?sona_id=52248,"en-US,en;q=0.9",4hfm0d1s1bafxuk,21,"[""Asian""]",No,Female,NA,I'm not sure,1003008.700000003,NA,null,<p></p>,null,choice,cdt,trinary,attraction,2,microwave ovens,null,null,null,null,null,null,2,NA,NA,NA,NA,NA,NA,NA,NA,NA,NA
NA,NA,NA,NA,NA,choice_trial,survey-html-form,69,499187,0.0-4.0-1.32,333,1,2025-05-08T21:40:29Z,b60275e29fe2361ab97ac0ac217840d7,"Mozilla/5.0 (Macintosh; Intel Mac OS X 10_15_7) AppleWebKit/537.36 (KHTML, like Gecko) Chrome/116.0.0.0 Safari/537.36",Macintosh,Chrome,116.0.0.0,OS X,10_15_7,https://5puzkbbxv1.cognition.run/?sona_id=52248,"en-US,en;q=0.9",4hfm0d1s1bafxuk,21,"[""Asian""]",No,Female,NA,I'm not sure,1003008.700000003,NA,5665,NA,"{""product_choice"":""C""}",choice,cdt,trinary,attraction,2,microwave ovens,null,null,null,null,null,null,2,50,60,40,60,50,60,Warranty,Cooking power,NA,NA
NA,NA,NA,NA,NA,choice_trial_setup,html-keyboard-response,70,499504,0.0-4.0-0.33,333,1,2025-05-08T21:40:29Z,b60275e29fe2361ab97ac0ac217840d7,"Mozilla/5.0 (Macintosh; Intel Mac OS X 10_15_7) AppleWebKit/537.36 (KHTML, like Gecko) Chrome/116.0.0.0 Safari/537.36",Macintosh,Chrome,116.0.0.0,OS X,10_15_7,https://5puzkbbxv1.cognition.run/?sona_id=52248,"en-US,en;q=0.9",4hfm0d1s1bafxuk,21,"[""Asian""]",No,Female,NA,I'm not sure,1003008.700000003,NA,null,<p></p>,null,choice,wbw,trinary,catch,null,laptops,70,65,25,40,40,5,2,NA,NA,NA,NA,NA,NA,NA,NA,NA,NA
NA,NA,NA,NA,NA,choice_trial,survey-html-form,71,503667,0.0-4.0-1.33,333,1,2025-05-08T21:40:29Z,b60275e29fe2361ab97ac0ac217840d7,"Mozilla/5.0 (Macintosh; Intel Mac OS X 10_15_7) AppleWebKit/537.36 (KHTML, like Gecko) Chrome/116.0.0.0 Safari/537.36",Macintosh,Chrome,116.0.0.0,OS X,10_15_7,https://5puzkbbxv1.cognition.run/?sona_id=52248,"en-US,en;q=0.9",4hfm0d1s1bafxuk,21,"[""Asian""]",No,Female,NA,I'm not sure,1003008.700000003,NA,4155,NA,"{""product_choice"":""B""}",choice,wbw,trinary,catch,null,laptops,70,65,25,40,40,5,2,null,null,null,null,null,null,Processing speed,Memory (RAM),NA,NA
NA,NA,NA,NA,NA,choice_trial_setup,html-keyboard-response,72,503980,0.0-4.0-0.34,333,1,2025-05-08T21:40:29Z,b60275e29fe2361ab97ac0ac217840d7,"Mozilla/5.0 (Macintosh; Intel Mac OS X 10_15_7) AppleWebKit/537.36 (KHTML, like Gecko) Chrome/116.0.0.0 Safari/537.36",Macintosh,Chrome,116.0.0.0,OS X,10_15_7,https://5puzkbbxv1.cognition.run/?sona_id=52248,"en-US,en;q=0.9",4hfm0d1s1bafxuk,21,"[""Asian""]",No,Female,NA,I'm not sure,1003008.700000003,NA,null,<p></p>,null,choice,ct,binary,repulsion,2,microwave ovens,null,null,null,null,null,null,2,NA,NA,NA,NA,NA,NA,NA,NA,NA,NA
NA,NA,NA,NA,NA,choice_trial,survey-html-form,73,507382,0.0-4.0-1.34,333,1,2025-05-08T21:40:29Z,b60275e29fe2361ab97ac0ac217840d7,"Mozilla/5.0 (Macintosh; Intel Mac OS X 10_15_7) AppleWebKit/537.36 (KHTML, like Gecko) Chrome/116.0.0.0 Safari/537.36",Macintosh,Chrome,116.0.0.0,OS X,10_15_7,https://5puzkbbxv1.cognition.run/?sona_id=52248,"en-US,en;q=0.9",4hfm0d1s1bafxuk,21,"[""Asian""]",No,Female,NA,I'm not sure,1003008.700000003,NA,3396,NA,"{""product_choice"":""B""}",choice,ct,binary,repulsion,2,microwave ovens,null,null,null,null,null,null,2,30,40,null,100,90,null,Warranty,Cooking power,NA,NA
NA,NA,NA,NA,NA,choice_trial_setup,html-keyboard-response,74,507687,0.0-4.0-0.35,333,1,2025-05-08T21:40:29Z,b60275e29fe2361ab97ac0ac217840d7,"Mozilla/5.0 (Macintosh; Intel Mac OS X 10_15_7) AppleWebKit/537.36 (KHTML, like Gecko) Chrome/116.0.0.0 Safari/537.36",Macintosh,Chrome,116.0.0.0,OS X,10_15_7,https://5puzkbbxv1.cognition.run/?sona_id=52248,"en-US,en;q=0.9",4hfm0d1s1bafxuk,21,"[""Asian""]",No,Female,NA,I'm not sure,1003008.700000003,NA,null,<p></p>,null,choice,cdt,trinary,repulsion_A,2,televisions,null,null,null,null,null,null,2,NA,NA,NA,NA,NA,NA,NA,NA,NA,NA
NA,NA,NA,NA,NA,choice_trial,survey-html-form,75,511333,0.0-4.0-1.35,333,1,2025-05-08T21:40:29Z,b60275e29fe2361ab97ac0ac217840d7,"Mozilla/5.0 (Macintosh; Intel Mac OS X 10_15_7) AppleWebKit/537.36 (KHTML, like Gecko) Chrome/116.0.0.0 Safari/537.36",Macintosh,Chrome,116.0.0.0,OS X,10_15_7,https://5puzkbbxv1.cognition.run/?sona_id=52248,"en-US,en;q=0.9",4hfm0d1s1bafxuk,21,"[""Asian""]",No,Female,NA,I'm not sure,1003008.700000003,NA,3640,NA,"{""product_choice"":""C""}",choice,cdt,trinary,repulsion_A,2,televisions,null,null,null,null,null,null,2,30,40,20,100,90,100,Screen size,Average lifespan,NA,NA
NA,NA,NA,NA,NA,choice_trial_setup,html-keyboard-response,76,511639,0.0-4.0-0.36,333,1,2025-05-08T21:40:29Z,b60275e29fe2361ab97ac0ac217840d7,"Mozilla/5.0 (Macintosh; Intel Mac OS X 10_15_7) AppleWebKit/537.36 (KHTML, like Gecko) Chrome/116.0.0.0 Safari/537.36",Macintosh,Chrome,116.0.0.0,OS X,10_15_7,https://5puzkbbxv1.cognition.run/?sona_id=52248,"en-US,en;q=0.9",4hfm0d1s1bafxuk,21,"[""Asian""]",No,Female,NA,I'm not sure,1003008.700000003,NA,null,<p></p>,null,choice,wb,binary,catch,null,televisions,90,90,15,5,null,null,1,NA,NA,NA,NA,NA,NA,NA,NA,NA,NA
NA,NA,NA,NA,NA,choice_trial,survey-html-form,77,514009,0.0-4.0-1.36,333,1,2025-05-08T21:40:29Z,b60275e29fe2361ab97ac0ac217840d7,"Mozilla/5.0 (Macintosh; Intel Mac OS X 10_15_7) AppleWebKit/537.36 (KHTML, like Gecko) Chrome/116.0.0.0 Safari/537.36",Macintosh,Chrome,116.0.0.0,OS X,10_15_7,https://5puzkbbxv1.cognition.run/?sona_id=52248,"en-US,en;q=0.9",4hfm0d1s1bafxuk,21,"[""Asian""]",No,Female,NA,I'm not sure,1003008.700000003,NA,2362,NA,"{""product_choice"":""B""}",choice,wb,binary,catch,null,televisions,90,90,15,5,null,null,1,null,null,null,null,null,null,Screen size,Average lifespan,NA,NA
NA,NA,NA,NA,NA,choice_trial_setup,html-keyboard-response,78,514325,0.0-4.0-0.37,333,1,2025-05-08T21:40:29Z,b60275e29fe2361ab97ac0ac217840d7,"Mozilla/5.0 (Macintosh; Intel Mac OS X 10_15_7) AppleWebKit/537.36 (KHTML, like Gecko) Chrome/116.0.0.0 Safari/537.36",Macintosh,Chrome,116.0.0.0,OS X,10_15_7,https://5puzkbbxv1.cognition.run/?sona_id=52248,"en-US,en;q=0.9",4hfm0d1s1bafxuk,21,"[""Asian""]",No,Female,NA,I'm not sure,1003008.700000003,NA,null,<p></p>,null,choice,tdc,trinary,repulsion_A,1,televisions,null,null,null,null,null,null,1,NA,NA,NA,NA,NA,NA,NA,NA,NA,NA
NA,NA,NA,NA,NA,choice_trial,survey-html-form,79,517339,0.0-4.0-1.37,333,1,2025-05-08T21:40:29Z,b60275e29fe2361ab97ac0ac217840d7,"Mozilla/5.0 (Macintosh; Intel Mac OS X 10_15_7) AppleWebKit/537.36 (KHTML, like Gecko) Chrome/116.0.0.0 Safari/537.36",Macintosh,Chrome,116.0.0.0,OS X,10_15_7,https://5puzkbbxv1.cognition.run/?sona_id=52248,"en-US,en;q=0.9",4hfm0d1s1bafxuk,21,"[""Asian""]",No,Female,NA,I'm not sure,1003008.700000003,NA,3009,NA,"{""product_choice"":""A""}",choice,tdc,trinary,repulsion_A,1,televisions,null,null,null,null,null,null,1,100,90,100,30,40,20,Screen size,Average lifespan,NA,NA
NA,NA,NA,NA,NA,choice_trial_setup,html-keyboard-response,80,517652,0.0-4.0-0.38,333,1,2025-05-08T21:40:29Z,b60275e29fe2361ab97ac0ac217840d7,"Mozilla/5.0 (Macintosh; Intel Mac OS X 10_15_7) AppleWebKit/537.36 (KHTML, like Gecko) Chrome/116.0.0.0 Safari/537.36",Macintosh,Chrome,116.0.0.0,OS X,10_15_7,https://5puzkbbxv1.cognition.run/?sona_id=52248,"en-US,en;q=0.9",4hfm0d1s1bafxuk,21,"[""Asian""]",No,Female,NA,I'm not sure,1003008.700000003,NA,null,<p></p>,null,choice,dct,trinary,repulsion_A,2,microwave ovens,null,null,null,null,null,null,1,NA,NA,NA,NA,NA,NA,NA,NA,NA,NA
NA,NA,NA,NA,NA,choice_trial,survey-html-form,81,519653,0.0-4.0-1.38,333,1,2025-05-08T21:40:29Z,b60275e29fe2361ab97ac0ac217840d7,"Mozilla/5.0 (Macintosh; Intel Mac OS X 10_15_7) AppleWebKit/537.36 (KHTML, like Gecko) Chrome/116.0.0.0 Safari/537.36",Macintosh,Chrome,116.0.0.0,OS X,10_15_7,https://5puzkbbxv1.cognition.run/?sona_id=52248,"en-US,en;q=0.9",4hfm0d1s1bafxuk,21,"[""Asian""]",No,Female,NA,I'm not sure,1003008.700000003,NA,1995,NA,"{""product_choice"":""C""}",choice,dct,trinary,repulsion_A,2,microwave ovens,null,null,null,null,null,null,1,30,40,20,100,90,100,Warranty,Cooking power,NA,NA
NA,NA,NA,NA,NA,choice_trial_setup,html-keyboard-response,82,519966,0.0-4.0-0.39,333,1,2025-05-08T21:40:29Z,b60275e29fe2361ab97ac0ac217840d7,"Mozilla/5.0 (Macintosh; Intel Mac OS X 10_15_7) AppleWebKit/537.36 (KHTML, like Gecko) Chrome/116.0.0.0 Safari/537.36",Macintosh,Chrome,116.0.0.0,OS X,10_15_7,https://5puzkbbxv1.cognition.run/?sona_id=52248,"en-US,en;q=0.9",4hfm0d1s1bafxuk,21,"[""Asian""]",No,Female,NA,I'm not sure,1003008.700000003,NA,null,<p></p>,null,choice,ct,binary,attraction,NA,washing machines,null,null,null,null,null,null,2,NA,NA,NA,NA,NA,NA,NA,NA,NA,NA
NA,NA,NA,NA,NA,choice_trial,survey-html-form,83,522061,0.0-4.0-1.39,333,1,2025-05-08T21:40:29Z,b60275e29fe2361ab97ac0ac217840d7,"Mozilla/5.0 (Macintosh; Intel Mac OS X 10_15_7) AppleWebKit/537.36 (KHTML, like Gecko) Chrome/116.0.0.0 Safari/537.36",Macintosh,Chrome,116.0.0.0,OS X,10_15_7,https://5puzkbbxv1.cognition.run/?sona_id=52248,"en-US,en;q=0.9",4hfm0d1s1bafxuk,21,"[""Asian""]",No,Female,NA,I'm not sure,1003008.700000003,NA,2089,NA,"{""product_choice"":""A""}",choice,ct,binary,attraction,NA,washing machines,null,null,null,null,null,null,2,60,50,null,50,60,null,Average lifespan,Energy savings,NA,NA
NA,NA,NA,NA,NA,choice_trial_setup,html-keyboard-response,84,522367,0.0-4.0-0.40,333,1,2025-05-08T21:40:29Z,b60275e29fe2361ab97ac0ac217840d7,"Mozilla/5.0 (Macintosh; Intel Mac OS X 10_15_7) AppleWebKit/537.36 (KHTML, like Gecko) Chrome/116.0.0.0 Safari/537.36",Macintosh,Chrome,116.0.0.0,OS X,10_15_7,https://5puzkbbxv1.cognition.run/?sona_id=52248,"en-US,en;q=0.9",4hfm0d1s1bafxuk,21,"[""Asian""]",No,Female,NA,I'm not sure,1003008.700000003,NA,null,<p></p>,null,choice,cdt,trinary,attraction,1,televisions,null,null,null,null,null,null,2,NA,NA,NA,NA,NA,NA,NA,NA,NA,NA
NA,NA,NA,NA,NA,choice_trial,survey-html-form,85,525138,0.0-4.0-1.40,333,1,2025-05-08T21:40:29Z,b60275e29fe2361ab97ac0ac217840d7,"Mozilla/5.0 (Macintosh; Intel Mac OS X 10_15_7) AppleWebKit/537.36 (KHTML, like Gecko) Chrome/116.0.0.0 Safari/537.36",Macintosh,Chrome,116.0.0.0,OS X,10_15_7,https://5puzkbbxv1.cognition.run/?sona_id=52248,"en-US,en;q=0.9",4hfm0d1s1bafxuk,21,"[""Asian""]",No,Female,NA,I'm not sure,1003008.700000003,NA,2766,NA,"{""product_choice"":""A""}",choice,cdt,trinary,attraction,1,televisions,null,null,null,null,null,null,2,60,50,60,50,60,40,Screen size,Average lifespan,NA,NA
NA,NA,NA,NA,NA,choice_trial_setup,html-keyboard-response,86,525453,0.0-4.0-0.41,333,1,2025-05-08T21:40:29Z,b60275e29fe2361ab97ac0ac217840d7,"Mozilla/5.0 (Macintosh; Intel Mac OS X 10_15_7) AppleWebKit/537.36 (KHTML, like Gecko) Chrome/116.0.0.0 Safari/537.36",Macintosh,Chrome,116.0.0.0,OS X,10_15_7,https://5puzkbbxv1.cognition.run/?sona_id=52248,"en-US,en;q=0.9",4hfm0d1s1bafxuk,21,"[""Asian""]",No,Female,NA,I'm not sure,1003008.700000003,NA,null,<p></p>,null,choice,ct,binary,repulsion,2,laptops,null,null,null,null,null,null,1,NA,NA,NA,NA,NA,NA,NA,NA,NA,NA
NA,NA,NA,NA,NA,choice_trial,survey-html-form,87,527563,0.0-4.0-1.41,333,1,2025-05-08T21:40:29Z,b60275e29fe2361ab97ac0ac217840d7,"Mozilla/5.0 (Macintosh; Intel Mac OS X 10_15_7) AppleWebKit/537.36 (KHTML, like Gecko) Chrome/116.0.0.0 Safari/537.36",Macintosh,Chrome,116.0.0.0,OS X,10_15_7,https://5puzkbbxv1.cognition.run/?sona_id=52248,"en-US,en;q=0.9",4hfm0d1s1bafxuk,21,"[""Asian""]",No,Female,NA,I'm not sure,1003008.700000003,NA,2103,NA,"{""product_choice"":""B""}",choice,ct,binary,repulsion,2,laptops,null,null,null,null,null,null,1,30,40,null,100,90,null,Processing speed,Memory (RAM),NA,NA
NA,NA,NA,NA,NA,choice_trial_setup,html-keyboard-response,88,527875,0.0-4.0-0.42,333,1,2025-05-08T21:40:29Z,b60275e29fe2361ab97ac0ac217840d7,"Mozilla/5.0 (Macintosh; Intel Mac OS X 10_15_7) AppleWebKit/537.36 (KHTML, like Gecko) Chrome/116.0.0.0 Safari/537.36",Macintosh,Chrome,116.0.0.0,OS X,10_15_7,https://5puzkbbxv1.cognition.run/?sona_id=52248,"en-US,en;q=0.9",4hfm0d1s1bafxuk,21,"[""Asian""]",No,Female,NA,I'm not sure,1003008.700000003,NA,null,<p></p>,null,choice,dtc,trinary,repulsion_B,1,televisions,null,null,null,null,null,null,1,NA,NA,NA,NA,NA,NA,NA,NA,NA,NA
NA,NA,NA,NA,NA,choice_trial,survey-html-form,89,530074,0.0-4.0-1.42,333,1,2025-05-08T21:40:29Z,b60275e29fe2361ab97ac0ac217840d7,"Mozilla/5.0 (Macintosh; Intel Mac OS X 10_15_7) AppleWebKit/537.36 (KHTML, like Gecko) Chrome/116.0.0.0 Safari/537.36",Macintosh,Chrome,116.0.0.0,OS X,10_15_7,https://5puzkbbxv1.cognition.run/?sona_id=52248,"en-US,en;q=0.9",4hfm0d1s1bafxuk,21,"[""Asian""]",No,Female,NA,I'm not sure,1003008.700000003,NA,2191,NA,"{""product_choice"":""C""}",choice,dtc,trinary,repulsion_B,1,televisions,null,null,null,null,null,null,1,90,100,80,40,30,40,Screen size,Average lifespan,NA,NA
NA,NA,NA,NA,NA,choice_trial_setup,html-keyboard-response,90,530386,0.0-4.0-0.43,333,1,2025-05-08T21:40:29Z,b60275e29fe2361ab97ac0ac217840d7,"Mozilla/5.0 (Macintosh; Intel Mac OS X 10_15_7) AppleWebKit/537.36 (KHTML, like Gecko) Chrome/116.0.0.0 Safari/537.36",Macintosh,Chrome,116.0.0.0,OS X,10_15_7,https://5puzkbbxv1.cognition.run/?sona_id=52248,"en-US,en;q=0.9",4hfm0d1s1bafxuk,21,"[""Asian""]",No,Female,NA,I'm not sure,1003008.700000003,NA,null,<p></p>,null,choice,tc,binary,repulsion,1,televisions,null,null,null,null,null,null,1,NA,NA,NA,NA,NA,NA,NA,NA,NA,NA
NA,NA,NA,NA,NA,choice_trial,survey-html-form,91,534426,0.0-4.0-1.43,333,1,2025-05-08T21:40:29Z,b60275e29fe2361ab97ac0ac217840d7,"Mozilla/5.0 (Macintosh; Intel Mac OS X 10_15_7) AppleWebKit/537.36 (KHTML, like Gecko) Chrome/116.0.0.0 Safari/537.36",Macintosh,Chrome,116.0.0.0,OS X,10_15_7,https://5puzkbbxv1.cognition.run/?sona_id=52248,"en-US,en;q=0.9",4hfm0d1s1bafxuk,21,"[""Asian""]",No,Female,NA,I'm not sure,1003008.700000003,NA,4034,NA,"{""product_choice"":""A""}",choice,tc,binary,repulsion,1,televisions,null,null,null,null,null,null,1,100,90,null,30,40,null,Screen size,Average lifespan,NA,NA
NA,NA,NA,NA,NA,post_trials_message,html-button-response,92,536941,0.0-5.0,333,1,2025-05-08T21:40:29Z,b60275e29fe2361ab97ac0ac217840d7,"Mozilla/5.0 (Macintosh; Intel Mac OS X 10_15_7) AppleWebKit/537.36 (KHTML, like Gecko) Chrome/116.0.0.0 Safari/537.36",Macintosh,Chrome,116.0.0.0,OS X,10_15_7,https://5puzkbbxv1.cognition.run/?sona_id=52248,"en-US,en;q=0.9",4hfm0d1s1bafxuk,21,"[""Asian""]",No,Female,NA,I'm not sure,1003008.700000003,NA,2508,<p> <b>Thank you for your patience!</b></p><p>  The study will be done after completing a brief form. </p>,0,NA,NA,NA,NA,NA,NA,NA,NA,NA,NA,NA,NA,NA,NA,NA,NA,NA,NA,NA,NA,NA,NA,NA
NA,NA,NA,NA,NA,survey_message,survey-text,93,732187,0.0-6.0,333,1,2025-05-08T21:40:29Z,b60275e29fe2361ab97ac0ac217840d7,"Mozilla/5.0 (Macintosh; Intel Mac OS X 10_15_7) AppleWebKit/537.36 (KHTML, like Gecko) Chrome/116.0.0.0 Safari/537.36",Macintosh,Chrome,116.0.0.0,OS X,10_15_7,https://5puzkbbxv1.cognition.run/?sona_id=52248,"en-US,en;q=0.9",4hfm0d1s1bafxuk,21,"[""Asian""]",No,Female,NA,I'm not sure,1003008.700000003,NA,195236,NA,"{""Q0"":""I tried to choose the option with at least one category being 100 for most of the appliances because I believe that it is better to market one quality of the product as the best in the market and the other qualities being okay and still above average, rather than both qualities being okay/above average, but not the best. ""}",NA,NA,NA,NA,NA,NA,NA,NA,NA,NA,NA,NA,NA,NA,NA,NA,NA,NA,NA,NA,NA,"I tried to choose the option with at least one category being 100 for most of the appliances because I believe that it is better to market one quality of the product as the best in the market and the other qualities being okay and still above average, rather than both qualities being okay/above average, but not the best.",NA
NA,NA,NA,NA,NA,demo_age,survey-text,94,735374,0.0-7.0,333,1,2025-05-08T21:40:29Z,b60275e29fe2361ab97ac0ac217840d7,"Mozilla/5.0 (Macintosh; Intel Mac OS X 10_15_7) AppleWebKit/537.36 (KHTML, like Gecko) Chrome/116.0.0.0 Safari/537.36",Macintosh,Chrome,116.0.0.0,OS X,10_15_7,https://5puzkbbxv1.cognition.run/?sona_id=52248,"en-US,en;q=0.9",4hfm0d1s1bafxuk,21,"[""Asian""]",No,Female,NA,I'm not sure,1003008.700000003,NA,3181,NA,"{""Q0"":""21""}",NA,NA,NA,NA,NA,NA,NA,NA,NA,NA,NA,NA,NA,NA,NA,NA,NA,NA,NA,NA,NA,NA,NA
NA,NA,NA,NA,NA,demo_race,survey-multi-select,95,738027,0.0-8.0,333,1,2025-05-08T21:40:29Z,b60275e29fe2361ab97ac0ac217840d7,"Mozilla/5.0 (Macintosh; Intel Mac OS X 10_15_7) AppleWebKit/537.36 (KHTML, like Gecko) Chrome/116.0.0.0 Safari/537.36",Macintosh,Chrome,116.0.0.0,OS X,10_15_7,https://5puzkbbxv1.cognition.run/?sona_id=52248,"en-US,en;q=0.9",4hfm0d1s1bafxuk,21,"[""Asian""]",No,Female,NA,I'm not sure,1003008.700000003,NA,2645,NA,"{""Q0"":[""Asian""]}",NA,NA,NA,NA,NA,NA,NA,NA,NA,NA,NA,NA,NA,NA,NA,NA,NA,NA,NA,NA,NA,NA,[0]
NA,NA,NA,NA,NA,demo_ethnicity_gender,survey-multi-choice,96,747527,0.0-9.0,333,1,2025-05-08T21:40:29Z,b60275e29fe2361ab97ac0ac217840d7,"Mozilla/5.0 (Macintosh; Intel Mac OS X 10_15_7) AppleWebKit/537.36 (KHTML, like Gecko) Chrome/116.0.0.0 Safari/537.36",Macintosh,Chrome,116.0.0.0,OS X,10_15_7,https://5puzkbbxv1.cognition.run/?sona_id=52248,"en-US,en;q=0.9",4hfm0d1s1bafxuk,21,"[""Asian""]",No,Female,NA,I'm not sure,1003008.700000003,NA,9491,NA,"{""Q0"":""No"",""Q1"":""Female""}",NA,NA,NA,NA,NA,NA,NA,NA,NA,NA,NA,NA,NA,NA,NA,NA,NA,NA,NA,NA,NA,NA,"[0,1]"
NA,NA,NA,NA,NA,demo_countries,survey-text,97,756264,0.0-10.0,333,1,2025-05-08T21:40:29Z,b60275e29fe2361ab97ac0ac217840d7,"Mozilla/5.0 (Macintosh; Intel Mac OS X 10_15_7) AppleWebKit/537.36 (KHTML, like Gecko) Chrome/116.0.0.0 Safari/537.36",Macintosh,Chrome,116.0.0.0,OS X,10_15_7,https://5puzkbbxv1.cognition.run/?sona_id=52248,"en-US,en;q=0.9",4hfm0d1s1bafxuk,21,"[""Asian""]",No,Female,NA,I'm not sure,1003008.700000003,NA,8719,NA,"{""Q0"":""NA""}",NA,NA,NA,NA,NA,NA,NA,NA,NA,NA,NA,NA,NA,NA,NA,NA,NA,NA,NA,NA,NA,NA,NA
NA,NA,NA,NA,NA,demo_prev_study,survey-multi-choice,98,771141,0.0-11.0,333,1,2025-05-08T21:40:29Z,b60275e29fe2361ab97ac0ac217840d7,"Mozilla/5.0 (Macintosh; Intel Mac OS X 10_15_7) AppleWebKit/537.36 (KHTML, like Gecko) Chrome/116.0.0.0 Safari/537.36",Macintosh,Chrome,116.0.0.0,OS X,10_15_7,https://5puzkbbxv1.cognition.run/?sona_id=52248,"en-US,en;q=0.9",4hfm0d1s1bafxuk,21,"[""Asian""]",No,Female,NA,I'm not sure,1003008.700000003,NA,14871,NA,"{""Q0"":""I'm not sure""}",NA,NA,NA,NA,NA,NA,NA,NA,NA,NA,NA,NA,NA,NA,NA,NA,NA,NA,NA,NA,NA,NA,[0]
NA,NA,NA,NA,NA,post_survey_message,html-keyboard-response,99,778543,0.0-12.0,333,1,2025-05-08T21:40:29Z,b60275e29fe2361ab97ac0ac217840d7,"Mozilla/5.0 (Macintosh; Intel Mac OS X 10_15_7) AppleWebKit/537.36 (KHTML, like Gecko) Chrome/116.0.0.0 Safari/537.36",Macintosh,Chrome,116.0.0.0,OS X,10_15_7,https://5puzkbbxv1.cognition.run/?sona_id=52248,"en-US,en;q=0.9",4hfm0d1s1bafxuk,21,"[""Asian""]",No,Female,NA,I'm not sure,1003008.700000003,NA,7393,NA,j,NA,NA,NA,NA,NA,NA,NA,NA,NA,NA,NA,NA,NA,NA,NA,NA,NA,NA,NA,NA,NA,NA,NA
NA,NA,NA,NA,NA,debrief,image-keyboard-response,100,1003007,0.0-13.0,333,1,2025-05-08T21:40:29Z,b60275e29fe2361ab97ac0ac217840d7,"Mozilla/5.0 (Macintosh; Intel Mac OS X 10_15_7) AppleWebKit/537.36 (KHTML, like Gecko) Chrome/116.0.0.0 Safari/537.36",Macintosh,Chrome,116.0.0.0,OS X,10_15_7,https://5puzkbbxv1.cognition.run/?sona_id=52248,"en-US,en;q=0.9",4hfm0d1s1bafxuk,21,"[""Asian""]",No,Female,NA,I'm not sure,1003008.700000003,NA,224443,Judg_choice_debrief.png,p,NA,NA,NA,NA,NA,NA,NA,NA,NA,NA,NA,NA,NA,NA,NA,NA,NA,NA,NA,NA,NA,NA,NA
