success,timeout,failed_images,failed_audio,failed_video,screen_id,trial_type,trial_index,time_elapsed,internal_node_id,run_id,condition,recorded_at,source_code_version,user_agent,device,browser,browser_version,platform,platform_version,referer,accept_language,ppt_id,age,race,ethnicity,gender,other_countries,prev_study,exp_duration,view_history,rt,stimulus,response,phase,order,set,effect,t_high,category,d1_best,d2_best,d1_worst1,d2_worst1,d1_worst2,d2_worst2,first_dim,d1_t,d1_c,d1_d,d2_t,d2_c,d2_d,d1_name,d2_name,strategy_response,question_order
TRUE,FALSE,[],[],[],img preload,preload,0,2358,0.0-0.0,336,1,2025-05-08T21:57:28Z,b60275e29fe2361ab97ac0ac217840d7,"Mozilla/5.0 (Macintosh; Intel Mac OS X 10_15_7) AppleWebKit/537.36 (KHTML, like Gecko) Chrome/129.0.0.0 Safari/537.36",Macintosh,Chrome,129.0.0.0,OS X,10_15_7,https://5puzkbbxv1.cognition.run/?sona_id=51674,"en-US,en;q=0.9",wvxezp9bg8x6krn,20,"[""White""]",No,Female,NA,I'm not sure,341725,NA,NA,NA,NA,NA,NA,NA,NA,NA,NA,NA,NA,NA,NA,NA,NA,NA,NA,NA,NA,NA,NA,NA,NA,NA,NA,NA
NA,NA,NA,NA,NA,computer_message,instructions,1,5806,0.0-1.0,336,1,2025-05-08T21:57:28Z,b60275e29fe2361ab97ac0ac217840d7,"Mozilla/5.0 (Macintosh; Intel Mac OS X 10_15_7) AppleWebKit/537.36 (KHTML, like Gecko) Chrome/129.0.0.0 Safari/537.36",Macintosh,Chrome,129.0.0.0,OS X,10_15_7,https://5puzkbbxv1.cognition.run/?sona_id=51674,"en-US,en;q=0.9",wvxezp9bg8x6krn,20,"[""White""]",No,Female,NA,I'm not sure,341725,"[{""page_index"":0,""viewing_time"":3447}]",3448,NA,NA,NA,NA,NA,NA,NA,NA,NA,NA,NA,NA,NA,NA,NA,NA,NA,NA,NA,NA,NA,NA,NA,NA,NA
TRUE,NA,NA,NA,NA,NA,fullscreen,2,8735,0.0-2.0,336,1,2025-05-08T21:57:28Z,b60275e29fe2361ab97ac0ac217840d7,"Mozilla/5.0 (Macintosh; Intel Mac OS X 10_15_7) AppleWebKit/537.36 (KHTML, like Gecko) Chrome/129.0.0.0 Safari/537.36",Macintosh,Chrome,129.0.0.0,OS X,10_15_7,https://5puzkbbxv1.cognition.run/?sona_id=51674,"en-US,en;q=0.9",wvxezp9bg8x6krn,20,"[""White""]",No,Female,NA,I'm not sure,341725,NA,1926,NA,NA,NA,NA,NA,NA,NA,NA,NA,NA,NA,NA,NA,NA,NA,NA,NA,NA,NA,NA,NA,NA,NA,NA,NA
NA,NA,NA,NA,NA,choice_instructions,instructions,3,46592,0.0-3.0,336,1,2025-05-08T21:57:28Z,b60275e29fe2361ab97ac0ac217840d7,"Mozilla/5.0 (Macintosh; Intel Mac OS X 10_15_7) AppleWebKit/537.36 (KHTML, like Gecko) Chrome/129.0.0.0 Safari/537.36",Macintosh,Chrome,129.0.0.0,OS X,10_15_7,https://5puzkbbxv1.cognition.run/?sona_id=51674,"en-US,en;q=0.9",wvxezp9bg8x6krn,20,"[""White""]",No,Female,NA,I'm not sure,341725,"[{""page_index"":0,""viewing_time"":2492},{""page_index"":1,""viewing_time"":4946},{""page_index"":2,""viewing_time"":7185},{""page_index"":3,""viewing_time"":2892},{""page_index"":4,""viewing_time"":2647},{""page_index"":5,""viewing_time"":10923},{""page_index"":6,""viewing_time"":6768}]",37855,NA,NA,NA,NA,NA,NA,NA,NA,NA,NA,NA,NA,NA,NA,NA,NA,NA,NA,NA,NA,NA,NA,NA,NA,NA
NA,NA,NA,NA,NA,choice_trial_setup,html-keyboard-response,4,46897,0.0-4.0-0.0,336,1,2025-05-08T21:57:28Z,b60275e29fe2361ab97ac0ac217840d7,"Mozilla/5.0 (Macintosh; Intel Mac OS X 10_15_7) AppleWebKit/537.36 (KHTML, like Gecko) Chrome/129.0.0.0 Safari/537.36",Macintosh,Chrome,129.0.0.0,OS X,10_15_7,https://5puzkbbxv1.cognition.run/?sona_id=51674,"en-US,en;q=0.9",wvxezp9bg8x6krn,20,"[""White""]",No,Female,NA,I'm not sure,341725,NA,null,<p></p>,null,choice,dct,trinary,attraction,2,microwave ovens,null,null,null,null,null,null,1,NA,NA,NA,NA,NA,NA,NA,NA,NA,NA
NA,NA,NA,NA,NA,choice_trial,survey-html-form,5,56650,0.0-4.0-1.0,336,1,2025-05-08T21:57:28Z,b60275e29fe2361ab97ac0ac217840d7,"Mozilla/5.0 (Macintosh; Intel Mac OS X 10_15_7) AppleWebKit/537.36 (KHTML, like Gecko) Chrome/129.0.0.0 Safari/537.36",Macintosh,Chrome,129.0.0.0,OS X,10_15_7,https://5puzkbbxv1.cognition.run/?sona_id=51674,"en-US,en;q=0.9",wvxezp9bg8x6krn,20,"[""White""]",No,Female,NA,I'm not sure,341725,NA,9748,NA,"{""product_choice"":""B""}",choice,dct,trinary,attraction,2,microwave ovens,null,null,null,null,null,null,1,50,60,40,60,50,60,Warranty,Cooking power,NA,NA
NA,NA,NA,NA,NA,choice_trial_setup,html-keyboard-response,6,56953,0.0-4.0-0.1,336,1,2025-05-08T21:57:28Z,b60275e29fe2361ab97ac0ac217840d7,"Mozilla/5.0 (Macintosh; Intel Mac OS X 10_15_7) AppleWebKit/537.36 (KHTML, like Gecko) Chrome/129.0.0.0 Safari/537.36",Macintosh,Chrome,129.0.0.0,OS X,10_15_7,https://5puzkbbxv1.cognition.run/?sona_id=51674,"en-US,en;q=0.9",wvxezp9bg8x6krn,20,"[""White""]",No,Female,NA,I'm not sure,341725,NA,null,<p></p>,null,choice,tdc,trinary,repulsion_A,1,televisions,null,null,null,null,null,null,2,NA,NA,NA,NA,NA,NA,NA,NA,NA,NA
NA,NA,NA,NA,NA,choice_trial,survey-html-form,7,66241,0.0-4.0-1.1,336,1,2025-05-08T21:57:28Z,b60275e29fe2361ab97ac0ac217840d7,"Mozilla/5.0 (Macintosh; Intel Mac OS X 10_15_7) AppleWebKit/537.36 (KHTML, like Gecko) Chrome/129.0.0.0 Safari/537.36",Macintosh,Chrome,129.0.0.0,OS X,10_15_7,https://5puzkbbxv1.cognition.run/?sona_id=51674,"en-US,en;q=0.9",wvxezp9bg8x6krn,20,"[""White""]",No,Female,NA,I'm not sure,341725,NA,9286,NA,"{""product_choice"":""B""}",choice,tdc,trinary,repulsion_A,1,televisions,null,null,null,null,null,null,2,100,90,100,30,40,20,Screen size,Average lifespan,NA,NA
NA,NA,NA,NA,NA,choice_trial_setup,html-keyboard-response,8,66544,0.0-4.0-0.2,336,1,2025-05-08T21:57:28Z,b60275e29fe2361ab97ac0ac217840d7,"Mozilla/5.0 (Macintosh; Intel Mac OS X 10_15_7) AppleWebKit/537.36 (KHTML, like Gecko) Chrome/129.0.0.0 Safari/537.36",Macintosh,Chrome,129.0.0.0,OS X,10_15_7,https://5puzkbbxv1.cognition.run/?sona_id=51674,"en-US,en;q=0.9",wvxezp9bg8x6krn,20,"[""White""]",No,Female,NA,I'm not sure,341725,NA,null,<p></p>,null,choice,tc,binary,repulsion,2,washing machines,null,null,null,null,null,null,1,NA,NA,NA,NA,NA,NA,NA,NA,NA,NA
NA,NA,NA,NA,NA,choice_trial,survey-html-form,9,70604,0.0-4.0-1.2,336,1,2025-05-08T21:57:28Z,b60275e29fe2361ab97ac0ac217840d7,"Mozilla/5.0 (Macintosh; Intel Mac OS X 10_15_7) AppleWebKit/537.36 (KHTML, like Gecko) Chrome/129.0.0.0 Safari/537.36",Macintosh,Chrome,129.0.0.0,OS X,10_15_7,https://5puzkbbxv1.cognition.run/?sona_id=51674,"en-US,en;q=0.9",wvxezp9bg8x6krn,20,"[""White""]",No,Female,NA,I'm not sure,341725,NA,4057,NA,"{""product_choice"":""B""}",choice,tc,binary,repulsion,2,washing machines,null,null,null,null,null,null,1,30,40,null,100,90,null,Average lifespan,Energy savings,NA,NA
NA,NA,NA,NA,NA,choice_trial_setup,html-keyboard-response,10,70907,0.0-4.0-0.3,336,1,2025-05-08T21:57:28Z,b60275e29fe2361ab97ac0ac217840d7,"Mozilla/5.0 (Macintosh; Intel Mac OS X 10_15_7) AppleWebKit/537.36 (KHTML, like Gecko) Chrome/129.0.0.0 Safari/537.36",Macintosh,Chrome,129.0.0.0,OS X,10_15_7,https://5puzkbbxv1.cognition.run/?sona_id=51674,"en-US,en;q=0.9",wvxezp9bg8x6krn,20,"[""White""]",No,Female,NA,I'm not sure,341725,NA,null,<p></p>,null,choice,tcd,trinary,repulsion_A,1,washing machines,null,null,null,null,null,null,1,NA,NA,NA,NA,NA,NA,NA,NA,NA,NA
NA,NA,NA,NA,NA,choice_trial,survey-html-form,11,78520,0.0-4.0-1.3,336,1,2025-05-08T21:57:28Z,b60275e29fe2361ab97ac0ac217840d7,"Mozilla/5.0 (Macintosh; Intel Mac OS X 10_15_7) AppleWebKit/537.36 (KHTML, like Gecko) Chrome/129.0.0.0 Safari/537.36",Macintosh,Chrome,129.0.0.0,OS X,10_15_7,https://5puzkbbxv1.cognition.run/?sona_id=51674,"en-US,en;q=0.9",wvxezp9bg8x6krn,20,"[""White""]",No,Female,NA,I'm not sure,341725,NA,7611,NA,"{""product_choice"":""C""}",choice,tcd,trinary,repulsion_A,1,washing machines,null,null,null,null,null,null,1,100,90,100,30,40,20,Average lifespan,Energy savings,NA,NA
NA,NA,NA,NA,NA,choice_trial_setup,html-keyboard-response,12,78823,0.0-4.0-0.4,336,1,2025-05-08T21:57:28Z,b60275e29fe2361ab97ac0ac217840d7,"Mozilla/5.0 (Macintosh; Intel Mac OS X 10_15_7) AppleWebKit/537.36 (KHTML, like Gecko) Chrome/129.0.0.0 Safari/537.36",Macintosh,Chrome,129.0.0.0,OS X,10_15_7,https://5puzkbbxv1.cognition.run/?sona_id=51674,"en-US,en;q=0.9",wvxezp9bg8x6krn,20,"[""White""]",No,Female,NA,I'm not sure,341725,NA,null,<p></p>,null,choice,ct,binary,repulsion,1,microwave ovens,null,null,null,null,null,null,1,NA,NA,NA,NA,NA,NA,NA,NA,NA,NA
NA,NA,NA,NA,NA,choice_trial,survey-html-form,13,84925,0.0-4.0-1.4,336,1,2025-05-08T21:57:28Z,b60275e29fe2361ab97ac0ac217840d7,"Mozilla/5.0 (Macintosh; Intel Mac OS X 10_15_7) AppleWebKit/537.36 (KHTML, like Gecko) Chrome/129.0.0.0 Safari/537.36",Macintosh,Chrome,129.0.0.0,OS X,10_15_7,https://5puzkbbxv1.cognition.run/?sona_id=51674,"en-US,en;q=0.9",wvxezp9bg8x6krn,20,"[""White""]",No,Female,NA,I'm not sure,341725,NA,6100,NA,"{""product_choice"":""A""}",choice,ct,binary,repulsion,1,microwave ovens,null,null,null,null,null,null,1,100,90,null,30,40,null,Warranty,Cooking power,NA,NA
NA,NA,NA,NA,NA,choice_trial_setup,html-keyboard-response,14,85228,0.0-4.0-0.5,336,1,2025-05-08T21:57:28Z,b60275e29fe2361ab97ac0ac217840d7,"Mozilla/5.0 (Macintosh; Intel Mac OS X 10_15_7) AppleWebKit/537.36 (KHTML, like Gecko) Chrome/129.0.0.0 Safari/537.36",Macintosh,Chrome,129.0.0.0,OS X,10_15_7,https://5puzkbbxv1.cognition.run/?sona_id=51674,"en-US,en;q=0.9",wvxezp9bg8x6krn,20,"[""White""]",No,Female,NA,I'm not sure,341725,NA,null,<p></p>,null,choice,dct,trinary,attraction,1,microwave ovens,null,null,null,null,null,null,2,NA,NA,NA,NA,NA,NA,NA,NA,NA,NA
NA,NA,NA,NA,NA,choice_trial,survey-html-form,15,90644,0.0-4.0-1.5,336,1,2025-05-08T21:57:28Z,b60275e29fe2361ab97ac0ac217840d7,"Mozilla/5.0 (Macintosh; Intel Mac OS X 10_15_7) AppleWebKit/537.36 (KHTML, like Gecko) Chrome/129.0.0.0 Safari/537.36",Macintosh,Chrome,129.0.0.0,OS X,10_15_7,https://5puzkbbxv1.cognition.run/?sona_id=51674,"en-US,en;q=0.9",wvxezp9bg8x6krn,20,"[""White""]",No,Female,NA,I'm not sure,341725,NA,5413,NA,"{""product_choice"":""C""}",choice,dct,trinary,attraction,1,microwave ovens,null,null,null,null,null,null,2,60,50,60,50,60,40,Warranty,Cooking power,NA,NA
NA,NA,NA,NA,NA,choice_trial_setup,html-keyboard-response,16,90947,0.0-4.0-0.6,336,1,2025-05-08T21:57:28Z,b60275e29fe2361ab97ac0ac217840d7,"Mozilla/5.0 (Macintosh; Intel Mac OS X 10_15_7) AppleWebKit/537.36 (KHTML, like Gecko) Chrome/129.0.0.0 Safari/537.36",Macintosh,Chrome,129.0.0.0,OS X,10_15_7,https://5puzkbbxv1.cognition.run/?sona_id=51674,"en-US,en;q=0.9",wvxezp9bg8x6krn,20,"[""White""]",No,Female,NA,I'm not sure,341725,NA,null,<p></p>,null,choice,ctd,trinary,attraction,2,washing machines,null,null,null,null,null,null,1,NA,NA,NA,NA,NA,NA,NA,NA,NA,NA
NA,NA,NA,NA,NA,choice_trial,survey-html-form,17,99435,0.0-4.0-1.6,336,1,2025-05-08T21:57:28Z,b60275e29fe2361ab97ac0ac217840d7,"Mozilla/5.0 (Macintosh; Intel Mac OS X 10_15_7) AppleWebKit/537.36 (KHTML, like Gecko) Chrome/129.0.0.0 Safari/537.36",Macintosh,Chrome,129.0.0.0,OS X,10_15_7,https://5puzkbbxv1.cognition.run/?sona_id=51674,"en-US,en;q=0.9",wvxezp9bg8x6krn,20,"[""White""]",No,Female,NA,I'm not sure,341725,NA,8485,NA,"{""product_choice"":""A""}",choice,ctd,trinary,attraction,2,washing machines,null,null,null,null,null,null,1,50,60,40,60,50,60,Average lifespan,Energy savings,NA,NA
NA,NA,NA,NA,NA,choice_trial_setup,html-keyboard-response,18,99739,0.0-4.0-0.7,336,1,2025-05-08T21:57:28Z,b60275e29fe2361ab97ac0ac217840d7,"Mozilla/5.0 (Macintosh; Intel Mac OS X 10_15_7) AppleWebKit/537.36 (KHTML, like Gecko) Chrome/129.0.0.0 Safari/537.36",Macintosh,Chrome,129.0.0.0,OS X,10_15_7,https://5puzkbbxv1.cognition.run/?sona_id=51674,"en-US,en;q=0.9",wvxezp9bg8x6krn,20,"[""White""]",No,Female,NA,I'm not sure,341725,NA,null,<p></p>,null,choice,bww,trinary,catch,null,washing machines,80,95,30,15,15,50,1,NA,NA,NA,NA,NA,NA,NA,NA,NA,NA
NA,NA,NA,NA,NA,choice_trial,survey-html-form,19,107440,0.0-4.0-1.7,336,1,2025-05-08T21:57:28Z,b60275e29fe2361ab97ac0ac217840d7,"Mozilla/5.0 (Macintosh; Intel Mac OS X 10_15_7) AppleWebKit/537.36 (KHTML, like Gecko) Chrome/129.0.0.0 Safari/537.36",Macintosh,Chrome,129.0.0.0,OS X,10_15_7,https://5puzkbbxv1.cognition.run/?sona_id=51674,"en-US,en;q=0.9",wvxezp9bg8x6krn,20,"[""White""]",No,Female,NA,I'm not sure,341725,NA,7697,NA,"{""product_choice"":""A""}",choice,bww,trinary,catch,null,washing machines,80,95,30,15,15,50,1,null,null,null,null,null,null,Average lifespan,Energy savings,NA,NA
NA,NA,NA,NA,NA,choice_trial_setup,html-keyboard-response,20,107742,0.0-4.0-0.8,336,1,2025-05-08T21:57:28Z,b60275e29fe2361ab97ac0ac217840d7,"Mozilla/5.0 (Macintosh; Intel Mac OS X 10_15_7) AppleWebKit/537.36 (KHTML, like Gecko) Chrome/129.0.0.0 Safari/537.36",Macintosh,Chrome,129.0.0.0,OS X,10_15_7,https://5puzkbbxv1.cognition.run/?sona_id=51674,"en-US,en;q=0.9",wvxezp9bg8x6krn,20,"[""White""]",No,Female,NA,I'm not sure,341725,NA,null,<p></p>,null,choice,wb,binary,catch,null,microwave ovens,65,50,40,25,null,null,1,NA,NA,NA,NA,NA,NA,NA,NA,NA,NA
NA,NA,NA,NA,NA,choice_trial,survey-html-form,21,113797,0.0-4.0-1.8,336,1,2025-05-08T21:57:28Z,b60275e29fe2361ab97ac0ac217840d7,"Mozilla/5.0 (Macintosh; Intel Mac OS X 10_15_7) AppleWebKit/537.36 (KHTML, like Gecko) Chrome/129.0.0.0 Safari/537.36",Macintosh,Chrome,129.0.0.0,OS X,10_15_7,https://5puzkbbxv1.cognition.run/?sona_id=51674,"en-US,en;q=0.9",wvxezp9bg8x6krn,20,"[""White""]",No,Female,NA,I'm not sure,341725,NA,6052,NA,"{""product_choice"":""B""}",choice,wb,binary,catch,null,microwave ovens,65,50,40,25,null,null,1,null,null,null,null,null,null,Warranty,Cooking power,NA,NA
NA,NA,NA,NA,NA,choice_trial_setup,html-keyboard-response,22,114101,0.0-4.0-0.9,336,1,2025-05-08T21:57:28Z,b60275e29fe2361ab97ac0ac217840d7,"Mozilla/5.0 (Macintosh; Intel Mac OS X 10_15_7) AppleWebKit/537.36 (KHTML, like Gecko) Chrome/129.0.0.0 Safari/537.36",Macintosh,Chrome,129.0.0.0,OS X,10_15_7,https://5puzkbbxv1.cognition.run/?sona_id=51674,"en-US,en;q=0.9",wvxezp9bg8x6krn,20,"[""White""]",No,Female,NA,I'm not sure,341725,NA,null,<p></p>,null,choice,dtc,trinary,attraction,1,laptops,null,null,null,null,null,null,2,NA,NA,NA,NA,NA,NA,NA,NA,NA,NA
NA,NA,NA,NA,NA,choice_trial,survey-html-form,23,125456,0.0-4.0-1.9,336,1,2025-05-08T21:57:28Z,b60275e29fe2361ab97ac0ac217840d7,"Mozilla/5.0 (Macintosh; Intel Mac OS X 10_15_7) AppleWebKit/537.36 (KHTML, like Gecko) Chrome/129.0.0.0 Safari/537.36",Macintosh,Chrome,129.0.0.0,OS X,10_15_7,https://5puzkbbxv1.cognition.run/?sona_id=51674,"en-US,en;q=0.9",wvxezp9bg8x6krn,20,"[""White""]",No,Female,NA,I'm not sure,341725,NA,11351,NA,"{""product_choice"":""C""}",choice,dtc,trinary,attraction,1,laptops,null,null,null,null,null,null,2,60,50,60,50,60,40,Processing speed,Memory (RAM),NA,NA
NA,NA,NA,NA,NA,choice_trial_setup,html-keyboard-response,24,125759,0.0-4.0-0.10,336,1,2025-05-08T21:57:28Z,b60275e29fe2361ab97ac0ac217840d7,"Mozilla/5.0 (Macintosh; Intel Mac OS X 10_15_7) AppleWebKit/537.36 (KHTML, like Gecko) Chrome/129.0.0.0 Safari/537.36",Macintosh,Chrome,129.0.0.0,OS X,10_15_7,https://5puzkbbxv1.cognition.run/?sona_id=51674,"en-US,en;q=0.9",wvxezp9bg8x6krn,20,"[""White""]",No,Female,NA,I'm not sure,341725,NA,null,<p></p>,null,choice,dtc,trinary,repulsion_B,1,televisions,null,null,null,null,null,null,2,NA,NA,NA,NA,NA,NA,NA,NA,NA,NA
NA,NA,NA,NA,NA,choice_trial,survey-html-form,25,130587,0.0-4.0-1.10,336,1,2025-05-08T21:57:28Z,b60275e29fe2361ab97ac0ac217840d7,"Mozilla/5.0 (Macintosh; Intel Mac OS X 10_15_7) AppleWebKit/537.36 (KHTML, like Gecko) Chrome/129.0.0.0 Safari/537.36",Macintosh,Chrome,129.0.0.0,OS X,10_15_7,https://5puzkbbxv1.cognition.run/?sona_id=51674,"en-US,en;q=0.9",wvxezp9bg8x6krn,20,"[""White""]",No,Female,NA,I'm not sure,341725,NA,4825,NA,"{""product_choice"":""C""}",choice,dtc,trinary,repulsion_B,1,televisions,null,null,null,null,null,null,2,90,100,80,40,30,40,Screen size,Average lifespan,NA,NA
NA,NA,NA,NA,NA,choice_trial_setup,html-keyboard-response,26,130891,0.0-4.0-0.11,336,1,2025-05-08T21:57:28Z,b60275e29fe2361ab97ac0ac217840d7,"Mozilla/5.0 (Macintosh; Intel Mac OS X 10_15_7) AppleWebKit/537.36 (KHTML, like Gecko) Chrome/129.0.0.0 Safari/537.36",Macintosh,Chrome,129.0.0.0,OS X,10_15_7,https://5puzkbbxv1.cognition.run/?sona_id=51674,"en-US,en;q=0.9",wvxezp9bg8x6krn,20,"[""White""]",No,Female,NA,I'm not sure,341725,NA,null,<p></p>,null,choice,cdt,trinary,repulsion_A,2,microwave ovens,null,null,null,null,null,null,1,NA,NA,NA,NA,NA,NA,NA,NA,NA,NA
NA,NA,NA,NA,NA,choice_trial,survey-html-form,27,135155,0.0-4.0-1.11,336,1,2025-05-08T21:57:28Z,b60275e29fe2361ab97ac0ac217840d7,"Mozilla/5.0 (Macintosh; Intel Mac OS X 10_15_7) AppleWebKit/537.36 (KHTML, like Gecko) Chrome/129.0.0.0 Safari/537.36",Macintosh,Chrome,129.0.0.0,OS X,10_15_7,https://5puzkbbxv1.cognition.run/?sona_id=51674,"en-US,en;q=0.9",wvxezp9bg8x6krn,20,"[""White""]",No,Female,NA,I'm not sure,341725,NA,4260,NA,"{""product_choice"":""C""}",choice,cdt,trinary,repulsion_A,2,microwave ovens,null,null,null,null,null,null,1,30,40,20,100,90,100,Warranty,Cooking power,NA,NA
NA,NA,NA,NA,NA,choice_trial_setup,html-keyboard-response,28,135458,0.0-4.0-0.12,336,1,2025-05-08T21:57:28Z,b60275e29fe2361ab97ac0ac217840d7,"Mozilla/5.0 (Macintosh; Intel Mac OS X 10_15_7) AppleWebKit/537.36 (KHTML, like Gecko) Chrome/129.0.0.0 Safari/537.36",Macintosh,Chrome,129.0.0.0,OS X,10_15_7,https://5puzkbbxv1.cognition.run/?sona_id=51674,"en-US,en;q=0.9",wvxezp9bg8x6krn,20,"[""White""]",No,Female,NA,I'm not sure,341725,NA,null,<p></p>,null,choice,dtc,trinary,repulsion_B,1,microwave ovens,null,null,null,null,null,null,2,NA,NA,NA,NA,NA,NA,NA,NA,NA,NA
NA,NA,NA,NA,NA,choice_trial,survey-html-form,29,139812,0.0-4.0-1.12,336,1,2025-05-08T21:57:28Z,b60275e29fe2361ab97ac0ac217840d7,"Mozilla/5.0 (Macintosh; Intel Mac OS X 10_15_7) AppleWebKit/537.36 (KHTML, like Gecko) Chrome/129.0.0.0 Safari/537.36",Macintosh,Chrome,129.0.0.0,OS X,10_15_7,https://5puzkbbxv1.cognition.run/?sona_id=51674,"en-US,en;q=0.9",wvxezp9bg8x6krn,20,"[""White""]",No,Female,NA,I'm not sure,341725,NA,4350,NA,"{""product_choice"":""B""}",choice,dtc,trinary,repulsion_B,1,microwave ovens,null,null,null,null,null,null,2,90,100,80,40,30,40,Warranty,Cooking power,NA,NA
NA,NA,NA,NA,NA,choice_trial_setup,html-keyboard-response,30,140115,0.0-4.0-0.13,336,1,2025-05-08T21:57:28Z,b60275e29fe2361ab97ac0ac217840d7,"Mozilla/5.0 (Macintosh; Intel Mac OS X 10_15_7) AppleWebKit/537.36 (KHTML, like Gecko) Chrome/129.0.0.0 Safari/537.36",Macintosh,Chrome,129.0.0.0,OS X,10_15_7,https://5puzkbbxv1.cognition.run/?sona_id=51674,"en-US,en;q=0.9",wvxezp9bg8x6krn,20,"[""White""]",No,Female,NA,I'm not sure,341725,NA,null,<p></p>,null,choice,ct,binary,repulsion,2,televisions,null,null,null,null,null,null,1,NA,NA,NA,NA,NA,NA,NA,NA,NA,NA
NA,NA,NA,NA,NA,choice_trial,survey-html-form,31,144198,0.0-4.0-1.13,336,1,2025-05-08T21:57:28Z,b60275e29fe2361ab97ac0ac217840d7,"Mozilla/5.0 (Macintosh; Intel Mac OS X 10_15_7) AppleWebKit/537.36 (KHTML, like Gecko) Chrome/129.0.0.0 Safari/537.36",Macintosh,Chrome,129.0.0.0,OS X,10_15_7,https://5puzkbbxv1.cognition.run/?sona_id=51674,"en-US,en;q=0.9",wvxezp9bg8x6krn,20,"[""White""]",No,Female,NA,I'm not sure,341725,NA,4080,NA,"{""product_choice"":""A""}",choice,ct,binary,repulsion,2,televisions,null,null,null,null,null,null,1,30,40,null,100,90,null,Screen size,Average lifespan,NA,NA
NA,NA,NA,NA,NA,choice_trial_setup,html-keyboard-response,32,144501,0.0-4.0-0.14,336,1,2025-05-08T21:57:28Z,b60275e29fe2361ab97ac0ac217840d7,"Mozilla/5.0 (Macintosh; Intel Mac OS X 10_15_7) AppleWebKit/537.36 (KHTML, like Gecko) Chrome/129.0.0.0 Safari/537.36",Macintosh,Chrome,129.0.0.0,OS X,10_15_7,https://5puzkbbxv1.cognition.run/?sona_id=51674,"en-US,en;q=0.9",wvxezp9bg8x6krn,20,"[""White""]",No,Female,NA,I'm not sure,341725,NA,null,<p></p>,null,choice,dct,trinary,attraction,2,televisions,null,null,null,null,null,null,2,NA,NA,NA,NA,NA,NA,NA,NA,NA,NA
NA,NA,NA,NA,NA,choice_trial,survey-html-form,33,148994,0.0-4.0-1.14,336,1,2025-05-08T21:57:28Z,b60275e29fe2361ab97ac0ac217840d7,"Mozilla/5.0 (Macintosh; Intel Mac OS X 10_15_7) AppleWebKit/537.36 (KHTML, like Gecko) Chrome/129.0.0.0 Safari/537.36",Macintosh,Chrome,129.0.0.0,OS X,10_15_7,https://5puzkbbxv1.cognition.run/?sona_id=51674,"en-US,en;q=0.9",wvxezp9bg8x6krn,20,"[""White""]",No,Female,NA,I'm not sure,341725,NA,4489,NA,"{""product_choice"":""C""}",choice,dct,trinary,attraction,2,televisions,null,null,null,null,null,null,2,50,60,40,60,50,60,Screen size,Average lifespan,NA,NA
NA,NA,NA,NA,NA,choice_trial_setup,html-keyboard-response,34,149297,0.0-4.0-0.15,336,1,2025-05-08T21:57:28Z,b60275e29fe2361ab97ac0ac217840d7,"Mozilla/5.0 (Macintosh; Intel Mac OS X 10_15_7) AppleWebKit/537.36 (KHTML, like Gecko) Chrome/129.0.0.0 Safari/537.36",Macintosh,Chrome,129.0.0.0,OS X,10_15_7,https://5puzkbbxv1.cognition.run/?sona_id=51674,"en-US,en;q=0.9",wvxezp9bg8x6krn,20,"[""White""]",No,Female,NA,I'm not sure,341725,NA,null,<p></p>,null,choice,cdt,trinary,attraction,1,televisions,null,null,null,null,null,null,1,NA,NA,NA,NA,NA,NA,NA,NA,NA,NA
NA,NA,NA,NA,NA,choice_trial,survey-html-form,35,153962,0.0-4.0-1.15,336,1,2025-05-08T21:57:28Z,b60275e29fe2361ab97ac0ac217840d7,"Mozilla/5.0 (Macintosh; Intel Mac OS X 10_15_7) AppleWebKit/537.36 (KHTML, like Gecko) Chrome/129.0.0.0 Safari/537.36",Macintosh,Chrome,129.0.0.0,OS X,10_15_7,https://5puzkbbxv1.cognition.run/?sona_id=51674,"en-US,en;q=0.9",wvxezp9bg8x6krn,20,"[""White""]",No,Female,NA,I'm not sure,341725,NA,4661,NA,"{""product_choice"":""A""}",choice,cdt,trinary,attraction,1,televisions,null,null,null,null,null,null,1,60,50,60,50,60,40,Screen size,Average lifespan,NA,NA
NA,NA,NA,NA,NA,choice_trial_setup,html-keyboard-response,36,154266,0.0-4.0-0.16,336,1,2025-05-08T21:57:28Z,b60275e29fe2361ab97ac0ac217840d7,"Mozilla/5.0 (Macintosh; Intel Mac OS X 10_15_7) AppleWebKit/537.36 (KHTML, like Gecko) Chrome/129.0.0.0 Safari/537.36",Macintosh,Chrome,129.0.0.0,OS X,10_15_7,https://5puzkbbxv1.cognition.run/?sona_id=51674,"en-US,en;q=0.9",wvxezp9bg8x6krn,20,"[""White""]",No,Female,NA,I'm not sure,341725,NA,null,<p></p>,null,choice,tcd,trinary,repulsion_A,2,televisions,null,null,null,null,null,null,1,NA,NA,NA,NA,NA,NA,NA,NA,NA,NA
NA,NA,NA,NA,NA,choice_trial,survey-html-form,37,159313,0.0-4.0-1.16,336,1,2025-05-08T21:57:28Z,b60275e29fe2361ab97ac0ac217840d7,"Mozilla/5.0 (Macintosh; Intel Mac OS X 10_15_7) AppleWebKit/537.36 (KHTML, like Gecko) Chrome/129.0.0.0 Safari/537.36",Macintosh,Chrome,129.0.0.0,OS X,10_15_7,https://5puzkbbxv1.cognition.run/?sona_id=51674,"en-US,en;q=0.9",wvxezp9bg8x6krn,20,"[""White""]",No,Female,NA,I'm not sure,341725,NA,5043,NA,"{""product_choice"":""B""}",choice,tcd,trinary,repulsion_A,2,televisions,null,null,null,null,null,null,1,30,40,20,100,90,100,Screen size,Average lifespan,NA,NA
NA,NA,NA,NA,NA,choice_trial_setup,html-keyboard-response,38,159617,0.0-4.0-0.17,336,1,2025-05-08T21:57:28Z,b60275e29fe2361ab97ac0ac217840d7,"Mozilla/5.0 (Macintosh; Intel Mac OS X 10_15_7) AppleWebKit/537.36 (KHTML, like Gecko) Chrome/129.0.0.0 Safari/537.36",Macintosh,Chrome,129.0.0.0,OS X,10_15_7,https://5puzkbbxv1.cognition.run/?sona_id=51674,"en-US,en;q=0.9",wvxezp9bg8x6krn,20,"[""White""]",No,Female,NA,I'm not sure,341725,NA,null,<p></p>,null,choice,ct,binary,repulsion,1,washing machines,null,null,null,null,null,null,1,NA,NA,NA,NA,NA,NA,NA,NA,NA,NA
NA,NA,NA,NA,NA,choice_trial,survey-html-form,39,163382,0.0-4.0-1.17,336,1,2025-05-08T21:57:28Z,b60275e29fe2361ab97ac0ac217840d7,"Mozilla/5.0 (Macintosh; Intel Mac OS X 10_15_7) AppleWebKit/537.36 (KHTML, like Gecko) Chrome/129.0.0.0 Safari/537.36",Macintosh,Chrome,129.0.0.0,OS X,10_15_7,https://5puzkbbxv1.cognition.run/?sona_id=51674,"en-US,en;q=0.9",wvxezp9bg8x6krn,20,"[""White""]",No,Female,NA,I'm not sure,341725,NA,3762,NA,"{""product_choice"":""A""}",choice,ct,binary,repulsion,1,washing machines,null,null,null,null,null,null,1,100,90,null,30,40,null,Average lifespan,Energy savings,NA,NA
NA,NA,NA,NA,NA,choice_trial_setup,html-keyboard-response,40,163686,0.0-4.0-0.18,336,1,2025-05-08T21:57:28Z,b60275e29fe2361ab97ac0ac217840d7,"Mozilla/5.0 (Macintosh; Intel Mac OS X 10_15_7) AppleWebKit/537.36 (KHTML, like Gecko) Chrome/129.0.0.0 Safari/537.36",Macintosh,Chrome,129.0.0.0,OS X,10_15_7,https://5puzkbbxv1.cognition.run/?sona_id=51674,"en-US,en;q=0.9",wvxezp9bg8x6krn,20,"[""White""]",No,Female,NA,I'm not sure,341725,NA,null,<p></p>,null,choice,bw,binary,catch,null,televisions,80,85,45,20,null,null,1,NA,NA,NA,NA,NA,NA,NA,NA,NA,NA
NA,NA,NA,NA,NA,choice_trial,survey-html-form,41,166202,0.0-4.0-1.18,336,1,2025-05-08T21:57:28Z,b60275e29fe2361ab97ac0ac217840d7,"Mozilla/5.0 (Macintosh; Intel Mac OS X 10_15_7) AppleWebKit/537.36 (KHTML, like Gecko) Chrome/129.0.0.0 Safari/537.36",Macintosh,Chrome,129.0.0.0,OS X,10_15_7,https://5puzkbbxv1.cognition.run/?sona_id=51674,"en-US,en;q=0.9",wvxezp9bg8x6krn,20,"[""White""]",No,Female,NA,I'm not sure,341725,NA,2510,NA,"{""product_choice"":""A""}",choice,bw,binary,catch,null,televisions,80,85,45,20,null,null,1,null,null,null,null,null,null,Screen size,Average lifespan,NA,NA
NA,NA,NA,NA,NA,choice_trial_setup,html-keyboard-response,42,166505,0.0-4.0-0.19,336,1,2025-05-08T21:57:28Z,b60275e29fe2361ab97ac0ac217840d7,"Mozilla/5.0 (Macintosh; Intel Mac OS X 10_15_7) AppleWebKit/537.36 (KHTML, like Gecko) Chrome/129.0.0.0 Safari/537.36",Macintosh,Chrome,129.0.0.0,OS X,10_15_7,https://5puzkbbxv1.cognition.run/?sona_id=51674,"en-US,en;q=0.9",wvxezp9bg8x6krn,20,"[""White""]",No,Female,NA,I'm not sure,341725,NA,null,<p></p>,null,choice,ct,binary,attraction,NA,televisions,null,null,null,null,null,null,2,NA,NA,NA,NA,NA,NA,NA,NA,NA,NA
NA,NA,NA,NA,NA,choice_trial,survey-html-form,43,169821,0.0-4.0-1.19,336,1,2025-05-08T21:57:28Z,b60275e29fe2361ab97ac0ac217840d7,"Mozilla/5.0 (Macintosh; Intel Mac OS X 10_15_7) AppleWebKit/537.36 (KHTML, like Gecko) Chrome/129.0.0.0 Safari/537.36",Macintosh,Chrome,129.0.0.0,OS X,10_15_7,https://5puzkbbxv1.cognition.run/?sona_id=51674,"en-US,en;q=0.9",wvxezp9bg8x6krn,20,"[""White""]",No,Female,NA,I'm not sure,341725,NA,3312,NA,"{""product_choice"":""A""}",choice,ct,binary,attraction,NA,televisions,null,null,null,null,null,null,2,60,50,null,50,60,null,Screen size,Average lifespan,NA,NA
NA,NA,NA,NA,NA,choice_trial_setup,html-keyboard-response,44,170125,0.0-4.0-0.20,336,1,2025-05-08T21:57:28Z,b60275e29fe2361ab97ac0ac217840d7,"Mozilla/5.0 (Macintosh; Intel Mac OS X 10_15_7) AppleWebKit/537.36 (KHTML, like Gecko) Chrome/129.0.0.0 Safari/537.36",Macintosh,Chrome,129.0.0.0,OS X,10_15_7,https://5puzkbbxv1.cognition.run/?sona_id=51674,"en-US,en;q=0.9",wvxezp9bg8x6krn,20,"[""White""]",No,Female,NA,I'm not sure,341725,NA,null,<p></p>,null,choice,tc,binary,repulsion,2,microwave ovens,null,null,null,null,null,null,1,NA,NA,NA,NA,NA,NA,NA,NA,NA,NA
NA,NA,NA,NA,NA,choice_trial,survey-html-form,45,173006,0.0-4.0-1.20,336,1,2025-05-08T21:57:28Z,b60275e29fe2361ab97ac0ac217840d7,"Mozilla/5.0 (Macintosh; Intel Mac OS X 10_15_7) AppleWebKit/537.36 (KHTML, like Gecko) Chrome/129.0.0.0 Safari/537.36",Macintosh,Chrome,129.0.0.0,OS X,10_15_7,https://5puzkbbxv1.cognition.run/?sona_id=51674,"en-US,en;q=0.9",wvxezp9bg8x6krn,20,"[""White""]",No,Female,NA,I'm not sure,341725,NA,2878,NA,"{""product_choice"":""B""}",choice,tc,binary,repulsion,2,microwave ovens,null,null,null,null,null,null,1,30,40,null,100,90,null,Warranty,Cooking power,NA,NA
NA,NA,NA,NA,NA,choice_trial_setup,html-keyboard-response,46,173310,0.0-4.0-0.21,336,1,2025-05-08T21:57:28Z,b60275e29fe2361ab97ac0ac217840d7,"Mozilla/5.0 (Macintosh; Intel Mac OS X 10_15_7) AppleWebKit/537.36 (KHTML, like Gecko) Chrome/129.0.0.0 Safari/537.36",Macintosh,Chrome,129.0.0.0,OS X,10_15_7,https://5puzkbbxv1.cognition.run/?sona_id=51674,"en-US,en;q=0.9",wvxezp9bg8x6krn,20,"[""White""]",No,Female,NA,I'm not sure,341725,NA,null,<p></p>,null,choice,bw,binary,catch,null,laptops,50,60,40,30,null,null,2,NA,NA,NA,NA,NA,NA,NA,NA,NA,NA
NA,NA,NA,NA,NA,choice_trial,survey-html-form,47,175530,0.0-4.0-1.21,336,1,2025-05-08T21:57:28Z,b60275e29fe2361ab97ac0ac217840d7,"Mozilla/5.0 (Macintosh; Intel Mac OS X 10_15_7) AppleWebKit/537.36 (KHTML, like Gecko) Chrome/129.0.0.0 Safari/537.36",Macintosh,Chrome,129.0.0.0,OS X,10_15_7,https://5puzkbbxv1.cognition.run/?sona_id=51674,"en-US,en;q=0.9",wvxezp9bg8x6krn,20,"[""White""]",No,Female,NA,I'm not sure,341725,NA,2216,NA,"{""product_choice"":""A""}",choice,bw,binary,catch,null,laptops,50,60,40,30,null,null,2,null,null,null,null,null,null,Processing speed,Memory (RAM),NA,NA
NA,NA,NA,NA,NA,choice_trial_setup,html-keyboard-response,48,175834,0.0-4.0-0.22,336,1,2025-05-08T21:57:28Z,b60275e29fe2361ab97ac0ac217840d7,"Mozilla/5.0 (Macintosh; Intel Mac OS X 10_15_7) AppleWebKit/537.36 (KHTML, like Gecko) Chrome/129.0.0.0 Safari/537.36",Macintosh,Chrome,129.0.0.0,OS X,10_15_7,https://5puzkbbxv1.cognition.run/?sona_id=51674,"en-US,en;q=0.9",wvxezp9bg8x6krn,20,"[""White""]",No,Female,NA,I'm not sure,341725,NA,null,<p></p>,null,choice,bww,trinary,catch,null,laptops,90,75,25,15,40,25,1,NA,NA,NA,NA,NA,NA,NA,NA,NA,NA
NA,NA,NA,NA,NA,choice_trial,survey-html-form,49,179256,0.0-4.0-1.22,336,1,2025-05-08T21:57:28Z,b60275e29fe2361ab97ac0ac217840d7,"Mozilla/5.0 (Macintosh; Intel Mac OS X 10_15_7) AppleWebKit/537.36 (KHTML, like Gecko) Chrome/129.0.0.0 Safari/537.36",Macintosh,Chrome,129.0.0.0,OS X,10_15_7,https://5puzkbbxv1.cognition.run/?sona_id=51674,"en-US,en;q=0.9",wvxezp9bg8x6krn,20,"[""White""]",No,Female,NA,I'm not sure,341725,NA,3418,NA,"{""product_choice"":""A""}",choice,bww,trinary,catch,null,laptops,90,75,25,15,40,25,1,null,null,null,null,null,null,Processing speed,Memory (RAM),NA,NA
NA,NA,NA,NA,NA,choice_trial_setup,html-keyboard-response,50,179560,0.0-4.0-0.23,336,1,2025-05-08T21:57:28Z,b60275e29fe2361ab97ac0ac217840d7,"Mozilla/5.0 (Macintosh; Intel Mac OS X 10_15_7) AppleWebKit/537.36 (KHTML, like Gecko) Chrome/129.0.0.0 Safari/537.36",Macintosh,Chrome,129.0.0.0,OS X,10_15_7,https://5puzkbbxv1.cognition.run/?sona_id=51674,"en-US,en;q=0.9",wvxezp9bg8x6krn,20,"[""White""]",No,Female,NA,I'm not sure,341725,NA,null,<p></p>,null,choice,cdt,trinary,repulsion_A,2,laptops,null,null,null,null,null,null,2,NA,NA,NA,NA,NA,NA,NA,NA,NA,NA
NA,NA,NA,NA,NA,choice_trial,survey-html-form,51,183668,0.0-4.0-1.23,336,1,2025-05-08T21:57:28Z,b60275e29fe2361ab97ac0ac217840d7,"Mozilla/5.0 (Macintosh; Intel Mac OS X 10_15_7) AppleWebKit/537.36 (KHTML, like Gecko) Chrome/129.0.0.0 Safari/537.36",Macintosh,Chrome,129.0.0.0,OS X,10_15_7,https://5puzkbbxv1.cognition.run/?sona_id=51674,"en-US,en;q=0.9",wvxezp9bg8x6krn,20,"[""White""]",No,Female,NA,I'm not sure,341725,NA,4104,NA,"{""product_choice"":""A""}",choice,cdt,trinary,repulsion_A,2,laptops,null,null,null,null,null,null,2,30,40,20,100,90,100,Processing speed,Memory (RAM),NA,NA
NA,NA,NA,NA,NA,choice_trial_setup,html-keyboard-response,52,183973,0.0-4.0-0.24,336,1,2025-05-08T21:57:28Z,b60275e29fe2361ab97ac0ac217840d7,"Mozilla/5.0 (Macintosh; Intel Mac OS X 10_15_7) AppleWebKit/537.36 (KHTML, like Gecko) Chrome/129.0.0.0 Safari/537.36",Macintosh,Chrome,129.0.0.0,OS X,10_15_7,https://5puzkbbxv1.cognition.run/?sona_id=51674,"en-US,en;q=0.9",wvxezp9bg8x6krn,20,"[""White""]",No,Female,NA,I'm not sure,341725,NA,null,<p></p>,null,choice,tcd,trinary,repulsion_B,1,washing machines,null,null,null,null,null,null,2,NA,NA,NA,NA,NA,NA,NA,NA,NA,NA
NA,NA,NA,NA,NA,choice_trial,survey-html-form,53,190180,0.0-4.0-1.24,336,1,2025-05-08T21:57:28Z,b60275e29fe2361ab97ac0ac217840d7,"Mozilla/5.0 (Macintosh; Intel Mac OS X 10_15_7) AppleWebKit/537.36 (KHTML, like Gecko) Chrome/129.0.0.0 Safari/537.36",Macintosh,Chrome,129.0.0.0,OS X,10_15_7,https://5puzkbbxv1.cognition.run/?sona_id=51674,"en-US,en;q=0.9",wvxezp9bg8x6krn,20,"[""White""]",No,Female,NA,I'm not sure,341725,NA,6202,NA,"{""product_choice"":""A""}",choice,tcd,trinary,repulsion_B,1,washing machines,null,null,null,null,null,null,2,90,100,80,40,30,40,Average lifespan,Energy savings,NA,NA
NA,NA,NA,NA,NA,choice_trial_setup,html-keyboard-response,54,190484,0.0-4.0-0.25,336,1,2025-05-08T21:57:28Z,b60275e29fe2361ab97ac0ac217840d7,"Mozilla/5.0 (Macintosh; Intel Mac OS X 10_15_7) AppleWebKit/537.36 (KHTML, like Gecko) Chrome/129.0.0.0 Safari/537.36",Macintosh,Chrome,129.0.0.0,OS X,10_15_7,https://5puzkbbxv1.cognition.run/?sona_id=51674,"en-US,en;q=0.9",wvxezp9bg8x6krn,20,"[""White""]",No,Female,NA,I'm not sure,341725,NA,null,<p></p>,null,choice,ctd,trinary,repulsion_A,2,washing machines,null,null,null,null,null,null,1,NA,NA,NA,NA,NA,NA,NA,NA,NA,NA
NA,NA,NA,NA,NA,choice_trial,survey-html-form,55,194821,0.0-4.0-1.25,336,1,2025-05-08T21:57:28Z,b60275e29fe2361ab97ac0ac217840d7,"Mozilla/5.0 (Macintosh; Intel Mac OS X 10_15_7) AppleWebKit/537.36 (KHTML, like Gecko) Chrome/129.0.0.0 Safari/537.36",Macintosh,Chrome,129.0.0.0,OS X,10_15_7,https://5puzkbbxv1.cognition.run/?sona_id=51674,"en-US,en;q=0.9",wvxezp9bg8x6krn,20,"[""White""]",No,Female,NA,I'm not sure,341725,NA,4333,NA,"{""product_choice"":""A""}",choice,ctd,trinary,repulsion_A,2,washing machines,null,null,null,null,null,null,1,30,40,20,100,90,100,Average lifespan,Energy savings,NA,NA
NA,NA,NA,NA,NA,choice_trial_setup,html-keyboard-response,56,195125,0.0-4.0-0.26,336,1,2025-05-08T21:57:28Z,b60275e29fe2361ab97ac0ac217840d7,"Mozilla/5.0 (Macintosh; Intel Mac OS X 10_15_7) AppleWebKit/537.36 (KHTML, like Gecko) Chrome/129.0.0.0 Safari/537.36",Macintosh,Chrome,129.0.0.0,OS X,10_15_7,https://5puzkbbxv1.cognition.run/?sona_id=51674,"en-US,en;q=0.9",wvxezp9bg8x6krn,20,"[""White""]",No,Female,NA,I'm not sure,341725,NA,null,<p></p>,null,choice,tcd,trinary,repulsion_B,2,laptops,null,null,null,null,null,null,2,NA,NA,NA,NA,NA,NA,NA,NA,NA,NA
NA,NA,NA,NA,NA,choice_trial,survey-html-form,57,200066,0.0-4.0-1.26,336,1,2025-05-08T21:57:28Z,b60275e29fe2361ab97ac0ac217840d7,"Mozilla/5.0 (Macintosh; Intel Mac OS X 10_15_7) AppleWebKit/537.36 (KHTML, like Gecko) Chrome/129.0.0.0 Safari/537.36",Macintosh,Chrome,129.0.0.0,OS X,10_15_7,https://5puzkbbxv1.cognition.run/?sona_id=51674,"en-US,en;q=0.9",wvxezp9bg8x6krn,20,"[""White""]",No,Female,NA,I'm not sure,341725,NA,4937,NA,"{""product_choice"":""A""}",choice,tcd,trinary,repulsion_B,2,laptops,null,null,null,null,null,null,2,40,30,40,90,100,80,Processing speed,Memory (RAM),NA,NA
NA,NA,NA,NA,NA,choice_trial_setup,html-keyboard-response,58,200370,0.0-4.0-0.27,336,1,2025-05-08T21:57:28Z,b60275e29fe2361ab97ac0ac217840d7,"Mozilla/5.0 (Macintosh; Intel Mac OS X 10_15_7) AppleWebKit/537.36 (KHTML, like Gecko) Chrome/129.0.0.0 Safari/537.36",Macintosh,Chrome,129.0.0.0,OS X,10_15_7,https://5puzkbbxv1.cognition.run/?sona_id=51674,"en-US,en;q=0.9",wvxezp9bg8x6krn,20,"[""White""]",No,Female,NA,I'm not sure,341725,NA,null,<p></p>,null,choice,tc,binary,repulsion,1,televisions,null,null,null,null,null,null,1,NA,NA,NA,NA,NA,NA,NA,NA,NA,NA
NA,NA,NA,NA,NA,choice_trial,survey-html-form,59,204256,0.0-4.0-1.27,336,1,2025-05-08T21:57:28Z,b60275e29fe2361ab97ac0ac217840d7,"Mozilla/5.0 (Macintosh; Intel Mac OS X 10_15_7) AppleWebKit/537.36 (KHTML, like Gecko) Chrome/129.0.0.0 Safari/537.36",Macintosh,Chrome,129.0.0.0,OS X,10_15_7,https://5puzkbbxv1.cognition.run/?sona_id=51674,"en-US,en;q=0.9",wvxezp9bg8x6krn,20,"[""White""]",No,Female,NA,I'm not sure,341725,NA,3882,NA,"{""product_choice"":""B""}",choice,tc,binary,repulsion,1,televisions,null,null,null,null,null,null,1,100,90,null,30,40,null,Screen size,Average lifespan,NA,NA
NA,NA,NA,NA,NA,choice_trial_setup,html-keyboard-response,60,204559,0.0-4.0-0.28,336,1,2025-05-08T21:57:28Z,b60275e29fe2361ab97ac0ac217840d7,"Mozilla/5.0 (Macintosh; Intel Mac OS X 10_15_7) AppleWebKit/537.36 (KHTML, like Gecko) Chrome/129.0.0.0 Safari/537.36",Macintosh,Chrome,129.0.0.0,OS X,10_15_7,https://5puzkbbxv1.cognition.run/?sona_id=51674,"en-US,en;q=0.9",wvxezp9bg8x6krn,20,"[""White""]",No,Female,NA,I'm not sure,341725,NA,null,<p></p>,null,choice,wwb,trinary,catch,null,microwave ovens,70,95,25,35,10,10,2,NA,NA,NA,NA,NA,NA,NA,NA,NA,NA
NA,NA,NA,NA,NA,choice_trial,survey-html-form,61,208385,0.0-4.0-1.28,336,1,2025-05-08T21:57:28Z,b60275e29fe2361ab97ac0ac217840d7,"Mozilla/5.0 (Macintosh; Intel Mac OS X 10_15_7) AppleWebKit/537.36 (KHTML, like Gecko) Chrome/129.0.0.0 Safari/537.36",Macintosh,Chrome,129.0.0.0,OS X,10_15_7,https://5puzkbbxv1.cognition.run/?sona_id=51674,"en-US,en;q=0.9",wvxezp9bg8x6krn,20,"[""White""]",No,Female,NA,I'm not sure,341725,NA,3822,NA,"{""product_choice"":""C""}",choice,wwb,trinary,catch,null,microwave ovens,70,95,25,35,10,10,2,null,null,null,null,null,null,Warranty,Cooking power,NA,NA
NA,NA,NA,NA,NA,choice_trial_setup,html-keyboard-response,62,208689,0.0-4.0-0.29,336,1,2025-05-08T21:57:28Z,b60275e29fe2361ab97ac0ac217840d7,"Mozilla/5.0 (Macintosh; Intel Mac OS X 10_15_7) AppleWebKit/537.36 (KHTML, like Gecko) Chrome/129.0.0.0 Safari/537.36",Macintosh,Chrome,129.0.0.0,OS X,10_15_7,https://5puzkbbxv1.cognition.run/?sona_id=51674,"en-US,en;q=0.9",wvxezp9bg8x6krn,20,"[""White""]",No,Female,NA,I'm not sure,341725,NA,null,<p></p>,null,choice,dtc,trinary,repulsion_A,1,laptops,null,null,null,null,null,null,1,NA,NA,NA,NA,NA,NA,NA,NA,NA,NA
NA,NA,NA,NA,NA,choice_trial,survey-html-form,63,214357,0.0-4.0-1.29,336,1,2025-05-08T21:57:28Z,b60275e29fe2361ab97ac0ac217840d7,"Mozilla/5.0 (Macintosh; Intel Mac OS X 10_15_7) AppleWebKit/537.36 (KHTML, like Gecko) Chrome/129.0.0.0 Safari/537.36",Macintosh,Chrome,129.0.0.0,OS X,10_15_7,https://5puzkbbxv1.cognition.run/?sona_id=51674,"en-US,en;q=0.9",wvxezp9bg8x6krn,20,"[""White""]",No,Female,NA,I'm not sure,341725,NA,5663,NA,"{""product_choice"":""C""}",choice,dtc,trinary,repulsion_A,1,laptops,null,null,null,null,null,null,1,100,90,100,30,40,20,Processing speed,Memory (RAM),NA,NA
NA,NA,NA,NA,NA,choice_trial_setup,html-keyboard-response,64,214660,0.0-4.0-0.30,336,1,2025-05-08T21:57:28Z,b60275e29fe2361ab97ac0ac217840d7,"Mozilla/5.0 (Macintosh; Intel Mac OS X 10_15_7) AppleWebKit/537.36 (KHTML, like Gecko) Chrome/129.0.0.0 Safari/537.36",Macintosh,Chrome,129.0.0.0,OS X,10_15_7,https://5puzkbbxv1.cognition.run/?sona_id=51674,"en-US,en;q=0.9",wvxezp9bg8x6krn,20,"[""White""]",No,Female,NA,I'm not sure,341725,NA,null,<p></p>,null,choice,tc,binary,attraction,NA,microwave ovens,null,null,null,null,null,null,1,NA,NA,NA,NA,NA,NA,NA,NA,NA,NA
NA,NA,NA,NA,NA,choice_trial,survey-html-form,65,217862,0.0-4.0-1.30,336,1,2025-05-08T21:57:28Z,b60275e29fe2361ab97ac0ac217840d7,"Mozilla/5.0 (Macintosh; Intel Mac OS X 10_15_7) AppleWebKit/537.36 (KHTML, like Gecko) Chrome/129.0.0.0 Safari/537.36",Macintosh,Chrome,129.0.0.0,OS X,10_15_7,https://5puzkbbxv1.cognition.run/?sona_id=51674,"en-US,en;q=0.9",wvxezp9bg8x6krn,20,"[""White""]",No,Female,NA,I'm not sure,341725,NA,3197,NA,"{""product_choice"":""A""}",choice,tc,binary,attraction,NA,microwave ovens,null,null,null,null,null,null,1,60,50,null,50,60,null,Warranty,Cooking power,NA,NA
NA,NA,NA,NA,NA,choice_trial_setup,html-keyboard-response,66,218167,0.0-4.0-0.31,336,1,2025-05-08T21:57:28Z,b60275e29fe2361ab97ac0ac217840d7,"Mozilla/5.0 (Macintosh; Intel Mac OS X 10_15_7) AppleWebKit/537.36 (KHTML, like Gecko) Chrome/129.0.0.0 Safari/537.36",Macintosh,Chrome,129.0.0.0,OS X,10_15_7,https://5puzkbbxv1.cognition.run/?sona_id=51674,"en-US,en;q=0.9",wvxezp9bg8x6krn,20,"[""White""]",No,Female,NA,I'm not sure,341725,NA,null,<p></p>,null,choice,wbw,trinary,catch,null,televisions,85,70,15,40,35,40,2,NA,NA,NA,NA,NA,NA,NA,NA,NA,NA
NA,NA,NA,NA,NA,choice_trial,survey-html-form,67,225321,0.0-4.0-1.31,336,1,2025-05-08T21:57:28Z,b60275e29fe2361ab97ac0ac217840d7,"Mozilla/5.0 (Macintosh; Intel Mac OS X 10_15_7) AppleWebKit/537.36 (KHTML, like Gecko) Chrome/129.0.0.0 Safari/537.36",Macintosh,Chrome,129.0.0.0,OS X,10_15_7,https://5puzkbbxv1.cognition.run/?sona_id=51674,"en-US,en;q=0.9",wvxezp9bg8x6krn,20,"[""White""]",No,Female,NA,I'm not sure,341725,NA,7149,NA,"{""product_choice"":""B""}",choice,wbw,trinary,catch,null,televisions,85,70,15,40,35,40,2,null,null,null,null,null,null,Screen size,Average lifespan,NA,NA
NA,NA,NA,NA,NA,choice_trial_setup,html-keyboard-response,68,225625,0.0-4.0-0.32,336,1,2025-05-08T21:57:28Z,b60275e29fe2361ab97ac0ac217840d7,"Mozilla/5.0 (Macintosh; Intel Mac OS X 10_15_7) AppleWebKit/537.36 (KHTML, like Gecko) Chrome/129.0.0.0 Safari/537.36",Macintosh,Chrome,129.0.0.0,OS X,10_15_7,https://5puzkbbxv1.cognition.run/?sona_id=51674,"en-US,en;q=0.9",wvxezp9bg8x6krn,20,"[""White""]",No,Female,NA,I'm not sure,341725,NA,null,<p></p>,null,choice,ctd,trinary,repulsion_B,2,washing machines,null,null,null,null,null,null,1,NA,NA,NA,NA,NA,NA,NA,NA,NA,NA
NA,NA,NA,NA,NA,choice_trial,survey-html-form,69,231342,0.0-4.0-1.32,336,1,2025-05-08T21:57:28Z,b60275e29fe2361ab97ac0ac217840d7,"Mozilla/5.0 (Macintosh; Intel Mac OS X 10_15_7) AppleWebKit/537.36 (KHTML, like Gecko) Chrome/129.0.0.0 Safari/537.36",Macintosh,Chrome,129.0.0.0,OS X,10_15_7,https://5puzkbbxv1.cognition.run/?sona_id=51674,"en-US,en;q=0.9",wvxezp9bg8x6krn,20,"[""White""]",No,Female,NA,I'm not sure,341725,NA,5713,NA,"{""product_choice"":""B""}",choice,ctd,trinary,repulsion_B,2,washing machines,null,null,null,null,null,null,1,40,30,40,90,100,80,Average lifespan,Energy savings,NA,NA
NA,NA,NA,NA,NA,choice_trial_setup,html-keyboard-response,70,231647,0.0-4.0-0.33,336,1,2025-05-08T21:57:28Z,b60275e29fe2361ab97ac0ac217840d7,"Mozilla/5.0 (Macintosh; Intel Mac OS X 10_15_7) AppleWebKit/537.36 (KHTML, like Gecko) Chrome/129.0.0.0 Safari/537.36",Macintosh,Chrome,129.0.0.0,OS X,10_15_7,https://5puzkbbxv1.cognition.run/?sona_id=51674,"en-US,en;q=0.9",wvxezp9bg8x6krn,20,"[""White""]",No,Female,NA,I'm not sure,341725,NA,null,<p></p>,null,choice,tdc,trinary,attraction,1,washing machines,null,null,null,null,null,null,2,NA,NA,NA,NA,NA,NA,NA,NA,NA,NA
NA,NA,NA,NA,NA,choice_trial,survey-html-form,71,233875,0.0-4.0-1.33,336,1,2025-05-08T21:57:28Z,b60275e29fe2361ab97ac0ac217840d7,"Mozilla/5.0 (Macintosh; Intel Mac OS X 10_15_7) AppleWebKit/537.36 (KHTML, like Gecko) Chrome/129.0.0.0 Safari/537.36",Macintosh,Chrome,129.0.0.0,OS X,10_15_7,https://5puzkbbxv1.cognition.run/?sona_id=51674,"en-US,en;q=0.9",wvxezp9bg8x6krn,20,"[""White""]",No,Female,NA,I'm not sure,341725,NA,2222,NA,"{""product_choice"":""A""}",choice,tdc,trinary,attraction,1,washing machines,null,null,null,null,null,null,2,60,50,60,50,60,40,Average lifespan,Energy savings,NA,NA
NA,NA,NA,NA,NA,choice_trial_setup,html-keyboard-response,72,234179,0.0-4.0-0.34,336,1,2025-05-08T21:57:28Z,b60275e29fe2361ab97ac0ac217840d7,"Mozilla/5.0 (Macintosh; Intel Mac OS X 10_15_7) AppleWebKit/537.36 (KHTML, like Gecko) Chrome/129.0.0.0 Safari/537.36",Macintosh,Chrome,129.0.0.0,OS X,10_15_7,https://5puzkbbxv1.cognition.run/?sona_id=51674,"en-US,en;q=0.9",wvxezp9bg8x6krn,20,"[""White""]",No,Female,NA,I'm not sure,341725,NA,null,<p></p>,null,choice,ct,binary,attraction,NA,laptops,null,null,null,null,null,null,2,NA,NA,NA,NA,NA,NA,NA,NA,NA,NA
NA,NA,NA,NA,NA,choice_trial,survey-html-form,73,238336,0.0-4.0-1.34,336,1,2025-05-08T21:57:28Z,b60275e29fe2361ab97ac0ac217840d7,"Mozilla/5.0 (Macintosh; Intel Mac OS X 10_15_7) AppleWebKit/537.36 (KHTML, like Gecko) Chrome/129.0.0.0 Safari/537.36",Macintosh,Chrome,129.0.0.0,OS X,10_15_7,https://5puzkbbxv1.cognition.run/?sona_id=51674,"en-US,en;q=0.9",wvxezp9bg8x6krn,20,"[""White""]",No,Female,NA,I'm not sure,341725,NA,4153,NA,"{""product_choice"":""A""}",choice,ct,binary,attraction,NA,laptops,null,null,null,null,null,null,2,60,50,null,50,60,null,Processing speed,Memory (RAM),NA,NA
NA,NA,NA,NA,NA,choice_trial_setup,html-keyboard-response,74,238641,0.0-4.0-0.35,336,1,2025-05-08T21:57:28Z,b60275e29fe2361ab97ac0ac217840d7,"Mozilla/5.0 (Macintosh; Intel Mac OS X 10_15_7) AppleWebKit/537.36 (KHTML, like Gecko) Chrome/129.0.0.0 Safari/537.36",Macintosh,Chrome,129.0.0.0,OS X,10_15_7,https://5puzkbbxv1.cognition.run/?sona_id=51674,"en-US,en;q=0.9",wvxezp9bg8x6krn,20,"[""White""]",No,Female,NA,I'm not sure,341725,NA,null,<p></p>,null,choice,tcd,trinary,attraction,2,laptops,null,null,null,null,null,null,1,NA,NA,NA,NA,NA,NA,NA,NA,NA,NA
NA,NA,NA,NA,NA,choice_trial,survey-html-form,75,242079,0.0-4.0-1.35,336,1,2025-05-08T21:57:28Z,b60275e29fe2361ab97ac0ac217840d7,"Mozilla/5.0 (Macintosh; Intel Mac OS X 10_15_7) AppleWebKit/537.36 (KHTML, like Gecko) Chrome/129.0.0.0 Safari/537.36",Macintosh,Chrome,129.0.0.0,OS X,10_15_7,https://5puzkbbxv1.cognition.run/?sona_id=51674,"en-US,en;q=0.9",wvxezp9bg8x6krn,20,"[""White""]",No,Female,NA,I'm not sure,341725,NA,3432,NA,"{""product_choice"":""B""}",choice,tcd,trinary,attraction,2,laptops,null,null,null,null,null,null,1,50,60,40,60,50,60,Processing speed,Memory (RAM),NA,NA
NA,NA,NA,NA,NA,choice_trial_setup,html-keyboard-response,76,242384,0.0-4.0-0.36,336,1,2025-05-08T21:57:28Z,b60275e29fe2361ab97ac0ac217840d7,"Mozilla/5.0 (Macintosh; Intel Mac OS X 10_15_7) AppleWebKit/537.36 (KHTML, like Gecko) Chrome/129.0.0.0 Safari/537.36",Macintosh,Chrome,129.0.0.0,OS X,10_15_7,https://5puzkbbxv1.cognition.run/?sona_id=51674,"en-US,en;q=0.9",wvxezp9bg8x6krn,20,"[""White""]",No,Female,NA,I'm not sure,341725,NA,null,<p></p>,null,choice,dct,trinary,repulsion_B,2,televisions,null,null,null,null,null,null,2,NA,NA,NA,NA,NA,NA,NA,NA,NA,NA
NA,NA,NA,NA,NA,choice_trial,survey-html-form,77,246220,0.0-4.0-1.36,336,1,2025-05-08T21:57:28Z,b60275e29fe2361ab97ac0ac217840d7,"Mozilla/5.0 (Macintosh; Intel Mac OS X 10_15_7) AppleWebKit/537.36 (KHTML, like Gecko) Chrome/129.0.0.0 Safari/537.36",Macintosh,Chrome,129.0.0.0,OS X,10_15_7,https://5puzkbbxv1.cognition.run/?sona_id=51674,"en-US,en;q=0.9",wvxezp9bg8x6krn,20,"[""White""]",No,Female,NA,I'm not sure,341725,NA,3833,NA,"{""product_choice"":""C""}",choice,dct,trinary,repulsion_B,2,televisions,null,null,null,null,null,null,2,40,30,40,90,100,80,Screen size,Average lifespan,NA,NA
NA,NA,NA,NA,NA,choice_trial_setup,html-keyboard-response,78,246526,0.0-4.0-0.37,336,1,2025-05-08T21:57:28Z,b60275e29fe2361ab97ac0ac217840d7,"Mozilla/5.0 (Macintosh; Intel Mac OS X 10_15_7) AppleWebKit/537.36 (KHTML, like Gecko) Chrome/129.0.0.0 Safari/537.36",Macintosh,Chrome,129.0.0.0,OS X,10_15_7,https://5puzkbbxv1.cognition.run/?sona_id=51674,"en-US,en;q=0.9",wvxezp9bg8x6krn,20,"[""White""]",No,Female,NA,I'm not sure,341725,NA,null,<p></p>,null,choice,tc,binary,attraction,NA,washing machines,null,null,null,null,null,null,2,NA,NA,NA,NA,NA,NA,NA,NA,NA,NA
NA,NA,NA,NA,NA,choice_trial,survey-html-form,79,250805,0.0-4.0-1.37,336,1,2025-05-08T21:57:28Z,b60275e29fe2361ab97ac0ac217840d7,"Mozilla/5.0 (Macintosh; Intel Mac OS X 10_15_7) AppleWebKit/537.36 (KHTML, like Gecko) Chrome/129.0.0.0 Safari/537.36",Macintosh,Chrome,129.0.0.0,OS X,10_15_7,https://5puzkbbxv1.cognition.run/?sona_id=51674,"en-US,en;q=0.9",wvxezp9bg8x6krn,20,"[""White""]",No,Female,NA,I'm not sure,341725,NA,4273,NA,"{""product_choice"":""A""}",choice,tc,binary,attraction,NA,washing machines,null,null,null,null,null,null,2,60,50,null,50,60,null,Average lifespan,Energy savings,NA,NA
NA,NA,NA,NA,NA,choice_trial_setup,html-keyboard-response,80,251110,0.0-4.0-0.38,336,1,2025-05-08T21:57:28Z,b60275e29fe2361ab97ac0ac217840d7,"Mozilla/5.0 (Macintosh; Intel Mac OS X 10_15_7) AppleWebKit/537.36 (KHTML, like Gecko) Chrome/129.0.0.0 Safari/537.36",Macintosh,Chrome,129.0.0.0,OS X,10_15_7,https://5puzkbbxv1.cognition.run/?sona_id=51674,"en-US,en;q=0.9",wvxezp9bg8x6krn,20,"[""White""]",No,Female,NA,I'm not sure,341725,NA,null,<p></p>,null,choice,ctd,trinary,repulsion_B,1,laptops,null,null,null,null,null,null,2,NA,NA,NA,NA,NA,NA,NA,NA,NA,NA
NA,NA,NA,NA,NA,choice_trial,survey-html-form,81,255151,0.0-4.0-1.38,336,1,2025-05-08T21:57:28Z,b60275e29fe2361ab97ac0ac217840d7,"Mozilla/5.0 (Macintosh; Intel Mac OS X 10_15_7) AppleWebKit/537.36 (KHTML, like Gecko) Chrome/129.0.0.0 Safari/537.36",Macintosh,Chrome,129.0.0.0,OS X,10_15_7,https://5puzkbbxv1.cognition.run/?sona_id=51674,"en-US,en;q=0.9",wvxezp9bg8x6krn,20,"[""White""]",No,Female,NA,I'm not sure,341725,NA,4035,NA,"{""product_choice"":""B""}",choice,ctd,trinary,repulsion_B,1,laptops,null,null,null,null,null,null,2,90,100,80,40,30,40,Processing speed,Memory (RAM),NA,NA
NA,NA,NA,NA,NA,choice_trial_setup,html-keyboard-response,82,255457,0.0-4.0-0.39,336,1,2025-05-08T21:57:28Z,b60275e29fe2361ab97ac0ac217840d7,"Mozilla/5.0 (Macintosh; Intel Mac OS X 10_15_7) AppleWebKit/537.36 (KHTML, like Gecko) Chrome/129.0.0.0 Safari/537.36",Macintosh,Chrome,129.0.0.0,OS X,10_15_7,https://5puzkbbxv1.cognition.run/?sona_id=51674,"en-US,en;q=0.9",wvxezp9bg8x6krn,20,"[""White""]",No,Female,NA,I'm not sure,341725,NA,null,<p></p>,null,choice,wb,binary,catch,null,washing machines,65,85,25,30,null,null,1,NA,NA,NA,NA,NA,NA,NA,NA,NA,NA
NA,NA,NA,NA,NA,choice_trial,survey-html-form,83,257905,0.0-4.0-1.39,336,1,2025-05-08T21:57:28Z,b60275e29fe2361ab97ac0ac217840d7,"Mozilla/5.0 (Macintosh; Intel Mac OS X 10_15_7) AppleWebKit/537.36 (KHTML, like Gecko) Chrome/129.0.0.0 Safari/537.36",Macintosh,Chrome,129.0.0.0,OS X,10_15_7,https://5puzkbbxv1.cognition.run/?sona_id=51674,"en-US,en;q=0.9",wvxezp9bg8x6krn,20,"[""White""]",No,Female,NA,I'm not sure,341725,NA,2442,NA,"{""product_choice"":""B""}",choice,wb,binary,catch,null,washing machines,65,85,25,30,null,null,1,null,null,null,null,null,null,Average lifespan,Energy savings,NA,NA
NA,NA,NA,NA,NA,choice_trial_setup,html-keyboard-response,84,258209,0.0-4.0-0.40,336,1,2025-05-08T21:57:28Z,b60275e29fe2361ab97ac0ac217840d7,"Mozilla/5.0 (Macintosh; Intel Mac OS X 10_15_7) AppleWebKit/537.36 (KHTML, like Gecko) Chrome/129.0.0.0 Safari/537.36",Macintosh,Chrome,129.0.0.0,OS X,10_15_7,https://5puzkbbxv1.cognition.run/?sona_id=51674,"en-US,en;q=0.9",wvxezp9bg8x6krn,20,"[""White""]",No,Female,NA,I'm not sure,341725,NA,null,<p></p>,null,choice,tc,binary,repulsion,1,laptops,null,null,null,null,null,null,1,NA,NA,NA,NA,NA,NA,NA,NA,NA,NA
NA,NA,NA,NA,NA,choice_trial,survey-html-form,85,261737,0.0-4.0-1.40,336,1,2025-05-08T21:57:28Z,b60275e29fe2361ab97ac0ac217840d7,"Mozilla/5.0 (Macintosh; Intel Mac OS X 10_15_7) AppleWebKit/537.36 (KHTML, like Gecko) Chrome/129.0.0.0 Safari/537.36",Macintosh,Chrome,129.0.0.0,OS X,10_15_7,https://5puzkbbxv1.cognition.run/?sona_id=51674,"en-US,en;q=0.9",wvxezp9bg8x6krn,20,"[""White""]",No,Female,NA,I'm not sure,341725,NA,3523,NA,"{""product_choice"":""B""}",choice,tc,binary,repulsion,1,laptops,null,null,null,null,null,null,1,100,90,null,30,40,null,Processing speed,Memory (RAM),NA,NA
NA,NA,NA,NA,NA,choice_trial_setup,html-keyboard-response,86,262043,0.0-4.0-0.41,336,1,2025-05-08T21:57:28Z,b60275e29fe2361ab97ac0ac217840d7,"Mozilla/5.0 (Macintosh; Intel Mac OS X 10_15_7) AppleWebKit/537.36 (KHTML, like Gecko) Chrome/129.0.0.0 Safari/537.36",Macintosh,Chrome,129.0.0.0,OS X,10_15_7,https://5puzkbbxv1.cognition.run/?sona_id=51674,"en-US,en;q=0.9",wvxezp9bg8x6krn,20,"[""White""]",No,Female,NA,I'm not sure,341725,NA,null,<p></p>,null,choice,tc,binary,repulsion,2,laptops,null,null,null,null,null,null,2,NA,NA,NA,NA,NA,NA,NA,NA,NA,NA
NA,NA,NA,NA,NA,choice_trial,survey-html-form,87,264946,0.0-4.0-1.41,336,1,2025-05-08T21:57:28Z,b60275e29fe2361ab97ac0ac217840d7,"Mozilla/5.0 (Macintosh; Intel Mac OS X 10_15_7) AppleWebKit/537.36 (KHTML, like Gecko) Chrome/129.0.0.0 Safari/537.36",Macintosh,Chrome,129.0.0.0,OS X,10_15_7,https://5puzkbbxv1.cognition.run/?sona_id=51674,"en-US,en;q=0.9",wvxezp9bg8x6krn,20,"[""White""]",No,Female,NA,I'm not sure,341725,NA,2898,NA,"{""product_choice"":""B""}",choice,tc,binary,repulsion,2,laptops,null,null,null,null,null,null,2,30,40,null,100,90,null,Processing speed,Memory (RAM),NA,NA
NA,NA,NA,NA,NA,choice_trial_setup,html-keyboard-response,88,265250,0.0-4.0-0.42,336,1,2025-05-08T21:57:28Z,b60275e29fe2361ab97ac0ac217840d7,"Mozilla/5.0 (Macintosh; Intel Mac OS X 10_15_7) AppleWebKit/537.36 (KHTML, like Gecko) Chrome/129.0.0.0 Safari/537.36",Macintosh,Chrome,129.0.0.0,OS X,10_15_7,https://5puzkbbxv1.cognition.run/?sona_id=51674,"en-US,en;q=0.9",wvxezp9bg8x6krn,20,"[""White""]",No,Female,NA,I'm not sure,341725,NA,null,<p></p>,null,choice,cdt,trinary,repulsion_B,2,microwave ovens,null,null,null,null,null,null,1,NA,NA,NA,NA,NA,NA,NA,NA,NA,NA
NA,NA,NA,NA,NA,choice_trial,survey-html-form,89,273305,0.0-4.0-1.42,336,1,2025-05-08T21:57:28Z,b60275e29fe2361ab97ac0ac217840d7,"Mozilla/5.0 (Macintosh; Intel Mac OS X 10_15_7) AppleWebKit/537.36 (KHTML, like Gecko) Chrome/129.0.0.0 Safari/537.36",Macintosh,Chrome,129.0.0.0,OS X,10_15_7,https://5puzkbbxv1.cognition.run/?sona_id=51674,"en-US,en;q=0.9",wvxezp9bg8x6krn,20,"[""White""]",No,Female,NA,I'm not sure,341725,NA,8050,NA,"{""product_choice"":""C""}",choice,cdt,trinary,repulsion_B,2,microwave ovens,null,null,null,null,null,null,1,40,30,40,90,100,80,Warranty,Cooking power,NA,NA
NA,NA,NA,NA,NA,choice_trial_setup,html-keyboard-response,90,273611,0.0-4.0-0.43,336,1,2025-05-08T21:57:28Z,b60275e29fe2361ab97ac0ac217840d7,"Mozilla/5.0 (Macintosh; Intel Mac OS X 10_15_7) AppleWebKit/537.36 (KHTML, like Gecko) Chrome/129.0.0.0 Safari/537.36",Macintosh,Chrome,129.0.0.0,OS X,10_15_7,https://5puzkbbxv1.cognition.run/?sona_id=51674,"en-US,en;q=0.9",wvxezp9bg8x6krn,20,"[""White""]",No,Female,NA,I'm not sure,341725,NA,null,<p></p>,null,choice,tcd,trinary,repulsion_A,1,microwave ovens,null,null,null,null,null,null,1,NA,NA,NA,NA,NA,NA,NA,NA,NA,NA
NA,NA,NA,NA,NA,choice_trial,survey-html-form,91,276580,0.0-4.0-1.43,336,1,2025-05-08T21:57:28Z,b60275e29fe2361ab97ac0ac217840d7,"Mozilla/5.0 (Macintosh; Intel Mac OS X 10_15_7) AppleWebKit/537.36 (KHTML, like Gecko) Chrome/129.0.0.0 Safari/537.36",Macintosh,Chrome,129.0.0.0,OS X,10_15_7,https://5puzkbbxv1.cognition.run/?sona_id=51674,"en-US,en;q=0.9",wvxezp9bg8x6krn,20,"[""White""]",No,Female,NA,I'm not sure,341725,NA,2963,NA,"{""product_choice"":""B""}",choice,tcd,trinary,repulsion_A,1,microwave ovens,null,null,null,null,null,null,1,100,90,100,30,40,20,Warranty,Cooking power,NA,NA
NA,NA,NA,NA,NA,post_trials_message,html-button-response,92,278795,0.0-5.0,336,1,2025-05-08T21:57:28Z,b60275e29fe2361ab97ac0ac217840d7,"Mozilla/5.0 (Macintosh; Intel Mac OS X 10_15_7) AppleWebKit/537.36 (KHTML, like Gecko) Chrome/129.0.0.0 Safari/537.36",Macintosh,Chrome,129.0.0.0,OS X,10_15_7,https://5puzkbbxv1.cognition.run/?sona_id=51674,"en-US,en;q=0.9",wvxezp9bg8x6krn,20,"[""White""]",No,Female,NA,I'm not sure,341725,NA,2209,<p> <b>Thank you for your patience!</b></p><p>  The study will be done after completing a brief form. </p>,0,NA,NA,NA,NA,NA,NA,NA,NA,NA,NA,NA,NA,NA,NA,NA,NA,NA,NA,NA,NA,NA,NA,NA
NA,NA,NA,NA,NA,survey_message,survey-text,93,303061,0.0-6.0,336,1,2025-05-08T21:57:28Z,b60275e29fe2361ab97ac0ac217840d7,"Mozilla/5.0 (Macintosh; Intel Mac OS X 10_15_7) AppleWebKit/537.36 (KHTML, like Gecko) Chrome/129.0.0.0 Safari/537.36",Macintosh,Chrome,129.0.0.0,OS X,10_15_7,https://5puzkbbxv1.cognition.run/?sona_id=51674,"en-US,en;q=0.9",wvxezp9bg8x6krn,20,"[""White""]",No,Female,NA,I'm not sure,341725,NA,24259,NA,"{""Q0"":""I tried to go for the highest ratings overall and tried to value each column as much as I could""}",NA,NA,NA,NA,NA,NA,NA,NA,NA,NA,NA,NA,NA,NA,NA,NA,NA,NA,NA,NA,NA,I tried to go for the highest ratings overall and tried to value each column as much as I could,NA
NA,NA,NA,NA,NA,demo_age,survey-text,94,305560,0.0-7.0,336,1,2025-05-08T21:57:28Z,b60275e29fe2361ab97ac0ac217840d7,"Mozilla/5.0 (Macintosh; Intel Mac OS X 10_15_7) AppleWebKit/537.36 (KHTML, like Gecko) Chrome/129.0.0.0 Safari/537.36",Macintosh,Chrome,129.0.0.0,OS X,10_15_7,https://5puzkbbxv1.cognition.run/?sona_id=51674,"en-US,en;q=0.9",wvxezp9bg8x6krn,20,"[""White""]",No,Female,NA,I'm not sure,341725,NA,2495,NA,"{""Q0"":""20""}",NA,NA,NA,NA,NA,NA,NA,NA,NA,NA,NA,NA,NA,NA,NA,NA,NA,NA,NA,NA,NA,NA,NA
NA,NA,NA,NA,NA,demo_race,survey-multi-select,95,307726,0.0-8.0,336,1,2025-05-08T21:57:28Z,b60275e29fe2361ab97ac0ac217840d7,"Mozilla/5.0 (Macintosh; Intel Mac OS X 10_15_7) AppleWebKit/537.36 (KHTML, like Gecko) Chrome/129.0.0.0 Safari/537.36",Macintosh,Chrome,129.0.0.0,OS X,10_15_7,https://5puzkbbxv1.cognition.run/?sona_id=51674,"en-US,en;q=0.9",wvxezp9bg8x6krn,20,"[""White""]",No,Female,NA,I'm not sure,341725,NA,2158,NA,"{""Q0"":[""White""]}",NA,NA,NA,NA,NA,NA,NA,NA,NA,NA,NA,NA,NA,NA,NA,NA,NA,NA,NA,NA,NA,NA,[0]
NA,NA,NA,NA,NA,demo_ethnicity_gender,survey-multi-choice,96,313347,0.0-9.0,336,1,2025-05-08T21:57:28Z,b60275e29fe2361ab97ac0ac217840d7,"Mozilla/5.0 (Macintosh; Intel Mac OS X 10_15_7) AppleWebKit/537.36 (KHTML, like Gecko) Chrome/129.0.0.0 Safari/537.36",Macintosh,Chrome,129.0.0.0,OS X,10_15_7,https://5puzkbbxv1.cognition.run/?sona_id=51674,"en-US,en;q=0.9",wvxezp9bg8x6krn,20,"[""White""]",No,Female,NA,I'm not sure,341725,NA,5614,NA,"{""Q0"":""No"",""Q1"":""Female""}",NA,NA,NA,NA,NA,NA,NA,NA,NA,NA,NA,NA,NA,NA,NA,NA,NA,NA,NA,NA,NA,NA,"[0,1]"
NA,NA,NA,NA,NA,demo_countries,survey-text,97,319155,0.0-10.0,336,1,2025-05-08T21:57:28Z,b60275e29fe2361ab97ac0ac217840d7,"Mozilla/5.0 (Macintosh; Intel Mac OS X 10_15_7) AppleWebKit/537.36 (KHTML, like Gecko) Chrome/129.0.0.0 Safari/537.36",Macintosh,Chrome,129.0.0.0,OS X,10_15_7,https://5puzkbbxv1.cognition.run/?sona_id=51674,"en-US,en;q=0.9",wvxezp9bg8x6krn,20,"[""White""]",No,Female,NA,I'm not sure,341725,NA,5792,NA,"{""Q0"":""NA""}",NA,NA,NA,NA,NA,NA,NA,NA,NA,NA,NA,NA,NA,NA,NA,NA,NA,NA,NA,NA,NA,NA,NA
NA,NA,NA,NA,NA,demo_prev_study,survey-multi-choice,98,326266,0.0-11.0,336,1,2025-05-08T21:57:28Z,b60275e29fe2361ab97ac0ac217840d7,"Mozilla/5.0 (Macintosh; Intel Mac OS X 10_15_7) AppleWebKit/537.36 (KHTML, like Gecko) Chrome/129.0.0.0 Safari/537.36",Macintosh,Chrome,129.0.0.0,OS X,10_15_7,https://5puzkbbxv1.cognition.run/?sona_id=51674,"en-US,en;q=0.9",wvxezp9bg8x6krn,20,"[""White""]",No,Female,NA,I'm not sure,341725,NA,7107,NA,"{""Q0"":""I'm not sure""}",NA,NA,NA,NA,NA,NA,NA,NA,NA,NA,NA,NA,NA,NA,NA,NA,NA,NA,NA,NA,NA,NA,[0]
NA,NA,NA,NA,NA,post_survey_message,html-keyboard-response,99,330494,0.0-12.0,336,1,2025-05-08T21:57:28Z,b60275e29fe2361ab97ac0ac217840d7,"Mozilla/5.0 (Macintosh; Intel Mac OS X 10_15_7) AppleWebKit/537.36 (KHTML, like Gecko) Chrome/129.0.0.0 Safari/537.36",Macintosh,Chrome,129.0.0.0,OS X,10_15_7,https://5puzkbbxv1.cognition.run/?sona_id=51674,"en-US,en;q=0.9",wvxezp9bg8x6krn,20,"[""White""]",No,Female,NA,I'm not sure,341725,NA,4220,NA,j,NA,NA,NA,NA,NA,NA,NA,NA,NA,NA,NA,NA,NA,NA,NA,NA,NA,NA,NA,NA,NA,NA,NA
NA,NA,NA,NA,NA,debrief,image-keyboard-response,100,341723,0.0-13.0,336,1,2025-05-08T21:57:28Z,b60275e29fe2361ab97ac0ac217840d7,"Mozilla/5.0 (Macintosh; Intel Mac OS X 10_15_7) AppleWebKit/537.36 (KHTML, like Gecko) Chrome/129.0.0.0 Safari/537.36",Macintosh,Chrome,129.0.0.0,OS X,10_15_7,https://5puzkbbxv1.cognition.run/?sona_id=51674,"en-US,en;q=0.9",wvxezp9bg8x6krn,20,"[""White""]",No,Female,NA,I'm not sure,341725,NA,11222,Judg_choice_debrief.png,p,NA,NA,NA,NA,NA,NA,NA,NA,NA,NA,NA,NA,NA,NA,NA,NA,NA,NA,NA,NA,NA,NA,NA
