success,timeout,failed_images,failed_audio,failed_video,screen_id,trial_type,trial_index,time_elapsed,internal_node_id,run_id,condition,recorded_at,source_code_version,user_agent,device,browser,browser_version,platform,platform_version,referer,accept_language,ppt_id,age,race,ethnicity,gender,other_countries,prev_study,exp_duration,view_history,rt,stimulus,response,phase,order,set,effect,t_high,category,d1_best,d2_best,d1_worst1,d2_worst1,d1_worst2,d2_worst2,first_dim,d1_t,d1_c,d1_d,d2_t,d2_c,d2_d,d1_name,d2_name,strategy_response,question_order
TRUE,FALSE,[],[],[],img preload,preload,0,184,0.0-0.0,338,1,2025-05-08T23:33:39Z,b60275e29fe2361ab97ac0ac217840d7,"Mozilla/5.0 (Macintosh; Intel Mac OS X 10_15_7) AppleWebKit/537.36 (KHTML, like Gecko) Chrome/135.0.0.0 Safari/537.36",Macintosh,Chrome,135.0.0.0,OS X,10_15_7,https://5puzkbbxv1.cognition.run/?sona_id=52099,"en-US,en;q=0.9,zh-CN;q=0.8,zh-TW;q=0.7,zh;q=0.6",39dehdm0oskrddb,20,"[""White""]",No,Female,NA,Yes,483253.89999997616,NA,NA,NA,NA,NA,NA,NA,NA,NA,NA,NA,NA,NA,NA,NA,NA,NA,NA,NA,NA,NA,NA,NA,NA,NA,NA,NA
NA,NA,NA,NA,NA,computer_message,instructions,1,3223,0.0-1.0,338,1,2025-05-08T23:33:39Z,b60275e29fe2361ab97ac0ac217840d7,"Mozilla/5.0 (Macintosh; Intel Mac OS X 10_15_7) AppleWebKit/537.36 (KHTML, like Gecko) Chrome/135.0.0.0 Safari/537.36",Macintosh,Chrome,135.0.0.0,OS X,10_15_7,https://5puzkbbxv1.cognition.run/?sona_id=52099,"en-US,en;q=0.9,zh-CN;q=0.8,zh-TW;q=0.7,zh;q=0.6",39dehdm0oskrddb,20,"[""White""]",No,Female,NA,Yes,483253.89999997616,"[{""page_index"":0,""viewing_time"":3038}]",3038,NA,NA,NA,NA,NA,NA,NA,NA,NA,NA,NA,NA,NA,NA,NA,NA,NA,NA,NA,NA,NA,NA,NA,NA,NA
TRUE,NA,NA,NA,NA,NA,fullscreen,2,7822,0.0-2.0,338,1,2025-05-08T23:33:39Z,b60275e29fe2361ab97ac0ac217840d7,"Mozilla/5.0 (Macintosh; Intel Mac OS X 10_15_7) AppleWebKit/537.36 (KHTML, like Gecko) Chrome/135.0.0.0 Safari/537.36",Macintosh,Chrome,135.0.0.0,OS X,10_15_7,https://5puzkbbxv1.cognition.run/?sona_id=52099,"en-US,en;q=0.9,zh-CN;q=0.8,zh-TW;q=0.7,zh;q=0.6",39dehdm0oskrddb,20,"[""White""]",No,Female,NA,Yes,483253.89999997616,NA,3594,NA,NA,NA,NA,NA,NA,NA,NA,NA,NA,NA,NA,NA,NA,NA,NA,NA,NA,NA,NA,NA,NA,NA,NA,NA
NA,NA,NA,NA,NA,choice_instructions,instructions,3,50355,0.0-3.0,338,1,2025-05-08T23:33:39Z,b60275e29fe2361ab97ac0ac217840d7,"Mozilla/5.0 (Macintosh; Intel Mac OS X 10_15_7) AppleWebKit/537.36 (KHTML, like Gecko) Chrome/135.0.0.0 Safari/537.36",Macintosh,Chrome,135.0.0.0,OS X,10_15_7,https://5puzkbbxv1.cognition.run/?sona_id=52099,"en-US,en;q=0.9,zh-CN;q=0.8,zh-TW;q=0.7,zh;q=0.6",39dehdm0oskrddb,20,"[""White""]",No,Female,NA,Yes,483253.89999997616,"[{""page_index"":0,""viewing_time"":1380},{""page_index"":1,""viewing_time"":3332},{""page_index"":2,""viewing_time"":6440},{""page_index"":3,""viewing_time"":4762},{""page_index"":4,""viewing_time"":2118},{""page_index"":5,""viewing_time"":18816},{""page_index"":6,""viewing_time"":5685}]",42533,NA,NA,NA,NA,NA,NA,NA,NA,NA,NA,NA,NA,NA,NA,NA,NA,NA,NA,NA,NA,NA,NA,NA,NA,NA
NA,NA,NA,NA,NA,choice_trial_setup,html-keyboard-response,4,50658,0.0-4.0-0.0,338,1,2025-05-08T23:33:39Z,b60275e29fe2361ab97ac0ac217840d7,"Mozilla/5.0 (Macintosh; Intel Mac OS X 10_15_7) AppleWebKit/537.36 (KHTML, like Gecko) Chrome/135.0.0.0 Safari/537.36",Macintosh,Chrome,135.0.0.0,OS X,10_15_7,https://5puzkbbxv1.cognition.run/?sona_id=52099,"en-US,en;q=0.9,zh-CN;q=0.8,zh-TW;q=0.7,zh;q=0.6",39dehdm0oskrddb,20,"[""White""]",No,Female,NA,Yes,483253.89999997616,NA,null,<p></p>,null,choice,ctd,trinary,repulsion_B,2,microwave ovens,null,null,null,null,null,null,2,NA,NA,NA,NA,NA,NA,NA,NA,NA,NA
NA,NA,NA,NA,NA,choice_trial,survey-html-form,5,56439,0.0-4.0-1.0,338,1,2025-05-08T23:33:39Z,b60275e29fe2361ab97ac0ac217840d7,"Mozilla/5.0 (Macintosh; Intel Mac OS X 10_15_7) AppleWebKit/537.36 (KHTML, like Gecko) Chrome/135.0.0.0 Safari/537.36",Macintosh,Chrome,135.0.0.0,OS X,10_15_7,https://5puzkbbxv1.cognition.run/?sona_id=52099,"en-US,en;q=0.9,zh-CN;q=0.8,zh-TW;q=0.7,zh;q=0.6",39dehdm0oskrddb,20,"[""White""]",No,Female,NA,Yes,483253.89999997616,NA,5777,NA,"{""product_choice"":""B""}",choice,ctd,trinary,repulsion_B,2,microwave ovens,null,null,null,null,null,null,2,40,30,40,90,100,80,Warranty,Cooking power,NA,NA
NA,NA,NA,NA,NA,choice_trial_setup,html-keyboard-response,6,56741,0.0-4.0-0.1,338,1,2025-05-08T23:33:39Z,b60275e29fe2361ab97ac0ac217840d7,"Mozilla/5.0 (Macintosh; Intel Mac OS X 10_15_7) AppleWebKit/537.36 (KHTML, like Gecko) Chrome/135.0.0.0 Safari/537.36",Macintosh,Chrome,135.0.0.0,OS X,10_15_7,https://5puzkbbxv1.cognition.run/?sona_id=52099,"en-US,en;q=0.9,zh-CN;q=0.8,zh-TW;q=0.7,zh;q=0.6",39dehdm0oskrddb,20,"[""White""]",No,Female,NA,Yes,483253.89999997616,NA,null,<p></p>,null,choice,ctd,trinary,repulsion_A,2,microwave ovens,null,null,null,null,null,null,2,NA,NA,NA,NA,NA,NA,NA,NA,NA,NA
NA,NA,NA,NA,NA,choice_trial,survey-html-form,7,63255,0.0-4.0-1.1,338,1,2025-05-08T23:33:39Z,b60275e29fe2361ab97ac0ac217840d7,"Mozilla/5.0 (Macintosh; Intel Mac OS X 10_15_7) AppleWebKit/537.36 (KHTML, like Gecko) Chrome/135.0.0.0 Safari/537.36",Macintosh,Chrome,135.0.0.0,OS X,10_15_7,https://5puzkbbxv1.cognition.run/?sona_id=52099,"en-US,en;q=0.9,zh-CN;q=0.8,zh-TW;q=0.7,zh;q=0.6",39dehdm0oskrddb,20,"[""White""]",No,Female,NA,Yes,483253.89999997616,NA,6512,NA,"{""product_choice"":""A""}",choice,ctd,trinary,repulsion_A,2,microwave ovens,null,null,null,null,null,null,2,30,40,20,100,90,100,Warranty,Cooking power,NA,NA
NA,NA,NA,NA,NA,choice_trial_setup,html-keyboard-response,8,63559,0.0-4.0-0.2,338,1,2025-05-08T23:33:39Z,b60275e29fe2361ab97ac0ac217840d7,"Mozilla/5.0 (Macintosh; Intel Mac OS X 10_15_7) AppleWebKit/537.36 (KHTML, like Gecko) Chrome/135.0.0.0 Safari/537.36",Macintosh,Chrome,135.0.0.0,OS X,10_15_7,https://5puzkbbxv1.cognition.run/?sona_id=52099,"en-US,en;q=0.9,zh-CN;q=0.8,zh-TW;q=0.7,zh;q=0.6",39dehdm0oskrddb,20,"[""White""]",No,Female,NA,Yes,483253.89999997616,NA,null,<p></p>,null,choice,ct,binary,repulsion,2,laptops,null,null,null,null,null,null,1,NA,NA,NA,NA,NA,NA,NA,NA,NA,NA
NA,NA,NA,NA,NA,choice_trial,survey-html-form,9,69755,0.0-4.0-1.2,338,1,2025-05-08T23:33:39Z,b60275e29fe2361ab97ac0ac217840d7,"Mozilla/5.0 (Macintosh; Intel Mac OS X 10_15_7) AppleWebKit/537.36 (KHTML, like Gecko) Chrome/135.0.0.0 Safari/537.36",Macintosh,Chrome,135.0.0.0,OS X,10_15_7,https://5puzkbbxv1.cognition.run/?sona_id=52099,"en-US,en;q=0.9,zh-CN;q=0.8,zh-TW;q=0.7,zh;q=0.6",39dehdm0oskrddb,20,"[""White""]",No,Female,NA,Yes,483253.89999997616,NA,6193,NA,"{""product_choice"":""A""}",choice,ct,binary,repulsion,2,laptops,null,null,null,null,null,null,1,30,40,null,100,90,null,Processing speed,Memory (RAM),NA,NA
NA,NA,NA,NA,NA,choice_trial_setup,html-keyboard-response,10,70059,0.0-4.0-0.3,338,1,2025-05-08T23:33:39Z,b60275e29fe2361ab97ac0ac217840d7,"Mozilla/5.0 (Macintosh; Intel Mac OS X 10_15_7) AppleWebKit/537.36 (KHTML, like Gecko) Chrome/135.0.0.0 Safari/537.36",Macintosh,Chrome,135.0.0.0,OS X,10_15_7,https://5puzkbbxv1.cognition.run/?sona_id=52099,"en-US,en;q=0.9,zh-CN;q=0.8,zh-TW;q=0.7,zh;q=0.6",39dehdm0oskrddb,20,"[""White""]",No,Female,NA,Yes,483253.89999997616,NA,null,<p></p>,null,choice,tc,binary,attraction,NA,laptops,null,null,null,null,null,null,1,NA,NA,NA,NA,NA,NA,NA,NA,NA,NA
NA,NA,NA,NA,NA,choice_trial,survey-html-form,11,78904,0.0-4.0-1.3,338,1,2025-05-08T23:33:39Z,b60275e29fe2361ab97ac0ac217840d7,"Mozilla/5.0 (Macintosh; Intel Mac OS X 10_15_7) AppleWebKit/537.36 (KHTML, like Gecko) Chrome/135.0.0.0 Safari/537.36",Macintosh,Chrome,135.0.0.0,OS X,10_15_7,https://5puzkbbxv1.cognition.run/?sona_id=52099,"en-US,en;q=0.9,zh-CN;q=0.8,zh-TW;q=0.7,zh;q=0.6",39dehdm0oskrddb,20,"[""White""]",No,Female,NA,Yes,483253.89999997616,NA,8843,NA,"{""product_choice"":""B""}",choice,tc,binary,attraction,NA,laptops,null,null,null,null,null,null,1,60,50,null,50,60,null,Processing speed,Memory (RAM),NA,NA
NA,NA,NA,NA,NA,choice_trial_setup,html-keyboard-response,12,79208,0.0-4.0-0.4,338,1,2025-05-08T23:33:39Z,b60275e29fe2361ab97ac0ac217840d7,"Mozilla/5.0 (Macintosh; Intel Mac OS X 10_15_7) AppleWebKit/537.36 (KHTML, like Gecko) Chrome/135.0.0.0 Safari/537.36",Macintosh,Chrome,135.0.0.0,OS X,10_15_7,https://5puzkbbxv1.cognition.run/?sona_id=52099,"en-US,en;q=0.9,zh-CN;q=0.8,zh-TW;q=0.7,zh;q=0.6",39dehdm0oskrddb,20,"[""White""]",No,Female,NA,Yes,483253.89999997616,NA,null,<p></p>,null,choice,ctd,trinary,repulsion_A,1,microwave ovens,null,null,null,null,null,null,2,NA,NA,NA,NA,NA,NA,NA,NA,NA,NA
NA,NA,NA,NA,NA,choice_trial,survey-html-form,13,83638,0.0-4.0-1.4,338,1,2025-05-08T23:33:39Z,b60275e29fe2361ab97ac0ac217840d7,"Mozilla/5.0 (Macintosh; Intel Mac OS X 10_15_7) AppleWebKit/537.36 (KHTML, like Gecko) Chrome/135.0.0.0 Safari/537.36",Macintosh,Chrome,135.0.0.0,OS X,10_15_7,https://5puzkbbxv1.cognition.run/?sona_id=52099,"en-US,en;q=0.9,zh-CN;q=0.8,zh-TW;q=0.7,zh;q=0.6",39dehdm0oskrddb,20,"[""White""]",No,Female,NA,Yes,483253.89999997616,NA,4427,NA,"{""product_choice"":""A""}",choice,ctd,trinary,repulsion_A,1,microwave ovens,null,null,null,null,null,null,2,100,90,100,30,40,20,Warranty,Cooking power,NA,NA
NA,NA,NA,NA,NA,choice_trial_setup,html-keyboard-response,14,83941,0.0-4.0-0.5,338,1,2025-05-08T23:33:39Z,b60275e29fe2361ab97ac0ac217840d7,"Mozilla/5.0 (Macintosh; Intel Mac OS X 10_15_7) AppleWebKit/537.36 (KHTML, like Gecko) Chrome/135.0.0.0 Safari/537.36",Macintosh,Chrome,135.0.0.0,OS X,10_15_7,https://5puzkbbxv1.cognition.run/?sona_id=52099,"en-US,en;q=0.9,zh-CN;q=0.8,zh-TW;q=0.7,zh;q=0.6",39dehdm0oskrddb,20,"[""White""]",No,Female,NA,Yes,483253.89999997616,NA,null,<p></p>,null,choice,tdc,trinary,attraction,1,televisions,null,null,null,null,null,null,2,NA,NA,NA,NA,NA,NA,NA,NA,NA,NA
NA,NA,NA,NA,NA,choice_trial,survey-html-form,15,94772,0.0-4.0-1.5,338,1,2025-05-08T23:33:39Z,b60275e29fe2361ab97ac0ac217840d7,"Mozilla/5.0 (Macintosh; Intel Mac OS X 10_15_7) AppleWebKit/537.36 (KHTML, like Gecko) Chrome/135.0.0.0 Safari/537.36",Macintosh,Chrome,135.0.0.0,OS X,10_15_7,https://5puzkbbxv1.cognition.run/?sona_id=52099,"en-US,en;q=0.9,zh-CN;q=0.8,zh-TW;q=0.7,zh;q=0.6",39dehdm0oskrddb,20,"[""White""]",No,Female,NA,Yes,483253.89999997616,NA,10830,NA,"{""product_choice"":""C""}",choice,tdc,trinary,attraction,1,televisions,null,null,null,null,null,null,2,60,50,60,50,60,40,Screen size,Average lifespan,NA,NA
NA,NA,NA,NA,NA,choice_trial_setup,html-keyboard-response,16,95076,0.0-4.0-0.6,338,1,2025-05-08T23:33:39Z,b60275e29fe2361ab97ac0ac217840d7,"Mozilla/5.0 (Macintosh; Intel Mac OS X 10_15_7) AppleWebKit/537.36 (KHTML, like Gecko) Chrome/135.0.0.0 Safari/537.36",Macintosh,Chrome,135.0.0.0,OS X,10_15_7,https://5puzkbbxv1.cognition.run/?sona_id=52099,"en-US,en;q=0.9,zh-CN;q=0.8,zh-TW;q=0.7,zh;q=0.6",39dehdm0oskrddb,20,"[""White""]",No,Female,NA,Yes,483253.89999997616,NA,null,<p></p>,null,choice,wbw,trinary,catch,null,laptops,90,65,40,50,15,40,1,NA,NA,NA,NA,NA,NA,NA,NA,NA,NA
NA,NA,NA,NA,NA,choice_trial,survey-html-form,17,106254,0.0-4.0-1.6,338,1,2025-05-08T23:33:39Z,b60275e29fe2361ab97ac0ac217840d7,"Mozilla/5.0 (Macintosh; Intel Mac OS X 10_15_7) AppleWebKit/537.36 (KHTML, like Gecko) Chrome/135.0.0.0 Safari/537.36",Macintosh,Chrome,135.0.0.0,OS X,10_15_7,https://5puzkbbxv1.cognition.run/?sona_id=52099,"en-US,en;q=0.9,zh-CN;q=0.8,zh-TW;q=0.7,zh;q=0.6",39dehdm0oskrddb,20,"[""White""]",No,Female,NA,Yes,483253.89999997616,NA,11174,NA,"{""product_choice"":""B""}",choice,wbw,trinary,catch,null,laptops,90,65,40,50,15,40,1,null,null,null,null,null,null,Processing speed,Memory (RAM),NA,NA
NA,NA,NA,NA,NA,choice_trial_setup,html-keyboard-response,18,106557,0.0-4.0-0.7,338,1,2025-05-08T23:33:39Z,b60275e29fe2361ab97ac0ac217840d7,"Mozilla/5.0 (Macintosh; Intel Mac OS X 10_15_7) AppleWebKit/537.36 (KHTML, like Gecko) Chrome/135.0.0.0 Safari/537.36",Macintosh,Chrome,135.0.0.0,OS X,10_15_7,https://5puzkbbxv1.cognition.run/?sona_id=52099,"en-US,en;q=0.9,zh-CN;q=0.8,zh-TW;q=0.7,zh;q=0.6",39dehdm0oskrddb,20,"[""White""]",No,Female,NA,Yes,483253.89999997616,NA,null,<p></p>,null,choice,bw,binary,catch,null,washing machines,95,65,15,10,null,null,2,NA,NA,NA,NA,NA,NA,NA,NA,NA,NA
NA,NA,NA,NA,NA,choice_trial,survey-html-form,19,112756,0.0-4.0-1.7,338,1,2025-05-08T23:33:39Z,b60275e29fe2361ab97ac0ac217840d7,"Mozilla/5.0 (Macintosh; Intel Mac OS X 10_15_7) AppleWebKit/537.36 (KHTML, like Gecko) Chrome/135.0.0.0 Safari/537.36",Macintosh,Chrome,135.0.0.0,OS X,10_15_7,https://5puzkbbxv1.cognition.run/?sona_id=52099,"en-US,en;q=0.9,zh-CN;q=0.8,zh-TW;q=0.7,zh;q=0.6",39dehdm0oskrddb,20,"[""White""]",No,Female,NA,Yes,483253.89999997616,NA,6196,NA,"{""product_choice"":""A""}",choice,bw,binary,catch,null,washing machines,95,65,15,10,null,null,2,null,null,null,null,null,null,Average lifespan,Energy savings,NA,NA
NA,NA,NA,NA,NA,choice_trial_setup,html-keyboard-response,20,113060,0.0-4.0-0.8,338,1,2025-05-08T23:33:39Z,b60275e29fe2361ab97ac0ac217840d7,"Mozilla/5.0 (Macintosh; Intel Mac OS X 10_15_7) AppleWebKit/537.36 (KHTML, like Gecko) Chrome/135.0.0.0 Safari/537.36",Macintosh,Chrome,135.0.0.0,OS X,10_15_7,https://5puzkbbxv1.cognition.run/?sona_id=52099,"en-US,en;q=0.9,zh-CN;q=0.8,zh-TW;q=0.7,zh;q=0.6",39dehdm0oskrddb,20,"[""White""]",No,Female,NA,Yes,483253.89999997616,NA,null,<p></p>,null,choice,cdt,trinary,attraction,1,washing machines,null,null,null,null,null,null,1,NA,NA,NA,NA,NA,NA,NA,NA,NA,NA
NA,NA,NA,NA,NA,choice_trial,survey-html-form,21,120588,0.0-4.0-1.8,338,1,2025-05-08T23:33:39Z,b60275e29fe2361ab97ac0ac217840d7,"Mozilla/5.0 (Macintosh; Intel Mac OS X 10_15_7) AppleWebKit/537.36 (KHTML, like Gecko) Chrome/135.0.0.0 Safari/537.36",Macintosh,Chrome,135.0.0.0,OS X,10_15_7,https://5puzkbbxv1.cognition.run/?sona_id=52099,"en-US,en;q=0.9,zh-CN;q=0.8,zh-TW;q=0.7,zh;q=0.6",39dehdm0oskrddb,20,"[""White""]",No,Female,NA,Yes,483253.89999997616,NA,7524,NA,"{""product_choice"":""C""}",choice,cdt,trinary,attraction,1,washing machines,null,null,null,null,null,null,1,60,50,60,50,60,40,Average lifespan,Energy savings,NA,NA
NA,NA,NA,NA,NA,choice_trial_setup,html-keyboard-response,22,120891,0.0-4.0-0.9,338,1,2025-05-08T23:33:39Z,b60275e29fe2361ab97ac0ac217840d7,"Mozilla/5.0 (Macintosh; Intel Mac OS X 10_15_7) AppleWebKit/537.36 (KHTML, like Gecko) Chrome/135.0.0.0 Safari/537.36",Macintosh,Chrome,135.0.0.0,OS X,10_15_7,https://5puzkbbxv1.cognition.run/?sona_id=52099,"en-US,en;q=0.9,zh-CN;q=0.8,zh-TW;q=0.7,zh;q=0.6",39dehdm0oskrddb,20,"[""White""]",No,Female,NA,Yes,483253.89999997616,NA,null,<p></p>,null,choice,ct,binary,repulsion,1,laptops,null,null,null,null,null,null,2,NA,NA,NA,NA,NA,NA,NA,NA,NA,NA
NA,NA,NA,NA,NA,choice_trial,survey-html-form,23,124789,0.0-4.0-1.9,338,1,2025-05-08T23:33:39Z,b60275e29fe2361ab97ac0ac217840d7,"Mozilla/5.0 (Macintosh; Intel Mac OS X 10_15_7) AppleWebKit/537.36 (KHTML, like Gecko) Chrome/135.0.0.0 Safari/537.36",Macintosh,Chrome,135.0.0.0,OS X,10_15_7,https://5puzkbbxv1.cognition.run/?sona_id=52099,"en-US,en;q=0.9,zh-CN;q=0.8,zh-TW;q=0.7,zh;q=0.6",39dehdm0oskrddb,20,"[""White""]",No,Female,NA,Yes,483253.89999997616,NA,3894,NA,"{""product_choice"":""A""}",choice,ct,binary,repulsion,1,laptops,null,null,null,null,null,null,2,100,90,null,30,40,null,Processing speed,Memory (RAM),NA,NA
NA,NA,NA,NA,NA,choice_trial_setup,html-keyboard-response,24,125092,0.0-4.0-0.10,338,1,2025-05-08T23:33:39Z,b60275e29fe2361ab97ac0ac217840d7,"Mozilla/5.0 (Macintosh; Intel Mac OS X 10_15_7) AppleWebKit/537.36 (KHTML, like Gecko) Chrome/135.0.0.0 Safari/537.36",Macintosh,Chrome,135.0.0.0,OS X,10_15_7,https://5puzkbbxv1.cognition.run/?sona_id=52099,"en-US,en;q=0.9,zh-CN;q=0.8,zh-TW;q=0.7,zh;q=0.6",39dehdm0oskrddb,20,"[""White""]",No,Female,NA,Yes,483253.89999997616,NA,null,<p></p>,null,choice,tc,binary,repulsion,2,washing machines,null,null,null,null,null,null,1,NA,NA,NA,NA,NA,NA,NA,NA,NA,NA
NA,NA,NA,NA,NA,choice_trial,survey-html-form,25,132172,0.0-4.0-1.10,338,1,2025-05-08T23:33:39Z,b60275e29fe2361ab97ac0ac217840d7,"Mozilla/5.0 (Macintosh; Intel Mac OS X 10_15_7) AppleWebKit/537.36 (KHTML, like Gecko) Chrome/135.0.0.0 Safari/537.36",Macintosh,Chrome,135.0.0.0,OS X,10_15_7,https://5puzkbbxv1.cognition.run/?sona_id=52099,"en-US,en;q=0.9,zh-CN;q=0.8,zh-TW;q=0.7,zh;q=0.6",39dehdm0oskrddb,20,"[""White""]",No,Female,NA,Yes,483253.89999997616,NA,7076,NA,"{""product_choice"":""B""}",choice,tc,binary,repulsion,2,washing machines,null,null,null,null,null,null,1,30,40,null,100,90,null,Average lifespan,Energy savings,NA,NA
NA,NA,NA,NA,NA,choice_trial_setup,html-keyboard-response,26,132475,0.0-4.0-0.11,338,1,2025-05-08T23:33:39Z,b60275e29fe2361ab97ac0ac217840d7,"Mozilla/5.0 (Macintosh; Intel Mac OS X 10_15_7) AppleWebKit/537.36 (KHTML, like Gecko) Chrome/135.0.0.0 Safari/537.36",Macintosh,Chrome,135.0.0.0,OS X,10_15_7,https://5puzkbbxv1.cognition.run/?sona_id=52099,"en-US,en;q=0.9,zh-CN;q=0.8,zh-TW;q=0.7,zh;q=0.6",39dehdm0oskrddb,20,"[""White""]",No,Female,NA,Yes,483253.89999997616,NA,null,<p></p>,null,choice,dtc,trinary,repulsion_B,1,microwave ovens,null,null,null,null,null,null,2,NA,NA,NA,NA,NA,NA,NA,NA,NA,NA
NA,NA,NA,NA,NA,choice_trial,survey-html-form,27,137504,0.0-4.0-1.11,338,1,2025-05-08T23:33:39Z,b60275e29fe2361ab97ac0ac217840d7,"Mozilla/5.0 (Macintosh; Intel Mac OS X 10_15_7) AppleWebKit/537.36 (KHTML, like Gecko) Chrome/135.0.0.0 Safari/537.36",Macintosh,Chrome,135.0.0.0,OS X,10_15_7,https://5puzkbbxv1.cognition.run/?sona_id=52099,"en-US,en;q=0.9,zh-CN;q=0.8,zh-TW;q=0.7,zh;q=0.6",39dehdm0oskrddb,20,"[""White""]",No,Female,NA,Yes,483253.89999997616,NA,5026,NA,"{""product_choice"":""B""}",choice,dtc,trinary,repulsion_B,1,microwave ovens,null,null,null,null,null,null,2,90,100,80,40,30,40,Warranty,Cooking power,NA,NA
NA,NA,NA,NA,NA,choice_trial_setup,html-keyboard-response,28,137807,0.0-4.0-0.12,338,1,2025-05-08T23:33:39Z,b60275e29fe2361ab97ac0ac217840d7,"Mozilla/5.0 (Macintosh; Intel Mac OS X 10_15_7) AppleWebKit/537.36 (KHTML, like Gecko) Chrome/135.0.0.0 Safari/537.36",Macintosh,Chrome,135.0.0.0,OS X,10_15_7,https://5puzkbbxv1.cognition.run/?sona_id=52099,"en-US,en;q=0.9,zh-CN;q=0.8,zh-TW;q=0.7,zh;q=0.6",39dehdm0oskrddb,20,"[""White""]",No,Female,NA,Yes,483253.89999997616,NA,null,<p></p>,null,choice,ctd,trinary,attraction,2,washing machines,null,null,null,null,null,null,1,NA,NA,NA,NA,NA,NA,NA,NA,NA,NA
NA,NA,NA,NA,NA,choice_trial,survey-html-form,29,142803,0.0-4.0-1.12,338,1,2025-05-08T23:33:39Z,b60275e29fe2361ab97ac0ac217840d7,"Mozilla/5.0 (Macintosh; Intel Mac OS X 10_15_7) AppleWebKit/537.36 (KHTML, like Gecko) Chrome/135.0.0.0 Safari/537.36",Macintosh,Chrome,135.0.0.0,OS X,10_15_7,https://5puzkbbxv1.cognition.run/?sona_id=52099,"en-US,en;q=0.9,zh-CN;q=0.8,zh-TW;q=0.7,zh;q=0.6",39dehdm0oskrddb,20,"[""White""]",No,Female,NA,Yes,483253.89999997616,NA,4994,NA,"{""product_choice"":""A""}",choice,ctd,trinary,attraction,2,washing machines,null,null,null,null,null,null,1,50,60,40,60,50,60,Average lifespan,Energy savings,NA,NA
NA,NA,NA,NA,NA,choice_trial_setup,html-keyboard-response,30,143106,0.0-4.0-0.13,338,1,2025-05-08T23:33:39Z,b60275e29fe2361ab97ac0ac217840d7,"Mozilla/5.0 (Macintosh; Intel Mac OS X 10_15_7) AppleWebKit/537.36 (KHTML, like Gecko) Chrome/135.0.0.0 Safari/537.36",Macintosh,Chrome,135.0.0.0,OS X,10_15_7,https://5puzkbbxv1.cognition.run/?sona_id=52099,"en-US,en;q=0.9,zh-CN;q=0.8,zh-TW;q=0.7,zh;q=0.6",39dehdm0oskrddb,20,"[""White""]",No,Female,NA,Yes,483253.89999997616,NA,null,<p></p>,null,choice,wbw,trinary,catch,null,televisions,50,70,20,35,15,50,1,NA,NA,NA,NA,NA,NA,NA,NA,NA,NA
NA,NA,NA,NA,NA,choice_trial,survey-html-form,31,148205,0.0-4.0-1.13,338,1,2025-05-08T23:33:39Z,b60275e29fe2361ab97ac0ac217840d7,"Mozilla/5.0 (Macintosh; Intel Mac OS X 10_15_7) AppleWebKit/537.36 (KHTML, like Gecko) Chrome/135.0.0.0 Safari/537.36",Macintosh,Chrome,135.0.0.0,OS X,10_15_7,https://5puzkbbxv1.cognition.run/?sona_id=52099,"en-US,en;q=0.9,zh-CN;q=0.8,zh-TW;q=0.7,zh;q=0.6",39dehdm0oskrddb,20,"[""White""]",No,Female,NA,Yes,483253.89999997616,NA,5094,NA,"{""product_choice"":""B""}",choice,wbw,trinary,catch,null,televisions,50,70,20,35,15,50,1,null,null,null,null,null,null,Screen size,Average lifespan,NA,NA
NA,NA,NA,NA,NA,choice_trial_setup,html-keyboard-response,32,148510,0.0-4.0-0.14,338,1,2025-05-08T23:33:39Z,b60275e29fe2361ab97ac0ac217840d7,"Mozilla/5.0 (Macintosh; Intel Mac OS X 10_15_7) AppleWebKit/537.36 (KHTML, like Gecko) Chrome/135.0.0.0 Safari/537.36",Macintosh,Chrome,135.0.0.0,OS X,10_15_7,https://5puzkbbxv1.cognition.run/?sona_id=52099,"en-US,en;q=0.9,zh-CN;q=0.8,zh-TW;q=0.7,zh;q=0.6",39dehdm0oskrddb,20,"[""White""]",No,Female,NA,Yes,483253.89999997616,NA,null,<p></p>,null,choice,ct,binary,repulsion,1,washing machines,null,null,null,null,null,null,2,NA,NA,NA,NA,NA,NA,NA,NA,NA,NA
NA,NA,NA,NA,NA,choice_trial,survey-html-form,33,157303,0.0-4.0-1.14,338,1,2025-05-08T23:33:39Z,b60275e29fe2361ab97ac0ac217840d7,"Mozilla/5.0 (Macintosh; Intel Mac OS X 10_15_7) AppleWebKit/537.36 (KHTML, like Gecko) Chrome/135.0.0.0 Safari/537.36",Macintosh,Chrome,135.0.0.0,OS X,10_15_7,https://5puzkbbxv1.cognition.run/?sona_id=52099,"en-US,en;q=0.9,zh-CN;q=0.8,zh-TW;q=0.7,zh;q=0.6",39dehdm0oskrddb,20,"[""White""]",No,Female,NA,Yes,483253.89999997616,NA,8790,NA,"{""product_choice"":""A""}",choice,ct,binary,repulsion,1,washing machines,null,null,null,null,null,null,2,100,90,null,30,40,null,Average lifespan,Energy savings,NA,NA
NA,NA,NA,NA,NA,choice_trial_setup,html-keyboard-response,34,157607,0.0-4.0-0.15,338,1,2025-05-08T23:33:39Z,b60275e29fe2361ab97ac0ac217840d7,"Mozilla/5.0 (Macintosh; Intel Mac OS X 10_15_7) AppleWebKit/537.36 (KHTML, like Gecko) Chrome/135.0.0.0 Safari/537.36",Macintosh,Chrome,135.0.0.0,OS X,10_15_7,https://5puzkbbxv1.cognition.run/?sona_id=52099,"en-US,en;q=0.9,zh-CN;q=0.8,zh-TW;q=0.7,zh;q=0.6",39dehdm0oskrddb,20,"[""White""]",No,Female,NA,Yes,483253.89999997616,NA,null,<p></p>,null,choice,ct,binary,attraction,NA,microwave ovens,null,null,null,null,null,null,2,NA,NA,NA,NA,NA,NA,NA,NA,NA,NA
NA,NA,NA,NA,NA,choice_trial,survey-html-form,35,167892,0.0-4.0-1.15,338,1,2025-05-08T23:33:39Z,b60275e29fe2361ab97ac0ac217840d7,"Mozilla/5.0 (Macintosh; Intel Mac OS X 10_15_7) AppleWebKit/537.36 (KHTML, like Gecko) Chrome/135.0.0.0 Safari/537.36",Macintosh,Chrome,135.0.0.0,OS X,10_15_7,https://5puzkbbxv1.cognition.run/?sona_id=52099,"en-US,en;q=0.9,zh-CN;q=0.8,zh-TW;q=0.7,zh;q=0.6",39dehdm0oskrddb,20,"[""White""]",No,Female,NA,Yes,483253.89999997616,NA,10280,NA,"{""product_choice"":""A""}",choice,ct,binary,attraction,NA,microwave ovens,null,null,null,null,null,null,2,60,50,null,50,60,null,Warranty,Cooking power,NA,NA
NA,NA,NA,NA,NA,choice_trial_setup,html-keyboard-response,36,168195,0.0-4.0-0.16,338,1,2025-05-08T23:33:39Z,b60275e29fe2361ab97ac0ac217840d7,"Mozilla/5.0 (Macintosh; Intel Mac OS X 10_15_7) AppleWebKit/537.36 (KHTML, like Gecko) Chrome/135.0.0.0 Safari/537.36",Macintosh,Chrome,135.0.0.0,OS X,10_15_7,https://5puzkbbxv1.cognition.run/?sona_id=52099,"en-US,en;q=0.9,zh-CN;q=0.8,zh-TW;q=0.7,zh;q=0.6",39dehdm0oskrddb,20,"[""White""]",No,Female,NA,Yes,483253.89999997616,NA,null,<p></p>,null,choice,dct,trinary,attraction,2,laptops,null,null,null,null,null,null,2,NA,NA,NA,NA,NA,NA,NA,NA,NA,NA
NA,NA,NA,NA,NA,choice_trial,survey-html-form,37,177821,0.0-4.0-1.16,338,1,2025-05-08T23:33:39Z,b60275e29fe2361ab97ac0ac217840d7,"Mozilla/5.0 (Macintosh; Intel Mac OS X 10_15_7) AppleWebKit/537.36 (KHTML, like Gecko) Chrome/135.0.0.0 Safari/537.36",Macintosh,Chrome,135.0.0.0,OS X,10_15_7,https://5puzkbbxv1.cognition.run/?sona_id=52099,"en-US,en;q=0.9,zh-CN;q=0.8,zh-TW;q=0.7,zh;q=0.6",39dehdm0oskrddb,20,"[""White""]",No,Female,NA,Yes,483253.89999997616,NA,9624,NA,"{""product_choice"":""C""}",choice,dct,trinary,attraction,2,laptops,null,null,null,null,null,null,2,50,60,40,60,50,60,Processing speed,Memory (RAM),NA,NA
NA,NA,NA,NA,NA,choice_trial_setup,html-keyboard-response,38,178125,0.0-4.0-0.17,338,1,2025-05-08T23:33:39Z,b60275e29fe2361ab97ac0ac217840d7,"Mozilla/5.0 (Macintosh; Intel Mac OS X 10_15_7) AppleWebKit/537.36 (KHTML, like Gecko) Chrome/135.0.0.0 Safari/537.36",Macintosh,Chrome,135.0.0.0,OS X,10_15_7,https://5puzkbbxv1.cognition.run/?sona_id=52099,"en-US,en;q=0.9,zh-CN;q=0.8,zh-TW;q=0.7,zh;q=0.6",39dehdm0oskrddb,20,"[""White""]",No,Female,NA,Yes,483253.89999997616,NA,null,<p></p>,null,choice,cdt,trinary,repulsion_A,2,washing machines,null,null,null,null,null,null,1,NA,NA,NA,NA,NA,NA,NA,NA,NA,NA
NA,NA,NA,NA,NA,choice_trial,survey-html-form,39,185671,0.0-4.0-1.17,338,1,2025-05-08T23:33:39Z,b60275e29fe2361ab97ac0ac217840d7,"Mozilla/5.0 (Macintosh; Intel Mac OS X 10_15_7) AppleWebKit/537.36 (KHTML, like Gecko) Chrome/135.0.0.0 Safari/537.36",Macintosh,Chrome,135.0.0.0,OS X,10_15_7,https://5puzkbbxv1.cognition.run/?sona_id=52099,"en-US,en;q=0.9,zh-CN;q=0.8,zh-TW;q=0.7,zh;q=0.6",39dehdm0oskrddb,20,"[""White""]",No,Female,NA,Yes,483253.89999997616,NA,7543,NA,"{""product_choice"":""A""}",choice,cdt,trinary,repulsion_A,2,washing machines,null,null,null,null,null,null,1,30,40,20,100,90,100,Average lifespan,Energy savings,NA,NA
NA,NA,NA,NA,NA,choice_trial_setup,html-keyboard-response,40,185976,0.0-4.0-0.18,338,1,2025-05-08T23:33:39Z,b60275e29fe2361ab97ac0ac217840d7,"Mozilla/5.0 (Macintosh; Intel Mac OS X 10_15_7) AppleWebKit/537.36 (KHTML, like Gecko) Chrome/135.0.0.0 Safari/537.36",Macintosh,Chrome,135.0.0.0,OS X,10_15_7,https://5puzkbbxv1.cognition.run/?sona_id=52099,"en-US,en;q=0.9,zh-CN;q=0.8,zh-TW;q=0.7,zh;q=0.6",39dehdm0oskrddb,20,"[""White""]",No,Female,NA,Yes,483253.89999997616,NA,null,<p></p>,null,choice,dct,trinary,repulsion_A,1,televisions,null,null,null,null,null,null,2,NA,NA,NA,NA,NA,NA,NA,NA,NA,NA
NA,NA,NA,NA,NA,choice_trial,survey-html-form,41,191555,0.0-4.0-1.18,338,1,2025-05-08T23:33:39Z,b60275e29fe2361ab97ac0ac217840d7,"Mozilla/5.0 (Macintosh; Intel Mac OS X 10_15_7) AppleWebKit/537.36 (KHTML, like Gecko) Chrome/135.0.0.0 Safari/537.36",Macintosh,Chrome,135.0.0.0,OS X,10_15_7,https://5puzkbbxv1.cognition.run/?sona_id=52099,"en-US,en;q=0.9,zh-CN;q=0.8,zh-TW;q=0.7,zh;q=0.6",39dehdm0oskrddb,20,"[""White""]",No,Female,NA,Yes,483253.89999997616,NA,5575,NA,"{""product_choice"":""B""}",choice,dct,trinary,repulsion_A,1,televisions,null,null,null,null,null,null,2,100,90,100,30,40,20,Screen size,Average lifespan,NA,NA
NA,NA,NA,NA,NA,choice_trial_setup,html-keyboard-response,42,191860,0.0-4.0-0.19,338,1,2025-05-08T23:33:39Z,b60275e29fe2361ab97ac0ac217840d7,"Mozilla/5.0 (Macintosh; Intel Mac OS X 10_15_7) AppleWebKit/537.36 (KHTML, like Gecko) Chrome/135.0.0.0 Safari/537.36",Macintosh,Chrome,135.0.0.0,OS X,10_15_7,https://5puzkbbxv1.cognition.run/?sona_id=52099,"en-US,en;q=0.9,zh-CN;q=0.8,zh-TW;q=0.7,zh;q=0.6",39dehdm0oskrddb,20,"[""White""]",No,Female,NA,Yes,483253.89999997616,NA,null,<p></p>,null,choice,wb,binary,catch,null,televisions,80,60,50,30,null,null,1,NA,NA,NA,NA,NA,NA,NA,NA,NA,NA
NA,NA,NA,NA,NA,choice_trial,survey-html-form,43,195588,0.0-4.0-1.19,338,1,2025-05-08T23:33:39Z,b60275e29fe2361ab97ac0ac217840d7,"Mozilla/5.0 (Macintosh; Intel Mac OS X 10_15_7) AppleWebKit/537.36 (KHTML, like Gecko) Chrome/135.0.0.0 Safari/537.36",Macintosh,Chrome,135.0.0.0,OS X,10_15_7,https://5puzkbbxv1.cognition.run/?sona_id=52099,"en-US,en;q=0.9,zh-CN;q=0.8,zh-TW;q=0.7,zh;q=0.6",39dehdm0oskrddb,20,"[""White""]",No,Female,NA,Yes,483253.89999997616,NA,3724,NA,"{""product_choice"":""B""}",choice,wb,binary,catch,null,televisions,80,60,50,30,null,null,1,null,null,null,null,null,null,Screen size,Average lifespan,NA,NA
NA,NA,NA,NA,NA,choice_trial_setup,html-keyboard-response,44,195893,0.0-4.0-0.20,338,1,2025-05-08T23:33:39Z,b60275e29fe2361ab97ac0ac217840d7,"Mozilla/5.0 (Macintosh; Intel Mac OS X 10_15_7) AppleWebKit/537.36 (KHTML, like Gecko) Chrome/135.0.0.0 Safari/537.36",Macintosh,Chrome,135.0.0.0,OS X,10_15_7,https://5puzkbbxv1.cognition.run/?sona_id=52099,"en-US,en;q=0.9,zh-CN;q=0.8,zh-TW;q=0.7,zh;q=0.6",39dehdm0oskrddb,20,"[""White""]",No,Female,NA,Yes,483253.89999997616,NA,null,<p></p>,null,choice,ct,binary,repulsion,1,televisions,null,null,null,null,null,null,2,NA,NA,NA,NA,NA,NA,NA,NA,NA,NA
NA,NA,NA,NA,NA,choice_trial,survey-html-form,45,200444,0.0-4.0-1.20,338,1,2025-05-08T23:33:39Z,b60275e29fe2361ab97ac0ac217840d7,"Mozilla/5.0 (Macintosh; Intel Mac OS X 10_15_7) AppleWebKit/537.36 (KHTML, like Gecko) Chrome/135.0.0.0 Safari/537.36",Macintosh,Chrome,135.0.0.0,OS X,10_15_7,https://5puzkbbxv1.cognition.run/?sona_id=52099,"en-US,en;q=0.9,zh-CN;q=0.8,zh-TW;q=0.7,zh;q=0.6",39dehdm0oskrddb,20,"[""White""]",No,Female,NA,Yes,483253.89999997616,NA,4547,NA,"{""product_choice"":""A""}",choice,ct,binary,repulsion,1,televisions,null,null,null,null,null,null,2,100,90,null,30,40,null,Screen size,Average lifespan,NA,NA
NA,NA,NA,NA,NA,choice_trial_setup,html-keyboard-response,46,200746,0.0-4.0-0.21,338,1,2025-05-08T23:33:39Z,b60275e29fe2361ab97ac0ac217840d7,"Mozilla/5.0 (Macintosh; Intel Mac OS X 10_15_7) AppleWebKit/537.36 (KHTML, like Gecko) Chrome/135.0.0.0 Safari/537.36",Macintosh,Chrome,135.0.0.0,OS X,10_15_7,https://5puzkbbxv1.cognition.run/?sona_id=52099,"en-US,en;q=0.9,zh-CN;q=0.8,zh-TW;q=0.7,zh;q=0.6",39dehdm0oskrddb,20,"[""White""]",No,Female,NA,Yes,483253.89999997616,NA,null,<p></p>,null,choice,bww,trinary,catch,null,microwave ovens,60,70,15,40,10,35,1,NA,NA,NA,NA,NA,NA,NA,NA,NA,NA
NA,NA,NA,NA,NA,choice_trial,survey-html-form,47,205322,0.0-4.0-1.21,338,1,2025-05-08T23:33:39Z,b60275e29fe2361ab97ac0ac217840d7,"Mozilla/5.0 (Macintosh; Intel Mac OS X 10_15_7) AppleWebKit/537.36 (KHTML, like Gecko) Chrome/135.0.0.0 Safari/537.36",Macintosh,Chrome,135.0.0.0,OS X,10_15_7,https://5puzkbbxv1.cognition.run/?sona_id=52099,"en-US,en;q=0.9,zh-CN;q=0.8,zh-TW;q=0.7,zh;q=0.6",39dehdm0oskrddb,20,"[""White""]",No,Female,NA,Yes,483253.89999997616,NA,4572,NA,"{""product_choice"":""A""}",choice,bww,trinary,catch,null,microwave ovens,60,70,15,40,10,35,1,null,null,null,null,null,null,Warranty,Cooking power,NA,NA
NA,NA,NA,NA,NA,choice_trial_setup,html-keyboard-response,48,205626,0.0-4.0-0.22,338,1,2025-05-08T23:33:39Z,b60275e29fe2361ab97ac0ac217840d7,"Mozilla/5.0 (Macintosh; Intel Mac OS X 10_15_7) AppleWebKit/537.36 (KHTML, like Gecko) Chrome/135.0.0.0 Safari/537.36",Macintosh,Chrome,135.0.0.0,OS X,10_15_7,https://5puzkbbxv1.cognition.run/?sona_id=52099,"en-US,en;q=0.9,zh-CN;q=0.8,zh-TW;q=0.7,zh;q=0.6",39dehdm0oskrddb,20,"[""White""]",No,Female,NA,Yes,483253.89999997616,NA,null,<p></p>,null,choice,wbw,trinary,catch,null,washing machines,90,55,35,25,45,45,2,NA,NA,NA,NA,NA,NA,NA,NA,NA,NA
NA,NA,NA,NA,NA,choice_trial,survey-html-form,49,214672,0.0-4.0-1.22,338,1,2025-05-08T23:33:39Z,b60275e29fe2361ab97ac0ac217840d7,"Mozilla/5.0 (Macintosh; Intel Mac OS X 10_15_7) AppleWebKit/537.36 (KHTML, like Gecko) Chrome/135.0.0.0 Safari/537.36",Macintosh,Chrome,135.0.0.0,OS X,10_15_7,https://5puzkbbxv1.cognition.run/?sona_id=52099,"en-US,en;q=0.9,zh-CN;q=0.8,zh-TW;q=0.7,zh;q=0.6",39dehdm0oskrddb,20,"[""White""]",No,Female,NA,Yes,483253.89999997616,NA,9044,NA,"{""product_choice"":""B""}",choice,wbw,trinary,catch,null,washing machines,90,55,35,25,45,45,2,null,null,null,null,null,null,Average lifespan,Energy savings,NA,NA
NA,NA,NA,NA,NA,choice_trial_setup,html-keyboard-response,50,214977,0.0-4.0-0.23,338,1,2025-05-08T23:33:39Z,b60275e29fe2361ab97ac0ac217840d7,"Mozilla/5.0 (Macintosh; Intel Mac OS X 10_15_7) AppleWebKit/537.36 (KHTML, like Gecko) Chrome/135.0.0.0 Safari/537.36",Macintosh,Chrome,135.0.0.0,OS X,10_15_7,https://5puzkbbxv1.cognition.run/?sona_id=52099,"en-US,en;q=0.9,zh-CN;q=0.8,zh-TW;q=0.7,zh;q=0.6",39dehdm0oskrddb,20,"[""White""]",No,Female,NA,Yes,483253.89999997616,NA,null,<p></p>,null,choice,dct,trinary,repulsion_B,2,laptops,null,null,null,null,null,null,2,NA,NA,NA,NA,NA,NA,NA,NA,NA,NA
NA,NA,NA,NA,NA,choice_trial,survey-html-form,51,221672,0.0-4.0-1.23,338,1,2025-05-08T23:33:39Z,b60275e29fe2361ab97ac0ac217840d7,"Mozilla/5.0 (Macintosh; Intel Mac OS X 10_15_7) AppleWebKit/537.36 (KHTML, like Gecko) Chrome/135.0.0.0 Safari/537.36",Macintosh,Chrome,135.0.0.0,OS X,10_15_7,https://5puzkbbxv1.cognition.run/?sona_id=52099,"en-US,en;q=0.9,zh-CN;q=0.8,zh-TW;q=0.7,zh;q=0.6",39dehdm0oskrddb,20,"[""White""]",No,Female,NA,Yes,483253.89999997616,NA,6690,NA,"{""product_choice"":""C""}",choice,dct,trinary,repulsion_B,2,laptops,null,null,null,null,null,null,2,40,30,40,90,100,80,Processing speed,Memory (RAM),NA,NA
NA,NA,NA,NA,NA,choice_trial_setup,html-keyboard-response,52,221976,0.0-4.0-0.24,338,1,2025-05-08T23:33:39Z,b60275e29fe2361ab97ac0ac217840d7,"Mozilla/5.0 (Macintosh; Intel Mac OS X 10_15_7) AppleWebKit/537.36 (KHTML, like Gecko) Chrome/135.0.0.0 Safari/537.36",Macintosh,Chrome,135.0.0.0,OS X,10_15_7,https://5puzkbbxv1.cognition.run/?sona_id=52099,"en-US,en;q=0.9,zh-CN;q=0.8,zh-TW;q=0.7,zh;q=0.6",39dehdm0oskrddb,20,"[""White""]",No,Female,NA,Yes,483253.89999997616,NA,null,<p></p>,null,choice,dct,trinary,attraction,1,laptops,null,null,null,null,null,null,2,NA,NA,NA,NA,NA,NA,NA,NA,NA,NA
NA,NA,NA,NA,NA,choice_trial,survey-html-form,53,226272,0.0-4.0-1.24,338,1,2025-05-08T23:33:39Z,b60275e29fe2361ab97ac0ac217840d7,"Mozilla/5.0 (Macintosh; Intel Mac OS X 10_15_7) AppleWebKit/537.36 (KHTML, like Gecko) Chrome/135.0.0.0 Safari/537.36",Macintosh,Chrome,135.0.0.0,OS X,10_15_7,https://5puzkbbxv1.cognition.run/?sona_id=52099,"en-US,en;q=0.9,zh-CN;q=0.8,zh-TW;q=0.7,zh;q=0.6",39dehdm0oskrddb,20,"[""White""]",No,Female,NA,Yes,483253.89999997616,NA,4291,NA,"{""product_choice"":""B""}",choice,dct,trinary,attraction,1,laptops,null,null,null,null,null,null,2,60,50,60,50,60,40,Processing speed,Memory (RAM),NA,NA
NA,NA,NA,NA,NA,choice_trial_setup,html-keyboard-response,54,226577,0.0-4.0-0.25,338,1,2025-05-08T23:33:39Z,b60275e29fe2361ab97ac0ac217840d7,"Mozilla/5.0 (Macintosh; Intel Mac OS X 10_15_7) AppleWebKit/537.36 (KHTML, like Gecko) Chrome/135.0.0.0 Safari/537.36",Macintosh,Chrome,135.0.0.0,OS X,10_15_7,https://5puzkbbxv1.cognition.run/?sona_id=52099,"en-US,en;q=0.9,zh-CN;q=0.8,zh-TW;q=0.7,zh;q=0.6",39dehdm0oskrddb,20,"[""White""]",No,Female,NA,Yes,483253.89999997616,NA,null,<p></p>,null,choice,tdc,trinary,attraction,2,televisions,null,null,null,null,null,null,2,NA,NA,NA,NA,NA,NA,NA,NA,NA,NA
NA,NA,NA,NA,NA,choice_trial,survey-html-form,55,232455,0.0-4.0-1.25,338,1,2025-05-08T23:33:39Z,b60275e29fe2361ab97ac0ac217840d7,"Mozilla/5.0 (Macintosh; Intel Mac OS X 10_15_7) AppleWebKit/537.36 (KHTML, like Gecko) Chrome/135.0.0.0 Safari/537.36",Macintosh,Chrome,135.0.0.0,OS X,10_15_7,https://5puzkbbxv1.cognition.run/?sona_id=52099,"en-US,en;q=0.9,zh-CN;q=0.8,zh-TW;q=0.7,zh;q=0.6",39dehdm0oskrddb,20,"[""White""]",No,Female,NA,Yes,483253.89999997616,NA,5873,NA,"{""product_choice"":""A""}",choice,tdc,trinary,attraction,2,televisions,null,null,null,null,null,null,2,50,60,40,60,50,60,Screen size,Average lifespan,NA,NA
NA,NA,NA,NA,NA,choice_trial_setup,html-keyboard-response,56,232758,0.0-4.0-0.26,338,1,2025-05-08T23:33:39Z,b60275e29fe2361ab97ac0ac217840d7,"Mozilla/5.0 (Macintosh; Intel Mac OS X 10_15_7) AppleWebKit/537.36 (KHTML, like Gecko) Chrome/135.0.0.0 Safari/537.36",Macintosh,Chrome,135.0.0.0,OS X,10_15_7,https://5puzkbbxv1.cognition.run/?sona_id=52099,"en-US,en;q=0.9,zh-CN;q=0.8,zh-TW;q=0.7,zh;q=0.6",39dehdm0oskrddb,20,"[""White""]",No,Female,NA,Yes,483253.89999997616,NA,null,<p></p>,null,choice,ct,binary,attraction,NA,televisions,null,null,null,null,null,null,2,NA,NA,NA,NA,NA,NA,NA,NA,NA,NA
NA,NA,NA,NA,NA,choice_trial,survey-html-form,57,238705,0.0-4.0-1.26,338,1,2025-05-08T23:33:39Z,b60275e29fe2361ab97ac0ac217840d7,"Mozilla/5.0 (Macintosh; Intel Mac OS X 10_15_7) AppleWebKit/537.36 (KHTML, like Gecko) Chrome/135.0.0.0 Safari/537.36",Macintosh,Chrome,135.0.0.0,OS X,10_15_7,https://5puzkbbxv1.cognition.run/?sona_id=52099,"en-US,en;q=0.9,zh-CN;q=0.8,zh-TW;q=0.7,zh;q=0.6",39dehdm0oskrddb,20,"[""White""]",No,Female,NA,Yes,483253.89999997616,NA,5941,NA,"{""product_choice"":""A""}",choice,ct,binary,attraction,NA,televisions,null,null,null,null,null,null,2,60,50,null,50,60,null,Screen size,Average lifespan,NA,NA
NA,NA,NA,NA,NA,choice_trial_setup,html-keyboard-response,58,239009,0.0-4.0-0.27,338,1,2025-05-08T23:33:39Z,b60275e29fe2361ab97ac0ac217840d7,"Mozilla/5.0 (Macintosh; Intel Mac OS X 10_15_7) AppleWebKit/537.36 (KHTML, like Gecko) Chrome/135.0.0.0 Safari/537.36",Macintosh,Chrome,135.0.0.0,OS X,10_15_7,https://5puzkbbxv1.cognition.run/?sona_id=52099,"en-US,en;q=0.9,zh-CN;q=0.8,zh-TW;q=0.7,zh;q=0.6",39dehdm0oskrddb,20,"[""White""]",No,Female,NA,Yes,483253.89999997616,NA,null,<p></p>,null,choice,dct,trinary,attraction,2,microwave ovens,null,null,null,null,null,null,1,NA,NA,NA,NA,NA,NA,NA,NA,NA,NA
NA,NA,NA,NA,NA,choice_trial,survey-html-form,59,261905,0.0-4.0-1.27,338,1,2025-05-08T23:33:39Z,b60275e29fe2361ab97ac0ac217840d7,"Mozilla/5.0 (Macintosh; Intel Mac OS X 10_15_7) AppleWebKit/537.36 (KHTML, like Gecko) Chrome/135.0.0.0 Safari/537.36",Macintosh,Chrome,135.0.0.0,OS X,10_15_7,https://5puzkbbxv1.cognition.run/?sona_id=52099,"en-US,en;q=0.9,zh-CN;q=0.8,zh-TW;q=0.7,zh;q=0.6",39dehdm0oskrddb,20,"[""White""]",No,Female,NA,Yes,483253.89999997616,NA,22891,NA,"{""product_choice"":""C""}",choice,dct,trinary,attraction,2,microwave ovens,null,null,null,null,null,null,1,50,60,40,60,50,60,Warranty,Cooking power,NA,NA
NA,NA,NA,NA,NA,choice_trial_setup,html-keyboard-response,60,262211,0.0-4.0-0.28,338,1,2025-05-08T23:33:39Z,b60275e29fe2361ab97ac0ac217840d7,"Mozilla/5.0 (Macintosh; Intel Mac OS X 10_15_7) AppleWebKit/537.36 (KHTML, like Gecko) Chrome/135.0.0.0 Safari/537.36",Macintosh,Chrome,135.0.0.0,OS X,10_15_7,https://5puzkbbxv1.cognition.run/?sona_id=52099,"en-US,en;q=0.9,zh-CN;q=0.8,zh-TW;q=0.7,zh;q=0.6",39dehdm0oskrddb,20,"[""White""]",No,Female,NA,Yes,483253.89999997616,NA,null,<p></p>,null,choice,tc,binary,repulsion,2,microwave ovens,null,null,null,null,null,null,2,NA,NA,NA,NA,NA,NA,NA,NA,NA,NA
NA,NA,NA,NA,NA,choice_trial,survey-html-form,61,266889,0.0-4.0-1.28,338,1,2025-05-08T23:33:39Z,b60275e29fe2361ab97ac0ac217840d7,"Mozilla/5.0 (Macintosh; Intel Mac OS X 10_15_7) AppleWebKit/537.36 (KHTML, like Gecko) Chrome/135.0.0.0 Safari/537.36",Macintosh,Chrome,135.0.0.0,OS X,10_15_7,https://5puzkbbxv1.cognition.run/?sona_id=52099,"en-US,en;q=0.9,zh-CN;q=0.8,zh-TW;q=0.7,zh;q=0.6",39dehdm0oskrddb,20,"[""White""]",No,Female,NA,Yes,483253.89999997616,NA,4672,NA,"{""product_choice"":""B""}",choice,tc,binary,repulsion,2,microwave ovens,null,null,null,null,null,null,2,30,40,null,100,90,null,Warranty,Cooking power,NA,NA
NA,NA,NA,NA,NA,choice_trial_setup,html-keyboard-response,62,267193,0.0-4.0-0.29,338,1,2025-05-08T23:33:39Z,b60275e29fe2361ab97ac0ac217840d7,"Mozilla/5.0 (Macintosh; Intel Mac OS X 10_15_7) AppleWebKit/537.36 (KHTML, like Gecko) Chrome/135.0.0.0 Safari/537.36",Macintosh,Chrome,135.0.0.0,OS X,10_15_7,https://5puzkbbxv1.cognition.run/?sona_id=52099,"en-US,en;q=0.9,zh-CN;q=0.8,zh-TW;q=0.7,zh;q=0.6",39dehdm0oskrddb,20,"[""White""]",No,Female,NA,Yes,483253.89999997616,NA,null,<p></p>,null,choice,dtc,trinary,repulsion_A,2,televisions,null,null,null,null,null,null,1,NA,NA,NA,NA,NA,NA,NA,NA,NA,NA
NA,NA,NA,NA,NA,choice_trial,survey-html-form,63,270221,0.0-4.0-1.29,338,1,2025-05-08T23:33:39Z,b60275e29fe2361ab97ac0ac217840d7,"Mozilla/5.0 (Macintosh; Intel Mac OS X 10_15_7) AppleWebKit/537.36 (KHTML, like Gecko) Chrome/135.0.0.0 Safari/537.36",Macintosh,Chrome,135.0.0.0,OS X,10_15_7,https://5puzkbbxv1.cognition.run/?sona_id=52099,"en-US,en;q=0.9,zh-CN;q=0.8,zh-TW;q=0.7,zh;q=0.6",39dehdm0oskrddb,20,"[""White""]",No,Female,NA,Yes,483253.89999997616,NA,3023,NA,"{""product_choice"":""C""}",choice,dtc,trinary,repulsion_A,2,televisions,null,null,null,null,null,null,1,30,40,20,100,90,100,Screen size,Average lifespan,NA,NA
NA,NA,NA,NA,NA,choice_trial_setup,html-keyboard-response,64,270527,0.0-4.0-0.30,338,1,2025-05-08T23:33:39Z,b60275e29fe2361ab97ac0ac217840d7,"Mozilla/5.0 (Macintosh; Intel Mac OS X 10_15_7) AppleWebKit/537.36 (KHTML, like Gecko) Chrome/135.0.0.0 Safari/537.36",Macintosh,Chrome,135.0.0.0,OS X,10_15_7,https://5puzkbbxv1.cognition.run/?sona_id=52099,"en-US,en;q=0.9,zh-CN;q=0.8,zh-TW;q=0.7,zh;q=0.6",39dehdm0oskrddb,20,"[""White""]",No,Female,NA,Yes,483253.89999997616,NA,null,<p></p>,null,choice,tdc,trinary,repulsion_A,1,washing machines,null,null,null,null,null,null,1,NA,NA,NA,NA,NA,NA,NA,NA,NA,NA
NA,NA,NA,NA,NA,choice_trial,survey-html-form,65,277755,0.0-4.0-1.30,338,1,2025-05-08T23:33:39Z,b60275e29fe2361ab97ac0ac217840d7,"Mozilla/5.0 (Macintosh; Intel Mac OS X 10_15_7) AppleWebKit/537.36 (KHTML, like Gecko) Chrome/135.0.0.0 Safari/537.36",Macintosh,Chrome,135.0.0.0,OS X,10_15_7,https://5puzkbbxv1.cognition.run/?sona_id=52099,"en-US,en;q=0.9,zh-CN;q=0.8,zh-TW;q=0.7,zh;q=0.6",39dehdm0oskrddb,20,"[""White""]",No,Female,NA,Yes,483253.89999997616,NA,7223,NA,"{""product_choice"":""A""}",choice,tdc,trinary,repulsion_A,1,washing machines,null,null,null,null,null,null,1,100,90,100,30,40,20,Average lifespan,Energy savings,NA,NA
NA,NA,NA,NA,NA,choice_trial_setup,html-keyboard-response,66,278060,0.0-4.0-0.31,338,1,2025-05-08T23:33:39Z,b60275e29fe2361ab97ac0ac217840d7,"Mozilla/5.0 (Macintosh; Intel Mac OS X 10_15_7) AppleWebKit/537.36 (KHTML, like Gecko) Chrome/135.0.0.0 Safari/537.36",Macintosh,Chrome,135.0.0.0,OS X,10_15_7,https://5puzkbbxv1.cognition.run/?sona_id=52099,"en-US,en;q=0.9,zh-CN;q=0.8,zh-TW;q=0.7,zh;q=0.6",39dehdm0oskrddb,20,"[""White""]",No,Female,NA,Yes,483253.89999997616,NA,null,<p></p>,null,choice,tdc,trinary,repulsion_B,1,televisions,null,null,null,null,null,null,2,NA,NA,NA,NA,NA,NA,NA,NA,NA,NA
NA,NA,NA,NA,NA,choice_trial,survey-html-form,67,281006,0.0-4.0-1.31,338,1,2025-05-08T23:33:39Z,b60275e29fe2361ab97ac0ac217840d7,"Mozilla/5.0 (Macintosh; Intel Mac OS X 10_15_7) AppleWebKit/537.36 (KHTML, like Gecko) Chrome/135.0.0.0 Safari/537.36",Macintosh,Chrome,135.0.0.0,OS X,10_15_7,https://5puzkbbxv1.cognition.run/?sona_id=52099,"en-US,en;q=0.9,zh-CN;q=0.8,zh-TW;q=0.7,zh;q=0.6",39dehdm0oskrddb,20,"[""White""]",No,Female,NA,Yes,483253.89999997616,NA,2939,NA,"{""product_choice"":""A""}",choice,tdc,trinary,repulsion_B,1,televisions,null,null,null,null,null,null,2,90,100,80,40,30,40,Screen size,Average lifespan,NA,NA
NA,NA,NA,NA,NA,choice_trial_setup,html-keyboard-response,68,281310,0.0-4.0-0.32,338,1,2025-05-08T23:33:39Z,b60275e29fe2361ab97ac0ac217840d7,"Mozilla/5.0 (Macintosh; Intel Mac OS X 10_15_7) AppleWebKit/537.36 (KHTML, like Gecko) Chrome/135.0.0.0 Safari/537.36",Macintosh,Chrome,135.0.0.0,OS X,10_15_7,https://5puzkbbxv1.cognition.run/?sona_id=52099,"en-US,en;q=0.9,zh-CN;q=0.8,zh-TW;q=0.7,zh;q=0.6",39dehdm0oskrddb,20,"[""White""]",No,Female,NA,Yes,483253.89999997616,NA,null,<p></p>,null,choice,cdt,trinary,repulsion_A,2,laptops,null,null,null,null,null,null,2,NA,NA,NA,NA,NA,NA,NA,NA,NA,NA
NA,NA,NA,NA,NA,choice_trial,survey-html-form,69,284872,0.0-4.0-1.32,338,1,2025-05-08T23:33:39Z,b60275e29fe2361ab97ac0ac217840d7,"Mozilla/5.0 (Macintosh; Intel Mac OS X 10_15_7) AppleWebKit/537.36 (KHTML, like Gecko) Chrome/135.0.0.0 Safari/537.36",Macintosh,Chrome,135.0.0.0,OS X,10_15_7,https://5puzkbbxv1.cognition.run/?sona_id=52099,"en-US,en;q=0.9,zh-CN;q=0.8,zh-TW;q=0.7,zh;q=0.6",39dehdm0oskrddb,20,"[""White""]",No,Female,NA,Yes,483253.89999997616,NA,3558,NA,"{""product_choice"":""A""}",choice,cdt,trinary,repulsion_A,2,laptops,null,null,null,null,null,null,2,30,40,20,100,90,100,Processing speed,Memory (RAM),NA,NA
NA,NA,NA,NA,NA,choice_trial_setup,html-keyboard-response,70,285177,0.0-4.0-0.33,338,1,2025-05-08T23:33:39Z,b60275e29fe2361ab97ac0ac217840d7,"Mozilla/5.0 (Macintosh; Intel Mac OS X 10_15_7) AppleWebKit/537.36 (KHTML, like Gecko) Chrome/135.0.0.0 Safari/537.36",Macintosh,Chrome,135.0.0.0,OS X,10_15_7,https://5puzkbbxv1.cognition.run/?sona_id=52099,"en-US,en;q=0.9,zh-CN;q=0.8,zh-TW;q=0.7,zh;q=0.6",39dehdm0oskrddb,20,"[""White""]",No,Female,NA,Yes,483253.89999997616,NA,null,<p></p>,null,choice,cdt,trinary,repulsion_B,1,washing machines,null,null,null,null,null,null,2,NA,NA,NA,NA,NA,NA,NA,NA,NA,NA
NA,NA,NA,NA,NA,choice_trial,survey-html-form,71,297073,0.0-4.0-1.33,338,1,2025-05-08T23:33:39Z,b60275e29fe2361ab97ac0ac217840d7,"Mozilla/5.0 (Macintosh; Intel Mac OS X 10_15_7) AppleWebKit/537.36 (KHTML, like Gecko) Chrome/135.0.0.0 Safari/537.36",Macintosh,Chrome,135.0.0.0,OS X,10_15_7,https://5puzkbbxv1.cognition.run/?sona_id=52099,"en-US,en;q=0.9,zh-CN;q=0.8,zh-TW;q=0.7,zh;q=0.6",39dehdm0oskrddb,20,"[""White""]",No,Female,NA,Yes,483253.89999997616,NA,11890,NA,"{""product_choice"":""A""}",choice,cdt,trinary,repulsion_B,1,washing machines,null,null,null,null,null,null,2,90,100,80,40,30,40,Average lifespan,Energy savings,NA,NA
NA,NA,NA,NA,NA,choice_trial_setup,html-keyboard-response,72,297379,0.0-4.0-0.34,338,1,2025-05-08T23:33:39Z,b60275e29fe2361ab97ac0ac217840d7,"Mozilla/5.0 (Macintosh; Intel Mac OS X 10_15_7) AppleWebKit/537.36 (KHTML, like Gecko) Chrome/135.0.0.0 Safari/537.36",Macintosh,Chrome,135.0.0.0,OS X,10_15_7,https://5puzkbbxv1.cognition.run/?sona_id=52099,"en-US,en;q=0.9,zh-CN;q=0.8,zh-TW;q=0.7,zh;q=0.6",39dehdm0oskrddb,20,"[""White""]",No,Female,NA,Yes,483253.89999997616,NA,null,<p></p>,null,choice,ct,binary,repulsion,2,televisions,null,null,null,null,null,null,1,NA,NA,NA,NA,NA,NA,NA,NA,NA,NA
NA,NA,NA,NA,NA,choice_trial,survey-html-form,73,310856,0.0-4.0-1.34,338,1,2025-05-08T23:33:39Z,b60275e29fe2361ab97ac0ac217840d7,"Mozilla/5.0 (Macintosh; Intel Mac OS X 10_15_7) AppleWebKit/537.36 (KHTML, like Gecko) Chrome/135.0.0.0 Safari/537.36",Macintosh,Chrome,135.0.0.0,OS X,10_15_7,https://5puzkbbxv1.cognition.run/?sona_id=52099,"en-US,en;q=0.9,zh-CN;q=0.8,zh-TW;q=0.7,zh;q=0.6",39dehdm0oskrddb,20,"[""White""]",No,Female,NA,Yes,483253.89999997616,NA,13471,NA,"{""product_choice"":""A""}",choice,ct,binary,repulsion,2,televisions,null,null,null,null,null,null,1,30,40,null,100,90,null,Screen size,Average lifespan,NA,NA
NA,NA,NA,NA,NA,choice_trial_setup,html-keyboard-response,74,311163,0.0-4.0-0.35,338,1,2025-05-08T23:33:39Z,b60275e29fe2361ab97ac0ac217840d7,"Mozilla/5.0 (Macintosh; Intel Mac OS X 10_15_7) AppleWebKit/537.36 (KHTML, like Gecko) Chrome/135.0.0.0 Safari/537.36",Macintosh,Chrome,135.0.0.0,OS X,10_15_7,https://5puzkbbxv1.cognition.run/?sona_id=52099,"en-US,en;q=0.9,zh-CN;q=0.8,zh-TW;q=0.7,zh;q=0.6",39dehdm0oskrddb,20,"[""White""]",No,Female,NA,Yes,483253.89999997616,NA,null,<p></p>,null,choice,cdt,trinary,repulsion_A,1,laptops,null,null,null,null,null,null,1,NA,NA,NA,NA,NA,NA,NA,NA,NA,NA
NA,NA,NA,NA,NA,choice_trial,survey-html-form,75,320454,0.0-4.0-1.35,338,1,2025-05-08T23:33:39Z,b60275e29fe2361ab97ac0ac217840d7,"Mozilla/5.0 (Macintosh; Intel Mac OS X 10_15_7) AppleWebKit/537.36 (KHTML, like Gecko) Chrome/135.0.0.0 Safari/537.36",Macintosh,Chrome,135.0.0.0,OS X,10_15_7,https://5puzkbbxv1.cognition.run/?sona_id=52099,"en-US,en;q=0.9,zh-CN;q=0.8,zh-TW;q=0.7,zh;q=0.6",39dehdm0oskrddb,20,"[""White""]",No,Female,NA,Yes,483253.89999997616,NA,9285,NA,"{""product_choice"":""A""}",choice,cdt,trinary,repulsion_A,1,laptops,null,null,null,null,null,null,1,100,90,100,30,40,20,Processing speed,Memory (RAM),NA,NA
NA,NA,NA,NA,NA,choice_trial_setup,html-keyboard-response,76,320758,0.0-4.0-0.36,338,1,2025-05-08T23:33:39Z,b60275e29fe2361ab97ac0ac217840d7,"Mozilla/5.0 (Macintosh; Intel Mac OS X 10_15_7) AppleWebKit/537.36 (KHTML, like Gecko) Chrome/135.0.0.0 Safari/537.36",Macintosh,Chrome,135.0.0.0,OS X,10_15_7,https://5puzkbbxv1.cognition.run/?sona_id=52099,"en-US,en;q=0.9,zh-CN;q=0.8,zh-TW;q=0.7,zh;q=0.6",39dehdm0oskrddb,20,"[""White""]",No,Female,NA,Yes,483253.89999997616,NA,null,<p></p>,null,choice,tcd,trinary,repulsion_B,2,televisions,null,null,null,null,null,null,2,NA,NA,NA,NA,NA,NA,NA,NA,NA,NA
NA,NA,NA,NA,NA,choice_trial,survey-html-form,77,324972,0.0-4.0-1.36,338,1,2025-05-08T23:33:39Z,b60275e29fe2361ab97ac0ac217840d7,"Mozilla/5.0 (Macintosh; Intel Mac OS X 10_15_7) AppleWebKit/537.36 (KHTML, like Gecko) Chrome/135.0.0.0 Safari/537.36",Macintosh,Chrome,135.0.0.0,OS X,10_15_7,https://5puzkbbxv1.cognition.run/?sona_id=52099,"en-US,en;q=0.9,zh-CN;q=0.8,zh-TW;q=0.7,zh;q=0.6",39dehdm0oskrddb,20,"[""White""]",No,Female,NA,Yes,483253.89999997616,NA,4209,NA,"{""product_choice"":""A""}",choice,tcd,trinary,repulsion_B,2,televisions,null,null,null,null,null,null,2,40,30,40,90,100,80,Screen size,Average lifespan,NA,NA
NA,NA,NA,NA,NA,choice_trial_setup,html-keyboard-response,78,325277,0.0-4.0-0.37,338,1,2025-05-08T23:33:39Z,b60275e29fe2361ab97ac0ac217840d7,"Mozilla/5.0 (Macintosh; Intel Mac OS X 10_15_7) AppleWebKit/537.36 (KHTML, like Gecko) Chrome/135.0.0.0 Safari/537.36",Macintosh,Chrome,135.0.0.0,OS X,10_15_7,https://5puzkbbxv1.cognition.run/?sona_id=52099,"en-US,en;q=0.9,zh-CN;q=0.8,zh-TW;q=0.7,zh;q=0.6",39dehdm0oskrddb,20,"[""White""]",No,Female,NA,Yes,483253.89999997616,NA,null,<p></p>,null,choice,cdt,trinary,repulsion_B,1,laptops,null,null,null,null,null,null,1,NA,NA,NA,NA,NA,NA,NA,NA,NA,NA
NA,NA,NA,NA,NA,choice_trial,survey-html-form,79,329088,0.0-4.0-1.37,338,1,2025-05-08T23:33:39Z,b60275e29fe2361ab97ac0ac217840d7,"Mozilla/5.0 (Macintosh; Intel Mac OS X 10_15_7) AppleWebKit/537.36 (KHTML, like Gecko) Chrome/135.0.0.0 Safari/537.36",Macintosh,Chrome,135.0.0.0,OS X,10_15_7,https://5puzkbbxv1.cognition.run/?sona_id=52099,"en-US,en;q=0.9,zh-CN;q=0.8,zh-TW;q=0.7,zh;q=0.6",39dehdm0oskrddb,20,"[""White""]",No,Female,NA,Yes,483253.89999997616,NA,3805,NA,"{""product_choice"":""C""}",choice,cdt,trinary,repulsion_B,1,laptops,null,null,null,null,null,null,1,90,100,80,40,30,40,Processing speed,Memory (RAM),NA,NA
NA,NA,NA,NA,NA,choice_trial_setup,html-keyboard-response,80,329394,0.0-4.0-0.38,338,1,2025-05-08T23:33:39Z,b60275e29fe2361ab97ac0ac217840d7,"Mozilla/5.0 (Macintosh; Intel Mac OS X 10_15_7) AppleWebKit/537.36 (KHTML, like Gecko) Chrome/135.0.0.0 Safari/537.36",Macintosh,Chrome,135.0.0.0,OS X,10_15_7,https://5puzkbbxv1.cognition.run/?sona_id=52099,"en-US,en;q=0.9,zh-CN;q=0.8,zh-TW;q=0.7,zh;q=0.6",39dehdm0oskrddb,20,"[""White""]",No,Female,NA,Yes,483253.89999997616,NA,null,<p></p>,null,choice,bw,binary,catch,null,laptops,60,70,5,5,null,null,1,NA,NA,NA,NA,NA,NA,NA,NA,NA,NA
NA,NA,NA,NA,NA,choice_trial,survey-html-form,81,332771,0.0-4.0-1.38,338,1,2025-05-08T23:33:39Z,b60275e29fe2361ab97ac0ac217840d7,"Mozilla/5.0 (Macintosh; Intel Mac OS X 10_15_7) AppleWebKit/537.36 (KHTML, like Gecko) Chrome/135.0.0.0 Safari/537.36",Macintosh,Chrome,135.0.0.0,OS X,10_15_7,https://5puzkbbxv1.cognition.run/?sona_id=52099,"en-US,en;q=0.9,zh-CN;q=0.8,zh-TW;q=0.7,zh;q=0.6",39dehdm0oskrddb,20,"[""White""]",No,Female,NA,Yes,483253.89999997616,NA,3374,NA,"{""product_choice"":""A""}",choice,bw,binary,catch,null,laptops,60,70,5,5,null,null,1,null,null,null,null,null,null,Processing speed,Memory (RAM),NA,NA
NA,NA,NA,NA,NA,choice_trial_setup,html-keyboard-response,82,333077,0.0-4.0-0.39,338,1,2025-05-08T23:33:39Z,b60275e29fe2361ab97ac0ac217840d7,"Mozilla/5.0 (Macintosh; Intel Mac OS X 10_15_7) AppleWebKit/537.36 (KHTML, like Gecko) Chrome/135.0.0.0 Safari/537.36",Macintosh,Chrome,135.0.0.0,OS X,10_15_7,https://5puzkbbxv1.cognition.run/?sona_id=52099,"en-US,en;q=0.9,zh-CN;q=0.8,zh-TW;q=0.7,zh;q=0.6",39dehdm0oskrddb,20,"[""White""]",No,Female,NA,Yes,483253.89999997616,NA,null,<p></p>,null,choice,cdt,trinary,repulsion_B,2,washing machines,null,null,null,null,null,null,1,NA,NA,NA,NA,NA,NA,NA,NA,NA,NA
NA,NA,NA,NA,NA,choice_trial,survey-html-form,83,338705,0.0-4.0-1.39,338,1,2025-05-08T23:33:39Z,b60275e29fe2361ab97ac0ac217840d7,"Mozilla/5.0 (Macintosh; Intel Mac OS X 10_15_7) AppleWebKit/537.36 (KHTML, like Gecko) Chrome/135.0.0.0 Safari/537.36",Macintosh,Chrome,135.0.0.0,OS X,10_15_7,https://5puzkbbxv1.cognition.run/?sona_id=52099,"en-US,en;q=0.9,zh-CN;q=0.8,zh-TW;q=0.7,zh;q=0.6",39dehdm0oskrddb,20,"[""White""]",No,Female,NA,Yes,483253.89999997616,NA,5623,NA,"{""product_choice"":""C""}",choice,cdt,trinary,repulsion_B,2,washing machines,null,null,null,null,null,null,1,40,30,40,90,100,80,Average lifespan,Energy savings,NA,NA
NA,NA,NA,NA,NA,choice_trial_setup,html-keyboard-response,84,339011,0.0-4.0-0.40,338,1,2025-05-08T23:33:39Z,b60275e29fe2361ab97ac0ac217840d7,"Mozilla/5.0 (Macintosh; Intel Mac OS X 10_15_7) AppleWebKit/537.36 (KHTML, like Gecko) Chrome/135.0.0.0 Safari/537.36",Macintosh,Chrome,135.0.0.0,OS X,10_15_7,https://5puzkbbxv1.cognition.run/?sona_id=52099,"en-US,en;q=0.9,zh-CN;q=0.8,zh-TW;q=0.7,zh;q=0.6",39dehdm0oskrddb,20,"[""White""]",No,Female,NA,Yes,483253.89999997616,NA,null,<p></p>,null,choice,ctd,trinary,attraction,1,microwave ovens,null,null,null,null,null,null,2,NA,NA,NA,NA,NA,NA,NA,NA,NA,NA
NA,NA,NA,NA,NA,choice_trial,survey-html-form,85,347172,0.0-4.0-1.40,338,1,2025-05-08T23:33:39Z,b60275e29fe2361ab97ac0ac217840d7,"Mozilla/5.0 (Macintosh; Intel Mac OS X 10_15_7) AppleWebKit/537.36 (KHTML, like Gecko) Chrome/135.0.0.0 Safari/537.36",Macintosh,Chrome,135.0.0.0,OS X,10_15_7,https://5puzkbbxv1.cognition.run/?sona_id=52099,"en-US,en;q=0.9,zh-CN;q=0.8,zh-TW;q=0.7,zh;q=0.6",39dehdm0oskrddb,20,"[""White""]",No,Female,NA,Yes,483253.89999997616,NA,8156,NA,"{""product_choice"":""A""}",choice,ctd,trinary,attraction,1,microwave ovens,null,null,null,null,null,null,2,60,50,60,50,60,40,Warranty,Cooking power,NA,NA
NA,NA,NA,NA,NA,choice_trial_setup,html-keyboard-response,86,347478,0.0-4.0-0.41,338,1,2025-05-08T23:33:39Z,b60275e29fe2361ab97ac0ac217840d7,"Mozilla/5.0 (Macintosh; Intel Mac OS X 10_15_7) AppleWebKit/537.36 (KHTML, like Gecko) Chrome/135.0.0.0 Safari/537.36",Macintosh,Chrome,135.0.0.0,OS X,10_15_7,https://5puzkbbxv1.cognition.run/?sona_id=52099,"en-US,en;q=0.9,zh-CN;q=0.8,zh-TW;q=0.7,zh;q=0.6",39dehdm0oskrddb,20,"[""White""]",No,Female,NA,Yes,483253.89999997616,NA,null,<p></p>,null,choice,tc,binary,repulsion,1,microwave ovens,null,null,null,null,null,null,1,NA,NA,NA,NA,NA,NA,NA,NA,NA,NA
NA,NA,NA,NA,NA,choice_trial,survey-html-form,87,354771,0.0-4.0-1.41,338,1,2025-05-08T23:33:39Z,b60275e29fe2361ab97ac0ac217840d7,"Mozilla/5.0 (Macintosh; Intel Mac OS X 10_15_7) AppleWebKit/537.36 (KHTML, like Gecko) Chrome/135.0.0.0 Safari/537.36",Macintosh,Chrome,135.0.0.0,OS X,10_15_7,https://5puzkbbxv1.cognition.run/?sona_id=52099,"en-US,en;q=0.9,zh-CN;q=0.8,zh-TW;q=0.7,zh;q=0.6",39dehdm0oskrddb,20,"[""White""]",No,Female,NA,Yes,483253.89999997616,NA,7286,NA,"{""product_choice"":""B""}",choice,tc,binary,repulsion,1,microwave ovens,null,null,null,null,null,null,1,100,90,null,30,40,null,Warranty,Cooking power,NA,NA
NA,NA,NA,NA,NA,choice_trial_setup,html-keyboard-response,88,355078,0.0-4.0-0.42,338,1,2025-05-08T23:33:39Z,b60275e29fe2361ab97ac0ac217840d7,"Mozilla/5.0 (Macintosh; Intel Mac OS X 10_15_7) AppleWebKit/537.36 (KHTML, like Gecko) Chrome/135.0.0.0 Safari/537.36",Macintosh,Chrome,135.0.0.0,OS X,10_15_7,https://5puzkbbxv1.cognition.run/?sona_id=52099,"en-US,en;q=0.9,zh-CN;q=0.8,zh-TW;q=0.7,zh;q=0.6",39dehdm0oskrddb,20,"[""White""]",No,Female,NA,Yes,483253.89999997616,NA,null,<p></p>,null,choice,wb,binary,catch,null,microwave ovens,55,95,20,5,null,null,2,NA,NA,NA,NA,NA,NA,NA,NA,NA,NA
NA,NA,NA,NA,NA,choice_trial,survey-html-form,89,358021,0.0-4.0-1.42,338,1,2025-05-08T23:33:39Z,b60275e29fe2361ab97ac0ac217840d7,"Mozilla/5.0 (Macintosh; Intel Mac OS X 10_15_7) AppleWebKit/537.36 (KHTML, like Gecko) Chrome/135.0.0.0 Safari/537.36",Macintosh,Chrome,135.0.0.0,OS X,10_15_7,https://5puzkbbxv1.cognition.run/?sona_id=52099,"en-US,en;q=0.9,zh-CN;q=0.8,zh-TW;q=0.7,zh;q=0.6",39dehdm0oskrddb,20,"[""White""]",No,Female,NA,Yes,483253.89999997616,NA,2934,NA,"{""product_choice"":""B""}",choice,wb,binary,catch,null,microwave ovens,55,95,20,5,null,null,2,null,null,null,null,null,null,Warranty,Cooking power,NA,NA
NA,NA,NA,NA,NA,choice_trial_setup,html-keyboard-response,90,358326,0.0-4.0-0.43,338,1,2025-05-08T23:33:39Z,b60275e29fe2361ab97ac0ac217840d7,"Mozilla/5.0 (Macintosh; Intel Mac OS X 10_15_7) AppleWebKit/537.36 (KHTML, like Gecko) Chrome/135.0.0.0 Safari/537.36",Macintosh,Chrome,135.0.0.0,OS X,10_15_7,https://5puzkbbxv1.cognition.run/?sona_id=52099,"en-US,en;q=0.9,zh-CN;q=0.8,zh-TW;q=0.7,zh;q=0.6",39dehdm0oskrddb,20,"[""White""]",No,Female,NA,Yes,483253.89999997616,NA,null,<p></p>,null,choice,tc,binary,attraction,NA,washing machines,null,null,null,null,null,null,1,NA,NA,NA,NA,NA,NA,NA,NA,NA,NA
NA,NA,NA,NA,NA,choice_trial,survey-html-form,91,362737,0.0-4.0-1.43,338,1,2025-05-08T23:33:39Z,b60275e29fe2361ab97ac0ac217840d7,"Mozilla/5.0 (Macintosh; Intel Mac OS X 10_15_7) AppleWebKit/537.36 (KHTML, like Gecko) Chrome/135.0.0.0 Safari/537.36",Macintosh,Chrome,135.0.0.0,OS X,10_15_7,https://5puzkbbxv1.cognition.run/?sona_id=52099,"en-US,en;q=0.9,zh-CN;q=0.8,zh-TW;q=0.7,zh;q=0.6",39dehdm0oskrddb,20,"[""White""]",No,Female,NA,Yes,483253.89999997616,NA,4405,NA,"{""product_choice"":""A""}",choice,tc,binary,attraction,NA,washing machines,null,null,null,null,null,null,1,60,50,null,50,60,null,Average lifespan,Energy savings,NA,NA
NA,NA,NA,NA,NA,post_trials_message,html-button-response,92,365205,0.0-5.0,338,1,2025-05-08T23:33:39Z,b60275e29fe2361ab97ac0ac217840d7,"Mozilla/5.0 (Macintosh; Intel Mac OS X 10_15_7) AppleWebKit/537.36 (KHTML, like Gecko) Chrome/135.0.0.0 Safari/537.36",Macintosh,Chrome,135.0.0.0,OS X,10_15_7,https://5puzkbbxv1.cognition.run/?sona_id=52099,"en-US,en;q=0.9,zh-CN;q=0.8,zh-TW;q=0.7,zh;q=0.6",39dehdm0oskrddb,20,"[""White""]",No,Female,NA,Yes,483253.89999997616,NA,2465,<p> <b>Thank you for your patience!</b></p><p>  The study will be done after completing a brief form. </p>,0,NA,NA,NA,NA,NA,NA,NA,NA,NA,NA,NA,NA,NA,NA,NA,NA,NA,NA,NA,NA,NA,NA,NA
NA,NA,NA,NA,NA,survey_message,survey-text,93,424524,0.0-6.0,338,1,2025-05-08T23:33:39Z,b60275e29fe2361ab97ac0ac217840d7,"Mozilla/5.0 (Macintosh; Intel Mac OS X 10_15_7) AppleWebKit/537.36 (KHTML, like Gecko) Chrome/135.0.0.0 Safari/537.36",Macintosh,Chrome,135.0.0.0,OS X,10_15_7,https://5puzkbbxv1.cognition.run/?sona_id=52099,"en-US,en;q=0.9,zh-CN;q=0.8,zh-TW;q=0.7,zh;q=0.6",39dehdm0oskrddb,20,"[""White""]",No,Female,NA,Yes,483253.89999997616,NA,59314,NA,"{""Q0"":""I was first looking for higher ratings/scores, and products that had similar scores between the two catagories (rather than one really high score and one really low score).""}",NA,NA,NA,NA,NA,NA,NA,NA,NA,NA,NA,NA,NA,NA,NA,NA,NA,NA,NA,NA,NA,"I was first looking for higher ratings/scores, and products that had similar scores between the two catagories (rather than one really high score and one really low score).",NA
NA,NA,NA,NA,NA,demo_age,survey-text,94,427322,0.0-7.0,338,1,2025-05-08T23:33:39Z,b60275e29fe2361ab97ac0ac217840d7,"Mozilla/5.0 (Macintosh; Intel Mac OS X 10_15_7) AppleWebKit/537.36 (KHTML, like Gecko) Chrome/135.0.0.0 Safari/537.36",Macintosh,Chrome,135.0.0.0,OS X,10_15_7,https://5puzkbbxv1.cognition.run/?sona_id=52099,"en-US,en;q=0.9,zh-CN;q=0.8,zh-TW;q=0.7,zh;q=0.6",39dehdm0oskrddb,20,"[""White""]",No,Female,NA,Yes,483253.89999997616,NA,2790,NA,"{""Q0"":""20""}",NA,NA,NA,NA,NA,NA,NA,NA,NA,NA,NA,NA,NA,NA,NA,NA,NA,NA,NA,NA,NA,NA,NA
NA,NA,NA,NA,NA,demo_race,survey-multi-select,95,430307,0.0-8.0,338,1,2025-05-08T23:33:39Z,b60275e29fe2361ab97ac0ac217840d7,"Mozilla/5.0 (Macintosh; Intel Mac OS X 10_15_7) AppleWebKit/537.36 (KHTML, like Gecko) Chrome/135.0.0.0 Safari/537.36",Macintosh,Chrome,135.0.0.0,OS X,10_15_7,https://5puzkbbxv1.cognition.run/?sona_id=52099,"en-US,en;q=0.9,zh-CN;q=0.8,zh-TW;q=0.7,zh;q=0.6",39dehdm0oskrddb,20,"[""White""]",No,Female,NA,Yes,483253.89999997616,NA,2978,NA,"{""Q0"":[""White""]}",NA,NA,NA,NA,NA,NA,NA,NA,NA,NA,NA,NA,NA,NA,NA,NA,NA,NA,NA,NA,NA,NA,[0]
NA,NA,NA,NA,NA,demo_ethnicity_gender,survey-multi-choice,96,435270,0.0-9.0,338,1,2025-05-08T23:33:39Z,b60275e29fe2361ab97ac0ac217840d7,"Mozilla/5.0 (Macintosh; Intel Mac OS X 10_15_7) AppleWebKit/537.36 (KHTML, like Gecko) Chrome/135.0.0.0 Safari/537.36",Macintosh,Chrome,135.0.0.0,OS X,10_15_7,https://5puzkbbxv1.cognition.run/?sona_id=52099,"en-US,en;q=0.9,zh-CN;q=0.8,zh-TW;q=0.7,zh;q=0.6",39dehdm0oskrddb,20,"[""White""]",No,Female,NA,Yes,483253.89999997616,NA,4958,NA,"{""Q0"":""No"",""Q1"":""Female""}",NA,NA,NA,NA,NA,NA,NA,NA,NA,NA,NA,NA,NA,NA,NA,NA,NA,NA,NA,NA,NA,NA,"[0,1]"
NA,NA,NA,NA,NA,demo_countries,survey-text,97,441086,0.0-10.0,338,1,2025-05-08T23:33:39Z,b60275e29fe2361ab97ac0ac217840d7,"Mozilla/5.0 (Macintosh; Intel Mac OS X 10_15_7) AppleWebKit/537.36 (KHTML, like Gecko) Chrome/135.0.0.0 Safari/537.36",Macintosh,Chrome,135.0.0.0,OS X,10_15_7,https://5puzkbbxv1.cognition.run/?sona_id=52099,"en-US,en;q=0.9,zh-CN;q=0.8,zh-TW;q=0.7,zh;q=0.6",39dehdm0oskrddb,20,"[""White""]",No,Female,NA,Yes,483253.89999997616,NA,5807,NA,"{""Q0"":""NA""}",NA,NA,NA,NA,NA,NA,NA,NA,NA,NA,NA,NA,NA,NA,NA,NA,NA,NA,NA,NA,NA,NA,NA
NA,NA,NA,NA,NA,demo_prev_study,survey-multi-choice,98,449256,0.0-11.0,338,1,2025-05-08T23:33:39Z,b60275e29fe2361ab97ac0ac217840d7,"Mozilla/5.0 (Macintosh; Intel Mac OS X 10_15_7) AppleWebKit/537.36 (KHTML, like Gecko) Chrome/135.0.0.0 Safari/537.36",Macintosh,Chrome,135.0.0.0,OS X,10_15_7,https://5puzkbbxv1.cognition.run/?sona_id=52099,"en-US,en;q=0.9,zh-CN;q=0.8,zh-TW;q=0.7,zh;q=0.6",39dehdm0oskrddb,20,"[""White""]",No,Female,NA,Yes,483253.89999997616,NA,8167,NA,"{""Q0"":""Yes""}",NA,NA,NA,NA,NA,NA,NA,NA,NA,NA,NA,NA,NA,NA,NA,NA,NA,NA,NA,NA,NA,NA,[0]
NA,NA,NA,NA,NA,post_survey_message,html-keyboard-response,99,451924,0.0-12.0,338,1,2025-05-08T23:33:39Z,b60275e29fe2361ab97ac0ac217840d7,"Mozilla/5.0 (Macintosh; Intel Mac OS X 10_15_7) AppleWebKit/537.36 (KHTML, like Gecko) Chrome/135.0.0.0 Safari/537.36",Macintosh,Chrome,135.0.0.0,OS X,10_15_7,https://5puzkbbxv1.cognition.run/?sona_id=52099,"en-US,en;q=0.9,zh-CN;q=0.8,zh-TW;q=0.7,zh;q=0.6",39dehdm0oskrddb,20,"[""White""]",No,Female,NA,Yes,483253.89999997616,NA,2659,NA,j,NA,NA,NA,NA,NA,NA,NA,NA,NA,NA,NA,NA,NA,NA,NA,NA,NA,NA,NA,NA,NA,NA,NA
NA,NA,NA,NA,NA,debrief,image-keyboard-response,100,483228,0.0-13.0,338,1,2025-05-08T23:33:39Z,b60275e29fe2361ab97ac0ac217840d7,"Mozilla/5.0 (Macintosh; Intel Mac OS X 10_15_7) AppleWebKit/537.36 (KHTML, like Gecko) Chrome/135.0.0.0 Safari/537.36",Macintosh,Chrome,135.0.0.0,OS X,10_15_7,https://5puzkbbxv1.cognition.run/?sona_id=52099,"en-US,en;q=0.9,zh-CN;q=0.8,zh-TW;q=0.7,zh;q=0.6",39dehdm0oskrddb,20,"[""White""]",No,Female,NA,Yes,483253.89999997616,NA,31296,Judg_choice_debrief.png,p,NA,NA,NA,NA,NA,NA,NA,NA,NA,NA,NA,NA,NA,NA,NA,NA,NA,NA,NA,NA,NA,NA,NA
