success,timeout,failed_images,failed_audio,failed_video,screen_id,trial_type,trial_index,time_elapsed,internal_node_id,run_id,condition,recorded_at,source_code_version,user_agent,device,browser,browser_version,platform,platform_version,referer,accept_language,ppt_id,age,race,ethnicity,gender,other_countries,prev_study,exp_duration,view_history,rt,stimulus,response,phase,order,set,effect,t_high,category,d1_best,d2_best,d1_worst1,d2_worst1,d1_worst2,d2_worst2,first_dim,d1_t,d1_c,d1_d,d2_t,d2_c,d2_d,d1_name,d2_name,strategy_response,question_order
TRUE,FALSE,[],[],[],img preload,preload,0,125,0.0-0.0,340,1,2025-05-09T00:05:52Z,b60275e29fe2361ab97ac0ac217840d7,"Mozilla/5.0 (Macintosh; Intel Mac OS X 10_15_7) AppleWebKit/537.36 (KHTML, like Gecko) Chrome/134.0.0.0 Safari/537.36",Macintosh,Chrome,134.0.0.0,OS X,10_15_7,https://5puzkbbxv1.cognition.run/?sona_id=57454,"en-US,en;q=0.9",w332709780ebs01,18,"[""Black or African-American""]",No,Male,"Ghana is the only one
",No,1759400.2999999523,NA,NA,NA,NA,NA,NA,NA,NA,NA,NA,NA,NA,NA,NA,NA,NA,NA,NA,NA,NA,NA,NA,NA,NA,NA,NA,NA
NA,NA,NA,NA,NA,computer_message,instructions,1,140695,0.0-1.0,340,1,2025-05-09T00:05:52Z,b60275e29fe2361ab97ac0ac217840d7,"Mozilla/5.0 (Macintosh; Intel Mac OS X 10_15_7) AppleWebKit/537.36 (KHTML, like Gecko) Chrome/134.0.0.0 Safari/537.36",Macintosh,Chrome,134.0.0.0,OS X,10_15_7,https://5puzkbbxv1.cognition.run/?sona_id=57454,"en-US,en;q=0.9",w332709780ebs01,18,"[""Black or African-American""]",No,Male,"Ghana is the only one
",No,1759400.2999999523,"[{""page_index"":0,""viewing_time"":140569}]",140569,NA,NA,NA,NA,NA,NA,NA,NA,NA,NA,NA,NA,NA,NA,NA,NA,NA,NA,NA,NA,NA,NA,NA,NA,NA
TRUE,NA,NA,NA,NA,NA,fullscreen,2,143967,0.0-2.0,340,1,2025-05-09T00:05:52Z,b60275e29fe2361ab97ac0ac217840d7,"Mozilla/5.0 (Macintosh; Intel Mac OS X 10_15_7) AppleWebKit/537.36 (KHTML, like Gecko) Chrome/134.0.0.0 Safari/537.36",Macintosh,Chrome,134.0.0.0,OS X,10_15_7,https://5puzkbbxv1.cognition.run/?sona_id=57454,"en-US,en;q=0.9",w332709780ebs01,18,"[""Black or African-American""]",No,Male,"Ghana is the only one
",No,1759400.2999999523,NA,2262,NA,NA,NA,NA,NA,NA,NA,NA,NA,NA,NA,NA,NA,NA,NA,NA,NA,NA,NA,NA,NA,NA,NA,NA,NA
NA,NA,NA,NA,NA,choice_instructions,instructions,3,229210,0.0-3.0,340,1,2025-05-09T00:05:52Z,b60275e29fe2361ab97ac0ac217840d7,"Mozilla/5.0 (Macintosh; Intel Mac OS X 10_15_7) AppleWebKit/537.36 (KHTML, like Gecko) Chrome/134.0.0.0 Safari/537.36",Macintosh,Chrome,134.0.0.0,OS X,10_15_7,https://5puzkbbxv1.cognition.run/?sona_id=57454,"en-US,en;q=0.9",w332709780ebs01,18,"[""Black or African-American""]",No,Male,"Ghana is the only one
",No,1759400.2999999523,"[{""page_index"":0,""viewing_time"":2694},{""page_index"":1,""viewing_time"":7917},{""page_index"":2,""viewing_time"":10533},{""page_index"":3,""viewing_time"":8935},{""page_index"":4,""viewing_time"":5365},{""page_index"":5,""viewing_time"":43117},{""page_index"":6,""viewing_time"":6667}]",85228,NA,NA,NA,NA,NA,NA,NA,NA,NA,NA,NA,NA,NA,NA,NA,NA,NA,NA,NA,NA,NA,NA,NA,NA,NA
NA,NA,NA,NA,NA,choice_trial_setup,html-keyboard-response,4,229516,0.0-4.0-0.0,340,1,2025-05-09T00:05:52Z,b60275e29fe2361ab97ac0ac217840d7,"Mozilla/5.0 (Macintosh; Intel Mac OS X 10_15_7) AppleWebKit/537.36 (KHTML, like Gecko) Chrome/134.0.0.0 Safari/537.36",Macintosh,Chrome,134.0.0.0,OS X,10_15_7,https://5puzkbbxv1.cognition.run/?sona_id=57454,"en-US,en;q=0.9",w332709780ebs01,18,"[""Black or African-American""]",No,Male,"Ghana is the only one
",No,1759400.2999999523,NA,null,<p></p>,null,choice,tdc,trinary,repulsion_A,2,laptops,null,null,null,null,null,null,2,NA,NA,NA,NA,NA,NA,NA,NA,NA,NA
NA,NA,NA,NA,NA,choice_trial,survey-html-form,5,247328,0.0-4.0-1.0,340,1,2025-05-09T00:05:52Z,b60275e29fe2361ab97ac0ac217840d7,"Mozilla/5.0 (Macintosh; Intel Mac OS X 10_15_7) AppleWebKit/537.36 (KHTML, like Gecko) Chrome/134.0.0.0 Safari/537.36",Macintosh,Chrome,134.0.0.0,OS X,10_15_7,https://5puzkbbxv1.cognition.run/?sona_id=57454,"en-US,en;q=0.9",w332709780ebs01,18,"[""Black or African-American""]",No,Male,"Ghana is the only one
",No,1759400.2999999523,NA,17804,NA,"{""product_choice"":""C""}",choice,tdc,trinary,repulsion_A,2,laptops,null,null,null,null,null,null,2,30,40,20,100,90,100,Processing speed,Memory (RAM),NA,NA
NA,NA,NA,NA,NA,choice_trial_setup,html-keyboard-response,6,247630,0.0-4.0-0.1,340,1,2025-05-09T00:05:52Z,b60275e29fe2361ab97ac0ac217840d7,"Mozilla/5.0 (Macintosh; Intel Mac OS X 10_15_7) AppleWebKit/537.36 (KHTML, like Gecko) Chrome/134.0.0.0 Safari/537.36",Macintosh,Chrome,134.0.0.0,OS X,10_15_7,https://5puzkbbxv1.cognition.run/?sona_id=57454,"en-US,en;q=0.9",w332709780ebs01,18,"[""Black or African-American""]",No,Male,"Ghana is the only one
",No,1759400.2999999523,NA,null,<p></p>,null,choice,ct,binary,repulsion,2,washing machines,null,null,null,null,null,null,1,NA,NA,NA,NA,NA,NA,NA,NA,NA,NA
NA,NA,NA,NA,NA,choice_trial,survey-html-form,7,253293,0.0-4.0-1.1,340,1,2025-05-09T00:05:52Z,b60275e29fe2361ab97ac0ac217840d7,"Mozilla/5.0 (Macintosh; Intel Mac OS X 10_15_7) AppleWebKit/537.36 (KHTML, like Gecko) Chrome/134.0.0.0 Safari/537.36",Macintosh,Chrome,134.0.0.0,OS X,10_15_7,https://5puzkbbxv1.cognition.run/?sona_id=57454,"en-US,en;q=0.9",w332709780ebs01,18,"[""Black or African-American""]",No,Male,"Ghana is the only one
",No,1759400.2999999523,NA,5658,NA,"{""product_choice"":""A""}",choice,ct,binary,repulsion,2,washing machines,null,null,null,null,null,null,1,30,40,null,100,90,null,Average lifespan,Energy savings,NA,NA
NA,NA,NA,NA,NA,choice_trial_setup,html-keyboard-response,8,253596,0.0-4.0-0.2,340,1,2025-05-09T00:05:52Z,b60275e29fe2361ab97ac0ac217840d7,"Mozilla/5.0 (Macintosh; Intel Mac OS X 10_15_7) AppleWebKit/537.36 (KHTML, like Gecko) Chrome/134.0.0.0 Safari/537.36",Macintosh,Chrome,134.0.0.0,OS X,10_15_7,https://5puzkbbxv1.cognition.run/?sona_id=57454,"en-US,en;q=0.9",w332709780ebs01,18,"[""Black or African-American""]",No,Male,"Ghana is the only one
",No,1759400.2999999523,NA,null,<p></p>,null,choice,dct,trinary,repulsion_A,1,microwave ovens,null,null,null,null,null,null,2,NA,NA,NA,NA,NA,NA,NA,NA,NA,NA
NA,NA,NA,NA,NA,choice_trial,survey-html-form,9,265209,0.0-4.0-1.2,340,1,2025-05-09T00:05:52Z,b60275e29fe2361ab97ac0ac217840d7,"Mozilla/5.0 (Macintosh; Intel Mac OS X 10_15_7) AppleWebKit/537.36 (KHTML, like Gecko) Chrome/134.0.0.0 Safari/537.36",Macintosh,Chrome,134.0.0.0,OS X,10_15_7,https://5puzkbbxv1.cognition.run/?sona_id=57454,"en-US,en;q=0.9",w332709780ebs01,18,"[""Black or African-American""]",No,Male,"Ghana is the only one
",No,1759400.2999999523,NA,11609,NA,"{""product_choice"":""B""}",choice,dct,trinary,repulsion_A,1,microwave ovens,null,null,null,null,null,null,2,100,90,100,30,40,20,Warranty,Cooking power,NA,NA
NA,NA,NA,NA,NA,choice_trial_setup,html-keyboard-response,10,265512,0.0-4.0-0.3,340,1,2025-05-09T00:05:52Z,b60275e29fe2361ab97ac0ac217840d7,"Mozilla/5.0 (Macintosh; Intel Mac OS X 10_15_7) AppleWebKit/537.36 (KHTML, like Gecko) Chrome/134.0.0.0 Safari/537.36",Macintosh,Chrome,134.0.0.0,OS X,10_15_7,https://5puzkbbxv1.cognition.run/?sona_id=57454,"en-US,en;q=0.9",w332709780ebs01,18,"[""Black or African-American""]",No,Male,"Ghana is the only one
",No,1759400.2999999523,NA,null,<p></p>,null,choice,tdc,trinary,repulsion_A,2,microwave ovens,null,null,null,null,null,null,1,NA,NA,NA,NA,NA,NA,NA,NA,NA,NA
NA,NA,NA,NA,NA,choice_trial,survey-html-form,11,314027,0.0-4.0-1.3,340,1,2025-05-09T00:05:52Z,b60275e29fe2361ab97ac0ac217840d7,"Mozilla/5.0 (Macintosh; Intel Mac OS X 10_15_7) AppleWebKit/537.36 (KHTML, like Gecko) Chrome/134.0.0.0 Safari/537.36",Macintosh,Chrome,134.0.0.0,OS X,10_15_7,https://5puzkbbxv1.cognition.run/?sona_id=57454,"en-US,en;q=0.9",w332709780ebs01,18,"[""Black or African-American""]",No,Male,"Ghana is the only one
",No,1759400.2999999523,NA,48511,NA,"{""product_choice"":""C""}",choice,tdc,trinary,repulsion_A,2,microwave ovens,null,null,null,null,null,null,1,30,40,20,100,90,100,Warranty,Cooking power,NA,NA
NA,NA,NA,NA,NA,choice_trial_setup,html-keyboard-response,12,314334,0.0-4.0-0.4,340,1,2025-05-09T00:05:52Z,b60275e29fe2361ab97ac0ac217840d7,"Mozilla/5.0 (Macintosh; Intel Mac OS X 10_15_7) AppleWebKit/537.36 (KHTML, like Gecko) Chrome/134.0.0.0 Safari/537.36",Macintosh,Chrome,134.0.0.0,OS X,10_15_7,https://5puzkbbxv1.cognition.run/?sona_id=57454,"en-US,en;q=0.9",w332709780ebs01,18,"[""Black or African-American""]",No,Male,"Ghana is the only one
",No,1759400.2999999523,NA,null,<p></p>,null,choice,dct,trinary,repulsion_A,1,laptops,null,null,null,null,null,null,2,NA,NA,NA,NA,NA,NA,NA,NA,NA,NA
NA,NA,NA,NA,NA,choice_trial,survey-html-form,13,319394,0.0-4.0-1.4,340,1,2025-05-09T00:05:52Z,b60275e29fe2361ab97ac0ac217840d7,"Mozilla/5.0 (Macintosh; Intel Mac OS X 10_15_7) AppleWebKit/537.36 (KHTML, like Gecko) Chrome/134.0.0.0 Safari/537.36",Macintosh,Chrome,134.0.0.0,OS X,10_15_7,https://5puzkbbxv1.cognition.run/?sona_id=57454,"en-US,en;q=0.9",w332709780ebs01,18,"[""Black or African-American""]",No,Male,"Ghana is the only one
",No,1759400.2999999523,NA,5056,NA,"{""product_choice"":""B""}",choice,dct,trinary,repulsion_A,1,laptops,null,null,null,null,null,null,2,100,90,100,30,40,20,Processing speed,Memory (RAM),NA,NA
NA,NA,NA,NA,NA,choice_trial_setup,html-keyboard-response,14,319696,0.0-4.0-0.5,340,1,2025-05-09T00:05:52Z,b60275e29fe2361ab97ac0ac217840d7,"Mozilla/5.0 (Macintosh; Intel Mac OS X 10_15_7) AppleWebKit/537.36 (KHTML, like Gecko) Chrome/134.0.0.0 Safari/537.36",Macintosh,Chrome,134.0.0.0,OS X,10_15_7,https://5puzkbbxv1.cognition.run/?sona_id=57454,"en-US,en;q=0.9",w332709780ebs01,18,"[""Black or African-American""]",No,Male,"Ghana is the only one
",No,1759400.2999999523,NA,null,<p></p>,null,choice,dct,trinary,repulsion_B,2,laptops,null,null,null,null,null,null,2,NA,NA,NA,NA,NA,NA,NA,NA,NA,NA
NA,NA,NA,NA,NA,choice_trial,survey-html-form,15,326178,0.0-4.0-1.5,340,1,2025-05-09T00:05:52Z,b60275e29fe2361ab97ac0ac217840d7,"Mozilla/5.0 (Macintosh; Intel Mac OS X 10_15_7) AppleWebKit/537.36 (KHTML, like Gecko) Chrome/134.0.0.0 Safari/537.36",Macintosh,Chrome,134.0.0.0,OS X,10_15_7,https://5puzkbbxv1.cognition.run/?sona_id=57454,"en-US,en;q=0.9",w332709780ebs01,18,"[""Black or African-American""]",No,Male,"Ghana is the only one
",No,1759400.2999999523,NA,6479,NA,"{""product_choice"":""C""}",choice,dct,trinary,repulsion_B,2,laptops,null,null,null,null,null,null,2,40,30,40,90,100,80,Processing speed,Memory (RAM),NA,NA
NA,NA,NA,NA,NA,choice_trial_setup,html-keyboard-response,16,326481,0.0-4.0-0.6,340,1,2025-05-09T00:05:52Z,b60275e29fe2361ab97ac0ac217840d7,"Mozilla/5.0 (Macintosh; Intel Mac OS X 10_15_7) AppleWebKit/537.36 (KHTML, like Gecko) Chrome/134.0.0.0 Safari/537.36",Macintosh,Chrome,134.0.0.0,OS X,10_15_7,https://5puzkbbxv1.cognition.run/?sona_id=57454,"en-US,en;q=0.9",w332709780ebs01,18,"[""Black or African-American""]",No,Male,"Ghana is the only one
",No,1759400.2999999523,NA,null,<p></p>,null,choice,bw,binary,catch,null,laptops,90,55,50,40,null,null,1,NA,NA,NA,NA,NA,NA,NA,NA,NA,NA
NA,NA,NA,NA,NA,choice_trial,survey-html-form,17,335377,0.0-4.0-1.6,340,1,2025-05-09T00:05:52Z,b60275e29fe2361ab97ac0ac217840d7,"Mozilla/5.0 (Macintosh; Intel Mac OS X 10_15_7) AppleWebKit/537.36 (KHTML, like Gecko) Chrome/134.0.0.0 Safari/537.36",Macintosh,Chrome,134.0.0.0,OS X,10_15_7,https://5puzkbbxv1.cognition.run/?sona_id=57454,"en-US,en;q=0.9",w332709780ebs01,18,"[""Black or African-American""]",No,Male,"Ghana is the only one
",No,1759400.2999999523,NA,8890,NA,"{""product_choice"":""A""}",choice,bw,binary,catch,null,laptops,90,55,50,40,null,null,1,null,null,null,null,null,null,Processing speed,Memory (RAM),NA,NA
NA,NA,NA,NA,NA,choice_trial_setup,html-keyboard-response,18,335680,0.0-4.0-0.7,340,1,2025-05-09T00:05:52Z,b60275e29fe2361ab97ac0ac217840d7,"Mozilla/5.0 (Macintosh; Intel Mac OS X 10_15_7) AppleWebKit/537.36 (KHTML, like Gecko) Chrome/134.0.0.0 Safari/537.36",Macintosh,Chrome,134.0.0.0,OS X,10_15_7,https://5puzkbbxv1.cognition.run/?sona_id=57454,"en-US,en;q=0.9",w332709780ebs01,18,"[""Black or African-American""]",No,Male,"Ghana is the only one
",No,1759400.2999999523,NA,null,<p></p>,null,choice,wbw,trinary,catch,null,microwave ovens,60,80,40,30,10,50,1,NA,NA,NA,NA,NA,NA,NA,NA,NA,NA
NA,NA,NA,NA,NA,choice_trial,survey-html-form,19,342943,0.0-4.0-1.7,340,1,2025-05-09T00:05:52Z,b60275e29fe2361ab97ac0ac217840d7,"Mozilla/5.0 (Macintosh; Intel Mac OS X 10_15_7) AppleWebKit/537.36 (KHTML, like Gecko) Chrome/134.0.0.0 Safari/537.36",Macintosh,Chrome,134.0.0.0,OS X,10_15_7,https://5puzkbbxv1.cognition.run/?sona_id=57454,"en-US,en;q=0.9",w332709780ebs01,18,"[""Black or African-American""]",No,Male,"Ghana is the only one
",No,1759400.2999999523,NA,7259,NA,"{""product_choice"":""B""}",choice,wbw,trinary,catch,null,microwave ovens,60,80,40,30,10,50,1,null,null,null,null,null,null,Warranty,Cooking power,NA,NA
NA,NA,NA,NA,NA,choice_trial_setup,html-keyboard-response,20,343246,0.0-4.0-0.8,340,1,2025-05-09T00:05:52Z,b60275e29fe2361ab97ac0ac217840d7,"Mozilla/5.0 (Macintosh; Intel Mac OS X 10_15_7) AppleWebKit/537.36 (KHTML, like Gecko) Chrome/134.0.0.0 Safari/537.36",Macintosh,Chrome,134.0.0.0,OS X,10_15_7,https://5puzkbbxv1.cognition.run/?sona_id=57454,"en-US,en;q=0.9",w332709780ebs01,18,"[""Black or African-American""]",No,Male,"Ghana is the only one
",No,1759400.2999999523,NA,null,<p></p>,null,choice,tc,binary,repulsion,1,laptops,null,null,null,null,null,null,2,NA,NA,NA,NA,NA,NA,NA,NA,NA,NA
NA,NA,NA,NA,NA,choice_trial,survey-html-form,21,346644,0.0-4.0-1.8,340,1,2025-05-09T00:05:52Z,b60275e29fe2361ab97ac0ac217840d7,"Mozilla/5.0 (Macintosh; Intel Mac OS X 10_15_7) AppleWebKit/537.36 (KHTML, like Gecko) Chrome/134.0.0.0 Safari/537.36",Macintosh,Chrome,134.0.0.0,OS X,10_15_7,https://5puzkbbxv1.cognition.run/?sona_id=57454,"en-US,en;q=0.9",w332709780ebs01,18,"[""Black or African-American""]",No,Male,"Ghana is the only one
",No,1759400.2999999523,NA,3394,NA,"{""product_choice"":""B""}",choice,tc,binary,repulsion,1,laptops,null,null,null,null,null,null,2,100,90,null,30,40,null,Processing speed,Memory (RAM),NA,NA
NA,NA,NA,NA,NA,choice_trial_setup,html-keyboard-response,22,346946,0.0-4.0-0.9,340,1,2025-05-09T00:05:52Z,b60275e29fe2361ab97ac0ac217840d7,"Mozilla/5.0 (Macintosh; Intel Mac OS X 10_15_7) AppleWebKit/537.36 (KHTML, like Gecko) Chrome/134.0.0.0 Safari/537.36",Macintosh,Chrome,134.0.0.0,OS X,10_15_7,https://5puzkbbxv1.cognition.run/?sona_id=57454,"en-US,en;q=0.9",w332709780ebs01,18,"[""Black or African-American""]",No,Male,"Ghana is the only one
",No,1759400.2999999523,NA,null,<p></p>,null,choice,ctd,trinary,repulsion_A,2,televisions,null,null,null,null,null,null,1,NA,NA,NA,NA,NA,NA,NA,NA,NA,NA
NA,NA,NA,NA,NA,choice_trial,survey-html-form,23,354327,0.0-4.0-1.9,340,1,2025-05-09T00:05:52Z,b60275e29fe2361ab97ac0ac217840d7,"Mozilla/5.0 (Macintosh; Intel Mac OS X 10_15_7) AppleWebKit/537.36 (KHTML, like Gecko) Chrome/134.0.0.0 Safari/537.36",Macintosh,Chrome,134.0.0.0,OS X,10_15_7,https://5puzkbbxv1.cognition.run/?sona_id=57454,"en-US,en;q=0.9",w332709780ebs01,18,"[""Black or African-American""]",No,Male,"Ghana is the only one
",No,1759400.2999999523,NA,7377,NA,"{""product_choice"":""A""}",choice,ctd,trinary,repulsion_A,2,televisions,null,null,null,null,null,null,1,30,40,20,100,90,100,Screen size,Average lifespan,NA,NA
NA,NA,NA,NA,NA,choice_trial_setup,html-keyboard-response,24,354631,0.0-4.0-0.10,340,1,2025-05-09T00:05:52Z,b60275e29fe2361ab97ac0ac217840d7,"Mozilla/5.0 (Macintosh; Intel Mac OS X 10_15_7) AppleWebKit/537.36 (KHTML, like Gecko) Chrome/134.0.0.0 Safari/537.36",Macintosh,Chrome,134.0.0.0,OS X,10_15_7,https://5puzkbbxv1.cognition.run/?sona_id=57454,"en-US,en;q=0.9",w332709780ebs01,18,"[""Black or African-American""]",No,Male,"Ghana is the only one
",No,1759400.2999999523,NA,null,<p></p>,null,choice,cdt,trinary,attraction,1,televisions,null,null,null,null,null,null,1,NA,NA,NA,NA,NA,NA,NA,NA,NA,NA
NA,NA,NA,NA,NA,choice_trial,survey-html-form,25,394694,0.0-4.0-1.10,340,1,2025-05-09T00:05:52Z,b60275e29fe2361ab97ac0ac217840d7,"Mozilla/5.0 (Macintosh; Intel Mac OS X 10_15_7) AppleWebKit/537.36 (KHTML, like Gecko) Chrome/134.0.0.0 Safari/537.36",Macintosh,Chrome,134.0.0.0,OS X,10_15_7,https://5puzkbbxv1.cognition.run/?sona_id=57454,"en-US,en;q=0.9",w332709780ebs01,18,"[""Black or African-American""]",No,Male,"Ghana is the only one
",No,1759400.2999999523,NA,40059,NA,"{""product_choice"":""A""}",choice,cdt,trinary,attraction,1,televisions,null,null,null,null,null,null,1,60,50,60,50,60,40,Screen size,Average lifespan,NA,NA
NA,NA,NA,NA,NA,choice_trial_setup,html-keyboard-response,26,394998,0.0-4.0-0.11,340,1,2025-05-09T00:05:52Z,b60275e29fe2361ab97ac0ac217840d7,"Mozilla/5.0 (Macintosh; Intel Mac OS X 10_15_7) AppleWebKit/537.36 (KHTML, like Gecko) Chrome/134.0.0.0 Safari/537.36",Macintosh,Chrome,134.0.0.0,OS X,10_15_7,https://5puzkbbxv1.cognition.run/?sona_id=57454,"en-US,en;q=0.9",w332709780ebs01,18,"[""Black or African-American""]",No,Male,"Ghana is the only one
",No,1759400.2999999523,NA,null,<p></p>,null,choice,bw,binary,catch,null,microwave ovens,80,75,50,20,null,null,1,NA,NA,NA,NA,NA,NA,NA,NA,NA,NA
NA,NA,NA,NA,NA,choice_trial,survey-html-form,27,398627,0.0-4.0-1.11,340,1,2025-05-09T00:05:52Z,b60275e29fe2361ab97ac0ac217840d7,"Mozilla/5.0 (Macintosh; Intel Mac OS X 10_15_7) AppleWebKit/537.36 (KHTML, like Gecko) Chrome/134.0.0.0 Safari/537.36",Macintosh,Chrome,134.0.0.0,OS X,10_15_7,https://5puzkbbxv1.cognition.run/?sona_id=57454,"en-US,en;q=0.9",w332709780ebs01,18,"[""Black or African-American""]",No,Male,"Ghana is the only one
",No,1759400.2999999523,NA,3624,NA,"{""product_choice"":""A""}",choice,bw,binary,catch,null,microwave ovens,80,75,50,20,null,null,1,null,null,null,null,null,null,Warranty,Cooking power,NA,NA
NA,NA,NA,NA,NA,choice_trial_setup,html-keyboard-response,28,398930,0.0-4.0-0.12,340,1,2025-05-09T00:05:52Z,b60275e29fe2361ab97ac0ac217840d7,"Mozilla/5.0 (Macintosh; Intel Mac OS X 10_15_7) AppleWebKit/537.36 (KHTML, like Gecko) Chrome/134.0.0.0 Safari/537.36",Macintosh,Chrome,134.0.0.0,OS X,10_15_7,https://5puzkbbxv1.cognition.run/?sona_id=57454,"en-US,en;q=0.9",w332709780ebs01,18,"[""Black or African-American""]",No,Male,"Ghana is the only one
",No,1759400.2999999523,NA,null,<p></p>,null,choice,ctd,trinary,repulsion_A,1,washing machines,null,null,null,null,null,null,1,NA,NA,NA,NA,NA,NA,NA,NA,NA,NA
NA,NA,NA,NA,NA,choice_trial,survey-html-form,29,447978,0.0-4.0-1.12,340,1,2025-05-09T00:05:52Z,b60275e29fe2361ab97ac0ac217840d7,"Mozilla/5.0 (Macintosh; Intel Mac OS X 10_15_7) AppleWebKit/537.36 (KHTML, like Gecko) Chrome/134.0.0.0 Safari/537.36",Macintosh,Chrome,134.0.0.0,OS X,10_15_7,https://5puzkbbxv1.cognition.run/?sona_id=57454,"en-US,en;q=0.9",w332709780ebs01,18,"[""Black or African-American""]",No,Male,"Ghana is the only one
",No,1759400.2999999523,NA,49044,NA,"{""product_choice"":""A""}",choice,ctd,trinary,repulsion_A,1,washing machines,null,null,null,null,null,null,1,100,90,100,30,40,20,Average lifespan,Energy savings,NA,NA
NA,NA,NA,NA,NA,choice_trial_setup,html-keyboard-response,30,448283,0.0-4.0-0.13,340,1,2025-05-09T00:05:52Z,b60275e29fe2361ab97ac0ac217840d7,"Mozilla/5.0 (Macintosh; Intel Mac OS X 10_15_7) AppleWebKit/537.36 (KHTML, like Gecko) Chrome/134.0.0.0 Safari/537.36",Macintosh,Chrome,134.0.0.0,OS X,10_15_7,https://5puzkbbxv1.cognition.run/?sona_id=57454,"en-US,en;q=0.9",w332709780ebs01,18,"[""Black or African-American""]",No,Male,"Ghana is the only one
",No,1759400.2999999523,NA,null,<p></p>,null,choice,tc,binary,repulsion,1,microwave ovens,null,null,null,null,null,null,2,NA,NA,NA,NA,NA,NA,NA,NA,NA,NA
NA,NA,NA,NA,NA,choice_trial,survey-html-form,31,484912,0.0-4.0-1.13,340,1,2025-05-09T00:05:52Z,b60275e29fe2361ab97ac0ac217840d7,"Mozilla/5.0 (Macintosh; Intel Mac OS X 10_15_7) AppleWebKit/537.36 (KHTML, like Gecko) Chrome/134.0.0.0 Safari/537.36",Macintosh,Chrome,134.0.0.0,OS X,10_15_7,https://5puzkbbxv1.cognition.run/?sona_id=57454,"en-US,en;q=0.9",w332709780ebs01,18,"[""Black or African-American""]",No,Male,"Ghana is the only one
",No,1759400.2999999523,NA,36622,NA,"{""product_choice"":""B""}",choice,tc,binary,repulsion,1,microwave ovens,null,null,null,null,null,null,2,100,90,null,30,40,null,Warranty,Cooking power,NA,NA
NA,NA,NA,NA,NA,choice_trial_setup,html-keyboard-response,32,485216,0.0-4.0-0.14,340,1,2025-05-09T00:05:52Z,b60275e29fe2361ab97ac0ac217840d7,"Mozilla/5.0 (Macintosh; Intel Mac OS X 10_15_7) AppleWebKit/537.36 (KHTML, like Gecko) Chrome/134.0.0.0 Safari/537.36",Macintosh,Chrome,134.0.0.0,OS X,10_15_7,https://5puzkbbxv1.cognition.run/?sona_id=57454,"en-US,en;q=0.9",w332709780ebs01,18,"[""Black or African-American""]",No,Male,"Ghana is the only one
",No,1759400.2999999523,NA,null,<p></p>,null,choice,tdc,trinary,attraction,2,televisions,null,null,null,null,null,null,1,NA,NA,NA,NA,NA,NA,NA,NA,NA,NA
NA,NA,NA,NA,NA,choice_trial,survey-html-form,33,502777,0.0-4.0-1.14,340,1,2025-05-09T00:05:52Z,b60275e29fe2361ab97ac0ac217840d7,"Mozilla/5.0 (Macintosh; Intel Mac OS X 10_15_7) AppleWebKit/537.36 (KHTML, like Gecko) Chrome/134.0.0.0 Safari/537.36",Macintosh,Chrome,134.0.0.0,OS X,10_15_7,https://5puzkbbxv1.cognition.run/?sona_id=57454,"en-US,en;q=0.9",w332709780ebs01,18,"[""Black or African-American""]",No,Male,"Ghana is the only one
",No,1759400.2999999523,NA,17554,NA,"{""product_choice"":""A""}",choice,tdc,trinary,attraction,2,televisions,null,null,null,null,null,null,1,50,60,40,60,50,60,Screen size,Average lifespan,NA,NA
NA,NA,NA,NA,NA,choice_trial_setup,html-keyboard-response,34,503081,0.0-4.0-0.15,340,1,2025-05-09T00:05:52Z,b60275e29fe2361ab97ac0ac217840d7,"Mozilla/5.0 (Macintosh; Intel Mac OS X 10_15_7) AppleWebKit/537.36 (KHTML, like Gecko) Chrome/134.0.0.0 Safari/537.36",Macintosh,Chrome,134.0.0.0,OS X,10_15_7,https://5puzkbbxv1.cognition.run/?sona_id=57454,"en-US,en;q=0.9",w332709780ebs01,18,"[""Black or African-American""]",No,Male,"Ghana is the only one
",No,1759400.2999999523,NA,null,<p></p>,null,choice,tcd,trinary,repulsion_B,2,microwave ovens,null,null,null,null,null,null,1,NA,NA,NA,NA,NA,NA,NA,NA,NA,NA
NA,NA,NA,NA,NA,choice_trial,survey-html-form,35,511494,0.0-4.0-1.15,340,1,2025-05-09T00:05:52Z,b60275e29fe2361ab97ac0ac217840d7,"Mozilla/5.0 (Macintosh; Intel Mac OS X 10_15_7) AppleWebKit/537.36 (KHTML, like Gecko) Chrome/134.0.0.0 Safari/537.36",Macintosh,Chrome,134.0.0.0,OS X,10_15_7,https://5puzkbbxv1.cognition.run/?sona_id=57454,"en-US,en;q=0.9",w332709780ebs01,18,"[""Black or African-American""]",No,Male,"Ghana is the only one
",No,1759400.2999999523,NA,8408,NA,"{""product_choice"":""A""}",choice,tcd,trinary,repulsion_B,2,microwave ovens,null,null,null,null,null,null,1,40,30,40,90,100,80,Warranty,Cooking power,NA,NA
NA,NA,NA,NA,NA,choice_trial_setup,html-keyboard-response,36,511797,0.0-4.0-0.16,340,1,2025-05-09T00:05:52Z,b60275e29fe2361ab97ac0ac217840d7,"Mozilla/5.0 (Macintosh; Intel Mac OS X 10_15_7) AppleWebKit/537.36 (KHTML, like Gecko) Chrome/134.0.0.0 Safari/537.36",Macintosh,Chrome,134.0.0.0,OS X,10_15_7,https://5puzkbbxv1.cognition.run/?sona_id=57454,"en-US,en;q=0.9",w332709780ebs01,18,"[""Black or African-American""]",No,Male,"Ghana is the only one
",No,1759400.2999999523,NA,null,<p></p>,null,choice,tdc,trinary,attraction,1,microwave ovens,null,null,null,null,null,null,1,NA,NA,NA,NA,NA,NA,NA,NA,NA,NA
NA,NA,NA,NA,NA,choice_trial,survey-html-form,37,593245,0.0-4.0-1.16,340,1,2025-05-09T00:05:52Z,b60275e29fe2361ab97ac0ac217840d7,"Mozilla/5.0 (Macintosh; Intel Mac OS X 10_15_7) AppleWebKit/537.36 (KHTML, like Gecko) Chrome/134.0.0.0 Safari/537.36",Macintosh,Chrome,134.0.0.0,OS X,10_15_7,https://5puzkbbxv1.cognition.run/?sona_id=57454,"en-US,en;q=0.9",w332709780ebs01,18,"[""Black or African-American""]",No,Male,"Ghana is the only one
",No,1759400.2999999523,NA,81443,NA,"{""product_choice"":""A""}",choice,tdc,trinary,attraction,1,microwave ovens,null,null,null,null,null,null,1,60,50,60,50,60,40,Warranty,Cooking power,NA,NA
NA,NA,NA,NA,NA,choice_trial_setup,html-keyboard-response,38,593551,0.0-4.0-0.17,340,1,2025-05-09T00:05:52Z,b60275e29fe2361ab97ac0ac217840d7,"Mozilla/5.0 (Macintosh; Intel Mac OS X 10_15_7) AppleWebKit/537.36 (KHTML, like Gecko) Chrome/134.0.0.0 Safari/537.36",Macintosh,Chrome,134.0.0.0,OS X,10_15_7,https://5puzkbbxv1.cognition.run/?sona_id=57454,"en-US,en;q=0.9",w332709780ebs01,18,"[""Black or African-American""]",No,Male,"Ghana is the only one
",No,1759400.2999999523,NA,null,<p></p>,null,choice,tdc,trinary,repulsion_A,1,televisions,null,null,null,null,null,null,2,NA,NA,NA,NA,NA,NA,NA,NA,NA,NA
NA,NA,NA,NA,NA,choice_trial,survey-html-form,39,604195,0.0-4.0-1.17,340,1,2025-05-09T00:05:52Z,b60275e29fe2361ab97ac0ac217840d7,"Mozilla/5.0 (Macintosh; Intel Mac OS X 10_15_7) AppleWebKit/537.36 (KHTML, like Gecko) Chrome/134.0.0.0 Safari/537.36",Macintosh,Chrome,134.0.0.0,OS X,10_15_7,https://5puzkbbxv1.cognition.run/?sona_id=57454,"en-US,en;q=0.9",w332709780ebs01,18,"[""Black or African-American""]",No,Male,"Ghana is the only one
",No,1759400.2999999523,NA,10639,NA,"{""product_choice"":""C""}",choice,tdc,trinary,repulsion_A,1,televisions,null,null,null,null,null,null,2,100,90,100,30,40,20,Screen size,Average lifespan,NA,NA
NA,NA,NA,NA,NA,choice_trial_setup,html-keyboard-response,40,604498,0.0-4.0-0.18,340,1,2025-05-09T00:05:52Z,b60275e29fe2361ab97ac0ac217840d7,"Mozilla/5.0 (Macintosh; Intel Mac OS X 10_15_7) AppleWebKit/537.36 (KHTML, like Gecko) Chrome/134.0.0.0 Safari/537.36",Macintosh,Chrome,134.0.0.0,OS X,10_15_7,https://5puzkbbxv1.cognition.run/?sona_id=57454,"en-US,en;q=0.9",w332709780ebs01,18,"[""Black or African-American""]",No,Male,"Ghana is the only one
",No,1759400.2999999523,NA,null,<p></p>,null,choice,dct,trinary,repulsion_B,1,televisions,null,null,null,null,null,null,2,NA,NA,NA,NA,NA,NA,NA,NA,NA,NA
NA,NA,NA,NA,NA,choice_trial,survey-html-form,41,608412,0.0-4.0-1.18,340,1,2025-05-09T00:05:52Z,b60275e29fe2361ab97ac0ac217840d7,"Mozilla/5.0 (Macintosh; Intel Mac OS X 10_15_7) AppleWebKit/537.36 (KHTML, like Gecko) Chrome/134.0.0.0 Safari/537.36",Macintosh,Chrome,134.0.0.0,OS X,10_15_7,https://5puzkbbxv1.cognition.run/?sona_id=57454,"en-US,en;q=0.9",w332709780ebs01,18,"[""Black or African-American""]",No,Male,"Ghana is the only one
",No,1759400.2999999523,NA,3910,NA,"{""product_choice"":""C""}",choice,dct,trinary,repulsion_B,1,televisions,null,null,null,null,null,null,2,90,100,80,40,30,40,Screen size,Average lifespan,NA,NA
NA,NA,NA,NA,NA,choice_trial_setup,html-keyboard-response,42,608715,0.0-4.0-0.19,340,1,2025-05-09T00:05:52Z,b60275e29fe2361ab97ac0ac217840d7,"Mozilla/5.0 (Macintosh; Intel Mac OS X 10_15_7) AppleWebKit/537.36 (KHTML, like Gecko) Chrome/134.0.0.0 Safari/537.36",Macintosh,Chrome,134.0.0.0,OS X,10_15_7,https://5puzkbbxv1.cognition.run/?sona_id=57454,"en-US,en;q=0.9",w332709780ebs01,18,"[""Black or African-American""]",No,Male,"Ghana is the only one
",No,1759400.2999999523,NA,null,<p></p>,null,choice,bww,trinary,catch,null,laptops,95,75,20,25,10,20,1,NA,NA,NA,NA,NA,NA,NA,NA,NA,NA
NA,NA,NA,NA,NA,choice_trial,survey-html-form,43,617445,0.0-4.0-1.19,340,1,2025-05-09T00:05:52Z,b60275e29fe2361ab97ac0ac217840d7,"Mozilla/5.0 (Macintosh; Intel Mac OS X 10_15_7) AppleWebKit/537.36 (KHTML, like Gecko) Chrome/134.0.0.0 Safari/537.36",Macintosh,Chrome,134.0.0.0,OS X,10_15_7,https://5puzkbbxv1.cognition.run/?sona_id=57454,"en-US,en;q=0.9",w332709780ebs01,18,"[""Black or African-American""]",No,Male,"Ghana is the only one
",No,1759400.2999999523,NA,8724,NA,"{""product_choice"":""A""}",choice,bww,trinary,catch,null,laptops,95,75,20,25,10,20,1,null,null,null,null,null,null,Processing speed,Memory (RAM),NA,NA
NA,NA,NA,NA,NA,choice_trial_setup,html-keyboard-response,44,617748,0.0-4.0-0.20,340,1,2025-05-09T00:05:52Z,b60275e29fe2361ab97ac0ac217840d7,"Mozilla/5.0 (Macintosh; Intel Mac OS X 10_15_7) AppleWebKit/537.36 (KHTML, like Gecko) Chrome/134.0.0.0 Safari/537.36",Macintosh,Chrome,134.0.0.0,OS X,10_15_7,https://5puzkbbxv1.cognition.run/?sona_id=57454,"en-US,en;q=0.9",w332709780ebs01,18,"[""Black or African-American""]",No,Male,"Ghana is the only one
",No,1759400.2999999523,NA,null,<p></p>,null,choice,wbw,trinary,catch,null,washing machines,65,75,40,30,20,40,1,NA,NA,NA,NA,NA,NA,NA,NA,NA,NA
NA,NA,NA,NA,NA,choice_trial,survey-html-form,45,624329,0.0-4.0-1.20,340,1,2025-05-09T00:05:52Z,b60275e29fe2361ab97ac0ac217840d7,"Mozilla/5.0 (Macintosh; Intel Mac OS X 10_15_7) AppleWebKit/537.36 (KHTML, like Gecko) Chrome/134.0.0.0 Safari/537.36",Macintosh,Chrome,134.0.0.0,OS X,10_15_7,https://5puzkbbxv1.cognition.run/?sona_id=57454,"en-US,en;q=0.9",w332709780ebs01,18,"[""Black or African-American""]",No,Male,"Ghana is the only one
",No,1759400.2999999523,NA,6576,NA,"{""product_choice"":""B""}",choice,wbw,trinary,catch,null,washing machines,65,75,40,30,20,40,1,null,null,null,null,null,null,Average lifespan,Energy savings,NA,NA
NA,NA,NA,NA,NA,choice_trial_setup,html-keyboard-response,46,624632,0.0-4.0-0.21,340,1,2025-05-09T00:05:52Z,b60275e29fe2361ab97ac0ac217840d7,"Mozilla/5.0 (Macintosh; Intel Mac OS X 10_15_7) AppleWebKit/537.36 (KHTML, like Gecko) Chrome/134.0.0.0 Safari/537.36",Macintosh,Chrome,134.0.0.0,OS X,10_15_7,https://5puzkbbxv1.cognition.run/?sona_id=57454,"en-US,en;q=0.9",w332709780ebs01,18,"[""Black or African-American""]",No,Male,"Ghana is the only one
",No,1759400.2999999523,NA,null,<p></p>,null,choice,ct,binary,attraction,NA,microwave ovens,null,null,null,null,null,null,2,NA,NA,NA,NA,NA,NA,NA,NA,NA,NA
NA,NA,NA,NA,NA,choice_trial,survey-html-form,47,635029,0.0-4.0-1.21,340,1,2025-05-09T00:05:52Z,b60275e29fe2361ab97ac0ac217840d7,"Mozilla/5.0 (Macintosh; Intel Mac OS X 10_15_7) AppleWebKit/537.36 (KHTML, like Gecko) Chrome/134.0.0.0 Safari/537.36",Macintosh,Chrome,134.0.0.0,OS X,10_15_7,https://5puzkbbxv1.cognition.run/?sona_id=57454,"en-US,en;q=0.9",w332709780ebs01,18,"[""Black or African-American""]",No,Male,"Ghana is the only one
",No,1759400.2999999523,NA,10392,NA,"{""product_choice"":""A""}",choice,ct,binary,attraction,NA,microwave ovens,null,null,null,null,null,null,2,60,50,null,50,60,null,Warranty,Cooking power,NA,NA
NA,NA,NA,NA,NA,choice_trial_setup,html-keyboard-response,48,635334,0.0-4.0-0.22,340,1,2025-05-09T00:05:52Z,b60275e29fe2361ab97ac0ac217840d7,"Mozilla/5.0 (Macintosh; Intel Mac OS X 10_15_7) AppleWebKit/537.36 (KHTML, like Gecko) Chrome/134.0.0.0 Safari/537.36",Macintosh,Chrome,134.0.0.0,OS X,10_15_7,https://5puzkbbxv1.cognition.run/?sona_id=57454,"en-US,en;q=0.9",w332709780ebs01,18,"[""Black or African-American""]",No,Male,"Ghana is the only one
",No,1759400.2999999523,NA,null,<p></p>,null,choice,dtc,trinary,attraction,1,washing machines,null,null,null,null,null,null,1,NA,NA,NA,NA,NA,NA,NA,NA,NA,NA
NA,NA,NA,NA,NA,choice_trial,survey-html-form,49,681563,0.0-4.0-1.22,340,1,2025-05-09T00:05:52Z,b60275e29fe2361ab97ac0ac217840d7,"Mozilla/5.0 (Macintosh; Intel Mac OS X 10_15_7) AppleWebKit/537.36 (KHTML, like Gecko) Chrome/134.0.0.0 Safari/537.36",Macintosh,Chrome,134.0.0.0,OS X,10_15_7,https://5puzkbbxv1.cognition.run/?sona_id=57454,"en-US,en;q=0.9",w332709780ebs01,18,"[""Black or African-American""]",No,Male,"Ghana is the only one
",No,1759400.2999999523,NA,46223,NA,"{""product_choice"":""C""}",choice,dtc,trinary,attraction,1,washing machines,null,null,null,null,null,null,1,60,50,60,50,60,40,Average lifespan,Energy savings,NA,NA
NA,NA,NA,NA,NA,choice_trial_setup,html-keyboard-response,50,681868,0.0-4.0-0.23,340,1,2025-05-09T00:05:52Z,b60275e29fe2361ab97ac0ac217840d7,"Mozilla/5.0 (Macintosh; Intel Mac OS X 10_15_7) AppleWebKit/537.36 (KHTML, like Gecko) Chrome/134.0.0.0 Safari/537.36",Macintosh,Chrome,134.0.0.0,OS X,10_15_7,https://5puzkbbxv1.cognition.run/?sona_id=57454,"en-US,en;q=0.9",w332709780ebs01,18,"[""Black or African-American""]",No,Male,"Ghana is the only one
",No,1759400.2999999523,NA,null,<p></p>,null,choice,wbw,trinary,catch,null,televisions,95,65,40,5,10,15,2,NA,NA,NA,NA,NA,NA,NA,NA,NA,NA
NA,NA,NA,NA,NA,choice_trial,survey-html-form,51,697596,0.0-4.0-1.23,340,1,2025-05-09T00:05:52Z,b60275e29fe2361ab97ac0ac217840d7,"Mozilla/5.0 (Macintosh; Intel Mac OS X 10_15_7) AppleWebKit/537.36 (KHTML, like Gecko) Chrome/134.0.0.0 Safari/537.36",Macintosh,Chrome,134.0.0.0,OS X,10_15_7,https://5puzkbbxv1.cognition.run/?sona_id=57454,"en-US,en;q=0.9",w332709780ebs01,18,"[""Black or African-American""]",No,Male,"Ghana is the only one
",No,1759400.2999999523,NA,15724,NA,"{""product_choice"":""B""}",choice,wbw,trinary,catch,null,televisions,95,65,40,5,10,15,2,null,null,null,null,null,null,Screen size,Average lifespan,NA,NA
NA,NA,NA,NA,NA,choice_trial_setup,html-keyboard-response,52,697899,0.0-4.0-0.24,340,1,2025-05-09T00:05:52Z,b60275e29fe2361ab97ac0ac217840d7,"Mozilla/5.0 (Macintosh; Intel Mac OS X 10_15_7) AppleWebKit/537.36 (KHTML, like Gecko) Chrome/134.0.0.0 Safari/537.36",Macintosh,Chrome,134.0.0.0,OS X,10_15_7,https://5puzkbbxv1.cognition.run/?sona_id=57454,"en-US,en;q=0.9",w332709780ebs01,18,"[""Black or African-American""]",No,Male,"Ghana is the only one
",No,1759400.2999999523,NA,null,<p></p>,null,choice,dct,trinary,repulsion_B,1,microwave ovens,null,null,null,null,null,null,2,NA,NA,NA,NA,NA,NA,NA,NA,NA,NA
NA,NA,NA,NA,NA,choice_trial,survey-html-form,53,774046,0.0-4.0-1.24,340,1,2025-05-09T00:05:52Z,b60275e29fe2361ab97ac0ac217840d7,"Mozilla/5.0 (Macintosh; Intel Mac OS X 10_15_7) AppleWebKit/537.36 (KHTML, like Gecko) Chrome/134.0.0.0 Safari/537.36",Macintosh,Chrome,134.0.0.0,OS X,10_15_7,https://5puzkbbxv1.cognition.run/?sona_id=57454,"en-US,en;q=0.9",w332709780ebs01,18,"[""Black or African-American""]",No,Male,"Ghana is the only one
",No,1759400.2999999523,NA,76142,NA,"{""product_choice"":""C""}",choice,dct,trinary,repulsion_B,1,microwave ovens,null,null,null,null,null,null,2,90,100,80,40,30,40,Warranty,Cooking power,NA,NA
NA,NA,NA,NA,NA,choice_trial_setup,html-keyboard-response,54,774349,0.0-4.0-0.25,340,1,2025-05-09T00:05:52Z,b60275e29fe2361ab97ac0ac217840d7,"Mozilla/5.0 (Macintosh; Intel Mac OS X 10_15_7) AppleWebKit/537.36 (KHTML, like Gecko) Chrome/134.0.0.0 Safari/537.36",Macintosh,Chrome,134.0.0.0,OS X,10_15_7,https://5puzkbbxv1.cognition.run/?sona_id=57454,"en-US,en;q=0.9",w332709780ebs01,18,"[""Black or African-American""]",No,Male,"Ghana is the only one
",No,1759400.2999999523,NA,null,<p></p>,null,choice,tdc,trinary,repulsion_B,1,laptops,null,null,null,null,null,null,1,NA,NA,NA,NA,NA,NA,NA,NA,NA,NA
NA,NA,NA,NA,NA,choice_trial,survey-html-form,55,917898,0.0-4.0-1.25,340,1,2025-05-09T00:05:52Z,b60275e29fe2361ab97ac0ac217840d7,"Mozilla/5.0 (Macintosh; Intel Mac OS X 10_15_7) AppleWebKit/537.36 (KHTML, like Gecko) Chrome/134.0.0.0 Safari/537.36",Macintosh,Chrome,134.0.0.0,OS X,10_15_7,https://5puzkbbxv1.cognition.run/?sona_id=57454,"en-US,en;q=0.9",w332709780ebs01,18,"[""Black or African-American""]",No,Male,"Ghana is the only one
",No,1759400.2999999523,NA,143544,NA,"{""product_choice"":""A""}",choice,tdc,trinary,repulsion_B,1,laptops,null,null,null,null,null,null,1,90,100,80,40,30,40,Processing speed,Memory (RAM),NA,NA
NA,NA,NA,NA,NA,choice_trial_setup,html-keyboard-response,56,918203,0.0-4.0-0.26,340,1,2025-05-09T00:05:52Z,b60275e29fe2361ab97ac0ac217840d7,"Mozilla/5.0 (Macintosh; Intel Mac OS X 10_15_7) AppleWebKit/537.36 (KHTML, like Gecko) Chrome/134.0.0.0 Safari/537.36",Macintosh,Chrome,134.0.0.0,OS X,10_15_7,https://5puzkbbxv1.cognition.run/?sona_id=57454,"en-US,en;q=0.9",w332709780ebs01,18,"[""Black or African-American""]",No,Male,"Ghana is the only one
",No,1759400.2999999523,NA,null,<p></p>,null,choice,wb,binary,catch,null,televisions,60,85,45,50,null,null,1,NA,NA,NA,NA,NA,NA,NA,NA,NA,NA
NA,NA,NA,NA,NA,choice_trial,survey-html-form,57,929531,0.0-4.0-1.26,340,1,2025-05-09T00:05:52Z,b60275e29fe2361ab97ac0ac217840d7,"Mozilla/5.0 (Macintosh; Intel Mac OS X 10_15_7) AppleWebKit/537.36 (KHTML, like Gecko) Chrome/134.0.0.0 Safari/537.36",Macintosh,Chrome,134.0.0.0,OS X,10_15_7,https://5puzkbbxv1.cognition.run/?sona_id=57454,"en-US,en;q=0.9",w332709780ebs01,18,"[""Black or African-American""]",No,Male,"Ghana is the only one
",No,1759400.2999999523,NA,11321,NA,"{""product_choice"":""B""}",choice,wb,binary,catch,null,televisions,60,85,45,50,null,null,1,null,null,null,null,null,null,Screen size,Average lifespan,NA,NA
NA,NA,NA,NA,NA,choice_trial_setup,html-keyboard-response,58,929835,0.0-4.0-0.27,340,1,2025-05-09T00:05:52Z,b60275e29fe2361ab97ac0ac217840d7,"Mozilla/5.0 (Macintosh; Intel Mac OS X 10_15_7) AppleWebKit/537.36 (KHTML, like Gecko) Chrome/134.0.0.0 Safari/537.36",Macintosh,Chrome,134.0.0.0,OS X,10_15_7,https://5puzkbbxv1.cognition.run/?sona_id=57454,"en-US,en;q=0.9",w332709780ebs01,18,"[""Black or African-American""]",No,Male,"Ghana is the only one
",No,1759400.2999999523,NA,null,<p></p>,null,choice,wb,binary,catch,null,washing machines,60,55,45,20,null,null,2,NA,NA,NA,NA,NA,NA,NA,NA,NA,NA
NA,NA,NA,NA,NA,choice_trial,survey-html-form,59,933497,0.0-4.0-1.27,340,1,2025-05-09T00:05:52Z,b60275e29fe2361ab97ac0ac217840d7,"Mozilla/5.0 (Macintosh; Intel Mac OS X 10_15_7) AppleWebKit/537.36 (KHTML, like Gecko) Chrome/134.0.0.0 Safari/537.36",Macintosh,Chrome,134.0.0.0,OS X,10_15_7,https://5puzkbbxv1.cognition.run/?sona_id=57454,"en-US,en;q=0.9",w332709780ebs01,18,"[""Black or African-American""]",No,Male,"Ghana is the only one
",No,1759400.2999999523,NA,3659,NA,"{""product_choice"":""B""}",choice,wb,binary,catch,null,washing machines,60,55,45,20,null,null,2,null,null,null,null,null,null,Average lifespan,Energy savings,NA,NA
NA,NA,NA,NA,NA,choice_trial_setup,html-keyboard-response,60,933800,0.0-4.0-0.28,340,1,2025-05-09T00:05:52Z,b60275e29fe2361ab97ac0ac217840d7,"Mozilla/5.0 (Macintosh; Intel Mac OS X 10_15_7) AppleWebKit/537.36 (KHTML, like Gecko) Chrome/134.0.0.0 Safari/537.36",Macintosh,Chrome,134.0.0.0,OS X,10_15_7,https://5puzkbbxv1.cognition.run/?sona_id=57454,"en-US,en;q=0.9",w332709780ebs01,18,"[""Black or African-American""]",No,Male,"Ghana is the only one
",No,1759400.2999999523,NA,null,<p></p>,null,choice,tc,binary,repulsion,2,microwave ovens,null,null,null,null,null,null,2,NA,NA,NA,NA,NA,NA,NA,NA,NA,NA
NA,NA,NA,NA,NA,choice_trial,survey-html-form,61,937547,0.0-4.0-1.28,340,1,2025-05-09T00:05:52Z,b60275e29fe2361ab97ac0ac217840d7,"Mozilla/5.0 (Macintosh; Intel Mac OS X 10_15_7) AppleWebKit/537.36 (KHTML, like Gecko) Chrome/134.0.0.0 Safari/537.36",Macintosh,Chrome,134.0.0.0,OS X,10_15_7,https://5puzkbbxv1.cognition.run/?sona_id=57454,"en-US,en;q=0.9",w332709780ebs01,18,"[""Black or African-American""]",No,Male,"Ghana is the only one
",No,1759400.2999999523,NA,3742,NA,"{""product_choice"":""B""}",choice,tc,binary,repulsion,2,microwave ovens,null,null,null,null,null,null,2,30,40,null,100,90,null,Warranty,Cooking power,NA,NA
NA,NA,NA,NA,NA,choice_trial_setup,html-keyboard-response,62,937852,0.0-4.0-0.29,340,1,2025-05-09T00:05:52Z,b60275e29fe2361ab97ac0ac217840d7,"Mozilla/5.0 (Macintosh; Intel Mac OS X 10_15_7) AppleWebKit/537.36 (KHTML, like Gecko) Chrome/134.0.0.0 Safari/537.36",Macintosh,Chrome,134.0.0.0,OS X,10_15_7,https://5puzkbbxv1.cognition.run/?sona_id=57454,"en-US,en;q=0.9",w332709780ebs01,18,"[""Black or African-American""]",No,Male,"Ghana is the only one
",No,1759400.2999999523,NA,null,<p></p>,null,choice,ctd,trinary,attraction,2,laptops,null,null,null,null,null,null,1,NA,NA,NA,NA,NA,NA,NA,NA,NA,NA
NA,NA,NA,NA,NA,choice_trial,survey-html-form,63,986748,0.0-4.0-1.29,340,1,2025-05-09T00:05:52Z,b60275e29fe2361ab97ac0ac217840d7,"Mozilla/5.0 (Macintosh; Intel Mac OS X 10_15_7) AppleWebKit/537.36 (KHTML, like Gecko) Chrome/134.0.0.0 Safari/537.36",Macintosh,Chrome,134.0.0.0,OS X,10_15_7,https://5puzkbbxv1.cognition.run/?sona_id=57454,"en-US,en;q=0.9",w332709780ebs01,18,"[""Black or African-American""]",No,Male,"Ghana is the only one
",No,1759400.2999999523,NA,48890,NA,"{""product_choice"":""B""}",choice,ctd,trinary,attraction,2,laptops,null,null,null,null,null,null,1,50,60,40,60,50,60,Processing speed,Memory (RAM),NA,NA
NA,NA,NA,NA,NA,choice_trial_setup,html-keyboard-response,64,987051,0.0-4.0-0.30,340,1,2025-05-09T00:05:52Z,b60275e29fe2361ab97ac0ac217840d7,"Mozilla/5.0 (Macintosh; Intel Mac OS X 10_15_7) AppleWebKit/537.36 (KHTML, like Gecko) Chrome/134.0.0.0 Safari/537.36",Macintosh,Chrome,134.0.0.0,OS X,10_15_7,https://5puzkbbxv1.cognition.run/?sona_id=57454,"en-US,en;q=0.9",w332709780ebs01,18,"[""Black or African-American""]",No,Male,"Ghana is the only one
",No,1759400.2999999523,NA,null,<p></p>,null,choice,tc,binary,repulsion,1,televisions,null,null,null,null,null,null,1,NA,NA,NA,NA,NA,NA,NA,NA,NA,NA
NA,NA,NA,NA,NA,choice_trial,survey-html-form,65,991530,0.0-4.0-1.30,340,1,2025-05-09T00:05:52Z,b60275e29fe2361ab97ac0ac217840d7,"Mozilla/5.0 (Macintosh; Intel Mac OS X 10_15_7) AppleWebKit/537.36 (KHTML, like Gecko) Chrome/134.0.0.0 Safari/537.36",Macintosh,Chrome,134.0.0.0,OS X,10_15_7,https://5puzkbbxv1.cognition.run/?sona_id=57454,"en-US,en;q=0.9",w332709780ebs01,18,"[""Black or African-American""]",No,Male,"Ghana is the only one
",No,1759400.2999999523,NA,4474,NA,"{""product_choice"":""B""}",choice,tc,binary,repulsion,1,televisions,null,null,null,null,null,null,1,100,90,null,30,40,null,Screen size,Average lifespan,NA,NA
NA,NA,NA,NA,NA,choice_trial_setup,html-keyboard-response,66,991834,0.0-4.0-0.31,340,1,2025-05-09T00:05:52Z,b60275e29fe2361ab97ac0ac217840d7,"Mozilla/5.0 (Macintosh; Intel Mac OS X 10_15_7) AppleWebKit/537.36 (KHTML, like Gecko) Chrome/134.0.0.0 Safari/537.36",Macintosh,Chrome,134.0.0.0,OS X,10_15_7,https://5puzkbbxv1.cognition.run/?sona_id=57454,"en-US,en;q=0.9",w332709780ebs01,18,"[""Black or African-American""]",No,Male,"Ghana is the only one
",No,1759400.2999999523,NA,null,<p></p>,null,choice,ct,binary,repulsion,1,washing machines,null,null,null,null,null,null,1,NA,NA,NA,NA,NA,NA,NA,NA,NA,NA
NA,NA,NA,NA,NA,choice_trial,survey-html-form,67,994481,0.0-4.0-1.31,340,1,2025-05-09T00:05:52Z,b60275e29fe2361ab97ac0ac217840d7,"Mozilla/5.0 (Macintosh; Intel Mac OS X 10_15_7) AppleWebKit/537.36 (KHTML, like Gecko) Chrome/134.0.0.0 Safari/537.36",Macintosh,Chrome,134.0.0.0,OS X,10_15_7,https://5puzkbbxv1.cognition.run/?sona_id=57454,"en-US,en;q=0.9",w332709780ebs01,18,"[""Black or African-American""]",No,Male,"Ghana is the only one
",No,1759400.2999999523,NA,2642,NA,"{""product_choice"":""A""}",choice,ct,binary,repulsion,1,washing machines,null,null,null,null,null,null,1,100,90,null,30,40,null,Average lifespan,Energy savings,NA,NA
NA,NA,NA,NA,NA,choice_trial_setup,html-keyboard-response,68,994786,0.0-4.0-0.32,340,1,2025-05-09T00:05:52Z,b60275e29fe2361ab97ac0ac217840d7,"Mozilla/5.0 (Macintosh; Intel Mac OS X 10_15_7) AppleWebKit/537.36 (KHTML, like Gecko) Chrome/134.0.0.0 Safari/537.36",Macintosh,Chrome,134.0.0.0,OS X,10_15_7,https://5puzkbbxv1.cognition.run/?sona_id=57454,"en-US,en;q=0.9",w332709780ebs01,18,"[""Black or African-American""]",No,Male,"Ghana is the only one
",No,1759400.2999999523,NA,null,<p></p>,null,choice,ct,binary,attraction,NA,televisions,null,null,null,null,null,null,2,NA,NA,NA,NA,NA,NA,NA,NA,NA,NA
NA,NA,NA,NA,NA,choice_trial,survey-html-form,69,999998,0.0-4.0-1.32,340,1,2025-05-09T00:05:52Z,b60275e29fe2361ab97ac0ac217840d7,"Mozilla/5.0 (Macintosh; Intel Mac OS X 10_15_7) AppleWebKit/537.36 (KHTML, like Gecko) Chrome/134.0.0.0 Safari/537.36",Macintosh,Chrome,134.0.0.0,OS X,10_15_7,https://5puzkbbxv1.cognition.run/?sona_id=57454,"en-US,en;q=0.9",w332709780ebs01,18,"[""Black or African-American""]",No,Male,"Ghana is the only one
",No,1759400.2999999523,NA,5206,NA,"{""product_choice"":""A""}",choice,ct,binary,attraction,NA,televisions,null,null,null,null,null,null,2,60,50,null,50,60,null,Screen size,Average lifespan,NA,NA
NA,NA,NA,NA,NA,choice_trial_setup,html-keyboard-response,70,1000301,0.0-4.0-0.33,340,1,2025-05-09T00:05:52Z,b60275e29fe2361ab97ac0ac217840d7,"Mozilla/5.0 (Macintosh; Intel Mac OS X 10_15_7) AppleWebKit/537.36 (KHTML, like Gecko) Chrome/134.0.0.0 Safari/537.36",Macintosh,Chrome,134.0.0.0,OS X,10_15_7,https://5puzkbbxv1.cognition.run/?sona_id=57454,"en-US,en;q=0.9",w332709780ebs01,18,"[""Black or African-American""]",No,Male,"Ghana is the only one
",No,1759400.2999999523,NA,null,<p></p>,null,choice,tcd,trinary,repulsion_A,2,washing machines,null,null,null,null,null,null,1,NA,NA,NA,NA,NA,NA,NA,NA,NA,NA
NA,NA,NA,NA,NA,choice_trial,survey-html-form,71,1003364,0.0-4.0-1.33,340,1,2025-05-09T00:05:52Z,b60275e29fe2361ab97ac0ac217840d7,"Mozilla/5.0 (Macintosh; Intel Mac OS X 10_15_7) AppleWebKit/537.36 (KHTML, like Gecko) Chrome/134.0.0.0 Safari/537.36",Macintosh,Chrome,134.0.0.0,OS X,10_15_7,https://5puzkbbxv1.cognition.run/?sona_id=57454,"en-US,en;q=0.9",w332709780ebs01,18,"[""Black or African-American""]",No,Male,"Ghana is the only one
",No,1759400.2999999523,NA,3060,NA,"{""product_choice"":""B""}",choice,tcd,trinary,repulsion_A,2,washing machines,null,null,null,null,null,null,1,30,40,20,100,90,100,Average lifespan,Energy savings,NA,NA
NA,NA,NA,NA,NA,choice_trial_setup,html-keyboard-response,72,1003669,0.0-4.0-0.34,340,1,2025-05-09T00:05:52Z,b60275e29fe2361ab97ac0ac217840d7,"Mozilla/5.0 (Macintosh; Intel Mac OS X 10_15_7) AppleWebKit/537.36 (KHTML, like Gecko) Chrome/134.0.0.0 Safari/537.36",Macintosh,Chrome,134.0.0.0,OS X,10_15_7,https://5puzkbbxv1.cognition.run/?sona_id=57454,"en-US,en;q=0.9",w332709780ebs01,18,"[""Black or African-American""]",No,Male,"Ghana is the only one
",No,1759400.2999999523,NA,null,<p></p>,null,choice,dtc,trinary,attraction,2,washing machines,null,null,null,null,null,null,1,NA,NA,NA,NA,NA,NA,NA,NA,NA,NA
NA,NA,NA,NA,NA,choice_trial,survey-html-form,73,1020715,0.0-4.0-1.34,340,1,2025-05-09T00:05:52Z,b60275e29fe2361ab97ac0ac217840d7,"Mozilla/5.0 (Macintosh; Intel Mac OS X 10_15_7) AppleWebKit/537.36 (KHTML, like Gecko) Chrome/134.0.0.0 Safari/537.36",Macintosh,Chrome,134.0.0.0,OS X,10_15_7,https://5puzkbbxv1.cognition.run/?sona_id=57454,"en-US,en;q=0.9",w332709780ebs01,18,"[""Black or African-American""]",No,Male,"Ghana is the only one
",No,1759400.2999999523,NA,17039,NA,"{""product_choice"":""C""}",choice,dtc,trinary,attraction,2,washing machines,null,null,null,null,null,null,1,50,60,40,60,50,60,Average lifespan,Energy savings,NA,NA
NA,NA,NA,NA,NA,choice_trial_setup,html-keyboard-response,74,1021020,0.0-4.0-0.35,340,1,2025-05-09T00:05:52Z,b60275e29fe2361ab97ac0ac217840d7,"Mozilla/5.0 (Macintosh; Intel Mac OS X 10_15_7) AppleWebKit/537.36 (KHTML, like Gecko) Chrome/134.0.0.0 Safari/537.36",Macintosh,Chrome,134.0.0.0,OS X,10_15_7,https://5puzkbbxv1.cognition.run/?sona_id=57454,"en-US,en;q=0.9",w332709780ebs01,18,"[""Black or African-American""]",No,Male,"Ghana is the only one
",No,1759400.2999999523,NA,null,<p></p>,null,choice,ct,binary,attraction,NA,washing machines,null,null,null,null,null,null,1,NA,NA,NA,NA,NA,NA,NA,NA,NA,NA
NA,NA,NA,NA,NA,choice_trial,survey-html-form,75,1030531,0.0-4.0-1.35,340,1,2025-05-09T00:05:52Z,b60275e29fe2361ab97ac0ac217840d7,"Mozilla/5.0 (Macintosh; Intel Mac OS X 10_15_7) AppleWebKit/537.36 (KHTML, like Gecko) Chrome/134.0.0.0 Safari/537.36",Macintosh,Chrome,134.0.0.0,OS X,10_15_7,https://5puzkbbxv1.cognition.run/?sona_id=57454,"en-US,en;q=0.9",w332709780ebs01,18,"[""Black or African-American""]",No,Male,"Ghana is the only one
",No,1759400.2999999523,NA,9505,NA,"{""product_choice"":""B""}",choice,ct,binary,attraction,NA,washing machines,null,null,null,null,null,null,1,60,50,null,50,60,null,Average lifespan,Energy savings,NA,NA
NA,NA,NA,NA,NA,choice_trial_setup,html-keyboard-response,76,1030836,0.0-4.0-0.36,340,1,2025-05-09T00:05:52Z,b60275e29fe2361ab97ac0ac217840d7,"Mozilla/5.0 (Macintosh; Intel Mac OS X 10_15_7) AppleWebKit/537.36 (KHTML, like Gecko) Chrome/134.0.0.0 Safari/537.36",Macintosh,Chrome,134.0.0.0,OS X,10_15_7,https://5puzkbbxv1.cognition.run/?sona_id=57454,"en-US,en;q=0.9",w332709780ebs01,18,"[""Black or African-American""]",No,Male,"Ghana is the only one
",No,1759400.2999999523,NA,null,<p></p>,null,choice,ct,binary,attraction,NA,laptops,null,null,null,null,null,null,1,NA,NA,NA,NA,NA,NA,NA,NA,NA,NA
NA,NA,NA,NA,NA,choice_trial,survey-html-form,77,1046148,0.0-4.0-1.36,340,1,2025-05-09T00:05:52Z,b60275e29fe2361ab97ac0ac217840d7,"Mozilla/5.0 (Macintosh; Intel Mac OS X 10_15_7) AppleWebKit/537.36 (KHTML, like Gecko) Chrome/134.0.0.0 Safari/537.36",Macintosh,Chrome,134.0.0.0,OS X,10_15_7,https://5puzkbbxv1.cognition.run/?sona_id=57454,"en-US,en;q=0.9",w332709780ebs01,18,"[""Black or African-American""]",No,Male,"Ghana is the only one
",No,1759400.2999999523,NA,15306,NA,"{""product_choice"":""A""}",choice,ct,binary,attraction,NA,laptops,null,null,null,null,null,null,1,60,50,null,50,60,null,Processing speed,Memory (RAM),NA,NA
NA,NA,NA,NA,NA,choice_trial_setup,html-keyboard-response,78,1046451,0.0-4.0-0.37,340,1,2025-05-09T00:05:52Z,b60275e29fe2361ab97ac0ac217840d7,"Mozilla/5.0 (Macintosh; Intel Mac OS X 10_15_7) AppleWebKit/537.36 (KHTML, like Gecko) Chrome/134.0.0.0 Safari/537.36",Macintosh,Chrome,134.0.0.0,OS X,10_15_7,https://5puzkbbxv1.cognition.run/?sona_id=57454,"en-US,en;q=0.9",w332709780ebs01,18,"[""Black or African-American""]",No,Male,"Ghana is the only one
",No,1759400.2999999523,NA,null,<p></p>,null,choice,ct,binary,repulsion,2,televisions,null,null,null,null,null,null,2,NA,NA,NA,NA,NA,NA,NA,NA,NA,NA
NA,NA,NA,NA,NA,choice_trial,survey-html-form,79,1050415,0.0-4.0-1.37,340,1,2025-05-09T00:05:52Z,b60275e29fe2361ab97ac0ac217840d7,"Mozilla/5.0 (Macintosh; Intel Mac OS X 10_15_7) AppleWebKit/537.36 (KHTML, like Gecko) Chrome/134.0.0.0 Safari/537.36",Macintosh,Chrome,134.0.0.0,OS X,10_15_7,https://5puzkbbxv1.cognition.run/?sona_id=57454,"en-US,en;q=0.9",w332709780ebs01,18,"[""Black or African-American""]",No,Male,"Ghana is the only one
",No,1759400.2999999523,NA,3956,NA,"{""product_choice"":""A""}",choice,ct,binary,repulsion,2,televisions,null,null,null,null,null,null,2,30,40,null,100,90,null,Screen size,Average lifespan,NA,NA
NA,NA,NA,NA,NA,choice_trial_setup,html-keyboard-response,80,1050719,0.0-4.0-0.38,340,1,2025-05-09T00:05:52Z,b60275e29fe2361ab97ac0ac217840d7,"Mozilla/5.0 (Macintosh; Intel Mac OS X 10_15_7) AppleWebKit/537.36 (KHTML, like Gecko) Chrome/134.0.0.0 Safari/537.36",Macintosh,Chrome,134.0.0.0,OS X,10_15_7,https://5puzkbbxv1.cognition.run/?sona_id=57454,"en-US,en;q=0.9",w332709780ebs01,18,"[""Black or African-American""]",No,Male,"Ghana is the only one
",No,1759400.2999999523,NA,null,<p></p>,null,choice,tc,binary,repulsion,2,laptops,null,null,null,null,null,null,1,NA,NA,NA,NA,NA,NA,NA,NA,NA,NA
NA,NA,NA,NA,NA,choice_trial,survey-html-form,81,1055614,0.0-4.0-1.38,340,1,2025-05-09T00:05:52Z,b60275e29fe2361ab97ac0ac217840d7,"Mozilla/5.0 (Macintosh; Intel Mac OS X 10_15_7) AppleWebKit/537.36 (KHTML, like Gecko) Chrome/134.0.0.0 Safari/537.36",Macintosh,Chrome,134.0.0.0,OS X,10_15_7,https://5puzkbbxv1.cognition.run/?sona_id=57454,"en-US,en;q=0.9",w332709780ebs01,18,"[""Black or African-American""]",No,Male,"Ghana is the only one
",No,1759400.2999999523,NA,4891,NA,"{""product_choice"":""B""}",choice,tc,binary,repulsion,2,laptops,null,null,null,null,null,null,1,30,40,null,100,90,null,Processing speed,Memory (RAM),NA,NA
NA,NA,NA,NA,NA,choice_trial_setup,html-keyboard-response,82,1055918,0.0-4.0-0.39,340,1,2025-05-09T00:05:52Z,b60275e29fe2361ab97ac0ac217840d7,"Mozilla/5.0 (Macintosh; Intel Mac OS X 10_15_7) AppleWebKit/537.36 (KHTML, like Gecko) Chrome/134.0.0.0 Safari/537.36",Macintosh,Chrome,134.0.0.0,OS X,10_15_7,https://5puzkbbxv1.cognition.run/?sona_id=57454,"en-US,en;q=0.9",w332709780ebs01,18,"[""Black or African-American""]",No,Male,"Ghana is the only one
",No,1759400.2999999523,NA,null,<p></p>,null,choice,cdt,trinary,attraction,2,microwave ovens,null,null,null,null,null,null,2,NA,NA,NA,NA,NA,NA,NA,NA,NA,NA
NA,NA,NA,NA,NA,choice_trial,survey-html-form,83,1094949,0.0-4.0-1.39,340,1,2025-05-09T00:05:52Z,b60275e29fe2361ab97ac0ac217840d7,"Mozilla/5.0 (Macintosh; Intel Mac OS X 10_15_7) AppleWebKit/537.36 (KHTML, like Gecko) Chrome/134.0.0.0 Safari/537.36",Macintosh,Chrome,134.0.0.0,OS X,10_15_7,https://5puzkbbxv1.cognition.run/?sona_id=57454,"en-US,en;q=0.9",w332709780ebs01,18,"[""Black or African-American""]",No,Male,"Ghana is the only one
",No,1759400.2999999523,NA,39023,NA,"{""product_choice"":""C""}",choice,cdt,trinary,attraction,2,microwave ovens,null,null,null,null,null,null,2,50,60,40,60,50,60,Warranty,Cooking power,NA,NA
NA,NA,NA,NA,NA,choice_trial_setup,html-keyboard-response,84,1095256,0.0-4.0-0.40,340,1,2025-05-09T00:05:52Z,b60275e29fe2361ab97ac0ac217840d7,"Mozilla/5.0 (Macintosh; Intel Mac OS X 10_15_7) AppleWebKit/537.36 (KHTML, like Gecko) Chrome/134.0.0.0 Safari/537.36",Macintosh,Chrome,134.0.0.0,OS X,10_15_7,https://5puzkbbxv1.cognition.run/?sona_id=57454,"en-US,en;q=0.9",w332709780ebs01,18,"[""Black or African-American""]",No,Male,"Ghana is the only one
",No,1759400.2999999523,NA,null,<p></p>,null,choice,tdc,trinary,repulsion_B,2,washing machines,null,null,null,null,null,null,1,NA,NA,NA,NA,NA,NA,NA,NA,NA,NA
NA,NA,NA,NA,NA,choice_trial,survey-html-form,85,1105114,0.0-4.0-1.40,340,1,2025-05-09T00:05:52Z,b60275e29fe2361ab97ac0ac217840d7,"Mozilla/5.0 (Macintosh; Intel Mac OS X 10_15_7) AppleWebKit/537.36 (KHTML, like Gecko) Chrome/134.0.0.0 Safari/537.36",Macintosh,Chrome,134.0.0.0,OS X,10_15_7,https://5puzkbbxv1.cognition.run/?sona_id=57454,"en-US,en;q=0.9",w332709780ebs01,18,"[""Black or African-American""]",No,Male,"Ghana is the only one
",No,1759400.2999999523,NA,9853,NA,"{""product_choice"":""A""}",choice,tdc,trinary,repulsion_B,2,washing machines,null,null,null,null,null,null,1,40,30,40,90,100,80,Average lifespan,Energy savings,NA,NA
NA,NA,NA,NA,NA,choice_trial_setup,html-keyboard-response,86,1105418,0.0-4.0-0.41,340,1,2025-05-09T00:05:52Z,b60275e29fe2361ab97ac0ac217840d7,"Mozilla/5.0 (Macintosh; Intel Mac OS X 10_15_7) AppleWebKit/537.36 (KHTML, like Gecko) Chrome/134.0.0.0 Safari/537.36",Macintosh,Chrome,134.0.0.0,OS X,10_15_7,https://5puzkbbxv1.cognition.run/?sona_id=57454,"en-US,en;q=0.9",w332709780ebs01,18,"[""Black or African-American""]",No,Male,"Ghana is the only one
",No,1759400.2999999523,NA,null,<p></p>,null,choice,dct,trinary,attraction,1,laptops,null,null,null,null,null,null,1,NA,NA,NA,NA,NA,NA,NA,NA,NA,NA
NA,NA,NA,NA,NA,choice_trial,survey-html-form,87,1172532,0.0-4.0-1.41,340,1,2025-05-09T00:05:52Z,b60275e29fe2361ab97ac0ac217840d7,"Mozilla/5.0 (Macintosh; Intel Mac OS X 10_15_7) AppleWebKit/537.36 (KHTML, like Gecko) Chrome/134.0.0.0 Safari/537.36",Macintosh,Chrome,134.0.0.0,OS X,10_15_7,https://5puzkbbxv1.cognition.run/?sona_id=57454,"en-US,en;q=0.9",w332709780ebs01,18,"[""Black or African-American""]",No,Male,"Ghana is the only one
",No,1759400.2999999523,NA,67112,NA,"{""product_choice"":""C""}",choice,dct,trinary,attraction,1,laptops,null,null,null,null,null,null,1,60,50,60,50,60,40,Processing speed,Memory (RAM),NA,NA
NA,NA,NA,NA,NA,choice_trial_setup,html-keyboard-response,88,1172838,0.0-4.0-0.42,340,1,2025-05-09T00:05:52Z,b60275e29fe2361ab97ac0ac217840d7,"Mozilla/5.0 (Macintosh; Intel Mac OS X 10_15_7) AppleWebKit/537.36 (KHTML, like Gecko) Chrome/134.0.0.0 Safari/537.36",Macintosh,Chrome,134.0.0.0,OS X,10_15_7,https://5puzkbbxv1.cognition.run/?sona_id=57454,"en-US,en;q=0.9",w332709780ebs01,18,"[""Black or African-American""]",No,Male,"Ghana is the only one
",No,1759400.2999999523,NA,null,<p></p>,null,choice,dct,trinary,repulsion_B,2,televisions,null,null,null,null,null,null,2,NA,NA,NA,NA,NA,NA,NA,NA,NA,NA
NA,NA,NA,NA,NA,choice_trial,survey-html-form,89,1176849,0.0-4.0-1.42,340,1,2025-05-09T00:05:52Z,b60275e29fe2361ab97ac0ac217840d7,"Mozilla/5.0 (Macintosh; Intel Mac OS X 10_15_7) AppleWebKit/537.36 (KHTML, like Gecko) Chrome/134.0.0.0 Safari/537.36",Macintosh,Chrome,134.0.0.0,OS X,10_15_7,https://5puzkbbxv1.cognition.run/?sona_id=57454,"en-US,en;q=0.9",w332709780ebs01,18,"[""Black or African-American""]",No,Male,"Ghana is the only one
",No,1759400.2999999523,NA,4004,NA,"{""product_choice"":""C""}",choice,dct,trinary,repulsion_B,2,televisions,null,null,null,null,null,null,2,40,30,40,90,100,80,Screen size,Average lifespan,NA,NA
NA,NA,NA,NA,NA,choice_trial_setup,html-keyboard-response,90,1177155,0.0-4.0-0.43,340,1,2025-05-09T00:05:52Z,b60275e29fe2361ab97ac0ac217840d7,"Mozilla/5.0 (Macintosh; Intel Mac OS X 10_15_7) AppleWebKit/537.36 (KHTML, like Gecko) Chrome/134.0.0.0 Safari/537.36",Macintosh,Chrome,134.0.0.0,OS X,10_15_7,https://5puzkbbxv1.cognition.run/?sona_id=57454,"en-US,en;q=0.9",w332709780ebs01,18,"[""Black or African-American""]",No,Male,"Ghana is the only one
",No,1759400.2999999523,NA,null,<p></p>,null,choice,dtc,trinary,repulsion_B,1,washing machines,null,null,null,null,null,null,2,NA,NA,NA,NA,NA,NA,NA,NA,NA,NA
NA,NA,NA,NA,NA,choice_trial,survey-html-form,91,1180466,0.0-4.0-1.43,340,1,2025-05-09T00:05:52Z,b60275e29fe2361ab97ac0ac217840d7,"Mozilla/5.0 (Macintosh; Intel Mac OS X 10_15_7) AppleWebKit/537.36 (KHTML, like Gecko) Chrome/134.0.0.0 Safari/537.36",Macintosh,Chrome,134.0.0.0,OS X,10_15_7,https://5puzkbbxv1.cognition.run/?sona_id=57454,"en-US,en;q=0.9",w332709780ebs01,18,"[""Black or African-American""]",No,Male,"Ghana is the only one
",No,1759400.2999999523,NA,3305,NA,"{""product_choice"":""B""}",choice,dtc,trinary,repulsion_B,1,washing machines,null,null,null,null,null,null,2,90,100,80,40,30,40,Average lifespan,Energy savings,NA,NA
NA,NA,NA,NA,NA,post_trials_message,html-button-response,92,1286866,0.0-5.0,340,1,2025-05-09T00:05:52Z,b60275e29fe2361ab97ac0ac217840d7,"Mozilla/5.0 (Macintosh; Intel Mac OS X 10_15_7) AppleWebKit/537.36 (KHTML, like Gecko) Chrome/134.0.0.0 Safari/537.36",Macintosh,Chrome,134.0.0.0,OS X,10_15_7,https://5puzkbbxv1.cognition.run/?sona_id=57454,"en-US,en;q=0.9",w332709780ebs01,18,"[""Black or African-American""]",No,Male,"Ghana is the only one
",No,1759400.2999999523,NA,106396,<p> <b>Thank you for your patience!</b></p><p>  The study will be done after completing a brief form. </p>,0,NA,NA,NA,NA,NA,NA,NA,NA,NA,NA,NA,NA,NA,NA,NA,NA,NA,NA,NA,NA,NA,NA,NA
NA,NA,NA,NA,NA,survey_message,survey-text,93,1307359,0.0-6.0,340,1,2025-05-09T00:05:52Z,b60275e29fe2361ab97ac0ac217840d7,"Mozilla/5.0 (Macintosh; Intel Mac OS X 10_15_7) AppleWebKit/537.36 (KHTML, like Gecko) Chrome/134.0.0.0 Safari/537.36",Macintosh,Chrome,134.0.0.0,OS X,10_15_7,https://5puzkbbxv1.cognition.run/?sona_id=57454,"en-US,en;q=0.9",w332709780ebs01,18,"[""Black or African-American""]",No,Male,"Ghana is the only one
",No,1759400.2999999523,NA,20481,NA,"{""Q0"":""bigger numbers the better""}",NA,NA,NA,NA,NA,NA,NA,NA,NA,NA,NA,NA,NA,NA,NA,NA,NA,NA,NA,NA,NA,bigger numbers the better,NA
NA,NA,NA,NA,NA,demo_age,survey-text,94,1310744,0.0-7.0,340,1,2025-05-09T00:05:52Z,b60275e29fe2361ab97ac0ac217840d7,"Mozilla/5.0 (Macintosh; Intel Mac OS X 10_15_7) AppleWebKit/537.36 (KHTML, like Gecko) Chrome/134.0.0.0 Safari/537.36",Macintosh,Chrome,134.0.0.0,OS X,10_15_7,https://5puzkbbxv1.cognition.run/?sona_id=57454,"en-US,en;q=0.9",w332709780ebs01,18,"[""Black or African-American""]",No,Male,"Ghana is the only one
",No,1759400.2999999523,NA,3379,NA,"{""Q0"":""18""}",NA,NA,NA,NA,NA,NA,NA,NA,NA,NA,NA,NA,NA,NA,NA,NA,NA,NA,NA,NA,NA,NA,NA
NA,NA,NA,NA,NA,demo_race,survey-multi-select,95,1313350,0.0-8.0,340,1,2025-05-09T00:05:52Z,b60275e29fe2361ab97ac0ac217840d7,"Mozilla/5.0 (Macintosh; Intel Mac OS X 10_15_7) AppleWebKit/537.36 (KHTML, like Gecko) Chrome/134.0.0.0 Safari/537.36",Macintosh,Chrome,134.0.0.0,OS X,10_15_7,https://5puzkbbxv1.cognition.run/?sona_id=57454,"en-US,en;q=0.9",w332709780ebs01,18,"[""Black or African-American""]",No,Male,"Ghana is the only one
",No,1759400.2999999523,NA,2598,NA,"{""Q0"":[""Black or African-American""]}",NA,NA,NA,NA,NA,NA,NA,NA,NA,NA,NA,NA,NA,NA,NA,NA,NA,NA,NA,NA,NA,NA,[0]
NA,NA,NA,NA,NA,demo_ethnicity_gender,survey-multi-choice,96,1319650,0.0-9.0,340,1,2025-05-09T00:05:52Z,b60275e29fe2361ab97ac0ac217840d7,"Mozilla/5.0 (Macintosh; Intel Mac OS X 10_15_7) AppleWebKit/537.36 (KHTML, like Gecko) Chrome/134.0.0.0 Safari/537.36",Macintosh,Chrome,134.0.0.0,OS X,10_15_7,https://5puzkbbxv1.cognition.run/?sona_id=57454,"en-US,en;q=0.9",w332709780ebs01,18,"[""Black or African-American""]",No,Male,"Ghana is the only one
",No,1759400.2999999523,NA,6295,NA,"{""Q0"":""No"",""Q1"":""Male""}",NA,NA,NA,NA,NA,NA,NA,NA,NA,NA,NA,NA,NA,NA,NA,NA,NA,NA,NA,NA,NA,NA,"[0,1]"
NA,NA,NA,NA,NA,demo_countries,survey-text,97,1541173,0.0-10.0,340,1,2025-05-09T00:05:52Z,b60275e29fe2361ab97ac0ac217840d7,"Mozilla/5.0 (Macintosh; Intel Mac OS X 10_15_7) AppleWebKit/537.36 (KHTML, like Gecko) Chrome/134.0.0.0 Safari/537.36",Macintosh,Chrome,134.0.0.0,OS X,10_15_7,https://5puzkbbxv1.cognition.run/?sona_id=57454,"en-US,en;q=0.9",w332709780ebs01,18,"[""Black or African-American""]",No,Male,"Ghana is the only one
",No,1759400.2999999523,NA,156254,NA,"{""Q0"":""Ghana is the only one\n""}",NA,NA,NA,NA,NA,NA,NA,NA,NA,NA,NA,NA,NA,NA,NA,NA,NA,NA,NA,NA,NA,NA,NA
NA,NA,NA,NA,NA,demo_prev_study,survey-multi-choice,98,1777996,0.0-11.0,340,1,2025-05-09T00:05:52Z,b60275e29fe2361ab97ac0ac217840d7,"Mozilla/5.0 (Macintosh; Intel Mac OS X 10_15_7) AppleWebKit/537.36 (KHTML, like Gecko) Chrome/134.0.0.0 Safari/537.36",Macintosh,Chrome,134.0.0.0,OS X,10_15_7,https://5puzkbbxv1.cognition.run/?sona_id=57454,"en-US,en;q=0.9",w332709780ebs01,18,"[""Black or African-American""]",No,Male,"Ghana is the only one
",No,1759400.2999999523,NA,154833,NA,"{""Q0"":""No""}",NA,NA,NA,NA,NA,NA,NA,NA,NA,NA,NA,NA,NA,NA,NA,NA,NA,NA,NA,NA,NA,NA,[0]
NA,NA,NA,NA,NA,post_survey_message,html-keyboard-response,99,1783713,0.0-12.0,340,1,2025-05-09T00:05:52Z,b60275e29fe2361ab97ac0ac217840d7,"Mozilla/5.0 (Macintosh; Intel Mac OS X 10_15_7) AppleWebKit/537.36 (KHTML, like Gecko) Chrome/134.0.0.0 Safari/537.36",Macintosh,Chrome,134.0.0.0,OS X,10_15_7,https://5puzkbbxv1.cognition.run/?sona_id=57454,"en-US,en;q=0.9",w332709780ebs01,18,"[""Black or African-American""]",No,Male,"Ghana is the only one
",No,1759400.2999999523,NA,5709,NA,j,NA,NA,NA,NA,NA,NA,NA,NA,NA,NA,NA,NA,NA,NA,NA,NA,NA,NA,NA,NA,NA,NA,NA
NA,NA,NA,NA,NA,debrief,image-keyboard-response,100,1906650,0.0-13.0,340,1,2025-05-09T00:05:52Z,b60275e29fe2361ab97ac0ac217840d7,"Mozilla/5.0 (Macintosh; Intel Mac OS X 10_15_7) AppleWebKit/537.36 (KHTML, like Gecko) Chrome/134.0.0.0 Safari/537.36",Macintosh,Chrome,134.0.0.0,OS X,10_15_7,https://5puzkbbxv1.cognition.run/?sona_id=57454,"en-US,en;q=0.9",w332709780ebs01,18,"[""Black or African-American""]",No,Male,"Ghana is the only one
",No,1759400.2999999523,NA,122932,Judg_choice_debrief.png,p,NA,NA,NA,NA,NA,NA,NA,NA,NA,NA,NA,NA,NA,NA,NA,NA,NA,NA,NA,NA,NA,NA,NA
