success,timeout,failed_images,failed_audio,failed_video,screen_id,trial_type,trial_index,time_elapsed,internal_node_id,run_id,condition,recorded_at,source_code_version,user_agent,device,browser,browser_version,platform,platform_version,referer,accept_language,ppt_id,age,race,ethnicity,gender,other_countries,prev_study,exp_duration,view_history,rt,stimulus,response,phase,order,set,effect,t_high,category,d1_best,d2_best,d1_worst1,d2_worst1,d1_worst2,d2_worst2,first_dim,d1_t,d1_c,d1_d,d2_t,d2_c,d2_d,d1_name,d2_name,strategy_response,question_order
TRUE,FALSE,[],[],[],img preload,preload,0,248,0.0-0.0,342,1,2025-05-09T01:04:42Z,b60275e29fe2361ab97ac0ac217840d7,"Mozilla/5.0 (Macintosh; Intel Mac OS X 10_15_7) AppleWebKit/605.1.15 (KHTML, like Gecko) Version/15.6.1 Safari/605.1.15",Macintosh,Safari,15.6.1,OS X,10_15_7,https://5puzkbbxv1.cognition.run/?sona_id=57294,en-us,5atln9vmtaweeko,19,"[""Black or African-American""]",No,Male,NA,No,1088642,NA,NA,NA,NA,NA,NA,NA,NA,NA,NA,NA,NA,NA,NA,NA,NA,NA,NA,NA,NA,NA,NA,NA,NA,NA,NA,NA
NA,NA,NA,NA,NA,computer_message,instructions,1,1250,0.0-1.0,342,1,2025-05-09T01:04:42Z,b60275e29fe2361ab97ac0ac217840d7,"Mozilla/5.0 (Macintosh; Intel Mac OS X 10_15_7) AppleWebKit/605.1.15 (KHTML, like Gecko) Version/15.6.1 Safari/605.1.15",Macintosh,Safari,15.6.1,OS X,10_15_7,https://5puzkbbxv1.cognition.run/?sona_id=57294,en-us,5atln9vmtaweeko,19,"[""Black or African-American""]",No,Male,NA,No,1088642,"[{""page_index"":0,""viewing_time"":999}]",1000,NA,NA,NA,NA,NA,NA,NA,NA,NA,NA,NA,NA,NA,NA,NA,NA,NA,NA,NA,NA,NA,NA,NA,NA,NA
TRUE,NA,NA,NA,NA,NA,fullscreen,2,3116,0.0-2.0,342,1,2025-05-09T01:04:42Z,b60275e29fe2361ab97ac0ac217840d7,"Mozilla/5.0 (Macintosh; Intel Mac OS X 10_15_7) AppleWebKit/605.1.15 (KHTML, like Gecko) Version/15.6.1 Safari/605.1.15",Macintosh,Safari,15.6.1,OS X,10_15_7,https://5puzkbbxv1.cognition.run/?sona_id=57294,en-us,5atln9vmtaweeko,19,"[""Black or African-American""]",No,Male,NA,No,1088642,NA,854,NA,NA,NA,NA,NA,NA,NA,NA,NA,NA,NA,NA,NA,NA,NA,NA,NA,NA,NA,NA,NA,NA,NA,NA,NA
NA,NA,NA,NA,NA,choice_instructions,instructions,3,944680,0.0-3.0,342,1,2025-05-09T01:04:42Z,b60275e29fe2361ab97ac0ac217840d7,"Mozilla/5.0 (Macintosh; Intel Mac OS X 10_15_7) AppleWebKit/605.1.15 (KHTML, like Gecko) Version/15.6.1 Safari/605.1.15",Macintosh,Safari,15.6.1,OS X,10_15_7,https://5puzkbbxv1.cognition.run/?sona_id=57294,en-us,5atln9vmtaweeko,19,"[""Black or African-American""]",No,Male,NA,No,1088642,"[{""page_index"":0,""viewing_time"":1131},{""page_index"":1,""viewing_time"":1047},{""page_index"":2,""viewing_time"":625},{""page_index"":3,""viewing_time"":830},{""page_index"":4,""viewing_time"":620},{""page_index"":5,""viewing_time"":756793},{""page_index"":6,""viewing_time"":2045}]",763092,NA,NA,NA,NA,NA,NA,NA,NA,NA,NA,NA,NA,NA,NA,NA,NA,NA,NA,NA,NA,NA,NA,NA,NA,NA
NA,NA,NA,NA,NA,choice_trial_setup,html-keyboard-response,4,944990,0.0-4.0-0.0,342,1,2025-05-09T01:04:42Z,b60275e29fe2361ab97ac0ac217840d7,"Mozilla/5.0 (Macintosh; Intel Mac OS X 10_15_7) AppleWebKit/605.1.15 (KHTML, like Gecko) Version/15.6.1 Safari/605.1.15",Macintosh,Safari,15.6.1,OS X,10_15_7,https://5puzkbbxv1.cognition.run/?sona_id=57294,en-us,5atln9vmtaweeko,19,"[""Black or African-American""]",No,Male,NA,No,1088642,NA,null,<p></p>,null,choice,dct,trinary,repulsion_A,1,microwave ovens,null,null,null,null,null,null,2,NA,NA,NA,NA,NA,NA,NA,NA,NA,NA
NA,NA,NA,NA,NA,choice_trial,survey-html-form,5,948191,0.0-4.0-1.0,342,1,2025-05-09T01:04:42Z,b60275e29fe2361ab97ac0ac217840d7,"Mozilla/5.0 (Macintosh; Intel Mac OS X 10_15_7) AppleWebKit/605.1.15 (KHTML, like Gecko) Version/15.6.1 Safari/605.1.15",Macintosh,Safari,15.6.1,OS X,10_15_7,https://5puzkbbxv1.cognition.run/?sona_id=57294,en-us,5atln9vmtaweeko,19,"[""Black or African-American""]",No,Male,NA,No,1088642,NA,3193,NA,"{""product_choice"":""B""}",choice,dct,trinary,repulsion_A,1,microwave ovens,null,null,null,null,null,null,2,100,90,100,30,40,20,Warranty,Cooking power,NA,NA
NA,NA,NA,NA,NA,choice_trial_setup,html-keyboard-response,6,948494,0.0-4.0-0.1,342,1,2025-05-09T01:04:42Z,b60275e29fe2361ab97ac0ac217840d7,"Mozilla/5.0 (Macintosh; Intel Mac OS X 10_15_7) AppleWebKit/605.1.15 (KHTML, like Gecko) Version/15.6.1 Safari/605.1.15",Macintosh,Safari,15.6.1,OS X,10_15_7,https://5puzkbbxv1.cognition.run/?sona_id=57294,en-us,5atln9vmtaweeko,19,"[""Black or African-American""]",No,Male,NA,No,1088642,NA,null,<p></p>,null,choice,ctd,trinary,attraction,2,microwave ovens,null,null,null,null,null,null,1,NA,NA,NA,NA,NA,NA,NA,NA,NA,NA
NA,NA,NA,NA,NA,choice_trial,survey-html-form,7,950777,0.0-4.0-1.1,342,1,2025-05-09T01:04:42Z,b60275e29fe2361ab97ac0ac217840d7,"Mozilla/5.0 (Macintosh; Intel Mac OS X 10_15_7) AppleWebKit/605.1.15 (KHTML, like Gecko) Version/15.6.1 Safari/605.1.15",Macintosh,Safari,15.6.1,OS X,10_15_7,https://5puzkbbxv1.cognition.run/?sona_id=57294,en-us,5atln9vmtaweeko,19,"[""Black or African-American""]",No,Male,NA,No,1088642,NA,2281,NA,"{""product_choice"":""A""}",choice,ctd,trinary,attraction,2,microwave ovens,null,null,null,null,null,null,1,50,60,40,60,50,60,Warranty,Cooking power,NA,NA
NA,NA,NA,NA,NA,choice_trial_setup,html-keyboard-response,8,951081,0.0-4.0-0.2,342,1,2025-05-09T01:04:42Z,b60275e29fe2361ab97ac0ac217840d7,"Mozilla/5.0 (Macintosh; Intel Mac OS X 10_15_7) AppleWebKit/605.1.15 (KHTML, like Gecko) Version/15.6.1 Safari/605.1.15",Macintosh,Safari,15.6.1,OS X,10_15_7,https://5puzkbbxv1.cognition.run/?sona_id=57294,en-us,5atln9vmtaweeko,19,"[""Black or African-American""]",No,Male,NA,No,1088642,NA,null,<p></p>,null,choice,ct,binary,attraction,NA,washing machines,null,null,null,null,null,null,2,NA,NA,NA,NA,NA,NA,NA,NA,NA,NA
NA,NA,NA,NA,NA,choice_trial,survey-html-form,9,952368,0.0-4.0-1.2,342,1,2025-05-09T01:04:42Z,b60275e29fe2361ab97ac0ac217840d7,"Mozilla/5.0 (Macintosh; Intel Mac OS X 10_15_7) AppleWebKit/605.1.15 (KHTML, like Gecko) Version/15.6.1 Safari/605.1.15",Macintosh,Safari,15.6.1,OS X,10_15_7,https://5puzkbbxv1.cognition.run/?sona_id=57294,en-us,5atln9vmtaweeko,19,"[""Black or African-American""]",No,Male,NA,No,1088642,NA,1283,NA,"{""product_choice"":""B""}",choice,ct,binary,attraction,NA,washing machines,null,null,null,null,null,null,2,60,50,null,50,60,null,Average lifespan,Energy savings,NA,NA
NA,NA,NA,NA,NA,choice_trial_setup,html-keyboard-response,10,952671,0.0-4.0-0.3,342,1,2025-05-09T01:04:42Z,b60275e29fe2361ab97ac0ac217840d7,"Mozilla/5.0 (Macintosh; Intel Mac OS X 10_15_7) AppleWebKit/605.1.15 (KHTML, like Gecko) Version/15.6.1 Safari/605.1.15",Macintosh,Safari,15.6.1,OS X,10_15_7,https://5puzkbbxv1.cognition.run/?sona_id=57294,en-us,5atln9vmtaweeko,19,"[""Black or African-American""]",No,Male,NA,No,1088642,NA,null,<p></p>,null,choice,bw,binary,catch,null,washing machines,90,55,35,30,null,null,1,NA,NA,NA,NA,NA,NA,NA,NA,NA,NA
NA,NA,NA,NA,NA,choice_trial,survey-html-form,11,956815,0.0-4.0-1.3,342,1,2025-05-09T01:04:42Z,b60275e29fe2361ab97ac0ac217840d7,"Mozilla/5.0 (Macintosh; Intel Mac OS X 10_15_7) AppleWebKit/605.1.15 (KHTML, like Gecko) Version/15.6.1 Safari/605.1.15",Macintosh,Safari,15.6.1,OS X,10_15_7,https://5puzkbbxv1.cognition.run/?sona_id=57294,en-us,5atln9vmtaweeko,19,"[""Black or African-American""]",No,Male,NA,No,1088642,NA,4141,NA,"{""product_choice"":""A""}",choice,bw,binary,catch,null,washing machines,90,55,35,30,null,null,1,null,null,null,null,null,null,Average lifespan,Energy savings,NA,NA
NA,NA,NA,NA,NA,choice_trial_setup,html-keyboard-response,12,957120,0.0-4.0-0.4,342,1,2025-05-09T01:04:42Z,b60275e29fe2361ab97ac0ac217840d7,"Mozilla/5.0 (Macintosh; Intel Mac OS X 10_15_7) AppleWebKit/605.1.15 (KHTML, like Gecko) Version/15.6.1 Safari/605.1.15",Macintosh,Safari,15.6.1,OS X,10_15_7,https://5puzkbbxv1.cognition.run/?sona_id=57294,en-us,5atln9vmtaweeko,19,"[""Black or African-American""]",No,Male,NA,No,1088642,NA,null,<p></p>,null,choice,dct,trinary,attraction,1,laptops,null,null,null,null,null,null,2,NA,NA,NA,NA,NA,NA,NA,NA,NA,NA
NA,NA,NA,NA,NA,choice_trial,survey-html-form,13,960044,0.0-4.0-1.4,342,1,2025-05-09T01:04:42Z,b60275e29fe2361ab97ac0ac217840d7,"Mozilla/5.0 (Macintosh; Intel Mac OS X 10_15_7) AppleWebKit/605.1.15 (KHTML, like Gecko) Version/15.6.1 Safari/605.1.15",Macintosh,Safari,15.6.1,OS X,10_15_7,https://5puzkbbxv1.cognition.run/?sona_id=57294,en-us,5atln9vmtaweeko,19,"[""Black or African-American""]",No,Male,NA,No,1088642,NA,2921,NA,"{""product_choice"":""B""}",choice,dct,trinary,attraction,1,laptops,null,null,null,null,null,null,2,60,50,60,50,60,40,Processing speed,Memory (RAM),NA,NA
NA,NA,NA,NA,NA,choice_trial_setup,html-keyboard-response,14,960348,0.0-4.0-0.5,342,1,2025-05-09T01:04:42Z,b60275e29fe2361ab97ac0ac217840d7,"Mozilla/5.0 (Macintosh; Intel Mac OS X 10_15_7) AppleWebKit/605.1.15 (KHTML, like Gecko) Version/15.6.1 Safari/605.1.15",Macintosh,Safari,15.6.1,OS X,10_15_7,https://5puzkbbxv1.cognition.run/?sona_id=57294,en-us,5atln9vmtaweeko,19,"[""Black or African-American""]",No,Male,NA,No,1088642,NA,null,<p></p>,null,choice,ct,binary,repulsion,2,televisions,null,null,null,null,null,null,2,NA,NA,NA,NA,NA,NA,NA,NA,NA,NA
NA,NA,NA,NA,NA,choice_trial,survey-html-form,15,962438,0.0-4.0-1.5,342,1,2025-05-09T01:04:42Z,b60275e29fe2361ab97ac0ac217840d7,"Mozilla/5.0 (Macintosh; Intel Mac OS X 10_15_7) AppleWebKit/605.1.15 (KHTML, like Gecko) Version/15.6.1 Safari/605.1.15",Macintosh,Safari,15.6.1,OS X,10_15_7,https://5puzkbbxv1.cognition.run/?sona_id=57294,en-us,5atln9vmtaweeko,19,"[""Black or African-American""]",No,Male,NA,No,1088642,NA,2087,NA,"{""product_choice"":""B""}",choice,ct,binary,repulsion,2,televisions,null,null,null,null,null,null,2,30,40,null,100,90,null,Screen size,Average lifespan,NA,NA
NA,NA,NA,NA,NA,choice_trial_setup,html-keyboard-response,16,962742,0.0-4.0-0.6,342,1,2025-05-09T01:04:42Z,b60275e29fe2361ab97ac0ac217840d7,"Mozilla/5.0 (Macintosh; Intel Mac OS X 10_15_7) AppleWebKit/605.1.15 (KHTML, like Gecko) Version/15.6.1 Safari/605.1.15",Macintosh,Safari,15.6.1,OS X,10_15_7,https://5puzkbbxv1.cognition.run/?sona_id=57294,en-us,5atln9vmtaweeko,19,"[""Black or African-American""]",No,Male,NA,No,1088642,NA,null,<p></p>,null,choice,tcd,trinary,attraction,2,laptops,null,null,null,null,null,null,1,NA,NA,NA,NA,NA,NA,NA,NA,NA,NA
NA,NA,NA,NA,NA,choice_trial,survey-html-form,17,965289,0.0-4.0-1.6,342,1,2025-05-09T01:04:42Z,b60275e29fe2361ab97ac0ac217840d7,"Mozilla/5.0 (Macintosh; Intel Mac OS X 10_15_7) AppleWebKit/605.1.15 (KHTML, like Gecko) Version/15.6.1 Safari/605.1.15",Macintosh,Safari,15.6.1,OS X,10_15_7,https://5puzkbbxv1.cognition.run/?sona_id=57294,en-us,5atln9vmtaweeko,19,"[""Black or African-American""]",No,Male,NA,No,1088642,NA,2543,NA,"{""product_choice"":""B""}",choice,tcd,trinary,attraction,2,laptops,null,null,null,null,null,null,1,50,60,40,60,50,60,Processing speed,Memory (RAM),NA,NA
NA,NA,NA,NA,NA,choice_trial_setup,html-keyboard-response,18,965593,0.0-4.0-0.7,342,1,2025-05-09T01:04:42Z,b60275e29fe2361ab97ac0ac217840d7,"Mozilla/5.0 (Macintosh; Intel Mac OS X 10_15_7) AppleWebKit/605.1.15 (KHTML, like Gecko) Version/15.6.1 Safari/605.1.15",Macintosh,Safari,15.6.1,OS X,10_15_7,https://5puzkbbxv1.cognition.run/?sona_id=57294,en-us,5atln9vmtaweeko,19,"[""Black or African-American""]",No,Male,NA,No,1088642,NA,null,<p></p>,null,choice,bww,trinary,catch,null,microwave ovens,50,70,45,50,50,35,1,NA,NA,NA,NA,NA,NA,NA,NA,NA,NA
NA,NA,NA,NA,NA,choice_trial,survey-html-form,19,967323,0.0-4.0-1.7,342,1,2025-05-09T01:04:42Z,b60275e29fe2361ab97ac0ac217840d7,"Mozilla/5.0 (Macintosh; Intel Mac OS X 10_15_7) AppleWebKit/605.1.15 (KHTML, like Gecko) Version/15.6.1 Safari/605.1.15",Macintosh,Safari,15.6.1,OS X,10_15_7,https://5puzkbbxv1.cognition.run/?sona_id=57294,en-us,5atln9vmtaweeko,19,"[""Black or African-American""]",No,Male,NA,No,1088642,NA,1726,NA,"{""product_choice"":""A""}",choice,bww,trinary,catch,null,microwave ovens,50,70,45,50,50,35,1,null,null,null,null,null,null,Warranty,Cooking power,NA,NA
NA,NA,NA,NA,NA,choice_trial_setup,html-keyboard-response,20,967628,0.0-4.0-0.8,342,1,2025-05-09T01:04:42Z,b60275e29fe2361ab97ac0ac217840d7,"Mozilla/5.0 (Macintosh; Intel Mac OS X 10_15_7) AppleWebKit/605.1.15 (KHTML, like Gecko) Version/15.6.1 Safari/605.1.15",Macintosh,Safari,15.6.1,OS X,10_15_7,https://5puzkbbxv1.cognition.run/?sona_id=57294,en-us,5atln9vmtaweeko,19,"[""Black or African-American""]",No,Male,NA,No,1088642,NA,null,<p></p>,null,choice,cdt,trinary,repulsion_B,2,laptops,null,null,null,null,null,null,1,NA,NA,NA,NA,NA,NA,NA,NA,NA,NA
NA,NA,NA,NA,NA,choice_trial,survey-html-form,21,969506,0.0-4.0-1.8,342,1,2025-05-09T01:04:42Z,b60275e29fe2361ab97ac0ac217840d7,"Mozilla/5.0 (Macintosh; Intel Mac OS X 10_15_7) AppleWebKit/605.1.15 (KHTML, like Gecko) Version/15.6.1 Safari/605.1.15",Macintosh,Safari,15.6.1,OS X,10_15_7,https://5puzkbbxv1.cognition.run/?sona_id=57294,en-us,5atln9vmtaweeko,19,"[""Black or African-American""]",No,Male,NA,No,1088642,NA,1873,NA,"{""product_choice"":""C""}",choice,cdt,trinary,repulsion_B,2,laptops,null,null,null,null,null,null,1,40,30,40,90,100,80,Processing speed,Memory (RAM),NA,NA
NA,NA,NA,NA,NA,choice_trial_setup,html-keyboard-response,22,969811,0.0-4.0-0.9,342,1,2025-05-09T01:04:42Z,b60275e29fe2361ab97ac0ac217840d7,"Mozilla/5.0 (Macintosh; Intel Mac OS X 10_15_7) AppleWebKit/605.1.15 (KHTML, like Gecko) Version/15.6.1 Safari/605.1.15",Macintosh,Safari,15.6.1,OS X,10_15_7,https://5puzkbbxv1.cognition.run/?sona_id=57294,en-us,5atln9vmtaweeko,19,"[""Black or African-American""]",No,Male,NA,No,1088642,NA,null,<p></p>,null,choice,ctd,trinary,attraction,1,microwave ovens,null,null,null,null,null,null,1,NA,NA,NA,NA,NA,NA,NA,NA,NA,NA
NA,NA,NA,NA,NA,choice_trial,survey-html-form,23,971066,0.0-4.0-1.9,342,1,2025-05-09T01:04:42Z,b60275e29fe2361ab97ac0ac217840d7,"Mozilla/5.0 (Macintosh; Intel Mac OS X 10_15_7) AppleWebKit/605.1.15 (KHTML, like Gecko) Version/15.6.1 Safari/605.1.15",Macintosh,Safari,15.6.1,OS X,10_15_7,https://5puzkbbxv1.cognition.run/?sona_id=57294,en-us,5atln9vmtaweeko,19,"[""Black or African-American""]",No,Male,NA,No,1088642,NA,1250,NA,"{""product_choice"":""B""}",choice,ctd,trinary,attraction,1,microwave ovens,null,null,null,null,null,null,1,60,50,60,50,60,40,Warranty,Cooking power,NA,NA
NA,NA,NA,NA,NA,choice_trial_setup,html-keyboard-response,24,971369,0.0-4.0-0.10,342,1,2025-05-09T01:04:42Z,b60275e29fe2361ab97ac0ac217840d7,"Mozilla/5.0 (Macintosh; Intel Mac OS X 10_15_7) AppleWebKit/605.1.15 (KHTML, like Gecko) Version/15.6.1 Safari/605.1.15",Macintosh,Safari,15.6.1,OS X,10_15_7,https://5puzkbbxv1.cognition.run/?sona_id=57294,en-us,5atln9vmtaweeko,19,"[""Black or African-American""]",No,Male,NA,No,1088642,NA,null,<p></p>,null,choice,tdc,trinary,repulsion_B,1,televisions,null,null,null,null,null,null,2,NA,NA,NA,NA,NA,NA,NA,NA,NA,NA
NA,NA,NA,NA,NA,choice_trial,survey-html-form,25,973766,0.0-4.0-1.10,342,1,2025-05-09T01:04:42Z,b60275e29fe2361ab97ac0ac217840d7,"Mozilla/5.0 (Macintosh; Intel Mac OS X 10_15_7) AppleWebKit/605.1.15 (KHTML, like Gecko) Version/15.6.1 Safari/605.1.15",Macintosh,Safari,15.6.1,OS X,10_15_7,https://5puzkbbxv1.cognition.run/?sona_id=57294,en-us,5atln9vmtaweeko,19,"[""Black or African-American""]",No,Male,NA,No,1088642,NA,2392,NA,"{""product_choice"":""B""}",choice,tdc,trinary,repulsion_B,1,televisions,null,null,null,null,null,null,2,90,100,80,40,30,40,Screen size,Average lifespan,NA,NA
NA,NA,NA,NA,NA,choice_trial_setup,html-keyboard-response,26,974070,0.0-4.0-0.11,342,1,2025-05-09T01:04:42Z,b60275e29fe2361ab97ac0ac217840d7,"Mozilla/5.0 (Macintosh; Intel Mac OS X 10_15_7) AppleWebKit/605.1.15 (KHTML, like Gecko) Version/15.6.1 Safari/605.1.15",Macintosh,Safari,15.6.1,OS X,10_15_7,https://5puzkbbxv1.cognition.run/?sona_id=57294,en-us,5atln9vmtaweeko,19,"[""Black or African-American""]",No,Male,NA,No,1088642,NA,null,<p></p>,null,choice,ct,binary,repulsion,2,washing machines,null,null,null,null,null,null,1,NA,NA,NA,NA,NA,NA,NA,NA,NA,NA
NA,NA,NA,NA,NA,choice_trial,survey-html-form,27,975593,0.0-4.0-1.11,342,1,2025-05-09T01:04:42Z,b60275e29fe2361ab97ac0ac217840d7,"Mozilla/5.0 (Macintosh; Intel Mac OS X 10_15_7) AppleWebKit/605.1.15 (KHTML, like Gecko) Version/15.6.1 Safari/605.1.15",Macintosh,Safari,15.6.1,OS X,10_15_7,https://5puzkbbxv1.cognition.run/?sona_id=57294,en-us,5atln9vmtaweeko,19,"[""Black or African-American""]",No,Male,NA,No,1088642,NA,1515,NA,"{""product_choice"":""A""}",choice,ct,binary,repulsion,2,washing machines,null,null,null,null,null,null,1,30,40,null,100,90,null,Average lifespan,Energy savings,NA,NA
NA,NA,NA,NA,NA,choice_trial_setup,html-keyboard-response,28,975897,0.0-4.0-0.12,342,1,2025-05-09T01:04:42Z,b60275e29fe2361ab97ac0ac217840d7,"Mozilla/5.0 (Macintosh; Intel Mac OS X 10_15_7) AppleWebKit/605.1.15 (KHTML, like Gecko) Version/15.6.1 Safari/605.1.15",Macintosh,Safari,15.6.1,OS X,10_15_7,https://5puzkbbxv1.cognition.run/?sona_id=57294,en-us,5atln9vmtaweeko,19,"[""Black or African-American""]",No,Male,NA,No,1088642,NA,null,<p></p>,null,choice,ct,binary,attraction,NA,laptops,null,null,null,null,null,null,2,NA,NA,NA,NA,NA,NA,NA,NA,NA,NA
NA,NA,NA,NA,NA,choice_trial,survey-html-form,29,977018,0.0-4.0-1.12,342,1,2025-05-09T01:04:42Z,b60275e29fe2361ab97ac0ac217840d7,"Mozilla/5.0 (Macintosh; Intel Mac OS X 10_15_7) AppleWebKit/605.1.15 (KHTML, like Gecko) Version/15.6.1 Safari/605.1.15",Macintosh,Safari,15.6.1,OS X,10_15_7,https://5puzkbbxv1.cognition.run/?sona_id=57294,en-us,5atln9vmtaweeko,19,"[""Black or African-American""]",No,Male,NA,No,1088642,NA,1118,NA,"{""product_choice"":""B""}",choice,ct,binary,attraction,NA,laptops,null,null,null,null,null,null,2,60,50,null,50,60,null,Processing speed,Memory (RAM),NA,NA
NA,NA,NA,NA,NA,choice_trial_setup,html-keyboard-response,30,977321,0.0-4.0-0.13,342,1,2025-05-09T01:04:42Z,b60275e29fe2361ab97ac0ac217840d7,"Mozilla/5.0 (Macintosh; Intel Mac OS X 10_15_7) AppleWebKit/605.1.15 (KHTML, like Gecko) Version/15.6.1 Safari/605.1.15",Macintosh,Safari,15.6.1,OS X,10_15_7,https://5puzkbbxv1.cognition.run/?sona_id=57294,en-us,5atln9vmtaweeko,19,"[""Black or African-American""]",No,Male,NA,No,1088642,NA,null,<p></p>,null,choice,tc,binary,repulsion,1,televisions,null,null,null,null,null,null,1,NA,NA,NA,NA,NA,NA,NA,NA,NA,NA
NA,NA,NA,NA,NA,choice_trial,survey-html-form,31,978292,0.0-4.0-1.13,342,1,2025-05-09T01:04:42Z,b60275e29fe2361ab97ac0ac217840d7,"Mozilla/5.0 (Macintosh; Intel Mac OS X 10_15_7) AppleWebKit/605.1.15 (KHTML, like Gecko) Version/15.6.1 Safari/605.1.15",Macintosh,Safari,15.6.1,OS X,10_15_7,https://5puzkbbxv1.cognition.run/?sona_id=57294,en-us,5atln9vmtaweeko,19,"[""Black or African-American""]",No,Male,NA,No,1088642,NA,967,NA,"{""product_choice"":""A""}",choice,tc,binary,repulsion,1,televisions,null,null,null,null,null,null,1,100,90,null,30,40,null,Screen size,Average lifespan,NA,NA
NA,NA,NA,NA,NA,choice_trial_setup,html-keyboard-response,32,978596,0.0-4.0-0.14,342,1,2025-05-09T01:04:42Z,b60275e29fe2361ab97ac0ac217840d7,"Mozilla/5.0 (Macintosh; Intel Mac OS X 10_15_7) AppleWebKit/605.1.15 (KHTML, like Gecko) Version/15.6.1 Safari/605.1.15",Macintosh,Safari,15.6.1,OS X,10_15_7,https://5puzkbbxv1.cognition.run/?sona_id=57294,en-us,5atln9vmtaweeko,19,"[""Black or African-American""]",No,Male,NA,No,1088642,NA,null,<p></p>,null,choice,ctd,trinary,repulsion_A,2,washing machines,null,null,null,null,null,null,2,NA,NA,NA,NA,NA,NA,NA,NA,NA,NA
NA,NA,NA,NA,NA,choice_trial,survey-html-form,33,980694,0.0-4.0-1.14,342,1,2025-05-09T01:04:42Z,b60275e29fe2361ab97ac0ac217840d7,"Mozilla/5.0 (Macintosh; Intel Mac OS X 10_15_7) AppleWebKit/605.1.15 (KHTML, like Gecko) Version/15.6.1 Safari/605.1.15",Macintosh,Safari,15.6.1,OS X,10_15_7,https://5puzkbbxv1.cognition.run/?sona_id=57294,en-us,5atln9vmtaweeko,19,"[""Black or African-American""]",No,Male,NA,No,1088642,NA,2095,NA,"{""product_choice"":""A""}",choice,ctd,trinary,repulsion_A,2,washing machines,null,null,null,null,null,null,2,30,40,20,100,90,100,Average lifespan,Energy savings,NA,NA
NA,NA,NA,NA,NA,choice_trial_setup,html-keyboard-response,34,980999,0.0-4.0-0.15,342,1,2025-05-09T01:04:42Z,b60275e29fe2361ab97ac0ac217840d7,"Mozilla/5.0 (Macintosh; Intel Mac OS X 10_15_7) AppleWebKit/605.1.15 (KHTML, like Gecko) Version/15.6.1 Safari/605.1.15",Macintosh,Safari,15.6.1,OS X,10_15_7,https://5puzkbbxv1.cognition.run/?sona_id=57294,en-us,5atln9vmtaweeko,19,"[""Black or African-American""]",No,Male,NA,No,1088642,NA,null,<p></p>,null,choice,wb,binary,catch,null,televisions,55,60,40,30,null,null,1,NA,NA,NA,NA,NA,NA,NA,NA,NA,NA
NA,NA,NA,NA,NA,choice_trial,survey-html-form,35,983511,0.0-4.0-1.15,342,1,2025-05-09T01:04:42Z,b60275e29fe2361ab97ac0ac217840d7,"Mozilla/5.0 (Macintosh; Intel Mac OS X 10_15_7) AppleWebKit/605.1.15 (KHTML, like Gecko) Version/15.6.1 Safari/605.1.15",Macintosh,Safari,15.6.1,OS X,10_15_7,https://5puzkbbxv1.cognition.run/?sona_id=57294,en-us,5atln9vmtaweeko,19,"[""Black or African-American""]",No,Male,NA,No,1088642,NA,2501,NA,"{""product_choice"":""A""}",choice,wb,binary,catch,null,televisions,55,60,40,30,null,null,1,null,null,null,null,null,null,Screen size,Average lifespan,NA,NA
NA,NA,NA,NA,NA,choice_trial_setup,html-keyboard-response,36,983816,0.0-4.0-0.16,342,1,2025-05-09T01:04:42Z,b60275e29fe2361ab97ac0ac217840d7,"Mozilla/5.0 (Macintosh; Intel Mac OS X 10_15_7) AppleWebKit/605.1.15 (KHTML, like Gecko) Version/15.6.1 Safari/605.1.15",Macintosh,Safari,15.6.1,OS X,10_15_7,https://5puzkbbxv1.cognition.run/?sona_id=57294,en-us,5atln9vmtaweeko,19,"[""Black or African-American""]",No,Male,NA,No,1088642,NA,null,<p></p>,null,choice,tc,binary,repulsion,1,laptops,null,null,null,null,null,null,2,NA,NA,NA,NA,NA,NA,NA,NA,NA,NA
NA,NA,NA,NA,NA,choice_trial,survey-html-form,37,986783,0.0-4.0-1.16,342,1,2025-05-09T01:04:42Z,b60275e29fe2361ab97ac0ac217840d7,"Mozilla/5.0 (Macintosh; Intel Mac OS X 10_15_7) AppleWebKit/605.1.15 (KHTML, like Gecko) Version/15.6.1 Safari/605.1.15",Macintosh,Safari,15.6.1,OS X,10_15_7,https://5puzkbbxv1.cognition.run/?sona_id=57294,en-us,5atln9vmtaweeko,19,"[""Black or African-American""]",No,Male,NA,No,1088642,NA,2964,NA,"{""product_choice"":""B""}",choice,tc,binary,repulsion,1,laptops,null,null,null,null,null,null,2,100,90,null,30,40,null,Processing speed,Memory (RAM),NA,NA
NA,NA,NA,NA,NA,choice_trial_setup,html-keyboard-response,38,987090,0.0-4.0-0.17,342,1,2025-05-09T01:04:42Z,b60275e29fe2361ab97ac0ac217840d7,"Mozilla/5.0 (Macintosh; Intel Mac OS X 10_15_7) AppleWebKit/605.1.15 (KHTML, like Gecko) Version/15.6.1 Safari/605.1.15",Macintosh,Safari,15.6.1,OS X,10_15_7,https://5puzkbbxv1.cognition.run/?sona_id=57294,en-us,5atln9vmtaweeko,19,"[""Black or African-American""]",No,Male,NA,No,1088642,NA,null,<p></p>,null,choice,tc,binary,attraction,NA,microwave ovens,null,null,null,null,null,null,2,NA,NA,NA,NA,NA,NA,NA,NA,NA,NA
NA,NA,NA,NA,NA,choice_trial,survey-html-form,39,988836,0.0-4.0-1.17,342,1,2025-05-09T01:04:42Z,b60275e29fe2361ab97ac0ac217840d7,"Mozilla/5.0 (Macintosh; Intel Mac OS X 10_15_7) AppleWebKit/605.1.15 (KHTML, like Gecko) Version/15.6.1 Safari/605.1.15",Macintosh,Safari,15.6.1,OS X,10_15_7,https://5puzkbbxv1.cognition.run/?sona_id=57294,en-us,5atln9vmtaweeko,19,"[""Black or African-American""]",No,Male,NA,No,1088642,NA,1741,NA,"{""product_choice"":""A""}",choice,tc,binary,attraction,NA,microwave ovens,null,null,null,null,null,null,2,60,50,null,50,60,null,Warranty,Cooking power,NA,NA
NA,NA,NA,NA,NA,choice_trial_setup,html-keyboard-response,40,989141,0.0-4.0-0.18,342,1,2025-05-09T01:04:42Z,b60275e29fe2361ab97ac0ac217840d7,"Mozilla/5.0 (Macintosh; Intel Mac OS X 10_15_7) AppleWebKit/605.1.15 (KHTML, like Gecko) Version/15.6.1 Safari/605.1.15",Macintosh,Safari,15.6.1,OS X,10_15_7,https://5puzkbbxv1.cognition.run/?sona_id=57294,en-us,5atln9vmtaweeko,19,"[""Black or African-American""]",No,Male,NA,No,1088642,NA,null,<p></p>,null,choice,dct,trinary,attraction,2,washing machines,null,null,null,null,null,null,2,NA,NA,NA,NA,NA,NA,NA,NA,NA,NA
NA,NA,NA,NA,NA,choice_trial,survey-html-form,41,990552,0.0-4.0-1.18,342,1,2025-05-09T01:04:42Z,b60275e29fe2361ab97ac0ac217840d7,"Mozilla/5.0 (Macintosh; Intel Mac OS X 10_15_7) AppleWebKit/605.1.15 (KHTML, like Gecko) Version/15.6.1 Safari/605.1.15",Macintosh,Safari,15.6.1,OS X,10_15_7,https://5puzkbbxv1.cognition.run/?sona_id=57294,en-us,5atln9vmtaweeko,19,"[""Black or African-American""]",No,Male,NA,No,1088642,NA,1408,NA,"{""product_choice"":""C""}",choice,dct,trinary,attraction,2,washing machines,null,null,null,null,null,null,2,50,60,40,60,50,60,Average lifespan,Energy savings,NA,NA
NA,NA,NA,NA,NA,choice_trial_setup,html-keyboard-response,42,990856,0.0-4.0-0.19,342,1,2025-05-09T01:04:42Z,b60275e29fe2361ab97ac0ac217840d7,"Mozilla/5.0 (Macintosh; Intel Mac OS X 10_15_7) AppleWebKit/605.1.15 (KHTML, like Gecko) Version/15.6.1 Safari/605.1.15",Macintosh,Safari,15.6.1,OS X,10_15_7,https://5puzkbbxv1.cognition.run/?sona_id=57294,en-us,5atln9vmtaweeko,19,"[""Black or African-American""]",No,Male,NA,No,1088642,NA,null,<p></p>,null,choice,tdc,trinary,repulsion_A,2,televisions,null,null,null,null,null,null,2,NA,NA,NA,NA,NA,NA,NA,NA,NA,NA
NA,NA,NA,NA,NA,choice_trial,survey-html-form,43,993728,0.0-4.0-1.19,342,1,2025-05-09T01:04:42Z,b60275e29fe2361ab97ac0ac217840d7,"Mozilla/5.0 (Macintosh; Intel Mac OS X 10_15_7) AppleWebKit/605.1.15 (KHTML, like Gecko) Version/15.6.1 Safari/605.1.15",Macintosh,Safari,15.6.1,OS X,10_15_7,https://5puzkbbxv1.cognition.run/?sona_id=57294,en-us,5atln9vmtaweeko,19,"[""Black or African-American""]",No,Male,NA,No,1088642,NA,2866,NA,"{""product_choice"":""B""}",choice,tdc,trinary,repulsion_A,2,televisions,null,null,null,null,null,null,2,30,40,20,100,90,100,Screen size,Average lifespan,NA,NA
NA,NA,NA,NA,NA,choice_trial_setup,html-keyboard-response,44,994034,0.0-4.0-0.20,342,1,2025-05-09T01:04:42Z,b60275e29fe2361ab97ac0ac217840d7,"Mozilla/5.0 (Macintosh; Intel Mac OS X 10_15_7) AppleWebKit/605.1.15 (KHTML, like Gecko) Version/15.6.1 Safari/605.1.15",Macintosh,Safari,15.6.1,OS X,10_15_7,https://5puzkbbxv1.cognition.run/?sona_id=57294,en-us,5atln9vmtaweeko,19,"[""Black or African-American""]",No,Male,NA,No,1088642,NA,null,<p></p>,null,choice,tc,binary,repulsion,1,washing machines,null,null,null,null,null,null,2,NA,NA,NA,NA,NA,NA,NA,NA,NA,NA
NA,NA,NA,NA,NA,choice_trial,survey-html-form,45,996196,0.0-4.0-1.20,342,1,2025-05-09T01:04:42Z,b60275e29fe2361ab97ac0ac217840d7,"Mozilla/5.0 (Macintosh; Intel Mac OS X 10_15_7) AppleWebKit/605.1.15 (KHTML, like Gecko) Version/15.6.1 Safari/605.1.15",Macintosh,Safari,15.6.1,OS X,10_15_7,https://5puzkbbxv1.cognition.run/?sona_id=57294,en-us,5atln9vmtaweeko,19,"[""Black or African-American""]",No,Male,NA,No,1088642,NA,2156,NA,"{""product_choice"":""A""}",choice,tc,binary,repulsion,1,washing machines,null,null,null,null,null,null,2,100,90,null,30,40,null,Average lifespan,Energy savings,NA,NA
NA,NA,NA,NA,NA,choice_trial_setup,html-keyboard-response,46,996503,0.0-4.0-0.21,342,1,2025-05-09T01:04:42Z,b60275e29fe2361ab97ac0ac217840d7,"Mozilla/5.0 (Macintosh; Intel Mac OS X 10_15_7) AppleWebKit/605.1.15 (KHTML, like Gecko) Version/15.6.1 Safari/605.1.15",Macintosh,Safari,15.6.1,OS X,10_15_7,https://5puzkbbxv1.cognition.run/?sona_id=57294,en-us,5atln9vmtaweeko,19,"[""Black or African-American""]",No,Male,NA,No,1088642,NA,null,<p></p>,null,choice,ct,binary,repulsion,2,microwave ovens,null,null,null,null,null,null,2,NA,NA,NA,NA,NA,NA,NA,NA,NA,NA
NA,NA,NA,NA,NA,choice_trial,survey-html-form,47,1001441,0.0-4.0-1.21,342,1,2025-05-09T01:04:42Z,b60275e29fe2361ab97ac0ac217840d7,"Mozilla/5.0 (Macintosh; Intel Mac OS X 10_15_7) AppleWebKit/605.1.15 (KHTML, like Gecko) Version/15.6.1 Safari/605.1.15",Macintosh,Safari,15.6.1,OS X,10_15_7,https://5puzkbbxv1.cognition.run/?sona_id=57294,en-us,5atln9vmtaweeko,19,"[""Black or African-American""]",No,Male,NA,No,1088642,NA,4926,NA,"{""product_choice"":""B""}",choice,ct,binary,repulsion,2,microwave ovens,null,null,null,null,null,null,2,30,40,null,100,90,null,Warranty,Cooking power,NA,NA
NA,NA,NA,NA,NA,choice_trial_setup,html-keyboard-response,48,1001746,0.0-4.0-0.22,342,1,2025-05-09T01:04:42Z,b60275e29fe2361ab97ac0ac217840d7,"Mozilla/5.0 (Macintosh; Intel Mac OS X 10_15_7) AppleWebKit/605.1.15 (KHTML, like Gecko) Version/15.6.1 Safari/605.1.15",Macintosh,Safari,15.6.1,OS X,10_15_7,https://5puzkbbxv1.cognition.run/?sona_id=57294,en-us,5atln9vmtaweeko,19,"[""Black or African-American""]",No,Male,NA,No,1088642,NA,null,<p></p>,null,choice,wb,binary,catch,null,laptops,55,90,50,5,null,null,1,NA,NA,NA,NA,NA,NA,NA,NA,NA,NA
NA,NA,NA,NA,NA,choice_trial,survey-html-form,49,1003985,0.0-4.0-1.22,342,1,2025-05-09T01:04:42Z,b60275e29fe2361ab97ac0ac217840d7,"Mozilla/5.0 (Macintosh; Intel Mac OS X 10_15_7) AppleWebKit/605.1.15 (KHTML, like Gecko) Version/15.6.1 Safari/605.1.15",Macintosh,Safari,15.6.1,OS X,10_15_7,https://5puzkbbxv1.cognition.run/?sona_id=57294,en-us,5atln9vmtaweeko,19,"[""Black or African-American""]",No,Male,NA,No,1088642,NA,2233,NA,"{""product_choice"":""B""}",choice,wb,binary,catch,null,laptops,55,90,50,5,null,null,1,null,null,null,null,null,null,Processing speed,Memory (RAM),NA,NA
NA,NA,NA,NA,NA,choice_trial_setup,html-keyboard-response,50,1004289,0.0-4.0-0.23,342,1,2025-05-09T01:04:42Z,b60275e29fe2361ab97ac0ac217840d7,"Mozilla/5.0 (Macintosh; Intel Mac OS X 10_15_7) AppleWebKit/605.1.15 (KHTML, like Gecko) Version/15.6.1 Safari/605.1.15",Macintosh,Safari,15.6.1,OS X,10_15_7,https://5puzkbbxv1.cognition.run/?sona_id=57294,en-us,5atln9vmtaweeko,19,"[""Black or African-American""]",No,Male,NA,No,1088642,NA,null,<p></p>,null,choice,cdt,trinary,attraction,2,televisions,null,null,null,null,null,null,2,NA,NA,NA,NA,NA,NA,NA,NA,NA,NA
NA,NA,NA,NA,NA,choice_trial,survey-html-form,51,1006415,0.0-4.0-1.23,342,1,2025-05-09T01:04:42Z,b60275e29fe2361ab97ac0ac217840d7,"Mozilla/5.0 (Macintosh; Intel Mac OS X 10_15_7) AppleWebKit/605.1.15 (KHTML, like Gecko) Version/15.6.1 Safari/605.1.15",Macintosh,Safari,15.6.1,OS X,10_15_7,https://5puzkbbxv1.cognition.run/?sona_id=57294,en-us,5atln9vmtaweeko,19,"[""Black or African-American""]",No,Male,NA,No,1088642,NA,2120,NA,"{""product_choice"":""C""}",choice,cdt,trinary,attraction,2,televisions,null,null,null,null,null,null,2,50,60,40,60,50,60,Screen size,Average lifespan,NA,NA
NA,NA,NA,NA,NA,choice_trial_setup,html-keyboard-response,52,1006720,0.0-4.0-0.24,342,1,2025-05-09T01:04:42Z,b60275e29fe2361ab97ac0ac217840d7,"Mozilla/5.0 (Macintosh; Intel Mac OS X 10_15_7) AppleWebKit/605.1.15 (KHTML, like Gecko) Version/15.6.1 Safari/605.1.15",Macintosh,Safari,15.6.1,OS X,10_15_7,https://5puzkbbxv1.cognition.run/?sona_id=57294,en-us,5atln9vmtaweeko,19,"[""Black or African-American""]",No,Male,NA,No,1088642,NA,null,<p></p>,null,choice,cdt,trinary,repulsion_A,1,washing machines,null,null,null,null,null,null,2,NA,NA,NA,NA,NA,NA,NA,NA,NA,NA
NA,NA,NA,NA,NA,choice_trial,survey-html-form,53,1007959,0.0-4.0-1.24,342,1,2025-05-09T01:04:42Z,b60275e29fe2361ab97ac0ac217840d7,"Mozilla/5.0 (Macintosh; Intel Mac OS X 10_15_7) AppleWebKit/605.1.15 (KHTML, like Gecko) Version/15.6.1 Safari/605.1.15",Macintosh,Safari,15.6.1,OS X,10_15_7,https://5puzkbbxv1.cognition.run/?sona_id=57294,en-us,5atln9vmtaweeko,19,"[""Black or African-American""]",No,Male,NA,No,1088642,NA,1234,NA,"{""product_choice"":""B""}",choice,cdt,trinary,repulsion_A,1,washing machines,null,null,null,null,null,null,2,100,90,100,30,40,20,Average lifespan,Energy savings,NA,NA
NA,NA,NA,NA,NA,choice_trial_setup,html-keyboard-response,54,1008263,0.0-4.0-0.25,342,1,2025-05-09T01:04:42Z,b60275e29fe2361ab97ac0ac217840d7,"Mozilla/5.0 (Macintosh; Intel Mac OS X 10_15_7) AppleWebKit/605.1.15 (KHTML, like Gecko) Version/15.6.1 Safari/605.1.15",Macintosh,Safari,15.6.1,OS X,10_15_7,https://5puzkbbxv1.cognition.run/?sona_id=57294,en-us,5atln9vmtaweeko,19,"[""Black or African-American""]",No,Male,NA,No,1088642,NA,null,<p></p>,null,choice,tdc,trinary,repulsion_A,2,microwave ovens,null,null,null,null,null,null,1,NA,NA,NA,NA,NA,NA,NA,NA,NA,NA
NA,NA,NA,NA,NA,choice_trial,survey-html-form,55,1009892,0.0-4.0-1.25,342,1,2025-05-09T01:04:42Z,b60275e29fe2361ab97ac0ac217840d7,"Mozilla/5.0 (Macintosh; Intel Mac OS X 10_15_7) AppleWebKit/605.1.15 (KHTML, like Gecko) Version/15.6.1 Safari/605.1.15",Macintosh,Safari,15.6.1,OS X,10_15_7,https://5puzkbbxv1.cognition.run/?sona_id=57294,en-us,5atln9vmtaweeko,19,"[""Black or African-American""]",No,Male,NA,No,1088642,NA,1623,NA,"{""product_choice"":""C""}",choice,tdc,trinary,repulsion_A,2,microwave ovens,null,null,null,null,null,null,1,30,40,20,100,90,100,Warranty,Cooking power,NA,NA
NA,NA,NA,NA,NA,choice_trial_setup,html-keyboard-response,56,1010197,0.0-4.0-0.26,342,1,2025-05-09T01:04:42Z,b60275e29fe2361ab97ac0ac217840d7,"Mozilla/5.0 (Macintosh; Intel Mac OS X 10_15_7) AppleWebKit/605.1.15 (KHTML, like Gecko) Version/15.6.1 Safari/605.1.15",Macintosh,Safari,15.6.1,OS X,10_15_7,https://5puzkbbxv1.cognition.run/?sona_id=57294,en-us,5atln9vmtaweeko,19,"[""Black or African-American""]",No,Male,NA,No,1088642,NA,null,<p></p>,null,choice,wwb,trinary,catch,null,televisions,65,65,35,15,20,50,2,NA,NA,NA,NA,NA,NA,NA,NA,NA,NA
NA,NA,NA,NA,NA,choice_trial,survey-html-form,57,1011938,0.0-4.0-1.26,342,1,2025-05-09T01:04:42Z,b60275e29fe2361ab97ac0ac217840d7,"Mozilla/5.0 (Macintosh; Intel Mac OS X 10_15_7) AppleWebKit/605.1.15 (KHTML, like Gecko) Version/15.6.1 Safari/605.1.15",Macintosh,Safari,15.6.1,OS X,10_15_7,https://5puzkbbxv1.cognition.run/?sona_id=57294,en-us,5atln9vmtaweeko,19,"[""Black or African-American""]",No,Male,NA,No,1088642,NA,1730,NA,"{""product_choice"":""A""}",choice,wwb,trinary,catch,null,televisions,65,65,35,15,20,50,2,null,null,null,null,null,null,Screen size,Average lifespan,NA,NA
NA,NA,NA,NA,NA,choice_trial_setup,html-keyboard-response,58,1012243,0.0-4.0-0.27,342,1,2025-05-09T01:04:42Z,b60275e29fe2361ab97ac0ac217840d7,"Mozilla/5.0 (Macintosh; Intel Mac OS X 10_15_7) AppleWebKit/605.1.15 (KHTML, like Gecko) Version/15.6.1 Safari/605.1.15",Macintosh,Safari,15.6.1,OS X,10_15_7,https://5puzkbbxv1.cognition.run/?sona_id=57294,en-us,5atln9vmtaweeko,19,"[""Black or African-American""]",No,Male,NA,No,1088642,NA,null,<p></p>,null,choice,dtc,trinary,repulsion_B,2,microwave ovens,null,null,null,null,null,null,2,NA,NA,NA,NA,NA,NA,NA,NA,NA,NA
NA,NA,NA,NA,NA,choice_trial,survey-html-form,59,1015229,0.0-4.0-1.27,342,1,2025-05-09T01:04:42Z,b60275e29fe2361ab97ac0ac217840d7,"Mozilla/5.0 (Macintosh; Intel Mac OS X 10_15_7) AppleWebKit/605.1.15 (KHTML, like Gecko) Version/15.6.1 Safari/605.1.15",Macintosh,Safari,15.6.1,OS X,10_15_7,https://5puzkbbxv1.cognition.run/?sona_id=57294,en-us,5atln9vmtaweeko,19,"[""Black or African-American""]",No,Male,NA,No,1088642,NA,2982,NA,"{""product_choice"":""C""}",choice,dtc,trinary,repulsion_B,2,microwave ovens,null,null,null,null,null,null,2,40,30,40,90,100,80,Warranty,Cooking power,NA,NA
NA,NA,NA,NA,NA,choice_trial_setup,html-keyboard-response,60,1015535,0.0-4.0-0.28,342,1,2025-05-09T01:04:42Z,b60275e29fe2361ab97ac0ac217840d7,"Mozilla/5.0 (Macintosh; Intel Mac OS X 10_15_7) AppleWebKit/605.1.15 (KHTML, like Gecko) Version/15.6.1 Safari/605.1.15",Macintosh,Safari,15.6.1,OS X,10_15_7,https://5puzkbbxv1.cognition.run/?sona_id=57294,en-us,5atln9vmtaweeko,19,"[""Black or African-American""]",No,Male,NA,No,1088642,NA,null,<p></p>,null,choice,cdt,trinary,repulsion_B,2,televisions,null,null,null,null,null,null,1,NA,NA,NA,NA,NA,NA,NA,NA,NA,NA
NA,NA,NA,NA,NA,choice_trial,survey-html-form,61,1017257,0.0-4.0-1.28,342,1,2025-05-09T01:04:42Z,b60275e29fe2361ab97ac0ac217840d7,"Mozilla/5.0 (Macintosh; Intel Mac OS X 10_15_7) AppleWebKit/605.1.15 (KHTML, like Gecko) Version/15.6.1 Safari/605.1.15",Macintosh,Safari,15.6.1,OS X,10_15_7,https://5puzkbbxv1.cognition.run/?sona_id=57294,en-us,5atln9vmtaweeko,19,"[""Black or African-American""]",No,Male,NA,No,1088642,NA,1716,NA,"{""product_choice"":""B""}",choice,cdt,trinary,repulsion_B,2,televisions,null,null,null,null,null,null,1,40,30,40,90,100,80,Screen size,Average lifespan,NA,NA
NA,NA,NA,NA,NA,choice_trial_setup,html-keyboard-response,62,1017562,0.0-4.0-0.29,342,1,2025-05-09T01:04:42Z,b60275e29fe2361ab97ac0ac217840d7,"Mozilla/5.0 (Macintosh; Intel Mac OS X 10_15_7) AppleWebKit/605.1.15 (KHTML, like Gecko) Version/15.6.1 Safari/605.1.15",Macintosh,Safari,15.6.1,OS X,10_15_7,https://5puzkbbxv1.cognition.run/?sona_id=57294,en-us,5atln9vmtaweeko,19,"[""Black or African-American""]",No,Male,NA,No,1088642,NA,null,<p></p>,null,choice,dtc,trinary,repulsion_B,1,microwave ovens,null,null,null,null,null,null,2,NA,NA,NA,NA,NA,NA,NA,NA,NA,NA
NA,NA,NA,NA,NA,choice_trial,survey-html-form,63,1022282,0.0-4.0-1.29,342,1,2025-05-09T01:04:42Z,b60275e29fe2361ab97ac0ac217840d7,"Mozilla/5.0 (Macintosh; Intel Mac OS X 10_15_7) AppleWebKit/605.1.15 (KHTML, like Gecko) Version/15.6.1 Safari/605.1.15",Macintosh,Safari,15.6.1,OS X,10_15_7,https://5puzkbbxv1.cognition.run/?sona_id=57294,en-us,5atln9vmtaweeko,19,"[""Black or African-American""]",No,Male,NA,No,1088642,NA,4714,NA,"{""product_choice"":""A""}",choice,dtc,trinary,repulsion_B,1,microwave ovens,null,null,null,null,null,null,2,90,100,80,40,30,40,Warranty,Cooking power,NA,NA
NA,NA,NA,NA,NA,choice_trial_setup,html-keyboard-response,64,1022586,0.0-4.0-0.30,342,1,2025-05-09T01:04:42Z,b60275e29fe2361ab97ac0ac217840d7,"Mozilla/5.0 (Macintosh; Intel Mac OS X 10_15_7) AppleWebKit/605.1.15 (KHTML, like Gecko) Version/15.6.1 Safari/605.1.15",Macintosh,Safari,15.6.1,OS X,10_15_7,https://5puzkbbxv1.cognition.run/?sona_id=57294,en-us,5atln9vmtaweeko,19,"[""Black or African-American""]",No,Male,NA,No,1088642,NA,null,<p></p>,null,choice,bw,binary,catch,null,microwave ovens,85,85,45,15,null,null,2,NA,NA,NA,NA,NA,NA,NA,NA,NA,NA
NA,NA,NA,NA,NA,choice_trial,survey-html-form,65,1024893,0.0-4.0-1.30,342,1,2025-05-09T01:04:42Z,b60275e29fe2361ab97ac0ac217840d7,"Mozilla/5.0 (Macintosh; Intel Mac OS X 10_15_7) AppleWebKit/605.1.15 (KHTML, like Gecko) Version/15.6.1 Safari/605.1.15",Macintosh,Safari,15.6.1,OS X,10_15_7,https://5puzkbbxv1.cognition.run/?sona_id=57294,en-us,5atln9vmtaweeko,19,"[""Black or African-American""]",No,Male,NA,No,1088642,NA,2301,NA,"{""product_choice"":""A""}",choice,bw,binary,catch,null,microwave ovens,85,85,45,15,null,null,2,null,null,null,null,null,null,Warranty,Cooking power,NA,NA
NA,NA,NA,NA,NA,choice_trial_setup,html-keyboard-response,66,1025199,0.0-4.0-0.31,342,1,2025-05-09T01:04:42Z,b60275e29fe2361ab97ac0ac217840d7,"Mozilla/5.0 (Macintosh; Intel Mac OS X 10_15_7) AppleWebKit/605.1.15 (KHTML, like Gecko) Version/15.6.1 Safari/605.1.15",Macintosh,Safari,15.6.1,OS X,10_15_7,https://5puzkbbxv1.cognition.run/?sona_id=57294,en-us,5atln9vmtaweeko,19,"[""Black or African-American""]",No,Male,NA,No,1088642,NA,null,<p></p>,null,choice,ctd,trinary,repulsion_B,2,washing machines,null,null,null,null,null,null,1,NA,NA,NA,NA,NA,NA,NA,NA,NA,NA
NA,NA,NA,NA,NA,choice_trial,survey-html-form,67,1027249,0.0-4.0-1.31,342,1,2025-05-09T01:04:42Z,b60275e29fe2361ab97ac0ac217840d7,"Mozilla/5.0 (Macintosh; Intel Mac OS X 10_15_7) AppleWebKit/605.1.15 (KHTML, like Gecko) Version/15.6.1 Safari/605.1.15",Macintosh,Safari,15.6.1,OS X,10_15_7,https://5puzkbbxv1.cognition.run/?sona_id=57294,en-us,5atln9vmtaweeko,19,"[""Black or African-American""]",No,Male,NA,No,1088642,NA,2045,NA,"{""product_choice"":""C""}",choice,ctd,trinary,repulsion_B,2,washing machines,null,null,null,null,null,null,1,40,30,40,90,100,80,Average lifespan,Energy savings,NA,NA
NA,NA,NA,NA,NA,choice_trial_setup,html-keyboard-response,68,1027555,0.0-4.0-0.32,342,1,2025-05-09T01:04:42Z,b60275e29fe2361ab97ac0ac217840d7,"Mozilla/5.0 (Macintosh; Intel Mac OS X 10_15_7) AppleWebKit/605.1.15 (KHTML, like Gecko) Version/15.6.1 Safari/605.1.15",Macintosh,Safari,15.6.1,OS X,10_15_7,https://5puzkbbxv1.cognition.run/?sona_id=57294,en-us,5atln9vmtaweeko,19,"[""Black or African-American""]",No,Male,NA,No,1088642,NA,null,<p></p>,null,choice,ct,binary,repulsion,1,microwave ovens,null,null,null,null,null,null,2,NA,NA,NA,NA,NA,NA,NA,NA,NA,NA
NA,NA,NA,NA,NA,choice_trial,survey-html-form,69,1028843,0.0-4.0-1.32,342,1,2025-05-09T01:04:42Z,b60275e29fe2361ab97ac0ac217840d7,"Mozilla/5.0 (Macintosh; Intel Mac OS X 10_15_7) AppleWebKit/605.1.15 (KHTML, like Gecko) Version/15.6.1 Safari/605.1.15",Macintosh,Safari,15.6.1,OS X,10_15_7,https://5puzkbbxv1.cognition.run/?sona_id=57294,en-us,5atln9vmtaweeko,19,"[""Black or African-American""]",No,Male,NA,No,1088642,NA,1277,NA,"{""product_choice"":""A""}",choice,ct,binary,repulsion,1,microwave ovens,null,null,null,null,null,null,2,100,90,null,30,40,null,Warranty,Cooking power,NA,NA
NA,NA,NA,NA,NA,choice_trial_setup,html-keyboard-response,70,1029149,0.0-4.0-0.33,342,1,2025-05-09T01:04:42Z,b60275e29fe2361ab97ac0ac217840d7,"Mozilla/5.0 (Macintosh; Intel Mac OS X 10_15_7) AppleWebKit/605.1.15 (KHTML, like Gecko) Version/15.6.1 Safari/605.1.15",Macintosh,Safari,15.6.1,OS X,10_15_7,https://5puzkbbxv1.cognition.run/?sona_id=57294,en-us,5atln9vmtaweeko,19,"[""Black or African-American""]",No,Male,NA,No,1088642,NA,null,<p></p>,null,choice,tc,binary,repulsion,2,laptops,null,null,null,null,null,null,1,NA,NA,NA,NA,NA,NA,NA,NA,NA,NA
NA,NA,NA,NA,NA,choice_trial,survey-html-form,71,1031059,0.0-4.0-1.33,342,1,2025-05-09T01:04:42Z,b60275e29fe2361ab97ac0ac217840d7,"Mozilla/5.0 (Macintosh; Intel Mac OS X 10_15_7) AppleWebKit/605.1.15 (KHTML, like Gecko) Version/15.6.1 Safari/605.1.15",Macintosh,Safari,15.6.1,OS X,10_15_7,https://5puzkbbxv1.cognition.run/?sona_id=57294,en-us,5atln9vmtaweeko,19,"[""Black or African-American""]",No,Male,NA,No,1088642,NA,1903,NA,"{""product_choice"":""B""}",choice,tc,binary,repulsion,2,laptops,null,null,null,null,null,null,1,30,40,null,100,90,null,Processing speed,Memory (RAM),NA,NA
NA,NA,NA,NA,NA,choice_trial_setup,html-keyboard-response,72,1031365,0.0-4.0-0.34,342,1,2025-05-09T01:04:42Z,b60275e29fe2361ab97ac0ac217840d7,"Mozilla/5.0 (Macintosh; Intel Mac OS X 10_15_7) AppleWebKit/605.1.15 (KHTML, like Gecko) Version/15.6.1 Safari/605.1.15",Macintosh,Safari,15.6.1,OS X,10_15_7,https://5puzkbbxv1.cognition.run/?sona_id=57294,en-us,5atln9vmtaweeko,19,"[""Black or African-American""]",No,Male,NA,No,1088642,NA,null,<p></p>,null,choice,tc,binary,attraction,NA,televisions,null,null,null,null,null,null,1,NA,NA,NA,NA,NA,NA,NA,NA,NA,NA
NA,NA,NA,NA,NA,choice_trial,survey-html-form,73,1032866,0.0-4.0-1.34,342,1,2025-05-09T01:04:42Z,b60275e29fe2361ab97ac0ac217840d7,"Mozilla/5.0 (Macintosh; Intel Mac OS X 10_15_7) AppleWebKit/605.1.15 (KHTML, like Gecko) Version/15.6.1 Safari/605.1.15",Macintosh,Safari,15.6.1,OS X,10_15_7,https://5puzkbbxv1.cognition.run/?sona_id=57294,en-us,5atln9vmtaweeko,19,"[""Black or African-American""]",No,Male,NA,No,1088642,NA,1494,NA,"{""product_choice"":""B""}",choice,tc,binary,attraction,NA,televisions,null,null,null,null,null,null,1,60,50,null,50,60,null,Screen size,Average lifespan,NA,NA
NA,NA,NA,NA,NA,choice_trial_setup,html-keyboard-response,74,1033171,0.0-4.0-0.35,342,1,2025-05-09T01:04:42Z,b60275e29fe2361ab97ac0ac217840d7,"Mozilla/5.0 (Macintosh; Intel Mac OS X 10_15_7) AppleWebKit/605.1.15 (KHTML, like Gecko) Version/15.6.1 Safari/605.1.15",Macintosh,Safari,15.6.1,OS X,10_15_7,https://5puzkbbxv1.cognition.run/?sona_id=57294,en-us,5atln9vmtaweeko,19,"[""Black or African-American""]",No,Male,NA,No,1088642,NA,null,<p></p>,null,choice,wwb,trinary,catch,null,laptops,50,70,35,40,35,40,2,NA,NA,NA,NA,NA,NA,NA,NA,NA,NA
NA,NA,NA,NA,NA,choice_trial,survey-html-form,75,1034414,0.0-4.0-1.35,342,1,2025-05-09T01:04:42Z,b60275e29fe2361ab97ac0ac217840d7,"Mozilla/5.0 (Macintosh; Intel Mac OS X 10_15_7) AppleWebKit/605.1.15 (KHTML, like Gecko) Version/15.6.1 Safari/605.1.15",Macintosh,Safari,15.6.1,OS X,10_15_7,https://5puzkbbxv1.cognition.run/?sona_id=57294,en-us,5atln9vmtaweeko,19,"[""Black or African-American""]",No,Male,NA,No,1088642,NA,1235,NA,"{""product_choice"":""C""}",choice,wwb,trinary,catch,null,laptops,50,70,35,40,35,40,2,null,null,null,null,null,null,Processing speed,Memory (RAM),NA,NA
NA,NA,NA,NA,NA,choice_trial_setup,html-keyboard-response,76,1034718,0.0-4.0-0.36,342,1,2025-05-09T01:04:42Z,b60275e29fe2361ab97ac0ac217840d7,"Mozilla/5.0 (Macintosh; Intel Mac OS X 10_15_7) AppleWebKit/605.1.15 (KHTML, like Gecko) Version/15.6.1 Safari/605.1.15",Macintosh,Safari,15.6.1,OS X,10_15_7,https://5puzkbbxv1.cognition.run/?sona_id=57294,en-us,5atln9vmtaweeko,19,"[""Black or African-American""]",No,Male,NA,No,1088642,NA,null,<p></p>,null,choice,dct,trinary,attraction,1,televisions,null,null,null,null,null,null,1,NA,NA,NA,NA,NA,NA,NA,NA,NA,NA
NA,NA,NA,NA,NA,choice_trial,survey-html-form,77,1037183,0.0-4.0-1.36,342,1,2025-05-09T01:04:42Z,b60275e29fe2361ab97ac0ac217840d7,"Mozilla/5.0 (Macintosh; Intel Mac OS X 10_15_7) AppleWebKit/605.1.15 (KHTML, like Gecko) Version/15.6.1 Safari/605.1.15",Macintosh,Safari,15.6.1,OS X,10_15_7,https://5puzkbbxv1.cognition.run/?sona_id=57294,en-us,5atln9vmtaweeko,19,"[""Black or African-American""]",No,Male,NA,No,1088642,NA,2459,NA,"{""product_choice"":""B""}",choice,dct,trinary,attraction,1,televisions,null,null,null,null,null,null,1,60,50,60,50,60,40,Screen size,Average lifespan,NA,NA
NA,NA,NA,NA,NA,choice_trial_setup,html-keyboard-response,78,1037488,0.0-4.0-0.37,342,1,2025-05-09T01:04:42Z,b60275e29fe2361ab97ac0ac217840d7,"Mozilla/5.0 (Macintosh; Intel Mac OS X 10_15_7) AppleWebKit/605.1.15 (KHTML, like Gecko) Version/15.6.1 Safari/605.1.15",Macintosh,Safari,15.6.1,OS X,10_15_7,https://5puzkbbxv1.cognition.run/?sona_id=57294,en-us,5atln9vmtaweeko,19,"[""Black or African-American""]",No,Male,NA,No,1088642,NA,null,<p></p>,null,choice,dtc,trinary,attraction,1,washing machines,null,null,null,null,null,null,2,NA,NA,NA,NA,NA,NA,NA,NA,NA,NA
NA,NA,NA,NA,NA,choice_trial,survey-html-form,79,1039723,0.0-4.0-1.37,342,1,2025-05-09T01:04:42Z,b60275e29fe2361ab97ac0ac217840d7,"Mozilla/5.0 (Macintosh; Intel Mac OS X 10_15_7) AppleWebKit/605.1.15 (KHTML, like Gecko) Version/15.6.1 Safari/605.1.15",Macintosh,Safari,15.6.1,OS X,10_15_7,https://5puzkbbxv1.cognition.run/?sona_id=57294,en-us,5atln9vmtaweeko,19,"[""Black or African-American""]",No,Male,NA,No,1088642,NA,2230,NA,"{""product_choice"":""A""}",choice,dtc,trinary,attraction,1,washing machines,null,null,null,null,null,null,2,60,50,60,50,60,40,Average lifespan,Energy savings,NA,NA
NA,NA,NA,NA,NA,choice_trial_setup,html-keyboard-response,80,1040028,0.0-4.0-0.38,342,1,2025-05-09T01:04:42Z,b60275e29fe2361ab97ac0ac217840d7,"Mozilla/5.0 (Macintosh; Intel Mac OS X 10_15_7) AppleWebKit/605.1.15 (KHTML, like Gecko) Version/15.6.1 Safari/605.1.15",Macintosh,Safari,15.6.1,OS X,10_15_7,https://5puzkbbxv1.cognition.run/?sona_id=57294,en-us,5atln9vmtaweeko,19,"[""Black or African-American""]",No,Male,NA,No,1088642,NA,null,<p></p>,null,choice,dtc,trinary,repulsion_A,1,laptops,null,null,null,null,null,null,2,NA,NA,NA,NA,NA,NA,NA,NA,NA,NA
NA,NA,NA,NA,NA,choice_trial,survey-html-form,81,1042104,0.0-4.0-1.38,342,1,2025-05-09T01:04:42Z,b60275e29fe2361ab97ac0ac217840d7,"Mozilla/5.0 (Macintosh; Intel Mac OS X 10_15_7) AppleWebKit/605.1.15 (KHTML, like Gecko) Version/15.6.1 Safari/605.1.15",Macintosh,Safari,15.6.1,OS X,10_15_7,https://5puzkbbxv1.cognition.run/?sona_id=57294,en-us,5atln9vmtaweeko,19,"[""Black or African-American""]",No,Male,NA,No,1088642,NA,2071,NA,"{""product_choice"":""B""}",choice,dtc,trinary,repulsion_A,1,laptops,null,null,null,null,null,null,2,100,90,100,30,40,20,Processing speed,Memory (RAM),NA,NA
NA,NA,NA,NA,NA,choice_trial_setup,html-keyboard-response,82,1042410,0.0-4.0-0.39,342,1,2025-05-09T01:04:42Z,b60275e29fe2361ab97ac0ac217840d7,"Mozilla/5.0 (Macintosh; Intel Mac OS X 10_15_7) AppleWebKit/605.1.15 (KHTML, like Gecko) Version/15.6.1 Safari/605.1.15",Macintosh,Safari,15.6.1,OS X,10_15_7,https://5puzkbbxv1.cognition.run/?sona_id=57294,en-us,5atln9vmtaweeko,19,"[""Black or African-American""]",No,Male,NA,No,1088642,NA,null,<p></p>,null,choice,bww,trinary,catch,null,washing machines,80,75,15,5,25,10,2,NA,NA,NA,NA,NA,NA,NA,NA,NA,NA
NA,NA,NA,NA,NA,choice_trial,survey-html-form,83,1043766,0.0-4.0-1.39,342,1,2025-05-09T01:04:42Z,b60275e29fe2361ab97ac0ac217840d7,"Mozilla/5.0 (Macintosh; Intel Mac OS X 10_15_7) AppleWebKit/605.1.15 (KHTML, like Gecko) Version/15.6.1 Safari/605.1.15",Macintosh,Safari,15.6.1,OS X,10_15_7,https://5puzkbbxv1.cognition.run/?sona_id=57294,en-us,5atln9vmtaweeko,19,"[""Black or African-American""]",No,Male,NA,No,1088642,NA,1350,NA,"{""product_choice"":""C""}",choice,bww,trinary,catch,null,washing machines,80,75,15,5,25,10,2,null,null,null,null,null,null,Average lifespan,Energy savings,NA,NA
NA,NA,NA,NA,NA,choice_trial_setup,html-keyboard-response,84,1044072,0.0-4.0-0.40,342,1,2025-05-09T01:04:42Z,b60275e29fe2361ab97ac0ac217840d7,"Mozilla/5.0 (Macintosh; Intel Mac OS X 10_15_7) AppleWebKit/605.1.15 (KHTML, like Gecko) Version/15.6.1 Safari/605.1.15",Macintosh,Safari,15.6.1,OS X,10_15_7,https://5puzkbbxv1.cognition.run/?sona_id=57294,en-us,5atln9vmtaweeko,19,"[""Black or African-American""]",No,Male,NA,No,1088642,NA,null,<p></p>,null,choice,tcd,trinary,repulsion_B,1,washing machines,null,null,null,null,null,null,2,NA,NA,NA,NA,NA,NA,NA,NA,NA,NA
NA,NA,NA,NA,NA,choice_trial,survey-html-form,85,1045221,0.0-4.0-1.40,342,1,2025-05-09T01:04:42Z,b60275e29fe2361ab97ac0ac217840d7,"Mozilla/5.0 (Macintosh; Intel Mac OS X 10_15_7) AppleWebKit/605.1.15 (KHTML, like Gecko) Version/15.6.1 Safari/605.1.15",Macintosh,Safari,15.6.1,OS X,10_15_7,https://5puzkbbxv1.cognition.run/?sona_id=57294,en-us,5atln9vmtaweeko,19,"[""Black or African-American""]",No,Male,NA,No,1088642,NA,1143,NA,"{""product_choice"":""C""}",choice,tcd,trinary,repulsion_B,1,washing machines,null,null,null,null,null,null,2,90,100,80,40,30,40,Average lifespan,Energy savings,NA,NA
NA,NA,NA,NA,NA,choice_trial_setup,html-keyboard-response,86,1045528,0.0-4.0-0.41,342,1,2025-05-09T01:04:42Z,b60275e29fe2361ab97ac0ac217840d7,"Mozilla/5.0 (Macintosh; Intel Mac OS X 10_15_7) AppleWebKit/605.1.15 (KHTML, like Gecko) Version/15.6.1 Safari/605.1.15",Macintosh,Safari,15.6.1,OS X,10_15_7,https://5puzkbbxv1.cognition.run/?sona_id=57294,en-us,5atln9vmtaweeko,19,"[""Black or African-American""]",No,Male,NA,No,1088642,NA,null,<p></p>,null,choice,tcd,trinary,repulsion_A,2,laptops,null,null,null,null,null,null,2,NA,NA,NA,NA,NA,NA,NA,NA,NA,NA
NA,NA,NA,NA,NA,choice_trial,survey-html-form,87,1051686,0.0-4.0-1.41,342,1,2025-05-09T01:04:42Z,b60275e29fe2361ab97ac0ac217840d7,"Mozilla/5.0 (Macintosh; Intel Mac OS X 10_15_7) AppleWebKit/605.1.15 (KHTML, like Gecko) Version/15.6.1 Safari/605.1.15",Macintosh,Safari,15.6.1,OS X,10_15_7,https://5puzkbbxv1.cognition.run/?sona_id=57294,en-us,5atln9vmtaweeko,19,"[""Black or African-American""]",No,Male,NA,No,1088642,NA,6147,NA,"{""product_choice"":""B""}",choice,tcd,trinary,repulsion_A,2,laptops,null,null,null,null,null,null,2,30,40,20,100,90,100,Processing speed,Memory (RAM),NA,NA
NA,NA,NA,NA,NA,choice_trial_setup,html-keyboard-response,88,1051992,0.0-4.0-0.42,342,1,2025-05-09T01:04:42Z,b60275e29fe2361ab97ac0ac217840d7,"Mozilla/5.0 (Macintosh; Intel Mac OS X 10_15_7) AppleWebKit/605.1.15 (KHTML, like Gecko) Version/15.6.1 Safari/605.1.15",Macintosh,Safari,15.6.1,OS X,10_15_7,https://5puzkbbxv1.cognition.run/?sona_id=57294,en-us,5atln9vmtaweeko,19,"[""Black or African-American""]",No,Male,NA,No,1088642,NA,null,<p></p>,null,choice,dtc,trinary,repulsion_A,1,televisions,null,null,null,null,null,null,2,NA,NA,NA,NA,NA,NA,NA,NA,NA,NA
NA,NA,NA,NA,NA,choice_trial,survey-html-form,89,1055436,0.0-4.0-1.42,342,1,2025-05-09T01:04:42Z,b60275e29fe2361ab97ac0ac217840d7,"Mozilla/5.0 (Macintosh; Intel Mac OS X 10_15_7) AppleWebKit/605.1.15 (KHTML, like Gecko) Version/15.6.1 Safari/605.1.15",Macintosh,Safari,15.6.1,OS X,10_15_7,https://5puzkbbxv1.cognition.run/?sona_id=57294,en-us,5atln9vmtaweeko,19,"[""Black or African-American""]",No,Male,NA,No,1088642,NA,3438,NA,"{""product_choice"":""C""}",choice,dtc,trinary,repulsion_A,1,televisions,null,null,null,null,null,null,2,100,90,100,30,40,20,Screen size,Average lifespan,NA,NA
NA,NA,NA,NA,NA,choice_trial_setup,html-keyboard-response,90,1055742,0.0-4.0-0.43,342,1,2025-05-09T01:04:42Z,b60275e29fe2361ab97ac0ac217840d7,"Mozilla/5.0 (Macintosh; Intel Mac OS X 10_15_7) AppleWebKit/605.1.15 (KHTML, like Gecko) Version/15.6.1 Safari/605.1.15",Macintosh,Safari,15.6.1,OS X,10_15_7,https://5puzkbbxv1.cognition.run/?sona_id=57294,en-us,5atln9vmtaweeko,19,"[""Black or African-American""]",No,Male,NA,No,1088642,NA,null,<p></p>,null,choice,dtc,trinary,repulsion_B,1,laptops,null,null,null,null,null,null,2,NA,NA,NA,NA,NA,NA,NA,NA,NA,NA
NA,NA,NA,NA,NA,choice_trial,survey-html-form,91,1057919,0.0-4.0-1.43,342,1,2025-05-09T01:04:42Z,b60275e29fe2361ab97ac0ac217840d7,"Mozilla/5.0 (Macintosh; Intel Mac OS X 10_15_7) AppleWebKit/605.1.15 (KHTML, like Gecko) Version/15.6.1 Safari/605.1.15",Macintosh,Safari,15.6.1,OS X,10_15_7,https://5puzkbbxv1.cognition.run/?sona_id=57294,en-us,5atln9vmtaweeko,19,"[""Black or African-American""]",No,Male,NA,No,1088642,NA,2171,NA,"{""product_choice"":""C""}",choice,dtc,trinary,repulsion_B,1,laptops,null,null,null,null,null,null,2,90,100,80,40,30,40,Processing speed,Memory (RAM),NA,NA
NA,NA,NA,NA,NA,post_trials_message,html-button-response,92,1060482,0.0-5.0,342,1,2025-05-09T01:04:42Z,b60275e29fe2361ab97ac0ac217840d7,"Mozilla/5.0 (Macintosh; Intel Mac OS X 10_15_7) AppleWebKit/605.1.15 (KHTML, like Gecko) Version/15.6.1 Safari/605.1.15",Macintosh,Safari,15.6.1,OS X,10_15_7,https://5puzkbbxv1.cognition.run/?sona_id=57294,en-us,5atln9vmtaweeko,19,"[""Black or African-American""]",No,Male,NA,No,1088642,NA,2555,<p> <b>Thank you for your patience!</b></p><p>  The study will be done after completing a brief form. </p>,0,NA,NA,NA,NA,NA,NA,NA,NA,NA,NA,NA,NA,NA,NA,NA,NA,NA,NA,NA,NA,NA,NA,NA
NA,NA,NA,NA,NA,survey_message,survey-text,93,1100561,0.0-6.0,342,1,2025-05-09T01:04:42Z,b60275e29fe2361ab97ac0ac217840d7,"Mozilla/5.0 (Macintosh; Intel Mac OS X 10_15_7) AppleWebKit/605.1.15 (KHTML, like Gecko) Version/15.6.1 Safari/605.1.15",Macintosh,Safari,15.6.1,OS X,10_15_7,https://5puzkbbxv1.cognition.run/?sona_id=57294,en-us,5atln9vmtaweeko,19,"[""Black or African-American""]",No,Male,NA,No,1088642,NA,40053,NA,"{""Q0"":""i just chose the smartest answers""}",NA,NA,NA,NA,NA,NA,NA,NA,NA,NA,NA,NA,NA,NA,NA,NA,NA,NA,NA,NA,NA,i just chose the smartest answers,NA
NA,NA,NA,NA,NA,demo_age,survey-text,94,1104938,0.0-7.0,342,1,2025-05-09T01:04:42Z,b60275e29fe2361ab97ac0ac217840d7,"Mozilla/5.0 (Macintosh; Intel Mac OS X 10_15_7) AppleWebKit/605.1.15 (KHTML, like Gecko) Version/15.6.1 Safari/605.1.15",Macintosh,Safari,15.6.1,OS X,10_15_7,https://5puzkbbxv1.cognition.run/?sona_id=57294,en-us,5atln9vmtaweeko,19,"[""Black or African-American""]",No,Male,NA,No,1088642,NA,4363,NA,"{""Q0"":""19""}",NA,NA,NA,NA,NA,NA,NA,NA,NA,NA,NA,NA,NA,NA,NA,NA,NA,NA,NA,NA,NA,NA,NA
NA,NA,NA,NA,NA,demo_race,survey-multi-select,95,1107865,0.0-8.0,342,1,2025-05-09T01:04:42Z,b60275e29fe2361ab97ac0ac217840d7,"Mozilla/5.0 (Macintosh; Intel Mac OS X 10_15_7) AppleWebKit/605.1.15 (KHTML, like Gecko) Version/15.6.1 Safari/605.1.15",Macintosh,Safari,15.6.1,OS X,10_15_7,https://5puzkbbxv1.cognition.run/?sona_id=57294,en-us,5atln9vmtaweeko,19,"[""Black or African-American""]",No,Male,NA,No,1088642,NA,2918,NA,"{""Q0"":[""Black or African-American""]}",NA,NA,NA,NA,NA,NA,NA,NA,NA,NA,NA,NA,NA,NA,NA,NA,NA,NA,NA,NA,NA,NA,[0]
NA,NA,NA,NA,NA,demo_ethnicity_gender,survey-multi-choice,96,1118671,0.0-9.0,342,1,2025-05-09T01:04:42Z,b60275e29fe2361ab97ac0ac217840d7,"Mozilla/5.0 (Macintosh; Intel Mac OS X 10_15_7) AppleWebKit/605.1.15 (KHTML, like Gecko) Version/15.6.1 Safari/605.1.15",Macintosh,Safari,15.6.1,OS X,10_15_7,https://5puzkbbxv1.cognition.run/?sona_id=57294,en-us,5atln9vmtaweeko,19,"[""Black or African-American""]",No,Male,NA,No,1088642,NA,10798,NA,"{""Q0"":""No"",""Q1"":""Male""}",NA,NA,NA,NA,NA,NA,NA,NA,NA,NA,NA,NA,NA,NA,NA,NA,NA,NA,NA,NA,NA,NA,"[0,1]"
NA,NA,NA,NA,NA,demo_countries,survey-text,97,1136396,0.0-10.0,342,1,2025-05-09T01:04:42Z,b60275e29fe2361ab97ac0ac217840d7,"Mozilla/5.0 (Macintosh; Intel Mac OS X 10_15_7) AppleWebKit/605.1.15 (KHTML, like Gecko) Version/15.6.1 Safari/605.1.15",Macintosh,Safari,15.6.1,OS X,10_15_7,https://5puzkbbxv1.cognition.run/?sona_id=57294,en-us,5atln9vmtaweeko,19,"[""Black or African-American""]",No,Male,NA,No,1088642,NA,17717,NA,"{""Q0"":""NA""}",NA,NA,NA,NA,NA,NA,NA,NA,NA,NA,NA,NA,NA,NA,NA,NA,NA,NA,NA,NA,NA,NA,NA
NA,NA,NA,NA,NA,demo_prev_study,survey-multi-choice,98,1167683,0.0-11.0,342,1,2025-05-09T01:04:42Z,b60275e29fe2361ab97ac0ac217840d7,"Mozilla/5.0 (Macintosh; Intel Mac OS X 10_15_7) AppleWebKit/605.1.15 (KHTML, like Gecko) Version/15.6.1 Safari/605.1.15",Macintosh,Safari,15.6.1,OS X,10_15_7,https://5puzkbbxv1.cognition.run/?sona_id=57294,en-us,5atln9vmtaweeko,19,"[""Black or African-American""]",No,Male,NA,No,1088642,NA,31281,NA,"{""Q0"":""No""}",NA,NA,NA,NA,NA,NA,NA,NA,NA,NA,NA,NA,NA,NA,NA,NA,NA,NA,NA,NA,NA,NA,[0]
NA,NA,NA,NA,NA,post_survey_message,html-keyboard-response,99,1259366,0.0-12.0,342,1,2025-05-09T01:04:42Z,b60275e29fe2361ab97ac0ac217840d7,"Mozilla/5.0 (Macintosh; Intel Mac OS X 10_15_7) AppleWebKit/605.1.15 (KHTML, like Gecko) Version/15.6.1 Safari/605.1.15",Macintosh,Safari,15.6.1,OS X,10_15_7,https://5puzkbbxv1.cognition.run/?sona_id=57294,en-us,5atln9vmtaweeko,19,"[""Black or African-American""]",No,Male,NA,No,1088642,NA,91675,NA,j,NA,NA,NA,NA,NA,NA,NA,NA,NA,NA,NA,NA,NA,NA,NA,NA,NA,NA,NA,NA,NA,NA,NA
NA,NA,NA,NA,NA,debrief,image-keyboard-response,100,1267099,0.0-13.0,342,1,2025-05-09T01:04:42Z,b60275e29fe2361ab97ac0ac217840d7,"Mozilla/5.0 (Macintosh; Intel Mac OS X 10_15_7) AppleWebKit/605.1.15 (KHTML, like Gecko) Version/15.6.1 Safari/605.1.15",Macintosh,Safari,15.6.1,OS X,10_15_7,https://5puzkbbxv1.cognition.run/?sona_id=57294,en-us,5atln9vmtaweeko,19,"[""Black or African-American""]",No,Male,NA,No,1088642,NA,7682,Judg_choice_debrief.png,p,NA,NA,NA,NA,NA,NA,NA,NA,NA,NA,NA,NA,NA,NA,NA,NA,NA,NA,NA,NA,NA,NA,NA
