success,timeout,failed_images,failed_audio,failed_video,screen_id,trial_type,trial_index,time_elapsed,internal_node_id,run_id,condition,recorded_at,source_code_version,user_agent,device,browser,browser_version,platform,platform_version,referer,accept_language,ppt_id,age,race,ethnicity,gender,other_countries,prev_study,exp_duration,view_history,rt,stimulus,response,phase,order,set,effect,t_high,category,d1_best,d2_best,d1_worst1,d2_worst1,d1_worst2,d2_worst2,first_dim,d1_t,d1_c,d1_d,d2_t,d2_c,d2_d,d1_name,d2_name,strategy_response,question_order
TRUE,FALSE,[],[],[],img preload,preload,0,277,0.0-0.0,348,1,2025-05-09T04:05:54Z,b60275e29fe2361ab97ac0ac217840d7,"Mozilla/5.0 (Windows NT 10.0; Win64; x64) AppleWebKit/537.36 (KHTML, like Gecko) Chrome/135.0.0.0 Safari/537.36 Edg/135.0.0.0",WebKit,Edge,135.0.0.0,Windows,10,https://5puzkbbxv1.cognition.run/?sona_id=57717,"en-US,en;q=0.9",mkeqc9hngy5mh1g,19 years,"[""Black or African-American""]",No,Male,"Ghana - 16 years
USA - 2 and half years",No,1080887.7000000477,NA,NA,NA,NA,NA,NA,NA,NA,NA,NA,NA,NA,NA,NA,NA,NA,NA,NA,NA,NA,NA,NA,NA,NA,NA,NA,NA
NA,NA,NA,NA,NA,computer_message,instructions,1,2334,0.0-1.0,348,1,2025-05-09T04:05:54Z,b60275e29fe2361ab97ac0ac217840d7,"Mozilla/5.0 (Windows NT 10.0; Win64; x64) AppleWebKit/537.36 (KHTML, like Gecko) Chrome/135.0.0.0 Safari/537.36 Edg/135.0.0.0",WebKit,Edge,135.0.0.0,Windows,10,https://5puzkbbxv1.cognition.run/?sona_id=57717,"en-US,en;q=0.9",mkeqc9hngy5mh1g,19 years,"[""Black or African-American""]",No,Male,"Ghana - 16 years
USA - 2 and half years",No,1080887.7000000477,"[{""page_index"":0,""viewing_time"":2056}]",2056,NA,NA,NA,NA,NA,NA,NA,NA,NA,NA,NA,NA,NA,NA,NA,NA,NA,NA,NA,NA,NA,NA,NA,NA,NA
TRUE,NA,NA,NA,NA,NA,fullscreen,2,5033,0.0-2.0,348,1,2025-05-09T04:05:54Z,b60275e29fe2361ab97ac0ac217840d7,"Mozilla/5.0 (Windows NT 10.0; Win64; x64) AppleWebKit/537.36 (KHTML, like Gecko) Chrome/135.0.0.0 Safari/537.36 Edg/135.0.0.0",WebKit,Edge,135.0.0.0,Windows,10,https://5puzkbbxv1.cognition.run/?sona_id=57717,"en-US,en;q=0.9",mkeqc9hngy5mh1g,19 years,"[""Black or African-American""]",No,Male,"Ghana - 16 years
USA - 2 and half years",No,1080887.7000000477,NA,1691,NA,NA,NA,NA,NA,NA,NA,NA,NA,NA,NA,NA,NA,NA,NA,NA,NA,NA,NA,NA,NA,NA,NA,NA,NA
NA,NA,NA,NA,NA,choice_instructions,instructions,3,58444,0.0-3.0,348,1,2025-05-09T04:05:54Z,b60275e29fe2361ab97ac0ac217840d7,"Mozilla/5.0 (Windows NT 10.0; Win64; x64) AppleWebKit/537.36 (KHTML, like Gecko) Chrome/135.0.0.0 Safari/537.36 Edg/135.0.0.0",WebKit,Edge,135.0.0.0,Windows,10,https://5puzkbbxv1.cognition.run/?sona_id=57717,"en-US,en;q=0.9",mkeqc9hngy5mh1g,19 years,"[""Black or African-American""]",No,Male,"Ghana - 16 years
USA - 2 and half years",No,1080887.7000000477,"[{""page_index"":0,""viewing_time"":1180},{""page_index"":1,""viewing_time"":1653},{""page_index"":2,""viewing_time"":1135},{""page_index"":3,""viewing_time"":5453},{""page_index"":4,""viewing_time"":9142},{""page_index"":5,""viewing_time"":29635},{""page_index"":6,""viewing_time"":5213}]",53410,NA,NA,NA,NA,NA,NA,NA,NA,NA,NA,NA,NA,NA,NA,NA,NA,NA,NA,NA,NA,NA,NA,NA,NA,NA
NA,NA,NA,NA,NA,choice_trial_setup,html-keyboard-response,4,58747,0.0-4.0-0.0,348,1,2025-05-09T04:05:54Z,b60275e29fe2361ab97ac0ac217840d7,"Mozilla/5.0 (Windows NT 10.0; Win64; x64) AppleWebKit/537.36 (KHTML, like Gecko) Chrome/135.0.0.0 Safari/537.36 Edg/135.0.0.0",WebKit,Edge,135.0.0.0,Windows,10,https://5puzkbbxv1.cognition.run/?sona_id=57717,"en-US,en;q=0.9",mkeqc9hngy5mh1g,19 years,"[""Black or African-American""]",No,Male,"Ghana - 16 years
USA - 2 and half years",No,1080887.7000000477,NA,null,<p></p>,null,choice,ct,binary,attraction,NA,televisions,null,null,null,null,null,null,2,NA,NA,NA,NA,NA,NA,NA,NA,NA,NA
NA,NA,NA,NA,NA,choice_trial,survey-html-form,5,65824,0.0-4.0-1.0,348,1,2025-05-09T04:05:54Z,b60275e29fe2361ab97ac0ac217840d7,"Mozilla/5.0 (Windows NT 10.0; Win64; x64) AppleWebKit/537.36 (KHTML, like Gecko) Chrome/135.0.0.0 Safari/537.36 Edg/135.0.0.0",WebKit,Edge,135.0.0.0,Windows,10,https://5puzkbbxv1.cognition.run/?sona_id=57717,"en-US,en;q=0.9",mkeqc9hngy5mh1g,19 years,"[""Black or African-American""]",No,Male,"Ghana - 16 years
USA - 2 and half years",No,1080887.7000000477,NA,7075,NA,"{""product_choice"":""A""}",choice,ct,binary,attraction,NA,televisions,null,null,null,null,null,null,2,60,50,null,50,60,null,Screen size,Average lifespan,NA,NA
NA,NA,NA,NA,NA,choice_trial_setup,html-keyboard-response,6,66125,0.0-4.0-0.1,348,1,2025-05-09T04:05:54Z,b60275e29fe2361ab97ac0ac217840d7,"Mozilla/5.0 (Windows NT 10.0; Win64; x64) AppleWebKit/537.36 (KHTML, like Gecko) Chrome/135.0.0.0 Safari/537.36 Edg/135.0.0.0",WebKit,Edge,135.0.0.0,Windows,10,https://5puzkbbxv1.cognition.run/?sona_id=57717,"en-US,en;q=0.9",mkeqc9hngy5mh1g,19 years,"[""Black or African-American""]",No,Male,"Ghana - 16 years
USA - 2 and half years",No,1080887.7000000477,NA,null,<p></p>,null,choice,tcd,trinary,attraction,1,microwave ovens,null,null,null,null,null,null,1,NA,NA,NA,NA,NA,NA,NA,NA,NA,NA
NA,NA,NA,NA,NA,choice_trial,survey-html-form,7,73423,0.0-4.0-1.1,348,1,2025-05-09T04:05:54Z,b60275e29fe2361ab97ac0ac217840d7,"Mozilla/5.0 (Windows NT 10.0; Win64; x64) AppleWebKit/537.36 (KHTML, like Gecko) Chrome/135.0.0.0 Safari/537.36 Edg/135.0.0.0",WebKit,Edge,135.0.0.0,Windows,10,https://5puzkbbxv1.cognition.run/?sona_id=57717,"en-US,en;q=0.9",mkeqc9hngy5mh1g,19 years,"[""Black or African-American""]",No,Male,"Ghana - 16 years
USA - 2 and half years",No,1080887.7000000477,NA,7295,NA,"{""product_choice"":""B""}",choice,tcd,trinary,attraction,1,microwave ovens,null,null,null,null,null,null,1,60,50,60,50,60,40,Warranty,Cooking power,NA,NA
NA,NA,NA,NA,NA,choice_trial_setup,html-keyboard-response,8,73724,0.0-4.0-0.2,348,1,2025-05-09T04:05:54Z,b60275e29fe2361ab97ac0ac217840d7,"Mozilla/5.0 (Windows NT 10.0; Win64; x64) AppleWebKit/537.36 (KHTML, like Gecko) Chrome/135.0.0.0 Safari/537.36 Edg/135.0.0.0",WebKit,Edge,135.0.0.0,Windows,10,https://5puzkbbxv1.cognition.run/?sona_id=57717,"en-US,en;q=0.9",mkeqc9hngy5mh1g,19 years,"[""Black or African-American""]",No,Male,"Ghana - 16 years
USA - 2 and half years",No,1080887.7000000477,NA,null,<p></p>,null,choice,tcd,trinary,attraction,2,laptops,null,null,null,null,null,null,1,NA,NA,NA,NA,NA,NA,NA,NA,NA,NA
NA,NA,NA,NA,NA,choice_trial,survey-html-form,9,83760,0.0-4.0-1.2,348,1,2025-05-09T04:05:54Z,b60275e29fe2361ab97ac0ac217840d7,"Mozilla/5.0 (Windows NT 10.0; Win64; x64) AppleWebKit/537.36 (KHTML, like Gecko) Chrome/135.0.0.0 Safari/537.36 Edg/135.0.0.0",WebKit,Edge,135.0.0.0,Windows,10,https://5puzkbbxv1.cognition.run/?sona_id=57717,"en-US,en;q=0.9",mkeqc9hngy5mh1g,19 years,"[""Black or African-American""]",No,Male,"Ghana - 16 years
USA - 2 and half years",No,1080887.7000000477,NA,10034,NA,"{""product_choice"":""A""}",choice,tcd,trinary,attraction,2,laptops,null,null,null,null,null,null,1,50,60,40,60,50,60,Processing speed,Memory (RAM),NA,NA
NA,NA,NA,NA,NA,choice_trial_setup,html-keyboard-response,10,84063,0.0-4.0-0.3,348,1,2025-05-09T04:05:54Z,b60275e29fe2361ab97ac0ac217840d7,"Mozilla/5.0 (Windows NT 10.0; Win64; x64) AppleWebKit/537.36 (KHTML, like Gecko) Chrome/135.0.0.0 Safari/537.36 Edg/135.0.0.0",WebKit,Edge,135.0.0.0,Windows,10,https://5puzkbbxv1.cognition.run/?sona_id=57717,"en-US,en;q=0.9",mkeqc9hngy5mh1g,19 years,"[""Black or African-American""]",No,Male,"Ghana - 16 years
USA - 2 and half years",No,1080887.7000000477,NA,null,<p></p>,null,choice,cdt,trinary,repulsion_B,1,televisions,null,null,null,null,null,null,2,NA,NA,NA,NA,NA,NA,NA,NA,NA,NA
NA,NA,NA,NA,NA,choice_trial,survey-html-form,11,92759,0.0-4.0-1.3,348,1,2025-05-09T04:05:54Z,b60275e29fe2361ab97ac0ac217840d7,"Mozilla/5.0 (Windows NT 10.0; Win64; x64) AppleWebKit/537.36 (KHTML, like Gecko) Chrome/135.0.0.0 Safari/537.36 Edg/135.0.0.0",WebKit,Edge,135.0.0.0,Windows,10,https://5puzkbbxv1.cognition.run/?sona_id=57717,"en-US,en;q=0.9",mkeqc9hngy5mh1g,19 years,"[""Black or African-American""]",No,Male,"Ghana - 16 years
USA - 2 and half years",No,1080887.7000000477,NA,8695,NA,"{""product_choice"":""B""}",choice,cdt,trinary,repulsion_B,1,televisions,null,null,null,null,null,null,2,90,100,80,40,30,40,Screen size,Average lifespan,NA,NA
NA,NA,NA,NA,NA,choice_trial_setup,html-keyboard-response,12,93062,0.0-4.0-0.4,348,1,2025-05-09T04:05:54Z,b60275e29fe2361ab97ac0ac217840d7,"Mozilla/5.0 (Windows NT 10.0; Win64; x64) AppleWebKit/537.36 (KHTML, like Gecko) Chrome/135.0.0.0 Safari/537.36 Edg/135.0.0.0",WebKit,Edge,135.0.0.0,Windows,10,https://5puzkbbxv1.cognition.run/?sona_id=57717,"en-US,en;q=0.9",mkeqc9hngy5mh1g,19 years,"[""Black or African-American""]",No,Male,"Ghana - 16 years
USA - 2 and half years",No,1080887.7000000477,NA,null,<p></p>,null,choice,tc,binary,attraction,NA,microwave ovens,null,null,null,null,null,null,2,NA,NA,NA,NA,NA,NA,NA,NA,NA,NA
NA,NA,NA,NA,NA,choice_trial,survey-html-form,13,98048,0.0-4.0-1.4,348,1,2025-05-09T04:05:54Z,b60275e29fe2361ab97ac0ac217840d7,"Mozilla/5.0 (Windows NT 10.0; Win64; x64) AppleWebKit/537.36 (KHTML, like Gecko) Chrome/135.0.0.0 Safari/537.36 Edg/135.0.0.0",WebKit,Edge,135.0.0.0,Windows,10,https://5puzkbbxv1.cognition.run/?sona_id=57717,"en-US,en;q=0.9",mkeqc9hngy5mh1g,19 years,"[""Black or African-American""]",No,Male,"Ghana - 16 years
USA - 2 and half years",No,1080887.7000000477,NA,4985,NA,"{""product_choice"":""B""}",choice,tc,binary,attraction,NA,microwave ovens,null,null,null,null,null,null,2,60,50,null,50,60,null,Warranty,Cooking power,NA,NA
NA,NA,NA,NA,NA,choice_trial_setup,html-keyboard-response,14,98350,0.0-4.0-0.5,348,1,2025-05-09T04:05:54Z,b60275e29fe2361ab97ac0ac217840d7,"Mozilla/5.0 (Windows NT 10.0; Win64; x64) AppleWebKit/537.36 (KHTML, like Gecko) Chrome/135.0.0.0 Safari/537.36 Edg/135.0.0.0",WebKit,Edge,135.0.0.0,Windows,10,https://5puzkbbxv1.cognition.run/?sona_id=57717,"en-US,en;q=0.9",mkeqc9hngy5mh1g,19 years,"[""Black or African-American""]",No,Male,"Ghana - 16 years
USA - 2 and half years",No,1080887.7000000477,NA,null,<p></p>,null,choice,dct,trinary,repulsion_A,1,microwave ovens,null,null,null,null,null,null,2,NA,NA,NA,NA,NA,NA,NA,NA,NA,NA
NA,NA,NA,NA,NA,choice_trial,survey-html-form,15,108797,0.0-4.0-1.5,348,1,2025-05-09T04:05:54Z,b60275e29fe2361ab97ac0ac217840d7,"Mozilla/5.0 (Windows NT 10.0; Win64; x64) AppleWebKit/537.36 (KHTML, like Gecko) Chrome/135.0.0.0 Safari/537.36 Edg/135.0.0.0",WebKit,Edge,135.0.0.0,Windows,10,https://5puzkbbxv1.cognition.run/?sona_id=57717,"en-US,en;q=0.9",mkeqc9hngy5mh1g,19 years,"[""Black or African-American""]",No,Male,"Ghana - 16 years
USA - 2 and half years",No,1080887.7000000477,NA,10443,NA,"{""product_choice"":""B""}",choice,dct,trinary,repulsion_A,1,microwave ovens,null,null,null,null,null,null,2,100,90,100,30,40,20,Warranty,Cooking power,NA,NA
NA,NA,NA,NA,NA,choice_trial_setup,html-keyboard-response,16,109100,0.0-4.0-0.6,348,1,2025-05-09T04:05:54Z,b60275e29fe2361ab97ac0ac217840d7,"Mozilla/5.0 (Windows NT 10.0; Win64; x64) AppleWebKit/537.36 (KHTML, like Gecko) Chrome/135.0.0.0 Safari/537.36 Edg/135.0.0.0",WebKit,Edge,135.0.0.0,Windows,10,https://5puzkbbxv1.cognition.run/?sona_id=57717,"en-US,en;q=0.9",mkeqc9hngy5mh1g,19 years,"[""Black or African-American""]",No,Male,"Ghana - 16 years
USA - 2 and half years",No,1080887.7000000477,NA,null,<p></p>,null,choice,ct,binary,repulsion,1,microwave ovens,null,null,null,null,null,null,2,NA,NA,NA,NA,NA,NA,NA,NA,NA,NA
NA,NA,NA,NA,NA,choice_trial,survey-html-form,17,117762,0.0-4.0-1.6,348,1,2025-05-09T04:05:54Z,b60275e29fe2361ab97ac0ac217840d7,"Mozilla/5.0 (Windows NT 10.0; Win64; x64) AppleWebKit/537.36 (KHTML, like Gecko) Chrome/135.0.0.0 Safari/537.36 Edg/135.0.0.0",WebKit,Edge,135.0.0.0,Windows,10,https://5puzkbbxv1.cognition.run/?sona_id=57717,"en-US,en;q=0.9",mkeqc9hngy5mh1g,19 years,"[""Black or African-American""]",No,Male,"Ghana - 16 years
USA - 2 and half years",No,1080887.7000000477,NA,8661,NA,"{""product_choice"":""A""}",choice,ct,binary,repulsion,1,microwave ovens,null,null,null,null,null,null,2,100,90,null,30,40,null,Warranty,Cooking power,NA,NA
NA,NA,NA,NA,NA,choice_trial_setup,html-keyboard-response,18,118064,0.0-4.0-0.7,348,1,2025-05-09T04:05:54Z,b60275e29fe2361ab97ac0ac217840d7,"Mozilla/5.0 (Windows NT 10.0; Win64; x64) AppleWebKit/537.36 (KHTML, like Gecko) Chrome/135.0.0.0 Safari/537.36 Edg/135.0.0.0",WebKit,Edge,135.0.0.0,Windows,10,https://5puzkbbxv1.cognition.run/?sona_id=57717,"en-US,en;q=0.9",mkeqc9hngy5mh1g,19 years,"[""Black or African-American""]",No,Male,"Ghana - 16 years
USA - 2 and half years",No,1080887.7000000477,NA,null,<p></p>,null,choice,ctd,trinary,repulsion_A,1,laptops,null,null,null,null,null,null,1,NA,NA,NA,NA,NA,NA,NA,NA,NA,NA
NA,NA,NA,NA,NA,choice_trial,survey-html-form,19,123529,0.0-4.0-1.7,348,1,2025-05-09T04:05:54Z,b60275e29fe2361ab97ac0ac217840d7,"Mozilla/5.0 (Windows NT 10.0; Win64; x64) AppleWebKit/537.36 (KHTML, like Gecko) Chrome/135.0.0.0 Safari/537.36 Edg/135.0.0.0",WebKit,Edge,135.0.0.0,Windows,10,https://5puzkbbxv1.cognition.run/?sona_id=57717,"en-US,en;q=0.9",mkeqc9hngy5mh1g,19 years,"[""Black or African-American""]",No,Male,"Ghana - 16 years
USA - 2 and half years",No,1080887.7000000477,NA,5463,NA,"{""product_choice"":""A""}",choice,ctd,trinary,repulsion_A,1,laptops,null,null,null,null,null,null,1,100,90,100,30,40,20,Processing speed,Memory (RAM),NA,NA
NA,NA,NA,NA,NA,choice_trial_setup,html-keyboard-response,20,123831,0.0-4.0-0.8,348,1,2025-05-09T04:05:54Z,b60275e29fe2361ab97ac0ac217840d7,"Mozilla/5.0 (Windows NT 10.0; Win64; x64) AppleWebKit/537.36 (KHTML, like Gecko) Chrome/135.0.0.0 Safari/537.36 Edg/135.0.0.0",WebKit,Edge,135.0.0.0,Windows,10,https://5puzkbbxv1.cognition.run/?sona_id=57717,"en-US,en;q=0.9",mkeqc9hngy5mh1g,19 years,"[""Black or African-American""]",No,Male,"Ghana - 16 years
USA - 2 and half years",No,1080887.7000000477,NA,null,<p></p>,null,choice,wb,binary,catch,null,televisions,65,65,25,45,null,null,2,NA,NA,NA,NA,NA,NA,NA,NA,NA,NA
NA,NA,NA,NA,NA,choice_trial,survey-html-form,21,131407,0.0-4.0-1.8,348,1,2025-05-09T04:05:54Z,b60275e29fe2361ab97ac0ac217840d7,"Mozilla/5.0 (Windows NT 10.0; Win64; x64) AppleWebKit/537.36 (KHTML, like Gecko) Chrome/135.0.0.0 Safari/537.36 Edg/135.0.0.0",WebKit,Edge,135.0.0.0,Windows,10,https://5puzkbbxv1.cognition.run/?sona_id=57717,"en-US,en;q=0.9",mkeqc9hngy5mh1g,19 years,"[""Black or African-American""]",No,Male,"Ghana - 16 years
USA - 2 and half years",No,1080887.7000000477,NA,7574,NA,"{""product_choice"":""B""}",choice,wb,binary,catch,null,televisions,65,65,25,45,null,null,2,null,null,null,null,null,null,Screen size,Average lifespan,NA,NA
NA,NA,NA,NA,NA,choice_trial_setup,html-keyboard-response,22,131709,0.0-4.0-0.9,348,1,2025-05-09T04:05:54Z,b60275e29fe2361ab97ac0ac217840d7,"Mozilla/5.0 (Windows NT 10.0; Win64; x64) AppleWebKit/537.36 (KHTML, like Gecko) Chrome/135.0.0.0 Safari/537.36 Edg/135.0.0.0",WebKit,Edge,135.0.0.0,Windows,10,https://5puzkbbxv1.cognition.run/?sona_id=57717,"en-US,en;q=0.9",mkeqc9hngy5mh1g,19 years,"[""Black or African-American""]",No,Male,"Ghana - 16 years
USA - 2 and half years",No,1080887.7000000477,NA,null,<p></p>,null,choice,ct,binary,repulsion,1,laptops,null,null,null,null,null,null,1,NA,NA,NA,NA,NA,NA,NA,NA,NA,NA
NA,NA,NA,NA,NA,choice_trial,survey-html-form,23,135608,0.0-4.0-1.9,348,1,2025-05-09T04:05:54Z,b60275e29fe2361ab97ac0ac217840d7,"Mozilla/5.0 (Windows NT 10.0; Win64; x64) AppleWebKit/537.36 (KHTML, like Gecko) Chrome/135.0.0.0 Safari/537.36 Edg/135.0.0.0",WebKit,Edge,135.0.0.0,Windows,10,https://5puzkbbxv1.cognition.run/?sona_id=57717,"en-US,en;q=0.9",mkeqc9hngy5mh1g,19 years,"[""Black or African-American""]",No,Male,"Ghana - 16 years
USA - 2 and half years",No,1080887.7000000477,NA,3897,NA,"{""product_choice"":""A""}",choice,ct,binary,repulsion,1,laptops,null,null,null,null,null,null,1,100,90,null,30,40,null,Processing speed,Memory (RAM),NA,NA
NA,NA,NA,NA,NA,choice_trial_setup,html-keyboard-response,24,135911,0.0-4.0-0.10,348,1,2025-05-09T04:05:54Z,b60275e29fe2361ab97ac0ac217840d7,"Mozilla/5.0 (Windows NT 10.0; Win64; x64) AppleWebKit/537.36 (KHTML, like Gecko) Chrome/135.0.0.0 Safari/537.36 Edg/135.0.0.0",WebKit,Edge,135.0.0.0,Windows,10,https://5puzkbbxv1.cognition.run/?sona_id=57717,"en-US,en;q=0.9",mkeqc9hngy5mh1g,19 years,"[""Black or African-American""]",No,Male,"Ghana - 16 years
USA - 2 and half years",No,1080887.7000000477,NA,null,<p></p>,null,choice,wwb,trinary,catch,null,washing machines,80,95,5,45,50,50,2,NA,NA,NA,NA,NA,NA,NA,NA,NA,NA
NA,NA,NA,NA,NA,choice_trial,survey-html-form,25,186960,0.0-4.0-1.10,348,1,2025-05-09T04:05:54Z,b60275e29fe2361ab97ac0ac217840d7,"Mozilla/5.0 (Windows NT 10.0; Win64; x64) AppleWebKit/537.36 (KHTML, like Gecko) Chrome/135.0.0.0 Safari/537.36 Edg/135.0.0.0",WebKit,Edge,135.0.0.0,Windows,10,https://5puzkbbxv1.cognition.run/?sona_id=57717,"en-US,en;q=0.9",mkeqc9hngy5mh1g,19 years,"[""Black or African-American""]",No,Male,"Ghana - 16 years
USA - 2 and half years",No,1080887.7000000477,NA,51047,NA,"{""product_choice"":""C""}",choice,wwb,trinary,catch,null,washing machines,80,95,5,45,50,50,2,null,null,null,null,null,null,Average lifespan,Energy savings,NA,NA
NA,NA,NA,NA,NA,choice_trial_setup,html-keyboard-response,26,187263,0.0-4.0-0.11,348,1,2025-05-09T04:05:54Z,b60275e29fe2361ab97ac0ac217840d7,"Mozilla/5.0 (Windows NT 10.0; Win64; x64) AppleWebKit/537.36 (KHTML, like Gecko) Chrome/135.0.0.0 Safari/537.36 Edg/135.0.0.0",WebKit,Edge,135.0.0.0,Windows,10,https://5puzkbbxv1.cognition.run/?sona_id=57717,"en-US,en;q=0.9",mkeqc9hngy5mh1g,19 years,"[""Black or African-American""]",No,Male,"Ghana - 16 years
USA - 2 and half years",No,1080887.7000000477,NA,null,<p></p>,null,choice,tc,binary,repulsion,2,televisions,null,null,null,null,null,null,2,NA,NA,NA,NA,NA,NA,NA,NA,NA,NA
NA,NA,NA,NA,NA,choice_trial,survey-html-form,27,193329,0.0-4.0-1.11,348,1,2025-05-09T04:05:54Z,b60275e29fe2361ab97ac0ac217840d7,"Mozilla/5.0 (Windows NT 10.0; Win64; x64) AppleWebKit/537.36 (KHTML, like Gecko) Chrome/135.0.0.0 Safari/537.36 Edg/135.0.0.0",WebKit,Edge,135.0.0.0,Windows,10,https://5puzkbbxv1.cognition.run/?sona_id=57717,"en-US,en;q=0.9",mkeqc9hngy5mh1g,19 years,"[""Black or African-American""]",No,Male,"Ghana - 16 years
USA - 2 and half years",No,1080887.7000000477,NA,6063,NA,"{""product_choice"":""A""}",choice,tc,binary,repulsion,2,televisions,null,null,null,null,null,null,2,30,40,null,100,90,null,Screen size,Average lifespan,NA,NA
NA,NA,NA,NA,NA,choice_trial_setup,html-keyboard-response,28,193631,0.0-4.0-0.12,348,1,2025-05-09T04:05:54Z,b60275e29fe2361ab97ac0ac217840d7,"Mozilla/5.0 (Windows NT 10.0; Win64; x64) AppleWebKit/537.36 (KHTML, like Gecko) Chrome/135.0.0.0 Safari/537.36 Edg/135.0.0.0",WebKit,Edge,135.0.0.0,Windows,10,https://5puzkbbxv1.cognition.run/?sona_id=57717,"en-US,en;q=0.9",mkeqc9hngy5mh1g,19 years,"[""Black or African-American""]",No,Male,"Ghana - 16 years
USA - 2 and half years",No,1080887.7000000477,NA,null,<p></p>,null,choice,ctd,trinary,repulsion_B,1,washing machines,null,null,null,null,null,null,1,NA,NA,NA,NA,NA,NA,NA,NA,NA,NA
NA,NA,NA,NA,NA,choice_trial,survey-html-form,29,205382,0.0-4.0-1.12,348,1,2025-05-09T04:05:54Z,b60275e29fe2361ab97ac0ac217840d7,"Mozilla/5.0 (Windows NT 10.0; Win64; x64) AppleWebKit/537.36 (KHTML, like Gecko) Chrome/135.0.0.0 Safari/537.36 Edg/135.0.0.0",WebKit,Edge,135.0.0.0,Windows,10,https://5puzkbbxv1.cognition.run/?sona_id=57717,"en-US,en;q=0.9",mkeqc9hngy5mh1g,19 years,"[""Black or African-American""]",No,Male,"Ghana - 16 years
USA - 2 and half years",No,1080887.7000000477,NA,11748,NA,"{""product_choice"":""B""}",choice,ctd,trinary,repulsion_B,1,washing machines,null,null,null,null,null,null,1,90,100,80,40,30,40,Average lifespan,Energy savings,NA,NA
NA,NA,NA,NA,NA,choice_trial_setup,html-keyboard-response,30,205684,0.0-4.0-0.13,348,1,2025-05-09T04:05:54Z,b60275e29fe2361ab97ac0ac217840d7,"Mozilla/5.0 (Windows NT 10.0; Win64; x64) AppleWebKit/537.36 (KHTML, like Gecko) Chrome/135.0.0.0 Safari/537.36 Edg/135.0.0.0",WebKit,Edge,135.0.0.0,Windows,10,https://5puzkbbxv1.cognition.run/?sona_id=57717,"en-US,en;q=0.9",mkeqc9hngy5mh1g,19 years,"[""Black or African-American""]",No,Male,"Ghana - 16 years
USA - 2 and half years",No,1080887.7000000477,NA,null,<p></p>,null,choice,dct,trinary,repulsion_A,2,televisions,null,null,null,null,null,null,2,NA,NA,NA,NA,NA,NA,NA,NA,NA,NA
NA,NA,NA,NA,NA,choice_trial,survey-html-form,31,214311,0.0-4.0-1.13,348,1,2025-05-09T04:05:54Z,b60275e29fe2361ab97ac0ac217840d7,"Mozilla/5.0 (Windows NT 10.0; Win64; x64) AppleWebKit/537.36 (KHTML, like Gecko) Chrome/135.0.0.0 Safari/537.36 Edg/135.0.0.0",WebKit,Edge,135.0.0.0,Windows,10,https://5puzkbbxv1.cognition.run/?sona_id=57717,"en-US,en;q=0.9",mkeqc9hngy5mh1g,19 years,"[""Black or African-American""]",No,Male,"Ghana - 16 years
USA - 2 and half years",No,1080887.7000000477,NA,8624,NA,"{""product_choice"":""B""}",choice,dct,trinary,repulsion_A,2,televisions,null,null,null,null,null,null,2,30,40,20,100,90,100,Screen size,Average lifespan,NA,NA
NA,NA,NA,NA,NA,choice_trial_setup,html-keyboard-response,32,214613,0.0-4.0-0.14,348,1,2025-05-09T04:05:54Z,b60275e29fe2361ab97ac0ac217840d7,"Mozilla/5.0 (Windows NT 10.0; Win64; x64) AppleWebKit/537.36 (KHTML, like Gecko) Chrome/135.0.0.0 Safari/537.36 Edg/135.0.0.0",WebKit,Edge,135.0.0.0,Windows,10,https://5puzkbbxv1.cognition.run/?sona_id=57717,"en-US,en;q=0.9",mkeqc9hngy5mh1g,19 years,"[""Black or African-American""]",No,Male,"Ghana - 16 years
USA - 2 and half years",No,1080887.7000000477,NA,null,<p></p>,null,choice,tc,binary,attraction,NA,washing machines,null,null,null,null,null,null,2,NA,NA,NA,NA,NA,NA,NA,NA,NA,NA
NA,NA,NA,NA,NA,choice_trial,survey-html-form,33,221566,0.0-4.0-1.14,348,1,2025-05-09T04:05:54Z,b60275e29fe2361ab97ac0ac217840d7,"Mozilla/5.0 (Windows NT 10.0; Win64; x64) AppleWebKit/537.36 (KHTML, like Gecko) Chrome/135.0.0.0 Safari/537.36 Edg/135.0.0.0",WebKit,Edge,135.0.0.0,Windows,10,https://5puzkbbxv1.cognition.run/?sona_id=57717,"en-US,en;q=0.9",mkeqc9hngy5mh1g,19 years,"[""Black or African-American""]",No,Male,"Ghana - 16 years
USA - 2 and half years",No,1080887.7000000477,NA,6951,NA,"{""product_choice"":""A""}",choice,tc,binary,attraction,NA,washing machines,null,null,null,null,null,null,2,60,50,null,50,60,null,Average lifespan,Energy savings,NA,NA
NA,NA,NA,NA,NA,choice_trial_setup,html-keyboard-response,34,221869,0.0-4.0-0.15,348,1,2025-05-09T04:05:54Z,b60275e29fe2361ab97ac0ac217840d7,"Mozilla/5.0 (Windows NT 10.0; Win64; x64) AppleWebKit/537.36 (KHTML, like Gecko) Chrome/135.0.0.0 Safari/537.36 Edg/135.0.0.0",WebKit,Edge,135.0.0.0,Windows,10,https://5puzkbbxv1.cognition.run/?sona_id=57717,"en-US,en;q=0.9",mkeqc9hngy5mh1g,19 years,"[""Black or African-American""]",No,Male,"Ghana - 16 years
USA - 2 and half years",No,1080887.7000000477,NA,null,<p></p>,null,choice,tdc,trinary,repulsion_A,2,microwave ovens,null,null,null,null,null,null,2,NA,NA,NA,NA,NA,NA,NA,NA,NA,NA
NA,NA,NA,NA,NA,choice_trial,survey-html-form,35,229950,0.0-4.0-1.15,348,1,2025-05-09T04:05:54Z,b60275e29fe2361ab97ac0ac217840d7,"Mozilla/5.0 (Windows NT 10.0; Win64; x64) AppleWebKit/537.36 (KHTML, like Gecko) Chrome/135.0.0.0 Safari/537.36 Edg/135.0.0.0",WebKit,Edge,135.0.0.0,Windows,10,https://5puzkbbxv1.cognition.run/?sona_id=57717,"en-US,en;q=0.9",mkeqc9hngy5mh1g,19 years,"[""Black or African-American""]",No,Male,"Ghana - 16 years
USA - 2 and half years",No,1080887.7000000477,NA,8079,NA,"{""product_choice"":""C""}",choice,tdc,trinary,repulsion_A,2,microwave ovens,null,null,null,null,null,null,2,30,40,20,100,90,100,Warranty,Cooking power,NA,NA
NA,NA,NA,NA,NA,choice_trial_setup,html-keyboard-response,36,230252,0.0-4.0-0.16,348,1,2025-05-09T04:05:54Z,b60275e29fe2361ab97ac0ac217840d7,"Mozilla/5.0 (Windows NT 10.0; Win64; x64) AppleWebKit/537.36 (KHTML, like Gecko) Chrome/135.0.0.0 Safari/537.36 Edg/135.0.0.0",WebKit,Edge,135.0.0.0,Windows,10,https://5puzkbbxv1.cognition.run/?sona_id=57717,"en-US,en;q=0.9",mkeqc9hngy5mh1g,19 years,"[""Black or African-American""]",No,Male,"Ghana - 16 years
USA - 2 and half years",No,1080887.7000000477,NA,null,<p></p>,null,choice,tc,binary,repulsion,1,washing machines,null,null,null,null,null,null,1,NA,NA,NA,NA,NA,NA,NA,NA,NA,NA
NA,NA,NA,NA,NA,choice_trial,survey-html-form,37,325970,0.0-4.0-1.16,348,1,2025-05-09T04:05:54Z,b60275e29fe2361ab97ac0ac217840d7,"Mozilla/5.0 (Windows NT 10.0; Win64; x64) AppleWebKit/537.36 (KHTML, like Gecko) Chrome/135.0.0.0 Safari/537.36 Edg/135.0.0.0",WebKit,Edge,135.0.0.0,Windows,10,https://5puzkbbxv1.cognition.run/?sona_id=57717,"en-US,en;q=0.9",mkeqc9hngy5mh1g,19 years,"[""Black or African-American""]",No,Male,"Ghana - 16 years
USA - 2 and half years",No,1080887.7000000477,NA,95715,NA,"{""product_choice"":""B""}",choice,tc,binary,repulsion,1,washing machines,null,null,null,null,null,null,1,100,90,null,30,40,null,Average lifespan,Energy savings,NA,NA
NA,NA,NA,NA,NA,choice_trial_setup,html-keyboard-response,38,326273,0.0-4.0-0.17,348,1,2025-05-09T04:05:54Z,b60275e29fe2361ab97ac0ac217840d7,"Mozilla/5.0 (Windows NT 10.0; Win64; x64) AppleWebKit/537.36 (KHTML, like Gecko) Chrome/135.0.0.0 Safari/537.36 Edg/135.0.0.0",WebKit,Edge,135.0.0.0,Windows,10,https://5puzkbbxv1.cognition.run/?sona_id=57717,"en-US,en;q=0.9",mkeqc9hngy5mh1g,19 years,"[""Black or African-American""]",No,Male,"Ghana - 16 years
USA - 2 and half years",No,1080887.7000000477,NA,null,<p></p>,null,choice,wbw,trinary,catch,null,televisions,50,80,5,10,30,30,2,NA,NA,NA,NA,NA,NA,NA,NA,NA,NA
NA,NA,NA,NA,NA,choice_trial,survey-html-form,39,362096,0.0-4.0-1.17,348,1,2025-05-09T04:05:54Z,b60275e29fe2361ab97ac0ac217840d7,"Mozilla/5.0 (Windows NT 10.0; Win64; x64) AppleWebKit/537.36 (KHTML, like Gecko) Chrome/135.0.0.0 Safari/537.36 Edg/135.0.0.0",WebKit,Edge,135.0.0.0,Windows,10,https://5puzkbbxv1.cognition.run/?sona_id=57717,"en-US,en;q=0.9",mkeqc9hngy5mh1g,19 years,"[""Black or African-American""]",No,Male,"Ghana - 16 years
USA - 2 and half years",No,1080887.7000000477,NA,35820,NA,"{""product_choice"":""B""}",choice,wbw,trinary,catch,null,televisions,50,80,5,10,30,30,2,null,null,null,null,null,null,Screen size,Average lifespan,NA,NA
NA,NA,NA,NA,NA,choice_trial_setup,html-keyboard-response,40,362398,0.0-4.0-0.18,348,1,2025-05-09T04:05:54Z,b60275e29fe2361ab97ac0ac217840d7,"Mozilla/5.0 (Windows NT 10.0; Win64; x64) AppleWebKit/537.36 (KHTML, like Gecko) Chrome/135.0.0.0 Safari/537.36 Edg/135.0.0.0",WebKit,Edge,135.0.0.0,Windows,10,https://5puzkbbxv1.cognition.run/?sona_id=57717,"en-US,en;q=0.9",mkeqc9hngy5mh1g,19 years,"[""Black or African-American""]",No,Male,"Ghana - 16 years
USA - 2 and half years",No,1080887.7000000477,NA,null,<p></p>,null,choice,cdt,trinary,repulsion_B,2,televisions,null,null,null,null,null,null,2,NA,NA,NA,NA,NA,NA,NA,NA,NA,NA
NA,NA,NA,NA,NA,choice_trial,survey-html-form,41,420834,0.0-4.0-1.18,348,1,2025-05-09T04:05:54Z,b60275e29fe2361ab97ac0ac217840d7,"Mozilla/5.0 (Windows NT 10.0; Win64; x64) AppleWebKit/537.36 (KHTML, like Gecko) Chrome/135.0.0.0 Safari/537.36 Edg/135.0.0.0",WebKit,Edge,135.0.0.0,Windows,10,https://5puzkbbxv1.cognition.run/?sona_id=57717,"en-US,en;q=0.9",mkeqc9hngy5mh1g,19 years,"[""Black or African-American""]",No,Male,"Ghana - 16 years
USA - 2 and half years",No,1080887.7000000477,NA,58433,NA,"{""product_choice"":""C""}",choice,cdt,trinary,repulsion_B,2,televisions,null,null,null,null,null,null,2,40,30,40,90,100,80,Screen size,Average lifespan,NA,NA
NA,NA,NA,NA,NA,choice_trial_setup,html-keyboard-response,42,421138,0.0-4.0-0.19,348,1,2025-05-09T04:05:54Z,b60275e29fe2361ab97ac0ac217840d7,"Mozilla/5.0 (Windows NT 10.0; Win64; x64) AppleWebKit/537.36 (KHTML, like Gecko) Chrome/135.0.0.0 Safari/537.36 Edg/135.0.0.0",WebKit,Edge,135.0.0.0,Windows,10,https://5puzkbbxv1.cognition.run/?sona_id=57717,"en-US,en;q=0.9",mkeqc9hngy5mh1g,19 years,"[""Black or African-American""]",No,Male,"Ghana - 16 years
USA - 2 and half years",No,1080887.7000000477,NA,null,<p></p>,null,choice,dtc,trinary,repulsion_B,2,washing machines,null,null,null,null,null,null,2,NA,NA,NA,NA,NA,NA,NA,NA,NA,NA
NA,NA,NA,NA,NA,choice_trial,survey-html-form,43,425737,0.0-4.0-1.19,348,1,2025-05-09T04:05:54Z,b60275e29fe2361ab97ac0ac217840d7,"Mozilla/5.0 (Windows NT 10.0; Win64; x64) AppleWebKit/537.36 (KHTML, like Gecko) Chrome/135.0.0.0 Safari/537.36 Edg/135.0.0.0",WebKit,Edge,135.0.0.0,Windows,10,https://5puzkbbxv1.cognition.run/?sona_id=57717,"en-US,en;q=0.9",mkeqc9hngy5mh1g,19 years,"[""Black or African-American""]",No,Male,"Ghana - 16 years
USA - 2 and half years",No,1080887.7000000477,NA,4597,NA,"{""product_choice"":""B""}",choice,dtc,trinary,repulsion_B,2,washing machines,null,null,null,null,null,null,2,40,30,40,90,100,80,Average lifespan,Energy savings,NA,NA
NA,NA,NA,NA,NA,choice_trial_setup,html-keyboard-response,44,426039,0.0-4.0-0.20,348,1,2025-05-09T04:05:54Z,b60275e29fe2361ab97ac0ac217840d7,"Mozilla/5.0 (Windows NT 10.0; Win64; x64) AppleWebKit/537.36 (KHTML, like Gecko) Chrome/135.0.0.0 Safari/537.36 Edg/135.0.0.0",WebKit,Edge,135.0.0.0,Windows,10,https://5puzkbbxv1.cognition.run/?sona_id=57717,"en-US,en;q=0.9",mkeqc9hngy5mh1g,19 years,"[""Black or African-American""]",No,Male,"Ghana - 16 years
USA - 2 and half years",No,1080887.7000000477,NA,null,<p></p>,null,choice,ctd,trinary,attraction,1,laptops,null,null,null,null,null,null,1,NA,NA,NA,NA,NA,NA,NA,NA,NA,NA
NA,NA,NA,NA,NA,choice_trial,survey-html-form,45,450241,0.0-4.0-1.20,348,1,2025-05-09T04:05:54Z,b60275e29fe2361ab97ac0ac217840d7,"Mozilla/5.0 (Windows NT 10.0; Win64; x64) AppleWebKit/537.36 (KHTML, like Gecko) Chrome/135.0.0.0 Safari/537.36 Edg/135.0.0.0",WebKit,Edge,135.0.0.0,Windows,10,https://5puzkbbxv1.cognition.run/?sona_id=57717,"en-US,en;q=0.9",mkeqc9hngy5mh1g,19 years,"[""Black or African-American""]",No,Male,"Ghana - 16 years
USA - 2 and half years",No,1080887.7000000477,NA,24199,NA,"{""product_choice"":""B""}",choice,ctd,trinary,attraction,1,laptops,null,null,null,null,null,null,1,60,50,60,50,60,40,Processing speed,Memory (RAM),NA,NA
NA,NA,NA,NA,NA,choice_trial_setup,html-keyboard-response,46,450544,0.0-4.0-0.21,348,1,2025-05-09T04:05:54Z,b60275e29fe2361ab97ac0ac217840d7,"Mozilla/5.0 (Windows NT 10.0; Win64; x64) AppleWebKit/537.36 (KHTML, like Gecko) Chrome/135.0.0.0 Safari/537.36 Edg/135.0.0.0",WebKit,Edge,135.0.0.0,Windows,10,https://5puzkbbxv1.cognition.run/?sona_id=57717,"en-US,en;q=0.9",mkeqc9hngy5mh1g,19 years,"[""Black or African-American""]",No,Male,"Ghana - 16 years
USA - 2 and half years",No,1080887.7000000477,NA,null,<p></p>,null,choice,dct,trinary,attraction,1,washing machines,null,null,null,null,null,null,1,NA,NA,NA,NA,NA,NA,NA,NA,NA,NA
NA,NA,NA,NA,NA,choice_trial,survey-html-form,47,463099,0.0-4.0-1.21,348,1,2025-05-09T04:05:54Z,b60275e29fe2361ab97ac0ac217840d7,"Mozilla/5.0 (Windows NT 10.0; Win64; x64) AppleWebKit/537.36 (KHTML, like Gecko) Chrome/135.0.0.0 Safari/537.36 Edg/135.0.0.0",WebKit,Edge,135.0.0.0,Windows,10,https://5puzkbbxv1.cognition.run/?sona_id=57717,"en-US,en;q=0.9",mkeqc9hngy5mh1g,19 years,"[""Black or African-American""]",No,Male,"Ghana - 16 years
USA - 2 and half years",No,1080887.7000000477,NA,12553,NA,"{""product_choice"":""C""}",choice,dct,trinary,attraction,1,washing machines,null,null,null,null,null,null,1,60,50,60,50,60,40,Average lifespan,Energy savings,NA,NA
NA,NA,NA,NA,NA,choice_trial_setup,html-keyboard-response,48,463403,0.0-4.0-0.22,348,1,2025-05-09T04:05:54Z,b60275e29fe2361ab97ac0ac217840d7,"Mozilla/5.0 (Windows NT 10.0; Win64; x64) AppleWebKit/537.36 (KHTML, like Gecko) Chrome/135.0.0.0 Safari/537.36 Edg/135.0.0.0",WebKit,Edge,135.0.0.0,Windows,10,https://5puzkbbxv1.cognition.run/?sona_id=57717,"en-US,en;q=0.9",mkeqc9hngy5mh1g,19 years,"[""Black or African-American""]",No,Male,"Ghana - 16 years
USA - 2 and half years",No,1080887.7000000477,NA,null,<p></p>,null,choice,ctd,trinary,repulsion_B,2,microwave ovens,null,null,null,null,null,null,2,NA,NA,NA,NA,NA,NA,NA,NA,NA,NA
NA,NA,NA,NA,NA,choice_trial,survey-html-form,49,488939,0.0-4.0-1.22,348,1,2025-05-09T04:05:54Z,b60275e29fe2361ab97ac0ac217840d7,"Mozilla/5.0 (Windows NT 10.0; Win64; x64) AppleWebKit/537.36 (KHTML, like Gecko) Chrome/135.0.0.0 Safari/537.36 Edg/135.0.0.0",WebKit,Edge,135.0.0.0,Windows,10,https://5puzkbbxv1.cognition.run/?sona_id=57717,"en-US,en;q=0.9",mkeqc9hngy5mh1g,19 years,"[""Black or African-American""]",No,Male,"Ghana - 16 years
USA - 2 and half years",No,1080887.7000000477,NA,25534,NA,"{""product_choice"":""B""}",choice,ctd,trinary,repulsion_B,2,microwave ovens,null,null,null,null,null,null,2,40,30,40,90,100,80,Warranty,Cooking power,NA,NA
NA,NA,NA,NA,NA,choice_trial_setup,html-keyboard-response,50,489243,0.0-4.0-0.23,348,1,2025-05-09T04:05:54Z,b60275e29fe2361ab97ac0ac217840d7,"Mozilla/5.0 (Windows NT 10.0; Win64; x64) AppleWebKit/537.36 (KHTML, like Gecko) Chrome/135.0.0.0 Safari/537.36 Edg/135.0.0.0",WebKit,Edge,135.0.0.0,Windows,10,https://5puzkbbxv1.cognition.run/?sona_id=57717,"en-US,en;q=0.9",mkeqc9hngy5mh1g,19 years,"[""Black or African-American""]",No,Male,"Ghana - 16 years
USA - 2 and half years",No,1080887.7000000477,NA,null,<p></p>,null,choice,ctd,trinary,attraction,1,televisions,null,null,null,null,null,null,1,NA,NA,NA,NA,NA,NA,NA,NA,NA,NA
NA,NA,NA,NA,NA,choice_trial,survey-html-form,51,497832,0.0-4.0-1.23,348,1,2025-05-09T04:05:54Z,b60275e29fe2361ab97ac0ac217840d7,"Mozilla/5.0 (Windows NT 10.0; Win64; x64) AppleWebKit/537.36 (KHTML, like Gecko) Chrome/135.0.0.0 Safari/537.36 Edg/135.0.0.0",WebKit,Edge,135.0.0.0,Windows,10,https://5puzkbbxv1.cognition.run/?sona_id=57717,"en-US,en;q=0.9",mkeqc9hngy5mh1g,19 years,"[""Black or African-American""]",No,Male,"Ghana - 16 years
USA - 2 and half years",No,1080887.7000000477,NA,8586,NA,"{""product_choice"":""A""}",choice,ctd,trinary,attraction,1,televisions,null,null,null,null,null,null,1,60,50,60,50,60,40,Screen size,Average lifespan,NA,NA
NA,NA,NA,NA,NA,choice_trial_setup,html-keyboard-response,52,498135,0.0-4.0-0.24,348,1,2025-05-09T04:05:54Z,b60275e29fe2361ab97ac0ac217840d7,"Mozilla/5.0 (Windows NT 10.0; Win64; x64) AppleWebKit/537.36 (KHTML, like Gecko) Chrome/135.0.0.0 Safari/537.36 Edg/135.0.0.0",WebKit,Edge,135.0.0.0,Windows,10,https://5puzkbbxv1.cognition.run/?sona_id=57717,"en-US,en;q=0.9",mkeqc9hngy5mh1g,19 years,"[""Black or African-American""]",No,Male,"Ghana - 16 years
USA - 2 and half years",No,1080887.7000000477,NA,null,<p></p>,null,choice,tc,binary,repulsion,2,laptops,null,null,null,null,null,null,1,NA,NA,NA,NA,NA,NA,NA,NA,NA,NA
NA,NA,NA,NA,NA,choice_trial,survey-html-form,53,503296,0.0-4.0-1.24,348,1,2025-05-09T04:05:54Z,b60275e29fe2361ab97ac0ac217840d7,"Mozilla/5.0 (Windows NT 10.0; Win64; x64) AppleWebKit/537.36 (KHTML, like Gecko) Chrome/135.0.0.0 Safari/537.36 Edg/135.0.0.0",WebKit,Edge,135.0.0.0,Windows,10,https://5puzkbbxv1.cognition.run/?sona_id=57717,"en-US,en;q=0.9",mkeqc9hngy5mh1g,19 years,"[""Black or African-American""]",No,Male,"Ghana - 16 years
USA - 2 and half years",No,1080887.7000000477,NA,5159,NA,"{""product_choice"":""B""}",choice,tc,binary,repulsion,2,laptops,null,null,null,null,null,null,1,30,40,null,100,90,null,Processing speed,Memory (RAM),NA,NA
NA,NA,NA,NA,NA,choice_trial_setup,html-keyboard-response,54,503598,0.0-4.0-0.25,348,1,2025-05-09T04:05:54Z,b60275e29fe2361ab97ac0ac217840d7,"Mozilla/5.0 (Windows NT 10.0; Win64; x64) AppleWebKit/537.36 (KHTML, like Gecko) Chrome/135.0.0.0 Safari/537.36 Edg/135.0.0.0",WebKit,Edge,135.0.0.0,Windows,10,https://5puzkbbxv1.cognition.run/?sona_id=57717,"en-US,en;q=0.9",mkeqc9hngy5mh1g,19 years,"[""Black or African-American""]",No,Male,"Ghana - 16 years
USA - 2 and half years",No,1080887.7000000477,NA,null,<p></p>,null,choice,dct,trinary,attraction,2,microwave ovens,null,null,null,null,null,null,1,NA,NA,NA,NA,NA,NA,NA,NA,NA,NA
NA,NA,NA,NA,NA,choice_trial,survey-html-form,55,571991,0.0-4.0-1.25,348,1,2025-05-09T04:05:54Z,b60275e29fe2361ab97ac0ac217840d7,"Mozilla/5.0 (Windows NT 10.0; Win64; x64) AppleWebKit/537.36 (KHTML, like Gecko) Chrome/135.0.0.0 Safari/537.36 Edg/135.0.0.0",WebKit,Edge,135.0.0.0,Windows,10,https://5puzkbbxv1.cognition.run/?sona_id=57717,"en-US,en;q=0.9",mkeqc9hngy5mh1g,19 years,"[""Black or African-American""]",No,Male,"Ghana - 16 years
USA - 2 and half years",No,1080887.7000000477,NA,68391,NA,"{""product_choice"":""C""}",choice,dct,trinary,attraction,2,microwave ovens,null,null,null,null,null,null,1,50,60,40,60,50,60,Warranty,Cooking power,NA,NA
NA,NA,NA,NA,NA,choice_trial_setup,html-keyboard-response,56,572295,0.0-4.0-0.26,348,1,2025-05-09T04:05:54Z,b60275e29fe2361ab97ac0ac217840d7,"Mozilla/5.0 (Windows NT 10.0; Win64; x64) AppleWebKit/537.36 (KHTML, like Gecko) Chrome/135.0.0.0 Safari/537.36 Edg/135.0.0.0",WebKit,Edge,135.0.0.0,Windows,10,https://5puzkbbxv1.cognition.run/?sona_id=57717,"en-US,en;q=0.9",mkeqc9hngy5mh1g,19 years,"[""Black or African-American""]",No,Male,"Ghana - 16 years
USA - 2 and half years",No,1080887.7000000477,NA,null,<p></p>,null,choice,wb,binary,catch,null,laptops,50,90,20,50,null,null,1,NA,NA,NA,NA,NA,NA,NA,NA,NA,NA
NA,NA,NA,NA,NA,choice_trial,survey-html-form,57,576836,0.0-4.0-1.26,348,1,2025-05-09T04:05:54Z,b60275e29fe2361ab97ac0ac217840d7,"Mozilla/5.0 (Windows NT 10.0; Win64; x64) AppleWebKit/537.36 (KHTML, like Gecko) Chrome/135.0.0.0 Safari/537.36 Edg/135.0.0.0",WebKit,Edge,135.0.0.0,Windows,10,https://5puzkbbxv1.cognition.run/?sona_id=57717,"en-US,en;q=0.9",mkeqc9hngy5mh1g,19 years,"[""Black or African-American""]",No,Male,"Ghana - 16 years
USA - 2 and half years",No,1080887.7000000477,NA,4539,NA,"{""product_choice"":""B""}",choice,wb,binary,catch,null,laptops,50,90,20,50,null,null,1,null,null,null,null,null,null,Processing speed,Memory (RAM),NA,NA
NA,NA,NA,NA,NA,choice_trial_setup,html-keyboard-response,58,577139,0.0-4.0-0.27,348,1,2025-05-09T04:05:54Z,b60275e29fe2361ab97ac0ac217840d7,"Mozilla/5.0 (Windows NT 10.0; Win64; x64) AppleWebKit/537.36 (KHTML, like Gecko) Chrome/135.0.0.0 Safari/537.36 Edg/135.0.0.0",WebKit,Edge,135.0.0.0,Windows,10,https://5puzkbbxv1.cognition.run/?sona_id=57717,"en-US,en;q=0.9",mkeqc9hngy5mh1g,19 years,"[""Black or African-American""]",No,Male,"Ghana - 16 years
USA - 2 and half years",No,1080887.7000000477,NA,null,<p></p>,null,choice,tdc,trinary,repulsion_A,1,televisions,null,null,null,null,null,null,2,NA,NA,NA,NA,NA,NA,NA,NA,NA,NA
NA,NA,NA,NA,NA,choice_trial,survey-html-form,59,580532,0.0-4.0-1.27,348,1,2025-05-09T04:05:54Z,b60275e29fe2361ab97ac0ac217840d7,"Mozilla/5.0 (Windows NT 10.0; Win64; x64) AppleWebKit/537.36 (KHTML, like Gecko) Chrome/135.0.0.0 Safari/537.36 Edg/135.0.0.0",WebKit,Edge,135.0.0.0,Windows,10,https://5puzkbbxv1.cognition.run/?sona_id=57717,"en-US,en;q=0.9",mkeqc9hngy5mh1g,19 years,"[""Black or African-American""]",No,Male,"Ghana - 16 years
USA - 2 and half years",No,1080887.7000000477,NA,3388,NA,"{""product_choice"":""C""}",choice,tdc,trinary,repulsion_A,1,televisions,null,null,null,null,null,null,2,100,90,100,30,40,20,Screen size,Average lifespan,NA,NA
NA,NA,NA,NA,NA,choice_trial_setup,html-keyboard-response,60,580835,0.0-4.0-0.28,348,1,2025-05-09T04:05:54Z,b60275e29fe2361ab97ac0ac217840d7,"Mozilla/5.0 (Windows NT 10.0; Win64; x64) AppleWebKit/537.36 (KHTML, like Gecko) Chrome/135.0.0.0 Safari/537.36 Edg/135.0.0.0",WebKit,Edge,135.0.0.0,Windows,10,https://5puzkbbxv1.cognition.run/?sona_id=57717,"en-US,en;q=0.9",mkeqc9hngy5mh1g,19 years,"[""Black or African-American""]",No,Male,"Ghana - 16 years
USA - 2 and half years",No,1080887.7000000477,NA,null,<p></p>,null,choice,tdc,trinary,attraction,2,televisions,null,null,null,null,null,null,1,NA,NA,NA,NA,NA,NA,NA,NA,NA,NA
NA,NA,NA,NA,NA,choice_trial,survey-html-form,61,585477,0.0-4.0-1.28,348,1,2025-05-09T04:05:54Z,b60275e29fe2361ab97ac0ac217840d7,"Mozilla/5.0 (Windows NT 10.0; Win64; x64) AppleWebKit/537.36 (KHTML, like Gecko) Chrome/135.0.0.0 Safari/537.36 Edg/135.0.0.0",WebKit,Edge,135.0.0.0,Windows,10,https://5puzkbbxv1.cognition.run/?sona_id=57717,"en-US,en;q=0.9",mkeqc9hngy5mh1g,19 years,"[""Black or African-American""]",No,Male,"Ghana - 16 years
USA - 2 and half years",No,1080887.7000000477,NA,4640,NA,"{""product_choice"":""A""}",choice,tdc,trinary,attraction,2,televisions,null,null,null,null,null,null,1,50,60,40,60,50,60,Screen size,Average lifespan,NA,NA
NA,NA,NA,NA,NA,choice_trial_setup,html-keyboard-response,62,585781,0.0-4.0-0.29,348,1,2025-05-09T04:05:54Z,b60275e29fe2361ab97ac0ac217840d7,"Mozilla/5.0 (Windows NT 10.0; Win64; x64) AppleWebKit/537.36 (KHTML, like Gecko) Chrome/135.0.0.0 Safari/537.36 Edg/135.0.0.0",WebKit,Edge,135.0.0.0,Windows,10,https://5puzkbbxv1.cognition.run/?sona_id=57717,"en-US,en;q=0.9",mkeqc9hngy5mh1g,19 years,"[""Black or African-American""]",No,Male,"Ghana - 16 years
USA - 2 and half years",No,1080887.7000000477,NA,null,<p></p>,null,choice,ct,binary,repulsion,2,microwave ovens,null,null,null,null,null,null,1,NA,NA,NA,NA,NA,NA,NA,NA,NA,NA
NA,NA,NA,NA,NA,choice_trial,survey-html-form,63,592358,0.0-4.0-1.29,348,1,2025-05-09T04:05:54Z,b60275e29fe2361ab97ac0ac217840d7,"Mozilla/5.0 (Windows NT 10.0; Win64; x64) AppleWebKit/537.36 (KHTML, like Gecko) Chrome/135.0.0.0 Safari/537.36 Edg/135.0.0.0",WebKit,Edge,135.0.0.0,Windows,10,https://5puzkbbxv1.cognition.run/?sona_id=57717,"en-US,en;q=0.9",mkeqc9hngy5mh1g,19 years,"[""Black or African-American""]",No,Male,"Ghana - 16 years
USA - 2 and half years",No,1080887.7000000477,NA,6574,NA,"{""product_choice"":""B""}",choice,ct,binary,repulsion,2,microwave ovens,null,null,null,null,null,null,1,30,40,null,100,90,null,Warranty,Cooking power,NA,NA
NA,NA,NA,NA,NA,choice_trial_setup,html-keyboard-response,64,592661,0.0-4.0-0.30,348,1,2025-05-09T04:05:54Z,b60275e29fe2361ab97ac0ac217840d7,"Mozilla/5.0 (Windows NT 10.0; Win64; x64) AppleWebKit/537.36 (KHTML, like Gecko) Chrome/135.0.0.0 Safari/537.36 Edg/135.0.0.0",WebKit,Edge,135.0.0.0,Windows,10,https://5puzkbbxv1.cognition.run/?sona_id=57717,"en-US,en;q=0.9",mkeqc9hngy5mh1g,19 years,"[""Black or African-American""]",No,Male,"Ghana - 16 years
USA - 2 and half years",No,1080887.7000000477,NA,null,<p></p>,null,choice,wwb,trinary,catch,null,laptops,65,70,25,50,35,30,1,NA,NA,NA,NA,NA,NA,NA,NA,NA,NA
NA,NA,NA,NA,NA,choice_trial,survey-html-form,65,598032,0.0-4.0-1.30,348,1,2025-05-09T04:05:54Z,b60275e29fe2361ab97ac0ac217840d7,"Mozilla/5.0 (Windows NT 10.0; Win64; x64) AppleWebKit/537.36 (KHTML, like Gecko) Chrome/135.0.0.0 Safari/537.36 Edg/135.0.0.0",WebKit,Edge,135.0.0.0,Windows,10,https://5puzkbbxv1.cognition.run/?sona_id=57717,"en-US,en;q=0.9",mkeqc9hngy5mh1g,19 years,"[""Black or African-American""]",No,Male,"Ghana - 16 years
USA - 2 and half years",No,1080887.7000000477,NA,5368,NA,"{""product_choice"":""C""}",choice,wwb,trinary,catch,null,laptops,65,70,25,50,35,30,1,null,null,null,null,null,null,Processing speed,Memory (RAM),NA,NA
NA,NA,NA,NA,NA,choice_trial_setup,html-keyboard-response,66,598335,0.0-4.0-0.31,348,1,2025-05-09T04:05:54Z,b60275e29fe2361ab97ac0ac217840d7,"Mozilla/5.0 (Windows NT 10.0; Win64; x64) AppleWebKit/537.36 (KHTML, like Gecko) Chrome/135.0.0.0 Safari/537.36 Edg/135.0.0.0",WebKit,Edge,135.0.0.0,Windows,10,https://5puzkbbxv1.cognition.run/?sona_id=57717,"en-US,en;q=0.9",mkeqc9hngy5mh1g,19 years,"[""Black or African-American""]",No,Male,"Ghana - 16 years
USA - 2 and half years",No,1080887.7000000477,NA,null,<p></p>,null,choice,dtc,trinary,repulsion_A,2,laptops,null,null,null,null,null,null,1,NA,NA,NA,NA,NA,NA,NA,NA,NA,NA
NA,NA,NA,NA,NA,choice_trial,survey-html-form,67,601022,0.0-4.0-1.31,348,1,2025-05-09T04:05:54Z,b60275e29fe2361ab97ac0ac217840d7,"Mozilla/5.0 (Windows NT 10.0; Win64; x64) AppleWebKit/537.36 (KHTML, like Gecko) Chrome/135.0.0.0 Safari/537.36 Edg/135.0.0.0",WebKit,Edge,135.0.0.0,Windows,10,https://5puzkbbxv1.cognition.run/?sona_id=57717,"en-US,en;q=0.9",mkeqc9hngy5mh1g,19 years,"[""Black or African-American""]",No,Male,"Ghana - 16 years
USA - 2 and half years",No,1080887.7000000477,NA,2685,NA,"{""product_choice"":""C""}",choice,dtc,trinary,repulsion_A,2,laptops,null,null,null,null,null,null,1,30,40,20,100,90,100,Processing speed,Memory (RAM),NA,NA
NA,NA,NA,NA,NA,choice_trial_setup,html-keyboard-response,68,601325,0.0-4.0-0.32,348,1,2025-05-09T04:05:54Z,b60275e29fe2361ab97ac0ac217840d7,"Mozilla/5.0 (Windows NT 10.0; Win64; x64) AppleWebKit/537.36 (KHTML, like Gecko) Chrome/135.0.0.0 Safari/537.36 Edg/135.0.0.0",WebKit,Edge,135.0.0.0,Windows,10,https://5puzkbbxv1.cognition.run/?sona_id=57717,"en-US,en;q=0.9",mkeqc9hngy5mh1g,19 years,"[""Black or African-American""]",No,Male,"Ghana - 16 years
USA - 2 and half years",No,1080887.7000000477,NA,null,<p></p>,null,choice,cdt,trinary,repulsion_B,1,laptops,null,null,null,null,null,null,1,NA,NA,NA,NA,NA,NA,NA,NA,NA,NA
NA,NA,NA,NA,NA,choice_trial,survey-html-form,69,605486,0.0-4.0-1.32,348,1,2025-05-09T04:05:54Z,b60275e29fe2361ab97ac0ac217840d7,"Mozilla/5.0 (Windows NT 10.0; Win64; x64) AppleWebKit/537.36 (KHTML, like Gecko) Chrome/135.0.0.0 Safari/537.36 Edg/135.0.0.0",WebKit,Edge,135.0.0.0,Windows,10,https://5puzkbbxv1.cognition.run/?sona_id=57717,"en-US,en;q=0.9",mkeqc9hngy5mh1g,19 years,"[""Black or African-American""]",No,Male,"Ghana - 16 years
USA - 2 and half years",No,1080887.7000000477,NA,4159,NA,"{""product_choice"":""C""}",choice,cdt,trinary,repulsion_B,1,laptops,null,null,null,null,null,null,1,90,100,80,40,30,40,Processing speed,Memory (RAM),NA,NA
NA,NA,NA,NA,NA,choice_trial_setup,html-keyboard-response,70,605790,0.0-4.0-0.33,348,1,2025-05-09T04:05:54Z,b60275e29fe2361ab97ac0ac217840d7,"Mozilla/5.0 (Windows NT 10.0; Win64; x64) AppleWebKit/537.36 (KHTML, like Gecko) Chrome/135.0.0.0 Safari/537.36 Edg/135.0.0.0",WebKit,Edge,135.0.0.0,Windows,10,https://5puzkbbxv1.cognition.run/?sona_id=57717,"en-US,en;q=0.9",mkeqc9hngy5mh1g,19 years,"[""Black or African-American""]",No,Male,"Ghana - 16 years
USA - 2 and half years",No,1080887.7000000477,NA,null,<p></p>,null,choice,ctd,trinary,repulsion_A,2,washing machines,null,null,null,null,null,null,1,NA,NA,NA,NA,NA,NA,NA,NA,NA,NA
NA,NA,NA,NA,NA,choice_trial,survey-html-form,71,626530,0.0-4.0-1.33,348,1,2025-05-09T04:05:54Z,b60275e29fe2361ab97ac0ac217840d7,"Mozilla/5.0 (Windows NT 10.0; Win64; x64) AppleWebKit/537.36 (KHTML, like Gecko) Chrome/135.0.0.0 Safari/537.36 Edg/135.0.0.0",WebKit,Edge,135.0.0.0,Windows,10,https://5puzkbbxv1.cognition.run/?sona_id=57717,"en-US,en;q=0.9",mkeqc9hngy5mh1g,19 years,"[""Black or African-American""]",No,Male,"Ghana - 16 years
USA - 2 and half years",No,1080887.7000000477,NA,20737,NA,"{""product_choice"":""A""}",choice,ctd,trinary,repulsion_A,2,washing machines,null,null,null,null,null,null,1,30,40,20,100,90,100,Average lifespan,Energy savings,NA,NA
NA,NA,NA,NA,NA,choice_trial_setup,html-keyboard-response,72,626833,0.0-4.0-0.34,348,1,2025-05-09T04:05:54Z,b60275e29fe2361ab97ac0ac217840d7,"Mozilla/5.0 (Windows NT 10.0; Win64; x64) AppleWebKit/537.36 (KHTML, like Gecko) Chrome/135.0.0.0 Safari/537.36 Edg/135.0.0.0",WebKit,Edge,135.0.0.0,Windows,10,https://5puzkbbxv1.cognition.run/?sona_id=57717,"en-US,en;q=0.9",mkeqc9hngy5mh1g,19 years,"[""Black or African-American""]",No,Male,"Ghana - 16 years
USA - 2 and half years",No,1080887.7000000477,NA,null,<p></p>,null,choice,wbw,trinary,catch,null,microwave ovens,65,90,35,50,20,15,1,NA,NA,NA,NA,NA,NA,NA,NA,NA,NA
NA,NA,NA,NA,NA,choice_trial,survey-html-form,73,631601,0.0-4.0-1.34,348,1,2025-05-09T04:05:54Z,b60275e29fe2361ab97ac0ac217840d7,"Mozilla/5.0 (Windows NT 10.0; Win64; x64) AppleWebKit/537.36 (KHTML, like Gecko) Chrome/135.0.0.0 Safari/537.36 Edg/135.0.0.0",WebKit,Edge,135.0.0.0,Windows,10,https://5puzkbbxv1.cognition.run/?sona_id=57717,"en-US,en;q=0.9",mkeqc9hngy5mh1g,19 years,"[""Black or African-American""]",No,Male,"Ghana - 16 years
USA - 2 and half years",No,1080887.7000000477,NA,4765,NA,"{""product_choice"":""B""}",choice,wbw,trinary,catch,null,microwave ovens,65,90,35,50,20,15,1,null,null,null,null,null,null,Warranty,Cooking power,NA,NA
NA,NA,NA,NA,NA,choice_trial_setup,html-keyboard-response,74,631902,0.0-4.0-0.35,348,1,2025-05-09T04:05:54Z,b60275e29fe2361ab97ac0ac217840d7,"Mozilla/5.0 (Windows NT 10.0; Win64; x64) AppleWebKit/537.36 (KHTML, like Gecko) Chrome/135.0.0.0 Safari/537.36 Edg/135.0.0.0",WebKit,Edge,135.0.0.0,Windows,10,https://5puzkbbxv1.cognition.run/?sona_id=57717,"en-US,en;q=0.9",mkeqc9hngy5mh1g,19 years,"[""Black or African-American""]",No,Male,"Ghana - 16 years
USA - 2 and half years",No,1080887.7000000477,NA,null,<p></p>,null,choice,bw,binary,catch,null,washing machines,65,65,25,25,null,null,1,NA,NA,NA,NA,NA,NA,NA,NA,NA,NA
NA,NA,NA,NA,NA,choice_trial,survey-html-form,75,636430,0.0-4.0-1.35,348,1,2025-05-09T04:05:54Z,b60275e29fe2361ab97ac0ac217840d7,"Mozilla/5.0 (Windows NT 10.0; Win64; x64) AppleWebKit/537.36 (KHTML, like Gecko) Chrome/135.0.0.0 Safari/537.36 Edg/135.0.0.0",WebKit,Edge,135.0.0.0,Windows,10,https://5puzkbbxv1.cognition.run/?sona_id=57717,"en-US,en;q=0.9",mkeqc9hngy5mh1g,19 years,"[""Black or African-American""]",No,Male,"Ghana - 16 years
USA - 2 and half years",No,1080887.7000000477,NA,4525,NA,"{""product_choice"":""A""}",choice,bw,binary,catch,null,washing machines,65,65,25,25,null,null,1,null,null,null,null,null,null,Average lifespan,Energy savings,NA,NA
NA,NA,NA,NA,NA,choice_trial_setup,html-keyboard-response,76,636732,0.0-4.0-0.36,348,1,2025-05-09T04:05:54Z,b60275e29fe2361ab97ac0ac217840d7,"Mozilla/5.0 (Windows NT 10.0; Win64; x64) AppleWebKit/537.36 (KHTML, like Gecko) Chrome/135.0.0.0 Safari/537.36 Edg/135.0.0.0",WebKit,Edge,135.0.0.0,Windows,10,https://5puzkbbxv1.cognition.run/?sona_id=57717,"en-US,en;q=0.9",mkeqc9hngy5mh1g,19 years,"[""Black or African-American""]",No,Male,"Ghana - 16 years
USA - 2 and half years",No,1080887.7000000477,NA,null,<p></p>,null,choice,tc,binary,attraction,NA,laptops,null,null,null,null,null,null,1,NA,NA,NA,NA,NA,NA,NA,NA,NA,NA
NA,NA,NA,NA,NA,choice_trial,survey-html-form,77,639871,0.0-4.0-1.36,348,1,2025-05-09T04:05:54Z,b60275e29fe2361ab97ac0ac217840d7,"Mozilla/5.0 (Windows NT 10.0; Win64; x64) AppleWebKit/537.36 (KHTML, like Gecko) Chrome/135.0.0.0 Safari/537.36 Edg/135.0.0.0",WebKit,Edge,135.0.0.0,Windows,10,https://5puzkbbxv1.cognition.run/?sona_id=57717,"en-US,en;q=0.9",mkeqc9hngy5mh1g,19 years,"[""Black or African-American""]",No,Male,"Ghana - 16 years
USA - 2 and half years",No,1080887.7000000477,NA,3136,NA,"{""product_choice"":""A""}",choice,tc,binary,attraction,NA,laptops,null,null,null,null,null,null,1,60,50,null,50,60,null,Processing speed,Memory (RAM),NA,NA
NA,NA,NA,NA,NA,choice_trial_setup,html-keyboard-response,78,640175,0.0-4.0-0.37,348,1,2025-05-09T04:05:54Z,b60275e29fe2361ab97ac0ac217840d7,"Mozilla/5.0 (Windows NT 10.0; Win64; x64) AppleWebKit/537.36 (KHTML, like Gecko) Chrome/135.0.0.0 Safari/537.36 Edg/135.0.0.0",WebKit,Edge,135.0.0.0,Windows,10,https://5puzkbbxv1.cognition.run/?sona_id=57717,"en-US,en;q=0.9",mkeqc9hngy5mh1g,19 years,"[""Black or African-American""]",No,Male,"Ghana - 16 years
USA - 2 and half years",No,1080887.7000000477,NA,null,<p></p>,null,choice,ctd,trinary,repulsion_B,2,laptops,null,null,null,null,null,null,2,NA,NA,NA,NA,NA,NA,NA,NA,NA,NA
NA,NA,NA,NA,NA,choice_trial,survey-html-form,79,755243,0.0-4.0-1.37,348,1,2025-05-09T04:05:54Z,b60275e29fe2361ab97ac0ac217840d7,"Mozilla/5.0 (Windows NT 10.0; Win64; x64) AppleWebKit/537.36 (KHTML, like Gecko) Chrome/135.0.0.0 Safari/537.36 Edg/135.0.0.0",WebKit,Edge,135.0.0.0,Windows,10,https://5puzkbbxv1.cognition.run/?sona_id=57717,"en-US,en;q=0.9",mkeqc9hngy5mh1g,19 years,"[""Black or African-American""]",No,Male,"Ghana - 16 years
USA - 2 and half years",No,1080887.7000000477,NA,115065,NA,"{""product_choice"":""B""}",choice,ctd,trinary,repulsion_B,2,laptops,null,null,null,null,null,null,2,40,30,40,90,100,80,Processing speed,Memory (RAM),NA,NA
NA,NA,NA,NA,NA,choice_trial_setup,html-keyboard-response,80,755549,0.0-4.0-0.38,348,1,2025-05-09T04:05:54Z,b60275e29fe2361ab97ac0ac217840d7,"Mozilla/5.0 (Windows NT 10.0; Win64; x64) AppleWebKit/537.36 (KHTML, like Gecko) Chrome/135.0.0.0 Safari/537.36 Edg/135.0.0.0",WebKit,Edge,135.0.0.0,Windows,10,https://5puzkbbxv1.cognition.run/?sona_id=57717,"en-US,en;q=0.9",mkeqc9hngy5mh1g,19 years,"[""Black or African-American""]",No,Male,"Ghana - 16 years
USA - 2 and half years",No,1080887.7000000477,NA,null,<p></p>,null,choice,ctd,trinary,repulsion_B,1,microwave ovens,null,null,null,null,null,null,2,NA,NA,NA,NA,NA,NA,NA,NA,NA,NA
NA,NA,NA,NA,NA,choice_trial,survey-html-form,81,761694,0.0-4.0-1.38,348,1,2025-05-09T04:05:54Z,b60275e29fe2361ab97ac0ac217840d7,"Mozilla/5.0 (Windows NT 10.0; Win64; x64) AppleWebKit/537.36 (KHTML, like Gecko) Chrome/135.0.0.0 Safari/537.36 Edg/135.0.0.0",WebKit,Edge,135.0.0.0,Windows,10,https://5puzkbbxv1.cognition.run/?sona_id=57717,"en-US,en;q=0.9",mkeqc9hngy5mh1g,19 years,"[""Black or African-American""]",No,Male,"Ghana - 16 years
USA - 2 and half years",No,1080887.7000000477,NA,6141,NA,"{""product_choice"":""B""}",choice,ctd,trinary,repulsion_B,1,microwave ovens,null,null,null,null,null,null,2,90,100,80,40,30,40,Warranty,Cooking power,NA,NA
NA,NA,NA,NA,NA,choice_trial_setup,html-keyboard-response,82,761998,0.0-4.0-0.39,348,1,2025-05-09T04:05:54Z,b60275e29fe2361ab97ac0ac217840d7,"Mozilla/5.0 (Windows NT 10.0; Win64; x64) AppleWebKit/537.36 (KHTML, like Gecko) Chrome/135.0.0.0 Safari/537.36 Edg/135.0.0.0",WebKit,Edge,135.0.0.0,Windows,10,https://5puzkbbxv1.cognition.run/?sona_id=57717,"en-US,en;q=0.9",mkeqc9hngy5mh1g,19 years,"[""Black or African-American""]",No,Male,"Ghana - 16 years
USA - 2 and half years",No,1080887.7000000477,NA,null,<p></p>,null,choice,bw,binary,catch,null,microwave ovens,50,95,5,45,null,null,1,NA,NA,NA,NA,NA,NA,NA,NA,NA,NA
NA,NA,NA,NA,NA,choice_trial,survey-html-form,83,764558,0.0-4.0-1.39,348,1,2025-05-09T04:05:54Z,b60275e29fe2361ab97ac0ac217840d7,"Mozilla/5.0 (Windows NT 10.0; Win64; x64) AppleWebKit/537.36 (KHTML, like Gecko) Chrome/135.0.0.0 Safari/537.36 Edg/135.0.0.0",WebKit,Edge,135.0.0.0,Windows,10,https://5puzkbbxv1.cognition.run/?sona_id=57717,"en-US,en;q=0.9",mkeqc9hngy5mh1g,19 years,"[""Black or African-American""]",No,Male,"Ghana - 16 years
USA - 2 and half years",No,1080887.7000000477,NA,2558,NA,"{""product_choice"":""A""}",choice,bw,binary,catch,null,microwave ovens,50,95,5,45,null,null,1,null,null,null,null,null,null,Warranty,Cooking power,NA,NA
NA,NA,NA,NA,NA,choice_trial_setup,html-keyboard-response,84,764860,0.0-4.0-0.40,348,1,2025-05-09T04:05:54Z,b60275e29fe2361ab97ac0ac217840d7,"Mozilla/5.0 (Windows NT 10.0; Win64; x64) AppleWebKit/537.36 (KHTML, like Gecko) Chrome/135.0.0.0 Safari/537.36 Edg/135.0.0.0",WebKit,Edge,135.0.0.0,Windows,10,https://5puzkbbxv1.cognition.run/?sona_id=57717,"en-US,en;q=0.9",mkeqc9hngy5mh1g,19 years,"[""Black or African-American""]",No,Male,"Ghana - 16 years
USA - 2 and half years",No,1080887.7000000477,NA,null,<p></p>,null,choice,ctd,trinary,repulsion_A,1,washing machines,null,null,null,null,null,null,1,NA,NA,NA,NA,NA,NA,NA,NA,NA,NA
NA,NA,NA,NA,NA,choice_trial,survey-html-form,85,768820,0.0-4.0-1.40,348,1,2025-05-09T04:05:54Z,b60275e29fe2361ab97ac0ac217840d7,"Mozilla/5.0 (Windows NT 10.0; Win64; x64) AppleWebKit/537.36 (KHTML, like Gecko) Chrome/135.0.0.0 Safari/537.36 Edg/135.0.0.0",WebKit,Edge,135.0.0.0,Windows,10,https://5puzkbbxv1.cognition.run/?sona_id=57717,"en-US,en;q=0.9",mkeqc9hngy5mh1g,19 years,"[""Black or African-American""]",No,Male,"Ghana - 16 years
USA - 2 and half years",No,1080887.7000000477,NA,3957,NA,"{""product_choice"":""A""}",choice,ctd,trinary,repulsion_A,1,washing machines,null,null,null,null,null,null,1,100,90,100,30,40,20,Average lifespan,Energy savings,NA,NA
NA,NA,NA,NA,NA,choice_trial_setup,html-keyboard-response,86,769122,0.0-4.0-0.41,348,1,2025-05-09T04:05:54Z,b60275e29fe2361ab97ac0ac217840d7,"Mozilla/5.0 (Windows NT 10.0; Win64; x64) AppleWebKit/537.36 (KHTML, like Gecko) Chrome/135.0.0.0 Safari/537.36 Edg/135.0.0.0",WebKit,Edge,135.0.0.0,Windows,10,https://5puzkbbxv1.cognition.run/?sona_id=57717,"en-US,en;q=0.9",mkeqc9hngy5mh1g,19 years,"[""Black or African-American""]",No,Male,"Ghana - 16 years
USA - 2 and half years",No,1080887.7000000477,NA,null,<p></p>,null,choice,ct,binary,repulsion,2,washing machines,null,null,null,null,null,null,2,NA,NA,NA,NA,NA,NA,NA,NA,NA,NA
NA,NA,NA,NA,NA,choice_trial,survey-html-form,87,776517,0.0-4.0-1.41,348,1,2025-05-09T04:05:54Z,b60275e29fe2361ab97ac0ac217840d7,"Mozilla/5.0 (Windows NT 10.0; Win64; x64) AppleWebKit/537.36 (KHTML, like Gecko) Chrome/135.0.0.0 Safari/537.36 Edg/135.0.0.0",WebKit,Edge,135.0.0.0,Windows,10,https://5puzkbbxv1.cognition.run/?sona_id=57717,"en-US,en;q=0.9",mkeqc9hngy5mh1g,19 years,"[""Black or African-American""]",No,Male,"Ghana - 16 years
USA - 2 and half years",No,1080887.7000000477,NA,7394,NA,"{""product_choice"":""B""}",choice,ct,binary,repulsion,2,washing machines,null,null,null,null,null,null,2,30,40,null,100,90,null,Average lifespan,Energy savings,NA,NA
NA,NA,NA,NA,NA,choice_trial_setup,html-keyboard-response,88,776820,0.0-4.0-0.42,348,1,2025-05-09T04:05:54Z,b60275e29fe2361ab97ac0ac217840d7,"Mozilla/5.0 (Windows NT 10.0; Win64; x64) AppleWebKit/537.36 (KHTML, like Gecko) Chrome/135.0.0.0 Safari/537.36 Edg/135.0.0.0",WebKit,Edge,135.0.0.0,Windows,10,https://5puzkbbxv1.cognition.run/?sona_id=57717,"en-US,en;q=0.9",mkeqc9hngy5mh1g,19 years,"[""Black or African-American""]",No,Male,"Ghana - 16 years
USA - 2 and half years",No,1080887.7000000477,NA,null,<p></p>,null,choice,ctd,trinary,attraction,2,washing machines,null,null,null,null,null,null,2,NA,NA,NA,NA,NA,NA,NA,NA,NA,NA
NA,NA,NA,NA,NA,choice_trial,survey-html-form,89,898168,0.0-4.0-1.42,348,1,2025-05-09T04:05:54Z,b60275e29fe2361ab97ac0ac217840d7,"Mozilla/5.0 (Windows NT 10.0; Win64; x64) AppleWebKit/537.36 (KHTML, like Gecko) Chrome/135.0.0.0 Safari/537.36 Edg/135.0.0.0",WebKit,Edge,135.0.0.0,Windows,10,https://5puzkbbxv1.cognition.run/?sona_id=57717,"en-US,en;q=0.9",mkeqc9hngy5mh1g,19 years,"[""Black or African-American""]",No,Male,"Ghana - 16 years
USA - 2 and half years",No,1080887.7000000477,NA,121345,NA,"{""product_choice"":""B""}",choice,ctd,trinary,attraction,2,washing machines,null,null,null,null,null,null,2,50,60,40,60,50,60,Average lifespan,Energy savings,NA,NA
NA,NA,NA,NA,NA,choice_trial_setup,html-keyboard-response,90,898471,0.0-4.0-0.43,348,1,2025-05-09T04:05:54Z,b60275e29fe2361ab97ac0ac217840d7,"Mozilla/5.0 (Windows NT 10.0; Win64; x64) AppleWebKit/537.36 (KHTML, like Gecko) Chrome/135.0.0.0 Safari/537.36 Edg/135.0.0.0",WebKit,Edge,135.0.0.0,Windows,10,https://5puzkbbxv1.cognition.run/?sona_id=57717,"en-US,en;q=0.9",mkeqc9hngy5mh1g,19 years,"[""Black or African-American""]",No,Male,"Ghana - 16 years
USA - 2 and half years",No,1080887.7000000477,NA,null,<p></p>,null,choice,ct,binary,repulsion,1,televisions,null,null,null,null,null,null,2,NA,NA,NA,NA,NA,NA,NA,NA,NA,NA
NA,NA,NA,NA,NA,choice_trial,survey-html-form,91,982565,0.0-4.0-1.43,348,1,2025-05-09T04:05:54Z,b60275e29fe2361ab97ac0ac217840d7,"Mozilla/5.0 (Windows NT 10.0; Win64; x64) AppleWebKit/537.36 (KHTML, like Gecko) Chrome/135.0.0.0 Safari/537.36 Edg/135.0.0.0",WebKit,Edge,135.0.0.0,Windows,10,https://5puzkbbxv1.cognition.run/?sona_id=57717,"en-US,en;q=0.9",mkeqc9hngy5mh1g,19 years,"[""Black or African-American""]",No,Male,"Ghana - 16 years
USA - 2 and half years",No,1080887.7000000477,NA,84091,NA,"{""product_choice"":""A""}",choice,ct,binary,repulsion,1,televisions,null,null,null,null,null,null,2,100,90,null,30,40,null,Screen size,Average lifespan,NA,NA
NA,NA,NA,NA,NA,post_trials_message,html-button-response,92,983770,0.0-5.0,348,1,2025-05-09T04:05:54Z,b60275e29fe2361ab97ac0ac217840d7,"Mozilla/5.0 (Windows NT 10.0; Win64; x64) AppleWebKit/537.36 (KHTML, like Gecko) Chrome/135.0.0.0 Safari/537.36 Edg/135.0.0.0",WebKit,Edge,135.0.0.0,Windows,10,https://5puzkbbxv1.cognition.run/?sona_id=57717,"en-US,en;q=0.9",mkeqc9hngy5mh1g,19 years,"[""Black or African-American""]",No,Male,"Ghana - 16 years
USA - 2 and half years",No,1080887.7000000477,NA,1201,<p> <b>Thank you for your patience!</b></p><p>  The study will be done after completing a brief form. </p>,0,NA,NA,NA,NA,NA,NA,NA,NA,NA,NA,NA,NA,NA,NA,NA,NA,NA,NA,NA,NA,NA,NA,NA
NA,NA,NA,NA,NA,survey_message,survey-text,93,1022863,0.0-6.0,348,1,2025-05-09T04:05:54Z,b60275e29fe2361ab97ac0ac217840d7,"Mozilla/5.0 (Windows NT 10.0; Win64; x64) AppleWebKit/537.36 (KHTML, like Gecko) Chrome/135.0.0.0 Safari/537.36 Edg/135.0.0.0",WebKit,Edge,135.0.0.0,Windows,10,https://5puzkbbxv1.cognition.run/?sona_id=57717,"en-US,en;q=0.9",mkeqc9hngy5mh1g,19 years,"[""Black or African-American""]",No,Male,"Ghana - 16 years
USA - 2 and half years",No,1080887.7000000477,NA,39089,NA,"{""Q0"":""I chose the products that were more effecient and those that will  last more""}",NA,NA,NA,NA,NA,NA,NA,NA,NA,NA,NA,NA,NA,NA,NA,NA,NA,NA,NA,NA,NA,I chose the products that were more effecient and those that will  last more,NA
NA,NA,NA,NA,NA,demo_age,survey-text,94,1027960,0.0-7.0,348,1,2025-05-09T04:05:54Z,b60275e29fe2361ab97ac0ac217840d7,"Mozilla/5.0 (Windows NT 10.0; Win64; x64) AppleWebKit/537.36 (KHTML, like Gecko) Chrome/135.0.0.0 Safari/537.36 Edg/135.0.0.0",WebKit,Edge,135.0.0.0,Windows,10,https://5puzkbbxv1.cognition.run/?sona_id=57717,"en-US,en;q=0.9",mkeqc9hngy5mh1g,19 years,"[""Black or African-American""]",No,Male,"Ghana - 16 years
USA - 2 and half years",No,1080887.7000000477,NA,5092,NA,"{""Q0"":""19 years""}",NA,NA,NA,NA,NA,NA,NA,NA,NA,NA,NA,NA,NA,NA,NA,NA,NA,NA,NA,NA,NA,NA,NA
NA,NA,NA,NA,NA,demo_race,survey-multi-select,95,1030863,0.0-8.0,348,1,2025-05-09T04:05:54Z,b60275e29fe2361ab97ac0ac217840d7,"Mozilla/5.0 (Windows NT 10.0; Win64; x64) AppleWebKit/537.36 (KHTML, like Gecko) Chrome/135.0.0.0 Safari/537.36 Edg/135.0.0.0",WebKit,Edge,135.0.0.0,Windows,10,https://5puzkbbxv1.cognition.run/?sona_id=57717,"en-US,en;q=0.9",mkeqc9hngy5mh1g,19 years,"[""Black or African-American""]",No,Male,"Ghana - 16 years
USA - 2 and half years",No,1080887.7000000477,NA,2895,NA,"{""Q0"":[""Black or African-American""]}",NA,NA,NA,NA,NA,NA,NA,NA,NA,NA,NA,NA,NA,NA,NA,NA,NA,NA,NA,NA,NA,NA,[0]
NA,NA,NA,NA,NA,demo_ethnicity_gender,survey-multi-choice,96,1036014,0.0-9.0,348,1,2025-05-09T04:05:54Z,b60275e29fe2361ab97ac0ac217840d7,"Mozilla/5.0 (Windows NT 10.0; Win64; x64) AppleWebKit/537.36 (KHTML, like Gecko) Chrome/135.0.0.0 Safari/537.36 Edg/135.0.0.0",WebKit,Edge,135.0.0.0,Windows,10,https://5puzkbbxv1.cognition.run/?sona_id=57717,"en-US,en;q=0.9",mkeqc9hngy5mh1g,19 years,"[""Black or African-American""]",No,Male,"Ghana - 16 years
USA - 2 and half years",No,1080887.7000000477,NA,5148,NA,"{""Q0"":""No"",""Q1"":""Male""}",NA,NA,NA,NA,NA,NA,NA,NA,NA,NA,NA,NA,NA,NA,NA,NA,NA,NA,NA,NA,NA,NA,"[0,1]"
NA,NA,NA,NA,NA,demo_countries,survey-text,97,1067061,0.0-10.0,348,1,2025-05-09T04:05:54Z,b60275e29fe2361ab97ac0ac217840d7,"Mozilla/5.0 (Windows NT 10.0; Win64; x64) AppleWebKit/537.36 (KHTML, like Gecko) Chrome/135.0.0.0 Safari/537.36 Edg/135.0.0.0",WebKit,Edge,135.0.0.0,Windows,10,https://5puzkbbxv1.cognition.run/?sona_id=57717,"en-US,en;q=0.9",mkeqc9hngy5mh1g,19 years,"[""Black or African-American""]",No,Male,"Ghana - 16 years
USA - 2 and half years",No,1080887.7000000477,NA,31038,NA,"{""Q0"":""Ghana - 16 years\nUSA - 2 and half years""}",NA,NA,NA,NA,NA,NA,NA,NA,NA,NA,NA,NA,NA,NA,NA,NA,NA,NA,NA,NA,NA,NA,NA
NA,NA,NA,NA,NA,demo_prev_study,survey-multi-choice,98,1072134,0.0-11.0,348,1,2025-05-09T04:05:54Z,b60275e29fe2361ab97ac0ac217840d7,"Mozilla/5.0 (Windows NT 10.0; Win64; x64) AppleWebKit/537.36 (KHTML, like Gecko) Chrome/135.0.0.0 Safari/537.36 Edg/135.0.0.0",WebKit,Edge,135.0.0.0,Windows,10,https://5puzkbbxv1.cognition.run/?sona_id=57717,"en-US,en;q=0.9",mkeqc9hngy5mh1g,19 years,"[""Black or African-American""]",No,Male,"Ghana - 16 years
USA - 2 and half years",No,1080887.7000000477,NA,5066,NA,"{""Q0"":""No""}",NA,NA,NA,NA,NA,NA,NA,NA,NA,NA,NA,NA,NA,NA,NA,NA,NA,NA,NA,NA,NA,NA,[0]
NA,NA,NA,NA,NA,post_survey_message,html-keyboard-response,99,1077083,0.0-12.0,348,1,2025-05-09T04:05:54Z,b60275e29fe2361ab97ac0ac217840d7,"Mozilla/5.0 (Windows NT 10.0; Win64; x64) AppleWebKit/537.36 (KHTML, like Gecko) Chrome/135.0.0.0 Safari/537.36 Edg/135.0.0.0",WebKit,Edge,135.0.0.0,Windows,10,https://5puzkbbxv1.cognition.run/?sona_id=57717,"en-US,en;q=0.9",mkeqc9hngy5mh1g,19 years,"[""Black or African-American""]",No,Male,"Ghana - 16 years
USA - 2 and half years",No,1080887.7000000477,NA,4946,NA,j,NA,NA,NA,NA,NA,NA,NA,NA,NA,NA,NA,NA,NA,NA,NA,NA,NA,NA,NA,NA,NA,NA,NA
NA,NA,NA,NA,NA,debrief,image-keyboard-response,100,1080885,0.0-13.0,348,1,2025-05-09T04:05:54Z,b60275e29fe2361ab97ac0ac217840d7,"Mozilla/5.0 (Windows NT 10.0; Win64; x64) AppleWebKit/537.36 (KHTML, like Gecko) Chrome/135.0.0.0 Safari/537.36 Edg/135.0.0.0",WebKit,Edge,135.0.0.0,Windows,10,https://5puzkbbxv1.cognition.run/?sona_id=57717,"en-US,en;q=0.9",mkeqc9hngy5mh1g,19 years,"[""Black or African-American""]",No,Male,"Ghana - 16 years
USA - 2 and half years",No,1080887.7000000477,NA,3796,Judg_choice_debrief.png,p,NA,NA,NA,NA,NA,NA,NA,NA,NA,NA,NA,NA,NA,NA,NA,NA,NA,NA,NA,NA,NA,NA,NA
