success,timeout,failed_images,failed_audio,failed_video,screen_id,trial_type,trial_index,time_elapsed,internal_node_id,run_id,condition,recorded_at,source_code_version,user_agent,device,browser,browser_version,platform,platform_version,referer,accept_language,ppt_id,age,race,ethnicity,gender,other_countries,prev_study,exp_duration,view_history,rt,stimulus,response,phase,order,set,effect,t_high,category,d1_best,d2_best,d1_worst1,d2_worst1,d1_worst2,d2_worst2,first_dim,d1_t,d1_c,d1_d,d2_t,d2_c,d2_d,d1_name,d2_name,strategy_response,question_order
TRUE,FALSE,[],[],[],img preload,preload,0,124,0.0-0.0,350,1,2025-05-09T13:56:48Z,b60275e29fe2361ab97ac0ac217840d7,"Mozilla/5.0 (Windows NT 10.0; Win64; x64) AppleWebKit/537.36 (KHTML, like Gecko) Chrome/136.0.0.0 Safari/537.36",WebKit,Chrome,136.0.0.0,Windows,10,https://5puzkbbxv1.cognition.run/?sona_id=52966,"en-US,en;q=0.9",wcuvqpeuzxbjm9w,19,"[""White""]",Yes,Female,NA,No,561175.5,NA,NA,NA,NA,NA,NA,NA,NA,NA,NA,NA,NA,NA,NA,NA,NA,NA,NA,NA,NA,NA,NA,NA,NA,NA,NA,NA
NA,NA,NA,NA,NA,computer_message,instructions,1,4428,0.0-1.0,350,1,2025-05-09T13:56:48Z,b60275e29fe2361ab97ac0ac217840d7,"Mozilla/5.0 (Windows NT 10.0; Win64; x64) AppleWebKit/537.36 (KHTML, like Gecko) Chrome/136.0.0.0 Safari/537.36",WebKit,Chrome,136.0.0.0,Windows,10,https://5puzkbbxv1.cognition.run/?sona_id=52966,"en-US,en;q=0.9",wcuvqpeuzxbjm9w,19,"[""White""]",Yes,Female,NA,No,561175.5,"[{""page_index"":0,""viewing_time"":4304}]",4304,NA,NA,NA,NA,NA,NA,NA,NA,NA,NA,NA,NA,NA,NA,NA,NA,NA,NA,NA,NA,NA,NA,NA,NA,NA
TRUE,NA,NA,NA,NA,NA,fullscreen,2,9150,0.0-2.0,350,1,2025-05-09T13:56:48Z,b60275e29fe2361ab97ac0ac217840d7,"Mozilla/5.0 (Windows NT 10.0; Win64; x64) AppleWebKit/537.36 (KHTML, like Gecko) Chrome/136.0.0.0 Safari/537.36",WebKit,Chrome,136.0.0.0,Windows,10,https://5puzkbbxv1.cognition.run/?sona_id=52966,"en-US,en;q=0.9",wcuvqpeuzxbjm9w,19,"[""White""]",Yes,Female,NA,No,561175.5,NA,3720,NA,NA,NA,NA,NA,NA,NA,NA,NA,NA,NA,NA,NA,NA,NA,NA,NA,NA,NA,NA,NA,NA,NA,NA,NA
NA,NA,NA,NA,NA,choice_instructions,instructions,3,45457,0.0-3.0,350,1,2025-05-09T13:56:48Z,b60275e29fe2361ab97ac0ac217840d7,"Mozilla/5.0 (Windows NT 10.0; Win64; x64) AppleWebKit/537.36 (KHTML, like Gecko) Chrome/136.0.0.0 Safari/537.36",WebKit,Chrome,136.0.0.0,Windows,10,https://5puzkbbxv1.cognition.run/?sona_id=52966,"en-US,en;q=0.9",wcuvqpeuzxbjm9w,19,"[""White""]",Yes,Female,NA,No,561175.5,"[{""page_index"":0,""viewing_time"":1781},{""page_index"":1,""viewing_time"":3331},{""page_index"":2,""viewing_time"":4538},{""page_index"":3,""viewing_time"":4674},{""page_index"":4,""viewing_time"":4193},{""page_index"":5,""viewing_time"":11411},{""page_index"":6,""viewing_time"":6378}]",36305,NA,NA,NA,NA,NA,NA,NA,NA,NA,NA,NA,NA,NA,NA,NA,NA,NA,NA,NA,NA,NA,NA,NA,NA,NA
NA,NA,NA,NA,NA,choice_trial_setup,html-keyboard-response,4,45759,0.0-4.0-0.0,350,1,2025-05-09T13:56:48Z,b60275e29fe2361ab97ac0ac217840d7,"Mozilla/5.0 (Windows NT 10.0; Win64; x64) AppleWebKit/537.36 (KHTML, like Gecko) Chrome/136.0.0.0 Safari/537.36",WebKit,Chrome,136.0.0.0,Windows,10,https://5puzkbbxv1.cognition.run/?sona_id=52966,"en-US,en;q=0.9",wcuvqpeuzxbjm9w,19,"[""White""]",Yes,Female,NA,No,561175.5,NA,null,<p></p>,null,choice,tcd,trinary,attraction,2,televisions,null,null,null,null,null,null,1,NA,NA,NA,NA,NA,NA,NA,NA,NA,NA
NA,NA,NA,NA,NA,choice_trial,survey-html-form,5,62399,0.0-4.0-1.0,350,1,2025-05-09T13:56:48Z,b60275e29fe2361ab97ac0ac217840d7,"Mozilla/5.0 (Windows NT 10.0; Win64; x64) AppleWebKit/537.36 (KHTML, like Gecko) Chrome/136.0.0.0 Safari/537.36",WebKit,Chrome,136.0.0.0,Windows,10,https://5puzkbbxv1.cognition.run/?sona_id=52966,"en-US,en;q=0.9",wcuvqpeuzxbjm9w,19,"[""White""]",Yes,Female,NA,No,561175.5,NA,16633,NA,"{""product_choice"":""A""}",choice,tcd,trinary,attraction,2,televisions,null,null,null,null,null,null,1,50,60,40,60,50,60,Screen size,Average lifespan,NA,NA
NA,NA,NA,NA,NA,choice_trial_setup,html-keyboard-response,6,62700,0.0-4.0-0.1,350,1,2025-05-09T13:56:48Z,b60275e29fe2361ab97ac0ac217840d7,"Mozilla/5.0 (Windows NT 10.0; Win64; x64) AppleWebKit/537.36 (KHTML, like Gecko) Chrome/136.0.0.0 Safari/537.36",WebKit,Chrome,136.0.0.0,Windows,10,https://5puzkbbxv1.cognition.run/?sona_id=52966,"en-US,en;q=0.9",wcuvqpeuzxbjm9w,19,"[""White""]",Yes,Female,NA,No,561175.5,NA,null,<p></p>,null,choice,ct,binary,attraction,NA,televisions,null,null,null,null,null,null,2,NA,NA,NA,NA,NA,NA,NA,NA,NA,NA
NA,NA,NA,NA,NA,choice_trial,survey-html-form,7,71089,0.0-4.0-1.1,350,1,2025-05-09T13:56:48Z,b60275e29fe2361ab97ac0ac217840d7,"Mozilla/5.0 (Windows NT 10.0; Win64; x64) AppleWebKit/537.36 (KHTML, like Gecko) Chrome/136.0.0.0 Safari/537.36",WebKit,Chrome,136.0.0.0,Windows,10,https://5puzkbbxv1.cognition.run/?sona_id=52966,"en-US,en;q=0.9",wcuvqpeuzxbjm9w,19,"[""White""]",Yes,Female,NA,No,561175.5,NA,8387,NA,"{""product_choice"":""A""}",choice,ct,binary,attraction,NA,televisions,null,null,null,null,null,null,2,60,50,null,50,60,null,Screen size,Average lifespan,NA,NA
NA,NA,NA,NA,NA,choice_trial_setup,html-keyboard-response,8,71390,0.0-4.0-0.2,350,1,2025-05-09T13:56:48Z,b60275e29fe2361ab97ac0ac217840d7,"Mozilla/5.0 (Windows NT 10.0; Win64; x64) AppleWebKit/537.36 (KHTML, like Gecko) Chrome/136.0.0.0 Safari/537.36",WebKit,Chrome,136.0.0.0,Windows,10,https://5puzkbbxv1.cognition.run/?sona_id=52966,"en-US,en;q=0.9",wcuvqpeuzxbjm9w,19,"[""White""]",Yes,Female,NA,No,561175.5,NA,null,<p></p>,null,choice,tdc,trinary,repulsion_A,2,televisions,null,null,null,null,null,null,2,NA,NA,NA,NA,NA,NA,NA,NA,NA,NA
NA,NA,NA,NA,NA,choice_trial,survey-html-form,9,77744,0.0-4.0-1.2,350,1,2025-05-09T13:56:48Z,b60275e29fe2361ab97ac0ac217840d7,"Mozilla/5.0 (Windows NT 10.0; Win64; x64) AppleWebKit/537.36 (KHTML, like Gecko) Chrome/136.0.0.0 Safari/537.36",WebKit,Chrome,136.0.0.0,Windows,10,https://5puzkbbxv1.cognition.run/?sona_id=52966,"en-US,en;q=0.9",wcuvqpeuzxbjm9w,19,"[""White""]",Yes,Female,NA,No,561175.5,NA,6353,NA,"{""product_choice"":""A""}",choice,tdc,trinary,repulsion_A,2,televisions,null,null,null,null,null,null,2,30,40,20,100,90,100,Screen size,Average lifespan,NA,NA
NA,NA,NA,NA,NA,choice_trial_setup,html-keyboard-response,10,78045,0.0-4.0-0.3,350,1,2025-05-09T13:56:48Z,b60275e29fe2361ab97ac0ac217840d7,"Mozilla/5.0 (Windows NT 10.0; Win64; x64) AppleWebKit/537.36 (KHTML, like Gecko) Chrome/136.0.0.0 Safari/537.36",WebKit,Chrome,136.0.0.0,Windows,10,https://5puzkbbxv1.cognition.run/?sona_id=52966,"en-US,en;q=0.9",wcuvqpeuzxbjm9w,19,"[""White""]",Yes,Female,NA,No,561175.5,NA,null,<p></p>,null,choice,wb,binary,catch,null,televisions,80,95,15,25,null,null,1,NA,NA,NA,NA,NA,NA,NA,NA,NA,NA
NA,NA,NA,NA,NA,choice_trial,survey-html-form,11,84483,0.0-4.0-1.3,350,1,2025-05-09T13:56:48Z,b60275e29fe2361ab97ac0ac217840d7,"Mozilla/5.0 (Windows NT 10.0; Win64; x64) AppleWebKit/537.36 (KHTML, like Gecko) Chrome/136.0.0.0 Safari/537.36",WebKit,Chrome,136.0.0.0,Windows,10,https://5puzkbbxv1.cognition.run/?sona_id=52966,"en-US,en;q=0.9",wcuvqpeuzxbjm9w,19,"[""White""]",Yes,Female,NA,No,561175.5,NA,6436,NA,"{""product_choice"":""B""}",choice,wb,binary,catch,null,televisions,80,95,15,25,null,null,1,null,null,null,null,null,null,Screen size,Average lifespan,NA,NA
NA,NA,NA,NA,NA,choice_trial_setup,html-keyboard-response,12,84785,0.0-4.0-0.4,350,1,2025-05-09T13:56:48Z,b60275e29fe2361ab97ac0ac217840d7,"Mozilla/5.0 (Windows NT 10.0; Win64; x64) AppleWebKit/537.36 (KHTML, like Gecko) Chrome/136.0.0.0 Safari/537.36",WebKit,Chrome,136.0.0.0,Windows,10,https://5puzkbbxv1.cognition.run/?sona_id=52966,"en-US,en;q=0.9",wcuvqpeuzxbjm9w,19,"[""White""]",Yes,Female,NA,No,561175.5,NA,null,<p></p>,null,choice,ctd,trinary,attraction,2,washing machines,null,null,null,null,null,null,2,NA,NA,NA,NA,NA,NA,NA,NA,NA,NA
NA,NA,NA,NA,NA,choice_trial,survey-html-form,13,92741,0.0-4.0-1.4,350,1,2025-05-09T13:56:48Z,b60275e29fe2361ab97ac0ac217840d7,"Mozilla/5.0 (Windows NT 10.0; Win64; x64) AppleWebKit/537.36 (KHTML, like Gecko) Chrome/136.0.0.0 Safari/537.36",WebKit,Chrome,136.0.0.0,Windows,10,https://5puzkbbxv1.cognition.run/?sona_id=52966,"en-US,en;q=0.9",wcuvqpeuzxbjm9w,19,"[""White""]",Yes,Female,NA,No,561175.5,NA,7956,NA,"{""product_choice"":""A""}",choice,ctd,trinary,attraction,2,washing machines,null,null,null,null,null,null,2,50,60,40,60,50,60,Average lifespan,Energy savings,NA,NA
NA,NA,NA,NA,NA,choice_trial_setup,html-keyboard-response,14,93042,0.0-4.0-0.5,350,1,2025-05-09T13:56:48Z,b60275e29fe2361ab97ac0ac217840d7,"Mozilla/5.0 (Windows NT 10.0; Win64; x64) AppleWebKit/537.36 (KHTML, like Gecko) Chrome/136.0.0.0 Safari/537.36",WebKit,Chrome,136.0.0.0,Windows,10,https://5puzkbbxv1.cognition.run/?sona_id=52966,"en-US,en;q=0.9",wcuvqpeuzxbjm9w,19,"[""White""]",Yes,Female,NA,No,561175.5,NA,null,<p></p>,null,choice,ctd,trinary,repulsion_A,2,washing machines,null,null,null,null,null,null,2,NA,NA,NA,NA,NA,NA,NA,NA,NA,NA
NA,NA,NA,NA,NA,choice_trial,survey-html-form,15,100338,0.0-4.0-1.5,350,1,2025-05-09T13:56:48Z,b60275e29fe2361ab97ac0ac217840d7,"Mozilla/5.0 (Windows NT 10.0; Win64; x64) AppleWebKit/537.36 (KHTML, like Gecko) Chrome/136.0.0.0 Safari/537.36",WebKit,Chrome,136.0.0.0,Windows,10,https://5puzkbbxv1.cognition.run/?sona_id=52966,"en-US,en;q=0.9",wcuvqpeuzxbjm9w,19,"[""White""]",Yes,Female,NA,No,561175.5,NA,7294,NA,"{""product_choice"":""A""}",choice,ctd,trinary,repulsion_A,2,washing machines,null,null,null,null,null,null,2,30,40,20,100,90,100,Average lifespan,Energy savings,NA,NA
NA,NA,NA,NA,NA,choice_trial_setup,html-keyboard-response,16,100638,0.0-4.0-0.6,350,1,2025-05-09T13:56:48Z,b60275e29fe2361ab97ac0ac217840d7,"Mozilla/5.0 (Windows NT 10.0; Win64; x64) AppleWebKit/537.36 (KHTML, like Gecko) Chrome/136.0.0.0 Safari/537.36",WebKit,Chrome,136.0.0.0,Windows,10,https://5puzkbbxv1.cognition.run/?sona_id=52966,"en-US,en;q=0.9",wcuvqpeuzxbjm9w,19,"[""White""]",Yes,Female,NA,No,561175.5,NA,null,<p></p>,null,choice,tc,binary,repulsion,1,washing machines,null,null,null,null,null,null,1,NA,NA,NA,NA,NA,NA,NA,NA,NA,NA
NA,NA,NA,NA,NA,choice_trial,survey-html-form,17,110417,0.0-4.0-1.6,350,1,2025-05-09T13:56:48Z,b60275e29fe2361ab97ac0ac217840d7,"Mozilla/5.0 (Windows NT 10.0; Win64; x64) AppleWebKit/537.36 (KHTML, like Gecko) Chrome/136.0.0.0 Safari/537.36",WebKit,Chrome,136.0.0.0,Windows,10,https://5puzkbbxv1.cognition.run/?sona_id=52966,"en-US,en;q=0.9",wcuvqpeuzxbjm9w,19,"[""White""]",Yes,Female,NA,No,561175.5,NA,9778,NA,"{""product_choice"":""A""}",choice,tc,binary,repulsion,1,washing machines,null,null,null,null,null,null,1,100,90,null,30,40,null,Average lifespan,Energy savings,NA,NA
NA,NA,NA,NA,NA,choice_trial_setup,html-keyboard-response,18,110719,0.0-4.0-0.7,350,1,2025-05-09T13:56:48Z,b60275e29fe2361ab97ac0ac217840d7,"Mozilla/5.0 (Windows NT 10.0; Win64; x64) AppleWebKit/537.36 (KHTML, like Gecko) Chrome/136.0.0.0 Safari/537.36",WebKit,Chrome,136.0.0.0,Windows,10,https://5puzkbbxv1.cognition.run/?sona_id=52966,"en-US,en;q=0.9",wcuvqpeuzxbjm9w,19,"[""White""]",Yes,Female,NA,No,561175.5,NA,null,<p></p>,null,choice,bww,trinary,catch,null,washing machines,50,90,25,50,30,50,1,NA,NA,NA,NA,NA,NA,NA,NA,NA,NA
NA,NA,NA,NA,NA,choice_trial,survey-html-form,19,117055,0.0-4.0-1.7,350,1,2025-05-09T13:56:48Z,b60275e29fe2361ab97ac0ac217840d7,"Mozilla/5.0 (Windows NT 10.0; Win64; x64) AppleWebKit/537.36 (KHTML, like Gecko) Chrome/136.0.0.0 Safari/537.36",WebKit,Chrome,136.0.0.0,Windows,10,https://5puzkbbxv1.cognition.run/?sona_id=52966,"en-US,en;q=0.9",wcuvqpeuzxbjm9w,19,"[""White""]",Yes,Female,NA,No,561175.5,NA,6332,NA,"{""product_choice"":""A""}",choice,bww,trinary,catch,null,washing machines,50,90,25,50,30,50,1,null,null,null,null,null,null,Average lifespan,Energy savings,NA,NA
NA,NA,NA,NA,NA,choice_trial_setup,html-keyboard-response,20,117357,0.0-4.0-0.8,350,1,2025-05-09T13:56:48Z,b60275e29fe2361ab97ac0ac217840d7,"Mozilla/5.0 (Windows NT 10.0; Win64; x64) AppleWebKit/537.36 (KHTML, like Gecko) Chrome/136.0.0.0 Safari/537.36",WebKit,Chrome,136.0.0.0,Windows,10,https://5puzkbbxv1.cognition.run/?sona_id=52966,"en-US,en;q=0.9",wcuvqpeuzxbjm9w,19,"[""White""]",Yes,Female,NA,No,561175.5,NA,null,<p></p>,null,choice,ctd,trinary,repulsion_B,1,televisions,null,null,null,null,null,null,2,NA,NA,NA,NA,NA,NA,NA,NA,NA,NA
NA,NA,NA,NA,NA,choice_trial,survey-html-form,21,124168,0.0-4.0-1.8,350,1,2025-05-09T13:56:48Z,b60275e29fe2361ab97ac0ac217840d7,"Mozilla/5.0 (Windows NT 10.0; Win64; x64) AppleWebKit/537.36 (KHTML, like Gecko) Chrome/136.0.0.0 Safari/537.36",WebKit,Chrome,136.0.0.0,Windows,10,https://5puzkbbxv1.cognition.run/?sona_id=52966,"en-US,en;q=0.9",wcuvqpeuzxbjm9w,19,"[""White""]",Yes,Female,NA,No,561175.5,NA,6811,NA,"{""product_choice"":""B""}",choice,ctd,trinary,repulsion_B,1,televisions,null,null,null,null,null,null,2,90,100,80,40,30,40,Screen size,Average lifespan,NA,NA
NA,NA,NA,NA,NA,choice_trial_setup,html-keyboard-response,22,124470,0.0-4.0-0.9,350,1,2025-05-09T13:56:48Z,b60275e29fe2361ab97ac0ac217840d7,"Mozilla/5.0 (Windows NT 10.0; Win64; x64) AppleWebKit/537.36 (KHTML, like Gecko) Chrome/136.0.0.0 Safari/537.36",WebKit,Chrome,136.0.0.0,Windows,10,https://5puzkbbxv1.cognition.run/?sona_id=52966,"en-US,en;q=0.9",wcuvqpeuzxbjm9w,19,"[""White""]",Yes,Female,NA,No,561175.5,NA,null,<p></p>,null,choice,ct,binary,repulsion,1,microwave ovens,null,null,null,null,null,null,1,NA,NA,NA,NA,NA,NA,NA,NA,NA,NA
NA,NA,NA,NA,NA,choice_trial,survey-html-form,23,131921,0.0-4.0-1.9,350,1,2025-05-09T13:56:48Z,b60275e29fe2361ab97ac0ac217840d7,"Mozilla/5.0 (Windows NT 10.0; Win64; x64) AppleWebKit/537.36 (KHTML, like Gecko) Chrome/136.0.0.0 Safari/537.36",WebKit,Chrome,136.0.0.0,Windows,10,https://5puzkbbxv1.cognition.run/?sona_id=52966,"en-US,en;q=0.9",wcuvqpeuzxbjm9w,19,"[""White""]",Yes,Female,NA,No,561175.5,NA,7451,NA,"{""product_choice"":""B""}",choice,ct,binary,repulsion,1,microwave ovens,null,null,null,null,null,null,1,100,90,null,30,40,null,Warranty,Cooking power,NA,NA
NA,NA,NA,NA,NA,choice_trial_setup,html-keyboard-response,24,132223,0.0-4.0-0.10,350,1,2025-05-09T13:56:48Z,b60275e29fe2361ab97ac0ac217840d7,"Mozilla/5.0 (Windows NT 10.0; Win64; x64) AppleWebKit/537.36 (KHTML, like Gecko) Chrome/136.0.0.0 Safari/537.36",WebKit,Chrome,136.0.0.0,Windows,10,https://5puzkbbxv1.cognition.run/?sona_id=52966,"en-US,en;q=0.9",wcuvqpeuzxbjm9w,19,"[""White""]",Yes,Female,NA,No,561175.5,NA,null,<p></p>,null,choice,ct,binary,repulsion,2,televisions,null,null,null,null,null,null,1,NA,NA,NA,NA,NA,NA,NA,NA,NA,NA
NA,NA,NA,NA,NA,choice_trial,survey-html-form,25,137040,0.0-4.0-1.10,350,1,2025-05-09T13:56:48Z,b60275e29fe2361ab97ac0ac217840d7,"Mozilla/5.0 (Windows NT 10.0; Win64; x64) AppleWebKit/537.36 (KHTML, like Gecko) Chrome/136.0.0.0 Safari/537.36",WebKit,Chrome,136.0.0.0,Windows,10,https://5puzkbbxv1.cognition.run/?sona_id=52966,"en-US,en;q=0.9",wcuvqpeuzxbjm9w,19,"[""White""]",Yes,Female,NA,No,561175.5,NA,4816,NA,"{""product_choice"":""B""}",choice,ct,binary,repulsion,2,televisions,null,null,null,null,null,null,1,30,40,null,100,90,null,Screen size,Average lifespan,NA,NA
NA,NA,NA,NA,NA,choice_trial_setup,html-keyboard-response,26,137341,0.0-4.0-0.11,350,1,2025-05-09T13:56:48Z,b60275e29fe2361ab97ac0ac217840d7,"Mozilla/5.0 (Windows NT 10.0; Win64; x64) AppleWebKit/537.36 (KHTML, like Gecko) Chrome/136.0.0.0 Safari/537.36",WebKit,Chrome,136.0.0.0,Windows,10,https://5puzkbbxv1.cognition.run/?sona_id=52966,"en-US,en;q=0.9",wcuvqpeuzxbjm9w,19,"[""White""]",Yes,Female,NA,No,561175.5,NA,null,<p></p>,null,choice,ct,binary,repulsion,2,microwave ovens,null,null,null,null,null,null,1,NA,NA,NA,NA,NA,NA,NA,NA,NA,NA
NA,NA,NA,NA,NA,choice_trial,survey-html-form,27,142936,0.0-4.0-1.11,350,1,2025-05-09T13:56:48Z,b60275e29fe2361ab97ac0ac217840d7,"Mozilla/5.0 (Windows NT 10.0; Win64; x64) AppleWebKit/537.36 (KHTML, like Gecko) Chrome/136.0.0.0 Safari/537.36",WebKit,Chrome,136.0.0.0,Windows,10,https://5puzkbbxv1.cognition.run/?sona_id=52966,"en-US,en;q=0.9",wcuvqpeuzxbjm9w,19,"[""White""]",Yes,Female,NA,No,561175.5,NA,5594,NA,"{""product_choice"":""A""}",choice,ct,binary,repulsion,2,microwave ovens,null,null,null,null,null,null,1,30,40,null,100,90,null,Warranty,Cooking power,NA,NA
NA,NA,NA,NA,NA,choice_trial_setup,html-keyboard-response,28,143237,0.0-4.0-0.12,350,1,2025-05-09T13:56:48Z,b60275e29fe2361ab97ac0ac217840d7,"Mozilla/5.0 (Windows NT 10.0; Win64; x64) AppleWebKit/537.36 (KHTML, like Gecko) Chrome/136.0.0.0 Safari/537.36",WebKit,Chrome,136.0.0.0,Windows,10,https://5puzkbbxv1.cognition.run/?sona_id=52966,"en-US,en;q=0.9",wcuvqpeuzxbjm9w,19,"[""White""]",Yes,Female,NA,No,561175.5,NA,null,<p></p>,null,choice,ct,binary,repulsion,2,washing machines,null,null,null,null,null,null,1,NA,NA,NA,NA,NA,NA,NA,NA,NA,NA
NA,NA,NA,NA,NA,choice_trial,survey-html-form,29,146680,0.0-4.0-1.12,350,1,2025-05-09T13:56:48Z,b60275e29fe2361ab97ac0ac217840d7,"Mozilla/5.0 (Windows NT 10.0; Win64; x64) AppleWebKit/537.36 (KHTML, like Gecko) Chrome/136.0.0.0 Safari/537.36",WebKit,Chrome,136.0.0.0,Windows,10,https://5puzkbbxv1.cognition.run/?sona_id=52966,"en-US,en;q=0.9",wcuvqpeuzxbjm9w,19,"[""White""]",Yes,Female,NA,No,561175.5,NA,3441,NA,"{""product_choice"":""A""}",choice,ct,binary,repulsion,2,washing machines,null,null,null,null,null,null,1,30,40,null,100,90,null,Average lifespan,Energy savings,NA,NA
NA,NA,NA,NA,NA,choice_trial_setup,html-keyboard-response,30,146981,0.0-4.0-0.13,350,1,2025-05-09T13:56:48Z,b60275e29fe2361ab97ac0ac217840d7,"Mozilla/5.0 (Windows NT 10.0; Win64; x64) AppleWebKit/537.36 (KHTML, like Gecko) Chrome/136.0.0.0 Safari/537.36",WebKit,Chrome,136.0.0.0,Windows,10,https://5puzkbbxv1.cognition.run/?sona_id=52966,"en-US,en;q=0.9",wcuvqpeuzxbjm9w,19,"[""White""]",Yes,Female,NA,No,561175.5,NA,null,<p></p>,null,choice,tc,binary,repulsion,1,laptops,null,null,null,null,null,null,1,NA,NA,NA,NA,NA,NA,NA,NA,NA,NA
NA,NA,NA,NA,NA,choice_trial,survey-html-form,31,156839,0.0-4.0-1.13,350,1,2025-05-09T13:56:48Z,b60275e29fe2361ab97ac0ac217840d7,"Mozilla/5.0 (Windows NT 10.0; Win64; x64) AppleWebKit/537.36 (KHTML, like Gecko) Chrome/136.0.0.0 Safari/537.36",WebKit,Chrome,136.0.0.0,Windows,10,https://5puzkbbxv1.cognition.run/?sona_id=52966,"en-US,en;q=0.9",wcuvqpeuzxbjm9w,19,"[""White""]",Yes,Female,NA,No,561175.5,NA,9856,NA,"{""product_choice"":""B""}",choice,tc,binary,repulsion,1,laptops,null,null,null,null,null,null,1,100,90,null,30,40,null,Processing speed,Memory (RAM),NA,NA
NA,NA,NA,NA,NA,choice_trial_setup,html-keyboard-response,32,157141,0.0-4.0-0.14,350,1,2025-05-09T13:56:48Z,b60275e29fe2361ab97ac0ac217840d7,"Mozilla/5.0 (Windows NT 10.0; Win64; x64) AppleWebKit/537.36 (KHTML, like Gecko) Chrome/136.0.0.0 Safari/537.36",WebKit,Chrome,136.0.0.0,Windows,10,https://5puzkbbxv1.cognition.run/?sona_id=52966,"en-US,en;q=0.9",wcuvqpeuzxbjm9w,19,"[""White""]",Yes,Female,NA,No,561175.5,NA,null,<p></p>,null,choice,ct,binary,attraction,NA,laptops,null,null,null,null,null,null,1,NA,NA,NA,NA,NA,NA,NA,NA,NA,NA
NA,NA,NA,NA,NA,choice_trial,survey-html-form,33,162425,0.0-4.0-1.14,350,1,2025-05-09T13:56:48Z,b60275e29fe2361ab97ac0ac217840d7,"Mozilla/5.0 (Windows NT 10.0; Win64; x64) AppleWebKit/537.36 (KHTML, like Gecko) Chrome/136.0.0.0 Safari/537.36",WebKit,Chrome,136.0.0.0,Windows,10,https://5puzkbbxv1.cognition.run/?sona_id=52966,"en-US,en;q=0.9",wcuvqpeuzxbjm9w,19,"[""White""]",Yes,Female,NA,No,561175.5,NA,5278,NA,"{""product_choice"":""B""}",choice,ct,binary,attraction,NA,laptops,null,null,null,null,null,null,1,60,50,null,50,60,null,Processing speed,Memory (RAM),NA,NA
NA,NA,NA,NA,NA,choice_trial_setup,html-keyboard-response,34,162727,0.0-4.0-0.15,350,1,2025-05-09T13:56:48Z,b60275e29fe2361ab97ac0ac217840d7,"Mozilla/5.0 (Windows NT 10.0; Win64; x64) AppleWebKit/537.36 (KHTML, like Gecko) Chrome/136.0.0.0 Safari/537.36",WebKit,Chrome,136.0.0.0,Windows,10,https://5puzkbbxv1.cognition.run/?sona_id=52966,"en-US,en;q=0.9",wcuvqpeuzxbjm9w,19,"[""White""]",Yes,Female,NA,No,561175.5,NA,null,<p></p>,null,choice,wb,binary,catch,null,washing machines,50,50,45,10,null,null,2,NA,NA,NA,NA,NA,NA,NA,NA,NA,NA
NA,NA,NA,NA,NA,choice_trial,survey-html-form,35,172364,0.0-4.0-1.15,350,1,2025-05-09T13:56:48Z,b60275e29fe2361ab97ac0ac217840d7,"Mozilla/5.0 (Windows NT 10.0; Win64; x64) AppleWebKit/537.36 (KHTML, like Gecko) Chrome/136.0.0.0 Safari/537.36",WebKit,Chrome,136.0.0.0,Windows,10,https://5puzkbbxv1.cognition.run/?sona_id=52966,"en-US,en;q=0.9",wcuvqpeuzxbjm9w,19,"[""White""]",Yes,Female,NA,No,561175.5,NA,9637,NA,"{""product_choice"":""B""}",choice,wb,binary,catch,null,washing machines,50,50,45,10,null,null,2,null,null,null,null,null,null,Average lifespan,Energy savings,NA,NA
NA,NA,NA,NA,NA,choice_trial_setup,html-keyboard-response,36,172667,0.0-4.0-0.16,350,1,2025-05-09T13:56:48Z,b60275e29fe2361ab97ac0ac217840d7,"Mozilla/5.0 (Windows NT 10.0; Win64; x64) AppleWebKit/537.36 (KHTML, like Gecko) Chrome/136.0.0.0 Safari/537.36",WebKit,Chrome,136.0.0.0,Windows,10,https://5puzkbbxv1.cognition.run/?sona_id=52966,"en-US,en;q=0.9",wcuvqpeuzxbjm9w,19,"[""White""]",Yes,Female,NA,No,561175.5,NA,null,<p></p>,null,choice,wwb,trinary,catch,null,laptops,65,55,15,40,35,25,1,NA,NA,NA,NA,NA,NA,NA,NA,NA,NA
NA,NA,NA,NA,NA,choice_trial,survey-html-form,37,178081,0.0-4.0-1.16,350,1,2025-05-09T13:56:48Z,b60275e29fe2361ab97ac0ac217840d7,"Mozilla/5.0 (Windows NT 10.0; Win64; x64) AppleWebKit/537.36 (KHTML, like Gecko) Chrome/136.0.0.0 Safari/537.36",WebKit,Chrome,136.0.0.0,Windows,10,https://5puzkbbxv1.cognition.run/?sona_id=52966,"en-US,en;q=0.9",wcuvqpeuzxbjm9w,19,"[""White""]",Yes,Female,NA,No,561175.5,NA,5409,NA,"{""product_choice"":""C""}",choice,wwb,trinary,catch,null,laptops,65,55,15,40,35,25,1,null,null,null,null,null,null,Processing speed,Memory (RAM),NA,NA
NA,NA,NA,NA,NA,choice_trial_setup,html-keyboard-response,38,178384,0.0-4.0-0.17,350,1,2025-05-09T13:56:48Z,b60275e29fe2361ab97ac0ac217840d7,"Mozilla/5.0 (Windows NT 10.0; Win64; x64) AppleWebKit/537.36 (KHTML, like Gecko) Chrome/136.0.0.0 Safari/537.36",WebKit,Chrome,136.0.0.0,Windows,10,https://5puzkbbxv1.cognition.run/?sona_id=52966,"en-US,en;q=0.9",wcuvqpeuzxbjm9w,19,"[""White""]",Yes,Female,NA,No,561175.5,NA,null,<p></p>,null,choice,dtc,trinary,repulsion_B,2,laptops,null,null,null,null,null,null,1,NA,NA,NA,NA,NA,NA,NA,NA,NA,NA
NA,NA,NA,NA,NA,choice_trial,survey-html-form,39,183483,0.0-4.0-1.17,350,1,2025-05-09T13:56:48Z,b60275e29fe2361ab97ac0ac217840d7,"Mozilla/5.0 (Windows NT 10.0; Win64; x64) AppleWebKit/537.36 (KHTML, like Gecko) Chrome/136.0.0.0 Safari/537.36",WebKit,Chrome,136.0.0.0,Windows,10,https://5puzkbbxv1.cognition.run/?sona_id=52966,"en-US,en;q=0.9",wcuvqpeuzxbjm9w,19,"[""White""]",Yes,Female,NA,No,561175.5,NA,5098,NA,"{""product_choice"":""B""}",choice,dtc,trinary,repulsion_B,2,laptops,null,null,null,null,null,null,1,40,30,40,90,100,80,Processing speed,Memory (RAM),NA,NA
NA,NA,NA,NA,NA,choice_trial_setup,html-keyboard-response,40,183784,0.0-4.0-0.18,350,1,2025-05-09T13:56:48Z,b60275e29fe2361ab97ac0ac217840d7,"Mozilla/5.0 (Windows NT 10.0; Win64; x64) AppleWebKit/537.36 (KHTML, like Gecko) Chrome/136.0.0.0 Safari/537.36",WebKit,Chrome,136.0.0.0,Windows,10,https://5puzkbbxv1.cognition.run/?sona_id=52966,"en-US,en;q=0.9",wcuvqpeuzxbjm9w,19,"[""White""]",Yes,Female,NA,No,561175.5,NA,null,<p></p>,null,choice,tdc,trinary,repulsion_B,1,laptops,null,null,null,null,null,null,2,NA,NA,NA,NA,NA,NA,NA,NA,NA,NA
NA,NA,NA,NA,NA,choice_trial,survey-html-form,41,192631,0.0-4.0-1.18,350,1,2025-05-09T13:56:48Z,b60275e29fe2361ab97ac0ac217840d7,"Mozilla/5.0 (Windows NT 10.0; Win64; x64) AppleWebKit/537.36 (KHTML, like Gecko) Chrome/136.0.0.0 Safari/537.36",WebKit,Chrome,136.0.0.0,Windows,10,https://5puzkbbxv1.cognition.run/?sona_id=52966,"en-US,en;q=0.9",wcuvqpeuzxbjm9w,19,"[""White""]",Yes,Female,NA,No,561175.5,NA,8846,NA,"{""product_choice"":""A""}",choice,tdc,trinary,repulsion_B,1,laptops,null,null,null,null,null,null,2,90,100,80,40,30,40,Processing speed,Memory (RAM),NA,NA
NA,NA,NA,NA,NA,choice_trial_setup,html-keyboard-response,42,192932,0.0-4.0-0.19,350,1,2025-05-09T13:56:48Z,b60275e29fe2361ab97ac0ac217840d7,"Mozilla/5.0 (Windows NT 10.0; Win64; x64) AppleWebKit/537.36 (KHTML, like Gecko) Chrome/136.0.0.0 Safari/537.36",WebKit,Chrome,136.0.0.0,Windows,10,https://5puzkbbxv1.cognition.run/?sona_id=52966,"en-US,en;q=0.9",wcuvqpeuzxbjm9w,19,"[""White""]",Yes,Female,NA,No,561175.5,NA,null,<p></p>,null,choice,dtc,trinary,attraction,2,microwave ovens,null,null,null,null,null,null,1,NA,NA,NA,NA,NA,NA,NA,NA,NA,NA
NA,NA,NA,NA,NA,choice_trial,survey-html-form,43,200766,0.0-4.0-1.19,350,1,2025-05-09T13:56:48Z,b60275e29fe2361ab97ac0ac217840d7,"Mozilla/5.0 (Windows NT 10.0; Win64; x64) AppleWebKit/537.36 (KHTML, like Gecko) Chrome/136.0.0.0 Safari/537.36",WebKit,Chrome,136.0.0.0,Windows,10,https://5puzkbbxv1.cognition.run/?sona_id=52966,"en-US,en;q=0.9",wcuvqpeuzxbjm9w,19,"[""White""]",Yes,Female,NA,No,561175.5,NA,7831,NA,"{""product_choice"":""B""}",choice,dtc,trinary,attraction,2,microwave ovens,null,null,null,null,null,null,1,50,60,40,60,50,60,Warranty,Cooking power,NA,NA
NA,NA,NA,NA,NA,choice_trial_setup,html-keyboard-response,44,201067,0.0-4.0-0.20,350,1,2025-05-09T13:56:48Z,b60275e29fe2361ab97ac0ac217840d7,"Mozilla/5.0 (Windows NT 10.0; Win64; x64) AppleWebKit/537.36 (KHTML, like Gecko) Chrome/136.0.0.0 Safari/537.36",WebKit,Chrome,136.0.0.0,Windows,10,https://5puzkbbxv1.cognition.run/?sona_id=52966,"en-US,en;q=0.9",wcuvqpeuzxbjm9w,19,"[""White""]",Yes,Female,NA,No,561175.5,NA,null,<p></p>,null,choice,wb,binary,catch,null,microwave ovens,60,50,35,5,null,null,1,NA,NA,NA,NA,NA,NA,NA,NA,NA,NA
NA,NA,NA,NA,NA,choice_trial,survey-html-form,45,208824,0.0-4.0-1.20,350,1,2025-05-09T13:56:48Z,b60275e29fe2361ab97ac0ac217840d7,"Mozilla/5.0 (Windows NT 10.0; Win64; x64) AppleWebKit/537.36 (KHTML, like Gecko) Chrome/136.0.0.0 Safari/537.36",WebKit,Chrome,136.0.0.0,Windows,10,https://5puzkbbxv1.cognition.run/?sona_id=52966,"en-US,en;q=0.9",wcuvqpeuzxbjm9w,19,"[""White""]",Yes,Female,NA,No,561175.5,NA,7755,NA,"{""product_choice"":""B""}",choice,wb,binary,catch,null,microwave ovens,60,50,35,5,null,null,1,null,null,null,null,null,null,Warranty,Cooking power,NA,NA
NA,NA,NA,NA,NA,choice_trial_setup,html-keyboard-response,46,209126,0.0-4.0-0.21,350,1,2025-05-09T13:56:48Z,b60275e29fe2361ab97ac0ac217840d7,"Mozilla/5.0 (Windows NT 10.0; Win64; x64) AppleWebKit/537.36 (KHTML, like Gecko) Chrome/136.0.0.0 Safari/537.36",WebKit,Chrome,136.0.0.0,Windows,10,https://5puzkbbxv1.cognition.run/?sona_id=52966,"en-US,en;q=0.9",wcuvqpeuzxbjm9w,19,"[""White""]",Yes,Female,NA,No,561175.5,NA,null,<p></p>,null,choice,dct,trinary,repulsion_B,1,washing machines,null,null,null,null,null,null,1,NA,NA,NA,NA,NA,NA,NA,NA,NA,NA
NA,NA,NA,NA,NA,choice_trial,survey-html-form,47,218264,0.0-4.0-1.21,350,1,2025-05-09T13:56:48Z,b60275e29fe2361ab97ac0ac217840d7,"Mozilla/5.0 (Windows NT 10.0; Win64; x64) AppleWebKit/537.36 (KHTML, like Gecko) Chrome/136.0.0.0 Safari/537.36",WebKit,Chrome,136.0.0.0,Windows,10,https://5puzkbbxv1.cognition.run/?sona_id=52966,"en-US,en;q=0.9",wcuvqpeuzxbjm9w,19,"[""White""]",Yes,Female,NA,No,561175.5,NA,9137,NA,"{""product_choice"":""C""}",choice,dct,trinary,repulsion_B,1,washing machines,null,null,null,null,null,null,1,90,100,80,40,30,40,Average lifespan,Energy savings,NA,NA
NA,NA,NA,NA,NA,choice_trial_setup,html-keyboard-response,48,218566,0.0-4.0-0.22,350,1,2025-05-09T13:56:48Z,b60275e29fe2361ab97ac0ac217840d7,"Mozilla/5.0 (Windows NT 10.0; Win64; x64) AppleWebKit/537.36 (KHTML, like Gecko) Chrome/136.0.0.0 Safari/537.36",WebKit,Chrome,136.0.0.0,Windows,10,https://5puzkbbxv1.cognition.run/?sona_id=52966,"en-US,en;q=0.9",wcuvqpeuzxbjm9w,19,"[""White""]",Yes,Female,NA,No,561175.5,NA,null,<p></p>,null,choice,tcd,trinary,repulsion_A,1,microwave ovens,null,null,null,null,null,null,1,NA,NA,NA,NA,NA,NA,NA,NA,NA,NA
NA,NA,NA,NA,NA,choice_trial,survey-html-form,49,232273,0.0-4.0-1.22,350,1,2025-05-09T13:56:48Z,b60275e29fe2361ab97ac0ac217840d7,"Mozilla/5.0 (Windows NT 10.0; Win64; x64) AppleWebKit/537.36 (KHTML, like Gecko) Chrome/136.0.0.0 Safari/537.36",WebKit,Chrome,136.0.0.0,Windows,10,https://5puzkbbxv1.cognition.run/?sona_id=52966,"en-US,en;q=0.9",wcuvqpeuzxbjm9w,19,"[""White""]",Yes,Female,NA,No,561175.5,NA,13701,NA,"{""product_choice"":""A""}",choice,tcd,trinary,repulsion_A,1,microwave ovens,null,null,null,null,null,null,1,100,90,100,30,40,20,Warranty,Cooking power,NA,NA
NA,NA,NA,NA,NA,choice_trial_setup,html-keyboard-response,50,232589,0.0-4.0-0.23,350,1,2025-05-09T13:56:48Z,b60275e29fe2361ab97ac0ac217840d7,"Mozilla/5.0 (Windows NT 10.0; Win64; x64) AppleWebKit/537.36 (KHTML, like Gecko) Chrome/136.0.0.0 Safari/537.36",WebKit,Chrome,136.0.0.0,Windows,10,https://5puzkbbxv1.cognition.run/?sona_id=52966,"en-US,en;q=0.9",wcuvqpeuzxbjm9w,19,"[""White""]",Yes,Female,NA,No,561175.5,NA,null,<p></p>,null,choice,ct,binary,attraction,NA,washing machines,null,null,null,null,null,null,2,NA,NA,NA,NA,NA,NA,NA,NA,NA,NA
NA,NA,NA,NA,NA,choice_trial,survey-html-form,51,241534,0.0-4.0-1.23,350,1,2025-05-09T13:56:48Z,b60275e29fe2361ab97ac0ac217840d7,"Mozilla/5.0 (Windows NT 10.0; Win64; x64) AppleWebKit/537.36 (KHTML, like Gecko) Chrome/136.0.0.0 Safari/537.36",WebKit,Chrome,136.0.0.0,Windows,10,https://5puzkbbxv1.cognition.run/?sona_id=52966,"en-US,en;q=0.9",wcuvqpeuzxbjm9w,19,"[""White""]",Yes,Female,NA,No,561175.5,NA,8940,NA,"{""product_choice"":""B""}",choice,ct,binary,attraction,NA,washing machines,null,null,null,null,null,null,2,60,50,null,50,60,null,Average lifespan,Energy savings,NA,NA
NA,NA,NA,NA,NA,choice_trial_setup,html-keyboard-response,52,241836,0.0-4.0-0.24,350,1,2025-05-09T13:56:48Z,b60275e29fe2361ab97ac0ac217840d7,"Mozilla/5.0 (Windows NT 10.0; Win64; x64) AppleWebKit/537.36 (KHTML, like Gecko) Chrome/136.0.0.0 Safari/537.36",WebKit,Chrome,136.0.0.0,Windows,10,https://5puzkbbxv1.cognition.run/?sona_id=52966,"en-US,en;q=0.9",wcuvqpeuzxbjm9w,19,"[""White""]",Yes,Female,NA,No,561175.5,NA,null,<p></p>,null,choice,cdt,trinary,repulsion_B,2,washing machines,null,null,null,null,null,null,1,NA,NA,NA,NA,NA,NA,NA,NA,NA,NA
NA,NA,NA,NA,NA,choice_trial,survey-html-form,53,254841,0.0-4.0-1.24,350,1,2025-05-09T13:56:48Z,b60275e29fe2361ab97ac0ac217840d7,"Mozilla/5.0 (Windows NT 10.0; Win64; x64) AppleWebKit/537.36 (KHTML, like Gecko) Chrome/136.0.0.0 Safari/537.36",WebKit,Chrome,136.0.0.0,Windows,10,https://5puzkbbxv1.cognition.run/?sona_id=52966,"en-US,en;q=0.9",wcuvqpeuzxbjm9w,19,"[""White""]",Yes,Female,NA,No,561175.5,NA,13005,NA,"{""product_choice"":""C""}",choice,cdt,trinary,repulsion_B,2,washing machines,null,null,null,null,null,null,1,40,30,40,90,100,80,Average lifespan,Energy savings,NA,NA
NA,NA,NA,NA,NA,choice_trial_setup,html-keyboard-response,54,255144,0.0-4.0-0.25,350,1,2025-05-09T13:56:48Z,b60275e29fe2361ab97ac0ac217840d7,"Mozilla/5.0 (Windows NT 10.0; Win64; x64) AppleWebKit/537.36 (KHTML, like Gecko) Chrome/136.0.0.0 Safari/537.36",WebKit,Chrome,136.0.0.0,Windows,10,https://5puzkbbxv1.cognition.run/?sona_id=52966,"en-US,en;q=0.9",wcuvqpeuzxbjm9w,19,"[""White""]",Yes,Female,NA,No,561175.5,NA,null,<p></p>,null,choice,wb,binary,catch,null,laptops,60,70,20,35,null,null,1,NA,NA,NA,NA,NA,NA,NA,NA,NA,NA
NA,NA,NA,NA,NA,choice_trial,survey-html-form,55,260691,0.0-4.0-1.25,350,1,2025-05-09T13:56:48Z,b60275e29fe2361ab97ac0ac217840d7,"Mozilla/5.0 (Windows NT 10.0; Win64; x64) AppleWebKit/537.36 (KHTML, like Gecko) Chrome/136.0.0.0 Safari/537.36",WebKit,Chrome,136.0.0.0,Windows,10,https://5puzkbbxv1.cognition.run/?sona_id=52966,"en-US,en;q=0.9",wcuvqpeuzxbjm9w,19,"[""White""]",Yes,Female,NA,No,561175.5,NA,5544,NA,"{""product_choice"":""B""}",choice,wb,binary,catch,null,laptops,60,70,20,35,null,null,1,null,null,null,null,null,null,Processing speed,Memory (RAM),NA,NA
NA,NA,NA,NA,NA,choice_trial_setup,html-keyboard-response,56,260993,0.0-4.0-0.26,350,1,2025-05-09T13:56:48Z,b60275e29fe2361ab97ac0ac217840d7,"Mozilla/5.0 (Windows NT 10.0; Win64; x64) AppleWebKit/537.36 (KHTML, like Gecko) Chrome/136.0.0.0 Safari/537.36",WebKit,Chrome,136.0.0.0,Windows,10,https://5puzkbbxv1.cognition.run/?sona_id=52966,"en-US,en;q=0.9",wcuvqpeuzxbjm9w,19,"[""White""]",Yes,Female,NA,No,561175.5,NA,null,<p></p>,null,choice,tdc,trinary,repulsion_A,2,laptops,null,null,null,null,null,null,1,NA,NA,NA,NA,NA,NA,NA,NA,NA,NA
NA,NA,NA,NA,NA,choice_trial,survey-html-form,57,269787,0.0-4.0-1.26,350,1,2025-05-09T13:56:48Z,b60275e29fe2361ab97ac0ac217840d7,"Mozilla/5.0 (Windows NT 10.0; Win64; x64) AppleWebKit/537.36 (KHTML, like Gecko) Chrome/136.0.0.0 Safari/537.36",WebKit,Chrome,136.0.0.0,Windows,10,https://5puzkbbxv1.cognition.run/?sona_id=52966,"en-US,en;q=0.9",wcuvqpeuzxbjm9w,19,"[""White""]",Yes,Female,NA,No,561175.5,NA,8793,NA,"{""product_choice"":""C""}",choice,tdc,trinary,repulsion_A,2,laptops,null,null,null,null,null,null,1,30,40,20,100,90,100,Processing speed,Memory (RAM),NA,NA
NA,NA,NA,NA,NA,choice_trial_setup,html-keyboard-response,58,270089,0.0-4.0-0.27,350,1,2025-05-09T13:56:48Z,b60275e29fe2361ab97ac0ac217840d7,"Mozilla/5.0 (Windows NT 10.0; Win64; x64) AppleWebKit/537.36 (KHTML, like Gecko) Chrome/136.0.0.0 Safari/537.36",WebKit,Chrome,136.0.0.0,Windows,10,https://5puzkbbxv1.cognition.run/?sona_id=52966,"en-US,en;q=0.9",wcuvqpeuzxbjm9w,19,"[""White""]",Yes,Female,NA,No,561175.5,NA,null,<p></p>,null,choice,ct,binary,repulsion,2,laptops,null,null,null,null,null,null,1,NA,NA,NA,NA,NA,NA,NA,NA,NA,NA
NA,NA,NA,NA,NA,choice_trial,survey-html-form,59,276744,0.0-4.0-1.27,350,1,2025-05-09T13:56:48Z,b60275e29fe2361ab97ac0ac217840d7,"Mozilla/5.0 (Windows NT 10.0; Win64; x64) AppleWebKit/537.36 (KHTML, like Gecko) Chrome/136.0.0.0 Safari/537.36",WebKit,Chrome,136.0.0.0,Windows,10,https://5puzkbbxv1.cognition.run/?sona_id=52966,"en-US,en;q=0.9",wcuvqpeuzxbjm9w,19,"[""White""]",Yes,Female,NA,No,561175.5,NA,6652,NA,"{""product_choice"":""A""}",choice,ct,binary,repulsion,2,laptops,null,null,null,null,null,null,1,30,40,null,100,90,null,Processing speed,Memory (RAM),NA,NA
NA,NA,NA,NA,NA,choice_trial_setup,html-keyboard-response,60,277046,0.0-4.0-0.28,350,1,2025-05-09T13:56:48Z,b60275e29fe2361ab97ac0ac217840d7,"Mozilla/5.0 (Windows NT 10.0; Win64; x64) AppleWebKit/537.36 (KHTML, like Gecko) Chrome/136.0.0.0 Safari/537.36",WebKit,Chrome,136.0.0.0,Windows,10,https://5puzkbbxv1.cognition.run/?sona_id=52966,"en-US,en;q=0.9",wcuvqpeuzxbjm9w,19,"[""White""]",Yes,Female,NA,No,561175.5,NA,null,<p></p>,null,choice,ctd,trinary,repulsion_A,1,washing machines,null,null,null,null,null,null,2,NA,NA,NA,NA,NA,NA,NA,NA,NA,NA
NA,NA,NA,NA,NA,choice_trial,survey-html-form,61,285371,0.0-4.0-1.28,350,1,2025-05-09T13:56:48Z,b60275e29fe2361ab97ac0ac217840d7,"Mozilla/5.0 (Windows NT 10.0; Win64; x64) AppleWebKit/537.36 (KHTML, like Gecko) Chrome/136.0.0.0 Safari/537.36",WebKit,Chrome,136.0.0.0,Windows,10,https://5puzkbbxv1.cognition.run/?sona_id=52966,"en-US,en;q=0.9",wcuvqpeuzxbjm9w,19,"[""White""]",Yes,Female,NA,No,561175.5,NA,8320,NA,"{""product_choice"":""B""}",choice,ctd,trinary,repulsion_A,1,washing machines,null,null,null,null,null,null,2,100,90,100,30,40,20,Average lifespan,Energy savings,NA,NA
NA,NA,NA,NA,NA,choice_trial_setup,html-keyboard-response,62,285673,0.0-4.0-0.29,350,1,2025-05-09T13:56:48Z,b60275e29fe2361ab97ac0ac217840d7,"Mozilla/5.0 (Windows NT 10.0; Win64; x64) AppleWebKit/537.36 (KHTML, like Gecko) Chrome/136.0.0.0 Safari/537.36",WebKit,Chrome,136.0.0.0,Windows,10,https://5puzkbbxv1.cognition.run/?sona_id=52966,"en-US,en;q=0.9",wcuvqpeuzxbjm9w,19,"[""White""]",Yes,Female,NA,No,561175.5,NA,null,<p></p>,null,choice,cdt,trinary,repulsion_A,2,microwave ovens,null,null,null,null,null,null,1,NA,NA,NA,NA,NA,NA,NA,NA,NA,NA
NA,NA,NA,NA,NA,choice_trial,survey-html-form,63,292557,0.0-4.0-1.29,350,1,2025-05-09T13:56:48Z,b60275e29fe2361ab97ac0ac217840d7,"Mozilla/5.0 (Windows NT 10.0; Win64; x64) AppleWebKit/537.36 (KHTML, like Gecko) Chrome/136.0.0.0 Safari/537.36",WebKit,Chrome,136.0.0.0,Windows,10,https://5puzkbbxv1.cognition.run/?sona_id=52966,"en-US,en;q=0.9",wcuvqpeuzxbjm9w,19,"[""White""]",Yes,Female,NA,No,561175.5,NA,6882,NA,"{""product_choice"":""A""}",choice,cdt,trinary,repulsion_A,2,microwave ovens,null,null,null,null,null,null,1,30,40,20,100,90,100,Warranty,Cooking power,NA,NA
NA,NA,NA,NA,NA,choice_trial_setup,html-keyboard-response,64,292859,0.0-4.0-0.30,350,1,2025-05-09T13:56:48Z,b60275e29fe2361ab97ac0ac217840d7,"Mozilla/5.0 (Windows NT 10.0; Win64; x64) AppleWebKit/537.36 (KHTML, like Gecko) Chrome/136.0.0.0 Safari/537.36",WebKit,Chrome,136.0.0.0,Windows,10,https://5puzkbbxv1.cognition.run/?sona_id=52966,"en-US,en;q=0.9",wcuvqpeuzxbjm9w,19,"[""White""]",Yes,Female,NA,No,561175.5,NA,null,<p></p>,null,choice,cdt,trinary,repulsion_B,2,televisions,null,null,null,null,null,null,2,NA,NA,NA,NA,NA,NA,NA,NA,NA,NA
NA,NA,NA,NA,NA,choice_trial,survey-html-form,65,296306,0.0-4.0-1.30,350,1,2025-05-09T13:56:48Z,b60275e29fe2361ab97ac0ac217840d7,"Mozilla/5.0 (Windows NT 10.0; Win64; x64) AppleWebKit/537.36 (KHTML, like Gecko) Chrome/136.0.0.0 Safari/537.36",WebKit,Chrome,136.0.0.0,Windows,10,https://5puzkbbxv1.cognition.run/?sona_id=52966,"en-US,en;q=0.9",wcuvqpeuzxbjm9w,19,"[""White""]",Yes,Female,NA,No,561175.5,NA,3445,NA,"{""product_choice"":""A""}",choice,cdt,trinary,repulsion_B,2,televisions,null,null,null,null,null,null,2,40,30,40,90,100,80,Screen size,Average lifespan,NA,NA
NA,NA,NA,NA,NA,choice_trial_setup,html-keyboard-response,66,296607,0.0-4.0-0.31,350,1,2025-05-09T13:56:48Z,b60275e29fe2361ab97ac0ac217840d7,"Mozilla/5.0 (Windows NT 10.0; Win64; x64) AppleWebKit/537.36 (KHTML, like Gecko) Chrome/136.0.0.0 Safari/537.36",WebKit,Chrome,136.0.0.0,Windows,10,https://5puzkbbxv1.cognition.run/?sona_id=52966,"en-US,en;q=0.9",wcuvqpeuzxbjm9w,19,"[""White""]",Yes,Female,NA,No,561175.5,NA,null,<p></p>,null,choice,ctd,trinary,repulsion_A,1,televisions,null,null,null,null,null,null,2,NA,NA,NA,NA,NA,NA,NA,NA,NA,NA
NA,NA,NA,NA,NA,choice_trial,survey-html-form,67,304763,0.0-4.0-1.31,350,1,2025-05-09T13:56:48Z,b60275e29fe2361ab97ac0ac217840d7,"Mozilla/5.0 (Windows NT 10.0; Win64; x64) AppleWebKit/537.36 (KHTML, like Gecko) Chrome/136.0.0.0 Safari/537.36",WebKit,Chrome,136.0.0.0,Windows,10,https://5puzkbbxv1.cognition.run/?sona_id=52966,"en-US,en;q=0.9",wcuvqpeuzxbjm9w,19,"[""White""]",Yes,Female,NA,No,561175.5,NA,8154,NA,"{""product_choice"":""A""}",choice,ctd,trinary,repulsion_A,1,televisions,null,null,null,null,null,null,2,100,90,100,30,40,20,Screen size,Average lifespan,NA,NA
NA,NA,NA,NA,NA,choice_trial_setup,html-keyboard-response,68,305065,0.0-4.0-0.32,350,1,2025-05-09T13:56:48Z,b60275e29fe2361ab97ac0ac217840d7,"Mozilla/5.0 (Windows NT 10.0; Win64; x64) AppleWebKit/537.36 (KHTML, like Gecko) Chrome/136.0.0.0 Safari/537.36",WebKit,Chrome,136.0.0.0,Windows,10,https://5puzkbbxv1.cognition.run/?sona_id=52966,"en-US,en;q=0.9",wcuvqpeuzxbjm9w,19,"[""White""]",Yes,Female,NA,No,561175.5,NA,null,<p></p>,null,choice,ct,binary,repulsion,1,televisions,null,null,null,null,null,null,2,NA,NA,NA,NA,NA,NA,NA,NA,NA,NA
NA,NA,NA,NA,NA,choice_trial,survey-html-form,69,311299,0.0-4.0-1.32,350,1,2025-05-09T13:56:48Z,b60275e29fe2361ab97ac0ac217840d7,"Mozilla/5.0 (Windows NT 10.0; Win64; x64) AppleWebKit/537.36 (KHTML, like Gecko) Chrome/136.0.0.0 Safari/537.36",WebKit,Chrome,136.0.0.0,Windows,10,https://5puzkbbxv1.cognition.run/?sona_id=52966,"en-US,en;q=0.9",wcuvqpeuzxbjm9w,19,"[""White""]",Yes,Female,NA,No,561175.5,NA,6229,NA,"{""product_choice"":""A""}",choice,ct,binary,repulsion,1,televisions,null,null,null,null,null,null,2,100,90,null,30,40,null,Screen size,Average lifespan,NA,NA
NA,NA,NA,NA,NA,choice_trial_setup,html-keyboard-response,70,311601,0.0-4.0-0.33,350,1,2025-05-09T13:56:48Z,b60275e29fe2361ab97ac0ac217840d7,"Mozilla/5.0 (Windows NT 10.0; Win64; x64) AppleWebKit/537.36 (KHTML, like Gecko) Chrome/136.0.0.0 Safari/537.36",WebKit,Chrome,136.0.0.0,Windows,10,https://5puzkbbxv1.cognition.run/?sona_id=52966,"en-US,en;q=0.9",wcuvqpeuzxbjm9w,19,"[""White""]",Yes,Female,NA,No,561175.5,NA,null,<p></p>,null,choice,ctd,trinary,repulsion_B,2,microwave ovens,null,null,null,null,null,null,2,NA,NA,NA,NA,NA,NA,NA,NA,NA,NA
NA,NA,NA,NA,NA,choice_trial,survey-html-form,71,316758,0.0-4.0-1.33,350,1,2025-05-09T13:56:48Z,b60275e29fe2361ab97ac0ac217840d7,"Mozilla/5.0 (Windows NT 10.0; Win64; x64) AppleWebKit/537.36 (KHTML, like Gecko) Chrome/136.0.0.0 Safari/537.36",WebKit,Chrome,136.0.0.0,Windows,10,https://5puzkbbxv1.cognition.run/?sona_id=52966,"en-US,en;q=0.9",wcuvqpeuzxbjm9w,19,"[""White""]",Yes,Female,NA,No,561175.5,NA,5156,NA,"{""product_choice"":""B""}",choice,ctd,trinary,repulsion_B,2,microwave ovens,null,null,null,null,null,null,2,40,30,40,90,100,80,Warranty,Cooking power,NA,NA
NA,NA,NA,NA,NA,choice_trial_setup,html-keyboard-response,72,317061,0.0-4.0-0.34,350,1,2025-05-09T13:56:48Z,b60275e29fe2361ab97ac0ac217840d7,"Mozilla/5.0 (Windows NT 10.0; Win64; x64) AppleWebKit/537.36 (KHTML, like Gecko) Chrome/136.0.0.0 Safari/537.36",WebKit,Chrome,136.0.0.0,Windows,10,https://5puzkbbxv1.cognition.run/?sona_id=52966,"en-US,en;q=0.9",wcuvqpeuzxbjm9w,19,"[""White""]",Yes,Female,NA,No,561175.5,NA,null,<p></p>,null,choice,dtc,trinary,attraction,1,microwave ovens,null,null,null,null,null,null,1,NA,NA,NA,NA,NA,NA,NA,NA,NA,NA
NA,NA,NA,NA,NA,choice_trial,survey-html-form,73,320790,0.0-4.0-1.34,350,1,2025-05-09T13:56:48Z,b60275e29fe2361ab97ac0ac217840d7,"Mozilla/5.0 (Windows NT 10.0; Win64; x64) AppleWebKit/537.36 (KHTML, like Gecko) Chrome/136.0.0.0 Safari/537.36",WebKit,Chrome,136.0.0.0,Windows,10,https://5puzkbbxv1.cognition.run/?sona_id=52966,"en-US,en;q=0.9",wcuvqpeuzxbjm9w,19,"[""White""]",Yes,Female,NA,No,561175.5,NA,3727,NA,"{""product_choice"":""B""}",choice,dtc,trinary,attraction,1,microwave ovens,null,null,null,null,null,null,1,60,50,60,50,60,40,Warranty,Cooking power,NA,NA
NA,NA,NA,NA,NA,choice_trial_setup,html-keyboard-response,74,321093,0.0-4.0-0.35,350,1,2025-05-09T13:56:48Z,b60275e29fe2361ab97ac0ac217840d7,"Mozilla/5.0 (Windows NT 10.0; Win64; x64) AppleWebKit/537.36 (KHTML, like Gecko) Chrome/136.0.0.0 Safari/537.36",WebKit,Chrome,136.0.0.0,Windows,10,https://5puzkbbxv1.cognition.run/?sona_id=52966,"en-US,en;q=0.9",wcuvqpeuzxbjm9w,19,"[""White""]",Yes,Female,NA,No,561175.5,NA,null,<p></p>,null,choice,tcd,trinary,attraction,2,laptops,null,null,null,null,null,null,1,NA,NA,NA,NA,NA,NA,NA,NA,NA,NA
NA,NA,NA,NA,NA,choice_trial,survey-html-form,75,324804,0.0-4.0-1.35,350,1,2025-05-09T13:56:48Z,b60275e29fe2361ab97ac0ac217840d7,"Mozilla/5.0 (Windows NT 10.0; Win64; x64) AppleWebKit/537.36 (KHTML, like Gecko) Chrome/136.0.0.0 Safari/537.36",WebKit,Chrome,136.0.0.0,Windows,10,https://5puzkbbxv1.cognition.run/?sona_id=52966,"en-US,en;q=0.9",wcuvqpeuzxbjm9w,19,"[""White""]",Yes,Female,NA,No,561175.5,NA,3709,NA,"{""product_choice"":""B""}",choice,tcd,trinary,attraction,2,laptops,null,null,null,null,null,null,1,50,60,40,60,50,60,Processing speed,Memory (RAM),NA,NA
NA,NA,NA,NA,NA,choice_trial_setup,html-keyboard-response,76,325105,0.0-4.0-0.36,350,1,2025-05-09T13:56:48Z,b60275e29fe2361ab97ac0ac217840d7,"Mozilla/5.0 (Windows NT 10.0; Win64; x64) AppleWebKit/537.36 (KHTML, like Gecko) Chrome/136.0.0.0 Safari/537.36",WebKit,Chrome,136.0.0.0,Windows,10,https://5puzkbbxv1.cognition.run/?sona_id=52966,"en-US,en;q=0.9",wcuvqpeuzxbjm9w,19,"[""White""]",Yes,Female,NA,No,561175.5,NA,null,<p></p>,null,choice,ctd,trinary,attraction,1,washing machines,null,null,null,null,null,null,1,NA,NA,NA,NA,NA,NA,NA,NA,NA,NA
NA,NA,NA,NA,NA,choice_trial,survey-html-form,77,333337,0.0-4.0-1.36,350,1,2025-05-09T13:56:48Z,b60275e29fe2361ab97ac0ac217840d7,"Mozilla/5.0 (Windows NT 10.0; Win64; x64) AppleWebKit/537.36 (KHTML, like Gecko) Chrome/136.0.0.0 Safari/537.36",WebKit,Chrome,136.0.0.0,Windows,10,https://5puzkbbxv1.cognition.run/?sona_id=52966,"en-US,en;q=0.9",wcuvqpeuzxbjm9w,19,"[""White""]",Yes,Female,NA,No,561175.5,NA,8231,NA,"{""product_choice"":""B""}",choice,ctd,trinary,attraction,1,washing machines,null,null,null,null,null,null,1,60,50,60,50,60,40,Average lifespan,Energy savings,NA,NA
NA,NA,NA,NA,NA,choice_trial_setup,html-keyboard-response,78,333639,0.0-4.0-0.37,350,1,2025-05-09T13:56:48Z,b60275e29fe2361ab97ac0ac217840d7,"Mozilla/5.0 (Windows NT 10.0; Win64; x64) AppleWebKit/537.36 (KHTML, like Gecko) Chrome/136.0.0.0 Safari/537.36",WebKit,Chrome,136.0.0.0,Windows,10,https://5puzkbbxv1.cognition.run/?sona_id=52966,"en-US,en;q=0.9",wcuvqpeuzxbjm9w,19,"[""White""]",Yes,Female,NA,No,561175.5,NA,null,<p></p>,null,choice,tdc,trinary,attraction,1,laptops,null,null,null,null,null,null,2,NA,NA,NA,NA,NA,NA,NA,NA,NA,NA
NA,NA,NA,NA,NA,choice_trial,survey-html-form,79,340816,0.0-4.0-1.37,350,1,2025-05-09T13:56:48Z,b60275e29fe2361ab97ac0ac217840d7,"Mozilla/5.0 (Windows NT 10.0; Win64; x64) AppleWebKit/537.36 (KHTML, like Gecko) Chrome/136.0.0.0 Safari/537.36",WebKit,Chrome,136.0.0.0,Windows,10,https://5puzkbbxv1.cognition.run/?sona_id=52966,"en-US,en;q=0.9",wcuvqpeuzxbjm9w,19,"[""White""]",Yes,Female,NA,No,561175.5,NA,7176,NA,"{""product_choice"":""A""}",choice,tdc,trinary,attraction,1,laptops,null,null,null,null,null,null,2,60,50,60,50,60,40,Processing speed,Memory (RAM),NA,NA
NA,NA,NA,NA,NA,choice_trial_setup,html-keyboard-response,80,341118,0.0-4.0-0.38,350,1,2025-05-09T13:56:48Z,b60275e29fe2361ab97ac0ac217840d7,"Mozilla/5.0 (Windows NT 10.0; Win64; x64) AppleWebKit/537.36 (KHTML, like Gecko) Chrome/136.0.0.0 Safari/537.36",WebKit,Chrome,136.0.0.0,Windows,10,https://5puzkbbxv1.cognition.run/?sona_id=52966,"en-US,en;q=0.9",wcuvqpeuzxbjm9w,19,"[""White""]",Yes,Female,NA,No,561175.5,NA,null,<p></p>,null,choice,tcd,trinary,attraction,1,televisions,null,null,null,null,null,null,2,NA,NA,NA,NA,NA,NA,NA,NA,NA,NA
NA,NA,NA,NA,NA,choice_trial,survey-html-form,81,348799,0.0-4.0-1.38,350,1,2025-05-09T13:56:48Z,b60275e29fe2361ab97ac0ac217840d7,"Mozilla/5.0 (Windows NT 10.0; Win64; x64) AppleWebKit/537.36 (KHTML, like Gecko) Chrome/136.0.0.0 Safari/537.36",WebKit,Chrome,136.0.0.0,Windows,10,https://5puzkbbxv1.cognition.run/?sona_id=52966,"en-US,en;q=0.9",wcuvqpeuzxbjm9w,19,"[""White""]",Yes,Female,NA,No,561175.5,NA,7679,NA,"{""product_choice"":""B""}",choice,tcd,trinary,attraction,1,televisions,null,null,null,null,null,null,2,60,50,60,50,60,40,Screen size,Average lifespan,NA,NA
NA,NA,NA,NA,NA,choice_trial_setup,html-keyboard-response,82,349100,0.0-4.0-0.39,350,1,2025-05-09T13:56:48Z,b60275e29fe2361ab97ac0ac217840d7,"Mozilla/5.0 (Windows NT 10.0; Win64; x64) AppleWebKit/537.36 (KHTML, like Gecko) Chrome/136.0.0.0 Safari/537.36",WebKit,Chrome,136.0.0.0,Windows,10,https://5puzkbbxv1.cognition.run/?sona_id=52966,"en-US,en;q=0.9",wcuvqpeuzxbjm9w,19,"[""White""]",Yes,Female,NA,No,561175.5,NA,null,<p></p>,null,choice,cdt,trinary,repulsion_B,1,microwave ovens,null,null,null,null,null,null,2,NA,NA,NA,NA,NA,NA,NA,NA,NA,NA
NA,NA,NA,NA,NA,choice_trial,survey-html-form,83,363937,0.0-4.0-1.39,350,1,2025-05-09T13:56:48Z,b60275e29fe2361ab97ac0ac217840d7,"Mozilla/5.0 (Windows NT 10.0; Win64; x64) AppleWebKit/537.36 (KHTML, like Gecko) Chrome/136.0.0.0 Safari/537.36",WebKit,Chrome,136.0.0.0,Windows,10,https://5puzkbbxv1.cognition.run/?sona_id=52966,"en-US,en;q=0.9",wcuvqpeuzxbjm9w,19,"[""White""]",Yes,Female,NA,No,561175.5,NA,14835,NA,"{""product_choice"":""A""}",choice,cdt,trinary,repulsion_B,1,microwave ovens,null,null,null,null,null,null,2,90,100,80,40,30,40,Warranty,Cooking power,NA,NA
NA,NA,NA,NA,NA,choice_trial_setup,html-keyboard-response,84,364239,0.0-4.0-0.40,350,1,2025-05-09T13:56:48Z,b60275e29fe2361ab97ac0ac217840d7,"Mozilla/5.0 (Windows NT 10.0; Win64; x64) AppleWebKit/537.36 (KHTML, like Gecko) Chrome/136.0.0.0 Safari/537.36",WebKit,Chrome,136.0.0.0,Windows,10,https://5puzkbbxv1.cognition.run/?sona_id=52966,"en-US,en;q=0.9",wcuvqpeuzxbjm9w,19,"[""White""]",Yes,Female,NA,No,561175.5,NA,null,<p></p>,null,choice,bww,trinary,catch,null,televisions,50,50,50,50,30,35,1,NA,NA,NA,NA,NA,NA,NA,NA,NA,NA
NA,NA,NA,NA,NA,choice_trial,survey-html-form,85,376297,0.0-4.0-1.40,350,1,2025-05-09T13:56:48Z,b60275e29fe2361ab97ac0ac217840d7,"Mozilla/5.0 (Windows NT 10.0; Win64; x64) AppleWebKit/537.36 (KHTML, like Gecko) Chrome/136.0.0.0 Safari/537.36",WebKit,Chrome,136.0.0.0,Windows,10,https://5puzkbbxv1.cognition.run/?sona_id=52966,"en-US,en;q=0.9",wcuvqpeuzxbjm9w,19,"[""White""]",Yes,Female,NA,No,561175.5,NA,12050,NA,"{""product_choice"":""A""}",choice,bww,trinary,catch,null,televisions,50,50,50,50,30,35,1,null,null,null,null,null,null,Screen size,Average lifespan,NA,NA
NA,NA,NA,NA,NA,choice_trial_setup,html-keyboard-response,86,376600,0.0-4.0-0.41,350,1,2025-05-09T13:56:48Z,b60275e29fe2361ab97ac0ac217840d7,"Mozilla/5.0 (Windows NT 10.0; Win64; x64) AppleWebKit/537.36 (KHTML, like Gecko) Chrome/136.0.0.0 Safari/537.36",WebKit,Chrome,136.0.0.0,Windows,10,https://5puzkbbxv1.cognition.run/?sona_id=52966,"en-US,en;q=0.9",wcuvqpeuzxbjm9w,19,"[""White""]",Yes,Female,NA,No,561175.5,NA,null,<p></p>,null,choice,tc,binary,attraction,NA,microwave ovens,null,null,null,null,null,null,2,NA,NA,NA,NA,NA,NA,NA,NA,NA,NA
NA,NA,NA,NA,NA,choice_trial,survey-html-form,87,388108,0.0-4.0-1.41,350,1,2025-05-09T13:56:48Z,b60275e29fe2361ab97ac0ac217840d7,"Mozilla/5.0 (Windows NT 10.0; Win64; x64) AppleWebKit/537.36 (KHTML, like Gecko) Chrome/136.0.0.0 Safari/537.36",WebKit,Chrome,136.0.0.0,Windows,10,https://5puzkbbxv1.cognition.run/?sona_id=52966,"en-US,en;q=0.9",wcuvqpeuzxbjm9w,19,"[""White""]",Yes,Female,NA,No,561175.5,NA,11503,NA,"{""product_choice"":""A""}",choice,tc,binary,attraction,NA,microwave ovens,null,null,null,null,null,null,2,60,50,null,50,60,null,Warranty,Cooking power,NA,NA
NA,NA,NA,NA,NA,choice_trial_setup,html-keyboard-response,88,388412,0.0-4.0-0.42,350,1,2025-05-09T13:56:48Z,b60275e29fe2361ab97ac0ac217840d7,"Mozilla/5.0 (Windows NT 10.0; Win64; x64) AppleWebKit/537.36 (KHTML, like Gecko) Chrome/136.0.0.0 Safari/537.36",WebKit,Chrome,136.0.0.0,Windows,10,https://5puzkbbxv1.cognition.run/?sona_id=52966,"en-US,en;q=0.9",wcuvqpeuzxbjm9w,19,"[""White""]",Yes,Female,NA,No,561175.5,NA,null,<p></p>,null,choice,tcd,trinary,repulsion_A,1,laptops,null,null,null,null,null,null,2,NA,NA,NA,NA,NA,NA,NA,NA,NA,NA
NA,NA,NA,NA,NA,choice_trial,survey-html-form,89,393283,0.0-4.0-1.42,350,1,2025-05-09T13:56:48Z,b60275e29fe2361ab97ac0ac217840d7,"Mozilla/5.0 (Windows NT 10.0; Win64; x64) AppleWebKit/537.36 (KHTML, like Gecko) Chrome/136.0.0.0 Safari/537.36",WebKit,Chrome,136.0.0.0,Windows,10,https://5puzkbbxv1.cognition.run/?sona_id=52966,"en-US,en;q=0.9",wcuvqpeuzxbjm9w,19,"[""White""]",Yes,Female,NA,No,561175.5,NA,4869,NA,"{""product_choice"":""A""}",choice,tcd,trinary,repulsion_A,1,laptops,null,null,null,null,null,null,2,100,90,100,30,40,20,Processing speed,Memory (RAM),NA,NA
NA,NA,NA,NA,NA,choice_trial_setup,html-keyboard-response,90,393586,0.0-4.0-0.43,350,1,2025-05-09T13:56:48Z,b60275e29fe2361ab97ac0ac217840d7,"Mozilla/5.0 (Windows NT 10.0; Win64; x64) AppleWebKit/537.36 (KHTML, like Gecko) Chrome/136.0.0.0 Safari/537.36",WebKit,Chrome,136.0.0.0,Windows,10,https://5puzkbbxv1.cognition.run/?sona_id=52966,"en-US,en;q=0.9",wcuvqpeuzxbjm9w,19,"[""White""]",Yes,Female,NA,No,561175.5,NA,null,<p></p>,null,choice,wbw,trinary,catch,null,microwave ovens,95,90,30,5,40,50,2,NA,NA,NA,NA,NA,NA,NA,NA,NA,NA
NA,NA,NA,NA,NA,choice_trial,survey-html-form,91,404712,0.0-4.0-1.43,350,1,2025-05-09T13:56:48Z,b60275e29fe2361ab97ac0ac217840d7,"Mozilla/5.0 (Windows NT 10.0; Win64; x64) AppleWebKit/537.36 (KHTML, like Gecko) Chrome/136.0.0.0 Safari/537.36",WebKit,Chrome,136.0.0.0,Windows,10,https://5puzkbbxv1.cognition.run/?sona_id=52966,"en-US,en;q=0.9",wcuvqpeuzxbjm9w,19,"[""White""]",Yes,Female,NA,No,561175.5,NA,11119,NA,"{""product_choice"":""B""}",choice,wbw,trinary,catch,null,microwave ovens,95,90,30,5,40,50,2,null,null,null,null,null,null,Warranty,Cooking power,NA,NA
NA,NA,NA,NA,NA,post_trials_message,html-button-response,92,405782,0.0-5.0,350,1,2025-05-09T13:56:48Z,b60275e29fe2361ab97ac0ac217840d7,"Mozilla/5.0 (Windows NT 10.0; Win64; x64) AppleWebKit/537.36 (KHTML, like Gecko) Chrome/136.0.0.0 Safari/537.36",WebKit,Chrome,136.0.0.0,Windows,10,https://5puzkbbxv1.cognition.run/?sona_id=52966,"en-US,en;q=0.9",wcuvqpeuzxbjm9w,19,"[""White""]",Yes,Female,NA,No,561175.5,NA,1067,<p> <b>Thank you for your patience!</b></p><p>  The study will be done after completing a brief form. </p>,0,NA,NA,NA,NA,NA,NA,NA,NA,NA,NA,NA,NA,NA,NA,NA,NA,NA,NA,NA,NA,NA,NA,NA
NA,NA,NA,NA,NA,survey_message,survey-text,93,466931,0.0-6.0,350,1,2025-05-09T13:56:48Z,b60275e29fe2361ab97ac0ac217840d7,"Mozilla/5.0 (Windows NT 10.0; Win64; x64) AppleWebKit/537.36 (KHTML, like Gecko) Chrome/136.0.0.0 Safari/537.36",WebKit,Chrome,136.0.0.0,Windows,10,https://5puzkbbxv1.cognition.run/?sona_id=52966,"en-US,en;q=0.9",wcuvqpeuzxbjm9w,19,"[""White""]",Yes,Female,NA,No,561175.5,NA,61146,NA,"{""Q0"":""I kind of thought about this money wise, focusing on products that would last longer, even if their functions weren't as valuable. We could sell the product for longer and it would be cheaper.""}",NA,NA,NA,NA,NA,NA,NA,NA,NA,NA,NA,NA,NA,NA,NA,NA,NA,NA,NA,NA,NA,"I kind of thought about this money wise, focusing on products that would last longer, even if their functions weren't as valuable. We could sell the product for longer and it would be cheaper.",NA
NA,NA,NA,NA,NA,demo_age,survey-text,94,471234,0.0-7.0,350,1,2025-05-09T13:56:48Z,b60275e29fe2361ab97ac0ac217840d7,"Mozilla/5.0 (Windows NT 10.0; Win64; x64) AppleWebKit/537.36 (KHTML, like Gecko) Chrome/136.0.0.0 Safari/537.36",WebKit,Chrome,136.0.0.0,Windows,10,https://5puzkbbxv1.cognition.run/?sona_id=52966,"en-US,en;q=0.9",wcuvqpeuzxbjm9w,19,"[""White""]",Yes,Female,NA,No,561175.5,NA,4301,NA,"{""Q0"":""19""}",NA,NA,NA,NA,NA,NA,NA,NA,NA,NA,NA,NA,NA,NA,NA,NA,NA,NA,NA,NA,NA,NA,NA
NA,NA,NA,NA,NA,demo_race,survey-multi-select,95,475258,0.0-8.0,350,1,2025-05-09T13:56:48Z,b60275e29fe2361ab97ac0ac217840d7,"Mozilla/5.0 (Windows NT 10.0; Win64; x64) AppleWebKit/537.36 (KHTML, like Gecko) Chrome/136.0.0.0 Safari/537.36",WebKit,Chrome,136.0.0.0,Windows,10,https://5puzkbbxv1.cognition.run/?sona_id=52966,"en-US,en;q=0.9",wcuvqpeuzxbjm9w,19,"[""White""]",Yes,Female,NA,No,561175.5,NA,4021,NA,"{""Q0"":[""White""]}",NA,NA,NA,NA,NA,NA,NA,NA,NA,NA,NA,NA,NA,NA,NA,NA,NA,NA,NA,NA,NA,NA,[0]
NA,NA,NA,NA,NA,demo_ethnicity_gender,survey-multi-choice,96,480325,0.0-9.0,350,1,2025-05-09T13:56:48Z,b60275e29fe2361ab97ac0ac217840d7,"Mozilla/5.0 (Windows NT 10.0; Win64; x64) AppleWebKit/537.36 (KHTML, like Gecko) Chrome/136.0.0.0 Safari/537.36",WebKit,Chrome,136.0.0.0,Windows,10,https://5puzkbbxv1.cognition.run/?sona_id=52966,"en-US,en;q=0.9",wcuvqpeuzxbjm9w,19,"[""White""]",Yes,Female,NA,No,561175.5,NA,5064,NA,"{""Q0"":""Yes"",""Q1"":""Female""}",NA,NA,NA,NA,NA,NA,NA,NA,NA,NA,NA,NA,NA,NA,NA,NA,NA,NA,NA,NA,NA,NA,"[0,1]"
NA,NA,NA,NA,NA,demo_countries,survey-text,97,486209,0.0-10.0,350,1,2025-05-09T13:56:48Z,b60275e29fe2361ab97ac0ac217840d7,"Mozilla/5.0 (Windows NT 10.0; Win64; x64) AppleWebKit/537.36 (KHTML, like Gecko) Chrome/136.0.0.0 Safari/537.36",WebKit,Chrome,136.0.0.0,Windows,10,https://5puzkbbxv1.cognition.run/?sona_id=52966,"en-US,en;q=0.9",wcuvqpeuzxbjm9w,19,"[""White""]",Yes,Female,NA,No,561175.5,NA,5877,NA,"{""Q0"":""NA""}",NA,NA,NA,NA,NA,NA,NA,NA,NA,NA,NA,NA,NA,NA,NA,NA,NA,NA,NA,NA,NA,NA,NA
NA,NA,NA,NA,NA,demo_prev_study,survey-multi-choice,98,491861,0.0-11.0,350,1,2025-05-09T13:56:48Z,b60275e29fe2361ab97ac0ac217840d7,"Mozilla/5.0 (Windows NT 10.0; Win64; x64) AppleWebKit/537.36 (KHTML, like Gecko) Chrome/136.0.0.0 Safari/537.36",WebKit,Chrome,136.0.0.0,Windows,10,https://5puzkbbxv1.cognition.run/?sona_id=52966,"en-US,en;q=0.9",wcuvqpeuzxbjm9w,19,"[""White""]",Yes,Female,NA,No,561175.5,NA,5650,NA,"{""Q0"":""No""}",NA,NA,NA,NA,NA,NA,NA,NA,NA,NA,NA,NA,NA,NA,NA,NA,NA,NA,NA,NA,NA,NA,[0]
NA,NA,NA,NA,NA,post_survey_message,html-keyboard-response,99,495597,0.0-12.0,350,1,2025-05-09T13:56:48Z,b60275e29fe2361ab97ac0ac217840d7,"Mozilla/5.0 (Windows NT 10.0; Win64; x64) AppleWebKit/537.36 (KHTML, like Gecko) Chrome/136.0.0.0 Safari/537.36",WebKit,Chrome,136.0.0.0,Windows,10,https://5puzkbbxv1.cognition.run/?sona_id=52966,"en-US,en;q=0.9",wcuvqpeuzxbjm9w,19,"[""White""]",Yes,Female,NA,No,561175.5,NA,3733,NA,j,NA,NA,NA,NA,NA,NA,NA,NA,NA,NA,NA,NA,NA,NA,NA,NA,NA,NA,NA,NA,NA,NA,NA
NA,NA,NA,NA,NA,debrief,image-keyboard-response,100,561175,0.0-13.0,350,1,2025-05-09T13:56:48Z,b60275e29fe2361ab97ac0ac217840d7,"Mozilla/5.0 (Windows NT 10.0; Win64; x64) AppleWebKit/537.36 (KHTML, like Gecko) Chrome/136.0.0.0 Safari/537.36",WebKit,Chrome,136.0.0.0,Windows,10,https://5puzkbbxv1.cognition.run/?sona_id=52966,"en-US,en;q=0.9",wcuvqpeuzxbjm9w,19,"[""White""]",Yes,Female,NA,No,561175.5,NA,65569,Judg_choice_debrief.png,p,NA,NA,NA,NA,NA,NA,NA,NA,NA,NA,NA,NA,NA,NA,NA,NA,NA,NA,NA,NA,NA,NA,NA
