success,timeout,failed_images,failed_audio,failed_video,screen_id,trial_type,trial_index,time_elapsed,internal_node_id,run_id,condition,recorded_at,source_code_version,user_agent,device,browser,browser_version,platform,platform_version,referer,accept_language,ppt_id,age,race,ethnicity,gender,other_countries,prev_study,exp_duration,view_history,rt,stimulus,response,phase,order,set,effect,t_high,category,d1_best,d2_best,d1_worst1,d2_worst1,d1_worst2,d2_worst2,first_dim,d1_t,d1_c,d1_d,d2_t,d2_c,d2_d,d1_name,d2_name,strategy_response,question_order
TRUE,FALSE,[],[],[],img preload,preload,0,163,0.0-0.0,351,1,2025-05-09T14:07:04Z,b60275e29fe2361ab97ac0ac217840d7,"Mozilla/5.0 (Windows NT 10.0; Win64; x64) AppleWebKit/537.36 (KHTML, like Gecko) Chrome/136.0.0.0 Safari/537.36 Edg/136.0.0.0",WebKit,Edge,136.0.0.0,Windows,10,https://5puzkbbxv1.cognition.run/?sona_id=57258,"en-US,en;q=0.9",apluz8oatwppk5b,21,"[""Asian""]",No,Male,vietnam,No,448319.29999999993,NA,NA,NA,NA,NA,NA,NA,NA,NA,NA,NA,NA,NA,NA,NA,NA,NA,NA,NA,NA,NA,NA,NA,NA,NA,NA,NA
NA,NA,NA,NA,NA,computer_message,instructions,1,1938,0.0-1.0,351,1,2025-05-09T14:07:04Z,b60275e29fe2361ab97ac0ac217840d7,"Mozilla/5.0 (Windows NT 10.0; Win64; x64) AppleWebKit/537.36 (KHTML, like Gecko) Chrome/136.0.0.0 Safari/537.36 Edg/136.0.0.0",WebKit,Edge,136.0.0.0,Windows,10,https://5puzkbbxv1.cognition.run/?sona_id=57258,"en-US,en;q=0.9",apluz8oatwppk5b,21,"[""Asian""]",No,Male,vietnam,No,448319.29999999993,"[{""page_index"":0,""viewing_time"":1775}]",1775,NA,NA,NA,NA,NA,NA,NA,NA,NA,NA,NA,NA,NA,NA,NA,NA,NA,NA,NA,NA,NA,NA,NA,NA,NA
TRUE,NA,NA,NA,NA,NA,fullscreen,2,3606,0.0-2.0,351,1,2025-05-09T14:07:04Z,b60275e29fe2361ab97ac0ac217840d7,"Mozilla/5.0 (Windows NT 10.0; Win64; x64) AppleWebKit/537.36 (KHTML, like Gecko) Chrome/136.0.0.0 Safari/537.36 Edg/136.0.0.0",WebKit,Edge,136.0.0.0,Windows,10,https://5puzkbbxv1.cognition.run/?sona_id=57258,"en-US,en;q=0.9",apluz8oatwppk5b,21,"[""Asian""]",No,Male,vietnam,No,448319.29999999993,NA,656,NA,NA,NA,NA,NA,NA,NA,NA,NA,NA,NA,NA,NA,NA,NA,NA,NA,NA,NA,NA,NA,NA,NA,NA,NA
NA,NA,NA,NA,NA,choice_instructions,instructions,3,45026,0.0-3.0,351,1,2025-05-09T14:07:04Z,b60275e29fe2361ab97ac0ac217840d7,"Mozilla/5.0 (Windows NT 10.0; Win64; x64) AppleWebKit/537.36 (KHTML, like Gecko) Chrome/136.0.0.0 Safari/537.36 Edg/136.0.0.0",WebKit,Edge,136.0.0.0,Windows,10,https://5puzkbbxv1.cognition.run/?sona_id=57258,"en-US,en;q=0.9",apluz8oatwppk5b,21,"[""Asian""]",No,Male,vietnam,No,448319.29999999993,"[{""page_index"":0,""viewing_time"":1590},{""page_index"":1,""viewing_time"":6154},{""page_index"":2,""viewing_time"":3612},{""page_index"":3,""viewing_time"":1591},{""page_index"":4,""viewing_time"":488},{""page_index"":5,""viewing_time"":20944},{""page_index"":6,""viewing_time"":1689},{""page_index"":5,""viewing_time"":3923},{""page_index"":6,""viewing_time"":1430}]",41420,NA,NA,NA,NA,NA,NA,NA,NA,NA,NA,NA,NA,NA,NA,NA,NA,NA,NA,NA,NA,NA,NA,NA,NA,NA
NA,NA,NA,NA,NA,choice_trial_setup,html-keyboard-response,4,45328,0.0-4.0-0.0,351,1,2025-05-09T14:07:04Z,b60275e29fe2361ab97ac0ac217840d7,"Mozilla/5.0 (Windows NT 10.0; Win64; x64) AppleWebKit/537.36 (KHTML, like Gecko) Chrome/136.0.0.0 Safari/537.36 Edg/136.0.0.0",WebKit,Edge,136.0.0.0,Windows,10,https://5puzkbbxv1.cognition.run/?sona_id=57258,"en-US,en;q=0.9",apluz8oatwppk5b,21,"[""Asian""]",No,Male,vietnam,No,448319.29999999993,NA,null,<p></p>,null,choice,dct,trinary,repulsion_A,2,televisions,null,null,null,null,null,null,1,NA,NA,NA,NA,NA,NA,NA,NA,NA,NA
NA,NA,NA,NA,NA,choice_trial,survey-html-form,5,56946,0.0-4.0-1.0,351,1,2025-05-09T14:07:04Z,b60275e29fe2361ab97ac0ac217840d7,"Mozilla/5.0 (Windows NT 10.0; Win64; x64) AppleWebKit/537.36 (KHTML, like Gecko) Chrome/136.0.0.0 Safari/537.36 Edg/136.0.0.0",WebKit,Edge,136.0.0.0,Windows,10,https://5puzkbbxv1.cognition.run/?sona_id=57258,"en-US,en;q=0.9",apluz8oatwppk5b,21,"[""Asian""]",No,Male,vietnam,No,448319.29999999993,NA,11617,NA,"{""product_choice"":""B""}",choice,dct,trinary,repulsion_A,2,televisions,null,null,null,null,null,null,1,30,40,20,100,90,100,Screen size,Average lifespan,NA,NA
NA,NA,NA,NA,NA,choice_trial_setup,html-keyboard-response,6,57248,0.0-4.0-0.1,351,1,2025-05-09T14:07:04Z,b60275e29fe2361ab97ac0ac217840d7,"Mozilla/5.0 (Windows NT 10.0; Win64; x64) AppleWebKit/537.36 (KHTML, like Gecko) Chrome/136.0.0.0 Safari/537.36 Edg/136.0.0.0",WebKit,Edge,136.0.0.0,Windows,10,https://5puzkbbxv1.cognition.run/?sona_id=57258,"en-US,en;q=0.9",apluz8oatwppk5b,21,"[""Asian""]",No,Male,vietnam,No,448319.29999999993,NA,null,<p></p>,null,choice,dtc,trinary,attraction,2,televisions,null,null,null,null,null,null,2,NA,NA,NA,NA,NA,NA,NA,NA,NA,NA
NA,NA,NA,NA,NA,choice_trial,survey-html-form,7,67254,0.0-4.0-1.1,351,1,2025-05-09T14:07:04Z,b60275e29fe2361ab97ac0ac217840d7,"Mozilla/5.0 (Windows NT 10.0; Win64; x64) AppleWebKit/537.36 (KHTML, like Gecko) Chrome/136.0.0.0 Safari/537.36 Edg/136.0.0.0",WebKit,Edge,136.0.0.0,Windows,10,https://5puzkbbxv1.cognition.run/?sona_id=57258,"en-US,en;q=0.9",apluz8oatwppk5b,21,"[""Asian""]",No,Male,vietnam,No,448319.29999999993,NA,10005,NA,"{""product_choice"":""C""}",choice,dtc,trinary,attraction,2,televisions,null,null,null,null,null,null,2,50,60,40,60,50,60,Screen size,Average lifespan,NA,NA
NA,NA,NA,NA,NA,choice_trial_setup,html-keyboard-response,8,67555,0.0-4.0-0.2,351,1,2025-05-09T14:07:04Z,b60275e29fe2361ab97ac0ac217840d7,"Mozilla/5.0 (Windows NT 10.0; Win64; x64) AppleWebKit/537.36 (KHTML, like Gecko) Chrome/136.0.0.0 Safari/537.36 Edg/136.0.0.0",WebKit,Edge,136.0.0.0,Windows,10,https://5puzkbbxv1.cognition.run/?sona_id=57258,"en-US,en;q=0.9",apluz8oatwppk5b,21,"[""Asian""]",No,Male,vietnam,No,448319.29999999993,NA,null,<p></p>,null,choice,tcd,trinary,attraction,1,microwave ovens,null,null,null,null,null,null,2,NA,NA,NA,NA,NA,NA,NA,NA,NA,NA
NA,NA,NA,NA,NA,choice_trial,survey-html-form,9,76020,0.0-4.0-1.2,351,1,2025-05-09T14:07:04Z,b60275e29fe2361ab97ac0ac217840d7,"Mozilla/5.0 (Windows NT 10.0; Win64; x64) AppleWebKit/537.36 (KHTML, like Gecko) Chrome/136.0.0.0 Safari/537.36 Edg/136.0.0.0",WebKit,Edge,136.0.0.0,Windows,10,https://5puzkbbxv1.cognition.run/?sona_id=57258,"en-US,en;q=0.9",apluz8oatwppk5b,21,"[""Asian""]",No,Male,vietnam,No,448319.29999999993,NA,8464,NA,"{""product_choice"":""A""}",choice,tcd,trinary,attraction,1,microwave ovens,null,null,null,null,null,null,2,60,50,60,50,60,40,Warranty,Cooking power,NA,NA
NA,NA,NA,NA,NA,choice_trial_setup,html-keyboard-response,10,76321,0.0-4.0-0.3,351,1,2025-05-09T14:07:04Z,b60275e29fe2361ab97ac0ac217840d7,"Mozilla/5.0 (Windows NT 10.0; Win64; x64) AppleWebKit/537.36 (KHTML, like Gecko) Chrome/136.0.0.0 Safari/537.36 Edg/136.0.0.0",WebKit,Edge,136.0.0.0,Windows,10,https://5puzkbbxv1.cognition.run/?sona_id=57258,"en-US,en;q=0.9",apluz8oatwppk5b,21,"[""Asian""]",No,Male,vietnam,No,448319.29999999993,NA,null,<p></p>,null,choice,dtc,trinary,repulsion_B,1,televisions,null,null,null,null,null,null,1,NA,NA,NA,NA,NA,NA,NA,NA,NA,NA
NA,NA,NA,NA,NA,choice_trial,survey-html-form,11,81223,0.0-4.0-1.3,351,1,2025-05-09T14:07:04Z,b60275e29fe2361ab97ac0ac217840d7,"Mozilla/5.0 (Windows NT 10.0; Win64; x64) AppleWebKit/537.36 (KHTML, like Gecko) Chrome/136.0.0.0 Safari/537.36 Edg/136.0.0.0",WebKit,Edge,136.0.0.0,Windows,10,https://5puzkbbxv1.cognition.run/?sona_id=57258,"en-US,en;q=0.9",apluz8oatwppk5b,21,"[""Asian""]",No,Male,vietnam,No,448319.29999999993,NA,4902,NA,"{""product_choice"":""C""}",choice,dtc,trinary,repulsion_B,1,televisions,null,null,null,null,null,null,1,90,100,80,40,30,40,Screen size,Average lifespan,NA,NA
NA,NA,NA,NA,NA,choice_trial_setup,html-keyboard-response,12,81526,0.0-4.0-0.4,351,1,2025-05-09T14:07:04Z,b60275e29fe2361ab97ac0ac217840d7,"Mozilla/5.0 (Windows NT 10.0; Win64; x64) AppleWebKit/537.36 (KHTML, like Gecko) Chrome/136.0.0.0 Safari/537.36 Edg/136.0.0.0",WebKit,Edge,136.0.0.0,Windows,10,https://5puzkbbxv1.cognition.run/?sona_id=57258,"en-US,en;q=0.9",apluz8oatwppk5b,21,"[""Asian""]",No,Male,vietnam,No,448319.29999999993,NA,null,<p></p>,null,choice,bww,trinary,catch,null,televisions,50,50,20,30,5,35,2,NA,NA,NA,NA,NA,NA,NA,NA,NA,NA
NA,NA,NA,NA,NA,choice_trial,survey-html-form,13,89543,0.0-4.0-1.4,351,1,2025-05-09T14:07:04Z,b60275e29fe2361ab97ac0ac217840d7,"Mozilla/5.0 (Windows NT 10.0; Win64; x64) AppleWebKit/537.36 (KHTML, like Gecko) Chrome/136.0.0.0 Safari/537.36 Edg/136.0.0.0",WebKit,Edge,136.0.0.0,Windows,10,https://5puzkbbxv1.cognition.run/?sona_id=57258,"en-US,en;q=0.9",apluz8oatwppk5b,21,"[""Asian""]",No,Male,vietnam,No,448319.29999999993,NA,8015,NA,"{""product_choice"":""A""}",choice,bww,trinary,catch,null,televisions,50,50,20,30,5,35,2,null,null,null,null,null,null,Screen size,Average lifespan,NA,NA
NA,NA,NA,NA,NA,choice_trial_setup,html-keyboard-response,14,89844,0.0-4.0-0.5,351,1,2025-05-09T14:07:04Z,b60275e29fe2361ab97ac0ac217840d7,"Mozilla/5.0 (Windows NT 10.0; Win64; x64) AppleWebKit/537.36 (KHTML, like Gecko) Chrome/136.0.0.0 Safari/537.36 Edg/136.0.0.0",WebKit,Edge,136.0.0.0,Windows,10,https://5puzkbbxv1.cognition.run/?sona_id=57258,"en-US,en;q=0.9",apluz8oatwppk5b,21,"[""Asian""]",No,Male,vietnam,No,448319.29999999993,NA,null,<p></p>,null,choice,cdt,trinary,attraction,2,laptops,null,null,null,null,null,null,2,NA,NA,NA,NA,NA,NA,NA,NA,NA,NA
NA,NA,NA,NA,NA,choice_trial,survey-html-form,15,100324,0.0-4.0-1.5,351,1,2025-05-09T14:07:04Z,b60275e29fe2361ab97ac0ac217840d7,"Mozilla/5.0 (Windows NT 10.0; Win64; x64) AppleWebKit/537.36 (KHTML, like Gecko) Chrome/136.0.0.0 Safari/537.36 Edg/136.0.0.0",WebKit,Edge,136.0.0.0,Windows,10,https://5puzkbbxv1.cognition.run/?sona_id=57258,"en-US,en;q=0.9",apluz8oatwppk5b,21,"[""Asian""]",No,Male,vietnam,No,448319.29999999993,NA,10479,NA,"{""product_choice"":""A""}",choice,cdt,trinary,attraction,2,laptops,null,null,null,null,null,null,2,50,60,40,60,50,60,Processing speed,Memory (RAM),NA,NA
NA,NA,NA,NA,NA,choice_trial_setup,html-keyboard-response,16,100625,0.0-4.0-0.6,351,1,2025-05-09T14:07:04Z,b60275e29fe2361ab97ac0ac217840d7,"Mozilla/5.0 (Windows NT 10.0; Win64; x64) AppleWebKit/537.36 (KHTML, like Gecko) Chrome/136.0.0.0 Safari/537.36 Edg/136.0.0.0",WebKit,Edge,136.0.0.0,Windows,10,https://5puzkbbxv1.cognition.run/?sona_id=57258,"en-US,en;q=0.9",apluz8oatwppk5b,21,"[""Asian""]",No,Male,vietnam,No,448319.29999999993,NA,null,<p></p>,null,choice,dtc,trinary,repulsion_B,2,laptops,null,null,null,null,null,null,2,NA,NA,NA,NA,NA,NA,NA,NA,NA,NA
NA,NA,NA,NA,NA,choice_trial,survey-html-form,17,106818,0.0-4.0-1.6,351,1,2025-05-09T14:07:04Z,b60275e29fe2361ab97ac0ac217840d7,"Mozilla/5.0 (Windows NT 10.0; Win64; x64) AppleWebKit/537.36 (KHTML, like Gecko) Chrome/136.0.0.0 Safari/537.36 Edg/136.0.0.0",WebKit,Edge,136.0.0.0,Windows,10,https://5puzkbbxv1.cognition.run/?sona_id=57258,"en-US,en;q=0.9",apluz8oatwppk5b,21,"[""Asian""]",No,Male,vietnam,No,448319.29999999993,NA,6192,NA,"{""product_choice"":""B""}",choice,dtc,trinary,repulsion_B,2,laptops,null,null,null,null,null,null,2,40,30,40,90,100,80,Processing speed,Memory (RAM),NA,NA
NA,NA,NA,NA,NA,choice_trial_setup,html-keyboard-response,18,107119,0.0-4.0-0.7,351,1,2025-05-09T14:07:04Z,b60275e29fe2361ab97ac0ac217840d7,"Mozilla/5.0 (Windows NT 10.0; Win64; x64) AppleWebKit/537.36 (KHTML, like Gecko) Chrome/136.0.0.0 Safari/537.36 Edg/136.0.0.0",WebKit,Edge,136.0.0.0,Windows,10,https://5puzkbbxv1.cognition.run/?sona_id=57258,"en-US,en;q=0.9",apluz8oatwppk5b,21,"[""Asian""]",No,Male,vietnam,No,448319.29999999993,NA,null,<p></p>,null,choice,tc,binary,attraction,NA,laptops,null,null,null,null,null,null,1,NA,NA,NA,NA,NA,NA,NA,NA,NA,NA
NA,NA,NA,NA,NA,choice_trial,survey-html-form,19,115545,0.0-4.0-1.7,351,1,2025-05-09T14:07:04Z,b60275e29fe2361ab97ac0ac217840d7,"Mozilla/5.0 (Windows NT 10.0; Win64; x64) AppleWebKit/537.36 (KHTML, like Gecko) Chrome/136.0.0.0 Safari/537.36 Edg/136.0.0.0",WebKit,Edge,136.0.0.0,Windows,10,https://5puzkbbxv1.cognition.run/?sona_id=57258,"en-US,en;q=0.9",apluz8oatwppk5b,21,"[""Asian""]",No,Male,vietnam,No,448319.29999999993,NA,8425,NA,"{""product_choice"":""A""}",choice,tc,binary,attraction,NA,laptops,null,null,null,null,null,null,1,60,50,null,50,60,null,Processing speed,Memory (RAM),NA,NA
NA,NA,NA,NA,NA,choice_trial_setup,html-keyboard-response,20,115847,0.0-4.0-0.8,351,1,2025-05-09T14:07:04Z,b60275e29fe2361ab97ac0ac217840d7,"Mozilla/5.0 (Windows NT 10.0; Win64; x64) AppleWebKit/537.36 (KHTML, like Gecko) Chrome/136.0.0.0 Safari/537.36 Edg/136.0.0.0",WebKit,Edge,136.0.0.0,Windows,10,https://5puzkbbxv1.cognition.run/?sona_id=57258,"en-US,en;q=0.9",apluz8oatwppk5b,21,"[""Asian""]",No,Male,vietnam,No,448319.29999999993,NA,null,<p></p>,null,choice,tcd,trinary,attraction,1,televisions,null,null,null,null,null,null,2,NA,NA,NA,NA,NA,NA,NA,NA,NA,NA
NA,NA,NA,NA,NA,choice_trial,survey-html-form,21,126726,0.0-4.0-1.8,351,1,2025-05-09T14:07:04Z,b60275e29fe2361ab97ac0ac217840d7,"Mozilla/5.0 (Windows NT 10.0; Win64; x64) AppleWebKit/537.36 (KHTML, like Gecko) Chrome/136.0.0.0 Safari/537.36 Edg/136.0.0.0",WebKit,Edge,136.0.0.0,Windows,10,https://5puzkbbxv1.cognition.run/?sona_id=57258,"en-US,en;q=0.9",apluz8oatwppk5b,21,"[""Asian""]",No,Male,vietnam,No,448319.29999999993,NA,10878,NA,"{""product_choice"":""A""}",choice,tcd,trinary,attraction,1,televisions,null,null,null,null,null,null,2,60,50,60,50,60,40,Screen size,Average lifespan,NA,NA
NA,NA,NA,NA,NA,choice_trial_setup,html-keyboard-response,22,127027,0.0-4.0-0.9,351,1,2025-05-09T14:07:04Z,b60275e29fe2361ab97ac0ac217840d7,"Mozilla/5.0 (Windows NT 10.0; Win64; x64) AppleWebKit/537.36 (KHTML, like Gecko) Chrome/136.0.0.0 Safari/537.36 Edg/136.0.0.0",WebKit,Edge,136.0.0.0,Windows,10,https://5puzkbbxv1.cognition.run/?sona_id=57258,"en-US,en;q=0.9",apluz8oatwppk5b,21,"[""Asian""]",No,Male,vietnam,No,448319.29999999993,NA,null,<p></p>,null,choice,dtc,trinary,repulsion_A,2,microwave ovens,null,null,null,null,null,null,2,NA,NA,NA,NA,NA,NA,NA,NA,NA,NA
NA,NA,NA,NA,NA,choice_trial,survey-html-form,23,133456,0.0-4.0-1.9,351,1,2025-05-09T14:07:04Z,b60275e29fe2361ab97ac0ac217840d7,"Mozilla/5.0 (Windows NT 10.0; Win64; x64) AppleWebKit/537.36 (KHTML, like Gecko) Chrome/136.0.0.0 Safari/537.36 Edg/136.0.0.0",WebKit,Edge,136.0.0.0,Windows,10,https://5puzkbbxv1.cognition.run/?sona_id=57258,"en-US,en;q=0.9",apluz8oatwppk5b,21,"[""Asian""]",No,Male,vietnam,No,448319.29999999993,NA,6428,NA,"{""product_choice"":""B""}",choice,dtc,trinary,repulsion_A,2,microwave ovens,null,null,null,null,null,null,2,30,40,20,100,90,100,Warranty,Cooking power,NA,NA
NA,NA,NA,NA,NA,choice_trial_setup,html-keyboard-response,24,133758,0.0-4.0-0.10,351,1,2025-05-09T14:07:04Z,b60275e29fe2361ab97ac0ac217840d7,"Mozilla/5.0 (Windows NT 10.0; Win64; x64) AppleWebKit/537.36 (KHTML, like Gecko) Chrome/136.0.0.0 Safari/537.36 Edg/136.0.0.0",WebKit,Edge,136.0.0.0,Windows,10,https://5puzkbbxv1.cognition.run/?sona_id=57258,"en-US,en;q=0.9",apluz8oatwppk5b,21,"[""Asian""]",No,Male,vietnam,No,448319.29999999993,NA,null,<p></p>,null,choice,cdt,trinary,repulsion_B,2,televisions,null,null,null,null,null,null,1,NA,NA,NA,NA,NA,NA,NA,NA,NA,NA
NA,NA,NA,NA,NA,choice_trial,survey-html-form,25,147349,0.0-4.0-1.10,351,1,2025-05-09T14:07:04Z,b60275e29fe2361ab97ac0ac217840d7,"Mozilla/5.0 (Windows NT 10.0; Win64; x64) AppleWebKit/537.36 (KHTML, like Gecko) Chrome/136.0.0.0 Safari/537.36 Edg/136.0.0.0",WebKit,Edge,136.0.0.0,Windows,10,https://5puzkbbxv1.cognition.run/?sona_id=57258,"en-US,en;q=0.9",apluz8oatwppk5b,21,"[""Asian""]",No,Male,vietnam,No,448319.29999999993,NA,13591,NA,"{""product_choice"":""C""}",choice,cdt,trinary,repulsion_B,2,televisions,null,null,null,null,null,null,1,40,30,40,90,100,80,Screen size,Average lifespan,NA,NA
NA,NA,NA,NA,NA,choice_trial_setup,html-keyboard-response,26,147651,0.0-4.0-0.11,351,1,2025-05-09T14:07:04Z,b60275e29fe2361ab97ac0ac217840d7,"Mozilla/5.0 (Windows NT 10.0; Win64; x64) AppleWebKit/537.36 (KHTML, like Gecko) Chrome/136.0.0.0 Safari/537.36 Edg/136.0.0.0",WebKit,Edge,136.0.0.0,Windows,10,https://5puzkbbxv1.cognition.run/?sona_id=57258,"en-US,en;q=0.9",apluz8oatwppk5b,21,"[""Asian""]",No,Male,vietnam,No,448319.29999999993,NA,null,<p></p>,null,choice,dct,trinary,repulsion_A,1,microwave ovens,null,null,null,null,null,null,1,NA,NA,NA,NA,NA,NA,NA,NA,NA,NA
NA,NA,NA,NA,NA,choice_trial,survey-html-form,27,161362,0.0-4.0-1.11,351,1,2025-05-09T14:07:04Z,b60275e29fe2361ab97ac0ac217840d7,"Mozilla/5.0 (Windows NT 10.0; Win64; x64) AppleWebKit/537.36 (KHTML, like Gecko) Chrome/136.0.0.0 Safari/537.36 Edg/136.0.0.0",WebKit,Edge,136.0.0.0,Windows,10,https://5puzkbbxv1.cognition.run/?sona_id=57258,"en-US,en;q=0.9",apluz8oatwppk5b,21,"[""Asian""]",No,Male,vietnam,No,448319.29999999993,NA,13710,NA,"{""product_choice"":""C""}",choice,dct,trinary,repulsion_A,1,microwave ovens,null,null,null,null,null,null,1,100,90,100,30,40,20,Warranty,Cooking power,NA,NA
NA,NA,NA,NA,NA,choice_trial_setup,html-keyboard-response,28,161665,0.0-4.0-0.12,351,1,2025-05-09T14:07:04Z,b60275e29fe2361ab97ac0ac217840d7,"Mozilla/5.0 (Windows NT 10.0; Win64; x64) AppleWebKit/537.36 (KHTML, like Gecko) Chrome/136.0.0.0 Safari/537.36 Edg/136.0.0.0",WebKit,Edge,136.0.0.0,Windows,10,https://5puzkbbxv1.cognition.run/?sona_id=57258,"en-US,en;q=0.9",apluz8oatwppk5b,21,"[""Asian""]",No,Male,vietnam,No,448319.29999999993,NA,null,<p></p>,null,choice,tcd,trinary,repulsion_B,1,washing machines,null,null,null,null,null,null,2,NA,NA,NA,NA,NA,NA,NA,NA,NA,NA
NA,NA,NA,NA,NA,choice_trial,survey-html-form,29,174518,0.0-4.0-1.12,351,1,2025-05-09T14:07:04Z,b60275e29fe2361ab97ac0ac217840d7,"Mozilla/5.0 (Windows NT 10.0; Win64; x64) AppleWebKit/537.36 (KHTML, like Gecko) Chrome/136.0.0.0 Safari/537.36 Edg/136.0.0.0",WebKit,Edge,136.0.0.0,Windows,10,https://5puzkbbxv1.cognition.run/?sona_id=57258,"en-US,en;q=0.9",apluz8oatwppk5b,21,"[""Asian""]",No,Male,vietnam,No,448319.29999999993,NA,12853,NA,"{""product_choice"":""B""}",choice,tcd,trinary,repulsion_B,1,washing machines,null,null,null,null,null,null,2,90,100,80,40,30,40,Average lifespan,Energy savings,NA,NA
NA,NA,NA,NA,NA,choice_trial_setup,html-keyboard-response,30,174820,0.0-4.0-0.13,351,1,2025-05-09T14:07:04Z,b60275e29fe2361ab97ac0ac217840d7,"Mozilla/5.0 (Windows NT 10.0; Win64; x64) AppleWebKit/537.36 (KHTML, like Gecko) Chrome/136.0.0.0 Safari/537.36 Edg/136.0.0.0",WebKit,Edge,136.0.0.0,Windows,10,https://5puzkbbxv1.cognition.run/?sona_id=57258,"en-US,en;q=0.9",apluz8oatwppk5b,21,"[""Asian""]",No,Male,vietnam,No,448319.29999999993,NA,null,<p></p>,null,choice,cdt,trinary,repulsion_B,1,laptops,null,null,null,null,null,null,2,NA,NA,NA,NA,NA,NA,NA,NA,NA,NA
NA,NA,NA,NA,NA,choice_trial,survey-html-form,31,179611,0.0-4.0-1.13,351,1,2025-05-09T14:07:04Z,b60275e29fe2361ab97ac0ac217840d7,"Mozilla/5.0 (Windows NT 10.0; Win64; x64) AppleWebKit/537.36 (KHTML, like Gecko) Chrome/136.0.0.0 Safari/537.36 Edg/136.0.0.0",WebKit,Edge,136.0.0.0,Windows,10,https://5puzkbbxv1.cognition.run/?sona_id=57258,"en-US,en;q=0.9",apluz8oatwppk5b,21,"[""Asian""]",No,Male,vietnam,No,448319.29999999993,NA,4790,NA,"{""product_choice"":""A""}",choice,cdt,trinary,repulsion_B,1,laptops,null,null,null,null,null,null,2,90,100,80,40,30,40,Processing speed,Memory (RAM),NA,NA
NA,NA,NA,NA,NA,choice_trial_setup,html-keyboard-response,32,179914,0.0-4.0-0.14,351,1,2025-05-09T14:07:04Z,b60275e29fe2361ab97ac0ac217840d7,"Mozilla/5.0 (Windows NT 10.0; Win64; x64) AppleWebKit/537.36 (KHTML, like Gecko) Chrome/136.0.0.0 Safari/537.36 Edg/136.0.0.0",WebKit,Edge,136.0.0.0,Windows,10,https://5puzkbbxv1.cognition.run/?sona_id=57258,"en-US,en;q=0.9",apluz8oatwppk5b,21,"[""Asian""]",No,Male,vietnam,No,448319.29999999993,NA,null,<p></p>,null,choice,dtc,trinary,repulsion_A,2,washing machines,null,null,null,null,null,null,1,NA,NA,NA,NA,NA,NA,NA,NA,NA,NA
NA,NA,NA,NA,NA,choice_trial,survey-html-form,33,180951,0.0-4.0-1.14,351,1,2025-05-09T14:07:04Z,b60275e29fe2361ab97ac0ac217840d7,"Mozilla/5.0 (Windows NT 10.0; Win64; x64) AppleWebKit/537.36 (KHTML, like Gecko) Chrome/136.0.0.0 Safari/537.36 Edg/136.0.0.0",WebKit,Edge,136.0.0.0,Windows,10,https://5puzkbbxv1.cognition.run/?sona_id=57258,"en-US,en;q=0.9",apluz8oatwppk5b,21,"[""Asian""]",No,Male,vietnam,No,448319.29999999993,NA,1036,NA,"{""product_choice"":""B""}",choice,dtc,trinary,repulsion_A,2,washing machines,null,null,null,null,null,null,1,30,40,20,100,90,100,Average lifespan,Energy savings,NA,NA
NA,NA,NA,NA,NA,choice_trial_setup,html-keyboard-response,34,181253,0.0-4.0-0.15,351,1,2025-05-09T14:07:04Z,b60275e29fe2361ab97ac0ac217840d7,"Mozilla/5.0 (Windows NT 10.0; Win64; x64) AppleWebKit/537.36 (KHTML, like Gecko) Chrome/136.0.0.0 Safari/537.36 Edg/136.0.0.0",WebKit,Edge,136.0.0.0,Windows,10,https://5puzkbbxv1.cognition.run/?sona_id=57258,"en-US,en;q=0.9",apluz8oatwppk5b,21,"[""Asian""]",No,Male,vietnam,No,448319.29999999993,NA,null,<p></p>,null,choice,ct,binary,repulsion,2,televisions,null,null,null,null,null,null,2,NA,NA,NA,NA,NA,NA,NA,NA,NA,NA
NA,NA,NA,NA,NA,choice_trial,survey-html-form,35,182512,0.0-4.0-1.15,351,1,2025-05-09T14:07:04Z,b60275e29fe2361ab97ac0ac217840d7,"Mozilla/5.0 (Windows NT 10.0; Win64; x64) AppleWebKit/537.36 (KHTML, like Gecko) Chrome/136.0.0.0 Safari/537.36 Edg/136.0.0.0",WebKit,Edge,136.0.0.0,Windows,10,https://5puzkbbxv1.cognition.run/?sona_id=57258,"en-US,en;q=0.9",apluz8oatwppk5b,21,"[""Asian""]",No,Male,vietnam,No,448319.29999999993,NA,1259,NA,"{""product_choice"":""B""}",choice,ct,binary,repulsion,2,televisions,null,null,null,null,null,null,2,30,40,null,100,90,null,Screen size,Average lifespan,NA,NA
NA,NA,NA,NA,NA,choice_trial_setup,html-keyboard-response,36,182814,0.0-4.0-0.16,351,1,2025-05-09T14:07:04Z,b60275e29fe2361ab97ac0ac217840d7,"Mozilla/5.0 (Windows NT 10.0; Win64; x64) AppleWebKit/537.36 (KHTML, like Gecko) Chrome/136.0.0.0 Safari/537.36 Edg/136.0.0.0",WebKit,Edge,136.0.0.0,Windows,10,https://5puzkbbxv1.cognition.run/?sona_id=57258,"en-US,en;q=0.9",apluz8oatwppk5b,21,"[""Asian""]",No,Male,vietnam,No,448319.29999999993,NA,null,<p></p>,null,choice,tc,binary,attraction,NA,televisions,null,null,null,null,null,null,1,NA,NA,NA,NA,NA,NA,NA,NA,NA,NA
NA,NA,NA,NA,NA,choice_trial,survey-html-form,37,184065,0.0-4.0-1.16,351,1,2025-05-09T14:07:04Z,b60275e29fe2361ab97ac0ac217840d7,"Mozilla/5.0 (Windows NT 10.0; Win64; x64) AppleWebKit/537.36 (KHTML, like Gecko) Chrome/136.0.0.0 Safari/537.36 Edg/136.0.0.0",WebKit,Edge,136.0.0.0,Windows,10,https://5puzkbbxv1.cognition.run/?sona_id=57258,"en-US,en;q=0.9",apluz8oatwppk5b,21,"[""Asian""]",No,Male,vietnam,No,448319.29999999993,NA,1250,NA,"{""product_choice"":""A""}",choice,tc,binary,attraction,NA,televisions,null,null,null,null,null,null,1,60,50,null,50,60,null,Screen size,Average lifespan,NA,NA
NA,NA,NA,NA,NA,choice_trial_setup,html-keyboard-response,38,184368,0.0-4.0-0.17,351,1,2025-05-09T14:07:04Z,b60275e29fe2361ab97ac0ac217840d7,"Mozilla/5.0 (Windows NT 10.0; Win64; x64) AppleWebKit/537.36 (KHTML, like Gecko) Chrome/136.0.0.0 Safari/537.36 Edg/136.0.0.0",WebKit,Edge,136.0.0.0,Windows,10,https://5puzkbbxv1.cognition.run/?sona_id=57258,"en-US,en;q=0.9",apluz8oatwppk5b,21,"[""Asian""]",No,Male,vietnam,No,448319.29999999993,NA,null,<p></p>,null,choice,wwb,trinary,catch,null,laptops,70,65,50,45,15,15,1,NA,NA,NA,NA,NA,NA,NA,NA,NA,NA
NA,NA,NA,NA,NA,choice_trial,survey-html-form,39,185346,0.0-4.0-1.17,351,1,2025-05-09T14:07:04Z,b60275e29fe2361ab97ac0ac217840d7,"Mozilla/5.0 (Windows NT 10.0; Win64; x64) AppleWebKit/537.36 (KHTML, like Gecko) Chrome/136.0.0.0 Safari/537.36 Edg/136.0.0.0",WebKit,Edge,136.0.0.0,Windows,10,https://5puzkbbxv1.cognition.run/?sona_id=57258,"en-US,en;q=0.9",apluz8oatwppk5b,21,"[""Asian""]",No,Male,vietnam,No,448319.29999999993,NA,977,NA,"{""product_choice"":""C""}",choice,wwb,trinary,catch,null,laptops,70,65,50,45,15,15,1,null,null,null,null,null,null,Processing speed,Memory (RAM),NA,NA
NA,NA,NA,NA,NA,choice_trial_setup,html-keyboard-response,40,185647,0.0-4.0-0.18,351,1,2025-05-09T14:07:04Z,b60275e29fe2361ab97ac0ac217840d7,"Mozilla/5.0 (Windows NT 10.0; Win64; x64) AppleWebKit/537.36 (KHTML, like Gecko) Chrome/136.0.0.0 Safari/537.36 Edg/136.0.0.0",WebKit,Edge,136.0.0.0,Windows,10,https://5puzkbbxv1.cognition.run/?sona_id=57258,"en-US,en;q=0.9",apluz8oatwppk5b,21,"[""Asian""]",No,Male,vietnam,No,448319.29999999993,NA,null,<p></p>,null,choice,dct,trinary,repulsion_B,1,microwave ovens,null,null,null,null,null,null,1,NA,NA,NA,NA,NA,NA,NA,NA,NA,NA
NA,NA,NA,NA,NA,choice_trial,survey-html-form,41,186592,0.0-4.0-1.18,351,1,2025-05-09T14:07:04Z,b60275e29fe2361ab97ac0ac217840d7,"Mozilla/5.0 (Windows NT 10.0; Win64; x64) AppleWebKit/537.36 (KHTML, like Gecko) Chrome/136.0.0.0 Safari/537.36 Edg/136.0.0.0",WebKit,Edge,136.0.0.0,Windows,10,https://5puzkbbxv1.cognition.run/?sona_id=57258,"en-US,en;q=0.9",apluz8oatwppk5b,21,"[""Asian""]",No,Male,vietnam,No,448319.29999999993,NA,943,NA,"{""product_choice"":""B""}",choice,dct,trinary,repulsion_B,1,microwave ovens,null,null,null,null,null,null,1,90,100,80,40,30,40,Warranty,Cooking power,NA,NA
NA,NA,NA,NA,NA,choice_trial_setup,html-keyboard-response,42,186893,0.0-4.0-0.19,351,1,2025-05-09T14:07:04Z,b60275e29fe2361ab97ac0ac217840d7,"Mozilla/5.0 (Windows NT 10.0; Win64; x64) AppleWebKit/537.36 (KHTML, like Gecko) Chrome/136.0.0.0 Safari/537.36 Edg/136.0.0.0",WebKit,Edge,136.0.0.0,Windows,10,https://5puzkbbxv1.cognition.run/?sona_id=57258,"en-US,en;q=0.9",apluz8oatwppk5b,21,"[""Asian""]",No,Male,vietnam,No,448319.29999999993,NA,null,<p></p>,null,choice,wwb,trinary,catch,null,washing machines,65,85,20,45,25,35,2,NA,NA,NA,NA,NA,NA,NA,NA,NA,NA
NA,NA,NA,NA,NA,choice_trial,survey-html-form,43,190770,0.0-4.0-1.19,351,1,2025-05-09T14:07:04Z,b60275e29fe2361ab97ac0ac217840d7,"Mozilla/5.0 (Windows NT 10.0; Win64; x64) AppleWebKit/537.36 (KHTML, like Gecko) Chrome/136.0.0.0 Safari/537.36 Edg/136.0.0.0",WebKit,Edge,136.0.0.0,Windows,10,https://5puzkbbxv1.cognition.run/?sona_id=57258,"en-US,en;q=0.9",apluz8oatwppk5b,21,"[""Asian""]",No,Male,vietnam,No,448319.29999999993,NA,3876,NA,"{""product_choice"":""C""}",choice,wwb,trinary,catch,null,washing machines,65,85,20,45,25,35,2,null,null,null,null,null,null,Average lifespan,Energy savings,NA,NA
NA,NA,NA,NA,NA,choice_trial_setup,html-keyboard-response,44,191072,0.0-4.0-0.20,351,1,2025-05-09T14:07:04Z,b60275e29fe2361ab97ac0ac217840d7,"Mozilla/5.0 (Windows NT 10.0; Win64; x64) AppleWebKit/537.36 (KHTML, like Gecko) Chrome/136.0.0.0 Safari/537.36 Edg/136.0.0.0",WebKit,Edge,136.0.0.0,Windows,10,https://5puzkbbxv1.cognition.run/?sona_id=57258,"en-US,en;q=0.9",apluz8oatwppk5b,21,"[""Asian""]",No,Male,vietnam,No,448319.29999999993,NA,null,<p></p>,null,choice,ct,binary,attraction,NA,microwave ovens,null,null,null,null,null,null,2,NA,NA,NA,NA,NA,NA,NA,NA,NA,NA
NA,NA,NA,NA,NA,choice_trial,survey-html-form,45,199482,0.0-4.0-1.20,351,1,2025-05-09T14:07:04Z,b60275e29fe2361ab97ac0ac217840d7,"Mozilla/5.0 (Windows NT 10.0; Win64; x64) AppleWebKit/537.36 (KHTML, like Gecko) Chrome/136.0.0.0 Safari/537.36 Edg/136.0.0.0",WebKit,Edge,136.0.0.0,Windows,10,https://5puzkbbxv1.cognition.run/?sona_id=57258,"en-US,en;q=0.9",apluz8oatwppk5b,21,"[""Asian""]",No,Male,vietnam,No,448319.29999999993,NA,8409,NA,"{""product_choice"":""B""}",choice,ct,binary,attraction,NA,microwave ovens,null,null,null,null,null,null,2,60,50,null,50,60,null,Warranty,Cooking power,NA,NA
NA,NA,NA,NA,NA,choice_trial_setup,html-keyboard-response,46,199785,0.0-4.0-0.21,351,1,2025-05-09T14:07:04Z,b60275e29fe2361ab97ac0ac217840d7,"Mozilla/5.0 (Windows NT 10.0; Win64; x64) AppleWebKit/537.36 (KHTML, like Gecko) Chrome/136.0.0.0 Safari/537.36 Edg/136.0.0.0",WebKit,Edge,136.0.0.0,Windows,10,https://5puzkbbxv1.cognition.run/?sona_id=57258,"en-US,en;q=0.9",apluz8oatwppk5b,21,"[""Asian""]",No,Male,vietnam,No,448319.29999999993,NA,null,<p></p>,null,choice,dtc,trinary,repulsion_A,1,laptops,null,null,null,null,null,null,1,NA,NA,NA,NA,NA,NA,NA,NA,NA,NA
NA,NA,NA,NA,NA,choice_trial,survey-html-form,47,205810,0.0-4.0-1.21,351,1,2025-05-09T14:07:04Z,b60275e29fe2361ab97ac0ac217840d7,"Mozilla/5.0 (Windows NT 10.0; Win64; x64) AppleWebKit/537.36 (KHTML, like Gecko) Chrome/136.0.0.0 Safari/537.36 Edg/136.0.0.0",WebKit,Edge,136.0.0.0,Windows,10,https://5puzkbbxv1.cognition.run/?sona_id=57258,"en-US,en;q=0.9",apluz8oatwppk5b,21,"[""Asian""]",No,Male,vietnam,No,448319.29999999993,NA,6024,NA,"{""product_choice"":""B""}",choice,dtc,trinary,repulsion_A,1,laptops,null,null,null,null,null,null,1,100,90,100,30,40,20,Processing speed,Memory (RAM),NA,NA
NA,NA,NA,NA,NA,choice_trial_setup,html-keyboard-response,48,206112,0.0-4.0-0.22,351,1,2025-05-09T14:07:04Z,b60275e29fe2361ab97ac0ac217840d7,"Mozilla/5.0 (Windows NT 10.0; Win64; x64) AppleWebKit/537.36 (KHTML, like Gecko) Chrome/136.0.0.0 Safari/537.36 Edg/136.0.0.0",WebKit,Edge,136.0.0.0,Windows,10,https://5puzkbbxv1.cognition.run/?sona_id=57258,"en-US,en;q=0.9",apluz8oatwppk5b,21,"[""Asian""]",No,Male,vietnam,No,448319.29999999993,NA,null,<p></p>,null,choice,dct,trinary,repulsion_A,1,televisions,null,null,null,null,null,null,2,NA,NA,NA,NA,NA,NA,NA,NA,NA,NA
NA,NA,NA,NA,NA,choice_trial,survey-html-form,49,214148,0.0-4.0-1.22,351,1,2025-05-09T14:07:04Z,b60275e29fe2361ab97ac0ac217840d7,"Mozilla/5.0 (Windows NT 10.0; Win64; x64) AppleWebKit/537.36 (KHTML, like Gecko) Chrome/136.0.0.0 Safari/537.36 Edg/136.0.0.0",WebKit,Edge,136.0.0.0,Windows,10,https://5puzkbbxv1.cognition.run/?sona_id=57258,"en-US,en;q=0.9",apluz8oatwppk5b,21,"[""Asian""]",No,Male,vietnam,No,448319.29999999993,NA,8036,NA,"{""product_choice"":""C""}",choice,dct,trinary,repulsion_A,1,televisions,null,null,null,null,null,null,2,100,90,100,30,40,20,Screen size,Average lifespan,NA,NA
NA,NA,NA,NA,NA,choice_trial_setup,html-keyboard-response,50,214451,0.0-4.0-0.23,351,1,2025-05-09T14:07:04Z,b60275e29fe2361ab97ac0ac217840d7,"Mozilla/5.0 (Windows NT 10.0; Win64; x64) AppleWebKit/537.36 (KHTML, like Gecko) Chrome/136.0.0.0 Safari/537.36 Edg/136.0.0.0",WebKit,Edge,136.0.0.0,Windows,10,https://5puzkbbxv1.cognition.run/?sona_id=57258,"en-US,en;q=0.9",apluz8oatwppk5b,21,"[""Asian""]",No,Male,vietnam,No,448319.29999999993,NA,null,<p></p>,null,choice,wbw,trinary,catch,null,microwave ovens,85,50,5,15,45,10,1,NA,NA,NA,NA,NA,NA,NA,NA,NA,NA
NA,NA,NA,NA,NA,choice_trial,survey-html-form,51,217955,0.0-4.0-1.23,351,1,2025-05-09T14:07:04Z,b60275e29fe2361ab97ac0ac217840d7,"Mozilla/5.0 (Windows NT 10.0; Win64; x64) AppleWebKit/537.36 (KHTML, like Gecko) Chrome/136.0.0.0 Safari/537.36 Edg/136.0.0.0",WebKit,Edge,136.0.0.0,Windows,10,https://5puzkbbxv1.cognition.run/?sona_id=57258,"en-US,en;q=0.9",apluz8oatwppk5b,21,"[""Asian""]",No,Male,vietnam,No,448319.29999999993,NA,3503,NA,"{""product_choice"":""B""}",choice,wbw,trinary,catch,null,microwave ovens,85,50,5,15,45,10,1,null,null,null,null,null,null,Warranty,Cooking power,NA,NA
NA,NA,NA,NA,NA,choice_trial_setup,html-keyboard-response,52,218256,0.0-4.0-0.24,351,1,2025-05-09T14:07:04Z,b60275e29fe2361ab97ac0ac217840d7,"Mozilla/5.0 (Windows NT 10.0; Win64; x64) AppleWebKit/537.36 (KHTML, like Gecko) Chrome/136.0.0.0 Safari/537.36 Edg/136.0.0.0",WebKit,Edge,136.0.0.0,Windows,10,https://5puzkbbxv1.cognition.run/?sona_id=57258,"en-US,en;q=0.9",apluz8oatwppk5b,21,"[""Asian""]",No,Male,vietnam,No,448319.29999999993,NA,null,<p></p>,null,choice,ct,binary,repulsion,2,microwave ovens,null,null,null,null,null,null,1,NA,NA,NA,NA,NA,NA,NA,NA,NA,NA
NA,NA,NA,NA,NA,choice_trial,survey-html-form,53,222367,0.0-4.0-1.24,351,1,2025-05-09T14:07:04Z,b60275e29fe2361ab97ac0ac217840d7,"Mozilla/5.0 (Windows NT 10.0; Win64; x64) AppleWebKit/537.36 (KHTML, like Gecko) Chrome/136.0.0.0 Safari/537.36 Edg/136.0.0.0",WebKit,Edge,136.0.0.0,Windows,10,https://5puzkbbxv1.cognition.run/?sona_id=57258,"en-US,en;q=0.9",apluz8oatwppk5b,21,"[""Asian""]",No,Male,vietnam,No,448319.29999999993,NA,4109,NA,"{""product_choice"":""A""}",choice,ct,binary,repulsion,2,microwave ovens,null,null,null,null,null,null,1,30,40,null,100,90,null,Warranty,Cooking power,NA,NA
NA,NA,NA,NA,NA,choice_trial_setup,html-keyboard-response,54,222668,0.0-4.0-0.25,351,1,2025-05-09T14:07:04Z,b60275e29fe2361ab97ac0ac217840d7,"Mozilla/5.0 (Windows NT 10.0; Win64; x64) AppleWebKit/537.36 (KHTML, like Gecko) Chrome/136.0.0.0 Safari/537.36 Edg/136.0.0.0",WebKit,Edge,136.0.0.0,Windows,10,https://5puzkbbxv1.cognition.run/?sona_id=57258,"en-US,en;q=0.9",apluz8oatwppk5b,21,"[""Asian""]",No,Male,vietnam,No,448319.29999999993,NA,null,<p></p>,null,choice,tc,binary,repulsion,2,washing machines,null,null,null,null,null,null,2,NA,NA,NA,NA,NA,NA,NA,NA,NA,NA
NA,NA,NA,NA,NA,choice_trial,survey-html-form,55,228102,0.0-4.0-1.25,351,1,2025-05-09T14:07:04Z,b60275e29fe2361ab97ac0ac217840d7,"Mozilla/5.0 (Windows NT 10.0; Win64; x64) AppleWebKit/537.36 (KHTML, like Gecko) Chrome/136.0.0.0 Safari/537.36 Edg/136.0.0.0",WebKit,Edge,136.0.0.0,Windows,10,https://5puzkbbxv1.cognition.run/?sona_id=57258,"en-US,en;q=0.9",apluz8oatwppk5b,21,"[""Asian""]",No,Male,vietnam,No,448319.29999999993,NA,5434,NA,"{""product_choice"":""B""}",choice,tc,binary,repulsion,2,washing machines,null,null,null,null,null,null,2,30,40,null,100,90,null,Average lifespan,Energy savings,NA,NA
NA,NA,NA,NA,NA,choice_trial_setup,html-keyboard-response,56,228404,0.0-4.0-0.26,351,1,2025-05-09T14:07:04Z,b60275e29fe2361ab97ac0ac217840d7,"Mozilla/5.0 (Windows NT 10.0; Win64; x64) AppleWebKit/537.36 (KHTML, like Gecko) Chrome/136.0.0.0 Safari/537.36 Edg/136.0.0.0",WebKit,Edge,136.0.0.0,Windows,10,https://5puzkbbxv1.cognition.run/?sona_id=57258,"en-US,en;q=0.9",apluz8oatwppk5b,21,"[""Asian""]",No,Male,vietnam,No,448319.29999999993,NA,null,<p></p>,null,choice,ctd,trinary,repulsion_A,1,washing machines,null,null,null,null,null,null,2,NA,NA,NA,NA,NA,NA,NA,NA,NA,NA
NA,NA,NA,NA,NA,choice_trial,survey-html-form,57,242061,0.0-4.0-1.26,351,1,2025-05-09T14:07:04Z,b60275e29fe2361ab97ac0ac217840d7,"Mozilla/5.0 (Windows NT 10.0; Win64; x64) AppleWebKit/537.36 (KHTML, like Gecko) Chrome/136.0.0.0 Safari/537.36 Edg/136.0.0.0",WebKit,Edge,136.0.0.0,Windows,10,https://5puzkbbxv1.cognition.run/?sona_id=57258,"en-US,en;q=0.9",apluz8oatwppk5b,21,"[""Asian""]",No,Male,vietnam,No,448319.29999999993,NA,13657,NA,"{""product_choice"":""B""}",choice,ctd,trinary,repulsion_A,1,washing machines,null,null,null,null,null,null,2,100,90,100,30,40,20,Average lifespan,Energy savings,NA,NA
NA,NA,NA,NA,NA,choice_trial_setup,html-keyboard-response,58,242363,0.0-4.0-0.27,351,1,2025-05-09T14:07:04Z,b60275e29fe2361ab97ac0ac217840d7,"Mozilla/5.0 (Windows NT 10.0; Win64; x64) AppleWebKit/537.36 (KHTML, like Gecko) Chrome/136.0.0.0 Safari/537.36 Edg/136.0.0.0",WebKit,Edge,136.0.0.0,Windows,10,https://5puzkbbxv1.cognition.run/?sona_id=57258,"en-US,en;q=0.9",apluz8oatwppk5b,21,"[""Asian""]",No,Male,vietnam,No,448319.29999999993,NA,null,<p></p>,null,choice,ctd,trinary,repulsion_A,2,laptops,null,null,null,null,null,null,2,NA,NA,NA,NA,NA,NA,NA,NA,NA,NA
NA,NA,NA,NA,NA,choice_trial,survey-html-form,59,247141,0.0-4.0-1.27,351,1,2025-05-09T14:07:04Z,b60275e29fe2361ab97ac0ac217840d7,"Mozilla/5.0 (Windows NT 10.0; Win64; x64) AppleWebKit/537.36 (KHTML, like Gecko) Chrome/136.0.0.0 Safari/537.36 Edg/136.0.0.0",WebKit,Edge,136.0.0.0,Windows,10,https://5puzkbbxv1.cognition.run/?sona_id=57258,"en-US,en;q=0.9",apluz8oatwppk5b,21,"[""Asian""]",No,Male,vietnam,No,448319.29999999993,NA,4777,NA,"{""product_choice"":""A""}",choice,ctd,trinary,repulsion_A,2,laptops,null,null,null,null,null,null,2,30,40,20,100,90,100,Processing speed,Memory (RAM),NA,NA
NA,NA,NA,NA,NA,choice_trial_setup,html-keyboard-response,60,247443,0.0-4.0-0.28,351,1,2025-05-09T14:07:04Z,b60275e29fe2361ab97ac0ac217840d7,"Mozilla/5.0 (Windows NT 10.0; Win64; x64) AppleWebKit/537.36 (KHTML, like Gecko) Chrome/136.0.0.0 Safari/537.36 Edg/136.0.0.0",WebKit,Edge,136.0.0.0,Windows,10,https://5puzkbbxv1.cognition.run/?sona_id=57258,"en-US,en;q=0.9",apluz8oatwppk5b,21,"[""Asian""]",No,Male,vietnam,No,448319.29999999993,NA,null,<p></p>,null,choice,tdc,trinary,attraction,1,laptops,null,null,null,null,null,null,1,NA,NA,NA,NA,NA,NA,NA,NA,NA,NA
NA,NA,NA,NA,NA,choice_trial,survey-html-form,61,252816,0.0-4.0-1.28,351,1,2025-05-09T14:07:04Z,b60275e29fe2361ab97ac0ac217840d7,"Mozilla/5.0 (Windows NT 10.0; Win64; x64) AppleWebKit/537.36 (KHTML, like Gecko) Chrome/136.0.0.0 Safari/537.36 Edg/136.0.0.0",WebKit,Edge,136.0.0.0,Windows,10,https://5puzkbbxv1.cognition.run/?sona_id=57258,"en-US,en;q=0.9",apluz8oatwppk5b,21,"[""Asian""]",No,Male,vietnam,No,448319.29999999993,NA,5372,NA,"{""product_choice"":""A""}",choice,tdc,trinary,attraction,1,laptops,null,null,null,null,null,null,1,60,50,60,50,60,40,Processing speed,Memory (RAM),NA,NA
NA,NA,NA,NA,NA,choice_trial_setup,html-keyboard-response,62,253119,0.0-4.0-0.29,351,1,2025-05-09T14:07:04Z,b60275e29fe2361ab97ac0ac217840d7,"Mozilla/5.0 (Windows NT 10.0; Win64; x64) AppleWebKit/537.36 (KHTML, like Gecko) Chrome/136.0.0.0 Safari/537.36 Edg/136.0.0.0",WebKit,Edge,136.0.0.0,Windows,10,https://5puzkbbxv1.cognition.run/?sona_id=57258,"en-US,en;q=0.9",apluz8oatwppk5b,21,"[""Asian""]",No,Male,vietnam,No,448319.29999999993,NA,null,<p></p>,null,choice,cdt,trinary,attraction,1,washing machines,null,null,null,null,null,null,1,NA,NA,NA,NA,NA,NA,NA,NA,NA,NA
NA,NA,NA,NA,NA,choice_trial,survey-html-form,63,258562,0.0-4.0-1.29,351,1,2025-05-09T14:07:04Z,b60275e29fe2361ab97ac0ac217840d7,"Mozilla/5.0 (Windows NT 10.0; Win64; x64) AppleWebKit/537.36 (KHTML, like Gecko) Chrome/136.0.0.0 Safari/537.36 Edg/136.0.0.0",WebKit,Edge,136.0.0.0,Windows,10,https://5puzkbbxv1.cognition.run/?sona_id=57258,"en-US,en;q=0.9",apluz8oatwppk5b,21,"[""Asian""]",No,Male,vietnam,No,448319.29999999993,NA,5441,NA,"{""product_choice"":""C""}",choice,cdt,trinary,attraction,1,washing machines,null,null,null,null,null,null,1,60,50,60,50,60,40,Average lifespan,Energy savings,NA,NA
NA,NA,NA,NA,NA,choice_trial_setup,html-keyboard-response,64,258863,0.0-4.0-0.30,351,1,2025-05-09T14:07:04Z,b60275e29fe2361ab97ac0ac217840d7,"Mozilla/5.0 (Windows NT 10.0; Win64; x64) AppleWebKit/537.36 (KHTML, like Gecko) Chrome/136.0.0.0 Safari/537.36 Edg/136.0.0.0",WebKit,Edge,136.0.0.0,Windows,10,https://5puzkbbxv1.cognition.run/?sona_id=57258,"en-US,en;q=0.9",apluz8oatwppk5b,21,"[""Asian""]",No,Male,vietnam,No,448319.29999999993,NA,null,<p></p>,null,choice,cdt,trinary,attraction,2,washing machines,null,null,null,null,null,null,2,NA,NA,NA,NA,NA,NA,NA,NA,NA,NA
NA,NA,NA,NA,NA,choice_trial,survey-html-form,65,266109,0.0-4.0-1.30,351,1,2025-05-09T14:07:04Z,b60275e29fe2361ab97ac0ac217840d7,"Mozilla/5.0 (Windows NT 10.0; Win64; x64) AppleWebKit/537.36 (KHTML, like Gecko) Chrome/136.0.0.0 Safari/537.36 Edg/136.0.0.0",WebKit,Edge,136.0.0.0,Windows,10,https://5puzkbbxv1.cognition.run/?sona_id=57258,"en-US,en;q=0.9",apluz8oatwppk5b,21,"[""Asian""]",No,Male,vietnam,No,448319.29999999993,NA,7245,NA,"{""product_choice"":""C""}",choice,cdt,trinary,attraction,2,washing machines,null,null,null,null,null,null,2,50,60,40,60,50,60,Average lifespan,Energy savings,NA,NA
NA,NA,NA,NA,NA,choice_trial_setup,html-keyboard-response,66,266411,0.0-4.0-0.31,351,1,2025-05-09T14:07:04Z,b60275e29fe2361ab97ac0ac217840d7,"Mozilla/5.0 (Windows NT 10.0; Win64; x64) AppleWebKit/537.36 (KHTML, like Gecko) Chrome/136.0.0.0 Safari/537.36 Edg/136.0.0.0",WebKit,Edge,136.0.0.0,Windows,10,https://5puzkbbxv1.cognition.run/?sona_id=57258,"en-US,en;q=0.9",apluz8oatwppk5b,21,"[""Asian""]",No,Male,vietnam,No,448319.29999999993,NA,null,<p></p>,null,choice,wb,binary,catch,null,televisions,65,85,30,50,null,null,1,NA,NA,NA,NA,NA,NA,NA,NA,NA,NA
NA,NA,NA,NA,NA,choice_trial,survey-html-form,67,272005,0.0-4.0-1.31,351,1,2025-05-09T14:07:04Z,b60275e29fe2361ab97ac0ac217840d7,"Mozilla/5.0 (Windows NT 10.0; Win64; x64) AppleWebKit/537.36 (KHTML, like Gecko) Chrome/136.0.0.0 Safari/537.36 Edg/136.0.0.0",WebKit,Edge,136.0.0.0,Windows,10,https://5puzkbbxv1.cognition.run/?sona_id=57258,"en-US,en;q=0.9",apluz8oatwppk5b,21,"[""Asian""]",No,Male,vietnam,No,448319.29999999993,NA,5592,NA,"{""product_choice"":""B""}",choice,wb,binary,catch,null,televisions,65,85,30,50,null,null,1,null,null,null,null,null,null,Screen size,Average lifespan,NA,NA
NA,NA,NA,NA,NA,choice_trial_setup,html-keyboard-response,68,272307,0.0-4.0-0.32,351,1,2025-05-09T14:07:04Z,b60275e29fe2361ab97ac0ac217840d7,"Mozilla/5.0 (Windows NT 10.0; Win64; x64) AppleWebKit/537.36 (KHTML, like Gecko) Chrome/136.0.0.0 Safari/537.36 Edg/136.0.0.0",WebKit,Edge,136.0.0.0,Windows,10,https://5puzkbbxv1.cognition.run/?sona_id=57258,"en-US,en;q=0.9",apluz8oatwppk5b,21,"[""Asian""]",No,Male,vietnam,No,448319.29999999993,NA,null,<p></p>,null,choice,tc,binary,repulsion,1,televisions,null,null,null,null,null,null,2,NA,NA,NA,NA,NA,NA,NA,NA,NA,NA
NA,NA,NA,NA,NA,choice_trial,survey-html-form,69,279993,0.0-4.0-1.32,351,1,2025-05-09T14:07:04Z,b60275e29fe2361ab97ac0ac217840d7,"Mozilla/5.0 (Windows NT 10.0; Win64; x64) AppleWebKit/537.36 (KHTML, like Gecko) Chrome/136.0.0.0 Safari/537.36 Edg/136.0.0.0",WebKit,Edge,136.0.0.0,Windows,10,https://5puzkbbxv1.cognition.run/?sona_id=57258,"en-US,en;q=0.9",apluz8oatwppk5b,21,"[""Asian""]",No,Male,vietnam,No,448319.29999999993,NA,7684,NA,"{""product_choice"":""A""}",choice,tc,binary,repulsion,1,televisions,null,null,null,null,null,null,2,100,90,null,30,40,null,Screen size,Average lifespan,NA,NA
NA,NA,NA,NA,NA,choice_trial_setup,html-keyboard-response,70,280294,0.0-4.0-0.33,351,1,2025-05-09T14:07:04Z,b60275e29fe2361ab97ac0ac217840d7,"Mozilla/5.0 (Windows NT 10.0; Win64; x64) AppleWebKit/537.36 (KHTML, like Gecko) Chrome/136.0.0.0 Safari/537.36 Edg/136.0.0.0",WebKit,Edge,136.0.0.0,Windows,10,https://5puzkbbxv1.cognition.run/?sona_id=57258,"en-US,en;q=0.9",apluz8oatwppk5b,21,"[""Asian""]",No,Male,vietnam,No,448319.29999999993,NA,null,<p></p>,null,choice,bw,binary,catch,null,washing machines,60,85,50,20,null,null,1,NA,NA,NA,NA,NA,NA,NA,NA,NA,NA
NA,NA,NA,NA,NA,choice_trial,survey-html-form,71,284680,0.0-4.0-1.33,351,1,2025-05-09T14:07:04Z,b60275e29fe2361ab97ac0ac217840d7,"Mozilla/5.0 (Windows NT 10.0; Win64; x64) AppleWebKit/537.36 (KHTML, like Gecko) Chrome/136.0.0.0 Safari/537.36 Edg/136.0.0.0",WebKit,Edge,136.0.0.0,Windows,10,https://5puzkbbxv1.cognition.run/?sona_id=57258,"en-US,en;q=0.9",apluz8oatwppk5b,21,"[""Asian""]",No,Male,vietnam,No,448319.29999999993,NA,4385,NA,"{""product_choice"":""A""}",choice,bw,binary,catch,null,washing machines,60,85,50,20,null,null,1,null,null,null,null,null,null,Average lifespan,Energy savings,NA,NA
NA,NA,NA,NA,NA,choice_trial_setup,html-keyboard-response,72,284983,0.0-4.0-0.34,351,1,2025-05-09T14:07:04Z,b60275e29fe2361ab97ac0ac217840d7,"Mozilla/5.0 (Windows NT 10.0; Win64; x64) AppleWebKit/537.36 (KHTML, like Gecko) Chrome/136.0.0.0 Safari/537.36 Edg/136.0.0.0",WebKit,Edge,136.0.0.0,Windows,10,https://5puzkbbxv1.cognition.run/?sona_id=57258,"en-US,en;q=0.9",apluz8oatwppk5b,21,"[""Asian""]",No,Male,vietnam,No,448319.29999999993,NA,null,<p></p>,null,choice,cdt,trinary,repulsion_B,2,microwave ovens,null,null,null,null,null,null,1,NA,NA,NA,NA,NA,NA,NA,NA,NA,NA
NA,NA,NA,NA,NA,choice_trial,survey-html-form,73,291858,0.0-4.0-1.34,351,1,2025-05-09T14:07:04Z,b60275e29fe2361ab97ac0ac217840d7,"Mozilla/5.0 (Windows NT 10.0; Win64; x64) AppleWebKit/537.36 (KHTML, like Gecko) Chrome/136.0.0.0 Safari/537.36 Edg/136.0.0.0",WebKit,Edge,136.0.0.0,Windows,10,https://5puzkbbxv1.cognition.run/?sona_id=57258,"en-US,en;q=0.9",apluz8oatwppk5b,21,"[""Asian""]",No,Male,vietnam,No,448319.29999999993,NA,6874,NA,"{""product_choice"":""C""}",choice,cdt,trinary,repulsion_B,2,microwave ovens,null,null,null,null,null,null,1,40,30,40,90,100,80,Warranty,Cooking power,NA,NA
NA,NA,NA,NA,NA,choice_trial_setup,html-keyboard-response,74,292160,0.0-4.0-0.35,351,1,2025-05-09T14:07:04Z,b60275e29fe2361ab97ac0ac217840d7,"Mozilla/5.0 (Windows NT 10.0; Win64; x64) AppleWebKit/537.36 (KHTML, like Gecko) Chrome/136.0.0.0 Safari/537.36 Edg/136.0.0.0",WebKit,Edge,136.0.0.0,Windows,10,https://5puzkbbxv1.cognition.run/?sona_id=57258,"en-US,en;q=0.9",apluz8oatwppk5b,21,"[""Asian""]",No,Male,vietnam,No,448319.29999999993,NA,null,<p></p>,null,choice,tcd,trinary,attraction,2,microwave ovens,null,null,null,null,null,null,1,NA,NA,NA,NA,NA,NA,NA,NA,NA,NA
NA,NA,NA,NA,NA,choice_trial,survey-html-form,75,301054,0.0-4.0-1.35,351,1,2025-05-09T14:07:04Z,b60275e29fe2361ab97ac0ac217840d7,"Mozilla/5.0 (Windows NT 10.0; Win64; x64) AppleWebKit/537.36 (KHTML, like Gecko) Chrome/136.0.0.0 Safari/537.36 Edg/136.0.0.0",WebKit,Edge,136.0.0.0,Windows,10,https://5puzkbbxv1.cognition.run/?sona_id=57258,"en-US,en;q=0.9",apluz8oatwppk5b,21,"[""Asian""]",No,Male,vietnam,No,448319.29999999993,NA,8892,NA,"{""product_choice"":""A""}",choice,tcd,trinary,attraction,2,microwave ovens,null,null,null,null,null,null,1,50,60,40,60,50,60,Warranty,Cooking power,NA,NA
NA,NA,NA,NA,NA,choice_trial_setup,html-keyboard-response,76,301356,0.0-4.0-0.36,351,1,2025-05-09T14:07:04Z,b60275e29fe2361ab97ac0ac217840d7,"Mozilla/5.0 (Windows NT 10.0; Win64; x64) AppleWebKit/537.36 (KHTML, like Gecko) Chrome/136.0.0.0 Safari/537.36 Edg/136.0.0.0",WebKit,Edge,136.0.0.0,Windows,10,https://5puzkbbxv1.cognition.run/?sona_id=57258,"en-US,en;q=0.9",apluz8oatwppk5b,21,"[""Asian""]",No,Male,vietnam,No,448319.29999999993,NA,null,<p></p>,null,choice,wb,binary,catch,null,microwave ovens,65,75,20,10,null,null,1,NA,NA,NA,NA,NA,NA,NA,NA,NA,NA
NA,NA,NA,NA,NA,choice_trial,survey-html-form,77,303966,0.0-4.0-1.36,351,1,2025-05-09T14:07:04Z,b60275e29fe2361ab97ac0ac217840d7,"Mozilla/5.0 (Windows NT 10.0; Win64; x64) AppleWebKit/537.36 (KHTML, like Gecko) Chrome/136.0.0.0 Safari/537.36 Edg/136.0.0.0",WebKit,Edge,136.0.0.0,Windows,10,https://5puzkbbxv1.cognition.run/?sona_id=57258,"en-US,en;q=0.9",apluz8oatwppk5b,21,"[""Asian""]",No,Male,vietnam,No,448319.29999999993,NA,2609,NA,"{""product_choice"":""B""}",choice,wb,binary,catch,null,microwave ovens,65,75,20,10,null,null,1,null,null,null,null,null,null,Warranty,Cooking power,NA,NA
NA,NA,NA,NA,NA,choice_trial_setup,html-keyboard-response,78,304268,0.0-4.0-0.37,351,1,2025-05-09T14:07:04Z,b60275e29fe2361ab97ac0ac217840d7,"Mozilla/5.0 (Windows NT 10.0; Win64; x64) AppleWebKit/537.36 (KHTML, like Gecko) Chrome/136.0.0.0 Safari/537.36 Edg/136.0.0.0",WebKit,Edge,136.0.0.0,Windows,10,https://5puzkbbxv1.cognition.run/?sona_id=57258,"en-US,en;q=0.9",apluz8oatwppk5b,21,"[""Asian""]",No,Male,vietnam,No,448319.29999999993,NA,null,<p></p>,null,choice,ct,binary,attraction,NA,washing machines,null,null,null,null,null,null,2,NA,NA,NA,NA,NA,NA,NA,NA,NA,NA
NA,NA,NA,NA,NA,choice_trial,survey-html-form,79,318408,0.0-4.0-1.37,351,1,2025-05-09T14:07:04Z,b60275e29fe2361ab97ac0ac217840d7,"Mozilla/5.0 (Windows NT 10.0; Win64; x64) AppleWebKit/537.36 (KHTML, like Gecko) Chrome/136.0.0.0 Safari/537.36 Edg/136.0.0.0",WebKit,Edge,136.0.0.0,Windows,10,https://5puzkbbxv1.cognition.run/?sona_id=57258,"en-US,en;q=0.9",apluz8oatwppk5b,21,"[""Asian""]",No,Male,vietnam,No,448319.29999999993,NA,14139,NA,"{""product_choice"":""B""}",choice,ct,binary,attraction,NA,washing machines,null,null,null,null,null,null,2,60,50,null,50,60,null,Average lifespan,Energy savings,NA,NA
NA,NA,NA,NA,NA,choice_trial_setup,html-keyboard-response,80,318710,0.0-4.0-0.38,351,1,2025-05-09T14:07:04Z,b60275e29fe2361ab97ac0ac217840d7,"Mozilla/5.0 (Windows NT 10.0; Win64; x64) AppleWebKit/537.36 (KHTML, like Gecko) Chrome/136.0.0.0 Safari/537.36 Edg/136.0.0.0",WebKit,Edge,136.0.0.0,Windows,10,https://5puzkbbxv1.cognition.run/?sona_id=57258,"en-US,en;q=0.9",apluz8oatwppk5b,21,"[""Asian""]",No,Male,vietnam,No,448319.29999999993,NA,null,<p></p>,null,choice,tdc,trinary,repulsion_B,2,washing machines,null,null,null,null,null,null,1,NA,NA,NA,NA,NA,NA,NA,NA,NA,NA
NA,NA,NA,NA,NA,choice_trial,survey-html-form,81,323440,0.0-4.0-1.38,351,1,2025-05-09T14:07:04Z,b60275e29fe2361ab97ac0ac217840d7,"Mozilla/5.0 (Windows NT 10.0; Win64; x64) AppleWebKit/537.36 (KHTML, like Gecko) Chrome/136.0.0.0 Safari/537.36 Edg/136.0.0.0",WebKit,Edge,136.0.0.0,Windows,10,https://5puzkbbxv1.cognition.run/?sona_id=57258,"en-US,en;q=0.9",apluz8oatwppk5b,21,"[""Asian""]",No,Male,vietnam,No,448319.29999999993,NA,4729,NA,"{""product_choice"":""A""}",choice,tdc,trinary,repulsion_B,2,washing machines,null,null,null,null,null,null,1,40,30,40,90,100,80,Average lifespan,Energy savings,NA,NA
NA,NA,NA,NA,NA,choice_trial_setup,html-keyboard-response,82,323742,0.0-4.0-0.39,351,1,2025-05-09T14:07:04Z,b60275e29fe2361ab97ac0ac217840d7,"Mozilla/5.0 (Windows NT 10.0; Win64; x64) AppleWebKit/537.36 (KHTML, like Gecko) Chrome/136.0.0.0 Safari/537.36 Edg/136.0.0.0",WebKit,Edge,136.0.0.0,Windows,10,https://5puzkbbxv1.cognition.run/?sona_id=57258,"en-US,en;q=0.9",apluz8oatwppk5b,21,"[""Asian""]",No,Male,vietnam,No,448319.29999999993,NA,null,<p></p>,null,choice,ct,binary,repulsion,2,laptops,null,null,null,null,null,null,1,NA,NA,NA,NA,NA,NA,NA,NA,NA,NA
NA,NA,NA,NA,NA,choice_trial,survey-html-form,83,326822,0.0-4.0-1.39,351,1,2025-05-09T14:07:04Z,b60275e29fe2361ab97ac0ac217840d7,"Mozilla/5.0 (Windows NT 10.0; Win64; x64) AppleWebKit/537.36 (KHTML, like Gecko) Chrome/136.0.0.0 Safari/537.36 Edg/136.0.0.0",WebKit,Edge,136.0.0.0,Windows,10,https://5puzkbbxv1.cognition.run/?sona_id=57258,"en-US,en;q=0.9",apluz8oatwppk5b,21,"[""Asian""]",No,Male,vietnam,No,448319.29999999993,NA,3079,NA,"{""product_choice"":""A""}",choice,ct,binary,repulsion,2,laptops,null,null,null,null,null,null,1,30,40,null,100,90,null,Processing speed,Memory (RAM),NA,NA
NA,NA,NA,NA,NA,choice_trial_setup,html-keyboard-response,84,327124,0.0-4.0-0.40,351,1,2025-05-09T14:07:04Z,b60275e29fe2361ab97ac0ac217840d7,"Mozilla/5.0 (Windows NT 10.0; Win64; x64) AppleWebKit/537.36 (KHTML, like Gecko) Chrome/136.0.0.0 Safari/537.36 Edg/136.0.0.0",WebKit,Edge,136.0.0.0,Windows,10,https://5puzkbbxv1.cognition.run/?sona_id=57258,"en-US,en;q=0.9",apluz8oatwppk5b,21,"[""Asian""]",No,Male,vietnam,No,448319.29999999993,NA,null,<p></p>,null,choice,tc,binary,repulsion,1,microwave ovens,null,null,null,null,null,null,1,NA,NA,NA,NA,NA,NA,NA,NA,NA,NA
NA,NA,NA,NA,NA,choice_trial,survey-html-form,85,332495,0.0-4.0-1.40,351,1,2025-05-09T14:07:04Z,b60275e29fe2361ab97ac0ac217840d7,"Mozilla/5.0 (Windows NT 10.0; Win64; x64) AppleWebKit/537.36 (KHTML, like Gecko) Chrome/136.0.0.0 Safari/537.36 Edg/136.0.0.0",WebKit,Edge,136.0.0.0,Windows,10,https://5puzkbbxv1.cognition.run/?sona_id=57258,"en-US,en;q=0.9",apluz8oatwppk5b,21,"[""Asian""]",No,Male,vietnam,No,448319.29999999993,NA,5370,NA,"{""product_choice"":""B""}",choice,tc,binary,repulsion,1,microwave ovens,null,null,null,null,null,null,1,100,90,null,30,40,null,Warranty,Cooking power,NA,NA
NA,NA,NA,NA,NA,choice_trial_setup,html-keyboard-response,86,332797,0.0-4.0-0.41,351,1,2025-05-09T14:07:04Z,b60275e29fe2361ab97ac0ac217840d7,"Mozilla/5.0 (Windows NT 10.0; Win64; x64) AppleWebKit/537.36 (KHTML, like Gecko) Chrome/136.0.0.0 Safari/537.36 Edg/136.0.0.0",WebKit,Edge,136.0.0.0,Windows,10,https://5puzkbbxv1.cognition.run/?sona_id=57258,"en-US,en;q=0.9",apluz8oatwppk5b,21,"[""Asian""]",No,Male,vietnam,No,448319.29999999993,NA,null,<p></p>,null,choice,ct,binary,repulsion,1,laptops,null,null,null,null,null,null,2,NA,NA,NA,NA,NA,NA,NA,NA,NA,NA
NA,NA,NA,NA,NA,choice_trial,survey-html-form,87,341070,0.0-4.0-1.41,351,1,2025-05-09T14:07:04Z,b60275e29fe2361ab97ac0ac217840d7,"Mozilla/5.0 (Windows NT 10.0; Win64; x64) AppleWebKit/537.36 (KHTML, like Gecko) Chrome/136.0.0.0 Safari/537.36 Edg/136.0.0.0",WebKit,Edge,136.0.0.0,Windows,10,https://5puzkbbxv1.cognition.run/?sona_id=57258,"en-US,en;q=0.9",apluz8oatwppk5b,21,"[""Asian""]",No,Male,vietnam,No,448319.29999999993,NA,8272,NA,"{""product_choice"":""B""}",choice,ct,binary,repulsion,1,laptops,null,null,null,null,null,null,2,100,90,null,30,40,null,Processing speed,Memory (RAM),NA,NA
NA,NA,NA,NA,NA,choice_trial_setup,html-keyboard-response,88,341372,0.0-4.0-0.42,351,1,2025-05-09T14:07:04Z,b60275e29fe2361ab97ac0ac217840d7,"Mozilla/5.0 (Windows NT 10.0; Win64; x64) AppleWebKit/537.36 (KHTML, like Gecko) Chrome/136.0.0.0 Safari/537.36 Edg/136.0.0.0",WebKit,Edge,136.0.0.0,Windows,10,https://5puzkbbxv1.cognition.run/?sona_id=57258,"en-US,en;q=0.9",apluz8oatwppk5b,21,"[""Asian""]",No,Male,vietnam,No,448319.29999999993,NA,null,<p></p>,null,choice,bw,binary,catch,null,laptops,75,70,15,10,null,null,1,NA,NA,NA,NA,NA,NA,NA,NA,NA,NA
NA,NA,NA,NA,NA,choice_trial,survey-html-form,89,345457,0.0-4.0-1.42,351,1,2025-05-09T14:07:04Z,b60275e29fe2361ab97ac0ac217840d7,"Mozilla/5.0 (Windows NT 10.0; Win64; x64) AppleWebKit/537.36 (KHTML, like Gecko) Chrome/136.0.0.0 Safari/537.36 Edg/136.0.0.0",WebKit,Edge,136.0.0.0,Windows,10,https://5puzkbbxv1.cognition.run/?sona_id=57258,"en-US,en;q=0.9",apluz8oatwppk5b,21,"[""Asian""]",No,Male,vietnam,No,448319.29999999993,NA,4084,NA,"{""product_choice"":""A""}",choice,bw,binary,catch,null,laptops,75,70,15,10,null,null,1,null,null,null,null,null,null,Processing speed,Memory (RAM),NA,NA
NA,NA,NA,NA,NA,choice_trial_setup,html-keyboard-response,90,345759,0.0-4.0-0.43,351,1,2025-05-09T14:07:04Z,b60275e29fe2361ab97ac0ac217840d7,"Mozilla/5.0 (Windows NT 10.0; Win64; x64) AppleWebKit/537.36 (KHTML, like Gecko) Chrome/136.0.0.0 Safari/537.36 Edg/136.0.0.0",WebKit,Edge,136.0.0.0,Windows,10,https://5puzkbbxv1.cognition.run/?sona_id=57258,"en-US,en;q=0.9",apluz8oatwppk5b,21,"[""Asian""]",No,Male,vietnam,No,448319.29999999993,NA,null,<p></p>,null,choice,ct,binary,repulsion,1,washing machines,null,null,null,null,null,null,2,NA,NA,NA,NA,NA,NA,NA,NA,NA,NA
NA,NA,NA,NA,NA,choice_trial,survey-html-form,91,349310,0.0-4.0-1.43,351,1,2025-05-09T14:07:04Z,b60275e29fe2361ab97ac0ac217840d7,"Mozilla/5.0 (Windows NT 10.0; Win64; x64) AppleWebKit/537.36 (KHTML, like Gecko) Chrome/136.0.0.0 Safari/537.36 Edg/136.0.0.0",WebKit,Edge,136.0.0.0,Windows,10,https://5puzkbbxv1.cognition.run/?sona_id=57258,"en-US,en;q=0.9",apluz8oatwppk5b,21,"[""Asian""]",No,Male,vietnam,No,448319.29999999993,NA,3550,NA,"{""product_choice"":""A""}",choice,ct,binary,repulsion,1,washing machines,null,null,null,null,null,null,2,100,90,null,30,40,null,Average lifespan,Energy savings,NA,NA
NA,NA,NA,NA,NA,post_trials_message,html-button-response,92,351480,0.0-5.0,351,1,2025-05-09T14:07:04Z,b60275e29fe2361ab97ac0ac217840d7,"Mozilla/5.0 (Windows NT 10.0; Win64; x64) AppleWebKit/537.36 (KHTML, like Gecko) Chrome/136.0.0.0 Safari/537.36 Edg/136.0.0.0",WebKit,Edge,136.0.0.0,Windows,10,https://5puzkbbxv1.cognition.run/?sona_id=57258,"en-US,en;q=0.9",apluz8oatwppk5b,21,"[""Asian""]",No,Male,vietnam,No,448319.29999999993,NA,2168,<p> <b>Thank you for your patience!</b></p><p>  The study will be done after completing a brief form. </p>,0,NA,NA,NA,NA,NA,NA,NA,NA,NA,NA,NA,NA,NA,NA,NA,NA,NA,NA,NA,NA,NA,NA,NA
NA,NA,NA,NA,NA,survey_message,survey-text,93,418988,0.0-6.0,351,1,2025-05-09T14:07:04Z,b60275e29fe2361ab97ac0ac217840d7,"Mozilla/5.0 (Windows NT 10.0; Win64; x64) AppleWebKit/537.36 (KHTML, like Gecko) Chrome/136.0.0.0 Safari/537.36 Edg/136.0.0.0",WebKit,Edge,136.0.0.0,Windows,10,https://5puzkbbxv1.cognition.run/?sona_id=57258,"en-US,en;q=0.9",apluz8oatwppk5b,21,"[""Asian""]",No,Male,vietnam,No,448319.29999999993,NA,67506,NA,"{""Q0"":""depend on what product, but basically i chose the higher key feature, while maintaining the balance""}",NA,NA,NA,NA,NA,NA,NA,NA,NA,NA,NA,NA,NA,NA,NA,NA,NA,NA,NA,NA,NA,"depend on what product, but basically i chose the higher key feature, while maintaining the balance",NA
NA,NA,NA,NA,NA,demo_age,survey-text,94,421647,0.0-7.0,351,1,2025-05-09T14:07:04Z,b60275e29fe2361ab97ac0ac217840d7,"Mozilla/5.0 (Windows NT 10.0; Win64; x64) AppleWebKit/537.36 (KHTML, like Gecko) Chrome/136.0.0.0 Safari/537.36 Edg/136.0.0.0",WebKit,Edge,136.0.0.0,Windows,10,https://5puzkbbxv1.cognition.run/?sona_id=57258,"en-US,en;q=0.9",apluz8oatwppk5b,21,"[""Asian""]",No,Male,vietnam,No,448319.29999999993,NA,2656,NA,"{""Q0"":""21""}",NA,NA,NA,NA,NA,NA,NA,NA,NA,NA,NA,NA,NA,NA,NA,NA,NA,NA,NA,NA,NA,NA,NA
NA,NA,NA,NA,NA,demo_race,survey-multi-select,95,424462,0.0-8.0,351,1,2025-05-09T14:07:04Z,b60275e29fe2361ab97ac0ac217840d7,"Mozilla/5.0 (Windows NT 10.0; Win64; x64) AppleWebKit/537.36 (KHTML, like Gecko) Chrome/136.0.0.0 Safari/537.36 Edg/136.0.0.0",WebKit,Edge,136.0.0.0,Windows,10,https://5puzkbbxv1.cognition.run/?sona_id=57258,"en-US,en;q=0.9",apluz8oatwppk5b,21,"[""Asian""]",No,Male,vietnam,No,448319.29999999993,NA,2813,NA,"{""Q0"":[""Asian""]}",NA,NA,NA,NA,NA,NA,NA,NA,NA,NA,NA,NA,NA,NA,NA,NA,NA,NA,NA,NA,NA,NA,[0]
NA,NA,NA,NA,NA,demo_ethnicity_gender,survey-multi-choice,96,428415,0.0-9.0,351,1,2025-05-09T14:07:04Z,b60275e29fe2361ab97ac0ac217840d7,"Mozilla/5.0 (Windows NT 10.0; Win64; x64) AppleWebKit/537.36 (KHTML, like Gecko) Chrome/136.0.0.0 Safari/537.36 Edg/136.0.0.0",WebKit,Edge,136.0.0.0,Windows,10,https://5puzkbbxv1.cognition.run/?sona_id=57258,"en-US,en;q=0.9",apluz8oatwppk5b,21,"[""Asian""]",No,Male,vietnam,No,448319.29999999993,NA,3952,NA,"{""Q0"":""No"",""Q1"":""Male""}",NA,NA,NA,NA,NA,NA,NA,NA,NA,NA,NA,NA,NA,NA,NA,NA,NA,NA,NA,NA,NA,NA,"[0,1]"
NA,NA,NA,NA,NA,demo_countries,survey-text,97,434471,0.0-10.0,351,1,2025-05-09T14:07:04Z,b60275e29fe2361ab97ac0ac217840d7,"Mozilla/5.0 (Windows NT 10.0; Win64; x64) AppleWebKit/537.36 (KHTML, like Gecko) Chrome/136.0.0.0 Safari/537.36 Edg/136.0.0.0",WebKit,Edge,136.0.0.0,Windows,10,https://5puzkbbxv1.cognition.run/?sona_id=57258,"en-US,en;q=0.9",apluz8oatwppk5b,21,"[""Asian""]",No,Male,vietnam,No,448319.29999999993,NA,6052,NA,"{""Q0"":""vietnam""}",NA,NA,NA,NA,NA,NA,NA,NA,NA,NA,NA,NA,NA,NA,NA,NA,NA,NA,NA,NA,NA,NA,NA
NA,NA,NA,NA,NA,demo_prev_study,survey-multi-choice,98,439901,0.0-11.0,351,1,2025-05-09T14:07:04Z,b60275e29fe2361ab97ac0ac217840d7,"Mozilla/5.0 (Windows NT 10.0; Win64; x64) AppleWebKit/537.36 (KHTML, like Gecko) Chrome/136.0.0.0 Safari/537.36 Edg/136.0.0.0",WebKit,Edge,136.0.0.0,Windows,10,https://5puzkbbxv1.cognition.run/?sona_id=57258,"en-US,en;q=0.9",apluz8oatwppk5b,21,"[""Asian""]",No,Male,vietnam,No,448319.29999999993,NA,5428,NA,"{""Q0"":""No""}",NA,NA,NA,NA,NA,NA,NA,NA,NA,NA,NA,NA,NA,NA,NA,NA,NA,NA,NA,NA,NA,NA,[0]
NA,NA,NA,NA,NA,post_survey_message,html-keyboard-response,99,443571,0.0-12.0,351,1,2025-05-09T14:07:04Z,b60275e29fe2361ab97ac0ac217840d7,"Mozilla/5.0 (Windows NT 10.0; Win64; x64) AppleWebKit/537.36 (KHTML, like Gecko) Chrome/136.0.0.0 Safari/537.36 Edg/136.0.0.0",WebKit,Edge,136.0.0.0,Windows,10,https://5puzkbbxv1.cognition.run/?sona_id=57258,"en-US,en;q=0.9",apluz8oatwppk5b,21,"[""Asian""]",No,Male,vietnam,No,448319.29999999993,NA,3668,NA,j,NA,NA,NA,NA,NA,NA,NA,NA,NA,NA,NA,NA,NA,NA,NA,NA,NA,NA,NA,NA,NA,NA,NA
NA,NA,NA,NA,NA,debrief,image-keyboard-response,100,448318,0.0-13.0,351,1,2025-05-09T14:07:04Z,b60275e29fe2361ab97ac0ac217840d7,"Mozilla/5.0 (Windows NT 10.0; Win64; x64) AppleWebKit/537.36 (KHTML, like Gecko) Chrome/136.0.0.0 Safari/537.36 Edg/136.0.0.0",WebKit,Edge,136.0.0.0,Windows,10,https://5puzkbbxv1.cognition.run/?sona_id=57258,"en-US,en;q=0.9",apluz8oatwppk5b,21,"[""Asian""]",No,Male,vietnam,No,448319.29999999993,NA,4746,Judg_choice_debrief.png,p,NA,NA,NA,NA,NA,NA,NA,NA,NA,NA,NA,NA,NA,NA,NA,NA,NA,NA,NA,NA,NA,NA,NA
