success,timeout,failed_images,failed_audio,failed_video,screen_id,trial_type,trial_index,time_elapsed,internal_node_id,run_id,condition,recorded_at,source_code_version,user_agent,device,browser,browser_version,platform,platform_version,referer,accept_language,ppt_id,age,race,ethnicity,gender,other_countries,prev_study,exp_duration,view_history,rt,stimulus,response,phase,order,set,effect,t_high,category,d1_best,d2_best,d1_worst1,d2_worst1,d1_worst2,d2_worst2,first_dim,d1_t,d1_c,d1_d,d2_t,d2_c,d2_d,d1_name,d2_name,strategy_response,question_order
TRUE,FALSE,[],[],[],img preload,preload,0,181,0.0-0.0,360,1,2025-05-09T15:52:00Z,b60275e29fe2361ab97ac0ac217840d7,"Mozilla/5.0 (Windows NT 10.0; Win64; x64) AppleWebKit/537.36 (KHTML, like Gecko) Chrome/136.0.0.0 Safari/537.36 Edg/136.0.0.0",WebKit,Edge,136.0.0.0,Windows,10,https://5puzkbbxv1.cognition.run/?sona_id=51461,"en-US,en;q=0.9",2f0ufhjo28l9lzu,21,"[""Black or African-American""]",No,Female,NA,I'm not sure,481409.3000000119,NA,NA,NA,NA,NA,NA,NA,NA,NA,NA,NA,NA,NA,NA,NA,NA,NA,NA,NA,NA,NA,NA,NA,NA,NA,NA,NA
NA,NA,NA,NA,NA,computer_message,instructions,1,5259,0.0-1.0,360,1,2025-05-09T15:52:00Z,b60275e29fe2361ab97ac0ac217840d7,"Mozilla/5.0 (Windows NT 10.0; Win64; x64) AppleWebKit/537.36 (KHTML, like Gecko) Chrome/136.0.0.0 Safari/537.36 Edg/136.0.0.0",WebKit,Edge,136.0.0.0,Windows,10,https://5puzkbbxv1.cognition.run/?sona_id=51461,"en-US,en;q=0.9",2f0ufhjo28l9lzu,21,"[""Black or African-American""]",No,Female,NA,I'm not sure,481409.3000000119,"[{""page_index"":0,""viewing_time"":5076}]",5077,NA,NA,NA,NA,NA,NA,NA,NA,NA,NA,NA,NA,NA,NA,NA,NA,NA,NA,NA,NA,NA,NA,NA,NA,NA
TRUE,NA,NA,NA,NA,NA,fullscreen,2,8190,0.0-2.0,360,1,2025-05-09T15:52:00Z,b60275e29fe2361ab97ac0ac217840d7,"Mozilla/5.0 (Windows NT 10.0; Win64; x64) AppleWebKit/537.36 (KHTML, like Gecko) Chrome/136.0.0.0 Safari/537.36 Edg/136.0.0.0",WebKit,Edge,136.0.0.0,Windows,10,https://5puzkbbxv1.cognition.run/?sona_id=51461,"en-US,en;q=0.9",2f0ufhjo28l9lzu,21,"[""Black or African-American""]",No,Female,NA,I'm not sure,481409.3000000119,NA,1927,NA,NA,NA,NA,NA,NA,NA,NA,NA,NA,NA,NA,NA,NA,NA,NA,NA,NA,NA,NA,NA,NA,NA,NA,NA
NA,NA,NA,NA,NA,choice_instructions,instructions,3,63545,0.0-3.0,360,1,2025-05-09T15:52:00Z,b60275e29fe2361ab97ac0ac217840d7,"Mozilla/5.0 (Windows NT 10.0; Win64; x64) AppleWebKit/537.36 (KHTML, like Gecko) Chrome/136.0.0.0 Safari/537.36 Edg/136.0.0.0",WebKit,Edge,136.0.0.0,Windows,10,https://5puzkbbxv1.cognition.run/?sona_id=51461,"en-US,en;q=0.9",2f0ufhjo28l9lzu,21,"[""Black or African-American""]",No,Female,NA,I'm not sure,481409.3000000119,"[{""page_index"":0,""viewing_time"":1313},{""page_index"":1,""viewing_time"":5431},{""page_index"":2,""viewing_time"":11553},{""page_index"":3,""viewing_time"":4724},{""page_index"":4,""viewing_time"":4579},{""page_index"":5,""viewing_time"":11964},{""page_index"":6,""viewing_time"":15791}]",55355,NA,NA,NA,NA,NA,NA,NA,NA,NA,NA,NA,NA,NA,NA,NA,NA,NA,NA,NA,NA,NA,NA,NA,NA,NA
NA,NA,NA,NA,NA,choice_trial_setup,html-keyboard-response,4,63857,0.0-4.0-0.0,360,1,2025-05-09T15:52:00Z,b60275e29fe2361ab97ac0ac217840d7,"Mozilla/5.0 (Windows NT 10.0; Win64; x64) AppleWebKit/537.36 (KHTML, like Gecko) Chrome/136.0.0.0 Safari/537.36 Edg/136.0.0.0",WebKit,Edge,136.0.0.0,Windows,10,https://5puzkbbxv1.cognition.run/?sona_id=51461,"en-US,en;q=0.9",2f0ufhjo28l9lzu,21,"[""Black or African-American""]",No,Female,NA,I'm not sure,481409.3000000119,NA,null,<p></p>,null,choice,tdc,trinary,attraction,2,laptops,null,null,null,null,null,null,2,NA,NA,NA,NA,NA,NA,NA,NA,NA,NA
NA,NA,NA,NA,NA,choice_trial,survey-html-form,5,81158,0.0-4.0-1.0,360,1,2025-05-09T15:52:00Z,b60275e29fe2361ab97ac0ac217840d7,"Mozilla/5.0 (Windows NT 10.0; Win64; x64) AppleWebKit/537.36 (KHTML, like Gecko) Chrome/136.0.0.0 Safari/537.36 Edg/136.0.0.0",WebKit,Edge,136.0.0.0,Windows,10,https://5puzkbbxv1.cognition.run/?sona_id=51461,"en-US,en;q=0.9",2f0ufhjo28l9lzu,21,"[""Black or African-American""]",No,Female,NA,I'm not sure,481409.3000000119,NA,17298,NA,"{""product_choice"":""C""}",choice,tdc,trinary,attraction,2,laptops,null,null,null,null,null,null,2,50,60,40,60,50,60,Processing speed,Memory (RAM),NA,NA
NA,NA,NA,NA,NA,choice_trial_setup,html-keyboard-response,6,81468,0.0-4.0-0.1,360,1,2025-05-09T15:52:00Z,b60275e29fe2361ab97ac0ac217840d7,"Mozilla/5.0 (Windows NT 10.0; Win64; x64) AppleWebKit/537.36 (KHTML, like Gecko) Chrome/136.0.0.0 Safari/537.36 Edg/136.0.0.0",WebKit,Edge,136.0.0.0,Windows,10,https://5puzkbbxv1.cognition.run/?sona_id=51461,"en-US,en;q=0.9",2f0ufhjo28l9lzu,21,"[""Black or African-American""]",No,Female,NA,I'm not sure,481409.3000000119,NA,null,<p></p>,null,choice,tc,binary,repulsion,1,washing machines,null,null,null,null,null,null,2,NA,NA,NA,NA,NA,NA,NA,NA,NA,NA
NA,NA,NA,NA,NA,choice_trial,survey-html-form,7,89996,0.0-4.0-1.1,360,1,2025-05-09T15:52:00Z,b60275e29fe2361ab97ac0ac217840d7,"Mozilla/5.0 (Windows NT 10.0; Win64; x64) AppleWebKit/537.36 (KHTML, like Gecko) Chrome/136.0.0.0 Safari/537.36 Edg/136.0.0.0",WebKit,Edge,136.0.0.0,Windows,10,https://5puzkbbxv1.cognition.run/?sona_id=51461,"en-US,en;q=0.9",2f0ufhjo28l9lzu,21,"[""Black or African-American""]",No,Female,NA,I'm not sure,481409.3000000119,NA,8525,NA,"{""product_choice"":""B""}",choice,tc,binary,repulsion,1,washing machines,null,null,null,null,null,null,2,100,90,null,30,40,null,Average lifespan,Energy savings,NA,NA
NA,NA,NA,NA,NA,choice_trial_setup,html-keyboard-response,8,90311,0.0-4.0-0.2,360,1,2025-05-09T15:52:00Z,b60275e29fe2361ab97ac0ac217840d7,"Mozilla/5.0 (Windows NT 10.0; Win64; x64) AppleWebKit/537.36 (KHTML, like Gecko) Chrome/136.0.0.0 Safari/537.36 Edg/136.0.0.0",WebKit,Edge,136.0.0.0,Windows,10,https://5puzkbbxv1.cognition.run/?sona_id=51461,"en-US,en;q=0.9",2f0ufhjo28l9lzu,21,"[""Black or African-American""]",No,Female,NA,I'm not sure,481409.3000000119,NA,null,<p></p>,null,choice,tdc,trinary,repulsion_A,2,laptops,null,null,null,null,null,null,1,NA,NA,NA,NA,NA,NA,NA,NA,NA,NA
NA,NA,NA,NA,NA,choice_trial,survey-html-form,9,101796,0.0-4.0-1.2,360,1,2025-05-09T15:52:00Z,b60275e29fe2361ab97ac0ac217840d7,"Mozilla/5.0 (Windows NT 10.0; Win64; x64) AppleWebKit/537.36 (KHTML, like Gecko) Chrome/136.0.0.0 Safari/537.36 Edg/136.0.0.0",WebKit,Edge,136.0.0.0,Windows,10,https://5puzkbbxv1.cognition.run/?sona_id=51461,"en-US,en;q=0.9",2f0ufhjo28l9lzu,21,"[""Black or African-American""]",No,Female,NA,I'm not sure,481409.3000000119,NA,11482,NA,"{""product_choice"":""C""}",choice,tdc,trinary,repulsion_A,2,laptops,null,null,null,null,null,null,1,30,40,20,100,90,100,Processing speed,Memory (RAM),NA,NA
NA,NA,NA,NA,NA,choice_trial_setup,html-keyboard-response,10,102108,0.0-4.0-0.3,360,1,2025-05-09T15:52:00Z,b60275e29fe2361ab97ac0ac217840d7,"Mozilla/5.0 (Windows NT 10.0; Win64; x64) AppleWebKit/537.36 (KHTML, like Gecko) Chrome/136.0.0.0 Safari/537.36 Edg/136.0.0.0",WebKit,Edge,136.0.0.0,Windows,10,https://5puzkbbxv1.cognition.run/?sona_id=51461,"en-US,en;q=0.9",2f0ufhjo28l9lzu,21,"[""Black or African-American""]",No,Female,NA,I'm not sure,481409.3000000119,NA,null,<p></p>,null,choice,wwb,trinary,catch,null,washing machines,85,55,10,10,40,20,2,NA,NA,NA,NA,NA,NA,NA,NA,NA,NA
NA,NA,NA,NA,NA,choice_trial,survey-html-form,11,114759,0.0-4.0-1.3,360,1,2025-05-09T15:52:00Z,b60275e29fe2361ab97ac0ac217840d7,"Mozilla/5.0 (Windows NT 10.0; Win64; x64) AppleWebKit/537.36 (KHTML, like Gecko) Chrome/136.0.0.0 Safari/537.36 Edg/136.0.0.0",WebKit,Edge,136.0.0.0,Windows,10,https://5puzkbbxv1.cognition.run/?sona_id=51461,"en-US,en;q=0.9",2f0ufhjo28l9lzu,21,"[""Black or African-American""]",No,Female,NA,I'm not sure,481409.3000000119,NA,12648,NA,"{""product_choice"":""C""}",choice,wwb,trinary,catch,null,washing machines,85,55,10,10,40,20,2,null,null,null,null,null,null,Average lifespan,Energy savings,NA,NA
NA,NA,NA,NA,NA,choice_trial_setup,html-keyboard-response,12,115070,0.0-4.0-0.4,360,1,2025-05-09T15:52:00Z,b60275e29fe2361ab97ac0ac217840d7,"Mozilla/5.0 (Windows NT 10.0; Win64; x64) AppleWebKit/537.36 (KHTML, like Gecko) Chrome/136.0.0.0 Safari/537.36 Edg/136.0.0.0",WebKit,Edge,136.0.0.0,Windows,10,https://5puzkbbxv1.cognition.run/?sona_id=51461,"en-US,en;q=0.9",2f0ufhjo28l9lzu,21,"[""Black or African-American""]",No,Female,NA,I'm not sure,481409.3000000119,NA,null,<p></p>,null,choice,cdt,trinary,repulsion_A,1,laptops,null,null,null,null,null,null,1,NA,NA,NA,NA,NA,NA,NA,NA,NA,NA
NA,NA,NA,NA,NA,choice_trial,survey-html-form,13,122967,0.0-4.0-1.4,360,1,2025-05-09T15:52:00Z,b60275e29fe2361ab97ac0ac217840d7,"Mozilla/5.0 (Windows NT 10.0; Win64; x64) AppleWebKit/537.36 (KHTML, like Gecko) Chrome/136.0.0.0 Safari/537.36 Edg/136.0.0.0",WebKit,Edge,136.0.0.0,Windows,10,https://5puzkbbxv1.cognition.run/?sona_id=51461,"en-US,en;q=0.9",2f0ufhjo28l9lzu,21,"[""Black or African-American""]",No,Female,NA,I'm not sure,481409.3000000119,NA,7894,NA,"{""product_choice"":""A""}",choice,cdt,trinary,repulsion_A,1,laptops,null,null,null,null,null,null,1,100,90,100,30,40,20,Processing speed,Memory (RAM),NA,NA
NA,NA,NA,NA,NA,choice_trial_setup,html-keyboard-response,14,123279,0.0-4.0-0.5,360,1,2025-05-09T15:52:00Z,b60275e29fe2361ab97ac0ac217840d7,"Mozilla/5.0 (Windows NT 10.0; Win64; x64) AppleWebKit/537.36 (KHTML, like Gecko) Chrome/136.0.0.0 Safari/537.36 Edg/136.0.0.0",WebKit,Edge,136.0.0.0,Windows,10,https://5puzkbbxv1.cognition.run/?sona_id=51461,"en-US,en;q=0.9",2f0ufhjo28l9lzu,21,"[""Black or African-American""]",No,Female,NA,I'm not sure,481409.3000000119,NA,null,<p></p>,null,choice,tcd,trinary,repulsion_B,1,laptops,null,null,null,null,null,null,2,NA,NA,NA,NA,NA,NA,NA,NA,NA,NA
NA,NA,NA,NA,NA,choice_trial,survey-html-form,15,132536,0.0-4.0-1.5,360,1,2025-05-09T15:52:00Z,b60275e29fe2361ab97ac0ac217840d7,"Mozilla/5.0 (Windows NT 10.0; Win64; x64) AppleWebKit/537.36 (KHTML, like Gecko) Chrome/136.0.0.0 Safari/537.36 Edg/136.0.0.0",WebKit,Edge,136.0.0.0,Windows,10,https://5puzkbbxv1.cognition.run/?sona_id=51461,"en-US,en;q=0.9",2f0ufhjo28l9lzu,21,"[""Black or African-American""]",No,Female,NA,I'm not sure,481409.3000000119,NA,9254,NA,"{""product_choice"":""A""}",choice,tcd,trinary,repulsion_B,1,laptops,null,null,null,null,null,null,2,90,100,80,40,30,40,Processing speed,Memory (RAM),NA,NA
NA,NA,NA,NA,NA,choice_trial_setup,html-keyboard-response,16,132845,0.0-4.0-0.6,360,1,2025-05-09T15:52:00Z,b60275e29fe2361ab97ac0ac217840d7,"Mozilla/5.0 (Windows NT 10.0; Win64; x64) AppleWebKit/537.36 (KHTML, like Gecko) Chrome/136.0.0.0 Safari/537.36 Edg/136.0.0.0",WebKit,Edge,136.0.0.0,Windows,10,https://5puzkbbxv1.cognition.run/?sona_id=51461,"en-US,en;q=0.9",2f0ufhjo28l9lzu,21,"[""Black or African-American""]",No,Female,NA,I'm not sure,481409.3000000119,NA,null,<p></p>,null,choice,dtc,trinary,attraction,1,microwave ovens,null,null,null,null,null,null,2,NA,NA,NA,NA,NA,NA,NA,NA,NA,NA
NA,NA,NA,NA,NA,choice_trial,survey-html-form,17,142247,0.0-4.0-1.6,360,1,2025-05-09T15:52:00Z,b60275e29fe2361ab97ac0ac217840d7,"Mozilla/5.0 (Windows NT 10.0; Win64; x64) AppleWebKit/537.36 (KHTML, like Gecko) Chrome/136.0.0.0 Safari/537.36 Edg/136.0.0.0",WebKit,Edge,136.0.0.0,Windows,10,https://5puzkbbxv1.cognition.run/?sona_id=51461,"en-US,en;q=0.9",2f0ufhjo28l9lzu,21,"[""Black or African-American""]",No,Female,NA,I'm not sure,481409.3000000119,NA,9400,NA,"{""product_choice"":""C""}",choice,dtc,trinary,attraction,1,microwave ovens,null,null,null,null,null,null,2,60,50,60,50,60,40,Warranty,Cooking power,NA,NA
NA,NA,NA,NA,NA,choice_trial_setup,html-keyboard-response,18,142563,0.0-4.0-0.7,360,1,2025-05-09T15:52:00Z,b60275e29fe2361ab97ac0ac217840d7,"Mozilla/5.0 (Windows NT 10.0; Win64; x64) AppleWebKit/537.36 (KHTML, like Gecko) Chrome/136.0.0.0 Safari/537.36 Edg/136.0.0.0",WebKit,Edge,136.0.0.0,Windows,10,https://5puzkbbxv1.cognition.run/?sona_id=51461,"en-US,en;q=0.9",2f0ufhjo28l9lzu,21,"[""Black or African-American""]",No,Female,NA,I'm not sure,481409.3000000119,NA,null,<p></p>,null,choice,wb,binary,catch,null,laptops,95,50,35,40,null,null,1,NA,NA,NA,NA,NA,NA,NA,NA,NA,NA
NA,NA,NA,NA,NA,choice_trial,survey-html-form,19,147702,0.0-4.0-1.7,360,1,2025-05-09T15:52:00Z,b60275e29fe2361ab97ac0ac217840d7,"Mozilla/5.0 (Windows NT 10.0; Win64; x64) AppleWebKit/537.36 (KHTML, like Gecko) Chrome/136.0.0.0 Safari/537.36 Edg/136.0.0.0",WebKit,Edge,136.0.0.0,Windows,10,https://5puzkbbxv1.cognition.run/?sona_id=51461,"en-US,en;q=0.9",2f0ufhjo28l9lzu,21,"[""Black or African-American""]",No,Female,NA,I'm not sure,481409.3000000119,NA,5136,NA,"{""product_choice"":""B""}",choice,wb,binary,catch,null,laptops,95,50,35,40,null,null,1,null,null,null,null,null,null,Processing speed,Memory (RAM),NA,NA
NA,NA,NA,NA,NA,choice_trial_setup,html-keyboard-response,20,148007,0.0-4.0-0.8,360,1,2025-05-09T15:52:00Z,b60275e29fe2361ab97ac0ac217840d7,"Mozilla/5.0 (Windows NT 10.0; Win64; x64) AppleWebKit/537.36 (KHTML, like Gecko) Chrome/136.0.0.0 Safari/537.36 Edg/136.0.0.0",WebKit,Edge,136.0.0.0,Windows,10,https://5puzkbbxv1.cognition.run/?sona_id=51461,"en-US,en;q=0.9",2f0ufhjo28l9lzu,21,"[""Black or African-American""]",No,Female,NA,I'm not sure,481409.3000000119,NA,null,<p></p>,null,choice,wbw,trinary,catch,null,televisions,90,95,25,20,40,45,2,NA,NA,NA,NA,NA,NA,NA,NA,NA,NA
NA,NA,NA,NA,NA,choice_trial,survey-html-form,21,153005,0.0-4.0-1.8,360,1,2025-05-09T15:52:00Z,b60275e29fe2361ab97ac0ac217840d7,"Mozilla/5.0 (Windows NT 10.0; Win64; x64) AppleWebKit/537.36 (KHTML, like Gecko) Chrome/136.0.0.0 Safari/537.36 Edg/136.0.0.0",WebKit,Edge,136.0.0.0,Windows,10,https://5puzkbbxv1.cognition.run/?sona_id=51461,"en-US,en;q=0.9",2f0ufhjo28l9lzu,21,"[""Black or African-American""]",No,Female,NA,I'm not sure,481409.3000000119,NA,4996,NA,"{""product_choice"":""B""}",choice,wbw,trinary,catch,null,televisions,90,95,25,20,40,45,2,null,null,null,null,null,null,Screen size,Average lifespan,NA,NA
NA,NA,NA,NA,NA,choice_trial_setup,html-keyboard-response,22,153312,0.0-4.0-0.9,360,1,2025-05-09T15:52:00Z,b60275e29fe2361ab97ac0ac217840d7,"Mozilla/5.0 (Windows NT 10.0; Win64; x64) AppleWebKit/537.36 (KHTML, like Gecko) Chrome/136.0.0.0 Safari/537.36 Edg/136.0.0.0",WebKit,Edge,136.0.0.0,Windows,10,https://5puzkbbxv1.cognition.run/?sona_id=51461,"en-US,en;q=0.9",2f0ufhjo28l9lzu,21,"[""Black or African-American""]",No,Female,NA,I'm not sure,481409.3000000119,NA,null,<p></p>,null,choice,tcd,trinary,repulsion_B,1,televisions,null,null,null,null,null,null,1,NA,NA,NA,NA,NA,NA,NA,NA,NA,NA
NA,NA,NA,NA,NA,choice_trial,survey-html-form,23,161530,0.0-4.0-1.9,360,1,2025-05-09T15:52:00Z,b60275e29fe2361ab97ac0ac217840d7,"Mozilla/5.0 (Windows NT 10.0; Win64; x64) AppleWebKit/537.36 (KHTML, like Gecko) Chrome/136.0.0.0 Safari/537.36 Edg/136.0.0.0",WebKit,Edge,136.0.0.0,Windows,10,https://5puzkbbxv1.cognition.run/?sona_id=51461,"en-US,en;q=0.9",2f0ufhjo28l9lzu,21,"[""Black or African-American""]",No,Female,NA,I'm not sure,481409.3000000119,NA,8213,NA,"{""product_choice"":""A""}",choice,tcd,trinary,repulsion_B,1,televisions,null,null,null,null,null,null,1,90,100,80,40,30,40,Screen size,Average lifespan,NA,NA
NA,NA,NA,NA,NA,choice_trial_setup,html-keyboard-response,24,161834,0.0-4.0-0.10,360,1,2025-05-09T15:52:00Z,b60275e29fe2361ab97ac0ac217840d7,"Mozilla/5.0 (Windows NT 10.0; Win64; x64) AppleWebKit/537.36 (KHTML, like Gecko) Chrome/136.0.0.0 Safari/537.36 Edg/136.0.0.0",WebKit,Edge,136.0.0.0,Windows,10,https://5puzkbbxv1.cognition.run/?sona_id=51461,"en-US,en;q=0.9",2f0ufhjo28l9lzu,21,"[""Black or African-American""]",No,Female,NA,I'm not sure,481409.3000000119,NA,null,<p></p>,null,choice,ct,binary,repulsion,2,televisions,null,null,null,null,null,null,1,NA,NA,NA,NA,NA,NA,NA,NA,NA,NA
NA,NA,NA,NA,NA,choice_trial,survey-html-form,25,170552,0.0-4.0-1.10,360,1,2025-05-09T15:52:00Z,b60275e29fe2361ab97ac0ac217840d7,"Mozilla/5.0 (Windows NT 10.0; Win64; x64) AppleWebKit/537.36 (KHTML, like Gecko) Chrome/136.0.0.0 Safari/537.36 Edg/136.0.0.0",WebKit,Edge,136.0.0.0,Windows,10,https://5puzkbbxv1.cognition.run/?sona_id=51461,"en-US,en;q=0.9",2f0ufhjo28l9lzu,21,"[""Black or African-American""]",No,Female,NA,I'm not sure,481409.3000000119,NA,8715,NA,"{""product_choice"":""A""}",choice,ct,binary,repulsion,2,televisions,null,null,null,null,null,null,1,30,40,null,100,90,null,Screen size,Average lifespan,NA,NA
NA,NA,NA,NA,NA,choice_trial_setup,html-keyboard-response,26,170870,0.0-4.0-0.11,360,1,2025-05-09T15:52:00Z,b60275e29fe2361ab97ac0ac217840d7,"Mozilla/5.0 (Windows NT 10.0; Win64; x64) AppleWebKit/537.36 (KHTML, like Gecko) Chrome/136.0.0.0 Safari/537.36 Edg/136.0.0.0",WebKit,Edge,136.0.0.0,Windows,10,https://5puzkbbxv1.cognition.run/?sona_id=51461,"en-US,en;q=0.9",2f0ufhjo28l9lzu,21,"[""Black or African-American""]",No,Female,NA,I'm not sure,481409.3000000119,NA,null,<p></p>,null,choice,ct,binary,attraction,NA,televisions,null,null,null,null,null,null,1,NA,NA,NA,NA,NA,NA,NA,NA,NA,NA
NA,NA,NA,NA,NA,choice_trial,survey-html-form,27,176384,0.0-4.0-1.11,360,1,2025-05-09T15:52:00Z,b60275e29fe2361ab97ac0ac217840d7,"Mozilla/5.0 (Windows NT 10.0; Win64; x64) AppleWebKit/537.36 (KHTML, like Gecko) Chrome/136.0.0.0 Safari/537.36 Edg/136.0.0.0",WebKit,Edge,136.0.0.0,Windows,10,https://5puzkbbxv1.cognition.run/?sona_id=51461,"en-US,en;q=0.9",2f0ufhjo28l9lzu,21,"[""Black or African-American""]",No,Female,NA,I'm not sure,481409.3000000119,NA,5511,NA,"{""product_choice"":""A""}",choice,ct,binary,attraction,NA,televisions,null,null,null,null,null,null,1,60,50,null,50,60,null,Screen size,Average lifespan,NA,NA
NA,NA,NA,NA,NA,choice_trial_setup,html-keyboard-response,28,176702,0.0-4.0-0.12,360,1,2025-05-09T15:52:00Z,b60275e29fe2361ab97ac0ac217840d7,"Mozilla/5.0 (Windows NT 10.0; Win64; x64) AppleWebKit/537.36 (KHTML, like Gecko) Chrome/136.0.0.0 Safari/537.36 Edg/136.0.0.0",WebKit,Edge,136.0.0.0,Windows,10,https://5puzkbbxv1.cognition.run/?sona_id=51461,"en-US,en;q=0.9",2f0ufhjo28l9lzu,21,"[""Black or African-American""]",No,Female,NA,I'm not sure,481409.3000000119,NA,null,<p></p>,null,choice,ct,binary,repulsion,2,microwave ovens,null,null,null,null,null,null,2,NA,NA,NA,NA,NA,NA,NA,NA,NA,NA
NA,NA,NA,NA,NA,choice_trial,survey-html-form,29,182891,0.0-4.0-1.12,360,1,2025-05-09T15:52:00Z,b60275e29fe2361ab97ac0ac217840d7,"Mozilla/5.0 (Windows NT 10.0; Win64; x64) AppleWebKit/537.36 (KHTML, like Gecko) Chrome/136.0.0.0 Safari/537.36 Edg/136.0.0.0",WebKit,Edge,136.0.0.0,Windows,10,https://5puzkbbxv1.cognition.run/?sona_id=51461,"en-US,en;q=0.9",2f0ufhjo28l9lzu,21,"[""Black or African-American""]",No,Female,NA,I'm not sure,481409.3000000119,NA,6185,NA,"{""product_choice"":""B""}",choice,ct,binary,repulsion,2,microwave ovens,null,null,null,null,null,null,2,30,40,null,100,90,null,Warranty,Cooking power,NA,NA
NA,NA,NA,NA,NA,choice_trial_setup,html-keyboard-response,30,183199,0.0-4.0-0.13,360,1,2025-05-09T15:52:00Z,b60275e29fe2361ab97ac0ac217840d7,"Mozilla/5.0 (Windows NT 10.0; Win64; x64) AppleWebKit/537.36 (KHTML, like Gecko) Chrome/136.0.0.0 Safari/537.36 Edg/136.0.0.0",WebKit,Edge,136.0.0.0,Windows,10,https://5puzkbbxv1.cognition.run/?sona_id=51461,"en-US,en;q=0.9",2f0ufhjo28l9lzu,21,"[""Black or African-American""]",No,Female,NA,I'm not sure,481409.3000000119,NA,null,<p></p>,null,choice,cdt,trinary,attraction,2,televisions,null,null,null,null,null,null,1,NA,NA,NA,NA,NA,NA,NA,NA,NA,NA
NA,NA,NA,NA,NA,choice_trial,survey-html-form,31,192494,0.0-4.0-1.13,360,1,2025-05-09T15:52:00Z,b60275e29fe2361ab97ac0ac217840d7,"Mozilla/5.0 (Windows NT 10.0; Win64; x64) AppleWebKit/537.36 (KHTML, like Gecko) Chrome/136.0.0.0 Safari/537.36 Edg/136.0.0.0",WebKit,Edge,136.0.0.0,Windows,10,https://5puzkbbxv1.cognition.run/?sona_id=51461,"en-US,en;q=0.9",2f0ufhjo28l9lzu,21,"[""Black or African-American""]",No,Female,NA,I'm not sure,481409.3000000119,NA,9291,NA,"{""product_choice"":""C""}",choice,cdt,trinary,attraction,2,televisions,null,null,null,null,null,null,1,50,60,40,60,50,60,Screen size,Average lifespan,NA,NA
NA,NA,NA,NA,NA,choice_trial_setup,html-keyboard-response,32,192810,0.0-4.0-0.14,360,1,2025-05-09T15:52:00Z,b60275e29fe2361ab97ac0ac217840d7,"Mozilla/5.0 (Windows NT 10.0; Win64; x64) AppleWebKit/537.36 (KHTML, like Gecko) Chrome/136.0.0.0 Safari/537.36 Edg/136.0.0.0",WebKit,Edge,136.0.0.0,Windows,10,https://5puzkbbxv1.cognition.run/?sona_id=51461,"en-US,en;q=0.9",2f0ufhjo28l9lzu,21,"[""Black or African-American""]",No,Female,NA,I'm not sure,481409.3000000119,NA,null,<p></p>,null,choice,dct,trinary,attraction,1,washing machines,null,null,null,null,null,null,1,NA,NA,NA,NA,NA,NA,NA,NA,NA,NA
NA,NA,NA,NA,NA,choice_trial,survey-html-form,33,205796,0.0-4.0-1.14,360,1,2025-05-09T15:52:00Z,b60275e29fe2361ab97ac0ac217840d7,"Mozilla/5.0 (Windows NT 10.0; Win64; x64) AppleWebKit/537.36 (KHTML, like Gecko) Chrome/136.0.0.0 Safari/537.36 Edg/136.0.0.0",WebKit,Edge,136.0.0.0,Windows,10,https://5puzkbbxv1.cognition.run/?sona_id=51461,"en-US,en;q=0.9",2f0ufhjo28l9lzu,21,"[""Black or African-American""]",No,Female,NA,I'm not sure,481409.3000000119,NA,12983,NA,"{""product_choice"":""B""}",choice,dct,trinary,attraction,1,washing machines,null,null,null,null,null,null,1,60,50,60,50,60,40,Average lifespan,Energy savings,NA,NA
NA,NA,NA,NA,NA,choice_trial_setup,html-keyboard-response,34,206105,0.0-4.0-0.15,360,1,2025-05-09T15:52:00Z,b60275e29fe2361ab97ac0ac217840d7,"Mozilla/5.0 (Windows NT 10.0; Win64; x64) AppleWebKit/537.36 (KHTML, like Gecko) Chrome/136.0.0.0 Safari/537.36 Edg/136.0.0.0",WebKit,Edge,136.0.0.0,Windows,10,https://5puzkbbxv1.cognition.run/?sona_id=51461,"en-US,en;q=0.9",2f0ufhjo28l9lzu,21,"[""Black or African-American""]",No,Female,NA,I'm not sure,481409.3000000119,NA,null,<p></p>,null,choice,tc,binary,attraction,NA,laptops,null,null,null,null,null,null,1,NA,NA,NA,NA,NA,NA,NA,NA,NA,NA
NA,NA,NA,NA,NA,choice_trial,survey-html-form,35,218777,0.0-4.0-1.15,360,1,2025-05-09T15:52:00Z,b60275e29fe2361ab97ac0ac217840d7,"Mozilla/5.0 (Windows NT 10.0; Win64; x64) AppleWebKit/537.36 (KHTML, like Gecko) Chrome/136.0.0.0 Safari/537.36 Edg/136.0.0.0",WebKit,Edge,136.0.0.0,Windows,10,https://5puzkbbxv1.cognition.run/?sona_id=51461,"en-US,en;q=0.9",2f0ufhjo28l9lzu,21,"[""Black or African-American""]",No,Female,NA,I'm not sure,481409.3000000119,NA,12669,NA,"{""product_choice"":""B""}",choice,tc,binary,attraction,NA,laptops,null,null,null,null,null,null,1,60,50,null,50,60,null,Processing speed,Memory (RAM),NA,NA
NA,NA,NA,NA,NA,choice_trial_setup,html-keyboard-response,36,219086,0.0-4.0-0.16,360,1,2025-05-09T15:52:00Z,b60275e29fe2361ab97ac0ac217840d7,"Mozilla/5.0 (Windows NT 10.0; Win64; x64) AppleWebKit/537.36 (KHTML, like Gecko) Chrome/136.0.0.0 Safari/537.36 Edg/136.0.0.0",WebKit,Edge,136.0.0.0,Windows,10,https://5puzkbbxv1.cognition.run/?sona_id=51461,"en-US,en;q=0.9",2f0ufhjo28l9lzu,21,"[""Black or African-American""]",No,Female,NA,I'm not sure,481409.3000000119,NA,null,<p></p>,null,choice,ct,binary,repulsion,1,microwave ovens,null,null,null,null,null,null,2,NA,NA,NA,NA,NA,NA,NA,NA,NA,NA
NA,NA,NA,NA,NA,choice_trial,survey-html-form,37,225160,0.0-4.0-1.16,360,1,2025-05-09T15:52:00Z,b60275e29fe2361ab97ac0ac217840d7,"Mozilla/5.0 (Windows NT 10.0; Win64; x64) AppleWebKit/537.36 (KHTML, like Gecko) Chrome/136.0.0.0 Safari/537.36 Edg/136.0.0.0",WebKit,Edge,136.0.0.0,Windows,10,https://5puzkbbxv1.cognition.run/?sona_id=51461,"en-US,en;q=0.9",2f0ufhjo28l9lzu,21,"[""Black or African-American""]",No,Female,NA,I'm not sure,481409.3000000119,NA,6070,NA,"{""product_choice"":""A""}",choice,ct,binary,repulsion,1,microwave ovens,null,null,null,null,null,null,2,100,90,null,30,40,null,Warranty,Cooking power,NA,NA
NA,NA,NA,NA,NA,choice_trial_setup,html-keyboard-response,38,225473,0.0-4.0-0.17,360,1,2025-05-09T15:52:00Z,b60275e29fe2361ab97ac0ac217840d7,"Mozilla/5.0 (Windows NT 10.0; Win64; x64) AppleWebKit/537.36 (KHTML, like Gecko) Chrome/136.0.0.0 Safari/537.36 Edg/136.0.0.0",WebKit,Edge,136.0.0.0,Windows,10,https://5puzkbbxv1.cognition.run/?sona_id=51461,"en-US,en;q=0.9",2f0ufhjo28l9lzu,21,"[""Black or African-American""]",No,Female,NA,I'm not sure,481409.3000000119,NA,null,<p></p>,null,choice,tcd,trinary,attraction,1,laptops,null,null,null,null,null,null,1,NA,NA,NA,NA,NA,NA,NA,NA,NA,NA
NA,NA,NA,NA,NA,choice_trial,survey-html-form,39,234004,0.0-4.0-1.17,360,1,2025-05-09T15:52:00Z,b60275e29fe2361ab97ac0ac217840d7,"Mozilla/5.0 (Windows NT 10.0; Win64; x64) AppleWebKit/537.36 (KHTML, like Gecko) Chrome/136.0.0.0 Safari/537.36 Edg/136.0.0.0",WebKit,Edge,136.0.0.0,Windows,10,https://5puzkbbxv1.cognition.run/?sona_id=51461,"en-US,en;q=0.9",2f0ufhjo28l9lzu,21,"[""Black or African-American""]",No,Female,NA,I'm not sure,481409.3000000119,NA,8527,NA,"{""product_choice"":""B""}",choice,tcd,trinary,attraction,1,laptops,null,null,null,null,null,null,1,60,50,60,50,60,40,Processing speed,Memory (RAM),NA,NA
NA,NA,NA,NA,NA,choice_trial_setup,html-keyboard-response,40,234317,0.0-4.0-0.18,360,1,2025-05-09T15:52:00Z,b60275e29fe2361ab97ac0ac217840d7,"Mozilla/5.0 (Windows NT 10.0; Win64; x64) AppleWebKit/537.36 (KHTML, like Gecko) Chrome/136.0.0.0 Safari/537.36 Edg/136.0.0.0",WebKit,Edge,136.0.0.0,Windows,10,https://5puzkbbxv1.cognition.run/?sona_id=51461,"en-US,en;q=0.9",2f0ufhjo28l9lzu,21,"[""Black or African-American""]",No,Female,NA,I'm not sure,481409.3000000119,NA,null,<p></p>,null,choice,tdc,trinary,repulsion_B,2,laptops,null,null,null,null,null,null,1,NA,NA,NA,NA,NA,NA,NA,NA,NA,NA
NA,NA,NA,NA,NA,choice_trial,survey-html-form,41,245971,0.0-4.0-1.18,360,1,2025-05-09T15:52:00Z,b60275e29fe2361ab97ac0ac217840d7,"Mozilla/5.0 (Windows NT 10.0; Win64; x64) AppleWebKit/537.36 (KHTML, like Gecko) Chrome/136.0.0.0 Safari/537.36 Edg/136.0.0.0",WebKit,Edge,136.0.0.0,Windows,10,https://5puzkbbxv1.cognition.run/?sona_id=51461,"en-US,en;q=0.9",2f0ufhjo28l9lzu,21,"[""Black or African-American""]",No,Female,NA,I'm not sure,481409.3000000119,NA,11648,NA,"{""product_choice"":""A""}",choice,tdc,trinary,repulsion_B,2,laptops,null,null,null,null,null,null,1,40,30,40,90,100,80,Processing speed,Memory (RAM),NA,NA
NA,NA,NA,NA,NA,choice_trial_setup,html-keyboard-response,42,246288,0.0-4.0-0.19,360,1,2025-05-09T15:52:00Z,b60275e29fe2361ab97ac0ac217840d7,"Mozilla/5.0 (Windows NT 10.0; Win64; x64) AppleWebKit/537.36 (KHTML, like Gecko) Chrome/136.0.0.0 Safari/537.36 Edg/136.0.0.0",WebKit,Edge,136.0.0.0,Windows,10,https://5puzkbbxv1.cognition.run/?sona_id=51461,"en-US,en;q=0.9",2f0ufhjo28l9lzu,21,"[""Black or African-American""]",No,Female,NA,I'm not sure,481409.3000000119,NA,null,<p></p>,null,choice,wb,binary,catch,null,microwave ovens,55,50,25,20,null,null,1,NA,NA,NA,NA,NA,NA,NA,NA,NA,NA
NA,NA,NA,NA,NA,choice_trial,survey-html-form,43,250400,0.0-4.0-1.19,360,1,2025-05-09T15:52:00Z,b60275e29fe2361ab97ac0ac217840d7,"Mozilla/5.0 (Windows NT 10.0; Win64; x64) AppleWebKit/537.36 (KHTML, like Gecko) Chrome/136.0.0.0 Safari/537.36 Edg/136.0.0.0",WebKit,Edge,136.0.0.0,Windows,10,https://5puzkbbxv1.cognition.run/?sona_id=51461,"en-US,en;q=0.9",2f0ufhjo28l9lzu,21,"[""Black or African-American""]",No,Female,NA,I'm not sure,481409.3000000119,NA,4107,NA,"{""product_choice"":""B""}",choice,wb,binary,catch,null,microwave ovens,55,50,25,20,null,null,1,null,null,null,null,null,null,Warranty,Cooking power,NA,NA
NA,NA,NA,NA,NA,choice_trial_setup,html-keyboard-response,44,250717,0.0-4.0-0.20,360,1,2025-05-09T15:52:00Z,b60275e29fe2361ab97ac0ac217840d7,"Mozilla/5.0 (Windows NT 10.0; Win64; x64) AppleWebKit/537.36 (KHTML, like Gecko) Chrome/136.0.0.0 Safari/537.36 Edg/136.0.0.0",WebKit,Edge,136.0.0.0,Windows,10,https://5puzkbbxv1.cognition.run/?sona_id=51461,"en-US,en;q=0.9",2f0ufhjo28l9lzu,21,"[""Black or African-American""]",No,Female,NA,I'm not sure,481409.3000000119,NA,null,<p></p>,null,choice,dct,trinary,repulsion_B,2,washing machines,null,null,null,null,null,null,1,NA,NA,NA,NA,NA,NA,NA,NA,NA,NA
NA,NA,NA,NA,NA,choice_trial,survey-html-form,45,255053,0.0-4.0-1.20,360,1,2025-05-09T15:52:00Z,b60275e29fe2361ab97ac0ac217840d7,"Mozilla/5.0 (Windows NT 10.0; Win64; x64) AppleWebKit/537.36 (KHTML, like Gecko) Chrome/136.0.0.0 Safari/537.36 Edg/136.0.0.0",WebKit,Edge,136.0.0.0,Windows,10,https://5puzkbbxv1.cognition.run/?sona_id=51461,"en-US,en;q=0.9",2f0ufhjo28l9lzu,21,"[""Black or African-American""]",No,Female,NA,I'm not sure,481409.3000000119,NA,4331,NA,"{""product_choice"":""C""}",choice,dct,trinary,repulsion_B,2,washing machines,null,null,null,null,null,null,1,40,30,40,90,100,80,Average lifespan,Energy savings,NA,NA
NA,NA,NA,NA,NA,choice_trial_setup,html-keyboard-response,46,255357,0.0-4.0-0.21,360,1,2025-05-09T15:52:00Z,b60275e29fe2361ab97ac0ac217840d7,"Mozilla/5.0 (Windows NT 10.0; Win64; x64) AppleWebKit/537.36 (KHTML, like Gecko) Chrome/136.0.0.0 Safari/537.36 Edg/136.0.0.0",WebKit,Edge,136.0.0.0,Windows,10,https://5puzkbbxv1.cognition.run/?sona_id=51461,"en-US,en;q=0.9",2f0ufhjo28l9lzu,21,"[""Black or African-American""]",No,Female,NA,I'm not sure,481409.3000000119,NA,null,<p></p>,null,choice,tc,binary,repulsion,2,laptops,null,null,null,null,null,null,2,NA,NA,NA,NA,NA,NA,NA,NA,NA,NA
NA,NA,NA,NA,NA,choice_trial,survey-html-form,47,263509,0.0-4.0-1.21,360,1,2025-05-09T15:52:00Z,b60275e29fe2361ab97ac0ac217840d7,"Mozilla/5.0 (Windows NT 10.0; Win64; x64) AppleWebKit/537.36 (KHTML, like Gecko) Chrome/136.0.0.0 Safari/537.36 Edg/136.0.0.0",WebKit,Edge,136.0.0.0,Windows,10,https://5puzkbbxv1.cognition.run/?sona_id=51461,"en-US,en;q=0.9",2f0ufhjo28l9lzu,21,"[""Black or African-American""]",No,Female,NA,I'm not sure,481409.3000000119,NA,8147,NA,"{""product_choice"":""B""}",choice,tc,binary,repulsion,2,laptops,null,null,null,null,null,null,2,30,40,null,100,90,null,Processing speed,Memory (RAM),NA,NA
NA,NA,NA,NA,NA,choice_trial_setup,html-keyboard-response,48,263814,0.0-4.0-0.22,360,1,2025-05-09T15:52:00Z,b60275e29fe2361ab97ac0ac217840d7,"Mozilla/5.0 (Windows NT 10.0; Win64; x64) AppleWebKit/537.36 (KHTML, like Gecko) Chrome/136.0.0.0 Safari/537.36 Edg/136.0.0.0",WebKit,Edge,136.0.0.0,Windows,10,https://5puzkbbxv1.cognition.run/?sona_id=51461,"en-US,en;q=0.9",2f0ufhjo28l9lzu,21,"[""Black or African-American""]",No,Female,NA,I'm not sure,481409.3000000119,NA,null,<p></p>,null,choice,dct,trinary,repulsion_B,1,washing machines,null,null,null,null,null,null,2,NA,NA,NA,NA,NA,NA,NA,NA,NA,NA
NA,NA,NA,NA,NA,choice_trial,survey-html-form,49,270366,0.0-4.0-1.22,360,1,2025-05-09T15:52:00Z,b60275e29fe2361ab97ac0ac217840d7,"Mozilla/5.0 (Windows NT 10.0; Win64; x64) AppleWebKit/537.36 (KHTML, like Gecko) Chrome/136.0.0.0 Safari/537.36 Edg/136.0.0.0",WebKit,Edge,136.0.0.0,Windows,10,https://5puzkbbxv1.cognition.run/?sona_id=51461,"en-US,en;q=0.9",2f0ufhjo28l9lzu,21,"[""Black or African-American""]",No,Female,NA,I'm not sure,481409.3000000119,NA,6547,NA,"{""product_choice"":""C""}",choice,dct,trinary,repulsion_B,1,washing machines,null,null,null,null,null,null,2,90,100,80,40,30,40,Average lifespan,Energy savings,NA,NA
NA,NA,NA,NA,NA,choice_trial_setup,html-keyboard-response,50,270685,0.0-4.0-0.23,360,1,2025-05-09T15:52:00Z,b60275e29fe2361ab97ac0ac217840d7,"Mozilla/5.0 (Windows NT 10.0; Win64; x64) AppleWebKit/537.36 (KHTML, like Gecko) Chrome/136.0.0.0 Safari/537.36 Edg/136.0.0.0",WebKit,Edge,136.0.0.0,Windows,10,https://5puzkbbxv1.cognition.run/?sona_id=51461,"en-US,en;q=0.9",2f0ufhjo28l9lzu,21,"[""Black or African-American""]",No,Female,NA,I'm not sure,481409.3000000119,NA,null,<p></p>,null,choice,wwb,trinary,catch,null,laptops,70,65,45,5,10,40,2,NA,NA,NA,NA,NA,NA,NA,NA,NA,NA
NA,NA,NA,NA,NA,choice_trial,survey-html-form,51,274623,0.0-4.0-1.23,360,1,2025-05-09T15:52:00Z,b60275e29fe2361ab97ac0ac217840d7,"Mozilla/5.0 (Windows NT 10.0; Win64; x64) AppleWebKit/537.36 (KHTML, like Gecko) Chrome/136.0.0.0 Safari/537.36 Edg/136.0.0.0",WebKit,Edge,136.0.0.0,Windows,10,https://5puzkbbxv1.cognition.run/?sona_id=51461,"en-US,en;q=0.9",2f0ufhjo28l9lzu,21,"[""Black or African-American""]",No,Female,NA,I'm not sure,481409.3000000119,NA,3934,NA,"{""product_choice"":""C""}",choice,wwb,trinary,catch,null,laptops,70,65,45,5,10,40,2,null,null,null,null,null,null,Processing speed,Memory (RAM),NA,NA
NA,NA,NA,NA,NA,choice_trial_setup,html-keyboard-response,52,274934,0.0-4.0-0.24,360,1,2025-05-09T15:52:00Z,b60275e29fe2361ab97ac0ac217840d7,"Mozilla/5.0 (Windows NT 10.0; Win64; x64) AppleWebKit/537.36 (KHTML, like Gecko) Chrome/136.0.0.0 Safari/537.36 Edg/136.0.0.0",WebKit,Edge,136.0.0.0,Windows,10,https://5puzkbbxv1.cognition.run/?sona_id=51461,"en-US,en;q=0.9",2f0ufhjo28l9lzu,21,"[""Black or African-American""]",No,Female,NA,I'm not sure,481409.3000000119,NA,null,<p></p>,null,choice,tdc,trinary,attraction,2,microwave ovens,null,null,null,null,null,null,1,NA,NA,NA,NA,NA,NA,NA,NA,NA,NA
NA,NA,NA,NA,NA,choice_trial,survey-html-form,53,285540,0.0-4.0-1.24,360,1,2025-05-09T15:52:00Z,b60275e29fe2361ab97ac0ac217840d7,"Mozilla/5.0 (Windows NT 10.0; Win64; x64) AppleWebKit/537.36 (KHTML, like Gecko) Chrome/136.0.0.0 Safari/537.36 Edg/136.0.0.0",WebKit,Edge,136.0.0.0,Windows,10,https://5puzkbbxv1.cognition.run/?sona_id=51461,"en-US,en;q=0.9",2f0ufhjo28l9lzu,21,"[""Black or African-American""]",No,Female,NA,I'm not sure,481409.3000000119,NA,10602,NA,"{""product_choice"":""A""}",choice,tdc,trinary,attraction,2,microwave ovens,null,null,null,null,null,null,1,50,60,40,60,50,60,Warranty,Cooking power,NA,NA
NA,NA,NA,NA,NA,choice_trial_setup,html-keyboard-response,54,285854,0.0-4.0-0.25,360,1,2025-05-09T15:52:00Z,b60275e29fe2361ab97ac0ac217840d7,"Mozilla/5.0 (Windows NT 10.0; Win64; x64) AppleWebKit/537.36 (KHTML, like Gecko) Chrome/136.0.0.0 Safari/537.36 Edg/136.0.0.0",WebKit,Edge,136.0.0.0,Windows,10,https://5puzkbbxv1.cognition.run/?sona_id=51461,"en-US,en;q=0.9",2f0ufhjo28l9lzu,21,"[""Black or African-American""]",No,Female,NA,I'm not sure,481409.3000000119,NA,null,<p></p>,null,choice,tdc,trinary,attraction,1,televisions,null,null,null,null,null,null,2,NA,NA,NA,NA,NA,NA,NA,NA,NA,NA
NA,NA,NA,NA,NA,choice_trial,survey-html-form,55,294094,0.0-4.0-1.25,360,1,2025-05-09T15:52:00Z,b60275e29fe2361ab97ac0ac217840d7,"Mozilla/5.0 (Windows NT 10.0; Win64; x64) AppleWebKit/537.36 (KHTML, like Gecko) Chrome/136.0.0.0 Safari/537.36 Edg/136.0.0.0",WebKit,Edge,136.0.0.0,Windows,10,https://5puzkbbxv1.cognition.run/?sona_id=51461,"en-US,en;q=0.9",2f0ufhjo28l9lzu,21,"[""Black or African-American""]",No,Female,NA,I'm not sure,481409.3000000119,NA,8236,NA,"{""product_choice"":""C""}",choice,tdc,trinary,attraction,1,televisions,null,null,null,null,null,null,2,60,50,60,50,60,40,Screen size,Average lifespan,NA,NA
NA,NA,NA,NA,NA,choice_trial_setup,html-keyboard-response,56,294403,0.0-4.0-0.26,360,1,2025-05-09T15:52:00Z,b60275e29fe2361ab97ac0ac217840d7,"Mozilla/5.0 (Windows NT 10.0; Win64; x64) AppleWebKit/537.36 (KHTML, like Gecko) Chrome/136.0.0.0 Safari/537.36 Edg/136.0.0.0",WebKit,Edge,136.0.0.0,Windows,10,https://5puzkbbxv1.cognition.run/?sona_id=51461,"en-US,en;q=0.9",2f0ufhjo28l9lzu,21,"[""Black or African-American""]",No,Female,NA,I'm not sure,481409.3000000119,NA,null,<p></p>,null,choice,dtc,trinary,repulsion_A,2,microwave ovens,null,null,null,null,null,null,1,NA,NA,NA,NA,NA,NA,NA,NA,NA,NA
NA,NA,NA,NA,NA,choice_trial,survey-html-form,57,302907,0.0-4.0-1.26,360,1,2025-05-09T15:52:00Z,b60275e29fe2361ab97ac0ac217840d7,"Mozilla/5.0 (Windows NT 10.0; Win64; x64) AppleWebKit/537.36 (KHTML, like Gecko) Chrome/136.0.0.0 Safari/537.36 Edg/136.0.0.0",WebKit,Edge,136.0.0.0,Windows,10,https://5puzkbbxv1.cognition.run/?sona_id=51461,"en-US,en;q=0.9",2f0ufhjo28l9lzu,21,"[""Black or African-American""]",No,Female,NA,I'm not sure,481409.3000000119,NA,8500,NA,"{""product_choice"":""C""}",choice,dtc,trinary,repulsion_A,2,microwave ovens,null,null,null,null,null,null,1,30,40,20,100,90,100,Warranty,Cooking power,NA,NA
NA,NA,NA,NA,NA,choice_trial_setup,html-keyboard-response,58,303224,0.0-4.0-0.27,360,1,2025-05-09T15:52:00Z,b60275e29fe2361ab97ac0ac217840d7,"Mozilla/5.0 (Windows NT 10.0; Win64; x64) AppleWebKit/537.36 (KHTML, like Gecko) Chrome/136.0.0.0 Safari/537.36 Edg/136.0.0.0",WebKit,Edge,136.0.0.0,Windows,10,https://5puzkbbxv1.cognition.run/?sona_id=51461,"en-US,en;q=0.9",2f0ufhjo28l9lzu,21,"[""Black or African-American""]",No,Female,NA,I'm not sure,481409.3000000119,NA,null,<p></p>,null,choice,tcd,trinary,repulsion_A,1,microwave ovens,null,null,null,null,null,null,2,NA,NA,NA,NA,NA,NA,NA,NA,NA,NA
NA,NA,NA,NA,NA,choice_trial,survey-html-form,59,307216,0.0-4.0-1.27,360,1,2025-05-09T15:52:00Z,b60275e29fe2361ab97ac0ac217840d7,"Mozilla/5.0 (Windows NT 10.0; Win64; x64) AppleWebKit/537.36 (KHTML, like Gecko) Chrome/136.0.0.0 Safari/537.36 Edg/136.0.0.0",WebKit,Edge,136.0.0.0,Windows,10,https://5puzkbbxv1.cognition.run/?sona_id=51461,"en-US,en;q=0.9",2f0ufhjo28l9lzu,21,"[""Black or African-American""]",No,Female,NA,I'm not sure,481409.3000000119,NA,3989,NA,"{""product_choice"":""B""}",choice,tcd,trinary,repulsion_A,1,microwave ovens,null,null,null,null,null,null,2,100,90,100,30,40,20,Warranty,Cooking power,NA,NA
NA,NA,NA,NA,NA,choice_trial_setup,html-keyboard-response,60,307533,0.0-4.0-0.28,360,1,2025-05-09T15:52:00Z,b60275e29fe2361ab97ac0ac217840d7,"Mozilla/5.0 (Windows NT 10.0; Win64; x64) AppleWebKit/537.36 (KHTML, like Gecko) Chrome/136.0.0.0 Safari/537.36 Edg/136.0.0.0",WebKit,Edge,136.0.0.0,Windows,10,https://5puzkbbxv1.cognition.run/?sona_id=51461,"en-US,en;q=0.9",2f0ufhjo28l9lzu,21,"[""Black or African-American""]",No,Female,NA,I'm not sure,481409.3000000119,NA,null,<p></p>,null,choice,wb,binary,catch,null,washing machines,95,70,10,35,null,null,2,NA,NA,NA,NA,NA,NA,NA,NA,NA,NA
NA,NA,NA,NA,NA,choice_trial,survey-html-form,61,310976,0.0-4.0-1.28,360,1,2025-05-09T15:52:00Z,b60275e29fe2361ab97ac0ac217840d7,"Mozilla/5.0 (Windows NT 10.0; Win64; x64) AppleWebKit/537.36 (KHTML, like Gecko) Chrome/136.0.0.0 Safari/537.36 Edg/136.0.0.0",WebKit,Edge,136.0.0.0,Windows,10,https://5puzkbbxv1.cognition.run/?sona_id=51461,"en-US,en;q=0.9",2f0ufhjo28l9lzu,21,"[""Black or African-American""]",No,Female,NA,I'm not sure,481409.3000000119,NA,3439,NA,"{""product_choice"":""B""}",choice,wb,binary,catch,null,washing machines,95,70,10,35,null,null,2,null,null,null,null,null,null,Average lifespan,Energy savings,NA,NA
NA,NA,NA,NA,NA,choice_trial_setup,html-keyboard-response,62,311280,0.0-4.0-0.29,360,1,2025-05-09T15:52:00Z,b60275e29fe2361ab97ac0ac217840d7,"Mozilla/5.0 (Windows NT 10.0; Win64; x64) AppleWebKit/537.36 (KHTML, like Gecko) Chrome/136.0.0.0 Safari/537.36 Edg/136.0.0.0",WebKit,Edge,136.0.0.0,Windows,10,https://5puzkbbxv1.cognition.run/?sona_id=51461,"en-US,en;q=0.9",2f0ufhjo28l9lzu,21,"[""Black or African-American""]",No,Female,NA,I'm not sure,481409.3000000119,NA,null,<p></p>,null,choice,ctd,trinary,repulsion_A,2,washing machines,null,null,null,null,null,null,1,NA,NA,NA,NA,NA,NA,NA,NA,NA,NA
NA,NA,NA,NA,NA,choice_trial,survey-html-form,63,320189,0.0-4.0-1.29,360,1,2025-05-09T15:52:00Z,b60275e29fe2361ab97ac0ac217840d7,"Mozilla/5.0 (Windows NT 10.0; Win64; x64) AppleWebKit/537.36 (KHTML, like Gecko) Chrome/136.0.0.0 Safari/537.36 Edg/136.0.0.0",WebKit,Edge,136.0.0.0,Windows,10,https://5puzkbbxv1.cognition.run/?sona_id=51461,"en-US,en;q=0.9",2f0ufhjo28l9lzu,21,"[""Black or African-American""]",No,Female,NA,I'm not sure,481409.3000000119,NA,8905,NA,"{""product_choice"":""A""}",choice,ctd,trinary,repulsion_A,2,washing machines,null,null,null,null,null,null,1,30,40,20,100,90,100,Average lifespan,Energy savings,NA,NA
NA,NA,NA,NA,NA,choice_trial_setup,html-keyboard-response,64,320502,0.0-4.0-0.30,360,1,2025-05-09T15:52:00Z,b60275e29fe2361ab97ac0ac217840d7,"Mozilla/5.0 (Windows NT 10.0; Win64; x64) AppleWebKit/537.36 (KHTML, like Gecko) Chrome/136.0.0.0 Safari/537.36 Edg/136.0.0.0",WebKit,Edge,136.0.0.0,Windows,10,https://5puzkbbxv1.cognition.run/?sona_id=51461,"en-US,en;q=0.9",2f0ufhjo28l9lzu,21,"[""Black or African-American""]",No,Female,NA,I'm not sure,481409.3000000119,NA,null,<p></p>,null,choice,cdt,trinary,repulsion_A,2,televisions,null,null,null,null,null,null,1,NA,NA,NA,NA,NA,NA,NA,NA,NA,NA
NA,NA,NA,NA,NA,choice_trial,survey-html-form,65,330404,0.0-4.0-1.30,360,1,2025-05-09T15:52:00Z,b60275e29fe2361ab97ac0ac217840d7,"Mozilla/5.0 (Windows NT 10.0; Win64; x64) AppleWebKit/537.36 (KHTML, like Gecko) Chrome/136.0.0.0 Safari/537.36 Edg/136.0.0.0",WebKit,Edge,136.0.0.0,Windows,10,https://5puzkbbxv1.cognition.run/?sona_id=51461,"en-US,en;q=0.9",2f0ufhjo28l9lzu,21,"[""Black or African-American""]",No,Female,NA,I'm not sure,481409.3000000119,NA,9898,NA,"{""product_choice"":""A""}",choice,cdt,trinary,repulsion_A,2,televisions,null,null,null,null,null,null,1,30,40,20,100,90,100,Screen size,Average lifespan,NA,NA
NA,NA,NA,NA,NA,choice_trial_setup,html-keyboard-response,66,330721,0.0-4.0-0.31,360,1,2025-05-09T15:52:00Z,b60275e29fe2361ab97ac0ac217840d7,"Mozilla/5.0 (Windows NT 10.0; Win64; x64) AppleWebKit/537.36 (KHTML, like Gecko) Chrome/136.0.0.0 Safari/537.36 Edg/136.0.0.0",WebKit,Edge,136.0.0.0,Windows,10,https://5puzkbbxv1.cognition.run/?sona_id=51461,"en-US,en;q=0.9",2f0ufhjo28l9lzu,21,"[""Black or African-American""]",No,Female,NA,I'm not sure,481409.3000000119,NA,null,<p></p>,null,choice,tdc,trinary,repulsion_A,1,washing machines,null,null,null,null,null,null,1,NA,NA,NA,NA,NA,NA,NA,NA,NA,NA
NA,NA,NA,NA,NA,choice_trial,survey-html-form,67,332784,0.0-4.0-1.31,360,1,2025-05-09T15:52:00Z,b60275e29fe2361ab97ac0ac217840d7,"Mozilla/5.0 (Windows NT 10.0; Win64; x64) AppleWebKit/537.36 (KHTML, like Gecko) Chrome/136.0.0.0 Safari/537.36 Edg/136.0.0.0",WebKit,Edge,136.0.0.0,Windows,10,https://5puzkbbxv1.cognition.run/?sona_id=51461,"en-US,en;q=0.9",2f0ufhjo28l9lzu,21,"[""Black or African-American""]",No,Female,NA,I'm not sure,481409.3000000119,NA,2059,NA,"{""product_choice"":""C""}",choice,tdc,trinary,repulsion_A,1,washing machines,null,null,null,null,null,null,1,100,90,100,30,40,20,Average lifespan,Energy savings,NA,NA
NA,NA,NA,NA,NA,choice_trial_setup,html-keyboard-response,68,333097,0.0-4.0-0.32,360,1,2025-05-09T15:52:00Z,b60275e29fe2361ab97ac0ac217840d7,"Mozilla/5.0 (Windows NT 10.0; Win64; x64) AppleWebKit/537.36 (KHTML, like Gecko) Chrome/136.0.0.0 Safari/537.36 Edg/136.0.0.0",WebKit,Edge,136.0.0.0,Windows,10,https://5puzkbbxv1.cognition.run/?sona_id=51461,"en-US,en;q=0.9",2f0ufhjo28l9lzu,21,"[""Black or African-American""]",No,Female,NA,I'm not sure,481409.3000000119,NA,null,<p></p>,null,choice,tc,binary,repulsion,1,laptops,null,null,null,null,null,null,1,NA,NA,NA,NA,NA,NA,NA,NA,NA,NA
NA,NA,NA,NA,NA,choice_trial,survey-html-form,69,335342,0.0-4.0-1.32,360,1,2025-05-09T15:52:00Z,b60275e29fe2361ab97ac0ac217840d7,"Mozilla/5.0 (Windows NT 10.0; Win64; x64) AppleWebKit/537.36 (KHTML, like Gecko) Chrome/136.0.0.0 Safari/537.36 Edg/136.0.0.0",WebKit,Edge,136.0.0.0,Windows,10,https://5puzkbbxv1.cognition.run/?sona_id=51461,"en-US,en;q=0.9",2f0ufhjo28l9lzu,21,"[""Black or African-American""]",No,Female,NA,I'm not sure,481409.3000000119,NA,2241,NA,"{""product_choice"":""B""}",choice,tc,binary,repulsion,1,laptops,null,null,null,null,null,null,1,100,90,null,30,40,null,Processing speed,Memory (RAM),NA,NA
NA,NA,NA,NA,NA,choice_trial_setup,html-keyboard-response,70,335653,0.0-4.0-0.33,360,1,2025-05-09T15:52:00Z,b60275e29fe2361ab97ac0ac217840d7,"Mozilla/5.0 (Windows NT 10.0; Win64; x64) AppleWebKit/537.36 (KHTML, like Gecko) Chrome/136.0.0.0 Safari/537.36 Edg/136.0.0.0",WebKit,Edge,136.0.0.0,Windows,10,https://5puzkbbxv1.cognition.run/?sona_id=51461,"en-US,en;q=0.9",2f0ufhjo28l9lzu,21,"[""Black or African-American""]",No,Female,NA,I'm not sure,481409.3000000119,NA,null,<p></p>,null,choice,wbw,trinary,catch,null,microwave ovens,85,95,50,5,15,45,2,NA,NA,NA,NA,NA,NA,NA,NA,NA,NA
NA,NA,NA,NA,NA,choice_trial,survey-html-form,71,337531,0.0-4.0-1.33,360,1,2025-05-09T15:52:00Z,b60275e29fe2361ab97ac0ac217840d7,"Mozilla/5.0 (Windows NT 10.0; Win64; x64) AppleWebKit/537.36 (KHTML, like Gecko) Chrome/136.0.0.0 Safari/537.36 Edg/136.0.0.0",WebKit,Edge,136.0.0.0,Windows,10,https://5puzkbbxv1.cognition.run/?sona_id=51461,"en-US,en;q=0.9",2f0ufhjo28l9lzu,21,"[""Black or African-American""]",No,Female,NA,I'm not sure,481409.3000000119,NA,1874,NA,"{""product_choice"":""B""}",choice,wbw,trinary,catch,null,microwave ovens,85,95,50,5,15,45,2,null,null,null,null,null,null,Warranty,Cooking power,NA,NA
NA,NA,NA,NA,NA,choice_trial_setup,html-keyboard-response,72,337841,0.0-4.0-0.34,360,1,2025-05-09T15:52:00Z,b60275e29fe2361ab97ac0ac217840d7,"Mozilla/5.0 (Windows NT 10.0; Win64; x64) AppleWebKit/537.36 (KHTML, like Gecko) Chrome/136.0.0.0 Safari/537.36 Edg/136.0.0.0",WebKit,Edge,136.0.0.0,Windows,10,https://5puzkbbxv1.cognition.run/?sona_id=51461,"en-US,en;q=0.9",2f0ufhjo28l9lzu,21,"[""Black or African-American""]",No,Female,NA,I'm not sure,481409.3000000119,NA,null,<p></p>,null,choice,tcd,trinary,repulsion_A,1,televisions,null,null,null,null,null,null,2,NA,NA,NA,NA,NA,NA,NA,NA,NA,NA
NA,NA,NA,NA,NA,choice_trial,survey-html-form,73,340725,0.0-4.0-1.34,360,1,2025-05-09T15:52:00Z,b60275e29fe2361ab97ac0ac217840d7,"Mozilla/5.0 (Windows NT 10.0; Win64; x64) AppleWebKit/537.36 (KHTML, like Gecko) Chrome/136.0.0.0 Safari/537.36 Edg/136.0.0.0",WebKit,Edge,136.0.0.0,Windows,10,https://5puzkbbxv1.cognition.run/?sona_id=51461,"en-US,en;q=0.9",2f0ufhjo28l9lzu,21,"[""Black or African-American""]",No,Female,NA,I'm not sure,481409.3000000119,NA,2879,NA,"{""product_choice"":""B""}",choice,tcd,trinary,repulsion_A,1,televisions,null,null,null,null,null,null,2,100,90,100,30,40,20,Screen size,Average lifespan,NA,NA
NA,NA,NA,NA,NA,choice_trial_setup,html-keyboard-response,74,341029,0.0-4.0-0.35,360,1,2025-05-09T15:52:00Z,b60275e29fe2361ab97ac0ac217840d7,"Mozilla/5.0 (Windows NT 10.0; Win64; x64) AppleWebKit/537.36 (KHTML, like Gecko) Chrome/136.0.0.0 Safari/537.36 Edg/136.0.0.0",WebKit,Edge,136.0.0.0,Windows,10,https://5puzkbbxv1.cognition.run/?sona_id=51461,"en-US,en;q=0.9",2f0ufhjo28l9lzu,21,"[""Black or African-American""]",No,Female,NA,I'm not sure,481409.3000000119,NA,null,<p></p>,null,choice,ctd,trinary,repulsion_B,2,microwave ovens,null,null,null,null,null,null,2,NA,NA,NA,NA,NA,NA,NA,NA,NA,NA
NA,NA,NA,NA,NA,choice_trial,survey-html-form,75,343293,0.0-4.0-1.35,360,1,2025-05-09T15:52:00Z,b60275e29fe2361ab97ac0ac217840d7,"Mozilla/5.0 (Windows NT 10.0; Win64; x64) AppleWebKit/537.36 (KHTML, like Gecko) Chrome/136.0.0.0 Safari/537.36 Edg/136.0.0.0",WebKit,Edge,136.0.0.0,Windows,10,https://5puzkbbxv1.cognition.run/?sona_id=51461,"en-US,en;q=0.9",2f0ufhjo28l9lzu,21,"[""Black or African-American""]",No,Female,NA,I'm not sure,481409.3000000119,NA,2260,NA,"{""product_choice"":""B""}",choice,ctd,trinary,repulsion_B,2,microwave ovens,null,null,null,null,null,null,2,40,30,40,90,100,80,Warranty,Cooking power,NA,NA
NA,NA,NA,NA,NA,choice_trial_setup,html-keyboard-response,76,343600,0.0-4.0-0.36,360,1,2025-05-09T15:52:00Z,b60275e29fe2361ab97ac0ac217840d7,"Mozilla/5.0 (Windows NT 10.0; Win64; x64) AppleWebKit/537.36 (KHTML, like Gecko) Chrome/136.0.0.0 Safari/537.36 Edg/136.0.0.0",WebKit,Edge,136.0.0.0,Windows,10,https://5puzkbbxv1.cognition.run/?sona_id=51461,"en-US,en;q=0.9",2f0ufhjo28l9lzu,21,"[""Black or African-American""]",No,Female,NA,I'm not sure,481409.3000000119,NA,null,<p></p>,null,choice,dct,trinary,attraction,2,washing machines,null,null,null,null,null,null,2,NA,NA,NA,NA,NA,NA,NA,NA,NA,NA
NA,NA,NA,NA,NA,choice_trial,survey-html-form,77,348171,0.0-4.0-1.36,360,1,2025-05-09T15:52:00Z,b60275e29fe2361ab97ac0ac217840d7,"Mozilla/5.0 (Windows NT 10.0; Win64; x64) AppleWebKit/537.36 (KHTML, like Gecko) Chrome/136.0.0.0 Safari/537.36 Edg/136.0.0.0",WebKit,Edge,136.0.0.0,Windows,10,https://5puzkbbxv1.cognition.run/?sona_id=51461,"en-US,en;q=0.9",2f0ufhjo28l9lzu,21,"[""Black or African-American""]",No,Female,NA,I'm not sure,481409.3000000119,NA,4568,NA,"{""product_choice"":""C""}",choice,dct,trinary,attraction,2,washing machines,null,null,null,null,null,null,2,50,60,40,60,50,60,Average lifespan,Energy savings,NA,NA
NA,NA,NA,NA,NA,choice_trial_setup,html-keyboard-response,78,348478,0.0-4.0-0.37,360,1,2025-05-09T15:52:00Z,b60275e29fe2361ab97ac0ac217840d7,"Mozilla/5.0 (Windows NT 10.0; Win64; x64) AppleWebKit/537.36 (KHTML, like Gecko) Chrome/136.0.0.0 Safari/537.36 Edg/136.0.0.0",WebKit,Edge,136.0.0.0,Windows,10,https://5puzkbbxv1.cognition.run/?sona_id=51461,"en-US,en;q=0.9",2f0ufhjo28l9lzu,21,"[""Black or African-American""]",No,Female,NA,I'm not sure,481409.3000000119,NA,null,<p></p>,null,choice,ct,binary,repulsion,2,washing machines,null,null,null,null,null,null,2,NA,NA,NA,NA,NA,NA,NA,NA,NA,NA
NA,NA,NA,NA,NA,choice_trial,survey-html-form,79,350863,0.0-4.0-1.37,360,1,2025-05-09T15:52:00Z,b60275e29fe2361ab97ac0ac217840d7,"Mozilla/5.0 (Windows NT 10.0; Win64; x64) AppleWebKit/537.36 (KHTML, like Gecko) Chrome/136.0.0.0 Safari/537.36 Edg/136.0.0.0",WebKit,Edge,136.0.0.0,Windows,10,https://5puzkbbxv1.cognition.run/?sona_id=51461,"en-US,en;q=0.9",2f0ufhjo28l9lzu,21,"[""Black or African-American""]",No,Female,NA,I'm not sure,481409.3000000119,NA,2379,NA,"{""product_choice"":""A""}",choice,ct,binary,repulsion,2,washing machines,null,null,null,null,null,null,2,30,40,null,100,90,null,Average lifespan,Energy savings,NA,NA
NA,NA,NA,NA,NA,choice_trial_setup,html-keyboard-response,80,351174,0.0-4.0-0.38,360,1,2025-05-09T15:52:00Z,b60275e29fe2361ab97ac0ac217840d7,"Mozilla/5.0 (Windows NT 10.0; Win64; x64) AppleWebKit/537.36 (KHTML, like Gecko) Chrome/136.0.0.0 Safari/537.36 Edg/136.0.0.0",WebKit,Edge,136.0.0.0,Windows,10,https://5puzkbbxv1.cognition.run/?sona_id=51461,"en-US,en;q=0.9",2f0ufhjo28l9lzu,21,"[""Black or African-American""]",No,Female,NA,I'm not sure,481409.3000000119,NA,null,<p></p>,null,choice,tcd,trinary,repulsion_B,1,microwave ovens,null,null,null,null,null,null,1,NA,NA,NA,NA,NA,NA,NA,NA,NA,NA
NA,NA,NA,NA,NA,choice_trial,survey-html-form,81,354462,0.0-4.0-1.38,360,1,2025-05-09T15:52:00Z,b60275e29fe2361ab97ac0ac217840d7,"Mozilla/5.0 (Windows NT 10.0; Win64; x64) AppleWebKit/537.36 (KHTML, like Gecko) Chrome/136.0.0.0 Safari/537.36 Edg/136.0.0.0",WebKit,Edge,136.0.0.0,Windows,10,https://5puzkbbxv1.cognition.run/?sona_id=51461,"en-US,en;q=0.9",2f0ufhjo28l9lzu,21,"[""Black or African-American""]",No,Female,NA,I'm not sure,481409.3000000119,NA,3280,NA,"{""product_choice"":""A""}",choice,tcd,trinary,repulsion_B,1,microwave ovens,null,null,null,null,null,null,1,90,100,80,40,30,40,Warranty,Cooking power,NA,NA
NA,NA,NA,NA,NA,choice_trial_setup,html-keyboard-response,82,354774,0.0-4.0-0.39,360,1,2025-05-09T15:52:00Z,b60275e29fe2361ab97ac0ac217840d7,"Mozilla/5.0 (Windows NT 10.0; Win64; x64) AppleWebKit/537.36 (KHTML, like Gecko) Chrome/136.0.0.0 Safari/537.36 Edg/136.0.0.0",WebKit,Edge,136.0.0.0,Windows,10,https://5puzkbbxv1.cognition.run/?sona_id=51461,"en-US,en;q=0.9",2f0ufhjo28l9lzu,21,"[""Black or African-American""]",No,Female,NA,I'm not sure,481409.3000000119,NA,null,<p></p>,null,choice,wb,binary,catch,null,televisions,65,80,50,50,null,null,1,NA,NA,NA,NA,NA,NA,NA,NA,NA,NA
NA,NA,NA,NA,NA,choice_trial,survey-html-form,83,357245,0.0-4.0-1.39,360,1,2025-05-09T15:52:00Z,b60275e29fe2361ab97ac0ac217840d7,"Mozilla/5.0 (Windows NT 10.0; Win64; x64) AppleWebKit/537.36 (KHTML, like Gecko) Chrome/136.0.0.0 Safari/537.36 Edg/136.0.0.0",WebKit,Edge,136.0.0.0,Windows,10,https://5puzkbbxv1.cognition.run/?sona_id=51461,"en-US,en;q=0.9",2f0ufhjo28l9lzu,21,"[""Black or African-American""]",No,Female,NA,I'm not sure,481409.3000000119,NA,2467,NA,"{""product_choice"":""B""}",choice,wb,binary,catch,null,televisions,65,80,50,50,null,null,1,null,null,null,null,null,null,Screen size,Average lifespan,NA,NA
NA,NA,NA,NA,NA,choice_trial_setup,html-keyboard-response,84,357548,0.0-4.0-0.40,360,1,2025-05-09T15:52:00Z,b60275e29fe2361ab97ac0ac217840d7,"Mozilla/5.0 (Windows NT 10.0; Win64; x64) AppleWebKit/537.36 (KHTML, like Gecko) Chrome/136.0.0.0 Safari/537.36 Edg/136.0.0.0",WebKit,Edge,136.0.0.0,Windows,10,https://5puzkbbxv1.cognition.run/?sona_id=51461,"en-US,en;q=0.9",2f0ufhjo28l9lzu,21,"[""Black or African-American""]",No,Female,NA,I'm not sure,481409.3000000119,NA,null,<p></p>,null,choice,tc,binary,attraction,NA,microwave ovens,null,null,null,null,null,null,1,NA,NA,NA,NA,NA,NA,NA,NA,NA,NA
NA,NA,NA,NA,NA,choice_trial,survey-html-form,85,362492,0.0-4.0-1.40,360,1,2025-05-09T15:52:00Z,b60275e29fe2361ab97ac0ac217840d7,"Mozilla/5.0 (Windows NT 10.0; Win64; x64) AppleWebKit/537.36 (KHTML, like Gecko) Chrome/136.0.0.0 Safari/537.36 Edg/136.0.0.0",WebKit,Edge,136.0.0.0,Windows,10,https://5puzkbbxv1.cognition.run/?sona_id=51461,"en-US,en;q=0.9",2f0ufhjo28l9lzu,21,"[""Black or African-American""]",No,Female,NA,I'm not sure,481409.3000000119,NA,4940,NA,"{""product_choice"":""B""}",choice,tc,binary,attraction,NA,microwave ovens,null,null,null,null,null,null,1,60,50,null,50,60,null,Warranty,Cooking power,NA,NA
NA,NA,NA,NA,NA,choice_trial_setup,html-keyboard-response,86,362802,0.0-4.0-0.41,360,1,2025-05-09T15:52:00Z,b60275e29fe2361ab97ac0ac217840d7,"Mozilla/5.0 (Windows NT 10.0; Win64; x64) AppleWebKit/537.36 (KHTML, like Gecko) Chrome/136.0.0.0 Safari/537.36 Edg/136.0.0.0",WebKit,Edge,136.0.0.0,Windows,10,https://5puzkbbxv1.cognition.run/?sona_id=51461,"en-US,en;q=0.9",2f0ufhjo28l9lzu,21,"[""Black or African-American""]",No,Female,NA,I'm not sure,481409.3000000119,NA,null,<p></p>,null,choice,tc,binary,repulsion,1,televisions,null,null,null,null,null,null,1,NA,NA,NA,NA,NA,NA,NA,NA,NA,NA
NA,NA,NA,NA,NA,choice_trial,survey-html-form,87,367268,0.0-4.0-1.41,360,1,2025-05-09T15:52:00Z,b60275e29fe2361ab97ac0ac217840d7,"Mozilla/5.0 (Windows NT 10.0; Win64; x64) AppleWebKit/537.36 (KHTML, like Gecko) Chrome/136.0.0.0 Safari/537.36 Edg/136.0.0.0",WebKit,Edge,136.0.0.0,Windows,10,https://5puzkbbxv1.cognition.run/?sona_id=51461,"en-US,en;q=0.9",2f0ufhjo28l9lzu,21,"[""Black or African-American""]",No,Female,NA,I'm not sure,481409.3000000119,NA,4460,NA,"{""product_choice"":""B""}",choice,tc,binary,repulsion,1,televisions,null,null,null,null,null,null,1,100,90,null,30,40,null,Screen size,Average lifespan,NA,NA
NA,NA,NA,NA,NA,choice_trial_setup,html-keyboard-response,88,367585,0.0-4.0-0.42,360,1,2025-05-09T15:52:00Z,b60275e29fe2361ab97ac0ac217840d7,"Mozilla/5.0 (Windows NT 10.0; Win64; x64) AppleWebKit/537.36 (KHTML, like Gecko) Chrome/136.0.0.0 Safari/537.36 Edg/136.0.0.0",WebKit,Edge,136.0.0.0,Windows,10,https://5puzkbbxv1.cognition.run/?sona_id=51461,"en-US,en;q=0.9",2f0ufhjo28l9lzu,21,"[""Black or African-American""]",No,Female,NA,I'm not sure,481409.3000000119,NA,null,<p></p>,null,choice,ctd,trinary,repulsion_B,2,televisions,null,null,null,null,null,null,1,NA,NA,NA,NA,NA,NA,NA,NA,NA,NA
NA,NA,NA,NA,NA,choice_trial,survey-html-form,89,374192,0.0-4.0-1.42,360,1,2025-05-09T15:52:00Z,b60275e29fe2361ab97ac0ac217840d7,"Mozilla/5.0 (Windows NT 10.0; Win64; x64) AppleWebKit/537.36 (KHTML, like Gecko) Chrome/136.0.0.0 Safari/537.36 Edg/136.0.0.0",WebKit,Edge,136.0.0.0,Windows,10,https://5puzkbbxv1.cognition.run/?sona_id=51461,"en-US,en;q=0.9",2f0ufhjo28l9lzu,21,"[""Black or African-American""]",No,Female,NA,I'm not sure,481409.3000000119,NA,6602,NA,"{""product_choice"":""B""}",choice,ctd,trinary,repulsion_B,2,televisions,null,null,null,null,null,null,1,40,30,40,90,100,80,Screen size,Average lifespan,NA,NA
NA,NA,NA,NA,NA,choice_trial_setup,html-keyboard-response,90,374513,0.0-4.0-0.43,360,1,2025-05-09T15:52:00Z,b60275e29fe2361ab97ac0ac217840d7,"Mozilla/5.0 (Windows NT 10.0; Win64; x64) AppleWebKit/537.36 (KHTML, like Gecko) Chrome/136.0.0.0 Safari/537.36 Edg/136.0.0.0",WebKit,Edge,136.0.0.0,Windows,10,https://5puzkbbxv1.cognition.run/?sona_id=51461,"en-US,en;q=0.9",2f0ufhjo28l9lzu,21,"[""Black or African-American""]",No,Female,NA,I'm not sure,481409.3000000119,NA,null,<p></p>,null,choice,ct,binary,attraction,NA,washing machines,null,null,null,null,null,null,2,NA,NA,NA,NA,NA,NA,NA,NA,NA,NA
NA,NA,NA,NA,NA,choice_trial,survey-html-form,91,379056,0.0-4.0-1.43,360,1,2025-05-09T15:52:00Z,b60275e29fe2361ab97ac0ac217840d7,"Mozilla/5.0 (Windows NT 10.0; Win64; x64) AppleWebKit/537.36 (KHTML, like Gecko) Chrome/136.0.0.0 Safari/537.36 Edg/136.0.0.0",WebKit,Edge,136.0.0.0,Windows,10,https://5puzkbbxv1.cognition.run/?sona_id=51461,"en-US,en;q=0.9",2f0ufhjo28l9lzu,21,"[""Black or African-American""]",No,Female,NA,I'm not sure,481409.3000000119,NA,4536,NA,"{""product_choice"":""A""}",choice,ct,binary,attraction,NA,washing machines,null,null,null,null,null,null,2,60,50,null,50,60,null,Average lifespan,Energy savings,NA,NA
NA,NA,NA,NA,NA,post_trials_message,html-button-response,92,382178,0.0-5.0,360,1,2025-05-09T15:52:00Z,b60275e29fe2361ab97ac0ac217840d7,"Mozilla/5.0 (Windows NT 10.0; Win64; x64) AppleWebKit/537.36 (KHTML, like Gecko) Chrome/136.0.0.0 Safari/537.36 Edg/136.0.0.0",WebKit,Edge,136.0.0.0,Windows,10,https://5puzkbbxv1.cognition.run/?sona_id=51461,"en-US,en;q=0.9",2f0ufhjo28l9lzu,21,"[""Black or African-American""]",No,Female,NA,I'm not sure,481409.3000000119,NA,3115,<p> <b>Thank you for your patience!</b></p><p>  The study will be done after completing a brief form. </p>,0,NA,NA,NA,NA,NA,NA,NA,NA,NA,NA,NA,NA,NA,NA,NA,NA,NA,NA,NA,NA,NA,NA,NA
NA,NA,NA,NA,NA,survey_message,survey-text,93,441942,0.0-6.0,360,1,2025-05-09T15:52:00Z,b60275e29fe2361ab97ac0ac217840d7,"Mozilla/5.0 (Windows NT 10.0; Win64; x64) AppleWebKit/537.36 (KHTML, like Gecko) Chrome/136.0.0.0 Safari/537.36 Edg/136.0.0.0",WebKit,Edge,136.0.0.0,Windows,10,https://5puzkbbxv1.cognition.run/?sona_id=51461,"en-US,en;q=0.9",2f0ufhjo28l9lzu,21,"[""Black or African-American""]",No,Female,NA,I'm not sure,481409.3000000119,NA,59756,NA,"{""Q0"":""I want the best for my product, I won't mind taking points from \""speed\"" if the life span is better.""}",NA,NA,NA,NA,NA,NA,NA,NA,NA,NA,NA,NA,NA,NA,NA,NA,NA,NA,NA,NA,NA,"I want the best for my product, I won't mind taking points from ""speed"" if the life span is better.",NA
NA,NA,NA,NA,NA,demo_age,survey-text,94,444164,0.0-7.0,360,1,2025-05-09T15:52:00Z,b60275e29fe2361ab97ac0ac217840d7,"Mozilla/5.0 (Windows NT 10.0; Win64; x64) AppleWebKit/537.36 (KHTML, like Gecko) Chrome/136.0.0.0 Safari/537.36 Edg/136.0.0.0",WebKit,Edge,136.0.0.0,Windows,10,https://5puzkbbxv1.cognition.run/?sona_id=51461,"en-US,en;q=0.9",2f0ufhjo28l9lzu,21,"[""Black or African-American""]",No,Female,NA,I'm not sure,481409.3000000119,NA,2210,NA,"{""Q0"":""21""}",NA,NA,NA,NA,NA,NA,NA,NA,NA,NA,NA,NA,NA,NA,NA,NA,NA,NA,NA,NA,NA,NA,NA
NA,NA,NA,NA,NA,demo_race,survey-multi-select,95,445554,0.0-8.0,360,1,2025-05-09T15:52:00Z,b60275e29fe2361ab97ac0ac217840d7,"Mozilla/5.0 (Windows NT 10.0; Win64; x64) AppleWebKit/537.36 (KHTML, like Gecko) Chrome/136.0.0.0 Safari/537.36 Edg/136.0.0.0",WebKit,Edge,136.0.0.0,Windows,10,https://5puzkbbxv1.cognition.run/?sona_id=51461,"en-US,en;q=0.9",2f0ufhjo28l9lzu,21,"[""Black or African-American""]",No,Female,NA,I'm not sure,481409.3000000119,NA,1382,NA,"{""Q0"":[""Black or African-American""]}",NA,NA,NA,NA,NA,NA,NA,NA,NA,NA,NA,NA,NA,NA,NA,NA,NA,NA,NA,NA,NA,NA,[0]
NA,NA,NA,NA,NA,demo_ethnicity_gender,survey-multi-choice,96,448813,0.0-9.0,360,1,2025-05-09T15:52:00Z,b60275e29fe2361ab97ac0ac217840d7,"Mozilla/5.0 (Windows NT 10.0; Win64; x64) AppleWebKit/537.36 (KHTML, like Gecko) Chrome/136.0.0.0 Safari/537.36 Edg/136.0.0.0",WebKit,Edge,136.0.0.0,Windows,10,https://5puzkbbxv1.cognition.run/?sona_id=51461,"en-US,en;q=0.9",2f0ufhjo28l9lzu,21,"[""Black or African-American""]",No,Female,NA,I'm not sure,481409.3000000119,NA,3251,NA,"{""Q0"":""No"",""Q1"":""Female""}",NA,NA,NA,NA,NA,NA,NA,NA,NA,NA,NA,NA,NA,NA,NA,NA,NA,NA,NA,NA,NA,NA,"[0,1]"
NA,NA,NA,NA,NA,demo_countries,survey-text,97,455665,0.0-10.0,360,1,2025-05-09T15:52:00Z,b60275e29fe2361ab97ac0ac217840d7,"Mozilla/5.0 (Windows NT 10.0; Win64; x64) AppleWebKit/537.36 (KHTML, like Gecko) Chrome/136.0.0.0 Safari/537.36 Edg/136.0.0.0",WebKit,Edge,136.0.0.0,Windows,10,https://5puzkbbxv1.cognition.run/?sona_id=51461,"en-US,en;q=0.9",2f0ufhjo28l9lzu,21,"[""Black or African-American""]",No,Female,NA,I'm not sure,481409.3000000119,NA,6833,NA,"{""Q0"":""NA""}",NA,NA,NA,NA,NA,NA,NA,NA,NA,NA,NA,NA,NA,NA,NA,NA,NA,NA,NA,NA,NA,NA,NA
NA,NA,NA,NA,NA,demo_prev_study,survey-multi-choice,98,464525,0.0-11.0,360,1,2025-05-09T15:52:00Z,b60275e29fe2361ab97ac0ac217840d7,"Mozilla/5.0 (Windows NT 10.0; Win64; x64) AppleWebKit/537.36 (KHTML, like Gecko) Chrome/136.0.0.0 Safari/537.36 Edg/136.0.0.0",WebKit,Edge,136.0.0.0,Windows,10,https://5puzkbbxv1.cognition.run/?sona_id=51461,"en-US,en;q=0.9",2f0ufhjo28l9lzu,21,"[""Black or African-American""]",No,Female,NA,I'm not sure,481409.3000000119,NA,8852,NA,"{""Q0"":""I'm not sure""}",NA,NA,NA,NA,NA,NA,NA,NA,NA,NA,NA,NA,NA,NA,NA,NA,NA,NA,NA,NA,NA,NA,[0]
NA,NA,NA,NA,NA,post_survey_message,html-keyboard-response,99,472529,0.0-12.0,360,1,2025-05-09T15:52:00Z,b60275e29fe2361ab97ac0ac217840d7,"Mozilla/5.0 (Windows NT 10.0; Win64; x64) AppleWebKit/537.36 (KHTML, like Gecko) Chrome/136.0.0.0 Safari/537.36 Edg/136.0.0.0",WebKit,Edge,136.0.0.0,Windows,10,https://5puzkbbxv1.cognition.run/?sona_id=51461,"en-US,en;q=0.9",2f0ufhjo28l9lzu,21,"[""Black or African-American""]",No,Female,NA,I'm not sure,481409.3000000119,NA,7999,NA,j,NA,NA,NA,NA,NA,NA,NA,NA,NA,NA,NA,NA,NA,NA,NA,NA,NA,NA,NA,NA,NA,NA,NA
NA,NA,NA,NA,NA,debrief,image-keyboard-response,100,481408,0.0-13.0,360,1,2025-05-09T15:52:00Z,b60275e29fe2361ab97ac0ac217840d7,"Mozilla/5.0 (Windows NT 10.0; Win64; x64) AppleWebKit/537.36 (KHTML, like Gecko) Chrome/136.0.0.0 Safari/537.36 Edg/136.0.0.0",WebKit,Edge,136.0.0.0,Windows,10,https://5puzkbbxv1.cognition.run/?sona_id=51461,"en-US,en;q=0.9",2f0ufhjo28l9lzu,21,"[""Black or African-American""]",No,Female,NA,I'm not sure,481409.3000000119,NA,8875,Judg_choice_debrief.png,p,NA,NA,NA,NA,NA,NA,NA,NA,NA,NA,NA,NA,NA,NA,NA,NA,NA,NA,NA,NA,NA,NA,NA
