success,timeout,failed_images,failed_audio,failed_video,screen_id,trial_type,trial_index,time_elapsed,internal_node_id,run_id,condition,recorded_at,source_code_version,user_agent,device,browser,browser_version,platform,platform_version,referer,accept_language,ppt_id,age,race,ethnicity,gender,other_countries,prev_study,exp_duration,view_history,rt,stimulus,response,phase,order,set,effect,t_high,category,d1_best,d2_best,d1_worst1,d2_worst1,d1_worst2,d2_worst2,first_dim,d1_t,d1_c,d1_d,d2_t,d2_c,d2_d,d1_name,d2_name,strategy_response,question_order
TRUE,FALSE,[],[],[],img preload,preload,0,917,0.0-0.0,43,1,2025-04-28T16:42:55Z,b60275e29fe2361ab97ac0ac217840d7,"Mozilla/5.0 (Windows NT 10.0; Win64; x64) AppleWebKit/537.36 (KHTML, like Gecko) Chrome/135.0.0.0 Safari/537.36 Edg/135.0.0.0",WebKit,Edge,135.0.0.0,Windows,10,https://5puzkbbxv1.cognition.run/?sona_id=56193,"en-US,en;q=0.9",gqrv4hkxlwv1buf,19,"[""White""]",No,Female,NA,No,999937.7000000476,NA,NA,NA,NA,NA,NA,NA,NA,NA,NA,NA,NA,NA,NA,NA,NA,NA,NA,NA,NA,NA,NA,NA,NA,NA,NA,NA
NA,NA,NA,NA,NA,computer_message,instructions,1,653505,0.0-1.0,43,1,2025-04-28T16:42:55Z,b60275e29fe2361ab97ac0ac217840d7,"Mozilla/5.0 (Windows NT 10.0; Win64; x64) AppleWebKit/537.36 (KHTML, like Gecko) Chrome/135.0.0.0 Safari/537.36 Edg/135.0.0.0",WebKit,Edge,135.0.0.0,Windows,10,https://5puzkbbxv1.cognition.run/?sona_id=56193,"en-US,en;q=0.9",gqrv4hkxlwv1buf,19,"[""White""]",No,Female,NA,No,999937.7000000476,"[{""page_index"":0,""viewing_time"":652585}]",652586,NA,NA,NA,NA,NA,NA,NA,NA,NA,NA,NA,NA,NA,NA,NA,NA,NA,NA,NA,NA,NA,NA,NA,NA,NA
TRUE,NA,NA,NA,NA,NA,fullscreen,2,656997,0.0-2.0,43,1,2025-04-28T16:42:55Z,b60275e29fe2361ab97ac0ac217840d7,"Mozilla/5.0 (Windows NT 10.0; Win64; x64) AppleWebKit/537.36 (KHTML, like Gecko) Chrome/135.0.0.0 Safari/537.36 Edg/135.0.0.0",WebKit,Edge,135.0.0.0,Windows,10,https://5puzkbbxv1.cognition.run/?sona_id=56193,"en-US,en;q=0.9",gqrv4hkxlwv1buf,19,"[""White""]",No,Female,NA,No,999937.7000000476,NA,2471,NA,NA,NA,NA,NA,NA,NA,NA,NA,NA,NA,NA,NA,NA,NA,NA,NA,NA,NA,NA,NA,NA,NA,NA,NA
NA,NA,NA,NA,NA,choice_instructions,instructions,3,697065,0.0-3.0,43,1,2025-04-28T16:42:55Z,b60275e29fe2361ab97ac0ac217840d7,"Mozilla/5.0 (Windows NT 10.0; Win64; x64) AppleWebKit/537.36 (KHTML, like Gecko) Chrome/135.0.0.0 Safari/537.36 Edg/135.0.0.0",WebKit,Edge,135.0.0.0,Windows,10,https://5puzkbbxv1.cognition.run/?sona_id=56193,"en-US,en;q=0.9",gqrv4hkxlwv1buf,19,"[""White""]",No,Female,NA,No,999937.7000000476,"[{""page_index"":0,""viewing_time"":1871},{""page_index"":1,""viewing_time"":5536},{""page_index"":2,""viewing_time"":1778},{""page_index"":3,""viewing_time"":4042},{""page_index"":4,""viewing_time"":1244},{""page_index"":5,""viewing_time"":23662},{""page_index"":6,""viewing_time"":1933}]",40066,NA,NA,NA,NA,NA,NA,NA,NA,NA,NA,NA,NA,NA,NA,NA,NA,NA,NA,NA,NA,NA,NA,NA,NA,NA
NA,NA,NA,NA,NA,choice_trial_setup,html-keyboard-response,4,697378,0.0-4.0-0.0,43,1,2025-04-28T16:42:55Z,b60275e29fe2361ab97ac0ac217840d7,"Mozilla/5.0 (Windows NT 10.0; Win64; x64) AppleWebKit/537.36 (KHTML, like Gecko) Chrome/135.0.0.0 Safari/537.36 Edg/135.0.0.0",WebKit,Edge,135.0.0.0,Windows,10,https://5puzkbbxv1.cognition.run/?sona_id=56193,"en-US,en;q=0.9",gqrv4hkxlwv1buf,19,"[""White""]",No,Female,NA,No,999937.7000000476,NA,null,<p></p>,null,choice,ctd,trinary,attraction,1,microwave ovens,null,null,null,null,null,null,1,NA,NA,NA,NA,NA,NA,NA,NA,NA,NA
NA,NA,NA,NA,NA,choice_trial,survey-html-form,5,710265,0.0-4.0-1.0,43,1,2025-04-28T16:42:55Z,b60275e29fe2361ab97ac0ac217840d7,"Mozilla/5.0 (Windows NT 10.0; Win64; x64) AppleWebKit/537.36 (KHTML, like Gecko) Chrome/135.0.0.0 Safari/537.36 Edg/135.0.0.0",WebKit,Edge,135.0.0.0,Windows,10,https://5puzkbbxv1.cognition.run/?sona_id=56193,"en-US,en;q=0.9",gqrv4hkxlwv1buf,19,"[""White""]",No,Female,NA,No,999937.7000000476,NA,12883,NA,"{""product_choice"":""B""}",choice,ctd,trinary,attraction,1,microwave ovens,null,null,null,null,null,null,1,60,50,60,50,60,40,Warranty,Cooking power,NA,NA
NA,NA,NA,NA,NA,choice_trial_setup,html-keyboard-response,6,710579,0.0-4.0-0.1,43,1,2025-04-28T16:42:55Z,b60275e29fe2361ab97ac0ac217840d7,"Mozilla/5.0 (Windows NT 10.0; Win64; x64) AppleWebKit/537.36 (KHTML, like Gecko) Chrome/135.0.0.0 Safari/537.36 Edg/135.0.0.0",WebKit,Edge,135.0.0.0,Windows,10,https://5puzkbbxv1.cognition.run/?sona_id=56193,"en-US,en;q=0.9",gqrv4hkxlwv1buf,19,"[""White""]",No,Female,NA,No,999937.7000000476,NA,null,<p></p>,null,choice,tcd,trinary,attraction,2,televisions,null,null,null,null,null,null,2,NA,NA,NA,NA,NA,NA,NA,NA,NA,NA
NA,NA,NA,NA,NA,choice_trial,survey-html-form,7,720537,0.0-4.0-1.1,43,1,2025-04-28T16:42:55Z,b60275e29fe2361ab97ac0ac217840d7,"Mozilla/5.0 (Windows NT 10.0; Win64; x64) AppleWebKit/537.36 (KHTML, like Gecko) Chrome/135.0.0.0 Safari/537.36 Edg/135.0.0.0",WebKit,Edge,135.0.0.0,Windows,10,https://5puzkbbxv1.cognition.run/?sona_id=56193,"en-US,en;q=0.9",gqrv4hkxlwv1buf,19,"[""White""]",No,Female,NA,No,999937.7000000476,NA,9955,NA,"{""product_choice"":""A""}",choice,tcd,trinary,attraction,2,televisions,null,null,null,null,null,null,2,50,60,40,60,50,60,Screen size,Average lifespan,NA,NA
NA,NA,NA,NA,NA,choice_trial_setup,html-keyboard-response,8,720840,0.0-4.0-0.2,43,1,2025-04-28T16:42:55Z,b60275e29fe2361ab97ac0ac217840d7,"Mozilla/5.0 (Windows NT 10.0; Win64; x64) AppleWebKit/537.36 (KHTML, like Gecko) Chrome/135.0.0.0 Safari/537.36 Edg/135.0.0.0",WebKit,Edge,135.0.0.0,Windows,10,https://5puzkbbxv1.cognition.run/?sona_id=56193,"en-US,en;q=0.9",gqrv4hkxlwv1buf,19,"[""White""]",No,Female,NA,No,999937.7000000476,NA,null,<p></p>,null,choice,ctd,trinary,repulsion_A,1,washing machines,null,null,null,null,null,null,1,NA,NA,NA,NA,NA,NA,NA,NA,NA,NA
NA,NA,NA,NA,NA,choice_trial,survey-html-form,9,727994,0.0-4.0-1.2,43,1,2025-04-28T16:42:55Z,b60275e29fe2361ab97ac0ac217840d7,"Mozilla/5.0 (Windows NT 10.0; Win64; x64) AppleWebKit/537.36 (KHTML, like Gecko) Chrome/135.0.0.0 Safari/537.36 Edg/135.0.0.0",WebKit,Edge,135.0.0.0,Windows,10,https://5puzkbbxv1.cognition.run/?sona_id=56193,"en-US,en;q=0.9",gqrv4hkxlwv1buf,19,"[""White""]",No,Female,NA,No,999937.7000000476,NA,7151,NA,"{""product_choice"":""A""}",choice,ctd,trinary,repulsion_A,1,washing machines,null,null,null,null,null,null,1,100,90,100,30,40,20,Average lifespan,Energy savings,NA,NA
NA,NA,NA,NA,NA,choice_trial_setup,html-keyboard-response,10,728312,0.0-4.0-0.3,43,1,2025-04-28T16:42:55Z,b60275e29fe2361ab97ac0ac217840d7,"Mozilla/5.0 (Windows NT 10.0; Win64; x64) AppleWebKit/537.36 (KHTML, like Gecko) Chrome/135.0.0.0 Safari/537.36 Edg/135.0.0.0",WebKit,Edge,135.0.0.0,Windows,10,https://5puzkbbxv1.cognition.run/?sona_id=56193,"en-US,en;q=0.9",gqrv4hkxlwv1buf,19,"[""White""]",No,Female,NA,No,999937.7000000476,NA,null,<p></p>,null,choice,cdt,trinary,attraction,1,televisions,null,null,null,null,null,null,1,NA,NA,NA,NA,NA,NA,NA,NA,NA,NA
NA,NA,NA,NA,NA,choice_trial,survey-html-form,11,733203,0.0-4.0-1.3,43,1,2025-04-28T16:42:55Z,b60275e29fe2361ab97ac0ac217840d7,"Mozilla/5.0 (Windows NT 10.0; Win64; x64) AppleWebKit/537.36 (KHTML, like Gecko) Chrome/135.0.0.0 Safari/537.36 Edg/135.0.0.0",WebKit,Edge,135.0.0.0,Windows,10,https://5puzkbbxv1.cognition.run/?sona_id=56193,"en-US,en;q=0.9",gqrv4hkxlwv1buf,19,"[""White""]",No,Female,NA,No,999937.7000000476,NA,4889,NA,"{""product_choice"":""A""}",choice,cdt,trinary,attraction,1,televisions,null,null,null,null,null,null,1,60,50,60,50,60,40,Screen size,Average lifespan,NA,NA
NA,NA,NA,NA,NA,choice_trial_setup,html-keyboard-response,12,733507,0.0-4.0-0.4,43,1,2025-04-28T16:42:55Z,b60275e29fe2361ab97ac0ac217840d7,"Mozilla/5.0 (Windows NT 10.0; Win64; x64) AppleWebKit/537.36 (KHTML, like Gecko) Chrome/135.0.0.0 Safari/537.36 Edg/135.0.0.0",WebKit,Edge,135.0.0.0,Windows,10,https://5puzkbbxv1.cognition.run/?sona_id=56193,"en-US,en;q=0.9",gqrv4hkxlwv1buf,19,"[""White""]",No,Female,NA,No,999937.7000000476,NA,null,<p></p>,null,choice,tc,binary,attraction,NA,washing machines,null,null,null,null,null,null,1,NA,NA,NA,NA,NA,NA,NA,NA,NA,NA
NA,NA,NA,NA,NA,choice_trial,survey-html-form,13,736077,0.0-4.0-1.4,43,1,2025-04-28T16:42:55Z,b60275e29fe2361ab97ac0ac217840d7,"Mozilla/5.0 (Windows NT 10.0; Win64; x64) AppleWebKit/537.36 (KHTML, like Gecko) Chrome/135.0.0.0 Safari/537.36 Edg/135.0.0.0",WebKit,Edge,135.0.0.0,Windows,10,https://5puzkbbxv1.cognition.run/?sona_id=56193,"en-US,en;q=0.9",gqrv4hkxlwv1buf,19,"[""White""]",No,Female,NA,No,999937.7000000476,NA,2568,NA,"{""product_choice"":""A""}",choice,tc,binary,attraction,NA,washing machines,null,null,null,null,null,null,1,60,50,null,50,60,null,Average lifespan,Energy savings,NA,NA
NA,NA,NA,NA,NA,choice_trial_setup,html-keyboard-response,14,736395,0.0-4.0-0.5,43,1,2025-04-28T16:42:55Z,b60275e29fe2361ab97ac0ac217840d7,"Mozilla/5.0 (Windows NT 10.0; Win64; x64) AppleWebKit/537.36 (KHTML, like Gecko) Chrome/135.0.0.0 Safari/537.36 Edg/135.0.0.0",WebKit,Edge,135.0.0.0,Windows,10,https://5puzkbbxv1.cognition.run/?sona_id=56193,"en-US,en;q=0.9",gqrv4hkxlwv1buf,19,"[""White""]",No,Female,NA,No,999937.7000000476,NA,null,<p></p>,null,choice,cdt,trinary,repulsion_B,2,televisions,null,null,null,null,null,null,2,NA,NA,NA,NA,NA,NA,NA,NA,NA,NA
NA,NA,NA,NA,NA,choice_trial,survey-html-form,15,743618,0.0-4.0-1.5,43,1,2025-04-28T16:42:55Z,b60275e29fe2361ab97ac0ac217840d7,"Mozilla/5.0 (Windows NT 10.0; Win64; x64) AppleWebKit/537.36 (KHTML, like Gecko) Chrome/135.0.0.0 Safari/537.36 Edg/135.0.0.0",WebKit,Edge,135.0.0.0,Windows,10,https://5puzkbbxv1.cognition.run/?sona_id=56193,"en-US,en;q=0.9",gqrv4hkxlwv1buf,19,"[""White""]",No,Female,NA,No,999937.7000000476,NA,7221,NA,"{""product_choice"":""C""}",choice,cdt,trinary,repulsion_B,2,televisions,null,null,null,null,null,null,2,40,30,40,90,100,80,Screen size,Average lifespan,NA,NA
NA,NA,NA,NA,NA,choice_trial_setup,html-keyboard-response,16,743927,0.0-4.0-0.6,43,1,2025-04-28T16:42:55Z,b60275e29fe2361ab97ac0ac217840d7,"Mozilla/5.0 (Windows NT 10.0; Win64; x64) AppleWebKit/537.36 (KHTML, like Gecko) Chrome/135.0.0.0 Safari/537.36 Edg/135.0.0.0",WebKit,Edge,135.0.0.0,Windows,10,https://5puzkbbxv1.cognition.run/?sona_id=56193,"en-US,en;q=0.9",gqrv4hkxlwv1buf,19,"[""White""]",No,Female,NA,No,999937.7000000476,NA,null,<p></p>,null,choice,wb,binary,catch,null,washing machines,65,80,15,5,null,null,2,NA,NA,NA,NA,NA,NA,NA,NA,NA,NA
NA,NA,NA,NA,NA,choice_trial,survey-html-form,17,747704,0.0-4.0-1.6,43,1,2025-04-28T16:42:55Z,b60275e29fe2361ab97ac0ac217840d7,"Mozilla/5.0 (Windows NT 10.0; Win64; x64) AppleWebKit/537.36 (KHTML, like Gecko) Chrome/135.0.0.0 Safari/537.36 Edg/135.0.0.0",WebKit,Edge,135.0.0.0,Windows,10,https://5puzkbbxv1.cognition.run/?sona_id=56193,"en-US,en;q=0.9",gqrv4hkxlwv1buf,19,"[""White""]",No,Female,NA,No,999937.7000000476,NA,3773,NA,"{""product_choice"":""B""}",choice,wb,binary,catch,null,washing machines,65,80,15,5,null,null,2,null,null,null,null,null,null,Average lifespan,Energy savings,NA,NA
NA,NA,NA,NA,NA,choice_trial_setup,html-keyboard-response,18,748013,0.0-4.0-0.7,43,1,2025-04-28T16:42:55Z,b60275e29fe2361ab97ac0ac217840d7,"Mozilla/5.0 (Windows NT 10.0; Win64; x64) AppleWebKit/537.36 (KHTML, like Gecko) Chrome/135.0.0.0 Safari/537.36 Edg/135.0.0.0",WebKit,Edge,135.0.0.0,Windows,10,https://5puzkbbxv1.cognition.run/?sona_id=56193,"en-US,en;q=0.9",gqrv4hkxlwv1buf,19,"[""White""]",No,Female,NA,No,999937.7000000476,NA,null,<p></p>,null,choice,tcd,trinary,repulsion_A,1,televisions,null,null,null,null,null,null,1,NA,NA,NA,NA,NA,NA,NA,NA,NA,NA
NA,NA,NA,NA,NA,choice_trial,survey-html-form,19,754220,0.0-4.0-1.7,43,1,2025-04-28T16:42:55Z,b60275e29fe2361ab97ac0ac217840d7,"Mozilla/5.0 (Windows NT 10.0; Win64; x64) AppleWebKit/537.36 (KHTML, like Gecko) Chrome/135.0.0.0 Safari/537.36 Edg/135.0.0.0",WebKit,Edge,135.0.0.0,Windows,10,https://5puzkbbxv1.cognition.run/?sona_id=56193,"en-US,en;q=0.9",gqrv4hkxlwv1buf,19,"[""White""]",No,Female,NA,No,999937.7000000476,NA,6204,NA,"{""product_choice"":""B""}",choice,tcd,trinary,repulsion_A,1,televisions,null,null,null,null,null,null,1,100,90,100,30,40,20,Screen size,Average lifespan,NA,NA
NA,NA,NA,NA,NA,choice_trial_setup,html-keyboard-response,20,754526,0.0-4.0-0.8,43,1,2025-04-28T16:42:55Z,b60275e29fe2361ab97ac0ac217840d7,"Mozilla/5.0 (Windows NT 10.0; Win64; x64) AppleWebKit/537.36 (KHTML, like Gecko) Chrome/135.0.0.0 Safari/537.36 Edg/135.0.0.0",WebKit,Edge,135.0.0.0,Windows,10,https://5puzkbbxv1.cognition.run/?sona_id=56193,"en-US,en;q=0.9",gqrv4hkxlwv1buf,19,"[""White""]",No,Female,NA,No,999937.7000000476,NA,null,<p></p>,null,choice,wwb,trinary,catch,null,microwave ovens,50,80,30,25,40,20,1,NA,NA,NA,NA,NA,NA,NA,NA,NA,NA
NA,NA,NA,NA,NA,choice_trial,survey-html-form,21,766760,0.0-4.0-1.8,43,1,2025-04-28T16:42:55Z,b60275e29fe2361ab97ac0ac217840d7,"Mozilla/5.0 (Windows NT 10.0; Win64; x64) AppleWebKit/537.36 (KHTML, like Gecko) Chrome/135.0.0.0 Safari/537.36 Edg/135.0.0.0",WebKit,Edge,135.0.0.0,Windows,10,https://5puzkbbxv1.cognition.run/?sona_id=56193,"en-US,en;q=0.9",gqrv4hkxlwv1buf,19,"[""White""]",No,Female,NA,No,999937.7000000476,NA,12230,NA,"{""product_choice"":""C""}",choice,wwb,trinary,catch,null,microwave ovens,50,80,30,25,40,20,1,null,null,null,null,null,null,Warranty,Cooking power,NA,NA
NA,NA,NA,NA,NA,choice_trial_setup,html-keyboard-response,22,767067,0.0-4.0-0.9,43,1,2025-04-28T16:42:55Z,b60275e29fe2361ab97ac0ac217840d7,"Mozilla/5.0 (Windows NT 10.0; Win64; x64) AppleWebKit/537.36 (KHTML, like Gecko) Chrome/135.0.0.0 Safari/537.36 Edg/135.0.0.0",WebKit,Edge,135.0.0.0,Windows,10,https://5puzkbbxv1.cognition.run/?sona_id=56193,"en-US,en;q=0.9",gqrv4hkxlwv1buf,19,"[""White""]",No,Female,NA,No,999937.7000000476,NA,null,<p></p>,null,choice,tcd,trinary,repulsion_B,2,laptops,null,null,null,null,null,null,2,NA,NA,NA,NA,NA,NA,NA,NA,NA,NA
NA,NA,NA,NA,NA,choice_trial,survey-html-form,23,775956,0.0-4.0-1.9,43,1,2025-04-28T16:42:55Z,b60275e29fe2361ab97ac0ac217840d7,"Mozilla/5.0 (Windows NT 10.0; Win64; x64) AppleWebKit/537.36 (KHTML, like Gecko) Chrome/135.0.0.0 Safari/537.36 Edg/135.0.0.0",WebKit,Edge,135.0.0.0,Windows,10,https://5puzkbbxv1.cognition.run/?sona_id=56193,"en-US,en;q=0.9",gqrv4hkxlwv1buf,19,"[""White""]",No,Female,NA,No,999937.7000000476,NA,8886,NA,"{""product_choice"":""A""}",choice,tcd,trinary,repulsion_B,2,laptops,null,null,null,null,null,null,2,40,30,40,90,100,80,Processing speed,Memory (RAM),NA,NA
NA,NA,NA,NA,NA,choice_trial_setup,html-keyboard-response,24,776266,0.0-4.0-0.10,43,1,2025-04-28T16:42:55Z,b60275e29fe2361ab97ac0ac217840d7,"Mozilla/5.0 (Windows NT 10.0; Win64; x64) AppleWebKit/537.36 (KHTML, like Gecko) Chrome/135.0.0.0 Safari/537.36 Edg/135.0.0.0",WebKit,Edge,135.0.0.0,Windows,10,https://5puzkbbxv1.cognition.run/?sona_id=56193,"en-US,en;q=0.9",gqrv4hkxlwv1buf,19,"[""White""]",No,Female,NA,No,999937.7000000476,NA,null,<p></p>,null,choice,tc,binary,attraction,NA,televisions,null,null,null,null,null,null,2,NA,NA,NA,NA,NA,NA,NA,NA,NA,NA
NA,NA,NA,NA,NA,choice_trial,survey-html-form,25,779467,0.0-4.0-1.10,43,1,2025-04-28T16:42:55Z,b60275e29fe2361ab97ac0ac217840d7,"Mozilla/5.0 (Windows NT 10.0; Win64; x64) AppleWebKit/537.36 (KHTML, like Gecko) Chrome/135.0.0.0 Safari/537.36 Edg/135.0.0.0",WebKit,Edge,135.0.0.0,Windows,10,https://5puzkbbxv1.cognition.run/?sona_id=56193,"en-US,en;q=0.9",gqrv4hkxlwv1buf,19,"[""White""]",No,Female,NA,No,999937.7000000476,NA,3198,NA,"{""product_choice"":""B""}",choice,tc,binary,attraction,NA,televisions,null,null,null,null,null,null,2,60,50,null,50,60,null,Screen size,Average lifespan,NA,NA
NA,NA,NA,NA,NA,choice_trial_setup,html-keyboard-response,26,779784,0.0-4.0-0.11,43,1,2025-04-28T16:42:55Z,b60275e29fe2361ab97ac0ac217840d7,"Mozilla/5.0 (Windows NT 10.0; Win64; x64) AppleWebKit/537.36 (KHTML, like Gecko) Chrome/135.0.0.0 Safari/537.36 Edg/135.0.0.0",WebKit,Edge,135.0.0.0,Windows,10,https://5puzkbbxv1.cognition.run/?sona_id=56193,"en-US,en;q=0.9",gqrv4hkxlwv1buf,19,"[""White""]",No,Female,NA,No,999937.7000000476,NA,null,<p></p>,null,choice,dct,trinary,attraction,2,microwave ovens,null,null,null,null,null,null,1,NA,NA,NA,NA,NA,NA,NA,NA,NA,NA
NA,NA,NA,NA,NA,choice_trial,survey-html-form,27,782271,0.0-4.0-1.11,43,1,2025-04-28T16:42:55Z,b60275e29fe2361ab97ac0ac217840d7,"Mozilla/5.0 (Windows NT 10.0; Win64; x64) AppleWebKit/537.36 (KHTML, like Gecko) Chrome/135.0.0.0 Safari/537.36 Edg/135.0.0.0",WebKit,Edge,135.0.0.0,Windows,10,https://5puzkbbxv1.cognition.run/?sona_id=56193,"en-US,en;q=0.9",gqrv4hkxlwv1buf,19,"[""White""]",No,Female,NA,No,999937.7000000476,NA,2484,NA,"{""product_choice"":""B""}",choice,dct,trinary,attraction,2,microwave ovens,null,null,null,null,null,null,1,50,60,40,60,50,60,Warranty,Cooking power,NA,NA
NA,NA,NA,NA,NA,choice_trial_setup,html-keyboard-response,28,782577,0.0-4.0-0.12,43,1,2025-04-28T16:42:55Z,b60275e29fe2361ab97ac0ac217840d7,"Mozilla/5.0 (Windows NT 10.0; Win64; x64) AppleWebKit/537.36 (KHTML, like Gecko) Chrome/135.0.0.0 Safari/537.36 Edg/135.0.0.0",WebKit,Edge,135.0.0.0,Windows,10,https://5puzkbbxv1.cognition.run/?sona_id=56193,"en-US,en;q=0.9",gqrv4hkxlwv1buf,19,"[""White""]",No,Female,NA,No,999937.7000000476,NA,null,<p></p>,null,choice,wb,binary,catch,null,televisions,55,90,30,20,null,null,1,NA,NA,NA,NA,NA,NA,NA,NA,NA,NA
NA,NA,NA,NA,NA,choice_trial,survey-html-form,29,785596,0.0-4.0-1.12,43,1,2025-04-28T16:42:55Z,b60275e29fe2361ab97ac0ac217840d7,"Mozilla/5.0 (Windows NT 10.0; Win64; x64) AppleWebKit/537.36 (KHTML, like Gecko) Chrome/135.0.0.0 Safari/537.36 Edg/135.0.0.0",WebKit,Edge,135.0.0.0,Windows,10,https://5puzkbbxv1.cognition.run/?sona_id=56193,"en-US,en;q=0.9",gqrv4hkxlwv1buf,19,"[""White""]",No,Female,NA,No,999937.7000000476,NA,3016,NA,"{""product_choice"":""B""}",choice,wb,binary,catch,null,televisions,55,90,30,20,null,null,1,null,null,null,null,null,null,Screen size,Average lifespan,NA,NA
NA,NA,NA,NA,NA,choice_trial_setup,html-keyboard-response,30,785901,0.0-4.0-0.13,43,1,2025-04-28T16:42:55Z,b60275e29fe2361ab97ac0ac217840d7,"Mozilla/5.0 (Windows NT 10.0; Win64; x64) AppleWebKit/537.36 (KHTML, like Gecko) Chrome/135.0.0.0 Safari/537.36 Edg/135.0.0.0",WebKit,Edge,135.0.0.0,Windows,10,https://5puzkbbxv1.cognition.run/?sona_id=56193,"en-US,en;q=0.9",gqrv4hkxlwv1buf,19,"[""White""]",No,Female,NA,No,999937.7000000476,NA,null,<p></p>,null,choice,cdt,trinary,repulsion_B,1,microwave ovens,null,null,null,null,null,null,1,NA,NA,NA,NA,NA,NA,NA,NA,NA,NA
NA,NA,NA,NA,NA,choice_trial,survey-html-form,31,790001,0.0-4.0-1.13,43,1,2025-04-28T16:42:55Z,b60275e29fe2361ab97ac0ac217840d7,"Mozilla/5.0 (Windows NT 10.0; Win64; x64) AppleWebKit/537.36 (KHTML, like Gecko) Chrome/135.0.0.0 Safari/537.36 Edg/135.0.0.0",WebKit,Edge,135.0.0.0,Windows,10,https://5puzkbbxv1.cognition.run/?sona_id=56193,"en-US,en;q=0.9",gqrv4hkxlwv1buf,19,"[""White""]",No,Female,NA,No,999937.7000000476,NA,4097,NA,"{""product_choice"":""C""}",choice,cdt,trinary,repulsion_B,1,microwave ovens,null,null,null,null,null,null,1,90,100,80,40,30,40,Warranty,Cooking power,NA,NA
NA,NA,NA,NA,NA,choice_trial_setup,html-keyboard-response,32,790319,0.0-4.0-0.14,43,1,2025-04-28T16:42:55Z,b60275e29fe2361ab97ac0ac217840d7,"Mozilla/5.0 (Windows NT 10.0; Win64; x64) AppleWebKit/537.36 (KHTML, like Gecko) Chrome/135.0.0.0 Safari/537.36 Edg/135.0.0.0",WebKit,Edge,135.0.0.0,Windows,10,https://5puzkbbxv1.cognition.run/?sona_id=56193,"en-US,en;q=0.9",gqrv4hkxlwv1buf,19,"[""White""]",No,Female,NA,No,999937.7000000476,NA,null,<p></p>,null,choice,cdt,trinary,repulsion_A,2,laptops,null,null,null,null,null,null,2,NA,NA,NA,NA,NA,NA,NA,NA,NA,NA
NA,NA,NA,NA,NA,choice_trial,survey-html-form,33,793172,0.0-4.0-1.14,43,1,2025-04-28T16:42:55Z,b60275e29fe2361ab97ac0ac217840d7,"Mozilla/5.0 (Windows NT 10.0; Win64; x64) AppleWebKit/537.36 (KHTML, like Gecko) Chrome/135.0.0.0 Safari/537.36 Edg/135.0.0.0",WebKit,Edge,135.0.0.0,Windows,10,https://5puzkbbxv1.cognition.run/?sona_id=56193,"en-US,en;q=0.9",gqrv4hkxlwv1buf,19,"[""White""]",No,Female,NA,No,999937.7000000476,NA,2849,NA,"{""product_choice"":""A""}",choice,cdt,trinary,repulsion_A,2,laptops,null,null,null,null,null,null,2,30,40,20,100,90,100,Processing speed,Memory (RAM),NA,NA
NA,NA,NA,NA,NA,choice_trial_setup,html-keyboard-response,34,793483,0.0-4.0-0.15,43,1,2025-04-28T16:42:55Z,b60275e29fe2361ab97ac0ac217840d7,"Mozilla/5.0 (Windows NT 10.0; Win64; x64) AppleWebKit/537.36 (KHTML, like Gecko) Chrome/135.0.0.0 Safari/537.36 Edg/135.0.0.0",WebKit,Edge,135.0.0.0,Windows,10,https://5puzkbbxv1.cognition.run/?sona_id=56193,"en-US,en;q=0.9",gqrv4hkxlwv1buf,19,"[""White""]",No,Female,NA,No,999937.7000000476,NA,null,<p></p>,null,choice,ctd,trinary,repulsion_B,2,washing machines,null,null,null,null,null,null,1,NA,NA,NA,NA,NA,NA,NA,NA,NA,NA
NA,NA,NA,NA,NA,choice_trial,survey-html-form,35,799219,0.0-4.0-1.15,43,1,2025-04-28T16:42:55Z,b60275e29fe2361ab97ac0ac217840d7,"Mozilla/5.0 (Windows NT 10.0; Win64; x64) AppleWebKit/537.36 (KHTML, like Gecko) Chrome/135.0.0.0 Safari/537.36 Edg/135.0.0.0",WebKit,Edge,135.0.0.0,Windows,10,https://5puzkbbxv1.cognition.run/?sona_id=56193,"en-US,en;q=0.9",gqrv4hkxlwv1buf,19,"[""White""]",No,Female,NA,No,999937.7000000476,NA,5732,NA,"{""product_choice"":""A""}",choice,ctd,trinary,repulsion_B,2,washing machines,null,null,null,null,null,null,1,40,30,40,90,100,80,Average lifespan,Energy savings,NA,NA
NA,NA,NA,NA,NA,choice_trial_setup,html-keyboard-response,36,799535,0.0-4.0-0.16,43,1,2025-04-28T16:42:55Z,b60275e29fe2361ab97ac0ac217840d7,"Mozilla/5.0 (Windows NT 10.0; Win64; x64) AppleWebKit/537.36 (KHTML, like Gecko) Chrome/135.0.0.0 Safari/537.36 Edg/135.0.0.0",WebKit,Edge,135.0.0.0,Windows,10,https://5puzkbbxv1.cognition.run/?sona_id=56193,"en-US,en;q=0.9",gqrv4hkxlwv1buf,19,"[""White""]",No,Female,NA,No,999937.7000000476,NA,null,<p></p>,null,choice,ct,binary,repulsion,1,microwave ovens,null,null,null,null,null,null,1,NA,NA,NA,NA,NA,NA,NA,NA,NA,NA
NA,NA,NA,NA,NA,choice_trial,survey-html-form,37,802495,0.0-4.0-1.16,43,1,2025-04-28T16:42:55Z,b60275e29fe2361ab97ac0ac217840d7,"Mozilla/5.0 (Windows NT 10.0; Win64; x64) AppleWebKit/537.36 (KHTML, like Gecko) Chrome/135.0.0.0 Safari/537.36 Edg/135.0.0.0",WebKit,Edge,135.0.0.0,Windows,10,https://5puzkbbxv1.cognition.run/?sona_id=56193,"en-US,en;q=0.9",gqrv4hkxlwv1buf,19,"[""White""]",No,Female,NA,No,999937.7000000476,NA,2956,NA,"{""product_choice"":""A""}",choice,ct,binary,repulsion,1,microwave ovens,null,null,null,null,null,null,1,100,90,null,30,40,null,Warranty,Cooking power,NA,NA
NA,NA,NA,NA,NA,choice_trial_setup,html-keyboard-response,38,802800,0.0-4.0-0.17,43,1,2025-04-28T16:42:55Z,b60275e29fe2361ab97ac0ac217840d7,"Mozilla/5.0 (Windows NT 10.0; Win64; x64) AppleWebKit/537.36 (KHTML, like Gecko) Chrome/135.0.0.0 Safari/537.36 Edg/135.0.0.0",WebKit,Edge,135.0.0.0,Windows,10,https://5puzkbbxv1.cognition.run/?sona_id=56193,"en-US,en;q=0.9",gqrv4hkxlwv1buf,19,"[""White""]",No,Female,NA,No,999937.7000000476,NA,null,<p></p>,null,choice,tc,binary,repulsion,1,televisions,null,null,null,null,null,null,2,NA,NA,NA,NA,NA,NA,NA,NA,NA,NA
NA,NA,NA,NA,NA,choice_trial,survey-html-form,39,810065,0.0-4.0-1.17,43,1,2025-04-28T16:42:55Z,b60275e29fe2361ab97ac0ac217840d7,"Mozilla/5.0 (Windows NT 10.0; Win64; x64) AppleWebKit/537.36 (KHTML, like Gecko) Chrome/135.0.0.0 Safari/537.36 Edg/135.0.0.0",WebKit,Edge,135.0.0.0,Windows,10,https://5puzkbbxv1.cognition.run/?sona_id=56193,"en-US,en;q=0.9",gqrv4hkxlwv1buf,19,"[""White""]",No,Female,NA,No,999937.7000000476,NA,7261,NA,"{""product_choice"":""B""}",choice,tc,binary,repulsion,1,televisions,null,null,null,null,null,null,2,100,90,null,30,40,null,Screen size,Average lifespan,NA,NA
NA,NA,NA,NA,NA,choice_trial_setup,html-keyboard-response,40,810369,0.0-4.0-0.18,43,1,2025-04-28T16:42:55Z,b60275e29fe2361ab97ac0ac217840d7,"Mozilla/5.0 (Windows NT 10.0; Win64; x64) AppleWebKit/537.36 (KHTML, like Gecko) Chrome/135.0.0.0 Safari/537.36 Edg/135.0.0.0",WebKit,Edge,135.0.0.0,Windows,10,https://5puzkbbxv1.cognition.run/?sona_id=56193,"en-US,en;q=0.9",gqrv4hkxlwv1buf,19,"[""White""]",No,Female,NA,No,999937.7000000476,NA,null,<p></p>,null,choice,tc,binary,attraction,NA,microwave ovens,null,null,null,null,null,null,2,NA,NA,NA,NA,NA,NA,NA,NA,NA,NA
NA,NA,NA,NA,NA,choice_trial,survey-html-form,41,813795,0.0-4.0-1.18,43,1,2025-04-28T16:42:55Z,b60275e29fe2361ab97ac0ac217840d7,"Mozilla/5.0 (Windows NT 10.0; Win64; x64) AppleWebKit/537.36 (KHTML, like Gecko) Chrome/135.0.0.0 Safari/537.36 Edg/135.0.0.0",WebKit,Edge,135.0.0.0,Windows,10,https://5puzkbbxv1.cognition.run/?sona_id=56193,"en-US,en;q=0.9",gqrv4hkxlwv1buf,19,"[""White""]",No,Female,NA,No,999937.7000000476,NA,3423,NA,"{""product_choice"":""B""}",choice,tc,binary,attraction,NA,microwave ovens,null,null,null,null,null,null,2,60,50,null,50,60,null,Warranty,Cooking power,NA,NA
NA,NA,NA,NA,NA,choice_trial_setup,html-keyboard-response,42,814097,0.0-4.0-0.19,43,1,2025-04-28T16:42:55Z,b60275e29fe2361ab97ac0ac217840d7,"Mozilla/5.0 (Windows NT 10.0; Win64; x64) AppleWebKit/537.36 (KHTML, like Gecko) Chrome/135.0.0.0 Safari/537.36 Edg/135.0.0.0",WebKit,Edge,135.0.0.0,Windows,10,https://5puzkbbxv1.cognition.run/?sona_id=56193,"en-US,en;q=0.9",gqrv4hkxlwv1buf,19,"[""White""]",No,Female,NA,No,999937.7000000476,NA,null,<p></p>,null,choice,cdt,trinary,repulsion_A,2,microwave ovens,null,null,null,null,null,null,1,NA,NA,NA,NA,NA,NA,NA,NA,NA,NA
NA,NA,NA,NA,NA,choice_trial,survey-html-form,43,820416,0.0-4.0-1.19,43,1,2025-04-28T16:42:55Z,b60275e29fe2361ab97ac0ac217840d7,"Mozilla/5.0 (Windows NT 10.0; Win64; x64) AppleWebKit/537.36 (KHTML, like Gecko) Chrome/135.0.0.0 Safari/537.36 Edg/135.0.0.0",WebKit,Edge,135.0.0.0,Windows,10,https://5puzkbbxv1.cognition.run/?sona_id=56193,"en-US,en;q=0.9",gqrv4hkxlwv1buf,19,"[""White""]",No,Female,NA,No,999937.7000000476,NA,6314,NA,"{""product_choice"":""A""}",choice,cdt,trinary,repulsion_A,2,microwave ovens,null,null,null,null,null,null,1,30,40,20,100,90,100,Warranty,Cooking power,NA,NA
NA,NA,NA,NA,NA,choice_trial_setup,html-keyboard-response,44,820729,0.0-4.0-0.20,43,1,2025-04-28T16:42:55Z,b60275e29fe2361ab97ac0ac217840d7,"Mozilla/5.0 (Windows NT 10.0; Win64; x64) AppleWebKit/537.36 (KHTML, like Gecko) Chrome/135.0.0.0 Safari/537.36 Edg/135.0.0.0",WebKit,Edge,135.0.0.0,Windows,10,https://5puzkbbxv1.cognition.run/?sona_id=56193,"en-US,en;q=0.9",gqrv4hkxlwv1buf,19,"[""White""]",No,Female,NA,No,999937.7000000476,NA,null,<p></p>,null,choice,wwb,trinary,catch,null,televisions,90,85,30,35,40,45,1,NA,NA,NA,NA,NA,NA,NA,NA,NA,NA
NA,NA,NA,NA,NA,choice_trial,survey-html-form,45,824365,0.0-4.0-1.20,43,1,2025-04-28T16:42:55Z,b60275e29fe2361ab97ac0ac217840d7,"Mozilla/5.0 (Windows NT 10.0; Win64; x64) AppleWebKit/537.36 (KHTML, like Gecko) Chrome/135.0.0.0 Safari/537.36 Edg/135.0.0.0",WebKit,Edge,135.0.0.0,Windows,10,https://5puzkbbxv1.cognition.run/?sona_id=56193,"en-US,en;q=0.9",gqrv4hkxlwv1buf,19,"[""White""]",No,Female,NA,No,999937.7000000476,NA,3632,NA,"{""product_choice"":""C""}",choice,wwb,trinary,catch,null,televisions,90,85,30,35,40,45,1,null,null,null,null,null,null,Screen size,Average lifespan,NA,NA
NA,NA,NA,NA,NA,choice_trial_setup,html-keyboard-response,46,824668,0.0-4.0-0.21,43,1,2025-04-28T16:42:55Z,b60275e29fe2361ab97ac0ac217840d7,"Mozilla/5.0 (Windows NT 10.0; Win64; x64) AppleWebKit/537.36 (KHTML, like Gecko) Chrome/135.0.0.0 Safari/537.36 Edg/135.0.0.0",WebKit,Edge,135.0.0.0,Windows,10,https://5puzkbbxv1.cognition.run/?sona_id=56193,"en-US,en;q=0.9",gqrv4hkxlwv1buf,19,"[""White""]",No,Female,NA,No,999937.7000000476,NA,null,<p></p>,null,choice,dtc,trinary,attraction,1,washing machines,null,null,null,null,null,null,1,NA,NA,NA,NA,NA,NA,NA,NA,NA,NA
NA,NA,NA,NA,NA,choice_trial,survey-html-form,47,828190,0.0-4.0-1.21,43,1,2025-04-28T16:42:55Z,b60275e29fe2361ab97ac0ac217840d7,"Mozilla/5.0 (Windows NT 10.0; Win64; x64) AppleWebKit/537.36 (KHTML, like Gecko) Chrome/135.0.0.0 Safari/537.36 Edg/135.0.0.0",WebKit,Edge,135.0.0.0,Windows,10,https://5puzkbbxv1.cognition.run/?sona_id=56193,"en-US,en;q=0.9",gqrv4hkxlwv1buf,19,"[""White""]",No,Female,NA,No,999937.7000000476,NA,3518,NA,"{""product_choice"":""B""}",choice,dtc,trinary,attraction,1,washing machines,null,null,null,null,null,null,1,60,50,60,50,60,40,Average lifespan,Energy savings,NA,NA
NA,NA,NA,NA,NA,choice_trial_setup,html-keyboard-response,48,828503,0.0-4.0-0.22,43,1,2025-04-28T16:42:55Z,b60275e29fe2361ab97ac0ac217840d7,"Mozilla/5.0 (Windows NT 10.0; Win64; x64) AppleWebKit/537.36 (KHTML, like Gecko) Chrome/135.0.0.0 Safari/537.36 Edg/135.0.0.0",WebKit,Edge,135.0.0.0,Windows,10,https://5puzkbbxv1.cognition.run/?sona_id=56193,"en-US,en;q=0.9",gqrv4hkxlwv1buf,19,"[""White""]",No,Female,NA,No,999937.7000000476,NA,null,<p></p>,null,choice,tcd,trinary,repulsion_B,1,washing machines,null,null,null,null,null,null,2,NA,NA,NA,NA,NA,NA,NA,NA,NA,NA
NA,NA,NA,NA,NA,choice_trial,survey-html-form,49,833500,0.0-4.0-1.22,43,1,2025-04-28T16:42:55Z,b60275e29fe2361ab97ac0ac217840d7,"Mozilla/5.0 (Windows NT 10.0; Win64; x64) AppleWebKit/537.36 (KHTML, like Gecko) Chrome/135.0.0.0 Safari/537.36 Edg/135.0.0.0",WebKit,Edge,135.0.0.0,Windows,10,https://5puzkbbxv1.cognition.run/?sona_id=56193,"en-US,en;q=0.9",gqrv4hkxlwv1buf,19,"[""White""]",No,Female,NA,No,999937.7000000476,NA,4993,NA,"{""product_choice"":""A""}",choice,tcd,trinary,repulsion_B,1,washing machines,null,null,null,null,null,null,2,90,100,80,40,30,40,Average lifespan,Energy savings,NA,NA
NA,NA,NA,NA,NA,choice_trial_setup,html-keyboard-response,50,833813,0.0-4.0-0.23,43,1,2025-04-28T16:42:55Z,b60275e29fe2361ab97ac0ac217840d7,"Mozilla/5.0 (Windows NT 10.0; Win64; x64) AppleWebKit/537.36 (KHTML, like Gecko) Chrome/135.0.0.0 Safari/537.36 Edg/135.0.0.0",WebKit,Edge,135.0.0.0,Windows,10,https://5puzkbbxv1.cognition.run/?sona_id=56193,"en-US,en;q=0.9",gqrv4hkxlwv1buf,19,"[""White""]",No,Female,NA,No,999937.7000000476,NA,null,<p></p>,null,choice,ct,binary,repulsion,1,laptops,null,null,null,null,null,null,2,NA,NA,NA,NA,NA,NA,NA,NA,NA,NA
NA,NA,NA,NA,NA,choice_trial,survey-html-form,51,842244,0.0-4.0-1.23,43,1,2025-04-28T16:42:55Z,b60275e29fe2361ab97ac0ac217840d7,"Mozilla/5.0 (Windows NT 10.0; Win64; x64) AppleWebKit/537.36 (KHTML, like Gecko) Chrome/135.0.0.0 Safari/537.36 Edg/135.0.0.0",WebKit,Edge,135.0.0.0,Windows,10,https://5puzkbbxv1.cognition.run/?sona_id=56193,"en-US,en;q=0.9",gqrv4hkxlwv1buf,19,"[""White""]",No,Female,NA,No,999937.7000000476,NA,8426,NA,"{""product_choice"":""A""}",choice,ct,binary,repulsion,1,laptops,null,null,null,null,null,null,2,100,90,null,30,40,null,Processing speed,Memory (RAM),NA,NA
NA,NA,NA,NA,NA,choice_trial_setup,html-keyboard-response,52,842553,0.0-4.0-0.24,43,1,2025-04-28T16:42:55Z,b60275e29fe2361ab97ac0ac217840d7,"Mozilla/5.0 (Windows NT 10.0; Win64; x64) AppleWebKit/537.36 (KHTML, like Gecko) Chrome/135.0.0.0 Safari/537.36 Edg/135.0.0.0",WebKit,Edge,135.0.0.0,Windows,10,https://5puzkbbxv1.cognition.run/?sona_id=56193,"en-US,en;q=0.9",gqrv4hkxlwv1buf,19,"[""White""]",No,Female,NA,No,999937.7000000476,NA,null,<p></p>,null,choice,wb,binary,catch,null,microwave ovens,65,80,20,50,null,null,2,NA,NA,NA,NA,NA,NA,NA,NA,NA,NA
NA,NA,NA,NA,NA,choice_trial,survey-html-form,53,851434,0.0-4.0-1.24,43,1,2025-04-28T16:42:55Z,b60275e29fe2361ab97ac0ac217840d7,"Mozilla/5.0 (Windows NT 10.0; Win64; x64) AppleWebKit/537.36 (KHTML, like Gecko) Chrome/135.0.0.0 Safari/537.36 Edg/135.0.0.0",WebKit,Edge,135.0.0.0,Windows,10,https://5puzkbbxv1.cognition.run/?sona_id=56193,"en-US,en;q=0.9",gqrv4hkxlwv1buf,19,"[""White""]",No,Female,NA,No,999937.7000000476,NA,8877,NA,"{""product_choice"":""B""}",choice,wb,binary,catch,null,microwave ovens,65,80,20,50,null,null,2,null,null,null,null,null,null,Warranty,Cooking power,NA,NA
NA,NA,NA,NA,NA,choice_trial_setup,html-keyboard-response,54,851752,0.0-4.0-0.25,43,1,2025-04-28T16:42:55Z,b60275e29fe2361ab97ac0ac217840d7,"Mozilla/5.0 (Windows NT 10.0; Win64; x64) AppleWebKit/537.36 (KHTML, like Gecko) Chrome/135.0.0.0 Safari/537.36 Edg/135.0.0.0",WebKit,Edge,135.0.0.0,Windows,10,https://5puzkbbxv1.cognition.run/?sona_id=56193,"en-US,en;q=0.9",gqrv4hkxlwv1buf,19,"[""White""]",No,Female,NA,No,999937.7000000476,NA,null,<p></p>,null,choice,wb,binary,catch,null,laptops,85,80,10,40,null,null,1,NA,NA,NA,NA,NA,NA,NA,NA,NA,NA
NA,NA,NA,NA,NA,choice_trial,survey-html-form,55,853990,0.0-4.0-1.25,43,1,2025-04-28T16:42:55Z,b60275e29fe2361ab97ac0ac217840d7,"Mozilla/5.0 (Windows NT 10.0; Win64; x64) AppleWebKit/537.36 (KHTML, like Gecko) Chrome/135.0.0.0 Safari/537.36 Edg/135.0.0.0",WebKit,Edge,135.0.0.0,Windows,10,https://5puzkbbxv1.cognition.run/?sona_id=56193,"en-US,en;q=0.9",gqrv4hkxlwv1buf,19,"[""White""]",No,Female,NA,No,999937.7000000476,NA,2233,NA,"{""product_choice"":""B""}",choice,wb,binary,catch,null,laptops,85,80,10,40,null,null,1,null,null,null,null,null,null,Processing speed,Memory (RAM),NA,NA
NA,NA,NA,NA,NA,choice_trial_setup,html-keyboard-response,56,854293,0.0-4.0-0.26,43,1,2025-04-28T16:42:55Z,b60275e29fe2361ab97ac0ac217840d7,"Mozilla/5.0 (Windows NT 10.0; Win64; x64) AppleWebKit/537.36 (KHTML, like Gecko) Chrome/135.0.0.0 Safari/537.36 Edg/135.0.0.0",WebKit,Edge,135.0.0.0,Windows,10,https://5puzkbbxv1.cognition.run/?sona_id=56193,"en-US,en;q=0.9",gqrv4hkxlwv1buf,19,"[""White""]",No,Female,NA,No,999937.7000000476,NA,null,<p></p>,null,choice,wbw,trinary,catch,null,washing machines,75,85,45,25,30,35,1,NA,NA,NA,NA,NA,NA,NA,NA,NA,NA
NA,NA,NA,NA,NA,choice_trial,survey-html-form,57,858089,0.0-4.0-1.26,43,1,2025-04-28T16:42:55Z,b60275e29fe2361ab97ac0ac217840d7,"Mozilla/5.0 (Windows NT 10.0; Win64; x64) AppleWebKit/537.36 (KHTML, like Gecko) Chrome/135.0.0.0 Safari/537.36 Edg/135.0.0.0",WebKit,Edge,135.0.0.0,Windows,10,https://5puzkbbxv1.cognition.run/?sona_id=56193,"en-US,en;q=0.9",gqrv4hkxlwv1buf,19,"[""White""]",No,Female,NA,No,999937.7000000476,NA,3792,NA,"{""product_choice"":""B""}",choice,wbw,trinary,catch,null,washing machines,75,85,45,25,30,35,1,null,null,null,null,null,null,Average lifespan,Energy savings,NA,NA
NA,NA,NA,NA,NA,choice_trial_setup,html-keyboard-response,58,858398,0.0-4.0-0.27,43,1,2025-04-28T16:42:55Z,b60275e29fe2361ab97ac0ac217840d7,"Mozilla/5.0 (Windows NT 10.0; Win64; x64) AppleWebKit/537.36 (KHTML, like Gecko) Chrome/135.0.0.0 Safari/537.36 Edg/135.0.0.0",WebKit,Edge,135.0.0.0,Windows,10,https://5puzkbbxv1.cognition.run/?sona_id=56193,"en-US,en;q=0.9",gqrv4hkxlwv1buf,19,"[""White""]",No,Female,NA,No,999937.7000000476,NA,null,<p></p>,null,choice,tcd,trinary,attraction,1,laptops,null,null,null,null,null,null,2,NA,NA,NA,NA,NA,NA,NA,NA,NA,NA
NA,NA,NA,NA,NA,choice_trial,survey-html-form,59,861996,0.0-4.0-1.27,43,1,2025-04-28T16:42:55Z,b60275e29fe2361ab97ac0ac217840d7,"Mozilla/5.0 (Windows NT 10.0; Win64; x64) AppleWebKit/537.36 (KHTML, like Gecko) Chrome/135.0.0.0 Safari/537.36 Edg/135.0.0.0",WebKit,Edge,135.0.0.0,Windows,10,https://5puzkbbxv1.cognition.run/?sona_id=56193,"en-US,en;q=0.9",gqrv4hkxlwv1buf,19,"[""White""]",No,Female,NA,No,999937.7000000476,NA,3594,NA,"{""product_choice"":""B""}",choice,tcd,trinary,attraction,1,laptops,null,null,null,null,null,null,2,60,50,60,50,60,40,Processing speed,Memory (RAM),NA,NA
NA,NA,NA,NA,NA,choice_trial_setup,html-keyboard-response,60,862315,0.0-4.0-0.28,43,1,2025-04-28T16:42:55Z,b60275e29fe2361ab97ac0ac217840d7,"Mozilla/5.0 (Windows NT 10.0; Win64; x64) AppleWebKit/537.36 (KHTML, like Gecko) Chrome/135.0.0.0 Safari/537.36 Edg/135.0.0.0",WebKit,Edge,135.0.0.0,Windows,10,https://5puzkbbxv1.cognition.run/?sona_id=56193,"en-US,en;q=0.9",gqrv4hkxlwv1buf,19,"[""White""]",No,Female,NA,No,999937.7000000476,NA,null,<p></p>,null,choice,tc,binary,repulsion,2,washing machines,null,null,null,null,null,null,1,NA,NA,NA,NA,NA,NA,NA,NA,NA,NA
NA,NA,NA,NA,NA,choice_trial,survey-html-form,61,865232,0.0-4.0-1.28,43,1,2025-04-28T16:42:55Z,b60275e29fe2361ab97ac0ac217840d7,"Mozilla/5.0 (Windows NT 10.0; Win64; x64) AppleWebKit/537.36 (KHTML, like Gecko) Chrome/135.0.0.0 Safari/537.36 Edg/135.0.0.0",WebKit,Edge,135.0.0.0,Windows,10,https://5puzkbbxv1.cognition.run/?sona_id=56193,"en-US,en;q=0.9",gqrv4hkxlwv1buf,19,"[""White""]",No,Female,NA,No,999937.7000000476,NA,2912,NA,"{""product_choice"":""B""}",choice,tc,binary,repulsion,2,washing machines,null,null,null,null,null,null,1,30,40,null,100,90,null,Average lifespan,Energy savings,NA,NA
NA,NA,NA,NA,NA,choice_trial_setup,html-keyboard-response,62,865535,0.0-4.0-0.29,43,1,2025-04-28T16:42:55Z,b60275e29fe2361ab97ac0ac217840d7,"Mozilla/5.0 (Windows NT 10.0; Win64; x64) AppleWebKit/537.36 (KHTML, like Gecko) Chrome/135.0.0.0 Safari/537.36 Edg/135.0.0.0",WebKit,Edge,135.0.0.0,Windows,10,https://5puzkbbxv1.cognition.run/?sona_id=56193,"en-US,en;q=0.9",gqrv4hkxlwv1buf,19,"[""White""]",No,Female,NA,No,999937.7000000476,NA,null,<p></p>,null,choice,ct,binary,attraction,NA,laptops,null,null,null,null,null,null,1,NA,NA,NA,NA,NA,NA,NA,NA,NA,NA
NA,NA,NA,NA,NA,choice_trial,survey-html-form,63,867617,0.0-4.0-1.29,43,1,2025-04-28T16:42:55Z,b60275e29fe2361ab97ac0ac217840d7,"Mozilla/5.0 (Windows NT 10.0; Win64; x64) AppleWebKit/537.36 (KHTML, like Gecko) Chrome/135.0.0.0 Safari/537.36 Edg/135.0.0.0",WebKit,Edge,135.0.0.0,Windows,10,https://5puzkbbxv1.cognition.run/?sona_id=56193,"en-US,en;q=0.9",gqrv4hkxlwv1buf,19,"[""White""]",No,Female,NA,No,999937.7000000476,NA,2078,NA,"{""product_choice"":""B""}",choice,ct,binary,attraction,NA,laptops,null,null,null,null,null,null,1,60,50,null,50,60,null,Processing speed,Memory (RAM),NA,NA
NA,NA,NA,NA,NA,choice_trial_setup,html-keyboard-response,64,867930,0.0-4.0-0.30,43,1,2025-04-28T16:42:55Z,b60275e29fe2361ab97ac0ac217840d7,"Mozilla/5.0 (Windows NT 10.0; Win64; x64) AppleWebKit/537.36 (KHTML, like Gecko) Chrome/135.0.0.0 Safari/537.36 Edg/135.0.0.0",WebKit,Edge,135.0.0.0,Windows,10,https://5puzkbbxv1.cognition.run/?sona_id=56193,"en-US,en;q=0.9",gqrv4hkxlwv1buf,19,"[""White""]",No,Female,NA,No,999937.7000000476,NA,null,<p></p>,null,choice,tcd,trinary,repulsion_A,2,televisions,null,null,null,null,null,null,1,NA,NA,NA,NA,NA,NA,NA,NA,NA,NA
NA,NA,NA,NA,NA,choice_trial,survey-html-form,65,873719,0.0-4.0-1.30,43,1,2025-04-28T16:42:55Z,b60275e29fe2361ab97ac0ac217840d7,"Mozilla/5.0 (Windows NT 10.0; Win64; x64) AppleWebKit/537.36 (KHTML, like Gecko) Chrome/135.0.0.0 Safari/537.36 Edg/135.0.0.0",WebKit,Edge,135.0.0.0,Windows,10,https://5puzkbbxv1.cognition.run/?sona_id=56193,"en-US,en;q=0.9",gqrv4hkxlwv1buf,19,"[""White""]",No,Female,NA,No,999937.7000000476,NA,5786,NA,"{""product_choice"":""B""}",choice,tcd,trinary,repulsion_A,2,televisions,null,null,null,null,null,null,1,30,40,20,100,90,100,Screen size,Average lifespan,NA,NA
NA,NA,NA,NA,NA,choice_trial_setup,html-keyboard-response,66,874025,0.0-4.0-0.31,43,1,2025-04-28T16:42:55Z,b60275e29fe2361ab97ac0ac217840d7,"Mozilla/5.0 (Windows NT 10.0; Win64; x64) AppleWebKit/537.36 (KHTML, like Gecko) Chrome/135.0.0.0 Safari/537.36 Edg/135.0.0.0",WebKit,Edge,135.0.0.0,Windows,10,https://5puzkbbxv1.cognition.run/?sona_id=56193,"en-US,en;q=0.9",gqrv4hkxlwv1buf,19,"[""White""]",No,Female,NA,No,999937.7000000476,NA,null,<p></p>,null,choice,ctd,trinary,attraction,2,washing machines,null,null,null,null,null,null,2,NA,NA,NA,NA,NA,NA,NA,NA,NA,NA
NA,NA,NA,NA,NA,choice_trial,survey-html-form,67,876700,0.0-4.0-1.31,43,1,2025-04-28T16:42:55Z,b60275e29fe2361ab97ac0ac217840d7,"Mozilla/5.0 (Windows NT 10.0; Win64; x64) AppleWebKit/537.36 (KHTML, like Gecko) Chrome/135.0.0.0 Safari/537.36 Edg/135.0.0.0",WebKit,Edge,135.0.0.0,Windows,10,https://5puzkbbxv1.cognition.run/?sona_id=56193,"en-US,en;q=0.9",gqrv4hkxlwv1buf,19,"[""White""]",No,Female,NA,No,999937.7000000476,NA,2671,NA,"{""product_choice"":""B""}",choice,ctd,trinary,attraction,2,washing machines,null,null,null,null,null,null,2,50,60,40,60,50,60,Average lifespan,Energy savings,NA,NA
NA,NA,NA,NA,NA,choice_trial_setup,html-keyboard-response,68,877012,0.0-4.0-0.32,43,1,2025-04-28T16:42:55Z,b60275e29fe2361ab97ac0ac217840d7,"Mozilla/5.0 (Windows NT 10.0; Win64; x64) AppleWebKit/537.36 (KHTML, like Gecko) Chrome/135.0.0.0 Safari/537.36 Edg/135.0.0.0",WebKit,Edge,135.0.0.0,Windows,10,https://5puzkbbxv1.cognition.run/?sona_id=56193,"en-US,en;q=0.9",gqrv4hkxlwv1buf,19,"[""White""]",No,Female,NA,No,999937.7000000476,NA,null,<p></p>,null,choice,tdc,trinary,attraction,2,laptops,null,null,null,null,null,null,2,NA,NA,NA,NA,NA,NA,NA,NA,NA,NA
NA,NA,NA,NA,NA,choice_trial,survey-html-form,69,880566,0.0-4.0-1.32,43,1,2025-04-28T16:42:55Z,b60275e29fe2361ab97ac0ac217840d7,"Mozilla/5.0 (Windows NT 10.0; Win64; x64) AppleWebKit/537.36 (KHTML, like Gecko) Chrome/135.0.0.0 Safari/537.36 Edg/135.0.0.0",WebKit,Edge,135.0.0.0,Windows,10,https://5puzkbbxv1.cognition.run/?sona_id=56193,"en-US,en;q=0.9",gqrv4hkxlwv1buf,19,"[""White""]",No,Female,NA,No,999937.7000000476,NA,3548,NA,"{""product_choice"":""A""}",choice,tdc,trinary,attraction,2,laptops,null,null,null,null,null,null,2,50,60,40,60,50,60,Processing speed,Memory (RAM),NA,NA
NA,NA,NA,NA,NA,choice_trial_setup,html-keyboard-response,70,880884,0.0-4.0-0.33,43,1,2025-04-28T16:42:55Z,b60275e29fe2361ab97ac0ac217840d7,"Mozilla/5.0 (Windows NT 10.0; Win64; x64) AppleWebKit/537.36 (KHTML, like Gecko) Chrome/135.0.0.0 Safari/537.36 Edg/135.0.0.0",WebKit,Edge,135.0.0.0,Windows,10,https://5puzkbbxv1.cognition.run/?sona_id=56193,"en-US,en;q=0.9",gqrv4hkxlwv1buf,19,"[""White""]",No,Female,NA,No,999937.7000000476,NA,null,<p></p>,null,choice,tcd,trinary,repulsion_B,2,microwave ovens,null,null,null,null,null,null,2,NA,NA,NA,NA,NA,NA,NA,NA,NA,NA
NA,NA,NA,NA,NA,choice_trial,survey-html-form,71,884496,0.0-4.0-1.33,43,1,2025-04-28T16:42:55Z,b60275e29fe2361ab97ac0ac217840d7,"Mozilla/5.0 (Windows NT 10.0; Win64; x64) AppleWebKit/537.36 (KHTML, like Gecko) Chrome/135.0.0.0 Safari/537.36 Edg/135.0.0.0",WebKit,Edge,135.0.0.0,Windows,10,https://5puzkbbxv1.cognition.run/?sona_id=56193,"en-US,en;q=0.9",gqrv4hkxlwv1buf,19,"[""White""]",No,Female,NA,No,999937.7000000476,NA,3606,NA,"{""product_choice"":""A""}",choice,tcd,trinary,repulsion_B,2,microwave ovens,null,null,null,null,null,null,2,40,30,40,90,100,80,Warranty,Cooking power,NA,NA
NA,NA,NA,NA,NA,choice_trial_setup,html-keyboard-response,72,884813,0.0-4.0-0.34,43,1,2025-04-28T16:42:55Z,b60275e29fe2361ab97ac0ac217840d7,"Mozilla/5.0 (Windows NT 10.0; Win64; x64) AppleWebKit/537.36 (KHTML, like Gecko) Chrome/135.0.0.0 Safari/537.36 Edg/135.0.0.0",WebKit,Edge,135.0.0.0,Windows,10,https://5puzkbbxv1.cognition.run/?sona_id=56193,"en-US,en;q=0.9",gqrv4hkxlwv1buf,19,"[""White""]",No,Female,NA,No,999937.7000000476,NA,null,<p></p>,null,choice,ctd,trinary,repulsion_B,1,laptops,null,null,null,null,null,null,1,NA,NA,NA,NA,NA,NA,NA,NA,NA,NA
NA,NA,NA,NA,NA,choice_trial,survey-html-form,73,887732,0.0-4.0-1.34,43,1,2025-04-28T16:42:55Z,b60275e29fe2361ab97ac0ac217840d7,"Mozilla/5.0 (Windows NT 10.0; Win64; x64) AppleWebKit/537.36 (KHTML, like Gecko) Chrome/135.0.0.0 Safari/537.36 Edg/135.0.0.0",WebKit,Edge,135.0.0.0,Windows,10,https://5puzkbbxv1.cognition.run/?sona_id=56193,"en-US,en;q=0.9",gqrv4hkxlwv1buf,19,"[""White""]",No,Female,NA,No,999937.7000000476,NA,2912,NA,"{""product_choice"":""B""}",choice,ctd,trinary,repulsion_B,1,laptops,null,null,null,null,null,null,1,90,100,80,40,30,40,Processing speed,Memory (RAM),NA,NA
NA,NA,NA,NA,NA,choice_trial_setup,html-keyboard-response,74,888049,0.0-4.0-0.35,43,1,2025-04-28T16:42:55Z,b60275e29fe2361ab97ac0ac217840d7,"Mozilla/5.0 (Windows NT 10.0; Win64; x64) AppleWebKit/537.36 (KHTML, like Gecko) Chrome/135.0.0.0 Safari/537.36 Edg/135.0.0.0",WebKit,Edge,135.0.0.0,Windows,10,https://5puzkbbxv1.cognition.run/?sona_id=56193,"en-US,en;q=0.9",gqrv4hkxlwv1buf,19,"[""White""]",No,Female,NA,No,999937.7000000476,NA,null,<p></p>,null,choice,ct,binary,repulsion,2,microwave ovens,null,null,null,null,null,null,2,NA,NA,NA,NA,NA,NA,NA,NA,NA,NA
NA,NA,NA,NA,NA,choice_trial,survey-html-form,75,890683,0.0-4.0-1.35,43,1,2025-04-28T16:42:55Z,b60275e29fe2361ab97ac0ac217840d7,"Mozilla/5.0 (Windows NT 10.0; Win64; x64) AppleWebKit/537.36 (KHTML, like Gecko) Chrome/135.0.0.0 Safari/537.36 Edg/135.0.0.0",WebKit,Edge,135.0.0.0,Windows,10,https://5puzkbbxv1.cognition.run/?sona_id=56193,"en-US,en;q=0.9",gqrv4hkxlwv1buf,19,"[""White""]",No,Female,NA,No,999937.7000000476,NA,2628,NA,"{""product_choice"":""A""}",choice,ct,binary,repulsion,2,microwave ovens,null,null,null,null,null,null,2,30,40,null,100,90,null,Warranty,Cooking power,NA,NA
NA,NA,NA,NA,NA,choice_trial_setup,html-keyboard-response,76,891001,0.0-4.0-0.36,43,1,2025-04-28T16:42:55Z,b60275e29fe2361ab97ac0ac217840d7,"Mozilla/5.0 (Windows NT 10.0; Win64; x64) AppleWebKit/537.36 (KHTML, like Gecko) Chrome/135.0.0.0 Safari/537.36 Edg/135.0.0.0",WebKit,Edge,135.0.0.0,Windows,10,https://5puzkbbxv1.cognition.run/?sona_id=56193,"en-US,en;q=0.9",gqrv4hkxlwv1buf,19,"[""White""]",No,Female,NA,No,999937.7000000476,NA,null,<p></p>,null,choice,ct,binary,repulsion,1,washing machines,null,null,null,null,null,null,1,NA,NA,NA,NA,NA,NA,NA,NA,NA,NA
NA,NA,NA,NA,NA,choice_trial,survey-html-form,77,893331,0.0-4.0-1.36,43,1,2025-04-28T16:42:55Z,b60275e29fe2361ab97ac0ac217840d7,"Mozilla/5.0 (Windows NT 10.0; Win64; x64) AppleWebKit/537.36 (KHTML, like Gecko) Chrome/135.0.0.0 Safari/537.36 Edg/135.0.0.0",WebKit,Edge,135.0.0.0,Windows,10,https://5puzkbbxv1.cognition.run/?sona_id=56193,"en-US,en;q=0.9",gqrv4hkxlwv1buf,19,"[""White""]",No,Female,NA,No,999937.7000000476,NA,2325,NA,"{""product_choice"":""A""}",choice,ct,binary,repulsion,1,washing machines,null,null,null,null,null,null,1,100,90,null,30,40,null,Average lifespan,Energy savings,NA,NA
NA,NA,NA,NA,NA,choice_trial_setup,html-keyboard-response,78,893651,0.0-4.0-0.37,43,1,2025-04-28T16:42:55Z,b60275e29fe2361ab97ac0ac217840d7,"Mozilla/5.0 (Windows NT 10.0; Win64; x64) AppleWebKit/537.36 (KHTML, like Gecko) Chrome/135.0.0.0 Safari/537.36 Edg/135.0.0.0",WebKit,Edge,135.0.0.0,Windows,10,https://5puzkbbxv1.cognition.run/?sona_id=56193,"en-US,en;q=0.9",gqrv4hkxlwv1buf,19,"[""White""]",No,Female,NA,No,999937.7000000476,NA,null,<p></p>,null,choice,tc,binary,repulsion,2,televisions,null,null,null,null,null,null,1,NA,NA,NA,NA,NA,NA,NA,NA,NA,NA
NA,NA,NA,NA,NA,choice_trial,survey-html-form,79,898505,0.0-4.0-1.37,43,1,2025-04-28T16:42:55Z,b60275e29fe2361ab97ac0ac217840d7,"Mozilla/5.0 (Windows NT 10.0; Win64; x64) AppleWebKit/537.36 (KHTML, like Gecko) Chrome/135.0.0.0 Safari/537.36 Edg/135.0.0.0",WebKit,Edge,135.0.0.0,Windows,10,https://5puzkbbxv1.cognition.run/?sona_id=56193,"en-US,en;q=0.9",gqrv4hkxlwv1buf,19,"[""White""]",No,Female,NA,No,999937.7000000476,NA,4849,NA,"{""product_choice"":""B""}",choice,tc,binary,repulsion,2,televisions,null,null,null,null,null,null,1,30,40,null,100,90,null,Screen size,Average lifespan,NA,NA
NA,NA,NA,NA,NA,choice_trial_setup,html-keyboard-response,80,898815,0.0-4.0-0.38,43,1,2025-04-28T16:42:55Z,b60275e29fe2361ab97ac0ac217840d7,"Mozilla/5.0 (Windows NT 10.0; Win64; x64) AppleWebKit/537.36 (KHTML, like Gecko) Chrome/135.0.0.0 Safari/537.36 Edg/135.0.0.0",WebKit,Edge,135.0.0.0,Windows,10,https://5puzkbbxv1.cognition.run/?sona_id=56193,"en-US,en;q=0.9",gqrv4hkxlwv1buf,19,"[""White""]",No,Female,NA,No,999937.7000000476,NA,null,<p></p>,null,choice,ctd,trinary,repulsion_A,1,laptops,null,null,null,null,null,null,2,NA,NA,NA,NA,NA,NA,NA,NA,NA,NA
NA,NA,NA,NA,NA,choice_trial,survey-html-form,81,902341,0.0-4.0-1.38,43,1,2025-04-28T16:42:55Z,b60275e29fe2361ab97ac0ac217840d7,"Mozilla/5.0 (Windows NT 10.0; Win64; x64) AppleWebKit/537.36 (KHTML, like Gecko) Chrome/135.0.0.0 Safari/537.36 Edg/135.0.0.0",WebKit,Edge,135.0.0.0,Windows,10,https://5puzkbbxv1.cognition.run/?sona_id=56193,"en-US,en;q=0.9",gqrv4hkxlwv1buf,19,"[""White""]",No,Female,NA,No,999937.7000000476,NA,3521,NA,"{""product_choice"":""A""}",choice,ctd,trinary,repulsion_A,1,laptops,null,null,null,null,null,null,2,100,90,100,30,40,20,Processing speed,Memory (RAM),NA,NA
NA,NA,NA,NA,NA,choice_trial_setup,html-keyboard-response,82,902645,0.0-4.0-0.39,43,1,2025-04-28T16:42:55Z,b60275e29fe2361ab97ac0ac217840d7,"Mozilla/5.0 (Windows NT 10.0; Win64; x64) AppleWebKit/537.36 (KHTML, like Gecko) Chrome/135.0.0.0 Safari/537.36 Edg/135.0.0.0",WebKit,Edge,135.0.0.0,Windows,10,https://5puzkbbxv1.cognition.run/?sona_id=56193,"en-US,en;q=0.9",gqrv4hkxlwv1buf,19,"[""White""]",No,Female,NA,No,999937.7000000476,NA,null,<p></p>,null,choice,tdc,trinary,repulsion_A,2,washing machines,null,null,null,null,null,null,1,NA,NA,NA,NA,NA,NA,NA,NA,NA,NA
NA,NA,NA,NA,NA,choice_trial,survey-html-form,83,907102,0.0-4.0-1.39,43,1,2025-04-28T16:42:55Z,b60275e29fe2361ab97ac0ac217840d7,"Mozilla/5.0 (Windows NT 10.0; Win64; x64) AppleWebKit/537.36 (KHTML, like Gecko) Chrome/135.0.0.0 Safari/537.36 Edg/135.0.0.0",WebKit,Edge,135.0.0.0,Windows,10,https://5puzkbbxv1.cognition.run/?sona_id=56193,"en-US,en;q=0.9",gqrv4hkxlwv1buf,19,"[""White""]",No,Female,NA,No,999937.7000000476,NA,4454,NA,"{""product_choice"":""C""}",choice,tdc,trinary,repulsion_A,2,washing machines,null,null,null,null,null,null,1,30,40,20,100,90,100,Average lifespan,Energy savings,NA,NA
NA,NA,NA,NA,NA,choice_trial_setup,html-keyboard-response,84,907419,0.0-4.0-0.40,43,1,2025-04-28T16:42:55Z,b60275e29fe2361ab97ac0ac217840d7,"Mozilla/5.0 (Windows NT 10.0; Win64; x64) AppleWebKit/537.36 (KHTML, like Gecko) Chrome/135.0.0.0 Safari/537.36 Edg/135.0.0.0",WebKit,Edge,135.0.0.0,Windows,10,https://5puzkbbxv1.cognition.run/?sona_id=56193,"en-US,en;q=0.9",gqrv4hkxlwv1buf,19,"[""White""]",No,Female,NA,No,999937.7000000476,NA,null,<p></p>,null,choice,dtc,trinary,repulsion_A,1,microwave ovens,null,null,null,null,null,null,1,NA,NA,NA,NA,NA,NA,NA,NA,NA,NA
NA,NA,NA,NA,NA,choice_trial,survey-html-form,85,910989,0.0-4.0-1.40,43,1,2025-04-28T16:42:55Z,b60275e29fe2361ab97ac0ac217840d7,"Mozilla/5.0 (Windows NT 10.0; Win64; x64) AppleWebKit/537.36 (KHTML, like Gecko) Chrome/135.0.0.0 Safari/537.36 Edg/135.0.0.0",WebKit,Edge,135.0.0.0,Windows,10,https://5puzkbbxv1.cognition.run/?sona_id=56193,"en-US,en;q=0.9",gqrv4hkxlwv1buf,19,"[""White""]",No,Female,NA,No,999937.7000000476,NA,3566,NA,"{""product_choice"":""B""}",choice,dtc,trinary,repulsion_A,1,microwave ovens,null,null,null,null,null,null,1,100,90,100,30,40,20,Warranty,Cooking power,NA,NA
NA,NA,NA,NA,NA,choice_trial_setup,html-keyboard-response,86,911305,0.0-4.0-0.41,43,1,2025-04-28T16:42:55Z,b60275e29fe2361ab97ac0ac217840d7,"Mozilla/5.0 (Windows NT 10.0; Win64; x64) AppleWebKit/537.36 (KHTML, like Gecko) Chrome/135.0.0.0 Safari/537.36 Edg/135.0.0.0",WebKit,Edge,135.0.0.0,Windows,10,https://5puzkbbxv1.cognition.run/?sona_id=56193,"en-US,en;q=0.9",gqrv4hkxlwv1buf,19,"[""White""]",No,Female,NA,No,999937.7000000476,NA,null,<p></p>,null,choice,bww,trinary,catch,null,laptops,50,75,40,35,35,35,1,NA,NA,NA,NA,NA,NA,NA,NA,NA,NA
NA,NA,NA,NA,NA,choice_trial,survey-html-form,87,915429,0.0-4.0-1.41,43,1,2025-04-28T16:42:55Z,b60275e29fe2361ab97ac0ac217840d7,"Mozilla/5.0 (Windows NT 10.0; Win64; x64) AppleWebKit/537.36 (KHTML, like Gecko) Chrome/135.0.0.0 Safari/537.36 Edg/135.0.0.0",WebKit,Edge,135.0.0.0,Windows,10,https://5puzkbbxv1.cognition.run/?sona_id=56193,"en-US,en;q=0.9",gqrv4hkxlwv1buf,19,"[""White""]",No,Female,NA,No,999937.7000000476,NA,4119,NA,"{""product_choice"":""A""}",choice,bww,trinary,catch,null,laptops,50,75,40,35,35,35,1,null,null,null,null,null,null,Processing speed,Memory (RAM),NA,NA
NA,NA,NA,NA,NA,choice_trial_setup,html-keyboard-response,88,915748,0.0-4.0-0.42,43,1,2025-04-28T16:42:55Z,b60275e29fe2361ab97ac0ac217840d7,"Mozilla/5.0 (Windows NT 10.0; Win64; x64) AppleWebKit/537.36 (KHTML, like Gecko) Chrome/135.0.0.0 Safari/537.36 Edg/135.0.0.0",WebKit,Edge,135.0.0.0,Windows,10,https://5puzkbbxv1.cognition.run/?sona_id=56193,"en-US,en;q=0.9",gqrv4hkxlwv1buf,19,"[""White""]",No,Female,NA,No,999937.7000000476,NA,null,<p></p>,null,choice,tc,binary,repulsion,2,laptops,null,null,null,null,null,null,1,NA,NA,NA,NA,NA,NA,NA,NA,NA,NA
NA,NA,NA,NA,NA,choice_trial,survey-html-form,89,918204,0.0-4.0-1.42,43,1,2025-04-28T16:42:55Z,b60275e29fe2361ab97ac0ac217840d7,"Mozilla/5.0 (Windows NT 10.0; Win64; x64) AppleWebKit/537.36 (KHTML, like Gecko) Chrome/135.0.0.0 Safari/537.36 Edg/135.0.0.0",WebKit,Edge,135.0.0.0,Windows,10,https://5puzkbbxv1.cognition.run/?sona_id=56193,"en-US,en;q=0.9",gqrv4hkxlwv1buf,19,"[""White""]",No,Female,NA,No,999937.7000000476,NA,2451,NA,"{""product_choice"":""B""}",choice,tc,binary,repulsion,2,laptops,null,null,null,null,null,null,1,30,40,null,100,90,null,Processing speed,Memory (RAM),NA,NA
NA,NA,NA,NA,NA,choice_trial_setup,html-keyboard-response,90,918513,0.0-4.0-0.43,43,1,2025-04-28T16:42:55Z,b60275e29fe2361ab97ac0ac217840d7,"Mozilla/5.0 (Windows NT 10.0; Win64; x64) AppleWebKit/537.36 (KHTML, like Gecko) Chrome/135.0.0.0 Safari/537.36 Edg/135.0.0.0",WebKit,Edge,135.0.0.0,Windows,10,https://5puzkbbxv1.cognition.run/?sona_id=56193,"en-US,en;q=0.9",gqrv4hkxlwv1buf,19,"[""White""]",No,Female,NA,No,999937.7000000476,NA,null,<p></p>,null,choice,dct,trinary,repulsion_B,1,televisions,null,null,null,null,null,null,2,NA,NA,NA,NA,NA,NA,NA,NA,NA,NA
NA,NA,NA,NA,NA,choice_trial,survey-html-form,91,922515,0.0-4.0-1.43,43,1,2025-04-28T16:42:55Z,b60275e29fe2361ab97ac0ac217840d7,"Mozilla/5.0 (Windows NT 10.0; Win64; x64) AppleWebKit/537.36 (KHTML, like Gecko) Chrome/135.0.0.0 Safari/537.36 Edg/135.0.0.0",WebKit,Edge,135.0.0.0,Windows,10,https://5puzkbbxv1.cognition.run/?sona_id=56193,"en-US,en;q=0.9",gqrv4hkxlwv1buf,19,"[""White""]",No,Female,NA,No,999937.7000000476,NA,3998,NA,"{""product_choice"":""C""}",choice,dct,trinary,repulsion_B,1,televisions,null,null,null,null,null,null,2,90,100,80,40,30,40,Screen size,Average lifespan,NA,NA
NA,NA,NA,NA,NA,post_trials_message,html-button-response,92,925086,0.0-5.0,43,1,2025-04-28T16:42:55Z,b60275e29fe2361ab97ac0ac217840d7,"Mozilla/5.0 (Windows NT 10.0; Win64; x64) AppleWebKit/537.36 (KHTML, like Gecko) Chrome/135.0.0.0 Safari/537.36 Edg/135.0.0.0",WebKit,Edge,135.0.0.0,Windows,10,https://5puzkbbxv1.cognition.run/?sona_id=56193,"en-US,en;q=0.9",gqrv4hkxlwv1buf,19,"[""White""]",No,Female,NA,No,999937.7000000476,NA,2566,<p> <b>Thank you for your patience!</b></p><p>  The study will be done after completing a brief form. </p>,0,NA,NA,NA,NA,NA,NA,NA,NA,NA,NA,NA,NA,NA,NA,NA,NA,NA,NA,NA,NA,NA,NA,NA
NA,NA,NA,NA,NA,survey_message,survey-text,93,975398,0.0-6.0,43,1,2025-04-28T16:42:55Z,b60275e29fe2361ab97ac0ac217840d7,"Mozilla/5.0 (Windows NT 10.0; Win64; x64) AppleWebKit/537.36 (KHTML, like Gecko) Chrome/135.0.0.0 Safari/537.36 Edg/135.0.0.0",WebKit,Edge,135.0.0.0,Windows,10,https://5puzkbbxv1.cognition.run/?sona_id=56193,"en-US,en;q=0.9",gqrv4hkxlwv1buf,19,"[""White""]",No,Female,NA,No,999937.7000000476,NA,50307,NA,"{""Q0"":""I chose to go with whatever category matched each other best, because when one is deficient, the other is strong, but together if they are about equal it would be best, in my mind.""}",NA,NA,NA,NA,NA,NA,NA,NA,NA,NA,NA,NA,NA,NA,NA,NA,NA,NA,NA,NA,NA,"I chose to go with whatever category matched each other best, because when one is deficient, the other is strong, but together if they are about equal it would be best, in my mind.",NA
NA,NA,NA,NA,NA,demo_age,survey-text,94,977932,0.0-7.0,43,1,2025-04-28T16:42:55Z,b60275e29fe2361ab97ac0ac217840d7,"Mozilla/5.0 (Windows NT 10.0; Win64; x64) AppleWebKit/537.36 (KHTML, like Gecko) Chrome/135.0.0.0 Safari/537.36 Edg/135.0.0.0",WebKit,Edge,135.0.0.0,Windows,10,https://5puzkbbxv1.cognition.run/?sona_id=56193,"en-US,en;q=0.9",gqrv4hkxlwv1buf,19,"[""White""]",No,Female,NA,No,999937.7000000476,NA,2527,NA,"{""Q0"":""19""}",NA,NA,NA,NA,NA,NA,NA,NA,NA,NA,NA,NA,NA,NA,NA,NA,NA,NA,NA,NA,NA,NA,NA
NA,NA,NA,NA,NA,demo_race,survey-multi-select,95,980523,0.0-8.0,43,1,2025-04-28T16:42:55Z,b60275e29fe2361ab97ac0ac217840d7,"Mozilla/5.0 (Windows NT 10.0; Win64; x64) AppleWebKit/537.36 (KHTML, like Gecko) Chrome/135.0.0.0 Safari/537.36 Edg/135.0.0.0",WebKit,Edge,135.0.0.0,Windows,10,https://5puzkbbxv1.cognition.run/?sona_id=56193,"en-US,en;q=0.9",gqrv4hkxlwv1buf,19,"[""White""]",No,Female,NA,No,999937.7000000476,NA,2585,NA,"{""Q0"":[""White""]}",NA,NA,NA,NA,NA,NA,NA,NA,NA,NA,NA,NA,NA,NA,NA,NA,NA,NA,NA,NA,NA,NA,[0]
NA,NA,NA,NA,NA,demo_ethnicity_gender,survey-multi-choice,96,984147,0.0-9.0,43,1,2025-04-28T16:42:55Z,b60275e29fe2361ab97ac0ac217840d7,"Mozilla/5.0 (Windows NT 10.0; Win64; x64) AppleWebKit/537.36 (KHTML, like Gecko) Chrome/135.0.0.0 Safari/537.36 Edg/135.0.0.0",WebKit,Edge,135.0.0.0,Windows,10,https://5puzkbbxv1.cognition.run/?sona_id=56193,"en-US,en;q=0.9",gqrv4hkxlwv1buf,19,"[""White""]",No,Female,NA,No,999937.7000000476,NA,3619,NA,"{""Q0"":""No"",""Q1"":""Female""}",NA,NA,NA,NA,NA,NA,NA,NA,NA,NA,NA,NA,NA,NA,NA,NA,NA,NA,NA,NA,NA,NA,"[0,1]"
NA,NA,NA,NA,NA,demo_countries,survey-text,97,988842,0.0-10.0,43,1,2025-04-28T16:42:55Z,b60275e29fe2361ab97ac0ac217840d7,"Mozilla/5.0 (Windows NT 10.0; Win64; x64) AppleWebKit/537.36 (KHTML, like Gecko) Chrome/135.0.0.0 Safari/537.36 Edg/135.0.0.0",WebKit,Edge,135.0.0.0,Windows,10,https://5puzkbbxv1.cognition.run/?sona_id=56193,"en-US,en;q=0.9",gqrv4hkxlwv1buf,19,"[""White""]",No,Female,NA,No,999937.7000000476,NA,4687,NA,"{""Q0"":""NA""}",NA,NA,NA,NA,NA,NA,NA,NA,NA,NA,NA,NA,NA,NA,NA,NA,NA,NA,NA,NA,NA,NA,NA
NA,NA,NA,NA,NA,demo_prev_study,survey-multi-choice,98,993644,0.0-11.0,43,1,2025-04-28T16:42:55Z,b60275e29fe2361ab97ac0ac217840d7,"Mozilla/5.0 (Windows NT 10.0; Win64; x64) AppleWebKit/537.36 (KHTML, like Gecko) Chrome/135.0.0.0 Safari/537.36 Edg/135.0.0.0",WebKit,Edge,135.0.0.0,Windows,10,https://5puzkbbxv1.cognition.run/?sona_id=56193,"en-US,en;q=0.9",gqrv4hkxlwv1buf,19,"[""White""]",No,Female,NA,No,999937.7000000476,NA,4798,NA,"{""Q0"":""No""}",NA,NA,NA,NA,NA,NA,NA,NA,NA,NA,NA,NA,NA,NA,NA,NA,NA,NA,NA,NA,NA,NA,[0]
NA,NA,NA,NA,NA,post_survey_message,html-keyboard-response,99,997101,0.0-12.0,43,1,2025-04-28T16:42:55Z,b60275e29fe2361ab97ac0ac217840d7,"Mozilla/5.0 (Windows NT 10.0; Win64; x64) AppleWebKit/537.36 (KHTML, like Gecko) Chrome/135.0.0.0 Safari/537.36 Edg/135.0.0.0",WebKit,Edge,135.0.0.0,Windows,10,https://5puzkbbxv1.cognition.run/?sona_id=56193,"en-US,en;q=0.9",gqrv4hkxlwv1buf,19,"[""White""]",No,Female,NA,No,999937.7000000476,NA,3451,NA,j,NA,NA,NA,NA,NA,NA,NA,NA,NA,NA,NA,NA,NA,NA,NA,NA,NA,NA,NA,NA,NA,NA,NA
NA,NA,NA,NA,NA,debrief,image-keyboard-response,100,999936,0.0-13.0,43,1,2025-04-28T16:42:55Z,b60275e29fe2361ab97ac0ac217840d7,"Mozilla/5.0 (Windows NT 10.0; Win64; x64) AppleWebKit/537.36 (KHTML, like Gecko) Chrome/135.0.0.0 Safari/537.36 Edg/135.0.0.0",WebKit,Edge,135.0.0.0,Windows,10,https://5puzkbbxv1.cognition.run/?sona_id=56193,"en-US,en;q=0.9",gqrv4hkxlwv1buf,19,"[""White""]",No,Female,NA,No,999937.7000000476,NA,2828,Judg_choice_debrief.png,p,NA,NA,NA,NA,NA,NA,NA,NA,NA,NA,NA,NA,NA,NA,NA,NA,NA,NA,NA,NA,NA,NA,NA
