success,timeout,failed_images,failed_audio,failed_video,screen_id,trial_type,trial_index,time_elapsed,internal_node_id,run_id,condition,recorded_at,source_code_version,user_agent,device,browser,browser_version,platform,platform_version,referer,accept_language,ppt_id,age,race,ethnicity,gender,other_countries,prev_study,exp_duration,view_history,rt,stimulus,response,phase,order,set,effect,t_high,category,d1_best,d2_best,d1_worst1,d2_worst1,d1_worst2,d2_worst2,first_dim,d1_t,d1_c,d1_d,d2_t,d2_c,d2_d,d1_name,d2_name,strategy_response,question_order
TRUE,FALSE,[],[],[],img preload,preload,0,236,0.0-0.0,44,1,2025-04-28T16:57:23Z,b60275e29fe2361ab97ac0ac217840d7,"Mozilla/5.0 (Macintosh; Intel Mac OS X 10_15_7) AppleWebKit/537.36 (KHTML, like Gecko) Chrome/135.0.0.0 Safari/537.36",Macintosh,Chrome,135.0.0.0,OS X,10_15_7,https://5puzkbbxv1.cognition.run/?sona_id=58047,"en-US,en;q=0.9",lqkqtyrlgxcnbqn,19,"[""White""]",No,Male,NA,No,399507.9000005722,NA,NA,NA,NA,NA,NA,NA,NA,NA,NA,NA,NA,NA,NA,NA,NA,NA,NA,NA,NA,NA,NA,NA,NA,NA,NA,NA
NA,NA,NA,NA,NA,computer_message,instructions,1,3213,0.0-1.0,44,1,2025-04-28T16:57:23Z,b60275e29fe2361ab97ac0ac217840d7,"Mozilla/5.0 (Macintosh; Intel Mac OS X 10_15_7) AppleWebKit/537.36 (KHTML, like Gecko) Chrome/135.0.0.0 Safari/537.36",Macintosh,Chrome,135.0.0.0,OS X,10_15_7,https://5puzkbbxv1.cognition.run/?sona_id=58047,"en-US,en;q=0.9",lqkqtyrlgxcnbqn,19,"[""White""]",No,Male,NA,No,399507.9000005722,"[{""page_index"":0,""viewing_time"":2975}]",2975,NA,NA,NA,NA,NA,NA,NA,NA,NA,NA,NA,NA,NA,NA,NA,NA,NA,NA,NA,NA,NA,NA,NA,NA,NA
TRUE,NA,NA,NA,NA,NA,fullscreen,2,5091,0.0-2.0,44,1,2025-04-28T16:57:23Z,b60275e29fe2361ab97ac0ac217840d7,"Mozilla/5.0 (Macintosh; Intel Mac OS X 10_15_7) AppleWebKit/537.36 (KHTML, like Gecko) Chrome/135.0.0.0 Safari/537.36",Macintosh,Chrome,135.0.0.0,OS X,10_15_7,https://5puzkbbxv1.cognition.run/?sona_id=58047,"en-US,en;q=0.9",lqkqtyrlgxcnbqn,19,"[""White""]",No,Male,NA,No,399507.9000005722,NA,874,NA,NA,NA,NA,NA,NA,NA,NA,NA,NA,NA,NA,NA,NA,NA,NA,NA,NA,NA,NA,NA,NA,NA,NA,NA
NA,NA,NA,NA,NA,choice_instructions,instructions,3,27436,0.0-3.0,44,1,2025-04-28T16:57:23Z,b60275e29fe2361ab97ac0ac217840d7,"Mozilla/5.0 (Macintosh; Intel Mac OS X 10_15_7) AppleWebKit/537.36 (KHTML, like Gecko) Chrome/135.0.0.0 Safari/537.36",Macintosh,Chrome,135.0.0.0,OS X,10_15_7,https://5puzkbbxv1.cognition.run/?sona_id=58047,"en-US,en;q=0.9",lqkqtyrlgxcnbqn,19,"[""White""]",No,Male,NA,No,399507.9000005722,"[{""page_index"":0,""viewing_time"":1711},{""page_index"":1,""viewing_time"":2795},{""page_index"":2,""viewing_time"":3432},{""page_index"":3,""viewing_time"":4428},{""page_index"":4,""viewing_time"":1911},{""page_index"":5,""viewing_time"":7119},{""page_index"":6,""viewing_time"":948}]",22344,NA,NA,NA,NA,NA,NA,NA,NA,NA,NA,NA,NA,NA,NA,NA,NA,NA,NA,NA,NA,NA,NA,NA,NA,NA
NA,NA,NA,NA,NA,choice_trial_setup,html-keyboard-response,4,27739,0.0-4.0-0.0,44,1,2025-04-28T16:57:23Z,b60275e29fe2361ab97ac0ac217840d7,"Mozilla/5.0 (Macintosh; Intel Mac OS X 10_15_7) AppleWebKit/537.36 (KHTML, like Gecko) Chrome/135.0.0.0 Safari/537.36",Macintosh,Chrome,135.0.0.0,OS X,10_15_7,https://5puzkbbxv1.cognition.run/?sona_id=58047,"en-US,en;q=0.9",lqkqtyrlgxcnbqn,19,"[""White""]",No,Male,NA,No,399507.9000005722,NA,null,<p></p>,null,choice,wb,binary,catch,null,laptops,95,65,5,50,null,null,1,NA,NA,NA,NA,NA,NA,NA,NA,NA,NA
NA,NA,NA,NA,NA,choice_trial,survey-html-form,5,34678,0.0-4.0-1.0,44,1,2025-04-28T16:57:23Z,b60275e29fe2361ab97ac0ac217840d7,"Mozilla/5.0 (Macintosh; Intel Mac OS X 10_15_7) AppleWebKit/537.36 (KHTML, like Gecko) Chrome/135.0.0.0 Safari/537.36",Macintosh,Chrome,135.0.0.0,OS X,10_15_7,https://5puzkbbxv1.cognition.run/?sona_id=58047,"en-US,en;q=0.9",lqkqtyrlgxcnbqn,19,"[""White""]",No,Male,NA,No,399507.9000005722,NA,6932,NA,"{""product_choice"":""B""}",choice,wb,binary,catch,null,laptops,95,65,5,50,null,null,1,null,null,null,null,null,null,Processing speed,Memory (RAM),NA,NA
NA,NA,NA,NA,NA,choice_trial_setup,html-keyboard-response,6,34981,0.0-4.0-0.1,44,1,2025-04-28T16:57:23Z,b60275e29fe2361ab97ac0ac217840d7,"Mozilla/5.0 (Macintosh; Intel Mac OS X 10_15_7) AppleWebKit/537.36 (KHTML, like Gecko) Chrome/135.0.0.0 Safari/537.36",Macintosh,Chrome,135.0.0.0,OS X,10_15_7,https://5puzkbbxv1.cognition.run/?sona_id=58047,"en-US,en;q=0.9",lqkqtyrlgxcnbqn,19,"[""White""]",No,Male,NA,No,399507.9000005722,NA,null,<p></p>,null,choice,tc,binary,repulsion,2,washing machines,null,null,null,null,null,null,1,NA,NA,NA,NA,NA,NA,NA,NA,NA,NA
NA,NA,NA,NA,NA,choice_trial,survey-html-form,7,47402,0.0-4.0-1.1,44,1,2025-04-28T16:57:23Z,b60275e29fe2361ab97ac0ac217840d7,"Mozilla/5.0 (Macintosh; Intel Mac OS X 10_15_7) AppleWebKit/537.36 (KHTML, like Gecko) Chrome/135.0.0.0 Safari/537.36",Macintosh,Chrome,135.0.0.0,OS X,10_15_7,https://5puzkbbxv1.cognition.run/?sona_id=58047,"en-US,en;q=0.9",lqkqtyrlgxcnbqn,19,"[""White""]",No,Male,NA,No,399507.9000005722,NA,12418,NA,"{""product_choice"":""B""}",choice,tc,binary,repulsion,2,washing machines,null,null,null,null,null,null,1,30,40,null,100,90,null,Average lifespan,Energy savings,NA,NA
NA,NA,NA,NA,NA,choice_trial_setup,html-keyboard-response,8,47707,0.0-4.0-0.2,44,1,2025-04-28T16:57:23Z,b60275e29fe2361ab97ac0ac217840d7,"Mozilla/5.0 (Macintosh; Intel Mac OS X 10_15_7) AppleWebKit/537.36 (KHTML, like Gecko) Chrome/135.0.0.0 Safari/537.36",Macintosh,Chrome,135.0.0.0,OS X,10_15_7,https://5puzkbbxv1.cognition.run/?sona_id=58047,"en-US,en;q=0.9",lqkqtyrlgxcnbqn,19,"[""White""]",No,Male,NA,No,399507.9000005722,NA,null,<p></p>,null,choice,tdc,trinary,repulsion_A,1,televisions,null,null,null,null,null,null,1,NA,NA,NA,NA,NA,NA,NA,NA,NA,NA
NA,NA,NA,NA,NA,choice_trial,survey-html-form,9,55255,0.0-4.0-1.2,44,1,2025-04-28T16:57:23Z,b60275e29fe2361ab97ac0ac217840d7,"Mozilla/5.0 (Macintosh; Intel Mac OS X 10_15_7) AppleWebKit/537.36 (KHTML, like Gecko) Chrome/135.0.0.0 Safari/537.36",Macintosh,Chrome,135.0.0.0,OS X,10_15_7,https://5puzkbbxv1.cognition.run/?sona_id=58047,"en-US,en;q=0.9",lqkqtyrlgxcnbqn,19,"[""White""]",No,Male,NA,No,399507.9000005722,NA,7545,NA,"{""product_choice"":""C""}",choice,tdc,trinary,repulsion_A,1,televisions,null,null,null,null,null,null,1,100,90,100,30,40,20,Screen size,Average lifespan,NA,NA
NA,NA,NA,NA,NA,choice_trial_setup,html-keyboard-response,10,55558,0.0-4.0-0.3,44,1,2025-04-28T16:57:23Z,b60275e29fe2361ab97ac0ac217840d7,"Mozilla/5.0 (Macintosh; Intel Mac OS X 10_15_7) AppleWebKit/537.36 (KHTML, like Gecko) Chrome/135.0.0.0 Safari/537.36",Macintosh,Chrome,135.0.0.0,OS X,10_15_7,https://5puzkbbxv1.cognition.run/?sona_id=58047,"en-US,en;q=0.9",lqkqtyrlgxcnbqn,19,"[""White""]",No,Male,NA,No,399507.9000005722,NA,null,<p></p>,null,choice,tc,binary,repulsion,1,televisions,null,null,null,null,null,null,1,NA,NA,NA,NA,NA,NA,NA,NA,NA,NA
NA,NA,NA,NA,NA,choice_trial,survey-html-form,11,63377,0.0-4.0-1.3,44,1,2025-04-28T16:57:23Z,b60275e29fe2361ab97ac0ac217840d7,"Mozilla/5.0 (Macintosh; Intel Mac OS X 10_15_7) AppleWebKit/537.36 (KHTML, like Gecko) Chrome/135.0.0.0 Safari/537.36",Macintosh,Chrome,135.0.0.0,OS X,10_15_7,https://5puzkbbxv1.cognition.run/?sona_id=58047,"en-US,en;q=0.9",lqkqtyrlgxcnbqn,19,"[""White""]",No,Male,NA,No,399507.9000005722,NA,7815,NA,"{""product_choice"":""B""}",choice,tc,binary,repulsion,1,televisions,null,null,null,null,null,null,1,100,90,null,30,40,null,Screen size,Average lifespan,NA,NA
NA,NA,NA,NA,NA,choice_trial_setup,html-keyboard-response,12,63681,0.0-4.0-0.4,44,1,2025-04-28T16:57:23Z,b60275e29fe2361ab97ac0ac217840d7,"Mozilla/5.0 (Macintosh; Intel Mac OS X 10_15_7) AppleWebKit/537.36 (KHTML, like Gecko) Chrome/135.0.0.0 Safari/537.36",Macintosh,Chrome,135.0.0.0,OS X,10_15_7,https://5puzkbbxv1.cognition.run/?sona_id=58047,"en-US,en;q=0.9",lqkqtyrlgxcnbqn,19,"[""White""]",No,Male,NA,No,399507.9000005722,NA,null,<p></p>,null,choice,dtc,trinary,repulsion_B,1,laptops,null,null,null,null,null,null,1,NA,NA,NA,NA,NA,NA,NA,NA,NA,NA
NA,NA,NA,NA,NA,choice_trial,survey-html-form,13,70568,0.0-4.0-1.4,44,1,2025-04-28T16:57:23Z,b60275e29fe2361ab97ac0ac217840d7,"Mozilla/5.0 (Macintosh; Intel Mac OS X 10_15_7) AppleWebKit/537.36 (KHTML, like Gecko) Chrome/135.0.0.0 Safari/537.36",Macintosh,Chrome,135.0.0.0,OS X,10_15_7,https://5puzkbbxv1.cognition.run/?sona_id=58047,"en-US,en;q=0.9",lqkqtyrlgxcnbqn,19,"[""White""]",No,Male,NA,No,399507.9000005722,NA,6884,NA,"{""product_choice"":""C""}",choice,dtc,trinary,repulsion_B,1,laptops,null,null,null,null,null,null,1,90,100,80,40,30,40,Processing speed,Memory (RAM),NA,NA
NA,NA,NA,NA,NA,choice_trial_setup,html-keyboard-response,14,70871,0.0-4.0-0.5,44,1,2025-04-28T16:57:23Z,b60275e29fe2361ab97ac0ac217840d7,"Mozilla/5.0 (Macintosh; Intel Mac OS X 10_15_7) AppleWebKit/537.36 (KHTML, like Gecko) Chrome/135.0.0.0 Safari/537.36",Macintosh,Chrome,135.0.0.0,OS X,10_15_7,https://5puzkbbxv1.cognition.run/?sona_id=58047,"en-US,en;q=0.9",lqkqtyrlgxcnbqn,19,"[""White""]",No,Male,NA,No,399507.9000005722,NA,null,<p></p>,null,choice,dtc,trinary,repulsion_A,2,microwave ovens,null,null,null,null,null,null,1,NA,NA,NA,NA,NA,NA,NA,NA,NA,NA
NA,NA,NA,NA,NA,choice_trial,survey-html-form,15,78794,0.0-4.0-1.5,44,1,2025-04-28T16:57:23Z,b60275e29fe2361ab97ac0ac217840d7,"Mozilla/5.0 (Macintosh; Intel Mac OS X 10_15_7) AppleWebKit/537.36 (KHTML, like Gecko) Chrome/135.0.0.0 Safari/537.36",Macintosh,Chrome,135.0.0.0,OS X,10_15_7,https://5puzkbbxv1.cognition.run/?sona_id=58047,"en-US,en;q=0.9",lqkqtyrlgxcnbqn,19,"[""White""]",No,Male,NA,No,399507.9000005722,NA,7920,NA,"{""product_choice"":""B""}",choice,dtc,trinary,repulsion_A,2,microwave ovens,null,null,null,null,null,null,1,30,40,20,100,90,100,Warranty,Cooking power,NA,NA
NA,NA,NA,NA,NA,choice_trial_setup,html-keyboard-response,16,79097,0.0-4.0-0.6,44,1,2025-04-28T16:57:23Z,b60275e29fe2361ab97ac0ac217840d7,"Mozilla/5.0 (Macintosh; Intel Mac OS X 10_15_7) AppleWebKit/537.36 (KHTML, like Gecko) Chrome/135.0.0.0 Safari/537.36",Macintosh,Chrome,135.0.0.0,OS X,10_15_7,https://5puzkbbxv1.cognition.run/?sona_id=58047,"en-US,en;q=0.9",lqkqtyrlgxcnbqn,19,"[""White""]",No,Male,NA,No,399507.9000005722,NA,null,<p></p>,null,choice,ct,binary,attraction,NA,microwave ovens,null,null,null,null,null,null,2,NA,NA,NA,NA,NA,NA,NA,NA,NA,NA
NA,NA,NA,NA,NA,choice_trial,survey-html-form,17,85563,0.0-4.0-1.6,44,1,2025-04-28T16:57:23Z,b60275e29fe2361ab97ac0ac217840d7,"Mozilla/5.0 (Macintosh; Intel Mac OS X 10_15_7) AppleWebKit/537.36 (KHTML, like Gecko) Chrome/135.0.0.0 Safari/537.36",Macintosh,Chrome,135.0.0.0,OS X,10_15_7,https://5puzkbbxv1.cognition.run/?sona_id=58047,"en-US,en;q=0.9",lqkqtyrlgxcnbqn,19,"[""White""]",No,Male,NA,No,399507.9000005722,NA,6463,NA,"{""product_choice"":""A""}",choice,ct,binary,attraction,NA,microwave ovens,null,null,null,null,null,null,2,60,50,null,50,60,null,Warranty,Cooking power,NA,NA
NA,NA,NA,NA,NA,choice_trial_setup,html-keyboard-response,18,85867,0.0-4.0-0.7,44,1,2025-04-28T16:57:23Z,b60275e29fe2361ab97ac0ac217840d7,"Mozilla/5.0 (Macintosh; Intel Mac OS X 10_15_7) AppleWebKit/537.36 (KHTML, like Gecko) Chrome/135.0.0.0 Safari/537.36",Macintosh,Chrome,135.0.0.0,OS X,10_15_7,https://5puzkbbxv1.cognition.run/?sona_id=58047,"en-US,en;q=0.9",lqkqtyrlgxcnbqn,19,"[""White""]",No,Male,NA,No,399507.9000005722,NA,null,<p></p>,null,choice,bw,binary,catch,null,washing machines,95,70,10,5,null,null,2,NA,NA,NA,NA,NA,NA,NA,NA,NA,NA
NA,NA,NA,NA,NA,choice_trial,survey-html-form,19,93191,0.0-4.0-1.7,44,1,2025-04-28T16:57:23Z,b60275e29fe2361ab97ac0ac217840d7,"Mozilla/5.0 (Macintosh; Intel Mac OS X 10_15_7) AppleWebKit/537.36 (KHTML, like Gecko) Chrome/135.0.0.0 Safari/537.36",Macintosh,Chrome,135.0.0.0,OS X,10_15_7,https://5puzkbbxv1.cognition.run/?sona_id=58047,"en-US,en;q=0.9",lqkqtyrlgxcnbqn,19,"[""White""]",No,Male,NA,No,399507.9000005722,NA,7321,NA,"{""product_choice"":""A""}",choice,bw,binary,catch,null,washing machines,95,70,10,5,null,null,2,null,null,null,null,null,null,Average lifespan,Energy savings,NA,NA
NA,NA,NA,NA,NA,choice_trial_setup,html-keyboard-response,20,93494,0.0-4.0-0.8,44,1,2025-04-28T16:57:23Z,b60275e29fe2361ab97ac0ac217840d7,"Mozilla/5.0 (Macintosh; Intel Mac OS X 10_15_7) AppleWebKit/537.36 (KHTML, like Gecko) Chrome/135.0.0.0 Safari/537.36",Macintosh,Chrome,135.0.0.0,OS X,10_15_7,https://5puzkbbxv1.cognition.run/?sona_id=58047,"en-US,en;q=0.9",lqkqtyrlgxcnbqn,19,"[""White""]",No,Male,NA,No,399507.9000005722,NA,null,<p></p>,null,choice,tcd,trinary,attraction,1,microwave ovens,null,null,null,null,null,null,2,NA,NA,NA,NA,NA,NA,NA,NA,NA,NA
NA,NA,NA,NA,NA,choice_trial,survey-html-form,21,98726,0.0-4.0-1.8,44,1,2025-04-28T16:57:23Z,b60275e29fe2361ab97ac0ac217840d7,"Mozilla/5.0 (Macintosh; Intel Mac OS X 10_15_7) AppleWebKit/537.36 (KHTML, like Gecko) Chrome/135.0.0.0 Safari/537.36",Macintosh,Chrome,135.0.0.0,OS X,10_15_7,https://5puzkbbxv1.cognition.run/?sona_id=58047,"en-US,en;q=0.9",lqkqtyrlgxcnbqn,19,"[""White""]",No,Male,NA,No,399507.9000005722,NA,5230,NA,"{""product_choice"":""B""}",choice,tcd,trinary,attraction,1,microwave ovens,null,null,null,null,null,null,2,60,50,60,50,60,40,Warranty,Cooking power,NA,NA
NA,NA,NA,NA,NA,choice_trial_setup,html-keyboard-response,22,99030,0.0-4.0-0.9,44,1,2025-04-28T16:57:23Z,b60275e29fe2361ab97ac0ac217840d7,"Mozilla/5.0 (Macintosh; Intel Mac OS X 10_15_7) AppleWebKit/537.36 (KHTML, like Gecko) Chrome/135.0.0.0 Safari/537.36",Macintosh,Chrome,135.0.0.0,OS X,10_15_7,https://5puzkbbxv1.cognition.run/?sona_id=58047,"en-US,en;q=0.9",lqkqtyrlgxcnbqn,19,"[""White""]",No,Male,NA,No,399507.9000005722,NA,null,<p></p>,null,choice,tdc,trinary,attraction,1,laptops,null,null,null,null,null,null,2,NA,NA,NA,NA,NA,NA,NA,NA,NA,NA
NA,NA,NA,NA,NA,choice_trial,survey-html-form,23,107057,0.0-4.0-1.9,44,1,2025-04-28T16:57:23Z,b60275e29fe2361ab97ac0ac217840d7,"Mozilla/5.0 (Macintosh; Intel Mac OS X 10_15_7) AppleWebKit/537.36 (KHTML, like Gecko) Chrome/135.0.0.0 Safari/537.36",Macintosh,Chrome,135.0.0.0,OS X,10_15_7,https://5puzkbbxv1.cognition.run/?sona_id=58047,"en-US,en;q=0.9",lqkqtyrlgxcnbqn,19,"[""White""]",No,Male,NA,No,399507.9000005722,NA,8023,NA,"{""product_choice"":""A""}",choice,tdc,trinary,attraction,1,laptops,null,null,null,null,null,null,2,60,50,60,50,60,40,Processing speed,Memory (RAM),NA,NA
NA,NA,NA,NA,NA,choice_trial_setup,html-keyboard-response,24,107360,0.0-4.0-0.10,44,1,2025-04-28T16:57:23Z,b60275e29fe2361ab97ac0ac217840d7,"Mozilla/5.0 (Macintosh; Intel Mac OS X 10_15_7) AppleWebKit/537.36 (KHTML, like Gecko) Chrome/135.0.0.0 Safari/537.36",Macintosh,Chrome,135.0.0.0,OS X,10_15_7,https://5puzkbbxv1.cognition.run/?sona_id=58047,"en-US,en;q=0.9",lqkqtyrlgxcnbqn,19,"[""White""]",No,Male,NA,No,399507.9000005722,NA,null,<p></p>,null,choice,tc,binary,repulsion,2,televisions,null,null,null,null,null,null,2,NA,NA,NA,NA,NA,NA,NA,NA,NA,NA
NA,NA,NA,NA,NA,choice_trial,survey-html-form,25,111307,0.0-4.0-1.10,44,1,2025-04-28T16:57:23Z,b60275e29fe2361ab97ac0ac217840d7,"Mozilla/5.0 (Macintosh; Intel Mac OS X 10_15_7) AppleWebKit/537.36 (KHTML, like Gecko) Chrome/135.0.0.0 Safari/537.36",Macintosh,Chrome,135.0.0.0,OS X,10_15_7,https://5puzkbbxv1.cognition.run/?sona_id=58047,"en-US,en;q=0.9",lqkqtyrlgxcnbqn,19,"[""White""]",No,Male,NA,No,399507.9000005722,NA,3945,NA,"{""product_choice"":""B""}",choice,tc,binary,repulsion,2,televisions,null,null,null,null,null,null,2,30,40,null,100,90,null,Screen size,Average lifespan,NA,NA
NA,NA,NA,NA,NA,choice_trial_setup,html-keyboard-response,26,111610,0.0-4.0-0.11,44,1,2025-04-28T16:57:23Z,b60275e29fe2361ab97ac0ac217840d7,"Mozilla/5.0 (Macintosh; Intel Mac OS X 10_15_7) AppleWebKit/537.36 (KHTML, like Gecko) Chrome/135.0.0.0 Safari/537.36",Macintosh,Chrome,135.0.0.0,OS X,10_15_7,https://5puzkbbxv1.cognition.run/?sona_id=58047,"en-US,en;q=0.9",lqkqtyrlgxcnbqn,19,"[""White""]",No,Male,NA,No,399507.9000005722,NA,null,<p></p>,null,choice,ctd,trinary,attraction,2,laptops,null,null,null,null,null,null,2,NA,NA,NA,NA,NA,NA,NA,NA,NA,NA
NA,NA,NA,NA,NA,choice_trial,survey-html-form,27,117631,0.0-4.0-1.11,44,1,2025-04-28T16:57:23Z,b60275e29fe2361ab97ac0ac217840d7,"Mozilla/5.0 (Macintosh; Intel Mac OS X 10_15_7) AppleWebKit/537.36 (KHTML, like Gecko) Chrome/135.0.0.0 Safari/537.36",Macintosh,Chrome,135.0.0.0,OS X,10_15_7,https://5puzkbbxv1.cognition.run/?sona_id=58047,"en-US,en;q=0.9",lqkqtyrlgxcnbqn,19,"[""White""]",No,Male,NA,No,399507.9000005722,NA,6017,NA,"{""product_choice"":""B""}",choice,ctd,trinary,attraction,2,laptops,null,null,null,null,null,null,2,50,60,40,60,50,60,Processing speed,Memory (RAM),NA,NA
NA,NA,NA,NA,NA,choice_trial_setup,html-keyboard-response,28,117934,0.0-4.0-0.12,44,1,2025-04-28T16:57:23Z,b60275e29fe2361ab97ac0ac217840d7,"Mozilla/5.0 (Macintosh; Intel Mac OS X 10_15_7) AppleWebKit/537.36 (KHTML, like Gecko) Chrome/135.0.0.0 Safari/537.36",Macintosh,Chrome,135.0.0.0,OS X,10_15_7,https://5puzkbbxv1.cognition.run/?sona_id=58047,"en-US,en;q=0.9",lqkqtyrlgxcnbqn,19,"[""White""]",No,Male,NA,No,399507.9000005722,NA,null,<p></p>,null,choice,dct,trinary,attraction,1,washing machines,null,null,null,null,null,null,1,NA,NA,NA,NA,NA,NA,NA,NA,NA,NA
NA,NA,NA,NA,NA,choice_trial,survey-html-form,29,130126,0.0-4.0-1.12,44,1,2025-04-28T16:57:23Z,b60275e29fe2361ab97ac0ac217840d7,"Mozilla/5.0 (Macintosh; Intel Mac OS X 10_15_7) AppleWebKit/537.36 (KHTML, like Gecko) Chrome/135.0.0.0 Safari/537.36",Macintosh,Chrome,135.0.0.0,OS X,10_15_7,https://5puzkbbxv1.cognition.run/?sona_id=58047,"en-US,en;q=0.9",lqkqtyrlgxcnbqn,19,"[""White""]",No,Male,NA,No,399507.9000005722,NA,12188,NA,"{""product_choice"":""B""}",choice,dct,trinary,attraction,1,washing machines,null,null,null,null,null,null,1,60,50,60,50,60,40,Average lifespan,Energy savings,NA,NA
NA,NA,NA,NA,NA,choice_trial_setup,html-keyboard-response,30,130429,0.0-4.0-0.13,44,1,2025-04-28T16:57:23Z,b60275e29fe2361ab97ac0ac217840d7,"Mozilla/5.0 (Macintosh; Intel Mac OS X 10_15_7) AppleWebKit/537.36 (KHTML, like Gecko) Chrome/135.0.0.0 Safari/537.36",Macintosh,Chrome,135.0.0.0,OS X,10_15_7,https://5puzkbbxv1.cognition.run/?sona_id=58047,"en-US,en;q=0.9",lqkqtyrlgxcnbqn,19,"[""White""]",No,Male,NA,No,399507.9000005722,NA,null,<p></p>,null,choice,tc,binary,repulsion,1,washing machines,null,null,null,null,null,null,1,NA,NA,NA,NA,NA,NA,NA,NA,NA,NA
NA,NA,NA,NA,NA,choice_trial,survey-html-form,31,150408,0.0-4.0-1.13,44,1,2025-04-28T16:57:23Z,b60275e29fe2361ab97ac0ac217840d7,"Mozilla/5.0 (Macintosh; Intel Mac OS X 10_15_7) AppleWebKit/537.36 (KHTML, like Gecko) Chrome/135.0.0.0 Safari/537.36",Macintosh,Chrome,135.0.0.0,OS X,10_15_7,https://5puzkbbxv1.cognition.run/?sona_id=58047,"en-US,en;q=0.9",lqkqtyrlgxcnbqn,19,"[""White""]",No,Male,NA,No,399507.9000005722,NA,19974,NA,"{""product_choice"":""B""}",choice,tc,binary,repulsion,1,washing machines,null,null,null,null,null,null,1,100,90,null,30,40,null,Average lifespan,Energy savings,NA,NA
NA,NA,NA,NA,NA,choice_trial_setup,html-keyboard-response,32,150712,0.0-4.0-0.14,44,1,2025-04-28T16:57:23Z,b60275e29fe2361ab97ac0ac217840d7,"Mozilla/5.0 (Macintosh; Intel Mac OS X 10_15_7) AppleWebKit/537.36 (KHTML, like Gecko) Chrome/135.0.0.0 Safari/537.36",Macintosh,Chrome,135.0.0.0,OS X,10_15_7,https://5puzkbbxv1.cognition.run/?sona_id=58047,"en-US,en;q=0.9",lqkqtyrlgxcnbqn,19,"[""White""]",No,Male,NA,No,399507.9000005722,NA,null,<p></p>,null,choice,ct,binary,repulsion,2,microwave ovens,null,null,null,null,null,null,1,NA,NA,NA,NA,NA,NA,NA,NA,NA,NA
NA,NA,NA,NA,NA,choice_trial,survey-html-form,33,164149,0.0-4.0-1.14,44,1,2025-04-28T16:57:23Z,b60275e29fe2361ab97ac0ac217840d7,"Mozilla/5.0 (Macintosh; Intel Mac OS X 10_15_7) AppleWebKit/537.36 (KHTML, like Gecko) Chrome/135.0.0.0 Safari/537.36",Macintosh,Chrome,135.0.0.0,OS X,10_15_7,https://5puzkbbxv1.cognition.run/?sona_id=58047,"en-US,en;q=0.9",lqkqtyrlgxcnbqn,19,"[""White""]",No,Male,NA,No,399507.9000005722,NA,13433,NA,"{""product_choice"":""B""}",choice,ct,binary,repulsion,2,microwave ovens,null,null,null,null,null,null,1,30,40,null,100,90,null,Warranty,Cooking power,NA,NA
NA,NA,NA,NA,NA,choice_trial_setup,html-keyboard-response,34,164453,0.0-4.0-0.15,44,1,2025-04-28T16:57:23Z,b60275e29fe2361ab97ac0ac217840d7,"Mozilla/5.0 (Macintosh; Intel Mac OS X 10_15_7) AppleWebKit/537.36 (KHTML, like Gecko) Chrome/135.0.0.0 Safari/537.36",Macintosh,Chrome,135.0.0.0,OS X,10_15_7,https://5puzkbbxv1.cognition.run/?sona_id=58047,"en-US,en;q=0.9",lqkqtyrlgxcnbqn,19,"[""White""]",No,Male,NA,No,399507.9000005722,NA,null,<p></p>,null,choice,ct,binary,attraction,NA,washing machines,null,null,null,null,null,null,1,NA,NA,NA,NA,NA,NA,NA,NA,NA,NA
NA,NA,NA,NA,NA,choice_trial,survey-html-form,35,169174,0.0-4.0-1.15,44,1,2025-04-28T16:57:23Z,b60275e29fe2361ab97ac0ac217840d7,"Mozilla/5.0 (Macintosh; Intel Mac OS X 10_15_7) AppleWebKit/537.36 (KHTML, like Gecko) Chrome/135.0.0.0 Safari/537.36",Macintosh,Chrome,135.0.0.0,OS X,10_15_7,https://5puzkbbxv1.cognition.run/?sona_id=58047,"en-US,en;q=0.9",lqkqtyrlgxcnbqn,19,"[""White""]",No,Male,NA,No,399507.9000005722,NA,4717,NA,"{""product_choice"":""B""}",choice,ct,binary,attraction,NA,washing machines,null,null,null,null,null,null,1,60,50,null,50,60,null,Average lifespan,Energy savings,NA,NA
NA,NA,NA,NA,NA,choice_trial_setup,html-keyboard-response,36,169478,0.0-4.0-0.16,44,1,2025-04-28T16:57:23Z,b60275e29fe2361ab97ac0ac217840d7,"Mozilla/5.0 (Macintosh; Intel Mac OS X 10_15_7) AppleWebKit/537.36 (KHTML, like Gecko) Chrome/135.0.0.0 Safari/537.36",Macintosh,Chrome,135.0.0.0,OS X,10_15_7,https://5puzkbbxv1.cognition.run/?sona_id=58047,"en-US,en;q=0.9",lqkqtyrlgxcnbqn,19,"[""White""]",No,Male,NA,No,399507.9000005722,NA,null,<p></p>,null,choice,wbw,trinary,catch,null,microwave ovens,80,85,45,20,20,25,2,NA,NA,NA,NA,NA,NA,NA,NA,NA,NA
NA,NA,NA,NA,NA,choice_trial,survey-html-form,37,174343,0.0-4.0-1.16,44,1,2025-04-28T16:57:23Z,b60275e29fe2361ab97ac0ac217840d7,"Mozilla/5.0 (Macintosh; Intel Mac OS X 10_15_7) AppleWebKit/537.36 (KHTML, like Gecko) Chrome/135.0.0.0 Safari/537.36",Macintosh,Chrome,135.0.0.0,OS X,10_15_7,https://5puzkbbxv1.cognition.run/?sona_id=58047,"en-US,en;q=0.9",lqkqtyrlgxcnbqn,19,"[""White""]",No,Male,NA,No,399507.9000005722,NA,4860,NA,"{""product_choice"":""B""}",choice,wbw,trinary,catch,null,microwave ovens,80,85,45,20,20,25,2,null,null,null,null,null,null,Warranty,Cooking power,NA,NA
NA,NA,NA,NA,NA,choice_trial_setup,html-keyboard-response,38,174648,0.0-4.0-0.17,44,1,2025-04-28T16:57:23Z,b60275e29fe2361ab97ac0ac217840d7,"Mozilla/5.0 (Macintosh; Intel Mac OS X 10_15_7) AppleWebKit/537.36 (KHTML, like Gecko) Chrome/135.0.0.0 Safari/537.36",Macintosh,Chrome,135.0.0.0,OS X,10_15_7,https://5puzkbbxv1.cognition.run/?sona_id=58047,"en-US,en;q=0.9",lqkqtyrlgxcnbqn,19,"[""White""]",No,Male,NA,No,399507.9000005722,NA,null,<p></p>,null,choice,dct,trinary,repulsion_B,2,laptops,null,null,null,null,null,null,1,NA,NA,NA,NA,NA,NA,NA,NA,NA,NA
NA,NA,NA,NA,NA,choice_trial,survey-html-form,39,180459,0.0-4.0-1.17,44,1,2025-04-28T16:57:23Z,b60275e29fe2361ab97ac0ac217840d7,"Mozilla/5.0 (Macintosh; Intel Mac OS X 10_15_7) AppleWebKit/537.36 (KHTML, like Gecko) Chrome/135.0.0.0 Safari/537.36",Macintosh,Chrome,135.0.0.0,OS X,10_15_7,https://5puzkbbxv1.cognition.run/?sona_id=58047,"en-US,en;q=0.9",lqkqtyrlgxcnbqn,19,"[""White""]",No,Male,NA,No,399507.9000005722,NA,5806,NA,"{""product_choice"":""C""}",choice,dct,trinary,repulsion_B,2,laptops,null,null,null,null,null,null,1,40,30,40,90,100,80,Processing speed,Memory (RAM),NA,NA
NA,NA,NA,NA,NA,choice_trial_setup,html-keyboard-response,40,180764,0.0-4.0-0.18,44,1,2025-04-28T16:57:23Z,b60275e29fe2361ab97ac0ac217840d7,"Mozilla/5.0 (Macintosh; Intel Mac OS X 10_15_7) AppleWebKit/537.36 (KHTML, like Gecko) Chrome/135.0.0.0 Safari/537.36",Macintosh,Chrome,135.0.0.0,OS X,10_15_7,https://5puzkbbxv1.cognition.run/?sona_id=58047,"en-US,en;q=0.9",lqkqtyrlgxcnbqn,19,"[""White""]",No,Male,NA,No,399507.9000005722,NA,null,<p></p>,null,choice,ct,binary,repulsion,2,laptops,null,null,null,null,null,null,1,NA,NA,NA,NA,NA,NA,NA,NA,NA,NA
NA,NA,NA,NA,NA,choice_trial,survey-html-form,41,186790,0.0-4.0-1.18,44,1,2025-04-28T16:57:23Z,b60275e29fe2361ab97ac0ac217840d7,"Mozilla/5.0 (Macintosh; Intel Mac OS X 10_15_7) AppleWebKit/537.36 (KHTML, like Gecko) Chrome/135.0.0.0 Safari/537.36",Macintosh,Chrome,135.0.0.0,OS X,10_15_7,https://5puzkbbxv1.cognition.run/?sona_id=58047,"en-US,en;q=0.9",lqkqtyrlgxcnbqn,19,"[""White""]",No,Male,NA,No,399507.9000005722,NA,6022,NA,"{""product_choice"":""A""}",choice,ct,binary,repulsion,2,laptops,null,null,null,null,null,null,1,30,40,null,100,90,null,Processing speed,Memory (RAM),NA,NA
NA,NA,NA,NA,NA,choice_trial_setup,html-keyboard-response,42,187094,0.0-4.0-0.19,44,1,2025-04-28T16:57:23Z,b60275e29fe2361ab97ac0ac217840d7,"Mozilla/5.0 (Macintosh; Intel Mac OS X 10_15_7) AppleWebKit/537.36 (KHTML, like Gecko) Chrome/135.0.0.0 Safari/537.36",Macintosh,Chrome,135.0.0.0,OS X,10_15_7,https://5puzkbbxv1.cognition.run/?sona_id=58047,"en-US,en;q=0.9",lqkqtyrlgxcnbqn,19,"[""White""]",No,Male,NA,No,399507.9000005722,NA,null,<p></p>,null,choice,dct,trinary,repulsion_B,2,microwave ovens,null,null,null,null,null,null,2,NA,NA,NA,NA,NA,NA,NA,NA,NA,NA
NA,NA,NA,NA,NA,choice_trial,survey-html-form,43,196498,0.0-4.0-1.19,44,1,2025-04-28T16:57:23Z,b60275e29fe2361ab97ac0ac217840d7,"Mozilla/5.0 (Macintosh; Intel Mac OS X 10_15_7) AppleWebKit/537.36 (KHTML, like Gecko) Chrome/135.0.0.0 Safari/537.36",Macintosh,Chrome,135.0.0.0,OS X,10_15_7,https://5puzkbbxv1.cognition.run/?sona_id=58047,"en-US,en;q=0.9",lqkqtyrlgxcnbqn,19,"[""White""]",No,Male,NA,No,399507.9000005722,NA,9399,NA,"{""product_choice"":""C""}",choice,dct,trinary,repulsion_B,2,microwave ovens,null,null,null,null,null,null,2,40,30,40,90,100,80,Warranty,Cooking power,NA,NA
NA,NA,NA,NA,NA,choice_trial_setup,html-keyboard-response,44,196800,0.0-4.0-0.20,44,1,2025-04-28T16:57:23Z,b60275e29fe2361ab97ac0ac217840d7,"Mozilla/5.0 (Macintosh; Intel Mac OS X 10_15_7) AppleWebKit/537.36 (KHTML, like Gecko) Chrome/135.0.0.0 Safari/537.36",Macintosh,Chrome,135.0.0.0,OS X,10_15_7,https://5puzkbbxv1.cognition.run/?sona_id=58047,"en-US,en;q=0.9",lqkqtyrlgxcnbqn,19,"[""White""]",No,Male,NA,No,399507.9000005722,NA,null,<p></p>,null,choice,ct,binary,attraction,NA,televisions,null,null,null,null,null,null,2,NA,NA,NA,NA,NA,NA,NA,NA,NA,NA
NA,NA,NA,NA,NA,choice_trial,survey-html-form,45,205449,0.0-4.0-1.20,44,1,2025-04-28T16:57:23Z,b60275e29fe2361ab97ac0ac217840d7,"Mozilla/5.0 (Macintosh; Intel Mac OS X 10_15_7) AppleWebKit/537.36 (KHTML, like Gecko) Chrome/135.0.0.0 Safari/537.36",Macintosh,Chrome,135.0.0.0,OS X,10_15_7,https://5puzkbbxv1.cognition.run/?sona_id=58047,"en-US,en;q=0.9",lqkqtyrlgxcnbqn,19,"[""White""]",No,Male,NA,No,399507.9000005722,NA,8644,NA,"{""product_choice"":""B""}",choice,ct,binary,attraction,NA,televisions,null,null,null,null,null,null,2,60,50,null,50,60,null,Screen size,Average lifespan,NA,NA
NA,NA,NA,NA,NA,choice_trial_setup,html-keyboard-response,46,205754,0.0-4.0-0.21,44,1,2025-04-28T16:57:23Z,b60275e29fe2361ab97ac0ac217840d7,"Mozilla/5.0 (Macintosh; Intel Mac OS X 10_15_7) AppleWebKit/537.36 (KHTML, like Gecko) Chrome/135.0.0.0 Safari/537.36",Macintosh,Chrome,135.0.0.0,OS X,10_15_7,https://5puzkbbxv1.cognition.run/?sona_id=58047,"en-US,en;q=0.9",lqkqtyrlgxcnbqn,19,"[""White""]",No,Male,NA,No,399507.9000005722,NA,null,<p></p>,null,choice,bww,trinary,catch,null,televisions,60,75,25,15,25,30,2,NA,NA,NA,NA,NA,NA,NA,NA,NA,NA
NA,NA,NA,NA,NA,choice_trial,survey-html-form,47,210937,0.0-4.0-1.21,44,1,2025-04-28T16:57:23Z,b60275e29fe2361ab97ac0ac217840d7,"Mozilla/5.0 (Macintosh; Intel Mac OS X 10_15_7) AppleWebKit/537.36 (KHTML, like Gecko) Chrome/135.0.0.0 Safari/537.36",Macintosh,Chrome,135.0.0.0,OS X,10_15_7,https://5puzkbbxv1.cognition.run/?sona_id=58047,"en-US,en;q=0.9",lqkqtyrlgxcnbqn,19,"[""White""]",No,Male,NA,No,399507.9000005722,NA,5179,NA,"{""product_choice"":""A""}",choice,bww,trinary,catch,null,televisions,60,75,25,15,25,30,2,null,null,null,null,null,null,Screen size,Average lifespan,NA,NA
NA,NA,NA,NA,NA,choice_trial_setup,html-keyboard-response,48,211240,0.0-4.0-0.22,44,1,2025-04-28T16:57:23Z,b60275e29fe2361ab97ac0ac217840d7,"Mozilla/5.0 (Macintosh; Intel Mac OS X 10_15_7) AppleWebKit/537.36 (KHTML, like Gecko) Chrome/135.0.0.0 Safari/537.36",Macintosh,Chrome,135.0.0.0,OS X,10_15_7,https://5puzkbbxv1.cognition.run/?sona_id=58047,"en-US,en;q=0.9",lqkqtyrlgxcnbqn,19,"[""White""]",No,Male,NA,No,399507.9000005722,NA,null,<p></p>,null,choice,cdt,trinary,repulsion_A,2,laptops,null,null,null,null,null,null,1,NA,NA,NA,NA,NA,NA,NA,NA,NA,NA
NA,NA,NA,NA,NA,choice_trial,survey-html-form,49,220715,0.0-4.0-1.22,44,1,2025-04-28T16:57:23Z,b60275e29fe2361ab97ac0ac217840d7,"Mozilla/5.0 (Macintosh; Intel Mac OS X 10_15_7) AppleWebKit/537.36 (KHTML, like Gecko) Chrome/135.0.0.0 Safari/537.36",Macintosh,Chrome,135.0.0.0,OS X,10_15_7,https://5puzkbbxv1.cognition.run/?sona_id=58047,"en-US,en;q=0.9",lqkqtyrlgxcnbqn,19,"[""White""]",No,Male,NA,No,399507.9000005722,NA,9470,NA,"{""product_choice"":""A""}",choice,cdt,trinary,repulsion_A,2,laptops,null,null,null,null,null,null,1,30,40,20,100,90,100,Processing speed,Memory (RAM),NA,NA
NA,NA,NA,NA,NA,choice_trial_setup,html-keyboard-response,50,221019,0.0-4.0-0.23,44,1,2025-04-28T16:57:23Z,b60275e29fe2361ab97ac0ac217840d7,"Mozilla/5.0 (Macintosh; Intel Mac OS X 10_15_7) AppleWebKit/537.36 (KHTML, like Gecko) Chrome/135.0.0.0 Safari/537.36",Macintosh,Chrome,135.0.0.0,OS X,10_15_7,https://5puzkbbxv1.cognition.run/?sona_id=58047,"en-US,en;q=0.9",lqkqtyrlgxcnbqn,19,"[""White""]",No,Male,NA,No,399507.9000005722,NA,null,<p></p>,null,choice,dtc,trinary,repulsion_A,2,televisions,null,null,null,null,null,null,1,NA,NA,NA,NA,NA,NA,NA,NA,NA,NA
NA,NA,NA,NA,NA,choice_trial,survey-html-form,51,225214,0.0-4.0-1.23,44,1,2025-04-28T16:57:23Z,b60275e29fe2361ab97ac0ac217840d7,"Mozilla/5.0 (Macintosh; Intel Mac OS X 10_15_7) AppleWebKit/537.36 (KHTML, like Gecko) Chrome/135.0.0.0 Safari/537.36",Macintosh,Chrome,135.0.0.0,OS X,10_15_7,https://5puzkbbxv1.cognition.run/?sona_id=58047,"en-US,en;q=0.9",lqkqtyrlgxcnbqn,19,"[""White""]",No,Male,NA,No,399507.9000005722,NA,4190,NA,"{""product_choice"":""C""}",choice,dtc,trinary,repulsion_A,2,televisions,null,null,null,null,null,null,1,30,40,20,100,90,100,Screen size,Average lifespan,NA,NA
NA,NA,NA,NA,NA,choice_trial_setup,html-keyboard-response,52,225519,0.0-4.0-0.24,44,1,2025-04-28T16:57:23Z,b60275e29fe2361ab97ac0ac217840d7,"Mozilla/5.0 (Macintosh; Intel Mac OS X 10_15_7) AppleWebKit/537.36 (KHTML, like Gecko) Chrome/135.0.0.0 Safari/537.36",Macintosh,Chrome,135.0.0.0,OS X,10_15_7,https://5puzkbbxv1.cognition.run/?sona_id=58047,"en-US,en;q=0.9",lqkqtyrlgxcnbqn,19,"[""White""]",No,Male,NA,No,399507.9000005722,NA,null,<p></p>,null,choice,dct,trinary,attraction,2,televisions,null,null,null,null,null,null,1,NA,NA,NA,NA,NA,NA,NA,NA,NA,NA
NA,NA,NA,NA,NA,choice_trial,survey-html-form,53,234747,0.0-4.0-1.24,44,1,2025-04-28T16:57:23Z,b60275e29fe2361ab97ac0ac217840d7,"Mozilla/5.0 (Macintosh; Intel Mac OS X 10_15_7) AppleWebKit/537.36 (KHTML, like Gecko) Chrome/135.0.0.0 Safari/537.36",Macintosh,Chrome,135.0.0.0,OS X,10_15_7,https://5puzkbbxv1.cognition.run/?sona_id=58047,"en-US,en;q=0.9",lqkqtyrlgxcnbqn,19,"[""White""]",No,Male,NA,No,399507.9000005722,NA,9223,NA,"{""product_choice"":""B""}",choice,dct,trinary,attraction,2,televisions,null,null,null,null,null,null,1,50,60,40,60,50,60,Screen size,Average lifespan,NA,NA
NA,NA,NA,NA,NA,choice_trial_setup,html-keyboard-response,54,235051,0.0-4.0-0.25,44,1,2025-04-28T16:57:23Z,b60275e29fe2361ab97ac0ac217840d7,"Mozilla/5.0 (Macintosh; Intel Mac OS X 10_15_7) AppleWebKit/537.36 (KHTML, like Gecko) Chrome/135.0.0.0 Safari/537.36",Macintosh,Chrome,135.0.0.0,OS X,10_15_7,https://5puzkbbxv1.cognition.run/?sona_id=58047,"en-US,en;q=0.9",lqkqtyrlgxcnbqn,19,"[""White""]",No,Male,NA,No,399507.9000005722,NA,null,<p></p>,null,choice,dtc,trinary,repulsion_B,2,washing machines,null,null,null,null,null,null,1,NA,NA,NA,NA,NA,NA,NA,NA,NA,NA
NA,NA,NA,NA,NA,choice_trial,survey-html-form,55,243737,0.0-4.0-1.25,44,1,2025-04-28T16:57:23Z,b60275e29fe2361ab97ac0ac217840d7,"Mozilla/5.0 (Macintosh; Intel Mac OS X 10_15_7) AppleWebKit/537.36 (KHTML, like Gecko) Chrome/135.0.0.0 Safari/537.36",Macintosh,Chrome,135.0.0.0,OS X,10_15_7,https://5puzkbbxv1.cognition.run/?sona_id=58047,"en-US,en;q=0.9",lqkqtyrlgxcnbqn,19,"[""White""]",No,Male,NA,No,399507.9000005722,NA,8680,NA,"{""product_choice"":""B""}",choice,dtc,trinary,repulsion_B,2,washing machines,null,null,null,null,null,null,1,40,30,40,90,100,80,Average lifespan,Energy savings,NA,NA
NA,NA,NA,NA,NA,choice_trial_setup,html-keyboard-response,56,244042,0.0-4.0-0.26,44,1,2025-04-28T16:57:23Z,b60275e29fe2361ab97ac0ac217840d7,"Mozilla/5.0 (Macintosh; Intel Mac OS X 10_15_7) AppleWebKit/537.36 (KHTML, like Gecko) Chrome/135.0.0.0 Safari/537.36",Macintosh,Chrome,135.0.0.0,OS X,10_15_7,https://5puzkbbxv1.cognition.run/?sona_id=58047,"en-US,en;q=0.9",lqkqtyrlgxcnbqn,19,"[""White""]",No,Male,NA,No,399507.9000005722,NA,null,<p></p>,null,choice,bww,trinary,catch,null,washing machines,55,70,40,35,45,20,1,NA,NA,NA,NA,NA,NA,NA,NA,NA,NA
NA,NA,NA,NA,NA,choice_trial,survey-html-form,57,247472,0.0-4.0-1.26,44,1,2025-04-28T16:57:23Z,b60275e29fe2361ab97ac0ac217840d7,"Mozilla/5.0 (Macintosh; Intel Mac OS X 10_15_7) AppleWebKit/537.36 (KHTML, like Gecko) Chrome/135.0.0.0 Safari/537.36",Macintosh,Chrome,135.0.0.0,OS X,10_15_7,https://5puzkbbxv1.cognition.run/?sona_id=58047,"en-US,en;q=0.9",lqkqtyrlgxcnbqn,19,"[""White""]",No,Male,NA,No,399507.9000005722,NA,3426,NA,"{""product_choice"":""A""}",choice,bww,trinary,catch,null,washing machines,55,70,40,35,45,20,1,null,null,null,null,null,null,Average lifespan,Energy savings,NA,NA
NA,NA,NA,NA,NA,choice_trial_setup,html-keyboard-response,58,247776,0.0-4.0-0.27,44,1,2025-04-28T16:57:23Z,b60275e29fe2361ab97ac0ac217840d7,"Mozilla/5.0 (Macintosh; Intel Mac OS X 10_15_7) AppleWebKit/537.36 (KHTML, like Gecko) Chrome/135.0.0.0 Safari/537.36",Macintosh,Chrome,135.0.0.0,OS X,10_15_7,https://5puzkbbxv1.cognition.run/?sona_id=58047,"en-US,en;q=0.9",lqkqtyrlgxcnbqn,19,"[""White""]",No,Male,NA,No,399507.9000005722,NA,null,<p></p>,null,choice,ct,binary,repulsion,1,microwave ovens,null,null,null,null,null,null,2,NA,NA,NA,NA,NA,NA,NA,NA,NA,NA
NA,NA,NA,NA,NA,choice_trial,survey-html-form,59,251518,0.0-4.0-1.27,44,1,2025-04-28T16:57:23Z,b60275e29fe2361ab97ac0ac217840d7,"Mozilla/5.0 (Macintosh; Intel Mac OS X 10_15_7) AppleWebKit/537.36 (KHTML, like Gecko) Chrome/135.0.0.0 Safari/537.36",Macintosh,Chrome,135.0.0.0,OS X,10_15_7,https://5puzkbbxv1.cognition.run/?sona_id=58047,"en-US,en;q=0.9",lqkqtyrlgxcnbqn,19,"[""White""]",No,Male,NA,No,399507.9000005722,NA,3737,NA,"{""product_choice"":""A""}",choice,ct,binary,repulsion,1,microwave ovens,null,null,null,null,null,null,2,100,90,null,30,40,null,Warranty,Cooking power,NA,NA
NA,NA,NA,NA,NA,choice_trial_setup,html-keyboard-response,60,251822,0.0-4.0-0.28,44,1,2025-04-28T16:57:23Z,b60275e29fe2361ab97ac0ac217840d7,"Mozilla/5.0 (Macintosh; Intel Mac OS X 10_15_7) AppleWebKit/537.36 (KHTML, like Gecko) Chrome/135.0.0.0 Safari/537.36",Macintosh,Chrome,135.0.0.0,OS X,10_15_7,https://5puzkbbxv1.cognition.run/?sona_id=58047,"en-US,en;q=0.9",lqkqtyrlgxcnbqn,19,"[""White""]",No,Male,NA,No,399507.9000005722,NA,null,<p></p>,null,choice,cdt,trinary,repulsion_A,2,washing machines,null,null,null,null,null,null,2,NA,NA,NA,NA,NA,NA,NA,NA,NA,NA
NA,NA,NA,NA,NA,choice_trial,survey-html-form,61,255570,0.0-4.0-1.28,44,1,2025-04-28T16:57:23Z,b60275e29fe2361ab97ac0ac217840d7,"Mozilla/5.0 (Macintosh; Intel Mac OS X 10_15_7) AppleWebKit/537.36 (KHTML, like Gecko) Chrome/135.0.0.0 Safari/537.36",Macintosh,Chrome,135.0.0.0,OS X,10_15_7,https://5puzkbbxv1.cognition.run/?sona_id=58047,"en-US,en;q=0.9",lqkqtyrlgxcnbqn,19,"[""White""]",No,Male,NA,No,399507.9000005722,NA,3743,NA,"{""product_choice"":""C""}",choice,cdt,trinary,repulsion_A,2,washing machines,null,null,null,null,null,null,2,30,40,20,100,90,100,Average lifespan,Energy savings,NA,NA
NA,NA,NA,NA,NA,choice_trial_setup,html-keyboard-response,62,255874,0.0-4.0-0.29,44,1,2025-04-28T16:57:23Z,b60275e29fe2361ab97ac0ac217840d7,"Mozilla/5.0 (Macintosh; Intel Mac OS X 10_15_7) AppleWebKit/537.36 (KHTML, like Gecko) Chrome/135.0.0.0 Safari/537.36",Macintosh,Chrome,135.0.0.0,OS X,10_15_7,https://5puzkbbxv1.cognition.run/?sona_id=58047,"en-US,en;q=0.9",lqkqtyrlgxcnbqn,19,"[""White""]",No,Male,NA,No,399507.9000005722,NA,null,<p></p>,null,choice,tdc,trinary,attraction,1,televisions,null,null,null,null,null,null,2,NA,NA,NA,NA,NA,NA,NA,NA,NA,NA
NA,NA,NA,NA,NA,choice_trial,survey-html-form,63,261464,0.0-4.0-1.29,44,1,2025-04-28T16:57:23Z,b60275e29fe2361ab97ac0ac217840d7,"Mozilla/5.0 (Macintosh; Intel Mac OS X 10_15_7) AppleWebKit/537.36 (KHTML, like Gecko) Chrome/135.0.0.0 Safari/537.36",Macintosh,Chrome,135.0.0.0,OS X,10_15_7,https://5puzkbbxv1.cognition.run/?sona_id=58047,"en-US,en;q=0.9",lqkqtyrlgxcnbqn,19,"[""White""]",No,Male,NA,No,399507.9000005722,NA,5585,NA,"{""product_choice"":""A""}",choice,tdc,trinary,attraction,1,televisions,null,null,null,null,null,null,2,60,50,60,50,60,40,Screen size,Average lifespan,NA,NA
NA,NA,NA,NA,NA,choice_trial_setup,html-keyboard-response,64,261768,0.0-4.0-0.30,44,1,2025-04-28T16:57:23Z,b60275e29fe2361ab97ac0ac217840d7,"Mozilla/5.0 (Macintosh; Intel Mac OS X 10_15_7) AppleWebKit/537.36 (KHTML, like Gecko) Chrome/135.0.0.0 Safari/537.36",Macintosh,Chrome,135.0.0.0,OS X,10_15_7,https://5puzkbbxv1.cognition.run/?sona_id=58047,"en-US,en;q=0.9",lqkqtyrlgxcnbqn,19,"[""White""]",No,Male,NA,No,399507.9000005722,NA,null,<p></p>,null,choice,ctd,trinary,repulsion_B,1,televisions,null,null,null,null,null,null,2,NA,NA,NA,NA,NA,NA,NA,NA,NA,NA
NA,NA,NA,NA,NA,choice_trial,survey-html-form,65,266417,0.0-4.0-1.30,44,1,2025-04-28T16:57:23Z,b60275e29fe2361ab97ac0ac217840d7,"Mozilla/5.0 (Macintosh; Intel Mac OS X 10_15_7) AppleWebKit/537.36 (KHTML, like Gecko) Chrome/135.0.0.0 Safari/537.36",Macintosh,Chrome,135.0.0.0,OS X,10_15_7,https://5puzkbbxv1.cognition.run/?sona_id=58047,"en-US,en;q=0.9",lqkqtyrlgxcnbqn,19,"[""White""]",No,Male,NA,No,399507.9000005722,NA,4643,NA,"{""product_choice"":""B""}",choice,ctd,trinary,repulsion_B,1,televisions,null,null,null,null,null,null,2,90,100,80,40,30,40,Screen size,Average lifespan,NA,NA
NA,NA,NA,NA,NA,choice_trial_setup,html-keyboard-response,66,266722,0.0-4.0-0.31,44,1,2025-04-28T16:57:23Z,b60275e29fe2361ab97ac0ac217840d7,"Mozilla/5.0 (Macintosh; Intel Mac OS X 10_15_7) AppleWebKit/537.36 (KHTML, like Gecko) Chrome/135.0.0.0 Safari/537.36",Macintosh,Chrome,135.0.0.0,OS X,10_15_7,https://5puzkbbxv1.cognition.run/?sona_id=58047,"en-US,en;q=0.9",lqkqtyrlgxcnbqn,19,"[""White""]",No,Male,NA,No,399507.9000005722,NA,null,<p></p>,null,choice,tcd,trinary,attraction,2,microwave ovens,null,null,null,null,null,null,1,NA,NA,NA,NA,NA,NA,NA,NA,NA,NA
NA,NA,NA,NA,NA,choice_trial,survey-html-form,67,273808,0.0-4.0-1.31,44,1,2025-04-28T16:57:23Z,b60275e29fe2361ab97ac0ac217840d7,"Mozilla/5.0 (Macintosh; Intel Mac OS X 10_15_7) AppleWebKit/537.36 (KHTML, like Gecko) Chrome/135.0.0.0 Safari/537.36",Macintosh,Chrome,135.0.0.0,OS X,10_15_7,https://5puzkbbxv1.cognition.run/?sona_id=58047,"en-US,en;q=0.9",lqkqtyrlgxcnbqn,19,"[""White""]",No,Male,NA,No,399507.9000005722,NA,7081,NA,"{""product_choice"":""A""}",choice,tcd,trinary,attraction,2,microwave ovens,null,null,null,null,null,null,1,50,60,40,60,50,60,Warranty,Cooking power,NA,NA
NA,NA,NA,NA,NA,choice_trial_setup,html-keyboard-response,68,274112,0.0-4.0-0.32,44,1,2025-04-28T16:57:23Z,b60275e29fe2361ab97ac0ac217840d7,"Mozilla/5.0 (Macintosh; Intel Mac OS X 10_15_7) AppleWebKit/537.36 (KHTML, like Gecko) Chrome/135.0.0.0 Safari/537.36",Macintosh,Chrome,135.0.0.0,OS X,10_15_7,https://5puzkbbxv1.cognition.run/?sona_id=58047,"en-US,en;q=0.9",lqkqtyrlgxcnbqn,19,"[""White""]",No,Male,NA,No,399507.9000005722,NA,null,<p></p>,null,choice,wb,binary,catch,null,microwave ovens,70,70,45,40,null,null,1,NA,NA,NA,NA,NA,NA,NA,NA,NA,NA
NA,NA,NA,NA,NA,choice_trial,survey-html-form,69,290056,0.0-4.0-1.32,44,1,2025-04-28T16:57:23Z,b60275e29fe2361ab97ac0ac217840d7,"Mozilla/5.0 (Macintosh; Intel Mac OS X 10_15_7) AppleWebKit/537.36 (KHTML, like Gecko) Chrome/135.0.0.0 Safari/537.36",Macintosh,Chrome,135.0.0.0,OS X,10_15_7,https://5puzkbbxv1.cognition.run/?sona_id=58047,"en-US,en;q=0.9",lqkqtyrlgxcnbqn,19,"[""White""]",No,Male,NA,No,399507.9000005722,NA,15939,NA,"{""product_choice"":""B""}",choice,wb,binary,catch,null,microwave ovens,70,70,45,40,null,null,1,null,null,null,null,null,null,Warranty,Cooking power,NA,NA
NA,NA,NA,NA,NA,choice_trial_setup,html-keyboard-response,70,290362,0.0-4.0-0.33,44,1,2025-04-28T16:57:23Z,b60275e29fe2361ab97ac0ac217840d7,"Mozilla/5.0 (Macintosh; Intel Mac OS X 10_15_7) AppleWebKit/537.36 (KHTML, like Gecko) Chrome/135.0.0.0 Safari/537.36",Macintosh,Chrome,135.0.0.0,OS X,10_15_7,https://5puzkbbxv1.cognition.run/?sona_id=58047,"en-US,en;q=0.9",lqkqtyrlgxcnbqn,19,"[""White""]",No,Male,NA,No,399507.9000005722,NA,null,<p></p>,null,choice,ctd,trinary,repulsion_B,1,microwave ovens,null,null,null,null,null,null,2,NA,NA,NA,NA,NA,NA,NA,NA,NA,NA
NA,NA,NA,NA,NA,choice_trial,survey-html-form,71,294726,0.0-4.0-1.33,44,1,2025-04-28T16:57:23Z,b60275e29fe2361ab97ac0ac217840d7,"Mozilla/5.0 (Macintosh; Intel Mac OS X 10_15_7) AppleWebKit/537.36 (KHTML, like Gecko) Chrome/135.0.0.0 Safari/537.36",Macintosh,Chrome,135.0.0.0,OS X,10_15_7,https://5puzkbbxv1.cognition.run/?sona_id=58047,"en-US,en;q=0.9",lqkqtyrlgxcnbqn,19,"[""White""]",No,Male,NA,No,399507.9000005722,NA,4357,NA,"{""product_choice"":""B""}",choice,ctd,trinary,repulsion_B,1,microwave ovens,null,null,null,null,null,null,2,90,100,80,40,30,40,Warranty,Cooking power,NA,NA
NA,NA,NA,NA,NA,choice_trial_setup,html-keyboard-response,72,295031,0.0-4.0-0.34,44,1,2025-04-28T16:57:23Z,b60275e29fe2361ab97ac0ac217840d7,"Mozilla/5.0 (Macintosh; Intel Mac OS X 10_15_7) AppleWebKit/537.36 (KHTML, like Gecko) Chrome/135.0.0.0 Safari/537.36",Macintosh,Chrome,135.0.0.0,OS X,10_15_7,https://5puzkbbxv1.cognition.run/?sona_id=58047,"en-US,en;q=0.9",lqkqtyrlgxcnbqn,19,"[""White""]",No,Male,NA,No,399507.9000005722,NA,null,<p></p>,null,choice,tdc,trinary,attraction,2,washing machines,null,null,null,null,null,null,1,NA,NA,NA,NA,NA,NA,NA,NA,NA,NA
NA,NA,NA,NA,NA,choice_trial,survey-html-form,73,297552,0.0-4.0-1.34,44,1,2025-04-28T16:57:23Z,b60275e29fe2361ab97ac0ac217840d7,"Mozilla/5.0 (Macintosh; Intel Mac OS X 10_15_7) AppleWebKit/537.36 (KHTML, like Gecko) Chrome/135.0.0.0 Safari/537.36",Macintosh,Chrome,135.0.0.0,OS X,10_15_7,https://5puzkbbxv1.cognition.run/?sona_id=58047,"en-US,en;q=0.9",lqkqtyrlgxcnbqn,19,"[""White""]",No,Male,NA,No,399507.9000005722,NA,2516,NA,"{""product_choice"":""C""}",choice,tdc,trinary,attraction,2,washing machines,null,null,null,null,null,null,1,50,60,40,60,50,60,Average lifespan,Energy savings,NA,NA
NA,NA,NA,NA,NA,choice_trial_setup,html-keyboard-response,74,297857,0.0-4.0-0.35,44,1,2025-04-28T16:57:23Z,b60275e29fe2361ab97ac0ac217840d7,"Mozilla/5.0 (Macintosh; Intel Mac OS X 10_15_7) AppleWebKit/537.36 (KHTML, like Gecko) Chrome/135.0.0.0 Safari/537.36",Macintosh,Chrome,135.0.0.0,OS X,10_15_7,https://5puzkbbxv1.cognition.run/?sona_id=58047,"en-US,en;q=0.9",lqkqtyrlgxcnbqn,19,"[""White""]",No,Male,NA,No,399507.9000005722,NA,null,<p></p>,null,choice,tcd,trinary,repulsion_A,1,laptops,null,null,null,null,null,null,2,NA,NA,NA,NA,NA,NA,NA,NA,NA,NA
NA,NA,NA,NA,NA,choice_trial,survey-html-form,75,300539,0.0-4.0-1.35,44,1,2025-04-28T16:57:23Z,b60275e29fe2361ab97ac0ac217840d7,"Mozilla/5.0 (Macintosh; Intel Mac OS X 10_15_7) AppleWebKit/537.36 (KHTML, like Gecko) Chrome/135.0.0.0 Safari/537.36",Macintosh,Chrome,135.0.0.0,OS X,10_15_7,https://5puzkbbxv1.cognition.run/?sona_id=58047,"en-US,en;q=0.9",lqkqtyrlgxcnbqn,19,"[""White""]",No,Male,NA,No,399507.9000005722,NA,2676,NA,"{""product_choice"":""B""}",choice,tcd,trinary,repulsion_A,1,laptops,null,null,null,null,null,null,2,100,90,100,30,40,20,Processing speed,Memory (RAM),NA,NA
NA,NA,NA,NA,NA,choice_trial_setup,html-keyboard-response,76,300844,0.0-4.0-0.36,44,1,2025-04-28T16:57:23Z,b60275e29fe2361ab97ac0ac217840d7,"Mozilla/5.0 (Macintosh; Intel Mac OS X 10_15_7) AppleWebKit/537.36 (KHTML, like Gecko) Chrome/135.0.0.0 Safari/537.36",Macintosh,Chrome,135.0.0.0,OS X,10_15_7,https://5puzkbbxv1.cognition.run/?sona_id=58047,"en-US,en;q=0.9",lqkqtyrlgxcnbqn,19,"[""White""]",No,Male,NA,No,399507.9000005722,NA,null,<p></p>,null,choice,dtc,trinary,repulsion_A,1,washing machines,null,null,null,null,null,null,1,NA,NA,NA,NA,NA,NA,NA,NA,NA,NA
NA,NA,NA,NA,NA,choice_trial,survey-html-form,77,306767,0.0-4.0-1.36,44,1,2025-04-28T16:57:23Z,b60275e29fe2361ab97ac0ac217840d7,"Mozilla/5.0 (Macintosh; Intel Mac OS X 10_15_7) AppleWebKit/537.36 (KHTML, like Gecko) Chrome/135.0.0.0 Safari/537.36",Macintosh,Chrome,135.0.0.0,OS X,10_15_7,https://5puzkbbxv1.cognition.run/?sona_id=58047,"en-US,en;q=0.9",lqkqtyrlgxcnbqn,19,"[""White""]",No,Male,NA,No,399507.9000005722,NA,5917,NA,"{""product_choice"":""C""}",choice,dtc,trinary,repulsion_A,1,washing machines,null,null,null,null,null,null,1,100,90,100,30,40,20,Average lifespan,Energy savings,NA,NA
NA,NA,NA,NA,NA,choice_trial_setup,html-keyboard-response,78,307071,0.0-4.0-0.37,44,1,2025-04-28T16:57:23Z,b60275e29fe2361ab97ac0ac217840d7,"Mozilla/5.0 (Macintosh; Intel Mac OS X 10_15_7) AppleWebKit/537.36 (KHTML, like Gecko) Chrome/135.0.0.0 Safari/537.36",Macintosh,Chrome,135.0.0.0,OS X,10_15_7,https://5puzkbbxv1.cognition.run/?sona_id=58047,"en-US,en;q=0.9",lqkqtyrlgxcnbqn,19,"[""White""]",No,Male,NA,No,399507.9000005722,NA,null,<p></p>,null,choice,wb,binary,catch,null,televisions,90,90,40,50,null,null,1,NA,NA,NA,NA,NA,NA,NA,NA,NA,NA
NA,NA,NA,NA,NA,choice_trial,survey-html-form,79,310613,0.0-4.0-1.37,44,1,2025-04-28T16:57:23Z,b60275e29fe2361ab97ac0ac217840d7,"Mozilla/5.0 (Macintosh; Intel Mac OS X 10_15_7) AppleWebKit/537.36 (KHTML, like Gecko) Chrome/135.0.0.0 Safari/537.36",Macintosh,Chrome,135.0.0.0,OS X,10_15_7,https://5puzkbbxv1.cognition.run/?sona_id=58047,"en-US,en;q=0.9",lqkqtyrlgxcnbqn,19,"[""White""]",No,Male,NA,No,399507.9000005722,NA,3536,NA,"{""product_choice"":""B""}",choice,wb,binary,catch,null,televisions,90,90,40,50,null,null,1,null,null,null,null,null,null,Screen size,Average lifespan,NA,NA
NA,NA,NA,NA,NA,choice_trial_setup,html-keyboard-response,80,310919,0.0-4.0-0.38,44,1,2025-04-28T16:57:23Z,b60275e29fe2361ab97ac0ac217840d7,"Mozilla/5.0 (Macintosh; Intel Mac OS X 10_15_7) AppleWebKit/537.36 (KHTML, like Gecko) Chrome/135.0.0.0 Safari/537.36",Macintosh,Chrome,135.0.0.0,OS X,10_15_7,https://5puzkbbxv1.cognition.run/?sona_id=58047,"en-US,en;q=0.9",lqkqtyrlgxcnbqn,19,"[""White""]",No,Male,NA,No,399507.9000005722,NA,null,<p></p>,null,choice,wwb,trinary,catch,null,laptops,95,50,20,45,20,45,1,NA,NA,NA,NA,NA,NA,NA,NA,NA,NA
NA,NA,NA,NA,NA,choice_trial,survey-html-form,81,315191,0.0-4.0-1.38,44,1,2025-04-28T16:57:23Z,b60275e29fe2361ab97ac0ac217840d7,"Mozilla/5.0 (Macintosh; Intel Mac OS X 10_15_7) AppleWebKit/537.36 (KHTML, like Gecko) Chrome/135.0.0.0 Safari/537.36",Macintosh,Chrome,135.0.0.0,OS X,10_15_7,https://5puzkbbxv1.cognition.run/?sona_id=58047,"en-US,en;q=0.9",lqkqtyrlgxcnbqn,19,"[""White""]",No,Male,NA,No,399507.9000005722,NA,4267,NA,"{""product_choice"":""C""}",choice,wwb,trinary,catch,null,laptops,95,50,20,45,20,45,1,null,null,null,null,null,null,Processing speed,Memory (RAM),NA,NA
NA,NA,NA,NA,NA,choice_trial_setup,html-keyboard-response,82,315497,0.0-4.0-0.39,44,1,2025-04-28T16:57:23Z,b60275e29fe2361ab97ac0ac217840d7,"Mozilla/5.0 (Macintosh; Intel Mac OS X 10_15_7) AppleWebKit/537.36 (KHTML, like Gecko) Chrome/135.0.0.0 Safari/537.36",Macintosh,Chrome,135.0.0.0,OS X,10_15_7,https://5puzkbbxv1.cognition.run/?sona_id=58047,"en-US,en;q=0.9",lqkqtyrlgxcnbqn,19,"[""White""]",No,Male,NA,No,399507.9000005722,NA,null,<p></p>,null,choice,tc,binary,repulsion,1,laptops,null,null,null,null,null,null,2,NA,NA,NA,NA,NA,NA,NA,NA,NA,NA
NA,NA,NA,NA,NA,choice_trial,survey-html-form,83,318258,0.0-4.0-1.39,44,1,2025-04-28T16:57:23Z,b60275e29fe2361ab97ac0ac217840d7,"Mozilla/5.0 (Macintosh; Intel Mac OS X 10_15_7) AppleWebKit/537.36 (KHTML, like Gecko) Chrome/135.0.0.0 Safari/537.36",Macintosh,Chrome,135.0.0.0,OS X,10_15_7,https://5puzkbbxv1.cognition.run/?sona_id=58047,"en-US,en;q=0.9",lqkqtyrlgxcnbqn,19,"[""White""]",No,Male,NA,No,399507.9000005722,NA,2755,NA,"{""product_choice"":""A""}",choice,tc,binary,repulsion,1,laptops,null,null,null,null,null,null,2,100,90,null,30,40,null,Processing speed,Memory (RAM),NA,NA
NA,NA,NA,NA,NA,choice_trial_setup,html-keyboard-response,84,318563,0.0-4.0-0.40,44,1,2025-04-28T16:57:23Z,b60275e29fe2361ab97ac0ac217840d7,"Mozilla/5.0 (Macintosh; Intel Mac OS X 10_15_7) AppleWebKit/537.36 (KHTML, like Gecko) Chrome/135.0.0.0 Safari/537.36",Macintosh,Chrome,135.0.0.0,OS X,10_15_7,https://5puzkbbxv1.cognition.run/?sona_id=58047,"en-US,en;q=0.9",lqkqtyrlgxcnbqn,19,"[""White""]",No,Male,NA,No,399507.9000005722,NA,null,<p></p>,null,choice,cdt,trinary,repulsion_B,1,washing machines,null,null,null,null,null,null,2,NA,NA,NA,NA,NA,NA,NA,NA,NA,NA
NA,NA,NA,NA,NA,choice_trial,survey-html-form,85,326268,0.0-4.0-1.40,44,1,2025-04-28T16:57:23Z,b60275e29fe2361ab97ac0ac217840d7,"Mozilla/5.0 (Macintosh; Intel Mac OS X 10_15_7) AppleWebKit/537.36 (KHTML, like Gecko) Chrome/135.0.0.0 Safari/537.36",Macintosh,Chrome,135.0.0.0,OS X,10_15_7,https://5puzkbbxv1.cognition.run/?sona_id=58047,"en-US,en;q=0.9",lqkqtyrlgxcnbqn,19,"[""White""]",No,Male,NA,No,399507.9000005722,NA,7700,NA,"{""product_choice"":""C""}",choice,cdt,trinary,repulsion_B,1,washing machines,null,null,null,null,null,null,2,90,100,80,40,30,40,Average lifespan,Energy savings,NA,NA
NA,NA,NA,NA,NA,choice_trial_setup,html-keyboard-response,86,326574,0.0-4.0-0.41,44,1,2025-04-28T16:57:23Z,b60275e29fe2361ab97ac0ac217840d7,"Mozilla/5.0 (Macintosh; Intel Mac OS X 10_15_7) AppleWebKit/537.36 (KHTML, like Gecko) Chrome/135.0.0.0 Safari/537.36",Macintosh,Chrome,135.0.0.0,OS X,10_15_7,https://5puzkbbxv1.cognition.run/?sona_id=58047,"en-US,en;q=0.9",lqkqtyrlgxcnbqn,19,"[""White""]",No,Male,NA,No,399507.9000005722,NA,null,<p></p>,null,choice,ct,binary,attraction,NA,laptops,null,null,null,null,null,null,1,NA,NA,NA,NA,NA,NA,NA,NA,NA,NA
NA,NA,NA,NA,NA,choice_trial,survey-html-form,87,330235,0.0-4.0-1.41,44,1,2025-04-28T16:57:23Z,b60275e29fe2361ab97ac0ac217840d7,"Mozilla/5.0 (Macintosh; Intel Mac OS X 10_15_7) AppleWebKit/537.36 (KHTML, like Gecko) Chrome/135.0.0.0 Safari/537.36",Macintosh,Chrome,135.0.0.0,OS X,10_15_7,https://5puzkbbxv1.cognition.run/?sona_id=58047,"en-US,en;q=0.9",lqkqtyrlgxcnbqn,19,"[""White""]",No,Male,NA,No,399507.9000005722,NA,3653,NA,"{""product_choice"":""A""}",choice,ct,binary,attraction,NA,laptops,null,null,null,null,null,null,1,60,50,null,50,60,null,Processing speed,Memory (RAM),NA,NA
NA,NA,NA,NA,NA,choice_trial_setup,html-keyboard-response,88,330541,0.0-4.0-0.42,44,1,2025-04-28T16:57:23Z,b60275e29fe2361ab97ac0ac217840d7,"Mozilla/5.0 (Macintosh; Intel Mac OS X 10_15_7) AppleWebKit/537.36 (KHTML, like Gecko) Chrome/135.0.0.0 Safari/537.36",Macintosh,Chrome,135.0.0.0,OS X,10_15_7,https://5puzkbbxv1.cognition.run/?sona_id=58047,"en-US,en;q=0.9",lqkqtyrlgxcnbqn,19,"[""White""]",No,Male,NA,No,399507.9000005722,NA,null,<p></p>,null,choice,tcd,trinary,repulsion_B,2,televisions,null,null,null,null,null,null,1,NA,NA,NA,NA,NA,NA,NA,NA,NA,NA
NA,NA,NA,NA,NA,choice_trial,survey-html-form,89,333062,0.0-4.0-1.42,44,1,2025-04-28T16:57:23Z,b60275e29fe2361ab97ac0ac217840d7,"Mozilla/5.0 (Macintosh; Intel Mac OS X 10_15_7) AppleWebKit/537.36 (KHTML, like Gecko) Chrome/135.0.0.0 Safari/537.36",Macintosh,Chrome,135.0.0.0,OS X,10_15_7,https://5puzkbbxv1.cognition.run/?sona_id=58047,"en-US,en;q=0.9",lqkqtyrlgxcnbqn,19,"[""White""]",No,Male,NA,No,399507.9000005722,NA,2515,NA,"{""product_choice"":""A""}",choice,tcd,trinary,repulsion_B,2,televisions,null,null,null,null,null,null,1,40,30,40,90,100,80,Screen size,Average lifespan,NA,NA
NA,NA,NA,NA,NA,choice_trial_setup,html-keyboard-response,90,333367,0.0-4.0-0.43,44,1,2025-04-28T16:57:23Z,b60275e29fe2361ab97ac0ac217840d7,"Mozilla/5.0 (Macintosh; Intel Mac OS X 10_15_7) AppleWebKit/537.36 (KHTML, like Gecko) Chrome/135.0.0.0 Safari/537.36",Macintosh,Chrome,135.0.0.0,OS X,10_15_7,https://5puzkbbxv1.cognition.run/?sona_id=58047,"en-US,en;q=0.9",lqkqtyrlgxcnbqn,19,"[""White""]",No,Male,NA,No,399507.9000005722,NA,null,<p></p>,null,choice,tcd,trinary,repulsion_A,1,microwave ovens,null,null,null,null,null,null,1,NA,NA,NA,NA,NA,NA,NA,NA,NA,NA
NA,NA,NA,NA,NA,choice_trial,survey-html-form,91,338175,0.0-4.0-1.43,44,1,2025-04-28T16:57:23Z,b60275e29fe2361ab97ac0ac217840d7,"Mozilla/5.0 (Macintosh; Intel Mac OS X 10_15_7) AppleWebKit/537.36 (KHTML, like Gecko) Chrome/135.0.0.0 Safari/537.36",Macintosh,Chrome,135.0.0.0,OS X,10_15_7,https://5puzkbbxv1.cognition.run/?sona_id=58047,"en-US,en;q=0.9",lqkqtyrlgxcnbqn,19,"[""White""]",No,Male,NA,No,399507.9000005722,NA,4802,NA,"{""product_choice"":""B""}",choice,tcd,trinary,repulsion_A,1,microwave ovens,null,null,null,null,null,null,1,100,90,100,30,40,20,Warranty,Cooking power,NA,NA
NA,NA,NA,NA,NA,post_trials_message,html-button-response,92,341130,0.0-5.0,44,1,2025-04-28T16:57:23Z,b60275e29fe2361ab97ac0ac217840d7,"Mozilla/5.0 (Macintosh; Intel Mac OS X 10_15_7) AppleWebKit/537.36 (KHTML, like Gecko) Chrome/135.0.0.0 Safari/537.36",Macintosh,Chrome,135.0.0.0,OS X,10_15_7,https://5puzkbbxv1.cognition.run/?sona_id=58047,"en-US,en;q=0.9",lqkqtyrlgxcnbqn,19,"[""White""]",No,Male,NA,No,399507.9000005722,NA,2949,<p> <b>Thank you for your patience!</b></p><p>  The study will be done after completing a brief form. </p>,0,NA,NA,NA,NA,NA,NA,NA,NA,NA,NA,NA,NA,NA,NA,NA,NA,NA,NA,NA,NA,NA,NA,NA
NA,NA,NA,NA,NA,survey_message,survey-text,93,375390,0.0-6.0,44,1,2025-04-28T16:57:23Z,b60275e29fe2361ab97ac0ac217840d7,"Mozilla/5.0 (Macintosh; Intel Mac OS X 10_15_7) AppleWebKit/537.36 (KHTML, like Gecko) Chrome/135.0.0.0 Safari/537.36",Macintosh,Chrome,135.0.0.0,OS X,10_15_7,https://5puzkbbxv1.cognition.run/?sona_id=58047,"en-US,en;q=0.9",lqkqtyrlgxcnbqn,19,"[""White""]",No,Male,NA,No,399507.9000005722,NA,34254,NA,"{""Q0"":""I wanted to find the right balance between the 2 things being desrcibed so I was getting the best possible product each time. ""}",NA,NA,NA,NA,NA,NA,NA,NA,NA,NA,NA,NA,NA,NA,NA,NA,NA,NA,NA,NA,NA,I wanted to find the right balance between the 2 things being desrcibed so I was getting the best possible product each time.,NA
NA,NA,NA,NA,NA,demo_age,survey-text,94,378249,0.0-7.0,44,1,2025-04-28T16:57:23Z,b60275e29fe2361ab97ac0ac217840d7,"Mozilla/5.0 (Macintosh; Intel Mac OS X 10_15_7) AppleWebKit/537.36 (KHTML, like Gecko) Chrome/135.0.0.0 Safari/537.36",Macintosh,Chrome,135.0.0.0,OS X,10_15_7,https://5puzkbbxv1.cognition.run/?sona_id=58047,"en-US,en;q=0.9",lqkqtyrlgxcnbqn,19,"[""White""]",No,Male,NA,No,399507.9000005722,NA,2856,NA,"{""Q0"":""19""}",NA,NA,NA,NA,NA,NA,NA,NA,NA,NA,NA,NA,NA,NA,NA,NA,NA,NA,NA,NA,NA,NA,NA
NA,NA,NA,NA,NA,demo_race,survey-multi-select,95,380441,0.0-8.0,44,1,2025-04-28T16:57:23Z,b60275e29fe2361ab97ac0ac217840d7,"Mozilla/5.0 (Macintosh; Intel Mac OS X 10_15_7) AppleWebKit/537.36 (KHTML, like Gecko) Chrome/135.0.0.0 Safari/537.36",Macintosh,Chrome,135.0.0.0,OS X,10_15_7,https://5puzkbbxv1.cognition.run/?sona_id=58047,"en-US,en;q=0.9",lqkqtyrlgxcnbqn,19,"[""White""]",No,Male,NA,No,399507.9000005722,NA,2188,NA,"{""Q0"":[""White""]}",NA,NA,NA,NA,NA,NA,NA,NA,NA,NA,NA,NA,NA,NA,NA,NA,NA,NA,NA,NA,NA,NA,[0]
NA,NA,NA,NA,NA,demo_ethnicity_gender,survey-multi-choice,96,383927,0.0-9.0,44,1,2025-04-28T16:57:23Z,b60275e29fe2361ab97ac0ac217840d7,"Mozilla/5.0 (Macintosh; Intel Mac OS X 10_15_7) AppleWebKit/537.36 (KHTML, like Gecko) Chrome/135.0.0.0 Safari/537.36",Macintosh,Chrome,135.0.0.0,OS X,10_15_7,https://5puzkbbxv1.cognition.run/?sona_id=58047,"en-US,en;q=0.9",lqkqtyrlgxcnbqn,19,"[""White""]",No,Male,NA,No,399507.9000005722,NA,3481,NA,"{""Q0"":""No"",""Q1"":""Male""}",NA,NA,NA,NA,NA,NA,NA,NA,NA,NA,NA,NA,NA,NA,NA,NA,NA,NA,NA,NA,NA,NA,"[0,1]"
NA,NA,NA,NA,NA,demo_countries,survey-text,97,388658,0.0-10.0,44,1,2025-04-28T16:57:23Z,b60275e29fe2361ab97ac0ac217840d7,"Mozilla/5.0 (Macintosh; Intel Mac OS X 10_15_7) AppleWebKit/537.36 (KHTML, like Gecko) Chrome/135.0.0.0 Safari/537.36",Macintosh,Chrome,135.0.0.0,OS X,10_15_7,https://5puzkbbxv1.cognition.run/?sona_id=58047,"en-US,en;q=0.9",lqkqtyrlgxcnbqn,19,"[""White""]",No,Male,NA,No,399507.9000005722,NA,4721,NA,"{""Q0"":""NA""}",NA,NA,NA,NA,NA,NA,NA,NA,NA,NA,NA,NA,NA,NA,NA,NA,NA,NA,NA,NA,NA,NA,NA
NA,NA,NA,NA,NA,demo_prev_study,survey-multi-choice,98,393762,0.0-11.0,44,1,2025-04-28T16:57:23Z,b60275e29fe2361ab97ac0ac217840d7,"Mozilla/5.0 (Macintosh; Intel Mac OS X 10_15_7) AppleWebKit/537.36 (KHTML, like Gecko) Chrome/135.0.0.0 Safari/537.36",Macintosh,Chrome,135.0.0.0,OS X,10_15_7,https://5puzkbbxv1.cognition.run/?sona_id=58047,"en-US,en;q=0.9",lqkqtyrlgxcnbqn,19,"[""White""]",No,Male,NA,No,399507.9000005722,NA,5100,NA,"{""Q0"":""No""}",NA,NA,NA,NA,NA,NA,NA,NA,NA,NA,NA,NA,NA,NA,NA,NA,NA,NA,NA,NA,NA,NA,[0]
NA,NA,NA,NA,NA,post_survey_message,html-keyboard-response,99,396486,0.0-12.0,44,1,2025-04-28T16:57:23Z,b60275e29fe2361ab97ac0ac217840d7,"Mozilla/5.0 (Macintosh; Intel Mac OS X 10_15_7) AppleWebKit/537.36 (KHTML, like Gecko) Chrome/135.0.0.0 Safari/537.36",Macintosh,Chrome,135.0.0.0,OS X,10_15_7,https://5puzkbbxv1.cognition.run/?sona_id=58047,"en-US,en;q=0.9",lqkqtyrlgxcnbqn,19,"[""White""]",No,Male,NA,No,399507.9000005722,NA,2719,NA,j,NA,NA,NA,NA,NA,NA,NA,NA,NA,NA,NA,NA,NA,NA,NA,NA,NA,NA,NA,NA,NA,NA,NA
NA,NA,NA,NA,NA,debrief,image-keyboard-response,100,399506,0.0-13.0,44,1,2025-04-28T16:57:23Z,b60275e29fe2361ab97ac0ac217840d7,"Mozilla/5.0 (Macintosh; Intel Mac OS X 10_15_7) AppleWebKit/537.36 (KHTML, like Gecko) Chrome/135.0.0.0 Safari/537.36",Macintosh,Chrome,135.0.0.0,OS X,10_15_7,https://5puzkbbxv1.cognition.run/?sona_id=58047,"en-US,en;q=0.9",lqkqtyrlgxcnbqn,19,"[""White""]",No,Male,NA,No,399507.9000005722,NA,3011,Judg_choice_debrief.png,p,NA,NA,NA,NA,NA,NA,NA,NA,NA,NA,NA,NA,NA,NA,NA,NA,NA,NA,NA,NA,NA,NA,NA
