success,timeout,failed_images,failed_audio,failed_video,screen_id,trial_type,trial_index,time_elapsed,internal_node_id,run_id,condition,recorded_at,source_code_version,user_agent,device,browser,browser_version,platform,platform_version,referer,accept_language,ppt_id,age,race,ethnicity,gender,other_countries,prev_study,exp_duration,view_history,rt,stimulus,response,phase,order,set,effect,t_high,category,d1_best,d2_best,d1_worst1,d2_worst1,d1_worst2,d2_worst2,first_dim,d1_t,d1_c,d1_d,d2_t,d2_c,d2_d,d1_name,d2_name,strategy_response,question_order
TRUE,FALSE,[],[],[],img preload,preload,0,545,0.0-0.0,47,1,2025-04-28T17:09:53Z,b60275e29fe2361ab97ac0ac217840d7,"Mozilla/5.0 (Macintosh; Intel Mac OS X 10_15_7) AppleWebKit/537.36 (KHTML, like Gecko) Chrome/132.0.0.0 Safari/537.36",Macintosh,Chrome,132.0.0.0,OS X,10_15_7,https://5puzkbbxv1.cognition.run/?sona_id=57505,"en-US,en;q=0.9",3zg1nat1wdopsgo,18,"[""White""]",No,Male,NA,No,694930.5999999046,NA,NA,NA,NA,NA,NA,NA,NA,NA,NA,NA,NA,NA,NA,NA,NA,NA,NA,NA,NA,NA,NA,NA,NA,NA,NA,NA
NA,NA,NA,NA,NA,computer_message,instructions,1,1958,0.0-1.0,47,1,2025-04-28T17:09:53Z,b60275e29fe2361ab97ac0ac217840d7,"Mozilla/5.0 (Macintosh; Intel Mac OS X 10_15_7) AppleWebKit/537.36 (KHTML, like Gecko) Chrome/132.0.0.0 Safari/537.36",Macintosh,Chrome,132.0.0.0,OS X,10_15_7,https://5puzkbbxv1.cognition.run/?sona_id=57505,"en-US,en;q=0.9",3zg1nat1wdopsgo,18,"[""White""]",No,Male,NA,No,694930.5999999046,"[{""page_index"":0,""viewing_time"":1412}]",1412,NA,NA,NA,NA,NA,NA,NA,NA,NA,NA,NA,NA,NA,NA,NA,NA,NA,NA,NA,NA,NA,NA,NA,NA,NA
TRUE,NA,NA,NA,NA,NA,fullscreen,2,12812,0.0-2.0,47,1,2025-04-28T17:09:53Z,b60275e29fe2361ab97ac0ac217840d7,"Mozilla/5.0 (Macintosh; Intel Mac OS X 10_15_7) AppleWebKit/537.36 (KHTML, like Gecko) Chrome/132.0.0.0 Safari/537.36",Macintosh,Chrome,132.0.0.0,OS X,10_15_7,https://5puzkbbxv1.cognition.run/?sona_id=57505,"en-US,en;q=0.9",3zg1nat1wdopsgo,18,"[""White""]",No,Male,NA,No,694930.5999999046,NA,9851,NA,NA,NA,NA,NA,NA,NA,NA,NA,NA,NA,NA,NA,NA,NA,NA,NA,NA,NA,NA,NA,NA,NA,NA,NA
NA,NA,NA,NA,NA,choice_instructions,instructions,3,111958,0.0-3.0,47,1,2025-04-28T17:09:53Z,b60275e29fe2361ab97ac0ac217840d7,"Mozilla/5.0 (Macintosh; Intel Mac OS X 10_15_7) AppleWebKit/537.36 (KHTML, like Gecko) Chrome/132.0.0.0 Safari/537.36",Macintosh,Chrome,132.0.0.0,OS X,10_15_7,https://5puzkbbxv1.cognition.run/?sona_id=57505,"en-US,en;q=0.9",3zg1nat1wdopsgo,18,"[""White""]",No,Male,NA,No,694930.5999999046,"[{""page_index"":0,""viewing_time"":4927},{""page_index"":1,""viewing_time"":1985},{""page_index"":2,""viewing_time"":1082},{""page_index"":3,""viewing_time"":800},{""page_index"":4,""viewing_time"":484},{""page_index"":5,""viewing_time"":3250},{""page_index"":4,""viewing_time"":1300},{""page_index"":5,""viewing_time"":81720},{""page_index"":6,""viewing_time"":3600}]",99148,NA,NA,NA,NA,NA,NA,NA,NA,NA,NA,NA,NA,NA,NA,NA,NA,NA,NA,NA,NA,NA,NA,NA,NA,NA
NA,NA,NA,NA,NA,choice_trial_setup,html-keyboard-response,4,112261,0.0-4.0-0.0,47,1,2025-04-28T17:09:53Z,b60275e29fe2361ab97ac0ac217840d7,"Mozilla/5.0 (Macintosh; Intel Mac OS X 10_15_7) AppleWebKit/537.36 (KHTML, like Gecko) Chrome/132.0.0.0 Safari/537.36",Macintosh,Chrome,132.0.0.0,OS X,10_15_7,https://5puzkbbxv1.cognition.run/?sona_id=57505,"en-US,en;q=0.9",3zg1nat1wdopsgo,18,"[""White""]",No,Male,NA,No,694930.5999999046,NA,null,<p></p>,null,choice,ctd,trinary,repulsion_A,1,microwave ovens,null,null,null,null,null,null,1,NA,NA,NA,NA,NA,NA,NA,NA,NA,NA
NA,NA,NA,NA,NA,choice_trial,survey-html-form,5,137025,0.0-4.0-1.0,47,1,2025-04-28T17:09:53Z,b60275e29fe2361ab97ac0ac217840d7,"Mozilla/5.0 (Macintosh; Intel Mac OS X 10_15_7) AppleWebKit/537.36 (KHTML, like Gecko) Chrome/132.0.0.0 Safari/537.36",Macintosh,Chrome,132.0.0.0,OS X,10_15_7,https://5puzkbbxv1.cognition.run/?sona_id=57505,"en-US,en;q=0.9",3zg1nat1wdopsgo,18,"[""White""]",No,Male,NA,No,694930.5999999046,NA,24759,NA,"{""product_choice"":""A""}",choice,ctd,trinary,repulsion_A,1,microwave ovens,null,null,null,null,null,null,1,100,90,100,30,40,20,Warranty,Cooking power,NA,NA
NA,NA,NA,NA,NA,choice_trial_setup,html-keyboard-response,6,137328,0.0-4.0-0.1,47,1,2025-04-28T17:09:53Z,b60275e29fe2361ab97ac0ac217840d7,"Mozilla/5.0 (Macintosh; Intel Mac OS X 10_15_7) AppleWebKit/537.36 (KHTML, like Gecko) Chrome/132.0.0.0 Safari/537.36",Macintosh,Chrome,132.0.0.0,OS X,10_15_7,https://5puzkbbxv1.cognition.run/?sona_id=57505,"en-US,en;q=0.9",3zg1nat1wdopsgo,18,"[""White""]",No,Male,NA,No,694930.5999999046,NA,null,<p></p>,null,choice,dtc,trinary,attraction,1,microwave ovens,null,null,null,null,null,null,1,NA,NA,NA,NA,NA,NA,NA,NA,NA,NA
NA,NA,NA,NA,NA,choice_trial,survey-html-form,7,146658,0.0-4.0-1.1,47,1,2025-04-28T17:09:53Z,b60275e29fe2361ab97ac0ac217840d7,"Mozilla/5.0 (Macintosh; Intel Mac OS X 10_15_7) AppleWebKit/537.36 (KHTML, like Gecko) Chrome/132.0.0.0 Safari/537.36",Macintosh,Chrome,132.0.0.0,OS X,10_15_7,https://5puzkbbxv1.cognition.run/?sona_id=57505,"en-US,en;q=0.9",3zg1nat1wdopsgo,18,"[""White""]",No,Male,NA,No,694930.5999999046,NA,9327,NA,"{""product_choice"":""C""}",choice,dtc,trinary,attraction,1,microwave ovens,null,null,null,null,null,null,1,60,50,60,50,60,40,Warranty,Cooking power,NA,NA
NA,NA,NA,NA,NA,choice_trial_setup,html-keyboard-response,8,146961,0.0-4.0-0.2,47,1,2025-04-28T17:09:53Z,b60275e29fe2361ab97ac0ac217840d7,"Mozilla/5.0 (Macintosh; Intel Mac OS X 10_15_7) AppleWebKit/537.36 (KHTML, like Gecko) Chrome/132.0.0.0 Safari/537.36",Macintosh,Chrome,132.0.0.0,OS X,10_15_7,https://5puzkbbxv1.cognition.run/?sona_id=57505,"en-US,en;q=0.9",3zg1nat1wdopsgo,18,"[""White""]",No,Male,NA,No,694930.5999999046,NA,null,<p></p>,null,choice,tcd,trinary,repulsion_A,1,washing machines,null,null,null,null,null,null,1,NA,NA,NA,NA,NA,NA,NA,NA,NA,NA
NA,NA,NA,NA,NA,choice_trial,survey-html-form,9,155626,0.0-4.0-1.2,47,1,2025-04-28T17:09:53Z,b60275e29fe2361ab97ac0ac217840d7,"Mozilla/5.0 (Macintosh; Intel Mac OS X 10_15_7) AppleWebKit/537.36 (KHTML, like Gecko) Chrome/132.0.0.0 Safari/537.36",Macintosh,Chrome,132.0.0.0,OS X,10_15_7,https://5puzkbbxv1.cognition.run/?sona_id=57505,"en-US,en;q=0.9",3zg1nat1wdopsgo,18,"[""White""]",No,Male,NA,No,694930.5999999046,NA,8661,NA,"{""product_choice"":""B""}",choice,tcd,trinary,repulsion_A,1,washing machines,null,null,null,null,null,null,1,100,90,100,30,40,20,Average lifespan,Energy savings,NA,NA
NA,NA,NA,NA,NA,choice_trial_setup,html-keyboard-response,10,155928,0.0-4.0-0.3,47,1,2025-04-28T17:09:53Z,b60275e29fe2361ab97ac0ac217840d7,"Mozilla/5.0 (Macintosh; Intel Mac OS X 10_15_7) AppleWebKit/537.36 (KHTML, like Gecko) Chrome/132.0.0.0 Safari/537.36",Macintosh,Chrome,132.0.0.0,OS X,10_15_7,https://5puzkbbxv1.cognition.run/?sona_id=57505,"en-US,en;q=0.9",3zg1nat1wdopsgo,18,"[""White""]",No,Male,NA,No,694930.5999999046,NA,null,<p></p>,null,choice,ctd,trinary,attraction,1,laptops,null,null,null,null,null,null,1,NA,NA,NA,NA,NA,NA,NA,NA,NA,NA
NA,NA,NA,NA,NA,choice_trial,survey-html-form,11,164925,0.0-4.0-1.3,47,1,2025-04-28T17:09:53Z,b60275e29fe2361ab97ac0ac217840d7,"Mozilla/5.0 (Macintosh; Intel Mac OS X 10_15_7) AppleWebKit/537.36 (KHTML, like Gecko) Chrome/132.0.0.0 Safari/537.36",Macintosh,Chrome,132.0.0.0,OS X,10_15_7,https://5puzkbbxv1.cognition.run/?sona_id=57505,"en-US,en;q=0.9",3zg1nat1wdopsgo,18,"[""White""]",No,Male,NA,No,694930.5999999046,NA,8994,NA,"{""product_choice"":""A""}",choice,ctd,trinary,attraction,1,laptops,null,null,null,null,null,null,1,60,50,60,50,60,40,Processing speed,Memory (RAM),NA,NA
NA,NA,NA,NA,NA,choice_trial_setup,html-keyboard-response,12,165227,0.0-4.0-0.4,47,1,2025-04-28T17:09:53Z,b60275e29fe2361ab97ac0ac217840d7,"Mozilla/5.0 (Macintosh; Intel Mac OS X 10_15_7) AppleWebKit/537.36 (KHTML, like Gecko) Chrome/132.0.0.0 Safari/537.36",Macintosh,Chrome,132.0.0.0,OS X,10_15_7,https://5puzkbbxv1.cognition.run/?sona_id=57505,"en-US,en;q=0.9",3zg1nat1wdopsgo,18,"[""White""]",No,Male,NA,No,694930.5999999046,NA,null,<p></p>,null,choice,dtc,trinary,repulsion_B,2,microwave ovens,null,null,null,null,null,null,2,NA,NA,NA,NA,NA,NA,NA,NA,NA,NA
NA,NA,NA,NA,NA,choice_trial,survey-html-form,13,175593,0.0-4.0-1.4,47,1,2025-04-28T17:09:53Z,b60275e29fe2361ab97ac0ac217840d7,"Mozilla/5.0 (Macintosh; Intel Mac OS X 10_15_7) AppleWebKit/537.36 (KHTML, like Gecko) Chrome/132.0.0.0 Safari/537.36",Macintosh,Chrome,132.0.0.0,OS X,10_15_7,https://5puzkbbxv1.cognition.run/?sona_id=57505,"en-US,en;q=0.9",3zg1nat1wdopsgo,18,"[""White""]",No,Male,NA,No,694930.5999999046,NA,10363,NA,"{""product_choice"":""B""}",choice,dtc,trinary,repulsion_B,2,microwave ovens,null,null,null,null,null,null,2,40,30,40,90,100,80,Warranty,Cooking power,NA,NA
NA,NA,NA,NA,NA,choice_trial_setup,html-keyboard-response,14,175896,0.0-4.0-0.5,47,1,2025-04-28T17:09:53Z,b60275e29fe2361ab97ac0ac217840d7,"Mozilla/5.0 (Macintosh; Intel Mac OS X 10_15_7) AppleWebKit/537.36 (KHTML, like Gecko) Chrome/132.0.0.0 Safari/537.36",Macintosh,Chrome,132.0.0.0,OS X,10_15_7,https://5puzkbbxv1.cognition.run/?sona_id=57505,"en-US,en;q=0.9",3zg1nat1wdopsgo,18,"[""White""]",No,Male,NA,No,694930.5999999046,NA,null,<p></p>,null,choice,wb,binary,catch,null,washing machines,95,85,50,10,null,null,1,NA,NA,NA,NA,NA,NA,NA,NA,NA,NA
NA,NA,NA,NA,NA,choice_trial,survey-html-form,15,211392,0.0-4.0-1.5,47,1,2025-04-28T17:09:53Z,b60275e29fe2361ab97ac0ac217840d7,"Mozilla/5.0 (Macintosh; Intel Mac OS X 10_15_7) AppleWebKit/537.36 (KHTML, like Gecko) Chrome/132.0.0.0 Safari/537.36",Macintosh,Chrome,132.0.0.0,OS X,10_15_7,https://5puzkbbxv1.cognition.run/?sona_id=57505,"en-US,en;q=0.9",3zg1nat1wdopsgo,18,"[""White""]",No,Male,NA,No,694930.5999999046,NA,35492,NA,"{""product_choice"":""B""}",choice,wb,binary,catch,null,washing machines,95,85,50,10,null,null,1,null,null,null,null,null,null,Average lifespan,Energy savings,NA,NA
NA,NA,NA,NA,NA,choice_trial_setup,html-keyboard-response,16,211696,0.0-4.0-0.6,47,1,2025-04-28T17:09:53Z,b60275e29fe2361ab97ac0ac217840d7,"Mozilla/5.0 (Macintosh; Intel Mac OS X 10_15_7) AppleWebKit/537.36 (KHTML, like Gecko) Chrome/132.0.0.0 Safari/537.36",Macintosh,Chrome,132.0.0.0,OS X,10_15_7,https://5puzkbbxv1.cognition.run/?sona_id=57505,"en-US,en;q=0.9",3zg1nat1wdopsgo,18,"[""White""]",No,Male,NA,No,694930.5999999046,NA,null,<p></p>,null,choice,dct,trinary,repulsion_A,2,washing machines,null,null,null,null,null,null,1,NA,NA,NA,NA,NA,NA,NA,NA,NA,NA
NA,NA,NA,NA,NA,choice_trial,survey-html-form,17,226091,0.0-4.0-1.6,47,1,2025-04-28T17:09:53Z,b60275e29fe2361ab97ac0ac217840d7,"Mozilla/5.0 (Macintosh; Intel Mac OS X 10_15_7) AppleWebKit/537.36 (KHTML, like Gecko) Chrome/132.0.0.0 Safari/537.36",Macintosh,Chrome,132.0.0.0,OS X,10_15_7,https://5puzkbbxv1.cognition.run/?sona_id=57505,"en-US,en;q=0.9",3zg1nat1wdopsgo,18,"[""White""]",No,Male,NA,No,694930.5999999046,NA,14392,NA,"{""product_choice"":""B""}",choice,dct,trinary,repulsion_A,2,washing machines,null,null,null,null,null,null,1,30,40,20,100,90,100,Average lifespan,Energy savings,NA,NA
NA,NA,NA,NA,NA,choice_trial_setup,html-keyboard-response,18,226394,0.0-4.0-0.7,47,1,2025-04-28T17:09:53Z,b60275e29fe2361ab97ac0ac217840d7,"Mozilla/5.0 (Macintosh; Intel Mac OS X 10_15_7) AppleWebKit/537.36 (KHTML, like Gecko) Chrome/132.0.0.0 Safari/537.36",Macintosh,Chrome,132.0.0.0,OS X,10_15_7,https://5puzkbbxv1.cognition.run/?sona_id=57505,"en-US,en;q=0.9",3zg1nat1wdopsgo,18,"[""White""]",No,Male,NA,No,694930.5999999046,NA,null,<p></p>,null,choice,tc,binary,attraction,NA,microwave ovens,null,null,null,null,null,null,2,NA,NA,NA,NA,NA,NA,NA,NA,NA,NA
NA,NA,NA,NA,NA,choice_trial,survey-html-form,19,230574,0.0-4.0-1.7,47,1,2025-04-28T17:09:53Z,b60275e29fe2361ab97ac0ac217840d7,"Mozilla/5.0 (Macintosh; Intel Mac OS X 10_15_7) AppleWebKit/537.36 (KHTML, like Gecko) Chrome/132.0.0.0 Safari/537.36",Macintosh,Chrome,132.0.0.0,OS X,10_15_7,https://5puzkbbxv1.cognition.run/?sona_id=57505,"en-US,en;q=0.9",3zg1nat1wdopsgo,18,"[""White""]",No,Male,NA,No,694930.5999999046,NA,4178,NA,"{""product_choice"":""B""}",choice,tc,binary,attraction,NA,microwave ovens,null,null,null,null,null,null,2,60,50,null,50,60,null,Warranty,Cooking power,NA,NA
NA,NA,NA,NA,NA,choice_trial_setup,html-keyboard-response,20,230877,0.0-4.0-0.8,47,1,2025-04-28T17:09:53Z,b60275e29fe2361ab97ac0ac217840d7,"Mozilla/5.0 (Macintosh; Intel Mac OS X 10_15_7) AppleWebKit/537.36 (KHTML, like Gecko) Chrome/132.0.0.0 Safari/537.36",Macintosh,Chrome,132.0.0.0,OS X,10_15_7,https://5puzkbbxv1.cognition.run/?sona_id=57505,"en-US,en;q=0.9",3zg1nat1wdopsgo,18,"[""White""]",No,Male,NA,No,694930.5999999046,NA,null,<p></p>,null,choice,tc,binary,repulsion,2,televisions,null,null,null,null,null,null,2,NA,NA,NA,NA,NA,NA,NA,NA,NA,NA
NA,NA,NA,NA,NA,choice_trial,survey-html-form,21,349174,0.0-4.0-1.8,47,1,2025-04-28T17:09:53Z,b60275e29fe2361ab97ac0ac217840d7,"Mozilla/5.0 (Macintosh; Intel Mac OS X 10_15_7) AppleWebKit/537.36 (KHTML, like Gecko) Chrome/132.0.0.0 Safari/537.36",Macintosh,Chrome,132.0.0.0,OS X,10_15_7,https://5puzkbbxv1.cognition.run/?sona_id=57505,"en-US,en;q=0.9",3zg1nat1wdopsgo,18,"[""White""]",No,Male,NA,No,694930.5999999046,NA,118297,NA,"{""product_choice"":""B""}",choice,tc,binary,repulsion,2,televisions,null,null,null,null,null,null,2,30,40,null,100,90,null,Screen size,Average lifespan,NA,NA
NA,NA,NA,NA,NA,choice_trial_setup,html-keyboard-response,22,349479,0.0-4.0-0.9,47,1,2025-04-28T17:09:53Z,b60275e29fe2361ab97ac0ac217840d7,"Mozilla/5.0 (Macintosh; Intel Mac OS X 10_15_7) AppleWebKit/537.36 (KHTML, like Gecko) Chrome/132.0.0.0 Safari/537.36",Macintosh,Chrome,132.0.0.0,OS X,10_15_7,https://5puzkbbxv1.cognition.run/?sona_id=57505,"en-US,en;q=0.9",3zg1nat1wdopsgo,18,"[""White""]",No,Male,NA,No,694930.5999999046,NA,null,<p></p>,null,choice,tcd,trinary,repulsion_B,2,laptops,null,null,null,null,null,null,1,NA,NA,NA,NA,NA,NA,NA,NA,NA,NA
NA,NA,NA,NA,NA,choice_trial,survey-html-form,23,355090,0.0-4.0-1.9,47,1,2025-04-28T17:09:53Z,b60275e29fe2361ab97ac0ac217840d7,"Mozilla/5.0 (Macintosh; Intel Mac OS X 10_15_7) AppleWebKit/537.36 (KHTML, like Gecko) Chrome/132.0.0.0 Safari/537.36",Macintosh,Chrome,132.0.0.0,OS X,10_15_7,https://5puzkbbxv1.cognition.run/?sona_id=57505,"en-US,en;q=0.9",3zg1nat1wdopsgo,18,"[""White""]",No,Male,NA,No,694930.5999999046,NA,5607,NA,"{""product_choice"":""A""}",choice,tcd,trinary,repulsion_B,2,laptops,null,null,null,null,null,null,1,40,30,40,90,100,80,Processing speed,Memory (RAM),NA,NA
NA,NA,NA,NA,NA,choice_trial_setup,html-keyboard-response,24,355394,0.0-4.0-0.10,47,1,2025-04-28T17:09:53Z,b60275e29fe2361ab97ac0ac217840d7,"Mozilla/5.0 (Macintosh; Intel Mac OS X 10_15_7) AppleWebKit/537.36 (KHTML, like Gecko) Chrome/132.0.0.0 Safari/537.36",Macintosh,Chrome,132.0.0.0,OS X,10_15_7,https://5puzkbbxv1.cognition.run/?sona_id=57505,"en-US,en;q=0.9",3zg1nat1wdopsgo,18,"[""White""]",No,Male,NA,No,694930.5999999046,NA,null,<p></p>,null,choice,ct,binary,repulsion,1,microwave ovens,null,null,null,null,null,null,1,NA,NA,NA,NA,NA,NA,NA,NA,NA,NA
NA,NA,NA,NA,NA,choice_trial,survey-html-form,25,361043,0.0-4.0-1.10,47,1,2025-04-28T17:09:53Z,b60275e29fe2361ab97ac0ac217840d7,"Mozilla/5.0 (Macintosh; Intel Mac OS X 10_15_7) AppleWebKit/537.36 (KHTML, like Gecko) Chrome/132.0.0.0 Safari/537.36",Macintosh,Chrome,132.0.0.0,OS X,10_15_7,https://5puzkbbxv1.cognition.run/?sona_id=57505,"en-US,en;q=0.9",3zg1nat1wdopsgo,18,"[""White""]",No,Male,NA,No,694930.5999999046,NA,5645,NA,"{""product_choice"":""A""}",choice,ct,binary,repulsion,1,microwave ovens,null,null,null,null,null,null,1,100,90,null,30,40,null,Warranty,Cooking power,NA,NA
NA,NA,NA,NA,NA,choice_trial_setup,html-keyboard-response,26,361346,0.0-4.0-0.11,47,1,2025-04-28T17:09:53Z,b60275e29fe2361ab97ac0ac217840d7,"Mozilla/5.0 (Macintosh; Intel Mac OS X 10_15_7) AppleWebKit/537.36 (KHTML, like Gecko) Chrome/132.0.0.0 Safari/537.36",Macintosh,Chrome,132.0.0.0,OS X,10_15_7,https://5puzkbbxv1.cognition.run/?sona_id=57505,"en-US,en;q=0.9",3zg1nat1wdopsgo,18,"[""White""]",No,Male,NA,No,694930.5999999046,NA,null,<p></p>,null,choice,tcd,trinary,repulsion_B,1,washing machines,null,null,null,null,null,null,2,NA,NA,NA,NA,NA,NA,NA,NA,NA,NA
NA,NA,NA,NA,NA,choice_trial,survey-html-form,27,365574,0.0-4.0-1.11,47,1,2025-04-28T17:09:53Z,b60275e29fe2361ab97ac0ac217840d7,"Mozilla/5.0 (Macintosh; Intel Mac OS X 10_15_7) AppleWebKit/537.36 (KHTML, like Gecko) Chrome/132.0.0.0 Safari/537.36",Macintosh,Chrome,132.0.0.0,OS X,10_15_7,https://5puzkbbxv1.cognition.run/?sona_id=57505,"en-US,en;q=0.9",3zg1nat1wdopsgo,18,"[""White""]",No,Male,NA,No,694930.5999999046,NA,4224,NA,"{""product_choice"":""B""}",choice,tcd,trinary,repulsion_B,1,washing machines,null,null,null,null,null,null,2,90,100,80,40,30,40,Average lifespan,Energy savings,NA,NA
NA,NA,NA,NA,NA,choice_trial_setup,html-keyboard-response,28,365876,0.0-4.0-0.12,47,1,2025-04-28T17:09:53Z,b60275e29fe2361ab97ac0ac217840d7,"Mozilla/5.0 (Macintosh; Intel Mac OS X 10_15_7) AppleWebKit/537.36 (KHTML, like Gecko) Chrome/132.0.0.0 Safari/537.36",Macintosh,Chrome,132.0.0.0,OS X,10_15_7,https://5puzkbbxv1.cognition.run/?sona_id=57505,"en-US,en;q=0.9",3zg1nat1wdopsgo,18,"[""White""]",No,Male,NA,No,694930.5999999046,NA,null,<p></p>,null,choice,ctd,trinary,repulsion_A,1,laptops,null,null,null,null,null,null,1,NA,NA,NA,NA,NA,NA,NA,NA,NA,NA
NA,NA,NA,NA,NA,choice_trial,survey-html-form,29,379823,0.0-4.0-1.12,47,1,2025-04-28T17:09:53Z,b60275e29fe2361ab97ac0ac217840d7,"Mozilla/5.0 (Macintosh; Intel Mac OS X 10_15_7) AppleWebKit/537.36 (KHTML, like Gecko) Chrome/132.0.0.0 Safari/537.36",Macintosh,Chrome,132.0.0.0,OS X,10_15_7,https://5puzkbbxv1.cognition.run/?sona_id=57505,"en-US,en;q=0.9",3zg1nat1wdopsgo,18,"[""White""]",No,Male,NA,No,694930.5999999046,NA,13943,NA,"{""product_choice"":""A""}",choice,ctd,trinary,repulsion_A,1,laptops,null,null,null,null,null,null,1,100,90,100,30,40,20,Processing speed,Memory (RAM),NA,NA
NA,NA,NA,NA,NA,choice_trial_setup,html-keyboard-response,30,380126,0.0-4.0-0.13,47,1,2025-04-28T17:09:53Z,b60275e29fe2361ab97ac0ac217840d7,"Mozilla/5.0 (Macintosh; Intel Mac OS X 10_15_7) AppleWebKit/537.36 (KHTML, like Gecko) Chrome/132.0.0.0 Safari/537.36",Macintosh,Chrome,132.0.0.0,OS X,10_15_7,https://5puzkbbxv1.cognition.run/?sona_id=57505,"en-US,en;q=0.9",3zg1nat1wdopsgo,18,"[""White""]",No,Male,NA,No,694930.5999999046,NA,null,<p></p>,null,choice,tc,binary,attraction,NA,televisions,null,null,null,null,null,null,2,NA,NA,NA,NA,NA,NA,NA,NA,NA,NA
NA,NA,NA,NA,NA,choice_trial,survey-html-form,31,384507,0.0-4.0-1.13,47,1,2025-04-28T17:09:53Z,b60275e29fe2361ab97ac0ac217840d7,"Mozilla/5.0 (Macintosh; Intel Mac OS X 10_15_7) AppleWebKit/537.36 (KHTML, like Gecko) Chrome/132.0.0.0 Safari/537.36",Macintosh,Chrome,132.0.0.0,OS X,10_15_7,https://5puzkbbxv1.cognition.run/?sona_id=57505,"en-US,en;q=0.9",3zg1nat1wdopsgo,18,"[""White""]",No,Male,NA,No,694930.5999999046,NA,4376,NA,"{""product_choice"":""B""}",choice,tc,binary,attraction,NA,televisions,null,null,null,null,null,null,2,60,50,null,50,60,null,Screen size,Average lifespan,NA,NA
NA,NA,NA,NA,NA,choice_trial_setup,html-keyboard-response,32,384809,0.0-4.0-0.14,47,1,2025-04-28T17:09:53Z,b60275e29fe2361ab97ac0ac217840d7,"Mozilla/5.0 (Macintosh; Intel Mac OS X 10_15_7) AppleWebKit/537.36 (KHTML, like Gecko) Chrome/132.0.0.0 Safari/537.36",Macintosh,Chrome,132.0.0.0,OS X,10_15_7,https://5puzkbbxv1.cognition.run/?sona_id=57505,"en-US,en;q=0.9",3zg1nat1wdopsgo,18,"[""White""]",No,Male,NA,No,694930.5999999046,NA,null,<p></p>,null,choice,dtc,trinary,attraction,2,laptops,null,null,null,null,null,null,1,NA,NA,NA,NA,NA,NA,NA,NA,NA,NA
NA,NA,NA,NA,NA,choice_trial,survey-html-form,33,390124,0.0-4.0-1.14,47,1,2025-04-28T17:09:53Z,b60275e29fe2361ab97ac0ac217840d7,"Mozilla/5.0 (Macintosh; Intel Mac OS X 10_15_7) AppleWebKit/537.36 (KHTML, like Gecko) Chrome/132.0.0.0 Safari/537.36",Macintosh,Chrome,132.0.0.0,OS X,10_15_7,https://5puzkbbxv1.cognition.run/?sona_id=57505,"en-US,en;q=0.9",3zg1nat1wdopsgo,18,"[""White""]",No,Male,NA,No,694930.5999999046,NA,5310,NA,"{""product_choice"":""C""}",choice,dtc,trinary,attraction,2,laptops,null,null,null,null,null,null,1,50,60,40,60,50,60,Processing speed,Memory (RAM),NA,NA
NA,NA,NA,NA,NA,choice_trial_setup,html-keyboard-response,34,390427,0.0-4.0-0.15,47,1,2025-04-28T17:09:53Z,b60275e29fe2361ab97ac0ac217840d7,"Mozilla/5.0 (Macintosh; Intel Mac OS X 10_15_7) AppleWebKit/537.36 (KHTML, like Gecko) Chrome/132.0.0.0 Safari/537.36",Macintosh,Chrome,132.0.0.0,OS X,10_15_7,https://5puzkbbxv1.cognition.run/?sona_id=57505,"en-US,en;q=0.9",3zg1nat1wdopsgo,18,"[""White""]",No,Male,NA,No,694930.5999999046,NA,null,<p></p>,null,choice,bww,trinary,catch,null,washing machines,95,90,40,50,35,30,2,NA,NA,NA,NA,NA,NA,NA,NA,NA,NA
NA,NA,NA,NA,NA,choice_trial,survey-html-form,35,397223,0.0-4.0-1.15,47,1,2025-04-28T17:09:53Z,b60275e29fe2361ab97ac0ac217840d7,"Mozilla/5.0 (Macintosh; Intel Mac OS X 10_15_7) AppleWebKit/537.36 (KHTML, like Gecko) Chrome/132.0.0.0 Safari/537.36",Macintosh,Chrome,132.0.0.0,OS X,10_15_7,https://5puzkbbxv1.cognition.run/?sona_id=57505,"en-US,en;q=0.9",3zg1nat1wdopsgo,18,"[""White""]",No,Male,NA,No,694930.5999999046,NA,6792,NA,"{""product_choice"":""A""}",choice,bww,trinary,catch,null,washing machines,95,90,40,50,35,30,2,null,null,null,null,null,null,Average lifespan,Energy savings,NA,NA
NA,NA,NA,NA,NA,choice_trial_setup,html-keyboard-response,36,397526,0.0-4.0-0.16,47,1,2025-04-28T17:09:53Z,b60275e29fe2361ab97ac0ac217840d7,"Mozilla/5.0 (Macintosh; Intel Mac OS X 10_15_7) AppleWebKit/537.36 (KHTML, like Gecko) Chrome/132.0.0.0 Safari/537.36",Macintosh,Chrome,132.0.0.0,OS X,10_15_7,https://5puzkbbxv1.cognition.run/?sona_id=57505,"en-US,en;q=0.9",3zg1nat1wdopsgo,18,"[""White""]",No,Male,NA,No,694930.5999999046,NA,null,<p></p>,null,choice,bw,binary,catch,null,microwave ovens,70,70,35,20,null,null,2,NA,NA,NA,NA,NA,NA,NA,NA,NA,NA
NA,NA,NA,NA,NA,choice_trial,survey-html-form,37,401073,0.0-4.0-1.16,47,1,2025-04-28T17:09:53Z,b60275e29fe2361ab97ac0ac217840d7,"Mozilla/5.0 (Macintosh; Intel Mac OS X 10_15_7) AppleWebKit/537.36 (KHTML, like Gecko) Chrome/132.0.0.0 Safari/537.36",Macintosh,Chrome,132.0.0.0,OS X,10_15_7,https://5puzkbbxv1.cognition.run/?sona_id=57505,"en-US,en;q=0.9",3zg1nat1wdopsgo,18,"[""White""]",No,Male,NA,No,694930.5999999046,NA,3542,NA,"{""product_choice"":""A""}",choice,bw,binary,catch,null,microwave ovens,70,70,35,20,null,null,2,null,null,null,null,null,null,Warranty,Cooking power,NA,NA
NA,NA,NA,NA,NA,choice_trial_setup,html-keyboard-response,38,401378,0.0-4.0-0.17,47,1,2025-04-28T17:09:53Z,b60275e29fe2361ab97ac0ac217840d7,"Mozilla/5.0 (Macintosh; Intel Mac OS X 10_15_7) AppleWebKit/537.36 (KHTML, like Gecko) Chrome/132.0.0.0 Safari/537.36",Macintosh,Chrome,132.0.0.0,OS X,10_15_7,https://5puzkbbxv1.cognition.run/?sona_id=57505,"en-US,en;q=0.9",3zg1nat1wdopsgo,18,"[""White""]",No,Male,NA,No,694930.5999999046,NA,null,<p></p>,null,choice,dct,trinary,repulsion_B,1,laptops,null,null,null,null,null,null,2,NA,NA,NA,NA,NA,NA,NA,NA,NA,NA
NA,NA,NA,NA,NA,choice_trial,survey-html-form,39,415956,0.0-4.0-1.17,47,1,2025-04-28T17:09:53Z,b60275e29fe2361ab97ac0ac217840d7,"Mozilla/5.0 (Macintosh; Intel Mac OS X 10_15_7) AppleWebKit/537.36 (KHTML, like Gecko) Chrome/132.0.0.0 Safari/537.36",Macintosh,Chrome,132.0.0.0,OS X,10_15_7,https://5puzkbbxv1.cognition.run/?sona_id=57505,"en-US,en;q=0.9",3zg1nat1wdopsgo,18,"[""White""]",No,Male,NA,No,694930.5999999046,NA,14574,NA,"{""product_choice"":""B""}",choice,dct,trinary,repulsion_B,1,laptops,null,null,null,null,null,null,2,90,100,80,40,30,40,Processing speed,Memory (RAM),NA,NA
NA,NA,NA,NA,NA,choice_trial_setup,html-keyboard-response,40,416259,0.0-4.0-0.18,47,1,2025-04-28T17:09:53Z,b60275e29fe2361ab97ac0ac217840d7,"Mozilla/5.0 (Macintosh; Intel Mac OS X 10_15_7) AppleWebKit/537.36 (KHTML, like Gecko) Chrome/132.0.0.0 Safari/537.36",Macintosh,Chrome,132.0.0.0,OS X,10_15_7,https://5puzkbbxv1.cognition.run/?sona_id=57505,"en-US,en;q=0.9",3zg1nat1wdopsgo,18,"[""White""]",No,Male,NA,No,694930.5999999046,NA,null,<p></p>,null,choice,wbw,trinary,catch,null,microwave ovens,80,50,45,5,10,20,1,NA,NA,NA,NA,NA,NA,NA,NA,NA,NA
NA,NA,NA,NA,NA,choice_trial,survey-html-form,41,420457,0.0-4.0-1.18,47,1,2025-04-28T17:09:53Z,b60275e29fe2361ab97ac0ac217840d7,"Mozilla/5.0 (Macintosh; Intel Mac OS X 10_15_7) AppleWebKit/537.36 (KHTML, like Gecko) Chrome/132.0.0.0 Safari/537.36",Macintosh,Chrome,132.0.0.0,OS X,10_15_7,https://5puzkbbxv1.cognition.run/?sona_id=57505,"en-US,en;q=0.9",3zg1nat1wdopsgo,18,"[""White""]",No,Male,NA,No,694930.5999999046,NA,4193,NA,"{""product_choice"":""B""}",choice,wbw,trinary,catch,null,microwave ovens,80,50,45,5,10,20,1,null,null,null,null,null,null,Warranty,Cooking power,NA,NA
NA,NA,NA,NA,NA,choice_trial_setup,html-keyboard-response,42,420760,0.0-4.0-0.19,47,1,2025-04-28T17:09:53Z,b60275e29fe2361ab97ac0ac217840d7,"Mozilla/5.0 (Macintosh; Intel Mac OS X 10_15_7) AppleWebKit/537.36 (KHTML, like Gecko) Chrome/132.0.0.0 Safari/537.36",Macintosh,Chrome,132.0.0.0,OS X,10_15_7,https://5puzkbbxv1.cognition.run/?sona_id=57505,"en-US,en;q=0.9",3zg1nat1wdopsgo,18,"[""White""]",No,Male,NA,No,694930.5999999046,NA,null,<p></p>,null,choice,tcd,trinary,attraction,2,washing machines,null,null,null,null,null,null,1,NA,NA,NA,NA,NA,NA,NA,NA,NA,NA
NA,NA,NA,NA,NA,choice_trial,survey-html-form,43,423706,0.0-4.0-1.19,47,1,2025-04-28T17:09:53Z,b60275e29fe2361ab97ac0ac217840d7,"Mozilla/5.0 (Macintosh; Intel Mac OS X 10_15_7) AppleWebKit/537.36 (KHTML, like Gecko) Chrome/132.0.0.0 Safari/537.36",Macintosh,Chrome,132.0.0.0,OS X,10_15_7,https://5puzkbbxv1.cognition.run/?sona_id=57505,"en-US,en;q=0.9",3zg1nat1wdopsgo,18,"[""White""]",No,Male,NA,No,694930.5999999046,NA,2942,NA,"{""product_choice"":""B""}",choice,tcd,trinary,attraction,2,washing machines,null,null,null,null,null,null,1,50,60,40,60,50,60,Average lifespan,Energy savings,NA,NA
NA,NA,NA,NA,NA,choice_trial_setup,html-keyboard-response,44,424009,0.0-4.0-0.20,47,1,2025-04-28T17:09:53Z,b60275e29fe2361ab97ac0ac217840d7,"Mozilla/5.0 (Macintosh; Intel Mac OS X 10_15_7) AppleWebKit/537.36 (KHTML, like Gecko) Chrome/132.0.0.0 Safari/537.36",Macintosh,Chrome,132.0.0.0,OS X,10_15_7,https://5puzkbbxv1.cognition.run/?sona_id=57505,"en-US,en;q=0.9",3zg1nat1wdopsgo,18,"[""White""]",No,Male,NA,No,694930.5999999046,NA,null,<p></p>,null,choice,cdt,trinary,attraction,2,microwave ovens,null,null,null,null,null,null,2,NA,NA,NA,NA,NA,NA,NA,NA,NA,NA
NA,NA,NA,NA,NA,choice_trial,survey-html-form,45,428425,0.0-4.0-1.20,47,1,2025-04-28T17:09:53Z,b60275e29fe2361ab97ac0ac217840d7,"Mozilla/5.0 (Macintosh; Intel Mac OS X 10_15_7) AppleWebKit/537.36 (KHTML, like Gecko) Chrome/132.0.0.0 Safari/537.36",Macintosh,Chrome,132.0.0.0,OS X,10_15_7,https://5puzkbbxv1.cognition.run/?sona_id=57505,"en-US,en;q=0.9",3zg1nat1wdopsgo,18,"[""White""]",No,Male,NA,No,694930.5999999046,NA,4411,NA,"{""product_choice"":""C""}",choice,cdt,trinary,attraction,2,microwave ovens,null,null,null,null,null,null,2,50,60,40,60,50,60,Warranty,Cooking power,NA,NA
NA,NA,NA,NA,NA,choice_trial_setup,html-keyboard-response,46,428728,0.0-4.0-0.21,47,1,2025-04-28T17:09:53Z,b60275e29fe2361ab97ac0ac217840d7,"Mozilla/5.0 (Macintosh; Intel Mac OS X 10_15_7) AppleWebKit/537.36 (KHTML, like Gecko) Chrome/132.0.0.0 Safari/537.36",Macintosh,Chrome,132.0.0.0,OS X,10_15_7,https://5puzkbbxv1.cognition.run/?sona_id=57505,"en-US,en;q=0.9",3zg1nat1wdopsgo,18,"[""White""]",No,Male,NA,No,694930.5999999046,NA,null,<p></p>,null,choice,tc,binary,repulsion,2,washing machines,null,null,null,null,null,null,2,NA,NA,NA,NA,NA,NA,NA,NA,NA,NA
NA,NA,NA,NA,NA,choice_trial,survey-html-form,47,433490,0.0-4.0-1.21,47,1,2025-04-28T17:09:53Z,b60275e29fe2361ab97ac0ac217840d7,"Mozilla/5.0 (Macintosh; Intel Mac OS X 10_15_7) AppleWebKit/537.36 (KHTML, like Gecko) Chrome/132.0.0.0 Safari/537.36",Macintosh,Chrome,132.0.0.0,OS X,10_15_7,https://5puzkbbxv1.cognition.run/?sona_id=57505,"en-US,en;q=0.9",3zg1nat1wdopsgo,18,"[""White""]",No,Male,NA,No,694930.5999999046,NA,4758,NA,"{""product_choice"":""B""}",choice,tc,binary,repulsion,2,washing machines,null,null,null,null,null,null,2,30,40,null,100,90,null,Average lifespan,Energy savings,NA,NA
NA,NA,NA,NA,NA,choice_trial_setup,html-keyboard-response,48,433794,0.0-4.0-0.22,47,1,2025-04-28T17:09:53Z,b60275e29fe2361ab97ac0ac217840d7,"Mozilla/5.0 (Macintosh; Intel Mac OS X 10_15_7) AppleWebKit/537.36 (KHTML, like Gecko) Chrome/132.0.0.0 Safari/537.36",Macintosh,Chrome,132.0.0.0,OS X,10_15_7,https://5puzkbbxv1.cognition.run/?sona_id=57505,"en-US,en;q=0.9",3zg1nat1wdopsgo,18,"[""White""]",No,Male,NA,No,694930.5999999046,NA,null,<p></p>,null,choice,tc,binary,repulsion,1,washing machines,null,null,null,null,null,null,2,NA,NA,NA,NA,NA,NA,NA,NA,NA,NA
NA,NA,NA,NA,NA,choice_trial,survey-html-form,49,436806,0.0-4.0-1.22,47,1,2025-04-28T17:09:53Z,b60275e29fe2361ab97ac0ac217840d7,"Mozilla/5.0 (Macintosh; Intel Mac OS X 10_15_7) AppleWebKit/537.36 (KHTML, like Gecko) Chrome/132.0.0.0 Safari/537.36",Macintosh,Chrome,132.0.0.0,OS X,10_15_7,https://5puzkbbxv1.cognition.run/?sona_id=57505,"en-US,en;q=0.9",3zg1nat1wdopsgo,18,"[""White""]",No,Male,NA,No,694930.5999999046,NA,3006,NA,"{""product_choice"":""A""}",choice,tc,binary,repulsion,1,washing machines,null,null,null,null,null,null,2,100,90,null,30,40,null,Average lifespan,Energy savings,NA,NA
NA,NA,NA,NA,NA,choice_trial_setup,html-keyboard-response,50,437109,0.0-4.0-0.23,47,1,2025-04-28T17:09:53Z,b60275e29fe2361ab97ac0ac217840d7,"Mozilla/5.0 (Macintosh; Intel Mac OS X 10_15_7) AppleWebKit/537.36 (KHTML, like Gecko) Chrome/132.0.0.0 Safari/537.36",Macintosh,Chrome,132.0.0.0,OS X,10_15_7,https://5puzkbbxv1.cognition.run/?sona_id=57505,"en-US,en;q=0.9",3zg1nat1wdopsgo,18,"[""White""]",No,Male,NA,No,694930.5999999046,NA,null,<p></p>,null,choice,tcd,trinary,repulsion_B,2,televisions,null,null,null,null,null,null,2,NA,NA,NA,NA,NA,NA,NA,NA,NA,NA
NA,NA,NA,NA,NA,choice_trial,survey-html-form,51,440089,0.0-4.0-1.23,47,1,2025-04-28T17:09:53Z,b60275e29fe2361ab97ac0ac217840d7,"Mozilla/5.0 (Macintosh; Intel Mac OS X 10_15_7) AppleWebKit/537.36 (KHTML, like Gecko) Chrome/132.0.0.0 Safari/537.36",Macintosh,Chrome,132.0.0.0,OS X,10_15_7,https://5puzkbbxv1.cognition.run/?sona_id=57505,"en-US,en;q=0.9",3zg1nat1wdopsgo,18,"[""White""]",No,Male,NA,No,694930.5999999046,NA,2976,NA,"{""product_choice"":""A""}",choice,tcd,trinary,repulsion_B,2,televisions,null,null,null,null,null,null,2,40,30,40,90,100,80,Screen size,Average lifespan,NA,NA
NA,NA,NA,NA,NA,choice_trial_setup,html-keyboard-response,52,440393,0.0-4.0-0.24,47,1,2025-04-28T17:09:53Z,b60275e29fe2361ab97ac0ac217840d7,"Mozilla/5.0 (Macintosh; Intel Mac OS X 10_15_7) AppleWebKit/537.36 (KHTML, like Gecko) Chrome/132.0.0.0 Safari/537.36",Macintosh,Chrome,132.0.0.0,OS X,10_15_7,https://5puzkbbxv1.cognition.run/?sona_id=57505,"en-US,en;q=0.9",3zg1nat1wdopsgo,18,"[""White""]",No,Male,NA,No,694930.5999999046,NA,null,<p></p>,null,choice,tc,binary,attraction,NA,washing machines,null,null,null,null,null,null,2,NA,NA,NA,NA,NA,NA,NA,NA,NA,NA
NA,NA,NA,NA,NA,choice_trial,survey-html-form,53,463756,0.0-4.0-1.24,47,1,2025-04-28T17:09:53Z,b60275e29fe2361ab97ac0ac217840d7,"Mozilla/5.0 (Macintosh; Intel Mac OS X 10_15_7) AppleWebKit/537.36 (KHTML, like Gecko) Chrome/132.0.0.0 Safari/537.36",Macintosh,Chrome,132.0.0.0,OS X,10_15_7,https://5puzkbbxv1.cognition.run/?sona_id=57505,"en-US,en;q=0.9",3zg1nat1wdopsgo,18,"[""White""]",No,Male,NA,No,694930.5999999046,NA,23358,NA,"{""product_choice"":""A""}",choice,tc,binary,attraction,NA,washing machines,null,null,null,null,null,null,2,60,50,null,50,60,null,Average lifespan,Energy savings,NA,NA
NA,NA,NA,NA,NA,choice_trial_setup,html-keyboard-response,54,464060,0.0-4.0-0.25,47,1,2025-04-28T17:09:53Z,b60275e29fe2361ab97ac0ac217840d7,"Mozilla/5.0 (Macintosh; Intel Mac OS X 10_15_7) AppleWebKit/537.36 (KHTML, like Gecko) Chrome/132.0.0.0 Safari/537.36",Macintosh,Chrome,132.0.0.0,OS X,10_15_7,https://5puzkbbxv1.cognition.run/?sona_id=57505,"en-US,en;q=0.9",3zg1nat1wdopsgo,18,"[""White""]",No,Male,NA,No,694930.5999999046,NA,null,<p></p>,null,choice,tdc,trinary,repulsion_A,1,televisions,null,null,null,null,null,null,1,NA,NA,NA,NA,NA,NA,NA,NA,NA,NA
NA,NA,NA,NA,NA,choice_trial,survey-html-form,55,466940,0.0-4.0-1.25,47,1,2025-04-28T17:09:53Z,b60275e29fe2361ab97ac0ac217840d7,"Mozilla/5.0 (Macintosh; Intel Mac OS X 10_15_7) AppleWebKit/537.36 (KHTML, like Gecko) Chrome/132.0.0.0 Safari/537.36",Macintosh,Chrome,132.0.0.0,OS X,10_15_7,https://5puzkbbxv1.cognition.run/?sona_id=57505,"en-US,en;q=0.9",3zg1nat1wdopsgo,18,"[""White""]",No,Male,NA,No,694930.5999999046,NA,2874,NA,"{""product_choice"":""A""}",choice,tdc,trinary,repulsion_A,1,televisions,null,null,null,null,null,null,1,100,90,100,30,40,20,Screen size,Average lifespan,NA,NA
NA,NA,NA,NA,NA,choice_trial_setup,html-keyboard-response,56,467243,0.0-4.0-0.26,47,1,2025-04-28T17:09:53Z,b60275e29fe2361ab97ac0ac217840d7,"Mozilla/5.0 (Macintosh; Intel Mac OS X 10_15_7) AppleWebKit/537.36 (KHTML, like Gecko) Chrome/132.0.0.0 Safari/537.36",Macintosh,Chrome,132.0.0.0,OS X,10_15_7,https://5puzkbbxv1.cognition.run/?sona_id=57505,"en-US,en;q=0.9",3zg1nat1wdopsgo,18,"[""White""]",No,Male,NA,No,694930.5999999046,NA,null,<p></p>,null,choice,tc,binary,attraction,NA,laptops,null,null,null,null,null,null,1,NA,NA,NA,NA,NA,NA,NA,NA,NA,NA
NA,NA,NA,NA,NA,choice_trial,survey-html-form,57,471923,0.0-4.0-1.26,47,1,2025-04-28T17:09:53Z,b60275e29fe2361ab97ac0ac217840d7,"Mozilla/5.0 (Macintosh; Intel Mac OS X 10_15_7) AppleWebKit/537.36 (KHTML, like Gecko) Chrome/132.0.0.0 Safari/537.36",Macintosh,Chrome,132.0.0.0,OS X,10_15_7,https://5puzkbbxv1.cognition.run/?sona_id=57505,"en-US,en;q=0.9",3zg1nat1wdopsgo,18,"[""White""]",No,Male,NA,No,694930.5999999046,NA,4675,NA,"{""product_choice"":""A""}",choice,tc,binary,attraction,NA,laptops,null,null,null,null,null,null,1,60,50,null,50,60,null,Processing speed,Memory (RAM),NA,NA
NA,NA,NA,NA,NA,choice_trial_setup,html-keyboard-response,58,472227,0.0-4.0-0.27,47,1,2025-04-28T17:09:53Z,b60275e29fe2361ab97ac0ac217840d7,"Mozilla/5.0 (Macintosh; Intel Mac OS X 10_15_7) AppleWebKit/537.36 (KHTML, like Gecko) Chrome/132.0.0.0 Safari/537.36",Macintosh,Chrome,132.0.0.0,OS X,10_15_7,https://5puzkbbxv1.cognition.run/?sona_id=57505,"en-US,en;q=0.9",3zg1nat1wdopsgo,18,"[""White""]",No,Male,NA,No,694930.5999999046,NA,null,<p></p>,null,choice,dtc,trinary,attraction,1,washing machines,null,null,null,null,null,null,2,NA,NA,NA,NA,NA,NA,NA,NA,NA,NA
NA,NA,NA,NA,NA,choice_trial,survey-html-form,59,474823,0.0-4.0-1.27,47,1,2025-04-28T17:09:53Z,b60275e29fe2361ab97ac0ac217840d7,"Mozilla/5.0 (Macintosh; Intel Mac OS X 10_15_7) AppleWebKit/537.36 (KHTML, like Gecko) Chrome/132.0.0.0 Safari/537.36",Macintosh,Chrome,132.0.0.0,OS X,10_15_7,https://5puzkbbxv1.cognition.run/?sona_id=57505,"en-US,en;q=0.9",3zg1nat1wdopsgo,18,"[""White""]",No,Male,NA,No,694930.5999999046,NA,2590,NA,"{""product_choice"":""B""}",choice,dtc,trinary,attraction,1,washing machines,null,null,null,null,null,null,2,60,50,60,50,60,40,Average lifespan,Energy savings,NA,NA
NA,NA,NA,NA,NA,choice_trial_setup,html-keyboard-response,60,475126,0.0-4.0-0.28,47,1,2025-04-28T17:09:53Z,b60275e29fe2361ab97ac0ac217840d7,"Mozilla/5.0 (Macintosh; Intel Mac OS X 10_15_7) AppleWebKit/537.36 (KHTML, like Gecko) Chrome/132.0.0.0 Safari/537.36",Macintosh,Chrome,132.0.0.0,OS X,10_15_7,https://5puzkbbxv1.cognition.run/?sona_id=57505,"en-US,en;q=0.9",3zg1nat1wdopsgo,18,"[""White""]",No,Male,NA,No,694930.5999999046,NA,null,<p></p>,null,choice,tc,binary,repulsion,1,televisions,null,null,null,null,null,null,1,NA,NA,NA,NA,NA,NA,NA,NA,NA,NA
NA,NA,NA,NA,NA,choice_trial,survey-html-form,61,477956,0.0-4.0-1.28,47,1,2025-04-28T17:09:53Z,b60275e29fe2361ab97ac0ac217840d7,"Mozilla/5.0 (Macintosh; Intel Mac OS X 10_15_7) AppleWebKit/537.36 (KHTML, like Gecko) Chrome/132.0.0.0 Safari/537.36",Macintosh,Chrome,132.0.0.0,OS X,10_15_7,https://5puzkbbxv1.cognition.run/?sona_id=57505,"en-US,en;q=0.9",3zg1nat1wdopsgo,18,"[""White""]",No,Male,NA,No,694930.5999999046,NA,2824,NA,"{""product_choice"":""B""}",choice,tc,binary,repulsion,1,televisions,null,null,null,null,null,null,1,100,90,null,30,40,null,Screen size,Average lifespan,NA,NA
NA,NA,NA,NA,NA,choice_trial_setup,html-keyboard-response,62,478260,0.0-4.0-0.29,47,1,2025-04-28T17:09:53Z,b60275e29fe2361ab97ac0ac217840d7,"Mozilla/5.0 (Macintosh; Intel Mac OS X 10_15_7) AppleWebKit/537.36 (KHTML, like Gecko) Chrome/132.0.0.0 Safari/537.36",Macintosh,Chrome,132.0.0.0,OS X,10_15_7,https://5puzkbbxv1.cognition.run/?sona_id=57505,"en-US,en;q=0.9",3zg1nat1wdopsgo,18,"[""White""]",No,Male,NA,No,694930.5999999046,NA,null,<p></p>,null,choice,ct,binary,repulsion,1,laptops,null,null,null,null,null,null,2,NA,NA,NA,NA,NA,NA,NA,NA,NA,NA
NA,NA,NA,NA,NA,choice_trial,survey-html-form,63,480472,0.0-4.0-1.29,47,1,2025-04-28T17:09:53Z,b60275e29fe2361ab97ac0ac217840d7,"Mozilla/5.0 (Macintosh; Intel Mac OS X 10_15_7) AppleWebKit/537.36 (KHTML, like Gecko) Chrome/132.0.0.0 Safari/537.36",Macintosh,Chrome,132.0.0.0,OS X,10_15_7,https://5puzkbbxv1.cognition.run/?sona_id=57505,"en-US,en;q=0.9",3zg1nat1wdopsgo,18,"[""White""]",No,Male,NA,No,694930.5999999046,NA,2207,NA,"{""product_choice"":""B""}",choice,ct,binary,repulsion,1,laptops,null,null,null,null,null,null,2,100,90,null,30,40,null,Processing speed,Memory (RAM),NA,NA
NA,NA,NA,NA,NA,choice_trial_setup,html-keyboard-response,64,480776,0.0-4.0-0.30,47,1,2025-04-28T17:09:53Z,b60275e29fe2361ab97ac0ac217840d7,"Mozilla/5.0 (Macintosh; Intel Mac OS X 10_15_7) AppleWebKit/537.36 (KHTML, like Gecko) Chrome/132.0.0.0 Safari/537.36",Macintosh,Chrome,132.0.0.0,OS X,10_15_7,https://5puzkbbxv1.cognition.run/?sona_id=57505,"en-US,en;q=0.9",3zg1nat1wdopsgo,18,"[""White""]",No,Male,NA,No,694930.5999999046,NA,null,<p></p>,null,choice,dct,trinary,repulsion_A,2,televisions,null,null,null,null,null,null,1,NA,NA,NA,NA,NA,NA,NA,NA,NA,NA
NA,NA,NA,NA,NA,choice_trial,survey-html-form,65,487273,0.0-4.0-1.30,47,1,2025-04-28T17:09:53Z,b60275e29fe2361ab97ac0ac217840d7,"Mozilla/5.0 (Macintosh; Intel Mac OS X 10_15_7) AppleWebKit/537.36 (KHTML, like Gecko) Chrome/132.0.0.0 Safari/537.36",Macintosh,Chrome,132.0.0.0,OS X,10_15_7,https://5puzkbbxv1.cognition.run/?sona_id=57505,"en-US,en;q=0.9",3zg1nat1wdopsgo,18,"[""White""]",No,Male,NA,No,694930.5999999046,NA,6489,NA,"{""product_choice"":""B""}",choice,dct,trinary,repulsion_A,2,televisions,null,null,null,null,null,null,1,30,40,20,100,90,100,Screen size,Average lifespan,NA,NA
NA,NA,NA,NA,NA,choice_trial_setup,html-keyboard-response,66,487577,0.0-4.0-0.31,47,1,2025-04-28T17:09:53Z,b60275e29fe2361ab97ac0ac217840d7,"Mozilla/5.0 (Macintosh; Intel Mac OS X 10_15_7) AppleWebKit/537.36 (KHTML, like Gecko) Chrome/132.0.0.0 Safari/537.36",Macintosh,Chrome,132.0.0.0,OS X,10_15_7,https://5puzkbbxv1.cognition.run/?sona_id=57505,"en-US,en;q=0.9",3zg1nat1wdopsgo,18,"[""White""]",No,Male,NA,No,694930.5999999046,NA,null,<p></p>,null,choice,tdc,trinary,repulsion_A,2,microwave ovens,null,null,null,null,null,null,2,NA,NA,NA,NA,NA,NA,NA,NA,NA,NA
NA,NA,NA,NA,NA,choice_trial,survey-html-form,67,490406,0.0-4.0-1.31,47,1,2025-04-28T17:09:53Z,b60275e29fe2361ab97ac0ac217840d7,"Mozilla/5.0 (Macintosh; Intel Mac OS X 10_15_7) AppleWebKit/537.36 (KHTML, like Gecko) Chrome/132.0.0.0 Safari/537.36",Macintosh,Chrome,132.0.0.0,OS X,10_15_7,https://5puzkbbxv1.cognition.run/?sona_id=57505,"en-US,en;q=0.9",3zg1nat1wdopsgo,18,"[""White""]",No,Male,NA,No,694930.5999999046,NA,2822,NA,"{""product_choice"":""C""}",choice,tdc,trinary,repulsion_A,2,microwave ovens,null,null,null,null,null,null,2,30,40,20,100,90,100,Warranty,Cooking power,NA,NA
NA,NA,NA,NA,NA,choice_trial_setup,html-keyboard-response,68,490710,0.0-4.0-0.32,47,1,2025-04-28T17:09:53Z,b60275e29fe2361ab97ac0ac217840d7,"Mozilla/5.0 (Macintosh; Intel Mac OS X 10_15_7) AppleWebKit/537.36 (KHTML, like Gecko) Chrome/132.0.0.0 Safari/537.36",Macintosh,Chrome,132.0.0.0,OS X,10_15_7,https://5puzkbbxv1.cognition.run/?sona_id=57505,"en-US,en;q=0.9",3zg1nat1wdopsgo,18,"[""White""]",No,Male,NA,No,694930.5999999046,NA,null,<p></p>,null,choice,tcd,trinary,repulsion_B,2,washing machines,null,null,null,null,null,null,1,NA,NA,NA,NA,NA,NA,NA,NA,NA,NA
NA,NA,NA,NA,NA,choice_trial,survey-html-form,69,494456,0.0-4.0-1.32,47,1,2025-04-28T17:09:53Z,b60275e29fe2361ab97ac0ac217840d7,"Mozilla/5.0 (Macintosh; Intel Mac OS X 10_15_7) AppleWebKit/537.36 (KHTML, like Gecko) Chrome/132.0.0.0 Safari/537.36",Macintosh,Chrome,132.0.0.0,OS X,10_15_7,https://5puzkbbxv1.cognition.run/?sona_id=57505,"en-US,en;q=0.9",3zg1nat1wdopsgo,18,"[""White""]",No,Male,NA,No,694930.5999999046,NA,3741,NA,"{""product_choice"":""A""}",choice,tcd,trinary,repulsion_B,2,washing machines,null,null,null,null,null,null,1,40,30,40,90,100,80,Average lifespan,Energy savings,NA,NA
NA,NA,NA,NA,NA,choice_trial_setup,html-keyboard-response,70,494761,0.0-4.0-0.33,47,1,2025-04-28T17:09:53Z,b60275e29fe2361ab97ac0ac217840d7,"Mozilla/5.0 (Macintosh; Intel Mac OS X 10_15_7) AppleWebKit/537.36 (KHTML, like Gecko) Chrome/132.0.0.0 Safari/537.36",Macintosh,Chrome,132.0.0.0,OS X,10_15_7,https://5puzkbbxv1.cognition.run/?sona_id=57505,"en-US,en;q=0.9",3zg1nat1wdopsgo,18,"[""White""]",No,Male,NA,No,694930.5999999046,NA,null,<p></p>,null,choice,bw,binary,catch,null,laptops,75,85,45,15,null,null,2,NA,NA,NA,NA,NA,NA,NA,NA,NA,NA
NA,NA,NA,NA,NA,choice_trial,survey-html-form,71,497156,0.0-4.0-1.33,47,1,2025-04-28T17:09:53Z,b60275e29fe2361ab97ac0ac217840d7,"Mozilla/5.0 (Macintosh; Intel Mac OS X 10_15_7) AppleWebKit/537.36 (KHTML, like Gecko) Chrome/132.0.0.0 Safari/537.36",Macintosh,Chrome,132.0.0.0,OS X,10_15_7,https://5puzkbbxv1.cognition.run/?sona_id=57505,"en-US,en;q=0.9",3zg1nat1wdopsgo,18,"[""White""]",No,Male,NA,No,694930.5999999046,NA,2389,NA,"{""product_choice"":""A""}",choice,bw,binary,catch,null,laptops,75,85,45,15,null,null,2,null,null,null,null,null,null,Processing speed,Memory (RAM),NA,NA
NA,NA,NA,NA,NA,choice_trial_setup,html-keyboard-response,72,497459,0.0-4.0-0.34,47,1,2025-04-28T17:09:53Z,b60275e29fe2361ab97ac0ac217840d7,"Mozilla/5.0 (Macintosh; Intel Mac OS X 10_15_7) AppleWebKit/537.36 (KHTML, like Gecko) Chrome/132.0.0.0 Safari/537.36",Macintosh,Chrome,132.0.0.0,OS X,10_15_7,https://5puzkbbxv1.cognition.run/?sona_id=57505,"en-US,en;q=0.9",3zg1nat1wdopsgo,18,"[""White""]",No,Male,NA,No,694930.5999999046,NA,null,<p></p>,null,choice,cdt,trinary,repulsion_B,1,televisions,null,null,null,null,null,null,2,NA,NA,NA,NA,NA,NA,NA,NA,NA,NA
NA,NA,NA,NA,NA,choice_trial,survey-html-form,73,500539,0.0-4.0-1.34,47,1,2025-04-28T17:09:53Z,b60275e29fe2361ab97ac0ac217840d7,"Mozilla/5.0 (Macintosh; Intel Mac OS X 10_15_7) AppleWebKit/537.36 (KHTML, like Gecko) Chrome/132.0.0.0 Safari/537.36",Macintosh,Chrome,132.0.0.0,OS X,10_15_7,https://5puzkbbxv1.cognition.run/?sona_id=57505,"en-US,en;q=0.9",3zg1nat1wdopsgo,18,"[""White""]",No,Male,NA,No,694930.5999999046,NA,3073,NA,"{""product_choice"":""C""}",choice,cdt,trinary,repulsion_B,1,televisions,null,null,null,null,null,null,2,90,100,80,40,30,40,Screen size,Average lifespan,NA,NA
NA,NA,NA,NA,NA,choice_trial_setup,html-keyboard-response,74,500843,0.0-4.0-0.35,47,1,2025-04-28T17:09:53Z,b60275e29fe2361ab97ac0ac217840d7,"Mozilla/5.0 (Macintosh; Intel Mac OS X 10_15_7) AppleWebKit/537.36 (KHTML, like Gecko) Chrome/132.0.0.0 Safari/537.36",Macintosh,Chrome,132.0.0.0,OS X,10_15_7,https://5puzkbbxv1.cognition.run/?sona_id=57505,"en-US,en;q=0.9",3zg1nat1wdopsgo,18,"[""White""]",No,Male,NA,No,694930.5999999046,NA,null,<p></p>,null,choice,cdt,trinary,attraction,1,televisions,null,null,null,null,null,null,1,NA,NA,NA,NA,NA,NA,NA,NA,NA,NA
NA,NA,NA,NA,NA,choice_trial,survey-html-form,75,509289,0.0-4.0-1.35,47,1,2025-04-28T17:09:53Z,b60275e29fe2361ab97ac0ac217840d7,"Mozilla/5.0 (Macintosh; Intel Mac OS X 10_15_7) AppleWebKit/537.36 (KHTML, like Gecko) Chrome/132.0.0.0 Safari/537.36",Macintosh,Chrome,132.0.0.0,OS X,10_15_7,https://5puzkbbxv1.cognition.run/?sona_id=57505,"en-US,en;q=0.9",3zg1nat1wdopsgo,18,"[""White""]",No,Male,NA,No,694930.5999999046,NA,8441,NA,"{""product_choice"":""A""}",choice,cdt,trinary,attraction,1,televisions,null,null,null,null,null,null,1,60,50,60,50,60,40,Screen size,Average lifespan,NA,NA
NA,NA,NA,NA,NA,choice_trial_setup,html-keyboard-response,76,509593,0.0-4.0-0.36,47,1,2025-04-28T17:09:53Z,b60275e29fe2361ab97ac0ac217840d7,"Mozilla/5.0 (Macintosh; Intel Mac OS X 10_15_7) AppleWebKit/537.36 (KHTML, like Gecko) Chrome/132.0.0.0 Safari/537.36",Macintosh,Chrome,132.0.0.0,OS X,10_15_7,https://5puzkbbxv1.cognition.run/?sona_id=57505,"en-US,en;q=0.9",3zg1nat1wdopsgo,18,"[""White""]",No,Male,NA,No,694930.5999999046,NA,null,<p></p>,null,choice,wwb,trinary,catch,null,laptops,50,85,5,35,10,30,1,NA,NA,NA,NA,NA,NA,NA,NA,NA,NA
NA,NA,NA,NA,NA,choice_trial,survey-html-form,77,511906,0.0-4.0-1.36,47,1,2025-04-28T17:09:53Z,b60275e29fe2361ab97ac0ac217840d7,"Mozilla/5.0 (Macintosh; Intel Mac OS X 10_15_7) AppleWebKit/537.36 (KHTML, like Gecko) Chrome/132.0.0.0 Safari/537.36",Macintosh,Chrome,132.0.0.0,OS X,10_15_7,https://5puzkbbxv1.cognition.run/?sona_id=57505,"en-US,en;q=0.9",3zg1nat1wdopsgo,18,"[""White""]",No,Male,NA,No,694930.5999999046,NA,2305,NA,"{""product_choice"":""C""}",choice,wwb,trinary,catch,null,laptops,50,85,5,35,10,30,1,null,null,null,null,null,null,Processing speed,Memory (RAM),NA,NA
NA,NA,NA,NA,NA,choice_trial_setup,html-keyboard-response,78,512210,0.0-4.0-0.37,47,1,2025-04-28T17:09:53Z,b60275e29fe2361ab97ac0ac217840d7,"Mozilla/5.0 (Macintosh; Intel Mac OS X 10_15_7) AppleWebKit/537.36 (KHTML, like Gecko) Chrome/132.0.0.0 Safari/537.36",Macintosh,Chrome,132.0.0.0,OS X,10_15_7,https://5puzkbbxv1.cognition.run/?sona_id=57505,"en-US,en;q=0.9",3zg1nat1wdopsgo,18,"[""White""]",No,Male,NA,No,694930.5999999046,NA,null,<p></p>,null,choice,wwb,trinary,catch,null,televisions,90,90,25,35,35,45,1,NA,NA,NA,NA,NA,NA,NA,NA,NA,NA
NA,NA,NA,NA,NA,choice_trial,survey-html-form,79,517722,0.0-4.0-1.37,47,1,2025-04-28T17:09:53Z,b60275e29fe2361ab97ac0ac217840d7,"Mozilla/5.0 (Macintosh; Intel Mac OS X 10_15_7) AppleWebKit/537.36 (KHTML, like Gecko) Chrome/132.0.0.0 Safari/537.36",Macintosh,Chrome,132.0.0.0,OS X,10_15_7,https://5puzkbbxv1.cognition.run/?sona_id=57505,"en-US,en;q=0.9",3zg1nat1wdopsgo,18,"[""White""]",No,Male,NA,No,694930.5999999046,NA,5506,NA,"{""product_choice"":""C""}",choice,wwb,trinary,catch,null,televisions,90,90,25,35,35,45,1,null,null,null,null,null,null,Screen size,Average lifespan,NA,NA
NA,NA,NA,NA,NA,choice_trial_setup,html-keyboard-response,80,518027,0.0-4.0-0.38,47,1,2025-04-28T17:09:53Z,b60275e29fe2361ab97ac0ac217840d7,"Mozilla/5.0 (Macintosh; Intel Mac OS X 10_15_7) AppleWebKit/537.36 (KHTML, like Gecko) Chrome/132.0.0.0 Safari/537.36",Macintosh,Chrome,132.0.0.0,OS X,10_15_7,https://5puzkbbxv1.cognition.run/?sona_id=57505,"en-US,en;q=0.9",3zg1nat1wdopsgo,18,"[""White""]",No,Male,NA,No,694930.5999999046,NA,null,<p></p>,null,choice,ctd,trinary,repulsion_B,1,microwave ovens,null,null,null,null,null,null,1,NA,NA,NA,NA,NA,NA,NA,NA,NA,NA
NA,NA,NA,NA,NA,choice_trial,survey-html-form,81,521140,0.0-4.0-1.38,47,1,2025-04-28T17:09:53Z,b60275e29fe2361ab97ac0ac217840d7,"Mozilla/5.0 (Macintosh; Intel Mac OS X 10_15_7) AppleWebKit/537.36 (KHTML, like Gecko) Chrome/132.0.0.0 Safari/537.36",Macintosh,Chrome,132.0.0.0,OS X,10_15_7,https://5puzkbbxv1.cognition.run/?sona_id=57505,"en-US,en;q=0.9",3zg1nat1wdopsgo,18,"[""White""]",No,Male,NA,No,694930.5999999046,NA,3107,NA,"{""product_choice"":""B""}",choice,ctd,trinary,repulsion_B,1,microwave ovens,null,null,null,null,null,null,1,90,100,80,40,30,40,Warranty,Cooking power,NA,NA
NA,NA,NA,NA,NA,choice_trial_setup,html-keyboard-response,82,521445,0.0-4.0-0.39,47,1,2025-04-28T17:09:53Z,b60275e29fe2361ab97ac0ac217840d7,"Mozilla/5.0 (Macintosh; Intel Mac OS X 10_15_7) AppleWebKit/537.36 (KHTML, like Gecko) Chrome/132.0.0.0 Safari/537.36",Macintosh,Chrome,132.0.0.0,OS X,10_15_7,https://5puzkbbxv1.cognition.run/?sona_id=57505,"en-US,en;q=0.9",3zg1nat1wdopsgo,18,"[""White""]",No,Male,NA,No,694930.5999999046,NA,null,<p></p>,null,choice,wb,binary,catch,null,televisions,65,80,30,30,null,null,1,NA,NA,NA,NA,NA,NA,NA,NA,NA,NA
NA,NA,NA,NA,NA,choice_trial,survey-html-form,83,524422,0.0-4.0-1.39,47,1,2025-04-28T17:09:53Z,b60275e29fe2361ab97ac0ac217840d7,"Mozilla/5.0 (Macintosh; Intel Mac OS X 10_15_7) AppleWebKit/537.36 (KHTML, like Gecko) Chrome/132.0.0.0 Safari/537.36",Macintosh,Chrome,132.0.0.0,OS X,10_15_7,https://5puzkbbxv1.cognition.run/?sona_id=57505,"en-US,en;q=0.9",3zg1nat1wdopsgo,18,"[""White""]",No,Male,NA,No,694930.5999999046,NA,2971,NA,"{""product_choice"":""B""}",choice,wb,binary,catch,null,televisions,65,80,30,30,null,null,1,null,null,null,null,null,null,Screen size,Average lifespan,NA,NA
NA,NA,NA,NA,NA,choice_trial_setup,html-keyboard-response,84,524727,0.0-4.0-0.40,47,1,2025-04-28T17:09:53Z,b60275e29fe2361ab97ac0ac217840d7,"Mozilla/5.0 (Macintosh; Intel Mac OS X 10_15_7) AppleWebKit/537.36 (KHTML, like Gecko) Chrome/132.0.0.0 Safari/537.36",Macintosh,Chrome,132.0.0.0,OS X,10_15_7,https://5puzkbbxv1.cognition.run/?sona_id=57505,"en-US,en;q=0.9",3zg1nat1wdopsgo,18,"[""White""]",No,Male,NA,No,694930.5999999046,NA,null,<p></p>,null,choice,dtc,trinary,repulsion_A,2,laptops,null,null,null,null,null,null,2,NA,NA,NA,NA,NA,NA,NA,NA,NA,NA
NA,NA,NA,NA,NA,choice_trial,survey-html-form,85,528622,0.0-4.0-1.40,47,1,2025-04-28T17:09:53Z,b60275e29fe2361ab97ac0ac217840d7,"Mozilla/5.0 (Macintosh; Intel Mac OS X 10_15_7) AppleWebKit/537.36 (KHTML, like Gecko) Chrome/132.0.0.0 Safari/537.36",Macintosh,Chrome,132.0.0.0,OS X,10_15_7,https://5puzkbbxv1.cognition.run/?sona_id=57505,"en-US,en;q=0.9",3zg1nat1wdopsgo,18,"[""White""]",No,Male,NA,No,694930.5999999046,NA,3889,NA,"{""product_choice"":""C""}",choice,dtc,trinary,repulsion_A,2,laptops,null,null,null,null,null,null,2,30,40,20,100,90,100,Processing speed,Memory (RAM),NA,NA
NA,NA,NA,NA,NA,choice_trial_setup,html-keyboard-response,86,528927,0.0-4.0-0.41,47,1,2025-04-28T17:09:53Z,b60275e29fe2361ab97ac0ac217840d7,"Mozilla/5.0 (Macintosh; Intel Mac OS X 10_15_7) AppleWebKit/537.36 (KHTML, like Gecko) Chrome/132.0.0.0 Safari/537.36",Macintosh,Chrome,132.0.0.0,OS X,10_15_7,https://5puzkbbxv1.cognition.run/?sona_id=57505,"en-US,en;q=0.9",3zg1nat1wdopsgo,18,"[""White""]",No,Male,NA,No,694930.5999999046,NA,null,<p></p>,null,choice,ct,binary,repulsion,2,laptops,null,null,null,null,null,null,2,NA,NA,NA,NA,NA,NA,NA,NA,NA,NA
NA,NA,NA,NA,NA,choice_trial,survey-html-form,87,531389,0.0-4.0-1.41,47,1,2025-04-28T17:09:53Z,b60275e29fe2361ab97ac0ac217840d7,"Mozilla/5.0 (Macintosh; Intel Mac OS X 10_15_7) AppleWebKit/537.36 (KHTML, like Gecko) Chrome/132.0.0.0 Safari/537.36",Macintosh,Chrome,132.0.0.0,OS X,10_15_7,https://5puzkbbxv1.cognition.run/?sona_id=57505,"en-US,en;q=0.9",3zg1nat1wdopsgo,18,"[""White""]",No,Male,NA,No,694930.5999999046,NA,2455,NA,"{""product_choice"":""B""}",choice,ct,binary,repulsion,2,laptops,null,null,null,null,null,null,2,30,40,null,100,90,null,Processing speed,Memory (RAM),NA,NA
NA,NA,NA,NA,NA,choice_trial_setup,html-keyboard-response,88,531693,0.0-4.0-0.42,47,1,2025-04-28T17:09:53Z,b60275e29fe2361ab97ac0ac217840d7,"Mozilla/5.0 (Macintosh; Intel Mac OS X 10_15_7) AppleWebKit/537.36 (KHTML, like Gecko) Chrome/132.0.0.0 Safari/537.36",Macintosh,Chrome,132.0.0.0,OS X,10_15_7,https://5puzkbbxv1.cognition.run/?sona_id=57505,"en-US,en;q=0.9",3zg1nat1wdopsgo,18,"[""White""]",No,Male,NA,No,694930.5999999046,NA,null,<p></p>,null,choice,tc,binary,repulsion,2,microwave ovens,null,null,null,null,null,null,2,NA,NA,NA,NA,NA,NA,NA,NA,NA,NA
NA,NA,NA,NA,NA,choice_trial,survey-html-form,89,534405,0.0-4.0-1.42,47,1,2025-04-28T17:09:53Z,b60275e29fe2361ab97ac0ac217840d7,"Mozilla/5.0 (Macintosh; Intel Mac OS X 10_15_7) AppleWebKit/537.36 (KHTML, like Gecko) Chrome/132.0.0.0 Safari/537.36",Macintosh,Chrome,132.0.0.0,OS X,10_15_7,https://5puzkbbxv1.cognition.run/?sona_id=57505,"en-US,en;q=0.9",3zg1nat1wdopsgo,18,"[""White""]",No,Male,NA,No,694930.5999999046,NA,2706,NA,"{""product_choice"":""A""}",choice,tc,binary,repulsion,2,microwave ovens,null,null,null,null,null,null,2,30,40,null,100,90,null,Warranty,Cooking power,NA,NA
NA,NA,NA,NA,NA,choice_trial_setup,html-keyboard-response,90,534710,0.0-4.0-0.43,47,1,2025-04-28T17:09:53Z,b60275e29fe2361ab97ac0ac217840d7,"Mozilla/5.0 (Macintosh; Intel Mac OS X 10_15_7) AppleWebKit/537.36 (KHTML, like Gecko) Chrome/132.0.0.0 Safari/537.36",Macintosh,Chrome,132.0.0.0,OS X,10_15_7,https://5puzkbbxv1.cognition.run/?sona_id=57505,"en-US,en;q=0.9",3zg1nat1wdopsgo,18,"[""White""]",No,Male,NA,No,694930.5999999046,NA,null,<p></p>,null,choice,cdt,trinary,attraction,2,televisions,null,null,null,null,null,null,2,NA,NA,NA,NA,NA,NA,NA,NA,NA,NA
NA,NA,NA,NA,NA,choice_trial,survey-html-form,91,545689,0.0-4.0-1.43,47,1,2025-04-28T17:09:53Z,b60275e29fe2361ab97ac0ac217840d7,"Mozilla/5.0 (Macintosh; Intel Mac OS X 10_15_7) AppleWebKit/537.36 (KHTML, like Gecko) Chrome/132.0.0.0 Safari/537.36",Macintosh,Chrome,132.0.0.0,OS X,10_15_7,https://5puzkbbxv1.cognition.run/?sona_id=57505,"en-US,en;q=0.9",3zg1nat1wdopsgo,18,"[""White""]",No,Male,NA,No,694930.5999999046,NA,10972,NA,"{""product_choice"":""A""}",choice,cdt,trinary,attraction,2,televisions,null,null,null,null,null,null,2,50,60,40,60,50,60,Screen size,Average lifespan,NA,NA
NA,NA,NA,NA,NA,post_trials_message,html-button-response,92,548356,0.0-5.0,47,1,2025-04-28T17:09:53Z,b60275e29fe2361ab97ac0ac217840d7,"Mozilla/5.0 (Macintosh; Intel Mac OS X 10_15_7) AppleWebKit/537.36 (KHTML, like Gecko) Chrome/132.0.0.0 Safari/537.36",Macintosh,Chrome,132.0.0.0,OS X,10_15_7,https://5puzkbbxv1.cognition.run/?sona_id=57505,"en-US,en;q=0.9",3zg1nat1wdopsgo,18,"[""White""]",No,Male,NA,No,694930.5999999046,NA,2663,<p> <b>Thank you for your patience!</b></p><p>  The study will be done after completing a brief form. </p>,0,NA,NA,NA,NA,NA,NA,NA,NA,NA,NA,NA,NA,NA,NA,NA,NA,NA,NA,NA,NA,NA,NA,NA
NA,NA,NA,NA,NA,survey_message,survey-text,93,627188,0.0-6.0,47,1,2025-04-28T17:09:53Z,b60275e29fe2361ab97ac0ac217840d7,"Mozilla/5.0 (Macintosh; Intel Mac OS X 10_15_7) AppleWebKit/537.36 (KHTML, like Gecko) Chrome/132.0.0.0 Safari/537.36",Macintosh,Chrome,132.0.0.0,OS X,10_15_7,https://5puzkbbxv1.cognition.run/?sona_id=57505,"en-US,en;q=0.9",3zg1nat1wdopsgo,18,"[""White""]",No,Male,NA,No,694930.5999999046,NA,78830,NA,"{""Q0"":""I would look at the two numbers and add them together to see which selections were the highest. If two selections were the same sum I would look at which one is more evenly distributed.""}",NA,NA,NA,NA,NA,NA,NA,NA,NA,NA,NA,NA,NA,NA,NA,NA,NA,NA,NA,NA,NA,I would look at the two numbers and add them together to see which selections were the highest. If two selections were the same sum I would look at which one is more evenly distributed.,NA
NA,NA,NA,NA,NA,demo_age,survey-text,94,630055,0.0-7.0,47,1,2025-04-28T17:09:53Z,b60275e29fe2361ab97ac0ac217840d7,"Mozilla/5.0 (Macintosh; Intel Mac OS X 10_15_7) AppleWebKit/537.36 (KHTML, like Gecko) Chrome/132.0.0.0 Safari/537.36",Macintosh,Chrome,132.0.0.0,OS X,10_15_7,https://5puzkbbxv1.cognition.run/?sona_id=57505,"en-US,en;q=0.9",3zg1nat1wdopsgo,18,"[""White""]",No,Male,NA,No,694930.5999999046,NA,2863,NA,"{""Q0"":""18""}",NA,NA,NA,NA,NA,NA,NA,NA,NA,NA,NA,NA,NA,NA,NA,NA,NA,NA,NA,NA,NA,NA,NA
NA,NA,NA,NA,NA,demo_race,survey-multi-select,95,633471,0.0-8.0,47,1,2025-04-28T17:09:53Z,b60275e29fe2361ab97ac0ac217840d7,"Mozilla/5.0 (Macintosh; Intel Mac OS X 10_15_7) AppleWebKit/537.36 (KHTML, like Gecko) Chrome/132.0.0.0 Safari/537.36",Macintosh,Chrome,132.0.0.0,OS X,10_15_7,https://5puzkbbxv1.cognition.run/?sona_id=57505,"en-US,en;q=0.9",3zg1nat1wdopsgo,18,"[""White""]",No,Male,NA,No,694930.5999999046,NA,3411,NA,"{""Q0"":[""White""]}",NA,NA,NA,NA,NA,NA,NA,NA,NA,NA,NA,NA,NA,NA,NA,NA,NA,NA,NA,NA,NA,NA,[0]
NA,NA,NA,NA,NA,demo_ethnicity_gender,survey-multi-choice,96,638772,0.0-9.0,47,1,2025-04-28T17:09:53Z,b60275e29fe2361ab97ac0ac217840d7,"Mozilla/5.0 (Macintosh; Intel Mac OS X 10_15_7) AppleWebKit/537.36 (KHTML, like Gecko) Chrome/132.0.0.0 Safari/537.36",Macintosh,Chrome,132.0.0.0,OS X,10_15_7,https://5puzkbbxv1.cognition.run/?sona_id=57505,"en-US,en;q=0.9",3zg1nat1wdopsgo,18,"[""White""]",No,Male,NA,No,694930.5999999046,NA,5298,NA,"{""Q0"":""No"",""Q1"":""Male""}",NA,NA,NA,NA,NA,NA,NA,NA,NA,NA,NA,NA,NA,NA,NA,NA,NA,NA,NA,NA,NA,NA,"[0,1]"
NA,NA,NA,NA,NA,demo_countries,survey-text,97,647671,0.0-10.0,47,1,2025-04-28T17:09:53Z,b60275e29fe2361ab97ac0ac217840d7,"Mozilla/5.0 (Macintosh; Intel Mac OS X 10_15_7) AppleWebKit/537.36 (KHTML, like Gecko) Chrome/132.0.0.0 Safari/537.36",Macintosh,Chrome,132.0.0.0,OS X,10_15_7,https://5puzkbbxv1.cognition.run/?sona_id=57505,"en-US,en;q=0.9",3zg1nat1wdopsgo,18,"[""White""]",No,Male,NA,No,694930.5999999046,NA,8888,NA,"{""Q0"":""NA""}",NA,NA,NA,NA,NA,NA,NA,NA,NA,NA,NA,NA,NA,NA,NA,NA,NA,NA,NA,NA,NA,NA,NA
NA,NA,NA,NA,NA,demo_prev_study,survey-multi-choice,98,653538,0.0-11.0,47,1,2025-04-28T17:09:53Z,b60275e29fe2361ab97ac0ac217840d7,"Mozilla/5.0 (Macintosh; Intel Mac OS X 10_15_7) AppleWebKit/537.36 (KHTML, like Gecko) Chrome/132.0.0.0 Safari/537.36",Macintosh,Chrome,132.0.0.0,OS X,10_15_7,https://5puzkbbxv1.cognition.run/?sona_id=57505,"en-US,en;q=0.9",3zg1nat1wdopsgo,18,"[""White""]",No,Male,NA,No,694930.5999999046,NA,5864,NA,"{""Q0"":""No""}",NA,NA,NA,NA,NA,NA,NA,NA,NA,NA,NA,NA,NA,NA,NA,NA,NA,NA,NA,NA,NA,NA,[0]
NA,NA,NA,NA,NA,post_survey_message,html-keyboard-response,99,657377,0.0-12.0,47,1,2025-04-28T17:09:53Z,b60275e29fe2361ab97ac0ac217840d7,"Mozilla/5.0 (Macintosh; Intel Mac OS X 10_15_7) AppleWebKit/537.36 (KHTML, like Gecko) Chrome/132.0.0.0 Safari/537.36",Macintosh,Chrome,132.0.0.0,OS X,10_15_7,https://5puzkbbxv1.cognition.run/?sona_id=57505,"en-US,en;q=0.9",3zg1nat1wdopsgo,18,"[""White""]",No,Male,NA,No,694930.5999999046,NA,3834,NA,j,NA,NA,NA,NA,NA,NA,NA,NA,NA,NA,NA,NA,NA,NA,NA,NA,NA,NA,NA,NA,NA,NA,NA
NA,NA,NA,NA,NA,debrief,image-keyboard-response,100,694903,0.0-13.0,47,1,2025-04-28T17:09:53Z,b60275e29fe2361ab97ac0ac217840d7,"Mozilla/5.0 (Macintosh; Intel Mac OS X 10_15_7) AppleWebKit/537.36 (KHTML, like Gecko) Chrome/132.0.0.0 Safari/537.36",Macintosh,Chrome,132.0.0.0,OS X,10_15_7,https://5puzkbbxv1.cognition.run/?sona_id=57505,"en-US,en;q=0.9",3zg1nat1wdopsgo,18,"[""White""]",No,Male,NA,No,694930.5999999046,NA,37518,Judg_choice_debrief.png,p,NA,NA,NA,NA,NA,NA,NA,NA,NA,NA,NA,NA,NA,NA,NA,NA,NA,NA,NA,NA,NA,NA,NA
