success,timeout,failed_images,failed_audio,failed_video,screen_id,trial_type,trial_index,time_elapsed,internal_node_id,run_id,condition,recorded_at,source_code_version,user_agent,device,browser,browser_version,platform,platform_version,referer,accept_language,ppt_id,age,race,ethnicity,gender,other_countries,prev_study,exp_duration,view_history,rt,stimulus,response,phase,order,set,effect,t_high,category,d1_best,d2_best,d1_worst1,d2_worst1,d1_worst2,d2_worst2,first_dim,d1_t,d1_c,d1_d,d2_t,d2_c,d2_d,d1_name,d2_name,strategy_response,question_order
TRUE,FALSE,[],[],[],img preload,preload,0,186,0.0-0.0,52,1,2025-04-28T17:51:20Z,b60275e29fe2361ab97ac0ac217840d7,Mozilla/5.0 (Windows NT 10.0; Win64; x64; rv:137.0) Gecko/20100101 Firefox/137.0,NA,Firefox,137,Windows,10,https://5puzkbbxv1.cognition.run/?sona_id=57977,"en-US,en;q=0.5",wonvleq1tjxftu4,21,"[""Other""]",No,Male,"NA
",I'm not sure,261817,NA,NA,NA,NA,NA,NA,NA,NA,NA,NA,NA,NA,NA,NA,NA,NA,NA,NA,NA,NA,NA,NA,NA,NA,NA,NA,NA
NA,NA,NA,NA,NA,computer_message,instructions,1,2230,0.0-1.0,52,1,2025-04-28T17:51:20Z,b60275e29fe2361ab97ac0ac217840d7,Mozilla/5.0 (Windows NT 10.0; Win64; x64; rv:137.0) Gecko/20100101 Firefox/137.0,NA,Firefox,137,Windows,10,https://5puzkbbxv1.cognition.run/?sona_id=57977,"en-US,en;q=0.5",wonvleq1tjxftu4,21,"[""Other""]",No,Male,"NA
",I'm not sure,261817,"[{""page_index"":0,""viewing_time"":2043}]",2043,NA,NA,NA,NA,NA,NA,NA,NA,NA,NA,NA,NA,NA,NA,NA,NA,NA,NA,NA,NA,NA,NA,NA,NA,NA
TRUE,NA,NA,NA,NA,NA,fullscreen,2,4389,0.0-2.0,52,1,2025-04-28T17:51:20Z,b60275e29fe2361ab97ac0ac217840d7,Mozilla/5.0 (Windows NT 10.0; Win64; x64; rv:137.0) Gecko/20100101 Firefox/137.0,NA,Firefox,137,Windows,10,https://5puzkbbxv1.cognition.run/?sona_id=57977,"en-US,en;q=0.5",wonvleq1tjxftu4,21,"[""Other""]",No,Male,"NA
",I'm not sure,261817,NA,1079,NA,NA,NA,NA,NA,NA,NA,NA,NA,NA,NA,NA,NA,NA,NA,NA,NA,NA,NA,NA,NA,NA,NA,NA,NA
NA,NA,NA,NA,NA,choice_instructions,instructions,3,19409,0.0-3.0,52,1,2025-04-28T17:51:20Z,b60275e29fe2361ab97ac0ac217840d7,Mozilla/5.0 (Windows NT 10.0; Win64; x64; rv:137.0) Gecko/20100101 Firefox/137.0,NA,Firefox,137,Windows,10,https://5puzkbbxv1.cognition.run/?sona_id=57977,"en-US,en;q=0.5",wonvleq1tjxftu4,21,"[""Other""]",No,Male,"NA
",I'm not sure,261817,"[{""page_index"":0,""viewing_time"":1549},{""page_index"":1,""viewing_time"":1245},{""page_index"":2,""viewing_time"":1255},{""page_index"":3,""viewing_time"":1596},{""page_index"":4,""viewing_time"":795},{""page_index"":5,""viewing_time"":7224},{""page_index"":6,""viewing_time"":1353}]",15017,NA,NA,NA,NA,NA,NA,NA,NA,NA,NA,NA,NA,NA,NA,NA,NA,NA,NA,NA,NA,NA,NA,NA,NA,NA
NA,NA,NA,NA,NA,choice_trial_setup,html-keyboard-response,4,19725,0.0-4.0-0.0,52,1,2025-04-28T17:51:20Z,b60275e29fe2361ab97ac0ac217840d7,Mozilla/5.0 (Windows NT 10.0; Win64; x64; rv:137.0) Gecko/20100101 Firefox/137.0,NA,Firefox,137,Windows,10,https://5puzkbbxv1.cognition.run/?sona_id=57977,"en-US,en;q=0.5",wonvleq1tjxftu4,21,"[""Other""]",No,Male,"NA
",I'm not sure,261817,NA,null,<p></p>,null,choice,tcd,trinary,repulsion_A,2,laptops,null,null,null,null,null,null,2,NA,NA,NA,NA,NA,NA,NA,NA,NA,NA
NA,NA,NA,NA,NA,choice_trial,survey-html-form,5,31724,0.0-4.0-1.0,52,1,2025-04-28T17:51:20Z,b60275e29fe2361ab97ac0ac217840d7,Mozilla/5.0 (Windows NT 10.0; Win64; x64; rv:137.0) Gecko/20100101 Firefox/137.0,NA,Firefox,137,Windows,10,https://5puzkbbxv1.cognition.run/?sona_id=57977,"en-US,en;q=0.5",wonvleq1tjxftu4,21,"[""Other""]",No,Male,"NA
",I'm not sure,261817,NA,11995,NA,"{""product_choice"":""A""}",choice,tcd,trinary,repulsion_A,2,laptops,null,null,null,null,null,null,2,30,40,20,100,90,100,Processing speed,Memory (RAM),NA,NA
NA,NA,NA,NA,NA,choice_trial_setup,html-keyboard-response,6,32040,0.0-4.0-0.1,52,1,2025-04-28T17:51:20Z,b60275e29fe2361ab97ac0ac217840d7,Mozilla/5.0 (Windows NT 10.0; Win64; x64; rv:137.0) Gecko/20100101 Firefox/137.0,NA,Firefox,137,Windows,10,https://5puzkbbxv1.cognition.run/?sona_id=57977,"en-US,en;q=0.5",wonvleq1tjxftu4,21,"[""Other""]",No,Male,"NA
",I'm not sure,261817,NA,null,<p></p>,null,choice,tdc,trinary,repulsion_A,2,televisions,null,null,null,null,null,null,1,NA,NA,NA,NA,NA,NA,NA,NA,NA,NA
NA,NA,NA,NA,NA,choice_trial,survey-html-form,7,38896,0.0-4.0-1.1,52,1,2025-04-28T17:51:20Z,b60275e29fe2361ab97ac0ac217840d7,Mozilla/5.0 (Windows NT 10.0; Win64; x64; rv:137.0) Gecko/20100101 Firefox/137.0,NA,Firefox,137,Windows,10,https://5puzkbbxv1.cognition.run/?sona_id=57977,"en-US,en;q=0.5",wonvleq1tjxftu4,21,"[""Other""]",No,Male,"NA
",I'm not sure,261817,NA,6853,NA,"{""product_choice"":""C""}",choice,tdc,trinary,repulsion_A,2,televisions,null,null,null,null,null,null,1,30,40,20,100,90,100,Screen size,Average lifespan,NA,NA
NA,NA,NA,NA,NA,choice_trial_setup,html-keyboard-response,8,39202,0.0-4.0-0.2,52,1,2025-04-28T17:51:20Z,b60275e29fe2361ab97ac0ac217840d7,Mozilla/5.0 (Windows NT 10.0; Win64; x64; rv:137.0) Gecko/20100101 Firefox/137.0,NA,Firefox,137,Windows,10,https://5puzkbbxv1.cognition.run/?sona_id=57977,"en-US,en;q=0.5",wonvleq1tjxftu4,21,"[""Other""]",No,Male,"NA
",I'm not sure,261817,NA,null,<p></p>,null,choice,ctd,trinary,attraction,1,washing machines,null,null,null,null,null,null,2,NA,NA,NA,NA,NA,NA,NA,NA,NA,NA
NA,NA,NA,NA,NA,choice_trial,survey-html-form,9,47331,0.0-4.0-1.2,52,1,2025-04-28T17:51:20Z,b60275e29fe2361ab97ac0ac217840d7,Mozilla/5.0 (Windows NT 10.0; Win64; x64; rv:137.0) Gecko/20100101 Firefox/137.0,NA,Firefox,137,Windows,10,https://5puzkbbxv1.cognition.run/?sona_id=57977,"en-US,en;q=0.5",wonvleq1tjxftu4,21,"[""Other""]",No,Male,"NA
",I'm not sure,261817,NA,8129,NA,"{""product_choice"":""A""}",choice,ctd,trinary,attraction,1,washing machines,null,null,null,null,null,null,2,60,50,60,50,60,40,Average lifespan,Energy savings,NA,NA
NA,NA,NA,NA,NA,choice_trial_setup,html-keyboard-response,10,47642,0.0-4.0-0.3,52,1,2025-04-28T17:51:20Z,b60275e29fe2361ab97ac0ac217840d7,Mozilla/5.0 (Windows NT 10.0; Win64; x64; rv:137.0) Gecko/20100101 Firefox/137.0,NA,Firefox,137,Windows,10,https://5puzkbbxv1.cognition.run/?sona_id=57977,"en-US,en;q=0.5",wonvleq1tjxftu4,21,"[""Other""]",No,Male,"NA
",I'm not sure,261817,NA,null,<p></p>,null,choice,tdc,trinary,attraction,1,laptops,null,null,null,null,null,null,2,NA,NA,NA,NA,NA,NA,NA,NA,NA,NA
NA,NA,NA,NA,NA,choice_trial,survey-html-form,11,52145,0.0-4.0-1.3,52,1,2025-04-28T17:51:20Z,b60275e29fe2361ab97ac0ac217840d7,Mozilla/5.0 (Windows NT 10.0; Win64; x64; rv:137.0) Gecko/20100101 Firefox/137.0,NA,Firefox,137,Windows,10,https://5puzkbbxv1.cognition.run/?sona_id=57977,"en-US,en;q=0.5",wonvleq1tjxftu4,21,"[""Other""]",No,Male,"NA
",I'm not sure,261817,NA,4501,NA,"{""product_choice"":""C""}",choice,tdc,trinary,attraction,1,laptops,null,null,null,null,null,null,2,60,50,60,50,60,40,Processing speed,Memory (RAM),NA,NA
NA,NA,NA,NA,NA,choice_trial_setup,html-keyboard-response,12,52451,0.0-4.0-0.4,52,1,2025-04-28T17:51:20Z,b60275e29fe2361ab97ac0ac217840d7,Mozilla/5.0 (Windows NT 10.0; Win64; x64; rv:137.0) Gecko/20100101 Firefox/137.0,NA,Firefox,137,Windows,10,https://5puzkbbxv1.cognition.run/?sona_id=57977,"en-US,en;q=0.5",wonvleq1tjxftu4,21,"[""Other""]",No,Male,"NA
",I'm not sure,261817,NA,null,<p></p>,null,choice,wwb,trinary,catch,null,washing machines,95,50,35,15,35,20,1,NA,NA,NA,NA,NA,NA,NA,NA,NA,NA
NA,NA,NA,NA,NA,choice_trial,survey-html-form,13,57920,0.0-4.0-1.4,52,1,2025-04-28T17:51:20Z,b60275e29fe2361ab97ac0ac217840d7,Mozilla/5.0 (Windows NT 10.0; Win64; x64; rv:137.0) Gecko/20100101 Firefox/137.0,NA,Firefox,137,Windows,10,https://5puzkbbxv1.cognition.run/?sona_id=57977,"en-US,en;q=0.5",wonvleq1tjxftu4,21,"[""Other""]",No,Male,"NA
",I'm not sure,261817,NA,5469,NA,"{""product_choice"":""C""}",choice,wwb,trinary,catch,null,washing machines,95,50,35,15,35,20,1,null,null,null,null,null,null,Average lifespan,Energy savings,NA,NA
NA,NA,NA,NA,NA,choice_trial_setup,html-keyboard-response,14,58256,0.0-4.0-0.5,52,1,2025-04-28T17:51:20Z,b60275e29fe2361ab97ac0ac217840d7,Mozilla/5.0 (Windows NT 10.0; Win64; x64; rv:137.0) Gecko/20100101 Firefox/137.0,NA,Firefox,137,Windows,10,https://5puzkbbxv1.cognition.run/?sona_id=57977,"en-US,en;q=0.5",wonvleq1tjxftu4,21,"[""Other""]",No,Male,"NA
",I'm not sure,261817,NA,null,<p></p>,null,choice,tc,binary,repulsion,1,laptops,null,null,null,null,null,null,2,NA,NA,NA,NA,NA,NA,NA,NA,NA,NA
NA,NA,NA,NA,NA,choice_trial,survey-html-form,15,65753,0.0-4.0-1.5,52,1,2025-04-28T17:51:20Z,b60275e29fe2361ab97ac0ac217840d7,Mozilla/5.0 (Windows NT 10.0; Win64; x64; rv:137.0) Gecko/20100101 Firefox/137.0,NA,Firefox,137,Windows,10,https://5puzkbbxv1.cognition.run/?sona_id=57977,"en-US,en;q=0.5",wonvleq1tjxftu4,21,"[""Other""]",No,Male,"NA
",I'm not sure,261817,NA,7496,NA,"{""product_choice"":""B""}",choice,tc,binary,repulsion,1,laptops,null,null,null,null,null,null,2,100,90,null,30,40,null,Processing speed,Memory (RAM),NA,NA
NA,NA,NA,NA,NA,choice_trial_setup,html-keyboard-response,16,66099,0.0-4.0-0.6,52,1,2025-04-28T17:51:20Z,b60275e29fe2361ab97ac0ac217840d7,Mozilla/5.0 (Windows NT 10.0; Win64; x64; rv:137.0) Gecko/20100101 Firefox/137.0,NA,Firefox,137,Windows,10,https://5puzkbbxv1.cognition.run/?sona_id=57977,"en-US,en;q=0.5",wonvleq1tjxftu4,21,"[""Other""]",No,Male,"NA
",I'm not sure,261817,NA,null,<p></p>,null,choice,tcd,trinary,attraction,1,microwave ovens,null,null,null,null,null,null,2,NA,NA,NA,NA,NA,NA,NA,NA,NA,NA
NA,NA,NA,NA,NA,choice_trial,survey-html-form,17,68441,0.0-4.0-1.6,52,1,2025-04-28T17:51:20Z,b60275e29fe2361ab97ac0ac217840d7,Mozilla/5.0 (Windows NT 10.0; Win64; x64; rv:137.0) Gecko/20100101 Firefox/137.0,NA,Firefox,137,Windows,10,https://5puzkbbxv1.cognition.run/?sona_id=57977,"en-US,en;q=0.5",wonvleq1tjxftu4,21,"[""Other""]",No,Male,"NA
",I'm not sure,261817,NA,2340,NA,"{""product_choice"":""B""}",choice,tcd,trinary,attraction,1,microwave ovens,null,null,null,null,null,null,2,60,50,60,50,60,40,Warranty,Cooking power,NA,NA
NA,NA,NA,NA,NA,choice_trial_setup,html-keyboard-response,18,68755,0.0-4.0-0.7,52,1,2025-04-28T17:51:20Z,b60275e29fe2361ab97ac0ac217840d7,Mozilla/5.0 (Windows NT 10.0; Win64; x64; rv:137.0) Gecko/20100101 Firefox/137.0,NA,Firefox,137,Windows,10,https://5puzkbbxv1.cognition.run/?sona_id=57977,"en-US,en;q=0.5",wonvleq1tjxftu4,21,"[""Other""]",No,Male,"NA
",I'm not sure,261817,NA,null,<p></p>,null,choice,cdt,trinary,repulsion_B,2,laptops,null,null,null,null,null,null,2,NA,NA,NA,NA,NA,NA,NA,NA,NA,NA
NA,NA,NA,NA,NA,choice_trial,survey-html-form,19,72763,0.0-4.0-1.7,52,1,2025-04-28T17:51:20Z,b60275e29fe2361ab97ac0ac217840d7,Mozilla/5.0 (Windows NT 10.0; Win64; x64; rv:137.0) Gecko/20100101 Firefox/137.0,NA,Firefox,137,Windows,10,https://5puzkbbxv1.cognition.run/?sona_id=57977,"en-US,en;q=0.5",wonvleq1tjxftu4,21,"[""Other""]",No,Male,"NA
",I'm not sure,261817,NA,4006,NA,"{""product_choice"":""C""}",choice,cdt,trinary,repulsion_B,2,laptops,null,null,null,null,null,null,2,40,30,40,90,100,80,Processing speed,Memory (RAM),NA,NA
NA,NA,NA,NA,NA,choice_trial_setup,html-keyboard-response,20,73082,0.0-4.0-0.8,52,1,2025-04-28T17:51:20Z,b60275e29fe2361ab97ac0ac217840d7,Mozilla/5.0 (Windows NT 10.0; Win64; x64; rv:137.0) Gecko/20100101 Firefox/137.0,NA,Firefox,137,Windows,10,https://5puzkbbxv1.cognition.run/?sona_id=57977,"en-US,en;q=0.5",wonvleq1tjxftu4,21,"[""Other""]",No,Male,"NA
",I'm not sure,261817,NA,null,<p></p>,null,choice,cdt,trinary,attraction,2,microwave ovens,null,null,null,null,null,null,1,NA,NA,NA,NA,NA,NA,NA,NA,NA,NA
NA,NA,NA,NA,NA,choice_trial,survey-html-form,21,79132,0.0-4.0-1.8,52,1,2025-04-28T17:51:20Z,b60275e29fe2361ab97ac0ac217840d7,Mozilla/5.0 (Windows NT 10.0; Win64; x64; rv:137.0) Gecko/20100101 Firefox/137.0,NA,Firefox,137,Windows,10,https://5puzkbbxv1.cognition.run/?sona_id=57977,"en-US,en;q=0.5",wonvleq1tjxftu4,21,"[""Other""]",No,Male,"NA
",I'm not sure,261817,NA,6049,NA,"{""product_choice"":""A""}",choice,cdt,trinary,attraction,2,microwave ovens,null,null,null,null,null,null,1,50,60,40,60,50,60,Warranty,Cooking power,NA,NA
NA,NA,NA,NA,NA,choice_trial_setup,html-keyboard-response,22,79449,0.0-4.0-0.9,52,1,2025-04-28T17:51:20Z,b60275e29fe2361ab97ac0ac217840d7,Mozilla/5.0 (Windows NT 10.0; Win64; x64; rv:137.0) Gecko/20100101 Firefox/137.0,NA,Firefox,137,Windows,10,https://5puzkbbxv1.cognition.run/?sona_id=57977,"en-US,en;q=0.5",wonvleq1tjxftu4,21,"[""Other""]",No,Male,"NA
",I'm not sure,261817,NA,null,<p></p>,null,choice,ctd,trinary,repulsion_A,1,microwave ovens,null,null,null,null,null,null,2,NA,NA,NA,NA,NA,NA,NA,NA,NA,NA
NA,NA,NA,NA,NA,choice_trial,survey-html-form,23,83311,0.0-4.0-1.9,52,1,2025-04-28T17:51:20Z,b60275e29fe2361ab97ac0ac217840d7,Mozilla/5.0 (Windows NT 10.0; Win64; x64; rv:137.0) Gecko/20100101 Firefox/137.0,NA,Firefox,137,Windows,10,https://5puzkbbxv1.cognition.run/?sona_id=57977,"en-US,en;q=0.5",wonvleq1tjxftu4,21,"[""Other""]",No,Male,"NA
",I'm not sure,261817,NA,3859,NA,"{""product_choice"":""A""}",choice,ctd,trinary,repulsion_A,1,microwave ovens,null,null,null,null,null,null,2,100,90,100,30,40,20,Warranty,Cooking power,NA,NA
NA,NA,NA,NA,NA,choice_trial_setup,html-keyboard-response,24,83619,0.0-4.0-0.10,52,1,2025-04-28T17:51:20Z,b60275e29fe2361ab97ac0ac217840d7,Mozilla/5.0 (Windows NT 10.0; Win64; x64; rv:137.0) Gecko/20100101 Firefox/137.0,NA,Firefox,137,Windows,10,https://5puzkbbxv1.cognition.run/?sona_id=57977,"en-US,en;q=0.5",wonvleq1tjxftu4,21,"[""Other""]",No,Male,"NA
",I'm not sure,261817,NA,null,<p></p>,null,choice,tc,binary,repulsion,1,washing machines,null,null,null,null,null,null,1,NA,NA,NA,NA,NA,NA,NA,NA,NA,NA
NA,NA,NA,NA,NA,choice_trial,survey-html-form,25,86923,0.0-4.0-1.10,52,1,2025-04-28T17:51:20Z,b60275e29fe2361ab97ac0ac217840d7,Mozilla/5.0 (Windows NT 10.0; Win64; x64; rv:137.0) Gecko/20100101 Firefox/137.0,NA,Firefox,137,Windows,10,https://5puzkbbxv1.cognition.run/?sona_id=57977,"en-US,en;q=0.5",wonvleq1tjxftu4,21,"[""Other""]",No,Male,"NA
",I'm not sure,261817,NA,3303,NA,"{""product_choice"":""B""}",choice,tc,binary,repulsion,1,washing machines,null,null,null,null,null,null,1,100,90,null,30,40,null,Average lifespan,Energy savings,NA,NA
NA,NA,NA,NA,NA,choice_trial_setup,html-keyboard-response,26,87229,0.0-4.0-0.11,52,1,2025-04-28T17:51:20Z,b60275e29fe2361ab97ac0ac217840d7,Mozilla/5.0 (Windows NT 10.0; Win64; x64; rv:137.0) Gecko/20100101 Firefox/137.0,NA,Firefox,137,Windows,10,https://5puzkbbxv1.cognition.run/?sona_id=57977,"en-US,en;q=0.5",wonvleq1tjxftu4,21,"[""Other""]",No,Male,"NA
",I'm not sure,261817,NA,null,<p></p>,null,choice,tdc,trinary,repulsion_B,1,washing machines,null,null,null,null,null,null,2,NA,NA,NA,NA,NA,NA,NA,NA,NA,NA
NA,NA,NA,NA,NA,choice_trial,survey-html-form,27,91853,0.0-4.0-1.11,52,1,2025-04-28T17:51:20Z,b60275e29fe2361ab97ac0ac217840d7,Mozilla/5.0 (Windows NT 10.0; Win64; x64; rv:137.0) Gecko/20100101 Firefox/137.0,NA,Firefox,137,Windows,10,https://5puzkbbxv1.cognition.run/?sona_id=57977,"en-US,en;q=0.5",wonvleq1tjxftu4,21,"[""Other""]",No,Male,"NA
",I'm not sure,261817,NA,4623,NA,"{""product_choice"":""A""}",choice,tdc,trinary,repulsion_B,1,washing machines,null,null,null,null,null,null,2,90,100,80,40,30,40,Average lifespan,Energy savings,NA,NA
NA,NA,NA,NA,NA,choice_trial_setup,html-keyboard-response,28,92158,0.0-4.0-0.12,52,1,2025-04-28T17:51:20Z,b60275e29fe2361ab97ac0ac217840d7,Mozilla/5.0 (Windows NT 10.0; Win64; x64; rv:137.0) Gecko/20100101 Firefox/137.0,NA,Firefox,137,Windows,10,https://5puzkbbxv1.cognition.run/?sona_id=57977,"en-US,en;q=0.5",wonvleq1tjxftu4,21,"[""Other""]",No,Male,"NA
",I'm not sure,261817,NA,null,<p></p>,null,choice,dtc,trinary,repulsion_B,1,microwave ovens,null,null,null,null,null,null,2,NA,NA,NA,NA,NA,NA,NA,NA,NA,NA
NA,NA,NA,NA,NA,choice_trial,survey-html-form,29,96060,0.0-4.0-1.12,52,1,2025-04-28T17:51:20Z,b60275e29fe2361ab97ac0ac217840d7,Mozilla/5.0 (Windows NT 10.0; Win64; x64; rv:137.0) Gecko/20100101 Firefox/137.0,NA,Firefox,137,Windows,10,https://5puzkbbxv1.cognition.run/?sona_id=57977,"en-US,en;q=0.5",wonvleq1tjxftu4,21,"[""Other""]",No,Male,"NA
",I'm not sure,261817,NA,3901,NA,"{""product_choice"":""B""}",choice,dtc,trinary,repulsion_B,1,microwave ovens,null,null,null,null,null,null,2,90,100,80,40,30,40,Warranty,Cooking power,NA,NA
NA,NA,NA,NA,NA,choice_trial_setup,html-keyboard-response,30,96368,0.0-4.0-0.13,52,1,2025-04-28T17:51:20Z,b60275e29fe2361ab97ac0ac217840d7,Mozilla/5.0 (Windows NT 10.0; Win64; x64; rv:137.0) Gecko/20100101 Firefox/137.0,NA,Firefox,137,Windows,10,https://5puzkbbxv1.cognition.run/?sona_id=57977,"en-US,en;q=0.5",wonvleq1tjxftu4,21,"[""Other""]",No,Male,"NA
",I'm not sure,261817,NA,null,<p></p>,null,choice,ct,binary,repulsion,2,microwave ovens,null,null,null,null,null,null,2,NA,NA,NA,NA,NA,NA,NA,NA,NA,NA
NA,NA,NA,NA,NA,choice_trial,survey-html-form,31,99018,0.0-4.0-1.13,52,1,2025-04-28T17:51:20Z,b60275e29fe2361ab97ac0ac217840d7,Mozilla/5.0 (Windows NT 10.0; Win64; x64; rv:137.0) Gecko/20100101 Firefox/137.0,NA,Firefox,137,Windows,10,https://5puzkbbxv1.cognition.run/?sona_id=57977,"en-US,en;q=0.5",wonvleq1tjxftu4,21,"[""Other""]",No,Male,"NA
",I'm not sure,261817,NA,2648,NA,"{""product_choice"":""A""}",choice,ct,binary,repulsion,2,microwave ovens,null,null,null,null,null,null,2,30,40,null,100,90,null,Warranty,Cooking power,NA,NA
NA,NA,NA,NA,NA,choice_trial_setup,html-keyboard-response,32,99341,0.0-4.0-0.14,52,1,2025-04-28T17:51:20Z,b60275e29fe2361ab97ac0ac217840d7,Mozilla/5.0 (Windows NT 10.0; Win64; x64; rv:137.0) Gecko/20100101 Firefox/137.0,NA,Firefox,137,Windows,10,https://5puzkbbxv1.cognition.run/?sona_id=57977,"en-US,en;q=0.5",wonvleq1tjxftu4,21,"[""Other""]",No,Male,"NA
",I'm not sure,261817,NA,null,<p></p>,null,choice,wwb,trinary,catch,null,laptops,55,60,40,45,30,50,1,NA,NA,NA,NA,NA,NA,NA,NA,NA,NA
NA,NA,NA,NA,NA,choice_trial,survey-html-form,33,103411,0.0-4.0-1.14,52,1,2025-04-28T17:51:20Z,b60275e29fe2361ab97ac0ac217840d7,Mozilla/5.0 (Windows NT 10.0; Win64; x64; rv:137.0) Gecko/20100101 Firefox/137.0,NA,Firefox,137,Windows,10,https://5puzkbbxv1.cognition.run/?sona_id=57977,"en-US,en;q=0.5",wonvleq1tjxftu4,21,"[""Other""]",No,Male,"NA
",I'm not sure,261817,NA,4068,NA,"{""product_choice"":""C""}",choice,wwb,trinary,catch,null,laptops,55,60,40,45,30,50,1,null,null,null,null,null,null,Processing speed,Memory (RAM),NA,NA
NA,NA,NA,NA,NA,choice_trial_setup,html-keyboard-response,34,103718,0.0-4.0-0.15,52,1,2025-04-28T17:51:20Z,b60275e29fe2361ab97ac0ac217840d7,Mozilla/5.0 (Windows NT 10.0; Win64; x64; rv:137.0) Gecko/20100101 Firefox/137.0,NA,Firefox,137,Windows,10,https://5puzkbbxv1.cognition.run/?sona_id=57977,"en-US,en;q=0.5",wonvleq1tjxftu4,21,"[""Other""]",No,Male,"NA
",I'm not sure,261817,NA,null,<p></p>,null,choice,wb,binary,catch,null,laptops,70,90,5,15,null,null,2,NA,NA,NA,NA,NA,NA,NA,NA,NA,NA
NA,NA,NA,NA,NA,choice_trial,survey-html-form,35,109782,0.0-4.0-1.15,52,1,2025-04-28T17:51:20Z,b60275e29fe2361ab97ac0ac217840d7,Mozilla/5.0 (Windows NT 10.0; Win64; x64; rv:137.0) Gecko/20100101 Firefox/137.0,NA,Firefox,137,Windows,10,https://5puzkbbxv1.cognition.run/?sona_id=57977,"en-US,en;q=0.5",wonvleq1tjxftu4,21,"[""Other""]",No,Male,"NA
",I'm not sure,261817,NA,6061,NA,"{""product_choice"":""B""}",choice,wb,binary,catch,null,laptops,70,90,5,15,null,null,2,null,null,null,null,null,null,Processing speed,Memory (RAM),NA,NA
NA,NA,NA,NA,NA,choice_trial_setup,html-keyboard-response,36,110088,0.0-4.0-0.16,52,1,2025-04-28T17:51:20Z,b60275e29fe2361ab97ac0ac217840d7,Mozilla/5.0 (Windows NT 10.0; Win64; x64; rv:137.0) Gecko/20100101 Firefox/137.0,NA,Firefox,137,Windows,10,https://5puzkbbxv1.cognition.run/?sona_id=57977,"en-US,en;q=0.5",wonvleq1tjxftu4,21,"[""Other""]",No,Male,"NA
",I'm not sure,261817,NA,null,<p></p>,null,choice,dtc,trinary,repulsion_B,2,washing machines,null,null,null,null,null,null,1,NA,NA,NA,NA,NA,NA,NA,NA,NA,NA
NA,NA,NA,NA,NA,choice_trial,survey-html-form,37,113623,0.0-4.0-1.16,52,1,2025-04-28T17:51:20Z,b60275e29fe2361ab97ac0ac217840d7,Mozilla/5.0 (Windows NT 10.0; Win64; x64; rv:137.0) Gecko/20100101 Firefox/137.0,NA,Firefox,137,Windows,10,https://5puzkbbxv1.cognition.run/?sona_id=57977,"en-US,en;q=0.5",wonvleq1tjxftu4,21,"[""Other""]",No,Male,"NA
",I'm not sure,261817,NA,3532,NA,"{""product_choice"":""B""}",choice,dtc,trinary,repulsion_B,2,washing machines,null,null,null,null,null,null,1,40,30,40,90,100,80,Average lifespan,Energy savings,NA,NA
NA,NA,NA,NA,NA,choice_trial_setup,html-keyboard-response,38,113929,0.0-4.0-0.17,52,1,2025-04-28T17:51:20Z,b60275e29fe2361ab97ac0ac217840d7,Mozilla/5.0 (Windows NT 10.0; Win64; x64; rv:137.0) Gecko/20100101 Firefox/137.0,NA,Firefox,137,Windows,10,https://5puzkbbxv1.cognition.run/?sona_id=57977,"en-US,en;q=0.5",wonvleq1tjxftu4,21,"[""Other""]",No,Male,"NA
",I'm not sure,261817,NA,null,<p></p>,null,choice,tc,binary,attraction,NA,televisions,null,null,null,null,null,null,2,NA,NA,NA,NA,NA,NA,NA,NA,NA,NA
NA,NA,NA,NA,NA,choice_trial,survey-html-form,39,115877,0.0-4.0-1.17,52,1,2025-04-28T17:51:20Z,b60275e29fe2361ab97ac0ac217840d7,Mozilla/5.0 (Windows NT 10.0; Win64; x64; rv:137.0) Gecko/20100101 Firefox/137.0,NA,Firefox,137,Windows,10,https://5puzkbbxv1.cognition.run/?sona_id=57977,"en-US,en;q=0.5",wonvleq1tjxftu4,21,"[""Other""]",No,Male,"NA
",I'm not sure,261817,NA,1945,NA,"{""product_choice"":""A""}",choice,tc,binary,attraction,NA,televisions,null,null,null,null,null,null,2,60,50,null,50,60,null,Screen size,Average lifespan,NA,NA
NA,NA,NA,NA,NA,choice_trial_setup,html-keyboard-response,40,116194,0.0-4.0-0.18,52,1,2025-04-28T17:51:20Z,b60275e29fe2361ab97ac0ac217840d7,Mozilla/5.0 (Windows NT 10.0; Win64; x64; rv:137.0) Gecko/20100101 Firefox/137.0,NA,Firefox,137,Windows,10,https://5puzkbbxv1.cognition.run/?sona_id=57977,"en-US,en;q=0.5",wonvleq1tjxftu4,21,"[""Other""]",No,Male,"NA
",I'm not sure,261817,NA,null,<p></p>,null,choice,tcd,trinary,repulsion_B,1,televisions,null,null,null,null,null,null,2,NA,NA,NA,NA,NA,NA,NA,NA,NA,NA
NA,NA,NA,NA,NA,choice_trial,survey-html-form,41,120310,0.0-4.0-1.18,52,1,2025-04-28T17:51:20Z,b60275e29fe2361ab97ac0ac217840d7,Mozilla/5.0 (Windows NT 10.0; Win64; x64; rv:137.0) Gecko/20100101 Firefox/137.0,NA,Firefox,137,Windows,10,https://5puzkbbxv1.cognition.run/?sona_id=57977,"en-US,en;q=0.5",wonvleq1tjxftu4,21,"[""Other""]",No,Male,"NA
",I'm not sure,261817,NA,4113,NA,"{""product_choice"":""A""}",choice,tcd,trinary,repulsion_B,1,televisions,null,null,null,null,null,null,2,90,100,80,40,30,40,Screen size,Average lifespan,NA,NA
NA,NA,NA,NA,NA,choice_trial_setup,html-keyboard-response,42,120621,0.0-4.0-0.19,52,1,2025-04-28T17:51:20Z,b60275e29fe2361ab97ac0ac217840d7,Mozilla/5.0 (Windows NT 10.0; Win64; x64; rv:137.0) Gecko/20100101 Firefox/137.0,NA,Firefox,137,Windows,10,https://5puzkbbxv1.cognition.run/?sona_id=57977,"en-US,en;q=0.5",wonvleq1tjxftu4,21,"[""Other""]",No,Male,"NA
",I'm not sure,261817,NA,null,<p></p>,null,choice,wwb,trinary,catch,null,televisions,50,90,50,20,30,5,2,NA,NA,NA,NA,NA,NA,NA,NA,NA,NA
NA,NA,NA,NA,NA,choice_trial,survey-html-form,43,122694,0.0-4.0-1.19,52,1,2025-04-28T17:51:20Z,b60275e29fe2361ab97ac0ac217840d7,Mozilla/5.0 (Windows NT 10.0; Win64; x64; rv:137.0) Gecko/20100101 Firefox/137.0,NA,Firefox,137,Windows,10,https://5puzkbbxv1.cognition.run/?sona_id=57977,"en-US,en;q=0.5",wonvleq1tjxftu4,21,"[""Other""]",No,Male,"NA
",I'm not sure,261817,NA,2071,NA,"{""product_choice"":""C""}",choice,wwb,trinary,catch,null,televisions,50,90,50,20,30,5,2,null,null,null,null,null,null,Screen size,Average lifespan,NA,NA
NA,NA,NA,NA,NA,choice_trial_setup,html-keyboard-response,44,122997,0.0-4.0-0.20,52,1,2025-04-28T17:51:20Z,b60275e29fe2361ab97ac0ac217840d7,Mozilla/5.0 (Windows NT 10.0; Win64; x64; rv:137.0) Gecko/20100101 Firefox/137.0,NA,Firefox,137,Windows,10,https://5puzkbbxv1.cognition.run/?sona_id=57977,"en-US,en;q=0.5",wonvleq1tjxftu4,21,"[""Other""]",No,Male,"NA
",I'm not sure,261817,NA,null,<p></p>,null,choice,tc,binary,repulsion,2,washing machines,null,null,null,null,null,null,1,NA,NA,NA,NA,NA,NA,NA,NA,NA,NA
NA,NA,NA,NA,NA,choice_trial,survey-html-form,45,126335,0.0-4.0-1.20,52,1,2025-04-28T17:51:20Z,b60275e29fe2361ab97ac0ac217840d7,Mozilla/5.0 (Windows NT 10.0; Win64; x64; rv:137.0) Gecko/20100101 Firefox/137.0,NA,Firefox,137,Windows,10,https://5puzkbbxv1.cognition.run/?sona_id=57977,"en-US,en;q=0.5",wonvleq1tjxftu4,21,"[""Other""]",No,Male,"NA
",I'm not sure,261817,NA,3334,NA,"{""product_choice"":""A""}",choice,tc,binary,repulsion,2,washing machines,null,null,null,null,null,null,1,30,40,null,100,90,null,Average lifespan,Energy savings,NA,NA
NA,NA,NA,NA,NA,choice_trial_setup,html-keyboard-response,46,126639,0.0-4.0-0.21,52,1,2025-04-28T17:51:20Z,b60275e29fe2361ab97ac0ac217840d7,Mozilla/5.0 (Windows NT 10.0; Win64; x64; rv:137.0) Gecko/20100101 Firefox/137.0,NA,Firefox,137,Windows,10,https://5puzkbbxv1.cognition.run/?sona_id=57977,"en-US,en;q=0.5",wonvleq1tjxftu4,21,"[""Other""]",No,Male,"NA
",I'm not sure,261817,NA,null,<p></p>,null,choice,wbw,trinary,catch,null,microwave ovens,80,55,35,5,40,40,1,NA,NA,NA,NA,NA,NA,NA,NA,NA,NA
NA,NA,NA,NA,NA,choice_trial,survey-html-form,47,129448,0.0-4.0-1.21,52,1,2025-04-28T17:51:20Z,b60275e29fe2361ab97ac0ac217840d7,Mozilla/5.0 (Windows NT 10.0; Win64; x64; rv:137.0) Gecko/20100101 Firefox/137.0,NA,Firefox,137,Windows,10,https://5puzkbbxv1.cognition.run/?sona_id=57977,"en-US,en;q=0.5",wonvleq1tjxftu4,21,"[""Other""]",No,Male,"NA
",I'm not sure,261817,NA,2805,NA,"{""product_choice"":""B""}",choice,wbw,trinary,catch,null,microwave ovens,80,55,35,5,40,40,1,null,null,null,null,null,null,Warranty,Cooking power,NA,NA
NA,NA,NA,NA,NA,choice_trial_setup,html-keyboard-response,48,129762,0.0-4.0-0.22,52,1,2025-04-28T17:51:20Z,b60275e29fe2361ab97ac0ac217840d7,Mozilla/5.0 (Windows NT 10.0; Win64; x64; rv:137.0) Gecko/20100101 Firefox/137.0,NA,Firefox,137,Windows,10,https://5puzkbbxv1.cognition.run/?sona_id=57977,"en-US,en;q=0.5",wonvleq1tjxftu4,21,"[""Other""]",No,Male,"NA
",I'm not sure,261817,NA,null,<p></p>,null,choice,dct,trinary,repulsion_A,2,washing machines,null,null,null,null,null,null,2,NA,NA,NA,NA,NA,NA,NA,NA,NA,NA
NA,NA,NA,NA,NA,choice_trial,survey-html-form,49,134963,0.0-4.0-1.22,52,1,2025-04-28T17:51:20Z,b60275e29fe2361ab97ac0ac217840d7,Mozilla/5.0 (Windows NT 10.0; Win64; x64; rv:137.0) Gecko/20100101 Firefox/137.0,NA,Firefox,137,Windows,10,https://5puzkbbxv1.cognition.run/?sona_id=57977,"en-US,en;q=0.5",wonvleq1tjxftu4,21,"[""Other""]",No,Male,"NA
",I'm not sure,261817,NA,5198,NA,"{""product_choice"":""B""}",choice,dct,trinary,repulsion_A,2,washing machines,null,null,null,null,null,null,2,30,40,20,100,90,100,Average lifespan,Energy savings,NA,NA
NA,NA,NA,NA,NA,choice_trial_setup,html-keyboard-response,50,135285,0.0-4.0-0.23,52,1,2025-04-28T17:51:20Z,b60275e29fe2361ab97ac0ac217840d7,Mozilla/5.0 (Windows NT 10.0; Win64; x64; rv:137.0) Gecko/20100101 Firefox/137.0,NA,Firefox,137,Windows,10,https://5puzkbbxv1.cognition.run/?sona_id=57977,"en-US,en;q=0.5",wonvleq1tjxftu4,21,"[""Other""]",No,Male,"NA
",I'm not sure,261817,NA,null,<p></p>,null,choice,cdt,trinary,attraction,1,televisions,null,null,null,null,null,null,1,NA,NA,NA,NA,NA,NA,NA,NA,NA,NA
NA,NA,NA,NA,NA,choice_trial,survey-html-form,51,141317,0.0-4.0-1.23,52,1,2025-04-28T17:51:20Z,b60275e29fe2361ab97ac0ac217840d7,Mozilla/5.0 (Windows NT 10.0; Win64; x64; rv:137.0) Gecko/20100101 Firefox/137.0,NA,Firefox,137,Windows,10,https://5puzkbbxv1.cognition.run/?sona_id=57977,"en-US,en;q=0.5",wonvleq1tjxftu4,21,"[""Other""]",No,Male,"NA
",I'm not sure,261817,NA,6029,NA,"{""product_choice"":""C""}",choice,cdt,trinary,attraction,1,televisions,null,null,null,null,null,null,1,60,50,60,50,60,40,Screen size,Average lifespan,NA,NA
NA,NA,NA,NA,NA,choice_trial_setup,html-keyboard-response,52,141631,0.0-4.0-0.24,52,1,2025-04-28T17:51:20Z,b60275e29fe2361ab97ac0ac217840d7,Mozilla/5.0 (Windows NT 10.0; Win64; x64; rv:137.0) Gecko/20100101 Firefox/137.0,NA,Firefox,137,Windows,10,https://5puzkbbxv1.cognition.run/?sona_id=57977,"en-US,en;q=0.5",wonvleq1tjxftu4,21,"[""Other""]",No,Male,"NA
",I'm not sure,261817,NA,null,<p></p>,null,choice,tc,binary,repulsion,2,televisions,null,null,null,null,null,null,1,NA,NA,NA,NA,NA,NA,NA,NA,NA,NA
NA,NA,NA,NA,NA,choice_trial,survey-html-form,53,143373,0.0-4.0-1.24,52,1,2025-04-28T17:51:20Z,b60275e29fe2361ab97ac0ac217840d7,Mozilla/5.0 (Windows NT 10.0; Win64; x64; rv:137.0) Gecko/20100101 Firefox/137.0,NA,Firefox,137,Windows,10,https://5puzkbbxv1.cognition.run/?sona_id=57977,"en-US,en;q=0.5",wonvleq1tjxftu4,21,"[""Other""]",No,Male,"NA
",I'm not sure,261817,NA,1738,NA,"{""product_choice"":""A""}",choice,tc,binary,repulsion,2,televisions,null,null,null,null,null,null,1,30,40,null,100,90,null,Screen size,Average lifespan,NA,NA
NA,NA,NA,NA,NA,choice_trial_setup,html-keyboard-response,54,143682,0.0-4.0-0.25,52,1,2025-04-28T17:51:20Z,b60275e29fe2361ab97ac0ac217840d7,Mozilla/5.0 (Windows NT 10.0; Win64; x64; rv:137.0) Gecko/20100101 Firefox/137.0,NA,Firefox,137,Windows,10,https://5puzkbbxv1.cognition.run/?sona_id=57977,"en-US,en;q=0.5",wonvleq1tjxftu4,21,"[""Other""]",No,Male,"NA
",I'm not sure,261817,NA,null,<p></p>,null,choice,ct,binary,repulsion,1,microwave ovens,null,null,null,null,null,null,2,NA,NA,NA,NA,NA,NA,NA,NA,NA,NA
NA,NA,NA,NA,NA,choice_trial,survey-html-form,55,146106,0.0-4.0-1.25,52,1,2025-04-28T17:51:20Z,b60275e29fe2361ab97ac0ac217840d7,Mozilla/5.0 (Windows NT 10.0; Win64; x64; rv:137.0) Gecko/20100101 Firefox/137.0,NA,Firefox,137,Windows,10,https://5puzkbbxv1.cognition.run/?sona_id=57977,"en-US,en;q=0.5",wonvleq1tjxftu4,21,"[""Other""]",No,Male,"NA
",I'm not sure,261817,NA,2421,NA,"{""product_choice"":""B""}",choice,ct,binary,repulsion,1,microwave ovens,null,null,null,null,null,null,2,100,90,null,30,40,null,Warranty,Cooking power,NA,NA
NA,NA,NA,NA,NA,choice_trial_setup,html-keyboard-response,56,146411,0.0-4.0-0.26,52,1,2025-04-28T17:51:20Z,b60275e29fe2361ab97ac0ac217840d7,Mozilla/5.0 (Windows NT 10.0; Win64; x64; rv:137.0) Gecko/20100101 Firefox/137.0,NA,Firefox,137,Windows,10,https://5puzkbbxv1.cognition.run/?sona_id=57977,"en-US,en;q=0.5",wonvleq1tjxftu4,21,"[""Other""]",No,Male,"NA
",I'm not sure,261817,NA,null,<p></p>,null,choice,ct,binary,repulsion,1,televisions,null,null,null,null,null,null,2,NA,NA,NA,NA,NA,NA,NA,NA,NA,NA
NA,NA,NA,NA,NA,choice_trial,survey-html-form,57,148279,0.0-4.0-1.26,52,1,2025-04-28T17:51:20Z,b60275e29fe2361ab97ac0ac217840d7,Mozilla/5.0 (Windows NT 10.0; Win64; x64; rv:137.0) Gecko/20100101 Firefox/137.0,NA,Firefox,137,Windows,10,https://5puzkbbxv1.cognition.run/?sona_id=57977,"en-US,en;q=0.5",wonvleq1tjxftu4,21,"[""Other""]",No,Male,"NA
",I'm not sure,261817,NA,1863,NA,"{""product_choice"":""B""}",choice,ct,binary,repulsion,1,televisions,null,null,null,null,null,null,2,100,90,null,30,40,null,Screen size,Average lifespan,NA,NA
NA,NA,NA,NA,NA,choice_trial_setup,html-keyboard-response,58,148587,0.0-4.0-0.27,52,1,2025-04-28T17:51:20Z,b60275e29fe2361ab97ac0ac217840d7,Mozilla/5.0 (Windows NT 10.0; Win64; x64; rv:137.0) Gecko/20100101 Firefox/137.0,NA,Firefox,137,Windows,10,https://5puzkbbxv1.cognition.run/?sona_id=57977,"en-US,en;q=0.5",wonvleq1tjxftu4,21,"[""Other""]",No,Male,"NA
",I'm not sure,261817,NA,null,<p></p>,null,choice,ctd,trinary,repulsion_A,1,laptops,null,null,null,null,null,null,1,NA,NA,NA,NA,NA,NA,NA,NA,NA,NA
NA,NA,NA,NA,NA,choice_trial,survey-html-form,59,152296,0.0-4.0-1.27,52,1,2025-04-28T17:51:20Z,b60275e29fe2361ab97ac0ac217840d7,Mozilla/5.0 (Windows NT 10.0; Win64; x64; rv:137.0) Gecko/20100101 Firefox/137.0,NA,Firefox,137,Windows,10,https://5puzkbbxv1.cognition.run/?sona_id=57977,"en-US,en;q=0.5",wonvleq1tjxftu4,21,"[""Other""]",No,Male,"NA
",I'm not sure,261817,NA,3704,NA,"{""product_choice"":""B""}",choice,ctd,trinary,repulsion_A,1,laptops,null,null,null,null,null,null,1,100,90,100,30,40,20,Processing speed,Memory (RAM),NA,NA
NA,NA,NA,NA,NA,choice_trial_setup,html-keyboard-response,60,152611,0.0-4.0-0.28,52,1,2025-04-28T17:51:20Z,b60275e29fe2361ab97ac0ac217840d7,Mozilla/5.0 (Windows NT 10.0; Win64; x64; rv:137.0) Gecko/20100101 Firefox/137.0,NA,Firefox,137,Windows,10,https://5puzkbbxv1.cognition.run/?sona_id=57977,"en-US,en;q=0.5",wonvleq1tjxftu4,21,"[""Other""]",No,Male,"NA
",I'm not sure,261817,NA,null,<p></p>,null,choice,ctd,trinary,repulsion_A,1,washing machines,null,null,null,null,null,null,1,NA,NA,NA,NA,NA,NA,NA,NA,NA,NA
NA,NA,NA,NA,NA,choice_trial,survey-html-form,61,155542,0.0-4.0-1.28,52,1,2025-04-28T17:51:20Z,b60275e29fe2361ab97ac0ac217840d7,Mozilla/5.0 (Windows NT 10.0; Win64; x64; rv:137.0) Gecko/20100101 Firefox/137.0,NA,Firefox,137,Windows,10,https://5puzkbbxv1.cognition.run/?sona_id=57977,"en-US,en;q=0.5",wonvleq1tjxftu4,21,"[""Other""]",No,Male,"NA
",I'm not sure,261817,NA,2928,NA,"{""product_choice"":""B""}",choice,ctd,trinary,repulsion_A,1,washing machines,null,null,null,null,null,null,1,100,90,100,30,40,20,Average lifespan,Energy savings,NA,NA
NA,NA,NA,NA,NA,choice_trial_setup,html-keyboard-response,62,155855,0.0-4.0-0.29,52,1,2025-04-28T17:51:20Z,b60275e29fe2361ab97ac0ac217840d7,Mozilla/5.0 (Windows NT 10.0; Win64; x64; rv:137.0) Gecko/20100101 Firefox/137.0,NA,Firefox,137,Windows,10,https://5puzkbbxv1.cognition.run/?sona_id=57977,"en-US,en;q=0.5",wonvleq1tjxftu4,21,"[""Other""]",No,Male,"NA
",I'm not sure,261817,NA,null,<p></p>,null,choice,tdc,trinary,attraction,2,televisions,null,null,null,null,null,null,2,NA,NA,NA,NA,NA,NA,NA,NA,NA,NA
NA,NA,NA,NA,NA,choice_trial,survey-html-form,63,159495,0.0-4.0-1.29,52,1,2025-04-28T17:51:20Z,b60275e29fe2361ab97ac0ac217840d7,Mozilla/5.0 (Windows NT 10.0; Win64; x64; rv:137.0) Gecko/20100101 Firefox/137.0,NA,Firefox,137,Windows,10,https://5puzkbbxv1.cognition.run/?sona_id=57977,"en-US,en;q=0.5",wonvleq1tjxftu4,21,"[""Other""]",No,Male,"NA
",I'm not sure,261817,NA,3636,NA,"{""product_choice"":""B""}",choice,tdc,trinary,attraction,2,televisions,null,null,null,null,null,null,2,50,60,40,60,50,60,Screen size,Average lifespan,NA,NA
NA,NA,NA,NA,NA,choice_trial_setup,html-keyboard-response,64,159809,0.0-4.0-0.30,52,1,2025-04-28T17:51:20Z,b60275e29fe2361ab97ac0ac217840d7,Mozilla/5.0 (Windows NT 10.0; Win64; x64; rv:137.0) Gecko/20100101 Firefox/137.0,NA,Firefox,137,Windows,10,https://5puzkbbxv1.cognition.run/?sona_id=57977,"en-US,en;q=0.5",wonvleq1tjxftu4,21,"[""Other""]",No,Male,"NA
",I'm not sure,261817,NA,null,<p></p>,null,choice,tcd,trinary,repulsion_B,2,televisions,null,null,null,null,null,null,2,NA,NA,NA,NA,NA,NA,NA,NA,NA,NA
NA,NA,NA,NA,NA,choice_trial,survey-html-form,65,165784,0.0-4.0-1.30,52,1,2025-04-28T17:51:20Z,b60275e29fe2361ab97ac0ac217840d7,Mozilla/5.0 (Windows NT 10.0; Win64; x64; rv:137.0) Gecko/20100101 Firefox/137.0,NA,Firefox,137,Windows,10,https://5puzkbbxv1.cognition.run/?sona_id=57977,"en-US,en;q=0.5",wonvleq1tjxftu4,21,"[""Other""]",No,Male,"NA
",I'm not sure,261817,NA,5973,NA,"{""product_choice"":""B""}",choice,tcd,trinary,repulsion_B,2,televisions,null,null,null,null,null,null,2,40,30,40,90,100,80,Screen size,Average lifespan,NA,NA
NA,NA,NA,NA,NA,choice_trial_setup,html-keyboard-response,66,166090,0.0-4.0-0.31,52,1,2025-04-28T17:51:20Z,b60275e29fe2361ab97ac0ac217840d7,Mozilla/5.0 (Windows NT 10.0; Win64; x64; rv:137.0) Gecko/20100101 Firefox/137.0,NA,Firefox,137,Windows,10,https://5puzkbbxv1.cognition.run/?sona_id=57977,"en-US,en;q=0.5",wonvleq1tjxftu4,21,"[""Other""]",No,Male,"NA
",I'm not sure,261817,NA,null,<p></p>,null,choice,bw,binary,catch,null,microwave ovens,95,65,45,5,null,null,1,NA,NA,NA,NA,NA,NA,NA,NA,NA,NA
NA,NA,NA,NA,NA,choice_trial,survey-html-form,67,168239,0.0-4.0-1.31,52,1,2025-04-28T17:51:20Z,b60275e29fe2361ab97ac0ac217840d7,Mozilla/5.0 (Windows NT 10.0; Win64; x64; rv:137.0) Gecko/20100101 Firefox/137.0,NA,Firefox,137,Windows,10,https://5puzkbbxv1.cognition.run/?sona_id=57977,"en-US,en;q=0.5",wonvleq1tjxftu4,21,"[""Other""]",No,Male,"NA
",I'm not sure,261817,NA,2147,NA,"{""product_choice"":""A""}",choice,bw,binary,catch,null,microwave ovens,95,65,45,5,null,null,1,null,null,null,null,null,null,Warranty,Cooking power,NA,NA
NA,NA,NA,NA,NA,choice_trial_setup,html-keyboard-response,68,168544,0.0-4.0-0.32,52,1,2025-04-28T17:51:20Z,b60275e29fe2361ab97ac0ac217840d7,Mozilla/5.0 (Windows NT 10.0; Win64; x64; rv:137.0) Gecko/20100101 Firefox/137.0,NA,Firefox,137,Windows,10,https://5puzkbbxv1.cognition.run/?sona_id=57977,"en-US,en;q=0.5",wonvleq1tjxftu4,21,"[""Other""]",No,Male,"NA
",I'm not sure,261817,NA,null,<p></p>,null,choice,tc,binary,attraction,NA,washing machines,null,null,null,null,null,null,2,NA,NA,NA,NA,NA,NA,NA,NA,NA,NA
NA,NA,NA,NA,NA,choice_trial,survey-html-form,69,170388,0.0-4.0-1.32,52,1,2025-04-28T17:51:20Z,b60275e29fe2361ab97ac0ac217840d7,Mozilla/5.0 (Windows NT 10.0; Win64; x64; rv:137.0) Gecko/20100101 Firefox/137.0,NA,Firefox,137,Windows,10,https://5puzkbbxv1.cognition.run/?sona_id=57977,"en-US,en;q=0.5",wonvleq1tjxftu4,21,"[""Other""]",No,Male,"NA
",I'm not sure,261817,NA,1841,NA,"{""product_choice"":""A""}",choice,tc,binary,attraction,NA,washing machines,null,null,null,null,null,null,2,60,50,null,50,60,null,Average lifespan,Energy savings,NA,NA
NA,NA,NA,NA,NA,choice_trial_setup,html-keyboard-response,70,170706,0.0-4.0-0.33,52,1,2025-04-28T17:51:20Z,b60275e29fe2361ab97ac0ac217840d7,Mozilla/5.0 (Windows NT 10.0; Win64; x64; rv:137.0) Gecko/20100101 Firefox/137.0,NA,Firefox,137,Windows,10,https://5puzkbbxv1.cognition.run/?sona_id=57977,"en-US,en;q=0.5",wonvleq1tjxftu4,21,"[""Other""]",No,Male,"NA
",I'm not sure,261817,NA,null,<p></p>,null,choice,ct,binary,attraction,NA,laptops,null,null,null,null,null,null,1,NA,NA,NA,NA,NA,NA,NA,NA,NA,NA
NA,NA,NA,NA,NA,choice_trial,survey-html-form,71,172584,0.0-4.0-1.33,52,1,2025-04-28T17:51:20Z,b60275e29fe2361ab97ac0ac217840d7,Mozilla/5.0 (Windows NT 10.0; Win64; x64; rv:137.0) Gecko/20100101 Firefox/137.0,NA,Firefox,137,Windows,10,https://5puzkbbxv1.cognition.run/?sona_id=57977,"en-US,en;q=0.5",wonvleq1tjxftu4,21,"[""Other""]",No,Male,"NA
",I'm not sure,261817,NA,1875,NA,"{""product_choice"":""B""}",choice,ct,binary,attraction,NA,laptops,null,null,null,null,null,null,1,60,50,null,50,60,null,Processing speed,Memory (RAM),NA,NA
NA,NA,NA,NA,NA,choice_trial_setup,html-keyboard-response,72,172890,0.0-4.0-0.34,52,1,2025-04-28T17:51:20Z,b60275e29fe2361ab97ac0ac217840d7,Mozilla/5.0 (Windows NT 10.0; Win64; x64; rv:137.0) Gecko/20100101 Firefox/137.0,NA,Firefox,137,Windows,10,https://5puzkbbxv1.cognition.run/?sona_id=57977,"en-US,en;q=0.5",wonvleq1tjxftu4,21,"[""Other""]",No,Male,"NA
",I'm not sure,261817,NA,null,<p></p>,null,choice,tc,binary,repulsion,2,laptops,null,null,null,null,null,null,1,NA,NA,NA,NA,NA,NA,NA,NA,NA,NA
NA,NA,NA,NA,NA,choice_trial,survey-html-form,73,175083,0.0-4.0-1.34,52,1,2025-04-28T17:51:20Z,b60275e29fe2361ab97ac0ac217840d7,Mozilla/5.0 (Windows NT 10.0; Win64; x64; rv:137.0) Gecko/20100101 Firefox/137.0,NA,Firefox,137,Windows,10,https://5puzkbbxv1.cognition.run/?sona_id=57977,"en-US,en;q=0.5",wonvleq1tjxftu4,21,"[""Other""]",No,Male,"NA
",I'm not sure,261817,NA,2188,NA,"{""product_choice"":""A""}",choice,tc,binary,repulsion,2,laptops,null,null,null,null,null,null,1,30,40,null,100,90,null,Processing speed,Memory (RAM),NA,NA
NA,NA,NA,NA,NA,choice_trial_setup,html-keyboard-response,74,175390,0.0-4.0-0.35,52,1,2025-04-28T17:51:20Z,b60275e29fe2361ab97ac0ac217840d7,Mozilla/5.0 (Windows NT 10.0; Win64; x64; rv:137.0) Gecko/20100101 Firefox/137.0,NA,Firefox,137,Windows,10,https://5puzkbbxv1.cognition.run/?sona_id=57977,"en-US,en;q=0.5",wonvleq1tjxftu4,21,"[""Other""]",No,Male,"NA
",I'm not sure,261817,NA,null,<p></p>,null,choice,bw,binary,catch,null,washing machines,65,80,5,10,null,null,1,NA,NA,NA,NA,NA,NA,NA,NA,NA,NA
NA,NA,NA,NA,NA,choice_trial,survey-html-form,75,177202,0.0-4.0-1.35,52,1,2025-04-28T17:51:20Z,b60275e29fe2361ab97ac0ac217840d7,Mozilla/5.0 (Windows NT 10.0; Win64; x64; rv:137.0) Gecko/20100101 Firefox/137.0,NA,Firefox,137,Windows,10,https://5puzkbbxv1.cognition.run/?sona_id=57977,"en-US,en;q=0.5",wonvleq1tjxftu4,21,"[""Other""]",No,Male,"NA
",I'm not sure,261817,NA,1809,NA,"{""product_choice"":""A""}",choice,bw,binary,catch,null,washing machines,65,80,5,10,null,null,1,null,null,null,null,null,null,Average lifespan,Energy savings,NA,NA
NA,NA,NA,NA,NA,choice_trial_setup,html-keyboard-response,76,177508,0.0-4.0-0.36,52,1,2025-04-28T17:51:20Z,b60275e29fe2361ab97ac0ac217840d7,Mozilla/5.0 (Windows NT 10.0; Win64; x64; rv:137.0) Gecko/20100101 Firefox/137.0,NA,Firefox,137,Windows,10,https://5puzkbbxv1.cognition.run/?sona_id=57977,"en-US,en;q=0.5",wonvleq1tjxftu4,21,"[""Other""]",No,Male,"NA
",I'm not sure,261817,NA,null,<p></p>,null,choice,bw,binary,catch,null,televisions,55,70,35,10,null,null,1,NA,NA,NA,NA,NA,NA,NA,NA,NA,NA
NA,NA,NA,NA,NA,choice_trial,survey-html-form,77,179455,0.0-4.0-1.36,52,1,2025-04-28T17:51:20Z,b60275e29fe2361ab97ac0ac217840d7,Mozilla/5.0 (Windows NT 10.0; Win64; x64; rv:137.0) Gecko/20100101 Firefox/137.0,NA,Firefox,137,Windows,10,https://5puzkbbxv1.cognition.run/?sona_id=57977,"en-US,en;q=0.5",wonvleq1tjxftu4,21,"[""Other""]",No,Male,"NA
",I'm not sure,261817,NA,1944,NA,"{""product_choice"":""A""}",choice,bw,binary,catch,null,televisions,55,70,35,10,null,null,1,null,null,null,null,null,null,Screen size,Average lifespan,NA,NA
NA,NA,NA,NA,NA,choice_trial_setup,html-keyboard-response,78,179772,0.0-4.0-0.37,52,1,2025-04-28T17:51:20Z,b60275e29fe2361ab97ac0ac217840d7,Mozilla/5.0 (Windows NT 10.0; Win64; x64; rv:137.0) Gecko/20100101 Firefox/137.0,NA,Firefox,137,Windows,10,https://5puzkbbxv1.cognition.run/?sona_id=57977,"en-US,en;q=0.5",wonvleq1tjxftu4,21,"[""Other""]",No,Male,"NA
",I'm not sure,261817,NA,null,<p></p>,null,choice,dtc,trinary,repulsion_B,2,microwave ovens,null,null,null,null,null,null,2,NA,NA,NA,NA,NA,NA,NA,NA,NA,NA
NA,NA,NA,NA,NA,choice_trial,survey-html-form,79,182958,0.0-4.0-1.37,52,1,2025-04-28T17:51:20Z,b60275e29fe2361ab97ac0ac217840d7,Mozilla/5.0 (Windows NT 10.0; Win64; x64; rv:137.0) Gecko/20100101 Firefox/137.0,NA,Firefox,137,Windows,10,https://5puzkbbxv1.cognition.run/?sona_id=57977,"en-US,en;q=0.5",wonvleq1tjxftu4,21,"[""Other""]",No,Male,"NA
",I'm not sure,261817,NA,3182,NA,"{""product_choice"":""C""}",choice,dtc,trinary,repulsion_B,2,microwave ovens,null,null,null,null,null,null,2,40,30,40,90,100,80,Warranty,Cooking power,NA,NA
NA,NA,NA,NA,NA,choice_trial_setup,html-keyboard-response,80,183265,0.0-4.0-0.38,52,1,2025-04-28T17:51:20Z,b60275e29fe2361ab97ac0ac217840d7,Mozilla/5.0 (Windows NT 10.0; Win64; x64; rv:137.0) Gecko/20100101 Firefox/137.0,NA,Firefox,137,Windows,10,https://5puzkbbxv1.cognition.run/?sona_id=57977,"en-US,en;q=0.5",wonvleq1tjxftu4,21,"[""Other""]",No,Male,"NA
",I'm not sure,261817,NA,null,<p></p>,null,choice,dct,trinary,repulsion_B,1,laptops,null,null,null,null,null,null,2,NA,NA,NA,NA,NA,NA,NA,NA,NA,NA
NA,NA,NA,NA,NA,choice_trial,survey-html-form,81,186158,0.0-4.0-1.38,52,1,2025-04-28T17:51:20Z,b60275e29fe2361ab97ac0ac217840d7,Mozilla/5.0 (Windows NT 10.0; Win64; x64; rv:137.0) Gecko/20100101 Firefox/137.0,NA,Firefox,137,Windows,10,https://5puzkbbxv1.cognition.run/?sona_id=57977,"en-US,en;q=0.5",wonvleq1tjxftu4,21,"[""Other""]",No,Male,"NA
",I'm not sure,261817,NA,2891,NA,"{""product_choice"":""B""}",choice,dct,trinary,repulsion_B,1,laptops,null,null,null,null,null,null,2,90,100,80,40,30,40,Processing speed,Memory (RAM),NA,NA
NA,NA,NA,NA,NA,choice_trial_setup,html-keyboard-response,82,186471,0.0-4.0-0.39,52,1,2025-04-28T17:51:20Z,b60275e29fe2361ab97ac0ac217840d7,Mozilla/5.0 (Windows NT 10.0; Win64; x64; rv:137.0) Gecko/20100101 Firefox/137.0,NA,Firefox,137,Windows,10,https://5puzkbbxv1.cognition.run/?sona_id=57977,"en-US,en;q=0.5",wonvleq1tjxftu4,21,"[""Other""]",No,Male,"NA
",I'm not sure,261817,NA,null,<p></p>,null,choice,dtc,trinary,repulsion_A,2,microwave ovens,null,null,null,null,null,null,2,NA,NA,NA,NA,NA,NA,NA,NA,NA,NA
NA,NA,NA,NA,NA,choice_trial,survey-html-form,83,188758,0.0-4.0-1.39,52,1,2025-04-28T17:51:20Z,b60275e29fe2361ab97ac0ac217840d7,Mozilla/5.0 (Windows NT 10.0; Win64; x64; rv:137.0) Gecko/20100101 Firefox/137.0,NA,Firefox,137,Windows,10,https://5puzkbbxv1.cognition.run/?sona_id=57977,"en-US,en;q=0.5",wonvleq1tjxftu4,21,"[""Other""]",No,Male,"NA
",I'm not sure,261817,NA,2283,NA,"{""product_choice"":""B""}",choice,dtc,trinary,repulsion_A,2,microwave ovens,null,null,null,null,null,null,2,30,40,20,100,90,100,Warranty,Cooking power,NA,NA
NA,NA,NA,NA,NA,choice_trial_setup,html-keyboard-response,84,189063,0.0-4.0-0.40,52,1,2025-04-28T17:51:20Z,b60275e29fe2361ab97ac0ac217840d7,Mozilla/5.0 (Windows NT 10.0; Win64; x64; rv:137.0) Gecko/20100101 Firefox/137.0,NA,Firefox,137,Windows,10,https://5puzkbbxv1.cognition.run/?sona_id=57977,"en-US,en;q=0.5",wonvleq1tjxftu4,21,"[""Other""]",No,Male,"NA
",I'm not sure,261817,NA,null,<p></p>,null,choice,tdc,trinary,attraction,2,laptops,null,null,null,null,null,null,1,NA,NA,NA,NA,NA,NA,NA,NA,NA,NA
NA,NA,NA,NA,NA,choice_trial,survey-html-form,85,196182,0.0-4.0-1.40,52,1,2025-04-28T17:51:20Z,b60275e29fe2361ab97ac0ac217840d7,Mozilla/5.0 (Windows NT 10.0; Win64; x64; rv:137.0) Gecko/20100101 Firefox/137.0,NA,Firefox,137,Windows,10,https://5puzkbbxv1.cognition.run/?sona_id=57977,"en-US,en;q=0.5",wonvleq1tjxftu4,21,"[""Other""]",No,Male,"NA
",I'm not sure,261817,NA,7115,NA,"{""product_choice"":""A""}",choice,tdc,trinary,attraction,2,laptops,null,null,null,null,null,null,1,50,60,40,60,50,60,Processing speed,Memory (RAM),NA,NA
NA,NA,NA,NA,NA,choice_trial_setup,html-keyboard-response,86,196491,0.0-4.0-0.41,52,1,2025-04-28T17:51:20Z,b60275e29fe2361ab97ac0ac217840d7,Mozilla/5.0 (Windows NT 10.0; Win64; x64; rv:137.0) Gecko/20100101 Firefox/137.0,NA,Firefox,137,Windows,10,https://5puzkbbxv1.cognition.run/?sona_id=57977,"en-US,en;q=0.5",wonvleq1tjxftu4,21,"[""Other""]",No,Male,"NA
",I'm not sure,261817,NA,null,<p></p>,null,choice,cdt,trinary,repulsion_A,1,televisions,null,null,null,null,null,null,1,NA,NA,NA,NA,NA,NA,NA,NA,NA,NA
NA,NA,NA,NA,NA,choice_trial,survey-html-form,87,199052,0.0-4.0-1.41,52,1,2025-04-28T17:51:20Z,b60275e29fe2361ab97ac0ac217840d7,Mozilla/5.0 (Windows NT 10.0; Win64; x64; rv:137.0) Gecko/20100101 Firefox/137.0,NA,Firefox,137,Windows,10,https://5puzkbbxv1.cognition.run/?sona_id=57977,"en-US,en;q=0.5",wonvleq1tjxftu4,21,"[""Other""]",No,Male,"NA
",I'm not sure,261817,NA,2557,NA,"{""product_choice"":""A""}",choice,cdt,trinary,repulsion_A,1,televisions,null,null,null,null,null,null,1,100,90,100,30,40,20,Screen size,Average lifespan,NA,NA
NA,NA,NA,NA,NA,choice_trial_setup,html-keyboard-response,88,199374,0.0-4.0-0.42,52,1,2025-04-28T17:51:20Z,b60275e29fe2361ab97ac0ac217840d7,Mozilla/5.0 (Windows NT 10.0; Win64; x64; rv:137.0) Gecko/20100101 Firefox/137.0,NA,Firefox,137,Windows,10,https://5puzkbbxv1.cognition.run/?sona_id=57977,"en-US,en;q=0.5",wonvleq1tjxftu4,21,"[""Other""]",No,Male,"NA
",I'm not sure,261817,NA,null,<p></p>,null,choice,tc,binary,attraction,NA,microwave ovens,null,null,null,null,null,null,2,NA,NA,NA,NA,NA,NA,NA,NA,NA,NA
NA,NA,NA,NA,NA,choice_trial,survey-html-form,89,200890,0.0-4.0-1.42,52,1,2025-04-28T17:51:20Z,b60275e29fe2361ab97ac0ac217840d7,Mozilla/5.0 (Windows NT 10.0; Win64; x64; rv:137.0) Gecko/20100101 Firefox/137.0,NA,Firefox,137,Windows,10,https://5puzkbbxv1.cognition.run/?sona_id=57977,"en-US,en;q=0.5",wonvleq1tjxftu4,21,"[""Other""]",No,Male,"NA
",I'm not sure,261817,NA,1508,NA,"{""product_choice"":""B""}",choice,tc,binary,attraction,NA,microwave ovens,null,null,null,null,null,null,2,60,50,null,50,60,null,Warranty,Cooking power,NA,NA
NA,NA,NA,NA,NA,choice_trial_setup,html-keyboard-response,90,201215,0.0-4.0-0.43,52,1,2025-04-28T17:51:20Z,b60275e29fe2361ab97ac0ac217840d7,Mozilla/5.0 (Windows NT 10.0; Win64; x64; rv:137.0) Gecko/20100101 Firefox/137.0,NA,Firefox,137,Windows,10,https://5puzkbbxv1.cognition.run/?sona_id=57977,"en-US,en;q=0.5",wonvleq1tjxftu4,21,"[""Other""]",No,Male,"NA
",I'm not sure,261817,NA,null,<p></p>,null,choice,tcd,trinary,attraction,2,washing machines,null,null,null,null,null,null,1,NA,NA,NA,NA,NA,NA,NA,NA,NA,NA
NA,NA,NA,NA,NA,choice_trial,survey-html-form,91,202905,0.0-4.0-1.43,52,1,2025-04-28T17:51:20Z,b60275e29fe2361ab97ac0ac217840d7,Mozilla/5.0 (Windows NT 10.0; Win64; x64; rv:137.0) Gecko/20100101 Firefox/137.0,NA,Firefox,137,Windows,10,https://5puzkbbxv1.cognition.run/?sona_id=57977,"en-US,en;q=0.5",wonvleq1tjxftu4,21,"[""Other""]",No,Male,"NA
",I'm not sure,261817,NA,1687,NA,"{""product_choice"":""B""}",choice,tcd,trinary,attraction,2,washing machines,null,null,null,null,null,null,1,50,60,40,60,50,60,Average lifespan,Energy savings,NA,NA
NA,NA,NA,NA,NA,post_trials_message,html-button-response,92,204623,0.0-5.0,52,1,2025-04-28T17:51:20Z,b60275e29fe2361ab97ac0ac217840d7,Mozilla/5.0 (Windows NT 10.0; Win64; x64; rv:137.0) Gecko/20100101 Firefox/137.0,NA,Firefox,137,Windows,10,https://5puzkbbxv1.cognition.run/?sona_id=57977,"en-US,en;q=0.5",wonvleq1tjxftu4,21,"[""Other""]",No,Male,"NA
",I'm not sure,261817,NA,1714,<p> <b>Thank you for your patience!</b></p><p>  The study will be done after completing a brief form. </p>,0,NA,NA,NA,NA,NA,NA,NA,NA,NA,NA,NA,NA,NA,NA,NA,NA,NA,NA,NA,NA,NA,NA,NA
NA,NA,NA,NA,NA,survey_message,survey-text,93,234904,0.0-6.0,52,1,2025-04-28T17:51:20Z,b60275e29fe2361ab97ac0ac217840d7,Mozilla/5.0 (Windows NT 10.0; Win64; x64; rv:137.0) Gecko/20100101 Firefox/137.0,NA,Firefox,137,Windows,10,https://5puzkbbxv1.cognition.run/?sona_id=57977,"en-US,en;q=0.5",wonvleq1tjxftu4,21,"[""Other""]",No,Male,"NA
",I'm not sure,261817,NA,30276,NA,"{""Q0"":""I value functionality over lifespan in products, but lifespan is importatn so i would find the middle groun between the two""}",NA,NA,NA,NA,NA,NA,NA,NA,NA,NA,NA,NA,NA,NA,NA,NA,NA,NA,NA,NA,NA,"I value functionality over lifespan in products, but lifespan is importatn so i would find the middle groun between the two",NA
NA,NA,NA,NA,NA,demo_age,survey-text,94,236554,0.0-7.0,52,1,2025-04-28T17:51:20Z,b60275e29fe2361ab97ac0ac217840d7,Mozilla/5.0 (Windows NT 10.0; Win64; x64; rv:137.0) Gecko/20100101 Firefox/137.0,NA,Firefox,137,Windows,10,https://5puzkbbxv1.cognition.run/?sona_id=57977,"en-US,en;q=0.5",wonvleq1tjxftu4,21,"[""Other""]",No,Male,"NA
",I'm not sure,261817,NA,1644,NA,"{""Q0"":""21""}",NA,NA,NA,NA,NA,NA,NA,NA,NA,NA,NA,NA,NA,NA,NA,NA,NA,NA,NA,NA,NA,NA,NA
NA,NA,NA,NA,NA,demo_race,survey-multi-select,95,239013,0.0-8.0,52,1,2025-04-28T17:51:20Z,b60275e29fe2361ab97ac0ac217840d7,Mozilla/5.0 (Windows NT 10.0; Win64; x64; rv:137.0) Gecko/20100101 Firefox/137.0,NA,Firefox,137,Windows,10,https://5puzkbbxv1.cognition.run/?sona_id=57977,"en-US,en;q=0.5",wonvleq1tjxftu4,21,"[""Other""]",No,Male,"NA
",I'm not sure,261817,NA,2454,NA,"{""Q0"":[""Other""]}",NA,NA,NA,NA,NA,NA,NA,NA,NA,NA,NA,NA,NA,NA,NA,NA,NA,NA,NA,NA,NA,NA,[0]
NA,NA,NA,NA,NA,demo_ethnicity_gender,survey-multi-choice,96,242824,0.0-9.0,52,1,2025-04-28T17:51:20Z,b60275e29fe2361ab97ac0ac217840d7,Mozilla/5.0 (Windows NT 10.0; Win64; x64; rv:137.0) Gecko/20100101 Firefox/137.0,NA,Firefox,137,Windows,10,https://5puzkbbxv1.cognition.run/?sona_id=57977,"en-US,en;q=0.5",wonvleq1tjxftu4,21,"[""Other""]",No,Male,"NA
",I'm not sure,261817,NA,3806,NA,"{""Q0"":""No"",""Q1"":""Male""}",NA,NA,NA,NA,NA,NA,NA,NA,NA,NA,NA,NA,NA,NA,NA,NA,NA,NA,NA,NA,NA,NA,"[0,1]"
NA,NA,NA,NA,NA,demo_countries,survey-text,97,248649,0.0-10.0,52,1,2025-04-28T17:51:20Z,b60275e29fe2361ab97ac0ac217840d7,Mozilla/5.0 (Windows NT 10.0; Win64; x64; rv:137.0) Gecko/20100101 Firefox/137.0,NA,Firefox,137,Windows,10,https://5puzkbbxv1.cognition.run/?sona_id=57977,"en-US,en;q=0.5",wonvleq1tjxftu4,21,"[""Other""]",No,Male,"NA
",I'm not sure,261817,NA,5819,NA,"{""Q0"":""NA\n""}",NA,NA,NA,NA,NA,NA,NA,NA,NA,NA,NA,NA,NA,NA,NA,NA,NA,NA,NA,NA,NA,NA,NA
NA,NA,NA,NA,NA,demo_prev_study,survey-multi-choice,98,254323,0.0-11.0,52,1,2025-04-28T17:51:20Z,b60275e29fe2361ab97ac0ac217840d7,Mozilla/5.0 (Windows NT 10.0; Win64; x64; rv:137.0) Gecko/20100101 Firefox/137.0,NA,Firefox,137,Windows,10,https://5puzkbbxv1.cognition.run/?sona_id=57977,"en-US,en;q=0.5",wonvleq1tjxftu4,21,"[""Other""]",No,Male,"NA
",I'm not sure,261817,NA,5670,NA,"{""Q0"":""I'm not sure""}",NA,NA,NA,NA,NA,NA,NA,NA,NA,NA,NA,NA,NA,NA,NA,NA,NA,NA,NA,NA,NA,NA,[0]
NA,NA,NA,NA,NA,post_survey_message,html-keyboard-response,99,258240,0.0-12.0,52,1,2025-04-28T17:51:20Z,b60275e29fe2361ab97ac0ac217840d7,Mozilla/5.0 (Windows NT 10.0; Win64; x64; rv:137.0) Gecko/20100101 Firefox/137.0,NA,Firefox,137,Windows,10,https://5puzkbbxv1.cognition.run/?sona_id=57977,"en-US,en;q=0.5",wonvleq1tjxftu4,21,"[""Other""]",No,Male,"NA
",I'm not sure,261817,NA,3912,NA,j,NA,NA,NA,NA,NA,NA,NA,NA,NA,NA,NA,NA,NA,NA,NA,NA,NA,NA,NA,NA,NA,NA,NA
NA,NA,NA,NA,NA,debrief,image-keyboard-response,100,261817,0.0-13.0,52,1,2025-04-28T17:51:20Z,b60275e29fe2361ab97ac0ac217840d7,Mozilla/5.0 (Windows NT 10.0; Win64; x64; rv:137.0) Gecko/20100101 Firefox/137.0,NA,Firefox,137,Windows,10,https://5puzkbbxv1.cognition.run/?sona_id=57977,"en-US,en;q=0.5",wonvleq1tjxftu4,21,"[""Other""]",No,Male,"NA
",I'm not sure,261817,NA,3554,Judg_choice_debrief.png,p,NA,NA,NA,NA,NA,NA,NA,NA,NA,NA,NA,NA,NA,NA,NA,NA,NA,NA,NA,NA,NA,NA,NA
