success,timeout,failed_images,failed_audio,failed_video,screen_id,trial_type,trial_index,time_elapsed,internal_node_id,run_id,condition,recorded_at,source_code_version,user_agent,device,browser,browser_version,platform,platform_version,referer,accept_language,ppt_id,age,race,ethnicity,gender,other_countries,prev_study,exp_duration,view_history,rt,stimulus,response,phase,order,set,effect,t_high,category,d1_best,d2_best,d1_worst1,d2_worst1,d1_worst2,d2_worst2,first_dim,d1_t,d1_c,d1_d,d2_t,d2_c,d2_d,d1_name,d2_name,strategy_response,question_order
TRUE,FALSE,[],[],[],img preload,preload,0,304,0.0-0.0,57,1,2025-04-28T18:55:17Z,b60275e29fe2361ab97ac0ac217840d7,"Mozilla/5.0 (Macintosh; Intel Mac OS X 10_15_7) AppleWebKit/605.1.15 (KHTML, like Gecko) Version/18.4 Safari/605.1.15",Macintosh,Safari,18.4,OS X,10_15_7,https://5puzkbbxv1.cognition.run/?sona_id=57488,"en-US,en;q=0.9",tbts1ytf10a0pol,19,"[""Other""]",No,Male,NA,No,175531,NA,NA,NA,NA,NA,NA,NA,NA,NA,NA,NA,NA,NA,NA,NA,NA,NA,NA,NA,NA,NA,NA,NA,NA,NA,NA,NA
NA,NA,NA,NA,NA,computer_message,instructions,1,2893,0.0-1.0,57,1,2025-04-28T18:55:17Z,b60275e29fe2361ab97ac0ac217840d7,"Mozilla/5.0 (Macintosh; Intel Mac OS X 10_15_7) AppleWebKit/605.1.15 (KHTML, like Gecko) Version/18.4 Safari/605.1.15",Macintosh,Safari,18.4,OS X,10_15_7,https://5puzkbbxv1.cognition.run/?sona_id=57488,"en-US,en;q=0.9",tbts1ytf10a0pol,19,"[""Other""]",No,Male,NA,No,175531,"[{""page_index"":0,""viewing_time"":2586}]",2586,NA,NA,NA,NA,NA,NA,NA,NA,NA,NA,NA,NA,NA,NA,NA,NA,NA,NA,NA,NA,NA,NA,NA,NA,NA
TRUE,NA,NA,NA,NA,NA,fullscreen,2,5494,0.0-2.0,57,1,2025-04-28T18:55:17Z,b60275e29fe2361ab97ac0ac217840d7,"Mozilla/5.0 (Macintosh; Intel Mac OS X 10_15_7) AppleWebKit/605.1.15 (KHTML, like Gecko) Version/18.4 Safari/605.1.15",Macintosh,Safari,18.4,OS X,10_15_7,https://5puzkbbxv1.cognition.run/?sona_id=57488,"en-US,en;q=0.9",tbts1ytf10a0pol,19,"[""Other""]",No,Male,NA,No,175531,NA,1599,NA,NA,NA,NA,NA,NA,NA,NA,NA,NA,NA,NA,NA,NA,NA,NA,NA,NA,NA,NA,NA,NA,NA,NA,NA
NA,NA,NA,NA,NA,choice_instructions,instructions,3,28942,0.0-3.0,57,1,2025-04-28T18:55:17Z,b60275e29fe2361ab97ac0ac217840d7,"Mozilla/5.0 (Macintosh; Intel Mac OS X 10_15_7) AppleWebKit/605.1.15 (KHTML, like Gecko) Version/18.4 Safari/605.1.15",Macintosh,Safari,18.4,OS X,10_15_7,https://5puzkbbxv1.cognition.run/?sona_id=57488,"en-US,en;q=0.9",tbts1ytf10a0pol,19,"[""Other""]",No,Male,NA,No,175531,"[{""page_index"":0,""viewing_time"":1098},{""page_index"":1,""viewing_time"":1263},{""page_index"":2,""viewing_time"":1316},{""page_index"":3,""viewing_time"":816},{""page_index"":4,""viewing_time"":889},{""page_index"":5,""viewing_time"":13843},{""page_index"":6,""viewing_time"":4224}]",23449,NA,NA,NA,NA,NA,NA,NA,NA,NA,NA,NA,NA,NA,NA,NA,NA,NA,NA,NA,NA,NA,NA,NA,NA,NA
NA,NA,NA,NA,NA,choice_trial_setup,html-keyboard-response,4,29247,0.0-4.0-0.0,57,1,2025-04-28T18:55:17Z,b60275e29fe2361ab97ac0ac217840d7,"Mozilla/5.0 (Macintosh; Intel Mac OS X 10_15_7) AppleWebKit/605.1.15 (KHTML, like Gecko) Version/18.4 Safari/605.1.15",Macintosh,Safari,18.4,OS X,10_15_7,https://5puzkbbxv1.cognition.run/?sona_id=57488,"en-US,en;q=0.9",tbts1ytf10a0pol,19,"[""Other""]",No,Male,NA,No,175531,NA,null,<p></p>,null,choice,tcd,trinary,attraction,1,laptops,null,null,null,null,null,null,2,NA,NA,NA,NA,NA,NA,NA,NA,NA,NA
NA,NA,NA,NA,NA,choice_trial,survey-html-form,5,37615,0.0-4.0-1.0,57,1,2025-04-28T18:55:17Z,b60275e29fe2361ab97ac0ac217840d7,"Mozilla/5.0 (Macintosh; Intel Mac OS X 10_15_7) AppleWebKit/605.1.15 (KHTML, like Gecko) Version/18.4 Safari/605.1.15",Macintosh,Safari,18.4,OS X,10_15_7,https://5puzkbbxv1.cognition.run/?sona_id=57488,"en-US,en;q=0.9",tbts1ytf10a0pol,19,"[""Other""]",No,Male,NA,No,175531,NA,8363,NA,"{""product_choice"":""A""}",choice,tcd,trinary,attraction,1,laptops,null,null,null,null,null,null,2,60,50,60,50,60,40,Processing speed,Memory (RAM),NA,NA
NA,NA,NA,NA,NA,choice_trial_setup,html-keyboard-response,6,37917,0.0-4.0-0.1,57,1,2025-04-28T18:55:17Z,b60275e29fe2361ab97ac0ac217840d7,"Mozilla/5.0 (Macintosh; Intel Mac OS X 10_15_7) AppleWebKit/605.1.15 (KHTML, like Gecko) Version/18.4 Safari/605.1.15",Macintosh,Safari,18.4,OS X,10_15_7,https://5puzkbbxv1.cognition.run/?sona_id=57488,"en-US,en;q=0.9",tbts1ytf10a0pol,19,"[""Other""]",No,Male,NA,No,175531,NA,null,<p></p>,null,choice,tc,binary,attraction,NA,microwave ovens,null,null,null,null,null,null,2,NA,NA,NA,NA,NA,NA,NA,NA,NA,NA
NA,NA,NA,NA,NA,choice_trial,survey-html-form,7,40949,0.0-4.0-1.1,57,1,2025-04-28T18:55:17Z,b60275e29fe2361ab97ac0ac217840d7,"Mozilla/5.0 (Macintosh; Intel Mac OS X 10_15_7) AppleWebKit/605.1.15 (KHTML, like Gecko) Version/18.4 Safari/605.1.15",Macintosh,Safari,18.4,OS X,10_15_7,https://5puzkbbxv1.cognition.run/?sona_id=57488,"en-US,en;q=0.9",tbts1ytf10a0pol,19,"[""Other""]",No,Male,NA,No,175531,NA,3029,NA,"{""product_choice"":""B""}",choice,tc,binary,attraction,NA,microwave ovens,null,null,null,null,null,null,2,60,50,null,50,60,null,Warranty,Cooking power,NA,NA
NA,NA,NA,NA,NA,choice_trial_setup,html-keyboard-response,8,41251,0.0-4.0-0.2,57,1,2025-04-28T18:55:17Z,b60275e29fe2361ab97ac0ac217840d7,"Mozilla/5.0 (Macintosh; Intel Mac OS X 10_15_7) AppleWebKit/605.1.15 (KHTML, like Gecko) Version/18.4 Safari/605.1.15",Macintosh,Safari,18.4,OS X,10_15_7,https://5puzkbbxv1.cognition.run/?sona_id=57488,"en-US,en;q=0.9",tbts1ytf10a0pol,19,"[""Other""]",No,Male,NA,No,175531,NA,null,<p></p>,null,choice,ct,binary,repulsion,2,laptops,null,null,null,null,null,null,1,NA,NA,NA,NA,NA,NA,NA,NA,NA,NA
NA,NA,NA,NA,NA,choice_trial,survey-html-form,9,43333,0.0-4.0-1.2,57,1,2025-04-28T18:55:17Z,b60275e29fe2361ab97ac0ac217840d7,"Mozilla/5.0 (Macintosh; Intel Mac OS X 10_15_7) AppleWebKit/605.1.15 (KHTML, like Gecko) Version/18.4 Safari/605.1.15",Macintosh,Safari,18.4,OS X,10_15_7,https://5puzkbbxv1.cognition.run/?sona_id=57488,"en-US,en;q=0.9",tbts1ytf10a0pol,19,"[""Other""]",No,Male,NA,No,175531,NA,2079,NA,"{""product_choice"":""A""}",choice,ct,binary,repulsion,2,laptops,null,null,null,null,null,null,1,30,40,null,100,90,null,Processing speed,Memory (RAM),NA,NA
NA,NA,NA,NA,NA,choice_trial_setup,html-keyboard-response,10,43635,0.0-4.0-0.3,57,1,2025-04-28T18:55:17Z,b60275e29fe2361ab97ac0ac217840d7,"Mozilla/5.0 (Macintosh; Intel Mac OS X 10_15_7) AppleWebKit/605.1.15 (KHTML, like Gecko) Version/18.4 Safari/605.1.15",Macintosh,Safari,18.4,OS X,10_15_7,https://5puzkbbxv1.cognition.run/?sona_id=57488,"en-US,en;q=0.9",tbts1ytf10a0pol,19,"[""Other""]",No,Male,NA,No,175531,NA,null,<p></p>,null,choice,dtc,trinary,repulsion_B,2,microwave ovens,null,null,null,null,null,null,1,NA,NA,NA,NA,NA,NA,NA,NA,NA,NA
NA,NA,NA,NA,NA,choice_trial,survey-html-form,11,45024,0.0-4.0-1.3,57,1,2025-04-28T18:55:17Z,b60275e29fe2361ab97ac0ac217840d7,"Mozilla/5.0 (Macintosh; Intel Mac OS X 10_15_7) AppleWebKit/605.1.15 (KHTML, like Gecko) Version/18.4 Safari/605.1.15",Macintosh,Safari,18.4,OS X,10_15_7,https://5puzkbbxv1.cognition.run/?sona_id=57488,"en-US,en;q=0.9",tbts1ytf10a0pol,19,"[""Other""]",No,Male,NA,No,175531,NA,1385,NA,"{""product_choice"":""B""}",choice,dtc,trinary,repulsion_B,2,microwave ovens,null,null,null,null,null,null,1,40,30,40,90,100,80,Warranty,Cooking power,NA,NA
NA,NA,NA,NA,NA,choice_trial_setup,html-keyboard-response,12,45327,0.0-4.0-0.4,57,1,2025-04-28T18:55:17Z,b60275e29fe2361ab97ac0ac217840d7,"Mozilla/5.0 (Macintosh; Intel Mac OS X 10_15_7) AppleWebKit/605.1.15 (KHTML, like Gecko) Version/18.4 Safari/605.1.15",Macintosh,Safari,18.4,OS X,10_15_7,https://5puzkbbxv1.cognition.run/?sona_id=57488,"en-US,en;q=0.9",tbts1ytf10a0pol,19,"[""Other""]",No,Male,NA,No,175531,NA,null,<p></p>,null,choice,bww,trinary,catch,null,laptops,65,80,5,25,25,20,2,NA,NA,NA,NA,NA,NA,NA,NA,NA,NA
NA,NA,NA,NA,NA,choice_trial,survey-html-form,13,47069,0.0-4.0-1.4,57,1,2025-04-28T18:55:17Z,b60275e29fe2361ab97ac0ac217840d7,"Mozilla/5.0 (Macintosh; Intel Mac OS X 10_15_7) AppleWebKit/605.1.15 (KHTML, like Gecko) Version/18.4 Safari/605.1.15",Macintosh,Safari,18.4,OS X,10_15_7,https://5puzkbbxv1.cognition.run/?sona_id=57488,"en-US,en;q=0.9",tbts1ytf10a0pol,19,"[""Other""]",No,Male,NA,No,175531,NA,1739,NA,"{""product_choice"":""C""}",choice,bww,trinary,catch,null,laptops,65,80,5,25,25,20,2,null,null,null,null,null,null,Processing speed,Memory (RAM),NA,NA
NA,NA,NA,NA,NA,choice_trial_setup,html-keyboard-response,14,47371,0.0-4.0-0.5,57,1,2025-04-28T18:55:17Z,b60275e29fe2361ab97ac0ac217840d7,"Mozilla/5.0 (Macintosh; Intel Mac OS X 10_15_7) AppleWebKit/605.1.15 (KHTML, like Gecko) Version/18.4 Safari/605.1.15",Macintosh,Safari,18.4,OS X,10_15_7,https://5puzkbbxv1.cognition.run/?sona_id=57488,"en-US,en;q=0.9",tbts1ytf10a0pol,19,"[""Other""]",No,Male,NA,No,175531,NA,null,<p></p>,null,choice,ct,binary,repulsion,1,microwave ovens,null,null,null,null,null,null,1,NA,NA,NA,NA,NA,NA,NA,NA,NA,NA
NA,NA,NA,NA,NA,choice_trial,survey-html-form,15,48876,0.0-4.0-1.5,57,1,2025-04-28T18:55:17Z,b60275e29fe2361ab97ac0ac217840d7,"Mozilla/5.0 (Macintosh; Intel Mac OS X 10_15_7) AppleWebKit/605.1.15 (KHTML, like Gecko) Version/18.4 Safari/605.1.15",Macintosh,Safari,18.4,OS X,10_15_7,https://5puzkbbxv1.cognition.run/?sona_id=57488,"en-US,en;q=0.9",tbts1ytf10a0pol,19,"[""Other""]",No,Male,NA,No,175531,NA,1502,NA,"{""product_choice"":""A""}",choice,ct,binary,repulsion,1,microwave ovens,null,null,null,null,null,null,1,100,90,null,30,40,null,Warranty,Cooking power,NA,NA
NA,NA,NA,NA,NA,choice_trial_setup,html-keyboard-response,16,49178,0.0-4.0-0.6,57,1,2025-04-28T18:55:17Z,b60275e29fe2361ab97ac0ac217840d7,"Mozilla/5.0 (Macintosh; Intel Mac OS X 10_15_7) AppleWebKit/605.1.15 (KHTML, like Gecko) Version/18.4 Safari/605.1.15",Macintosh,Safari,18.4,OS X,10_15_7,https://5puzkbbxv1.cognition.run/?sona_id=57488,"en-US,en;q=0.9",tbts1ytf10a0pol,19,"[""Other""]",No,Male,NA,No,175531,NA,null,<p></p>,null,choice,tdc,trinary,repulsion_A,1,laptops,null,null,null,null,null,null,1,NA,NA,NA,NA,NA,NA,NA,NA,NA,NA
NA,NA,NA,NA,NA,choice_trial,survey-html-form,17,50204,0.0-4.0-1.6,57,1,2025-04-28T18:55:17Z,b60275e29fe2361ab97ac0ac217840d7,"Mozilla/5.0 (Macintosh; Intel Mac OS X 10_15_7) AppleWebKit/605.1.15 (KHTML, like Gecko) Version/18.4 Safari/605.1.15",Macintosh,Safari,18.4,OS X,10_15_7,https://5puzkbbxv1.cognition.run/?sona_id=57488,"en-US,en;q=0.9",tbts1ytf10a0pol,19,"[""Other""]",No,Male,NA,No,175531,NA,1022,NA,"{""product_choice"":""B""}",choice,tdc,trinary,repulsion_A,1,laptops,null,null,null,null,null,null,1,100,90,100,30,40,20,Processing speed,Memory (RAM),NA,NA
NA,NA,NA,NA,NA,choice_trial_setup,html-keyboard-response,18,50507,0.0-4.0-0.7,57,1,2025-04-28T18:55:17Z,b60275e29fe2361ab97ac0ac217840d7,"Mozilla/5.0 (Macintosh; Intel Mac OS X 10_15_7) AppleWebKit/605.1.15 (KHTML, like Gecko) Version/18.4 Safari/605.1.15",Macintosh,Safari,18.4,OS X,10_15_7,https://5puzkbbxv1.cognition.run/?sona_id=57488,"en-US,en;q=0.9",tbts1ytf10a0pol,19,"[""Other""]",No,Male,NA,No,175531,NA,null,<p></p>,null,choice,wb,binary,catch,null,washing machines,80,90,40,40,null,null,1,NA,NA,NA,NA,NA,NA,NA,NA,NA,NA
NA,NA,NA,NA,NA,choice_trial,survey-html-form,19,51905,0.0-4.0-1.7,57,1,2025-04-28T18:55:17Z,b60275e29fe2361ab97ac0ac217840d7,"Mozilla/5.0 (Macintosh; Intel Mac OS X 10_15_7) AppleWebKit/605.1.15 (KHTML, like Gecko) Version/18.4 Safari/605.1.15",Macintosh,Safari,18.4,OS X,10_15_7,https://5puzkbbxv1.cognition.run/?sona_id=57488,"en-US,en;q=0.9",tbts1ytf10a0pol,19,"[""Other""]",No,Male,NA,No,175531,NA,1396,NA,"{""product_choice"":""B""}",choice,wb,binary,catch,null,washing machines,80,90,40,40,null,null,1,null,null,null,null,null,null,Average lifespan,Energy savings,NA,NA
NA,NA,NA,NA,NA,choice_trial_setup,html-keyboard-response,20,52209,0.0-4.0-0.8,57,1,2025-04-28T18:55:17Z,b60275e29fe2361ab97ac0ac217840d7,"Mozilla/5.0 (Macintosh; Intel Mac OS X 10_15_7) AppleWebKit/605.1.15 (KHTML, like Gecko) Version/18.4 Safari/605.1.15",Macintosh,Safari,18.4,OS X,10_15_7,https://5puzkbbxv1.cognition.run/?sona_id=57488,"en-US,en;q=0.9",tbts1ytf10a0pol,19,"[""Other""]",No,Male,NA,No,175531,NA,null,<p></p>,null,choice,tc,binary,attraction,NA,laptops,null,null,null,null,null,null,1,NA,NA,NA,NA,NA,NA,NA,NA,NA,NA
NA,NA,NA,NA,NA,choice_trial,survey-html-form,21,53492,0.0-4.0-1.8,57,1,2025-04-28T18:55:17Z,b60275e29fe2361ab97ac0ac217840d7,"Mozilla/5.0 (Macintosh; Intel Mac OS X 10_15_7) AppleWebKit/605.1.15 (KHTML, like Gecko) Version/18.4 Safari/605.1.15",Macintosh,Safari,18.4,OS X,10_15_7,https://5puzkbbxv1.cognition.run/?sona_id=57488,"en-US,en;q=0.9",tbts1ytf10a0pol,19,"[""Other""]",No,Male,NA,No,175531,NA,1280,NA,"{""product_choice"":""A""}",choice,tc,binary,attraction,NA,laptops,null,null,null,null,null,null,1,60,50,null,50,60,null,Processing speed,Memory (RAM),NA,NA
NA,NA,NA,NA,NA,choice_trial_setup,html-keyboard-response,22,53795,0.0-4.0-0.9,57,1,2025-04-28T18:55:17Z,b60275e29fe2361ab97ac0ac217840d7,"Mozilla/5.0 (Macintosh; Intel Mac OS X 10_15_7) AppleWebKit/605.1.15 (KHTML, like Gecko) Version/18.4 Safari/605.1.15",Macintosh,Safari,18.4,OS X,10_15_7,https://5puzkbbxv1.cognition.run/?sona_id=57488,"en-US,en;q=0.9",tbts1ytf10a0pol,19,"[""Other""]",No,Male,NA,No,175531,NA,null,<p></p>,null,choice,ctd,trinary,repulsion_B,1,washing machines,null,null,null,null,null,null,1,NA,NA,NA,NA,NA,NA,NA,NA,NA,NA
NA,NA,NA,NA,NA,choice_trial,survey-html-form,23,57741,0.0-4.0-1.9,57,1,2025-04-28T18:55:17Z,b60275e29fe2361ab97ac0ac217840d7,"Mozilla/5.0 (Macintosh; Intel Mac OS X 10_15_7) AppleWebKit/605.1.15 (KHTML, like Gecko) Version/18.4 Safari/605.1.15",Macintosh,Safari,18.4,OS X,10_15_7,https://5puzkbbxv1.cognition.run/?sona_id=57488,"en-US,en;q=0.9",tbts1ytf10a0pol,19,"[""Other""]",No,Male,NA,No,175531,NA,3943,NA,"{""product_choice"":""B""}",choice,ctd,trinary,repulsion_B,1,washing machines,null,null,null,null,null,null,1,90,100,80,40,30,40,Average lifespan,Energy savings,NA,NA
NA,NA,NA,NA,NA,choice_trial_setup,html-keyboard-response,24,58043,0.0-4.0-0.10,57,1,2025-04-28T18:55:17Z,b60275e29fe2361ab97ac0ac217840d7,"Mozilla/5.0 (Macintosh; Intel Mac OS X 10_15_7) AppleWebKit/605.1.15 (KHTML, like Gecko) Version/18.4 Safari/605.1.15",Macintosh,Safari,18.4,OS X,10_15_7,https://5puzkbbxv1.cognition.run/?sona_id=57488,"en-US,en;q=0.9",tbts1ytf10a0pol,19,"[""Other""]",No,Male,NA,No,175531,NA,null,<p></p>,null,choice,wb,binary,catch,null,televisions,65,80,45,35,null,null,1,NA,NA,NA,NA,NA,NA,NA,NA,NA,NA
NA,NA,NA,NA,NA,choice_trial,survey-html-form,25,59797,0.0-4.0-1.10,57,1,2025-04-28T18:55:17Z,b60275e29fe2361ab97ac0ac217840d7,"Mozilla/5.0 (Macintosh; Intel Mac OS X 10_15_7) AppleWebKit/605.1.15 (KHTML, like Gecko) Version/18.4 Safari/605.1.15",Macintosh,Safari,18.4,OS X,10_15_7,https://5puzkbbxv1.cognition.run/?sona_id=57488,"en-US,en;q=0.9",tbts1ytf10a0pol,19,"[""Other""]",No,Male,NA,No,175531,NA,1750,NA,"{""product_choice"":""B""}",choice,wb,binary,catch,null,televisions,65,80,45,35,null,null,1,null,null,null,null,null,null,Screen size,Average lifespan,NA,NA
NA,NA,NA,NA,NA,choice_trial_setup,html-keyboard-response,26,60099,0.0-4.0-0.11,57,1,2025-04-28T18:55:17Z,b60275e29fe2361ab97ac0ac217840d7,"Mozilla/5.0 (Macintosh; Intel Mac OS X 10_15_7) AppleWebKit/605.1.15 (KHTML, like Gecko) Version/18.4 Safari/605.1.15",Macintosh,Safari,18.4,OS X,10_15_7,https://5puzkbbxv1.cognition.run/?sona_id=57488,"en-US,en;q=0.9",tbts1ytf10a0pol,19,"[""Other""]",No,Male,NA,No,175531,NA,null,<p></p>,null,choice,tc,binary,repulsion,2,microwave ovens,null,null,null,null,null,null,2,NA,NA,NA,NA,NA,NA,NA,NA,NA,NA
NA,NA,NA,NA,NA,choice_trial,survey-html-form,27,61636,0.0-4.0-1.11,57,1,2025-04-28T18:55:17Z,b60275e29fe2361ab97ac0ac217840d7,"Mozilla/5.0 (Macintosh; Intel Mac OS X 10_15_7) AppleWebKit/605.1.15 (KHTML, like Gecko) Version/18.4 Safari/605.1.15",Macintosh,Safari,18.4,OS X,10_15_7,https://5puzkbbxv1.cognition.run/?sona_id=57488,"en-US,en;q=0.9",tbts1ytf10a0pol,19,"[""Other""]",No,Male,NA,No,175531,NA,1534,NA,"{""product_choice"":""B""}",choice,tc,binary,repulsion,2,microwave ovens,null,null,null,null,null,null,2,30,40,null,100,90,null,Warranty,Cooking power,NA,NA
NA,NA,NA,NA,NA,choice_trial_setup,html-keyboard-response,28,61939,0.0-4.0-0.12,57,1,2025-04-28T18:55:17Z,b60275e29fe2361ab97ac0ac217840d7,"Mozilla/5.0 (Macintosh; Intel Mac OS X 10_15_7) AppleWebKit/605.1.15 (KHTML, like Gecko) Version/18.4 Safari/605.1.15",Macintosh,Safari,18.4,OS X,10_15_7,https://5puzkbbxv1.cognition.run/?sona_id=57488,"en-US,en;q=0.9",tbts1ytf10a0pol,19,"[""Other""]",No,Male,NA,No,175531,NA,null,<p></p>,null,choice,ctd,trinary,repulsion_B,1,microwave ovens,null,null,null,null,null,null,1,NA,NA,NA,NA,NA,NA,NA,NA,NA,NA
NA,NA,NA,NA,NA,choice_trial,survey-html-form,29,71980,0.0-4.0-1.12,57,1,2025-04-28T18:55:17Z,b60275e29fe2361ab97ac0ac217840d7,"Mozilla/5.0 (Macintosh; Intel Mac OS X 10_15_7) AppleWebKit/605.1.15 (KHTML, like Gecko) Version/18.4 Safari/605.1.15",Macintosh,Safari,18.4,OS X,10_15_7,https://5puzkbbxv1.cognition.run/?sona_id=57488,"en-US,en;q=0.9",tbts1ytf10a0pol,19,"[""Other""]",No,Male,NA,No,175531,NA,10039,NA,"{""product_choice"":""C""}",choice,ctd,trinary,repulsion_B,1,microwave ovens,null,null,null,null,null,null,1,90,100,80,40,30,40,Warranty,Cooking power,NA,NA
NA,NA,NA,NA,NA,choice_trial_setup,html-keyboard-response,30,72282,0.0-4.0-0.13,57,1,2025-04-28T18:55:17Z,b60275e29fe2361ab97ac0ac217840d7,"Mozilla/5.0 (Macintosh; Intel Mac OS X 10_15_7) AppleWebKit/605.1.15 (KHTML, like Gecko) Version/18.4 Safari/605.1.15",Macintosh,Safari,18.4,OS X,10_15_7,https://5puzkbbxv1.cognition.run/?sona_id=57488,"en-US,en;q=0.9",tbts1ytf10a0pol,19,"[""Other""]",No,Male,NA,No,175531,NA,null,<p></p>,null,choice,dct,trinary,repulsion_A,1,televisions,null,null,null,null,null,null,2,NA,NA,NA,NA,NA,NA,NA,NA,NA,NA
NA,NA,NA,NA,NA,choice_trial,survey-html-form,31,73708,0.0-4.0-1.13,57,1,2025-04-28T18:55:17Z,b60275e29fe2361ab97ac0ac217840d7,"Mozilla/5.0 (Macintosh; Intel Mac OS X 10_15_7) AppleWebKit/605.1.15 (KHTML, like Gecko) Version/18.4 Safari/605.1.15",Macintosh,Safari,18.4,OS X,10_15_7,https://5puzkbbxv1.cognition.run/?sona_id=57488,"en-US,en;q=0.9",tbts1ytf10a0pol,19,"[""Other""]",No,Male,NA,No,175531,NA,1423,NA,"{""product_choice"":""A""}",choice,dct,trinary,repulsion_A,1,televisions,null,null,null,null,null,null,2,100,90,100,30,40,20,Screen size,Average lifespan,NA,NA
NA,NA,NA,NA,NA,choice_trial_setup,html-keyboard-response,32,74011,0.0-4.0-0.14,57,1,2025-04-28T18:55:17Z,b60275e29fe2361ab97ac0ac217840d7,"Mozilla/5.0 (Macintosh; Intel Mac OS X 10_15_7) AppleWebKit/605.1.15 (KHTML, like Gecko) Version/18.4 Safari/605.1.15",Macintosh,Safari,18.4,OS X,10_15_7,https://5puzkbbxv1.cognition.run/?sona_id=57488,"en-US,en;q=0.9",tbts1ytf10a0pol,19,"[""Other""]",No,Male,NA,No,175531,NA,null,<p></p>,null,choice,wbw,trinary,catch,null,televisions,85,75,50,15,50,35,2,NA,NA,NA,NA,NA,NA,NA,NA,NA,NA
NA,NA,NA,NA,NA,choice_trial,survey-html-form,33,75848,0.0-4.0-1.14,57,1,2025-04-28T18:55:17Z,b60275e29fe2361ab97ac0ac217840d7,"Mozilla/5.0 (Macintosh; Intel Mac OS X 10_15_7) AppleWebKit/605.1.15 (KHTML, like Gecko) Version/18.4 Safari/605.1.15",Macintosh,Safari,18.4,OS X,10_15_7,https://5puzkbbxv1.cognition.run/?sona_id=57488,"en-US,en;q=0.9",tbts1ytf10a0pol,19,"[""Other""]",No,Male,NA,No,175531,NA,1833,NA,"{""product_choice"":""A""}",choice,wbw,trinary,catch,null,televisions,85,75,50,15,50,35,2,null,null,null,null,null,null,Screen size,Average lifespan,NA,NA
NA,NA,NA,NA,NA,choice_trial_setup,html-keyboard-response,34,76150,0.0-4.0-0.15,57,1,2025-04-28T18:55:17Z,b60275e29fe2361ab97ac0ac217840d7,"Mozilla/5.0 (Macintosh; Intel Mac OS X 10_15_7) AppleWebKit/605.1.15 (KHTML, like Gecko) Version/18.4 Safari/605.1.15",Macintosh,Safari,18.4,OS X,10_15_7,https://5puzkbbxv1.cognition.run/?sona_id=57488,"en-US,en;q=0.9",tbts1ytf10a0pol,19,"[""Other""]",No,Male,NA,No,175531,NA,null,<p></p>,null,choice,dct,trinary,attraction,1,televisions,null,null,null,null,null,null,2,NA,NA,NA,NA,NA,NA,NA,NA,NA,NA
NA,NA,NA,NA,NA,choice_trial,survey-html-form,35,77821,0.0-4.0-1.15,57,1,2025-04-28T18:55:17Z,b60275e29fe2361ab97ac0ac217840d7,"Mozilla/5.0 (Macintosh; Intel Mac OS X 10_15_7) AppleWebKit/605.1.15 (KHTML, like Gecko) Version/18.4 Safari/605.1.15",Macintosh,Safari,18.4,OS X,10_15_7,https://5puzkbbxv1.cognition.run/?sona_id=57488,"en-US,en;q=0.9",tbts1ytf10a0pol,19,"[""Other""]",No,Male,NA,No,175531,NA,1666,NA,"{""product_choice"":""A""}",choice,dct,trinary,attraction,1,televisions,null,null,null,null,null,null,2,60,50,60,50,60,40,Screen size,Average lifespan,NA,NA
NA,NA,NA,NA,NA,choice_trial_setup,html-keyboard-response,36,78123,0.0-4.0-0.16,57,1,2025-04-28T18:55:17Z,b60275e29fe2361ab97ac0ac217840d7,"Mozilla/5.0 (Macintosh; Intel Mac OS X 10_15_7) AppleWebKit/605.1.15 (KHTML, like Gecko) Version/18.4 Safari/605.1.15",Macintosh,Safari,18.4,OS X,10_15_7,https://5puzkbbxv1.cognition.run/?sona_id=57488,"en-US,en;q=0.9",tbts1ytf10a0pol,19,"[""Other""]",No,Male,NA,No,175531,NA,null,<p></p>,null,choice,tcd,trinary,attraction,2,microwave ovens,null,null,null,null,null,null,2,NA,NA,NA,NA,NA,NA,NA,NA,NA,NA
NA,NA,NA,NA,NA,choice_trial,survey-html-form,37,79258,0.0-4.0-1.16,57,1,2025-04-28T18:55:17Z,b60275e29fe2361ab97ac0ac217840d7,"Mozilla/5.0 (Macintosh; Intel Mac OS X 10_15_7) AppleWebKit/605.1.15 (KHTML, like Gecko) Version/18.4 Safari/605.1.15",Macintosh,Safari,18.4,OS X,10_15_7,https://5puzkbbxv1.cognition.run/?sona_id=57488,"en-US,en;q=0.9",tbts1ytf10a0pol,19,"[""Other""]",No,Male,NA,No,175531,NA,1134,NA,"{""product_choice"":""A""}",choice,tcd,trinary,attraction,2,microwave ovens,null,null,null,null,null,null,2,50,60,40,60,50,60,Warranty,Cooking power,NA,NA
NA,NA,NA,NA,NA,choice_trial_setup,html-keyboard-response,38,79560,0.0-4.0-0.17,57,1,2025-04-28T18:55:17Z,b60275e29fe2361ab97ac0ac217840d7,"Mozilla/5.0 (Macintosh; Intel Mac OS X 10_15_7) AppleWebKit/605.1.15 (KHTML, like Gecko) Version/18.4 Safari/605.1.15",Macintosh,Safari,18.4,OS X,10_15_7,https://5puzkbbxv1.cognition.run/?sona_id=57488,"en-US,en;q=0.9",tbts1ytf10a0pol,19,"[""Other""]",No,Male,NA,No,175531,NA,null,<p></p>,null,choice,ctd,trinary,repulsion_B,1,laptops,null,null,null,null,null,null,2,NA,NA,NA,NA,NA,NA,NA,NA,NA,NA
NA,NA,NA,NA,NA,choice_trial,survey-html-form,39,80903,0.0-4.0-1.17,57,1,2025-04-28T18:55:17Z,b60275e29fe2361ab97ac0ac217840d7,"Mozilla/5.0 (Macintosh; Intel Mac OS X 10_15_7) AppleWebKit/605.1.15 (KHTML, like Gecko) Version/18.4 Safari/605.1.15",Macintosh,Safari,18.4,OS X,10_15_7,https://5puzkbbxv1.cognition.run/?sona_id=57488,"en-US,en;q=0.9",tbts1ytf10a0pol,19,"[""Other""]",No,Male,NA,No,175531,NA,1340,NA,"{""product_choice"":""B""}",choice,ctd,trinary,repulsion_B,1,laptops,null,null,null,null,null,null,2,90,100,80,40,30,40,Processing speed,Memory (RAM),NA,NA
NA,NA,NA,NA,NA,choice_trial_setup,html-keyboard-response,40,81206,0.0-4.0-0.18,57,1,2025-04-28T18:55:17Z,b60275e29fe2361ab97ac0ac217840d7,"Mozilla/5.0 (Macintosh; Intel Mac OS X 10_15_7) AppleWebKit/605.1.15 (KHTML, like Gecko) Version/18.4 Safari/605.1.15",Macintosh,Safari,18.4,OS X,10_15_7,https://5puzkbbxv1.cognition.run/?sona_id=57488,"en-US,en;q=0.9",tbts1ytf10a0pol,19,"[""Other""]",No,Male,NA,No,175531,NA,null,<p></p>,null,choice,tc,binary,repulsion,2,televisions,null,null,null,null,null,null,2,NA,NA,NA,NA,NA,NA,NA,NA,NA,NA
NA,NA,NA,NA,NA,choice_trial,survey-html-form,41,82256,0.0-4.0-1.18,57,1,2025-04-28T18:55:17Z,b60275e29fe2361ab97ac0ac217840d7,"Mozilla/5.0 (Macintosh; Intel Mac OS X 10_15_7) AppleWebKit/605.1.15 (KHTML, like Gecko) Version/18.4 Safari/605.1.15",Macintosh,Safari,18.4,OS X,10_15_7,https://5puzkbbxv1.cognition.run/?sona_id=57488,"en-US,en;q=0.9",tbts1ytf10a0pol,19,"[""Other""]",No,Male,NA,No,175531,NA,1046,NA,"{""product_choice"":""B""}",choice,tc,binary,repulsion,2,televisions,null,null,null,null,null,null,2,30,40,null,100,90,null,Screen size,Average lifespan,NA,NA
NA,NA,NA,NA,NA,choice_trial_setup,html-keyboard-response,42,82558,0.0-4.0-0.19,57,1,2025-04-28T18:55:17Z,b60275e29fe2361ab97ac0ac217840d7,"Mozilla/5.0 (Macintosh; Intel Mac OS X 10_15_7) AppleWebKit/605.1.15 (KHTML, like Gecko) Version/18.4 Safari/605.1.15",Macintosh,Safari,18.4,OS X,10_15_7,https://5puzkbbxv1.cognition.run/?sona_id=57488,"en-US,en;q=0.9",tbts1ytf10a0pol,19,"[""Other""]",No,Male,NA,No,175531,NA,null,<p></p>,null,choice,bw,binary,catch,null,microwave ovens,50,90,15,25,null,null,2,NA,NA,NA,NA,NA,NA,NA,NA,NA,NA
NA,NA,NA,NA,NA,choice_trial,survey-html-form,43,85735,0.0-4.0-1.19,57,1,2025-04-28T18:55:17Z,b60275e29fe2361ab97ac0ac217840d7,"Mozilla/5.0 (Macintosh; Intel Mac OS X 10_15_7) AppleWebKit/605.1.15 (KHTML, like Gecko) Version/18.4 Safari/605.1.15",Macintosh,Safari,18.4,OS X,10_15_7,https://5puzkbbxv1.cognition.run/?sona_id=57488,"en-US,en;q=0.9",tbts1ytf10a0pol,19,"[""Other""]",No,Male,NA,No,175531,NA,3174,NA,"{""product_choice"":""A""}",choice,bw,binary,catch,null,microwave ovens,50,90,15,25,null,null,2,null,null,null,null,null,null,Warranty,Cooking power,NA,NA
NA,NA,NA,NA,NA,choice_trial_setup,html-keyboard-response,44,86037,0.0-4.0-0.20,57,1,2025-04-28T18:55:17Z,b60275e29fe2361ab97ac0ac217840d7,"Mozilla/5.0 (Macintosh; Intel Mac OS X 10_15_7) AppleWebKit/605.1.15 (KHTML, like Gecko) Version/18.4 Safari/605.1.15",Macintosh,Safari,18.4,OS X,10_15_7,https://5puzkbbxv1.cognition.run/?sona_id=57488,"en-US,en;q=0.9",tbts1ytf10a0pol,19,"[""Other""]",No,Male,NA,No,175531,NA,null,<p></p>,null,choice,ct,binary,attraction,NA,televisions,null,null,null,null,null,null,2,NA,NA,NA,NA,NA,NA,NA,NA,NA,NA
NA,NA,NA,NA,NA,choice_trial,survey-html-form,45,87479,0.0-4.0-1.20,57,1,2025-04-28T18:55:17Z,b60275e29fe2361ab97ac0ac217840d7,"Mozilla/5.0 (Macintosh; Intel Mac OS X 10_15_7) AppleWebKit/605.1.15 (KHTML, like Gecko) Version/18.4 Safari/605.1.15",Macintosh,Safari,18.4,OS X,10_15_7,https://5puzkbbxv1.cognition.run/?sona_id=57488,"en-US,en;q=0.9",tbts1ytf10a0pol,19,"[""Other""]",No,Male,NA,No,175531,NA,1439,NA,"{""product_choice"":""A""}",choice,ct,binary,attraction,NA,televisions,null,null,null,null,null,null,2,60,50,null,50,60,null,Screen size,Average lifespan,NA,NA
NA,NA,NA,NA,NA,choice_trial_setup,html-keyboard-response,46,87783,0.0-4.0-0.21,57,1,2025-04-28T18:55:17Z,b60275e29fe2361ab97ac0ac217840d7,"Mozilla/5.0 (Macintosh; Intel Mac OS X 10_15_7) AppleWebKit/605.1.15 (KHTML, like Gecko) Version/18.4 Safari/605.1.15",Macintosh,Safari,18.4,OS X,10_15_7,https://5puzkbbxv1.cognition.run/?sona_id=57488,"en-US,en;q=0.9",tbts1ytf10a0pol,19,"[""Other""]",No,Male,NA,No,175531,NA,null,<p></p>,null,choice,cdt,trinary,repulsion_A,1,microwave ovens,null,null,null,null,null,null,2,NA,NA,NA,NA,NA,NA,NA,NA,NA,NA
NA,NA,NA,NA,NA,choice_trial,survey-html-form,47,88871,0.0-4.0-1.21,57,1,2025-04-28T18:55:17Z,b60275e29fe2361ab97ac0ac217840d7,"Mozilla/5.0 (Macintosh; Intel Mac OS X 10_15_7) AppleWebKit/605.1.15 (KHTML, like Gecko) Version/18.4 Safari/605.1.15",Macintosh,Safari,18.4,OS X,10_15_7,https://5puzkbbxv1.cognition.run/?sona_id=57488,"en-US,en;q=0.9",tbts1ytf10a0pol,19,"[""Other""]",No,Male,NA,No,175531,NA,1086,NA,"{""product_choice"":""A""}",choice,cdt,trinary,repulsion_A,1,microwave ovens,null,null,null,null,null,null,2,100,90,100,30,40,20,Warranty,Cooking power,NA,NA
NA,NA,NA,NA,NA,choice_trial_setup,html-keyboard-response,48,89174,0.0-4.0-0.22,57,1,2025-04-28T18:55:17Z,b60275e29fe2361ab97ac0ac217840d7,"Mozilla/5.0 (Macintosh; Intel Mac OS X 10_15_7) AppleWebKit/605.1.15 (KHTML, like Gecko) Version/18.4 Safari/605.1.15",Macintosh,Safari,18.4,OS X,10_15_7,https://5puzkbbxv1.cognition.run/?sona_id=57488,"en-US,en;q=0.9",tbts1ytf10a0pol,19,"[""Other""]",No,Male,NA,No,175531,NA,null,<p></p>,null,choice,dct,trinary,repulsion_B,2,laptops,null,null,null,null,null,null,1,NA,NA,NA,NA,NA,NA,NA,NA,NA,NA
NA,NA,NA,NA,NA,choice_trial,survey-html-form,49,90766,0.0-4.0-1.22,57,1,2025-04-28T18:55:17Z,b60275e29fe2361ab97ac0ac217840d7,"Mozilla/5.0 (Macintosh; Intel Mac OS X 10_15_7) AppleWebKit/605.1.15 (KHTML, like Gecko) Version/18.4 Safari/605.1.15",Macintosh,Safari,18.4,OS X,10_15_7,https://5puzkbbxv1.cognition.run/?sona_id=57488,"en-US,en;q=0.9",tbts1ytf10a0pol,19,"[""Other""]",No,Male,NA,No,175531,NA,1588,NA,"{""product_choice"":""B""}",choice,dct,trinary,repulsion_B,2,laptops,null,null,null,null,null,null,1,40,30,40,90,100,80,Processing speed,Memory (RAM),NA,NA
NA,NA,NA,NA,NA,choice_trial_setup,html-keyboard-response,50,91068,0.0-4.0-0.23,57,1,2025-04-28T18:55:17Z,b60275e29fe2361ab97ac0ac217840d7,"Mozilla/5.0 (Macintosh; Intel Mac OS X 10_15_7) AppleWebKit/605.1.15 (KHTML, like Gecko) Version/18.4 Safari/605.1.15",Macintosh,Safari,18.4,OS X,10_15_7,https://5puzkbbxv1.cognition.run/?sona_id=57488,"en-US,en;q=0.9",tbts1ytf10a0pol,19,"[""Other""]",No,Male,NA,No,175531,NA,null,<p></p>,null,choice,dtc,trinary,attraction,1,washing machines,null,null,null,null,null,null,2,NA,NA,NA,NA,NA,NA,NA,NA,NA,NA
NA,NA,NA,NA,NA,choice_trial,survey-html-form,51,92244,0.0-4.0-1.23,57,1,2025-04-28T18:55:17Z,b60275e29fe2361ab97ac0ac217840d7,"Mozilla/5.0 (Macintosh; Intel Mac OS X 10_15_7) AppleWebKit/605.1.15 (KHTML, like Gecko) Version/18.4 Safari/605.1.15",Macintosh,Safari,18.4,OS X,10_15_7,https://5puzkbbxv1.cognition.run/?sona_id=57488,"en-US,en;q=0.9",tbts1ytf10a0pol,19,"[""Other""]",No,Male,NA,No,175531,NA,1174,NA,"{""product_choice"":""A""}",choice,dtc,trinary,attraction,1,washing machines,null,null,null,null,null,null,2,60,50,60,50,60,40,Average lifespan,Energy savings,NA,NA
NA,NA,NA,NA,NA,choice_trial_setup,html-keyboard-response,52,92547,0.0-4.0-0.24,57,1,2025-04-28T18:55:17Z,b60275e29fe2361ab97ac0ac217840d7,"Mozilla/5.0 (Macintosh; Intel Mac OS X 10_15_7) AppleWebKit/605.1.15 (KHTML, like Gecko) Version/18.4 Safari/605.1.15",Macintosh,Safari,18.4,OS X,10_15_7,https://5puzkbbxv1.cognition.run/?sona_id=57488,"en-US,en;q=0.9",tbts1ytf10a0pol,19,"[""Other""]",No,Male,NA,No,175531,NA,null,<p></p>,null,choice,bw,binary,catch,null,laptops,80,70,15,40,null,null,2,NA,NA,NA,NA,NA,NA,NA,NA,NA,NA
NA,NA,NA,NA,NA,choice_trial,survey-html-form,53,94240,0.0-4.0-1.24,57,1,2025-04-28T18:55:17Z,b60275e29fe2361ab97ac0ac217840d7,"Mozilla/5.0 (Macintosh; Intel Mac OS X 10_15_7) AppleWebKit/605.1.15 (KHTML, like Gecko) Version/18.4 Safari/605.1.15",Macintosh,Safari,18.4,OS X,10_15_7,https://5puzkbbxv1.cognition.run/?sona_id=57488,"en-US,en;q=0.9",tbts1ytf10a0pol,19,"[""Other""]",No,Male,NA,No,175531,NA,1690,NA,"{""product_choice"":""B""}",choice,bw,binary,catch,null,laptops,80,70,15,40,null,null,2,null,null,null,null,null,null,Processing speed,Memory (RAM),NA,NA
NA,NA,NA,NA,NA,choice_trial_setup,html-keyboard-response,54,94544,0.0-4.0-0.25,57,1,2025-04-28T18:55:17Z,b60275e29fe2361ab97ac0ac217840d7,"Mozilla/5.0 (Macintosh; Intel Mac OS X 10_15_7) AppleWebKit/605.1.15 (KHTML, like Gecko) Version/18.4 Safari/605.1.15",Macintosh,Safari,18.4,OS X,10_15_7,https://5puzkbbxv1.cognition.run/?sona_id=57488,"en-US,en;q=0.9",tbts1ytf10a0pol,19,"[""Other""]",No,Male,NA,No,175531,NA,null,<p></p>,null,choice,ctd,trinary,repulsion_A,2,televisions,null,null,null,null,null,null,1,NA,NA,NA,NA,NA,NA,NA,NA,NA,NA
NA,NA,NA,NA,NA,choice_trial,survey-html-form,55,95687,0.0-4.0-1.25,57,1,2025-04-28T18:55:17Z,b60275e29fe2361ab97ac0ac217840d7,"Mozilla/5.0 (Macintosh; Intel Mac OS X 10_15_7) AppleWebKit/605.1.15 (KHTML, like Gecko) Version/18.4 Safari/605.1.15",Macintosh,Safari,18.4,OS X,10_15_7,https://5puzkbbxv1.cognition.run/?sona_id=57488,"en-US,en;q=0.9",tbts1ytf10a0pol,19,"[""Other""]",No,Male,NA,No,175531,NA,1139,NA,"{""product_choice"":""A""}",choice,ctd,trinary,repulsion_A,2,televisions,null,null,null,null,null,null,1,30,40,20,100,90,100,Screen size,Average lifespan,NA,NA
NA,NA,NA,NA,NA,choice_trial_setup,html-keyboard-response,56,95993,0.0-4.0-0.26,57,1,2025-04-28T18:55:17Z,b60275e29fe2361ab97ac0ac217840d7,"Mozilla/5.0 (Macintosh; Intel Mac OS X 10_15_7) AppleWebKit/605.1.15 (KHTML, like Gecko) Version/18.4 Safari/605.1.15",Macintosh,Safari,18.4,OS X,10_15_7,https://5puzkbbxv1.cognition.run/?sona_id=57488,"en-US,en;q=0.9",tbts1ytf10a0pol,19,"[""Other""]",No,Male,NA,No,175531,NA,null,<p></p>,null,choice,cdt,trinary,repulsion_B,1,televisions,null,null,null,null,null,null,2,NA,NA,NA,NA,NA,NA,NA,NA,NA,NA
NA,NA,NA,NA,NA,choice_trial,survey-html-form,57,97744,0.0-4.0-1.26,57,1,2025-04-28T18:55:17Z,b60275e29fe2361ab97ac0ac217840d7,"Mozilla/5.0 (Macintosh; Intel Mac OS X 10_15_7) AppleWebKit/605.1.15 (KHTML, like Gecko) Version/18.4 Safari/605.1.15",Macintosh,Safari,18.4,OS X,10_15_7,https://5puzkbbxv1.cognition.run/?sona_id=57488,"en-US,en;q=0.9",tbts1ytf10a0pol,19,"[""Other""]",No,Male,NA,No,175531,NA,1746,NA,"{""product_choice"":""B""}",choice,cdt,trinary,repulsion_B,1,televisions,null,null,null,null,null,null,2,90,100,80,40,30,40,Screen size,Average lifespan,NA,NA
NA,NA,NA,NA,NA,choice_trial_setup,html-keyboard-response,58,98048,0.0-4.0-0.27,57,1,2025-04-28T18:55:17Z,b60275e29fe2361ab97ac0ac217840d7,"Mozilla/5.0 (Macintosh; Intel Mac OS X 10_15_7) AppleWebKit/605.1.15 (KHTML, like Gecko) Version/18.4 Safari/605.1.15",Macintosh,Safari,18.4,OS X,10_15_7,https://5puzkbbxv1.cognition.run/?sona_id=57488,"en-US,en;q=0.9",tbts1ytf10a0pol,19,"[""Other""]",No,Male,NA,No,175531,NA,null,<p></p>,null,choice,ctd,trinary,repulsion_A,1,washing machines,null,null,null,null,null,null,1,NA,NA,NA,NA,NA,NA,NA,NA,NA,NA
NA,NA,NA,NA,NA,choice_trial,survey-html-form,59,100327,0.0-4.0-1.27,57,1,2025-04-28T18:55:17Z,b60275e29fe2361ab97ac0ac217840d7,"Mozilla/5.0 (Macintosh; Intel Mac OS X 10_15_7) AppleWebKit/605.1.15 (KHTML, like Gecko) Version/18.4 Safari/605.1.15",Macintosh,Safari,18.4,OS X,10_15_7,https://5puzkbbxv1.cognition.run/?sona_id=57488,"en-US,en;q=0.9",tbts1ytf10a0pol,19,"[""Other""]",No,Male,NA,No,175531,NA,2276,NA,"{""product_choice"":""A""}",choice,ctd,trinary,repulsion_A,1,washing machines,null,null,null,null,null,null,1,100,90,100,30,40,20,Average lifespan,Energy savings,NA,NA
NA,NA,NA,NA,NA,choice_trial_setup,html-keyboard-response,60,100632,0.0-4.0-0.28,57,1,2025-04-28T18:55:17Z,b60275e29fe2361ab97ac0ac217840d7,"Mozilla/5.0 (Macintosh; Intel Mac OS X 10_15_7) AppleWebKit/605.1.15 (KHTML, like Gecko) Version/18.4 Safari/605.1.15",Macintosh,Safari,18.4,OS X,10_15_7,https://5puzkbbxv1.cognition.run/?sona_id=57488,"en-US,en;q=0.9",tbts1ytf10a0pol,19,"[""Other""]",No,Male,NA,No,175531,NA,null,<p></p>,null,choice,dtc,trinary,attraction,2,televisions,null,null,null,null,null,null,2,NA,NA,NA,NA,NA,NA,NA,NA,NA,NA
NA,NA,NA,NA,NA,choice_trial,survey-html-form,61,102597,0.0-4.0-1.28,57,1,2025-04-28T18:55:17Z,b60275e29fe2361ab97ac0ac217840d7,"Mozilla/5.0 (Macintosh; Intel Mac OS X 10_15_7) AppleWebKit/605.1.15 (KHTML, like Gecko) Version/18.4 Safari/605.1.15",Macintosh,Safari,18.4,OS X,10_15_7,https://5puzkbbxv1.cognition.run/?sona_id=57488,"en-US,en;q=0.9",tbts1ytf10a0pol,19,"[""Other""]",No,Male,NA,No,175531,NA,1958,NA,"{""product_choice"":""C""}",choice,dtc,trinary,attraction,2,televisions,null,null,null,null,null,null,2,50,60,40,60,50,60,Screen size,Average lifespan,NA,NA
NA,NA,NA,NA,NA,choice_trial_setup,html-keyboard-response,62,102900,0.0-4.0-0.29,57,1,2025-04-28T18:55:17Z,b60275e29fe2361ab97ac0ac217840d7,"Mozilla/5.0 (Macintosh; Intel Mac OS X 10_15_7) AppleWebKit/605.1.15 (KHTML, like Gecko) Version/18.4 Safari/605.1.15",Macintosh,Safari,18.4,OS X,10_15_7,https://5puzkbbxv1.cognition.run/?sona_id=57488,"en-US,en;q=0.9",tbts1ytf10a0pol,19,"[""Other""]",No,Male,NA,No,175531,NA,null,<p></p>,null,choice,wbw,trinary,catch,null,microwave ovens,55,90,10,5,45,25,1,NA,NA,NA,NA,NA,NA,NA,NA,NA,NA
NA,NA,NA,NA,NA,choice_trial,survey-html-form,63,104978,0.0-4.0-1.29,57,1,2025-04-28T18:55:17Z,b60275e29fe2361ab97ac0ac217840d7,"Mozilla/5.0 (Macintosh; Intel Mac OS X 10_15_7) AppleWebKit/605.1.15 (KHTML, like Gecko) Version/18.4 Safari/605.1.15",Macintosh,Safari,18.4,OS X,10_15_7,https://5puzkbbxv1.cognition.run/?sona_id=57488,"en-US,en;q=0.9",tbts1ytf10a0pol,19,"[""Other""]",No,Male,NA,No,175531,NA,2066,NA,"{""product_choice"":""B""}",choice,wbw,trinary,catch,null,microwave ovens,55,90,10,5,45,25,1,null,null,null,null,null,null,Warranty,Cooking power,NA,NA
NA,NA,NA,NA,NA,choice_trial_setup,html-keyboard-response,64,105282,0.0-4.0-0.30,57,1,2025-04-28T18:55:17Z,b60275e29fe2361ab97ac0ac217840d7,"Mozilla/5.0 (Macintosh; Intel Mac OS X 10_15_7) AppleWebKit/605.1.15 (KHTML, like Gecko) Version/18.4 Safari/605.1.15",Macintosh,Safari,18.4,OS X,10_15_7,https://5puzkbbxv1.cognition.run/?sona_id=57488,"en-US,en;q=0.9",tbts1ytf10a0pol,19,"[""Other""]",No,Male,NA,No,175531,NA,null,<p></p>,null,choice,ct,binary,repulsion,1,televisions,null,null,null,null,null,null,2,NA,NA,NA,NA,NA,NA,NA,NA,NA,NA
NA,NA,NA,NA,NA,choice_trial,survey-html-form,65,106593,0.0-4.0-1.30,57,1,2025-04-28T18:55:17Z,b60275e29fe2361ab97ac0ac217840d7,"Mozilla/5.0 (Macintosh; Intel Mac OS X 10_15_7) AppleWebKit/605.1.15 (KHTML, like Gecko) Version/18.4 Safari/605.1.15",Macintosh,Safari,18.4,OS X,10_15_7,https://5puzkbbxv1.cognition.run/?sona_id=57488,"en-US,en;q=0.9",tbts1ytf10a0pol,19,"[""Other""]",No,Male,NA,No,175531,NA,1307,NA,"{""product_choice"":""A""}",choice,ct,binary,repulsion,1,televisions,null,null,null,null,null,null,2,100,90,null,30,40,null,Screen size,Average lifespan,NA,NA
NA,NA,NA,NA,NA,choice_trial_setup,html-keyboard-response,66,106897,0.0-4.0-0.31,57,1,2025-04-28T18:55:17Z,b60275e29fe2361ab97ac0ac217840d7,"Mozilla/5.0 (Macintosh; Intel Mac OS X 10_15_7) AppleWebKit/605.1.15 (KHTML, like Gecko) Version/18.4 Safari/605.1.15",Macintosh,Safari,18.4,OS X,10_15_7,https://5puzkbbxv1.cognition.run/?sona_id=57488,"en-US,en;q=0.9",tbts1ytf10a0pol,19,"[""Other""]",No,Male,NA,No,175531,NA,null,<p></p>,null,choice,bww,trinary,catch,null,washing machines,55,75,30,10,15,15,1,NA,NA,NA,NA,NA,NA,NA,NA,NA,NA
NA,NA,NA,NA,NA,choice_trial,survey-html-form,67,108227,0.0-4.0-1.31,57,1,2025-04-28T18:55:17Z,b60275e29fe2361ab97ac0ac217840d7,"Mozilla/5.0 (Macintosh; Intel Mac OS X 10_15_7) AppleWebKit/605.1.15 (KHTML, like Gecko) Version/18.4 Safari/605.1.15",Macintosh,Safari,18.4,OS X,10_15_7,https://5puzkbbxv1.cognition.run/?sona_id=57488,"en-US,en;q=0.9",tbts1ytf10a0pol,19,"[""Other""]",No,Male,NA,No,175531,NA,1327,NA,"{""product_choice"":""A""}",choice,bww,trinary,catch,null,washing machines,55,75,30,10,15,15,1,null,null,null,null,null,null,Average lifespan,Energy savings,NA,NA
NA,NA,NA,NA,NA,choice_trial_setup,html-keyboard-response,68,108529,0.0-4.0-0.32,57,1,2025-04-28T18:55:17Z,b60275e29fe2361ab97ac0ac217840d7,"Mozilla/5.0 (Macintosh; Intel Mac OS X 10_15_7) AppleWebKit/605.1.15 (KHTML, like Gecko) Version/18.4 Safari/605.1.15",Macintosh,Safari,18.4,OS X,10_15_7,https://5puzkbbxv1.cognition.run/?sona_id=57488,"en-US,en;q=0.9",tbts1ytf10a0pol,19,"[""Other""]",No,Male,NA,No,175531,NA,null,<p></p>,null,choice,ctd,trinary,repulsion_A,2,laptops,null,null,null,null,null,null,2,NA,NA,NA,NA,NA,NA,NA,NA,NA,NA
NA,NA,NA,NA,NA,choice_trial,survey-html-form,69,110492,0.0-4.0-1.32,57,1,2025-04-28T18:55:17Z,b60275e29fe2361ab97ac0ac217840d7,"Mozilla/5.0 (Macintosh; Intel Mac OS X 10_15_7) AppleWebKit/605.1.15 (KHTML, like Gecko) Version/18.4 Safari/605.1.15",Macintosh,Safari,18.4,OS X,10_15_7,https://5puzkbbxv1.cognition.run/?sona_id=57488,"en-US,en;q=0.9",tbts1ytf10a0pol,19,"[""Other""]",No,Male,NA,No,175531,NA,1957,NA,"{""product_choice"":""A""}",choice,ctd,trinary,repulsion_A,2,laptops,null,null,null,null,null,null,2,30,40,20,100,90,100,Processing speed,Memory (RAM),NA,NA
NA,NA,NA,NA,NA,choice_trial_setup,html-keyboard-response,70,110797,0.0-4.0-0.33,57,1,2025-04-28T18:55:17Z,b60275e29fe2361ab97ac0ac217840d7,"Mozilla/5.0 (Macintosh; Intel Mac OS X 10_15_7) AppleWebKit/605.1.15 (KHTML, like Gecko) Version/18.4 Safari/605.1.15",Macintosh,Safari,18.4,OS X,10_15_7,https://5puzkbbxv1.cognition.run/?sona_id=57488,"en-US,en;q=0.9",tbts1ytf10a0pol,19,"[""Other""]",No,Male,NA,No,175531,NA,null,<p></p>,null,choice,ctd,trinary,attraction,2,washing machines,null,null,null,null,null,null,2,NA,NA,NA,NA,NA,NA,NA,NA,NA,NA
NA,NA,NA,NA,NA,choice_trial,survey-html-form,71,112020,0.0-4.0-1.33,57,1,2025-04-28T18:55:17Z,b60275e29fe2361ab97ac0ac217840d7,"Mozilla/5.0 (Macintosh; Intel Mac OS X 10_15_7) AppleWebKit/605.1.15 (KHTML, like Gecko) Version/18.4 Safari/605.1.15",Macintosh,Safari,18.4,OS X,10_15_7,https://5puzkbbxv1.cognition.run/?sona_id=57488,"en-US,en;q=0.9",tbts1ytf10a0pol,19,"[""Other""]",No,Male,NA,No,175531,NA,1221,NA,"{""product_choice"":""C""}",choice,ctd,trinary,attraction,2,washing machines,null,null,null,null,null,null,2,50,60,40,60,50,60,Average lifespan,Energy savings,NA,NA
NA,NA,NA,NA,NA,choice_trial_setup,html-keyboard-response,72,112325,0.0-4.0-0.34,57,1,2025-04-28T18:55:17Z,b60275e29fe2361ab97ac0ac217840d7,"Mozilla/5.0 (Macintosh; Intel Mac OS X 10_15_7) AppleWebKit/605.1.15 (KHTML, like Gecko) Version/18.4 Safari/605.1.15",Macintosh,Safari,18.4,OS X,10_15_7,https://5puzkbbxv1.cognition.run/?sona_id=57488,"en-US,en;q=0.9",tbts1ytf10a0pol,19,"[""Other""]",No,Male,NA,No,175531,NA,null,<p></p>,null,choice,dtc,trinary,attraction,1,microwave ovens,null,null,null,null,null,null,2,NA,NA,NA,NA,NA,NA,NA,NA,NA,NA
NA,NA,NA,NA,NA,choice_trial,survey-html-form,73,113328,0.0-4.0-1.34,57,1,2025-04-28T18:55:17Z,b60275e29fe2361ab97ac0ac217840d7,"Mozilla/5.0 (Macintosh; Intel Mac OS X 10_15_7) AppleWebKit/605.1.15 (KHTML, like Gecko) Version/18.4 Safari/605.1.15",Macintosh,Safari,18.4,OS X,10_15_7,https://5puzkbbxv1.cognition.run/?sona_id=57488,"en-US,en;q=0.9",tbts1ytf10a0pol,19,"[""Other""]",No,Male,NA,No,175531,NA,1000,NA,"{""product_choice"":""B""}",choice,dtc,trinary,attraction,1,microwave ovens,null,null,null,null,null,null,2,60,50,60,50,60,40,Warranty,Cooking power,NA,NA
NA,NA,NA,NA,NA,choice_trial_setup,html-keyboard-response,74,113633,0.0-4.0-0.35,57,1,2025-04-28T18:55:17Z,b60275e29fe2361ab97ac0ac217840d7,"Mozilla/5.0 (Macintosh; Intel Mac OS X 10_15_7) AppleWebKit/605.1.15 (KHTML, like Gecko) Version/18.4 Safari/605.1.15",Macintosh,Safari,18.4,OS X,10_15_7,https://5puzkbbxv1.cognition.run/?sona_id=57488,"en-US,en;q=0.9",tbts1ytf10a0pol,19,"[""Other""]",No,Male,NA,No,175531,NA,null,<p></p>,null,choice,ctd,trinary,repulsion_A,2,washing machines,null,null,null,null,null,null,2,NA,NA,NA,NA,NA,NA,NA,NA,NA,NA
NA,NA,NA,NA,NA,choice_trial,survey-html-form,75,115254,0.0-4.0-1.35,57,1,2025-04-28T18:55:17Z,b60275e29fe2361ab97ac0ac217840d7,"Mozilla/5.0 (Macintosh; Intel Mac OS X 10_15_7) AppleWebKit/605.1.15 (KHTML, like Gecko) Version/18.4 Safari/605.1.15",Macintosh,Safari,18.4,OS X,10_15_7,https://5puzkbbxv1.cognition.run/?sona_id=57488,"en-US,en;q=0.9",tbts1ytf10a0pol,19,"[""Other""]",No,Male,NA,No,175531,NA,1614,NA,"{""product_choice"":""A""}",choice,ctd,trinary,repulsion_A,2,washing machines,null,null,null,null,null,null,2,30,40,20,100,90,100,Average lifespan,Energy savings,NA,NA
NA,NA,NA,NA,NA,choice_trial_setup,html-keyboard-response,76,115556,0.0-4.0-0.36,57,1,2025-04-28T18:55:17Z,b60275e29fe2361ab97ac0ac217840d7,"Mozilla/5.0 (Macintosh; Intel Mac OS X 10_15_7) AppleWebKit/605.1.15 (KHTML, like Gecko) Version/18.4 Safari/605.1.15",Macintosh,Safari,18.4,OS X,10_15_7,https://5puzkbbxv1.cognition.run/?sona_id=57488,"en-US,en;q=0.9",tbts1ytf10a0pol,19,"[""Other""]",No,Male,NA,No,175531,NA,null,<p></p>,null,choice,dtc,trinary,attraction,2,laptops,null,null,null,null,null,null,2,NA,NA,NA,NA,NA,NA,NA,NA,NA,NA
NA,NA,NA,NA,NA,choice_trial,survey-html-form,77,116795,0.0-4.0-1.36,57,1,2025-04-28T18:55:17Z,b60275e29fe2361ab97ac0ac217840d7,"Mozilla/5.0 (Macintosh; Intel Mac OS X 10_15_7) AppleWebKit/605.1.15 (KHTML, like Gecko) Version/18.4 Safari/605.1.15",Macintosh,Safari,18.4,OS X,10_15_7,https://5puzkbbxv1.cognition.run/?sona_id=57488,"en-US,en;q=0.9",tbts1ytf10a0pol,19,"[""Other""]",No,Male,NA,No,175531,NA,1237,NA,"{""product_choice"":""B""}",choice,dtc,trinary,attraction,2,laptops,null,null,null,null,null,null,2,50,60,40,60,50,60,Processing speed,Memory (RAM),NA,NA
NA,NA,NA,NA,NA,choice_trial_setup,html-keyboard-response,78,117099,0.0-4.0-0.37,57,1,2025-04-28T18:55:17Z,b60275e29fe2361ab97ac0ac217840d7,"Mozilla/5.0 (Macintosh; Intel Mac OS X 10_15_7) AppleWebKit/605.1.15 (KHTML, like Gecko) Version/18.4 Safari/605.1.15",Macintosh,Safari,18.4,OS X,10_15_7,https://5puzkbbxv1.cognition.run/?sona_id=57488,"en-US,en;q=0.9",tbts1ytf10a0pol,19,"[""Other""]",No,Male,NA,No,175531,NA,null,<p></p>,null,choice,tdc,trinary,repulsion_B,2,televisions,null,null,null,null,null,null,1,NA,NA,NA,NA,NA,NA,NA,NA,NA,NA
NA,NA,NA,NA,NA,choice_trial,survey-html-form,79,118217,0.0-4.0-1.37,57,1,2025-04-28T18:55:17Z,b60275e29fe2361ab97ac0ac217840d7,"Mozilla/5.0 (Macintosh; Intel Mac OS X 10_15_7) AppleWebKit/605.1.15 (KHTML, like Gecko) Version/18.4 Safari/605.1.15",Macintosh,Safari,18.4,OS X,10_15_7,https://5puzkbbxv1.cognition.run/?sona_id=57488,"en-US,en;q=0.9",tbts1ytf10a0pol,19,"[""Other""]",No,Male,NA,No,175531,NA,1114,NA,"{""product_choice"":""C""}",choice,tdc,trinary,repulsion_B,2,televisions,null,null,null,null,null,null,1,40,30,40,90,100,80,Screen size,Average lifespan,NA,NA
NA,NA,NA,NA,NA,choice_trial_setup,html-keyboard-response,80,118522,0.0-4.0-0.38,57,1,2025-04-28T18:55:17Z,b60275e29fe2361ab97ac0ac217840d7,"Mozilla/5.0 (Macintosh; Intel Mac OS X 10_15_7) AppleWebKit/605.1.15 (KHTML, like Gecko) Version/18.4 Safari/605.1.15",Macintosh,Safari,18.4,OS X,10_15_7,https://5puzkbbxv1.cognition.run/?sona_id=57488,"en-US,en;q=0.9",tbts1ytf10a0pol,19,"[""Other""]",No,Male,NA,No,175531,NA,null,<p></p>,null,choice,dtc,trinary,repulsion_B,2,washing machines,null,null,null,null,null,null,2,NA,NA,NA,NA,NA,NA,NA,NA,NA,NA
NA,NA,NA,NA,NA,choice_trial,survey-html-form,81,120381,0.0-4.0-1.38,57,1,2025-04-28T18:55:17Z,b60275e29fe2361ab97ac0ac217840d7,"Mozilla/5.0 (Macintosh; Intel Mac OS X 10_15_7) AppleWebKit/605.1.15 (KHTML, like Gecko) Version/18.4 Safari/605.1.15",Macintosh,Safari,18.4,OS X,10_15_7,https://5puzkbbxv1.cognition.run/?sona_id=57488,"en-US,en;q=0.9",tbts1ytf10a0pol,19,"[""Other""]",No,Male,NA,No,175531,NA,1849,NA,"{""product_choice"":""B""}",choice,dtc,trinary,repulsion_B,2,washing machines,null,null,null,null,null,null,2,40,30,40,90,100,80,Average lifespan,Energy savings,NA,NA
NA,NA,NA,NA,NA,choice_trial_setup,html-keyboard-response,82,120685,0.0-4.0-0.39,57,1,2025-04-28T18:55:17Z,b60275e29fe2361ab97ac0ac217840d7,"Mozilla/5.0 (Macintosh; Intel Mac OS X 10_15_7) AppleWebKit/605.1.15 (KHTML, like Gecko) Version/18.4 Safari/605.1.15",Macintosh,Safari,18.4,OS X,10_15_7,https://5puzkbbxv1.cognition.run/?sona_id=57488,"en-US,en;q=0.9",tbts1ytf10a0pol,19,"[""Other""]",No,Male,NA,No,175531,NA,null,<p></p>,null,choice,cdt,trinary,repulsion_A,2,microwave ovens,null,null,null,null,null,null,2,NA,NA,NA,NA,NA,NA,NA,NA,NA,NA
NA,NA,NA,NA,NA,choice_trial,survey-html-form,83,124049,0.0-4.0-1.39,57,1,2025-04-28T18:55:17Z,b60275e29fe2361ab97ac0ac217840d7,"Mozilla/5.0 (Macintosh; Intel Mac OS X 10_15_7) AppleWebKit/605.1.15 (KHTML, like Gecko) Version/18.4 Safari/605.1.15",Macintosh,Safari,18.4,OS X,10_15_7,https://5puzkbbxv1.cognition.run/?sona_id=57488,"en-US,en;q=0.9",tbts1ytf10a0pol,19,"[""Other""]",No,Male,NA,No,175531,NA,3352,NA,"{""product_choice"":""A""}",choice,cdt,trinary,repulsion_A,2,microwave ovens,null,null,null,null,null,null,2,30,40,20,100,90,100,Warranty,Cooking power,NA,NA
NA,NA,NA,NA,NA,choice_trial_setup,html-keyboard-response,84,124354,0.0-4.0-0.40,57,1,2025-04-28T18:55:17Z,b60275e29fe2361ab97ac0ac217840d7,"Mozilla/5.0 (Macintosh; Intel Mac OS X 10_15_7) AppleWebKit/605.1.15 (KHTML, like Gecko) Version/18.4 Safari/605.1.15",Macintosh,Safari,18.4,OS X,10_15_7,https://5puzkbbxv1.cognition.run/?sona_id=57488,"en-US,en;q=0.9",tbts1ytf10a0pol,19,"[""Other""]",No,Male,NA,No,175531,NA,null,<p></p>,null,choice,ct,binary,repulsion,1,laptops,null,null,null,null,null,null,1,NA,NA,NA,NA,NA,NA,NA,NA,NA,NA
NA,NA,NA,NA,NA,choice_trial,survey-html-form,85,125616,0.0-4.0-1.40,57,1,2025-04-28T18:55:17Z,b60275e29fe2361ab97ac0ac217840d7,"Mozilla/5.0 (Macintosh; Intel Mac OS X 10_15_7) AppleWebKit/605.1.15 (KHTML, like Gecko) Version/18.4 Safari/605.1.15",Macintosh,Safari,18.4,OS X,10_15_7,https://5puzkbbxv1.cognition.run/?sona_id=57488,"en-US,en;q=0.9",tbts1ytf10a0pol,19,"[""Other""]",No,Male,NA,No,175531,NA,1256,NA,"{""product_choice"":""B""}",choice,ct,binary,repulsion,1,laptops,null,null,null,null,null,null,1,100,90,null,30,40,null,Processing speed,Memory (RAM),NA,NA
NA,NA,NA,NA,NA,choice_trial_setup,html-keyboard-response,86,125920,0.0-4.0-0.41,57,1,2025-04-28T18:55:17Z,b60275e29fe2361ab97ac0ac217840d7,"Mozilla/5.0 (Macintosh; Intel Mac OS X 10_15_7) AppleWebKit/605.1.15 (KHTML, like Gecko) Version/18.4 Safari/605.1.15",Macintosh,Safari,18.4,OS X,10_15_7,https://5puzkbbxv1.cognition.run/?sona_id=57488,"en-US,en;q=0.9",tbts1ytf10a0pol,19,"[""Other""]",No,Male,NA,No,175531,NA,null,<p></p>,null,choice,ct,binary,attraction,NA,washing machines,null,null,null,null,null,null,1,NA,NA,NA,NA,NA,NA,NA,NA,NA,NA
NA,NA,NA,NA,NA,choice_trial,survey-html-form,87,127012,0.0-4.0-1.41,57,1,2025-04-28T18:55:17Z,b60275e29fe2361ab97ac0ac217840d7,"Mozilla/5.0 (Macintosh; Intel Mac OS X 10_15_7) AppleWebKit/605.1.15 (KHTML, like Gecko) Version/18.4 Safari/605.1.15",Macintosh,Safari,18.4,OS X,10_15_7,https://5puzkbbxv1.cognition.run/?sona_id=57488,"en-US,en;q=0.9",tbts1ytf10a0pol,19,"[""Other""]",No,Male,NA,No,175531,NA,1085,NA,"{""product_choice"":""B""}",choice,ct,binary,attraction,NA,washing machines,null,null,null,null,null,null,1,60,50,null,50,60,null,Average lifespan,Energy savings,NA,NA
NA,NA,NA,NA,NA,choice_trial_setup,html-keyboard-response,88,127317,0.0-4.0-0.42,57,1,2025-04-28T18:55:17Z,b60275e29fe2361ab97ac0ac217840d7,"Mozilla/5.0 (Macintosh; Intel Mac OS X 10_15_7) AppleWebKit/605.1.15 (KHTML, like Gecko) Version/18.4 Safari/605.1.15",Macintosh,Safari,18.4,OS X,10_15_7,https://5puzkbbxv1.cognition.run/?sona_id=57488,"en-US,en;q=0.9",tbts1ytf10a0pol,19,"[""Other""]",No,Male,NA,No,175531,NA,null,<p></p>,null,choice,ct,binary,repulsion,1,washing machines,null,null,null,null,null,null,2,NA,NA,NA,NA,NA,NA,NA,NA,NA,NA
NA,NA,NA,NA,NA,choice_trial,survey-html-form,89,128618,0.0-4.0-1.42,57,1,2025-04-28T18:55:17Z,b60275e29fe2361ab97ac0ac217840d7,"Mozilla/5.0 (Macintosh; Intel Mac OS X 10_15_7) AppleWebKit/605.1.15 (KHTML, like Gecko) Version/18.4 Safari/605.1.15",Macintosh,Safari,18.4,OS X,10_15_7,https://5puzkbbxv1.cognition.run/?sona_id=57488,"en-US,en;q=0.9",tbts1ytf10a0pol,19,"[""Other""]",No,Male,NA,No,175531,NA,1297,NA,"{""product_choice"":""A""}",choice,ct,binary,repulsion,1,washing machines,null,null,null,null,null,null,2,100,90,null,30,40,null,Average lifespan,Energy savings,NA,NA
NA,NA,NA,NA,NA,choice_trial_setup,html-keyboard-response,90,128923,0.0-4.0-0.43,57,1,2025-04-28T18:55:17Z,b60275e29fe2361ab97ac0ac217840d7,"Mozilla/5.0 (Macintosh; Intel Mac OS X 10_15_7) AppleWebKit/605.1.15 (KHTML, like Gecko) Version/18.4 Safari/605.1.15",Macintosh,Safari,18.4,OS X,10_15_7,https://5puzkbbxv1.cognition.run/?sona_id=57488,"en-US,en;q=0.9",tbts1ytf10a0pol,19,"[""Other""]",No,Male,NA,No,175531,NA,null,<p></p>,null,choice,ct,binary,repulsion,2,washing machines,null,null,null,null,null,null,2,NA,NA,NA,NA,NA,NA,NA,NA,NA,NA
NA,NA,NA,NA,NA,choice_trial,survey-html-form,91,130206,0.0-4.0-1.43,57,1,2025-04-28T18:55:17Z,b60275e29fe2361ab97ac0ac217840d7,"Mozilla/5.0 (Macintosh; Intel Mac OS X 10_15_7) AppleWebKit/605.1.15 (KHTML, like Gecko) Version/18.4 Safari/605.1.15",Macintosh,Safari,18.4,OS X,10_15_7,https://5puzkbbxv1.cognition.run/?sona_id=57488,"en-US,en;q=0.9",tbts1ytf10a0pol,19,"[""Other""]",No,Male,NA,No,175531,NA,1277,NA,"{""product_choice"":""A""}",choice,ct,binary,repulsion,2,washing machines,null,null,null,null,null,null,2,30,40,null,100,90,null,Average lifespan,Energy savings,NA,NA
NA,NA,NA,NA,NA,post_trials_message,html-button-response,92,131484,0.0-5.0,57,1,2025-04-28T18:55:17Z,b60275e29fe2361ab97ac0ac217840d7,"Mozilla/5.0 (Macintosh; Intel Mac OS X 10_15_7) AppleWebKit/605.1.15 (KHTML, like Gecko) Version/18.4 Safari/605.1.15",Macintosh,Safari,18.4,OS X,10_15_7,https://5puzkbbxv1.cognition.run/?sona_id=57488,"en-US,en;q=0.9",tbts1ytf10a0pol,19,"[""Other""]",No,Male,NA,No,175531,NA,1264,<p> <b>Thank you for your patience!</b></p><p>  The study will be done after completing a brief form. </p>,0,NA,NA,NA,NA,NA,NA,NA,NA,NA,NA,NA,NA,NA,NA,NA,NA,NA,NA,NA,NA,NA,NA,NA
NA,NA,NA,NA,NA,survey_message,survey-text,93,146868,0.0-6.0,57,1,2025-04-28T18:55:17Z,b60275e29fe2361ab97ac0ac217840d7,"Mozilla/5.0 (Macintosh; Intel Mac OS X 10_15_7) AppleWebKit/605.1.15 (KHTML, like Gecko) Version/18.4 Safari/605.1.15",Macintosh,Safari,18.4,OS X,10_15_7,https://5puzkbbxv1.cognition.run/?sona_id=57488,"en-US,en;q=0.9",tbts1ytf10a0pol,19,"[""Other""]",No,Male,NA,No,175531,NA,15356,NA,"{""Q0"":""I used visual cues to guide my response""}",NA,NA,NA,NA,NA,NA,NA,NA,NA,NA,NA,NA,NA,NA,NA,NA,NA,NA,NA,NA,NA,I used visual cues to guide my response,NA
NA,NA,NA,NA,NA,demo_age,survey-text,94,152344,0.0-7.0,57,1,2025-04-28T18:55:17Z,b60275e29fe2361ab97ac0ac217840d7,"Mozilla/5.0 (Macintosh; Intel Mac OS X 10_15_7) AppleWebKit/605.1.15 (KHTML, like Gecko) Version/18.4 Safari/605.1.15",Macintosh,Safari,18.4,OS X,10_15_7,https://5puzkbbxv1.cognition.run/?sona_id=57488,"en-US,en;q=0.9",tbts1ytf10a0pol,19,"[""Other""]",No,Male,NA,No,175531,NA,5465,NA,"{""Q0"":""19""}",NA,NA,NA,NA,NA,NA,NA,NA,NA,NA,NA,NA,NA,NA,NA,NA,NA,NA,NA,NA,NA,NA,NA
NA,NA,NA,NA,NA,demo_race,survey-multi-select,95,154421,0.0-8.0,57,1,2025-04-28T18:55:17Z,b60275e29fe2361ab97ac0ac217840d7,"Mozilla/5.0 (Macintosh; Intel Mac OS X 10_15_7) AppleWebKit/605.1.15 (KHTML, like Gecko) Version/18.4 Safari/605.1.15",Macintosh,Safari,18.4,OS X,10_15_7,https://5puzkbbxv1.cognition.run/?sona_id=57488,"en-US,en;q=0.9",tbts1ytf10a0pol,19,"[""Other""]",No,Male,NA,No,175531,NA,2071,NA,"{""Q0"":[""Other""]}",NA,NA,NA,NA,NA,NA,NA,NA,NA,NA,NA,NA,NA,NA,NA,NA,NA,NA,NA,NA,NA,NA,[0]
NA,NA,NA,NA,NA,demo_ethnicity_gender,survey-multi-choice,96,158400,0.0-9.0,57,1,2025-04-28T18:55:17Z,b60275e29fe2361ab97ac0ac217840d7,"Mozilla/5.0 (Macintosh; Intel Mac OS X 10_15_7) AppleWebKit/605.1.15 (KHTML, like Gecko) Version/18.4 Safari/605.1.15",Macintosh,Safari,18.4,OS X,10_15_7,https://5puzkbbxv1.cognition.run/?sona_id=57488,"en-US,en;q=0.9",tbts1ytf10a0pol,19,"[""Other""]",No,Male,NA,No,175531,NA,3972,NA,"{""Q0"":""No"",""Q1"":""Male""}",NA,NA,NA,NA,NA,NA,NA,NA,NA,NA,NA,NA,NA,NA,NA,NA,NA,NA,NA,NA,NA,NA,"[0,1]"
NA,NA,NA,NA,NA,demo_countries,survey-text,97,163474,0.0-10.0,57,1,2025-04-28T18:55:17Z,b60275e29fe2361ab97ac0ac217840d7,"Mozilla/5.0 (Macintosh; Intel Mac OS X 10_15_7) AppleWebKit/605.1.15 (KHTML, like Gecko) Version/18.4 Safari/605.1.15",Macintosh,Safari,18.4,OS X,10_15_7,https://5puzkbbxv1.cognition.run/?sona_id=57488,"en-US,en;q=0.9",tbts1ytf10a0pol,19,"[""Other""]",No,Male,NA,No,175531,NA,5069,NA,"{""Q0"":""NA""}",NA,NA,NA,NA,NA,NA,NA,NA,NA,NA,NA,NA,NA,NA,NA,NA,NA,NA,NA,NA,NA,NA,NA
NA,NA,NA,NA,NA,demo_prev_study,survey-multi-choice,98,167544,0.0-11.0,57,1,2025-04-28T18:55:17Z,b60275e29fe2361ab97ac0ac217840d7,"Mozilla/5.0 (Macintosh; Intel Mac OS X 10_15_7) AppleWebKit/605.1.15 (KHTML, like Gecko) Version/18.4 Safari/605.1.15",Macintosh,Safari,18.4,OS X,10_15_7,https://5puzkbbxv1.cognition.run/?sona_id=57488,"en-US,en;q=0.9",tbts1ytf10a0pol,19,"[""Other""]",No,Male,NA,No,175531,NA,4064,NA,"{""Q0"":""No""}",NA,NA,NA,NA,NA,NA,NA,NA,NA,NA,NA,NA,NA,NA,NA,NA,NA,NA,NA,NA,NA,NA,[0]
NA,NA,NA,NA,NA,post_survey_message,html-keyboard-response,99,173350,0.0-12.0,57,1,2025-04-28T18:55:17Z,b60275e29fe2361ab97ac0ac217840d7,"Mozilla/5.0 (Macintosh; Intel Mac OS X 10_15_7) AppleWebKit/605.1.15 (KHTML, like Gecko) Version/18.4 Safari/605.1.15",Macintosh,Safari,18.4,OS X,10_15_7,https://5puzkbbxv1.cognition.run/?sona_id=57488,"en-US,en;q=0.9",tbts1ytf10a0pol,19,"[""Other""]",No,Male,NA,No,175531,NA,5800,NA,j,NA,NA,NA,NA,NA,NA,NA,NA,NA,NA,NA,NA,NA,NA,NA,NA,NA,NA,NA,NA,NA,NA,NA
NA,NA,NA,NA,NA,debrief,image-keyboard-response,100,175556,0.0-13.0,57,1,2025-04-28T18:55:17Z,b60275e29fe2361ab97ac0ac217840d7,"Mozilla/5.0 (Macintosh; Intel Mac OS X 10_15_7) AppleWebKit/605.1.15 (KHTML, like Gecko) Version/18.4 Safari/605.1.15",Macintosh,Safari,18.4,OS X,10_15_7,https://5puzkbbxv1.cognition.run/?sona_id=57488,"en-US,en;q=0.9",tbts1ytf10a0pol,19,"[""Other""]",No,Male,NA,No,175531,NA,2161,Judg_choice_debrief.png,p,NA,NA,NA,NA,NA,NA,NA,NA,NA,NA,NA,NA,NA,NA,NA,NA,NA,NA,NA,NA,NA,NA,NA
