success,timeout,failed_images,failed_audio,failed_video,screen_id,trial_type,trial_index,time_elapsed,internal_node_id,run_id,condition,recorded_at,source_code_version,user_agent,device,browser,browser_version,platform,platform_version,referer,accept_language,ppt_id,age,race,ethnicity,gender,other_countries,prev_study,exp_duration,view_history,rt,stimulus,response,phase,order,set,effect,t_high,category,d1_best,d2_best,d1_worst1,d2_worst1,d1_worst2,d2_worst2,first_dim,d1_t,d1_c,d1_d,d2_t,d2_c,d2_d,d1_name,d2_name,strategy_response,question_order
TRUE,FALSE,[],[],[],img preload,preload,0,270,0.0-0.0,59,1,2025-04-28T19:06:20Z,b60275e29fe2361ab97ac0ac217840d7,"Mozilla/5.0 (Macintosh; Intel Mac OS X 10_15_7) AppleWebKit/605.1.15 (KHTML, like Gecko) Version/18.3.1 Safari/605.1.15",Macintosh,Safari,18.3.1,OS X,10_15_7,https://5puzkbbxv1.cognition.run/?sona_id=49332,"en-US,en;q=0.9",1n5wcezk7uhx9ev,21,"[""White""]",No,Female,"na
",No,307879,NA,NA,NA,NA,NA,NA,NA,NA,NA,NA,NA,NA,NA,NA,NA,NA,NA,NA,NA,NA,NA,NA,NA,NA,NA,NA,NA
NA,NA,NA,NA,NA,computer_message,instructions,1,2622,0.0-1.0,59,1,2025-04-28T19:06:20Z,b60275e29fe2361ab97ac0ac217840d7,"Mozilla/5.0 (Macintosh; Intel Mac OS X 10_15_7) AppleWebKit/605.1.15 (KHTML, like Gecko) Version/18.3.1 Safari/605.1.15",Macintosh,Safari,18.3.1,OS X,10_15_7,https://5puzkbbxv1.cognition.run/?sona_id=49332,"en-US,en;q=0.9",1n5wcezk7uhx9ev,21,"[""White""]",No,Female,"na
",No,307879,"[{""page_index"":0,""viewing_time"":2350}]",2350,NA,NA,NA,NA,NA,NA,NA,NA,NA,NA,NA,NA,NA,NA,NA,NA,NA,NA,NA,NA,NA,NA,NA,NA,NA
TRUE,NA,NA,NA,NA,NA,fullscreen,2,4783,0.0-2.0,59,1,2025-04-28T19:06:20Z,b60275e29fe2361ab97ac0ac217840d7,"Mozilla/5.0 (Macintosh; Intel Mac OS X 10_15_7) AppleWebKit/605.1.15 (KHTML, like Gecko) Version/18.3.1 Safari/605.1.15",Macintosh,Safari,18.3.1,OS X,10_15_7,https://5puzkbbxv1.cognition.run/?sona_id=49332,"en-US,en;q=0.9",1n5wcezk7uhx9ev,21,"[""White""]",No,Female,"na
",No,307879,NA,1155,NA,NA,NA,NA,NA,NA,NA,NA,NA,NA,NA,NA,NA,NA,NA,NA,NA,NA,NA,NA,NA,NA,NA,NA,NA
NA,NA,NA,NA,NA,choice_instructions,instructions,3,30994,0.0-3.0,59,1,2025-04-28T19:06:20Z,b60275e29fe2361ab97ac0ac217840d7,"Mozilla/5.0 (Macintosh; Intel Mac OS X 10_15_7) AppleWebKit/605.1.15 (KHTML, like Gecko) Version/18.3.1 Safari/605.1.15",Macintosh,Safari,18.3.1,OS X,10_15_7,https://5puzkbbxv1.cognition.run/?sona_id=49332,"en-US,en;q=0.9",1n5wcezk7uhx9ev,21,"[""White""]",No,Female,"na
",No,307879,"[{""page_index"":0,""viewing_time"":1095},{""page_index"":1,""viewing_time"":3609},{""page_index"":2,""viewing_time"":1894},{""page_index"":3,""viewing_time"":2859},{""page_index"":4,""viewing_time"":2356},{""page_index"":5,""viewing_time"":9178},{""page_index"":6,""viewing_time"":5219}]",26210,NA,NA,NA,NA,NA,NA,NA,NA,NA,NA,NA,NA,NA,NA,NA,NA,NA,NA,NA,NA,NA,NA,NA,NA,NA
NA,NA,NA,NA,NA,choice_trial_setup,html-keyboard-response,4,31298,0.0-4.0-0.0,59,1,2025-04-28T19:06:20Z,b60275e29fe2361ab97ac0ac217840d7,"Mozilla/5.0 (Macintosh; Intel Mac OS X 10_15_7) AppleWebKit/605.1.15 (KHTML, like Gecko) Version/18.3.1 Safari/605.1.15",Macintosh,Safari,18.3.1,OS X,10_15_7,https://5puzkbbxv1.cognition.run/?sona_id=49332,"en-US,en;q=0.9",1n5wcezk7uhx9ev,21,"[""White""]",No,Female,"na
",No,307879,NA,null,<p></p>,null,choice,wbw,trinary,catch,null,microwave ovens,95,85,40,15,10,20,2,NA,NA,NA,NA,NA,NA,NA,NA,NA,NA
NA,NA,NA,NA,NA,choice_trial,survey-html-form,5,41598,0.0-4.0-1.0,59,1,2025-04-28T19:06:20Z,b60275e29fe2361ab97ac0ac217840d7,"Mozilla/5.0 (Macintosh; Intel Mac OS X 10_15_7) AppleWebKit/605.1.15 (KHTML, like Gecko) Version/18.3.1 Safari/605.1.15",Macintosh,Safari,18.3.1,OS X,10_15_7,https://5puzkbbxv1.cognition.run/?sona_id=49332,"en-US,en;q=0.9",1n5wcezk7uhx9ev,21,"[""White""]",No,Female,"na
",No,307879,NA,10294,NA,"{""product_choice"":""B""}",choice,wbw,trinary,catch,null,microwave ovens,95,85,40,15,10,20,2,null,null,null,null,null,null,Warranty,Cooking power,NA,NA
NA,NA,NA,NA,NA,choice_trial_setup,html-keyboard-response,6,41899,0.0-4.0-0.1,59,1,2025-04-28T19:06:20Z,b60275e29fe2361ab97ac0ac217840d7,"Mozilla/5.0 (Macintosh; Intel Mac OS X 10_15_7) AppleWebKit/605.1.15 (KHTML, like Gecko) Version/18.3.1 Safari/605.1.15",Macintosh,Safari,18.3.1,OS X,10_15_7,https://5puzkbbxv1.cognition.run/?sona_id=49332,"en-US,en;q=0.9",1n5wcezk7uhx9ev,21,"[""White""]",No,Female,"na
",No,307879,NA,null,<p></p>,null,choice,tcd,trinary,repulsion_A,1,televisions,null,null,null,null,null,null,2,NA,NA,NA,NA,NA,NA,NA,NA,NA,NA
NA,NA,NA,NA,NA,choice_trial,survey-html-form,7,48749,0.0-4.0-1.1,59,1,2025-04-28T19:06:20Z,b60275e29fe2361ab97ac0ac217840d7,"Mozilla/5.0 (Macintosh; Intel Mac OS X 10_15_7) AppleWebKit/605.1.15 (KHTML, like Gecko) Version/18.3.1 Safari/605.1.15",Macintosh,Safari,18.3.1,OS X,10_15_7,https://5puzkbbxv1.cognition.run/?sona_id=49332,"en-US,en;q=0.9",1n5wcezk7uhx9ev,21,"[""White""]",No,Female,"na
",No,307879,NA,6847,NA,"{""product_choice"":""A""}",choice,tcd,trinary,repulsion_A,1,televisions,null,null,null,null,null,null,2,100,90,100,30,40,20,Screen size,Average lifespan,NA,NA
NA,NA,NA,NA,NA,choice_trial_setup,html-keyboard-response,8,49052,0.0-4.0-0.2,59,1,2025-04-28T19:06:20Z,b60275e29fe2361ab97ac0ac217840d7,"Mozilla/5.0 (Macintosh; Intel Mac OS X 10_15_7) AppleWebKit/605.1.15 (KHTML, like Gecko) Version/18.3.1 Safari/605.1.15",Macintosh,Safari,18.3.1,OS X,10_15_7,https://5puzkbbxv1.cognition.run/?sona_id=49332,"en-US,en;q=0.9",1n5wcezk7uhx9ev,21,"[""White""]",No,Female,"na
",No,307879,NA,null,<p></p>,null,choice,wbw,trinary,catch,null,washing machines,60,75,5,30,15,30,2,NA,NA,NA,NA,NA,NA,NA,NA,NA,NA
NA,NA,NA,NA,NA,choice_trial,survey-html-form,9,55394,0.0-4.0-1.2,59,1,2025-04-28T19:06:20Z,b60275e29fe2361ab97ac0ac217840d7,"Mozilla/5.0 (Macintosh; Intel Mac OS X 10_15_7) AppleWebKit/605.1.15 (KHTML, like Gecko) Version/18.3.1 Safari/605.1.15",Macintosh,Safari,18.3.1,OS X,10_15_7,https://5puzkbbxv1.cognition.run/?sona_id=49332,"en-US,en;q=0.9",1n5wcezk7uhx9ev,21,"[""White""]",No,Female,"na
",No,307879,NA,6339,NA,"{""product_choice"":""B""}",choice,wbw,trinary,catch,null,washing machines,60,75,5,30,15,30,2,null,null,null,null,null,null,Average lifespan,Energy savings,NA,NA
NA,NA,NA,NA,NA,choice_trial_setup,html-keyboard-response,10,55695,0.0-4.0-0.3,59,1,2025-04-28T19:06:20Z,b60275e29fe2361ab97ac0ac217840d7,"Mozilla/5.0 (Macintosh; Intel Mac OS X 10_15_7) AppleWebKit/605.1.15 (KHTML, like Gecko) Version/18.3.1 Safari/605.1.15",Macintosh,Safari,18.3.1,OS X,10_15_7,https://5puzkbbxv1.cognition.run/?sona_id=49332,"en-US,en;q=0.9",1n5wcezk7uhx9ev,21,"[""White""]",No,Female,"na
",No,307879,NA,null,<p></p>,null,choice,dct,trinary,attraction,2,washing machines,null,null,null,null,null,null,1,NA,NA,NA,NA,NA,NA,NA,NA,NA,NA
NA,NA,NA,NA,NA,choice_trial,survey-html-form,11,60578,0.0-4.0-1.3,59,1,2025-04-28T19:06:20Z,b60275e29fe2361ab97ac0ac217840d7,"Mozilla/5.0 (Macintosh; Intel Mac OS X 10_15_7) AppleWebKit/605.1.15 (KHTML, like Gecko) Version/18.3.1 Safari/605.1.15",Macintosh,Safari,18.3.1,OS X,10_15_7,https://5puzkbbxv1.cognition.run/?sona_id=49332,"en-US,en;q=0.9",1n5wcezk7uhx9ev,21,"[""White""]",No,Female,"na
",No,307879,NA,4880,NA,"{""product_choice"":""B""}",choice,dct,trinary,attraction,2,washing machines,null,null,null,null,null,null,1,50,60,40,60,50,60,Average lifespan,Energy savings,NA,NA
NA,NA,NA,NA,NA,choice_trial_setup,html-keyboard-response,12,60881,0.0-4.0-0.4,59,1,2025-04-28T19:06:20Z,b60275e29fe2361ab97ac0ac217840d7,"Mozilla/5.0 (Macintosh; Intel Mac OS X 10_15_7) AppleWebKit/605.1.15 (KHTML, like Gecko) Version/18.3.1 Safari/605.1.15",Macintosh,Safari,18.3.1,OS X,10_15_7,https://5puzkbbxv1.cognition.run/?sona_id=49332,"en-US,en;q=0.9",1n5wcezk7uhx9ev,21,"[""White""]",No,Female,"na
",No,307879,NA,null,<p></p>,null,choice,tcd,trinary,repulsion_B,2,televisions,null,null,null,null,null,null,1,NA,NA,NA,NA,NA,NA,NA,NA,NA,NA
NA,NA,NA,NA,NA,choice_trial,survey-html-form,13,68575,0.0-4.0-1.4,59,1,2025-04-28T19:06:20Z,b60275e29fe2361ab97ac0ac217840d7,"Mozilla/5.0 (Macintosh; Intel Mac OS X 10_15_7) AppleWebKit/605.1.15 (KHTML, like Gecko) Version/18.3.1 Safari/605.1.15",Macintosh,Safari,18.3.1,OS X,10_15_7,https://5puzkbbxv1.cognition.run/?sona_id=49332,"en-US,en;q=0.9",1n5wcezk7uhx9ev,21,"[""White""]",No,Female,"na
",No,307879,NA,7690,NA,"{""product_choice"":""A""}",choice,tcd,trinary,repulsion_B,2,televisions,null,null,null,null,null,null,1,40,30,40,90,100,80,Screen size,Average lifespan,NA,NA
NA,NA,NA,NA,NA,choice_trial_setup,html-keyboard-response,14,68877,0.0-4.0-0.5,59,1,2025-04-28T19:06:20Z,b60275e29fe2361ab97ac0ac217840d7,"Mozilla/5.0 (Macintosh; Intel Mac OS X 10_15_7) AppleWebKit/605.1.15 (KHTML, like Gecko) Version/18.3.1 Safari/605.1.15",Macintosh,Safari,18.3.1,OS X,10_15_7,https://5puzkbbxv1.cognition.run/?sona_id=49332,"en-US,en;q=0.9",1n5wcezk7uhx9ev,21,"[""White""]",No,Female,"na
",No,307879,NA,null,<p></p>,null,choice,ct,binary,attraction,NA,televisions,null,null,null,null,null,null,2,NA,NA,NA,NA,NA,NA,NA,NA,NA,NA
NA,NA,NA,NA,NA,choice_trial,survey-html-form,15,80203,0.0-4.0-1.5,59,1,2025-04-28T19:06:20Z,b60275e29fe2361ab97ac0ac217840d7,"Mozilla/5.0 (Macintosh; Intel Mac OS X 10_15_7) AppleWebKit/605.1.15 (KHTML, like Gecko) Version/18.3.1 Safari/605.1.15",Macintosh,Safari,18.3.1,OS X,10_15_7,https://5puzkbbxv1.cognition.run/?sona_id=49332,"en-US,en;q=0.9",1n5wcezk7uhx9ev,21,"[""White""]",No,Female,"na
",No,307879,NA,11323,NA,"{""product_choice"":""B""}",choice,ct,binary,attraction,NA,televisions,null,null,null,null,null,null,2,60,50,null,50,60,null,Screen size,Average lifespan,NA,NA
NA,NA,NA,NA,NA,choice_trial_setup,html-keyboard-response,16,80506,0.0-4.0-0.6,59,1,2025-04-28T19:06:20Z,b60275e29fe2361ab97ac0ac217840d7,"Mozilla/5.0 (Macintosh; Intel Mac OS X 10_15_7) AppleWebKit/605.1.15 (KHTML, like Gecko) Version/18.3.1 Safari/605.1.15",Macintosh,Safari,18.3.1,OS X,10_15_7,https://5puzkbbxv1.cognition.run/?sona_id=49332,"en-US,en;q=0.9",1n5wcezk7uhx9ev,21,"[""White""]",No,Female,"na
",No,307879,NA,null,<p></p>,null,choice,ct,binary,repulsion,1,laptops,null,null,null,null,null,null,1,NA,NA,NA,NA,NA,NA,NA,NA,NA,NA
NA,NA,NA,NA,NA,choice_trial,survey-html-form,17,85735,0.0-4.0-1.6,59,1,2025-04-28T19:06:20Z,b60275e29fe2361ab97ac0ac217840d7,"Mozilla/5.0 (Macintosh; Intel Mac OS X 10_15_7) AppleWebKit/605.1.15 (KHTML, like Gecko) Version/18.3.1 Safari/605.1.15",Macintosh,Safari,18.3.1,OS X,10_15_7,https://5puzkbbxv1.cognition.run/?sona_id=49332,"en-US,en;q=0.9",1n5wcezk7uhx9ev,21,"[""White""]",No,Female,"na
",No,307879,NA,5226,NA,"{""product_choice"":""B""}",choice,ct,binary,repulsion,1,laptops,null,null,null,null,null,null,1,100,90,null,30,40,null,Processing speed,Memory (RAM),NA,NA
NA,NA,NA,NA,NA,choice_trial_setup,html-keyboard-response,18,86037,0.0-4.0-0.7,59,1,2025-04-28T19:06:20Z,b60275e29fe2361ab97ac0ac217840d7,"Mozilla/5.0 (Macintosh; Intel Mac OS X 10_15_7) AppleWebKit/605.1.15 (KHTML, like Gecko) Version/18.3.1 Safari/605.1.15",Macintosh,Safari,18.3.1,OS X,10_15_7,https://5puzkbbxv1.cognition.run/?sona_id=49332,"en-US,en;q=0.9",1n5wcezk7uhx9ev,21,"[""White""]",No,Female,"na
",No,307879,NA,null,<p></p>,null,choice,tc,binary,attraction,NA,microwave ovens,null,null,null,null,null,null,1,NA,NA,NA,NA,NA,NA,NA,NA,NA,NA
NA,NA,NA,NA,NA,choice_trial,survey-html-form,19,89855,0.0-4.0-1.7,59,1,2025-04-28T19:06:20Z,b60275e29fe2361ab97ac0ac217840d7,"Mozilla/5.0 (Macintosh; Intel Mac OS X 10_15_7) AppleWebKit/605.1.15 (KHTML, like Gecko) Version/18.3.1 Safari/605.1.15",Macintosh,Safari,18.3.1,OS X,10_15_7,https://5puzkbbxv1.cognition.run/?sona_id=49332,"en-US,en;q=0.9",1n5wcezk7uhx9ev,21,"[""White""]",No,Female,"na
",No,307879,NA,3815,NA,"{""product_choice"":""A""}",choice,tc,binary,attraction,NA,microwave ovens,null,null,null,null,null,null,1,60,50,null,50,60,null,Warranty,Cooking power,NA,NA
NA,NA,NA,NA,NA,choice_trial_setup,html-keyboard-response,20,90157,0.0-4.0-0.8,59,1,2025-04-28T19:06:20Z,b60275e29fe2361ab97ac0ac217840d7,"Mozilla/5.0 (Macintosh; Intel Mac OS X 10_15_7) AppleWebKit/605.1.15 (KHTML, like Gecko) Version/18.3.1 Safari/605.1.15",Macintosh,Safari,18.3.1,OS X,10_15_7,https://5puzkbbxv1.cognition.run/?sona_id=49332,"en-US,en;q=0.9",1n5wcezk7uhx9ev,21,"[""White""]",No,Female,"na
",No,307879,NA,null,<p></p>,null,choice,tc,binary,attraction,NA,laptops,null,null,null,null,null,null,1,NA,NA,NA,NA,NA,NA,NA,NA,NA,NA
NA,NA,NA,NA,NA,choice_trial,survey-html-form,21,95134,0.0-4.0-1.8,59,1,2025-04-28T19:06:20Z,b60275e29fe2361ab97ac0ac217840d7,"Mozilla/5.0 (Macintosh; Intel Mac OS X 10_15_7) AppleWebKit/605.1.15 (KHTML, like Gecko) Version/18.3.1 Safari/605.1.15",Macintosh,Safari,18.3.1,OS X,10_15_7,https://5puzkbbxv1.cognition.run/?sona_id=49332,"en-US,en;q=0.9",1n5wcezk7uhx9ev,21,"[""White""]",No,Female,"na
",No,307879,NA,4973,NA,"{""product_choice"":""A""}",choice,tc,binary,attraction,NA,laptops,null,null,null,null,null,null,1,60,50,null,50,60,null,Processing speed,Memory (RAM),NA,NA
NA,NA,NA,NA,NA,choice_trial_setup,html-keyboard-response,22,95436,0.0-4.0-0.9,59,1,2025-04-28T19:06:20Z,b60275e29fe2361ab97ac0ac217840d7,"Mozilla/5.0 (Macintosh; Intel Mac OS X 10_15_7) AppleWebKit/605.1.15 (KHTML, like Gecko) Version/18.3.1 Safari/605.1.15",Macintosh,Safari,18.3.1,OS X,10_15_7,https://5puzkbbxv1.cognition.run/?sona_id=49332,"en-US,en;q=0.9",1n5wcezk7uhx9ev,21,"[""White""]",No,Female,"na
",No,307879,NA,null,<p></p>,null,choice,dtc,trinary,repulsion_B,2,laptops,null,null,null,null,null,null,1,NA,NA,NA,NA,NA,NA,NA,NA,NA,NA
NA,NA,NA,NA,NA,choice_trial,survey-html-form,23,100044,0.0-4.0-1.9,59,1,2025-04-28T19:06:20Z,b60275e29fe2361ab97ac0ac217840d7,"Mozilla/5.0 (Macintosh; Intel Mac OS X 10_15_7) AppleWebKit/605.1.15 (KHTML, like Gecko) Version/18.3.1 Safari/605.1.15",Macintosh,Safari,18.3.1,OS X,10_15_7,https://5puzkbbxv1.cognition.run/?sona_id=49332,"en-US,en;q=0.9",1n5wcezk7uhx9ev,21,"[""White""]",No,Female,"na
",No,307879,NA,4605,NA,"{""product_choice"":""B""}",choice,dtc,trinary,repulsion_B,2,laptops,null,null,null,null,null,null,1,40,30,40,90,100,80,Processing speed,Memory (RAM),NA,NA
NA,NA,NA,NA,NA,choice_trial_setup,html-keyboard-response,24,100347,0.0-4.0-0.10,59,1,2025-04-28T19:06:20Z,b60275e29fe2361ab97ac0ac217840d7,"Mozilla/5.0 (Macintosh; Intel Mac OS X 10_15_7) AppleWebKit/605.1.15 (KHTML, like Gecko) Version/18.3.1 Safari/605.1.15",Macintosh,Safari,18.3.1,OS X,10_15_7,https://5puzkbbxv1.cognition.run/?sona_id=49332,"en-US,en;q=0.9",1n5wcezk7uhx9ev,21,"[""White""]",No,Female,"na
",No,307879,NA,null,<p></p>,null,choice,ct,binary,repulsion,2,televisions,null,null,null,null,null,null,2,NA,NA,NA,NA,NA,NA,NA,NA,NA,NA
NA,NA,NA,NA,NA,choice_trial,survey-html-form,25,105976,0.0-4.0-1.10,59,1,2025-04-28T19:06:20Z,b60275e29fe2361ab97ac0ac217840d7,"Mozilla/5.0 (Macintosh; Intel Mac OS X 10_15_7) AppleWebKit/605.1.15 (KHTML, like Gecko) Version/18.3.1 Safari/605.1.15",Macintosh,Safari,18.3.1,OS X,10_15_7,https://5puzkbbxv1.cognition.run/?sona_id=49332,"en-US,en;q=0.9",1n5wcezk7uhx9ev,21,"[""White""]",No,Female,"na
",No,307879,NA,5625,NA,"{""product_choice"":""A""}",choice,ct,binary,repulsion,2,televisions,null,null,null,null,null,null,2,30,40,null,100,90,null,Screen size,Average lifespan,NA,NA
NA,NA,NA,NA,NA,choice_trial_setup,html-keyboard-response,26,106278,0.0-4.0-0.11,59,1,2025-04-28T19:06:20Z,b60275e29fe2361ab97ac0ac217840d7,"Mozilla/5.0 (Macintosh; Intel Mac OS X 10_15_7) AppleWebKit/605.1.15 (KHTML, like Gecko) Version/18.3.1 Safari/605.1.15",Macintosh,Safari,18.3.1,OS X,10_15_7,https://5puzkbbxv1.cognition.run/?sona_id=49332,"en-US,en;q=0.9",1n5wcezk7uhx9ev,21,"[""White""]",No,Female,"na
",No,307879,NA,null,<p></p>,null,choice,tcd,trinary,repulsion_B,2,microwave ovens,null,null,null,null,null,null,1,NA,NA,NA,NA,NA,NA,NA,NA,NA,NA
NA,NA,NA,NA,NA,choice_trial,survey-html-form,27,110941,0.0-4.0-1.11,59,1,2025-04-28T19:06:20Z,b60275e29fe2361ab97ac0ac217840d7,"Mozilla/5.0 (Macintosh; Intel Mac OS X 10_15_7) AppleWebKit/605.1.15 (KHTML, like Gecko) Version/18.3.1 Safari/605.1.15",Macintosh,Safari,18.3.1,OS X,10_15_7,https://5puzkbbxv1.cognition.run/?sona_id=49332,"en-US,en;q=0.9",1n5wcezk7uhx9ev,21,"[""White""]",No,Female,"na
",No,307879,NA,4659,NA,"{""product_choice"":""A""}",choice,tcd,trinary,repulsion_B,2,microwave ovens,null,null,null,null,null,null,1,40,30,40,90,100,80,Warranty,Cooking power,NA,NA
NA,NA,NA,NA,NA,choice_trial_setup,html-keyboard-response,28,111243,0.0-4.0-0.12,59,1,2025-04-28T19:06:20Z,b60275e29fe2361ab97ac0ac217840d7,"Mozilla/5.0 (Macintosh; Intel Mac OS X 10_15_7) AppleWebKit/605.1.15 (KHTML, like Gecko) Version/18.3.1 Safari/605.1.15",Macintosh,Safari,18.3.1,OS X,10_15_7,https://5puzkbbxv1.cognition.run/?sona_id=49332,"en-US,en;q=0.9",1n5wcezk7uhx9ev,21,"[""White""]",No,Female,"na
",No,307879,NA,null,<p></p>,null,choice,cdt,trinary,repulsion_A,2,washing machines,null,null,null,null,null,null,2,NA,NA,NA,NA,NA,NA,NA,NA,NA,NA
NA,NA,NA,NA,NA,choice_trial,survey-html-form,29,114350,0.0-4.0-1.12,59,1,2025-04-28T19:06:20Z,b60275e29fe2361ab97ac0ac217840d7,"Mozilla/5.0 (Macintosh; Intel Mac OS X 10_15_7) AppleWebKit/605.1.15 (KHTML, like Gecko) Version/18.3.1 Safari/605.1.15",Macintosh,Safari,18.3.1,OS X,10_15_7,https://5puzkbbxv1.cognition.run/?sona_id=49332,"en-US,en;q=0.9",1n5wcezk7uhx9ev,21,"[""White""]",No,Female,"na
",No,307879,NA,3103,NA,"{""product_choice"":""C""}",choice,cdt,trinary,repulsion_A,2,washing machines,null,null,null,null,null,null,2,30,40,20,100,90,100,Average lifespan,Energy savings,NA,NA
NA,NA,NA,NA,NA,choice_trial_setup,html-keyboard-response,30,114652,0.0-4.0-0.13,59,1,2025-04-28T19:06:20Z,b60275e29fe2361ab97ac0ac217840d7,"Mozilla/5.0 (Macintosh; Intel Mac OS X 10_15_7) AppleWebKit/605.1.15 (KHTML, like Gecko) Version/18.3.1 Safari/605.1.15",Macintosh,Safari,18.3.1,OS X,10_15_7,https://5puzkbbxv1.cognition.run/?sona_id=49332,"en-US,en;q=0.9",1n5wcezk7uhx9ev,21,"[""White""]",No,Female,"na
",No,307879,NA,null,<p></p>,null,choice,tcd,trinary,attraction,1,laptops,null,null,null,null,null,null,2,NA,NA,NA,NA,NA,NA,NA,NA,NA,NA
NA,NA,NA,NA,NA,choice_trial,survey-html-form,31,120858,0.0-4.0-1.13,59,1,2025-04-28T19:06:20Z,b60275e29fe2361ab97ac0ac217840d7,"Mozilla/5.0 (Macintosh; Intel Mac OS X 10_15_7) AppleWebKit/605.1.15 (KHTML, like Gecko) Version/18.3.1 Safari/605.1.15",Macintosh,Safari,18.3.1,OS X,10_15_7,https://5puzkbbxv1.cognition.run/?sona_id=49332,"en-US,en;q=0.9",1n5wcezk7uhx9ev,21,"[""White""]",No,Female,"na
",No,307879,NA,6202,NA,"{""product_choice"":""A""}",choice,tcd,trinary,attraction,1,laptops,null,null,null,null,null,null,2,60,50,60,50,60,40,Processing speed,Memory (RAM),NA,NA
NA,NA,NA,NA,NA,choice_trial_setup,html-keyboard-response,32,121161,0.0-4.0-0.14,59,1,2025-04-28T19:06:20Z,b60275e29fe2361ab97ac0ac217840d7,"Mozilla/5.0 (Macintosh; Intel Mac OS X 10_15_7) AppleWebKit/605.1.15 (KHTML, like Gecko) Version/18.3.1 Safari/605.1.15",Macintosh,Safari,18.3.1,OS X,10_15_7,https://5puzkbbxv1.cognition.run/?sona_id=49332,"en-US,en;q=0.9",1n5wcezk7uhx9ev,21,"[""White""]",No,Female,"na
",No,307879,NA,null,<p></p>,null,choice,bww,trinary,catch,null,televisions,80,65,45,25,25,20,1,NA,NA,NA,NA,NA,NA,NA,NA,NA,NA
NA,NA,NA,NA,NA,choice_trial,survey-html-form,33,126913,0.0-4.0-1.14,59,1,2025-04-28T19:06:20Z,b60275e29fe2361ab97ac0ac217840d7,"Mozilla/5.0 (Macintosh; Intel Mac OS X 10_15_7) AppleWebKit/605.1.15 (KHTML, like Gecko) Version/18.3.1 Safari/605.1.15",Macintosh,Safari,18.3.1,OS X,10_15_7,https://5puzkbbxv1.cognition.run/?sona_id=49332,"en-US,en;q=0.9",1n5wcezk7uhx9ev,21,"[""White""]",No,Female,"na
",No,307879,NA,5748,NA,"{""product_choice"":""A""}",choice,bww,trinary,catch,null,televisions,80,65,45,25,25,20,1,null,null,null,null,null,null,Screen size,Average lifespan,NA,NA
NA,NA,NA,NA,NA,choice_trial_setup,html-keyboard-response,34,127216,0.0-4.0-0.15,59,1,2025-04-28T19:06:20Z,b60275e29fe2361ab97ac0ac217840d7,"Mozilla/5.0 (Macintosh; Intel Mac OS X 10_15_7) AppleWebKit/605.1.15 (KHTML, like Gecko) Version/18.3.1 Safari/605.1.15",Macintosh,Safari,18.3.1,OS X,10_15_7,https://5puzkbbxv1.cognition.run/?sona_id=49332,"en-US,en;q=0.9",1n5wcezk7uhx9ev,21,"[""White""]",No,Female,"na
",No,307879,NA,null,<p></p>,null,choice,dtc,trinary,repulsion_A,2,laptops,null,null,null,null,null,null,2,NA,NA,NA,NA,NA,NA,NA,NA,NA,NA
NA,NA,NA,NA,NA,choice_trial,survey-html-form,35,131506,0.0-4.0-1.15,59,1,2025-04-28T19:06:20Z,b60275e29fe2361ab97ac0ac217840d7,"Mozilla/5.0 (Macintosh; Intel Mac OS X 10_15_7) AppleWebKit/605.1.15 (KHTML, like Gecko) Version/18.3.1 Safari/605.1.15",Macintosh,Safari,18.3.1,OS X,10_15_7,https://5puzkbbxv1.cognition.run/?sona_id=49332,"en-US,en;q=0.9",1n5wcezk7uhx9ev,21,"[""White""]",No,Female,"na
",No,307879,NA,4287,NA,"{""product_choice"":""B""}",choice,dtc,trinary,repulsion_A,2,laptops,null,null,null,null,null,null,2,30,40,20,100,90,100,Processing speed,Memory (RAM),NA,NA
NA,NA,NA,NA,NA,choice_trial_setup,html-keyboard-response,36,131809,0.0-4.0-0.16,59,1,2025-04-28T19:06:20Z,b60275e29fe2361ab97ac0ac217840d7,"Mozilla/5.0 (Macintosh; Intel Mac OS X 10_15_7) AppleWebKit/605.1.15 (KHTML, like Gecko) Version/18.3.1 Safari/605.1.15",Macintosh,Safari,18.3.1,OS X,10_15_7,https://5puzkbbxv1.cognition.run/?sona_id=49332,"en-US,en;q=0.9",1n5wcezk7uhx9ev,21,"[""White""]",No,Female,"na
",No,307879,NA,null,<p></p>,null,choice,tdc,trinary,attraction,1,microwave ovens,null,null,null,null,null,null,2,NA,NA,NA,NA,NA,NA,NA,NA,NA,NA
NA,NA,NA,NA,NA,choice_trial,survey-html-form,37,134578,0.0-4.0-1.16,59,1,2025-04-28T19:06:20Z,b60275e29fe2361ab97ac0ac217840d7,"Mozilla/5.0 (Macintosh; Intel Mac OS X 10_15_7) AppleWebKit/605.1.15 (KHTML, like Gecko) Version/18.3.1 Safari/605.1.15",Macintosh,Safari,18.3.1,OS X,10_15_7,https://5puzkbbxv1.cognition.run/?sona_id=49332,"en-US,en;q=0.9",1n5wcezk7uhx9ev,21,"[""White""]",No,Female,"na
",No,307879,NA,2765,NA,"{""product_choice"":""C""}",choice,tdc,trinary,attraction,1,microwave ovens,null,null,null,null,null,null,2,60,50,60,50,60,40,Warranty,Cooking power,NA,NA
NA,NA,NA,NA,NA,choice_trial_setup,html-keyboard-response,38,134882,0.0-4.0-0.17,59,1,2025-04-28T19:06:20Z,b60275e29fe2361ab97ac0ac217840d7,"Mozilla/5.0 (Macintosh; Intel Mac OS X 10_15_7) AppleWebKit/605.1.15 (KHTML, like Gecko) Version/18.3.1 Safari/605.1.15",Macintosh,Safari,18.3.1,OS X,10_15_7,https://5puzkbbxv1.cognition.run/?sona_id=49332,"en-US,en;q=0.9",1n5wcezk7uhx9ev,21,"[""White""]",No,Female,"na
",No,307879,NA,null,<p></p>,null,choice,bw,binary,catch,null,washing machines,70,55,45,50,null,null,1,NA,NA,NA,NA,NA,NA,NA,NA,NA,NA
NA,NA,NA,NA,NA,choice_trial,survey-html-form,39,137228,0.0-4.0-1.17,59,1,2025-04-28T19:06:20Z,b60275e29fe2361ab97ac0ac217840d7,"Mozilla/5.0 (Macintosh; Intel Mac OS X 10_15_7) AppleWebKit/605.1.15 (KHTML, like Gecko) Version/18.3.1 Safari/605.1.15",Macintosh,Safari,18.3.1,OS X,10_15_7,https://5puzkbbxv1.cognition.run/?sona_id=49332,"en-US,en;q=0.9",1n5wcezk7uhx9ev,21,"[""White""]",No,Female,"na
",No,307879,NA,2342,NA,"{""product_choice"":""A""}",choice,bw,binary,catch,null,washing machines,70,55,45,50,null,null,1,null,null,null,null,null,null,Average lifespan,Energy savings,NA,NA
NA,NA,NA,NA,NA,choice_trial_setup,html-keyboard-response,40,137531,0.0-4.0-0.18,59,1,2025-04-28T19:06:20Z,b60275e29fe2361ab97ac0ac217840d7,"Mozilla/5.0 (Macintosh; Intel Mac OS X 10_15_7) AppleWebKit/605.1.15 (KHTML, like Gecko) Version/18.3.1 Safari/605.1.15",Macintosh,Safari,18.3.1,OS X,10_15_7,https://5puzkbbxv1.cognition.run/?sona_id=49332,"en-US,en;q=0.9",1n5wcezk7uhx9ev,21,"[""White""]",No,Female,"na
",No,307879,NA,null,<p></p>,null,choice,ct,binary,repulsion,2,laptops,null,null,null,null,null,null,1,NA,NA,NA,NA,NA,NA,NA,NA,NA,NA
NA,NA,NA,NA,NA,choice_trial,survey-html-form,41,143061,0.0-4.0-1.18,59,1,2025-04-28T19:06:20Z,b60275e29fe2361ab97ac0ac217840d7,"Mozilla/5.0 (Macintosh; Intel Mac OS X 10_15_7) AppleWebKit/605.1.15 (KHTML, like Gecko) Version/18.3.1 Safari/605.1.15",Macintosh,Safari,18.3.1,OS X,10_15_7,https://5puzkbbxv1.cognition.run/?sona_id=49332,"en-US,en;q=0.9",1n5wcezk7uhx9ev,21,"[""White""]",No,Female,"na
",No,307879,NA,5526,NA,"{""product_choice"":""A""}",choice,ct,binary,repulsion,2,laptops,null,null,null,null,null,null,1,30,40,null,100,90,null,Processing speed,Memory (RAM),NA,NA
NA,NA,NA,NA,NA,choice_trial_setup,html-keyboard-response,42,143365,0.0-4.0-0.19,59,1,2025-04-28T19:06:20Z,b60275e29fe2361ab97ac0ac217840d7,"Mozilla/5.0 (Macintosh; Intel Mac OS X 10_15_7) AppleWebKit/605.1.15 (KHTML, like Gecko) Version/18.3.1 Safari/605.1.15",Macintosh,Safari,18.3.1,OS X,10_15_7,https://5puzkbbxv1.cognition.run/?sona_id=49332,"en-US,en;q=0.9",1n5wcezk7uhx9ev,21,"[""White""]",No,Female,"na
",No,307879,NA,null,<p></p>,null,choice,tcd,trinary,repulsion_A,2,microwave ovens,null,null,null,null,null,null,1,NA,NA,NA,NA,NA,NA,NA,NA,NA,NA
NA,NA,NA,NA,NA,choice_trial,survey-html-form,43,153165,0.0-4.0-1.19,59,1,2025-04-28T19:06:20Z,b60275e29fe2361ab97ac0ac217840d7,"Mozilla/5.0 (Macintosh; Intel Mac OS X 10_15_7) AppleWebKit/605.1.15 (KHTML, like Gecko) Version/18.3.1 Safari/605.1.15",Macintosh,Safari,18.3.1,OS X,10_15_7,https://5puzkbbxv1.cognition.run/?sona_id=49332,"en-US,en;q=0.9",1n5wcezk7uhx9ev,21,"[""White""]",No,Female,"na
",No,307879,NA,9796,NA,"{""product_choice"":""A""}",choice,tcd,trinary,repulsion_A,2,microwave ovens,null,null,null,null,null,null,1,30,40,20,100,90,100,Warranty,Cooking power,NA,NA
NA,NA,NA,NA,NA,choice_trial_setup,html-keyboard-response,44,153469,0.0-4.0-0.20,59,1,2025-04-28T19:06:20Z,b60275e29fe2361ab97ac0ac217840d7,"Mozilla/5.0 (Macintosh; Intel Mac OS X 10_15_7) AppleWebKit/605.1.15 (KHTML, like Gecko) Version/18.3.1 Safari/605.1.15",Macintosh,Safari,18.3.1,OS X,10_15_7,https://5puzkbbxv1.cognition.run/?sona_id=49332,"en-US,en;q=0.9",1n5wcezk7uhx9ev,21,"[""White""]",No,Female,"na
",No,307879,NA,null,<p></p>,null,choice,dct,trinary,repulsion_B,1,televisions,null,null,null,null,null,null,1,NA,NA,NA,NA,NA,NA,NA,NA,NA,NA
NA,NA,NA,NA,NA,choice_trial,survey-html-form,45,156280,0.0-4.0-1.20,59,1,2025-04-28T19:06:20Z,b60275e29fe2361ab97ac0ac217840d7,"Mozilla/5.0 (Macintosh; Intel Mac OS X 10_15_7) AppleWebKit/605.1.15 (KHTML, like Gecko) Version/18.3.1 Safari/605.1.15",Macintosh,Safari,18.3.1,OS X,10_15_7,https://5puzkbbxv1.cognition.run/?sona_id=49332,"en-US,en;q=0.9",1n5wcezk7uhx9ev,21,"[""White""]",No,Female,"na
",No,307879,NA,2806,NA,"{""product_choice"":""B""}",choice,dct,trinary,repulsion_B,1,televisions,null,null,null,null,null,null,1,90,100,80,40,30,40,Screen size,Average lifespan,NA,NA
NA,NA,NA,NA,NA,choice_trial_setup,html-keyboard-response,46,156583,0.0-4.0-0.21,59,1,2025-04-28T19:06:20Z,b60275e29fe2361ab97ac0ac217840d7,"Mozilla/5.0 (Macintosh; Intel Mac OS X 10_15_7) AppleWebKit/605.1.15 (KHTML, like Gecko) Version/18.3.1 Safari/605.1.15",Macintosh,Safari,18.3.1,OS X,10_15_7,https://5puzkbbxv1.cognition.run/?sona_id=49332,"en-US,en;q=0.9",1n5wcezk7uhx9ev,21,"[""White""]",No,Female,"na
",No,307879,NA,null,<p></p>,null,choice,ct,binary,repulsion,1,televisions,null,null,null,null,null,null,1,NA,NA,NA,NA,NA,NA,NA,NA,NA,NA
NA,NA,NA,NA,NA,choice_trial,survey-html-form,47,158828,0.0-4.0-1.21,59,1,2025-04-28T19:06:20Z,b60275e29fe2361ab97ac0ac217840d7,"Mozilla/5.0 (Macintosh; Intel Mac OS X 10_15_7) AppleWebKit/605.1.15 (KHTML, like Gecko) Version/18.3.1 Safari/605.1.15",Macintosh,Safari,18.3.1,OS X,10_15_7,https://5puzkbbxv1.cognition.run/?sona_id=49332,"en-US,en;q=0.9",1n5wcezk7uhx9ev,21,"[""White""]",No,Female,"na
",No,307879,NA,2240,NA,"{""product_choice"":""B""}",choice,ct,binary,repulsion,1,televisions,null,null,null,null,null,null,1,100,90,null,30,40,null,Screen size,Average lifespan,NA,NA
NA,NA,NA,NA,NA,choice_trial_setup,html-keyboard-response,48,159131,0.0-4.0-0.22,59,1,2025-04-28T19:06:20Z,b60275e29fe2361ab97ac0ac217840d7,"Mozilla/5.0 (Macintosh; Intel Mac OS X 10_15_7) AppleWebKit/605.1.15 (KHTML, like Gecko) Version/18.3.1 Safari/605.1.15",Macintosh,Safari,18.3.1,OS X,10_15_7,https://5puzkbbxv1.cognition.run/?sona_id=49332,"en-US,en;q=0.9",1n5wcezk7uhx9ev,21,"[""White""]",No,Female,"na
",No,307879,NA,null,<p></p>,null,choice,tcd,trinary,repulsion_A,1,microwave ovens,null,null,null,null,null,null,1,NA,NA,NA,NA,NA,NA,NA,NA,NA,NA
NA,NA,NA,NA,NA,choice_trial,survey-html-form,49,162361,0.0-4.0-1.22,59,1,2025-04-28T19:06:20Z,b60275e29fe2361ab97ac0ac217840d7,"Mozilla/5.0 (Macintosh; Intel Mac OS X 10_15_7) AppleWebKit/605.1.15 (KHTML, like Gecko) Version/18.3.1 Safari/605.1.15",Macintosh,Safari,18.3.1,OS X,10_15_7,https://5puzkbbxv1.cognition.run/?sona_id=49332,"en-US,en;q=0.9",1n5wcezk7uhx9ev,21,"[""White""]",No,Female,"na
",No,307879,NA,3225,NA,"{""product_choice"":""B""}",choice,tcd,trinary,repulsion_A,1,microwave ovens,null,null,null,null,null,null,1,100,90,100,30,40,20,Warranty,Cooking power,NA,NA
NA,NA,NA,NA,NA,choice_trial_setup,html-keyboard-response,50,162670,0.0-4.0-0.23,59,1,2025-04-28T19:06:20Z,b60275e29fe2361ab97ac0ac217840d7,"Mozilla/5.0 (Macintosh; Intel Mac OS X 10_15_7) AppleWebKit/605.1.15 (KHTML, like Gecko) Version/18.3.1 Safari/605.1.15",Macintosh,Safari,18.3.1,OS X,10_15_7,https://5puzkbbxv1.cognition.run/?sona_id=49332,"en-US,en;q=0.9",1n5wcezk7uhx9ev,21,"[""White""]",No,Female,"na
",No,307879,NA,null,<p></p>,null,choice,dtc,trinary,repulsion_A,1,laptops,null,null,null,null,null,null,1,NA,NA,NA,NA,NA,NA,NA,NA,NA,NA
NA,NA,NA,NA,NA,choice_trial,survey-html-form,51,167129,0.0-4.0-1.23,59,1,2025-04-28T19:06:20Z,b60275e29fe2361ab97ac0ac217840d7,"Mozilla/5.0 (Macintosh; Intel Mac OS X 10_15_7) AppleWebKit/605.1.15 (KHTML, like Gecko) Version/18.3.1 Safari/605.1.15",Macintosh,Safari,18.3.1,OS X,10_15_7,https://5puzkbbxv1.cognition.run/?sona_id=49332,"en-US,en;q=0.9",1n5wcezk7uhx9ev,21,"[""White""]",No,Female,"na
",No,307879,NA,4455,NA,"{""product_choice"":""B""}",choice,dtc,trinary,repulsion_A,1,laptops,null,null,null,null,null,null,1,100,90,100,30,40,20,Processing speed,Memory (RAM),NA,NA
NA,NA,NA,NA,NA,choice_trial_setup,html-keyboard-response,52,167433,0.0-4.0-0.24,59,1,2025-04-28T19:06:20Z,b60275e29fe2361ab97ac0ac217840d7,"Mozilla/5.0 (Macintosh; Intel Mac OS X 10_15_7) AppleWebKit/605.1.15 (KHTML, like Gecko) Version/18.3.1 Safari/605.1.15",Macintosh,Safari,18.3.1,OS X,10_15_7,https://5puzkbbxv1.cognition.run/?sona_id=49332,"en-US,en;q=0.9",1n5wcezk7uhx9ev,21,"[""White""]",No,Female,"na
",No,307879,NA,null,<p></p>,null,choice,cdt,trinary,repulsion_A,2,televisions,null,null,null,null,null,null,1,NA,NA,NA,NA,NA,NA,NA,NA,NA,NA
NA,NA,NA,NA,NA,choice_trial,survey-html-form,53,171432,0.0-4.0-1.24,59,1,2025-04-28T19:06:20Z,b60275e29fe2361ab97ac0ac217840d7,"Mozilla/5.0 (Macintosh; Intel Mac OS X 10_15_7) AppleWebKit/605.1.15 (KHTML, like Gecko) Version/18.3.1 Safari/605.1.15",Macintosh,Safari,18.3.1,OS X,10_15_7,https://5puzkbbxv1.cognition.run/?sona_id=49332,"en-US,en;q=0.9",1n5wcezk7uhx9ev,21,"[""White""]",No,Female,"na
",No,307879,NA,3994,NA,"{""product_choice"":""A""}",choice,cdt,trinary,repulsion_A,2,televisions,null,null,null,null,null,null,1,30,40,20,100,90,100,Screen size,Average lifespan,NA,NA
NA,NA,NA,NA,NA,choice_trial_setup,html-keyboard-response,54,171735,0.0-4.0-0.25,59,1,2025-04-28T19:06:20Z,b60275e29fe2361ab97ac0ac217840d7,"Mozilla/5.0 (Macintosh; Intel Mac OS X 10_15_7) AppleWebKit/605.1.15 (KHTML, like Gecko) Version/18.3.1 Safari/605.1.15",Macintosh,Safari,18.3.1,OS X,10_15_7,https://5puzkbbxv1.cognition.run/?sona_id=49332,"en-US,en;q=0.9",1n5wcezk7uhx9ev,21,"[""White""]",No,Female,"na
",No,307879,NA,null,<p></p>,null,choice,bw,binary,catch,null,televisions,90,70,10,30,null,null,2,NA,NA,NA,NA,NA,NA,NA,NA,NA,NA
NA,NA,NA,NA,NA,choice_trial,survey-html-form,55,175041,0.0-4.0-1.25,59,1,2025-04-28T19:06:20Z,b60275e29fe2361ab97ac0ac217840d7,"Mozilla/5.0 (Macintosh; Intel Mac OS X 10_15_7) AppleWebKit/605.1.15 (KHTML, like Gecko) Version/18.3.1 Safari/605.1.15",Macintosh,Safari,18.3.1,OS X,10_15_7,https://5puzkbbxv1.cognition.run/?sona_id=49332,"en-US,en;q=0.9",1n5wcezk7uhx9ev,21,"[""White""]",No,Female,"na
",No,307879,NA,3301,NA,"{""product_choice"":""A""}",choice,bw,binary,catch,null,televisions,90,70,10,30,null,null,2,null,null,null,null,null,null,Screen size,Average lifespan,NA,NA
NA,NA,NA,NA,NA,choice_trial_setup,html-keyboard-response,56,175344,0.0-4.0-0.26,59,1,2025-04-28T19:06:20Z,b60275e29fe2361ab97ac0ac217840d7,"Mozilla/5.0 (Macintosh; Intel Mac OS X 10_15_7) AppleWebKit/605.1.15 (KHTML, like Gecko) Version/18.3.1 Safari/605.1.15",Macintosh,Safari,18.3.1,OS X,10_15_7,https://5puzkbbxv1.cognition.run/?sona_id=49332,"en-US,en;q=0.9",1n5wcezk7uhx9ev,21,"[""White""]",No,Female,"na
",No,307879,NA,null,<p></p>,null,choice,cdt,trinary,attraction,2,laptops,null,null,null,null,null,null,2,NA,NA,NA,NA,NA,NA,NA,NA,NA,NA
NA,NA,NA,NA,NA,choice_trial,survey-html-form,57,178784,0.0-4.0-1.26,59,1,2025-04-28T19:06:20Z,b60275e29fe2361ab97ac0ac217840d7,"Mozilla/5.0 (Macintosh; Intel Mac OS X 10_15_7) AppleWebKit/605.1.15 (KHTML, like Gecko) Version/18.3.1 Safari/605.1.15",Macintosh,Safari,18.3.1,OS X,10_15_7,https://5puzkbbxv1.cognition.run/?sona_id=49332,"en-US,en;q=0.9",1n5wcezk7uhx9ev,21,"[""White""]",No,Female,"na
",No,307879,NA,3435,NA,"{""product_choice"":""A""}",choice,cdt,trinary,attraction,2,laptops,null,null,null,null,null,null,2,50,60,40,60,50,60,Processing speed,Memory (RAM),NA,NA
NA,NA,NA,NA,NA,choice_trial_setup,html-keyboard-response,58,179087,0.0-4.0-0.27,59,1,2025-04-28T19:06:20Z,b60275e29fe2361ab97ac0ac217840d7,"Mozilla/5.0 (Macintosh; Intel Mac OS X 10_15_7) AppleWebKit/605.1.15 (KHTML, like Gecko) Version/18.3.1 Safari/605.1.15",Macintosh,Safari,18.3.1,OS X,10_15_7,https://5puzkbbxv1.cognition.run/?sona_id=49332,"en-US,en;q=0.9",1n5wcezk7uhx9ev,21,"[""White""]",No,Female,"na
",No,307879,NA,null,<p></p>,null,choice,tc,binary,repulsion,2,washing machines,null,null,null,null,null,null,1,NA,NA,NA,NA,NA,NA,NA,NA,NA,NA
NA,NA,NA,NA,NA,choice_trial,survey-html-form,59,182750,0.0-4.0-1.27,59,1,2025-04-28T19:06:20Z,b60275e29fe2361ab97ac0ac217840d7,"Mozilla/5.0 (Macintosh; Intel Mac OS X 10_15_7) AppleWebKit/605.1.15 (KHTML, like Gecko) Version/18.3.1 Safari/605.1.15",Macintosh,Safari,18.3.1,OS X,10_15_7,https://5puzkbbxv1.cognition.run/?sona_id=49332,"en-US,en;q=0.9",1n5wcezk7uhx9ev,21,"[""White""]",No,Female,"na
",No,307879,NA,3659,NA,"{""product_choice"":""A""}",choice,tc,binary,repulsion,2,washing machines,null,null,null,null,null,null,1,30,40,null,100,90,null,Average lifespan,Energy savings,NA,NA
NA,NA,NA,NA,NA,choice_trial_setup,html-keyboard-response,60,183053,0.0-4.0-0.28,59,1,2025-04-28T19:06:20Z,b60275e29fe2361ab97ac0ac217840d7,"Mozilla/5.0 (Macintosh; Intel Mac OS X 10_15_7) AppleWebKit/605.1.15 (KHTML, like Gecko) Version/18.3.1 Safari/605.1.15",Macintosh,Safari,18.3.1,OS X,10_15_7,https://5puzkbbxv1.cognition.run/?sona_id=49332,"en-US,en;q=0.9",1n5wcezk7uhx9ev,21,"[""White""]",No,Female,"na
",No,307879,NA,null,<p></p>,null,choice,ct,binary,repulsion,1,microwave ovens,null,null,null,null,null,null,2,NA,NA,NA,NA,NA,NA,NA,NA,NA,NA
NA,NA,NA,NA,NA,choice_trial,survey-html-form,61,186951,0.0-4.0-1.28,59,1,2025-04-28T19:06:20Z,b60275e29fe2361ab97ac0ac217840d7,"Mozilla/5.0 (Macintosh; Intel Mac OS X 10_15_7) AppleWebKit/605.1.15 (KHTML, like Gecko) Version/18.3.1 Safari/605.1.15",Macintosh,Safari,18.3.1,OS X,10_15_7,https://5puzkbbxv1.cognition.run/?sona_id=49332,"en-US,en;q=0.9",1n5wcezk7uhx9ev,21,"[""White""]",No,Female,"na
",No,307879,NA,3894,NA,"{""product_choice"":""A""}",choice,ct,binary,repulsion,1,microwave ovens,null,null,null,null,null,null,2,100,90,null,30,40,null,Warranty,Cooking power,NA,NA
NA,NA,NA,NA,NA,choice_trial_setup,html-keyboard-response,62,187254,0.0-4.0-0.29,59,1,2025-04-28T19:06:20Z,b60275e29fe2361ab97ac0ac217840d7,"Mozilla/5.0 (Macintosh; Intel Mac OS X 10_15_7) AppleWebKit/605.1.15 (KHTML, like Gecko) Version/18.3.1 Safari/605.1.15",Macintosh,Safari,18.3.1,OS X,10_15_7,https://5puzkbbxv1.cognition.run/?sona_id=49332,"en-US,en;q=0.9",1n5wcezk7uhx9ev,21,"[""White""]",No,Female,"na
",No,307879,NA,null,<p></p>,null,choice,tc,binary,attraction,NA,washing machines,null,null,null,null,null,null,2,NA,NA,NA,NA,NA,NA,NA,NA,NA,NA
NA,NA,NA,NA,NA,choice_trial,survey-html-form,63,192585,0.0-4.0-1.29,59,1,2025-04-28T19:06:20Z,b60275e29fe2361ab97ac0ac217840d7,"Mozilla/5.0 (Macintosh; Intel Mac OS X 10_15_7) AppleWebKit/605.1.15 (KHTML, like Gecko) Version/18.3.1 Safari/605.1.15",Macintosh,Safari,18.3.1,OS X,10_15_7,https://5puzkbbxv1.cognition.run/?sona_id=49332,"en-US,en;q=0.9",1n5wcezk7uhx9ev,21,"[""White""]",No,Female,"na
",No,307879,NA,5326,NA,"{""product_choice"":""B""}",choice,tc,binary,attraction,NA,washing machines,null,null,null,null,null,null,2,60,50,null,50,60,null,Average lifespan,Energy savings,NA,NA
NA,NA,NA,NA,NA,choice_trial_setup,html-keyboard-response,64,192888,0.0-4.0-0.30,59,1,2025-04-28T19:06:20Z,b60275e29fe2361ab97ac0ac217840d7,"Mozilla/5.0 (Macintosh; Intel Mac OS X 10_15_7) AppleWebKit/605.1.15 (KHTML, like Gecko) Version/18.3.1 Safari/605.1.15",Macintosh,Safari,18.3.1,OS X,10_15_7,https://5puzkbbxv1.cognition.run/?sona_id=49332,"en-US,en;q=0.9",1n5wcezk7uhx9ev,21,"[""White""]",No,Female,"na
",No,307879,NA,null,<p></p>,null,choice,cdt,trinary,repulsion_A,1,washing machines,null,null,null,null,null,null,2,NA,NA,NA,NA,NA,NA,NA,NA,NA,NA
NA,NA,NA,NA,NA,choice_trial,survey-html-form,65,196907,0.0-4.0-1.30,59,1,2025-04-28T19:06:20Z,b60275e29fe2361ab97ac0ac217840d7,"Mozilla/5.0 (Macintosh; Intel Mac OS X 10_15_7) AppleWebKit/605.1.15 (KHTML, like Gecko) Version/18.3.1 Safari/605.1.15",Macintosh,Safari,18.3.1,OS X,10_15_7,https://5puzkbbxv1.cognition.run/?sona_id=49332,"en-US,en;q=0.9",1n5wcezk7uhx9ev,21,"[""White""]",No,Female,"na
",No,307879,NA,4015,NA,"{""product_choice"":""A""}",choice,cdt,trinary,repulsion_A,1,washing machines,null,null,null,null,null,null,2,100,90,100,30,40,20,Average lifespan,Energy savings,NA,NA
NA,NA,NA,NA,NA,choice_trial_setup,html-keyboard-response,66,197210,0.0-4.0-0.31,59,1,2025-04-28T19:06:20Z,b60275e29fe2361ab97ac0ac217840d7,"Mozilla/5.0 (Macintosh; Intel Mac OS X 10_15_7) AppleWebKit/605.1.15 (KHTML, like Gecko) Version/18.3.1 Safari/605.1.15",Macintosh,Safari,18.3.1,OS X,10_15_7,https://5puzkbbxv1.cognition.run/?sona_id=49332,"en-US,en;q=0.9",1n5wcezk7uhx9ev,21,"[""White""]",No,Female,"na
",No,307879,NA,null,<p></p>,null,choice,cdt,trinary,attraction,2,televisions,null,null,null,null,null,null,1,NA,NA,NA,NA,NA,NA,NA,NA,NA,NA
NA,NA,NA,NA,NA,choice_trial,survey-html-form,67,201686,0.0-4.0-1.31,59,1,2025-04-28T19:06:20Z,b60275e29fe2361ab97ac0ac217840d7,"Mozilla/5.0 (Macintosh; Intel Mac OS X 10_15_7) AppleWebKit/605.1.15 (KHTML, like Gecko) Version/18.3.1 Safari/605.1.15",Macintosh,Safari,18.3.1,OS X,10_15_7,https://5puzkbbxv1.cognition.run/?sona_id=49332,"en-US,en;q=0.9",1n5wcezk7uhx9ev,21,"[""White""]",No,Female,"na
",No,307879,NA,4472,NA,"{""product_choice"":""A""}",choice,cdt,trinary,attraction,2,televisions,null,null,null,null,null,null,1,50,60,40,60,50,60,Screen size,Average lifespan,NA,NA
NA,NA,NA,NA,NA,choice_trial_setup,html-keyboard-response,68,201990,0.0-4.0-0.32,59,1,2025-04-28T19:06:20Z,b60275e29fe2361ab97ac0ac217840d7,"Mozilla/5.0 (Macintosh; Intel Mac OS X 10_15_7) AppleWebKit/605.1.15 (KHTML, like Gecko) Version/18.3.1 Safari/605.1.15",Macintosh,Safari,18.3.1,OS X,10_15_7,https://5puzkbbxv1.cognition.run/?sona_id=49332,"en-US,en;q=0.9",1n5wcezk7uhx9ev,21,"[""White""]",No,Female,"na
",No,307879,NA,null,<p></p>,null,choice,ctd,trinary,attraction,1,televisions,null,null,null,null,null,null,2,NA,NA,NA,NA,NA,NA,NA,NA,NA,NA
NA,NA,NA,NA,NA,choice_trial,survey-html-form,69,204969,0.0-4.0-1.32,59,1,2025-04-28T19:06:20Z,b60275e29fe2361ab97ac0ac217840d7,"Mozilla/5.0 (Macintosh; Intel Mac OS X 10_15_7) AppleWebKit/605.1.15 (KHTML, like Gecko) Version/18.3.1 Safari/605.1.15",Macintosh,Safari,18.3.1,OS X,10_15_7,https://5puzkbbxv1.cognition.run/?sona_id=49332,"en-US,en;q=0.9",1n5wcezk7uhx9ev,21,"[""White""]",No,Female,"na
",No,307879,NA,2975,NA,"{""product_choice"":""B""}",choice,ctd,trinary,attraction,1,televisions,null,null,null,null,null,null,2,60,50,60,50,60,40,Screen size,Average lifespan,NA,NA
NA,NA,NA,NA,NA,choice_trial_setup,html-keyboard-response,70,205274,0.0-4.0-0.33,59,1,2025-04-28T19:06:20Z,b60275e29fe2361ab97ac0ac217840d7,"Mozilla/5.0 (Macintosh; Intel Mac OS X 10_15_7) AppleWebKit/605.1.15 (KHTML, like Gecko) Version/18.3.1 Safari/605.1.15",Macintosh,Safari,18.3.1,OS X,10_15_7,https://5puzkbbxv1.cognition.run/?sona_id=49332,"en-US,en;q=0.9",1n5wcezk7uhx9ev,21,"[""White""]",No,Female,"na
",No,307879,NA,null,<p></p>,null,choice,tdc,trinary,repulsion_B,2,washing machines,null,null,null,null,null,null,2,NA,NA,NA,NA,NA,NA,NA,NA,NA,NA
NA,NA,NA,NA,NA,choice_trial,survey-html-form,71,209615,0.0-4.0-1.33,59,1,2025-04-28T19:06:20Z,b60275e29fe2361ab97ac0ac217840d7,"Mozilla/5.0 (Macintosh; Intel Mac OS X 10_15_7) AppleWebKit/605.1.15 (KHTML, like Gecko) Version/18.3.1 Safari/605.1.15",Macintosh,Safari,18.3.1,OS X,10_15_7,https://5puzkbbxv1.cognition.run/?sona_id=49332,"en-US,en;q=0.9",1n5wcezk7uhx9ev,21,"[""White""]",No,Female,"na
",No,307879,NA,4336,NA,"{""product_choice"":""A""}",choice,tdc,trinary,repulsion_B,2,washing machines,null,null,null,null,null,null,2,40,30,40,90,100,80,Average lifespan,Energy savings,NA,NA
NA,NA,NA,NA,NA,choice_trial_setup,html-keyboard-response,72,209918,0.0-4.0-0.34,59,1,2025-04-28T19:06:20Z,b60275e29fe2361ab97ac0ac217840d7,"Mozilla/5.0 (Macintosh; Intel Mac OS X 10_15_7) AppleWebKit/605.1.15 (KHTML, like Gecko) Version/18.3.1 Safari/605.1.15",Macintosh,Safari,18.3.1,OS X,10_15_7,https://5puzkbbxv1.cognition.run/?sona_id=49332,"en-US,en;q=0.9",1n5wcezk7uhx9ev,21,"[""White""]",No,Female,"na
",No,307879,NA,null,<p></p>,null,choice,bw,binary,catch,null,laptops,50,90,30,35,null,null,2,NA,NA,NA,NA,NA,NA,NA,NA,NA,NA
NA,NA,NA,NA,NA,choice_trial,survey-html-form,73,214735,0.0-4.0-1.34,59,1,2025-04-28T19:06:20Z,b60275e29fe2361ab97ac0ac217840d7,"Mozilla/5.0 (Macintosh; Intel Mac OS X 10_15_7) AppleWebKit/605.1.15 (KHTML, like Gecko) Version/18.3.1 Safari/605.1.15",Macintosh,Safari,18.3.1,OS X,10_15_7,https://5puzkbbxv1.cognition.run/?sona_id=49332,"en-US,en;q=0.9",1n5wcezk7uhx9ev,21,"[""White""]",No,Female,"na
",No,307879,NA,4812,NA,"{""product_choice"":""A""}",choice,bw,binary,catch,null,laptops,50,90,30,35,null,null,2,null,null,null,null,null,null,Processing speed,Memory (RAM),NA,NA
NA,NA,NA,NA,NA,choice_trial_setup,html-keyboard-response,74,215039,0.0-4.0-0.35,59,1,2025-04-28T19:06:20Z,b60275e29fe2361ab97ac0ac217840d7,"Mozilla/5.0 (Macintosh; Intel Mac OS X 10_15_7) AppleWebKit/605.1.15 (KHTML, like Gecko) Version/18.3.1 Safari/605.1.15",Macintosh,Safari,18.3.1,OS X,10_15_7,https://5puzkbbxv1.cognition.run/?sona_id=49332,"en-US,en;q=0.9",1n5wcezk7uhx9ev,21,"[""White""]",No,Female,"na
",No,307879,NA,null,<p></p>,null,choice,ct,binary,repulsion,2,microwave ovens,null,null,null,null,null,null,2,NA,NA,NA,NA,NA,NA,NA,NA,NA,NA
NA,NA,NA,NA,NA,choice_trial,survey-html-form,75,218479,0.0-4.0-1.35,59,1,2025-04-28T19:06:20Z,b60275e29fe2361ab97ac0ac217840d7,"Mozilla/5.0 (Macintosh; Intel Mac OS X 10_15_7) AppleWebKit/605.1.15 (KHTML, like Gecko) Version/18.3.1 Safari/605.1.15",Macintosh,Safari,18.3.1,OS X,10_15_7,https://5puzkbbxv1.cognition.run/?sona_id=49332,"en-US,en;q=0.9",1n5wcezk7uhx9ev,21,"[""White""]",No,Female,"na
",No,307879,NA,3435,NA,"{""product_choice"":""B""}",choice,ct,binary,repulsion,2,microwave ovens,null,null,null,null,null,null,2,30,40,null,100,90,null,Warranty,Cooking power,NA,NA
NA,NA,NA,NA,NA,choice_trial_setup,html-keyboard-response,76,218783,0.0-4.0-0.36,59,1,2025-04-28T19:06:20Z,b60275e29fe2361ab97ac0ac217840d7,"Mozilla/5.0 (Macintosh; Intel Mac OS X 10_15_7) AppleWebKit/605.1.15 (KHTML, like Gecko) Version/18.3.1 Safari/605.1.15",Macintosh,Safari,18.3.1,OS X,10_15_7,https://5puzkbbxv1.cognition.run/?sona_id=49332,"en-US,en;q=0.9",1n5wcezk7uhx9ev,21,"[""White""]",No,Female,"na
",No,307879,NA,null,<p></p>,null,choice,tc,binary,repulsion,1,washing machines,null,null,null,null,null,null,1,NA,NA,NA,NA,NA,NA,NA,NA,NA,NA
NA,NA,NA,NA,NA,choice_trial,survey-html-form,77,221571,0.0-4.0-1.36,59,1,2025-04-28T19:06:20Z,b60275e29fe2361ab97ac0ac217840d7,"Mozilla/5.0 (Macintosh; Intel Mac OS X 10_15_7) AppleWebKit/605.1.15 (KHTML, like Gecko) Version/18.3.1 Safari/605.1.15",Macintosh,Safari,18.3.1,OS X,10_15_7,https://5puzkbbxv1.cognition.run/?sona_id=49332,"en-US,en;q=0.9",1n5wcezk7uhx9ev,21,"[""White""]",No,Female,"na
",No,307879,NA,2783,NA,"{""product_choice"":""A""}",choice,tc,binary,repulsion,1,washing machines,null,null,null,null,null,null,1,100,90,null,30,40,null,Average lifespan,Energy savings,NA,NA
NA,NA,NA,NA,NA,choice_trial_setup,html-keyboard-response,78,221876,0.0-4.0-0.37,59,1,2025-04-28T19:06:20Z,b60275e29fe2361ab97ac0ac217840d7,"Mozilla/5.0 (Macintosh; Intel Mac OS X 10_15_7) AppleWebKit/605.1.15 (KHTML, like Gecko) Version/18.3.1 Safari/605.1.15",Macintosh,Safari,18.3.1,OS X,10_15_7,https://5puzkbbxv1.cognition.run/?sona_id=49332,"en-US,en;q=0.9",1n5wcezk7uhx9ev,21,"[""White""]",No,Female,"na
",No,307879,NA,null,<p></p>,null,choice,wb,binary,catch,null,microwave ovens,85,90,30,15,null,null,1,NA,NA,NA,NA,NA,NA,NA,NA,NA,NA
NA,NA,NA,NA,NA,choice_trial,survey-html-form,79,224865,0.0-4.0-1.37,59,1,2025-04-28T19:06:20Z,b60275e29fe2361ab97ac0ac217840d7,"Mozilla/5.0 (Macintosh; Intel Mac OS X 10_15_7) AppleWebKit/605.1.15 (KHTML, like Gecko) Version/18.3.1 Safari/605.1.15",Macintosh,Safari,18.3.1,OS X,10_15_7,https://5puzkbbxv1.cognition.run/?sona_id=49332,"en-US,en;q=0.9",1n5wcezk7uhx9ev,21,"[""White""]",No,Female,"na
",No,307879,NA,2984,NA,"{""product_choice"":""B""}",choice,wb,binary,catch,null,microwave ovens,85,90,30,15,null,null,1,null,null,null,null,null,null,Warranty,Cooking power,NA,NA
NA,NA,NA,NA,NA,choice_trial_setup,html-keyboard-response,80,225174,0.0-4.0-0.38,59,1,2025-04-28T19:06:20Z,b60275e29fe2361ab97ac0ac217840d7,"Mozilla/5.0 (Macintosh; Intel Mac OS X 10_15_7) AppleWebKit/605.1.15 (KHTML, like Gecko) Version/18.3.1 Safari/605.1.15",Macintosh,Safari,18.3.1,OS X,10_15_7,https://5puzkbbxv1.cognition.run/?sona_id=49332,"en-US,en;q=0.9",1n5wcezk7uhx9ev,21,"[""White""]",No,Female,"na
",No,307879,NA,null,<p></p>,null,choice,dtc,trinary,attraction,2,microwave ovens,null,null,null,null,null,null,2,NA,NA,NA,NA,NA,NA,NA,NA,NA,NA
NA,NA,NA,NA,NA,choice_trial,survey-html-form,81,231429,0.0-4.0-1.38,59,1,2025-04-28T19:06:20Z,b60275e29fe2361ab97ac0ac217840d7,"Mozilla/5.0 (Macintosh; Intel Mac OS X 10_15_7) AppleWebKit/605.1.15 (KHTML, like Gecko) Version/18.3.1 Safari/605.1.15",Macintosh,Safari,18.3.1,OS X,10_15_7,https://5puzkbbxv1.cognition.run/?sona_id=49332,"en-US,en;q=0.9",1n5wcezk7uhx9ev,21,"[""White""]",No,Female,"na
",No,307879,NA,6250,NA,"{""product_choice"":""C""}",choice,dtc,trinary,attraction,2,microwave ovens,null,null,null,null,null,null,2,50,60,40,60,50,60,Warranty,Cooking power,NA,NA
NA,NA,NA,NA,NA,choice_trial_setup,html-keyboard-response,82,231732,0.0-4.0-0.39,59,1,2025-04-28T19:06:20Z,b60275e29fe2361ab97ac0ac217840d7,"Mozilla/5.0 (Macintosh; Intel Mac OS X 10_15_7) AppleWebKit/605.1.15 (KHTML, like Gecko) Version/18.3.1 Safari/605.1.15",Macintosh,Safari,18.3.1,OS X,10_15_7,https://5puzkbbxv1.cognition.run/?sona_id=49332,"en-US,en;q=0.9",1n5wcezk7uhx9ev,21,"[""White""]",No,Female,"na
",No,307879,NA,null,<p></p>,null,choice,wbw,trinary,catch,null,laptops,90,70,15,20,40,25,2,NA,NA,NA,NA,NA,NA,NA,NA,NA,NA
NA,NA,NA,NA,NA,choice_trial,survey-html-form,83,236304,0.0-4.0-1.39,59,1,2025-04-28T19:06:20Z,b60275e29fe2361ab97ac0ac217840d7,"Mozilla/5.0 (Macintosh; Intel Mac OS X 10_15_7) AppleWebKit/605.1.15 (KHTML, like Gecko) Version/18.3.1 Safari/605.1.15",Macintosh,Safari,18.3.1,OS X,10_15_7,https://5puzkbbxv1.cognition.run/?sona_id=49332,"en-US,en;q=0.9",1n5wcezk7uhx9ev,21,"[""White""]",No,Female,"na
",No,307879,NA,4567,NA,"{""product_choice"":""B""}",choice,wbw,trinary,catch,null,laptops,90,70,15,20,40,25,2,null,null,null,null,null,null,Processing speed,Memory (RAM),NA,NA
NA,NA,NA,NA,NA,choice_trial_setup,html-keyboard-response,84,236608,0.0-4.0-0.40,59,1,2025-04-28T19:06:20Z,b60275e29fe2361ab97ac0ac217840d7,"Mozilla/5.0 (Macintosh; Intel Mac OS X 10_15_7) AppleWebKit/605.1.15 (KHTML, like Gecko) Version/18.3.1 Safari/605.1.15",Macintosh,Safari,18.3.1,OS X,10_15_7,https://5puzkbbxv1.cognition.run/?sona_id=49332,"en-US,en;q=0.9",1n5wcezk7uhx9ev,21,"[""White""]",No,Female,"na
",No,307879,NA,null,<p></p>,null,choice,dtc,trinary,attraction,1,washing machines,null,null,null,null,null,null,2,NA,NA,NA,NA,NA,NA,NA,NA,NA,NA
NA,NA,NA,NA,NA,choice_trial,survey-html-form,85,238671,0.0-4.0-1.40,59,1,2025-04-28T19:06:20Z,b60275e29fe2361ab97ac0ac217840d7,"Mozilla/5.0 (Macintosh; Intel Mac OS X 10_15_7) AppleWebKit/605.1.15 (KHTML, like Gecko) Version/18.3.1 Safari/605.1.15",Macintosh,Safari,18.3.1,OS X,10_15_7,https://5puzkbbxv1.cognition.run/?sona_id=49332,"en-US,en;q=0.9",1n5wcezk7uhx9ev,21,"[""White""]",No,Female,"na
",No,307879,NA,2058,NA,"{""product_choice"":""B""}",choice,dtc,trinary,attraction,1,washing machines,null,null,null,null,null,null,2,60,50,60,50,60,40,Average lifespan,Energy savings,NA,NA
NA,NA,NA,NA,NA,choice_trial_setup,html-keyboard-response,86,238975,0.0-4.0-0.41,59,1,2025-04-28T19:06:20Z,b60275e29fe2361ab97ac0ac217840d7,"Mozilla/5.0 (Macintosh; Intel Mac OS X 10_15_7) AppleWebKit/605.1.15 (KHTML, like Gecko) Version/18.3.1 Safari/605.1.15",Macintosh,Safari,18.3.1,OS X,10_15_7,https://5puzkbbxv1.cognition.run/?sona_id=49332,"en-US,en;q=0.9",1n5wcezk7uhx9ev,21,"[""White""]",No,Female,"na
",No,307879,NA,null,<p></p>,null,choice,dtc,trinary,repulsion_B,1,microwave ovens,null,null,null,null,null,null,2,NA,NA,NA,NA,NA,NA,NA,NA,NA,NA
NA,NA,NA,NA,NA,choice_trial,survey-html-form,87,242735,0.0-4.0-1.41,59,1,2025-04-28T19:06:20Z,b60275e29fe2361ab97ac0ac217840d7,"Mozilla/5.0 (Macintosh; Intel Mac OS X 10_15_7) AppleWebKit/605.1.15 (KHTML, like Gecko) Version/18.3.1 Safari/605.1.15",Macintosh,Safari,18.3.1,OS X,10_15_7,https://5puzkbbxv1.cognition.run/?sona_id=49332,"en-US,en;q=0.9",1n5wcezk7uhx9ev,21,"[""White""]",No,Female,"na
",No,307879,NA,3755,NA,"{""product_choice"":""B""}",choice,dtc,trinary,repulsion_B,1,microwave ovens,null,null,null,null,null,null,2,90,100,80,40,30,40,Warranty,Cooking power,NA,NA
NA,NA,NA,NA,NA,choice_trial_setup,html-keyboard-response,88,243040,0.0-4.0-0.42,59,1,2025-04-28T19:06:20Z,b60275e29fe2361ab97ac0ac217840d7,"Mozilla/5.0 (Macintosh; Intel Mac OS X 10_15_7) AppleWebKit/605.1.15 (KHTML, like Gecko) Version/18.3.1 Safari/605.1.15",Macintosh,Safari,18.3.1,OS X,10_15_7,https://5puzkbbxv1.cognition.run/?sona_id=49332,"en-US,en;q=0.9",1n5wcezk7uhx9ev,21,"[""White""]",No,Female,"na
",No,307879,NA,null,<p></p>,null,choice,dtc,trinary,repulsion_B,1,laptops,null,null,null,null,null,null,2,NA,NA,NA,NA,NA,NA,NA,NA,NA,NA
NA,NA,NA,NA,NA,choice_trial,survey-html-form,89,247522,0.0-4.0-1.42,59,1,2025-04-28T19:06:20Z,b60275e29fe2361ab97ac0ac217840d7,"Mozilla/5.0 (Macintosh; Intel Mac OS X 10_15_7) AppleWebKit/605.1.15 (KHTML, like Gecko) Version/18.3.1 Safari/605.1.15",Macintosh,Safari,18.3.1,OS X,10_15_7,https://5puzkbbxv1.cognition.run/?sona_id=49332,"en-US,en;q=0.9",1n5wcezk7uhx9ev,21,"[""White""]",No,Female,"na
",No,307879,NA,4476,NA,"{""product_choice"":""C""}",choice,dtc,trinary,repulsion_B,1,laptops,null,null,null,null,null,null,2,90,100,80,40,30,40,Processing speed,Memory (RAM),NA,NA
NA,NA,NA,NA,NA,choice_trial_setup,html-keyboard-response,90,247825,0.0-4.0-0.43,59,1,2025-04-28T19:06:20Z,b60275e29fe2361ab97ac0ac217840d7,"Mozilla/5.0 (Macintosh; Intel Mac OS X 10_15_7) AppleWebKit/605.1.15 (KHTML, like Gecko) Version/18.3.1 Safari/605.1.15",Macintosh,Safari,18.3.1,OS X,10_15_7,https://5puzkbbxv1.cognition.run/?sona_id=49332,"en-US,en;q=0.9",1n5wcezk7uhx9ev,21,"[""White""]",No,Female,"na
",No,307879,NA,null,<p></p>,null,choice,dct,trinary,repulsion_B,1,washing machines,null,null,null,null,null,null,1,NA,NA,NA,NA,NA,NA,NA,NA,NA,NA
NA,NA,NA,NA,NA,choice_trial,survey-html-form,91,251014,0.0-4.0-1.43,59,1,2025-04-28T19:06:20Z,b60275e29fe2361ab97ac0ac217840d7,"Mozilla/5.0 (Macintosh; Intel Mac OS X 10_15_7) AppleWebKit/605.1.15 (KHTML, like Gecko) Version/18.3.1 Safari/605.1.15",Macintosh,Safari,18.3.1,OS X,10_15_7,https://5puzkbbxv1.cognition.run/?sona_id=49332,"en-US,en;q=0.9",1n5wcezk7uhx9ev,21,"[""White""]",No,Female,"na
",No,307879,NA,3183,NA,"{""product_choice"":""B""}",choice,dct,trinary,repulsion_B,1,washing machines,null,null,null,null,null,null,1,90,100,80,40,30,40,Average lifespan,Energy savings,NA,NA
NA,NA,NA,NA,NA,post_trials_message,html-button-response,92,252868,0.0-5.0,59,1,2025-04-28T19:06:20Z,b60275e29fe2361ab97ac0ac217840d7,"Mozilla/5.0 (Macintosh; Intel Mac OS X 10_15_7) AppleWebKit/605.1.15 (KHTML, like Gecko) Version/18.3.1 Safari/605.1.15",Macintosh,Safari,18.3.1,OS X,10_15_7,https://5puzkbbxv1.cognition.run/?sona_id=49332,"en-US,en;q=0.9",1n5wcezk7uhx9ev,21,"[""White""]",No,Female,"na
",No,307879,NA,1849,<p> <b>Thank you for your patience!</b></p><p>  The study will be done after completing a brief form. </p>,0,NA,NA,NA,NA,NA,NA,NA,NA,NA,NA,NA,NA,NA,NA,NA,NA,NA,NA,NA,NA,NA,NA,NA
NA,NA,NA,NA,NA,survey_message,survey-text,93,280931,0.0-6.0,59,1,2025-04-28T19:06:20Z,b60275e29fe2361ab97ac0ac217840d7,"Mozilla/5.0 (Macintosh; Intel Mac OS X 10_15_7) AppleWebKit/605.1.15 (KHTML, like Gecko) Version/18.3.1 Safari/605.1.15",Macintosh,Safari,18.3.1,OS X,10_15_7,https://5puzkbbxv1.cognition.run/?sona_id=49332,"en-US,en;q=0.9",1n5wcezk7uhx9ev,21,"[""White""]",No,Female,"na
",No,307879,NA,28047,NA,"{""Q0"":""I picked a few things that I thought were the most importantly and went off of the ratings for those categories""}",NA,NA,NA,NA,NA,NA,NA,NA,NA,NA,NA,NA,NA,NA,NA,NA,NA,NA,NA,NA,NA,I picked a few things that I thought were the most importantly and went off of the ratings for those categories,NA
NA,NA,NA,NA,NA,demo_age,survey-text,94,282732,0.0-7.0,59,1,2025-04-28T19:06:20Z,b60275e29fe2361ab97ac0ac217840d7,"Mozilla/5.0 (Macintosh; Intel Mac OS X 10_15_7) AppleWebKit/605.1.15 (KHTML, like Gecko) Version/18.3.1 Safari/605.1.15",Macintosh,Safari,18.3.1,OS X,10_15_7,https://5puzkbbxv1.cognition.run/?sona_id=49332,"en-US,en;q=0.9",1n5wcezk7uhx9ev,21,"[""White""]",No,Female,"na
",No,307879,NA,1793,NA,"{""Q0"":""21""}",NA,NA,NA,NA,NA,NA,NA,NA,NA,NA,NA,NA,NA,NA,NA,NA,NA,NA,NA,NA,NA,NA,NA
NA,NA,NA,NA,NA,demo_race,survey-multi-select,95,284849,0.0-8.0,59,1,2025-04-28T19:06:20Z,b60275e29fe2361ab97ac0ac217840d7,"Mozilla/5.0 (Macintosh; Intel Mac OS X 10_15_7) AppleWebKit/605.1.15 (KHTML, like Gecko) Version/18.3.1 Safari/605.1.15",Macintosh,Safari,18.3.1,OS X,10_15_7,https://5puzkbbxv1.cognition.run/?sona_id=49332,"en-US,en;q=0.9",1n5wcezk7uhx9ev,21,"[""White""]",No,Female,"na
",No,307879,NA,2113,NA,"{""Q0"":[""White""]}",NA,NA,NA,NA,NA,NA,NA,NA,NA,NA,NA,NA,NA,NA,NA,NA,NA,NA,NA,NA,NA,NA,[0]
NA,NA,NA,NA,NA,demo_ethnicity_gender,survey-multi-choice,96,288077,0.0-9.0,59,1,2025-04-28T19:06:20Z,b60275e29fe2361ab97ac0ac217840d7,"Mozilla/5.0 (Macintosh; Intel Mac OS X 10_15_7) AppleWebKit/605.1.15 (KHTML, like Gecko) Version/18.3.1 Safari/605.1.15",Macintosh,Safari,18.3.1,OS X,10_15_7,https://5puzkbbxv1.cognition.run/?sona_id=49332,"en-US,en;q=0.9",1n5wcezk7uhx9ev,21,"[""White""]",No,Female,"na
",No,307879,NA,3222,NA,"{""Q0"":""No"",""Q1"":""Female""}",NA,NA,NA,NA,NA,NA,NA,NA,NA,NA,NA,NA,NA,NA,NA,NA,NA,NA,NA,NA,NA,NA,"[0,1]"
NA,NA,NA,NA,NA,demo_countries,survey-text,97,292648,0.0-10.0,59,1,2025-04-28T19:06:20Z,b60275e29fe2361ab97ac0ac217840d7,"Mozilla/5.0 (Macintosh; Intel Mac OS X 10_15_7) AppleWebKit/605.1.15 (KHTML, like Gecko) Version/18.3.1 Safari/605.1.15",Macintosh,Safari,18.3.1,OS X,10_15_7,https://5puzkbbxv1.cognition.run/?sona_id=49332,"en-US,en;q=0.9",1n5wcezk7uhx9ev,21,"[""White""]",No,Female,"na
",No,307879,NA,4567,NA,"{""Q0"":""na\n""}",NA,NA,NA,NA,NA,NA,NA,NA,NA,NA,NA,NA,NA,NA,NA,NA,NA,NA,NA,NA,NA,NA,NA
NA,NA,NA,NA,NA,demo_prev_study,survey-multi-choice,98,298533,0.0-11.0,59,1,2025-04-28T19:06:20Z,b60275e29fe2361ab97ac0ac217840d7,"Mozilla/5.0 (Macintosh; Intel Mac OS X 10_15_7) AppleWebKit/605.1.15 (KHTML, like Gecko) Version/18.3.1 Safari/605.1.15",Macintosh,Safari,18.3.1,OS X,10_15_7,https://5puzkbbxv1.cognition.run/?sona_id=49332,"en-US,en;q=0.9",1n5wcezk7uhx9ev,21,"[""White""]",No,Female,"na
",No,307879,NA,5882,NA,"{""Q0"":""No""}",NA,NA,NA,NA,NA,NA,NA,NA,NA,NA,NA,NA,NA,NA,NA,NA,NA,NA,NA,NA,NA,NA,[0]
NA,NA,NA,NA,NA,post_survey_message,html-keyboard-response,99,304429,0.0-12.0,59,1,2025-04-28T19:06:20Z,b60275e29fe2361ab97ac0ac217840d7,"Mozilla/5.0 (Macintosh; Intel Mac OS X 10_15_7) AppleWebKit/605.1.15 (KHTML, like Gecko) Version/18.3.1 Safari/605.1.15",Macintosh,Safari,18.3.1,OS X,10_15_7,https://5puzkbbxv1.cognition.run/?sona_id=49332,"en-US,en;q=0.9",1n5wcezk7uhx9ev,21,"[""White""]",No,Female,"na
",No,307879,NA,5892,NA,j,NA,NA,NA,NA,NA,NA,NA,NA,NA,NA,NA,NA,NA,NA,NA,NA,NA,NA,NA,NA,NA,NA,NA
NA,NA,NA,NA,NA,debrief,image-keyboard-response,100,307876,0.0-13.0,59,1,2025-04-28T19:06:20Z,b60275e29fe2361ab97ac0ac217840d7,"Mozilla/5.0 (Macintosh; Intel Mac OS X 10_15_7) AppleWebKit/605.1.15 (KHTML, like Gecko) Version/18.3.1 Safari/605.1.15",Macintosh,Safari,18.3.1,OS X,10_15_7,https://5puzkbbxv1.cognition.run/?sona_id=49332,"en-US,en;q=0.9",1n5wcezk7uhx9ev,21,"[""White""]",No,Female,"na
",No,307879,NA,3415,Judg_choice_debrief.png,p,NA,NA,NA,NA,NA,NA,NA,NA,NA,NA,NA,NA,NA,NA,NA,NA,NA,NA,NA,NA,NA,NA,NA
