success,timeout,failed_images,failed_audio,failed_video,screen_id,trial_type,trial_index,time_elapsed,internal_node_id,run_id,condition,recorded_at,source_code_version,user_agent,device,browser,browser_version,platform,platform_version,referer,accept_language,ppt_id,age,race,ethnicity,gender,other_countries,prev_study,exp_duration,view_history,rt,stimulus,response,phase,order,set,effect,t_high,category,d1_best,d2_best,d1_worst1,d2_worst1,d1_worst2,d2_worst2,first_dim,d1_t,d1_c,d1_d,d2_t,d2_c,d2_d,d1_name,d2_name,strategy_response,question_order
TRUE,FALSE,[],[],[],img preload,preload,0,165,0.0-0.0,60,1,2025-04-28T19:15:21Z,b60275e29fe2361ab97ac0ac217840d7,"Mozilla/5.0 (Macintosh; Intel Mac OS X 10_15_7) AppleWebKit/537.36 (KHTML, like Gecko) Chrome/134.0.0.0 Safari/537.36",Macintosh,Chrome,134.0.0.0,OS X,10_15_7,https://5puzkbbxv1.cognition.run/?sona_id=48708,"en-US,en;q=0.9,zh-TW;q=0.8,zh;q=0.7",x4vfum3skses5t8,24,"[""Asian""]",No,Female,Taiwan,No,647964.5999999046,NA,NA,NA,NA,NA,NA,NA,NA,NA,NA,NA,NA,NA,NA,NA,NA,NA,NA,NA,NA,NA,NA,NA,NA,NA,NA,NA
NA,NA,NA,NA,NA,computer_message,instructions,1,3813,0.0-1.0,60,1,2025-04-28T19:15:21Z,b60275e29fe2361ab97ac0ac217840d7,"Mozilla/5.0 (Macintosh; Intel Mac OS X 10_15_7) AppleWebKit/537.36 (KHTML, like Gecko) Chrome/134.0.0.0 Safari/537.36",Macintosh,Chrome,134.0.0.0,OS X,10_15_7,https://5puzkbbxv1.cognition.run/?sona_id=48708,"en-US,en;q=0.9,zh-TW;q=0.8,zh;q=0.7",x4vfum3skses5t8,24,"[""Asian""]",No,Female,Taiwan,No,647964.5999999046,"[{""page_index"":0,""viewing_time"":3647}]",3647,NA,NA,NA,NA,NA,NA,NA,NA,NA,NA,NA,NA,NA,NA,NA,NA,NA,NA,NA,NA,NA,NA,NA,NA,NA
TRUE,NA,NA,NA,NA,NA,fullscreen,2,8699,0.0-2.0,60,1,2025-04-28T19:15:21Z,b60275e29fe2361ab97ac0ac217840d7,"Mozilla/5.0 (Macintosh; Intel Mac OS X 10_15_7) AppleWebKit/537.36 (KHTML, like Gecko) Chrome/134.0.0.0 Safari/537.36",Macintosh,Chrome,134.0.0.0,OS X,10_15_7,https://5puzkbbxv1.cognition.run/?sona_id=48708,"en-US,en;q=0.9,zh-TW;q=0.8,zh;q=0.7",x4vfum3skses5t8,24,"[""Asian""]",No,Female,Taiwan,No,647964.5999999046,NA,3880,NA,NA,NA,NA,NA,NA,NA,NA,NA,NA,NA,NA,NA,NA,NA,NA,NA,NA,NA,NA,NA,NA,NA,NA,NA
NA,NA,NA,NA,NA,choice_instructions,instructions,3,60611,0.0-3.0,60,1,2025-04-28T19:15:21Z,b60275e29fe2361ab97ac0ac217840d7,"Mozilla/5.0 (Macintosh; Intel Mac OS X 10_15_7) AppleWebKit/537.36 (KHTML, like Gecko) Chrome/134.0.0.0 Safari/537.36",Macintosh,Chrome,134.0.0.0,OS X,10_15_7,https://5puzkbbxv1.cognition.run/?sona_id=48708,"en-US,en;q=0.9,zh-TW;q=0.8,zh;q=0.7",x4vfum3skses5t8,24,"[""Asian""]",No,Female,Taiwan,No,647964.5999999046,"[{""page_index"":0,""viewing_time"":2011},{""page_index"":1,""viewing_time"":3000},{""page_index"":2,""viewing_time"":4117},{""page_index"":3,""viewing_time"":2400},{""page_index"":4,""viewing_time"":2966},{""page_index"":5,""viewing_time"":33284},{""page_index"":6,""viewing_time"":4134}]",51912,NA,NA,NA,NA,NA,NA,NA,NA,NA,NA,NA,NA,NA,NA,NA,NA,NA,NA,NA,NA,NA,NA,NA,NA,NA
NA,NA,NA,NA,NA,choice_trial_setup,html-keyboard-response,4,60916,0.0-4.0-0.0,60,1,2025-04-28T19:15:21Z,b60275e29fe2361ab97ac0ac217840d7,"Mozilla/5.0 (Macintosh; Intel Mac OS X 10_15_7) AppleWebKit/537.36 (KHTML, like Gecko) Chrome/134.0.0.0 Safari/537.36",Macintosh,Chrome,134.0.0.0,OS X,10_15_7,https://5puzkbbxv1.cognition.run/?sona_id=48708,"en-US,en;q=0.9,zh-TW;q=0.8,zh;q=0.7",x4vfum3skses5t8,24,"[""Asian""]",No,Female,Taiwan,No,647964.5999999046,NA,null,<p></p>,null,choice,ct,binary,repulsion,2,televisions,null,null,null,null,null,null,2,NA,NA,NA,NA,NA,NA,NA,NA,NA,NA
NA,NA,NA,NA,NA,choice_trial,survey-html-form,5,69397,0.0-4.0-1.0,60,1,2025-04-28T19:15:21Z,b60275e29fe2361ab97ac0ac217840d7,"Mozilla/5.0 (Macintosh; Intel Mac OS X 10_15_7) AppleWebKit/537.36 (KHTML, like Gecko) Chrome/134.0.0.0 Safari/537.36",Macintosh,Chrome,134.0.0.0,OS X,10_15_7,https://5puzkbbxv1.cognition.run/?sona_id=48708,"en-US,en;q=0.9,zh-TW;q=0.8,zh;q=0.7",x4vfum3skses5t8,24,"[""Asian""]",No,Female,Taiwan,No,647964.5999999046,NA,8474,NA,"{""product_choice"":""A""}",choice,ct,binary,repulsion,2,televisions,null,null,null,null,null,null,2,30,40,null,100,90,null,Screen size,Average lifespan,NA,NA
NA,NA,NA,NA,NA,choice_trial_setup,html-keyboard-response,6,69701,0.0-4.0-0.1,60,1,2025-04-28T19:15:21Z,b60275e29fe2361ab97ac0ac217840d7,"Mozilla/5.0 (Macintosh; Intel Mac OS X 10_15_7) AppleWebKit/537.36 (KHTML, like Gecko) Chrome/134.0.0.0 Safari/537.36",Macintosh,Chrome,134.0.0.0,OS X,10_15_7,https://5puzkbbxv1.cognition.run/?sona_id=48708,"en-US,en;q=0.9,zh-TW;q=0.8,zh;q=0.7",x4vfum3skses5t8,24,"[""Asian""]",No,Female,Taiwan,No,647964.5999999046,NA,null,<p></p>,null,choice,cdt,trinary,attraction,2,televisions,null,null,null,null,null,null,1,NA,NA,NA,NA,NA,NA,NA,NA,NA,NA
NA,NA,NA,NA,NA,choice_trial,survey-html-form,7,85697,0.0-4.0-1.1,60,1,2025-04-28T19:15:21Z,b60275e29fe2361ab97ac0ac217840d7,"Mozilla/5.0 (Macintosh; Intel Mac OS X 10_15_7) AppleWebKit/537.36 (KHTML, like Gecko) Chrome/134.0.0.0 Safari/537.36",Macintosh,Chrome,134.0.0.0,OS X,10_15_7,https://5puzkbbxv1.cognition.run/?sona_id=48708,"en-US,en;q=0.9,zh-TW;q=0.8,zh;q=0.7",x4vfum3skses5t8,24,"[""Asian""]",No,Female,Taiwan,No,647964.5999999046,NA,15992,NA,"{""product_choice"":""A""}",choice,cdt,trinary,attraction,2,televisions,null,null,null,null,null,null,1,50,60,40,60,50,60,Screen size,Average lifespan,NA,NA
NA,NA,NA,NA,NA,choice_trial_setup,html-keyboard-response,8,86003,0.0-4.0-0.2,60,1,2025-04-28T19:15:21Z,b60275e29fe2361ab97ac0ac217840d7,"Mozilla/5.0 (Macintosh; Intel Mac OS X 10_15_7) AppleWebKit/537.36 (KHTML, like Gecko) Chrome/134.0.0.0 Safari/537.36",Macintosh,Chrome,134.0.0.0,OS X,10_15_7,https://5puzkbbxv1.cognition.run/?sona_id=48708,"en-US,en;q=0.9,zh-TW;q=0.8,zh;q=0.7",x4vfum3skses5t8,24,"[""Asian""]",No,Female,Taiwan,No,647964.5999999046,NA,null,<p></p>,null,choice,ct,binary,repulsion,1,laptops,null,null,null,null,null,null,1,NA,NA,NA,NA,NA,NA,NA,NA,NA,NA
NA,NA,NA,NA,NA,choice_trial,survey-html-form,9,94978,0.0-4.0-1.2,60,1,2025-04-28T19:15:21Z,b60275e29fe2361ab97ac0ac217840d7,"Mozilla/5.0 (Macintosh; Intel Mac OS X 10_15_7) AppleWebKit/537.36 (KHTML, like Gecko) Chrome/134.0.0.0 Safari/537.36",Macintosh,Chrome,134.0.0.0,OS X,10_15_7,https://5puzkbbxv1.cognition.run/?sona_id=48708,"en-US,en;q=0.9,zh-TW;q=0.8,zh;q=0.7",x4vfum3skses5t8,24,"[""Asian""]",No,Female,Taiwan,No,647964.5999999046,NA,8972,NA,"{""product_choice"":""B""}",choice,ct,binary,repulsion,1,laptops,null,null,null,null,null,null,1,100,90,null,30,40,null,Processing speed,Memory (RAM),NA,NA
NA,NA,NA,NA,NA,choice_trial_setup,html-keyboard-response,10,95282,0.0-4.0-0.3,60,1,2025-04-28T19:15:21Z,b60275e29fe2361ab97ac0ac217840d7,"Mozilla/5.0 (Macintosh; Intel Mac OS X 10_15_7) AppleWebKit/537.36 (KHTML, like Gecko) Chrome/134.0.0.0 Safari/537.36",Macintosh,Chrome,134.0.0.0,OS X,10_15_7,https://5puzkbbxv1.cognition.run/?sona_id=48708,"en-US,en;q=0.9,zh-TW;q=0.8,zh;q=0.7",x4vfum3skses5t8,24,"[""Asian""]",No,Female,Taiwan,No,647964.5999999046,NA,null,<p></p>,null,choice,wb,binary,catch,null,laptops,80,75,30,5,null,null,2,NA,NA,NA,NA,NA,NA,NA,NA,NA,NA
NA,NA,NA,NA,NA,choice_trial,survey-html-form,11,100662,0.0-4.0-1.3,60,1,2025-04-28T19:15:21Z,b60275e29fe2361ab97ac0ac217840d7,"Mozilla/5.0 (Macintosh; Intel Mac OS X 10_15_7) AppleWebKit/537.36 (KHTML, like Gecko) Chrome/134.0.0.0 Safari/537.36",Macintosh,Chrome,134.0.0.0,OS X,10_15_7,https://5puzkbbxv1.cognition.run/?sona_id=48708,"en-US,en;q=0.9,zh-TW;q=0.8,zh;q=0.7",x4vfum3skses5t8,24,"[""Asian""]",No,Female,Taiwan,No,647964.5999999046,NA,5375,NA,"{""product_choice"":""B""}",choice,wb,binary,catch,null,laptops,80,75,30,5,null,null,2,null,null,null,null,null,null,Processing speed,Memory (RAM),NA,NA
NA,NA,NA,NA,NA,choice_trial_setup,html-keyboard-response,12,100966,0.0-4.0-0.4,60,1,2025-04-28T19:15:21Z,b60275e29fe2361ab97ac0ac217840d7,"Mozilla/5.0 (Macintosh; Intel Mac OS X 10_15_7) AppleWebKit/537.36 (KHTML, like Gecko) Chrome/134.0.0.0 Safari/537.36",Macintosh,Chrome,134.0.0.0,OS X,10_15_7,https://5puzkbbxv1.cognition.run/?sona_id=48708,"en-US,en;q=0.9,zh-TW;q=0.8,zh;q=0.7",x4vfum3skses5t8,24,"[""Asian""]",No,Female,Taiwan,No,647964.5999999046,NA,null,<p></p>,null,choice,tc,binary,repulsion,2,washing machines,null,null,null,null,null,null,1,NA,NA,NA,NA,NA,NA,NA,NA,NA,NA
NA,NA,NA,NA,NA,choice_trial,survey-html-form,13,108029,0.0-4.0-1.4,60,1,2025-04-28T19:15:21Z,b60275e29fe2361ab97ac0ac217840d7,"Mozilla/5.0 (Macintosh; Intel Mac OS X 10_15_7) AppleWebKit/537.36 (KHTML, like Gecko) Chrome/134.0.0.0 Safari/537.36",Macintosh,Chrome,134.0.0.0,OS X,10_15_7,https://5puzkbbxv1.cognition.run/?sona_id=48708,"en-US,en;q=0.9,zh-TW;q=0.8,zh;q=0.7",x4vfum3skses5t8,24,"[""Asian""]",No,Female,Taiwan,No,647964.5999999046,NA,7060,NA,"{""product_choice"":""A""}",choice,tc,binary,repulsion,2,washing machines,null,null,null,null,null,null,1,30,40,null,100,90,null,Average lifespan,Energy savings,NA,NA
NA,NA,NA,NA,NA,choice_trial_setup,html-keyboard-response,14,108333,0.0-4.0-0.5,60,1,2025-04-28T19:15:21Z,b60275e29fe2361ab97ac0ac217840d7,"Mozilla/5.0 (Macintosh; Intel Mac OS X 10_15_7) AppleWebKit/537.36 (KHTML, like Gecko) Chrome/134.0.0.0 Safari/537.36",Macintosh,Chrome,134.0.0.0,OS X,10_15_7,https://5puzkbbxv1.cognition.run/?sona_id=48708,"en-US,en;q=0.9,zh-TW;q=0.8,zh;q=0.7",x4vfum3skses5t8,24,"[""Asian""]",No,Female,Taiwan,No,647964.5999999046,NA,null,<p></p>,null,choice,ct,binary,attraction,NA,microwave ovens,null,null,null,null,null,null,2,NA,NA,NA,NA,NA,NA,NA,NA,NA,NA
NA,NA,NA,NA,NA,choice_trial,survey-html-form,15,116094,0.0-4.0-1.5,60,1,2025-04-28T19:15:21Z,b60275e29fe2361ab97ac0ac217840d7,"Mozilla/5.0 (Macintosh; Intel Mac OS X 10_15_7) AppleWebKit/537.36 (KHTML, like Gecko) Chrome/134.0.0.0 Safari/537.36",Macintosh,Chrome,134.0.0.0,OS X,10_15_7,https://5puzkbbxv1.cognition.run/?sona_id=48708,"en-US,en;q=0.9,zh-TW;q=0.8,zh;q=0.7",x4vfum3skses5t8,24,"[""Asian""]",No,Female,Taiwan,No,647964.5999999046,NA,7758,NA,"{""product_choice"":""B""}",choice,ct,binary,attraction,NA,microwave ovens,null,null,null,null,null,null,2,60,50,null,50,60,null,Warranty,Cooking power,NA,NA
NA,NA,NA,NA,NA,choice_trial_setup,html-keyboard-response,16,116397,0.0-4.0-0.6,60,1,2025-04-28T19:15:21Z,b60275e29fe2361ab97ac0ac217840d7,"Mozilla/5.0 (Macintosh; Intel Mac OS X 10_15_7) AppleWebKit/537.36 (KHTML, like Gecko) Chrome/134.0.0.0 Safari/537.36",Macintosh,Chrome,134.0.0.0,OS X,10_15_7,https://5puzkbbxv1.cognition.run/?sona_id=48708,"en-US,en;q=0.9,zh-TW;q=0.8,zh;q=0.7",x4vfum3skses5t8,24,"[""Asian""]",No,Female,Taiwan,No,647964.5999999046,NA,null,<p></p>,null,choice,bw,binary,catch,null,microwave ovens,75,55,20,10,null,null,2,NA,NA,NA,NA,NA,NA,NA,NA,NA,NA
NA,NA,NA,NA,NA,choice_trial,survey-html-form,17,156129,0.0-4.0-1.6,60,1,2025-04-28T19:15:21Z,b60275e29fe2361ab97ac0ac217840d7,"Mozilla/5.0 (Macintosh; Intel Mac OS X 10_15_7) AppleWebKit/537.36 (KHTML, like Gecko) Chrome/134.0.0.0 Safari/537.36",Macintosh,Chrome,134.0.0.0,OS X,10_15_7,https://5puzkbbxv1.cognition.run/?sona_id=48708,"en-US,en;q=0.9,zh-TW;q=0.8,zh;q=0.7",x4vfum3skses5t8,24,"[""Asian""]",No,Female,Taiwan,No,647964.5999999046,NA,39731,NA,"{""product_choice"":""A""}",choice,bw,binary,catch,null,microwave ovens,75,55,20,10,null,null,2,null,null,null,null,null,null,Warranty,Cooking power,NA,NA
NA,NA,NA,NA,NA,choice_trial_setup,html-keyboard-response,18,156434,0.0-4.0-0.7,60,1,2025-04-28T19:15:21Z,b60275e29fe2361ab97ac0ac217840d7,"Mozilla/5.0 (Macintosh; Intel Mac OS X 10_15_7) AppleWebKit/537.36 (KHTML, like Gecko) Chrome/134.0.0.0 Safari/537.36",Macintosh,Chrome,134.0.0.0,OS X,10_15_7,https://5puzkbbxv1.cognition.run/?sona_id=48708,"en-US,en;q=0.9,zh-TW;q=0.8,zh;q=0.7",x4vfum3skses5t8,24,"[""Asian""]",No,Female,Taiwan,No,647964.5999999046,NA,null,<p></p>,null,choice,tcd,trinary,repulsion_A,2,laptops,null,null,null,null,null,null,2,NA,NA,NA,NA,NA,NA,NA,NA,NA,NA
NA,NA,NA,NA,NA,choice_trial,survey-html-form,19,167045,0.0-4.0-1.7,60,1,2025-04-28T19:15:21Z,b60275e29fe2361ab97ac0ac217840d7,"Mozilla/5.0 (Macintosh; Intel Mac OS X 10_15_7) AppleWebKit/537.36 (KHTML, like Gecko) Chrome/134.0.0.0 Safari/537.36",Macintosh,Chrome,134.0.0.0,OS X,10_15_7,https://5puzkbbxv1.cognition.run/?sona_id=48708,"en-US,en;q=0.9,zh-TW;q=0.8,zh;q=0.7",x4vfum3skses5t8,24,"[""Asian""]",No,Female,Taiwan,No,647964.5999999046,NA,10607,NA,"{""product_choice"":""B""}",choice,tcd,trinary,repulsion_A,2,laptops,null,null,null,null,null,null,2,30,40,20,100,90,100,Processing speed,Memory (RAM),NA,NA
NA,NA,NA,NA,NA,choice_trial_setup,html-keyboard-response,20,167349,0.0-4.0-0.8,60,1,2025-04-28T19:15:21Z,b60275e29fe2361ab97ac0ac217840d7,"Mozilla/5.0 (Macintosh; Intel Mac OS X 10_15_7) AppleWebKit/537.36 (KHTML, like Gecko) Chrome/134.0.0.0 Safari/537.36",Macintosh,Chrome,134.0.0.0,OS X,10_15_7,https://5puzkbbxv1.cognition.run/?sona_id=48708,"en-US,en;q=0.9,zh-TW;q=0.8,zh;q=0.7",x4vfum3skses5t8,24,"[""Asian""]",No,Female,Taiwan,No,647964.5999999046,NA,null,<p></p>,null,choice,wb,binary,catch,null,televisions,80,50,10,30,null,null,1,NA,NA,NA,NA,NA,NA,NA,NA,NA,NA
NA,NA,NA,NA,NA,choice_trial,survey-html-form,21,173046,0.0-4.0-1.8,60,1,2025-04-28T19:15:21Z,b60275e29fe2361ab97ac0ac217840d7,"Mozilla/5.0 (Macintosh; Intel Mac OS X 10_15_7) AppleWebKit/537.36 (KHTML, like Gecko) Chrome/134.0.0.0 Safari/537.36",Macintosh,Chrome,134.0.0.0,OS X,10_15_7,https://5puzkbbxv1.cognition.run/?sona_id=48708,"en-US,en;q=0.9,zh-TW;q=0.8,zh;q=0.7",x4vfum3skses5t8,24,"[""Asian""]",No,Female,Taiwan,No,647964.5999999046,NA,5693,NA,"{""product_choice"":""B""}",choice,wb,binary,catch,null,televisions,80,50,10,30,null,null,1,null,null,null,null,null,null,Screen size,Average lifespan,NA,NA
NA,NA,NA,NA,NA,choice_trial_setup,html-keyboard-response,22,173351,0.0-4.0-0.9,60,1,2025-04-28T19:15:21Z,b60275e29fe2361ab97ac0ac217840d7,"Mozilla/5.0 (Macintosh; Intel Mac OS X 10_15_7) AppleWebKit/537.36 (KHTML, like Gecko) Chrome/134.0.0.0 Safari/537.36",Macintosh,Chrome,134.0.0.0,OS X,10_15_7,https://5puzkbbxv1.cognition.run/?sona_id=48708,"en-US,en;q=0.9,zh-TW;q=0.8,zh;q=0.7",x4vfum3skses5t8,24,"[""Asian""]",No,Female,Taiwan,No,647964.5999999046,NA,null,<p></p>,null,choice,cdt,trinary,repulsion_A,1,microwave ovens,null,null,null,null,null,null,1,NA,NA,NA,NA,NA,NA,NA,NA,NA,NA
NA,NA,NA,NA,NA,choice_trial,survey-html-form,23,183144,0.0-4.0-1.9,60,1,2025-04-28T19:15:21Z,b60275e29fe2361ab97ac0ac217840d7,"Mozilla/5.0 (Macintosh; Intel Mac OS X 10_15_7) AppleWebKit/537.36 (KHTML, like Gecko) Chrome/134.0.0.0 Safari/537.36",Macintosh,Chrome,134.0.0.0,OS X,10_15_7,https://5puzkbbxv1.cognition.run/?sona_id=48708,"en-US,en;q=0.9,zh-TW;q=0.8,zh;q=0.7",x4vfum3skses5t8,24,"[""Asian""]",No,Female,Taiwan,No,647964.5999999046,NA,9791,NA,"{""product_choice"":""A""}",choice,cdt,trinary,repulsion_A,1,microwave ovens,null,null,null,null,null,null,1,100,90,100,30,40,20,Warranty,Cooking power,NA,NA
NA,NA,NA,NA,NA,choice_trial_setup,html-keyboard-response,24,183447,0.0-4.0-0.10,60,1,2025-04-28T19:15:21Z,b60275e29fe2361ab97ac0ac217840d7,"Mozilla/5.0 (Macintosh; Intel Mac OS X 10_15_7) AppleWebKit/537.36 (KHTML, like Gecko) Chrome/134.0.0.0 Safari/537.36",Macintosh,Chrome,134.0.0.0,OS X,10_15_7,https://5puzkbbxv1.cognition.run/?sona_id=48708,"en-US,en;q=0.9,zh-TW;q=0.8,zh;q=0.7",x4vfum3skses5t8,24,"[""Asian""]",No,Female,Taiwan,No,647964.5999999046,NA,null,<p></p>,null,choice,ct,binary,repulsion,1,microwave ovens,null,null,null,null,null,null,2,NA,NA,NA,NA,NA,NA,NA,NA,NA,NA
NA,NA,NA,NA,NA,choice_trial,survey-html-form,25,189711,0.0-4.0-1.10,60,1,2025-04-28T19:15:21Z,b60275e29fe2361ab97ac0ac217840d7,"Mozilla/5.0 (Macintosh; Intel Mac OS X 10_15_7) AppleWebKit/537.36 (KHTML, like Gecko) Chrome/134.0.0.0 Safari/537.36",Macintosh,Chrome,134.0.0.0,OS X,10_15_7,https://5puzkbbxv1.cognition.run/?sona_id=48708,"en-US,en;q=0.9,zh-TW;q=0.8,zh;q=0.7",x4vfum3skses5t8,24,"[""Asian""]",No,Female,Taiwan,No,647964.5999999046,NA,6260,NA,"{""product_choice"":""A""}",choice,ct,binary,repulsion,1,microwave ovens,null,null,null,null,null,null,2,100,90,null,30,40,null,Warranty,Cooking power,NA,NA
NA,NA,NA,NA,NA,choice_trial_setup,html-keyboard-response,26,190015,0.0-4.0-0.11,60,1,2025-04-28T19:15:21Z,b60275e29fe2361ab97ac0ac217840d7,"Mozilla/5.0 (Macintosh; Intel Mac OS X 10_15_7) AppleWebKit/537.36 (KHTML, like Gecko) Chrome/134.0.0.0 Safari/537.36",Macintosh,Chrome,134.0.0.0,OS X,10_15_7,https://5puzkbbxv1.cognition.run/?sona_id=48708,"en-US,en;q=0.9,zh-TW;q=0.8,zh;q=0.7",x4vfum3skses5t8,24,"[""Asian""]",No,Female,Taiwan,No,647964.5999999046,NA,null,<p></p>,null,choice,tcd,trinary,repulsion_A,2,microwave ovens,null,null,null,null,null,null,2,NA,NA,NA,NA,NA,NA,NA,NA,NA,NA
NA,NA,NA,NA,NA,choice_trial,survey-html-form,27,197829,0.0-4.0-1.11,60,1,2025-04-28T19:15:21Z,b60275e29fe2361ab97ac0ac217840d7,"Mozilla/5.0 (Macintosh; Intel Mac OS X 10_15_7) AppleWebKit/537.36 (KHTML, like Gecko) Chrome/134.0.0.0 Safari/537.36",Macintosh,Chrome,134.0.0.0,OS X,10_15_7,https://5puzkbbxv1.cognition.run/?sona_id=48708,"en-US,en;q=0.9,zh-TW;q=0.8,zh;q=0.7",x4vfum3skses5t8,24,"[""Asian""]",No,Female,Taiwan,No,647964.5999999046,NA,7808,NA,"{""product_choice"":""A""}",choice,tcd,trinary,repulsion_A,2,microwave ovens,null,null,null,null,null,null,2,30,40,20,100,90,100,Warranty,Cooking power,NA,NA
NA,NA,NA,NA,NA,choice_trial_setup,html-keyboard-response,28,198134,0.0-4.0-0.12,60,1,2025-04-28T19:15:21Z,b60275e29fe2361ab97ac0ac217840d7,"Mozilla/5.0 (Macintosh; Intel Mac OS X 10_15_7) AppleWebKit/537.36 (KHTML, like Gecko) Chrome/134.0.0.0 Safari/537.36",Macintosh,Chrome,134.0.0.0,OS X,10_15_7,https://5puzkbbxv1.cognition.run/?sona_id=48708,"en-US,en;q=0.9,zh-TW;q=0.8,zh;q=0.7",x4vfum3skses5t8,24,"[""Asian""]",No,Female,Taiwan,No,647964.5999999046,NA,null,<p></p>,null,choice,dct,trinary,repulsion_B,1,washing machines,null,null,null,null,null,null,1,NA,NA,NA,NA,NA,NA,NA,NA,NA,NA
NA,NA,NA,NA,NA,choice_trial,survey-html-form,29,206545,0.0-4.0-1.12,60,1,2025-04-28T19:15:21Z,b60275e29fe2361ab97ac0ac217840d7,"Mozilla/5.0 (Macintosh; Intel Mac OS X 10_15_7) AppleWebKit/537.36 (KHTML, like Gecko) Chrome/134.0.0.0 Safari/537.36",Macintosh,Chrome,134.0.0.0,OS X,10_15_7,https://5puzkbbxv1.cognition.run/?sona_id=48708,"en-US,en;q=0.9,zh-TW;q=0.8,zh;q=0.7",x4vfum3skses5t8,24,"[""Asian""]",No,Female,Taiwan,No,647964.5999999046,NA,8408,NA,"{""product_choice"":""C""}",choice,dct,trinary,repulsion_B,1,washing machines,null,null,null,null,null,null,1,90,100,80,40,30,40,Average lifespan,Energy savings,NA,NA
NA,NA,NA,NA,NA,choice_trial_setup,html-keyboard-response,30,206850,0.0-4.0-0.13,60,1,2025-04-28T19:15:21Z,b60275e29fe2361ab97ac0ac217840d7,"Mozilla/5.0 (Macintosh; Intel Mac OS X 10_15_7) AppleWebKit/537.36 (KHTML, like Gecko) Chrome/134.0.0.0 Safari/537.36",Macintosh,Chrome,134.0.0.0,OS X,10_15_7,https://5puzkbbxv1.cognition.run/?sona_id=48708,"en-US,en;q=0.9,zh-TW;q=0.8,zh;q=0.7",x4vfum3skses5t8,24,"[""Asian""]",No,Female,Taiwan,No,647964.5999999046,NA,null,<p></p>,null,choice,tdc,trinary,attraction,2,laptops,null,null,null,null,null,null,1,NA,NA,NA,NA,NA,NA,NA,NA,NA,NA
NA,NA,NA,NA,NA,choice_trial,survey-html-form,31,218343,0.0-4.0-1.13,60,1,2025-04-28T19:15:21Z,b60275e29fe2361ab97ac0ac217840d7,"Mozilla/5.0 (Macintosh; Intel Mac OS X 10_15_7) AppleWebKit/537.36 (KHTML, like Gecko) Chrome/134.0.0.0 Safari/537.36",Macintosh,Chrome,134.0.0.0,OS X,10_15_7,https://5puzkbbxv1.cognition.run/?sona_id=48708,"en-US,en;q=0.9,zh-TW;q=0.8,zh;q=0.7",x4vfum3skses5t8,24,"[""Asian""]",No,Female,Taiwan,No,647964.5999999046,NA,11489,NA,"{""product_choice"":""C""}",choice,tdc,trinary,attraction,2,laptops,null,null,null,null,null,null,1,50,60,40,60,50,60,Processing speed,Memory (RAM),NA,NA
NA,NA,NA,NA,NA,choice_trial_setup,html-keyboard-response,32,218646,0.0-4.0-0.14,60,1,2025-04-28T19:15:21Z,b60275e29fe2361ab97ac0ac217840d7,"Mozilla/5.0 (Macintosh; Intel Mac OS X 10_15_7) AppleWebKit/537.36 (KHTML, like Gecko) Chrome/134.0.0.0 Safari/537.36",Macintosh,Chrome,134.0.0.0,OS X,10_15_7,https://5puzkbbxv1.cognition.run/?sona_id=48708,"en-US,en;q=0.9,zh-TW;q=0.8,zh;q=0.7",x4vfum3skses5t8,24,"[""Asian""]",No,Female,Taiwan,No,647964.5999999046,NA,null,<p></p>,null,choice,tcd,trinary,repulsion_A,1,laptops,null,null,null,null,null,null,1,NA,NA,NA,NA,NA,NA,NA,NA,NA,NA
NA,NA,NA,NA,NA,choice_trial,survey-html-form,33,223662,0.0-4.0-1.14,60,1,2025-04-28T19:15:21Z,b60275e29fe2361ab97ac0ac217840d7,"Mozilla/5.0 (Macintosh; Intel Mac OS X 10_15_7) AppleWebKit/537.36 (KHTML, like Gecko) Chrome/134.0.0.0 Safari/537.36",Macintosh,Chrome,134.0.0.0,OS X,10_15_7,https://5puzkbbxv1.cognition.run/?sona_id=48708,"en-US,en;q=0.9,zh-TW;q=0.8,zh;q=0.7",x4vfum3skses5t8,24,"[""Asian""]",No,Female,Taiwan,No,647964.5999999046,NA,5015,NA,"{""product_choice"":""B""}",choice,tcd,trinary,repulsion_A,1,laptops,null,null,null,null,null,null,1,100,90,100,30,40,20,Processing speed,Memory (RAM),NA,NA
NA,NA,NA,NA,NA,choice_trial_setup,html-keyboard-response,34,223966,0.0-4.0-0.15,60,1,2025-04-28T19:15:21Z,b60275e29fe2361ab97ac0ac217840d7,"Mozilla/5.0 (Macintosh; Intel Mac OS X 10_15_7) AppleWebKit/537.36 (KHTML, like Gecko) Chrome/134.0.0.0 Safari/537.36",Macintosh,Chrome,134.0.0.0,OS X,10_15_7,https://5puzkbbxv1.cognition.run/?sona_id=48708,"en-US,en;q=0.9,zh-TW;q=0.8,zh;q=0.7",x4vfum3skses5t8,24,"[""Asian""]",No,Female,Taiwan,No,647964.5999999046,NA,null,<p></p>,null,choice,tc,binary,attraction,NA,televisions,null,null,null,null,null,null,1,NA,NA,NA,NA,NA,NA,NA,NA,NA,NA
NA,NA,NA,NA,NA,choice_trial,survey-html-form,35,233745,0.0-4.0-1.15,60,1,2025-04-28T19:15:21Z,b60275e29fe2361ab97ac0ac217840d7,"Mozilla/5.0 (Macintosh; Intel Mac OS X 10_15_7) AppleWebKit/537.36 (KHTML, like Gecko) Chrome/134.0.0.0 Safari/537.36",Macintosh,Chrome,134.0.0.0,OS X,10_15_7,https://5puzkbbxv1.cognition.run/?sona_id=48708,"en-US,en;q=0.9,zh-TW;q=0.8,zh;q=0.7",x4vfum3skses5t8,24,"[""Asian""]",No,Female,Taiwan,No,647964.5999999046,NA,9775,NA,"{""product_choice"":""A""}",choice,tc,binary,attraction,NA,televisions,null,null,null,null,null,null,1,60,50,null,50,60,null,Screen size,Average lifespan,NA,NA
NA,NA,NA,NA,NA,choice_trial_setup,html-keyboard-response,36,234051,0.0-4.0-0.16,60,1,2025-04-28T19:15:21Z,b60275e29fe2361ab97ac0ac217840d7,"Mozilla/5.0 (Macintosh; Intel Mac OS X 10_15_7) AppleWebKit/537.36 (KHTML, like Gecko) Chrome/134.0.0.0 Safari/537.36",Macintosh,Chrome,134.0.0.0,OS X,10_15_7,https://5puzkbbxv1.cognition.run/?sona_id=48708,"en-US,en;q=0.9,zh-TW;q=0.8,zh;q=0.7",x4vfum3skses5t8,24,"[""Asian""]",No,Female,Taiwan,No,647964.5999999046,NA,null,<p></p>,null,choice,wwb,trinary,catch,null,televisions,70,70,40,50,45,15,1,NA,NA,NA,NA,NA,NA,NA,NA,NA,NA
NA,NA,NA,NA,NA,choice_trial,survey-html-form,37,238645,0.0-4.0-1.16,60,1,2025-04-28T19:15:21Z,b60275e29fe2361ab97ac0ac217840d7,"Mozilla/5.0 (Macintosh; Intel Mac OS X 10_15_7) AppleWebKit/537.36 (KHTML, like Gecko) Chrome/134.0.0.0 Safari/537.36",Macintosh,Chrome,134.0.0.0,OS X,10_15_7,https://5puzkbbxv1.cognition.run/?sona_id=48708,"en-US,en;q=0.9,zh-TW;q=0.8,zh;q=0.7",x4vfum3skses5t8,24,"[""Asian""]",No,Female,Taiwan,No,647964.5999999046,NA,4589,NA,"{""product_choice"":""C""}",choice,wwb,trinary,catch,null,televisions,70,70,40,50,45,15,1,null,null,null,null,null,null,Screen size,Average lifespan,NA,NA
NA,NA,NA,NA,NA,choice_trial_setup,html-keyboard-response,38,238950,0.0-4.0-0.17,60,1,2025-04-28T19:15:21Z,b60275e29fe2361ab97ac0ac217840d7,"Mozilla/5.0 (Macintosh; Intel Mac OS X 10_15_7) AppleWebKit/537.36 (KHTML, like Gecko) Chrome/134.0.0.0 Safari/537.36",Macintosh,Chrome,134.0.0.0,OS X,10_15_7,https://5puzkbbxv1.cognition.run/?sona_id=48708,"en-US,en;q=0.9,zh-TW;q=0.8,zh;q=0.7",x4vfum3skses5t8,24,"[""Asian""]",No,Female,Taiwan,No,647964.5999999046,NA,null,<p></p>,null,choice,bww,trinary,catch,null,washing machines,70,95,25,20,35,10,1,NA,NA,NA,NA,NA,NA,NA,NA,NA,NA
NA,NA,NA,NA,NA,choice_trial,survey-html-form,39,245611,0.0-4.0-1.17,60,1,2025-04-28T19:15:21Z,b60275e29fe2361ab97ac0ac217840d7,"Mozilla/5.0 (Macintosh; Intel Mac OS X 10_15_7) AppleWebKit/537.36 (KHTML, like Gecko) Chrome/134.0.0.0 Safari/537.36",Macintosh,Chrome,134.0.0.0,OS X,10_15_7,https://5puzkbbxv1.cognition.run/?sona_id=48708,"en-US,en;q=0.9,zh-TW;q=0.8,zh;q=0.7",x4vfum3skses5t8,24,"[""Asian""]",No,Female,Taiwan,No,647964.5999999046,NA,6656,NA,"{""product_choice"":""A""}",choice,bww,trinary,catch,null,washing machines,70,95,25,20,35,10,1,null,null,null,null,null,null,Average lifespan,Energy savings,NA,NA
NA,NA,NA,NA,NA,choice_trial_setup,html-keyboard-response,40,245914,0.0-4.0-0.18,60,1,2025-04-28T19:15:21Z,b60275e29fe2361ab97ac0ac217840d7,"Mozilla/5.0 (Macintosh; Intel Mac OS X 10_15_7) AppleWebKit/537.36 (KHTML, like Gecko) Chrome/134.0.0.0 Safari/537.36",Macintosh,Chrome,134.0.0.0,OS X,10_15_7,https://5puzkbbxv1.cognition.run/?sona_id=48708,"en-US,en;q=0.9,zh-TW;q=0.8,zh;q=0.7",x4vfum3skses5t8,24,"[""Asian""]",No,Female,Taiwan,No,647964.5999999046,NA,null,<p></p>,null,choice,dct,trinary,repulsion_A,1,televisions,null,null,null,null,null,null,1,NA,NA,NA,NA,NA,NA,NA,NA,NA,NA
NA,NA,NA,NA,NA,choice_trial,survey-html-form,41,255828,0.0-4.0-1.18,60,1,2025-04-28T19:15:21Z,b60275e29fe2361ab97ac0ac217840d7,"Mozilla/5.0 (Macintosh; Intel Mac OS X 10_15_7) AppleWebKit/537.36 (KHTML, like Gecko) Chrome/134.0.0.0 Safari/537.36",Macintosh,Chrome,134.0.0.0,OS X,10_15_7,https://5puzkbbxv1.cognition.run/?sona_id=48708,"en-US,en;q=0.9,zh-TW;q=0.8,zh;q=0.7",x4vfum3skses5t8,24,"[""Asian""]",No,Female,Taiwan,No,647964.5999999046,NA,9909,NA,"{""product_choice"":""B""}",choice,dct,trinary,repulsion_A,1,televisions,null,null,null,null,null,null,1,100,90,100,30,40,20,Screen size,Average lifespan,NA,NA
NA,NA,NA,NA,NA,choice_trial_setup,html-keyboard-response,42,256133,0.0-4.0-0.19,60,1,2025-04-28T19:15:21Z,b60275e29fe2361ab97ac0ac217840d7,"Mozilla/5.0 (Macintosh; Intel Mac OS X 10_15_7) AppleWebKit/537.36 (KHTML, like Gecko) Chrome/134.0.0.0 Safari/537.36",Macintosh,Chrome,134.0.0.0,OS X,10_15_7,https://5puzkbbxv1.cognition.run/?sona_id=48708,"en-US,en;q=0.9,zh-TW;q=0.8,zh;q=0.7",x4vfum3skses5t8,24,"[""Asian""]",No,Female,Taiwan,No,647964.5999999046,NA,null,<p></p>,null,choice,bww,trinary,catch,null,laptops,80,60,20,20,10,25,1,NA,NA,NA,NA,NA,NA,NA,NA,NA,NA
NA,NA,NA,NA,NA,choice_trial,survey-html-form,43,260712,0.0-4.0-1.19,60,1,2025-04-28T19:15:21Z,b60275e29fe2361ab97ac0ac217840d7,"Mozilla/5.0 (Macintosh; Intel Mac OS X 10_15_7) AppleWebKit/537.36 (KHTML, like Gecko) Chrome/134.0.0.0 Safari/537.36",Macintosh,Chrome,134.0.0.0,OS X,10_15_7,https://5puzkbbxv1.cognition.run/?sona_id=48708,"en-US,en;q=0.9,zh-TW;q=0.8,zh;q=0.7",x4vfum3skses5t8,24,"[""Asian""]",No,Female,Taiwan,No,647964.5999999046,NA,4575,NA,"{""product_choice"":""A""}",choice,bww,trinary,catch,null,laptops,80,60,20,20,10,25,1,null,null,null,null,null,null,Processing speed,Memory (RAM),NA,NA
NA,NA,NA,NA,NA,choice_trial_setup,html-keyboard-response,44,261018,0.0-4.0-0.20,60,1,2025-04-28T19:15:21Z,b60275e29fe2361ab97ac0ac217840d7,"Mozilla/5.0 (Macintosh; Intel Mac OS X 10_15_7) AppleWebKit/537.36 (KHTML, like Gecko) Chrome/134.0.0.0 Safari/537.36",Macintosh,Chrome,134.0.0.0,OS X,10_15_7,https://5puzkbbxv1.cognition.run/?sona_id=48708,"en-US,en;q=0.9,zh-TW;q=0.8,zh;q=0.7",x4vfum3skses5t8,24,"[""Asian""]",No,Female,Taiwan,No,647964.5999999046,NA,null,<p></p>,null,choice,wb,binary,catch,null,washing machines,75,65,40,35,null,null,2,NA,NA,NA,NA,NA,NA,NA,NA,NA,NA
NA,NA,NA,NA,NA,choice_trial,survey-html-form,45,266845,0.0-4.0-1.20,60,1,2025-04-28T19:15:21Z,b60275e29fe2361ab97ac0ac217840d7,"Mozilla/5.0 (Macintosh; Intel Mac OS X 10_15_7) AppleWebKit/537.36 (KHTML, like Gecko) Chrome/134.0.0.0 Safari/537.36",Macintosh,Chrome,134.0.0.0,OS X,10_15_7,https://5puzkbbxv1.cognition.run/?sona_id=48708,"en-US,en;q=0.9,zh-TW;q=0.8,zh;q=0.7",x4vfum3skses5t8,24,"[""Asian""]",No,Female,Taiwan,No,647964.5999999046,NA,5822,NA,"{""product_choice"":""B""}",choice,wb,binary,catch,null,washing machines,75,65,40,35,null,null,2,null,null,null,null,null,null,Average lifespan,Energy savings,NA,NA
NA,NA,NA,NA,NA,choice_trial_setup,html-keyboard-response,46,267150,0.0-4.0-0.21,60,1,2025-04-28T19:15:21Z,b60275e29fe2361ab97ac0ac217840d7,"Mozilla/5.0 (Macintosh; Intel Mac OS X 10_15_7) AppleWebKit/537.36 (KHTML, like Gecko) Chrome/134.0.0.0 Safari/537.36",Macintosh,Chrome,134.0.0.0,OS X,10_15_7,https://5puzkbbxv1.cognition.run/?sona_id=48708,"en-US,en;q=0.9,zh-TW;q=0.8,zh;q=0.7",x4vfum3skses5t8,24,"[""Asian""]",No,Female,Taiwan,No,647964.5999999046,NA,null,<p></p>,null,choice,dtc,trinary,attraction,1,microwave ovens,null,null,null,null,null,null,2,NA,NA,NA,NA,NA,NA,NA,NA,NA,NA
NA,NA,NA,NA,NA,choice_trial,survey-html-form,47,279794,0.0-4.0-1.21,60,1,2025-04-28T19:15:21Z,b60275e29fe2361ab97ac0ac217840d7,"Mozilla/5.0 (Macintosh; Intel Mac OS X 10_15_7) AppleWebKit/537.36 (KHTML, like Gecko) Chrome/134.0.0.0 Safari/537.36",Macintosh,Chrome,134.0.0.0,OS X,10_15_7,https://5puzkbbxv1.cognition.run/?sona_id=48708,"en-US,en;q=0.9,zh-TW;q=0.8,zh;q=0.7",x4vfum3skses5t8,24,"[""Asian""]",No,Female,Taiwan,No,647964.5999999046,NA,12640,NA,"{""product_choice"":""C""}",choice,dtc,trinary,attraction,1,microwave ovens,null,null,null,null,null,null,2,60,50,60,50,60,40,Warranty,Cooking power,NA,NA
NA,NA,NA,NA,NA,choice_trial_setup,html-keyboard-response,48,280099,0.0-4.0-0.22,60,1,2025-04-28T19:15:21Z,b60275e29fe2361ab97ac0ac217840d7,"Mozilla/5.0 (Macintosh; Intel Mac OS X 10_15_7) AppleWebKit/537.36 (KHTML, like Gecko) Chrome/134.0.0.0 Safari/537.36",Macintosh,Chrome,134.0.0.0,OS X,10_15_7,https://5puzkbbxv1.cognition.run/?sona_id=48708,"en-US,en;q=0.9,zh-TW;q=0.8,zh;q=0.7",x4vfum3skses5t8,24,"[""Asian""]",No,Female,Taiwan,No,647964.5999999046,NA,null,<p></p>,null,choice,tc,binary,repulsion,2,microwave ovens,null,null,null,null,null,null,1,NA,NA,NA,NA,NA,NA,NA,NA,NA,NA
NA,NA,NA,NA,NA,choice_trial,survey-html-form,49,287377,0.0-4.0-1.22,60,1,2025-04-28T19:15:21Z,b60275e29fe2361ab97ac0ac217840d7,"Mozilla/5.0 (Macintosh; Intel Mac OS X 10_15_7) AppleWebKit/537.36 (KHTML, like Gecko) Chrome/134.0.0.0 Safari/537.36",Macintosh,Chrome,134.0.0.0,OS X,10_15_7,https://5puzkbbxv1.cognition.run/?sona_id=48708,"en-US,en;q=0.9,zh-TW;q=0.8,zh;q=0.7",x4vfum3skses5t8,24,"[""Asian""]",No,Female,Taiwan,No,647964.5999999046,NA,7273,NA,"{""product_choice"":""B""}",choice,tc,binary,repulsion,2,microwave ovens,null,null,null,null,null,null,1,30,40,null,100,90,null,Warranty,Cooking power,NA,NA
NA,NA,NA,NA,NA,choice_trial_setup,html-keyboard-response,50,287680,0.0-4.0-0.23,60,1,2025-04-28T19:15:21Z,b60275e29fe2361ab97ac0ac217840d7,"Mozilla/5.0 (Macintosh; Intel Mac OS X 10_15_7) AppleWebKit/537.36 (KHTML, like Gecko) Chrome/134.0.0.0 Safari/537.36",Macintosh,Chrome,134.0.0.0,OS X,10_15_7,https://5puzkbbxv1.cognition.run/?sona_id=48708,"en-US,en;q=0.9,zh-TW;q=0.8,zh;q=0.7",x4vfum3skses5t8,24,"[""Asian""]",No,Female,Taiwan,No,647964.5999999046,NA,null,<p></p>,null,choice,dtc,trinary,repulsion_B,2,laptops,null,null,null,null,null,null,2,NA,NA,NA,NA,NA,NA,NA,NA,NA,NA
NA,NA,NA,NA,NA,choice_trial,survey-html-form,51,295647,0.0-4.0-1.23,60,1,2025-04-28T19:15:21Z,b60275e29fe2361ab97ac0ac217840d7,"Mozilla/5.0 (Macintosh; Intel Mac OS X 10_15_7) AppleWebKit/537.36 (KHTML, like Gecko) Chrome/134.0.0.0 Safari/537.36",Macintosh,Chrome,134.0.0.0,OS X,10_15_7,https://5puzkbbxv1.cognition.run/?sona_id=48708,"en-US,en;q=0.9,zh-TW;q=0.8,zh;q=0.7",x4vfum3skses5t8,24,"[""Asian""]",No,Female,Taiwan,No,647964.5999999046,NA,7962,NA,"{""product_choice"":""B""}",choice,dtc,trinary,repulsion_B,2,laptops,null,null,null,null,null,null,2,40,30,40,90,100,80,Processing speed,Memory (RAM),NA,NA
NA,NA,NA,NA,NA,choice_trial_setup,html-keyboard-response,52,295955,0.0-4.0-0.24,60,1,2025-04-28T19:15:21Z,b60275e29fe2361ab97ac0ac217840d7,"Mozilla/5.0 (Macintosh; Intel Mac OS X 10_15_7) AppleWebKit/537.36 (KHTML, like Gecko) Chrome/134.0.0.0 Safari/537.36",Macintosh,Chrome,134.0.0.0,OS X,10_15_7,https://5puzkbbxv1.cognition.run/?sona_id=48708,"en-US,en;q=0.9,zh-TW;q=0.8,zh;q=0.7",x4vfum3skses5t8,24,"[""Asian""]",No,Female,Taiwan,No,647964.5999999046,NA,null,<p></p>,null,choice,ct,binary,repulsion,2,laptops,null,null,null,null,null,null,2,NA,NA,NA,NA,NA,NA,NA,NA,NA,NA
NA,NA,NA,NA,NA,choice_trial,survey-html-form,53,304128,0.0-4.0-1.24,60,1,2025-04-28T19:15:21Z,b60275e29fe2361ab97ac0ac217840d7,"Mozilla/5.0 (Macintosh; Intel Mac OS X 10_15_7) AppleWebKit/537.36 (KHTML, like Gecko) Chrome/134.0.0.0 Safari/537.36",Macintosh,Chrome,134.0.0.0,OS X,10_15_7,https://5puzkbbxv1.cognition.run/?sona_id=48708,"en-US,en;q=0.9,zh-TW;q=0.8,zh;q=0.7",x4vfum3skses5t8,24,"[""Asian""]",No,Female,Taiwan,No,647964.5999999046,NA,8172,NA,"{""product_choice"":""A""}",choice,ct,binary,repulsion,2,laptops,null,null,null,null,null,null,2,30,40,null,100,90,null,Processing speed,Memory (RAM),NA,NA
NA,NA,NA,NA,NA,choice_trial_setup,html-keyboard-response,54,304433,0.0-4.0-0.25,60,1,2025-04-28T19:15:21Z,b60275e29fe2361ab97ac0ac217840d7,"Mozilla/5.0 (Macintosh; Intel Mac OS X 10_15_7) AppleWebKit/537.36 (KHTML, like Gecko) Chrome/134.0.0.0 Safari/537.36",Macintosh,Chrome,134.0.0.0,OS X,10_15_7,https://5puzkbbxv1.cognition.run/?sona_id=48708,"en-US,en;q=0.9,zh-TW;q=0.8,zh;q=0.7",x4vfum3skses5t8,24,"[""Asian""]",No,Female,Taiwan,No,647964.5999999046,NA,null,<p></p>,null,choice,tcd,trinary,repulsion_B,1,laptops,null,null,null,null,null,null,2,NA,NA,NA,NA,NA,NA,NA,NA,NA,NA
NA,NA,NA,NA,NA,choice_trial,survey-html-form,55,314779,0.0-4.0-1.25,60,1,2025-04-28T19:15:21Z,b60275e29fe2361ab97ac0ac217840d7,"Mozilla/5.0 (Macintosh; Intel Mac OS X 10_15_7) AppleWebKit/537.36 (KHTML, like Gecko) Chrome/134.0.0.0 Safari/537.36",Macintosh,Chrome,134.0.0.0,OS X,10_15_7,https://5puzkbbxv1.cognition.run/?sona_id=48708,"en-US,en;q=0.9,zh-TW;q=0.8,zh;q=0.7",x4vfum3skses5t8,24,"[""Asian""]",No,Female,Taiwan,No,647964.5999999046,NA,10340,NA,"{""product_choice"":""A""}",choice,tcd,trinary,repulsion_B,1,laptops,null,null,null,null,null,null,2,90,100,80,40,30,40,Processing speed,Memory (RAM),NA,NA
NA,NA,NA,NA,NA,choice_trial_setup,html-keyboard-response,56,315084,0.0-4.0-0.26,60,1,2025-04-28T19:15:21Z,b60275e29fe2361ab97ac0ac217840d7,"Mozilla/5.0 (Macintosh; Intel Mac OS X 10_15_7) AppleWebKit/537.36 (KHTML, like Gecko) Chrome/134.0.0.0 Safari/537.36",Macintosh,Chrome,134.0.0.0,OS X,10_15_7,https://5puzkbbxv1.cognition.run/?sona_id=48708,"en-US,en;q=0.9,zh-TW;q=0.8,zh;q=0.7",x4vfum3skses5t8,24,"[""Asian""]",No,Female,Taiwan,No,647964.5999999046,NA,null,<p></p>,null,choice,dtc,trinary,attraction,1,washing machines,null,null,null,null,null,null,1,NA,NA,NA,NA,NA,NA,NA,NA,NA,NA
NA,NA,NA,NA,NA,choice_trial,survey-html-form,57,334995,0.0-4.0-1.26,60,1,2025-04-28T19:15:21Z,b60275e29fe2361ab97ac0ac217840d7,"Mozilla/5.0 (Macintosh; Intel Mac OS X 10_15_7) AppleWebKit/537.36 (KHTML, like Gecko) Chrome/134.0.0.0 Safari/537.36",Macintosh,Chrome,134.0.0.0,OS X,10_15_7,https://5puzkbbxv1.cognition.run/?sona_id=48708,"en-US,en;q=0.9,zh-TW;q=0.8,zh;q=0.7",x4vfum3skses5t8,24,"[""Asian""]",No,Female,Taiwan,No,647964.5999999046,NA,19906,NA,"{""product_choice"":""C""}",choice,dtc,trinary,attraction,1,washing machines,null,null,null,null,null,null,1,60,50,60,50,60,40,Average lifespan,Energy savings,NA,NA
NA,NA,NA,NA,NA,choice_trial_setup,html-keyboard-response,58,335301,0.0-4.0-0.27,60,1,2025-04-28T19:15:21Z,b60275e29fe2361ab97ac0ac217840d7,"Mozilla/5.0 (Macintosh; Intel Mac OS X 10_15_7) AppleWebKit/537.36 (KHTML, like Gecko) Chrome/134.0.0.0 Safari/537.36",Macintosh,Chrome,134.0.0.0,OS X,10_15_7,https://5puzkbbxv1.cognition.run/?sona_id=48708,"en-US,en;q=0.9,zh-TW;q=0.8,zh;q=0.7",x4vfum3skses5t8,24,"[""Asian""]",No,Female,Taiwan,No,647964.5999999046,NA,null,<p></p>,null,choice,tc,binary,attraction,NA,washing machines,null,null,null,null,null,null,2,NA,NA,NA,NA,NA,NA,NA,NA,NA,NA
NA,NA,NA,NA,NA,choice_trial,survey-html-form,59,350095,0.0-4.0-1.27,60,1,2025-04-28T19:15:21Z,b60275e29fe2361ab97ac0ac217840d7,"Mozilla/5.0 (Macintosh; Intel Mac OS X 10_15_7) AppleWebKit/537.36 (KHTML, like Gecko) Chrome/134.0.0.0 Safari/537.36",Macintosh,Chrome,134.0.0.0,OS X,10_15_7,https://5puzkbbxv1.cognition.run/?sona_id=48708,"en-US,en;q=0.9,zh-TW;q=0.8,zh;q=0.7",x4vfum3skses5t8,24,"[""Asian""]",No,Female,Taiwan,No,647964.5999999046,NA,14788,NA,"{""product_choice"":""B""}",choice,tc,binary,attraction,NA,washing machines,null,null,null,null,null,null,2,60,50,null,50,60,null,Average lifespan,Energy savings,NA,NA
NA,NA,NA,NA,NA,choice_trial_setup,html-keyboard-response,60,350400,0.0-4.0-0.28,60,1,2025-04-28T19:15:21Z,b60275e29fe2361ab97ac0ac217840d7,"Mozilla/5.0 (Macintosh; Intel Mac OS X 10_15_7) AppleWebKit/537.36 (KHTML, like Gecko) Chrome/134.0.0.0 Safari/537.36",Macintosh,Chrome,134.0.0.0,OS X,10_15_7,https://5puzkbbxv1.cognition.run/?sona_id=48708,"en-US,en;q=0.9,zh-TW;q=0.8,zh;q=0.7",x4vfum3skses5t8,24,"[""Asian""]",No,Female,Taiwan,No,647964.5999999046,NA,null,<p></p>,null,choice,tcd,trinary,repulsion_A,2,washing machines,null,null,null,null,null,null,2,NA,NA,NA,NA,NA,NA,NA,NA,NA,NA
NA,NA,NA,NA,NA,choice_trial,survey-html-form,61,359796,0.0-4.0-1.28,60,1,2025-04-28T19:15:21Z,b60275e29fe2361ab97ac0ac217840d7,"Mozilla/5.0 (Macintosh; Intel Mac OS X 10_15_7) AppleWebKit/537.36 (KHTML, like Gecko) Chrome/134.0.0.0 Safari/537.36",Macintosh,Chrome,134.0.0.0,OS X,10_15_7,https://5puzkbbxv1.cognition.run/?sona_id=48708,"en-US,en;q=0.9,zh-TW;q=0.8,zh;q=0.7",x4vfum3skses5t8,24,"[""Asian""]",No,Female,Taiwan,No,647964.5999999046,NA,9389,NA,"{""product_choice"":""A""}",choice,tcd,trinary,repulsion_A,2,washing machines,null,null,null,null,null,null,2,30,40,20,100,90,100,Average lifespan,Energy savings,NA,NA
NA,NA,NA,NA,NA,choice_trial_setup,html-keyboard-response,62,360103,0.0-4.0-0.29,60,1,2025-04-28T19:15:21Z,b60275e29fe2361ab97ac0ac217840d7,"Mozilla/5.0 (Macintosh; Intel Mac OS X 10_15_7) AppleWebKit/537.36 (KHTML, like Gecko) Chrome/134.0.0.0 Safari/537.36",Macintosh,Chrome,134.0.0.0,OS X,10_15_7,https://5puzkbbxv1.cognition.run/?sona_id=48708,"en-US,en;q=0.9,zh-TW;q=0.8,zh;q=0.7",x4vfum3skses5t8,24,"[""Asian""]",No,Female,Taiwan,No,647964.5999999046,NA,null,<p></p>,null,choice,dtc,trinary,repulsion_B,2,washing machines,null,null,null,null,null,null,2,NA,NA,NA,NA,NA,NA,NA,NA,NA,NA
NA,NA,NA,NA,NA,choice_trial,survey-html-form,63,379646,0.0-4.0-1.29,60,1,2025-04-28T19:15:21Z,b60275e29fe2361ab97ac0ac217840d7,"Mozilla/5.0 (Macintosh; Intel Mac OS X 10_15_7) AppleWebKit/537.36 (KHTML, like Gecko) Chrome/134.0.0.0 Safari/537.36",Macintosh,Chrome,134.0.0.0,OS X,10_15_7,https://5puzkbbxv1.cognition.run/?sona_id=48708,"en-US,en;q=0.9,zh-TW;q=0.8,zh;q=0.7",x4vfum3skses5t8,24,"[""Asian""]",No,Female,Taiwan,No,647964.5999999046,NA,19539,NA,"{""product_choice"":""B""}",choice,dtc,trinary,repulsion_B,2,washing machines,null,null,null,null,null,null,2,40,30,40,90,100,80,Average lifespan,Energy savings,NA,NA
NA,NA,NA,NA,NA,choice_trial_setup,html-keyboard-response,64,379951,0.0-4.0-0.30,60,1,2025-04-28T19:15:21Z,b60275e29fe2361ab97ac0ac217840d7,"Mozilla/5.0 (Macintosh; Intel Mac OS X 10_15_7) AppleWebKit/537.36 (KHTML, like Gecko) Chrome/134.0.0.0 Safari/537.36",Macintosh,Chrome,134.0.0.0,OS X,10_15_7,https://5puzkbbxv1.cognition.run/?sona_id=48708,"en-US,en;q=0.9,zh-TW;q=0.8,zh;q=0.7",x4vfum3skses5t8,24,"[""Asian""]",No,Female,Taiwan,No,647964.5999999046,NA,null,<p></p>,null,choice,tcd,trinary,repulsion_B,2,microwave ovens,null,null,null,null,null,null,1,NA,NA,NA,NA,NA,NA,NA,NA,NA,NA
NA,NA,NA,NA,NA,choice_trial,survey-html-form,65,385044,0.0-4.0-1.30,60,1,2025-04-28T19:15:21Z,b60275e29fe2361ab97ac0ac217840d7,"Mozilla/5.0 (Macintosh; Intel Mac OS X 10_15_7) AppleWebKit/537.36 (KHTML, like Gecko) Chrome/134.0.0.0 Safari/537.36",Macintosh,Chrome,134.0.0.0,OS X,10_15_7,https://5puzkbbxv1.cognition.run/?sona_id=48708,"en-US,en;q=0.9,zh-TW;q=0.8,zh;q=0.7",x4vfum3skses5t8,24,"[""Asian""]",No,Female,Taiwan,No,647964.5999999046,NA,5087,NA,"{""product_choice"":""A""}",choice,tcd,trinary,repulsion_B,2,microwave ovens,null,null,null,null,null,null,1,40,30,40,90,100,80,Warranty,Cooking power,NA,NA
NA,NA,NA,NA,NA,choice_trial_setup,html-keyboard-response,66,385350,0.0-4.0-0.31,60,1,2025-04-28T19:15:21Z,b60275e29fe2361ab97ac0ac217840d7,"Mozilla/5.0 (Macintosh; Intel Mac OS X 10_15_7) AppleWebKit/537.36 (KHTML, like Gecko) Chrome/134.0.0.0 Safari/537.36",Macintosh,Chrome,134.0.0.0,OS X,10_15_7,https://5puzkbbxv1.cognition.run/?sona_id=48708,"en-US,en;q=0.9,zh-TW;q=0.8,zh;q=0.7",x4vfum3skses5t8,24,"[""Asian""]",No,Female,Taiwan,No,647964.5999999046,NA,null,<p></p>,null,choice,tc,binary,repulsion,1,televisions,null,null,null,null,null,null,1,NA,NA,NA,NA,NA,NA,NA,NA,NA,NA
NA,NA,NA,NA,NA,choice_trial,survey-html-form,67,396644,0.0-4.0-1.31,60,1,2025-04-28T19:15:21Z,b60275e29fe2361ab97ac0ac217840d7,"Mozilla/5.0 (Macintosh; Intel Mac OS X 10_15_7) AppleWebKit/537.36 (KHTML, like Gecko) Chrome/134.0.0.0 Safari/537.36",Macintosh,Chrome,134.0.0.0,OS X,10_15_7,https://5puzkbbxv1.cognition.run/?sona_id=48708,"en-US,en;q=0.9,zh-TW;q=0.8,zh;q=0.7",x4vfum3skses5t8,24,"[""Asian""]",No,Female,Taiwan,No,647964.5999999046,NA,11288,NA,"{""product_choice"":""A""}",choice,tc,binary,repulsion,1,televisions,null,null,null,null,null,null,1,100,90,null,30,40,null,Screen size,Average lifespan,NA,NA
NA,NA,NA,NA,NA,choice_trial_setup,html-keyboard-response,68,396950,0.0-4.0-0.32,60,1,2025-04-28T19:15:21Z,b60275e29fe2361ab97ac0ac217840d7,"Mozilla/5.0 (Macintosh; Intel Mac OS X 10_15_7) AppleWebKit/537.36 (KHTML, like Gecko) Chrome/134.0.0.0 Safari/537.36",Macintosh,Chrome,134.0.0.0,OS X,10_15_7,https://5puzkbbxv1.cognition.run/?sona_id=48708,"en-US,en;q=0.9,zh-TW;q=0.8,zh;q=0.7",x4vfum3skses5t8,24,"[""Asian""]",No,Female,Taiwan,No,647964.5999999046,NA,null,<p></p>,null,choice,dct,trinary,attraction,2,washing machines,null,null,null,null,null,null,2,NA,NA,NA,NA,NA,NA,NA,NA,NA,NA
NA,NA,NA,NA,NA,choice_trial,survey-html-form,69,414128,0.0-4.0-1.32,60,1,2025-04-28T19:15:21Z,b60275e29fe2361ab97ac0ac217840d7,"Mozilla/5.0 (Macintosh; Intel Mac OS X 10_15_7) AppleWebKit/537.36 (KHTML, like Gecko) Chrome/134.0.0.0 Safari/537.36",Macintosh,Chrome,134.0.0.0,OS X,10_15_7,https://5puzkbbxv1.cognition.run/?sona_id=48708,"en-US,en;q=0.9,zh-TW;q=0.8,zh;q=0.7",x4vfum3skses5t8,24,"[""Asian""]",No,Female,Taiwan,No,647964.5999999046,NA,17174,NA,"{""product_choice"":""C""}",choice,dct,trinary,attraction,2,washing machines,null,null,null,null,null,null,2,50,60,40,60,50,60,Average lifespan,Energy savings,NA,NA
NA,NA,NA,NA,NA,choice_trial_setup,html-keyboard-response,70,414436,0.0-4.0-0.33,60,1,2025-04-28T19:15:21Z,b60275e29fe2361ab97ac0ac217840d7,"Mozilla/5.0 (Macintosh; Intel Mac OS X 10_15_7) AppleWebKit/537.36 (KHTML, like Gecko) Chrome/134.0.0.0 Safari/537.36",Macintosh,Chrome,134.0.0.0,OS X,10_15_7,https://5puzkbbxv1.cognition.run/?sona_id=48708,"en-US,en;q=0.9,zh-TW;q=0.8,zh;q=0.7",x4vfum3skses5t8,24,"[""Asian""]",No,Female,Taiwan,No,647964.5999999046,NA,null,<p></p>,null,choice,tdc,trinary,attraction,2,microwave ovens,null,null,null,null,null,null,1,NA,NA,NA,NA,NA,NA,NA,NA,NA,NA
NA,NA,NA,NA,NA,choice_trial,survey-html-form,71,424192,0.0-4.0-1.33,60,1,2025-04-28T19:15:21Z,b60275e29fe2361ab97ac0ac217840d7,"Mozilla/5.0 (Macintosh; Intel Mac OS X 10_15_7) AppleWebKit/537.36 (KHTML, like Gecko) Chrome/134.0.0.0 Safari/537.36",Macintosh,Chrome,134.0.0.0,OS X,10_15_7,https://5puzkbbxv1.cognition.run/?sona_id=48708,"en-US,en;q=0.9,zh-TW;q=0.8,zh;q=0.7",x4vfum3skses5t8,24,"[""Asian""]",No,Female,Taiwan,No,647964.5999999046,NA,9751,NA,"{""product_choice"":""A""}",choice,tdc,trinary,attraction,2,microwave ovens,null,null,null,null,null,null,1,50,60,40,60,50,60,Warranty,Cooking power,NA,NA
NA,NA,NA,NA,NA,choice_trial_setup,html-keyboard-response,72,424497,0.0-4.0-0.34,60,1,2025-04-28T19:15:21Z,b60275e29fe2361ab97ac0ac217840d7,"Mozilla/5.0 (Macintosh; Intel Mac OS X 10_15_7) AppleWebKit/537.36 (KHTML, like Gecko) Chrome/134.0.0.0 Safari/537.36",Macintosh,Chrome,134.0.0.0,OS X,10_15_7,https://5puzkbbxv1.cognition.run/?sona_id=48708,"en-US,en;q=0.9,zh-TW;q=0.8,zh;q=0.7",x4vfum3skses5t8,24,"[""Asian""]",No,Female,Taiwan,No,647964.5999999046,NA,null,<p></p>,null,choice,cdt,trinary,repulsion_B,2,televisions,null,null,null,null,null,null,2,NA,NA,NA,NA,NA,NA,NA,NA,NA,NA
NA,NA,NA,NA,NA,choice_trial,survey-html-form,73,434992,0.0-4.0-1.34,60,1,2025-04-28T19:15:21Z,b60275e29fe2361ab97ac0ac217840d7,"Mozilla/5.0 (Macintosh; Intel Mac OS X 10_15_7) AppleWebKit/537.36 (KHTML, like Gecko) Chrome/134.0.0.0 Safari/537.36",Macintosh,Chrome,134.0.0.0,OS X,10_15_7,https://5puzkbbxv1.cognition.run/?sona_id=48708,"en-US,en;q=0.9,zh-TW;q=0.8,zh;q=0.7",x4vfum3skses5t8,24,"[""Asian""]",No,Female,Taiwan,No,647964.5999999046,NA,10493,NA,"{""product_choice"":""C""}",choice,cdt,trinary,repulsion_B,2,televisions,null,null,null,null,null,null,2,40,30,40,90,100,80,Screen size,Average lifespan,NA,NA
NA,NA,NA,NA,NA,choice_trial_setup,html-keyboard-response,74,435295,0.0-4.0-0.35,60,1,2025-04-28T19:15:21Z,b60275e29fe2361ab97ac0ac217840d7,"Mozilla/5.0 (Macintosh; Intel Mac OS X 10_15_7) AppleWebKit/537.36 (KHTML, like Gecko) Chrome/134.0.0.0 Safari/537.36",Macintosh,Chrome,134.0.0.0,OS X,10_15_7,https://5puzkbbxv1.cognition.run/?sona_id=48708,"en-US,en;q=0.9,zh-TW;q=0.8,zh;q=0.7",x4vfum3skses5t8,24,"[""Asian""]",No,Female,Taiwan,No,647964.5999999046,NA,null,<p></p>,null,choice,tc,binary,attraction,NA,laptops,null,null,null,null,null,null,2,NA,NA,NA,NA,NA,NA,NA,NA,NA,NA
NA,NA,NA,NA,NA,choice_trial,survey-html-form,75,442445,0.0-4.0-1.35,60,1,2025-04-28T19:15:21Z,b60275e29fe2361ab97ac0ac217840d7,"Mozilla/5.0 (Macintosh; Intel Mac OS X 10_15_7) AppleWebKit/537.36 (KHTML, like Gecko) Chrome/134.0.0.0 Safari/537.36",Macintosh,Chrome,134.0.0.0,OS X,10_15_7,https://5puzkbbxv1.cognition.run/?sona_id=48708,"en-US,en;q=0.9,zh-TW;q=0.8,zh;q=0.7",x4vfum3skses5t8,24,"[""Asian""]",No,Female,Taiwan,No,647964.5999999046,NA,7147,NA,"{""product_choice"":""A""}",choice,tc,binary,attraction,NA,laptops,null,null,null,null,null,null,2,60,50,null,50,60,null,Processing speed,Memory (RAM),NA,NA
NA,NA,NA,NA,NA,choice_trial_setup,html-keyboard-response,76,442752,0.0-4.0-0.36,60,1,2025-04-28T19:15:21Z,b60275e29fe2361ab97ac0ac217840d7,"Mozilla/5.0 (Macintosh; Intel Mac OS X 10_15_7) AppleWebKit/537.36 (KHTML, like Gecko) Chrome/134.0.0.0 Safari/537.36",Macintosh,Chrome,134.0.0.0,OS X,10_15_7,https://5puzkbbxv1.cognition.run/?sona_id=48708,"en-US,en;q=0.9,zh-TW;q=0.8,zh;q=0.7",x4vfum3skses5t8,24,"[""Asian""]",No,Female,Taiwan,No,647964.5999999046,NA,null,<p></p>,null,choice,tcd,trinary,repulsion_B,1,televisions,null,null,null,null,null,null,1,NA,NA,NA,NA,NA,NA,NA,NA,NA,NA
NA,NA,NA,NA,NA,choice_trial,survey-html-form,77,449544,0.0-4.0-1.36,60,1,2025-04-28T19:15:21Z,b60275e29fe2361ab97ac0ac217840d7,"Mozilla/5.0 (Macintosh; Intel Mac OS X 10_15_7) AppleWebKit/537.36 (KHTML, like Gecko) Chrome/134.0.0.0 Safari/537.36",Macintosh,Chrome,134.0.0.0,OS X,10_15_7,https://5puzkbbxv1.cognition.run/?sona_id=48708,"en-US,en;q=0.9,zh-TW;q=0.8,zh;q=0.7",x4vfum3skses5t8,24,"[""Asian""]",No,Female,Taiwan,No,647964.5999999046,NA,6786,NA,"{""product_choice"":""A""}",choice,tcd,trinary,repulsion_B,1,televisions,null,null,null,null,null,null,1,90,100,80,40,30,40,Screen size,Average lifespan,NA,NA
NA,NA,NA,NA,NA,choice_trial_setup,html-keyboard-response,78,449851,0.0-4.0-0.37,60,1,2025-04-28T19:15:21Z,b60275e29fe2361ab97ac0ac217840d7,"Mozilla/5.0 (Macintosh; Intel Mac OS X 10_15_7) AppleWebKit/537.36 (KHTML, like Gecko) Chrome/134.0.0.0 Safari/537.36",Macintosh,Chrome,134.0.0.0,OS X,10_15_7,https://5puzkbbxv1.cognition.run/?sona_id=48708,"en-US,en;q=0.9,zh-TW;q=0.8,zh;q=0.7",x4vfum3skses5t8,24,"[""Asian""]",No,Female,Taiwan,No,647964.5999999046,NA,null,<p></p>,null,choice,wbw,trinary,catch,null,microwave ovens,95,75,35,30,45,10,1,NA,NA,NA,NA,NA,NA,NA,NA,NA,NA
NA,NA,NA,NA,NA,choice_trial,survey-html-form,79,456379,0.0-4.0-1.37,60,1,2025-04-28T19:15:21Z,b60275e29fe2361ab97ac0ac217840d7,"Mozilla/5.0 (Macintosh; Intel Mac OS X 10_15_7) AppleWebKit/537.36 (KHTML, like Gecko) Chrome/134.0.0.0 Safari/537.36",Macintosh,Chrome,134.0.0.0,OS X,10_15_7,https://5puzkbbxv1.cognition.run/?sona_id=48708,"en-US,en;q=0.9,zh-TW;q=0.8,zh;q=0.7",x4vfum3skses5t8,24,"[""Asian""]",No,Female,Taiwan,No,647964.5999999046,NA,6521,NA,"{""product_choice"":""B""}",choice,wbw,trinary,catch,null,microwave ovens,95,75,35,30,45,10,1,null,null,null,null,null,null,Warranty,Cooking power,NA,NA
NA,NA,NA,NA,NA,choice_trial_setup,html-keyboard-response,80,456687,0.0-4.0-0.38,60,1,2025-04-28T19:15:21Z,b60275e29fe2361ab97ac0ac217840d7,"Mozilla/5.0 (Macintosh; Intel Mac OS X 10_15_7) AppleWebKit/537.36 (KHTML, like Gecko) Chrome/134.0.0.0 Safari/537.36",Macintosh,Chrome,134.0.0.0,OS X,10_15_7,https://5puzkbbxv1.cognition.run/?sona_id=48708,"en-US,en;q=0.9,zh-TW;q=0.8,zh;q=0.7",x4vfum3skses5t8,24,"[""Asian""]",No,Female,Taiwan,No,647964.5999999046,NA,null,<p></p>,null,choice,dtc,trinary,attraction,1,laptops,null,null,null,null,null,null,2,NA,NA,NA,NA,NA,NA,NA,NA,NA,NA
NA,NA,NA,NA,NA,choice_trial,survey-html-form,81,471326,0.0-4.0-1.38,60,1,2025-04-28T19:15:21Z,b60275e29fe2361ab97ac0ac217840d7,"Mozilla/5.0 (Macintosh; Intel Mac OS X 10_15_7) AppleWebKit/537.36 (KHTML, like Gecko) Chrome/134.0.0.0 Safari/537.36",Macintosh,Chrome,134.0.0.0,OS X,10_15_7,https://5puzkbbxv1.cognition.run/?sona_id=48708,"en-US,en;q=0.9,zh-TW;q=0.8,zh;q=0.7",x4vfum3skses5t8,24,"[""Asian""]",No,Female,Taiwan,No,647964.5999999046,NA,14633,NA,"{""product_choice"":""B""}",choice,dtc,trinary,attraction,1,laptops,null,null,null,null,null,null,2,60,50,60,50,60,40,Processing speed,Memory (RAM),NA,NA
NA,NA,NA,NA,NA,choice_trial_setup,html-keyboard-response,82,471629,0.0-4.0-0.39,60,1,2025-04-28T19:15:21Z,b60275e29fe2361ab97ac0ac217840d7,"Mozilla/5.0 (Macintosh; Intel Mac OS X 10_15_7) AppleWebKit/537.36 (KHTML, like Gecko) Chrome/134.0.0.0 Safari/537.36",Macintosh,Chrome,134.0.0.0,OS X,10_15_7,https://5puzkbbxv1.cognition.run/?sona_id=48708,"en-US,en;q=0.9,zh-TW;q=0.8,zh;q=0.7",x4vfum3skses5t8,24,"[""Asian""]",No,Female,Taiwan,No,647964.5999999046,NA,null,<p></p>,null,choice,cdt,trinary,repulsion_A,2,televisions,null,null,null,null,null,null,1,NA,NA,NA,NA,NA,NA,NA,NA,NA,NA
NA,NA,NA,NA,NA,choice_trial,survey-html-form,83,477613,0.0-4.0-1.39,60,1,2025-04-28T19:15:21Z,b60275e29fe2361ab97ac0ac217840d7,"Mozilla/5.0 (Macintosh; Intel Mac OS X 10_15_7) AppleWebKit/537.36 (KHTML, like Gecko) Chrome/134.0.0.0 Safari/537.36",Macintosh,Chrome,134.0.0.0,OS X,10_15_7,https://5puzkbbxv1.cognition.run/?sona_id=48708,"en-US,en;q=0.9,zh-TW;q=0.8,zh;q=0.7",x4vfum3skses5t8,24,"[""Asian""]",No,Female,Taiwan,No,647964.5999999046,NA,5981,NA,"{""product_choice"":""A""}",choice,cdt,trinary,repulsion_A,2,televisions,null,null,null,null,null,null,1,30,40,20,100,90,100,Screen size,Average lifespan,NA,NA
NA,NA,NA,NA,NA,choice_trial_setup,html-keyboard-response,84,477920,0.0-4.0-0.40,60,1,2025-04-28T19:15:21Z,b60275e29fe2361ab97ac0ac217840d7,"Mozilla/5.0 (Macintosh; Intel Mac OS X 10_15_7) AppleWebKit/537.36 (KHTML, like Gecko) Chrome/134.0.0.0 Safari/537.36",Macintosh,Chrome,134.0.0.0,OS X,10_15_7,https://5puzkbbxv1.cognition.run/?sona_id=48708,"en-US,en;q=0.9,zh-TW;q=0.8,zh;q=0.7",x4vfum3skses5t8,24,"[""Asian""]",No,Female,Taiwan,No,647964.5999999046,NA,null,<p></p>,null,choice,ct,binary,repulsion,1,washing machines,null,null,null,null,null,null,1,NA,NA,NA,NA,NA,NA,NA,NA,NA,NA
NA,NA,NA,NA,NA,choice_trial,survey-html-form,85,515978,0.0-4.0-1.40,60,1,2025-04-28T19:15:21Z,b60275e29fe2361ab97ac0ac217840d7,"Mozilla/5.0 (Macintosh; Intel Mac OS X 10_15_7) AppleWebKit/537.36 (KHTML, like Gecko) Chrome/134.0.0.0 Safari/537.36",Macintosh,Chrome,134.0.0.0,OS X,10_15_7,https://5puzkbbxv1.cognition.run/?sona_id=48708,"en-US,en;q=0.9,zh-TW;q=0.8,zh;q=0.7",x4vfum3skses5t8,24,"[""Asian""]",No,Female,Taiwan,No,647964.5999999046,NA,38053,NA,"{""product_choice"":""A""}",choice,ct,binary,repulsion,1,washing machines,null,null,null,null,null,null,1,100,90,null,30,40,null,Average lifespan,Energy savings,NA,NA
NA,NA,NA,NA,NA,choice_trial_setup,html-keyboard-response,86,516289,0.0-4.0-0.41,60,1,2025-04-28T19:15:21Z,b60275e29fe2361ab97ac0ac217840d7,"Mozilla/5.0 (Macintosh; Intel Mac OS X 10_15_7) AppleWebKit/537.36 (KHTML, like Gecko) Chrome/134.0.0.0 Safari/537.36",Macintosh,Chrome,134.0.0.0,OS X,10_15_7,https://5puzkbbxv1.cognition.run/?sona_id=48708,"en-US,en;q=0.9,zh-TW;q=0.8,zh;q=0.7",x4vfum3skses5t8,24,"[""Asian""]",No,Female,Taiwan,No,647964.5999999046,NA,null,<p></p>,null,choice,dct,trinary,attraction,1,televisions,null,null,null,null,null,null,2,NA,NA,NA,NA,NA,NA,NA,NA,NA,NA
NA,NA,NA,NA,NA,choice_trial,survey-html-form,87,524029,0.0-4.0-1.41,60,1,2025-04-28T19:15:21Z,b60275e29fe2361ab97ac0ac217840d7,"Mozilla/5.0 (Macintosh; Intel Mac OS X 10_15_7) AppleWebKit/537.36 (KHTML, like Gecko) Chrome/134.0.0.0 Safari/537.36",Macintosh,Chrome,134.0.0.0,OS X,10_15_7,https://5puzkbbxv1.cognition.run/?sona_id=48708,"en-US,en;q=0.9,zh-TW;q=0.8,zh;q=0.7",x4vfum3skses5t8,24,"[""Asian""]",No,Female,Taiwan,No,647964.5999999046,NA,7733,NA,"{""product_choice"":""C""}",choice,dct,trinary,attraction,1,televisions,null,null,null,null,null,null,2,60,50,60,50,60,40,Screen size,Average lifespan,NA,NA
NA,NA,NA,NA,NA,choice_trial_setup,html-keyboard-response,88,524335,0.0-4.0-0.42,60,1,2025-04-28T19:15:21Z,b60275e29fe2361ab97ac0ac217840d7,"Mozilla/5.0 (Macintosh; Intel Mac OS X 10_15_7) AppleWebKit/537.36 (KHTML, like Gecko) Chrome/134.0.0.0 Safari/537.36",Macintosh,Chrome,134.0.0.0,OS X,10_15_7,https://5puzkbbxv1.cognition.run/?sona_id=48708,"en-US,en;q=0.9,zh-TW;q=0.8,zh;q=0.7",x4vfum3skses5t8,24,"[""Asian""]",No,Female,Taiwan,No,647964.5999999046,NA,null,<p></p>,null,choice,ctd,trinary,repulsion_A,1,washing machines,null,null,null,null,null,null,2,NA,NA,NA,NA,NA,NA,NA,NA,NA,NA
NA,NA,NA,NA,NA,choice_trial,survey-html-form,89,533393,0.0-4.0-1.42,60,1,2025-04-28T19:15:21Z,b60275e29fe2361ab97ac0ac217840d7,"Mozilla/5.0 (Macintosh; Intel Mac OS X 10_15_7) AppleWebKit/537.36 (KHTML, like Gecko) Chrome/134.0.0.0 Safari/537.36",Macintosh,Chrome,134.0.0.0,OS X,10_15_7,https://5puzkbbxv1.cognition.run/?sona_id=48708,"en-US,en;q=0.9,zh-TW;q=0.8,zh;q=0.7",x4vfum3skses5t8,24,"[""Asian""]",No,Female,Taiwan,No,647964.5999999046,NA,9050,NA,"{""product_choice"":""A""}",choice,ctd,trinary,repulsion_A,1,washing machines,null,null,null,null,null,null,2,100,90,100,30,40,20,Average lifespan,Energy savings,NA,NA
NA,NA,NA,NA,NA,choice_trial_setup,html-keyboard-response,90,533696,0.0-4.0-0.43,60,1,2025-04-28T19:15:21Z,b60275e29fe2361ab97ac0ac217840d7,"Mozilla/5.0 (Macintosh; Intel Mac OS X 10_15_7) AppleWebKit/537.36 (KHTML, like Gecko) Chrome/134.0.0.0 Safari/537.36",Macintosh,Chrome,134.0.0.0,OS X,10_15_7,https://5puzkbbxv1.cognition.run/?sona_id=48708,"en-US,en;q=0.9,zh-TW;q=0.8,zh;q=0.7",x4vfum3skses5t8,24,"[""Asian""]",No,Female,Taiwan,No,647964.5999999046,NA,null,<p></p>,null,choice,dtc,trinary,repulsion_B,1,microwave ovens,null,null,null,null,null,null,1,NA,NA,NA,NA,NA,NA,NA,NA,NA,NA
NA,NA,NA,NA,NA,choice_trial,survey-html-form,91,539129,0.0-4.0-1.43,60,1,2025-04-28T19:15:21Z,b60275e29fe2361ab97ac0ac217840d7,"Mozilla/5.0 (Macintosh; Intel Mac OS X 10_15_7) AppleWebKit/537.36 (KHTML, like Gecko) Chrome/134.0.0.0 Safari/537.36",Macintosh,Chrome,134.0.0.0,OS X,10_15_7,https://5puzkbbxv1.cognition.run/?sona_id=48708,"en-US,en;q=0.9,zh-TW;q=0.8,zh;q=0.7",x4vfum3skses5t8,24,"[""Asian""]",No,Female,Taiwan,No,647964.5999999046,NA,5431,NA,"{""product_choice"":""B""}",choice,dtc,trinary,repulsion_B,1,microwave ovens,null,null,null,null,null,null,1,90,100,80,40,30,40,Warranty,Cooking power,NA,NA
NA,NA,NA,NA,NA,post_trials_message,html-button-response,92,541145,0.0-5.0,60,1,2025-04-28T19:15:21Z,b60275e29fe2361ab97ac0ac217840d7,"Mozilla/5.0 (Macintosh; Intel Mac OS X 10_15_7) AppleWebKit/537.36 (KHTML, like Gecko) Chrome/134.0.0.0 Safari/537.36",Macintosh,Chrome,134.0.0.0,OS X,10_15_7,https://5puzkbbxv1.cognition.run/?sona_id=48708,"en-US,en;q=0.9,zh-TW;q=0.8,zh;q=0.7",x4vfum3skses5t8,24,"[""Asian""]",No,Female,Taiwan,No,647964.5999999046,NA,2009,<p> <b>Thank you for your patience!</b></p><p>  The study will be done after completing a brief form. </p>,0,NA,NA,NA,NA,NA,NA,NA,NA,NA,NA,NA,NA,NA,NA,NA,NA,NA,NA,NA,NA,NA,NA,NA
NA,NA,NA,NA,NA,survey_message,survey-text,93,613529,0.0-6.0,60,1,2025-04-28T19:15:21Z,b60275e29fe2361ab97ac0ac217840d7,"Mozilla/5.0 (Macintosh; Intel Mac OS X 10_15_7) AppleWebKit/537.36 (KHTML, like Gecko) Chrome/134.0.0.0 Safari/537.36",Macintosh,Chrome,134.0.0.0,OS X,10_15_7,https://5puzkbbxv1.cognition.run/?sona_id=48708,"en-US,en;q=0.9,zh-TW;q=0.8,zh;q=0.7",x4vfum3skses5t8,24,"[""Asian""]",No,Female,Taiwan,No,647964.5999999046,NA,72379,NA,"{""Q0"":""I made my decision trying to find the balance between the options or if the conditions were something that I would care about.""}",NA,NA,NA,NA,NA,NA,NA,NA,NA,NA,NA,NA,NA,NA,NA,NA,NA,NA,NA,NA,NA,I made my decision trying to find the balance between the options or if the conditions were something that I would care about.,NA
NA,NA,NA,NA,NA,demo_age,survey-text,94,615909,0.0-7.0,60,1,2025-04-28T19:15:21Z,b60275e29fe2361ab97ac0ac217840d7,"Mozilla/5.0 (Macintosh; Intel Mac OS X 10_15_7) AppleWebKit/537.36 (KHTML, like Gecko) Chrome/134.0.0.0 Safari/537.36",Macintosh,Chrome,134.0.0.0,OS X,10_15_7,https://5puzkbbxv1.cognition.run/?sona_id=48708,"en-US,en;q=0.9,zh-TW;q=0.8,zh;q=0.7",x4vfum3skses5t8,24,"[""Asian""]",No,Female,Taiwan,No,647964.5999999046,NA,2376,NA,"{""Q0"":""24""}",NA,NA,NA,NA,NA,NA,NA,NA,NA,NA,NA,NA,NA,NA,NA,NA,NA,NA,NA,NA,NA,NA,NA
NA,NA,NA,NA,NA,demo_race,survey-multi-select,95,618213,0.0-8.0,60,1,2025-04-28T19:15:21Z,b60275e29fe2361ab97ac0ac217840d7,"Mozilla/5.0 (Macintosh; Intel Mac OS X 10_15_7) AppleWebKit/537.36 (KHTML, like Gecko) Chrome/134.0.0.0 Safari/537.36",Macintosh,Chrome,134.0.0.0,OS X,10_15_7,https://5puzkbbxv1.cognition.run/?sona_id=48708,"en-US,en;q=0.9,zh-TW;q=0.8,zh;q=0.7",x4vfum3skses5t8,24,"[""Asian""]",No,Female,Taiwan,No,647964.5999999046,NA,2300,NA,"{""Q0"":[""Asian""]}",NA,NA,NA,NA,NA,NA,NA,NA,NA,NA,NA,NA,NA,NA,NA,NA,NA,NA,NA,NA,NA,NA,[0]
NA,NA,NA,NA,NA,demo_ethnicity_gender,survey-multi-choice,96,622913,0.0-9.0,60,1,2025-04-28T19:15:21Z,b60275e29fe2361ab97ac0ac217840d7,"Mozilla/5.0 (Macintosh; Intel Mac OS X 10_15_7) AppleWebKit/537.36 (KHTML, like Gecko) Chrome/134.0.0.0 Safari/537.36",Macintosh,Chrome,134.0.0.0,OS X,10_15_7,https://5puzkbbxv1.cognition.run/?sona_id=48708,"en-US,en;q=0.9,zh-TW;q=0.8,zh;q=0.7",x4vfum3skses5t8,24,"[""Asian""]",No,Female,Taiwan,No,647964.5999999046,NA,4692,NA,"{""Q0"":""No"",""Q1"":""Female""}",NA,NA,NA,NA,NA,NA,NA,NA,NA,NA,NA,NA,NA,NA,NA,NA,NA,NA,NA,NA,NA,NA,"[0,1]"
NA,NA,NA,NA,NA,demo_countries,survey-text,97,630726,0.0-10.0,60,1,2025-04-28T19:15:21Z,b60275e29fe2361ab97ac0ac217840d7,"Mozilla/5.0 (Macintosh; Intel Mac OS X 10_15_7) AppleWebKit/537.36 (KHTML, like Gecko) Chrome/134.0.0.0 Safari/537.36",Macintosh,Chrome,134.0.0.0,OS X,10_15_7,https://5puzkbbxv1.cognition.run/?sona_id=48708,"en-US,en;q=0.9,zh-TW;q=0.8,zh;q=0.7",x4vfum3skses5t8,24,"[""Asian""]",No,Female,Taiwan,No,647964.5999999046,NA,7791,NA,"{""Q0"":""Taiwan""}",NA,NA,NA,NA,NA,NA,NA,NA,NA,NA,NA,NA,NA,NA,NA,NA,NA,NA,NA,NA,NA,NA,NA
NA,NA,NA,NA,NA,demo_prev_study,survey-multi-choice,98,635361,0.0-11.0,60,1,2025-04-28T19:15:21Z,b60275e29fe2361ab97ac0ac217840d7,"Mozilla/5.0 (Macintosh; Intel Mac OS X 10_15_7) AppleWebKit/537.36 (KHTML, like Gecko) Chrome/134.0.0.0 Safari/537.36",Macintosh,Chrome,134.0.0.0,OS X,10_15_7,https://5puzkbbxv1.cognition.run/?sona_id=48708,"en-US,en;q=0.9,zh-TW;q=0.8,zh;q=0.7",x4vfum3skses5t8,24,"[""Asian""]",No,Female,Taiwan,No,647964.5999999046,NA,4631,NA,"{""Q0"":""No""}",NA,NA,NA,NA,NA,NA,NA,NA,NA,NA,NA,NA,NA,NA,NA,NA,NA,NA,NA,NA,NA,NA,[0]
NA,NA,NA,NA,NA,post_survey_message,html-keyboard-response,99,644394,0.0-12.0,60,1,2025-04-28T19:15:21Z,b60275e29fe2361ab97ac0ac217840d7,"Mozilla/5.0 (Macintosh; Intel Mac OS X 10_15_7) AppleWebKit/537.36 (KHTML, like Gecko) Chrome/134.0.0.0 Safari/537.36",Macintosh,Chrome,134.0.0.0,OS X,10_15_7,https://5puzkbbxv1.cognition.run/?sona_id=48708,"en-US,en;q=0.9,zh-TW;q=0.8,zh;q=0.7",x4vfum3skses5t8,24,"[""Asian""]",No,Female,Taiwan,No,647964.5999999046,NA,9023,NA,j,NA,NA,NA,NA,NA,NA,NA,NA,NA,NA,NA,NA,NA,NA,NA,NA,NA,NA,NA,NA,NA,NA,NA
NA,NA,NA,NA,NA,debrief,image-keyboard-response,100,647933,0.0-13.0,60,1,2025-04-28T19:15:21Z,b60275e29fe2361ab97ac0ac217840d7,"Mozilla/5.0 (Macintosh; Intel Mac OS X 10_15_7) AppleWebKit/537.36 (KHTML, like Gecko) Chrome/134.0.0.0 Safari/537.36",Macintosh,Chrome,134.0.0.0,OS X,10_15_7,https://5puzkbbxv1.cognition.run/?sona_id=48708,"en-US,en;q=0.9,zh-TW;q=0.8,zh;q=0.7",x4vfum3skses5t8,24,"[""Asian""]",No,Female,Taiwan,No,647964.5999999046,NA,3531,Judg_choice_debrief.png,p,NA,NA,NA,NA,NA,NA,NA,NA,NA,NA,NA,NA,NA,NA,NA,NA,NA,NA,NA,NA,NA,NA,NA
