success,timeout,failed_images,failed_audio,failed_video,screen_id,trial_type,trial_index,time_elapsed,internal_node_id,run_id,condition,recorded_at,source_code_version,user_agent,device,browser,browser_version,platform,platform_version,referer,accept_language,ppt_id,age,race,ethnicity,gender,other_countries,prev_study,exp_duration,view_history,rt,stimulus,response,phase,order,set,effect,t_high,category,d1_best,d2_best,d1_worst1,d2_worst1,d1_worst2,d2_worst2,first_dim,d1_t,d1_c,d1_d,d2_t,d2_c,d2_d,d1_name,d2_name,strategy_response,question_order
TRUE,FALSE,[],[],[],img preload,preload,0,319,0.0-0.0,61,1,2025-04-28T19:16:41Z,b60275e29fe2361ab97ac0ac217840d7,"Mozilla/5.0 (Macintosh; Intel Mac OS X 10_15_7) AppleWebKit/605.1.15 (KHTML, like Gecko) Version/17.4.1 Safari/605.1.15",Macintosh,Safari,17.4.1,OS X,10_15_7,https://5puzkbbxv1.cognition.run/?sona_id=53008,"en-US,en;q=0.9",qc8lkqyq0tecmch,21,"[""Asian""]",No,Female,"China, 16 years",No,315366,NA,NA,NA,NA,NA,NA,NA,NA,NA,NA,NA,NA,NA,NA,NA,NA,NA,NA,NA,NA,NA,NA,NA,NA,NA,NA,NA
NA,NA,NA,NA,NA,computer_message,instructions,1,5213,0.0-1.0,61,1,2025-04-28T19:16:41Z,b60275e29fe2361ab97ac0ac217840d7,"Mozilla/5.0 (Macintosh; Intel Mac OS X 10_15_7) AppleWebKit/605.1.15 (KHTML, like Gecko) Version/17.4.1 Safari/605.1.15",Macintosh,Safari,17.4.1,OS X,10_15_7,https://5puzkbbxv1.cognition.run/?sona_id=53008,"en-US,en;q=0.9",qc8lkqyq0tecmch,21,"[""Asian""]",No,Female,"China, 16 years",No,315366,"[{""page_index"":0,""viewing_time"":4893}]",4893,NA,NA,NA,NA,NA,NA,NA,NA,NA,NA,NA,NA,NA,NA,NA,NA,NA,NA,NA,NA,NA,NA,NA,NA,NA
TRUE,NA,NA,NA,NA,NA,fullscreen,2,7112,0.0-2.0,61,1,2025-04-28T19:16:41Z,b60275e29fe2361ab97ac0ac217840d7,"Mozilla/5.0 (Macintosh; Intel Mac OS X 10_15_7) AppleWebKit/605.1.15 (KHTML, like Gecko) Version/17.4.1 Safari/605.1.15",Macintosh,Safari,17.4.1,OS X,10_15_7,https://5puzkbbxv1.cognition.run/?sona_id=53008,"en-US,en;q=0.9",qc8lkqyq0tecmch,21,"[""Asian""]",No,Female,"China, 16 years",No,315366,NA,896,NA,NA,NA,NA,NA,NA,NA,NA,NA,NA,NA,NA,NA,NA,NA,NA,NA,NA,NA,NA,NA,NA,NA,NA,NA
NA,NA,NA,NA,NA,choice_instructions,instructions,3,29618,0.0-3.0,61,1,2025-04-28T19:16:41Z,b60275e29fe2361ab97ac0ac217840d7,"Mozilla/5.0 (Macintosh; Intel Mac OS X 10_15_7) AppleWebKit/605.1.15 (KHTML, like Gecko) Version/17.4.1 Safari/605.1.15",Macintosh,Safari,17.4.1,OS X,10_15_7,https://5puzkbbxv1.cognition.run/?sona_id=53008,"en-US,en;q=0.9",qc8lkqyq0tecmch,21,"[""Asian""]",No,Female,"China, 16 years",No,315366,"[{""page_index"":0,""viewing_time"":1575},{""page_index"":1,""viewing_time"":1224},{""page_index"":2,""viewing_time"":1256},{""page_index"":3,""viewing_time"":877},{""page_index"":4,""viewing_time"":578},{""page_index"":5,""viewing_time"":15759},{""page_index"":6,""viewing_time"":1236}]",22505,NA,NA,NA,NA,NA,NA,NA,NA,NA,NA,NA,NA,NA,NA,NA,NA,NA,NA,NA,NA,NA,NA,NA,NA,NA
NA,NA,NA,NA,NA,choice_trial_setup,html-keyboard-response,4,29922,0.0-4.0-0.0,61,1,2025-04-28T19:16:41Z,b60275e29fe2361ab97ac0ac217840d7,"Mozilla/5.0 (Macintosh; Intel Mac OS X 10_15_7) AppleWebKit/605.1.15 (KHTML, like Gecko) Version/17.4.1 Safari/605.1.15",Macintosh,Safari,17.4.1,OS X,10_15_7,https://5puzkbbxv1.cognition.run/?sona_id=53008,"en-US,en;q=0.9",qc8lkqyq0tecmch,21,"[""Asian""]",No,Female,"China, 16 years",No,315366,NA,null,<p></p>,null,choice,tc,binary,repulsion,2,televisions,null,null,null,null,null,null,1,NA,NA,NA,NA,NA,NA,NA,NA,NA,NA
NA,NA,NA,NA,NA,choice_trial,survey-html-form,5,41879,0.0-4.0-1.0,61,1,2025-04-28T19:16:41Z,b60275e29fe2361ab97ac0ac217840d7,"Mozilla/5.0 (Macintosh; Intel Mac OS X 10_15_7) AppleWebKit/605.1.15 (KHTML, like Gecko) Version/17.4.1 Safari/605.1.15",Macintosh,Safari,17.4.1,OS X,10_15_7,https://5puzkbbxv1.cognition.run/?sona_id=53008,"en-US,en;q=0.9",qc8lkqyq0tecmch,21,"[""Asian""]",No,Female,"China, 16 years",No,315366,NA,11951,NA,"{""product_choice"":""B""}",choice,tc,binary,repulsion,2,televisions,null,null,null,null,null,null,1,30,40,null,100,90,null,Screen size,Average lifespan,NA,NA
NA,NA,NA,NA,NA,choice_trial_setup,html-keyboard-response,6,42181,0.0-4.0-0.1,61,1,2025-04-28T19:16:41Z,b60275e29fe2361ab97ac0ac217840d7,"Mozilla/5.0 (Macintosh; Intel Mac OS X 10_15_7) AppleWebKit/605.1.15 (KHTML, like Gecko) Version/17.4.1 Safari/605.1.15",Macintosh,Safari,17.4.1,OS X,10_15_7,https://5puzkbbxv1.cognition.run/?sona_id=53008,"en-US,en;q=0.9",qc8lkqyq0tecmch,21,"[""Asian""]",No,Female,"China, 16 years",No,315366,NA,null,<p></p>,null,choice,ct,binary,repulsion,2,microwave ovens,null,null,null,null,null,null,1,NA,NA,NA,NA,NA,NA,NA,NA,NA,NA
NA,NA,NA,NA,NA,choice_trial,survey-html-form,7,50249,0.0-4.0-1.1,61,1,2025-04-28T19:16:41Z,b60275e29fe2361ab97ac0ac217840d7,"Mozilla/5.0 (Macintosh; Intel Mac OS X 10_15_7) AppleWebKit/605.1.15 (KHTML, like Gecko) Version/17.4.1 Safari/605.1.15",Macintosh,Safari,17.4.1,OS X,10_15_7,https://5puzkbbxv1.cognition.run/?sona_id=53008,"en-US,en;q=0.9",qc8lkqyq0tecmch,21,"[""Asian""]",No,Female,"China, 16 years",No,315366,NA,8065,NA,"{""product_choice"":""A""}",choice,ct,binary,repulsion,2,microwave ovens,null,null,null,null,null,null,1,30,40,null,100,90,null,Warranty,Cooking power,NA,NA
NA,NA,NA,NA,NA,choice_trial_setup,html-keyboard-response,8,50552,0.0-4.0-0.2,61,1,2025-04-28T19:16:41Z,b60275e29fe2361ab97ac0ac217840d7,"Mozilla/5.0 (Macintosh; Intel Mac OS X 10_15_7) AppleWebKit/605.1.15 (KHTML, like Gecko) Version/17.4.1 Safari/605.1.15",Macintosh,Safari,17.4.1,OS X,10_15_7,https://5puzkbbxv1.cognition.run/?sona_id=53008,"en-US,en;q=0.9",qc8lkqyq0tecmch,21,"[""Asian""]",No,Female,"China, 16 years",No,315366,NA,null,<p></p>,null,choice,wwb,trinary,catch,null,washing machines,70,90,25,50,30,45,2,NA,NA,NA,NA,NA,NA,NA,NA,NA,NA
NA,NA,NA,NA,NA,choice_trial,survey-html-form,9,63151,0.0-4.0-1.2,61,1,2025-04-28T19:16:41Z,b60275e29fe2361ab97ac0ac217840d7,"Mozilla/5.0 (Macintosh; Intel Mac OS X 10_15_7) AppleWebKit/605.1.15 (KHTML, like Gecko) Version/17.4.1 Safari/605.1.15",Macintosh,Safari,17.4.1,OS X,10_15_7,https://5puzkbbxv1.cognition.run/?sona_id=53008,"en-US,en;q=0.9",qc8lkqyq0tecmch,21,"[""Asian""]",No,Female,"China, 16 years",No,315366,NA,12596,NA,"{""product_choice"":""C""}",choice,wwb,trinary,catch,null,washing machines,70,90,25,50,30,45,2,null,null,null,null,null,null,Average lifespan,Energy savings,NA,NA
NA,NA,NA,NA,NA,choice_trial_setup,html-keyboard-response,10,63454,0.0-4.0-0.3,61,1,2025-04-28T19:16:41Z,b60275e29fe2361ab97ac0ac217840d7,"Mozilla/5.0 (Macintosh; Intel Mac OS X 10_15_7) AppleWebKit/605.1.15 (KHTML, like Gecko) Version/17.4.1 Safari/605.1.15",Macintosh,Safari,17.4.1,OS X,10_15_7,https://5puzkbbxv1.cognition.run/?sona_id=53008,"en-US,en;q=0.9",qc8lkqyq0tecmch,21,"[""Asian""]",No,Female,"China, 16 years",No,315366,NA,null,<p></p>,null,choice,ctd,trinary,attraction,1,laptops,null,null,null,null,null,null,1,NA,NA,NA,NA,NA,NA,NA,NA,NA,NA
NA,NA,NA,NA,NA,choice_trial,survey-html-form,11,74350,0.0-4.0-1.3,61,1,2025-04-28T19:16:41Z,b60275e29fe2361ab97ac0ac217840d7,"Mozilla/5.0 (Macintosh; Intel Mac OS X 10_15_7) AppleWebKit/605.1.15 (KHTML, like Gecko) Version/17.4.1 Safari/605.1.15",Macintosh,Safari,17.4.1,OS X,10_15_7,https://5puzkbbxv1.cognition.run/?sona_id=53008,"en-US,en;q=0.9",qc8lkqyq0tecmch,21,"[""Asian""]",No,Female,"China, 16 years",No,315366,NA,10892,NA,"{""product_choice"":""B""}",choice,ctd,trinary,attraction,1,laptops,null,null,null,null,null,null,1,60,50,60,50,60,40,Processing speed,Memory (RAM),NA,NA
NA,NA,NA,NA,NA,choice_trial_setup,html-keyboard-response,12,74652,0.0-4.0-0.4,61,1,2025-04-28T19:16:41Z,b60275e29fe2361ab97ac0ac217840d7,"Mozilla/5.0 (Macintosh; Intel Mac OS X 10_15_7) AppleWebKit/605.1.15 (KHTML, like Gecko) Version/17.4.1 Safari/605.1.15",Macintosh,Safari,17.4.1,OS X,10_15_7,https://5puzkbbxv1.cognition.run/?sona_id=53008,"en-US,en;q=0.9",qc8lkqyq0tecmch,21,"[""Asian""]",No,Female,"China, 16 years",No,315366,NA,null,<p></p>,null,choice,cdt,trinary,repulsion_B,2,washing machines,null,null,null,null,null,null,2,NA,NA,NA,NA,NA,NA,NA,NA,NA,NA
NA,NA,NA,NA,NA,choice_trial,survey-html-form,13,80405,0.0-4.0-1.4,61,1,2025-04-28T19:16:41Z,b60275e29fe2361ab97ac0ac217840d7,"Mozilla/5.0 (Macintosh; Intel Mac OS X 10_15_7) AppleWebKit/605.1.15 (KHTML, like Gecko) Version/17.4.1 Safari/605.1.15",Macintosh,Safari,17.4.1,OS X,10_15_7,https://5puzkbbxv1.cognition.run/?sona_id=53008,"en-US,en;q=0.9",qc8lkqyq0tecmch,21,"[""Asian""]",No,Female,"China, 16 years",No,315366,NA,5749,NA,"{""product_choice"":""B""}",choice,cdt,trinary,repulsion_B,2,washing machines,null,null,null,null,null,null,2,40,30,40,90,100,80,Average lifespan,Energy savings,NA,NA
NA,NA,NA,NA,NA,choice_trial_setup,html-keyboard-response,14,80707,0.0-4.0-0.5,61,1,2025-04-28T19:16:41Z,b60275e29fe2361ab97ac0ac217840d7,"Mozilla/5.0 (Macintosh; Intel Mac OS X 10_15_7) AppleWebKit/605.1.15 (KHTML, like Gecko) Version/17.4.1 Safari/605.1.15",Macintosh,Safari,17.4.1,OS X,10_15_7,https://5puzkbbxv1.cognition.run/?sona_id=53008,"en-US,en;q=0.9",qc8lkqyq0tecmch,21,"[""Asian""]",No,Female,"China, 16 years",No,315366,NA,null,<p></p>,null,choice,tc,binary,repulsion,1,televisions,null,null,null,null,null,null,2,NA,NA,NA,NA,NA,NA,NA,NA,NA,NA
NA,NA,NA,NA,NA,choice_trial,survey-html-form,15,85465,0.0-4.0-1.5,61,1,2025-04-28T19:16:41Z,b60275e29fe2361ab97ac0ac217840d7,"Mozilla/5.0 (Macintosh; Intel Mac OS X 10_15_7) AppleWebKit/605.1.15 (KHTML, like Gecko) Version/17.4.1 Safari/605.1.15",Macintosh,Safari,17.4.1,OS X,10_15_7,https://5puzkbbxv1.cognition.run/?sona_id=53008,"en-US,en;q=0.9",qc8lkqyq0tecmch,21,"[""Asian""]",No,Female,"China, 16 years",No,315366,NA,4753,NA,"{""product_choice"":""B""}",choice,tc,binary,repulsion,1,televisions,null,null,null,null,null,null,2,100,90,null,30,40,null,Screen size,Average lifespan,NA,NA
NA,NA,NA,NA,NA,choice_trial_setup,html-keyboard-response,16,85767,0.0-4.0-0.6,61,1,2025-04-28T19:16:41Z,b60275e29fe2361ab97ac0ac217840d7,"Mozilla/5.0 (Macintosh; Intel Mac OS X 10_15_7) AppleWebKit/605.1.15 (KHTML, like Gecko) Version/17.4.1 Safari/605.1.15",Macintosh,Safari,17.4.1,OS X,10_15_7,https://5puzkbbxv1.cognition.run/?sona_id=53008,"en-US,en;q=0.9",qc8lkqyq0tecmch,21,"[""Asian""]",No,Female,"China, 16 years",No,315366,NA,null,<p></p>,null,choice,ctd,trinary,repulsion_B,1,microwave ovens,null,null,null,null,null,null,2,NA,NA,NA,NA,NA,NA,NA,NA,NA,NA
NA,NA,NA,NA,NA,choice_trial,survey-html-form,17,89802,0.0-4.0-1.6,61,1,2025-04-28T19:16:41Z,b60275e29fe2361ab97ac0ac217840d7,"Mozilla/5.0 (Macintosh; Intel Mac OS X 10_15_7) AppleWebKit/605.1.15 (KHTML, like Gecko) Version/17.4.1 Safari/605.1.15",Macintosh,Safari,17.4.1,OS X,10_15_7,https://5puzkbbxv1.cognition.run/?sona_id=53008,"en-US,en;q=0.9",qc8lkqyq0tecmch,21,"[""Asian""]",No,Female,"China, 16 years",No,315366,NA,4030,NA,"{""product_choice"":""B""}",choice,ctd,trinary,repulsion_B,1,microwave ovens,null,null,null,null,null,null,2,90,100,80,40,30,40,Warranty,Cooking power,NA,NA
NA,NA,NA,NA,NA,choice_trial_setup,html-keyboard-response,18,90104,0.0-4.0-0.7,61,1,2025-04-28T19:16:41Z,b60275e29fe2361ab97ac0ac217840d7,"Mozilla/5.0 (Macintosh; Intel Mac OS X 10_15_7) AppleWebKit/605.1.15 (KHTML, like Gecko) Version/17.4.1 Safari/605.1.15",Macintosh,Safari,17.4.1,OS X,10_15_7,https://5puzkbbxv1.cognition.run/?sona_id=53008,"en-US,en;q=0.9",qc8lkqyq0tecmch,21,"[""Asian""]",No,Female,"China, 16 years",No,315366,NA,null,<p></p>,null,choice,dct,trinary,repulsion_B,2,televisions,null,null,null,null,null,null,2,NA,NA,NA,NA,NA,NA,NA,NA,NA,NA
NA,NA,NA,NA,NA,choice_trial,survey-html-form,19,97612,0.0-4.0-1.7,61,1,2025-04-28T19:16:41Z,b60275e29fe2361ab97ac0ac217840d7,"Mozilla/5.0 (Macintosh; Intel Mac OS X 10_15_7) AppleWebKit/605.1.15 (KHTML, like Gecko) Version/17.4.1 Safari/605.1.15",Macintosh,Safari,17.4.1,OS X,10_15_7,https://5puzkbbxv1.cognition.run/?sona_id=53008,"en-US,en;q=0.9",qc8lkqyq0tecmch,21,"[""Asian""]",No,Female,"China, 16 years",No,315366,NA,7504,NA,"{""product_choice"":""A""}",choice,dct,trinary,repulsion_B,2,televisions,null,null,null,null,null,null,2,40,30,40,90,100,80,Screen size,Average lifespan,NA,NA
NA,NA,NA,NA,NA,choice_trial_setup,html-keyboard-response,20,97914,0.0-4.0-0.8,61,1,2025-04-28T19:16:41Z,b60275e29fe2361ab97ac0ac217840d7,"Mozilla/5.0 (Macintosh; Intel Mac OS X 10_15_7) AppleWebKit/605.1.15 (KHTML, like Gecko) Version/17.4.1 Safari/605.1.15",Macintosh,Safari,17.4.1,OS X,10_15_7,https://5puzkbbxv1.cognition.run/?sona_id=53008,"en-US,en;q=0.9",qc8lkqyq0tecmch,21,"[""Asian""]",No,Female,"China, 16 years",No,315366,NA,null,<p></p>,null,choice,ct,binary,repulsion,1,washing machines,null,null,null,null,null,null,2,NA,NA,NA,NA,NA,NA,NA,NA,NA,NA
NA,NA,NA,NA,NA,choice_trial,survey-html-form,21,100815,0.0-4.0-1.8,61,1,2025-04-28T19:16:41Z,b60275e29fe2361ab97ac0ac217840d7,"Mozilla/5.0 (Macintosh; Intel Mac OS X 10_15_7) AppleWebKit/605.1.15 (KHTML, like Gecko) Version/17.4.1 Safari/605.1.15",Macintosh,Safari,17.4.1,OS X,10_15_7,https://5puzkbbxv1.cognition.run/?sona_id=53008,"en-US,en;q=0.9",qc8lkqyq0tecmch,21,"[""Asian""]",No,Female,"China, 16 years",No,315366,NA,2897,NA,"{""product_choice"":""A""}",choice,ct,binary,repulsion,1,washing machines,null,null,null,null,null,null,2,100,90,null,30,40,null,Average lifespan,Energy savings,NA,NA
NA,NA,NA,NA,NA,choice_trial_setup,html-keyboard-response,22,101117,0.0-4.0-0.9,61,1,2025-04-28T19:16:41Z,b60275e29fe2361ab97ac0ac217840d7,"Mozilla/5.0 (Macintosh; Intel Mac OS X 10_15_7) AppleWebKit/605.1.15 (KHTML, like Gecko) Version/17.4.1 Safari/605.1.15",Macintosh,Safari,17.4.1,OS X,10_15_7,https://5puzkbbxv1.cognition.run/?sona_id=53008,"en-US,en;q=0.9",qc8lkqyq0tecmch,21,"[""Asian""]",No,Female,"China, 16 years",No,315366,NA,null,<p></p>,null,choice,bww,trinary,catch,null,televisions,70,60,45,10,35,15,2,NA,NA,NA,NA,NA,NA,NA,NA,NA,NA
NA,NA,NA,NA,NA,choice_trial,survey-html-form,23,107087,0.0-4.0-1.9,61,1,2025-04-28T19:16:41Z,b60275e29fe2361ab97ac0ac217840d7,"Mozilla/5.0 (Macintosh; Intel Mac OS X 10_15_7) AppleWebKit/605.1.15 (KHTML, like Gecko) Version/17.4.1 Safari/605.1.15",Macintosh,Safari,17.4.1,OS X,10_15_7,https://5puzkbbxv1.cognition.run/?sona_id=53008,"en-US,en;q=0.9",qc8lkqyq0tecmch,21,"[""Asian""]",No,Female,"China, 16 years",No,315366,NA,5967,NA,"{""product_choice"":""A""}",choice,bww,trinary,catch,null,televisions,70,60,45,10,35,15,2,null,null,null,null,null,null,Screen size,Average lifespan,NA,NA
NA,NA,NA,NA,NA,choice_trial_setup,html-keyboard-response,24,107389,0.0-4.0-0.10,61,1,2025-04-28T19:16:41Z,b60275e29fe2361ab97ac0ac217840d7,"Mozilla/5.0 (Macintosh; Intel Mac OS X 10_15_7) AppleWebKit/605.1.15 (KHTML, like Gecko) Version/17.4.1 Safari/605.1.15",Macintosh,Safari,17.4.1,OS X,10_15_7,https://5puzkbbxv1.cognition.run/?sona_id=53008,"en-US,en;q=0.9",qc8lkqyq0tecmch,21,"[""Asian""]",No,Female,"China, 16 years",No,315366,NA,null,<p></p>,null,choice,ctd,trinary,repulsion_A,1,televisions,null,null,null,null,null,null,1,NA,NA,NA,NA,NA,NA,NA,NA,NA,NA
NA,NA,NA,NA,NA,choice_trial,survey-html-form,25,109986,0.0-4.0-1.10,61,1,2025-04-28T19:16:41Z,b60275e29fe2361ab97ac0ac217840d7,"Mozilla/5.0 (Macintosh; Intel Mac OS X 10_15_7) AppleWebKit/605.1.15 (KHTML, like Gecko) Version/17.4.1 Safari/605.1.15",Macintosh,Safari,17.4.1,OS X,10_15_7,https://5puzkbbxv1.cognition.run/?sona_id=53008,"en-US,en;q=0.9",qc8lkqyq0tecmch,21,"[""Asian""]",No,Female,"China, 16 years",No,315366,NA,2593,NA,"{""product_choice"":""A""}",choice,ctd,trinary,repulsion_A,1,televisions,null,null,null,null,null,null,1,100,90,100,30,40,20,Screen size,Average lifespan,NA,NA
NA,NA,NA,NA,NA,choice_trial_setup,html-keyboard-response,26,110289,0.0-4.0-0.11,61,1,2025-04-28T19:16:41Z,b60275e29fe2361ab97ac0ac217840d7,"Mozilla/5.0 (Macintosh; Intel Mac OS X 10_15_7) AppleWebKit/605.1.15 (KHTML, like Gecko) Version/17.4.1 Safari/605.1.15",Macintosh,Safari,17.4.1,OS X,10_15_7,https://5puzkbbxv1.cognition.run/?sona_id=53008,"en-US,en;q=0.9",qc8lkqyq0tecmch,21,"[""Asian""]",No,Female,"China, 16 years",No,315366,NA,null,<p></p>,null,choice,cdt,trinary,repulsion_B,2,microwave ovens,null,null,null,null,null,null,2,NA,NA,NA,NA,NA,NA,NA,NA,NA,NA
NA,NA,NA,NA,NA,choice_trial,survey-html-form,27,114294,0.0-4.0-1.11,61,1,2025-04-28T19:16:41Z,b60275e29fe2361ab97ac0ac217840d7,"Mozilla/5.0 (Macintosh; Intel Mac OS X 10_15_7) AppleWebKit/605.1.15 (KHTML, like Gecko) Version/17.4.1 Safari/605.1.15",Macintosh,Safari,17.4.1,OS X,10_15_7,https://5puzkbbxv1.cognition.run/?sona_id=53008,"en-US,en;q=0.9",qc8lkqyq0tecmch,21,"[""Asian""]",No,Female,"China, 16 years",No,315366,NA,4002,NA,"{""product_choice"":""B""}",choice,cdt,trinary,repulsion_B,2,microwave ovens,null,null,null,null,null,null,2,40,30,40,90,100,80,Warranty,Cooking power,NA,NA
NA,NA,NA,NA,NA,choice_trial_setup,html-keyboard-response,28,114597,0.0-4.0-0.12,61,1,2025-04-28T19:16:41Z,b60275e29fe2361ab97ac0ac217840d7,"Mozilla/5.0 (Macintosh; Intel Mac OS X 10_15_7) AppleWebKit/605.1.15 (KHTML, like Gecko) Version/17.4.1 Safari/605.1.15",Macintosh,Safari,17.4.1,OS X,10_15_7,https://5puzkbbxv1.cognition.run/?sona_id=53008,"en-US,en;q=0.9",qc8lkqyq0tecmch,21,"[""Asian""]",No,Female,"China, 16 years",No,315366,NA,null,<p></p>,null,choice,cdt,trinary,repulsion_B,2,laptops,null,null,null,null,null,null,2,NA,NA,NA,NA,NA,NA,NA,NA,NA,NA
NA,NA,NA,NA,NA,choice_trial,survey-html-form,29,120652,0.0-4.0-1.12,61,1,2025-04-28T19:16:41Z,b60275e29fe2361ab97ac0ac217840d7,"Mozilla/5.0 (Macintosh; Intel Mac OS X 10_15_7) AppleWebKit/605.1.15 (KHTML, like Gecko) Version/17.4.1 Safari/605.1.15",Macintosh,Safari,17.4.1,OS X,10_15_7,https://5puzkbbxv1.cognition.run/?sona_id=53008,"en-US,en;q=0.9",qc8lkqyq0tecmch,21,"[""Asian""]",No,Female,"China, 16 years",No,315366,NA,6051,NA,"{""product_choice"":""C""}",choice,cdt,trinary,repulsion_B,2,laptops,null,null,null,null,null,null,2,40,30,40,90,100,80,Processing speed,Memory (RAM),NA,NA
NA,NA,NA,NA,NA,choice_trial_setup,html-keyboard-response,30,120954,0.0-4.0-0.13,61,1,2025-04-28T19:16:41Z,b60275e29fe2361ab97ac0ac217840d7,"Mozilla/5.0 (Macintosh; Intel Mac OS X 10_15_7) AppleWebKit/605.1.15 (KHTML, like Gecko) Version/17.4.1 Safari/605.1.15",Macintosh,Safari,17.4.1,OS X,10_15_7,https://5puzkbbxv1.cognition.run/?sona_id=53008,"en-US,en;q=0.9",qc8lkqyq0tecmch,21,"[""Asian""]",No,Female,"China, 16 years",No,315366,NA,null,<p></p>,null,choice,dct,trinary,repulsion_A,1,microwave ovens,null,null,null,null,null,null,2,NA,NA,NA,NA,NA,NA,NA,NA,NA,NA
NA,NA,NA,NA,NA,choice_trial,survey-html-form,31,123744,0.0-4.0-1.13,61,1,2025-04-28T19:16:41Z,b60275e29fe2361ab97ac0ac217840d7,"Mozilla/5.0 (Macintosh; Intel Mac OS X 10_15_7) AppleWebKit/605.1.15 (KHTML, like Gecko) Version/17.4.1 Safari/605.1.15",Macintosh,Safari,17.4.1,OS X,10_15_7,https://5puzkbbxv1.cognition.run/?sona_id=53008,"en-US,en;q=0.9",qc8lkqyq0tecmch,21,"[""Asian""]",No,Female,"China, 16 years",No,315366,NA,2786,NA,"{""product_choice"":""B""}",choice,dct,trinary,repulsion_A,1,microwave ovens,null,null,null,null,null,null,2,100,90,100,30,40,20,Warranty,Cooking power,NA,NA
NA,NA,NA,NA,NA,choice_trial_setup,html-keyboard-response,32,124047,0.0-4.0-0.14,61,1,2025-04-28T19:16:41Z,b60275e29fe2361ab97ac0ac217840d7,"Mozilla/5.0 (Macintosh; Intel Mac OS X 10_15_7) AppleWebKit/605.1.15 (KHTML, like Gecko) Version/17.4.1 Safari/605.1.15",Macintosh,Safari,17.4.1,OS X,10_15_7,https://5puzkbbxv1.cognition.run/?sona_id=53008,"en-US,en;q=0.9",qc8lkqyq0tecmch,21,"[""Asian""]",No,Female,"China, 16 years",No,315366,NA,null,<p></p>,null,choice,tcd,trinary,repulsion_B,1,washing machines,null,null,null,null,null,null,2,NA,NA,NA,NA,NA,NA,NA,NA,NA,NA
NA,NA,NA,NA,NA,choice_trial,survey-html-form,33,128908,0.0-4.0-1.14,61,1,2025-04-28T19:16:41Z,b60275e29fe2361ab97ac0ac217840d7,"Mozilla/5.0 (Macintosh; Intel Mac OS X 10_15_7) AppleWebKit/605.1.15 (KHTML, like Gecko) Version/17.4.1 Safari/605.1.15",Macintosh,Safari,17.4.1,OS X,10_15_7,https://5puzkbbxv1.cognition.run/?sona_id=53008,"en-US,en;q=0.9",qc8lkqyq0tecmch,21,"[""Asian""]",No,Female,"China, 16 years",No,315366,NA,4858,NA,"{""product_choice"":""B""}",choice,tcd,trinary,repulsion_B,1,washing machines,null,null,null,null,null,null,2,90,100,80,40,30,40,Average lifespan,Energy savings,NA,NA
NA,NA,NA,NA,NA,choice_trial_setup,html-keyboard-response,34,129211,0.0-4.0-0.15,61,1,2025-04-28T19:16:41Z,b60275e29fe2361ab97ac0ac217840d7,"Mozilla/5.0 (Macintosh; Intel Mac OS X 10_15_7) AppleWebKit/605.1.15 (KHTML, like Gecko) Version/17.4.1 Safari/605.1.15",Macintosh,Safari,17.4.1,OS X,10_15_7,https://5puzkbbxv1.cognition.run/?sona_id=53008,"en-US,en;q=0.9",qc8lkqyq0tecmch,21,"[""Asian""]",No,Female,"China, 16 years",No,315366,NA,null,<p></p>,null,choice,bww,trinary,catch,null,laptops,70,95,45,25,10,15,1,NA,NA,NA,NA,NA,NA,NA,NA,NA,NA
NA,NA,NA,NA,NA,choice_trial,survey-html-form,35,131794,0.0-4.0-1.15,61,1,2025-04-28T19:16:41Z,b60275e29fe2361ab97ac0ac217840d7,"Mozilla/5.0 (Macintosh; Intel Mac OS X 10_15_7) AppleWebKit/605.1.15 (KHTML, like Gecko) Version/17.4.1 Safari/605.1.15",Macintosh,Safari,17.4.1,OS X,10_15_7,https://5puzkbbxv1.cognition.run/?sona_id=53008,"en-US,en;q=0.9",qc8lkqyq0tecmch,21,"[""Asian""]",No,Female,"China, 16 years",No,315366,NA,2578,NA,"{""product_choice"":""A""}",choice,bww,trinary,catch,null,laptops,70,95,45,25,10,15,1,null,null,null,null,null,null,Processing speed,Memory (RAM),NA,NA
NA,NA,NA,NA,NA,choice_trial_setup,html-keyboard-response,36,132096,0.0-4.0-0.16,61,1,2025-04-28T19:16:41Z,b60275e29fe2361ab97ac0ac217840d7,"Mozilla/5.0 (Macintosh; Intel Mac OS X 10_15_7) AppleWebKit/605.1.15 (KHTML, like Gecko) Version/17.4.1 Safari/605.1.15",Macintosh,Safari,17.4.1,OS X,10_15_7,https://5puzkbbxv1.cognition.run/?sona_id=53008,"en-US,en;q=0.9",qc8lkqyq0tecmch,21,"[""Asian""]",No,Female,"China, 16 years",No,315366,NA,null,<p></p>,null,choice,ct,binary,repulsion,2,washing machines,null,null,null,null,null,null,1,NA,NA,NA,NA,NA,NA,NA,NA,NA,NA
NA,NA,NA,NA,NA,choice_trial,survey-html-form,37,134235,0.0-4.0-1.16,61,1,2025-04-28T19:16:41Z,b60275e29fe2361ab97ac0ac217840d7,"Mozilla/5.0 (Macintosh; Intel Mac OS X 10_15_7) AppleWebKit/605.1.15 (KHTML, like Gecko) Version/17.4.1 Safari/605.1.15",Macintosh,Safari,17.4.1,OS X,10_15_7,https://5puzkbbxv1.cognition.run/?sona_id=53008,"en-US,en;q=0.9",qc8lkqyq0tecmch,21,"[""Asian""]",No,Female,"China, 16 years",No,315366,NA,2137,NA,"{""product_choice"":""A""}",choice,ct,binary,repulsion,2,washing machines,null,null,null,null,null,null,1,30,40,null,100,90,null,Average lifespan,Energy savings,NA,NA
NA,NA,NA,NA,NA,choice_trial_setup,html-keyboard-response,38,134538,0.0-4.0-0.17,61,1,2025-04-28T19:16:41Z,b60275e29fe2361ab97ac0ac217840d7,"Mozilla/5.0 (Macintosh; Intel Mac OS X 10_15_7) AppleWebKit/605.1.15 (KHTML, like Gecko) Version/17.4.1 Safari/605.1.15",Macintosh,Safari,17.4.1,OS X,10_15_7,https://5puzkbbxv1.cognition.run/?sona_id=53008,"en-US,en;q=0.9",qc8lkqyq0tecmch,21,"[""Asian""]",No,Female,"China, 16 years",No,315366,NA,null,<p></p>,null,choice,ct,binary,repulsion,2,laptops,null,null,null,null,null,null,2,NA,NA,NA,NA,NA,NA,NA,NA,NA,NA
NA,NA,NA,NA,NA,choice_trial,survey-html-form,39,137268,0.0-4.0-1.17,61,1,2025-04-28T19:16:41Z,b60275e29fe2361ab97ac0ac217840d7,"Mozilla/5.0 (Macintosh; Intel Mac OS X 10_15_7) AppleWebKit/605.1.15 (KHTML, like Gecko) Version/17.4.1 Safari/605.1.15",Macintosh,Safari,17.4.1,OS X,10_15_7,https://5puzkbbxv1.cognition.run/?sona_id=53008,"en-US,en;q=0.9",qc8lkqyq0tecmch,21,"[""Asian""]",No,Female,"China, 16 years",No,315366,NA,2726,NA,"{""product_choice"":""A""}",choice,ct,binary,repulsion,2,laptops,null,null,null,null,null,null,2,30,40,null,100,90,null,Processing speed,Memory (RAM),NA,NA
NA,NA,NA,NA,NA,choice_trial_setup,html-keyboard-response,40,137570,0.0-4.0-0.18,61,1,2025-04-28T19:16:41Z,b60275e29fe2361ab97ac0ac217840d7,"Mozilla/5.0 (Macintosh; Intel Mac OS X 10_15_7) AppleWebKit/605.1.15 (KHTML, like Gecko) Version/17.4.1 Safari/605.1.15",Macintosh,Safari,17.4.1,OS X,10_15_7,https://5puzkbbxv1.cognition.run/?sona_id=53008,"en-US,en;q=0.9",qc8lkqyq0tecmch,21,"[""Asian""]",No,Female,"China, 16 years",No,315366,NA,null,<p></p>,null,choice,ct,binary,attraction,NA,televisions,null,null,null,null,null,null,1,NA,NA,NA,NA,NA,NA,NA,NA,NA,NA
NA,NA,NA,NA,NA,choice_trial,survey-html-form,41,139141,0.0-4.0-1.18,61,1,2025-04-28T19:16:41Z,b60275e29fe2361ab97ac0ac217840d7,"Mozilla/5.0 (Macintosh; Intel Mac OS X 10_15_7) AppleWebKit/605.1.15 (KHTML, like Gecko) Version/17.4.1 Safari/605.1.15",Macintosh,Safari,17.4.1,OS X,10_15_7,https://5puzkbbxv1.cognition.run/?sona_id=53008,"en-US,en;q=0.9",qc8lkqyq0tecmch,21,"[""Asian""]",No,Female,"China, 16 years",No,315366,NA,1568,NA,"{""product_choice"":""A""}",choice,ct,binary,attraction,NA,televisions,null,null,null,null,null,null,1,60,50,null,50,60,null,Screen size,Average lifespan,NA,NA
NA,NA,NA,NA,NA,choice_trial_setup,html-keyboard-response,42,139443,0.0-4.0-0.19,61,1,2025-04-28T19:16:41Z,b60275e29fe2361ab97ac0ac217840d7,"Mozilla/5.0 (Macintosh; Intel Mac OS X 10_15_7) AppleWebKit/605.1.15 (KHTML, like Gecko) Version/17.4.1 Safari/605.1.15",Macintosh,Safari,17.4.1,OS X,10_15_7,https://5puzkbbxv1.cognition.run/?sona_id=53008,"en-US,en;q=0.9",qc8lkqyq0tecmch,21,"[""Asian""]",No,Female,"China, 16 years",No,315366,NA,null,<p></p>,null,choice,tc,binary,attraction,NA,laptops,null,null,null,null,null,null,1,NA,NA,NA,NA,NA,NA,NA,NA,NA,NA
NA,NA,NA,NA,NA,choice_trial,survey-html-form,43,141162,0.0-4.0-1.19,61,1,2025-04-28T19:16:41Z,b60275e29fe2361ab97ac0ac217840d7,"Mozilla/5.0 (Macintosh; Intel Mac OS X 10_15_7) AppleWebKit/605.1.15 (KHTML, like Gecko) Version/17.4.1 Safari/605.1.15",Macintosh,Safari,17.4.1,OS X,10_15_7,https://5puzkbbxv1.cognition.run/?sona_id=53008,"en-US,en;q=0.9",qc8lkqyq0tecmch,21,"[""Asian""]",No,Female,"China, 16 years",No,315366,NA,1718,NA,"{""product_choice"":""A""}",choice,tc,binary,attraction,NA,laptops,null,null,null,null,null,null,1,60,50,null,50,60,null,Processing speed,Memory (RAM),NA,NA
NA,NA,NA,NA,NA,choice_trial_setup,html-keyboard-response,44,141464,0.0-4.0-0.20,61,1,2025-04-28T19:16:41Z,b60275e29fe2361ab97ac0ac217840d7,"Mozilla/5.0 (Macintosh; Intel Mac OS X 10_15_7) AppleWebKit/605.1.15 (KHTML, like Gecko) Version/17.4.1 Safari/605.1.15",Macintosh,Safari,17.4.1,OS X,10_15_7,https://5puzkbbxv1.cognition.run/?sona_id=53008,"en-US,en;q=0.9",qc8lkqyq0tecmch,21,"[""Asian""]",No,Female,"China, 16 years",No,315366,NA,null,<p></p>,null,choice,wwb,trinary,catch,null,microwave ovens,75,85,35,40,30,30,1,NA,NA,NA,NA,NA,NA,NA,NA,NA,NA
NA,NA,NA,NA,NA,choice_trial,survey-html-form,45,143356,0.0-4.0-1.20,61,1,2025-04-28T19:16:41Z,b60275e29fe2361ab97ac0ac217840d7,"Mozilla/5.0 (Macintosh; Intel Mac OS X 10_15_7) AppleWebKit/605.1.15 (KHTML, like Gecko) Version/17.4.1 Safari/605.1.15",Macintosh,Safari,17.4.1,OS X,10_15_7,https://5puzkbbxv1.cognition.run/?sona_id=53008,"en-US,en;q=0.9",qc8lkqyq0tecmch,21,"[""Asian""]",No,Female,"China, 16 years",No,315366,NA,1888,NA,"{""product_choice"":""B""}",choice,wwb,trinary,catch,null,microwave ovens,75,85,35,40,30,30,1,null,null,null,null,null,null,Warranty,Cooking power,NA,NA
NA,NA,NA,NA,NA,choice_trial_setup,html-keyboard-response,46,143658,0.0-4.0-0.21,61,1,2025-04-28T19:16:41Z,b60275e29fe2361ab97ac0ac217840d7,"Mozilla/5.0 (Macintosh; Intel Mac OS X 10_15_7) AppleWebKit/605.1.15 (KHTML, like Gecko) Version/17.4.1 Safari/605.1.15",Macintosh,Safari,17.4.1,OS X,10_15_7,https://5puzkbbxv1.cognition.run/?sona_id=53008,"en-US,en;q=0.9",qc8lkqyq0tecmch,21,"[""Asian""]",No,Female,"China, 16 years",No,315366,NA,null,<p></p>,null,choice,tc,binary,repulsion,1,laptops,null,null,null,null,null,null,1,NA,NA,NA,NA,NA,NA,NA,NA,NA,NA
NA,NA,NA,NA,NA,choice_trial,survey-html-form,47,145312,0.0-4.0-1.21,61,1,2025-04-28T19:16:41Z,b60275e29fe2361ab97ac0ac217840d7,"Mozilla/5.0 (Macintosh; Intel Mac OS X 10_15_7) AppleWebKit/605.1.15 (KHTML, like Gecko) Version/17.4.1 Safari/605.1.15",Macintosh,Safari,17.4.1,OS X,10_15_7,https://5puzkbbxv1.cognition.run/?sona_id=53008,"en-US,en;q=0.9",qc8lkqyq0tecmch,21,"[""Asian""]",No,Female,"China, 16 years",No,315366,NA,1651,NA,"{""product_choice"":""A""}",choice,tc,binary,repulsion,1,laptops,null,null,null,null,null,null,1,100,90,null,30,40,null,Processing speed,Memory (RAM),NA,NA
NA,NA,NA,NA,NA,choice_trial_setup,html-keyboard-response,48,145615,0.0-4.0-0.22,61,1,2025-04-28T19:16:41Z,b60275e29fe2361ab97ac0ac217840d7,"Mozilla/5.0 (Macintosh; Intel Mac OS X 10_15_7) AppleWebKit/605.1.15 (KHTML, like Gecko) Version/17.4.1 Safari/605.1.15",Macintosh,Safari,17.4.1,OS X,10_15_7,https://5puzkbbxv1.cognition.run/?sona_id=53008,"en-US,en;q=0.9",qc8lkqyq0tecmch,21,"[""Asian""]",No,Female,"China, 16 years",No,315366,NA,null,<p></p>,null,choice,cdt,trinary,attraction,1,washing machines,null,null,null,null,null,null,2,NA,NA,NA,NA,NA,NA,NA,NA,NA,NA
NA,NA,NA,NA,NA,choice_trial,survey-html-form,49,147152,0.0-4.0-1.22,61,1,2025-04-28T19:16:41Z,b60275e29fe2361ab97ac0ac217840d7,"Mozilla/5.0 (Macintosh; Intel Mac OS X 10_15_7) AppleWebKit/605.1.15 (KHTML, like Gecko) Version/17.4.1 Safari/605.1.15",Macintosh,Safari,17.4.1,OS X,10_15_7,https://5puzkbbxv1.cognition.run/?sona_id=53008,"en-US,en;q=0.9",qc8lkqyq0tecmch,21,"[""Asian""]",No,Female,"China, 16 years",No,315366,NA,1533,NA,"{""product_choice"":""B""}",choice,cdt,trinary,attraction,1,washing machines,null,null,null,null,null,null,2,60,50,60,50,60,40,Average lifespan,Energy savings,NA,NA
NA,NA,NA,NA,NA,choice_trial_setup,html-keyboard-response,50,147454,0.0-4.0-0.23,61,1,2025-04-28T19:16:41Z,b60275e29fe2361ab97ac0ac217840d7,"Mozilla/5.0 (Macintosh; Intel Mac OS X 10_15_7) AppleWebKit/605.1.15 (KHTML, like Gecko) Version/17.4.1 Safari/605.1.15",Macintosh,Safari,17.4.1,OS X,10_15_7,https://5puzkbbxv1.cognition.run/?sona_id=53008,"en-US,en;q=0.9",qc8lkqyq0tecmch,21,"[""Asian""]",No,Female,"China, 16 years",No,315366,NA,null,<p></p>,null,choice,tc,binary,attraction,NA,microwave ovens,null,null,null,null,null,null,2,NA,NA,NA,NA,NA,NA,NA,NA,NA,NA
NA,NA,NA,NA,NA,choice_trial,survey-html-form,51,148836,0.0-4.0-1.23,61,1,2025-04-28T19:16:41Z,b60275e29fe2361ab97ac0ac217840d7,"Mozilla/5.0 (Macintosh; Intel Mac OS X 10_15_7) AppleWebKit/605.1.15 (KHTML, like Gecko) Version/17.4.1 Safari/605.1.15",Macintosh,Safari,17.4.1,OS X,10_15_7,https://5puzkbbxv1.cognition.run/?sona_id=53008,"en-US,en;q=0.9",qc8lkqyq0tecmch,21,"[""Asian""]",No,Female,"China, 16 years",No,315366,NA,1379,NA,"{""product_choice"":""B""}",choice,tc,binary,attraction,NA,microwave ovens,null,null,null,null,null,null,2,60,50,null,50,60,null,Warranty,Cooking power,NA,NA
NA,NA,NA,NA,NA,choice_trial_setup,html-keyboard-response,52,149138,0.0-4.0-0.24,61,1,2025-04-28T19:16:41Z,b60275e29fe2361ab97ac0ac217840d7,"Mozilla/5.0 (Macintosh; Intel Mac OS X 10_15_7) AppleWebKit/605.1.15 (KHTML, like Gecko) Version/17.4.1 Safari/605.1.15",Macintosh,Safari,17.4.1,OS X,10_15_7,https://5puzkbbxv1.cognition.run/?sona_id=53008,"en-US,en;q=0.9",qc8lkqyq0tecmch,21,"[""Asian""]",No,Female,"China, 16 years",No,315366,NA,null,<p></p>,null,choice,tdc,trinary,repulsion_B,1,televisions,null,null,null,null,null,null,1,NA,NA,NA,NA,NA,NA,NA,NA,NA,NA
NA,NA,NA,NA,NA,choice_trial,survey-html-form,53,150711,0.0-4.0-1.24,61,1,2025-04-28T19:16:41Z,b60275e29fe2361ab97ac0ac217840d7,"Mozilla/5.0 (Macintosh; Intel Mac OS X 10_15_7) AppleWebKit/605.1.15 (KHTML, like Gecko) Version/17.4.1 Safari/605.1.15",Macintosh,Safari,17.4.1,OS X,10_15_7,https://5puzkbbxv1.cognition.run/?sona_id=53008,"en-US,en;q=0.9",qc8lkqyq0tecmch,21,"[""Asian""]",No,Female,"China, 16 years",No,315366,NA,1570,NA,"{""product_choice"":""B""}",choice,tdc,trinary,repulsion_B,1,televisions,null,null,null,null,null,null,1,90,100,80,40,30,40,Screen size,Average lifespan,NA,NA
NA,NA,NA,NA,NA,choice_trial_setup,html-keyboard-response,54,151014,0.0-4.0-0.25,61,1,2025-04-28T19:16:41Z,b60275e29fe2361ab97ac0ac217840d7,"Mozilla/5.0 (Macintosh; Intel Mac OS X 10_15_7) AppleWebKit/605.1.15 (KHTML, like Gecko) Version/17.4.1 Safari/605.1.15",Macintosh,Safari,17.4.1,OS X,10_15_7,https://5puzkbbxv1.cognition.run/?sona_id=53008,"en-US,en;q=0.9",qc8lkqyq0tecmch,21,"[""Asian""]",No,Female,"China, 16 years",No,315366,NA,null,<p></p>,null,choice,tcd,trinary,repulsion_A,2,televisions,null,null,null,null,null,null,2,NA,NA,NA,NA,NA,NA,NA,NA,NA,NA
NA,NA,NA,NA,NA,choice_trial,survey-html-form,55,152544,0.0-4.0-1.25,61,1,2025-04-28T19:16:41Z,b60275e29fe2361ab97ac0ac217840d7,"Mozilla/5.0 (Macintosh; Intel Mac OS X 10_15_7) AppleWebKit/605.1.15 (KHTML, like Gecko) Version/17.4.1 Safari/605.1.15",Macintosh,Safari,17.4.1,OS X,10_15_7,https://5puzkbbxv1.cognition.run/?sona_id=53008,"en-US,en;q=0.9",qc8lkqyq0tecmch,21,"[""Asian""]",No,Female,"China, 16 years",No,315366,NA,1527,NA,"{""product_choice"":""B""}",choice,tcd,trinary,repulsion_A,2,televisions,null,null,null,null,null,null,2,30,40,20,100,90,100,Screen size,Average lifespan,NA,NA
NA,NA,NA,NA,NA,choice_trial_setup,html-keyboard-response,56,152847,0.0-4.0-0.26,61,1,2025-04-28T19:16:41Z,b60275e29fe2361ab97ac0ac217840d7,"Mozilla/5.0 (Macintosh; Intel Mac OS X 10_15_7) AppleWebKit/605.1.15 (KHTML, like Gecko) Version/17.4.1 Safari/605.1.15",Macintosh,Safari,17.4.1,OS X,10_15_7,https://5puzkbbxv1.cognition.run/?sona_id=53008,"en-US,en;q=0.9",qc8lkqyq0tecmch,21,"[""Asian""]",No,Female,"China, 16 years",No,315366,NA,null,<p></p>,null,choice,wb,binary,catch,null,washing machines,95,85,50,35,null,null,1,NA,NA,NA,NA,NA,NA,NA,NA,NA,NA
NA,NA,NA,NA,NA,choice_trial,survey-html-form,57,155424,0.0-4.0-1.26,61,1,2025-04-28T19:16:41Z,b60275e29fe2361ab97ac0ac217840d7,"Mozilla/5.0 (Macintosh; Intel Mac OS X 10_15_7) AppleWebKit/605.1.15 (KHTML, like Gecko) Version/17.4.1 Safari/605.1.15",Macintosh,Safari,17.4.1,OS X,10_15_7,https://5puzkbbxv1.cognition.run/?sona_id=53008,"en-US,en;q=0.9",qc8lkqyq0tecmch,21,"[""Asian""]",No,Female,"China, 16 years",No,315366,NA,2572,NA,"{""product_choice"":""B""}",choice,wb,binary,catch,null,washing machines,95,85,50,35,null,null,1,null,null,null,null,null,null,Average lifespan,Energy savings,NA,NA
NA,NA,NA,NA,NA,choice_trial_setup,html-keyboard-response,58,155727,0.0-4.0-0.27,61,1,2025-04-28T19:16:41Z,b60275e29fe2361ab97ac0ac217840d7,"Mozilla/5.0 (Macintosh; Intel Mac OS X 10_15_7) AppleWebKit/605.1.15 (KHTML, like Gecko) Version/17.4.1 Safari/605.1.15",Macintosh,Safari,17.4.1,OS X,10_15_7,https://5puzkbbxv1.cognition.run/?sona_id=53008,"en-US,en;q=0.9",qc8lkqyq0tecmch,21,"[""Asian""]",No,Female,"China, 16 years",No,315366,NA,null,<p></p>,null,choice,tdc,trinary,repulsion_A,2,washing machines,null,null,null,null,null,null,2,NA,NA,NA,NA,NA,NA,NA,NA,NA,NA
NA,NA,NA,NA,NA,choice_trial,survey-html-form,59,159112,0.0-4.0-1.27,61,1,2025-04-28T19:16:41Z,b60275e29fe2361ab97ac0ac217840d7,"Mozilla/5.0 (Macintosh; Intel Mac OS X 10_15_7) AppleWebKit/605.1.15 (KHTML, like Gecko) Version/17.4.1 Safari/605.1.15",Macintosh,Safari,17.4.1,OS X,10_15_7,https://5puzkbbxv1.cognition.run/?sona_id=53008,"en-US,en;q=0.9",qc8lkqyq0tecmch,21,"[""Asian""]",No,Female,"China, 16 years",No,315366,NA,3381,NA,"{""product_choice"":""C""}",choice,tdc,trinary,repulsion_A,2,washing machines,null,null,null,null,null,null,2,30,40,20,100,90,100,Average lifespan,Energy savings,NA,NA
NA,NA,NA,NA,NA,choice_trial_setup,html-keyboard-response,60,159414,0.0-4.0-0.28,61,1,2025-04-28T19:16:41Z,b60275e29fe2361ab97ac0ac217840d7,"Mozilla/5.0 (Macintosh; Intel Mac OS X 10_15_7) AppleWebKit/605.1.15 (KHTML, like Gecko) Version/17.4.1 Safari/605.1.15",Macintosh,Safari,17.4.1,OS X,10_15_7,https://5puzkbbxv1.cognition.run/?sona_id=53008,"en-US,en;q=0.9",qc8lkqyq0tecmch,21,"[""Asian""]",No,Female,"China, 16 years",No,315366,NA,null,<p></p>,null,choice,ct,binary,repulsion,1,microwave ovens,null,null,null,null,null,null,1,NA,NA,NA,NA,NA,NA,NA,NA,NA,NA
NA,NA,NA,NA,NA,choice_trial,survey-html-form,61,161815,0.0-4.0-1.28,61,1,2025-04-28T19:16:41Z,b60275e29fe2361ab97ac0ac217840d7,"Mozilla/5.0 (Macintosh; Intel Mac OS X 10_15_7) AppleWebKit/605.1.15 (KHTML, like Gecko) Version/17.4.1 Safari/605.1.15",Macintosh,Safari,17.4.1,OS X,10_15_7,https://5puzkbbxv1.cognition.run/?sona_id=53008,"en-US,en;q=0.9",qc8lkqyq0tecmch,21,"[""Asian""]",No,Female,"China, 16 years",No,315366,NA,2397,NA,"{""product_choice"":""A""}",choice,ct,binary,repulsion,1,microwave ovens,null,null,null,null,null,null,1,100,90,null,30,40,null,Warranty,Cooking power,NA,NA
NA,NA,NA,NA,NA,choice_trial_setup,html-keyboard-response,62,162118,0.0-4.0-0.29,61,1,2025-04-28T19:16:41Z,b60275e29fe2361ab97ac0ac217840d7,"Mozilla/5.0 (Macintosh; Intel Mac OS X 10_15_7) AppleWebKit/605.1.15 (KHTML, like Gecko) Version/17.4.1 Safari/605.1.15",Macintosh,Safari,17.4.1,OS X,10_15_7,https://5puzkbbxv1.cognition.run/?sona_id=53008,"en-US,en;q=0.9",qc8lkqyq0tecmch,21,"[""Asian""]",No,Female,"China, 16 years",No,315366,NA,null,<p></p>,null,choice,dct,trinary,repulsion_A,1,laptops,null,null,null,null,null,null,2,NA,NA,NA,NA,NA,NA,NA,NA,NA,NA
NA,NA,NA,NA,NA,choice_trial,survey-html-form,63,167893,0.0-4.0-1.29,61,1,2025-04-28T19:16:41Z,b60275e29fe2361ab97ac0ac217840d7,"Mozilla/5.0 (Macintosh; Intel Mac OS X 10_15_7) AppleWebKit/605.1.15 (KHTML, like Gecko) Version/17.4.1 Safari/605.1.15",Macintosh,Safari,17.4.1,OS X,10_15_7,https://5puzkbbxv1.cognition.run/?sona_id=53008,"en-US,en;q=0.9",qc8lkqyq0tecmch,21,"[""Asian""]",No,Female,"China, 16 years",No,315366,NA,5771,NA,"{""product_choice"":""C""}",choice,dct,trinary,repulsion_A,1,laptops,null,null,null,null,null,null,2,100,90,100,30,40,20,Processing speed,Memory (RAM),NA,NA
NA,NA,NA,NA,NA,choice_trial_setup,html-keyboard-response,64,168196,0.0-4.0-0.30,61,1,2025-04-28T19:16:41Z,b60275e29fe2361ab97ac0ac217840d7,"Mozilla/5.0 (Macintosh; Intel Mac OS X 10_15_7) AppleWebKit/605.1.15 (KHTML, like Gecko) Version/17.4.1 Safari/605.1.15",Macintosh,Safari,17.4.1,OS X,10_15_7,https://5puzkbbxv1.cognition.run/?sona_id=53008,"en-US,en;q=0.9",qc8lkqyq0tecmch,21,"[""Asian""]",No,Female,"China, 16 years",No,315366,NA,null,<p></p>,null,choice,bw,binary,catch,null,laptops,85,70,10,15,null,null,1,NA,NA,NA,NA,NA,NA,NA,NA,NA,NA
NA,NA,NA,NA,NA,choice_trial,survey-html-form,65,170584,0.0-4.0-1.30,61,1,2025-04-28T19:16:41Z,b60275e29fe2361ab97ac0ac217840d7,"Mozilla/5.0 (Macintosh; Intel Mac OS X 10_15_7) AppleWebKit/605.1.15 (KHTML, like Gecko) Version/17.4.1 Safari/605.1.15",Macintosh,Safari,17.4.1,OS X,10_15_7,https://5puzkbbxv1.cognition.run/?sona_id=53008,"en-US,en;q=0.9",qc8lkqyq0tecmch,21,"[""Asian""]",No,Female,"China, 16 years",No,315366,NA,2382,NA,"{""product_choice"":""A""}",choice,bw,binary,catch,null,laptops,85,70,10,15,null,null,1,null,null,null,null,null,null,Processing speed,Memory (RAM),NA,NA
NA,NA,NA,NA,NA,choice_trial_setup,html-keyboard-response,66,170887,0.0-4.0-0.31,61,1,2025-04-28T19:16:41Z,b60275e29fe2361ab97ac0ac217840d7,"Mozilla/5.0 (Macintosh; Intel Mac OS X 10_15_7) AppleWebKit/605.1.15 (KHTML, like Gecko) Version/17.4.1 Safari/605.1.15",Macintosh,Safari,17.4.1,OS X,10_15_7,https://5puzkbbxv1.cognition.run/?sona_id=53008,"en-US,en;q=0.9",qc8lkqyq0tecmch,21,"[""Asian""]",No,Female,"China, 16 years",No,315366,NA,null,<p></p>,null,choice,tcd,trinary,repulsion_B,1,laptops,null,null,null,null,null,null,2,NA,NA,NA,NA,NA,NA,NA,NA,NA,NA
NA,NA,NA,NA,NA,choice_trial,survey-html-form,67,174338,0.0-4.0-1.31,61,1,2025-04-28T19:16:41Z,b60275e29fe2361ab97ac0ac217840d7,"Mozilla/5.0 (Macintosh; Intel Mac OS X 10_15_7) AppleWebKit/605.1.15 (KHTML, like Gecko) Version/17.4.1 Safari/605.1.15",Macintosh,Safari,17.4.1,OS X,10_15_7,https://5puzkbbxv1.cognition.run/?sona_id=53008,"en-US,en;q=0.9",qc8lkqyq0tecmch,21,"[""Asian""]",No,Female,"China, 16 years",No,315366,NA,3448,NA,"{""product_choice"":""A""}",choice,tcd,trinary,repulsion_B,1,laptops,null,null,null,null,null,null,2,90,100,80,40,30,40,Processing speed,Memory (RAM),NA,NA
NA,NA,NA,NA,NA,choice_trial_setup,html-keyboard-response,68,174640,0.0-4.0-0.32,61,1,2025-04-28T19:16:41Z,b60275e29fe2361ab97ac0ac217840d7,"Mozilla/5.0 (Macintosh; Intel Mac OS X 10_15_7) AppleWebKit/605.1.15 (KHTML, like Gecko) Version/17.4.1 Safari/605.1.15",Macintosh,Safari,17.4.1,OS X,10_15_7,https://5puzkbbxv1.cognition.run/?sona_id=53008,"en-US,en;q=0.9",qc8lkqyq0tecmch,21,"[""Asian""]",No,Female,"China, 16 years",No,315366,NA,null,<p></p>,null,choice,ct,binary,attraction,NA,washing machines,null,null,null,null,null,null,1,NA,NA,NA,NA,NA,NA,NA,NA,NA,NA
NA,NA,NA,NA,NA,choice_trial,survey-html-form,69,176196,0.0-4.0-1.32,61,1,2025-04-28T19:16:41Z,b60275e29fe2361ab97ac0ac217840d7,"Mozilla/5.0 (Macintosh; Intel Mac OS X 10_15_7) AppleWebKit/605.1.15 (KHTML, like Gecko) Version/17.4.1 Safari/605.1.15",Macintosh,Safari,17.4.1,OS X,10_15_7,https://5puzkbbxv1.cognition.run/?sona_id=53008,"en-US,en;q=0.9",qc8lkqyq0tecmch,21,"[""Asian""]",No,Female,"China, 16 years",No,315366,NA,1553,NA,"{""product_choice"":""A""}",choice,ct,binary,attraction,NA,washing machines,null,null,null,null,null,null,1,60,50,null,50,60,null,Average lifespan,Energy savings,NA,NA
NA,NA,NA,NA,NA,choice_trial_setup,html-keyboard-response,70,176498,0.0-4.0-0.33,61,1,2025-04-28T19:16:41Z,b60275e29fe2361ab97ac0ac217840d7,"Mozilla/5.0 (Macintosh; Intel Mac OS X 10_15_7) AppleWebKit/605.1.15 (KHTML, like Gecko) Version/17.4.1 Safari/605.1.15",Macintosh,Safari,17.4.1,OS X,10_15_7,https://5puzkbbxv1.cognition.run/?sona_id=53008,"en-US,en;q=0.9",qc8lkqyq0tecmch,21,"[""Asian""]",No,Female,"China, 16 years",No,315366,NA,null,<p></p>,null,choice,tdc,trinary,repulsion_A,2,laptops,null,null,null,null,null,null,2,NA,NA,NA,NA,NA,NA,NA,NA,NA,NA
NA,NA,NA,NA,NA,choice_trial,survey-html-form,71,182284,0.0-4.0-1.33,61,1,2025-04-28T19:16:41Z,b60275e29fe2361ab97ac0ac217840d7,"Mozilla/5.0 (Macintosh; Intel Mac OS X 10_15_7) AppleWebKit/605.1.15 (KHTML, like Gecko) Version/17.4.1 Safari/605.1.15",Macintosh,Safari,17.4.1,OS X,10_15_7,https://5puzkbbxv1.cognition.run/?sona_id=53008,"en-US,en;q=0.9",qc8lkqyq0tecmch,21,"[""Asian""]",No,Female,"China, 16 years",No,315366,NA,5783,NA,"{""product_choice"":""C""}",choice,tdc,trinary,repulsion_A,2,laptops,null,null,null,null,null,null,2,30,40,20,100,90,100,Processing speed,Memory (RAM),NA,NA
NA,NA,NA,NA,NA,choice_trial_setup,html-keyboard-response,72,182587,0.0-4.0-0.34,61,1,2025-04-28T19:16:41Z,b60275e29fe2361ab97ac0ac217840d7,"Mozilla/5.0 (Macintosh; Intel Mac OS X 10_15_7) AppleWebKit/605.1.15 (KHTML, like Gecko) Version/17.4.1 Safari/605.1.15",Macintosh,Safari,17.4.1,OS X,10_15_7,https://5puzkbbxv1.cognition.run/?sona_id=53008,"en-US,en;q=0.9",qc8lkqyq0tecmch,21,"[""Asian""]",No,Female,"China, 16 years",No,315366,NA,null,<p></p>,null,choice,tcd,trinary,attraction,2,washing machines,null,null,null,null,null,null,1,NA,NA,NA,NA,NA,NA,NA,NA,NA,NA
NA,NA,NA,NA,NA,choice_trial,survey-html-form,73,184206,0.0-4.0-1.34,61,1,2025-04-28T19:16:41Z,b60275e29fe2361ab97ac0ac217840d7,"Mozilla/5.0 (Macintosh; Intel Mac OS X 10_15_7) AppleWebKit/605.1.15 (KHTML, like Gecko) Version/17.4.1 Safari/605.1.15",Macintosh,Safari,17.4.1,OS X,10_15_7,https://5puzkbbxv1.cognition.run/?sona_id=53008,"en-US,en;q=0.9",qc8lkqyq0tecmch,21,"[""Asian""]",No,Female,"China, 16 years",No,315366,NA,1616,NA,"{""product_choice"":""B""}",choice,tcd,trinary,attraction,2,washing machines,null,null,null,null,null,null,1,50,60,40,60,50,60,Average lifespan,Energy savings,NA,NA
NA,NA,NA,NA,NA,choice_trial_setup,html-keyboard-response,74,184509,0.0-4.0-0.35,61,1,2025-04-28T19:16:41Z,b60275e29fe2361ab97ac0ac217840d7,"Mozilla/5.0 (Macintosh; Intel Mac OS X 10_15_7) AppleWebKit/605.1.15 (KHTML, like Gecko) Version/17.4.1 Safari/605.1.15",Macintosh,Safari,17.4.1,OS X,10_15_7,https://5puzkbbxv1.cognition.run/?sona_id=53008,"en-US,en;q=0.9",qc8lkqyq0tecmch,21,"[""Asian""]",No,Female,"China, 16 years",No,315366,NA,null,<p></p>,null,choice,bw,binary,catch,null,microwave ovens,75,80,15,45,null,null,2,NA,NA,NA,NA,NA,NA,NA,NA,NA,NA
NA,NA,NA,NA,NA,choice_trial,survey-html-form,75,186505,0.0-4.0-1.35,61,1,2025-04-28T19:16:41Z,b60275e29fe2361ab97ac0ac217840d7,"Mozilla/5.0 (Macintosh; Intel Mac OS X 10_15_7) AppleWebKit/605.1.15 (KHTML, like Gecko) Version/17.4.1 Safari/605.1.15",Macintosh,Safari,17.4.1,OS X,10_15_7,https://5puzkbbxv1.cognition.run/?sona_id=53008,"en-US,en;q=0.9",qc8lkqyq0tecmch,21,"[""Asian""]",No,Female,"China, 16 years",No,315366,NA,1993,NA,"{""product_choice"":""A""}",choice,bw,binary,catch,null,microwave ovens,75,80,15,45,null,null,2,null,null,null,null,null,null,Warranty,Cooking power,NA,NA
NA,NA,NA,NA,NA,choice_trial_setup,html-keyboard-response,76,186808,0.0-4.0-0.36,61,1,2025-04-28T19:16:41Z,b60275e29fe2361ab97ac0ac217840d7,"Mozilla/5.0 (Macintosh; Intel Mac OS X 10_15_7) AppleWebKit/605.1.15 (KHTML, like Gecko) Version/17.4.1 Safari/605.1.15",Macintosh,Safari,17.4.1,OS X,10_15_7,https://5puzkbbxv1.cognition.run/?sona_id=53008,"en-US,en;q=0.9",qc8lkqyq0tecmch,21,"[""Asian""]",No,Female,"China, 16 years",No,315366,NA,null,<p></p>,null,choice,ctd,trinary,attraction,2,televisions,null,null,null,null,null,null,1,NA,NA,NA,NA,NA,NA,NA,NA,NA,NA
NA,NA,NA,NA,NA,choice_trial,survey-html-form,77,190129,0.0-4.0-1.36,61,1,2025-04-28T19:16:41Z,b60275e29fe2361ab97ac0ac217840d7,"Mozilla/5.0 (Macintosh; Intel Mac OS X 10_15_7) AppleWebKit/605.1.15 (KHTML, like Gecko) Version/17.4.1 Safari/605.1.15",Macintosh,Safari,17.4.1,OS X,10_15_7,https://5puzkbbxv1.cognition.run/?sona_id=53008,"en-US,en;q=0.9",qc8lkqyq0tecmch,21,"[""Asian""]",No,Female,"China, 16 years",No,315366,NA,3317,NA,"{""product_choice"":""C""}",choice,ctd,trinary,attraction,2,televisions,null,null,null,null,null,null,1,50,60,40,60,50,60,Screen size,Average lifespan,NA,NA
NA,NA,NA,NA,NA,choice_trial_setup,html-keyboard-response,78,190432,0.0-4.0-0.37,61,1,2025-04-28T19:16:41Z,b60275e29fe2361ab97ac0ac217840d7,"Mozilla/5.0 (Macintosh; Intel Mac OS X 10_15_7) AppleWebKit/605.1.15 (KHTML, like Gecko) Version/17.4.1 Safari/605.1.15",Macintosh,Safari,17.4.1,OS X,10_15_7,https://5puzkbbxv1.cognition.run/?sona_id=53008,"en-US,en;q=0.9",qc8lkqyq0tecmch,21,"[""Asian""]",No,Female,"China, 16 years",No,315366,NA,null,<p></p>,null,choice,tdc,trinary,repulsion_A,1,washing machines,null,null,null,null,null,null,1,NA,NA,NA,NA,NA,NA,NA,NA,NA,NA
NA,NA,NA,NA,NA,choice_trial,survey-html-form,79,192797,0.0-4.0-1.37,61,1,2025-04-28T19:16:41Z,b60275e29fe2361ab97ac0ac217840d7,"Mozilla/5.0 (Macintosh; Intel Mac OS X 10_15_7) AppleWebKit/605.1.15 (KHTML, like Gecko) Version/17.4.1 Safari/605.1.15",Macintosh,Safari,17.4.1,OS X,10_15_7,https://5puzkbbxv1.cognition.run/?sona_id=53008,"en-US,en;q=0.9",qc8lkqyq0tecmch,21,"[""Asian""]",No,Female,"China, 16 years",No,315366,NA,2359,NA,"{""product_choice"":""C""}",choice,tdc,trinary,repulsion_A,1,washing machines,null,null,null,null,null,null,1,100,90,100,30,40,20,Average lifespan,Energy savings,NA,NA
NA,NA,NA,NA,NA,choice_trial_setup,html-keyboard-response,80,193101,0.0-4.0-0.38,61,1,2025-04-28T19:16:41Z,b60275e29fe2361ab97ac0ac217840d7,"Mozilla/5.0 (Macintosh; Intel Mac OS X 10_15_7) AppleWebKit/605.1.15 (KHTML, like Gecko) Version/17.4.1 Safari/605.1.15",Macintosh,Safari,17.4.1,OS X,10_15_7,https://5puzkbbxv1.cognition.run/?sona_id=53008,"en-US,en;q=0.9",qc8lkqyq0tecmch,21,"[""Asian""]",No,Female,"China, 16 years",No,315366,NA,null,<p></p>,null,choice,dtc,trinary,attraction,1,microwave ovens,null,null,null,null,null,null,1,NA,NA,NA,NA,NA,NA,NA,NA,NA,NA
NA,NA,NA,NA,NA,choice_trial,survey-html-form,81,195791,0.0-4.0-1.38,61,1,2025-04-28T19:16:41Z,b60275e29fe2361ab97ac0ac217840d7,"Mozilla/5.0 (Macintosh; Intel Mac OS X 10_15_7) AppleWebKit/605.1.15 (KHTML, like Gecko) Version/17.4.1 Safari/605.1.15",Macintosh,Safari,17.4.1,OS X,10_15_7,https://5puzkbbxv1.cognition.run/?sona_id=53008,"en-US,en;q=0.9",qc8lkqyq0tecmch,21,"[""Asian""]",No,Female,"China, 16 years",No,315366,NA,2685,NA,"{""product_choice"":""A""}",choice,dtc,trinary,attraction,1,microwave ovens,null,null,null,null,null,null,1,60,50,60,50,60,40,Warranty,Cooking power,NA,NA
NA,NA,NA,NA,NA,choice_trial_setup,html-keyboard-response,82,196094,0.0-4.0-0.39,61,1,2025-04-28T19:16:41Z,b60275e29fe2361ab97ac0ac217840d7,"Mozilla/5.0 (Macintosh; Intel Mac OS X 10_15_7) AppleWebKit/605.1.15 (KHTML, like Gecko) Version/17.4.1 Safari/605.1.15",Macintosh,Safari,17.4.1,OS X,10_15_7,https://5puzkbbxv1.cognition.run/?sona_id=53008,"en-US,en;q=0.9",qc8lkqyq0tecmch,21,"[""Asian""]",No,Female,"China, 16 years",No,315366,NA,null,<p></p>,null,choice,bw,binary,catch,null,televisions,65,65,25,50,null,null,1,NA,NA,NA,NA,NA,NA,NA,NA,NA,NA
NA,NA,NA,NA,NA,choice_trial,survey-html-form,83,198359,0.0-4.0-1.39,61,1,2025-04-28T19:16:41Z,b60275e29fe2361ab97ac0ac217840d7,"Mozilla/5.0 (Macintosh; Intel Mac OS X 10_15_7) AppleWebKit/605.1.15 (KHTML, like Gecko) Version/17.4.1 Safari/605.1.15",Macintosh,Safari,17.4.1,OS X,10_15_7,https://5puzkbbxv1.cognition.run/?sona_id=53008,"en-US,en;q=0.9",qc8lkqyq0tecmch,21,"[""Asian""]",No,Female,"China, 16 years",No,315366,NA,2261,NA,"{""product_choice"":""A""}",choice,bw,binary,catch,null,televisions,65,65,25,50,null,null,1,null,null,null,null,null,null,Screen size,Average lifespan,NA,NA
NA,NA,NA,NA,NA,choice_trial_setup,html-keyboard-response,84,198663,0.0-4.0-0.40,61,1,2025-04-28T19:16:41Z,b60275e29fe2361ab97ac0ac217840d7,"Mozilla/5.0 (Macintosh; Intel Mac OS X 10_15_7) AppleWebKit/605.1.15 (KHTML, like Gecko) Version/17.4.1 Safari/605.1.15",Macintosh,Safari,17.4.1,OS X,10_15_7,https://5puzkbbxv1.cognition.run/?sona_id=53008,"en-US,en;q=0.9",qc8lkqyq0tecmch,21,"[""Asian""]",No,Female,"China, 16 years",No,315366,NA,null,<p></p>,null,choice,ctd,trinary,attraction,2,laptops,null,null,null,null,null,null,1,NA,NA,NA,NA,NA,NA,NA,NA,NA,NA
NA,NA,NA,NA,NA,choice_trial,survey-html-form,85,200288,0.0-4.0-1.40,61,1,2025-04-28T19:16:41Z,b60275e29fe2361ab97ac0ac217840d7,"Mozilla/5.0 (Macintosh; Intel Mac OS X 10_15_7) AppleWebKit/605.1.15 (KHTML, like Gecko) Version/17.4.1 Safari/605.1.15",Macintosh,Safari,17.4.1,OS X,10_15_7,https://5puzkbbxv1.cognition.run/?sona_id=53008,"en-US,en;q=0.9",qc8lkqyq0tecmch,21,"[""Asian""]",No,Female,"China, 16 years",No,315366,NA,1622,NA,"{""product_choice"":""B""}",choice,ctd,trinary,attraction,2,laptops,null,null,null,null,null,null,1,50,60,40,60,50,60,Processing speed,Memory (RAM),NA,NA
NA,NA,NA,NA,NA,choice_trial_setup,html-keyboard-response,86,200590,0.0-4.0-0.41,61,1,2025-04-28T19:16:41Z,b60275e29fe2361ab97ac0ac217840d7,"Mozilla/5.0 (Macintosh; Intel Mac OS X 10_15_7) AppleWebKit/605.1.15 (KHTML, like Gecko) Version/17.4.1 Safari/605.1.15",Macintosh,Safari,17.4.1,OS X,10_15_7,https://5puzkbbxv1.cognition.run/?sona_id=53008,"en-US,en;q=0.9",qc8lkqyq0tecmch,21,"[""Asian""]",No,Female,"China, 16 years",No,315366,NA,null,<p></p>,null,choice,tcd,trinary,attraction,1,televisions,null,null,null,null,null,null,1,NA,NA,NA,NA,NA,NA,NA,NA,NA,NA
NA,NA,NA,NA,NA,choice_trial,survey-html-form,87,202556,0.0-4.0-1.41,61,1,2025-04-28T19:16:41Z,b60275e29fe2361ab97ac0ac217840d7,"Mozilla/5.0 (Macintosh; Intel Mac OS X 10_15_7) AppleWebKit/605.1.15 (KHTML, like Gecko) Version/17.4.1 Safari/605.1.15",Macintosh,Safari,17.4.1,OS X,10_15_7,https://5puzkbbxv1.cognition.run/?sona_id=53008,"en-US,en;q=0.9",qc8lkqyq0tecmch,21,"[""Asian""]",No,Female,"China, 16 years",No,315366,NA,1961,NA,"{""product_choice"":""B""}",choice,tcd,trinary,attraction,1,televisions,null,null,null,null,null,null,1,60,50,60,50,60,40,Screen size,Average lifespan,NA,NA
NA,NA,NA,NA,NA,choice_trial_setup,html-keyboard-response,88,202859,0.0-4.0-0.42,61,1,2025-04-28T19:16:41Z,b60275e29fe2361ab97ac0ac217840d7,"Mozilla/5.0 (Macintosh; Intel Mac OS X 10_15_7) AppleWebKit/605.1.15 (KHTML, like Gecko) Version/17.4.1 Safari/605.1.15",Macintosh,Safari,17.4.1,OS X,10_15_7,https://5puzkbbxv1.cognition.run/?sona_id=53008,"en-US,en;q=0.9",qc8lkqyq0tecmch,21,"[""Asian""]",No,Female,"China, 16 years",No,315366,NA,null,<p></p>,null,choice,dtc,trinary,attraction,2,microwave ovens,null,null,null,null,null,null,1,NA,NA,NA,NA,NA,NA,NA,NA,NA,NA
NA,NA,NA,NA,NA,choice_trial,survey-html-form,89,204257,0.0-4.0-1.42,61,1,2025-04-28T19:16:41Z,b60275e29fe2361ab97ac0ac217840d7,"Mozilla/5.0 (Macintosh; Intel Mac OS X 10_15_7) AppleWebKit/605.1.15 (KHTML, like Gecko) Version/17.4.1 Safari/605.1.15",Macintosh,Safari,17.4.1,OS X,10_15_7,https://5puzkbbxv1.cognition.run/?sona_id=53008,"en-US,en;q=0.9",qc8lkqyq0tecmch,21,"[""Asian""]",No,Female,"China, 16 years",No,315366,NA,1392,NA,"{""product_choice"":""C""}",choice,dtc,trinary,attraction,2,microwave ovens,null,null,null,null,null,null,1,50,60,40,60,50,60,Warranty,Cooking power,NA,NA
NA,NA,NA,NA,NA,choice_trial_setup,html-keyboard-response,90,204561,0.0-4.0-0.43,61,1,2025-04-28T19:16:41Z,b60275e29fe2361ab97ac0ac217840d7,"Mozilla/5.0 (Macintosh; Intel Mac OS X 10_15_7) AppleWebKit/605.1.15 (KHTML, like Gecko) Version/17.4.1 Safari/605.1.15",Macintosh,Safari,17.4.1,OS X,10_15_7,https://5puzkbbxv1.cognition.run/?sona_id=53008,"en-US,en;q=0.9",qc8lkqyq0tecmch,21,"[""Asian""]",No,Female,"China, 16 years",No,315366,NA,null,<p></p>,null,choice,tcd,trinary,repulsion_A,2,microwave ovens,null,null,null,null,null,null,1,NA,NA,NA,NA,NA,NA,NA,NA,NA,NA
NA,NA,NA,NA,NA,choice_trial,survey-html-form,91,205844,0.0-4.0-1.43,61,1,2025-04-28T19:16:41Z,b60275e29fe2361ab97ac0ac217840d7,"Mozilla/5.0 (Macintosh; Intel Mac OS X 10_15_7) AppleWebKit/605.1.15 (KHTML, like Gecko) Version/17.4.1 Safari/605.1.15",Macintosh,Safari,17.4.1,OS X,10_15_7,https://5puzkbbxv1.cognition.run/?sona_id=53008,"en-US,en;q=0.9",qc8lkqyq0tecmch,21,"[""Asian""]",No,Female,"China, 16 years",No,315366,NA,1279,NA,"{""product_choice"":""B""}",choice,tcd,trinary,repulsion_A,2,microwave ovens,null,null,null,null,null,null,1,30,40,20,100,90,100,Warranty,Cooking power,NA,NA
NA,NA,NA,NA,NA,post_trials_message,html-button-response,92,208809,0.0-5.0,61,1,2025-04-28T19:16:41Z,b60275e29fe2361ab97ac0ac217840d7,"Mozilla/5.0 (Macintosh; Intel Mac OS X 10_15_7) AppleWebKit/605.1.15 (KHTML, like Gecko) Version/17.4.1 Safari/605.1.15",Macintosh,Safari,17.4.1,OS X,10_15_7,https://5puzkbbxv1.cognition.run/?sona_id=53008,"en-US,en;q=0.9",qc8lkqyq0tecmch,21,"[""Asian""]",No,Female,"China, 16 years",No,315366,NA,2961,<p> <b>Thank you for your patience!</b></p><p>  The study will be done after completing a brief form. </p>,0,NA,NA,NA,NA,NA,NA,NA,NA,NA,NA,NA,NA,NA,NA,NA,NA,NA,NA,NA,NA,NA,NA,NA
NA,NA,NA,NA,NA,survey_message,survey-text,93,240040,0.0-6.0,61,1,2025-04-28T19:16:41Z,b60275e29fe2361ab97ac0ac217840d7,"Mozilla/5.0 (Macintosh; Intel Mac OS X 10_15_7) AppleWebKit/605.1.15 (KHTML, like Gecko) Version/17.4.1 Safari/605.1.15",Macintosh,Safari,17.4.1,OS X,10_15_7,https://5puzkbbxv1.cognition.run/?sona_id=53008,"en-US,en;q=0.9",qc8lkqyq0tecmch,21,"[""Asian""]",No,Female,"China, 16 years",No,315366,NA,31215,NA,"{""Q0"":""choose what I need the most""}",NA,NA,NA,NA,NA,NA,NA,NA,NA,NA,NA,NA,NA,NA,NA,NA,NA,NA,NA,NA,NA,choose what I need the most,NA
NA,NA,NA,NA,NA,demo_age,survey-text,94,244195,0.0-7.0,61,1,2025-04-28T19:16:41Z,b60275e29fe2361ab97ac0ac217840d7,"Mozilla/5.0 (Macintosh; Intel Mac OS X 10_15_7) AppleWebKit/605.1.15 (KHTML, like Gecko) Version/17.4.1 Safari/605.1.15",Macintosh,Safari,17.4.1,OS X,10_15_7,https://5puzkbbxv1.cognition.run/?sona_id=53008,"en-US,en;q=0.9",qc8lkqyq0tecmch,21,"[""Asian""]",No,Female,"China, 16 years",No,315366,NA,4146,NA,"{""Q0"":""21""}",NA,NA,NA,NA,NA,NA,NA,NA,NA,NA,NA,NA,NA,NA,NA,NA,NA,NA,NA,NA,NA,NA,NA
NA,NA,NA,NA,NA,demo_race,survey-multi-select,95,246536,0.0-8.0,61,1,2025-04-28T19:16:41Z,b60275e29fe2361ab97ac0ac217840d7,"Mozilla/5.0 (Macintosh; Intel Mac OS X 10_15_7) AppleWebKit/605.1.15 (KHTML, like Gecko) Version/17.4.1 Safari/605.1.15",Macintosh,Safari,17.4.1,OS X,10_15_7,https://5puzkbbxv1.cognition.run/?sona_id=53008,"en-US,en;q=0.9",qc8lkqyq0tecmch,21,"[""Asian""]",No,Female,"China, 16 years",No,315366,NA,2339,NA,"{""Q0"":[""Asian""]}",NA,NA,NA,NA,NA,NA,NA,NA,NA,NA,NA,NA,NA,NA,NA,NA,NA,NA,NA,NA,NA,NA,[0]
NA,NA,NA,NA,NA,demo_ethnicity_gender,survey-multi-choice,96,251127,0.0-9.0,61,1,2025-04-28T19:16:41Z,b60275e29fe2361ab97ac0ac217840d7,"Mozilla/5.0 (Macintosh; Intel Mac OS X 10_15_7) AppleWebKit/605.1.15 (KHTML, like Gecko) Version/17.4.1 Safari/605.1.15",Macintosh,Safari,17.4.1,OS X,10_15_7,https://5puzkbbxv1.cognition.run/?sona_id=53008,"en-US,en;q=0.9",qc8lkqyq0tecmch,21,"[""Asian""]",No,Female,"China, 16 years",No,315366,NA,4587,NA,"{""Q0"":""No"",""Q1"":""Female""}",NA,NA,NA,NA,NA,NA,NA,NA,NA,NA,NA,NA,NA,NA,NA,NA,NA,NA,NA,NA,NA,NA,"[0,1]"
NA,NA,NA,NA,NA,demo_countries,survey-text,97,295187,0.0-10.0,61,1,2025-04-28T19:16:41Z,b60275e29fe2361ab97ac0ac217840d7,"Mozilla/5.0 (Macintosh; Intel Mac OS X 10_15_7) AppleWebKit/605.1.15 (KHTML, like Gecko) Version/17.4.1 Safari/605.1.15",Macintosh,Safari,17.4.1,OS X,10_15_7,https://5puzkbbxv1.cognition.run/?sona_id=53008,"en-US,en;q=0.9",qc8lkqyq0tecmch,21,"[""Asian""]",No,Female,"China, 16 years",No,315366,NA,44056,NA,"{""Q0"":""China, 16 years""}",NA,NA,NA,NA,NA,NA,NA,NA,NA,NA,NA,NA,NA,NA,NA,NA,NA,NA,NA,NA,NA,NA,NA
NA,NA,NA,NA,NA,demo_prev_study,survey-multi-choice,98,303948,0.0-11.0,61,1,2025-04-28T19:16:41Z,b60275e29fe2361ab97ac0ac217840d7,"Mozilla/5.0 (Macintosh; Intel Mac OS X 10_15_7) AppleWebKit/605.1.15 (KHTML, like Gecko) Version/17.4.1 Safari/605.1.15",Macintosh,Safari,17.4.1,OS X,10_15_7,https://5puzkbbxv1.cognition.run/?sona_id=53008,"en-US,en;q=0.9",qc8lkqyq0tecmch,21,"[""Asian""]",No,Female,"China, 16 years",No,315366,NA,8758,NA,"{""Q0"":""No""}",NA,NA,NA,NA,NA,NA,NA,NA,NA,NA,NA,NA,NA,NA,NA,NA,NA,NA,NA,NA,NA,NA,[0]
NA,NA,NA,NA,NA,post_survey_message,html-keyboard-response,99,311222,0.0-12.0,61,1,2025-04-28T19:16:41Z,b60275e29fe2361ab97ac0ac217840d7,"Mozilla/5.0 (Macintosh; Intel Mac OS X 10_15_7) AppleWebKit/605.1.15 (KHTML, like Gecko) Version/17.4.1 Safari/605.1.15",Macintosh,Safari,17.4.1,OS X,10_15_7,https://5puzkbbxv1.cognition.run/?sona_id=53008,"en-US,en;q=0.9",qc8lkqyq0tecmch,21,"[""Asian""]",No,Female,"China, 16 years",No,315366,NA,7271,NA,j,NA,NA,NA,NA,NA,NA,NA,NA,NA,NA,NA,NA,NA,NA,NA,NA,NA,NA,NA,NA,NA,NA,NA
NA,NA,NA,NA,NA,debrief,image-keyboard-response,100,315364,0.0-13.0,61,1,2025-04-28T19:16:41Z,b60275e29fe2361ab97ac0ac217840d7,"Mozilla/5.0 (Macintosh; Intel Mac OS X 10_15_7) AppleWebKit/605.1.15 (KHTML, like Gecko) Version/17.4.1 Safari/605.1.15",Macintosh,Safari,17.4.1,OS X,10_15_7,https://5puzkbbxv1.cognition.run/?sona_id=53008,"en-US,en;q=0.9",qc8lkqyq0tecmch,21,"[""Asian""]",No,Female,"China, 16 years",No,315366,NA,4115,Judg_choice_debrief.png,p,NA,NA,NA,NA,NA,NA,NA,NA,NA,NA,NA,NA,NA,NA,NA,NA,NA,NA,NA,NA,NA,NA,NA
