success,timeout,failed_images,failed_audio,failed_video,screen_id,trial_type,trial_index,time_elapsed,internal_node_id,run_id,condition,recorded_at,source_code_version,user_agent,device,browser,browser_version,platform,platform_version,referer,accept_language,ppt_id,age,race,ethnicity,gender,other_countries,prev_study,exp_duration,view_history,rt,stimulus,response,phase,order,set,effect,t_high,category,d1_best,d2_best,d1_worst1,d2_worst1,d1_worst2,d2_worst2,first_dim,d1_t,d1_c,d1_d,d2_t,d2_c,d2_d,d1_name,d2_name,strategy_response,question_order
TRUE,FALSE,[],[],[],img preload,preload,0,129,0.0-0.0,64,1,2025-04-28T20:17:49Z,b60275e29fe2361ab97ac0ac217840d7,"Mozilla/5.0 (Macintosh; Intel Mac OS X 10_15_7) AppleWebKit/537.36 (KHTML, like Gecko) Chrome/135.0.0.0 Safari/537.36",Macintosh,Chrome,135.0.0.0,OS X,10_15_7,https://5puzkbbxv1.cognition.run/?sona_id=57345,"en-US,en;q=0.9",quwo1ot4x5edepx,22,"[""White""]",No,Male,NA,No,173028.80000001192,NA,NA,NA,NA,NA,NA,NA,NA,NA,NA,NA,NA,NA,NA,NA,NA,NA,NA,NA,NA,NA,NA,NA,NA,NA,NA,NA
NA,NA,NA,NA,NA,computer_message,instructions,1,1326,0.0-1.0,64,1,2025-04-28T20:17:49Z,b60275e29fe2361ab97ac0ac217840d7,"Mozilla/5.0 (Macintosh; Intel Mac OS X 10_15_7) AppleWebKit/537.36 (KHTML, like Gecko) Chrome/135.0.0.0 Safari/537.36",Macintosh,Chrome,135.0.0.0,OS X,10_15_7,https://5puzkbbxv1.cognition.run/?sona_id=57345,"en-US,en;q=0.9",quwo1ot4x5edepx,22,"[""White""]",No,Male,NA,No,173028.80000001192,"[{""page_index"":0,""viewing_time"":1195}]",1196,NA,NA,NA,NA,NA,NA,NA,NA,NA,NA,NA,NA,NA,NA,NA,NA,NA,NA,NA,NA,NA,NA,NA,NA,NA
TRUE,NA,NA,NA,NA,NA,fullscreen,2,3093,0.0-2.0,64,1,2025-04-28T20:17:49Z,b60275e29fe2361ab97ac0ac217840d7,"Mozilla/5.0 (Macintosh; Intel Mac OS X 10_15_7) AppleWebKit/537.36 (KHTML, like Gecko) Chrome/135.0.0.0 Safari/537.36",Macintosh,Chrome,135.0.0.0,OS X,10_15_7,https://5puzkbbxv1.cognition.run/?sona_id=57345,"en-US,en;q=0.9",quwo1ot4x5edepx,22,"[""White""]",No,Male,NA,No,173028.80000001192,NA,763,NA,NA,NA,NA,NA,NA,NA,NA,NA,NA,NA,NA,NA,NA,NA,NA,NA,NA,NA,NA,NA,NA,NA,NA,NA
NA,NA,NA,NA,NA,choice_instructions,instructions,3,15724,0.0-3.0,64,1,2025-04-28T20:17:49Z,b60275e29fe2361ab97ac0ac217840d7,"Mozilla/5.0 (Macintosh; Intel Mac OS X 10_15_7) AppleWebKit/537.36 (KHTML, like Gecko) Chrome/135.0.0.0 Safari/537.36",Macintosh,Chrome,135.0.0.0,OS X,10_15_7,https://5puzkbbxv1.cognition.run/?sona_id=57345,"en-US,en;q=0.9",quwo1ot4x5edepx,22,"[""White""]",No,Male,NA,No,173028.80000001192,"[{""page_index"":0,""viewing_time"":1029},{""page_index"":1,""viewing_time"":1016},{""page_index"":2,""viewing_time"":850},{""page_index"":3,""viewing_time"":751},{""page_index"":4,""viewing_time"":533},{""page_index"":5,""viewing_time"":7517},{""page_index"":6,""viewing_time"":933}]",12630,NA,NA,NA,NA,NA,NA,NA,NA,NA,NA,NA,NA,NA,NA,NA,NA,NA,NA,NA,NA,NA,NA,NA,NA,NA
NA,NA,NA,NA,NA,choice_trial_setup,html-keyboard-response,4,16029,0.0-4.0-0.0,64,1,2025-04-28T20:17:49Z,b60275e29fe2361ab97ac0ac217840d7,"Mozilla/5.0 (Macintosh; Intel Mac OS X 10_15_7) AppleWebKit/537.36 (KHTML, like Gecko) Chrome/135.0.0.0 Safari/537.36",Macintosh,Chrome,135.0.0.0,OS X,10_15_7,https://5puzkbbxv1.cognition.run/?sona_id=57345,"en-US,en;q=0.9",quwo1ot4x5edepx,22,"[""White""]",No,Male,NA,No,173028.80000001192,NA,null,<p></p>,null,choice,cdt,trinary,repulsion_A,2,televisions,null,null,null,null,null,null,1,NA,NA,NA,NA,NA,NA,NA,NA,NA,NA
NA,NA,NA,NA,NA,choice_trial,survey-html-form,5,26942,0.0-4.0-1.0,64,1,2025-04-28T20:17:49Z,b60275e29fe2361ab97ac0ac217840d7,"Mozilla/5.0 (Macintosh; Intel Mac OS X 10_15_7) AppleWebKit/537.36 (KHTML, like Gecko) Chrome/135.0.0.0 Safari/537.36",Macintosh,Chrome,135.0.0.0,OS X,10_15_7,https://5puzkbbxv1.cognition.run/?sona_id=57345,"en-US,en;q=0.9",quwo1ot4x5edepx,22,"[""White""]",No,Male,NA,No,173028.80000001192,NA,10908,NA,"{""product_choice"":""A""}",choice,cdt,trinary,repulsion_A,2,televisions,null,null,null,null,null,null,1,30,40,20,100,90,100,Screen size,Average lifespan,NA,NA
NA,NA,NA,NA,NA,choice_trial_setup,html-keyboard-response,6,27246,0.0-4.0-0.1,64,1,2025-04-28T20:17:49Z,b60275e29fe2361ab97ac0ac217840d7,"Mozilla/5.0 (Macintosh; Intel Mac OS X 10_15_7) AppleWebKit/537.36 (KHTML, like Gecko) Chrome/135.0.0.0 Safari/537.36",Macintosh,Chrome,135.0.0.0,OS X,10_15_7,https://5puzkbbxv1.cognition.run/?sona_id=57345,"en-US,en;q=0.9",quwo1ot4x5edepx,22,"[""White""]",No,Male,NA,No,173028.80000001192,NA,null,<p></p>,null,choice,wb,binary,catch,null,laptops,65,75,50,25,null,null,1,NA,NA,NA,NA,NA,NA,NA,NA,NA,NA
NA,NA,NA,NA,NA,choice_trial,survey-html-form,7,29391,0.0-4.0-1.1,64,1,2025-04-28T20:17:49Z,b60275e29fe2361ab97ac0ac217840d7,"Mozilla/5.0 (Macintosh; Intel Mac OS X 10_15_7) AppleWebKit/537.36 (KHTML, like Gecko) Chrome/135.0.0.0 Safari/537.36",Macintosh,Chrome,135.0.0.0,OS X,10_15_7,https://5puzkbbxv1.cognition.run/?sona_id=57345,"en-US,en;q=0.9",quwo1ot4x5edepx,22,"[""White""]",No,Male,NA,No,173028.80000001192,NA,2142,NA,"{""product_choice"":""B""}",choice,wb,binary,catch,null,laptops,65,75,50,25,null,null,1,null,null,null,null,null,null,Processing speed,Memory (RAM),NA,NA
NA,NA,NA,NA,NA,choice_trial_setup,html-keyboard-response,8,29695,0.0-4.0-0.2,64,1,2025-04-28T20:17:49Z,b60275e29fe2361ab97ac0ac217840d7,"Mozilla/5.0 (Macintosh; Intel Mac OS X 10_15_7) AppleWebKit/537.36 (KHTML, like Gecko) Chrome/135.0.0.0 Safari/537.36",Macintosh,Chrome,135.0.0.0,OS X,10_15_7,https://5puzkbbxv1.cognition.run/?sona_id=57345,"en-US,en;q=0.9",quwo1ot4x5edepx,22,"[""White""]",No,Male,NA,No,173028.80000001192,NA,null,<p></p>,null,choice,ctd,trinary,repulsion_B,2,televisions,null,null,null,null,null,null,2,NA,NA,NA,NA,NA,NA,NA,NA,NA,NA
NA,NA,NA,NA,NA,choice_trial,survey-html-form,9,32026,0.0-4.0-1.2,64,1,2025-04-28T20:17:49Z,b60275e29fe2361ab97ac0ac217840d7,"Mozilla/5.0 (Macintosh; Intel Mac OS X 10_15_7) AppleWebKit/537.36 (KHTML, like Gecko) Chrome/135.0.0.0 Safari/537.36",Macintosh,Chrome,135.0.0.0,OS X,10_15_7,https://5puzkbbxv1.cognition.run/?sona_id=57345,"en-US,en;q=0.9",quwo1ot4x5edepx,22,"[""White""]",No,Male,NA,No,173028.80000001192,NA,2327,NA,"{""product_choice"":""B""}",choice,ctd,trinary,repulsion_B,2,televisions,null,null,null,null,null,null,2,40,30,40,90,100,80,Screen size,Average lifespan,NA,NA
NA,NA,NA,NA,NA,choice_trial_setup,html-keyboard-response,10,32328,0.0-4.0-0.3,64,1,2025-04-28T20:17:49Z,b60275e29fe2361ab97ac0ac217840d7,"Mozilla/5.0 (Macintosh; Intel Mac OS X 10_15_7) AppleWebKit/537.36 (KHTML, like Gecko) Chrome/135.0.0.0 Safari/537.36",Macintosh,Chrome,135.0.0.0,OS X,10_15_7,https://5puzkbbxv1.cognition.run/?sona_id=57345,"en-US,en;q=0.9",quwo1ot4x5edepx,22,"[""White""]",No,Male,NA,No,173028.80000001192,NA,null,<p></p>,null,choice,tc,binary,repulsion,1,washing machines,null,null,null,null,null,null,2,NA,NA,NA,NA,NA,NA,NA,NA,NA,NA
NA,NA,NA,NA,NA,choice_trial,survey-html-form,11,33842,0.0-4.0-1.3,64,1,2025-04-28T20:17:49Z,b60275e29fe2361ab97ac0ac217840d7,"Mozilla/5.0 (Macintosh; Intel Mac OS X 10_15_7) AppleWebKit/537.36 (KHTML, like Gecko) Chrome/135.0.0.0 Safari/537.36",Macintosh,Chrome,135.0.0.0,OS X,10_15_7,https://5puzkbbxv1.cognition.run/?sona_id=57345,"en-US,en;q=0.9",quwo1ot4x5edepx,22,"[""White""]",No,Male,NA,No,173028.80000001192,NA,1511,NA,"{""product_choice"":""B""}",choice,tc,binary,repulsion,1,washing machines,null,null,null,null,null,null,2,100,90,null,30,40,null,Average lifespan,Energy savings,NA,NA
NA,NA,NA,NA,NA,choice_trial_setup,html-keyboard-response,12,34145,0.0-4.0-0.4,64,1,2025-04-28T20:17:49Z,b60275e29fe2361ab97ac0ac217840d7,"Mozilla/5.0 (Macintosh; Intel Mac OS X 10_15_7) AppleWebKit/537.36 (KHTML, like Gecko) Chrome/135.0.0.0 Safari/537.36",Macintosh,Chrome,135.0.0.0,OS X,10_15_7,https://5puzkbbxv1.cognition.run/?sona_id=57345,"en-US,en;q=0.9",quwo1ot4x5edepx,22,"[""White""]",No,Male,NA,No,173028.80000001192,NA,null,<p></p>,null,choice,tdc,trinary,repulsion_A,2,laptops,null,null,null,null,null,null,1,NA,NA,NA,NA,NA,NA,NA,NA,NA,NA
NA,NA,NA,NA,NA,choice_trial,survey-html-form,13,35425,0.0-4.0-1.4,64,1,2025-04-28T20:17:49Z,b60275e29fe2361ab97ac0ac217840d7,"Mozilla/5.0 (Macintosh; Intel Mac OS X 10_15_7) AppleWebKit/537.36 (KHTML, like Gecko) Chrome/135.0.0.0 Safari/537.36",Macintosh,Chrome,135.0.0.0,OS X,10_15_7,https://5puzkbbxv1.cognition.run/?sona_id=57345,"en-US,en;q=0.9",quwo1ot4x5edepx,22,"[""White""]",No,Male,NA,No,173028.80000001192,NA,1277,NA,"{""product_choice"":""A""}",choice,tdc,trinary,repulsion_A,2,laptops,null,null,null,null,null,null,1,30,40,20,100,90,100,Processing speed,Memory (RAM),NA,NA
NA,NA,NA,NA,NA,choice_trial_setup,html-keyboard-response,14,35728,0.0-4.0-0.5,64,1,2025-04-28T20:17:49Z,b60275e29fe2361ab97ac0ac217840d7,"Mozilla/5.0 (Macintosh; Intel Mac OS X 10_15_7) AppleWebKit/537.36 (KHTML, like Gecko) Chrome/135.0.0.0 Safari/537.36",Macintosh,Chrome,135.0.0.0,OS X,10_15_7,https://5puzkbbxv1.cognition.run/?sona_id=57345,"en-US,en;q=0.9",quwo1ot4x5edepx,22,"[""White""]",No,Male,NA,No,173028.80000001192,NA,null,<p></p>,null,choice,bw,binary,catch,null,televisions,60,60,40,45,null,null,1,NA,NA,NA,NA,NA,NA,NA,NA,NA,NA
NA,NA,NA,NA,NA,choice_trial,survey-html-form,15,37824,0.0-4.0-1.5,64,1,2025-04-28T20:17:49Z,b60275e29fe2361ab97ac0ac217840d7,"Mozilla/5.0 (Macintosh; Intel Mac OS X 10_15_7) AppleWebKit/537.36 (KHTML, like Gecko) Chrome/135.0.0.0 Safari/537.36",Macintosh,Chrome,135.0.0.0,OS X,10_15_7,https://5puzkbbxv1.cognition.run/?sona_id=57345,"en-US,en;q=0.9",quwo1ot4x5edepx,22,"[""White""]",No,Male,NA,No,173028.80000001192,NA,2094,NA,"{""product_choice"":""A""}",choice,bw,binary,catch,null,televisions,60,60,40,45,null,null,1,null,null,null,null,null,null,Screen size,Average lifespan,NA,NA
NA,NA,NA,NA,NA,choice_trial_setup,html-keyboard-response,16,38128,0.0-4.0-0.6,64,1,2025-04-28T20:17:49Z,b60275e29fe2361ab97ac0ac217840d7,"Mozilla/5.0 (Macintosh; Intel Mac OS X 10_15_7) AppleWebKit/537.36 (KHTML, like Gecko) Chrome/135.0.0.0 Safari/537.36",Macintosh,Chrome,135.0.0.0,OS X,10_15_7,https://5puzkbbxv1.cognition.run/?sona_id=57345,"en-US,en;q=0.9",quwo1ot4x5edepx,22,"[""White""]",No,Male,NA,No,173028.80000001192,NA,null,<p></p>,null,choice,dct,trinary,repulsion_B,2,washing machines,null,null,null,null,null,null,1,NA,NA,NA,NA,NA,NA,NA,NA,NA,NA
NA,NA,NA,NA,NA,choice_trial,survey-html-form,17,39775,0.0-4.0-1.6,64,1,2025-04-28T20:17:49Z,b60275e29fe2361ab97ac0ac217840d7,"Mozilla/5.0 (Macintosh; Intel Mac OS X 10_15_7) AppleWebKit/537.36 (KHTML, like Gecko) Chrome/135.0.0.0 Safari/537.36",Macintosh,Chrome,135.0.0.0,OS X,10_15_7,https://5puzkbbxv1.cognition.run/?sona_id=57345,"en-US,en;q=0.9",quwo1ot4x5edepx,22,"[""White""]",No,Male,NA,No,173028.80000001192,NA,1644,NA,"{""product_choice"":""C""}",choice,dct,trinary,repulsion_B,2,washing machines,null,null,null,null,null,null,1,40,30,40,90,100,80,Average lifespan,Energy savings,NA,NA
NA,NA,NA,NA,NA,choice_trial_setup,html-keyboard-response,18,40078,0.0-4.0-0.7,64,1,2025-04-28T20:17:49Z,b60275e29fe2361ab97ac0ac217840d7,"Mozilla/5.0 (Macintosh; Intel Mac OS X 10_15_7) AppleWebKit/537.36 (KHTML, like Gecko) Chrome/135.0.0.0 Safari/537.36",Macintosh,Chrome,135.0.0.0,OS X,10_15_7,https://5puzkbbxv1.cognition.run/?sona_id=57345,"en-US,en;q=0.9",quwo1ot4x5edepx,22,"[""White""]",No,Male,NA,No,173028.80000001192,NA,null,<p></p>,null,choice,tc,binary,attraction,NA,televisions,null,null,null,null,null,null,2,NA,NA,NA,NA,NA,NA,NA,NA,NA,NA
NA,NA,NA,NA,NA,choice_trial,survey-html-form,19,42207,0.0-4.0-1.7,64,1,2025-04-28T20:17:49Z,b60275e29fe2361ab97ac0ac217840d7,"Mozilla/5.0 (Macintosh; Intel Mac OS X 10_15_7) AppleWebKit/537.36 (KHTML, like Gecko) Chrome/135.0.0.0 Safari/537.36",Macintosh,Chrome,135.0.0.0,OS X,10_15_7,https://5puzkbbxv1.cognition.run/?sona_id=57345,"en-US,en;q=0.9",quwo1ot4x5edepx,22,"[""White""]",No,Male,NA,No,173028.80000001192,NA,2127,NA,"{""product_choice"":""B""}",choice,tc,binary,attraction,NA,televisions,null,null,null,null,null,null,2,60,50,null,50,60,null,Screen size,Average lifespan,NA,NA
NA,NA,NA,NA,NA,choice_trial_setup,html-keyboard-response,20,42511,0.0-4.0-0.8,64,1,2025-04-28T20:17:49Z,b60275e29fe2361ab97ac0ac217840d7,"Mozilla/5.0 (Macintosh; Intel Mac OS X 10_15_7) AppleWebKit/537.36 (KHTML, like Gecko) Chrome/135.0.0.0 Safari/537.36",Macintosh,Chrome,135.0.0.0,OS X,10_15_7,https://5puzkbbxv1.cognition.run/?sona_id=57345,"en-US,en;q=0.9",quwo1ot4x5edepx,22,"[""White""]",No,Male,NA,No,173028.80000001192,NA,null,<p></p>,null,choice,ct,binary,repulsion,2,microwave ovens,null,null,null,null,null,null,2,NA,NA,NA,NA,NA,NA,NA,NA,NA,NA
NA,NA,NA,NA,NA,choice_trial,survey-html-form,21,45058,0.0-4.0-1.8,64,1,2025-04-28T20:17:49Z,b60275e29fe2361ab97ac0ac217840d7,"Mozilla/5.0 (Macintosh; Intel Mac OS X 10_15_7) AppleWebKit/537.36 (KHTML, like Gecko) Chrome/135.0.0.0 Safari/537.36",Macintosh,Chrome,135.0.0.0,OS X,10_15_7,https://5puzkbbxv1.cognition.run/?sona_id=57345,"en-US,en;q=0.9",quwo1ot4x5edepx,22,"[""White""]",No,Male,NA,No,173028.80000001192,NA,2544,NA,"{""product_choice"":""B""}",choice,ct,binary,repulsion,2,microwave ovens,null,null,null,null,null,null,2,30,40,null,100,90,null,Warranty,Cooking power,NA,NA
NA,NA,NA,NA,NA,choice_trial_setup,html-keyboard-response,22,45362,0.0-4.0-0.9,64,1,2025-04-28T20:17:49Z,b60275e29fe2361ab97ac0ac217840d7,"Mozilla/5.0 (Macintosh; Intel Mac OS X 10_15_7) AppleWebKit/537.36 (KHTML, like Gecko) Chrome/135.0.0.0 Safari/537.36",Macintosh,Chrome,135.0.0.0,OS X,10_15_7,https://5puzkbbxv1.cognition.run/?sona_id=57345,"en-US,en;q=0.9",quwo1ot4x5edepx,22,"[""White""]",No,Male,NA,No,173028.80000001192,NA,null,<p></p>,null,choice,dtc,trinary,attraction,1,washing machines,null,null,null,null,null,null,2,NA,NA,NA,NA,NA,NA,NA,NA,NA,NA
NA,NA,NA,NA,NA,choice_trial,survey-html-form,23,46892,0.0-4.0-1.9,64,1,2025-04-28T20:17:49Z,b60275e29fe2361ab97ac0ac217840d7,"Mozilla/5.0 (Macintosh; Intel Mac OS X 10_15_7) AppleWebKit/537.36 (KHTML, like Gecko) Chrome/135.0.0.0 Safari/537.36",Macintosh,Chrome,135.0.0.0,OS X,10_15_7,https://5puzkbbxv1.cognition.run/?sona_id=57345,"en-US,en;q=0.9",quwo1ot4x5edepx,22,"[""White""]",No,Male,NA,No,173028.80000001192,NA,1526,NA,"{""product_choice"":""B""}",choice,dtc,trinary,attraction,1,washing machines,null,null,null,null,null,null,2,60,50,60,50,60,40,Average lifespan,Energy savings,NA,NA
NA,NA,NA,NA,NA,choice_trial_setup,html-keyboard-response,24,47196,0.0-4.0-0.10,64,1,2025-04-28T20:17:49Z,b60275e29fe2361ab97ac0ac217840d7,"Mozilla/5.0 (Macintosh; Intel Mac OS X 10_15_7) AppleWebKit/537.36 (KHTML, like Gecko) Chrome/135.0.0.0 Safari/537.36",Macintosh,Chrome,135.0.0.0,OS X,10_15_7,https://5puzkbbxv1.cognition.run/?sona_id=57345,"en-US,en;q=0.9",quwo1ot4x5edepx,22,"[""White""]",No,Male,NA,No,173028.80000001192,NA,null,<p></p>,null,choice,dct,trinary,repulsion_A,1,laptops,null,null,null,null,null,null,2,NA,NA,NA,NA,NA,NA,NA,NA,NA,NA
NA,NA,NA,NA,NA,choice_trial,survey-html-form,25,49475,0.0-4.0-1.10,64,1,2025-04-28T20:17:49Z,b60275e29fe2361ab97ac0ac217840d7,"Mozilla/5.0 (Macintosh; Intel Mac OS X 10_15_7) AppleWebKit/537.36 (KHTML, like Gecko) Chrome/135.0.0.0 Safari/537.36",Macintosh,Chrome,135.0.0.0,OS X,10_15_7,https://5puzkbbxv1.cognition.run/?sona_id=57345,"en-US,en;q=0.9",quwo1ot4x5edepx,22,"[""White""]",No,Male,NA,No,173028.80000001192,NA,2275,NA,"{""product_choice"":""A""}",choice,dct,trinary,repulsion_A,1,laptops,null,null,null,null,null,null,2,100,90,100,30,40,20,Processing speed,Memory (RAM),NA,NA
NA,NA,NA,NA,NA,choice_trial_setup,html-keyboard-response,26,49778,0.0-4.0-0.11,64,1,2025-04-28T20:17:49Z,b60275e29fe2361ab97ac0ac217840d7,"Mozilla/5.0 (Macintosh; Intel Mac OS X 10_15_7) AppleWebKit/537.36 (KHTML, like Gecko) Chrome/135.0.0.0 Safari/537.36",Macintosh,Chrome,135.0.0.0,OS X,10_15_7,https://5puzkbbxv1.cognition.run/?sona_id=57345,"en-US,en;q=0.9",quwo1ot4x5edepx,22,"[""White""]",No,Male,NA,No,173028.80000001192,NA,null,<p></p>,null,choice,tcd,trinary,attraction,2,laptops,null,null,null,null,null,null,2,NA,NA,NA,NA,NA,NA,NA,NA,NA,NA
NA,NA,NA,NA,NA,choice_trial,survey-html-form,27,51142,0.0-4.0-1.11,64,1,2025-04-28T20:17:49Z,b60275e29fe2361ab97ac0ac217840d7,"Mozilla/5.0 (Macintosh; Intel Mac OS X 10_15_7) AppleWebKit/537.36 (KHTML, like Gecko) Chrome/135.0.0.0 Safari/537.36",Macintosh,Chrome,135.0.0.0,OS X,10_15_7,https://5puzkbbxv1.cognition.run/?sona_id=57345,"en-US,en;q=0.9",quwo1ot4x5edepx,22,"[""White""]",No,Male,NA,No,173028.80000001192,NA,1361,NA,"{""product_choice"":""C""}",choice,tcd,trinary,attraction,2,laptops,null,null,null,null,null,null,2,50,60,40,60,50,60,Processing speed,Memory (RAM),NA,NA
NA,NA,NA,NA,NA,choice_trial_setup,html-keyboard-response,28,51446,0.0-4.0-0.12,64,1,2025-04-28T20:17:49Z,b60275e29fe2361ab97ac0ac217840d7,"Mozilla/5.0 (Macintosh; Intel Mac OS X 10_15_7) AppleWebKit/537.36 (KHTML, like Gecko) Chrome/135.0.0.0 Safari/537.36",Macintosh,Chrome,135.0.0.0,OS X,10_15_7,https://5puzkbbxv1.cognition.run/?sona_id=57345,"en-US,en;q=0.9",quwo1ot4x5edepx,22,"[""White""]",No,Male,NA,No,173028.80000001192,NA,null,<p></p>,null,choice,ctd,trinary,repulsion_A,1,microwave ovens,null,null,null,null,null,null,1,NA,NA,NA,NA,NA,NA,NA,NA,NA,NA
NA,NA,NA,NA,NA,choice_trial,survey-html-form,29,52675,0.0-4.0-1.12,64,1,2025-04-28T20:17:49Z,b60275e29fe2361ab97ac0ac217840d7,"Mozilla/5.0 (Macintosh; Intel Mac OS X 10_15_7) AppleWebKit/537.36 (KHTML, like Gecko) Chrome/135.0.0.0 Safari/537.36",Macintosh,Chrome,135.0.0.0,OS X,10_15_7,https://5puzkbbxv1.cognition.run/?sona_id=57345,"en-US,en;q=0.9",quwo1ot4x5edepx,22,"[""White""]",No,Male,NA,No,173028.80000001192,NA,1226,NA,"{""product_choice"":""B""}",choice,ctd,trinary,repulsion_A,1,microwave ovens,null,null,null,null,null,null,1,100,90,100,30,40,20,Warranty,Cooking power,NA,NA
NA,NA,NA,NA,NA,choice_trial_setup,html-keyboard-response,30,52979,0.0-4.0-0.13,64,1,2025-04-28T20:17:49Z,b60275e29fe2361ab97ac0ac217840d7,"Mozilla/5.0 (Macintosh; Intel Mac OS X 10_15_7) AppleWebKit/537.36 (KHTML, like Gecko) Chrome/135.0.0.0 Safari/537.36",Macintosh,Chrome,135.0.0.0,OS X,10_15_7,https://5puzkbbxv1.cognition.run/?sona_id=57345,"en-US,en;q=0.9",quwo1ot4x5edepx,22,"[""White""]",No,Male,NA,No,173028.80000001192,NA,null,<p></p>,null,choice,ctd,trinary,attraction,1,microwave ovens,null,null,null,null,null,null,2,NA,NA,NA,NA,NA,NA,NA,NA,NA,NA
NA,NA,NA,NA,NA,choice_trial,survey-html-form,31,55424,0.0-4.0-1.13,64,1,2025-04-28T20:17:49Z,b60275e29fe2361ab97ac0ac217840d7,"Mozilla/5.0 (Macintosh; Intel Mac OS X 10_15_7) AppleWebKit/537.36 (KHTML, like Gecko) Chrome/135.0.0.0 Safari/537.36",Macintosh,Chrome,135.0.0.0,OS X,10_15_7,https://5puzkbbxv1.cognition.run/?sona_id=57345,"en-US,en;q=0.9",quwo1ot4x5edepx,22,"[""White""]",No,Male,NA,No,173028.80000001192,NA,2442,NA,"{""product_choice"":""C""}",choice,ctd,trinary,attraction,1,microwave ovens,null,null,null,null,null,null,2,60,50,60,50,60,40,Warranty,Cooking power,NA,NA
NA,NA,NA,NA,NA,choice_trial_setup,html-keyboard-response,32,55729,0.0-4.0-0.14,64,1,2025-04-28T20:17:49Z,b60275e29fe2361ab97ac0ac217840d7,"Mozilla/5.0 (Macintosh; Intel Mac OS X 10_15_7) AppleWebKit/537.36 (KHTML, like Gecko) Chrome/135.0.0.0 Safari/537.36",Macintosh,Chrome,135.0.0.0,OS X,10_15_7,https://5puzkbbxv1.cognition.run/?sona_id=57345,"en-US,en;q=0.9",quwo1ot4x5edepx,22,"[""White""]",No,Male,NA,No,173028.80000001192,NA,null,<p></p>,null,choice,tc,binary,attraction,NA,washing machines,null,null,null,null,null,null,1,NA,NA,NA,NA,NA,NA,NA,NA,NA,NA
NA,NA,NA,NA,NA,choice_trial,survey-html-form,33,57542,0.0-4.0-1.14,64,1,2025-04-28T20:17:49Z,b60275e29fe2361ab97ac0ac217840d7,"Mozilla/5.0 (Macintosh; Intel Mac OS X 10_15_7) AppleWebKit/537.36 (KHTML, like Gecko) Chrome/135.0.0.0 Safari/537.36",Macintosh,Chrome,135.0.0.0,OS X,10_15_7,https://5puzkbbxv1.cognition.run/?sona_id=57345,"en-US,en;q=0.9",quwo1ot4x5edepx,22,"[""White""]",No,Male,NA,No,173028.80000001192,NA,1808,NA,"{""product_choice"":""A""}",choice,tc,binary,attraction,NA,washing machines,null,null,null,null,null,null,1,60,50,null,50,60,null,Average lifespan,Energy savings,NA,NA
NA,NA,NA,NA,NA,choice_trial_setup,html-keyboard-response,34,57846,0.0-4.0-0.15,64,1,2025-04-28T20:17:49Z,b60275e29fe2361ab97ac0ac217840d7,"Mozilla/5.0 (Macintosh; Intel Mac OS X 10_15_7) AppleWebKit/537.36 (KHTML, like Gecko) Chrome/135.0.0.0 Safari/537.36",Macintosh,Chrome,135.0.0.0,OS X,10_15_7,https://5puzkbbxv1.cognition.run/?sona_id=57345,"en-US,en;q=0.9",quwo1ot4x5edepx,22,"[""White""]",No,Male,NA,No,173028.80000001192,NA,null,<p></p>,null,choice,ctd,trinary,repulsion_B,2,laptops,null,null,null,null,null,null,2,NA,NA,NA,NA,NA,NA,NA,NA,NA,NA
NA,NA,NA,NA,NA,choice_trial,survey-html-form,35,59008,0.0-4.0-1.15,64,1,2025-04-28T20:17:49Z,b60275e29fe2361ab97ac0ac217840d7,"Mozilla/5.0 (Macintosh; Intel Mac OS X 10_15_7) AppleWebKit/537.36 (KHTML, like Gecko) Chrome/135.0.0.0 Safari/537.36",Macintosh,Chrome,135.0.0.0,OS X,10_15_7,https://5puzkbbxv1.cognition.run/?sona_id=57345,"en-US,en;q=0.9",quwo1ot4x5edepx,22,"[""White""]",No,Male,NA,No,173028.80000001192,NA,1158,NA,"{""product_choice"":""B""}",choice,ctd,trinary,repulsion_B,2,laptops,null,null,null,null,null,null,2,40,30,40,90,100,80,Processing speed,Memory (RAM),NA,NA
NA,NA,NA,NA,NA,choice_trial_setup,html-keyboard-response,36,59311,0.0-4.0-0.16,64,1,2025-04-28T20:17:49Z,b60275e29fe2361ab97ac0ac217840d7,"Mozilla/5.0 (Macintosh; Intel Mac OS X 10_15_7) AppleWebKit/537.36 (KHTML, like Gecko) Chrome/135.0.0.0 Safari/537.36",Macintosh,Chrome,135.0.0.0,OS X,10_15_7,https://5puzkbbxv1.cognition.run/?sona_id=57345,"en-US,en;q=0.9",quwo1ot4x5edepx,22,"[""White""]",No,Male,NA,No,173028.80000001192,NA,null,<p></p>,null,choice,tcd,trinary,repulsion_B,1,washing machines,null,null,null,null,null,null,1,NA,NA,NA,NA,NA,NA,NA,NA,NA,NA
NA,NA,NA,NA,NA,choice_trial,survey-html-form,37,61275,0.0-4.0-1.16,64,1,2025-04-28T20:17:49Z,b60275e29fe2361ab97ac0ac217840d7,"Mozilla/5.0 (Macintosh; Intel Mac OS X 10_15_7) AppleWebKit/537.36 (KHTML, like Gecko) Chrome/135.0.0.0 Safari/537.36",Macintosh,Chrome,135.0.0.0,OS X,10_15_7,https://5puzkbbxv1.cognition.run/?sona_id=57345,"en-US,en;q=0.9",quwo1ot4x5edepx,22,"[""White""]",No,Male,NA,No,173028.80000001192,NA,1959,NA,"{""product_choice"":""B""}",choice,tcd,trinary,repulsion_B,1,washing machines,null,null,null,null,null,null,1,90,100,80,40,30,40,Average lifespan,Energy savings,NA,NA
NA,NA,NA,NA,NA,choice_trial_setup,html-keyboard-response,38,61578,0.0-4.0-0.17,64,1,2025-04-28T20:17:49Z,b60275e29fe2361ab97ac0ac217840d7,"Mozilla/5.0 (Macintosh; Intel Mac OS X 10_15_7) AppleWebKit/537.36 (KHTML, like Gecko) Chrome/135.0.0.0 Safari/537.36",Macintosh,Chrome,135.0.0.0,OS X,10_15_7,https://5puzkbbxv1.cognition.run/?sona_id=57345,"en-US,en;q=0.9",quwo1ot4x5edepx,22,"[""White""]",No,Male,NA,No,173028.80000001192,NA,null,<p></p>,null,choice,ct,binary,repulsion,2,washing machines,null,null,null,null,null,null,2,NA,NA,NA,NA,NA,NA,NA,NA,NA,NA
NA,NA,NA,NA,NA,choice_trial,survey-html-form,39,64709,0.0-4.0-1.17,64,1,2025-04-28T20:17:49Z,b60275e29fe2361ab97ac0ac217840d7,"Mozilla/5.0 (Macintosh; Intel Mac OS X 10_15_7) AppleWebKit/537.36 (KHTML, like Gecko) Chrome/135.0.0.0 Safari/537.36",Macintosh,Chrome,135.0.0.0,OS X,10_15_7,https://5puzkbbxv1.cognition.run/?sona_id=57345,"en-US,en;q=0.9",quwo1ot4x5edepx,22,"[""White""]",No,Male,NA,No,173028.80000001192,NA,3126,NA,"{""product_choice"":""B""}",choice,ct,binary,repulsion,2,washing machines,null,null,null,null,null,null,2,30,40,null,100,90,null,Average lifespan,Energy savings,NA,NA
NA,NA,NA,NA,NA,choice_trial_setup,html-keyboard-response,40,65013,0.0-4.0-0.18,64,1,2025-04-28T20:17:49Z,b60275e29fe2361ab97ac0ac217840d7,"Mozilla/5.0 (Macintosh; Intel Mac OS X 10_15_7) AppleWebKit/537.36 (KHTML, like Gecko) Chrome/135.0.0.0 Safari/537.36",Macintosh,Chrome,135.0.0.0,OS X,10_15_7,https://5puzkbbxv1.cognition.run/?sona_id=57345,"en-US,en;q=0.9",quwo1ot4x5edepx,22,"[""White""]",No,Male,NA,No,173028.80000001192,NA,null,<p></p>,null,choice,tc,binary,repulsion,1,microwave ovens,null,null,null,null,null,null,2,NA,NA,NA,NA,NA,NA,NA,NA,NA,NA
NA,NA,NA,NA,NA,choice_trial,survey-html-form,41,68358,0.0-4.0-1.18,64,1,2025-04-28T20:17:49Z,b60275e29fe2361ab97ac0ac217840d7,"Mozilla/5.0 (Macintosh; Intel Mac OS X 10_15_7) AppleWebKit/537.36 (KHTML, like Gecko) Chrome/135.0.0.0 Safari/537.36",Macintosh,Chrome,135.0.0.0,OS X,10_15_7,https://5puzkbbxv1.cognition.run/?sona_id=57345,"en-US,en;q=0.9",quwo1ot4x5edepx,22,"[""White""]",No,Male,NA,No,173028.80000001192,NA,3340,NA,"{""product_choice"":""A""}",choice,tc,binary,repulsion,1,microwave ovens,null,null,null,null,null,null,2,100,90,null,30,40,null,Warranty,Cooking power,NA,NA
NA,NA,NA,NA,NA,choice_trial_setup,html-keyboard-response,42,68662,0.0-4.0-0.19,64,1,2025-04-28T20:17:49Z,b60275e29fe2361ab97ac0ac217840d7,"Mozilla/5.0 (Macintosh; Intel Mac OS X 10_15_7) AppleWebKit/537.36 (KHTML, like Gecko) Chrome/135.0.0.0 Safari/537.36",Macintosh,Chrome,135.0.0.0,OS X,10_15_7,https://5puzkbbxv1.cognition.run/?sona_id=57345,"en-US,en;q=0.9",quwo1ot4x5edepx,22,"[""White""]",No,Male,NA,No,173028.80000001192,NA,null,<p></p>,null,choice,ct,binary,repulsion,1,laptops,null,null,null,null,null,null,1,NA,NA,NA,NA,NA,NA,NA,NA,NA,NA
NA,NA,NA,NA,NA,choice_trial,survey-html-form,43,70991,0.0-4.0-1.19,64,1,2025-04-28T20:17:49Z,b60275e29fe2361ab97ac0ac217840d7,"Mozilla/5.0 (Macintosh; Intel Mac OS X 10_15_7) AppleWebKit/537.36 (KHTML, like Gecko) Chrome/135.0.0.0 Safari/537.36",Macintosh,Chrome,135.0.0.0,OS X,10_15_7,https://5puzkbbxv1.cognition.run/?sona_id=57345,"en-US,en;q=0.9",quwo1ot4x5edepx,22,"[""White""]",No,Male,NA,No,173028.80000001192,NA,2325,NA,"{""product_choice"":""A""}",choice,ct,binary,repulsion,1,laptops,null,null,null,null,null,null,1,100,90,null,30,40,null,Processing speed,Memory (RAM),NA,NA
NA,NA,NA,NA,NA,choice_trial_setup,html-keyboard-response,44,71295,0.0-4.0-0.20,64,1,2025-04-28T20:17:49Z,b60275e29fe2361ab97ac0ac217840d7,"Mozilla/5.0 (Macintosh; Intel Mac OS X 10_15_7) AppleWebKit/537.36 (KHTML, like Gecko) Chrome/135.0.0.0 Safari/537.36",Macintosh,Chrome,135.0.0.0,OS X,10_15_7,https://5puzkbbxv1.cognition.run/?sona_id=57345,"en-US,en;q=0.9",quwo1ot4x5edepx,22,"[""White""]",No,Male,NA,No,173028.80000001192,NA,null,<p></p>,null,choice,ct,binary,repulsion,2,televisions,null,null,null,null,null,null,2,NA,NA,NA,NA,NA,NA,NA,NA,NA,NA
NA,NA,NA,NA,NA,choice_trial,survey-html-form,45,72792,0.0-4.0-1.20,64,1,2025-04-28T20:17:49Z,b60275e29fe2361ab97ac0ac217840d7,"Mozilla/5.0 (Macintosh; Intel Mac OS X 10_15_7) AppleWebKit/537.36 (KHTML, like Gecko) Chrome/135.0.0.0 Safari/537.36",Macintosh,Chrome,135.0.0.0,OS X,10_15_7,https://5puzkbbxv1.cognition.run/?sona_id=57345,"en-US,en;q=0.9",quwo1ot4x5edepx,22,"[""White""]",No,Male,NA,No,173028.80000001192,NA,1493,NA,"{""product_choice"":""A""}",choice,ct,binary,repulsion,2,televisions,null,null,null,null,null,null,2,30,40,null,100,90,null,Screen size,Average lifespan,NA,NA
NA,NA,NA,NA,NA,choice_trial_setup,html-keyboard-response,46,73096,0.0-4.0-0.21,64,1,2025-04-28T20:17:49Z,b60275e29fe2361ab97ac0ac217840d7,"Mozilla/5.0 (Macintosh; Intel Mac OS X 10_15_7) AppleWebKit/537.36 (KHTML, like Gecko) Chrome/135.0.0.0 Safari/537.36",Macintosh,Chrome,135.0.0.0,OS X,10_15_7,https://5puzkbbxv1.cognition.run/?sona_id=57345,"en-US,en;q=0.9",quwo1ot4x5edepx,22,"[""White""]",No,Male,NA,No,173028.80000001192,NA,null,<p></p>,null,choice,tc,binary,attraction,NA,microwave ovens,null,null,null,null,null,null,1,NA,NA,NA,NA,NA,NA,NA,NA,NA,NA
NA,NA,NA,NA,NA,choice_trial,survey-html-form,47,75376,0.0-4.0-1.21,64,1,2025-04-28T20:17:49Z,b60275e29fe2361ab97ac0ac217840d7,"Mozilla/5.0 (Macintosh; Intel Mac OS X 10_15_7) AppleWebKit/537.36 (KHTML, like Gecko) Chrome/135.0.0.0 Safari/537.36",Macintosh,Chrome,135.0.0.0,OS X,10_15_7,https://5puzkbbxv1.cognition.run/?sona_id=57345,"en-US,en;q=0.9",quwo1ot4x5edepx,22,"[""White""]",No,Male,NA,No,173028.80000001192,NA,2274,NA,"{""product_choice"":""A""}",choice,tc,binary,attraction,NA,microwave ovens,null,null,null,null,null,null,1,60,50,null,50,60,null,Warranty,Cooking power,NA,NA
NA,NA,NA,NA,NA,choice_trial_setup,html-keyboard-response,48,75680,0.0-4.0-0.22,64,1,2025-04-28T20:17:49Z,b60275e29fe2361ab97ac0ac217840d7,"Mozilla/5.0 (Macintosh; Intel Mac OS X 10_15_7) AppleWebKit/537.36 (KHTML, like Gecko) Chrome/135.0.0.0 Safari/537.36",Macintosh,Chrome,135.0.0.0,OS X,10_15_7,https://5puzkbbxv1.cognition.run/?sona_id=57345,"en-US,en;q=0.9",quwo1ot4x5edepx,22,"[""White""]",No,Male,NA,No,173028.80000001192,NA,null,<p></p>,null,choice,ctd,trinary,attraction,2,washing machines,null,null,null,null,null,null,1,NA,NA,NA,NA,NA,NA,NA,NA,NA,NA
NA,NA,NA,NA,NA,choice_trial,survey-html-form,49,76975,0.0-4.0-1.22,64,1,2025-04-28T20:17:49Z,b60275e29fe2361ab97ac0ac217840d7,"Mozilla/5.0 (Macintosh; Intel Mac OS X 10_15_7) AppleWebKit/537.36 (KHTML, like Gecko) Chrome/135.0.0.0 Safari/537.36",Macintosh,Chrome,135.0.0.0,OS X,10_15_7,https://5puzkbbxv1.cognition.run/?sona_id=57345,"en-US,en;q=0.9",quwo1ot4x5edepx,22,"[""White""]",No,Male,NA,No,173028.80000001192,NA,1290,NA,"{""product_choice"":""B""}",choice,ctd,trinary,attraction,2,washing machines,null,null,null,null,null,null,1,50,60,40,60,50,60,Average lifespan,Energy savings,NA,NA
NA,NA,NA,NA,NA,choice_trial_setup,html-keyboard-response,50,77279,0.0-4.0-0.23,64,1,2025-04-28T20:17:49Z,b60275e29fe2361ab97ac0ac217840d7,"Mozilla/5.0 (Macintosh; Intel Mac OS X 10_15_7) AppleWebKit/537.36 (KHTML, like Gecko) Chrome/135.0.0.0 Safari/537.36",Macintosh,Chrome,135.0.0.0,OS X,10_15_7,https://5puzkbbxv1.cognition.run/?sona_id=57345,"en-US,en;q=0.9",quwo1ot4x5edepx,22,"[""White""]",No,Male,NA,No,173028.80000001192,NA,null,<p></p>,null,choice,ct,binary,attraction,NA,laptops,null,null,null,null,null,null,2,NA,NA,NA,NA,NA,NA,NA,NA,NA,NA
NA,NA,NA,NA,NA,choice_trial,survey-html-form,51,79775,0.0-4.0-1.23,64,1,2025-04-28T20:17:49Z,b60275e29fe2361ab97ac0ac217840d7,"Mozilla/5.0 (Macintosh; Intel Mac OS X 10_15_7) AppleWebKit/537.36 (KHTML, like Gecko) Chrome/135.0.0.0 Safari/537.36",Macintosh,Chrome,135.0.0.0,OS X,10_15_7,https://5puzkbbxv1.cognition.run/?sona_id=57345,"en-US,en;q=0.9",quwo1ot4x5edepx,22,"[""White""]",No,Male,NA,No,173028.80000001192,NA,2491,NA,"{""product_choice"":""A""}",choice,ct,binary,attraction,NA,laptops,null,null,null,null,null,null,2,60,50,null,50,60,null,Processing speed,Memory (RAM),NA,NA
NA,NA,NA,NA,NA,choice_trial_setup,html-keyboard-response,52,80080,0.0-4.0-0.24,64,1,2025-04-28T20:17:49Z,b60275e29fe2361ab97ac0ac217840d7,"Mozilla/5.0 (Macintosh; Intel Mac OS X 10_15_7) AppleWebKit/537.36 (KHTML, like Gecko) Chrome/135.0.0.0 Safari/537.36",Macintosh,Chrome,135.0.0.0,OS X,10_15_7,https://5puzkbbxv1.cognition.run/?sona_id=57345,"en-US,en;q=0.9",quwo1ot4x5edepx,22,"[""White""]",No,Male,NA,No,173028.80000001192,NA,null,<p></p>,null,choice,bww,trinary,catch,null,washing machines,60,90,5,15,5,15,2,NA,NA,NA,NA,NA,NA,NA,NA,NA,NA
NA,NA,NA,NA,NA,choice_trial,survey-html-form,53,82092,0.0-4.0-1.24,64,1,2025-04-28T20:17:49Z,b60275e29fe2361ab97ac0ac217840d7,"Mozilla/5.0 (Macintosh; Intel Mac OS X 10_15_7) AppleWebKit/537.36 (KHTML, like Gecko) Chrome/135.0.0.0 Safari/537.36",Macintosh,Chrome,135.0.0.0,OS X,10_15_7,https://5puzkbbxv1.cognition.run/?sona_id=57345,"en-US,en;q=0.9",quwo1ot4x5edepx,22,"[""White""]",No,Male,NA,No,173028.80000001192,NA,2006,NA,"{""product_choice"":""A""}",choice,bww,trinary,catch,null,washing machines,60,90,5,15,5,15,2,null,null,null,null,null,null,Average lifespan,Energy savings,NA,NA
NA,NA,NA,NA,NA,choice_trial_setup,html-keyboard-response,54,82397,0.0-4.0-0.25,64,1,2025-04-28T20:17:49Z,b60275e29fe2361ab97ac0ac217840d7,"Mozilla/5.0 (Macintosh; Intel Mac OS X 10_15_7) AppleWebKit/537.36 (KHTML, like Gecko) Chrome/135.0.0.0 Safari/537.36",Macintosh,Chrome,135.0.0.0,OS X,10_15_7,https://5puzkbbxv1.cognition.run/?sona_id=57345,"en-US,en;q=0.9",quwo1ot4x5edepx,22,"[""White""]",No,Male,NA,No,173028.80000001192,NA,null,<p></p>,null,choice,tcd,trinary,repulsion_A,2,washing machines,null,null,null,null,null,null,2,NA,NA,NA,NA,NA,NA,NA,NA,NA,NA
NA,NA,NA,NA,NA,choice_trial,survey-html-form,55,84808,0.0-4.0-1.25,64,1,2025-04-28T20:17:49Z,b60275e29fe2361ab97ac0ac217840d7,"Mozilla/5.0 (Macintosh; Intel Mac OS X 10_15_7) AppleWebKit/537.36 (KHTML, like Gecko) Chrome/135.0.0.0 Safari/537.36",Macintosh,Chrome,135.0.0.0,OS X,10_15_7,https://5puzkbbxv1.cognition.run/?sona_id=57345,"en-US,en;q=0.9",quwo1ot4x5edepx,22,"[""White""]",No,Male,NA,No,173028.80000001192,NA,2407,NA,"{""product_choice"":""A""}",choice,tcd,trinary,repulsion_A,2,washing machines,null,null,null,null,null,null,2,30,40,20,100,90,100,Average lifespan,Energy savings,NA,NA
NA,NA,NA,NA,NA,choice_trial_setup,html-keyboard-response,56,85114,0.0-4.0-0.26,64,1,2025-04-28T20:17:49Z,b60275e29fe2361ab97ac0ac217840d7,"Mozilla/5.0 (Macintosh; Intel Mac OS X 10_15_7) AppleWebKit/537.36 (KHTML, like Gecko) Chrome/135.0.0.0 Safari/537.36",Macintosh,Chrome,135.0.0.0,OS X,10_15_7,https://5puzkbbxv1.cognition.run/?sona_id=57345,"en-US,en;q=0.9",quwo1ot4x5edepx,22,"[""White""]",No,Male,NA,No,173028.80000001192,NA,null,<p></p>,null,choice,wb,binary,catch,null,washing machines,85,85,5,30,null,null,2,NA,NA,NA,NA,NA,NA,NA,NA,NA,NA
NA,NA,NA,NA,NA,choice_trial,survey-html-form,57,86458,0.0-4.0-1.26,64,1,2025-04-28T20:17:49Z,b60275e29fe2361ab97ac0ac217840d7,"Mozilla/5.0 (Macintosh; Intel Mac OS X 10_15_7) AppleWebKit/537.36 (KHTML, like Gecko) Chrome/135.0.0.0 Safari/537.36",Macintosh,Chrome,135.0.0.0,OS X,10_15_7,https://5puzkbbxv1.cognition.run/?sona_id=57345,"en-US,en;q=0.9",quwo1ot4x5edepx,22,"[""White""]",No,Male,NA,No,173028.80000001192,NA,1339,NA,"{""product_choice"":""B""}",choice,wb,binary,catch,null,washing machines,85,85,5,30,null,null,2,null,null,null,null,null,null,Average lifespan,Energy savings,NA,NA
NA,NA,NA,NA,NA,choice_trial_setup,html-keyboard-response,58,86761,0.0-4.0-0.27,64,1,2025-04-28T20:17:49Z,b60275e29fe2361ab97ac0ac217840d7,"Mozilla/5.0 (Macintosh; Intel Mac OS X 10_15_7) AppleWebKit/537.36 (KHTML, like Gecko) Chrome/135.0.0.0 Safari/537.36",Macintosh,Chrome,135.0.0.0,OS X,10_15_7,https://5puzkbbxv1.cognition.run/?sona_id=57345,"en-US,en;q=0.9",quwo1ot4x5edepx,22,"[""White""]",No,Male,NA,No,173028.80000001192,NA,null,<p></p>,null,choice,tc,binary,repulsion,2,laptops,null,null,null,null,null,null,1,NA,NA,NA,NA,NA,NA,NA,NA,NA,NA
NA,NA,NA,NA,NA,choice_trial,survey-html-form,59,88492,0.0-4.0-1.27,64,1,2025-04-28T20:17:49Z,b60275e29fe2361ab97ac0ac217840d7,"Mozilla/5.0 (Macintosh; Intel Mac OS X 10_15_7) AppleWebKit/537.36 (KHTML, like Gecko) Chrome/135.0.0.0 Safari/537.36",Macintosh,Chrome,135.0.0.0,OS X,10_15_7,https://5puzkbbxv1.cognition.run/?sona_id=57345,"en-US,en;q=0.9",quwo1ot4x5edepx,22,"[""White""]",No,Male,NA,No,173028.80000001192,NA,1726,NA,"{""product_choice"":""A""}",choice,tc,binary,repulsion,2,laptops,null,null,null,null,null,null,1,30,40,null,100,90,null,Processing speed,Memory (RAM),NA,NA
NA,NA,NA,NA,NA,choice_trial_setup,html-keyboard-response,60,88796,0.0-4.0-0.28,64,1,2025-04-28T20:17:49Z,b60275e29fe2361ab97ac0ac217840d7,"Mozilla/5.0 (Macintosh; Intel Mac OS X 10_15_7) AppleWebKit/537.36 (KHTML, like Gecko) Chrome/135.0.0.0 Safari/537.36",Macintosh,Chrome,135.0.0.0,OS X,10_15_7,https://5puzkbbxv1.cognition.run/?sona_id=57345,"en-US,en;q=0.9",quwo1ot4x5edepx,22,"[""White""]",No,Male,NA,No,173028.80000001192,NA,null,<p></p>,null,choice,wb,binary,catch,null,microwave ovens,65,65,20,15,null,null,1,NA,NA,NA,NA,NA,NA,NA,NA,NA,NA
NA,NA,NA,NA,NA,choice_trial,survey-html-form,61,90858,0.0-4.0-1.28,64,1,2025-04-28T20:17:49Z,b60275e29fe2361ab97ac0ac217840d7,"Mozilla/5.0 (Macintosh; Intel Mac OS X 10_15_7) AppleWebKit/537.36 (KHTML, like Gecko) Chrome/135.0.0.0 Safari/537.36",Macintosh,Chrome,135.0.0.0,OS X,10_15_7,https://5puzkbbxv1.cognition.run/?sona_id=57345,"en-US,en;q=0.9",quwo1ot4x5edepx,22,"[""White""]",No,Male,NA,No,173028.80000001192,NA,2056,NA,"{""product_choice"":""B""}",choice,wb,binary,catch,null,microwave ovens,65,65,20,15,null,null,1,null,null,null,null,null,null,Warranty,Cooking power,NA,NA
NA,NA,NA,NA,NA,choice_trial_setup,html-keyboard-response,62,91163,0.0-4.0-0.29,64,1,2025-04-28T20:17:49Z,b60275e29fe2361ab97ac0ac217840d7,"Mozilla/5.0 (Macintosh; Intel Mac OS X 10_15_7) AppleWebKit/537.36 (KHTML, like Gecko) Chrome/135.0.0.0 Safari/537.36",Macintosh,Chrome,135.0.0.0,OS X,10_15_7,https://5puzkbbxv1.cognition.run/?sona_id=57345,"en-US,en;q=0.9",quwo1ot4x5edepx,22,"[""White""]",No,Male,NA,No,173028.80000001192,NA,null,<p></p>,null,choice,tdc,trinary,repulsion_A,1,washing machines,null,null,null,null,null,null,1,NA,NA,NA,NA,NA,NA,NA,NA,NA,NA
NA,NA,NA,NA,NA,choice_trial,survey-html-form,63,94491,0.0-4.0-1.29,64,1,2025-04-28T20:17:49Z,b60275e29fe2361ab97ac0ac217840d7,"Mozilla/5.0 (Macintosh; Intel Mac OS X 10_15_7) AppleWebKit/537.36 (KHTML, like Gecko) Chrome/135.0.0.0 Safari/537.36",Macintosh,Chrome,135.0.0.0,OS X,10_15_7,https://5puzkbbxv1.cognition.run/?sona_id=57345,"en-US,en;q=0.9",quwo1ot4x5edepx,22,"[""White""]",No,Male,NA,No,173028.80000001192,NA,3322,NA,"{""product_choice"":""C""}",choice,tdc,trinary,repulsion_A,1,washing machines,null,null,null,null,null,null,1,100,90,100,30,40,20,Average lifespan,Energy savings,NA,NA
NA,NA,NA,NA,NA,choice_trial_setup,html-keyboard-response,64,94796,0.0-4.0-0.30,64,1,2025-04-28T20:17:49Z,b60275e29fe2361ab97ac0ac217840d7,"Mozilla/5.0 (Macintosh; Intel Mac OS X 10_15_7) AppleWebKit/537.36 (KHTML, like Gecko) Chrome/135.0.0.0 Safari/537.36",Macintosh,Chrome,135.0.0.0,OS X,10_15_7,https://5puzkbbxv1.cognition.run/?sona_id=57345,"en-US,en;q=0.9",quwo1ot4x5edepx,22,"[""White""]",No,Male,NA,No,173028.80000001192,NA,null,<p></p>,null,choice,wwb,trinary,catch,null,microwave ovens,85,65,5,50,15,5,2,NA,NA,NA,NA,NA,NA,NA,NA,NA,NA
NA,NA,NA,NA,NA,choice_trial,survey-html-form,65,96408,0.0-4.0-1.30,64,1,2025-04-28T20:17:49Z,b60275e29fe2361ab97ac0ac217840d7,"Mozilla/5.0 (Macintosh; Intel Mac OS X 10_15_7) AppleWebKit/537.36 (KHTML, like Gecko) Chrome/135.0.0.0 Safari/537.36",Macintosh,Chrome,135.0.0.0,OS X,10_15_7,https://5puzkbbxv1.cognition.run/?sona_id=57345,"en-US,en;q=0.9",quwo1ot4x5edepx,22,"[""White""]",No,Male,NA,No,173028.80000001192,NA,1606,NA,"{""product_choice"":""C""}",choice,wwb,trinary,catch,null,microwave ovens,85,65,5,50,15,5,2,null,null,null,null,null,null,Warranty,Cooking power,NA,NA
NA,NA,NA,NA,NA,choice_trial_setup,html-keyboard-response,66,96713,0.0-4.0-0.31,64,1,2025-04-28T20:17:49Z,b60275e29fe2361ab97ac0ac217840d7,"Mozilla/5.0 (Macintosh; Intel Mac OS X 10_15_7) AppleWebKit/537.36 (KHTML, like Gecko) Chrome/135.0.0.0 Safari/537.36",Macintosh,Chrome,135.0.0.0,OS X,10_15_7,https://5puzkbbxv1.cognition.run/?sona_id=57345,"en-US,en;q=0.9",quwo1ot4x5edepx,22,"[""White""]",No,Male,NA,No,173028.80000001192,NA,null,<p></p>,null,choice,cdt,trinary,repulsion_B,1,laptops,null,null,null,null,null,null,2,NA,NA,NA,NA,NA,NA,NA,NA,NA,NA
NA,NA,NA,NA,NA,choice_trial,survey-html-form,67,98675,0.0-4.0-1.31,64,1,2025-04-28T20:17:49Z,b60275e29fe2361ab97ac0ac217840d7,"Mozilla/5.0 (Macintosh; Intel Mac OS X 10_15_7) AppleWebKit/537.36 (KHTML, like Gecko) Chrome/135.0.0.0 Safari/537.36",Macintosh,Chrome,135.0.0.0,OS X,10_15_7,https://5puzkbbxv1.cognition.run/?sona_id=57345,"en-US,en;q=0.9",quwo1ot4x5edepx,22,"[""White""]",No,Male,NA,No,173028.80000001192,NA,1956,NA,"{""product_choice"":""C""}",choice,cdt,trinary,repulsion_B,1,laptops,null,null,null,null,null,null,2,90,100,80,40,30,40,Processing speed,Memory (RAM),NA,NA
NA,NA,NA,NA,NA,choice_trial_setup,html-keyboard-response,68,98978,0.0-4.0-0.32,64,1,2025-04-28T20:17:49Z,b60275e29fe2361ab97ac0ac217840d7,"Mozilla/5.0 (Macintosh; Intel Mac OS X 10_15_7) AppleWebKit/537.36 (KHTML, like Gecko) Chrome/135.0.0.0 Safari/537.36",Macintosh,Chrome,135.0.0.0,OS X,10_15_7,https://5puzkbbxv1.cognition.run/?sona_id=57345,"en-US,en;q=0.9",quwo1ot4x5edepx,22,"[""White""]",No,Male,NA,No,173028.80000001192,NA,null,<p></p>,null,choice,dtc,trinary,attraction,2,microwave ovens,null,null,null,null,null,null,1,NA,NA,NA,NA,NA,NA,NA,NA,NA,NA
NA,NA,NA,NA,NA,choice_trial,survey-html-form,69,100358,0.0-4.0-1.32,64,1,2025-04-28T20:17:49Z,b60275e29fe2361ab97ac0ac217840d7,"Mozilla/5.0 (Macintosh; Intel Mac OS X 10_15_7) AppleWebKit/537.36 (KHTML, like Gecko) Chrome/135.0.0.0 Safari/537.36",Macintosh,Chrome,135.0.0.0,OS X,10_15_7,https://5puzkbbxv1.cognition.run/?sona_id=57345,"en-US,en;q=0.9",quwo1ot4x5edepx,22,"[""White""]",No,Male,NA,No,173028.80000001192,NA,1375,NA,"{""product_choice"":""B""}",choice,dtc,trinary,attraction,2,microwave ovens,null,null,null,null,null,null,1,50,60,40,60,50,60,Warranty,Cooking power,NA,NA
NA,NA,NA,NA,NA,choice_trial_setup,html-keyboard-response,70,100662,0.0-4.0-0.33,64,1,2025-04-28T20:17:49Z,b60275e29fe2361ab97ac0ac217840d7,"Mozilla/5.0 (Macintosh; Intel Mac OS X 10_15_7) AppleWebKit/537.36 (KHTML, like Gecko) Chrome/135.0.0.0 Safari/537.36",Macintosh,Chrome,135.0.0.0,OS X,10_15_7,https://5puzkbbxv1.cognition.run/?sona_id=57345,"en-US,en;q=0.9",quwo1ot4x5edepx,22,"[""White""]",No,Male,NA,No,173028.80000001192,NA,null,<p></p>,null,choice,ctd,trinary,repulsion_A,2,microwave ovens,null,null,null,null,null,null,1,NA,NA,NA,NA,NA,NA,NA,NA,NA,NA
NA,NA,NA,NA,NA,choice_trial,survey-html-form,71,103258,0.0-4.0-1.33,64,1,2025-04-28T20:17:49Z,b60275e29fe2361ab97ac0ac217840d7,"Mozilla/5.0 (Macintosh; Intel Mac OS X 10_15_7) AppleWebKit/537.36 (KHTML, like Gecko) Chrome/135.0.0.0 Safari/537.36",Macintosh,Chrome,135.0.0.0,OS X,10_15_7,https://5puzkbbxv1.cognition.run/?sona_id=57345,"en-US,en;q=0.9",quwo1ot4x5edepx,22,"[""White""]",No,Male,NA,No,173028.80000001192,NA,2591,NA,"{""product_choice"":""B""}",choice,ctd,trinary,repulsion_A,2,microwave ovens,null,null,null,null,null,null,1,30,40,20,100,90,100,Warranty,Cooking power,NA,NA
NA,NA,NA,NA,NA,choice_trial_setup,html-keyboard-response,72,103563,0.0-4.0-0.34,64,1,2025-04-28T20:17:49Z,b60275e29fe2361ab97ac0ac217840d7,"Mozilla/5.0 (Macintosh; Intel Mac OS X 10_15_7) AppleWebKit/537.36 (KHTML, like Gecko) Chrome/135.0.0.0 Safari/537.36",Macintosh,Chrome,135.0.0.0,OS X,10_15_7,https://5puzkbbxv1.cognition.run/?sona_id=57345,"en-US,en;q=0.9",quwo1ot4x5edepx,22,"[""White""]",No,Male,NA,No,173028.80000001192,NA,null,<p></p>,null,choice,tdc,trinary,attraction,1,televisions,null,null,null,null,null,null,2,NA,NA,NA,NA,NA,NA,NA,NA,NA,NA
NA,NA,NA,NA,NA,choice_trial,survey-html-form,73,105676,0.0-4.0-1.34,64,1,2025-04-28T20:17:49Z,b60275e29fe2361ab97ac0ac217840d7,"Mozilla/5.0 (Macintosh; Intel Mac OS X 10_15_7) AppleWebKit/537.36 (KHTML, like Gecko) Chrome/135.0.0.0 Safari/537.36",Macintosh,Chrome,135.0.0.0,OS X,10_15_7,https://5puzkbbxv1.cognition.run/?sona_id=57345,"en-US,en;q=0.9",quwo1ot4x5edepx,22,"[""White""]",No,Male,NA,No,173028.80000001192,NA,2108,NA,"{""product_choice"":""B""}",choice,tdc,trinary,attraction,1,televisions,null,null,null,null,null,null,2,60,50,60,50,60,40,Screen size,Average lifespan,NA,NA
NA,NA,NA,NA,NA,choice_trial_setup,html-keyboard-response,74,105981,0.0-4.0-0.35,64,1,2025-04-28T20:17:49Z,b60275e29fe2361ab97ac0ac217840d7,"Mozilla/5.0 (Macintosh; Intel Mac OS X 10_15_7) AppleWebKit/537.36 (KHTML, like Gecko) Chrome/135.0.0.0 Safari/537.36",Macintosh,Chrome,135.0.0.0,OS X,10_15_7,https://5puzkbbxv1.cognition.run/?sona_id=57345,"en-US,en;q=0.9",quwo1ot4x5edepx,22,"[""White""]",No,Male,NA,No,173028.80000001192,NA,null,<p></p>,null,choice,cdt,trinary,repulsion_B,1,televisions,null,null,null,null,null,null,2,NA,NA,NA,NA,NA,NA,NA,NA,NA,NA
NA,NA,NA,NA,NA,choice_trial,survey-html-form,75,107192,0.0-4.0-1.35,64,1,2025-04-28T20:17:49Z,b60275e29fe2361ab97ac0ac217840d7,"Mozilla/5.0 (Macintosh; Intel Mac OS X 10_15_7) AppleWebKit/537.36 (KHTML, like Gecko) Chrome/135.0.0.0 Safari/537.36",Macintosh,Chrome,135.0.0.0,OS X,10_15_7,https://5puzkbbxv1.cognition.run/?sona_id=57345,"en-US,en;q=0.9",quwo1ot4x5edepx,22,"[""White""]",No,Male,NA,No,173028.80000001192,NA,1206,NA,"{""product_choice"":""B""}",choice,cdt,trinary,repulsion_B,1,televisions,null,null,null,null,null,null,2,90,100,80,40,30,40,Screen size,Average lifespan,NA,NA
NA,NA,NA,NA,NA,choice_trial_setup,html-keyboard-response,76,107497,0.0-4.0-0.36,64,1,2025-04-28T20:17:49Z,b60275e29fe2361ab97ac0ac217840d7,"Mozilla/5.0 (Macintosh; Intel Mac OS X 10_15_7) AppleWebKit/537.36 (KHTML, like Gecko) Chrome/135.0.0.0 Safari/537.36",Macintosh,Chrome,135.0.0.0,OS X,10_15_7,https://5puzkbbxv1.cognition.run/?sona_id=57345,"en-US,en;q=0.9",quwo1ot4x5edepx,22,"[""White""]",No,Male,NA,No,173028.80000001192,NA,null,<p></p>,null,choice,wwb,trinary,catch,null,laptops,60,95,10,5,45,5,1,NA,NA,NA,NA,NA,NA,NA,NA,NA,NA
NA,NA,NA,NA,NA,choice_trial,survey-html-form,77,109626,0.0-4.0-1.36,64,1,2025-04-28T20:17:49Z,b60275e29fe2361ab97ac0ac217840d7,"Mozilla/5.0 (Macintosh; Intel Mac OS X 10_15_7) AppleWebKit/537.36 (KHTML, like Gecko) Chrome/135.0.0.0 Safari/537.36",Macintosh,Chrome,135.0.0.0,OS X,10_15_7,https://5puzkbbxv1.cognition.run/?sona_id=57345,"en-US,en;q=0.9",quwo1ot4x5edepx,22,"[""White""]",No,Male,NA,No,173028.80000001192,NA,2122,NA,"{""product_choice"":""C""}",choice,wwb,trinary,catch,null,laptops,60,95,10,5,45,5,1,null,null,null,null,null,null,Processing speed,Memory (RAM),NA,NA
NA,NA,NA,NA,NA,choice_trial_setup,html-keyboard-response,78,109930,0.0-4.0-0.37,64,1,2025-04-28T20:17:49Z,b60275e29fe2361ab97ac0ac217840d7,"Mozilla/5.0 (Macintosh; Intel Mac OS X 10_15_7) AppleWebKit/537.36 (KHTML, like Gecko) Chrome/135.0.0.0 Safari/537.36",Macintosh,Chrome,135.0.0.0,OS X,10_15_7,https://5puzkbbxv1.cognition.run/?sona_id=57345,"en-US,en;q=0.9",quwo1ot4x5edepx,22,"[""White""]",No,Male,NA,No,173028.80000001192,NA,null,<p></p>,null,choice,dct,trinary,attraction,1,laptops,null,null,null,null,null,null,1,NA,NA,NA,NA,NA,NA,NA,NA,NA,NA
NA,NA,NA,NA,NA,choice_trial,survey-html-form,79,112425,0.0-4.0-1.37,64,1,2025-04-28T20:17:49Z,b60275e29fe2361ab97ac0ac217840d7,"Mozilla/5.0 (Macintosh; Intel Mac OS X 10_15_7) AppleWebKit/537.36 (KHTML, like Gecko) Chrome/135.0.0.0 Safari/537.36",Macintosh,Chrome,135.0.0.0,OS X,10_15_7,https://5puzkbbxv1.cognition.run/?sona_id=57345,"en-US,en;q=0.9",quwo1ot4x5edepx,22,"[""White""]",No,Male,NA,No,173028.80000001192,NA,2487,NA,"{""product_choice"":""C""}",choice,dct,trinary,attraction,1,laptops,null,null,null,null,null,null,1,60,50,60,50,60,40,Processing speed,Memory (RAM),NA,NA
NA,NA,NA,NA,NA,choice_trial_setup,html-keyboard-response,80,112730,0.0-4.0-0.38,64,1,2025-04-28T20:17:49Z,b60275e29fe2361ab97ac0ac217840d7,"Mozilla/5.0 (Macintosh; Intel Mac OS X 10_15_7) AppleWebKit/537.36 (KHTML, like Gecko) Chrome/135.0.0.0 Safari/537.36",Macintosh,Chrome,135.0.0.0,OS X,10_15_7,https://5puzkbbxv1.cognition.run/?sona_id=57345,"en-US,en;q=0.9",quwo1ot4x5edepx,22,"[""White""]",No,Male,NA,No,173028.80000001192,NA,null,<p></p>,null,choice,cdt,trinary,repulsion_B,2,microwave ovens,null,null,null,null,null,null,1,NA,NA,NA,NA,NA,NA,NA,NA,NA,NA
NA,NA,NA,NA,NA,choice_trial,survey-html-form,81,114659,0.0-4.0-1.38,64,1,2025-04-28T20:17:49Z,b60275e29fe2361ab97ac0ac217840d7,"Mozilla/5.0 (Macintosh; Intel Mac OS X 10_15_7) AppleWebKit/537.36 (KHTML, like Gecko) Chrome/135.0.0.0 Safari/537.36",Macintosh,Chrome,135.0.0.0,OS X,10_15_7,https://5puzkbbxv1.cognition.run/?sona_id=57345,"en-US,en;q=0.9",quwo1ot4x5edepx,22,"[""White""]",No,Male,NA,No,173028.80000001192,NA,1923,NA,"{""product_choice"":""C""}",choice,cdt,trinary,repulsion_B,2,microwave ovens,null,null,null,null,null,null,1,40,30,40,90,100,80,Warranty,Cooking power,NA,NA
NA,NA,NA,NA,NA,choice_trial_setup,html-keyboard-response,82,114965,0.0-4.0-0.39,64,1,2025-04-28T20:17:49Z,b60275e29fe2361ab97ac0ac217840d7,"Mozilla/5.0 (Macintosh; Intel Mac OS X 10_15_7) AppleWebKit/537.36 (KHTML, like Gecko) Chrome/135.0.0.0 Safari/537.36",Macintosh,Chrome,135.0.0.0,OS X,10_15_7,https://5puzkbbxv1.cognition.run/?sona_id=57345,"en-US,en;q=0.9",quwo1ot4x5edepx,22,"[""White""]",No,Male,NA,No,173028.80000001192,NA,null,<p></p>,null,choice,wbw,trinary,catch,null,televisions,60,70,25,25,40,45,2,NA,NA,NA,NA,NA,NA,NA,NA,NA,NA
NA,NA,NA,NA,NA,choice_trial,survey-html-form,83,116309,0.0-4.0-1.39,64,1,2025-04-28T20:17:49Z,b60275e29fe2361ab97ac0ac217840d7,"Mozilla/5.0 (Macintosh; Intel Mac OS X 10_15_7) AppleWebKit/537.36 (KHTML, like Gecko) Chrome/135.0.0.0 Safari/537.36",Macintosh,Chrome,135.0.0.0,OS X,10_15_7,https://5puzkbbxv1.cognition.run/?sona_id=57345,"en-US,en;q=0.9",quwo1ot4x5edepx,22,"[""White""]",No,Male,NA,No,173028.80000001192,NA,1338,NA,"{""product_choice"":""C""}",choice,wbw,trinary,catch,null,televisions,60,70,25,25,40,45,2,null,null,null,null,null,null,Screen size,Average lifespan,NA,NA
NA,NA,NA,NA,NA,choice_trial_setup,html-keyboard-response,84,116614,0.0-4.0-0.40,64,1,2025-04-28T20:17:49Z,b60275e29fe2361ab97ac0ac217840d7,"Mozilla/5.0 (Macintosh; Intel Mac OS X 10_15_7) AppleWebKit/537.36 (KHTML, like Gecko) Chrome/135.0.0.0 Safari/537.36",Macintosh,Chrome,135.0.0.0,OS X,10_15_7,https://5puzkbbxv1.cognition.run/?sona_id=57345,"en-US,en;q=0.9",quwo1ot4x5edepx,22,"[""White""]",No,Male,NA,No,173028.80000001192,NA,null,<p></p>,null,choice,tc,binary,repulsion,1,televisions,null,null,null,null,null,null,1,NA,NA,NA,NA,NA,NA,NA,NA,NA,NA
NA,NA,NA,NA,NA,choice_trial,survey-html-form,85,117775,0.0-4.0-1.40,64,1,2025-04-28T20:17:49Z,b60275e29fe2361ab97ac0ac217840d7,"Mozilla/5.0 (Macintosh; Intel Mac OS X 10_15_7) AppleWebKit/537.36 (KHTML, like Gecko) Chrome/135.0.0.0 Safari/537.36",Macintosh,Chrome,135.0.0.0,OS X,10_15_7,https://5puzkbbxv1.cognition.run/?sona_id=57345,"en-US,en;q=0.9",quwo1ot4x5edepx,22,"[""White""]",No,Male,NA,No,173028.80000001192,NA,1155,NA,"{""product_choice"":""B""}",choice,tc,binary,repulsion,1,televisions,null,null,null,null,null,null,1,100,90,null,30,40,null,Screen size,Average lifespan,NA,NA
NA,NA,NA,NA,NA,choice_trial_setup,html-keyboard-response,86,118080,0.0-4.0-0.41,64,1,2025-04-28T20:17:49Z,b60275e29fe2361ab97ac0ac217840d7,"Mozilla/5.0 (Macintosh; Intel Mac OS X 10_15_7) AppleWebKit/537.36 (KHTML, like Gecko) Chrome/135.0.0.0 Safari/537.36",Macintosh,Chrome,135.0.0.0,OS X,10_15_7,https://5puzkbbxv1.cognition.run/?sona_id=57345,"en-US,en;q=0.9",quwo1ot4x5edepx,22,"[""White""]",No,Male,NA,No,173028.80000001192,NA,null,<p></p>,null,choice,dct,trinary,repulsion_A,1,televisions,null,null,null,null,null,null,1,NA,NA,NA,NA,NA,NA,NA,NA,NA,NA
NA,NA,NA,NA,NA,choice_trial,survey-html-form,87,119124,0.0-4.0-1.41,64,1,2025-04-28T20:17:49Z,b60275e29fe2361ab97ac0ac217840d7,"Mozilla/5.0 (Macintosh; Intel Mac OS X 10_15_7) AppleWebKit/537.36 (KHTML, like Gecko) Chrome/135.0.0.0 Safari/537.36",Macintosh,Chrome,135.0.0.0,OS X,10_15_7,https://5puzkbbxv1.cognition.run/?sona_id=57345,"en-US,en;q=0.9",quwo1ot4x5edepx,22,"[""White""]",No,Male,NA,No,173028.80000001192,NA,1038,NA,"{""product_choice"":""C""}",choice,dct,trinary,repulsion_A,1,televisions,null,null,null,null,null,null,1,100,90,100,30,40,20,Screen size,Average lifespan,NA,NA
NA,NA,NA,NA,NA,choice_trial_setup,html-keyboard-response,88,119429,0.0-4.0-0.42,64,1,2025-04-28T20:17:49Z,b60275e29fe2361ab97ac0ac217840d7,"Mozilla/5.0 (Macintosh; Intel Mac OS X 10_15_7) AppleWebKit/537.36 (KHTML, like Gecko) Chrome/135.0.0.0 Safari/537.36",Macintosh,Chrome,135.0.0.0,OS X,10_15_7,https://5puzkbbxv1.cognition.run/?sona_id=57345,"en-US,en;q=0.9",quwo1ot4x5edepx,22,"[""White""]",No,Male,NA,No,173028.80000001192,NA,null,<p></p>,null,choice,cdt,trinary,attraction,2,televisions,null,null,null,null,null,null,2,NA,NA,NA,NA,NA,NA,NA,NA,NA,NA
NA,NA,NA,NA,NA,choice_trial,survey-html-form,89,121225,0.0-4.0-1.42,64,1,2025-04-28T20:17:49Z,b60275e29fe2361ab97ac0ac217840d7,"Mozilla/5.0 (Macintosh; Intel Mac OS X 10_15_7) AppleWebKit/537.36 (KHTML, like Gecko) Chrome/135.0.0.0 Safari/537.36",Macintosh,Chrome,135.0.0.0,OS X,10_15_7,https://5puzkbbxv1.cognition.run/?sona_id=57345,"en-US,en;q=0.9",quwo1ot4x5edepx,22,"[""White""]",No,Male,NA,No,173028.80000001192,NA,1788,NA,"{""product_choice"":""B""}",choice,cdt,trinary,attraction,2,televisions,null,null,null,null,null,null,2,50,60,40,60,50,60,Screen size,Average lifespan,NA,NA
NA,NA,NA,NA,NA,choice_trial_setup,html-keyboard-response,90,121532,0.0-4.0-0.43,64,1,2025-04-28T20:17:49Z,b60275e29fe2361ab97ac0ac217840d7,"Mozilla/5.0 (Macintosh; Intel Mac OS X 10_15_7) AppleWebKit/537.36 (KHTML, like Gecko) Chrome/135.0.0.0 Safari/537.36",Macintosh,Chrome,135.0.0.0,OS X,10_15_7,https://5puzkbbxv1.cognition.run/?sona_id=57345,"en-US,en;q=0.9",quwo1ot4x5edepx,22,"[""White""]",No,Male,NA,No,173028.80000001192,NA,null,<p></p>,null,choice,tcd,trinary,repulsion_B,1,microwave ovens,null,null,null,null,null,null,1,NA,NA,NA,NA,NA,NA,NA,NA,NA,NA
NA,NA,NA,NA,NA,choice_trial,survey-html-form,91,126442,0.0-4.0-1.43,64,1,2025-04-28T20:17:49Z,b60275e29fe2361ab97ac0ac217840d7,"Mozilla/5.0 (Macintosh; Intel Mac OS X 10_15_7) AppleWebKit/537.36 (KHTML, like Gecko) Chrome/135.0.0.0 Safari/537.36",Macintosh,Chrome,135.0.0.0,OS X,10_15_7,https://5puzkbbxv1.cognition.run/?sona_id=57345,"en-US,en;q=0.9",quwo1ot4x5edepx,22,"[""White""]",No,Male,NA,No,173028.80000001192,NA,4904,NA,"{""product_choice"":""B""}",choice,tcd,trinary,repulsion_B,1,microwave ovens,null,null,null,null,null,null,1,90,100,80,40,30,40,Warranty,Cooking power,NA,NA
NA,NA,NA,NA,NA,post_trials_message,html-button-response,92,127676,0.0-5.0,64,1,2025-04-28T20:17:49Z,b60275e29fe2361ab97ac0ac217840d7,"Mozilla/5.0 (Macintosh; Intel Mac OS X 10_15_7) AppleWebKit/537.36 (KHTML, like Gecko) Chrome/135.0.0.0 Safari/537.36",Macintosh,Chrome,135.0.0.0,OS X,10_15_7,https://5puzkbbxv1.cognition.run/?sona_id=57345,"en-US,en;q=0.9",quwo1ot4x5edepx,22,"[""White""]",No,Male,NA,No,173028.80000001192,NA,1226,<p> <b>Thank you for your patience!</b></p><p>  The study will be done after completing a brief form. </p>,0,NA,NA,NA,NA,NA,NA,NA,NA,NA,NA,NA,NA,NA,NA,NA,NA,NA,NA,NA,NA,NA,NA,NA
NA,NA,NA,NA,NA,survey_message,survey-text,93,145211,0.0-6.0,64,1,2025-04-28T20:17:49Z,b60275e29fe2361ab97ac0ac217840d7,"Mozilla/5.0 (Macintosh; Intel Mac OS X 10_15_7) AppleWebKit/537.36 (KHTML, like Gecko) Chrome/135.0.0.0 Safari/537.36",Macintosh,Chrome,135.0.0.0,OS X,10_15_7,https://5puzkbbxv1.cognition.run/?sona_id=57345,"en-US,en;q=0.9",quwo1ot4x5edepx,22,"[""White""]",No,Male,NA,No,173028.80000001192,NA,17512,NA,"{""Q0"":""I just clicked what I felt was best""}",NA,NA,NA,NA,NA,NA,NA,NA,NA,NA,NA,NA,NA,NA,NA,NA,NA,NA,NA,NA,NA,I just clicked what I felt was best,NA
NA,NA,NA,NA,NA,demo_age,survey-text,94,147525,0.0-7.0,64,1,2025-04-28T20:17:49Z,b60275e29fe2361ab97ac0ac217840d7,"Mozilla/5.0 (Macintosh; Intel Mac OS X 10_15_7) AppleWebKit/537.36 (KHTML, like Gecko) Chrome/135.0.0.0 Safari/537.36",Macintosh,Chrome,135.0.0.0,OS X,10_15_7,https://5puzkbbxv1.cognition.run/?sona_id=57345,"en-US,en;q=0.9",quwo1ot4x5edepx,22,"[""White""]",No,Male,NA,No,173028.80000001192,NA,2305,NA,"{""Q0"":""22""}",NA,NA,NA,NA,NA,NA,NA,NA,NA,NA,NA,NA,NA,NA,NA,NA,NA,NA,NA,NA,NA,NA,NA
NA,NA,NA,NA,NA,demo_race,survey-multi-select,95,149626,0.0-8.0,64,1,2025-04-28T20:17:49Z,b60275e29fe2361ab97ac0ac217840d7,"Mozilla/5.0 (Macintosh; Intel Mac OS X 10_15_7) AppleWebKit/537.36 (KHTML, like Gecko) Chrome/135.0.0.0 Safari/537.36",Macintosh,Chrome,135.0.0.0,OS X,10_15_7,https://5puzkbbxv1.cognition.run/?sona_id=57345,"en-US,en;q=0.9",quwo1ot4x5edepx,22,"[""White""]",No,Male,NA,No,173028.80000001192,NA,2093,NA,"{""Q0"":[""White""]}",NA,NA,NA,NA,NA,NA,NA,NA,NA,NA,NA,NA,NA,NA,NA,NA,NA,NA,NA,NA,NA,NA,[0]
NA,NA,NA,NA,NA,demo_ethnicity_gender,survey-multi-choice,96,154510,0.0-9.0,64,1,2025-04-28T20:17:49Z,b60275e29fe2361ab97ac0ac217840d7,"Mozilla/5.0 (Macintosh; Intel Mac OS X 10_15_7) AppleWebKit/537.36 (KHTML, like Gecko) Chrome/135.0.0.0 Safari/537.36",Macintosh,Chrome,135.0.0.0,OS X,10_15_7,https://5puzkbbxv1.cognition.run/?sona_id=57345,"en-US,en;q=0.9",quwo1ot4x5edepx,22,"[""White""]",No,Male,NA,No,173028.80000001192,NA,4876,NA,"{""Q0"":""No"",""Q1"":""Male""}",NA,NA,NA,NA,NA,NA,NA,NA,NA,NA,NA,NA,NA,NA,NA,NA,NA,NA,NA,NA,NA,NA,"[0,1]"
NA,NA,NA,NA,NA,demo_countries,survey-text,97,160212,0.0-10.0,64,1,2025-04-28T20:17:49Z,b60275e29fe2361ab97ac0ac217840d7,"Mozilla/5.0 (Macintosh; Intel Mac OS X 10_15_7) AppleWebKit/537.36 (KHTML, like Gecko) Chrome/135.0.0.0 Safari/537.36",Macintosh,Chrome,135.0.0.0,OS X,10_15_7,https://5puzkbbxv1.cognition.run/?sona_id=57345,"en-US,en;q=0.9",quwo1ot4x5edepx,22,"[""White""]",No,Male,NA,No,173028.80000001192,NA,5688,NA,"{""Q0"":""NA""}",NA,NA,NA,NA,NA,NA,NA,NA,NA,NA,NA,NA,NA,NA,NA,NA,NA,NA,NA,NA,NA,NA,NA
NA,NA,NA,NA,NA,demo_prev_study,survey-multi-choice,98,165559,0.0-11.0,64,1,2025-04-28T20:17:49Z,b60275e29fe2361ab97ac0ac217840d7,"Mozilla/5.0 (Macintosh; Intel Mac OS X 10_15_7) AppleWebKit/537.36 (KHTML, like Gecko) Chrome/135.0.0.0 Safari/537.36",Macintosh,Chrome,135.0.0.0,OS X,10_15_7,https://5puzkbbxv1.cognition.run/?sona_id=57345,"en-US,en;q=0.9",quwo1ot4x5edepx,22,"[""White""]",No,Male,NA,No,173028.80000001192,NA,5340,NA,"{""Q0"":""No""}",NA,NA,NA,NA,NA,NA,NA,NA,NA,NA,NA,NA,NA,NA,NA,NA,NA,NA,NA,NA,NA,NA,[0]
NA,NA,NA,NA,NA,post_survey_message,html-keyboard-response,99,168880,0.0-12.0,64,1,2025-04-28T20:17:49Z,b60275e29fe2361ab97ac0ac217840d7,"Mozilla/5.0 (Macintosh; Intel Mac OS X 10_15_7) AppleWebKit/537.36 (KHTML, like Gecko) Chrome/135.0.0.0 Safari/537.36",Macintosh,Chrome,135.0.0.0,OS X,10_15_7,https://5puzkbbxv1.cognition.run/?sona_id=57345,"en-US,en;q=0.9",quwo1ot4x5edepx,22,"[""White""]",No,Male,NA,No,173028.80000001192,NA,3316,NA,j,NA,NA,NA,NA,NA,NA,NA,NA,NA,NA,NA,NA,NA,NA,NA,NA,NA,NA,NA,NA,NA,NA,NA
NA,NA,NA,NA,NA,debrief,image-keyboard-response,100,173027,0.0-13.0,64,1,2025-04-28T20:17:49Z,b60275e29fe2361ab97ac0ac217840d7,"Mozilla/5.0 (Macintosh; Intel Mac OS X 10_15_7) AppleWebKit/537.36 (KHTML, like Gecko) Chrome/135.0.0.0 Safari/537.36",Macintosh,Chrome,135.0.0.0,OS X,10_15_7,https://5puzkbbxv1.cognition.run/?sona_id=57345,"en-US,en;q=0.9",quwo1ot4x5edepx,22,"[""White""]",No,Male,NA,No,173028.80000001192,NA,4139,Judg_choice_debrief.png,p,NA,NA,NA,NA,NA,NA,NA,NA,NA,NA,NA,NA,NA,NA,NA,NA,NA,NA,NA,NA,NA,NA,NA
