success,timeout,failed_images,failed_audio,failed_video,screen_id,trial_type,trial_index,time_elapsed,internal_node_id,run_id,condition,recorded_at,source_code_version,user_agent,device,browser,browser_version,platform,platform_version,referer,accept_language,ppt_id,age,race,ethnicity,gender,other_countries,prev_study,exp_duration,view_history,rt,stimulus,response,phase,order,set,effect,t_high,category,d1_best,d2_best,d1_worst1,d2_worst1,d1_worst2,d2_worst2,first_dim,d1_t,d1_c,d1_d,d2_t,d2_c,d2_d,d1_name,d2_name,strategy_response,question_order
TRUE,FALSE,[],[],[],img preload,preload,0,266,0.0-0.0,66,1,2025-04-28T20:37:34Z,b60275e29fe2361ab97ac0ac217840d7,Mozilla/5.0 (Windows NT 10.0; Win64; x64; rv:136.0) Gecko/20100101 Firefox/136.0,NA,Firefox,136,Windows,10,https://5puzkbbxv1.cognition.run/?sona_id=57356,"en-US,en;q=0.5",dhm6rnegdbjlodt,19,"[""Black or African-American"",""White""]",No,Female,NA,No,683039,NA,NA,NA,NA,NA,NA,NA,NA,NA,NA,NA,NA,NA,NA,NA,NA,NA,NA,NA,NA,NA,NA,NA,NA,NA,NA,NA
NA,NA,NA,NA,NA,computer_message,instructions,1,5651,0.0-1.0,66,1,2025-04-28T20:37:34Z,b60275e29fe2361ab97ac0ac217840d7,Mozilla/5.0 (Windows NT 10.0; Win64; x64; rv:136.0) Gecko/20100101 Firefox/136.0,NA,Firefox,136,Windows,10,https://5puzkbbxv1.cognition.run/?sona_id=57356,"en-US,en;q=0.5",dhm6rnegdbjlodt,19,"[""Black or African-American"",""White""]",No,Female,NA,No,683039,"[{""page_index"":0,""viewing_time"":5382}]",5384,NA,NA,NA,NA,NA,NA,NA,NA,NA,NA,NA,NA,NA,NA,NA,NA,NA,NA,NA,NA,NA,NA,NA,NA,NA
TRUE,NA,NA,NA,NA,NA,fullscreen,2,9139,0.0-2.0,66,1,2025-04-28T20:37:34Z,b60275e29fe2361ab97ac0ac217840d7,Mozilla/5.0 (Windows NT 10.0; Win64; x64; rv:136.0) Gecko/20100101 Firefox/136.0,NA,Firefox,136,Windows,10,https://5puzkbbxv1.cognition.run/?sona_id=57356,"en-US,en;q=0.5",dhm6rnegdbjlodt,19,"[""Black or African-American"",""White""]",No,Female,NA,No,683039,NA,2444,NA,NA,NA,NA,NA,NA,NA,NA,NA,NA,NA,NA,NA,NA,NA,NA,NA,NA,NA,NA,NA,NA,NA,NA,NA
NA,NA,NA,NA,NA,choice_instructions,instructions,3,47610,0.0-3.0,66,1,2025-04-28T20:37:34Z,b60275e29fe2361ab97ac0ac217840d7,Mozilla/5.0 (Windows NT 10.0; Win64; x64; rv:136.0) Gecko/20100101 Firefox/136.0,NA,Firefox,136,Windows,10,https://5puzkbbxv1.cognition.run/?sona_id=57356,"en-US,en;q=0.5",dhm6rnegdbjlodt,19,"[""Black or African-American"",""White""]",No,Female,NA,No,683039,"[{""page_index"":0,""viewing_time"":1759},{""page_index"":1,""viewing_time"":3285},{""page_index"":2,""viewing_time"":3419},{""page_index"":3,""viewing_time"":4878},{""page_index"":4,""viewing_time"":3583},{""page_index"":5,""viewing_time"":17301},{""page_index"":6,""viewing_time"":4242}]",38467,NA,NA,NA,NA,NA,NA,NA,NA,NA,NA,NA,NA,NA,NA,NA,NA,NA,NA,NA,NA,NA,NA,NA,NA,NA
NA,NA,NA,NA,NA,choice_trial_setup,html-keyboard-response,4,47936,0.0-4.0-0.0,66,1,2025-04-28T20:37:34Z,b60275e29fe2361ab97ac0ac217840d7,Mozilla/5.0 (Windows NT 10.0; Win64; x64; rv:136.0) Gecko/20100101 Firefox/136.0,NA,Firefox,136,Windows,10,https://5puzkbbxv1.cognition.run/?sona_id=57356,"en-US,en;q=0.5",dhm6rnegdbjlodt,19,"[""Black or African-American"",""White""]",No,Female,NA,No,683039,NA,null,<p></p>,null,choice,tcd,trinary,repulsion_A,2,microwave ovens,null,null,null,null,null,null,1,NA,NA,NA,NA,NA,NA,NA,NA,NA,NA
NA,NA,NA,NA,NA,choice_trial,survey-html-form,5,64510,0.0-4.0-1.0,66,1,2025-04-28T20:37:34Z,b60275e29fe2361ab97ac0ac217840d7,Mozilla/5.0 (Windows NT 10.0; Win64; x64; rv:136.0) Gecko/20100101 Firefox/136.0,NA,Firefox,136,Windows,10,https://5puzkbbxv1.cognition.run/?sona_id=57356,"en-US,en;q=0.5",dhm6rnegdbjlodt,19,"[""Black or African-American"",""White""]",No,Female,NA,No,683039,NA,16546,NA,"{""product_choice"":""B""}",choice,tcd,trinary,repulsion_A,2,microwave ovens,null,null,null,null,null,null,1,30,40,20,100,90,100,Warranty,Cooking power,NA,NA
NA,NA,NA,NA,NA,choice_trial_setup,html-keyboard-response,6,64822,0.0-4.0-0.1,66,1,2025-04-28T20:37:34Z,b60275e29fe2361ab97ac0ac217840d7,Mozilla/5.0 (Windows NT 10.0; Win64; x64; rv:136.0) Gecko/20100101 Firefox/136.0,NA,Firefox,136,Windows,10,https://5puzkbbxv1.cognition.run/?sona_id=57356,"en-US,en;q=0.5",dhm6rnegdbjlodt,19,"[""Black or African-American"",""White""]",No,Female,NA,No,683039,NA,null,<p></p>,null,choice,dtc,trinary,attraction,2,microwave ovens,null,null,null,null,null,null,2,NA,NA,NA,NA,NA,NA,NA,NA,NA,NA
NA,NA,NA,NA,NA,choice_trial,survey-html-form,7,77995,0.0-4.0-1.1,66,1,2025-04-28T20:37:34Z,b60275e29fe2361ab97ac0ac217840d7,Mozilla/5.0 (Windows NT 10.0; Win64; x64; rv:136.0) Gecko/20100101 Firefox/136.0,NA,Firefox,136,Windows,10,https://5puzkbbxv1.cognition.run/?sona_id=57356,"en-US,en;q=0.5",dhm6rnegdbjlodt,19,"[""Black or African-American"",""White""]",No,Female,NA,No,683039,NA,13170,NA,"{""product_choice"":""B""}",choice,dtc,trinary,attraction,2,microwave ovens,null,null,null,null,null,null,2,50,60,40,60,50,60,Warranty,Cooking power,NA,NA
NA,NA,NA,NA,NA,choice_trial_setup,html-keyboard-response,8,78325,0.0-4.0-0.2,66,1,2025-04-28T20:37:34Z,b60275e29fe2361ab97ac0ac217840d7,Mozilla/5.0 (Windows NT 10.0; Win64; x64; rv:136.0) Gecko/20100101 Firefox/136.0,NA,Firefox,136,Windows,10,https://5puzkbbxv1.cognition.run/?sona_id=57356,"en-US,en;q=0.5",dhm6rnegdbjlodt,19,"[""Black or African-American"",""White""]",No,Female,NA,No,683039,NA,null,<p></p>,null,choice,ct,binary,attraction,NA,televisions,null,null,null,null,null,null,1,NA,NA,NA,NA,NA,NA,NA,NA,NA,NA
NA,NA,NA,NA,NA,choice_trial,survey-html-form,9,87000,0.0-4.0-1.2,66,1,2025-04-28T20:37:34Z,b60275e29fe2361ab97ac0ac217840d7,Mozilla/5.0 (Windows NT 10.0; Win64; x64; rv:136.0) Gecko/20100101 Firefox/136.0,NA,Firefox,136,Windows,10,https://5puzkbbxv1.cognition.run/?sona_id=57356,"en-US,en;q=0.5",dhm6rnegdbjlodt,19,"[""Black or African-American"",""White""]",No,Female,NA,No,683039,NA,8671,NA,"{""product_choice"":""A""}",choice,ct,binary,attraction,NA,televisions,null,null,null,null,null,null,1,60,50,null,50,60,null,Screen size,Average lifespan,NA,NA
NA,NA,NA,NA,NA,choice_trial_setup,html-keyboard-response,10,87313,0.0-4.0-0.3,66,1,2025-04-28T20:37:34Z,b60275e29fe2361ab97ac0ac217840d7,Mozilla/5.0 (Windows NT 10.0; Win64; x64; rv:136.0) Gecko/20100101 Firefox/136.0,NA,Firefox,136,Windows,10,https://5puzkbbxv1.cognition.run/?sona_id=57356,"en-US,en;q=0.5",dhm6rnegdbjlodt,19,"[""Black or African-American"",""White""]",No,Female,NA,No,683039,NA,null,<p></p>,null,choice,cdt,trinary,repulsion_A,1,laptops,null,null,null,null,null,null,1,NA,NA,NA,NA,NA,NA,NA,NA,NA,NA
NA,NA,NA,NA,NA,choice_trial,survey-html-form,11,94473,0.0-4.0-1.3,66,1,2025-04-28T20:37:34Z,b60275e29fe2361ab97ac0ac217840d7,Mozilla/5.0 (Windows NT 10.0; Win64; x64; rv:136.0) Gecko/20100101 Firefox/136.0,NA,Firefox,136,Windows,10,https://5puzkbbxv1.cognition.run/?sona_id=57356,"en-US,en;q=0.5",dhm6rnegdbjlodt,19,"[""Black or African-American"",""White""]",No,Female,NA,No,683039,NA,7154,NA,"{""product_choice"":""A""}",choice,cdt,trinary,repulsion_A,1,laptops,null,null,null,null,null,null,1,100,90,100,30,40,20,Processing speed,Memory (RAM),NA,NA
NA,NA,NA,NA,NA,choice_trial_setup,html-keyboard-response,12,94782,0.0-4.0-0.4,66,1,2025-04-28T20:37:34Z,b60275e29fe2361ab97ac0ac217840d7,Mozilla/5.0 (Windows NT 10.0; Win64; x64; rv:136.0) Gecko/20100101 Firefox/136.0,NA,Firefox,136,Windows,10,https://5puzkbbxv1.cognition.run/?sona_id=57356,"en-US,en;q=0.5",dhm6rnegdbjlodt,19,"[""Black or African-American"",""White""]",No,Female,NA,No,683039,NA,null,<p></p>,null,choice,tcd,trinary,repulsion_B,1,microwave ovens,null,null,null,null,null,null,2,NA,NA,NA,NA,NA,NA,NA,NA,NA,NA
NA,NA,NA,NA,NA,choice_trial,survey-html-form,13,114825,0.0-4.0-1.4,66,1,2025-04-28T20:37:34Z,b60275e29fe2361ab97ac0ac217840d7,Mozilla/5.0 (Windows NT 10.0; Win64; x64; rv:136.0) Gecko/20100101 Firefox/136.0,NA,Firefox,136,Windows,10,https://5puzkbbxv1.cognition.run/?sona_id=57356,"en-US,en;q=0.5",dhm6rnegdbjlodt,19,"[""Black or African-American"",""White""]",No,Female,NA,No,683039,NA,20040,NA,"{""product_choice"":""A""}",choice,tcd,trinary,repulsion_B,1,microwave ovens,null,null,null,null,null,null,2,90,100,80,40,30,40,Warranty,Cooking power,NA,NA
NA,NA,NA,NA,NA,choice_trial_setup,html-keyboard-response,14,115148,0.0-4.0-0.5,66,1,2025-04-28T20:37:34Z,b60275e29fe2361ab97ac0ac217840d7,Mozilla/5.0 (Windows NT 10.0; Win64; x64; rv:136.0) Gecko/20100101 Firefox/136.0,NA,Firefox,136,Windows,10,https://5puzkbbxv1.cognition.run/?sona_id=57356,"en-US,en;q=0.5",dhm6rnegdbjlodt,19,"[""Black or African-American"",""White""]",No,Female,NA,No,683039,NA,null,<p></p>,null,choice,bw,binary,catch,null,washing machines,55,85,35,50,null,null,2,NA,NA,NA,NA,NA,NA,NA,NA,NA,NA
NA,NA,NA,NA,NA,choice_trial,survey-html-form,15,122619,0.0-4.0-1.5,66,1,2025-04-28T20:37:34Z,b60275e29fe2361ab97ac0ac217840d7,Mozilla/5.0 (Windows NT 10.0; Win64; x64; rv:136.0) Gecko/20100101 Firefox/136.0,NA,Firefox,136,Windows,10,https://5puzkbbxv1.cognition.run/?sona_id=57356,"en-US,en;q=0.5",dhm6rnegdbjlodt,19,"[""Black or African-American"",""White""]",No,Female,NA,No,683039,NA,7466,NA,"{""product_choice"":""A""}",choice,bw,binary,catch,null,washing machines,55,85,35,50,null,null,2,null,null,null,null,null,null,Average lifespan,Energy savings,NA,NA
NA,NA,NA,NA,NA,choice_trial_setup,html-keyboard-response,16,122942,0.0-4.0-0.6,66,1,2025-04-28T20:37:34Z,b60275e29fe2361ab97ac0ac217840d7,Mozilla/5.0 (Windows NT 10.0; Win64; x64; rv:136.0) Gecko/20100101 Firefox/136.0,NA,Firefox,136,Windows,10,https://5puzkbbxv1.cognition.run/?sona_id=57356,"en-US,en;q=0.5",dhm6rnegdbjlodt,19,"[""Black or African-American"",""White""]",No,Female,NA,No,683039,NA,null,<p></p>,null,choice,ct,binary,attraction,NA,washing machines,null,null,null,null,null,null,2,NA,NA,NA,NA,NA,NA,NA,NA,NA,NA
NA,NA,NA,NA,NA,choice_trial,survey-html-form,17,130592,0.0-4.0-1.6,66,1,2025-04-28T20:37:34Z,b60275e29fe2361ab97ac0ac217840d7,Mozilla/5.0 (Windows NT 10.0; Win64; x64; rv:136.0) Gecko/20100101 Firefox/136.0,NA,Firefox,136,Windows,10,https://5puzkbbxv1.cognition.run/?sona_id=57356,"en-US,en;q=0.5",dhm6rnegdbjlodt,19,"[""Black or African-American"",""White""]",No,Female,NA,No,683039,NA,7647,NA,"{""product_choice"":""A""}",choice,ct,binary,attraction,NA,washing machines,null,null,null,null,null,null,2,60,50,null,50,60,null,Average lifespan,Energy savings,NA,NA
NA,NA,NA,NA,NA,choice_trial_setup,html-keyboard-response,18,130903,0.0-4.0-0.7,66,1,2025-04-28T20:37:34Z,b60275e29fe2361ab97ac0ac217840d7,Mozilla/5.0 (Windows NT 10.0; Win64; x64; rv:136.0) Gecko/20100101 Firefox/136.0,NA,Firefox,136,Windows,10,https://5puzkbbxv1.cognition.run/?sona_id=57356,"en-US,en;q=0.5",dhm6rnegdbjlodt,19,"[""Black or African-American"",""White""]",No,Female,NA,No,683039,NA,null,<p></p>,null,choice,ct,binary,attraction,NA,microwave ovens,null,null,null,null,null,null,2,NA,NA,NA,NA,NA,NA,NA,NA,NA,NA
NA,NA,NA,NA,NA,choice_trial,survey-html-form,19,138441,0.0-4.0-1.7,66,1,2025-04-28T20:37:34Z,b60275e29fe2361ab97ac0ac217840d7,Mozilla/5.0 (Windows NT 10.0; Win64; x64; rv:136.0) Gecko/20100101 Firefox/136.0,NA,Firefox,136,Windows,10,https://5puzkbbxv1.cognition.run/?sona_id=57356,"en-US,en;q=0.5",dhm6rnegdbjlodt,19,"[""Black or African-American"",""White""]",No,Female,NA,No,683039,NA,7533,NA,"{""product_choice"":""B""}",choice,ct,binary,attraction,NA,microwave ovens,null,null,null,null,null,null,2,60,50,null,50,60,null,Warranty,Cooking power,NA,NA
NA,NA,NA,NA,NA,choice_trial_setup,html-keyboard-response,20,139058,0.0-4.0-0.8,66,1,2025-04-28T20:37:34Z,b60275e29fe2361ab97ac0ac217840d7,Mozilla/5.0 (Windows NT 10.0; Win64; x64; rv:136.0) Gecko/20100101 Firefox/136.0,NA,Firefox,136,Windows,10,https://5puzkbbxv1.cognition.run/?sona_id=57356,"en-US,en;q=0.5",dhm6rnegdbjlodt,19,"[""Black or African-American"",""White""]",No,Female,NA,No,683039,NA,null,<p></p>,null,choice,tdc,trinary,repulsion_B,1,washing machines,null,null,null,null,null,null,2,NA,NA,NA,NA,NA,NA,NA,NA,NA,NA
NA,NA,NA,NA,NA,choice_trial,survey-html-form,21,155468,0.0-4.0-1.8,66,1,2025-04-28T20:37:34Z,b60275e29fe2361ab97ac0ac217840d7,Mozilla/5.0 (Windows NT 10.0; Win64; x64; rv:136.0) Gecko/20100101 Firefox/136.0,NA,Firefox,136,Windows,10,https://5puzkbbxv1.cognition.run/?sona_id=57356,"en-US,en;q=0.5",dhm6rnegdbjlodt,19,"[""Black or African-American"",""White""]",No,Female,NA,No,683039,NA,16408,NA,"{""product_choice"":""A""}",choice,tdc,trinary,repulsion_B,1,washing machines,null,null,null,null,null,null,2,90,100,80,40,30,40,Average lifespan,Energy savings,NA,NA
NA,NA,NA,NA,NA,choice_trial_setup,html-keyboard-response,22,155777,0.0-4.0-0.9,66,1,2025-04-28T20:37:34Z,b60275e29fe2361ab97ac0ac217840d7,Mozilla/5.0 (Windows NT 10.0; Win64; x64; rv:136.0) Gecko/20100101 Firefox/136.0,NA,Firefox,136,Windows,10,https://5puzkbbxv1.cognition.run/?sona_id=57356,"en-US,en;q=0.5",dhm6rnegdbjlodt,19,"[""Black or African-American"",""White""]",No,Female,NA,No,683039,NA,null,<p></p>,null,choice,bww,trinary,catch,null,washing machines,90,80,35,15,20,30,2,NA,NA,NA,NA,NA,NA,NA,NA,NA,NA
NA,NA,NA,NA,NA,choice_trial,survey-html-form,23,167263,0.0-4.0-1.9,66,1,2025-04-28T20:37:34Z,b60275e29fe2361ab97ac0ac217840d7,Mozilla/5.0 (Windows NT 10.0; Win64; x64; rv:136.0) Gecko/20100101 Firefox/136.0,NA,Firefox,136,Windows,10,https://5puzkbbxv1.cognition.run/?sona_id=57356,"en-US,en;q=0.5",dhm6rnegdbjlodt,19,"[""Black or African-American"",""White""]",No,Female,NA,No,683039,NA,11478,NA,"{""product_choice"":""A""}",choice,bww,trinary,catch,null,washing machines,90,80,35,15,20,30,2,null,null,null,null,null,null,Average lifespan,Energy savings,NA,NA
NA,NA,NA,NA,NA,choice_trial_setup,html-keyboard-response,24,167566,0.0-4.0-0.10,66,1,2025-04-28T20:37:34Z,b60275e29fe2361ab97ac0ac217840d7,Mozilla/5.0 (Windows NT 10.0; Win64; x64; rv:136.0) Gecko/20100101 Firefox/136.0,NA,Firefox,136,Windows,10,https://5puzkbbxv1.cognition.run/?sona_id=57356,"en-US,en;q=0.5",dhm6rnegdbjlodt,19,"[""Black or African-American"",""White""]",No,Female,NA,No,683039,NA,null,<p></p>,null,choice,wwb,trinary,catch,null,televisions,75,60,45,30,45,30,2,NA,NA,NA,NA,NA,NA,NA,NA,NA,NA
NA,NA,NA,NA,NA,choice_trial,survey-html-form,25,178128,0.0-4.0-1.10,66,1,2025-04-28T20:37:34Z,b60275e29fe2361ab97ac0ac217840d7,Mozilla/5.0 (Windows NT 10.0; Win64; x64; rv:136.0) Gecko/20100101 Firefox/136.0,NA,Firefox,136,Windows,10,https://5puzkbbxv1.cognition.run/?sona_id=57356,"en-US,en;q=0.5",dhm6rnegdbjlodt,19,"[""Black or African-American"",""White""]",No,Female,NA,No,683039,NA,10557,NA,"{""product_choice"":""C""}",choice,wwb,trinary,catch,null,televisions,75,60,45,30,45,30,2,null,null,null,null,null,null,Screen size,Average lifespan,NA,NA
NA,NA,NA,NA,NA,choice_trial_setup,html-keyboard-response,26,178458,0.0-4.0-0.11,66,1,2025-04-28T20:37:34Z,b60275e29fe2361ab97ac0ac217840d7,Mozilla/5.0 (Windows NT 10.0; Win64; x64; rv:136.0) Gecko/20100101 Firefox/136.0,NA,Firefox,136,Windows,10,https://5puzkbbxv1.cognition.run/?sona_id=57356,"en-US,en;q=0.5",dhm6rnegdbjlodt,19,"[""Black or African-American"",""White""]",No,Female,NA,No,683039,NA,null,<p></p>,null,choice,cdt,trinary,repulsion_B,2,washing machines,null,null,null,null,null,null,1,NA,NA,NA,NA,NA,NA,NA,NA,NA,NA
NA,NA,NA,NA,NA,choice_trial,survey-html-form,27,184109,0.0-4.0-1.11,66,1,2025-04-28T20:37:34Z,b60275e29fe2361ab97ac0ac217840d7,Mozilla/5.0 (Windows NT 10.0; Win64; x64; rv:136.0) Gecko/20100101 Firefox/136.0,NA,Firefox,136,Windows,10,https://5puzkbbxv1.cognition.run/?sona_id=57356,"en-US,en;q=0.5",dhm6rnegdbjlodt,19,"[""Black or African-American"",""White""]",No,Female,NA,No,683039,NA,5646,NA,"{""product_choice"":""C""}",choice,cdt,trinary,repulsion_B,2,washing machines,null,null,null,null,null,null,1,40,30,40,90,100,80,Average lifespan,Energy savings,NA,NA
NA,NA,NA,NA,NA,choice_trial_setup,html-keyboard-response,28,184426,0.0-4.0-0.12,66,1,2025-04-28T20:37:34Z,b60275e29fe2361ab97ac0ac217840d7,Mozilla/5.0 (Windows NT 10.0; Win64; x64; rv:136.0) Gecko/20100101 Firefox/136.0,NA,Firefox,136,Windows,10,https://5puzkbbxv1.cognition.run/?sona_id=57356,"en-US,en;q=0.5",dhm6rnegdbjlodt,19,"[""Black or African-American"",""White""]",No,Female,NA,No,683039,NA,null,<p></p>,null,choice,bw,binary,catch,null,microwave ovens,85,60,25,35,null,null,1,NA,NA,NA,NA,NA,NA,NA,NA,NA,NA
NA,NA,NA,NA,NA,choice_trial,survey-html-form,29,188414,0.0-4.0-1.12,66,1,2025-04-28T20:37:34Z,b60275e29fe2361ab97ac0ac217840d7,Mozilla/5.0 (Windows NT 10.0; Win64; x64; rv:136.0) Gecko/20100101 Firefox/136.0,NA,Firefox,136,Windows,10,https://5puzkbbxv1.cognition.run/?sona_id=57356,"en-US,en;q=0.5",dhm6rnegdbjlodt,19,"[""Black or African-American"",""White""]",No,Female,NA,No,683039,NA,3957,NA,"{""product_choice"":""A""}",choice,bw,binary,catch,null,microwave ovens,85,60,25,35,null,null,1,null,null,null,null,null,null,Warranty,Cooking power,NA,NA
NA,NA,NA,NA,NA,choice_trial_setup,html-keyboard-response,30,188731,0.0-4.0-0.13,66,1,2025-04-28T20:37:34Z,b60275e29fe2361ab97ac0ac217840d7,Mozilla/5.0 (Windows NT 10.0; Win64; x64; rv:136.0) Gecko/20100101 Firefox/136.0,NA,Firefox,136,Windows,10,https://5puzkbbxv1.cognition.run/?sona_id=57356,"en-US,en;q=0.5",dhm6rnegdbjlodt,19,"[""Black or African-American"",""White""]",No,Female,NA,No,683039,NA,null,<p></p>,null,choice,ct,binary,repulsion,1,washing machines,null,null,null,null,null,null,1,NA,NA,NA,NA,NA,NA,NA,NA,NA,NA
NA,NA,NA,NA,NA,choice_trial,survey-html-form,31,196591,0.0-4.0-1.13,66,1,2025-04-28T20:37:34Z,b60275e29fe2361ab97ac0ac217840d7,Mozilla/5.0 (Windows NT 10.0; Win64; x64; rv:136.0) Gecko/20100101 Firefox/136.0,NA,Firefox,136,Windows,10,https://5puzkbbxv1.cognition.run/?sona_id=57356,"en-US,en;q=0.5",dhm6rnegdbjlodt,19,"[""Black or African-American"",""White""]",No,Female,NA,No,683039,NA,7857,NA,"{""product_choice"":""A""}",choice,ct,binary,repulsion,1,washing machines,null,null,null,null,null,null,1,100,90,null,30,40,null,Average lifespan,Energy savings,NA,NA
NA,NA,NA,NA,NA,choice_trial_setup,html-keyboard-response,32,196901,0.0-4.0-0.14,66,1,2025-04-28T20:37:34Z,b60275e29fe2361ab97ac0ac217840d7,Mozilla/5.0 (Windows NT 10.0; Win64; x64; rv:136.0) Gecko/20100101 Firefox/136.0,NA,Firefox,136,Windows,10,https://5puzkbbxv1.cognition.run/?sona_id=57356,"en-US,en;q=0.5",dhm6rnegdbjlodt,19,"[""Black or African-American"",""White""]",No,Female,NA,No,683039,NA,null,<p></p>,null,choice,ctd,trinary,attraction,1,microwave ovens,null,null,null,null,null,null,1,NA,NA,NA,NA,NA,NA,NA,NA,NA,NA
NA,NA,NA,NA,NA,choice_trial,survey-html-form,33,205694,0.0-4.0-1.14,66,1,2025-04-28T20:37:34Z,b60275e29fe2361ab97ac0ac217840d7,Mozilla/5.0 (Windows NT 10.0; Win64; x64; rv:136.0) Gecko/20100101 Firefox/136.0,NA,Firefox,136,Windows,10,https://5puzkbbxv1.cognition.run/?sona_id=57356,"en-US,en;q=0.5",dhm6rnegdbjlodt,19,"[""Black or African-American"",""White""]",No,Female,NA,No,683039,NA,8783,NA,"{""product_choice"":""A""}",choice,ctd,trinary,attraction,1,microwave ovens,null,null,null,null,null,null,1,60,50,60,50,60,40,Warranty,Cooking power,NA,NA
NA,NA,NA,NA,NA,choice_trial_setup,html-keyboard-response,34,206014,0.0-4.0-0.15,66,1,2025-04-28T20:37:34Z,b60275e29fe2361ab97ac0ac217840d7,Mozilla/5.0 (Windows NT 10.0; Win64; x64; rv:136.0) Gecko/20100101 Firefox/136.0,NA,Firefox,136,Windows,10,https://5puzkbbxv1.cognition.run/?sona_id=57356,"en-US,en;q=0.5",dhm6rnegdbjlodt,19,"[""Black or African-American"",""White""]",No,Female,NA,No,683039,NA,null,<p></p>,null,choice,cdt,trinary,repulsion_B,1,laptops,null,null,null,null,null,null,1,NA,NA,NA,NA,NA,NA,NA,NA,NA,NA
NA,NA,NA,NA,NA,choice_trial,survey-html-form,35,213801,0.0-4.0-1.15,66,1,2025-04-28T20:37:34Z,b60275e29fe2361ab97ac0ac217840d7,Mozilla/5.0 (Windows NT 10.0; Win64; x64; rv:136.0) Gecko/20100101 Firefox/136.0,NA,Firefox,136,Windows,10,https://5puzkbbxv1.cognition.run/?sona_id=57356,"en-US,en;q=0.5",dhm6rnegdbjlodt,19,"[""Black or African-American"",""White""]",No,Female,NA,No,683039,NA,7781,NA,"{""product_choice"":""C""}",choice,cdt,trinary,repulsion_B,1,laptops,null,null,null,null,null,null,1,90,100,80,40,30,40,Processing speed,Memory (RAM),NA,NA
NA,NA,NA,NA,NA,choice_trial_setup,html-keyboard-response,36,214104,0.0-4.0-0.16,66,1,2025-04-28T20:37:34Z,b60275e29fe2361ab97ac0ac217840d7,Mozilla/5.0 (Windows NT 10.0; Win64; x64; rv:136.0) Gecko/20100101 Firefox/136.0,NA,Firefox,136,Windows,10,https://5puzkbbxv1.cognition.run/?sona_id=57356,"en-US,en;q=0.5",dhm6rnegdbjlodt,19,"[""Black or African-American"",""White""]",No,Female,NA,No,683039,NA,null,<p></p>,null,choice,dct,trinary,attraction,2,televisions,null,null,null,null,null,null,1,NA,NA,NA,NA,NA,NA,NA,NA,NA,NA
NA,NA,NA,NA,NA,choice_trial,survey-html-form,37,229675,0.0-4.0-1.16,66,1,2025-04-28T20:37:34Z,b60275e29fe2361ab97ac0ac217840d7,Mozilla/5.0 (Windows NT 10.0; Win64; x64; rv:136.0) Gecko/20100101 Firefox/136.0,NA,Firefox,136,Windows,10,https://5puzkbbxv1.cognition.run/?sona_id=57356,"en-US,en;q=0.5",dhm6rnegdbjlodt,19,"[""Black or African-American"",""White""]",No,Female,NA,No,683039,NA,15564,NA,"{""product_choice"":""C""}",choice,dct,trinary,attraction,2,televisions,null,null,null,null,null,null,1,50,60,40,60,50,60,Screen size,Average lifespan,NA,NA
NA,NA,NA,NA,NA,choice_trial_setup,html-keyboard-response,38,229984,0.0-4.0-0.17,66,1,2025-04-28T20:37:34Z,b60275e29fe2361ab97ac0ac217840d7,Mozilla/5.0 (Windows NT 10.0; Win64; x64; rv:136.0) Gecko/20100101 Firefox/136.0,NA,Firefox,136,Windows,10,https://5puzkbbxv1.cognition.run/?sona_id=57356,"en-US,en;q=0.5",dhm6rnegdbjlodt,19,"[""Black or African-American"",""White""]",No,Female,NA,No,683039,NA,null,<p></p>,null,choice,ct,binary,attraction,NA,laptops,null,null,null,null,null,null,2,NA,NA,NA,NA,NA,NA,NA,NA,NA,NA
NA,NA,NA,NA,NA,choice_trial,survey-html-form,39,245739,0.0-4.0-1.17,66,1,2025-04-28T20:37:34Z,b60275e29fe2361ab97ac0ac217840d7,Mozilla/5.0 (Windows NT 10.0; Win64; x64; rv:136.0) Gecko/20100101 Firefox/136.0,NA,Firefox,136,Windows,10,https://5puzkbbxv1.cognition.run/?sona_id=57356,"en-US,en;q=0.5",dhm6rnegdbjlodt,19,"[""Black or African-American"",""White""]",No,Female,NA,No,683039,NA,15746,NA,"{""product_choice"":""B""}",choice,ct,binary,attraction,NA,laptops,null,null,null,null,null,null,2,60,50,null,50,60,null,Processing speed,Memory (RAM),NA,NA
NA,NA,NA,NA,NA,choice_trial_setup,html-keyboard-response,40,246066,0.0-4.0-0.18,66,1,2025-04-28T20:37:34Z,b60275e29fe2361ab97ac0ac217840d7,Mozilla/5.0 (Windows NT 10.0; Win64; x64; rv:136.0) Gecko/20100101 Firefox/136.0,NA,Firefox,136,Windows,10,https://5puzkbbxv1.cognition.run/?sona_id=57356,"en-US,en;q=0.5",dhm6rnegdbjlodt,19,"[""Black or African-American"",""White""]",No,Female,NA,No,683039,NA,null,<p></p>,null,choice,ct,binary,repulsion,2,laptops,null,null,null,null,null,null,2,NA,NA,NA,NA,NA,NA,NA,NA,NA,NA
NA,NA,NA,NA,NA,choice_trial,survey-html-form,41,251420,0.0-4.0-1.18,66,1,2025-04-28T20:37:34Z,b60275e29fe2361ab97ac0ac217840d7,Mozilla/5.0 (Windows NT 10.0; Win64; x64; rv:136.0) Gecko/20100101 Firefox/136.0,NA,Firefox,136,Windows,10,https://5puzkbbxv1.cognition.run/?sona_id=57356,"en-US,en;q=0.5",dhm6rnegdbjlodt,19,"[""Black or African-American"",""White""]",No,Female,NA,No,683039,NA,5348,NA,"{""product_choice"":""A""}",choice,ct,binary,repulsion,2,laptops,null,null,null,null,null,null,2,30,40,null,100,90,null,Processing speed,Memory (RAM),NA,NA
NA,NA,NA,NA,NA,choice_trial_setup,html-keyboard-response,42,251733,0.0-4.0-0.19,66,1,2025-04-28T20:37:34Z,b60275e29fe2361ab97ac0ac217840d7,Mozilla/5.0 (Windows NT 10.0; Win64; x64; rv:136.0) Gecko/20100101 Firefox/136.0,NA,Firefox,136,Windows,10,https://5puzkbbxv1.cognition.run/?sona_id=57356,"en-US,en;q=0.5",dhm6rnegdbjlodt,19,"[""Black or African-American"",""White""]",No,Female,NA,No,683039,NA,null,<p></p>,null,choice,cdt,trinary,repulsion_A,2,washing machines,null,null,null,null,null,null,1,NA,NA,NA,NA,NA,NA,NA,NA,NA,NA
NA,NA,NA,NA,NA,choice_trial,survey-html-form,43,262964,0.0-4.0-1.19,66,1,2025-04-28T20:37:34Z,b60275e29fe2361ab97ac0ac217840d7,Mozilla/5.0 (Windows NT 10.0; Win64; x64; rv:136.0) Gecko/20100101 Firefox/136.0,NA,Firefox,136,Windows,10,https://5puzkbbxv1.cognition.run/?sona_id=57356,"en-US,en;q=0.5",dhm6rnegdbjlodt,19,"[""Black or African-American"",""White""]",No,Female,NA,No,683039,NA,11227,NA,"{""product_choice"":""A""}",choice,cdt,trinary,repulsion_A,2,washing machines,null,null,null,null,null,null,1,30,40,20,100,90,100,Average lifespan,Energy savings,NA,NA
NA,NA,NA,NA,NA,choice_trial_setup,html-keyboard-response,44,263274,0.0-4.0-0.20,66,1,2025-04-28T20:37:34Z,b60275e29fe2361ab97ac0ac217840d7,Mozilla/5.0 (Windows NT 10.0; Win64; x64; rv:136.0) Gecko/20100101 Firefox/136.0,NA,Firefox,136,Windows,10,https://5puzkbbxv1.cognition.run/?sona_id=57356,"en-US,en;q=0.5",dhm6rnegdbjlodt,19,"[""Black or African-American"",""White""]",No,Female,NA,No,683039,NA,null,<p></p>,null,choice,wwb,trinary,catch,null,microwave ovens,90,75,45,45,10,10,1,NA,NA,NA,NA,NA,NA,NA,NA,NA,NA
NA,NA,NA,NA,NA,choice_trial,survey-html-form,45,267585,0.0-4.0-1.20,66,1,2025-04-28T20:37:34Z,b60275e29fe2361ab97ac0ac217840d7,Mozilla/5.0 (Windows NT 10.0; Win64; x64; rv:136.0) Gecko/20100101 Firefox/136.0,NA,Firefox,136,Windows,10,https://5puzkbbxv1.cognition.run/?sona_id=57356,"en-US,en;q=0.5",dhm6rnegdbjlodt,19,"[""Black or African-American"",""White""]",No,Female,NA,No,683039,NA,4305,NA,"{""product_choice"":""C""}",choice,wwb,trinary,catch,null,microwave ovens,90,75,45,45,10,10,1,null,null,null,null,null,null,Warranty,Cooking power,NA,NA
NA,NA,NA,NA,NA,choice_trial_setup,html-keyboard-response,46,267896,0.0-4.0-0.21,66,1,2025-04-28T20:37:34Z,b60275e29fe2361ab97ac0ac217840d7,Mozilla/5.0 (Windows NT 10.0; Win64; x64; rv:136.0) Gecko/20100101 Firefox/136.0,NA,Firefox,136,Windows,10,https://5puzkbbxv1.cognition.run/?sona_id=57356,"en-US,en;q=0.5",dhm6rnegdbjlodt,19,"[""Black or African-American"",""White""]",No,Female,NA,No,683039,NA,null,<p></p>,null,choice,wb,binary,catch,null,laptops,80,75,15,5,null,null,2,NA,NA,NA,NA,NA,NA,NA,NA,NA,NA
NA,NA,NA,NA,NA,choice_trial,survey-html-form,47,273701,0.0-4.0-1.21,66,1,2025-04-28T20:37:34Z,b60275e29fe2361ab97ac0ac217840d7,Mozilla/5.0 (Windows NT 10.0; Win64; x64; rv:136.0) Gecko/20100101 Firefox/136.0,NA,Firefox,136,Windows,10,https://5puzkbbxv1.cognition.run/?sona_id=57356,"en-US,en;q=0.5",dhm6rnegdbjlodt,19,"[""Black or African-American"",""White""]",No,Female,NA,No,683039,NA,5798,NA,"{""product_choice"":""B""}",choice,wb,binary,catch,null,laptops,80,75,15,5,null,null,2,null,null,null,null,null,null,Processing speed,Memory (RAM),NA,NA
NA,NA,NA,NA,NA,choice_trial_setup,html-keyboard-response,48,274016,0.0-4.0-0.22,66,1,2025-04-28T20:37:34Z,b60275e29fe2361ab97ac0ac217840d7,Mozilla/5.0 (Windows NT 10.0; Win64; x64; rv:136.0) Gecko/20100101 Firefox/136.0,NA,Firefox,136,Windows,10,https://5puzkbbxv1.cognition.run/?sona_id=57356,"en-US,en;q=0.5",dhm6rnegdbjlodt,19,"[""Black or African-American"",""White""]",No,Female,NA,No,683039,NA,null,<p></p>,null,choice,cdt,trinary,repulsion_B,2,microwave ovens,null,null,null,null,null,null,2,NA,NA,NA,NA,NA,NA,NA,NA,NA,NA
NA,NA,NA,NA,NA,choice_trial,survey-html-form,49,280625,0.0-4.0-1.22,66,1,2025-04-28T20:37:34Z,b60275e29fe2361ab97ac0ac217840d7,Mozilla/5.0 (Windows NT 10.0; Win64; x64; rv:136.0) Gecko/20100101 Firefox/136.0,NA,Firefox,136,Windows,10,https://5puzkbbxv1.cognition.run/?sona_id=57356,"en-US,en;q=0.5",dhm6rnegdbjlodt,19,"[""Black or African-American"",""White""]",No,Female,NA,No,683039,NA,6606,NA,"{""product_choice"":""C""}",choice,cdt,trinary,repulsion_B,2,microwave ovens,null,null,null,null,null,null,2,40,30,40,90,100,80,Warranty,Cooking power,NA,NA
NA,NA,NA,NA,NA,choice_trial_setup,html-keyboard-response,50,280945,0.0-4.0-0.23,66,1,2025-04-28T20:37:34Z,b60275e29fe2361ab97ac0ac217840d7,Mozilla/5.0 (Windows NT 10.0; Win64; x64; rv:136.0) Gecko/20100101 Firefox/136.0,NA,Firefox,136,Windows,10,https://5puzkbbxv1.cognition.run/?sona_id=57356,"en-US,en;q=0.5",dhm6rnegdbjlodt,19,"[""Black or African-American"",""White""]",No,Female,NA,No,683039,NA,null,<p></p>,null,choice,dtc,trinary,repulsion_A,1,washing machines,null,null,null,null,null,null,1,NA,NA,NA,NA,NA,NA,NA,NA,NA,NA
NA,NA,NA,NA,NA,choice_trial,survey-html-form,51,286474,0.0-4.0-1.23,66,1,2025-04-28T20:37:34Z,b60275e29fe2361ab97ac0ac217840d7,Mozilla/5.0 (Windows NT 10.0; Win64; x64; rv:136.0) Gecko/20100101 Firefox/136.0,NA,Firefox,136,Windows,10,https://5puzkbbxv1.cognition.run/?sona_id=57356,"en-US,en;q=0.5",dhm6rnegdbjlodt,19,"[""Black or African-American"",""White""]",No,Female,NA,No,683039,NA,5524,NA,"{""product_choice"":""C""}",choice,dtc,trinary,repulsion_A,1,washing machines,null,null,null,null,null,null,1,100,90,100,30,40,20,Average lifespan,Energy savings,NA,NA
NA,NA,NA,NA,NA,choice_trial_setup,html-keyboard-response,52,286786,0.0-4.0-0.24,66,1,2025-04-28T20:37:34Z,b60275e29fe2361ab97ac0ac217840d7,Mozilla/5.0 (Windows NT 10.0; Win64; x64; rv:136.0) Gecko/20100101 Firefox/136.0,NA,Firefox,136,Windows,10,https://5puzkbbxv1.cognition.run/?sona_id=57356,"en-US,en;q=0.5",dhm6rnegdbjlodt,19,"[""Black or African-American"",""White""]",No,Female,NA,No,683039,NA,null,<p></p>,null,choice,cdt,trinary,attraction,1,televisions,null,null,null,null,null,null,1,NA,NA,NA,NA,NA,NA,NA,NA,NA,NA
NA,NA,NA,NA,NA,choice_trial,survey-html-form,53,295651,0.0-4.0-1.24,66,1,2025-04-28T20:37:34Z,b60275e29fe2361ab97ac0ac217840d7,Mozilla/5.0 (Windows NT 10.0; Win64; x64; rv:136.0) Gecko/20100101 Firefox/136.0,NA,Firefox,136,Windows,10,https://5puzkbbxv1.cognition.run/?sona_id=57356,"en-US,en;q=0.5",dhm6rnegdbjlodt,19,"[""Black or African-American"",""White""]",No,Female,NA,No,683039,NA,8858,NA,"{""product_choice"":""A""}",choice,cdt,trinary,attraction,1,televisions,null,null,null,null,null,null,1,60,50,60,50,60,40,Screen size,Average lifespan,NA,NA
NA,NA,NA,NA,NA,choice_trial_setup,html-keyboard-response,54,295968,0.0-4.0-0.25,66,1,2025-04-28T20:37:34Z,b60275e29fe2361ab97ac0ac217840d7,Mozilla/5.0 (Windows NT 10.0; Win64; x64; rv:136.0) Gecko/20100101 Firefox/136.0,NA,Firefox,136,Windows,10,https://5puzkbbxv1.cognition.run/?sona_id=57356,"en-US,en;q=0.5",dhm6rnegdbjlodt,19,"[""Black or African-American"",""White""]",No,Female,NA,No,683039,NA,null,<p></p>,null,choice,cdt,trinary,repulsion_A,2,laptops,null,null,null,null,null,null,1,NA,NA,NA,NA,NA,NA,NA,NA,NA,NA
NA,NA,NA,NA,NA,choice_trial,survey-html-form,55,300788,0.0-4.0-1.25,66,1,2025-04-28T20:37:34Z,b60275e29fe2361ab97ac0ac217840d7,Mozilla/5.0 (Windows NT 10.0; Win64; x64; rv:136.0) Gecko/20100101 Firefox/136.0,NA,Firefox,136,Windows,10,https://5puzkbbxv1.cognition.run/?sona_id=57356,"en-US,en;q=0.5",dhm6rnegdbjlodt,19,"[""Black or African-American"",""White""]",No,Female,NA,No,683039,NA,4815,NA,"{""product_choice"":""A""}",choice,cdt,trinary,repulsion_A,2,laptops,null,null,null,null,null,null,1,30,40,20,100,90,100,Processing speed,Memory (RAM),NA,NA
NA,NA,NA,NA,NA,choice_trial_setup,html-keyboard-response,56,301109,0.0-4.0-0.26,66,1,2025-04-28T20:37:34Z,b60275e29fe2361ab97ac0ac217840d7,Mozilla/5.0 (Windows NT 10.0; Win64; x64; rv:136.0) Gecko/20100101 Firefox/136.0,NA,Firefox,136,Windows,10,https://5puzkbbxv1.cognition.run/?sona_id=57356,"en-US,en;q=0.5",dhm6rnegdbjlodt,19,"[""Black or African-American"",""White""]",No,Female,NA,No,683039,NA,null,<p></p>,null,choice,ctd,trinary,repulsion_A,1,microwave ovens,null,null,null,null,null,null,1,NA,NA,NA,NA,NA,NA,NA,NA,NA,NA
NA,NA,NA,NA,NA,choice_trial,survey-html-form,57,311061,0.0-4.0-1.26,66,1,2025-04-28T20:37:34Z,b60275e29fe2361ab97ac0ac217840d7,Mozilla/5.0 (Windows NT 10.0; Win64; x64; rv:136.0) Gecko/20100101 Firefox/136.0,NA,Firefox,136,Windows,10,https://5puzkbbxv1.cognition.run/?sona_id=57356,"en-US,en;q=0.5",dhm6rnegdbjlodt,19,"[""Black or African-American"",""White""]",No,Female,NA,No,683039,NA,9944,NA,"{""product_choice"":""A""}",choice,ctd,trinary,repulsion_A,1,microwave ovens,null,null,null,null,null,null,1,100,90,100,30,40,20,Warranty,Cooking power,NA,NA
NA,NA,NA,NA,NA,choice_trial_setup,html-keyboard-response,58,311388,0.0-4.0-0.27,66,1,2025-04-28T20:37:34Z,b60275e29fe2361ab97ac0ac217840d7,Mozilla/5.0 (Windows NT 10.0; Win64; x64; rv:136.0) Gecko/20100101 Firefox/136.0,NA,Firefox,136,Windows,10,https://5puzkbbxv1.cognition.run/?sona_id=57356,"en-US,en;q=0.5",dhm6rnegdbjlodt,19,"[""Black or African-American"",""White""]",No,Female,NA,No,683039,NA,null,<p></p>,null,choice,ct,binary,repulsion,1,televisions,null,null,null,null,null,null,2,NA,NA,NA,NA,NA,NA,NA,NA,NA,NA
NA,NA,NA,NA,NA,choice_trial,survey-html-form,59,318103,0.0-4.0-1.27,66,1,2025-04-28T20:37:34Z,b60275e29fe2361ab97ac0ac217840d7,Mozilla/5.0 (Windows NT 10.0; Win64; x64; rv:136.0) Gecko/20100101 Firefox/136.0,NA,Firefox,136,Windows,10,https://5puzkbbxv1.cognition.run/?sona_id=57356,"en-US,en;q=0.5",dhm6rnegdbjlodt,19,"[""Black or African-American"",""White""]",No,Female,NA,No,683039,NA,6706,NA,"{""product_choice"":""A""}",choice,ct,binary,repulsion,1,televisions,null,null,null,null,null,null,2,100,90,null,30,40,null,Screen size,Average lifespan,NA,NA
NA,NA,NA,NA,NA,choice_trial_setup,html-keyboard-response,60,318425,0.0-4.0-0.28,66,1,2025-04-28T20:37:34Z,b60275e29fe2361ab97ac0ac217840d7,Mozilla/5.0 (Windows NT 10.0; Win64; x64; rv:136.0) Gecko/20100101 Firefox/136.0,NA,Firefox,136,Windows,10,https://5puzkbbxv1.cognition.run/?sona_id=57356,"en-US,en;q=0.5",dhm6rnegdbjlodt,19,"[""Black or African-American"",""White""]",No,Female,NA,No,683039,NA,null,<p></p>,null,choice,cdt,trinary,repulsion_B,2,televisions,null,null,null,null,null,null,2,NA,NA,NA,NA,NA,NA,NA,NA,NA,NA
NA,NA,NA,NA,NA,choice_trial,survey-html-form,61,324429,0.0-4.0-1.28,66,1,2025-04-28T20:37:34Z,b60275e29fe2361ab97ac0ac217840d7,Mozilla/5.0 (Windows NT 10.0; Win64; x64; rv:136.0) Gecko/20100101 Firefox/136.0,NA,Firefox,136,Windows,10,https://5puzkbbxv1.cognition.run/?sona_id=57356,"en-US,en;q=0.5",dhm6rnegdbjlodt,19,"[""Black or African-American"",""White""]",No,Female,NA,No,683039,NA,5999,NA,"{""product_choice"":""C""}",choice,cdt,trinary,repulsion_B,2,televisions,null,null,null,null,null,null,2,40,30,40,90,100,80,Screen size,Average lifespan,NA,NA
NA,NA,NA,NA,NA,choice_trial_setup,html-keyboard-response,62,324749,0.0-4.0-0.29,66,1,2025-04-28T20:37:34Z,b60275e29fe2361ab97ac0ac217840d7,Mozilla/5.0 (Windows NT 10.0; Win64; x64; rv:136.0) Gecko/20100101 Firefox/136.0,NA,Firefox,136,Windows,10,https://5puzkbbxv1.cognition.run/?sona_id=57356,"en-US,en;q=0.5",dhm6rnegdbjlodt,19,"[""Black or African-American"",""White""]",No,Female,NA,No,683039,NA,null,<p></p>,null,choice,bww,trinary,catch,null,laptops,95,50,20,10,30,15,2,NA,NA,NA,NA,NA,NA,NA,NA,NA,NA
NA,NA,NA,NA,NA,choice_trial,survey-html-form,63,328147,0.0-4.0-1.29,66,1,2025-04-28T20:37:34Z,b60275e29fe2361ab97ac0ac217840d7,Mozilla/5.0 (Windows NT 10.0; Win64; x64; rv:136.0) Gecko/20100101 Firefox/136.0,NA,Firefox,136,Windows,10,https://5puzkbbxv1.cognition.run/?sona_id=57356,"en-US,en;q=0.5",dhm6rnegdbjlodt,19,"[""Black or African-American"",""White""]",No,Female,NA,No,683039,NA,3394,NA,"{""product_choice"":""A""}",choice,bww,trinary,catch,null,laptops,95,50,20,10,30,15,2,null,null,null,null,null,null,Processing speed,Memory (RAM),NA,NA
NA,NA,NA,NA,NA,choice_trial_setup,html-keyboard-response,64,328457,0.0-4.0-0.30,66,1,2025-04-28T20:37:34Z,b60275e29fe2361ab97ac0ac217840d7,Mozilla/5.0 (Windows NT 10.0; Win64; x64; rv:136.0) Gecko/20100101 Firefox/136.0,NA,Firefox,136,Windows,10,https://5puzkbbxv1.cognition.run/?sona_id=57356,"en-US,en;q=0.5",dhm6rnegdbjlodt,19,"[""Black or African-American"",""White""]",No,Female,NA,No,683039,NA,null,<p></p>,null,choice,ctd,trinary,repulsion_B,1,televisions,null,null,null,null,null,null,2,NA,NA,NA,NA,NA,NA,NA,NA,NA,NA
NA,NA,NA,NA,NA,choice_trial,survey-html-form,65,333496,0.0-4.0-1.30,66,1,2025-04-28T20:37:34Z,b60275e29fe2361ab97ac0ac217840d7,Mozilla/5.0 (Windows NT 10.0; Win64; x64; rv:136.0) Gecko/20100101 Firefox/136.0,NA,Firefox,136,Windows,10,https://5puzkbbxv1.cognition.run/?sona_id=57356,"en-US,en;q=0.5",dhm6rnegdbjlodt,19,"[""Black or African-American"",""White""]",No,Female,NA,No,683039,NA,5031,NA,"{""product_choice"":""B""}",choice,ctd,trinary,repulsion_B,1,televisions,null,null,null,null,null,null,2,90,100,80,40,30,40,Screen size,Average lifespan,NA,NA
NA,NA,NA,NA,NA,choice_trial_setup,html-keyboard-response,66,333811,0.0-4.0-0.31,66,1,2025-04-28T20:37:34Z,b60275e29fe2361ab97ac0ac217840d7,Mozilla/5.0 (Windows NT 10.0; Win64; x64; rv:136.0) Gecko/20100101 Firefox/136.0,NA,Firefox,136,Windows,10,https://5puzkbbxv1.cognition.run/?sona_id=57356,"en-US,en;q=0.5",dhm6rnegdbjlodt,19,"[""Black or African-American"",""White""]",No,Female,NA,No,683039,NA,null,<p></p>,null,choice,dct,trinary,repulsion_B,2,laptops,null,null,null,null,null,null,2,NA,NA,NA,NA,NA,NA,NA,NA,NA,NA
NA,NA,NA,NA,NA,choice_trial,survey-html-form,67,343994,0.0-4.0-1.31,66,1,2025-04-28T20:37:34Z,b60275e29fe2361ab97ac0ac217840d7,Mozilla/5.0 (Windows NT 10.0; Win64; x64; rv:136.0) Gecko/20100101 Firefox/136.0,NA,Firefox,136,Windows,10,https://5puzkbbxv1.cognition.run/?sona_id=57356,"en-US,en;q=0.5",dhm6rnegdbjlodt,19,"[""Black or African-American"",""White""]",No,Female,NA,No,683039,NA,10171,NA,"{""product_choice"":""C""}",choice,dct,trinary,repulsion_B,2,laptops,null,null,null,null,null,null,2,40,30,40,90,100,80,Processing speed,Memory (RAM),NA,NA
NA,NA,NA,NA,NA,choice_trial_setup,html-keyboard-response,68,344307,0.0-4.0-0.32,66,1,2025-04-28T20:37:34Z,b60275e29fe2361ab97ac0ac217840d7,Mozilla/5.0 (Windows NT 10.0; Win64; x64; rv:136.0) Gecko/20100101 Firefox/136.0,NA,Firefox,136,Windows,10,https://5puzkbbxv1.cognition.run/?sona_id=57356,"en-US,en;q=0.5",dhm6rnegdbjlodt,19,"[""Black or African-American"",""White""]",No,Female,NA,No,683039,NA,null,<p></p>,null,choice,tc,binary,repulsion,2,microwave ovens,null,null,null,null,null,null,1,NA,NA,NA,NA,NA,NA,NA,NA,NA,NA
NA,NA,NA,NA,NA,choice_trial,survey-html-form,69,352578,0.0-4.0-1.32,66,1,2025-04-28T20:37:34Z,b60275e29fe2361ab97ac0ac217840d7,Mozilla/5.0 (Windows NT 10.0; Win64; x64; rv:136.0) Gecko/20100101 Firefox/136.0,NA,Firefox,136,Windows,10,https://5puzkbbxv1.cognition.run/?sona_id=57356,"en-US,en;q=0.5",dhm6rnegdbjlodt,19,"[""Black or African-American"",""White""]",No,Female,NA,No,683039,NA,8266,NA,"{""product_choice"":""B""}",choice,tc,binary,repulsion,2,microwave ovens,null,null,null,null,null,null,1,30,40,null,100,90,null,Warranty,Cooking power,NA,NA
NA,NA,NA,NA,NA,choice_trial_setup,html-keyboard-response,70,352891,0.0-4.0-0.33,66,1,2025-04-28T20:37:34Z,b60275e29fe2361ab97ac0ac217840d7,Mozilla/5.0 (Windows NT 10.0; Win64; x64; rv:136.0) Gecko/20100101 Firefox/136.0,NA,Firefox,136,Windows,10,https://5puzkbbxv1.cognition.run/?sona_id=57356,"en-US,en;q=0.5",dhm6rnegdbjlodt,19,"[""Black or African-American"",""White""]",No,Female,NA,No,683039,NA,null,<p></p>,null,choice,tc,binary,repulsion,1,laptops,null,null,null,null,null,null,2,NA,NA,NA,NA,NA,NA,NA,NA,NA,NA
NA,NA,NA,NA,NA,choice_trial,survey-html-form,71,357198,0.0-4.0-1.33,66,1,2025-04-28T20:37:34Z,b60275e29fe2361ab97ac0ac217840d7,Mozilla/5.0 (Windows NT 10.0; Win64; x64; rv:136.0) Gecko/20100101 Firefox/136.0,NA,Firefox,136,Windows,10,https://5puzkbbxv1.cognition.run/?sona_id=57356,"en-US,en;q=0.5",dhm6rnegdbjlodt,19,"[""Black or African-American"",""White""]",No,Female,NA,No,683039,NA,4301,NA,"{""product_choice"":""B""}",choice,tc,binary,repulsion,1,laptops,null,null,null,null,null,null,2,100,90,null,30,40,null,Processing speed,Memory (RAM),NA,NA
NA,NA,NA,NA,NA,choice_trial_setup,html-keyboard-response,72,357517,0.0-4.0-0.34,66,1,2025-04-28T20:37:34Z,b60275e29fe2361ab97ac0ac217840d7,Mozilla/5.0 (Windows NT 10.0; Win64; x64; rv:136.0) Gecko/20100101 Firefox/136.0,NA,Firefox,136,Windows,10,https://5puzkbbxv1.cognition.run/?sona_id=57356,"en-US,en;q=0.5",dhm6rnegdbjlodt,19,"[""Black or African-American"",""White""]",No,Female,NA,No,683039,NA,null,<p></p>,null,choice,bw,binary,catch,null,televisions,85,60,45,50,null,null,2,NA,NA,NA,NA,NA,NA,NA,NA,NA,NA
NA,NA,NA,NA,NA,choice_trial,survey-html-form,73,362248,0.0-4.0-1.34,66,1,2025-04-28T20:37:34Z,b60275e29fe2361ab97ac0ac217840d7,Mozilla/5.0 (Windows NT 10.0; Win64; x64; rv:136.0) Gecko/20100101 Firefox/136.0,NA,Firefox,136,Windows,10,https://5puzkbbxv1.cognition.run/?sona_id=57356,"en-US,en;q=0.5",dhm6rnegdbjlodt,19,"[""Black or African-American"",""White""]",No,Female,NA,No,683039,NA,4724,NA,"{""product_choice"":""A""}",choice,bw,binary,catch,null,televisions,85,60,45,50,null,null,2,null,null,null,null,null,null,Screen size,Average lifespan,NA,NA
NA,NA,NA,NA,NA,choice_trial_setup,html-keyboard-response,74,362570,0.0-4.0-0.35,66,1,2025-04-28T20:37:34Z,b60275e29fe2361ab97ac0ac217840d7,Mozilla/5.0 (Windows NT 10.0; Win64; x64; rv:136.0) Gecko/20100101 Firefox/136.0,NA,Firefox,136,Windows,10,https://5puzkbbxv1.cognition.run/?sona_id=57356,"en-US,en;q=0.5",dhm6rnegdbjlodt,19,"[""Black or African-American"",""White""]",No,Female,NA,No,683039,NA,null,<p></p>,null,choice,tcd,trinary,attraction,1,laptops,null,null,null,null,null,null,2,NA,NA,NA,NA,NA,NA,NA,NA,NA,NA
NA,NA,NA,NA,NA,choice_trial,survey-html-form,75,371652,0.0-4.0-1.35,66,1,2025-04-28T20:37:34Z,b60275e29fe2361ab97ac0ac217840d7,Mozilla/5.0 (Windows NT 10.0; Win64; x64; rv:136.0) Gecko/20100101 Firefox/136.0,NA,Firefox,136,Windows,10,https://5puzkbbxv1.cognition.run/?sona_id=57356,"en-US,en;q=0.5",dhm6rnegdbjlodt,19,"[""Black or African-American"",""White""]",No,Female,NA,No,683039,NA,9076,NA,"{""product_choice"":""A""}",choice,tcd,trinary,attraction,1,laptops,null,null,null,null,null,null,2,60,50,60,50,60,40,Processing speed,Memory (RAM),NA,NA
NA,NA,NA,NA,NA,choice_trial_setup,html-keyboard-response,76,371984,0.0-4.0-0.36,66,1,2025-04-28T20:37:34Z,b60275e29fe2361ab97ac0ac217840d7,Mozilla/5.0 (Windows NT 10.0; Win64; x64; rv:136.0) Gecko/20100101 Firefox/136.0,NA,Firefox,136,Windows,10,https://5puzkbbxv1.cognition.run/?sona_id=57356,"en-US,en;q=0.5",dhm6rnegdbjlodt,19,"[""Black or African-American"",""White""]",No,Female,NA,No,683039,NA,null,<p></p>,null,choice,tdc,trinary,attraction,1,washing machines,null,null,null,null,null,null,1,NA,NA,NA,NA,NA,NA,NA,NA,NA,NA
NA,NA,NA,NA,NA,choice_trial,survey-html-form,77,381326,0.0-4.0-1.36,66,1,2025-04-28T20:37:34Z,b60275e29fe2361ab97ac0ac217840d7,Mozilla/5.0 (Windows NT 10.0; Win64; x64; rv:136.0) Gecko/20100101 Firefox/136.0,NA,Firefox,136,Windows,10,https://5puzkbbxv1.cognition.run/?sona_id=57356,"en-US,en;q=0.5",dhm6rnegdbjlodt,19,"[""Black or African-American"",""White""]",No,Female,NA,No,683039,NA,9335,NA,"{""product_choice"":""A""}",choice,tdc,trinary,attraction,1,washing machines,null,null,null,null,null,null,1,60,50,60,50,60,40,Average lifespan,Energy savings,NA,NA
NA,NA,NA,NA,NA,choice_trial_setup,html-keyboard-response,78,381643,0.0-4.0-0.37,66,1,2025-04-28T20:37:34Z,b60275e29fe2361ab97ac0ac217840d7,Mozilla/5.0 (Windows NT 10.0; Win64; x64; rv:136.0) Gecko/20100101 Firefox/136.0,NA,Firefox,136,Windows,10,https://5puzkbbxv1.cognition.run/?sona_id=57356,"en-US,en;q=0.5",dhm6rnegdbjlodt,19,"[""Black or African-American"",""White""]",No,Female,NA,No,683039,NA,null,<p></p>,null,choice,ct,binary,repulsion,1,microwave ovens,null,null,null,null,null,null,2,NA,NA,NA,NA,NA,NA,NA,NA,NA,NA
NA,NA,NA,NA,NA,choice_trial,survey-html-form,79,386498,0.0-4.0-1.37,66,1,2025-04-28T20:37:34Z,b60275e29fe2361ab97ac0ac217840d7,Mozilla/5.0 (Windows NT 10.0; Win64; x64; rv:136.0) Gecko/20100101 Firefox/136.0,NA,Firefox,136,Windows,10,https://5puzkbbxv1.cognition.run/?sona_id=57356,"en-US,en;q=0.5",dhm6rnegdbjlodt,19,"[""Black or African-American"",""White""]",No,Female,NA,No,683039,NA,4846,NA,"{""product_choice"":""A""}",choice,ct,binary,repulsion,1,microwave ovens,null,null,null,null,null,null,2,100,90,null,30,40,null,Warranty,Cooking power,NA,NA
NA,NA,NA,NA,NA,choice_trial_setup,html-keyboard-response,80,386820,0.0-4.0-0.38,66,1,2025-04-28T20:37:34Z,b60275e29fe2361ab97ac0ac217840d7,Mozilla/5.0 (Windows NT 10.0; Win64; x64; rv:136.0) Gecko/20100101 Firefox/136.0,NA,Firefox,136,Windows,10,https://5puzkbbxv1.cognition.run/?sona_id=57356,"en-US,en;q=0.5",dhm6rnegdbjlodt,19,"[""Black or African-American"",""White""]",No,Female,NA,No,683039,NA,null,<p></p>,null,choice,cdt,trinary,repulsion_A,2,televisions,null,null,null,null,null,null,2,NA,NA,NA,NA,NA,NA,NA,NA,NA,NA
NA,NA,NA,NA,NA,choice_trial,survey-html-form,81,441756,0.0-4.0-1.38,66,1,2025-04-28T20:37:34Z,b60275e29fe2361ab97ac0ac217840d7,Mozilla/5.0 (Windows NT 10.0; Win64; x64; rv:136.0) Gecko/20100101 Firefox/136.0,NA,Firefox,136,Windows,10,https://5puzkbbxv1.cognition.run/?sona_id=57356,"en-US,en;q=0.5",dhm6rnegdbjlodt,19,"[""Black or African-American"",""White""]",No,Female,NA,No,683039,NA,54930,NA,"{""product_choice"":""A""}",choice,cdt,trinary,repulsion_A,2,televisions,null,null,null,null,null,null,2,30,40,20,100,90,100,Screen size,Average lifespan,NA,NA
NA,NA,NA,NA,NA,choice_trial_setup,html-keyboard-response,82,442089,0.0-4.0-0.39,66,1,2025-04-28T20:37:34Z,b60275e29fe2361ab97ac0ac217840d7,Mozilla/5.0 (Windows NT 10.0; Win64; x64; rv:136.0) Gecko/20100101 Firefox/136.0,NA,Firefox,136,Windows,10,https://5puzkbbxv1.cognition.run/?sona_id=57356,"en-US,en;q=0.5",dhm6rnegdbjlodt,19,"[""Black or African-American"",""White""]",No,Female,NA,No,683039,NA,null,<p></p>,null,choice,ct,binary,repulsion,2,televisions,null,null,null,null,null,null,1,NA,NA,NA,NA,NA,NA,NA,NA,NA,NA
NA,NA,NA,NA,NA,choice_trial,survey-html-form,83,445298,0.0-4.0-1.39,66,1,2025-04-28T20:37:34Z,b60275e29fe2361ab97ac0ac217840d7,Mozilla/5.0 (Windows NT 10.0; Win64; x64; rv:136.0) Gecko/20100101 Firefox/136.0,NA,Firefox,136,Windows,10,https://5puzkbbxv1.cognition.run/?sona_id=57356,"en-US,en;q=0.5",dhm6rnegdbjlodt,19,"[""Black or African-American"",""White""]",No,Female,NA,No,683039,NA,3202,NA,"{""product_choice"":""A""}",choice,ct,binary,repulsion,2,televisions,null,null,null,null,null,null,1,30,40,null,100,90,null,Screen size,Average lifespan,NA,NA
NA,NA,NA,NA,NA,choice_trial_setup,html-keyboard-response,84,445627,0.0-4.0-0.40,66,1,2025-04-28T20:37:34Z,b60275e29fe2361ab97ac0ac217840d7,Mozilla/5.0 (Windows NT 10.0; Win64; x64; rv:136.0) Gecko/20100101 Firefox/136.0,NA,Firefox,136,Windows,10,https://5puzkbbxv1.cognition.run/?sona_id=57356,"en-US,en;q=0.5",dhm6rnegdbjlodt,19,"[""Black or African-American"",""White""]",No,Female,NA,No,683039,NA,null,<p></p>,null,choice,ct,binary,repulsion,2,washing machines,null,null,null,null,null,null,2,NA,NA,NA,NA,NA,NA,NA,NA,NA,NA
NA,NA,NA,NA,NA,choice_trial,survey-html-form,85,450264,0.0-4.0-1.40,66,1,2025-04-28T20:37:34Z,b60275e29fe2361ab97ac0ac217840d7,Mozilla/5.0 (Windows NT 10.0; Win64; x64; rv:136.0) Gecko/20100101 Firefox/136.0,NA,Firefox,136,Windows,10,https://5puzkbbxv1.cognition.run/?sona_id=57356,"en-US,en;q=0.5",dhm6rnegdbjlodt,19,"[""Black or African-American"",""White""]",No,Female,NA,No,683039,NA,4628,NA,"{""product_choice"":""A""}",choice,ct,binary,repulsion,2,washing machines,null,null,null,null,null,null,2,30,40,null,100,90,null,Average lifespan,Energy savings,NA,NA
NA,NA,NA,NA,NA,choice_trial_setup,html-keyboard-response,86,450574,0.0-4.0-0.41,66,1,2025-04-28T20:37:34Z,b60275e29fe2361ab97ac0ac217840d7,Mozilla/5.0 (Windows NT 10.0; Win64; x64; rv:136.0) Gecko/20100101 Firefox/136.0,NA,Firefox,136,Windows,10,https://5puzkbbxv1.cognition.run/?sona_id=57356,"en-US,en;q=0.5",dhm6rnegdbjlodt,19,"[""Black or African-American"",""White""]",No,Female,NA,No,683039,NA,null,<p></p>,null,choice,cdt,trinary,repulsion_A,1,televisions,null,null,null,null,null,null,2,NA,NA,NA,NA,NA,NA,NA,NA,NA,NA
NA,NA,NA,NA,NA,choice_trial,survey-html-form,87,455106,0.0-4.0-1.41,66,1,2025-04-28T20:37:34Z,b60275e29fe2361ab97ac0ac217840d7,Mozilla/5.0 (Windows NT 10.0; Win64; x64; rv:136.0) Gecko/20100101 Firefox/136.0,NA,Firefox,136,Windows,10,https://5puzkbbxv1.cognition.run/?sona_id=57356,"en-US,en;q=0.5",dhm6rnegdbjlodt,19,"[""Black or African-American"",""White""]",No,Female,NA,No,683039,NA,4522,NA,"{""product_choice"":""A""}",choice,cdt,trinary,repulsion_A,1,televisions,null,null,null,null,null,null,2,100,90,100,30,40,20,Screen size,Average lifespan,NA,NA
NA,NA,NA,NA,NA,choice_trial_setup,html-keyboard-response,88,455431,0.0-4.0-0.42,66,1,2025-04-28T20:37:34Z,b60275e29fe2361ab97ac0ac217840d7,Mozilla/5.0 (Windows NT 10.0; Win64; x64; rv:136.0) Gecko/20100101 Firefox/136.0,NA,Firefox,136,Windows,10,https://5puzkbbxv1.cognition.run/?sona_id=57356,"en-US,en;q=0.5",dhm6rnegdbjlodt,19,"[""Black or African-American"",""White""]",No,Female,NA,No,683039,NA,null,<p></p>,null,choice,dct,trinary,attraction,2,laptops,null,null,null,null,null,null,1,NA,NA,NA,NA,NA,NA,NA,NA,NA,NA
NA,NA,NA,NA,NA,choice_trial,survey-html-form,89,461110,0.0-4.0-1.42,66,1,2025-04-28T20:37:34Z,b60275e29fe2361ab97ac0ac217840d7,Mozilla/5.0 (Windows NT 10.0; Win64; x64; rv:136.0) Gecko/20100101 Firefox/136.0,NA,Firefox,136,Windows,10,https://5puzkbbxv1.cognition.run/?sona_id=57356,"en-US,en;q=0.5",dhm6rnegdbjlodt,19,"[""Black or African-American"",""White""]",No,Female,NA,No,683039,NA,5668,NA,"{""product_choice"":""B""}",choice,dct,trinary,attraction,2,laptops,null,null,null,null,null,null,1,50,60,40,60,50,60,Processing speed,Memory (RAM),NA,NA
NA,NA,NA,NA,NA,choice_trial_setup,html-keyboard-response,90,461416,0.0-4.0-0.43,66,1,2025-04-28T20:37:34Z,b60275e29fe2361ab97ac0ac217840d7,Mozilla/5.0 (Windows NT 10.0; Win64; x64; rv:136.0) Gecko/20100101 Firefox/136.0,NA,Firefox,136,Windows,10,https://5puzkbbxv1.cognition.run/?sona_id=57356,"en-US,en;q=0.5",dhm6rnegdbjlodt,19,"[""Black or African-American"",""White""]",No,Female,NA,No,683039,NA,null,<p></p>,null,choice,cdt,trinary,attraction,2,washing machines,null,null,null,null,null,null,1,NA,NA,NA,NA,NA,NA,NA,NA,NA,NA
NA,NA,NA,NA,NA,choice_trial,survey-html-form,91,473437,0.0-4.0-1.43,66,1,2025-04-28T20:37:34Z,b60275e29fe2361ab97ac0ac217840d7,Mozilla/5.0 (Windows NT 10.0; Win64; x64; rv:136.0) Gecko/20100101 Firefox/136.0,NA,Firefox,136,Windows,10,https://5puzkbbxv1.cognition.run/?sona_id=57356,"en-US,en;q=0.5",dhm6rnegdbjlodt,19,"[""Black or African-American"",""White""]",No,Female,NA,No,683039,NA,12012,NA,"{""product_choice"":""A""}",choice,cdt,trinary,attraction,2,washing machines,null,null,null,null,null,null,1,50,60,40,60,50,60,Average lifespan,Energy savings,NA,NA
NA,NA,NA,NA,NA,post_trials_message,html-button-response,92,475018,0.0-5.0,66,1,2025-04-28T20:37:34Z,b60275e29fe2361ab97ac0ac217840d7,Mozilla/5.0 (Windows NT 10.0; Win64; x64; rv:136.0) Gecko/20100101 Firefox/136.0,NA,Firefox,136,Windows,10,https://5puzkbbxv1.cognition.run/?sona_id=57356,"en-US,en;q=0.5",dhm6rnegdbjlodt,19,"[""Black or African-American"",""White""]",No,Female,NA,No,683039,NA,1574,<p> <b>Thank you for your patience!</b></p><p>  The study will be done after completing a brief form. </p>,0,NA,NA,NA,NA,NA,NA,NA,NA,NA,NA,NA,NA,NA,NA,NA,NA,NA,NA,NA,NA,NA,NA,NA
NA,NA,NA,NA,NA,survey_message,survey-text,93,522429,0.0-6.0,66,1,2025-04-28T20:37:34Z,b60275e29fe2361ab97ac0ac217840d7,Mozilla/5.0 (Windows NT 10.0; Win64; x64; rv:136.0) Gecko/20100101 Firefox/136.0,NA,Firefox,136,Windows,10,https://5puzkbbxv1.cognition.run/?sona_id=57356,"en-US,en;q=0.5",dhm6rnegdbjlodt,19,"[""Black or African-American"",""White""]",No,Female,NA,No,683039,NA,47356,NA,"{""Q0"":""I prioritized the life-span of the product and it's function. ""}",NA,NA,NA,NA,NA,NA,NA,NA,NA,NA,NA,NA,NA,NA,NA,NA,NA,NA,NA,NA,NA,I prioritized the life-span of the product and it's function.,NA
NA,NA,NA,NA,NA,demo_age,survey-text,94,526013,0.0-7.0,66,1,2025-04-28T20:37:34Z,b60275e29fe2361ab97ac0ac217840d7,Mozilla/5.0 (Windows NT 10.0; Win64; x64; rv:136.0) Gecko/20100101 Firefox/136.0,NA,Firefox,136,Windows,10,https://5puzkbbxv1.cognition.run/?sona_id=57356,"en-US,en;q=0.5",dhm6rnegdbjlodt,19,"[""Black or African-American"",""White""]",No,Female,NA,No,683039,NA,3549,NA,"{""Q0"":""19""}",NA,NA,NA,NA,NA,NA,NA,NA,NA,NA,NA,NA,NA,NA,NA,NA,NA,NA,NA,NA,NA,NA,NA
NA,NA,NA,NA,NA,demo_race,survey-multi-select,95,532024,0.0-8.0,66,1,2025-04-28T20:37:34Z,b60275e29fe2361ab97ac0ac217840d7,Mozilla/5.0 (Windows NT 10.0; Win64; x64; rv:136.0) Gecko/20100101 Firefox/136.0,NA,Firefox,136,Windows,10,https://5puzkbbxv1.cognition.run/?sona_id=57356,"en-US,en;q=0.5",dhm6rnegdbjlodt,19,"[""Black or African-American"",""White""]",No,Female,NA,No,683039,NA,5978,NA,"{""Q0"":[""Black or African-American"",""White""]}",NA,NA,NA,NA,NA,NA,NA,NA,NA,NA,NA,NA,NA,NA,NA,NA,NA,NA,NA,NA,NA,NA,[0]
NA,NA,NA,NA,NA,demo_ethnicity_gender,survey-multi-choice,96,537502,0.0-9.0,66,1,2025-04-28T20:37:34Z,b60275e29fe2361ab97ac0ac217840d7,Mozilla/5.0 (Windows NT 10.0; Win64; x64; rv:136.0) Gecko/20100101 Firefox/136.0,NA,Firefox,136,Windows,10,https://5puzkbbxv1.cognition.run/?sona_id=57356,"en-US,en;q=0.5",dhm6rnegdbjlodt,19,"[""Black or African-American"",""White""]",No,Female,NA,No,683039,NA,5466,NA,"{""Q0"":""No"",""Q1"":""Female""}",NA,NA,NA,NA,NA,NA,NA,NA,NA,NA,NA,NA,NA,NA,NA,NA,NA,NA,NA,NA,NA,NA,"[0,1]"
NA,NA,NA,NA,NA,demo_countries,survey-text,97,542190,0.0-10.0,66,1,2025-04-28T20:37:34Z,b60275e29fe2361ab97ac0ac217840d7,Mozilla/5.0 (Windows NT 10.0; Win64; x64; rv:136.0) Gecko/20100101 Firefox/136.0,NA,Firefox,136,Windows,10,https://5puzkbbxv1.cognition.run/?sona_id=57356,"en-US,en;q=0.5",dhm6rnegdbjlodt,19,"[""Black or African-American"",""White""]",No,Female,NA,No,683039,NA,4657,NA,"{""Q0"":""NA""}",NA,NA,NA,NA,NA,NA,NA,NA,NA,NA,NA,NA,NA,NA,NA,NA,NA,NA,NA,NA,NA,NA,NA
NA,NA,NA,NA,NA,demo_prev_study,survey-multi-choice,98,566474,0.0-11.0,66,1,2025-04-28T20:37:34Z,b60275e29fe2361ab97ac0ac217840d7,Mozilla/5.0 (Windows NT 10.0; Win64; x64; rv:136.0) Gecko/20100101 Firefox/136.0,NA,Firefox,136,Windows,10,https://5puzkbbxv1.cognition.run/?sona_id=57356,"en-US,en;q=0.5",dhm6rnegdbjlodt,19,"[""Black or African-American"",""White""]",No,Female,NA,No,683039,NA,24271,NA,"{""Q0"":""No""}",NA,NA,NA,NA,NA,NA,NA,NA,NA,NA,NA,NA,NA,NA,NA,NA,NA,NA,NA,NA,NA,NA,[0]
NA,NA,NA,NA,NA,post_survey_message,html-keyboard-response,99,571287,0.0-12.0,66,1,2025-04-28T20:37:34Z,b60275e29fe2361ab97ac0ac217840d7,Mozilla/5.0 (Windows NT 10.0; Win64; x64; rv:136.0) Gecko/20100101 Firefox/136.0,NA,Firefox,136,Windows,10,https://5puzkbbxv1.cognition.run/?sona_id=57356,"en-US,en;q=0.5",dhm6rnegdbjlodt,19,"[""Black or African-American"",""White""]",No,Female,NA,No,683039,NA,4793,NA,j,NA,NA,NA,NA,NA,NA,NA,NA,NA,NA,NA,NA,NA,NA,NA,NA,NA,NA,NA,NA,NA,NA,NA
NA,NA,NA,NA,NA,debrief,image-keyboard-response,100,683037,0.0-13.0,66,1,2025-04-28T20:37:34Z,b60275e29fe2361ab97ac0ac217840d7,Mozilla/5.0 (Windows NT 10.0; Win64; x64; rv:136.0) Gecko/20100101 Firefox/136.0,NA,Firefox,136,Windows,10,https://5puzkbbxv1.cognition.run/?sona_id=57356,"en-US,en;q=0.5",dhm6rnegdbjlodt,19,"[""Black or African-American"",""White""]",No,Female,NA,No,683039,NA,111693,Judg_choice_debrief.png,p,NA,NA,NA,NA,NA,NA,NA,NA,NA,NA,NA,NA,NA,NA,NA,NA,NA,NA,NA,NA,NA,NA,NA
