success,timeout,failed_images,failed_audio,failed_video,screen_id,trial_type,trial_index,time_elapsed,internal_node_id,run_id,condition,recorded_at,source_code_version,user_agent,device,browser,browser_version,platform,platform_version,referer,accept_language,ppt_id,age,race,ethnicity,gender,other_countries,prev_study,exp_duration,view_history,rt,stimulus,response,phase,order,set,effect,t_high,category,d1_best,d2_best,d1_worst1,d2_worst1,d1_worst2,d2_worst2,first_dim,d1_t,d1_c,d1_d,d2_t,d2_c,d2_d,d1_name,d2_name,strategy_response,question_order
TRUE,FALSE,[],[],[],img preload,preload,0,587,0.0-0.0,67,1,2025-04-28T20:47:03Z,b60275e29fe2361ab97ac0ac217840d7,"Mozilla/5.0 (Macintosh; Intel Mac OS X 10_15_7) AppleWebKit/537.36 (KHTML, like Gecko) Chrome/126.0.0.0 Safari/537.36",Macintosh,Chrome,126.0.0.0,OS X,10_15_7,https://5puzkbbxv1.cognition.run/?sona_id=55858,"en-US,en;q=0.9",k6jqetto4amn4b3,18,"[""Asian""]",No,Female,"India, 1 year",No,789419,NA,NA,NA,NA,NA,NA,NA,NA,NA,NA,NA,NA,NA,NA,NA,NA,NA,NA,NA,NA,NA,NA,NA,NA,NA,NA,NA
NA,NA,NA,NA,NA,computer_message,instructions,1,6760,0.0-1.0,67,1,2025-04-28T20:47:03Z,b60275e29fe2361ab97ac0ac217840d7,"Mozilla/5.0 (Macintosh; Intel Mac OS X 10_15_7) AppleWebKit/537.36 (KHTML, like Gecko) Chrome/126.0.0.0 Safari/537.36",Macintosh,Chrome,126.0.0.0,OS X,10_15_7,https://5puzkbbxv1.cognition.run/?sona_id=55858,"en-US,en;q=0.9",k6jqetto4amn4b3,18,"[""Asian""]",No,Female,"India, 1 year",No,789419,"[{""page_index"":0,""viewing_time"":6167}]",6168,NA,NA,NA,NA,NA,NA,NA,NA,NA,NA,NA,NA,NA,NA,NA,NA,NA,NA,NA,NA,NA,NA,NA,NA,NA
TRUE,NA,NA,NA,NA,NA,fullscreen,2,10920,0.0-2.0,67,1,2025-04-28T20:47:03Z,b60275e29fe2361ab97ac0ac217840d7,"Mozilla/5.0 (Macintosh; Intel Mac OS X 10_15_7) AppleWebKit/537.36 (KHTML, like Gecko) Chrome/126.0.0.0 Safari/537.36",Macintosh,Chrome,126.0.0.0,OS X,10_15_7,https://5puzkbbxv1.cognition.run/?sona_id=55858,"en-US,en;q=0.9",k6jqetto4amn4b3,18,"[""Asian""]",No,Female,"India, 1 year",No,789419,NA,3156,NA,NA,NA,NA,NA,NA,NA,NA,NA,NA,NA,NA,NA,NA,NA,NA,NA,NA,NA,NA,NA,NA,NA,NA,NA
NA,NA,NA,NA,NA,choice_instructions,instructions,3,125483,0.0-3.0,67,1,2025-04-28T20:47:03Z,b60275e29fe2361ab97ac0ac217840d7,"Mozilla/5.0 (Macintosh; Intel Mac OS X 10_15_7) AppleWebKit/537.36 (KHTML, like Gecko) Chrome/126.0.0.0 Safari/537.36",Macintosh,Chrome,126.0.0.0,OS X,10_15_7,https://5puzkbbxv1.cognition.run/?sona_id=55858,"en-US,en;q=0.9",k6jqetto4amn4b3,18,"[""Asian""]",No,Female,"India, 1 year",No,789419,"[{""page_index"":0,""viewing_time"":7393},{""page_index"":1,""viewing_time"":5485},{""page_index"":2,""viewing_time"":12787},{""page_index"":3,""viewing_time"":12094},{""page_index"":4,""viewing_time"":3626},{""page_index"":5,""viewing_time"":33275},{""page_index"":6,""viewing_time"":39895}]",114555,NA,NA,NA,NA,NA,NA,NA,NA,NA,NA,NA,NA,NA,NA,NA,NA,NA,NA,NA,NA,NA,NA,NA,NA,NA
NA,NA,NA,NA,NA,choice_trial_setup,html-keyboard-response,4,125789,0.0-4.0-0.0,67,1,2025-04-28T20:47:03Z,b60275e29fe2361ab97ac0ac217840d7,"Mozilla/5.0 (Macintosh; Intel Mac OS X 10_15_7) AppleWebKit/537.36 (KHTML, like Gecko) Chrome/126.0.0.0 Safari/537.36",Macintosh,Chrome,126.0.0.0,OS X,10_15_7,https://5puzkbbxv1.cognition.run/?sona_id=55858,"en-US,en;q=0.9",k6jqetto4amn4b3,18,"[""Asian""]",No,Female,"India, 1 year",No,789419,NA,null,<p></p>,null,choice,dct,trinary,repulsion_A,1,microwave ovens,null,null,null,null,null,null,1,NA,NA,NA,NA,NA,NA,NA,NA,NA,NA
NA,NA,NA,NA,NA,choice_trial,survey-html-form,5,144607,0.0-4.0-1.0,67,1,2025-04-28T20:47:03Z,b60275e29fe2361ab97ac0ac217840d7,"Mozilla/5.0 (Macintosh; Intel Mac OS X 10_15_7) AppleWebKit/537.36 (KHTML, like Gecko) Chrome/126.0.0.0 Safari/537.36",Macintosh,Chrome,126.0.0.0,OS X,10_15_7,https://5puzkbbxv1.cognition.run/?sona_id=55858,"en-US,en;q=0.9",k6jqetto4amn4b3,18,"[""Asian""]",No,Female,"India, 1 year",No,789419,NA,18813,NA,"{""product_choice"":""B""}",choice,dct,trinary,repulsion_A,1,microwave ovens,null,null,null,null,null,null,1,100,90,100,30,40,20,Warranty,Cooking power,NA,NA
NA,NA,NA,NA,NA,choice_trial_setup,html-keyboard-response,6,144910,0.0-4.0-0.1,67,1,2025-04-28T20:47:03Z,b60275e29fe2361ab97ac0ac217840d7,"Mozilla/5.0 (Macintosh; Intel Mac OS X 10_15_7) AppleWebKit/537.36 (KHTML, like Gecko) Chrome/126.0.0.0 Safari/537.36",Macintosh,Chrome,126.0.0.0,OS X,10_15_7,https://5puzkbbxv1.cognition.run/?sona_id=55858,"en-US,en;q=0.9",k6jqetto4amn4b3,18,"[""Asian""]",No,Female,"India, 1 year",No,789419,NA,null,<p></p>,null,choice,ctd,trinary,attraction,2,washing machines,null,null,null,null,null,null,2,NA,NA,NA,NA,NA,NA,NA,NA,NA,NA
NA,NA,NA,NA,NA,choice_trial,survey-html-form,7,158296,0.0-4.0-1.1,67,1,2025-04-28T20:47:03Z,b60275e29fe2361ab97ac0ac217840d7,"Mozilla/5.0 (Macintosh; Intel Mac OS X 10_15_7) AppleWebKit/537.36 (KHTML, like Gecko) Chrome/126.0.0.0 Safari/537.36",Macintosh,Chrome,126.0.0.0,OS X,10_15_7,https://5puzkbbxv1.cognition.run/?sona_id=55858,"en-US,en;q=0.9",k6jqetto4amn4b3,18,"[""Asian""]",No,Female,"India, 1 year",No,789419,NA,13382,NA,"{""product_choice"":""B""}",choice,ctd,trinary,attraction,2,washing machines,null,null,null,null,null,null,2,50,60,40,60,50,60,Average lifespan,Energy savings,NA,NA
NA,NA,NA,NA,NA,choice_trial_setup,html-keyboard-response,8,158598,0.0-4.0-0.2,67,1,2025-04-28T20:47:03Z,b60275e29fe2361ab97ac0ac217840d7,"Mozilla/5.0 (Macintosh; Intel Mac OS X 10_15_7) AppleWebKit/537.36 (KHTML, like Gecko) Chrome/126.0.0.0 Safari/537.36",Macintosh,Chrome,126.0.0.0,OS X,10_15_7,https://5puzkbbxv1.cognition.run/?sona_id=55858,"en-US,en;q=0.9",k6jqetto4amn4b3,18,"[""Asian""]",No,Female,"India, 1 year",No,789419,NA,null,<p></p>,null,choice,cdt,trinary,attraction,2,televisions,null,null,null,null,null,null,2,NA,NA,NA,NA,NA,NA,NA,NA,NA,NA
NA,NA,NA,NA,NA,choice_trial,survey-html-form,9,170099,0.0-4.0-1.2,67,1,2025-04-28T20:47:03Z,b60275e29fe2361ab97ac0ac217840d7,"Mozilla/5.0 (Macintosh; Intel Mac OS X 10_15_7) AppleWebKit/537.36 (KHTML, like Gecko) Chrome/126.0.0.0 Safari/537.36",Macintosh,Chrome,126.0.0.0,OS X,10_15_7,https://5puzkbbxv1.cognition.run/?sona_id=55858,"en-US,en;q=0.9",k6jqetto4amn4b3,18,"[""Asian""]",No,Female,"India, 1 year",No,789419,NA,11497,NA,"{""product_choice"":""C""}",choice,cdt,trinary,attraction,2,televisions,null,null,null,null,null,null,2,50,60,40,60,50,60,Screen size,Average lifespan,NA,NA
NA,NA,NA,NA,NA,choice_trial_setup,html-keyboard-response,10,170402,0.0-4.0-0.3,67,1,2025-04-28T20:47:03Z,b60275e29fe2361ab97ac0ac217840d7,"Mozilla/5.0 (Macintosh; Intel Mac OS X 10_15_7) AppleWebKit/537.36 (KHTML, like Gecko) Chrome/126.0.0.0 Safari/537.36",Macintosh,Chrome,126.0.0.0,OS X,10_15_7,https://5puzkbbxv1.cognition.run/?sona_id=55858,"en-US,en;q=0.9",k6jqetto4amn4b3,18,"[""Asian""]",No,Female,"India, 1 year",No,789419,NA,null,<p></p>,null,choice,dtc,trinary,repulsion_A,1,laptops,null,null,null,null,null,null,2,NA,NA,NA,NA,NA,NA,NA,NA,NA,NA
NA,NA,NA,NA,NA,choice_trial,survey-html-form,11,185597,0.0-4.0-1.3,67,1,2025-04-28T20:47:03Z,b60275e29fe2361ab97ac0ac217840d7,"Mozilla/5.0 (Macintosh; Intel Mac OS X 10_15_7) AppleWebKit/537.36 (KHTML, like Gecko) Chrome/126.0.0.0 Safari/537.36",Macintosh,Chrome,126.0.0.0,OS X,10_15_7,https://5puzkbbxv1.cognition.run/?sona_id=55858,"en-US,en;q=0.9",k6jqetto4amn4b3,18,"[""Asian""]",No,Female,"India, 1 year",No,789419,NA,15191,NA,"{""product_choice"":""C""}",choice,dtc,trinary,repulsion_A,1,laptops,null,null,null,null,null,null,2,100,90,100,30,40,20,Processing speed,Memory (RAM),NA,NA
NA,NA,NA,NA,NA,choice_trial_setup,html-keyboard-response,12,185900,0.0-4.0-0.4,67,1,2025-04-28T20:47:03Z,b60275e29fe2361ab97ac0ac217840d7,"Mozilla/5.0 (Macintosh; Intel Mac OS X 10_15_7) AppleWebKit/537.36 (KHTML, like Gecko) Chrome/126.0.0.0 Safari/537.36",Macintosh,Chrome,126.0.0.0,OS X,10_15_7,https://5puzkbbxv1.cognition.run/?sona_id=55858,"en-US,en;q=0.9",k6jqetto4amn4b3,18,"[""Asian""]",No,Female,"India, 1 year",No,789419,NA,null,<p></p>,null,choice,bw,binary,catch,null,laptops,70,70,45,35,null,null,2,NA,NA,NA,NA,NA,NA,NA,NA,NA,NA
NA,NA,NA,NA,NA,choice_trial,survey-html-form,13,222307,0.0-4.0-1.4,67,1,2025-04-28T20:47:03Z,b60275e29fe2361ab97ac0ac217840d7,"Mozilla/5.0 (Macintosh; Intel Mac OS X 10_15_7) AppleWebKit/537.36 (KHTML, like Gecko) Chrome/126.0.0.0 Safari/537.36",Macintosh,Chrome,126.0.0.0,OS X,10_15_7,https://5puzkbbxv1.cognition.run/?sona_id=55858,"en-US,en;q=0.9",k6jqetto4amn4b3,18,"[""Asian""]",No,Female,"India, 1 year",No,789419,NA,36401,NA,"{""product_choice"":""A""}",choice,bw,binary,catch,null,laptops,70,70,45,35,null,null,2,null,null,null,null,null,null,Processing speed,Memory (RAM),NA,NA
NA,NA,NA,NA,NA,choice_trial_setup,html-keyboard-response,14,222611,0.0-4.0-0.5,67,1,2025-04-28T20:47:03Z,b60275e29fe2361ab97ac0ac217840d7,"Mozilla/5.0 (Macintosh; Intel Mac OS X 10_15_7) AppleWebKit/537.36 (KHTML, like Gecko) Chrome/126.0.0.0 Safari/537.36",Macintosh,Chrome,126.0.0.0,OS X,10_15_7,https://5puzkbbxv1.cognition.run/?sona_id=55858,"en-US,en;q=0.9",k6jqetto4amn4b3,18,"[""Asian""]",No,Female,"India, 1 year",No,789419,NA,null,<p></p>,null,choice,cdt,trinary,repulsion_B,1,televisions,null,null,null,null,null,null,1,NA,NA,NA,NA,NA,NA,NA,NA,NA,NA
NA,NA,NA,NA,NA,choice_trial,survey-html-form,15,230312,0.0-4.0-1.5,67,1,2025-04-28T20:47:03Z,b60275e29fe2361ab97ac0ac217840d7,"Mozilla/5.0 (Macintosh; Intel Mac OS X 10_15_7) AppleWebKit/537.36 (KHTML, like Gecko) Chrome/126.0.0.0 Safari/537.36",Macintosh,Chrome,126.0.0.0,OS X,10_15_7,https://5puzkbbxv1.cognition.run/?sona_id=55858,"en-US,en;q=0.9",k6jqetto4amn4b3,18,"[""Asian""]",No,Female,"India, 1 year",No,789419,NA,7699,NA,"{""product_choice"":""C""}",choice,cdt,trinary,repulsion_B,1,televisions,null,null,null,null,null,null,1,90,100,80,40,30,40,Screen size,Average lifespan,NA,NA
NA,NA,NA,NA,NA,choice_trial_setup,html-keyboard-response,16,230615,0.0-4.0-0.6,67,1,2025-04-28T20:47:03Z,b60275e29fe2361ab97ac0ac217840d7,"Mozilla/5.0 (Macintosh; Intel Mac OS X 10_15_7) AppleWebKit/537.36 (KHTML, like Gecko) Chrome/126.0.0.0 Safari/537.36",Macintosh,Chrome,126.0.0.0,OS X,10_15_7,https://5puzkbbxv1.cognition.run/?sona_id=55858,"en-US,en;q=0.9",k6jqetto4amn4b3,18,"[""Asian""]",No,Female,"India, 1 year",No,789419,NA,null,<p></p>,null,choice,ctd,trinary,repulsion_B,2,washing machines,null,null,null,null,null,null,2,NA,NA,NA,NA,NA,NA,NA,NA,NA,NA
NA,NA,NA,NA,NA,choice_trial,survey-html-form,17,240054,0.0-4.0-1.6,67,1,2025-04-28T20:47:03Z,b60275e29fe2361ab97ac0ac217840d7,"Mozilla/5.0 (Macintosh; Intel Mac OS X 10_15_7) AppleWebKit/537.36 (KHTML, like Gecko) Chrome/126.0.0.0 Safari/537.36",Macintosh,Chrome,126.0.0.0,OS X,10_15_7,https://5puzkbbxv1.cognition.run/?sona_id=55858,"en-US,en;q=0.9",k6jqetto4amn4b3,18,"[""Asian""]",No,Female,"India, 1 year",No,789419,NA,9437,NA,"{""product_choice"":""B""}",choice,ctd,trinary,repulsion_B,2,washing machines,null,null,null,null,null,null,2,40,30,40,90,100,80,Average lifespan,Energy savings,NA,NA
NA,NA,NA,NA,NA,choice_trial_setup,html-keyboard-response,18,240357,0.0-4.0-0.7,67,1,2025-04-28T20:47:03Z,b60275e29fe2361ab97ac0ac217840d7,"Mozilla/5.0 (Macintosh; Intel Mac OS X 10_15_7) AppleWebKit/537.36 (KHTML, like Gecko) Chrome/126.0.0.0 Safari/537.36",Macintosh,Chrome,126.0.0.0,OS X,10_15_7,https://5puzkbbxv1.cognition.run/?sona_id=55858,"en-US,en;q=0.9",k6jqetto4amn4b3,18,"[""Asian""]",No,Female,"India, 1 year",No,789419,NA,null,<p></p>,null,choice,cdt,trinary,repulsion_A,2,televisions,null,null,null,null,null,null,1,NA,NA,NA,NA,NA,NA,NA,NA,NA,NA
NA,NA,NA,NA,NA,choice_trial,survey-html-form,19,288597,0.0-4.0-1.7,67,1,2025-04-28T20:47:03Z,b60275e29fe2361ab97ac0ac217840d7,"Mozilla/5.0 (Macintosh; Intel Mac OS X 10_15_7) AppleWebKit/537.36 (KHTML, like Gecko) Chrome/126.0.0.0 Safari/537.36",Macintosh,Chrome,126.0.0.0,OS X,10_15_7,https://5puzkbbxv1.cognition.run/?sona_id=55858,"en-US,en;q=0.9",k6jqetto4amn4b3,18,"[""Asian""]",No,Female,"India, 1 year",No,789419,NA,48236,NA,"{""product_choice"":""C""}",choice,cdt,trinary,repulsion_A,2,televisions,null,null,null,null,null,null,1,30,40,20,100,90,100,Screen size,Average lifespan,NA,NA
NA,NA,NA,NA,NA,choice_trial_setup,html-keyboard-response,20,288902,0.0-4.0-0.8,67,1,2025-04-28T20:47:03Z,b60275e29fe2361ab97ac0ac217840d7,"Mozilla/5.0 (Macintosh; Intel Mac OS X 10_15_7) AppleWebKit/537.36 (KHTML, like Gecko) Chrome/126.0.0.0 Safari/537.36",Macintosh,Chrome,126.0.0.0,OS X,10_15_7,https://5puzkbbxv1.cognition.run/?sona_id=55858,"en-US,en;q=0.9",k6jqetto4amn4b3,18,"[""Asian""]",No,Female,"India, 1 year",No,789419,NA,null,<p></p>,null,choice,wb,binary,catch,null,televisions,85,65,15,5,null,null,1,NA,NA,NA,NA,NA,NA,NA,NA,NA,NA
NA,NA,NA,NA,NA,choice_trial,survey-html-form,21,295605,0.0-4.0-1.8,67,1,2025-04-28T20:47:03Z,b60275e29fe2361ab97ac0ac217840d7,"Mozilla/5.0 (Macintosh; Intel Mac OS X 10_15_7) AppleWebKit/537.36 (KHTML, like Gecko) Chrome/126.0.0.0 Safari/537.36",Macintosh,Chrome,126.0.0.0,OS X,10_15_7,https://5puzkbbxv1.cognition.run/?sona_id=55858,"en-US,en;q=0.9",k6jqetto4amn4b3,18,"[""Asian""]",No,Female,"India, 1 year",No,789419,NA,6699,NA,"{""product_choice"":""B""}",choice,wb,binary,catch,null,televisions,85,65,15,5,null,null,1,null,null,null,null,null,null,Screen size,Average lifespan,NA,NA
NA,NA,NA,NA,NA,choice_trial_setup,html-keyboard-response,22,295907,0.0-4.0-0.9,67,1,2025-04-28T20:47:03Z,b60275e29fe2361ab97ac0ac217840d7,"Mozilla/5.0 (Macintosh; Intel Mac OS X 10_15_7) AppleWebKit/537.36 (KHTML, like Gecko) Chrome/126.0.0.0 Safari/537.36",Macintosh,Chrome,126.0.0.0,OS X,10_15_7,https://5puzkbbxv1.cognition.run/?sona_id=55858,"en-US,en;q=0.9",k6jqetto4amn4b3,18,"[""Asian""]",No,Female,"India, 1 year",No,789419,NA,null,<p></p>,null,choice,wb,binary,catch,null,microwave ovens,75,60,35,15,null,null,2,NA,NA,NA,NA,NA,NA,NA,NA,NA,NA
NA,NA,NA,NA,NA,choice_trial,survey-html-form,23,300439,0.0-4.0-1.9,67,1,2025-04-28T20:47:03Z,b60275e29fe2361ab97ac0ac217840d7,"Mozilla/5.0 (Macintosh; Intel Mac OS X 10_15_7) AppleWebKit/537.36 (KHTML, like Gecko) Chrome/126.0.0.0 Safari/537.36",Macintosh,Chrome,126.0.0.0,OS X,10_15_7,https://5puzkbbxv1.cognition.run/?sona_id=55858,"en-US,en;q=0.9",k6jqetto4amn4b3,18,"[""Asian""]",No,Female,"India, 1 year",No,789419,NA,4530,NA,"{""product_choice"":""B""}",choice,wb,binary,catch,null,microwave ovens,75,60,35,15,null,null,2,null,null,null,null,null,null,Warranty,Cooking power,NA,NA
NA,NA,NA,NA,NA,choice_trial_setup,html-keyboard-response,24,300742,0.0-4.0-0.10,67,1,2025-04-28T20:47:03Z,b60275e29fe2361ab97ac0ac217840d7,"Mozilla/5.0 (Macintosh; Intel Mac OS X 10_15_7) AppleWebKit/537.36 (KHTML, like Gecko) Chrome/126.0.0.0 Safari/537.36",Macintosh,Chrome,126.0.0.0,OS X,10_15_7,https://5puzkbbxv1.cognition.run/?sona_id=55858,"en-US,en;q=0.9",k6jqetto4amn4b3,18,"[""Asian""]",No,Female,"India, 1 year",No,789419,NA,null,<p></p>,null,choice,tdc,trinary,repulsion_B,2,laptops,null,null,null,null,null,null,2,NA,NA,NA,NA,NA,NA,NA,NA,NA,NA
NA,NA,NA,NA,NA,choice_trial,survey-html-form,25,337540,0.0-4.0-1.10,67,1,2025-04-28T20:47:03Z,b60275e29fe2361ab97ac0ac217840d7,"Mozilla/5.0 (Macintosh; Intel Mac OS X 10_15_7) AppleWebKit/537.36 (KHTML, like Gecko) Chrome/126.0.0.0 Safari/537.36",Macintosh,Chrome,126.0.0.0,OS X,10_15_7,https://5puzkbbxv1.cognition.run/?sona_id=55858,"en-US,en;q=0.9",k6jqetto4amn4b3,18,"[""Asian""]",No,Female,"India, 1 year",No,789419,NA,36791,NA,"{""product_choice"":""A""}",choice,tdc,trinary,repulsion_B,2,laptops,null,null,null,null,null,null,2,40,30,40,90,100,80,Processing speed,Memory (RAM),NA,NA
NA,NA,NA,NA,NA,choice_trial_setup,html-keyboard-response,26,337843,0.0-4.0-0.11,67,1,2025-04-28T20:47:03Z,b60275e29fe2361ab97ac0ac217840d7,"Mozilla/5.0 (Macintosh; Intel Mac OS X 10_15_7) AppleWebKit/537.36 (KHTML, like Gecko) Chrome/126.0.0.0 Safari/537.36",Macintosh,Chrome,126.0.0.0,OS X,10_15_7,https://5puzkbbxv1.cognition.run/?sona_id=55858,"en-US,en;q=0.9",k6jqetto4amn4b3,18,"[""Asian""]",No,Female,"India, 1 year",No,789419,NA,null,<p></p>,null,choice,ct,binary,attraction,NA,microwave ovens,null,null,null,null,null,null,2,NA,NA,NA,NA,NA,NA,NA,NA,NA,NA
NA,NA,NA,NA,NA,choice_trial,survey-html-form,27,355965,0.0-4.0-1.11,67,1,2025-04-28T20:47:03Z,b60275e29fe2361ab97ac0ac217840d7,"Mozilla/5.0 (Macintosh; Intel Mac OS X 10_15_7) AppleWebKit/537.36 (KHTML, like Gecko) Chrome/126.0.0.0 Safari/537.36",Macintosh,Chrome,126.0.0.0,OS X,10_15_7,https://5puzkbbxv1.cognition.run/?sona_id=55858,"en-US,en;q=0.9",k6jqetto4amn4b3,18,"[""Asian""]",No,Female,"India, 1 year",No,789419,NA,18119,NA,"{""product_choice"":""A""}",choice,ct,binary,attraction,NA,microwave ovens,null,null,null,null,null,null,2,60,50,null,50,60,null,Warranty,Cooking power,NA,NA
NA,NA,NA,NA,NA,choice_trial_setup,html-keyboard-response,28,356267,0.0-4.0-0.12,67,1,2025-04-28T20:47:03Z,b60275e29fe2361ab97ac0ac217840d7,"Mozilla/5.0 (Macintosh; Intel Mac OS X 10_15_7) AppleWebKit/537.36 (KHTML, like Gecko) Chrome/126.0.0.0 Safari/537.36",Macintosh,Chrome,126.0.0.0,OS X,10_15_7,https://5puzkbbxv1.cognition.run/?sona_id=55858,"en-US,en;q=0.9",k6jqetto4amn4b3,18,"[""Asian""]",No,Female,"India, 1 year",No,789419,NA,null,<p></p>,null,choice,tdc,trinary,attraction,2,microwave ovens,null,null,null,null,null,null,1,NA,NA,NA,NA,NA,NA,NA,NA,NA,NA
NA,NA,NA,NA,NA,choice_trial,survey-html-form,29,421506,0.0-4.0-1.12,67,1,2025-04-28T20:47:03Z,b60275e29fe2361ab97ac0ac217840d7,"Mozilla/5.0 (Macintosh; Intel Mac OS X 10_15_7) AppleWebKit/537.36 (KHTML, like Gecko) Chrome/126.0.0.0 Safari/537.36",Macintosh,Chrome,126.0.0.0,OS X,10_15_7,https://5puzkbbxv1.cognition.run/?sona_id=55858,"en-US,en;q=0.9",k6jqetto4amn4b3,18,"[""Asian""]",No,Female,"India, 1 year",No,789419,NA,65237,NA,"{""product_choice"":""A""}",choice,tdc,trinary,attraction,2,microwave ovens,null,null,null,null,null,null,1,50,60,40,60,50,60,Warranty,Cooking power,NA,NA
NA,NA,NA,NA,NA,choice_trial_setup,html-keyboard-response,30,421809,0.0-4.0-0.13,67,1,2025-04-28T20:47:03Z,b60275e29fe2361ab97ac0ac217840d7,"Mozilla/5.0 (Macintosh; Intel Mac OS X 10_15_7) AppleWebKit/537.36 (KHTML, like Gecko) Chrome/126.0.0.0 Safari/537.36",Macintosh,Chrome,126.0.0.0,OS X,10_15_7,https://5puzkbbxv1.cognition.run/?sona_id=55858,"en-US,en;q=0.9",k6jqetto4amn4b3,18,"[""Asian""]",No,Female,"India, 1 year",No,789419,NA,null,<p></p>,null,choice,tc,binary,repulsion,1,laptops,null,null,null,null,null,null,2,NA,NA,NA,NA,NA,NA,NA,NA,NA,NA
NA,NA,NA,NA,NA,choice_trial,survey-html-form,31,429049,0.0-4.0-1.13,67,1,2025-04-28T20:47:03Z,b60275e29fe2361ab97ac0ac217840d7,"Mozilla/5.0 (Macintosh; Intel Mac OS X 10_15_7) AppleWebKit/537.36 (KHTML, like Gecko) Chrome/126.0.0.0 Safari/537.36",Macintosh,Chrome,126.0.0.0,OS X,10_15_7,https://5puzkbbxv1.cognition.run/?sona_id=55858,"en-US,en;q=0.9",k6jqetto4amn4b3,18,"[""Asian""]",No,Female,"India, 1 year",No,789419,NA,7236,NA,"{""product_choice"":""B""}",choice,tc,binary,repulsion,1,laptops,null,null,null,null,null,null,2,100,90,null,30,40,null,Processing speed,Memory (RAM),NA,NA
NA,NA,NA,NA,NA,choice_trial_setup,html-keyboard-response,32,429351,0.0-4.0-0.14,67,1,2025-04-28T20:47:03Z,b60275e29fe2361ab97ac0ac217840d7,"Mozilla/5.0 (Macintosh; Intel Mac OS X 10_15_7) AppleWebKit/537.36 (KHTML, like Gecko) Chrome/126.0.0.0 Safari/537.36",Macintosh,Chrome,126.0.0.0,OS X,10_15_7,https://5puzkbbxv1.cognition.run/?sona_id=55858,"en-US,en;q=0.9",k6jqetto4amn4b3,18,"[""Asian""]",No,Female,"India, 1 year",No,789419,NA,null,<p></p>,null,choice,bw,binary,catch,null,washing machines,65,75,50,50,null,null,2,NA,NA,NA,NA,NA,NA,NA,NA,NA,NA
NA,NA,NA,NA,NA,choice_trial,survey-html-form,33,437098,0.0-4.0-1.14,67,1,2025-04-28T20:47:03Z,b60275e29fe2361ab97ac0ac217840d7,"Mozilla/5.0 (Macintosh; Intel Mac OS X 10_15_7) AppleWebKit/537.36 (KHTML, like Gecko) Chrome/126.0.0.0 Safari/537.36",Macintosh,Chrome,126.0.0.0,OS X,10_15_7,https://5puzkbbxv1.cognition.run/?sona_id=55858,"en-US,en;q=0.9",k6jqetto4amn4b3,18,"[""Asian""]",No,Female,"India, 1 year",No,789419,NA,7744,NA,"{""product_choice"":""A""}",choice,bw,binary,catch,null,washing machines,65,75,50,50,null,null,2,null,null,null,null,null,null,Average lifespan,Energy savings,NA,NA
NA,NA,NA,NA,NA,choice_trial_setup,html-keyboard-response,34,437401,0.0-4.0-0.15,67,1,2025-04-28T20:47:03Z,b60275e29fe2361ab97ac0ac217840d7,"Mozilla/5.0 (Macintosh; Intel Mac OS X 10_15_7) AppleWebKit/537.36 (KHTML, like Gecko) Chrome/126.0.0.0 Safari/537.36",Macintosh,Chrome,126.0.0.0,OS X,10_15_7,https://5puzkbbxv1.cognition.run/?sona_id=55858,"en-US,en;q=0.9",k6jqetto4amn4b3,18,"[""Asian""]",No,Female,"India, 1 year",No,789419,NA,null,<p></p>,null,choice,dct,trinary,repulsion_A,1,televisions,null,null,null,null,null,null,1,NA,NA,NA,NA,NA,NA,NA,NA,NA,NA
NA,NA,NA,NA,NA,choice_trial,survey-html-form,35,442836,0.0-4.0-1.15,67,1,2025-04-28T20:47:03Z,b60275e29fe2361ab97ac0ac217840d7,"Mozilla/5.0 (Macintosh; Intel Mac OS X 10_15_7) AppleWebKit/537.36 (KHTML, like Gecko) Chrome/126.0.0.0 Safari/537.36",Macintosh,Chrome,126.0.0.0,OS X,10_15_7,https://5puzkbbxv1.cognition.run/?sona_id=55858,"en-US,en;q=0.9",k6jqetto4amn4b3,18,"[""Asian""]",No,Female,"India, 1 year",No,789419,NA,5432,NA,"{""product_choice"":""B""}",choice,dct,trinary,repulsion_A,1,televisions,null,null,null,null,null,null,1,100,90,100,30,40,20,Screen size,Average lifespan,NA,NA
NA,NA,NA,NA,NA,choice_trial_setup,html-keyboard-response,36,443138,0.0-4.0-0.16,67,1,2025-04-28T20:47:03Z,b60275e29fe2361ab97ac0ac217840d7,"Mozilla/5.0 (Macintosh; Intel Mac OS X 10_15_7) AppleWebKit/537.36 (KHTML, like Gecko) Chrome/126.0.0.0 Safari/537.36",Macintosh,Chrome,126.0.0.0,OS X,10_15_7,https://5puzkbbxv1.cognition.run/?sona_id=55858,"en-US,en;q=0.9",k6jqetto4amn4b3,18,"[""Asian""]",No,Female,"India, 1 year",No,789419,NA,null,<p></p>,null,choice,ct,binary,attraction,NA,laptops,null,null,null,null,null,null,2,NA,NA,NA,NA,NA,NA,NA,NA,NA,NA
NA,NA,NA,NA,NA,choice_trial,survey-html-form,37,456061,0.0-4.0-1.16,67,1,2025-04-28T20:47:03Z,b60275e29fe2361ab97ac0ac217840d7,"Mozilla/5.0 (Macintosh; Intel Mac OS X 10_15_7) AppleWebKit/537.36 (KHTML, like Gecko) Chrome/126.0.0.0 Safari/537.36",Macintosh,Chrome,126.0.0.0,OS X,10_15_7,https://5puzkbbxv1.cognition.run/?sona_id=55858,"en-US,en;q=0.9",k6jqetto4amn4b3,18,"[""Asian""]",No,Female,"India, 1 year",No,789419,NA,12920,NA,"{""product_choice"":""B""}",choice,ct,binary,attraction,NA,laptops,null,null,null,null,null,null,2,60,50,null,50,60,null,Processing speed,Memory (RAM),NA,NA
NA,NA,NA,NA,NA,choice_trial_setup,html-keyboard-response,38,456364,0.0-4.0-0.17,67,1,2025-04-28T20:47:03Z,b60275e29fe2361ab97ac0ac217840d7,"Mozilla/5.0 (Macintosh; Intel Mac OS X 10_15_7) AppleWebKit/537.36 (KHTML, like Gecko) Chrome/126.0.0.0 Safari/537.36",Macintosh,Chrome,126.0.0.0,OS X,10_15_7,https://5puzkbbxv1.cognition.run/?sona_id=55858,"en-US,en;q=0.9",k6jqetto4amn4b3,18,"[""Asian""]",No,Female,"India, 1 year",No,789419,NA,null,<p></p>,null,choice,tc,binary,repulsion,1,washing machines,null,null,null,null,null,null,1,NA,NA,NA,NA,NA,NA,NA,NA,NA,NA
NA,NA,NA,NA,NA,choice_trial,survey-html-form,39,461132,0.0-4.0-1.17,67,1,2025-04-28T20:47:03Z,b60275e29fe2361ab97ac0ac217840d7,"Mozilla/5.0 (Macintosh; Intel Mac OS X 10_15_7) AppleWebKit/537.36 (KHTML, like Gecko) Chrome/126.0.0.0 Safari/537.36",Macintosh,Chrome,126.0.0.0,OS X,10_15_7,https://5puzkbbxv1.cognition.run/?sona_id=55858,"en-US,en;q=0.9",k6jqetto4amn4b3,18,"[""Asian""]",No,Female,"India, 1 year",No,789419,NA,4763,NA,"{""product_choice"":""B""}",choice,tc,binary,repulsion,1,washing machines,null,null,null,null,null,null,1,100,90,null,30,40,null,Average lifespan,Energy savings,NA,NA
NA,NA,NA,NA,NA,choice_trial_setup,html-keyboard-response,40,461435,0.0-4.0-0.18,67,1,2025-04-28T20:47:03Z,b60275e29fe2361ab97ac0ac217840d7,"Mozilla/5.0 (Macintosh; Intel Mac OS X 10_15_7) AppleWebKit/537.36 (KHTML, like Gecko) Chrome/126.0.0.0 Safari/537.36",Macintosh,Chrome,126.0.0.0,OS X,10_15_7,https://5puzkbbxv1.cognition.run/?sona_id=55858,"en-US,en;q=0.9",k6jqetto4amn4b3,18,"[""Asian""]",No,Female,"India, 1 year",No,789419,NA,null,<p></p>,null,choice,dtc,trinary,attraction,1,laptops,null,null,null,null,null,null,2,NA,NA,NA,NA,NA,NA,NA,NA,NA,NA
NA,NA,NA,NA,NA,choice_trial,survey-html-form,41,471690,0.0-4.0-1.18,67,1,2025-04-28T20:47:03Z,b60275e29fe2361ab97ac0ac217840d7,"Mozilla/5.0 (Macintosh; Intel Mac OS X 10_15_7) AppleWebKit/537.36 (KHTML, like Gecko) Chrome/126.0.0.0 Safari/537.36",Macintosh,Chrome,126.0.0.0,OS X,10_15_7,https://5puzkbbxv1.cognition.run/?sona_id=55858,"en-US,en;q=0.9",k6jqetto4amn4b3,18,"[""Asian""]",No,Female,"India, 1 year",No,789419,NA,10250,NA,"{""product_choice"":""B""}",choice,dtc,trinary,attraction,1,laptops,null,null,null,null,null,null,2,60,50,60,50,60,40,Processing speed,Memory (RAM),NA,NA
NA,NA,NA,NA,NA,choice_trial_setup,html-keyboard-response,42,471993,0.0-4.0-0.19,67,1,2025-04-28T20:47:03Z,b60275e29fe2361ab97ac0ac217840d7,"Mozilla/5.0 (Macintosh; Intel Mac OS X 10_15_7) AppleWebKit/537.36 (KHTML, like Gecko) Chrome/126.0.0.0 Safari/537.36",Macintosh,Chrome,126.0.0.0,OS X,10_15_7,https://5puzkbbxv1.cognition.run/?sona_id=55858,"en-US,en;q=0.9",k6jqetto4amn4b3,18,"[""Asian""]",No,Female,"India, 1 year",No,789419,NA,null,<p></p>,null,choice,tdc,trinary,repulsion_B,2,microwave ovens,null,null,null,null,null,null,1,NA,NA,NA,NA,NA,NA,NA,NA,NA,NA
NA,NA,NA,NA,NA,choice_trial,survey-html-form,43,477516,0.0-4.0-1.19,67,1,2025-04-28T20:47:03Z,b60275e29fe2361ab97ac0ac217840d7,"Mozilla/5.0 (Macintosh; Intel Mac OS X 10_15_7) AppleWebKit/537.36 (KHTML, like Gecko) Chrome/126.0.0.0 Safari/537.36",Macintosh,Chrome,126.0.0.0,OS X,10_15_7,https://5puzkbbxv1.cognition.run/?sona_id=55858,"en-US,en;q=0.9",k6jqetto4amn4b3,18,"[""Asian""]",No,Female,"India, 1 year",No,789419,NA,5521,NA,"{""product_choice"":""A""}",choice,tdc,trinary,repulsion_B,2,microwave ovens,null,null,null,null,null,null,1,40,30,40,90,100,80,Warranty,Cooking power,NA,NA
NA,NA,NA,NA,NA,choice_trial_setup,html-keyboard-response,44,477819,0.0-4.0-0.20,67,1,2025-04-28T20:47:03Z,b60275e29fe2361ab97ac0ac217840d7,"Mozilla/5.0 (Macintosh; Intel Mac OS X 10_15_7) AppleWebKit/537.36 (KHTML, like Gecko) Chrome/126.0.0.0 Safari/537.36",Macintosh,Chrome,126.0.0.0,OS X,10_15_7,https://5puzkbbxv1.cognition.run/?sona_id=55858,"en-US,en;q=0.9",k6jqetto4amn4b3,18,"[""Asian""]",No,Female,"India, 1 year",No,789419,NA,null,<p></p>,null,choice,ct,binary,repulsion,1,microwave ovens,null,null,null,null,null,null,2,NA,NA,NA,NA,NA,NA,NA,NA,NA,NA
NA,NA,NA,NA,NA,choice_trial,survey-html-form,45,484447,0.0-4.0-1.20,67,1,2025-04-28T20:47:03Z,b60275e29fe2361ab97ac0ac217840d7,"Mozilla/5.0 (Macintosh; Intel Mac OS X 10_15_7) AppleWebKit/537.36 (KHTML, like Gecko) Chrome/126.0.0.0 Safari/537.36",Macintosh,Chrome,126.0.0.0,OS X,10_15_7,https://5puzkbbxv1.cognition.run/?sona_id=55858,"en-US,en;q=0.9",k6jqetto4amn4b3,18,"[""Asian""]",No,Female,"India, 1 year",No,789419,NA,6624,NA,"{""product_choice"":""A""}",choice,ct,binary,repulsion,1,microwave ovens,null,null,null,null,null,null,2,100,90,null,30,40,null,Warranty,Cooking power,NA,NA
NA,NA,NA,NA,NA,choice_trial_setup,html-keyboard-response,46,484752,0.0-4.0-0.21,67,1,2025-04-28T20:47:03Z,b60275e29fe2361ab97ac0ac217840d7,"Mozilla/5.0 (Macintosh; Intel Mac OS X 10_15_7) AppleWebKit/537.36 (KHTML, like Gecko) Chrome/126.0.0.0 Safari/537.36",Macintosh,Chrome,126.0.0.0,OS X,10_15_7,https://5puzkbbxv1.cognition.run/?sona_id=55858,"en-US,en;q=0.9",k6jqetto4amn4b3,18,"[""Asian""]",No,Female,"India, 1 year",No,789419,NA,null,<p></p>,null,choice,cdt,trinary,attraction,2,laptops,null,null,null,null,null,null,2,NA,NA,NA,NA,NA,NA,NA,NA,NA,NA
NA,NA,NA,NA,NA,choice_trial,survey-html-form,47,494529,0.0-4.0-1.21,67,1,2025-04-28T20:47:03Z,b60275e29fe2361ab97ac0ac217840d7,"Mozilla/5.0 (Macintosh; Intel Mac OS X 10_15_7) AppleWebKit/537.36 (KHTML, like Gecko) Chrome/126.0.0.0 Safari/537.36",Macintosh,Chrome,126.0.0.0,OS X,10_15_7,https://5puzkbbxv1.cognition.run/?sona_id=55858,"en-US,en;q=0.9",k6jqetto4amn4b3,18,"[""Asian""]",No,Female,"India, 1 year",No,789419,NA,9772,NA,"{""product_choice"":""A""}",choice,cdt,trinary,attraction,2,laptops,null,null,null,null,null,null,2,50,60,40,60,50,60,Processing speed,Memory (RAM),NA,NA
NA,NA,NA,NA,NA,choice_trial_setup,html-keyboard-response,48,494833,0.0-4.0-0.22,67,1,2025-04-28T20:47:03Z,b60275e29fe2361ab97ac0ac217840d7,"Mozilla/5.0 (Macintosh; Intel Mac OS X 10_15_7) AppleWebKit/537.36 (KHTML, like Gecko) Chrome/126.0.0.0 Safari/537.36",Macintosh,Chrome,126.0.0.0,OS X,10_15_7,https://5puzkbbxv1.cognition.run/?sona_id=55858,"en-US,en;q=0.9",k6jqetto4amn4b3,18,"[""Asian""]",No,Female,"India, 1 year",No,789419,NA,null,<p></p>,null,choice,tc,binary,repulsion,2,laptops,null,null,null,null,null,null,2,NA,NA,NA,NA,NA,NA,NA,NA,NA,NA
NA,NA,NA,NA,NA,choice_trial,survey-html-form,49,500854,0.0-4.0-1.22,67,1,2025-04-28T20:47:03Z,b60275e29fe2361ab97ac0ac217840d7,"Mozilla/5.0 (Macintosh; Intel Mac OS X 10_15_7) AppleWebKit/537.36 (KHTML, like Gecko) Chrome/126.0.0.0 Safari/537.36",Macintosh,Chrome,126.0.0.0,OS X,10_15_7,https://5puzkbbxv1.cognition.run/?sona_id=55858,"en-US,en;q=0.9",k6jqetto4amn4b3,18,"[""Asian""]",No,Female,"India, 1 year",No,789419,NA,6016,NA,"{""product_choice"":""B""}",choice,tc,binary,repulsion,2,laptops,null,null,null,null,null,null,2,30,40,null,100,90,null,Processing speed,Memory (RAM),NA,NA
NA,NA,NA,NA,NA,choice_trial_setup,html-keyboard-response,50,501158,0.0-4.0-0.23,67,1,2025-04-28T20:47:03Z,b60275e29fe2361ab97ac0ac217840d7,"Mozilla/5.0 (Macintosh; Intel Mac OS X 10_15_7) AppleWebKit/537.36 (KHTML, like Gecko) Chrome/126.0.0.0 Safari/537.36",Macintosh,Chrome,126.0.0.0,OS X,10_15_7,https://5puzkbbxv1.cognition.run/?sona_id=55858,"en-US,en;q=0.9",k6jqetto4amn4b3,18,"[""Asian""]",No,Female,"India, 1 year",No,789419,NA,null,<p></p>,null,choice,wwb,trinary,catch,null,microwave ovens,50,90,5,5,20,5,2,NA,NA,NA,NA,NA,NA,NA,NA,NA,NA
NA,NA,NA,NA,NA,choice_trial,survey-html-form,51,507503,0.0-4.0-1.23,67,1,2025-04-28T20:47:03Z,b60275e29fe2361ab97ac0ac217840d7,"Mozilla/5.0 (Macintosh; Intel Mac OS X 10_15_7) AppleWebKit/537.36 (KHTML, like Gecko) Chrome/126.0.0.0 Safari/537.36",Macintosh,Chrome,126.0.0.0,OS X,10_15_7,https://5puzkbbxv1.cognition.run/?sona_id=55858,"en-US,en;q=0.9",k6jqetto4amn4b3,18,"[""Asian""]",No,Female,"India, 1 year",No,789419,NA,6341,NA,"{""product_choice"":""C""}",choice,wwb,trinary,catch,null,microwave ovens,50,90,5,5,20,5,2,null,null,null,null,null,null,Warranty,Cooking power,NA,NA
NA,NA,NA,NA,NA,choice_trial_setup,html-keyboard-response,52,507807,0.0-4.0-0.24,67,1,2025-04-28T20:47:03Z,b60275e29fe2361ab97ac0ac217840d7,"Mozilla/5.0 (Macintosh; Intel Mac OS X 10_15_7) AppleWebKit/537.36 (KHTML, like Gecko) Chrome/126.0.0.0 Safari/537.36",Macintosh,Chrome,126.0.0.0,OS X,10_15_7,https://5puzkbbxv1.cognition.run/?sona_id=55858,"en-US,en;q=0.9",k6jqetto4amn4b3,18,"[""Asian""]",No,Female,"India, 1 year",No,789419,NA,null,<p></p>,null,choice,ctd,trinary,repulsion_A,1,washing machines,null,null,null,null,null,null,2,NA,NA,NA,NA,NA,NA,NA,NA,NA,NA
NA,NA,NA,NA,NA,choice_trial,survey-html-form,53,545378,0.0-4.0-1.24,67,1,2025-04-28T20:47:03Z,b60275e29fe2361ab97ac0ac217840d7,"Mozilla/5.0 (Macintosh; Intel Mac OS X 10_15_7) AppleWebKit/537.36 (KHTML, like Gecko) Chrome/126.0.0.0 Safari/537.36",Macintosh,Chrome,126.0.0.0,OS X,10_15_7,https://5puzkbbxv1.cognition.run/?sona_id=55858,"en-US,en;q=0.9",k6jqetto4amn4b3,18,"[""Asian""]",No,Female,"India, 1 year",No,789419,NA,37567,NA,"{""product_choice"":""A""}",choice,ctd,trinary,repulsion_A,1,washing machines,null,null,null,null,null,null,2,100,90,100,30,40,20,Average lifespan,Energy savings,NA,NA
NA,NA,NA,NA,NA,choice_trial_setup,html-keyboard-response,54,545680,0.0-4.0-0.25,67,1,2025-04-28T20:47:03Z,b60275e29fe2361ab97ac0ac217840d7,"Mozilla/5.0 (Macintosh; Intel Mac OS X 10_15_7) AppleWebKit/537.36 (KHTML, like Gecko) Chrome/126.0.0.0 Safari/537.36",Macintosh,Chrome,126.0.0.0,OS X,10_15_7,https://5puzkbbxv1.cognition.run/?sona_id=55858,"en-US,en;q=0.9",k6jqetto4amn4b3,18,"[""Asian""]",No,Female,"India, 1 year",No,789419,NA,null,<p></p>,null,choice,dct,trinary,repulsion_B,1,microwave ovens,null,null,null,null,null,null,1,NA,NA,NA,NA,NA,NA,NA,NA,NA,NA
NA,NA,NA,NA,NA,choice_trial,survey-html-form,55,553345,0.0-4.0-1.25,67,1,2025-04-28T20:47:03Z,b60275e29fe2361ab97ac0ac217840d7,"Mozilla/5.0 (Macintosh; Intel Mac OS X 10_15_7) AppleWebKit/537.36 (KHTML, like Gecko) Chrome/126.0.0.0 Safari/537.36",Macintosh,Chrome,126.0.0.0,OS X,10_15_7,https://5puzkbbxv1.cognition.run/?sona_id=55858,"en-US,en;q=0.9",k6jqetto4amn4b3,18,"[""Asian""]",No,Female,"India, 1 year",No,789419,NA,7661,NA,"{""product_choice"":""C""}",choice,dct,trinary,repulsion_B,1,microwave ovens,null,null,null,null,null,null,1,90,100,80,40,30,40,Warranty,Cooking power,NA,NA
NA,NA,NA,NA,NA,choice_trial_setup,html-keyboard-response,56,553649,0.0-4.0-0.26,67,1,2025-04-28T20:47:03Z,b60275e29fe2361ab97ac0ac217840d7,"Mozilla/5.0 (Macintosh; Intel Mac OS X 10_15_7) AppleWebKit/537.36 (KHTML, like Gecko) Chrome/126.0.0.0 Safari/537.36",Macintosh,Chrome,126.0.0.0,OS X,10_15_7,https://5puzkbbxv1.cognition.run/?sona_id=55858,"en-US,en;q=0.9",k6jqetto4amn4b3,18,"[""Asian""]",No,Female,"India, 1 year",No,789419,NA,null,<p></p>,null,choice,tc,binary,attraction,NA,televisions,null,null,null,null,null,null,2,NA,NA,NA,NA,NA,NA,NA,NA,NA,NA
NA,NA,NA,NA,NA,choice_trial,survey-html-form,57,559122,0.0-4.0-1.26,67,1,2025-04-28T20:47:03Z,b60275e29fe2361ab97ac0ac217840d7,"Mozilla/5.0 (Macintosh; Intel Mac OS X 10_15_7) AppleWebKit/537.36 (KHTML, like Gecko) Chrome/126.0.0.0 Safari/537.36",Macintosh,Chrome,126.0.0.0,OS X,10_15_7,https://5puzkbbxv1.cognition.run/?sona_id=55858,"en-US,en;q=0.9",k6jqetto4amn4b3,18,"[""Asian""]",No,Female,"India, 1 year",No,789419,NA,5469,NA,"{""product_choice"":""B""}",choice,tc,binary,attraction,NA,televisions,null,null,null,null,null,null,2,60,50,null,50,60,null,Screen size,Average lifespan,NA,NA
NA,NA,NA,NA,NA,choice_trial_setup,html-keyboard-response,58,559426,0.0-4.0-0.27,67,1,2025-04-28T20:47:03Z,b60275e29fe2361ab97ac0ac217840d7,"Mozilla/5.0 (Macintosh; Intel Mac OS X 10_15_7) AppleWebKit/537.36 (KHTML, like Gecko) Chrome/126.0.0.0 Safari/537.36",Macintosh,Chrome,126.0.0.0,OS X,10_15_7,https://5puzkbbxv1.cognition.run/?sona_id=55858,"en-US,en;q=0.9",k6jqetto4amn4b3,18,"[""Asian""]",No,Female,"India, 1 year",No,789419,NA,null,<p></p>,null,choice,dtc,trinary,repulsion_B,2,televisions,null,null,null,null,null,null,1,NA,NA,NA,NA,NA,NA,NA,NA,NA,NA
NA,NA,NA,NA,NA,choice_trial,survey-html-form,59,563072,0.0-4.0-1.27,67,1,2025-04-28T20:47:03Z,b60275e29fe2361ab97ac0ac217840d7,"Mozilla/5.0 (Macintosh; Intel Mac OS X 10_15_7) AppleWebKit/537.36 (KHTML, like Gecko) Chrome/126.0.0.0 Safari/537.36",Macintosh,Chrome,126.0.0.0,OS X,10_15_7,https://5puzkbbxv1.cognition.run/?sona_id=55858,"en-US,en;q=0.9",k6jqetto4amn4b3,18,"[""Asian""]",No,Female,"India, 1 year",No,789419,NA,3645,NA,"{""product_choice"":""B""}",choice,dtc,trinary,repulsion_B,2,televisions,null,null,null,null,null,null,1,40,30,40,90,100,80,Screen size,Average lifespan,NA,NA
NA,NA,NA,NA,NA,choice_trial_setup,html-keyboard-response,60,563375,0.0-4.0-0.28,67,1,2025-04-28T20:47:03Z,b60275e29fe2361ab97ac0ac217840d7,"Mozilla/5.0 (Macintosh; Intel Mac OS X 10_15_7) AppleWebKit/537.36 (KHTML, like Gecko) Chrome/126.0.0.0 Safari/537.36",Macintosh,Chrome,126.0.0.0,OS X,10_15_7,https://5puzkbbxv1.cognition.run/?sona_id=55858,"en-US,en;q=0.9",k6jqetto4amn4b3,18,"[""Asian""]",No,Female,"India, 1 year",No,789419,NA,null,<p></p>,null,choice,tcd,trinary,repulsion_B,1,washing machines,null,null,null,null,null,null,1,NA,NA,NA,NA,NA,NA,NA,NA,NA,NA
NA,NA,NA,NA,NA,choice_trial,survey-html-form,61,569448,0.0-4.0-1.28,67,1,2025-04-28T20:47:03Z,b60275e29fe2361ab97ac0ac217840d7,"Mozilla/5.0 (Macintosh; Intel Mac OS X 10_15_7) AppleWebKit/537.36 (KHTML, like Gecko) Chrome/126.0.0.0 Safari/537.36",Macintosh,Chrome,126.0.0.0,OS X,10_15_7,https://5puzkbbxv1.cognition.run/?sona_id=55858,"en-US,en;q=0.9",k6jqetto4amn4b3,18,"[""Asian""]",No,Female,"India, 1 year",No,789419,NA,6068,NA,"{""product_choice"":""A""}",choice,tcd,trinary,repulsion_B,1,washing machines,null,null,null,null,null,null,1,90,100,80,40,30,40,Average lifespan,Energy savings,NA,NA
NA,NA,NA,NA,NA,choice_trial_setup,html-keyboard-response,62,569752,0.0-4.0-0.29,67,1,2025-04-28T20:47:03Z,b60275e29fe2361ab97ac0ac217840d7,"Mozilla/5.0 (Macintosh; Intel Mac OS X 10_15_7) AppleWebKit/537.36 (KHTML, like Gecko) Chrome/126.0.0.0 Safari/537.36",Macintosh,Chrome,126.0.0.0,OS X,10_15_7,https://5puzkbbxv1.cognition.run/?sona_id=55858,"en-US,en;q=0.9",k6jqetto4amn4b3,18,"[""Asian""]",No,Female,"India, 1 year",No,789419,NA,null,<p></p>,null,choice,tc,binary,repulsion,2,washing machines,null,null,null,null,null,null,1,NA,NA,NA,NA,NA,NA,NA,NA,NA,NA
NA,NA,NA,NA,NA,choice_trial,survey-html-form,63,572222,0.0-4.0-1.29,67,1,2025-04-28T20:47:03Z,b60275e29fe2361ab97ac0ac217840d7,"Mozilla/5.0 (Macintosh; Intel Mac OS X 10_15_7) AppleWebKit/537.36 (KHTML, like Gecko) Chrome/126.0.0.0 Safari/537.36",Macintosh,Chrome,126.0.0.0,OS X,10_15_7,https://5puzkbbxv1.cognition.run/?sona_id=55858,"en-US,en;q=0.9",k6jqetto4amn4b3,18,"[""Asian""]",No,Female,"India, 1 year",No,789419,NA,2466,NA,"{""product_choice"":""B""}",choice,tc,binary,repulsion,2,washing machines,null,null,null,null,null,null,1,30,40,null,100,90,null,Average lifespan,Energy savings,NA,NA
NA,NA,NA,NA,NA,choice_trial_setup,html-keyboard-response,64,572526,0.0-4.0-0.30,67,1,2025-04-28T20:47:03Z,b60275e29fe2361ab97ac0ac217840d7,"Mozilla/5.0 (Macintosh; Intel Mac OS X 10_15_7) AppleWebKit/537.36 (KHTML, like Gecko) Chrome/126.0.0.0 Safari/537.36",Macintosh,Chrome,126.0.0.0,OS X,10_15_7,https://5puzkbbxv1.cognition.run/?sona_id=55858,"en-US,en;q=0.9",k6jqetto4amn4b3,18,"[""Asian""]",No,Female,"India, 1 year",No,789419,NA,null,<p></p>,null,choice,ct,binary,repulsion,2,microwave ovens,null,null,null,null,null,null,2,NA,NA,NA,NA,NA,NA,NA,NA,NA,NA
NA,NA,NA,NA,NA,choice_trial,survey-html-form,65,574955,0.0-4.0-1.30,67,1,2025-04-28T20:47:03Z,b60275e29fe2361ab97ac0ac217840d7,"Mozilla/5.0 (Macintosh; Intel Mac OS X 10_15_7) AppleWebKit/537.36 (KHTML, like Gecko) Chrome/126.0.0.0 Safari/537.36",Macintosh,Chrome,126.0.0.0,OS X,10_15_7,https://5puzkbbxv1.cognition.run/?sona_id=55858,"en-US,en;q=0.9",k6jqetto4amn4b3,18,"[""Asian""]",No,Female,"India, 1 year",No,789419,NA,2425,NA,"{""product_choice"":""A""}",choice,ct,binary,repulsion,2,microwave ovens,null,null,null,null,null,null,2,30,40,null,100,90,null,Warranty,Cooking power,NA,NA
NA,NA,NA,NA,NA,choice_trial_setup,html-keyboard-response,66,575258,0.0-4.0-0.31,67,1,2025-04-28T20:47:03Z,b60275e29fe2361ab97ac0ac217840d7,"Mozilla/5.0 (Macintosh; Intel Mac OS X 10_15_7) AppleWebKit/537.36 (KHTML, like Gecko) Chrome/126.0.0.0 Safari/537.36",Macintosh,Chrome,126.0.0.0,OS X,10_15_7,https://5puzkbbxv1.cognition.run/?sona_id=55858,"en-US,en;q=0.9",k6jqetto4amn4b3,18,"[""Asian""]",No,Female,"India, 1 year",No,789419,NA,null,<p></p>,null,choice,tdc,trinary,repulsion_A,2,microwave ovens,null,null,null,null,null,null,1,NA,NA,NA,NA,NA,NA,NA,NA,NA,NA
NA,NA,NA,NA,NA,choice_trial,survey-html-form,67,579097,0.0-4.0-1.31,67,1,2025-04-28T20:47:03Z,b60275e29fe2361ab97ac0ac217840d7,"Mozilla/5.0 (Macintosh; Intel Mac OS X 10_15_7) AppleWebKit/537.36 (KHTML, like Gecko) Chrome/126.0.0.0 Safari/537.36",Macintosh,Chrome,126.0.0.0,OS X,10_15_7,https://5puzkbbxv1.cognition.run/?sona_id=55858,"en-US,en;q=0.9",k6jqetto4amn4b3,18,"[""Asian""]",No,Female,"India, 1 year",No,789419,NA,3834,NA,"{""product_choice"":""C""}",choice,tdc,trinary,repulsion_A,2,microwave ovens,null,null,null,null,null,null,1,30,40,20,100,90,100,Warranty,Cooking power,NA,NA
NA,NA,NA,NA,NA,choice_trial_setup,html-keyboard-response,68,579401,0.0-4.0-0.32,67,1,2025-04-28T20:47:03Z,b60275e29fe2361ab97ac0ac217840d7,"Mozilla/5.0 (Macintosh; Intel Mac OS X 10_15_7) AppleWebKit/537.36 (KHTML, like Gecko) Chrome/126.0.0.0 Safari/537.36",Macintosh,Chrome,126.0.0.0,OS X,10_15_7,https://5puzkbbxv1.cognition.run/?sona_id=55858,"en-US,en;q=0.9",k6jqetto4amn4b3,18,"[""Asian""]",No,Female,"India, 1 year",No,789419,NA,null,<p></p>,null,choice,wbw,trinary,catch,null,laptops,65,90,50,40,15,40,2,NA,NA,NA,NA,NA,NA,NA,NA,NA,NA
NA,NA,NA,NA,NA,choice_trial,survey-html-form,69,583756,0.0-4.0-1.32,67,1,2025-04-28T20:47:03Z,b60275e29fe2361ab97ac0ac217840d7,"Mozilla/5.0 (Macintosh; Intel Mac OS X 10_15_7) AppleWebKit/537.36 (KHTML, like Gecko) Chrome/126.0.0.0 Safari/537.36",Macintosh,Chrome,126.0.0.0,OS X,10_15_7,https://5puzkbbxv1.cognition.run/?sona_id=55858,"en-US,en;q=0.9",k6jqetto4amn4b3,18,"[""Asian""]",No,Female,"India, 1 year",No,789419,NA,4352,NA,"{""product_choice"":""B""}",choice,wbw,trinary,catch,null,laptops,65,90,50,40,15,40,2,null,null,null,null,null,null,Processing speed,Memory (RAM),NA,NA
NA,NA,NA,NA,NA,choice_trial_setup,html-keyboard-response,70,584059,0.0-4.0-0.33,67,1,2025-04-28T20:47:03Z,b60275e29fe2361ab97ac0ac217840d7,"Mozilla/5.0 (Macintosh; Intel Mac OS X 10_15_7) AppleWebKit/537.36 (KHTML, like Gecko) Chrome/126.0.0.0 Safari/537.36",Macintosh,Chrome,126.0.0.0,OS X,10_15_7,https://5puzkbbxv1.cognition.run/?sona_id=55858,"en-US,en;q=0.9",k6jqetto4amn4b3,18,"[""Asian""]",No,Female,"India, 1 year",No,789419,NA,null,<p></p>,null,choice,wbw,trinary,catch,null,washing machines,55,55,10,15,10,40,2,NA,NA,NA,NA,NA,NA,NA,NA,NA,NA
NA,NA,NA,NA,NA,choice_trial,survey-html-form,71,589814,0.0-4.0-1.33,67,1,2025-04-28T20:47:03Z,b60275e29fe2361ab97ac0ac217840d7,"Mozilla/5.0 (Macintosh; Intel Mac OS X 10_15_7) AppleWebKit/537.36 (KHTML, like Gecko) Chrome/126.0.0.0 Safari/537.36",Macintosh,Chrome,126.0.0.0,OS X,10_15_7,https://5puzkbbxv1.cognition.run/?sona_id=55858,"en-US,en;q=0.9",k6jqetto4amn4b3,18,"[""Asian""]",No,Female,"India, 1 year",No,789419,NA,5749,NA,"{""product_choice"":""B""}",choice,wbw,trinary,catch,null,washing machines,55,55,10,15,10,40,2,null,null,null,null,null,null,Average lifespan,Energy savings,NA,NA
NA,NA,NA,NA,NA,choice_trial_setup,html-keyboard-response,72,590117,0.0-4.0-0.34,67,1,2025-04-28T20:47:03Z,b60275e29fe2361ab97ac0ac217840d7,"Mozilla/5.0 (Macintosh; Intel Mac OS X 10_15_7) AppleWebKit/537.36 (KHTML, like Gecko) Chrome/126.0.0.0 Safari/537.36",Macintosh,Chrome,126.0.0.0,OS X,10_15_7,https://5puzkbbxv1.cognition.run/?sona_id=55858,"en-US,en;q=0.9",k6jqetto4amn4b3,18,"[""Asian""]",No,Female,"India, 1 year",No,789419,NA,null,<p></p>,null,choice,ct,binary,repulsion,2,televisions,null,null,null,null,null,null,1,NA,NA,NA,NA,NA,NA,NA,NA,NA,NA
NA,NA,NA,NA,NA,choice_trial,survey-html-form,73,593554,0.0-4.0-1.34,67,1,2025-04-28T20:47:03Z,b60275e29fe2361ab97ac0ac217840d7,"Mozilla/5.0 (Macintosh; Intel Mac OS X 10_15_7) AppleWebKit/537.36 (KHTML, like Gecko) Chrome/126.0.0.0 Safari/537.36",Macintosh,Chrome,126.0.0.0,OS X,10_15_7,https://5puzkbbxv1.cognition.run/?sona_id=55858,"en-US,en;q=0.9",k6jqetto4amn4b3,18,"[""Asian""]",No,Female,"India, 1 year",No,789419,NA,3432,NA,"{""product_choice"":""A""}",choice,ct,binary,repulsion,2,televisions,null,null,null,null,null,null,1,30,40,null,100,90,null,Screen size,Average lifespan,NA,NA
NA,NA,NA,NA,NA,choice_trial_setup,html-keyboard-response,74,593857,0.0-4.0-0.35,67,1,2025-04-28T20:47:03Z,b60275e29fe2361ab97ac0ac217840d7,"Mozilla/5.0 (Macintosh; Intel Mac OS X 10_15_7) AppleWebKit/537.36 (KHTML, like Gecko) Chrome/126.0.0.0 Safari/537.36",Macintosh,Chrome,126.0.0.0,OS X,10_15_7,https://5puzkbbxv1.cognition.run/?sona_id=55858,"en-US,en;q=0.9",k6jqetto4amn4b3,18,"[""Asian""]",No,Female,"India, 1 year",No,789419,NA,null,<p></p>,null,choice,cdt,trinary,attraction,1,televisions,null,null,null,null,null,null,2,NA,NA,NA,NA,NA,NA,NA,NA,NA,NA
NA,NA,NA,NA,NA,choice_trial,survey-html-form,75,600046,0.0-4.0-1.35,67,1,2025-04-28T20:47:03Z,b60275e29fe2361ab97ac0ac217840d7,"Mozilla/5.0 (Macintosh; Intel Mac OS X 10_15_7) AppleWebKit/537.36 (KHTML, like Gecko) Chrome/126.0.0.0 Safari/537.36",Macintosh,Chrome,126.0.0.0,OS X,10_15_7,https://5puzkbbxv1.cognition.run/?sona_id=55858,"en-US,en;q=0.9",k6jqetto4amn4b3,18,"[""Asian""]",No,Female,"India, 1 year",No,789419,NA,6185,NA,"{""product_choice"":""A""}",choice,cdt,trinary,attraction,1,televisions,null,null,null,null,null,null,2,60,50,60,50,60,40,Screen size,Average lifespan,NA,NA
NA,NA,NA,NA,NA,choice_trial_setup,html-keyboard-response,76,600350,0.0-4.0-0.36,67,1,2025-04-28T20:47:03Z,b60275e29fe2361ab97ac0ac217840d7,"Mozilla/5.0 (Macintosh; Intel Mac OS X 10_15_7) AppleWebKit/537.36 (KHTML, like Gecko) Chrome/126.0.0.0 Safari/537.36",Macintosh,Chrome,126.0.0.0,OS X,10_15_7,https://5puzkbbxv1.cognition.run/?sona_id=55858,"en-US,en;q=0.9",k6jqetto4amn4b3,18,"[""Asian""]",No,Female,"India, 1 year",No,789419,NA,null,<p></p>,null,choice,cdt,trinary,repulsion_A,2,laptops,null,null,null,null,null,null,1,NA,NA,NA,NA,NA,NA,NA,NA,NA,NA
NA,NA,NA,NA,NA,choice_trial,survey-html-form,77,603989,0.0-4.0-1.36,67,1,2025-04-28T20:47:03Z,b60275e29fe2361ab97ac0ac217840d7,"Mozilla/5.0 (Macintosh; Intel Mac OS X 10_15_7) AppleWebKit/537.36 (KHTML, like Gecko) Chrome/126.0.0.0 Safari/537.36",Macintosh,Chrome,126.0.0.0,OS X,10_15_7,https://5puzkbbxv1.cognition.run/?sona_id=55858,"en-US,en;q=0.9",k6jqetto4amn4b3,18,"[""Asian""]",No,Female,"India, 1 year",No,789419,NA,3633,NA,"{""product_choice"":""A""}",choice,cdt,trinary,repulsion_A,2,laptops,null,null,null,null,null,null,1,30,40,20,100,90,100,Processing speed,Memory (RAM),NA,NA
NA,NA,NA,NA,NA,choice_trial_setup,html-keyboard-response,78,604294,0.0-4.0-0.37,67,1,2025-04-28T20:47:03Z,b60275e29fe2361ab97ac0ac217840d7,"Mozilla/5.0 (Macintosh; Intel Mac OS X 10_15_7) AppleWebKit/537.36 (KHTML, like Gecko) Chrome/126.0.0.0 Safari/537.36",Macintosh,Chrome,126.0.0.0,OS X,10_15_7,https://5puzkbbxv1.cognition.run/?sona_id=55858,"en-US,en;q=0.9",k6jqetto4amn4b3,18,"[""Asian""]",No,Female,"India, 1 year",No,789419,NA,null,<p></p>,null,choice,tcd,trinary,repulsion_B,1,laptops,null,null,null,null,null,null,2,NA,NA,NA,NA,NA,NA,NA,NA,NA,NA
NA,NA,NA,NA,NA,choice_trial,survey-html-form,79,607454,0.0-4.0-1.37,67,1,2025-04-28T20:47:03Z,b60275e29fe2361ab97ac0ac217840d7,"Mozilla/5.0 (Macintosh; Intel Mac OS X 10_15_7) AppleWebKit/537.36 (KHTML, like Gecko) Chrome/126.0.0.0 Safari/537.36",Macintosh,Chrome,126.0.0.0,OS X,10_15_7,https://5puzkbbxv1.cognition.run/?sona_id=55858,"en-US,en;q=0.9",k6jqetto4amn4b3,18,"[""Asian""]",No,Female,"India, 1 year",No,789419,NA,3154,NA,"{""product_choice"":""A""}",choice,tcd,trinary,repulsion_B,1,laptops,null,null,null,null,null,null,2,90,100,80,40,30,40,Processing speed,Memory (RAM),NA,NA
NA,NA,NA,NA,NA,choice_trial_setup,html-keyboard-response,80,607758,0.0-4.0-0.38,67,1,2025-04-28T20:47:03Z,b60275e29fe2361ab97ac0ac217840d7,"Mozilla/5.0 (Macintosh; Intel Mac OS X 10_15_7) AppleWebKit/537.36 (KHTML, like Gecko) Chrome/126.0.0.0 Safari/537.36",Macintosh,Chrome,126.0.0.0,OS X,10_15_7,https://5puzkbbxv1.cognition.run/?sona_id=55858,"en-US,en;q=0.9",k6jqetto4amn4b3,18,"[""Asian""]",No,Female,"India, 1 year",No,789419,NA,null,<p></p>,null,choice,dtc,trinary,attraction,1,microwave ovens,null,null,null,null,null,null,1,NA,NA,NA,NA,NA,NA,NA,NA,NA,NA
NA,NA,NA,NA,NA,choice_trial,survey-html-form,81,612928,0.0-4.0-1.38,67,1,2025-04-28T20:47:03Z,b60275e29fe2361ab97ac0ac217840d7,"Mozilla/5.0 (Macintosh; Intel Mac OS X 10_15_7) AppleWebKit/537.36 (KHTML, like Gecko) Chrome/126.0.0.0 Safari/537.36",Macintosh,Chrome,126.0.0.0,OS X,10_15_7,https://5puzkbbxv1.cognition.run/?sona_id=55858,"en-US,en;q=0.9",k6jqetto4amn4b3,18,"[""Asian""]",No,Female,"India, 1 year",No,789419,NA,5163,NA,"{""product_choice"":""C""}",choice,dtc,trinary,attraction,1,microwave ovens,null,null,null,null,null,null,1,60,50,60,50,60,40,Warranty,Cooking power,NA,NA
NA,NA,NA,NA,NA,choice_trial_setup,html-keyboard-response,82,613231,0.0-4.0-0.39,67,1,2025-04-28T20:47:03Z,b60275e29fe2361ab97ac0ac217840d7,"Mozilla/5.0 (Macintosh; Intel Mac OS X 10_15_7) AppleWebKit/537.36 (KHTML, like Gecko) Chrome/126.0.0.0 Safari/537.36",Macintosh,Chrome,126.0.0.0,OS X,10_15_7,https://5puzkbbxv1.cognition.run/?sona_id=55858,"en-US,en;q=0.9",k6jqetto4amn4b3,18,"[""Asian""]",No,Female,"India, 1 year",No,789419,NA,null,<p></p>,null,choice,ctd,trinary,attraction,1,washing machines,null,null,null,null,null,null,1,NA,NA,NA,NA,NA,NA,NA,NA,NA,NA
NA,NA,NA,NA,NA,choice_trial,survey-html-form,83,616563,0.0-4.0-1.39,67,1,2025-04-28T20:47:03Z,b60275e29fe2361ab97ac0ac217840d7,"Mozilla/5.0 (Macintosh; Intel Mac OS X 10_15_7) AppleWebKit/537.36 (KHTML, like Gecko) Chrome/126.0.0.0 Safari/537.36",Macintosh,Chrome,126.0.0.0,OS X,10_15_7,https://5puzkbbxv1.cognition.run/?sona_id=55858,"en-US,en;q=0.9",k6jqetto4amn4b3,18,"[""Asian""]",No,Female,"India, 1 year",No,789419,NA,3326,NA,"{""product_choice"":""B""}",choice,ctd,trinary,attraction,1,washing machines,null,null,null,null,null,null,1,60,50,60,50,60,40,Average lifespan,Energy savings,NA,NA
NA,NA,NA,NA,NA,choice_trial_setup,html-keyboard-response,84,616867,0.0-4.0-0.40,67,1,2025-04-28T20:47:03Z,b60275e29fe2361ab97ac0ac217840d7,"Mozilla/5.0 (Macintosh; Intel Mac OS X 10_15_7) AppleWebKit/537.36 (KHTML, like Gecko) Chrome/126.0.0.0 Safari/537.36",Macintosh,Chrome,126.0.0.0,OS X,10_15_7,https://5puzkbbxv1.cognition.run/?sona_id=55858,"en-US,en;q=0.9",k6jqetto4amn4b3,18,"[""Asian""]",No,Female,"India, 1 year",No,789419,NA,null,<p></p>,null,choice,bww,trinary,catch,null,televisions,60,55,15,40,5,25,1,NA,NA,NA,NA,NA,NA,NA,NA,NA,NA
NA,NA,NA,NA,NA,choice_trial,survey-html-form,85,622618,0.0-4.0-1.40,67,1,2025-04-28T20:47:03Z,b60275e29fe2361ab97ac0ac217840d7,"Mozilla/5.0 (Macintosh; Intel Mac OS X 10_15_7) AppleWebKit/537.36 (KHTML, like Gecko) Chrome/126.0.0.0 Safari/537.36",Macintosh,Chrome,126.0.0.0,OS X,10_15_7,https://5puzkbbxv1.cognition.run/?sona_id=55858,"en-US,en;q=0.9",k6jqetto4amn4b3,18,"[""Asian""]",No,Female,"India, 1 year",No,789419,NA,5746,NA,"{""product_choice"":""A""}",choice,bww,trinary,catch,null,televisions,60,55,15,40,5,25,1,null,null,null,null,null,null,Screen size,Average lifespan,NA,NA
NA,NA,NA,NA,NA,choice_trial_setup,html-keyboard-response,86,622923,0.0-4.0-0.41,67,1,2025-04-28T20:47:03Z,b60275e29fe2361ab97ac0ac217840d7,"Mozilla/5.0 (Macintosh; Intel Mac OS X 10_15_7) AppleWebKit/537.36 (KHTML, like Gecko) Chrome/126.0.0.0 Safari/537.36",Macintosh,Chrome,126.0.0.0,OS X,10_15_7,https://5puzkbbxv1.cognition.run/?sona_id=55858,"en-US,en;q=0.9",k6jqetto4amn4b3,18,"[""Asian""]",No,Female,"India, 1 year",No,789419,NA,null,<p></p>,null,choice,tc,binary,repulsion,1,televisions,null,null,null,null,null,null,2,NA,NA,NA,NA,NA,NA,NA,NA,NA,NA
NA,NA,NA,NA,NA,choice_trial,survey-html-form,87,625238,0.0-4.0-1.41,67,1,2025-04-28T20:47:03Z,b60275e29fe2361ab97ac0ac217840d7,"Mozilla/5.0 (Macintosh; Intel Mac OS X 10_15_7) AppleWebKit/537.36 (KHTML, like Gecko) Chrome/126.0.0.0 Safari/537.36",Macintosh,Chrome,126.0.0.0,OS X,10_15_7,https://5puzkbbxv1.cognition.run/?sona_id=55858,"en-US,en;q=0.9",k6jqetto4amn4b3,18,"[""Asian""]",No,Female,"India, 1 year",No,789419,NA,2309,NA,"{""product_choice"":""B""}",choice,tc,binary,repulsion,1,televisions,null,null,null,null,null,null,2,100,90,null,30,40,null,Screen size,Average lifespan,NA,NA
NA,NA,NA,NA,NA,choice_trial_setup,html-keyboard-response,88,625542,0.0-4.0-0.42,67,1,2025-04-28T20:47:03Z,b60275e29fe2361ab97ac0ac217840d7,"Mozilla/5.0 (Macintosh; Intel Mac OS X 10_15_7) AppleWebKit/537.36 (KHTML, like Gecko) Chrome/126.0.0.0 Safari/537.36",Macintosh,Chrome,126.0.0.0,OS X,10_15_7,https://5puzkbbxv1.cognition.run/?sona_id=55858,"en-US,en;q=0.9",k6jqetto4amn4b3,18,"[""Asian""]",No,Female,"India, 1 year",No,789419,NA,null,<p></p>,null,choice,dtc,trinary,repulsion_A,2,washing machines,null,null,null,null,null,null,2,NA,NA,NA,NA,NA,NA,NA,NA,NA,NA
NA,NA,NA,NA,NA,choice_trial,survey-html-form,89,628496,0.0-4.0-1.42,67,1,2025-04-28T20:47:03Z,b60275e29fe2361ab97ac0ac217840d7,"Mozilla/5.0 (Macintosh; Intel Mac OS X 10_15_7) AppleWebKit/537.36 (KHTML, like Gecko) Chrome/126.0.0.0 Safari/537.36",Macintosh,Chrome,126.0.0.0,OS X,10_15_7,https://5puzkbbxv1.cognition.run/?sona_id=55858,"en-US,en;q=0.9",k6jqetto4amn4b3,18,"[""Asian""]",No,Female,"India, 1 year",No,789419,NA,2950,NA,"{""product_choice"":""C""}",choice,dtc,trinary,repulsion_A,2,washing machines,null,null,null,null,null,null,2,30,40,20,100,90,100,Average lifespan,Energy savings,NA,NA
NA,NA,NA,NA,NA,choice_trial_setup,html-keyboard-response,90,628800,0.0-4.0-0.43,67,1,2025-04-28T20:47:03Z,b60275e29fe2361ab97ac0ac217840d7,"Mozilla/5.0 (Macintosh; Intel Mac OS X 10_15_7) AppleWebKit/537.36 (KHTML, like Gecko) Chrome/126.0.0.0 Safari/537.36",Macintosh,Chrome,126.0.0.0,OS X,10_15_7,https://5puzkbbxv1.cognition.run/?sona_id=55858,"en-US,en;q=0.9",k6jqetto4amn4b3,18,"[""Asian""]",No,Female,"India, 1 year",No,789419,NA,null,<p></p>,null,choice,ct,binary,attraction,NA,washing machines,null,null,null,null,null,null,2,NA,NA,NA,NA,NA,NA,NA,NA,NA,NA
NA,NA,NA,NA,NA,choice_trial,survey-html-form,91,633590,0.0-4.0-1.43,67,1,2025-04-28T20:47:03Z,b60275e29fe2361ab97ac0ac217840d7,"Mozilla/5.0 (Macintosh; Intel Mac OS X 10_15_7) AppleWebKit/537.36 (KHTML, like Gecko) Chrome/126.0.0.0 Safari/537.36",Macintosh,Chrome,126.0.0.0,OS X,10_15_7,https://5puzkbbxv1.cognition.run/?sona_id=55858,"en-US,en;q=0.9",k6jqetto4amn4b3,18,"[""Asian""]",No,Female,"India, 1 year",No,789419,NA,4784,NA,"{""product_choice"":""B""}",choice,ct,binary,attraction,NA,washing machines,null,null,null,null,null,null,2,60,50,null,50,60,null,Average lifespan,Energy savings,NA,NA
NA,NA,NA,NA,NA,post_trials_message,html-button-response,92,634781,0.0-5.0,67,1,2025-04-28T20:47:03Z,b60275e29fe2361ab97ac0ac217840d7,"Mozilla/5.0 (Macintosh; Intel Mac OS X 10_15_7) AppleWebKit/537.36 (KHTML, like Gecko) Chrome/126.0.0.0 Safari/537.36",Macintosh,Chrome,126.0.0.0,OS X,10_15_7,https://5puzkbbxv1.cognition.run/?sona_id=55858,"en-US,en;q=0.9",k6jqetto4amn4b3,18,"[""Asian""]",No,Female,"India, 1 year",No,789419,NA,1188,<p> <b>Thank you for your patience!</b></p><p>  The study will be done after completing a brief form. </p>,0,NA,NA,NA,NA,NA,NA,NA,NA,NA,NA,NA,NA,NA,NA,NA,NA,NA,NA,NA,NA,NA,NA,NA
NA,NA,NA,NA,NA,survey_message,survey-text,93,723424,0.0-6.0,67,1,2025-04-28T20:47:03Z,b60275e29fe2361ab97ac0ac217840d7,"Mozilla/5.0 (Macintosh; Intel Mac OS X 10_15_7) AppleWebKit/537.36 (KHTML, like Gecko) Chrome/126.0.0.0 Safari/537.36",Macintosh,Chrome,126.0.0.0,OS X,10_15_7,https://5puzkbbxv1.cognition.run/?sona_id=55858,"en-US,en;q=0.9",k6jqetto4amn4b3,18,"[""Asian""]",No,Female,"India, 1 year",No,789419,NA,88637,NA,"{""Q0"":""I tried to weigh what would be important to me with each factor. If there were some equal numbers such as lifespan at 90, 100, and 100, while the screen size was 40, 30, and 20 respectively, I decided to choose the one with the closest to average by sacrificing the other higher catergories.""}",NA,NA,NA,NA,NA,NA,NA,NA,NA,NA,NA,NA,NA,NA,NA,NA,NA,NA,NA,NA,NA,"I tried to weigh what would be important to me with each factor. If there were some equal numbers such as lifespan at 90, 100, and 100, while the screen size was 40, 30, and 20 respectively, I decided to choose the one with the closest to average by sacrificing the other higher catergories.",NA
NA,NA,NA,NA,NA,demo_age,survey-text,94,725424,0.0-7.0,67,1,2025-04-28T20:47:03Z,b60275e29fe2361ab97ac0ac217840d7,"Mozilla/5.0 (Macintosh; Intel Mac OS X 10_15_7) AppleWebKit/537.36 (KHTML, like Gecko) Chrome/126.0.0.0 Safari/537.36",Macintosh,Chrome,126.0.0.0,OS X,10_15_7,https://5puzkbbxv1.cognition.run/?sona_id=55858,"en-US,en;q=0.9",k6jqetto4amn4b3,18,"[""Asian""]",No,Female,"India, 1 year",No,789419,NA,1995,NA,"{""Q0"":""18""}",NA,NA,NA,NA,NA,NA,NA,NA,NA,NA,NA,NA,NA,NA,NA,NA,NA,NA,NA,NA,NA,NA,NA
NA,NA,NA,NA,NA,demo_race,survey-multi-select,95,727209,0.0-8.0,67,1,2025-04-28T20:47:03Z,b60275e29fe2361ab97ac0ac217840d7,"Mozilla/5.0 (Macintosh; Intel Mac OS X 10_15_7) AppleWebKit/537.36 (KHTML, like Gecko) Chrome/126.0.0.0 Safari/537.36",Macintosh,Chrome,126.0.0.0,OS X,10_15_7,https://5puzkbbxv1.cognition.run/?sona_id=55858,"en-US,en;q=0.9",k6jqetto4amn4b3,18,"[""Asian""]",No,Female,"India, 1 year",No,789419,NA,1780,NA,"{""Q0"":[""Asian""]}",NA,NA,NA,NA,NA,NA,NA,NA,NA,NA,NA,NA,NA,NA,NA,NA,NA,NA,NA,NA,NA,NA,[0]
NA,NA,NA,NA,NA,demo_ethnicity_gender,survey-multi-choice,96,729848,0.0-9.0,67,1,2025-04-28T20:47:03Z,b60275e29fe2361ab97ac0ac217840d7,"Mozilla/5.0 (Macintosh; Intel Mac OS X 10_15_7) AppleWebKit/537.36 (KHTML, like Gecko) Chrome/126.0.0.0 Safari/537.36",Macintosh,Chrome,126.0.0.0,OS X,10_15_7,https://5puzkbbxv1.cognition.run/?sona_id=55858,"en-US,en;q=0.9",k6jqetto4amn4b3,18,"[""Asian""]",No,Female,"India, 1 year",No,789419,NA,2632,NA,"{""Q0"":""No"",""Q1"":""Female""}",NA,NA,NA,NA,NA,NA,NA,NA,NA,NA,NA,NA,NA,NA,NA,NA,NA,NA,NA,NA,NA,NA,"[0,1]"
NA,NA,NA,NA,NA,demo_countries,survey-text,97,736848,0.0-10.0,67,1,2025-04-28T20:47:03Z,b60275e29fe2361ab97ac0ac217840d7,"Mozilla/5.0 (Macintosh; Intel Mac OS X 10_15_7) AppleWebKit/537.36 (KHTML, like Gecko) Chrome/126.0.0.0 Safari/537.36",Macintosh,Chrome,126.0.0.0,OS X,10_15_7,https://5puzkbbxv1.cognition.run/?sona_id=55858,"en-US,en;q=0.9",k6jqetto4amn4b3,18,"[""Asian""]",No,Female,"India, 1 year",No,789419,NA,6989,NA,"{""Q0"":""India, 1 year""}",NA,NA,NA,NA,NA,NA,NA,NA,NA,NA,NA,NA,NA,NA,NA,NA,NA,NA,NA,NA,NA,NA,NA
NA,NA,NA,NA,NA,demo_prev_study,survey-multi-choice,98,744371,0.0-11.0,67,1,2025-04-28T20:47:03Z,b60275e29fe2361ab97ac0ac217840d7,"Mozilla/5.0 (Macintosh; Intel Mac OS X 10_15_7) AppleWebKit/537.36 (KHTML, like Gecko) Chrome/126.0.0.0 Safari/537.36",Macintosh,Chrome,126.0.0.0,OS X,10_15_7,https://5puzkbbxv1.cognition.run/?sona_id=55858,"en-US,en;q=0.9",k6jqetto4amn4b3,18,"[""Asian""]",No,Female,"India, 1 year",No,789419,NA,7519,NA,"{""Q0"":""No""}",NA,NA,NA,NA,NA,NA,NA,NA,NA,NA,NA,NA,NA,NA,NA,NA,NA,NA,NA,NA,NA,NA,[0]
NA,NA,NA,NA,NA,post_survey_message,html-keyboard-response,99,748128,0.0-12.0,67,1,2025-04-28T20:47:03Z,b60275e29fe2361ab97ac0ac217840d7,"Mozilla/5.0 (Macintosh; Intel Mac OS X 10_15_7) AppleWebKit/537.36 (KHTML, like Gecko) Chrome/126.0.0.0 Safari/537.36",Macintosh,Chrome,126.0.0.0,OS X,10_15_7,https://5puzkbbxv1.cognition.run/?sona_id=55858,"en-US,en;q=0.9",k6jqetto4amn4b3,18,"[""Asian""]",No,Female,"India, 1 year",No,789419,NA,3752,NA,j,NA,NA,NA,NA,NA,NA,NA,NA,NA,NA,NA,NA,NA,NA,NA,NA,NA,NA,NA,NA,NA,NA,NA
NA,NA,NA,NA,NA,debrief,image-keyboard-response,100,789434,0.0-13.0,67,1,2025-04-28T20:47:03Z,b60275e29fe2361ab97ac0ac217840d7,"Mozilla/5.0 (Macintosh; Intel Mac OS X 10_15_7) AppleWebKit/537.36 (KHTML, like Gecko) Chrome/126.0.0.0 Safari/537.36",Macintosh,Chrome,126.0.0.0,OS X,10_15_7,https://5puzkbbxv1.cognition.run/?sona_id=55858,"en-US,en;q=0.9",k6jqetto4amn4b3,18,"[""Asian""]",No,Female,"India, 1 year",No,789419,NA,41301,Judg_choice_debrief.png,p,NA,NA,NA,NA,NA,NA,NA,NA,NA,NA,NA,NA,NA,NA,NA,NA,NA,NA,NA,NA,NA,NA,NA
