success,timeout,failed_images,failed_audio,failed_video,screen_id,trial_type,trial_index,time_elapsed,internal_node_id,run_id,condition,recorded_at,source_code_version,user_agent,device,browser,browser_version,platform,platform_version,referer,accept_language,ppt_id,age,race,ethnicity,gender,other_countries,prev_study,exp_duration,view_history,rt,stimulus,response,phase,order,set,effect,t_high,category,d1_best,d2_best,d1_worst1,d2_worst1,d1_worst2,d2_worst2,first_dim,d1_t,d1_c,d1_d,d2_t,d2_c,d2_d,d1_name,d2_name,strategy_response,question_order
TRUE,FALSE,[],[],[],img preload,preload,0,228,0.0-0.0,68,1,2025-04-28T21:01:53Z,b60275e29fe2361ab97ac0ac217840d7,"Mozilla/5.0 (Macintosh; Intel Mac OS X 10_15_7) AppleWebKit/605.1.15 (KHTML, like Gecko) Version/17.6 Safari/605.1.15",Macintosh,Safari,17.6,OS X,10_15_7,https://5puzkbbxv1.cognition.run/?sona_id=55945,"en-US,en;q=0.9",1upgzkuzb8ojx43,I'm 19 years old.,"[""White""]",No,Male,NA,Yes,830330,NA,NA,NA,NA,NA,NA,NA,NA,NA,NA,NA,NA,NA,NA,NA,NA,NA,NA,NA,NA,NA,NA,NA,NA,NA,NA,NA
NA,NA,NA,NA,NA,computer_message,instructions,1,41520,0.0-1.0,68,1,2025-04-28T21:01:53Z,b60275e29fe2361ab97ac0ac217840d7,"Mozilla/5.0 (Macintosh; Intel Mac OS X 10_15_7) AppleWebKit/605.1.15 (KHTML, like Gecko) Version/17.6 Safari/605.1.15",Macintosh,Safari,17.6,OS X,10_15_7,https://5puzkbbxv1.cognition.run/?sona_id=55945,"en-US,en;q=0.9",1upgzkuzb8ojx43,I'm 19 years old.,"[""White""]",No,Male,NA,Yes,830330,"[{""page_index"":0,""viewing_time"":41290}]",41290,NA,NA,NA,NA,NA,NA,NA,NA,NA,NA,NA,NA,NA,NA,NA,NA,NA,NA,NA,NA,NA,NA,NA,NA,NA
TRUE,NA,NA,NA,NA,NA,fullscreen,2,44907,0.0-2.0,68,1,2025-04-28T21:01:53Z,b60275e29fe2361ab97ac0ac217840d7,"Mozilla/5.0 (Macintosh; Intel Mac OS X 10_15_7) AppleWebKit/605.1.15 (KHTML, like Gecko) Version/17.6 Safari/605.1.15",Macintosh,Safari,17.6,OS X,10_15_7,https://5puzkbbxv1.cognition.run/?sona_id=55945,"en-US,en;q=0.9",1upgzkuzb8ojx43,I'm 19 years old.,"[""White""]",No,Male,NA,Yes,830330,NA,2376,NA,NA,NA,NA,NA,NA,NA,NA,NA,NA,NA,NA,NA,NA,NA,NA,NA,NA,NA,NA,NA,NA,NA,NA,NA
NA,NA,NA,NA,NA,choice_instructions,instructions,3,124232,0.0-3.0,68,1,2025-04-28T21:01:53Z,b60275e29fe2361ab97ac0ac217840d7,"Mozilla/5.0 (Macintosh; Intel Mac OS X 10_15_7) AppleWebKit/605.1.15 (KHTML, like Gecko) Version/17.6 Safari/605.1.15",Macintosh,Safari,17.6,OS X,10_15_7,https://5puzkbbxv1.cognition.run/?sona_id=55945,"en-US,en;q=0.9",1upgzkuzb8ojx43,I'm 19 years old.,"[""White""]",No,Male,NA,Yes,830330,"[{""page_index"":0,""viewing_time"":1589},{""page_index"":1,""viewing_time"":5985},{""page_index"":2,""viewing_time"":21251},{""page_index"":3,""viewing_time"":8806},{""page_index"":4,""viewing_time"":3363},{""page_index"":5,""viewing_time"":29740},{""page_index"":6,""viewing_time"":8591}]",79325,NA,NA,NA,NA,NA,NA,NA,NA,NA,NA,NA,NA,NA,NA,NA,NA,NA,NA,NA,NA,NA,NA,NA,NA,NA
NA,NA,NA,NA,NA,choice_trial_setup,html-keyboard-response,4,124535,0.0-4.0-0.0,68,1,2025-04-28T21:01:53Z,b60275e29fe2361ab97ac0ac217840d7,"Mozilla/5.0 (Macintosh; Intel Mac OS X 10_15_7) AppleWebKit/605.1.15 (KHTML, like Gecko) Version/17.6 Safari/605.1.15",Macintosh,Safari,17.6,OS X,10_15_7,https://5puzkbbxv1.cognition.run/?sona_id=55945,"en-US,en;q=0.9",1upgzkuzb8ojx43,I'm 19 years old.,"[""White""]",No,Male,NA,Yes,830330,NA,null,<p></p>,null,choice,ct,binary,repulsion,2,laptops,null,null,null,null,null,null,1,NA,NA,NA,NA,NA,NA,NA,NA,NA,NA
NA,NA,NA,NA,NA,choice_trial,survey-html-form,5,147074,0.0-4.0-1.0,68,1,2025-04-28T21:01:53Z,b60275e29fe2361ab97ac0ac217840d7,"Mozilla/5.0 (Macintosh; Intel Mac OS X 10_15_7) AppleWebKit/605.1.15 (KHTML, like Gecko) Version/17.6 Safari/605.1.15",Macintosh,Safari,17.6,OS X,10_15_7,https://5puzkbbxv1.cognition.run/?sona_id=55945,"en-US,en;q=0.9",1upgzkuzb8ojx43,I'm 19 years old.,"[""White""]",No,Male,NA,Yes,830330,NA,22535,NA,"{""product_choice"":""A""}",choice,ct,binary,repulsion,2,laptops,null,null,null,null,null,null,1,30,40,null,100,90,null,Processing speed,Memory (RAM),NA,NA
NA,NA,NA,NA,NA,choice_trial_setup,html-keyboard-response,6,147377,0.0-4.0-0.1,68,1,2025-04-28T21:01:53Z,b60275e29fe2361ab97ac0ac217840d7,"Mozilla/5.0 (Macintosh; Intel Mac OS X 10_15_7) AppleWebKit/605.1.15 (KHTML, like Gecko) Version/17.6 Safari/605.1.15",Macintosh,Safari,17.6,OS X,10_15_7,https://5puzkbbxv1.cognition.run/?sona_id=55945,"en-US,en;q=0.9",1upgzkuzb8ojx43,I'm 19 years old.,"[""White""]",No,Male,NA,Yes,830330,NA,null,<p></p>,null,choice,tdc,trinary,repulsion_B,2,washing machines,null,null,null,null,null,null,1,NA,NA,NA,NA,NA,NA,NA,NA,NA,NA
NA,NA,NA,NA,NA,choice_trial,survey-html-form,7,161117,0.0-4.0-1.1,68,1,2025-04-28T21:01:53Z,b60275e29fe2361ab97ac0ac217840d7,"Mozilla/5.0 (Macintosh; Intel Mac OS X 10_15_7) AppleWebKit/605.1.15 (KHTML, like Gecko) Version/17.6 Safari/605.1.15",Macintosh,Safari,17.6,OS X,10_15_7,https://5puzkbbxv1.cognition.run/?sona_id=55945,"en-US,en;q=0.9",1upgzkuzb8ojx43,I'm 19 years old.,"[""White""]",No,Male,NA,Yes,830330,NA,13737,NA,"{""product_choice"":""A""}",choice,tdc,trinary,repulsion_B,2,washing machines,null,null,null,null,null,null,1,40,30,40,90,100,80,Average lifespan,Energy savings,NA,NA
NA,NA,NA,NA,NA,choice_trial_setup,html-keyboard-response,8,161419,0.0-4.0-0.2,68,1,2025-04-28T21:01:53Z,b60275e29fe2361ab97ac0ac217840d7,"Mozilla/5.0 (Macintosh; Intel Mac OS X 10_15_7) AppleWebKit/605.1.15 (KHTML, like Gecko) Version/17.6 Safari/605.1.15",Macintosh,Safari,17.6,OS X,10_15_7,https://5puzkbbxv1.cognition.run/?sona_id=55945,"en-US,en;q=0.9",1upgzkuzb8ojx43,I'm 19 years old.,"[""White""]",No,Male,NA,Yes,830330,NA,null,<p></p>,null,choice,dct,trinary,attraction,2,laptops,null,null,null,null,null,null,2,NA,NA,NA,NA,NA,NA,NA,NA,NA,NA
NA,NA,NA,NA,NA,choice_trial,survey-html-form,9,171926,0.0-4.0-1.2,68,1,2025-04-28T21:01:53Z,b60275e29fe2361ab97ac0ac217840d7,"Mozilla/5.0 (Macintosh; Intel Mac OS X 10_15_7) AppleWebKit/605.1.15 (KHTML, like Gecko) Version/17.6 Safari/605.1.15",Macintosh,Safari,17.6,OS X,10_15_7,https://5puzkbbxv1.cognition.run/?sona_id=55945,"en-US,en;q=0.9",1upgzkuzb8ojx43,I'm 19 years old.,"[""White""]",No,Male,NA,Yes,830330,NA,10505,NA,"{""product_choice"":""B""}",choice,dct,trinary,attraction,2,laptops,null,null,null,null,null,null,2,50,60,40,60,50,60,Processing speed,Memory (RAM),NA,NA
NA,NA,NA,NA,NA,choice_trial_setup,html-keyboard-response,10,172228,0.0-4.0-0.3,68,1,2025-04-28T21:01:53Z,b60275e29fe2361ab97ac0ac217840d7,"Mozilla/5.0 (Macintosh; Intel Mac OS X 10_15_7) AppleWebKit/605.1.15 (KHTML, like Gecko) Version/17.6 Safari/605.1.15",Macintosh,Safari,17.6,OS X,10_15_7,https://5puzkbbxv1.cognition.run/?sona_id=55945,"en-US,en;q=0.9",1upgzkuzb8ojx43,I'm 19 years old.,"[""White""]",No,Male,NA,Yes,830330,NA,null,<p></p>,null,choice,tdc,trinary,attraction,1,microwave ovens,null,null,null,null,null,null,1,NA,NA,NA,NA,NA,NA,NA,NA,NA,NA
NA,NA,NA,NA,NA,choice_trial,survey-html-form,11,182155,0.0-4.0-1.3,68,1,2025-04-28T21:01:53Z,b60275e29fe2361ab97ac0ac217840d7,"Mozilla/5.0 (Macintosh; Intel Mac OS X 10_15_7) AppleWebKit/605.1.15 (KHTML, like Gecko) Version/17.6 Safari/605.1.15",Macintosh,Safari,17.6,OS X,10_15_7,https://5puzkbbxv1.cognition.run/?sona_id=55945,"en-US,en;q=0.9",1upgzkuzb8ojx43,I'm 19 years old.,"[""White""]",No,Male,NA,Yes,830330,NA,9925,NA,"{""product_choice"":""C""}",choice,tdc,trinary,attraction,1,microwave ovens,null,null,null,null,null,null,1,60,50,60,50,60,40,Warranty,Cooking power,NA,NA
NA,NA,NA,NA,NA,choice_trial_setup,html-keyboard-response,12,182457,0.0-4.0-0.4,68,1,2025-04-28T21:01:53Z,b60275e29fe2361ab97ac0ac217840d7,"Mozilla/5.0 (Macintosh; Intel Mac OS X 10_15_7) AppleWebKit/605.1.15 (KHTML, like Gecko) Version/17.6 Safari/605.1.15",Macintosh,Safari,17.6,OS X,10_15_7,https://5puzkbbxv1.cognition.run/?sona_id=55945,"en-US,en;q=0.9",1upgzkuzb8ojx43,I'm 19 years old.,"[""White""]",No,Male,NA,Yes,830330,NA,null,<p></p>,null,choice,tcd,trinary,repulsion_A,2,microwave ovens,null,null,null,null,null,null,1,NA,NA,NA,NA,NA,NA,NA,NA,NA,NA
NA,NA,NA,NA,NA,choice_trial,survey-html-form,13,191195,0.0-4.0-1.4,68,1,2025-04-28T21:01:53Z,b60275e29fe2361ab97ac0ac217840d7,"Mozilla/5.0 (Macintosh; Intel Mac OS X 10_15_7) AppleWebKit/605.1.15 (KHTML, like Gecko) Version/17.6 Safari/605.1.15",Macintosh,Safari,17.6,OS X,10_15_7,https://5puzkbbxv1.cognition.run/?sona_id=55945,"en-US,en;q=0.9",1upgzkuzb8ojx43,I'm 19 years old.,"[""White""]",No,Male,NA,Yes,830330,NA,8735,NA,"{""product_choice"":""A""}",choice,tcd,trinary,repulsion_A,2,microwave ovens,null,null,null,null,null,null,1,30,40,20,100,90,100,Warranty,Cooking power,NA,NA
NA,NA,NA,NA,NA,choice_trial_setup,html-keyboard-response,14,191497,0.0-4.0-0.5,68,1,2025-04-28T21:01:53Z,b60275e29fe2361ab97ac0ac217840d7,"Mozilla/5.0 (Macintosh; Intel Mac OS X 10_15_7) AppleWebKit/605.1.15 (KHTML, like Gecko) Version/17.6 Safari/605.1.15",Macintosh,Safari,17.6,OS X,10_15_7,https://5puzkbbxv1.cognition.run/?sona_id=55945,"en-US,en;q=0.9",1upgzkuzb8ojx43,I'm 19 years old.,"[""White""]",No,Male,NA,Yes,830330,NA,null,<p></p>,null,choice,tc,binary,attraction,NA,laptops,null,null,null,null,null,null,1,NA,NA,NA,NA,NA,NA,NA,NA,NA,NA
NA,NA,NA,NA,NA,choice_trial,survey-html-form,15,199126,0.0-4.0-1.5,68,1,2025-04-28T21:01:53Z,b60275e29fe2361ab97ac0ac217840d7,"Mozilla/5.0 (Macintosh; Intel Mac OS X 10_15_7) AppleWebKit/605.1.15 (KHTML, like Gecko) Version/17.6 Safari/605.1.15",Macintosh,Safari,17.6,OS X,10_15_7,https://5puzkbbxv1.cognition.run/?sona_id=55945,"en-US,en;q=0.9",1upgzkuzb8ojx43,I'm 19 years old.,"[""White""]",No,Male,NA,Yes,830330,NA,7626,NA,"{""product_choice"":""A""}",choice,tc,binary,attraction,NA,laptops,null,null,null,null,null,null,1,60,50,null,50,60,null,Processing speed,Memory (RAM),NA,NA
NA,NA,NA,NA,NA,choice_trial_setup,html-keyboard-response,16,199428,0.0-4.0-0.6,68,1,2025-04-28T21:01:53Z,b60275e29fe2361ab97ac0ac217840d7,"Mozilla/5.0 (Macintosh; Intel Mac OS X 10_15_7) AppleWebKit/605.1.15 (KHTML, like Gecko) Version/17.6 Safari/605.1.15",Macintosh,Safari,17.6,OS X,10_15_7,https://5puzkbbxv1.cognition.run/?sona_id=55945,"en-US,en;q=0.9",1upgzkuzb8ojx43,I'm 19 years old.,"[""White""]",No,Male,NA,Yes,830330,NA,null,<p></p>,null,choice,wwb,trinary,catch,null,washing machines,90,50,40,15,45,20,1,NA,NA,NA,NA,NA,NA,NA,NA,NA,NA
NA,NA,NA,NA,NA,choice_trial,survey-html-form,17,208999,0.0-4.0-1.6,68,1,2025-04-28T21:01:53Z,b60275e29fe2361ab97ac0ac217840d7,"Mozilla/5.0 (Macintosh; Intel Mac OS X 10_15_7) AppleWebKit/605.1.15 (KHTML, like Gecko) Version/17.6 Safari/605.1.15",Macintosh,Safari,17.6,OS X,10_15_7,https://5puzkbbxv1.cognition.run/?sona_id=55945,"en-US,en;q=0.9",1upgzkuzb8ojx43,I'm 19 years old.,"[""White""]",No,Male,NA,Yes,830330,NA,9569,NA,"{""product_choice"":""C""}",choice,wwb,trinary,catch,null,washing machines,90,50,40,15,45,20,1,null,null,null,null,null,null,Average lifespan,Energy savings,NA,NA
NA,NA,NA,NA,NA,choice_trial_setup,html-keyboard-response,18,209301,0.0-4.0-0.7,68,1,2025-04-28T21:01:53Z,b60275e29fe2361ab97ac0ac217840d7,"Mozilla/5.0 (Macintosh; Intel Mac OS X 10_15_7) AppleWebKit/605.1.15 (KHTML, like Gecko) Version/17.6 Safari/605.1.15",Macintosh,Safari,17.6,OS X,10_15_7,https://5puzkbbxv1.cognition.run/?sona_id=55945,"en-US,en;q=0.9",1upgzkuzb8ojx43,I'm 19 years old.,"[""White""]",No,Male,NA,Yes,830330,NA,null,<p></p>,null,choice,wwb,trinary,catch,null,televisions,55,60,15,20,50,15,2,NA,NA,NA,NA,NA,NA,NA,NA,NA,NA
NA,NA,NA,NA,NA,choice_trial,survey-html-form,19,213742,0.0-4.0-1.7,68,1,2025-04-28T21:01:53Z,b60275e29fe2361ab97ac0ac217840d7,"Mozilla/5.0 (Macintosh; Intel Mac OS X 10_15_7) AppleWebKit/605.1.15 (KHTML, like Gecko) Version/17.6 Safari/605.1.15",Macintosh,Safari,17.6,OS X,10_15_7,https://5puzkbbxv1.cognition.run/?sona_id=55945,"en-US,en;q=0.9",1upgzkuzb8ojx43,I'm 19 years old.,"[""White""]",No,Male,NA,Yes,830330,NA,4438,NA,"{""product_choice"":""C""}",choice,wwb,trinary,catch,null,televisions,55,60,15,20,50,15,2,null,null,null,null,null,null,Screen size,Average lifespan,NA,NA
NA,NA,NA,NA,NA,choice_trial_setup,html-keyboard-response,20,214043,0.0-4.0-0.8,68,1,2025-04-28T21:01:53Z,b60275e29fe2361ab97ac0ac217840d7,"Mozilla/5.0 (Macintosh; Intel Mac OS X 10_15_7) AppleWebKit/605.1.15 (KHTML, like Gecko) Version/17.6 Safari/605.1.15",Macintosh,Safari,17.6,OS X,10_15_7,https://5puzkbbxv1.cognition.run/?sona_id=55945,"en-US,en;q=0.9",1upgzkuzb8ojx43,I'm 19 years old.,"[""White""]",No,Male,NA,Yes,830330,NA,null,<p></p>,null,choice,dtc,trinary,repulsion_B,1,microwave ovens,null,null,null,null,null,null,1,NA,NA,NA,NA,NA,NA,NA,NA,NA,NA
NA,NA,NA,NA,NA,choice_trial,survey-html-form,21,219115,0.0-4.0-1.8,68,1,2025-04-28T21:01:53Z,b60275e29fe2361ab97ac0ac217840d7,"Mozilla/5.0 (Macintosh; Intel Mac OS X 10_15_7) AppleWebKit/605.1.15 (KHTML, like Gecko) Version/17.6 Safari/605.1.15",Macintosh,Safari,17.6,OS X,10_15_7,https://5puzkbbxv1.cognition.run/?sona_id=55945,"en-US,en;q=0.9",1upgzkuzb8ojx43,I'm 19 years old.,"[""White""]",No,Male,NA,Yes,830330,NA,5069,NA,"{""product_choice"":""B""}",choice,dtc,trinary,repulsion_B,1,microwave ovens,null,null,null,null,null,null,1,90,100,80,40,30,40,Warranty,Cooking power,NA,NA
NA,NA,NA,NA,NA,choice_trial_setup,html-keyboard-response,22,219416,0.0-4.0-0.9,68,1,2025-04-28T21:01:53Z,b60275e29fe2361ab97ac0ac217840d7,"Mozilla/5.0 (Macintosh; Intel Mac OS X 10_15_7) AppleWebKit/605.1.15 (KHTML, like Gecko) Version/17.6 Safari/605.1.15",Macintosh,Safari,17.6,OS X,10_15_7,https://5puzkbbxv1.cognition.run/?sona_id=55945,"en-US,en;q=0.9",1upgzkuzb8ojx43,I'm 19 years old.,"[""White""]",No,Male,NA,Yes,830330,NA,null,<p></p>,null,choice,wbw,trinary,catch,null,microwave ovens,75,60,35,50,40,10,2,NA,NA,NA,NA,NA,NA,NA,NA,NA,NA
NA,NA,NA,NA,NA,choice_trial,survey-html-form,23,227474,0.0-4.0-1.9,68,1,2025-04-28T21:01:53Z,b60275e29fe2361ab97ac0ac217840d7,"Mozilla/5.0 (Macintosh; Intel Mac OS X 10_15_7) AppleWebKit/605.1.15 (KHTML, like Gecko) Version/17.6 Safari/605.1.15",Macintosh,Safari,17.6,OS X,10_15_7,https://5puzkbbxv1.cognition.run/?sona_id=55945,"en-US,en;q=0.9",1upgzkuzb8ojx43,I'm 19 years old.,"[""White""]",No,Male,NA,Yes,830330,NA,8056,NA,"{""product_choice"":""B""}",choice,wbw,trinary,catch,null,microwave ovens,75,60,35,50,40,10,2,null,null,null,null,null,null,Warranty,Cooking power,NA,NA
NA,NA,NA,NA,NA,choice_trial_setup,html-keyboard-response,24,227776,0.0-4.0-0.10,68,1,2025-04-28T21:01:53Z,b60275e29fe2361ab97ac0ac217840d7,"Mozilla/5.0 (Macintosh; Intel Mac OS X 10_15_7) AppleWebKit/605.1.15 (KHTML, like Gecko) Version/17.6 Safari/605.1.15",Macintosh,Safari,17.6,OS X,10_15_7,https://5puzkbbxv1.cognition.run/?sona_id=55945,"en-US,en;q=0.9",1upgzkuzb8ojx43,I'm 19 years old.,"[""White""]",No,Male,NA,Yes,830330,NA,null,<p></p>,null,choice,tc,binary,repulsion,2,microwave ovens,null,null,null,null,null,null,2,NA,NA,NA,NA,NA,NA,NA,NA,NA,NA
NA,NA,NA,NA,NA,choice_trial,survey-html-form,25,231115,0.0-4.0-1.10,68,1,2025-04-28T21:01:53Z,b60275e29fe2361ab97ac0ac217840d7,"Mozilla/5.0 (Macintosh; Intel Mac OS X 10_15_7) AppleWebKit/605.1.15 (KHTML, like Gecko) Version/17.6 Safari/605.1.15",Macintosh,Safari,17.6,OS X,10_15_7,https://5puzkbbxv1.cognition.run/?sona_id=55945,"en-US,en;q=0.9",1upgzkuzb8ojx43,I'm 19 years old.,"[""White""]",No,Male,NA,Yes,830330,NA,3336,NA,"{""product_choice"":""B""}",choice,tc,binary,repulsion,2,microwave ovens,null,null,null,null,null,null,2,30,40,null,100,90,null,Warranty,Cooking power,NA,NA
NA,NA,NA,NA,NA,choice_trial_setup,html-keyboard-response,26,231417,0.0-4.0-0.11,68,1,2025-04-28T21:01:53Z,b60275e29fe2361ab97ac0ac217840d7,"Mozilla/5.0 (Macintosh; Intel Mac OS X 10_15_7) AppleWebKit/605.1.15 (KHTML, like Gecko) Version/17.6 Safari/605.1.15",Macintosh,Safari,17.6,OS X,10_15_7,https://5puzkbbxv1.cognition.run/?sona_id=55945,"en-US,en;q=0.9",1upgzkuzb8ojx43,I'm 19 years old.,"[""White""]",No,Male,NA,Yes,830330,NA,null,<p></p>,null,choice,dct,trinary,repulsion_A,2,televisions,null,null,null,null,null,null,1,NA,NA,NA,NA,NA,NA,NA,NA,NA,NA
NA,NA,NA,NA,NA,choice_trial,survey-html-form,27,240194,0.0-4.0-1.11,68,1,2025-04-28T21:01:53Z,b60275e29fe2361ab97ac0ac217840d7,"Mozilla/5.0 (Macintosh; Intel Mac OS X 10_15_7) AppleWebKit/605.1.15 (KHTML, like Gecko) Version/17.6 Safari/605.1.15",Macintosh,Safari,17.6,OS X,10_15_7,https://5puzkbbxv1.cognition.run/?sona_id=55945,"en-US,en;q=0.9",1upgzkuzb8ojx43,I'm 19 years old.,"[""White""]",No,Male,NA,Yes,830330,NA,8774,NA,"{""product_choice"":""B""}",choice,dct,trinary,repulsion_A,2,televisions,null,null,null,null,null,null,1,30,40,20,100,90,100,Screen size,Average lifespan,NA,NA
NA,NA,NA,NA,NA,choice_trial_setup,html-keyboard-response,28,240495,0.0-4.0-0.12,68,1,2025-04-28T21:01:53Z,b60275e29fe2361ab97ac0ac217840d7,"Mozilla/5.0 (Macintosh; Intel Mac OS X 10_15_7) AppleWebKit/605.1.15 (KHTML, like Gecko) Version/17.6 Safari/605.1.15",Macintosh,Safari,17.6,OS X,10_15_7,https://5puzkbbxv1.cognition.run/?sona_id=55945,"en-US,en;q=0.9",1upgzkuzb8ojx43,I'm 19 years old.,"[""White""]",No,Male,NA,Yes,830330,NA,null,<p></p>,null,choice,ctd,trinary,repulsion_A,1,washing machines,null,null,null,null,null,null,1,NA,NA,NA,NA,NA,NA,NA,NA,NA,NA
NA,NA,NA,NA,NA,choice_trial,survey-html-form,29,244693,0.0-4.0-1.12,68,1,2025-04-28T21:01:53Z,b60275e29fe2361ab97ac0ac217840d7,"Mozilla/5.0 (Macintosh; Intel Mac OS X 10_15_7) AppleWebKit/605.1.15 (KHTML, like Gecko) Version/17.6 Safari/605.1.15",Macintosh,Safari,17.6,OS X,10_15_7,https://5puzkbbxv1.cognition.run/?sona_id=55945,"en-US,en;q=0.9",1upgzkuzb8ojx43,I'm 19 years old.,"[""White""]",No,Male,NA,Yes,830330,NA,4196,NA,"{""product_choice"":""A""}",choice,ctd,trinary,repulsion_A,1,washing machines,null,null,null,null,null,null,1,100,90,100,30,40,20,Average lifespan,Energy savings,NA,NA
NA,NA,NA,NA,NA,choice_trial_setup,html-keyboard-response,30,244995,0.0-4.0-0.13,68,1,2025-04-28T21:01:53Z,b60275e29fe2361ab97ac0ac217840d7,"Mozilla/5.0 (Macintosh; Intel Mac OS X 10_15_7) AppleWebKit/605.1.15 (KHTML, like Gecko) Version/17.6 Safari/605.1.15",Macintosh,Safari,17.6,OS X,10_15_7,https://5puzkbbxv1.cognition.run/?sona_id=55945,"en-US,en;q=0.9",1upgzkuzb8ojx43,I'm 19 years old.,"[""White""]",No,Male,NA,Yes,830330,NA,null,<p></p>,null,choice,tc,binary,repulsion,2,washing machines,null,null,null,null,null,null,2,NA,NA,NA,NA,NA,NA,NA,NA,NA,NA
NA,NA,NA,NA,NA,choice_trial,survey-html-form,31,253117,0.0-4.0-1.13,68,1,2025-04-28T21:01:53Z,b60275e29fe2361ab97ac0ac217840d7,"Mozilla/5.0 (Macintosh; Intel Mac OS X 10_15_7) AppleWebKit/605.1.15 (KHTML, like Gecko) Version/17.6 Safari/605.1.15",Macintosh,Safari,17.6,OS X,10_15_7,https://5puzkbbxv1.cognition.run/?sona_id=55945,"en-US,en;q=0.9",1upgzkuzb8ojx43,I'm 19 years old.,"[""White""]",No,Male,NA,Yes,830330,NA,8119,NA,"{""product_choice"":""B""}",choice,tc,binary,repulsion,2,washing machines,null,null,null,null,null,null,2,30,40,null,100,90,null,Average lifespan,Energy savings,NA,NA
NA,NA,NA,NA,NA,choice_trial_setup,html-keyboard-response,32,253419,0.0-4.0-0.14,68,1,2025-04-28T21:01:53Z,b60275e29fe2361ab97ac0ac217840d7,"Mozilla/5.0 (Macintosh; Intel Mac OS X 10_15_7) AppleWebKit/605.1.15 (KHTML, like Gecko) Version/17.6 Safari/605.1.15",Macintosh,Safari,17.6,OS X,10_15_7,https://5puzkbbxv1.cognition.run/?sona_id=55945,"en-US,en;q=0.9",1upgzkuzb8ojx43,I'm 19 years old.,"[""White""]",No,Male,NA,Yes,830330,NA,null,<p></p>,null,choice,ctd,trinary,attraction,2,washing machines,null,null,null,null,null,null,1,NA,NA,NA,NA,NA,NA,NA,NA,NA,NA
NA,NA,NA,NA,NA,choice_trial,survey-html-form,33,261622,0.0-4.0-1.14,68,1,2025-04-28T21:01:53Z,b60275e29fe2361ab97ac0ac217840d7,"Mozilla/5.0 (Macintosh; Intel Mac OS X 10_15_7) AppleWebKit/605.1.15 (KHTML, like Gecko) Version/17.6 Safari/605.1.15",Macintosh,Safari,17.6,OS X,10_15_7,https://5puzkbbxv1.cognition.run/?sona_id=55945,"en-US,en;q=0.9",1upgzkuzb8ojx43,I'm 19 years old.,"[""White""]",No,Male,NA,Yes,830330,NA,8200,NA,"{""product_choice"":""A""}",choice,ctd,trinary,attraction,2,washing machines,null,null,null,null,null,null,1,50,60,40,60,50,60,Average lifespan,Energy savings,NA,NA
NA,NA,NA,NA,NA,choice_trial_setup,html-keyboard-response,34,261924,0.0-4.0-0.15,68,1,2025-04-28T21:01:53Z,b60275e29fe2361ab97ac0ac217840d7,"Mozilla/5.0 (Macintosh; Intel Mac OS X 10_15_7) AppleWebKit/605.1.15 (KHTML, like Gecko) Version/17.6 Safari/605.1.15",Macintosh,Safari,17.6,OS X,10_15_7,https://5puzkbbxv1.cognition.run/?sona_id=55945,"en-US,en;q=0.9",1upgzkuzb8ojx43,I'm 19 years old.,"[""White""]",No,Male,NA,Yes,830330,NA,null,<p></p>,null,choice,dtc,trinary,repulsion_A,1,televisions,null,null,null,null,null,null,1,NA,NA,NA,NA,NA,NA,NA,NA,NA,NA
NA,NA,NA,NA,NA,choice_trial,survey-html-form,35,268541,0.0-4.0-1.15,68,1,2025-04-28T21:01:53Z,b60275e29fe2361ab97ac0ac217840d7,"Mozilla/5.0 (Macintosh; Intel Mac OS X 10_15_7) AppleWebKit/605.1.15 (KHTML, like Gecko) Version/17.6 Safari/605.1.15",Macintosh,Safari,17.6,OS X,10_15_7,https://5puzkbbxv1.cognition.run/?sona_id=55945,"en-US,en;q=0.9",1upgzkuzb8ojx43,I'm 19 years old.,"[""White""]",No,Male,NA,Yes,830330,NA,6614,NA,"{""product_choice"":""C""}",choice,dtc,trinary,repulsion_A,1,televisions,null,null,null,null,null,null,1,100,90,100,30,40,20,Screen size,Average lifespan,NA,NA
NA,NA,NA,NA,NA,choice_trial_setup,html-keyboard-response,36,268843,0.0-4.0-0.16,68,1,2025-04-28T21:01:53Z,b60275e29fe2361ab97ac0ac217840d7,"Mozilla/5.0 (Macintosh; Intel Mac OS X 10_15_7) AppleWebKit/605.1.15 (KHTML, like Gecko) Version/17.6 Safari/605.1.15",Macintosh,Safari,17.6,OS X,10_15_7,https://5puzkbbxv1.cognition.run/?sona_id=55945,"en-US,en;q=0.9",1upgzkuzb8ojx43,I'm 19 years old.,"[""White""]",No,Male,NA,Yes,830330,NA,null,<p></p>,null,choice,dct,trinary,attraction,2,microwave ovens,null,null,null,null,null,null,1,NA,NA,NA,NA,NA,NA,NA,NA,NA,NA
NA,NA,NA,NA,NA,choice_trial,survey-html-form,37,274676,0.0-4.0-1.16,68,1,2025-04-28T21:01:53Z,b60275e29fe2361ab97ac0ac217840d7,"Mozilla/5.0 (Macintosh; Intel Mac OS X 10_15_7) AppleWebKit/605.1.15 (KHTML, like Gecko) Version/17.6 Safari/605.1.15",Macintosh,Safari,17.6,OS X,10_15_7,https://5puzkbbxv1.cognition.run/?sona_id=55945,"en-US,en;q=0.9",1upgzkuzb8ojx43,I'm 19 years old.,"[""White""]",No,Male,NA,Yes,830330,NA,5830,NA,"{""product_choice"":""C""}",choice,dct,trinary,attraction,2,microwave ovens,null,null,null,null,null,null,1,50,60,40,60,50,60,Warranty,Cooking power,NA,NA
NA,NA,NA,NA,NA,choice_trial_setup,html-keyboard-response,38,274978,0.0-4.0-0.17,68,1,2025-04-28T21:01:53Z,b60275e29fe2361ab97ac0ac217840d7,"Mozilla/5.0 (Macintosh; Intel Mac OS X 10_15_7) AppleWebKit/605.1.15 (KHTML, like Gecko) Version/17.6 Safari/605.1.15",Macintosh,Safari,17.6,OS X,10_15_7,https://5puzkbbxv1.cognition.run/?sona_id=55945,"en-US,en;q=0.9",1upgzkuzb8ojx43,I'm 19 years old.,"[""White""]",No,Male,NA,Yes,830330,NA,null,<p></p>,null,choice,dtc,trinary,repulsion_B,1,washing machines,null,null,null,null,null,null,1,NA,NA,NA,NA,NA,NA,NA,NA,NA,NA
NA,NA,NA,NA,NA,choice_trial,survey-html-form,39,283117,0.0-4.0-1.17,68,1,2025-04-28T21:01:53Z,b60275e29fe2361ab97ac0ac217840d7,"Mozilla/5.0 (Macintosh; Intel Mac OS X 10_15_7) AppleWebKit/605.1.15 (KHTML, like Gecko) Version/17.6 Safari/605.1.15",Macintosh,Safari,17.6,OS X,10_15_7,https://5puzkbbxv1.cognition.run/?sona_id=55945,"en-US,en;q=0.9",1upgzkuzb8ojx43,I'm 19 years old.,"[""White""]",No,Male,NA,Yes,830330,NA,8136,NA,"{""product_choice"":""B""}",choice,dtc,trinary,repulsion_B,1,washing machines,null,null,null,null,null,null,1,90,100,80,40,30,40,Average lifespan,Energy savings,NA,NA
NA,NA,NA,NA,NA,choice_trial_setup,html-keyboard-response,40,283419,0.0-4.0-0.18,68,1,2025-04-28T21:01:53Z,b60275e29fe2361ab97ac0ac217840d7,"Mozilla/5.0 (Macintosh; Intel Mac OS X 10_15_7) AppleWebKit/605.1.15 (KHTML, like Gecko) Version/17.6 Safari/605.1.15",Macintosh,Safari,17.6,OS X,10_15_7,https://5puzkbbxv1.cognition.run/?sona_id=55945,"en-US,en;q=0.9",1upgzkuzb8ojx43,I'm 19 years old.,"[""White""]",No,Male,NA,Yes,830330,NA,null,<p></p>,null,choice,tc,binary,attraction,NA,televisions,null,null,null,null,null,null,2,NA,NA,NA,NA,NA,NA,NA,NA,NA,NA
NA,NA,NA,NA,NA,choice_trial,survey-html-form,41,288407,0.0-4.0-1.18,68,1,2025-04-28T21:01:53Z,b60275e29fe2361ab97ac0ac217840d7,"Mozilla/5.0 (Macintosh; Intel Mac OS X 10_15_7) AppleWebKit/605.1.15 (KHTML, like Gecko) Version/17.6 Safari/605.1.15",Macintosh,Safari,17.6,OS X,10_15_7,https://5puzkbbxv1.cognition.run/?sona_id=55945,"en-US,en;q=0.9",1upgzkuzb8ojx43,I'm 19 years old.,"[""White""]",No,Male,NA,Yes,830330,NA,4985,NA,"{""product_choice"":""B""}",choice,tc,binary,attraction,NA,televisions,null,null,null,null,null,null,2,60,50,null,50,60,null,Screen size,Average lifespan,NA,NA
NA,NA,NA,NA,NA,choice_trial_setup,html-keyboard-response,42,288710,0.0-4.0-0.19,68,1,2025-04-28T21:01:53Z,b60275e29fe2361ab97ac0ac217840d7,"Mozilla/5.0 (Macintosh; Intel Mac OS X 10_15_7) AppleWebKit/605.1.15 (KHTML, like Gecko) Version/17.6 Safari/605.1.15",Macintosh,Safari,17.6,OS X,10_15_7,https://5puzkbbxv1.cognition.run/?sona_id=55945,"en-US,en;q=0.9",1upgzkuzb8ojx43,I'm 19 years old.,"[""White""]",No,Male,NA,Yes,830330,NA,null,<p></p>,null,choice,cdt,trinary,repulsion_A,1,microwave ovens,null,null,null,null,null,null,1,NA,NA,NA,NA,NA,NA,NA,NA,NA,NA
NA,NA,NA,NA,NA,choice_trial,survey-html-form,43,294696,0.0-4.0-1.19,68,1,2025-04-28T21:01:53Z,b60275e29fe2361ab97ac0ac217840d7,"Mozilla/5.0 (Macintosh; Intel Mac OS X 10_15_7) AppleWebKit/605.1.15 (KHTML, like Gecko) Version/17.6 Safari/605.1.15",Macintosh,Safari,17.6,OS X,10_15_7,https://5puzkbbxv1.cognition.run/?sona_id=55945,"en-US,en;q=0.9",1upgzkuzb8ojx43,I'm 19 years old.,"[""White""]",No,Male,NA,Yes,830330,NA,5983,NA,"{""product_choice"":""A""}",choice,cdt,trinary,repulsion_A,1,microwave ovens,null,null,null,null,null,null,1,100,90,100,30,40,20,Warranty,Cooking power,NA,NA
NA,NA,NA,NA,NA,choice_trial_setup,html-keyboard-response,44,294997,0.0-4.0-0.20,68,1,2025-04-28T21:01:53Z,b60275e29fe2361ab97ac0ac217840d7,"Mozilla/5.0 (Macintosh; Intel Mac OS X 10_15_7) AppleWebKit/605.1.15 (KHTML, like Gecko) Version/17.6 Safari/605.1.15",Macintosh,Safari,17.6,OS X,10_15_7,https://5puzkbbxv1.cognition.run/?sona_id=55945,"en-US,en;q=0.9",1upgzkuzb8ojx43,I'm 19 years old.,"[""White""]",No,Male,NA,Yes,830330,NA,null,<p></p>,null,choice,dct,trinary,repulsion_B,1,televisions,null,null,null,null,null,null,1,NA,NA,NA,NA,NA,NA,NA,NA,NA,NA
NA,NA,NA,NA,NA,choice_trial,survey-html-form,45,302664,0.0-4.0-1.20,68,1,2025-04-28T21:01:53Z,b60275e29fe2361ab97ac0ac217840d7,"Mozilla/5.0 (Macintosh; Intel Mac OS X 10_15_7) AppleWebKit/605.1.15 (KHTML, like Gecko) Version/17.6 Safari/605.1.15",Macintosh,Safari,17.6,OS X,10_15_7,https://5puzkbbxv1.cognition.run/?sona_id=55945,"en-US,en;q=0.9",1upgzkuzb8ojx43,I'm 19 years old.,"[""White""]",No,Male,NA,Yes,830330,NA,7663,NA,"{""product_choice"":""C""}",choice,dct,trinary,repulsion_B,1,televisions,null,null,null,null,null,null,1,90,100,80,40,30,40,Screen size,Average lifespan,NA,NA
NA,NA,NA,NA,NA,choice_trial_setup,html-keyboard-response,46,302966,0.0-4.0-0.21,68,1,2025-04-28T21:01:53Z,b60275e29fe2361ab97ac0ac217840d7,"Mozilla/5.0 (Macintosh; Intel Mac OS X 10_15_7) AppleWebKit/605.1.15 (KHTML, like Gecko) Version/17.6 Safari/605.1.15",Macintosh,Safari,17.6,OS X,10_15_7,https://5puzkbbxv1.cognition.run/?sona_id=55945,"en-US,en;q=0.9",1upgzkuzb8ojx43,I'm 19 years old.,"[""White""]",No,Male,NA,Yes,830330,NA,null,<p></p>,null,choice,ctd,trinary,attraction,1,washing machines,null,null,null,null,null,null,2,NA,NA,NA,NA,NA,NA,NA,NA,NA,NA
NA,NA,NA,NA,NA,choice_trial,survey-html-form,47,310360,0.0-4.0-1.21,68,1,2025-04-28T21:01:53Z,b60275e29fe2361ab97ac0ac217840d7,"Mozilla/5.0 (Macintosh; Intel Mac OS X 10_15_7) AppleWebKit/605.1.15 (KHTML, like Gecko) Version/17.6 Safari/605.1.15",Macintosh,Safari,17.6,OS X,10_15_7,https://5puzkbbxv1.cognition.run/?sona_id=55945,"en-US,en;q=0.9",1upgzkuzb8ojx43,I'm 19 years old.,"[""White""]",No,Male,NA,Yes,830330,NA,7386,NA,"{""product_choice"":""B""}",choice,ctd,trinary,attraction,1,washing machines,null,null,null,null,null,null,2,60,50,60,50,60,40,Average lifespan,Energy savings,NA,NA
NA,NA,NA,NA,NA,choice_trial_setup,html-keyboard-response,48,310662,0.0-4.0-0.22,68,1,2025-04-28T21:01:53Z,b60275e29fe2361ab97ac0ac217840d7,"Mozilla/5.0 (Macintosh; Intel Mac OS X 10_15_7) AppleWebKit/605.1.15 (KHTML, like Gecko) Version/17.6 Safari/605.1.15",Macintosh,Safari,17.6,OS X,10_15_7,https://5puzkbbxv1.cognition.run/?sona_id=55945,"en-US,en;q=0.9",1upgzkuzb8ojx43,I'm 19 years old.,"[""White""]",No,Male,NA,Yes,830330,NA,null,<p></p>,null,choice,dtc,trinary,attraction,2,televisions,null,null,null,null,null,null,2,NA,NA,NA,NA,NA,NA,NA,NA,NA,NA
NA,NA,NA,NA,NA,choice_trial,survey-html-form,49,317059,0.0-4.0-1.22,68,1,2025-04-28T21:01:53Z,b60275e29fe2361ab97ac0ac217840d7,"Mozilla/5.0 (Macintosh; Intel Mac OS X 10_15_7) AppleWebKit/605.1.15 (KHTML, like Gecko) Version/17.6 Safari/605.1.15",Macintosh,Safari,17.6,OS X,10_15_7,https://5puzkbbxv1.cognition.run/?sona_id=55945,"en-US,en;q=0.9",1upgzkuzb8ojx43,I'm 19 years old.,"[""White""]",No,Male,NA,Yes,830330,NA,6394,NA,"{""product_choice"":""C""}",choice,dtc,trinary,attraction,2,televisions,null,null,null,null,null,null,2,50,60,40,60,50,60,Screen size,Average lifespan,NA,NA
NA,NA,NA,NA,NA,choice_trial_setup,html-keyboard-response,50,317361,0.0-4.0-0.23,68,1,2025-04-28T21:01:53Z,b60275e29fe2361ab97ac0ac217840d7,"Mozilla/5.0 (Macintosh; Intel Mac OS X 10_15_7) AppleWebKit/605.1.15 (KHTML, like Gecko) Version/17.6 Safari/605.1.15",Macintosh,Safari,17.6,OS X,10_15_7,https://5puzkbbxv1.cognition.run/?sona_id=55945,"en-US,en;q=0.9",1upgzkuzb8ojx43,I'm 19 years old.,"[""White""]",No,Male,NA,Yes,830330,NA,null,<p></p>,null,choice,ct,binary,repulsion,1,laptops,null,null,null,null,null,null,1,NA,NA,NA,NA,NA,NA,NA,NA,NA,NA
NA,NA,NA,NA,NA,choice_trial,survey-html-form,51,321340,0.0-4.0-1.23,68,1,2025-04-28T21:01:53Z,b60275e29fe2361ab97ac0ac217840d7,"Mozilla/5.0 (Macintosh; Intel Mac OS X 10_15_7) AppleWebKit/605.1.15 (KHTML, like Gecko) Version/17.6 Safari/605.1.15",Macintosh,Safari,17.6,OS X,10_15_7,https://5puzkbbxv1.cognition.run/?sona_id=55945,"en-US,en;q=0.9",1upgzkuzb8ojx43,I'm 19 years old.,"[""White""]",No,Male,NA,Yes,830330,NA,3975,NA,"{""product_choice"":""A""}",choice,ct,binary,repulsion,1,laptops,null,null,null,null,null,null,1,100,90,null,30,40,null,Processing speed,Memory (RAM),NA,NA
NA,NA,NA,NA,NA,choice_trial_setup,html-keyboard-response,52,321642,0.0-4.0-0.24,68,1,2025-04-28T21:01:53Z,b60275e29fe2361ab97ac0ac217840d7,"Mozilla/5.0 (Macintosh; Intel Mac OS X 10_15_7) AppleWebKit/605.1.15 (KHTML, like Gecko) Version/17.6 Safari/605.1.15",Macintosh,Safari,17.6,OS X,10_15_7,https://5puzkbbxv1.cognition.run/?sona_id=55945,"en-US,en;q=0.9",1upgzkuzb8ojx43,I'm 19 years old.,"[""White""]",No,Male,NA,Yes,830330,NA,null,<p></p>,null,choice,ctd,trinary,repulsion_A,2,washing machines,null,null,null,null,null,null,2,NA,NA,NA,NA,NA,NA,NA,NA,NA,NA
NA,NA,NA,NA,NA,choice_trial,survey-html-form,53,328697,0.0-4.0-1.24,68,1,2025-04-28T21:01:53Z,b60275e29fe2361ab97ac0ac217840d7,"Mozilla/5.0 (Macintosh; Intel Mac OS X 10_15_7) AppleWebKit/605.1.15 (KHTML, like Gecko) Version/17.6 Safari/605.1.15",Macintosh,Safari,17.6,OS X,10_15_7,https://5puzkbbxv1.cognition.run/?sona_id=55945,"en-US,en;q=0.9",1upgzkuzb8ojx43,I'm 19 years old.,"[""White""]",No,Male,NA,Yes,830330,NA,7050,NA,"{""product_choice"":""A""}",choice,ctd,trinary,repulsion_A,2,washing machines,null,null,null,null,null,null,2,30,40,20,100,90,100,Average lifespan,Energy savings,NA,NA
NA,NA,NA,NA,NA,choice_trial_setup,html-keyboard-response,54,328999,0.0-4.0-0.25,68,1,2025-04-28T21:01:53Z,b60275e29fe2361ab97ac0ac217840d7,"Mozilla/5.0 (Macintosh; Intel Mac OS X 10_15_7) AppleWebKit/605.1.15 (KHTML, like Gecko) Version/17.6 Safari/605.1.15",Macintosh,Safari,17.6,OS X,10_15_7,https://5puzkbbxv1.cognition.run/?sona_id=55945,"en-US,en;q=0.9",1upgzkuzb8ojx43,I'm 19 years old.,"[""White""]",No,Male,NA,Yes,830330,NA,null,<p></p>,null,choice,ct,binary,repulsion,1,televisions,null,null,null,null,null,null,2,NA,NA,NA,NA,NA,NA,NA,NA,NA,NA
NA,NA,NA,NA,NA,choice_trial,survey-html-form,55,333551,0.0-4.0-1.25,68,1,2025-04-28T21:01:53Z,b60275e29fe2361ab97ac0ac217840d7,"Mozilla/5.0 (Macintosh; Intel Mac OS X 10_15_7) AppleWebKit/605.1.15 (KHTML, like Gecko) Version/17.6 Safari/605.1.15",Macintosh,Safari,17.6,OS X,10_15_7,https://5puzkbbxv1.cognition.run/?sona_id=55945,"en-US,en;q=0.9",1upgzkuzb8ojx43,I'm 19 years old.,"[""White""]",No,Male,NA,Yes,830330,NA,4550,NA,"{""product_choice"":""A""}",choice,ct,binary,repulsion,1,televisions,null,null,null,null,null,null,2,100,90,null,30,40,null,Screen size,Average lifespan,NA,NA
NA,NA,NA,NA,NA,choice_trial_setup,html-keyboard-response,56,333854,0.0-4.0-0.26,68,1,2025-04-28T21:01:53Z,b60275e29fe2361ab97ac0ac217840d7,"Mozilla/5.0 (Macintosh; Intel Mac OS X 10_15_7) AppleWebKit/605.1.15 (KHTML, like Gecko) Version/17.6 Safari/605.1.15",Macintosh,Safari,17.6,OS X,10_15_7,https://5puzkbbxv1.cognition.run/?sona_id=55945,"en-US,en;q=0.9",1upgzkuzb8ojx43,I'm 19 years old.,"[""White""]",No,Male,NA,Yes,830330,NA,null,<p></p>,null,choice,wb,binary,catch,null,microwave ovens,70,85,40,5,null,null,2,NA,NA,NA,NA,NA,NA,NA,NA,NA,NA
NA,NA,NA,NA,NA,choice_trial,survey-html-form,57,338611,0.0-4.0-1.26,68,1,2025-04-28T21:01:53Z,b60275e29fe2361ab97ac0ac217840d7,"Mozilla/5.0 (Macintosh; Intel Mac OS X 10_15_7) AppleWebKit/605.1.15 (KHTML, like Gecko) Version/17.6 Safari/605.1.15",Macintosh,Safari,17.6,OS X,10_15_7,https://5puzkbbxv1.cognition.run/?sona_id=55945,"en-US,en;q=0.9",1upgzkuzb8ojx43,I'm 19 years old.,"[""White""]",No,Male,NA,Yes,830330,NA,4752,NA,"{""product_choice"":""B""}",choice,wb,binary,catch,null,microwave ovens,70,85,40,5,null,null,2,null,null,null,null,null,null,Warranty,Cooking power,NA,NA
NA,NA,NA,NA,NA,choice_trial_setup,html-keyboard-response,58,338913,0.0-4.0-0.27,68,1,2025-04-28T21:01:53Z,b60275e29fe2361ab97ac0ac217840d7,"Mozilla/5.0 (Macintosh; Intel Mac OS X 10_15_7) AppleWebKit/605.1.15 (KHTML, like Gecko) Version/17.6 Safari/605.1.15",Macintosh,Safari,17.6,OS X,10_15_7,https://5puzkbbxv1.cognition.run/?sona_id=55945,"en-US,en;q=0.9",1upgzkuzb8ojx43,I'm 19 years old.,"[""White""]",No,Male,NA,Yes,830330,NA,null,<p></p>,null,choice,tc,binary,repulsion,2,televisions,null,null,null,null,null,null,2,NA,NA,NA,NA,NA,NA,NA,NA,NA,NA
NA,NA,NA,NA,NA,choice_trial,survey-html-form,59,351865,0.0-4.0-1.27,68,1,2025-04-28T21:01:53Z,b60275e29fe2361ab97ac0ac217840d7,"Mozilla/5.0 (Macintosh; Intel Mac OS X 10_15_7) AppleWebKit/605.1.15 (KHTML, like Gecko) Version/17.6 Safari/605.1.15",Macintosh,Safari,17.6,OS X,10_15_7,https://5puzkbbxv1.cognition.run/?sona_id=55945,"en-US,en;q=0.9",1upgzkuzb8ojx43,I'm 19 years old.,"[""White""]",No,Male,NA,Yes,830330,NA,12948,NA,"{""product_choice"":""B""}",choice,tc,binary,repulsion,2,televisions,null,null,null,null,null,null,2,30,40,null,100,90,null,Screen size,Average lifespan,NA,NA
NA,NA,NA,NA,NA,choice_trial_setup,html-keyboard-response,60,352167,0.0-4.0-0.28,68,1,2025-04-28T21:01:53Z,b60275e29fe2361ab97ac0ac217840d7,"Mozilla/5.0 (Macintosh; Intel Mac OS X 10_15_7) AppleWebKit/605.1.15 (KHTML, like Gecko) Version/17.6 Safari/605.1.15",Macintosh,Safari,17.6,OS X,10_15_7,https://5puzkbbxv1.cognition.run/?sona_id=55945,"en-US,en;q=0.9",1upgzkuzb8ojx43,I'm 19 years old.,"[""White""]",No,Male,NA,Yes,830330,NA,null,<p></p>,null,choice,cdt,trinary,repulsion_A,2,laptops,null,null,null,null,null,null,2,NA,NA,NA,NA,NA,NA,NA,NA,NA,NA
NA,NA,NA,NA,NA,choice_trial,survey-html-form,61,355321,0.0-4.0-1.28,68,1,2025-04-28T21:01:53Z,b60275e29fe2361ab97ac0ac217840d7,"Mozilla/5.0 (Macintosh; Intel Mac OS X 10_15_7) AppleWebKit/605.1.15 (KHTML, like Gecko) Version/17.6 Safari/605.1.15",Macintosh,Safari,17.6,OS X,10_15_7,https://5puzkbbxv1.cognition.run/?sona_id=55945,"en-US,en;q=0.9",1upgzkuzb8ojx43,I'm 19 years old.,"[""White""]",No,Male,NA,Yes,830330,NA,3150,NA,"{""product_choice"":""A""}",choice,cdt,trinary,repulsion_A,2,laptops,null,null,null,null,null,null,2,30,40,20,100,90,100,Processing speed,Memory (RAM),NA,NA
NA,NA,NA,NA,NA,choice_trial_setup,html-keyboard-response,62,355623,0.0-4.0-0.29,68,1,2025-04-28T21:01:53Z,b60275e29fe2361ab97ac0ac217840d7,"Mozilla/5.0 (Macintosh; Intel Mac OS X 10_15_7) AppleWebKit/605.1.15 (KHTML, like Gecko) Version/17.6 Safari/605.1.15",Macintosh,Safari,17.6,OS X,10_15_7,https://5puzkbbxv1.cognition.run/?sona_id=55945,"en-US,en;q=0.9",1upgzkuzb8ojx43,I'm 19 years old.,"[""White""]",No,Male,NA,Yes,830330,NA,null,<p></p>,null,choice,bw,binary,catch,null,washing machines,80,85,45,50,null,null,1,NA,NA,NA,NA,NA,NA,NA,NA,NA,NA
NA,NA,NA,NA,NA,choice_trial,survey-html-form,63,358348,0.0-4.0-1.29,68,1,2025-04-28T21:01:53Z,b60275e29fe2361ab97ac0ac217840d7,"Mozilla/5.0 (Macintosh; Intel Mac OS X 10_15_7) AppleWebKit/605.1.15 (KHTML, like Gecko) Version/17.6 Safari/605.1.15",Macintosh,Safari,17.6,OS X,10_15_7,https://5puzkbbxv1.cognition.run/?sona_id=55945,"en-US,en;q=0.9",1upgzkuzb8ojx43,I'm 19 years old.,"[""White""]",No,Male,NA,Yes,830330,NA,2720,NA,"{""product_choice"":""A""}",choice,bw,binary,catch,null,washing machines,80,85,45,50,null,null,1,null,null,null,null,null,null,Average lifespan,Energy savings,NA,NA
NA,NA,NA,NA,NA,choice_trial_setup,html-keyboard-response,64,358650,0.0-4.0-0.30,68,1,2025-04-28T21:01:53Z,b60275e29fe2361ab97ac0ac217840d7,"Mozilla/5.0 (Macintosh; Intel Mac OS X 10_15_7) AppleWebKit/605.1.15 (KHTML, like Gecko) Version/17.6 Safari/605.1.15",Macintosh,Safari,17.6,OS X,10_15_7,https://5puzkbbxv1.cognition.run/?sona_id=55945,"en-US,en;q=0.9",1upgzkuzb8ojx43,I'm 19 years old.,"[""White""]",No,Male,NA,Yes,830330,NA,null,<p></p>,null,choice,tc,binary,attraction,NA,washing machines,null,null,null,null,null,null,2,NA,NA,NA,NA,NA,NA,NA,NA,NA,NA
NA,NA,NA,NA,NA,choice_trial,survey-html-form,65,361642,0.0-4.0-1.30,68,1,2025-04-28T21:01:53Z,b60275e29fe2361ab97ac0ac217840d7,"Mozilla/5.0 (Macintosh; Intel Mac OS X 10_15_7) AppleWebKit/605.1.15 (KHTML, like Gecko) Version/17.6 Safari/605.1.15",Macintosh,Safari,17.6,OS X,10_15_7,https://5puzkbbxv1.cognition.run/?sona_id=55945,"en-US,en;q=0.9",1upgzkuzb8ojx43,I'm 19 years old.,"[""White""]",No,Male,NA,Yes,830330,NA,2987,NA,"{""product_choice"":""B""}",choice,tc,binary,attraction,NA,washing machines,null,null,null,null,null,null,2,60,50,null,50,60,null,Average lifespan,Energy savings,NA,NA
NA,NA,NA,NA,NA,choice_trial_setup,html-keyboard-response,66,361944,0.0-4.0-0.31,68,1,2025-04-28T21:01:53Z,b60275e29fe2361ab97ac0ac217840d7,"Mozilla/5.0 (Macintosh; Intel Mac OS X 10_15_7) AppleWebKit/605.1.15 (KHTML, like Gecko) Version/17.6 Safari/605.1.15",Macintosh,Safari,17.6,OS X,10_15_7,https://5puzkbbxv1.cognition.run/?sona_id=55945,"en-US,en;q=0.9",1upgzkuzb8ojx43,I'm 19 years old.,"[""White""]",No,Male,NA,Yes,830330,NA,null,<p></p>,null,choice,tc,binary,repulsion,1,microwave ovens,null,null,null,null,null,null,1,NA,NA,NA,NA,NA,NA,NA,NA,NA,NA
NA,NA,NA,NA,NA,choice_trial,survey-html-form,67,365930,0.0-4.0-1.31,68,1,2025-04-28T21:01:53Z,b60275e29fe2361ab97ac0ac217840d7,"Mozilla/5.0 (Macintosh; Intel Mac OS X 10_15_7) AppleWebKit/605.1.15 (KHTML, like Gecko) Version/17.6 Safari/605.1.15",Macintosh,Safari,17.6,OS X,10_15_7,https://5puzkbbxv1.cognition.run/?sona_id=55945,"en-US,en;q=0.9",1upgzkuzb8ojx43,I'm 19 years old.,"[""White""]",No,Male,NA,Yes,830330,NA,3985,NA,"{""product_choice"":""B""}",choice,tc,binary,repulsion,1,microwave ovens,null,null,null,null,null,null,1,100,90,null,30,40,null,Warranty,Cooking power,NA,NA
NA,NA,NA,NA,NA,choice_trial_setup,html-keyboard-response,68,366233,0.0-4.0-0.32,68,1,2025-04-28T21:01:53Z,b60275e29fe2361ab97ac0ac217840d7,"Mozilla/5.0 (Macintosh; Intel Mac OS X 10_15_7) AppleWebKit/605.1.15 (KHTML, like Gecko) Version/17.6 Safari/605.1.15",Macintosh,Safari,17.6,OS X,10_15_7,https://5puzkbbxv1.cognition.run/?sona_id=55945,"en-US,en;q=0.9",1upgzkuzb8ojx43,I'm 19 years old.,"[""White""]",No,Male,NA,Yes,830330,NA,null,<p></p>,null,choice,tcd,trinary,repulsion_B,2,microwave ovens,null,null,null,null,null,null,2,NA,NA,NA,NA,NA,NA,NA,NA,NA,NA
NA,NA,NA,NA,NA,choice_trial,survey-html-form,69,370648,0.0-4.0-1.32,68,1,2025-04-28T21:01:53Z,b60275e29fe2361ab97ac0ac217840d7,"Mozilla/5.0 (Macintosh; Intel Mac OS X 10_15_7) AppleWebKit/605.1.15 (KHTML, like Gecko) Version/17.6 Safari/605.1.15",Macintosh,Safari,17.6,OS X,10_15_7,https://5puzkbbxv1.cognition.run/?sona_id=55945,"en-US,en;q=0.9",1upgzkuzb8ojx43,I'm 19 years old.,"[""White""]",No,Male,NA,Yes,830330,NA,4410,NA,"{""product_choice"":""A""}",choice,tcd,trinary,repulsion_B,2,microwave ovens,null,null,null,null,null,null,2,40,30,40,90,100,80,Warranty,Cooking power,NA,NA
NA,NA,NA,NA,NA,choice_trial_setup,html-keyboard-response,70,370950,0.0-4.0-0.33,68,1,2025-04-28T21:01:53Z,b60275e29fe2361ab97ac0ac217840d7,"Mozilla/5.0 (Macintosh; Intel Mac OS X 10_15_7) AppleWebKit/605.1.15 (KHTML, like Gecko) Version/17.6 Safari/605.1.15",Macintosh,Safari,17.6,OS X,10_15_7,https://5puzkbbxv1.cognition.run/?sona_id=55945,"en-US,en;q=0.9",1upgzkuzb8ojx43,I'm 19 years old.,"[""White""]",No,Male,NA,Yes,830330,NA,null,<p></p>,null,choice,wbw,trinary,catch,null,laptops,85,90,10,10,50,30,1,NA,NA,NA,NA,NA,NA,NA,NA,NA,NA
NA,NA,NA,NA,NA,choice_trial,survey-html-form,71,373481,0.0-4.0-1.33,68,1,2025-04-28T21:01:53Z,b60275e29fe2361ab97ac0ac217840d7,"Mozilla/5.0 (Macintosh; Intel Mac OS X 10_15_7) AppleWebKit/605.1.15 (KHTML, like Gecko) Version/17.6 Safari/605.1.15",Macintosh,Safari,17.6,OS X,10_15_7,https://5puzkbbxv1.cognition.run/?sona_id=55945,"en-US,en;q=0.9",1upgzkuzb8ojx43,I'm 19 years old.,"[""White""]",No,Male,NA,Yes,830330,NA,2526,NA,"{""product_choice"":""B""}",choice,wbw,trinary,catch,null,laptops,85,90,10,10,50,30,1,null,null,null,null,null,null,Processing speed,Memory (RAM),NA,NA
NA,NA,NA,NA,NA,choice_trial_setup,html-keyboard-response,72,373783,0.0-4.0-0.34,68,1,2025-04-28T21:01:53Z,b60275e29fe2361ab97ac0ac217840d7,"Mozilla/5.0 (Macintosh; Intel Mac OS X 10_15_7) AppleWebKit/605.1.15 (KHTML, like Gecko) Version/17.6 Safari/605.1.15",Macintosh,Safari,17.6,OS X,10_15_7,https://5puzkbbxv1.cognition.run/?sona_id=55945,"en-US,en;q=0.9",1upgzkuzb8ojx43,I'm 19 years old.,"[""White""]",No,Male,NA,Yes,830330,NA,null,<p></p>,null,choice,cdt,trinary,repulsion_B,2,televisions,null,null,null,null,null,null,1,NA,NA,NA,NA,NA,NA,NA,NA,NA,NA
NA,NA,NA,NA,NA,choice_trial,survey-html-form,73,380772,0.0-4.0-1.34,68,1,2025-04-28T21:01:53Z,b60275e29fe2361ab97ac0ac217840d7,"Mozilla/5.0 (Macintosh; Intel Mac OS X 10_15_7) AppleWebKit/605.1.15 (KHTML, like Gecko) Version/17.6 Safari/605.1.15",Macintosh,Safari,17.6,OS X,10_15_7,https://5puzkbbxv1.cognition.run/?sona_id=55945,"en-US,en;q=0.9",1upgzkuzb8ojx43,I'm 19 years old.,"[""White""]",No,Male,NA,Yes,830330,NA,6985,NA,"{""product_choice"":""C""}",choice,cdt,trinary,repulsion_B,2,televisions,null,null,null,null,null,null,1,40,30,40,90,100,80,Screen size,Average lifespan,NA,NA
NA,NA,NA,NA,NA,choice_trial_setup,html-keyboard-response,74,381073,0.0-4.0-0.35,68,1,2025-04-28T21:01:53Z,b60275e29fe2361ab97ac0ac217840d7,"Mozilla/5.0 (Macintosh; Intel Mac OS X 10_15_7) AppleWebKit/605.1.15 (KHTML, like Gecko) Version/17.6 Safari/605.1.15",Macintosh,Safari,17.6,OS X,10_15_7,https://5puzkbbxv1.cognition.run/?sona_id=55945,"en-US,en;q=0.9",1upgzkuzb8ojx43,I'm 19 years old.,"[""White""]",No,Male,NA,Yes,830330,NA,null,<p></p>,null,choice,bw,binary,catch,null,televisions,50,95,50,50,null,null,2,NA,NA,NA,NA,NA,NA,NA,NA,NA,NA
NA,NA,NA,NA,NA,choice_trial,survey-html-form,75,384325,0.0-4.0-1.35,68,1,2025-04-28T21:01:53Z,b60275e29fe2361ab97ac0ac217840d7,"Mozilla/5.0 (Macintosh; Intel Mac OS X 10_15_7) AppleWebKit/605.1.15 (KHTML, like Gecko) Version/17.6 Safari/605.1.15",Macintosh,Safari,17.6,OS X,10_15_7,https://5puzkbbxv1.cognition.run/?sona_id=55945,"en-US,en;q=0.9",1upgzkuzb8ojx43,I'm 19 years old.,"[""White""]",No,Male,NA,Yes,830330,NA,3247,NA,"{""product_choice"":""A""}",choice,bw,binary,catch,null,televisions,50,95,50,50,null,null,2,null,null,null,null,null,null,Screen size,Average lifespan,NA,NA
NA,NA,NA,NA,NA,choice_trial_setup,html-keyboard-response,76,384627,0.0-4.0-0.36,68,1,2025-04-28T21:01:53Z,b60275e29fe2361ab97ac0ac217840d7,"Mozilla/5.0 (Macintosh; Intel Mac OS X 10_15_7) AppleWebKit/605.1.15 (KHTML, like Gecko) Version/17.6 Safari/605.1.15",Macintosh,Safari,17.6,OS X,10_15_7,https://5puzkbbxv1.cognition.run/?sona_id=55945,"en-US,en;q=0.9",1upgzkuzb8ojx43,I'm 19 years old.,"[""White""]",No,Male,NA,Yes,830330,NA,null,<p></p>,null,choice,cdt,trinary,attraction,1,laptops,null,null,null,null,null,null,2,NA,NA,NA,NA,NA,NA,NA,NA,NA,NA
NA,NA,NA,NA,NA,choice_trial,survey-html-form,77,390314,0.0-4.0-1.36,68,1,2025-04-28T21:01:53Z,b60275e29fe2361ab97ac0ac217840d7,"Mozilla/5.0 (Macintosh; Intel Mac OS X 10_15_7) AppleWebKit/605.1.15 (KHTML, like Gecko) Version/17.6 Safari/605.1.15",Macintosh,Safari,17.6,OS X,10_15_7,https://5puzkbbxv1.cognition.run/?sona_id=55945,"en-US,en;q=0.9",1upgzkuzb8ojx43,I'm 19 years old.,"[""White""]",No,Male,NA,Yes,830330,NA,5679,NA,"{""product_choice"":""C""}",choice,cdt,trinary,attraction,1,laptops,null,null,null,null,null,null,2,60,50,60,50,60,40,Processing speed,Memory (RAM),NA,NA
NA,NA,NA,NA,NA,choice_trial_setup,html-keyboard-response,78,390617,0.0-4.0-0.37,68,1,2025-04-28T21:01:53Z,b60275e29fe2361ab97ac0ac217840d7,"Mozilla/5.0 (Macintosh; Intel Mac OS X 10_15_7) AppleWebKit/605.1.15 (KHTML, like Gecko) Version/17.6 Safari/605.1.15",Macintosh,Safari,17.6,OS X,10_15_7,https://5puzkbbxv1.cognition.run/?sona_id=55945,"en-US,en;q=0.9",1upgzkuzb8ojx43,I'm 19 years old.,"[""White""]",No,Male,NA,Yes,830330,NA,null,<p></p>,null,choice,tcd,trinary,repulsion_B,1,laptops,null,null,null,null,null,null,1,NA,NA,NA,NA,NA,NA,NA,NA,NA,NA
NA,NA,NA,NA,NA,choice_trial,survey-html-form,79,394936,0.0-4.0-1.37,68,1,2025-04-28T21:01:53Z,b60275e29fe2361ab97ac0ac217840d7,"Mozilla/5.0 (Macintosh; Intel Mac OS X 10_15_7) AppleWebKit/605.1.15 (KHTML, like Gecko) Version/17.6 Safari/605.1.15",Macintosh,Safari,17.6,OS X,10_15_7,https://5puzkbbxv1.cognition.run/?sona_id=55945,"en-US,en;q=0.9",1upgzkuzb8ojx43,I'm 19 years old.,"[""White""]",No,Male,NA,Yes,830330,NA,4314,NA,"{""product_choice"":""A""}",choice,tcd,trinary,repulsion_B,1,laptops,null,null,null,null,null,null,1,90,100,80,40,30,40,Processing speed,Memory (RAM),NA,NA
NA,NA,NA,NA,NA,choice_trial_setup,html-keyboard-response,80,395238,0.0-4.0-0.38,68,1,2025-04-28T21:01:53Z,b60275e29fe2361ab97ac0ac217840d7,"Mozilla/5.0 (Macintosh; Intel Mac OS X 10_15_7) AppleWebKit/605.1.15 (KHTML, like Gecko) Version/17.6 Safari/605.1.15",Macintosh,Safari,17.6,OS X,10_15_7,https://5puzkbbxv1.cognition.run/?sona_id=55945,"en-US,en;q=0.9",1upgzkuzb8ojx43,I'm 19 years old.,"[""White""]",No,Male,NA,Yes,830330,NA,null,<p></p>,null,choice,tcd,trinary,repulsion_B,2,laptops,null,null,null,null,null,null,1,NA,NA,NA,NA,NA,NA,NA,NA,NA,NA
NA,NA,NA,NA,NA,choice_trial,survey-html-form,81,400989,0.0-4.0-1.38,68,1,2025-04-28T21:01:53Z,b60275e29fe2361ab97ac0ac217840d7,"Mozilla/5.0 (Macintosh; Intel Mac OS X 10_15_7) AppleWebKit/605.1.15 (KHTML, like Gecko) Version/17.6 Safari/605.1.15",Macintosh,Safari,17.6,OS X,10_15_7,https://5puzkbbxv1.cognition.run/?sona_id=55945,"en-US,en;q=0.9",1upgzkuzb8ojx43,I'm 19 years old.,"[""White""]",No,Male,NA,Yes,830330,NA,5746,NA,"{""product_choice"":""A""}",choice,tcd,trinary,repulsion_B,2,laptops,null,null,null,null,null,null,1,40,30,40,90,100,80,Processing speed,Memory (RAM),NA,NA
NA,NA,NA,NA,NA,choice_trial_setup,html-keyboard-response,82,401291,0.0-4.0-0.39,68,1,2025-04-28T21:01:53Z,b60275e29fe2361ab97ac0ac217840d7,"Mozilla/5.0 (Macintosh; Intel Mac OS X 10_15_7) AppleWebKit/605.1.15 (KHTML, like Gecko) Version/17.6 Safari/605.1.15",Macintosh,Safari,17.6,OS X,10_15_7,https://5puzkbbxv1.cognition.run/?sona_id=55945,"en-US,en;q=0.9",1upgzkuzb8ojx43,I'm 19 years old.,"[""White""]",No,Male,NA,Yes,830330,NA,null,<p></p>,null,choice,bw,binary,catch,null,laptops,75,95,45,50,null,null,1,NA,NA,NA,NA,NA,NA,NA,NA,NA,NA
NA,NA,NA,NA,NA,choice_trial,survey-html-form,83,403991,0.0-4.0-1.39,68,1,2025-04-28T21:01:53Z,b60275e29fe2361ab97ac0ac217840d7,"Mozilla/5.0 (Macintosh; Intel Mac OS X 10_15_7) AppleWebKit/605.1.15 (KHTML, like Gecko) Version/17.6 Safari/605.1.15",Macintosh,Safari,17.6,OS X,10_15_7,https://5puzkbbxv1.cognition.run/?sona_id=55945,"en-US,en;q=0.9",1upgzkuzb8ojx43,I'm 19 years old.,"[""White""]",No,Male,NA,Yes,830330,NA,2695,NA,"{""product_choice"":""A""}",choice,bw,binary,catch,null,laptops,75,95,45,50,null,null,1,null,null,null,null,null,null,Processing speed,Memory (RAM),NA,NA
NA,NA,NA,NA,NA,choice_trial_setup,html-keyboard-response,84,404294,0.0-4.0-0.40,68,1,2025-04-28T21:01:53Z,b60275e29fe2361ab97ac0ac217840d7,"Mozilla/5.0 (Macintosh; Intel Mac OS X 10_15_7) AppleWebKit/605.1.15 (KHTML, like Gecko) Version/17.6 Safari/605.1.15",Macintosh,Safari,17.6,OS X,10_15_7,https://5puzkbbxv1.cognition.run/?sona_id=55945,"en-US,en;q=0.9",1upgzkuzb8ojx43,I'm 19 years old.,"[""White""]",No,Male,NA,Yes,830330,NA,null,<p></p>,null,choice,tc,binary,attraction,NA,microwave ovens,null,null,null,null,null,null,2,NA,NA,NA,NA,NA,NA,NA,NA,NA,NA
NA,NA,NA,NA,NA,choice_trial,survey-html-form,85,408806,0.0-4.0-1.40,68,1,2025-04-28T21:01:53Z,b60275e29fe2361ab97ac0ac217840d7,"Mozilla/5.0 (Macintosh; Intel Mac OS X 10_15_7) AppleWebKit/605.1.15 (KHTML, like Gecko) Version/17.6 Safari/605.1.15",Macintosh,Safari,17.6,OS X,10_15_7,https://5puzkbbxv1.cognition.run/?sona_id=55945,"en-US,en;q=0.9",1upgzkuzb8ojx43,I'm 19 years old.,"[""White""]",No,Male,NA,Yes,830330,NA,4507,NA,"{""product_choice"":""B""}",choice,tc,binary,attraction,NA,microwave ovens,null,null,null,null,null,null,2,60,50,null,50,60,null,Warranty,Cooking power,NA,NA
NA,NA,NA,NA,NA,choice_trial_setup,html-keyboard-response,86,409108,0.0-4.0-0.41,68,1,2025-04-28T21:01:53Z,b60275e29fe2361ab97ac0ac217840d7,"Mozilla/5.0 (Macintosh; Intel Mac OS X 10_15_7) AppleWebKit/605.1.15 (KHTML, like Gecko) Version/17.6 Safari/605.1.15",Macintosh,Safari,17.6,OS X,10_15_7,https://5puzkbbxv1.cognition.run/?sona_id=55945,"en-US,en;q=0.9",1upgzkuzb8ojx43,I'm 19 years old.,"[""White""]",No,Male,NA,Yes,830330,NA,null,<p></p>,null,choice,dtc,trinary,attraction,1,televisions,null,null,null,null,null,null,1,NA,NA,NA,NA,NA,NA,NA,NA,NA,NA
NA,NA,NA,NA,NA,choice_trial,survey-html-form,87,416698,0.0-4.0-1.41,68,1,2025-04-28T21:01:53Z,b60275e29fe2361ab97ac0ac217840d7,"Mozilla/5.0 (Macintosh; Intel Mac OS X 10_15_7) AppleWebKit/605.1.15 (KHTML, like Gecko) Version/17.6 Safari/605.1.15",Macintosh,Safari,17.6,OS X,10_15_7,https://5puzkbbxv1.cognition.run/?sona_id=55945,"en-US,en;q=0.9",1upgzkuzb8ojx43,I'm 19 years old.,"[""White""]",No,Male,NA,Yes,830330,NA,7585,NA,"{""product_choice"":""B""}",choice,dtc,trinary,attraction,1,televisions,null,null,null,null,null,null,1,60,50,60,50,60,40,Screen size,Average lifespan,NA,NA
NA,NA,NA,NA,NA,choice_trial_setup,html-keyboard-response,88,417000,0.0-4.0-0.42,68,1,2025-04-28T21:01:53Z,b60275e29fe2361ab97ac0ac217840d7,"Mozilla/5.0 (Macintosh; Intel Mac OS X 10_15_7) AppleWebKit/605.1.15 (KHTML, like Gecko) Version/17.6 Safari/605.1.15",Macintosh,Safari,17.6,OS X,10_15_7,https://5puzkbbxv1.cognition.run/?sona_id=55945,"en-US,en;q=0.9",1upgzkuzb8ojx43,I'm 19 years old.,"[""White""]",No,Male,NA,Yes,830330,NA,null,<p></p>,null,choice,ct,binary,repulsion,1,washing machines,null,null,null,null,null,null,1,NA,NA,NA,NA,NA,NA,NA,NA,NA,NA
NA,NA,NA,NA,NA,choice_trial,survey-html-form,89,449850,0.0-4.0-1.42,68,1,2025-04-28T21:01:53Z,b60275e29fe2361ab97ac0ac217840d7,"Mozilla/5.0 (Macintosh; Intel Mac OS X 10_15_7) AppleWebKit/605.1.15 (KHTML, like Gecko) Version/17.6 Safari/605.1.15",Macintosh,Safari,17.6,OS X,10_15_7,https://5puzkbbxv1.cognition.run/?sona_id=55945,"en-US,en;q=0.9",1upgzkuzb8ojx43,I'm 19 years old.,"[""White""]",No,Male,NA,Yes,830330,NA,32845,NA,"{""product_choice"":""A""}",choice,ct,binary,repulsion,1,washing machines,null,null,null,null,null,null,1,100,90,null,30,40,null,Average lifespan,Energy savings,NA,NA
NA,NA,NA,NA,NA,choice_trial_setup,html-keyboard-response,90,450152,0.0-4.0-0.43,68,1,2025-04-28T21:01:53Z,b60275e29fe2361ab97ac0ac217840d7,"Mozilla/5.0 (Macintosh; Intel Mac OS X 10_15_7) AppleWebKit/605.1.15 (KHTML, like Gecko) Version/17.6 Safari/605.1.15",Macintosh,Safari,17.6,OS X,10_15_7,https://5puzkbbxv1.cognition.run/?sona_id=55945,"en-US,en;q=0.9",1upgzkuzb8ojx43,I'm 19 years old.,"[""White""]",No,Male,NA,Yes,830330,NA,null,<p></p>,null,choice,tdc,trinary,repulsion_A,1,laptops,null,null,null,null,null,null,1,NA,NA,NA,NA,NA,NA,NA,NA,NA,NA
NA,NA,NA,NA,NA,choice_trial,survey-html-form,91,454561,0.0-4.0-1.43,68,1,2025-04-28T21:01:53Z,b60275e29fe2361ab97ac0ac217840d7,"Mozilla/5.0 (Macintosh; Intel Mac OS X 10_15_7) AppleWebKit/605.1.15 (KHTML, like Gecko) Version/17.6 Safari/605.1.15",Macintosh,Safari,17.6,OS X,10_15_7,https://5puzkbbxv1.cognition.run/?sona_id=55945,"en-US,en;q=0.9",1upgzkuzb8ojx43,I'm 19 years old.,"[""White""]",No,Male,NA,Yes,830330,NA,4402,NA,"{""product_choice"":""C""}",choice,tdc,trinary,repulsion_A,1,laptops,null,null,null,null,null,null,1,100,90,100,30,40,20,Processing speed,Memory (RAM),NA,NA
NA,NA,NA,NA,NA,post_trials_message,html-button-response,92,457506,0.0-5.0,68,1,2025-04-28T21:01:53Z,b60275e29fe2361ab97ac0ac217840d7,"Mozilla/5.0 (Macintosh; Intel Mac OS X 10_15_7) AppleWebKit/605.1.15 (KHTML, like Gecko) Version/17.6 Safari/605.1.15",Macintosh,Safari,17.6,OS X,10_15_7,https://5puzkbbxv1.cognition.run/?sona_id=55945,"en-US,en;q=0.9",1upgzkuzb8ojx43,I'm 19 years old.,"[""White""]",No,Male,NA,Yes,830330,NA,2944,<p> <b>Thank you for your patience!</b></p><p>  The study will be done after completing a brief form. </p>,0,NA,NA,NA,NA,NA,NA,NA,NA,NA,NA,NA,NA,NA,NA,NA,NA,NA,NA,NA,NA,NA,NA,NA
NA,NA,NA,NA,NA,survey_message,survey-text,93,788765,0.0-6.0,68,1,2025-04-28T21:01:53Z,b60275e29fe2361ab97ac0ac217840d7,"Mozilla/5.0 (Macintosh; Intel Mac OS X 10_15_7) AppleWebKit/605.1.15 (KHTML, like Gecko) Version/17.6 Safari/605.1.15",Macintosh,Safari,17.6,OS X,10_15_7,https://5puzkbbxv1.cognition.run/?sona_id=55945,"en-US,en;q=0.9",1upgzkuzb8ojx43,I'm 19 years old.,"[""White""]",No,Male,NA,Yes,830330,NA,331254,NA,"{""Q0"":""I tried to choose the ones that were most evenly atributed to each category. If one said 100 and the other side said 30, I would choose the 90 and 40 instead. ""}",NA,NA,NA,NA,NA,NA,NA,NA,NA,NA,NA,NA,NA,NA,NA,NA,NA,NA,NA,NA,NA,"I tried to choose the ones that were most evenly atributed to each category. If one said 100 and the other side said 30, I would choose the 90 and 40 instead.",NA
NA,NA,NA,NA,NA,demo_age,survey-text,94,795546,0.0-7.0,68,1,2025-04-28T21:01:53Z,b60275e29fe2361ab97ac0ac217840d7,"Mozilla/5.0 (Macintosh; Intel Mac OS X 10_15_7) AppleWebKit/605.1.15 (KHTML, like Gecko) Version/17.6 Safari/605.1.15",Macintosh,Safari,17.6,OS X,10_15_7,https://5puzkbbxv1.cognition.run/?sona_id=55945,"en-US,en;q=0.9",1upgzkuzb8ojx43,I'm 19 years old.,"[""White""]",No,Male,NA,Yes,830330,NA,6777,NA,"{""Q0"":""I'm 19 years old.""}",NA,NA,NA,NA,NA,NA,NA,NA,NA,NA,NA,NA,NA,NA,NA,NA,NA,NA,NA,NA,NA,NA,NA
NA,NA,NA,NA,NA,demo_race,survey-multi-select,95,798006,0.0-8.0,68,1,2025-04-28T21:01:53Z,b60275e29fe2361ab97ac0ac217840d7,"Mozilla/5.0 (Macintosh; Intel Mac OS X 10_15_7) AppleWebKit/605.1.15 (KHTML, like Gecko) Version/17.6 Safari/605.1.15",Macintosh,Safari,17.6,OS X,10_15_7,https://5puzkbbxv1.cognition.run/?sona_id=55945,"en-US,en;q=0.9",1upgzkuzb8ojx43,I'm 19 years old.,"[""White""]",No,Male,NA,Yes,830330,NA,2458,NA,"{""Q0"":[""White""]}",NA,NA,NA,NA,NA,NA,NA,NA,NA,NA,NA,NA,NA,NA,NA,NA,NA,NA,NA,NA,NA,NA,[0]
NA,NA,NA,NA,NA,demo_ethnicity_gender,survey-multi-choice,96,802967,0.0-9.0,68,1,2025-04-28T21:01:53Z,b60275e29fe2361ab97ac0ac217840d7,"Mozilla/5.0 (Macintosh; Intel Mac OS X 10_15_7) AppleWebKit/605.1.15 (KHTML, like Gecko) Version/17.6 Safari/605.1.15",Macintosh,Safari,17.6,OS X,10_15_7,https://5puzkbbxv1.cognition.run/?sona_id=55945,"en-US,en;q=0.9",1upgzkuzb8ojx43,I'm 19 years old.,"[""White""]",No,Male,NA,Yes,830330,NA,4959,NA,"{""Q0"":""No"",""Q1"":""Male""}",NA,NA,NA,NA,NA,NA,NA,NA,NA,NA,NA,NA,NA,NA,NA,NA,NA,NA,NA,NA,NA,NA,"[0,1]"
NA,NA,NA,NA,NA,demo_countries,survey-text,97,810501,0.0-10.0,68,1,2025-04-28T21:01:53Z,b60275e29fe2361ab97ac0ac217840d7,"Mozilla/5.0 (Macintosh; Intel Mac OS X 10_15_7) AppleWebKit/605.1.15 (KHTML, like Gecko) Version/17.6 Safari/605.1.15",Macintosh,Safari,17.6,OS X,10_15_7,https://5puzkbbxv1.cognition.run/?sona_id=55945,"en-US,en;q=0.9",1upgzkuzb8ojx43,I'm 19 years old.,"[""White""]",No,Male,NA,Yes,830330,NA,7531,NA,"{""Q0"":""NA""}",NA,NA,NA,NA,NA,NA,NA,NA,NA,NA,NA,NA,NA,NA,NA,NA,NA,NA,NA,NA,NA,NA,NA
NA,NA,NA,NA,NA,demo_prev_study,survey-multi-choice,98,816293,0.0-11.0,68,1,2025-04-28T21:01:53Z,b60275e29fe2361ab97ac0ac217840d7,"Mozilla/5.0 (Macintosh; Intel Mac OS X 10_15_7) AppleWebKit/605.1.15 (KHTML, like Gecko) Version/17.6 Safari/605.1.15",Macintosh,Safari,17.6,OS X,10_15_7,https://5puzkbbxv1.cognition.run/?sona_id=55945,"en-US,en;q=0.9",1upgzkuzb8ojx43,I'm 19 years old.,"[""White""]",No,Male,NA,Yes,830330,NA,5791,NA,"{""Q0"":""Yes""}",NA,NA,NA,NA,NA,NA,NA,NA,NA,NA,NA,NA,NA,NA,NA,NA,NA,NA,NA,NA,NA,NA,[0]
NA,NA,NA,NA,NA,post_survey_message,html-keyboard-response,99,825586,0.0-12.0,68,1,2025-04-28T21:01:53Z,b60275e29fe2361ab97ac0ac217840d7,"Mozilla/5.0 (Macintosh; Intel Mac OS X 10_15_7) AppleWebKit/605.1.15 (KHTML, like Gecko) Version/17.6 Safari/605.1.15",Macintosh,Safari,17.6,OS X,10_15_7,https://5puzkbbxv1.cognition.run/?sona_id=55945,"en-US,en;q=0.9",1upgzkuzb8ojx43,I'm 19 years old.,"[""White""]",No,Male,NA,Yes,830330,NA,9290,NA,j,NA,NA,NA,NA,NA,NA,NA,NA,NA,NA,NA,NA,NA,NA,NA,NA,NA,NA,NA,NA,NA,NA,NA
NA,NA,NA,NA,NA,debrief,image-keyboard-response,100,830323,0.0-13.0,68,1,2025-04-28T21:01:53Z,b60275e29fe2361ab97ac0ac217840d7,"Mozilla/5.0 (Macintosh; Intel Mac OS X 10_15_7) AppleWebKit/605.1.15 (KHTML, like Gecko) Version/17.6 Safari/605.1.15",Macintosh,Safari,17.6,OS X,10_15_7,https://5puzkbbxv1.cognition.run/?sona_id=55945,"en-US,en;q=0.9",1upgzkuzb8ojx43,I'm 19 years old.,"[""White""]",No,Male,NA,Yes,830330,NA,4710,Judg_choice_debrief.png,p,NA,NA,NA,NA,NA,NA,NA,NA,NA,NA,NA,NA,NA,NA,NA,NA,NA,NA,NA,NA,NA,NA,NA
