success,timeout,failed_images,failed_audio,failed_video,screen_id,trial_type,trial_index,time_elapsed,internal_node_id,run_id,condition,recorded_at,source_code_version,user_agent,device,browser,browser_version,platform,platform_version,referer,accept_language,ppt_id,age,race,ethnicity,gender,other_countries,prev_study,exp_duration,view_history,rt,stimulus,response,phase,order,set,effect,t_high,category,d1_best,d2_best,d1_worst1,d2_worst1,d1_worst2,d2_worst2,first_dim,d1_t,d1_c,d1_d,d2_t,d2_c,d2_d,d1_name,d2_name,strategy_response,question_order
TRUE,FALSE,[],[],[],img preload,preload,0,141,0.0-0.0,73,1,2025-04-28T23:51:23Z,b60275e29fe2361ab97ac0ac217840d7,"Mozilla/5.0 (Macintosh; Intel Mac OS X 10_15_7) AppleWebKit/605.1.15 (KHTML, like Gecko) Version/17.6 Safari/605.1.15",Macintosh,Safari,17.6,OS X,10_15_7,https://5puzkbbxv1.cognition.run/?sona_id=51560,"en-US,en;q=0.9",dxnc2qh65xdf62e,22,"[""Asian""]",No,Female,NA,No,338304,NA,NA,NA,NA,NA,NA,NA,NA,NA,NA,NA,NA,NA,NA,NA,NA,NA,NA,NA,NA,NA,NA,NA,NA,NA,NA,NA
NA,NA,NA,NA,NA,computer_message,instructions,1,1634,0.0-1.0,73,1,2025-04-28T23:51:23Z,b60275e29fe2361ab97ac0ac217840d7,"Mozilla/5.0 (Macintosh; Intel Mac OS X 10_15_7) AppleWebKit/605.1.15 (KHTML, like Gecko) Version/17.6 Safari/605.1.15",Macintosh,Safari,17.6,OS X,10_15_7,https://5puzkbbxv1.cognition.run/?sona_id=51560,"en-US,en;q=0.9",dxnc2qh65xdf62e,22,"[""Asian""]",No,Female,NA,No,338304,"[{""page_index"":0,""viewing_time"":1491}]",1492,NA,NA,NA,NA,NA,NA,NA,NA,NA,NA,NA,NA,NA,NA,NA,NA,NA,NA,NA,NA,NA,NA,NA,NA,NA
TRUE,NA,NA,NA,NA,NA,fullscreen,2,3871,0.0-2.0,73,1,2025-04-28T23:51:23Z,b60275e29fe2361ab97ac0ac217840d7,"Mozilla/5.0 (Macintosh; Intel Mac OS X 10_15_7) AppleWebKit/605.1.15 (KHTML, like Gecko) Version/17.6 Safari/605.1.15",Macintosh,Safari,17.6,OS X,10_15_7,https://5puzkbbxv1.cognition.run/?sona_id=51560,"en-US,en;q=0.9",dxnc2qh65xdf62e,22,"[""Asian""]",No,Female,NA,No,338304,NA,1232,NA,NA,NA,NA,NA,NA,NA,NA,NA,NA,NA,NA,NA,NA,NA,NA,NA,NA,NA,NA,NA,NA,NA,NA,NA
NA,NA,NA,NA,NA,choice_instructions,instructions,3,24651,0.0-3.0,73,1,2025-04-28T23:51:23Z,b60275e29fe2361ab97ac0ac217840d7,"Mozilla/5.0 (Macintosh; Intel Mac OS X 10_15_7) AppleWebKit/605.1.15 (KHTML, like Gecko) Version/17.6 Safari/605.1.15",Macintosh,Safari,17.6,OS X,10_15_7,https://5puzkbbxv1.cognition.run/?sona_id=51560,"en-US,en;q=0.9",dxnc2qh65xdf62e,22,"[""Asian""]",No,Female,NA,No,338304,"[{""page_index"":0,""viewing_time"":1477},{""page_index"":1,""viewing_time"":1716},{""page_index"":2,""viewing_time"":1567},{""page_index"":3,""viewing_time"":2085},{""page_index"":4,""viewing_time"":1432},{""page_index"":5,""viewing_time"":9467},{""page_index"":6,""viewing_time"":3033}]",20777,NA,NA,NA,NA,NA,NA,NA,NA,NA,NA,NA,NA,NA,NA,NA,NA,NA,NA,NA,NA,NA,NA,NA,NA,NA
NA,NA,NA,NA,NA,choice_trial_setup,html-keyboard-response,4,24957,0.0-4.0-0.0,73,1,2025-04-28T23:51:23Z,b60275e29fe2361ab97ac0ac217840d7,"Mozilla/5.0 (Macintosh; Intel Mac OS X 10_15_7) AppleWebKit/605.1.15 (KHTML, like Gecko) Version/17.6 Safari/605.1.15",Macintosh,Safari,17.6,OS X,10_15_7,https://5puzkbbxv1.cognition.run/?sona_id=51560,"en-US,en;q=0.9",dxnc2qh65xdf62e,22,"[""Asian""]",No,Female,NA,No,338304,NA,null,<p></p>,null,choice,dct,trinary,repulsion_A,1,televisions,null,null,null,null,null,null,1,NA,NA,NA,NA,NA,NA,NA,NA,NA,NA
NA,NA,NA,NA,NA,choice_trial,survey-html-form,5,32672,0.0-4.0-1.0,73,1,2025-04-28T23:51:23Z,b60275e29fe2361ab97ac0ac217840d7,"Mozilla/5.0 (Macintosh; Intel Mac OS X 10_15_7) AppleWebKit/605.1.15 (KHTML, like Gecko) Version/17.6 Safari/605.1.15",Macintosh,Safari,17.6,OS X,10_15_7,https://5puzkbbxv1.cognition.run/?sona_id=51560,"en-US,en;q=0.9",dxnc2qh65xdf62e,22,"[""Asian""]",No,Female,NA,No,338304,NA,7709,NA,"{""product_choice"":""B""}",choice,dct,trinary,repulsion_A,1,televisions,null,null,null,null,null,null,1,100,90,100,30,40,20,Screen size,Average lifespan,NA,NA
NA,NA,NA,NA,NA,choice_trial_setup,html-keyboard-response,6,32975,0.0-4.0-0.1,73,1,2025-04-28T23:51:23Z,b60275e29fe2361ab97ac0ac217840d7,"Mozilla/5.0 (Macintosh; Intel Mac OS X 10_15_7) AppleWebKit/605.1.15 (KHTML, like Gecko) Version/17.6 Safari/605.1.15",Macintosh,Safari,17.6,OS X,10_15_7,https://5puzkbbxv1.cognition.run/?sona_id=51560,"en-US,en;q=0.9",dxnc2qh65xdf62e,22,"[""Asian""]",No,Female,NA,No,338304,NA,null,<p></p>,null,choice,bw,binary,catch,null,televisions,55,70,35,20,null,null,2,NA,NA,NA,NA,NA,NA,NA,NA,NA,NA
NA,NA,NA,NA,NA,choice_trial,survey-html-form,7,39205,0.0-4.0-1.1,73,1,2025-04-28T23:51:23Z,b60275e29fe2361ab97ac0ac217840d7,"Mozilla/5.0 (Macintosh; Intel Mac OS X 10_15_7) AppleWebKit/605.1.15 (KHTML, like Gecko) Version/17.6 Safari/605.1.15",Macintosh,Safari,17.6,OS X,10_15_7,https://5puzkbbxv1.cognition.run/?sona_id=51560,"en-US,en;q=0.9",dxnc2qh65xdf62e,22,"[""Asian""]",No,Female,NA,No,338304,NA,6227,NA,"{""product_choice"":""A""}",choice,bw,binary,catch,null,televisions,55,70,35,20,null,null,2,null,null,null,null,null,null,Screen size,Average lifespan,NA,NA
NA,NA,NA,NA,NA,choice_trial_setup,html-keyboard-response,8,39508,0.0-4.0-0.2,73,1,2025-04-28T23:51:23Z,b60275e29fe2361ab97ac0ac217840d7,"Mozilla/5.0 (Macintosh; Intel Mac OS X 10_15_7) AppleWebKit/605.1.15 (KHTML, like Gecko) Version/17.6 Safari/605.1.15",Macintosh,Safari,17.6,OS X,10_15_7,https://5puzkbbxv1.cognition.run/?sona_id=51560,"en-US,en;q=0.9",dxnc2qh65xdf62e,22,"[""Asian""]",No,Female,NA,No,338304,NA,null,<p></p>,null,choice,bww,trinary,catch,null,televisions,60,75,45,30,45,35,1,NA,NA,NA,NA,NA,NA,NA,NA,NA,NA
NA,NA,NA,NA,NA,choice_trial,survey-html-form,9,58322,0.0-4.0-1.2,73,1,2025-04-28T23:51:23Z,b60275e29fe2361ab97ac0ac217840d7,"Mozilla/5.0 (Macintosh; Intel Mac OS X 10_15_7) AppleWebKit/605.1.15 (KHTML, like Gecko) Version/17.6 Safari/605.1.15",Macintosh,Safari,17.6,OS X,10_15_7,https://5puzkbbxv1.cognition.run/?sona_id=51560,"en-US,en;q=0.9",dxnc2qh65xdf62e,22,"[""Asian""]",No,Female,NA,No,338304,NA,18809,NA,"{""product_choice"":""A""}",choice,bww,trinary,catch,null,televisions,60,75,45,30,45,35,1,null,null,null,null,null,null,Screen size,Average lifespan,NA,NA
NA,NA,NA,NA,NA,choice_trial_setup,html-keyboard-response,10,58625,0.0-4.0-0.3,73,1,2025-04-28T23:51:23Z,b60275e29fe2361ab97ac0ac217840d7,"Mozilla/5.0 (Macintosh; Intel Mac OS X 10_15_7) AppleWebKit/605.1.15 (KHTML, like Gecko) Version/17.6 Safari/605.1.15",Macintosh,Safari,17.6,OS X,10_15_7,https://5puzkbbxv1.cognition.run/?sona_id=51560,"en-US,en;q=0.9",dxnc2qh65xdf62e,22,"[""Asian""]",No,Female,NA,No,338304,NA,null,<p></p>,null,choice,tcd,trinary,attraction,1,televisions,null,null,null,null,null,null,2,NA,NA,NA,NA,NA,NA,NA,NA,NA,NA
NA,NA,NA,NA,NA,choice_trial,survey-html-form,11,71637,0.0-4.0-1.3,73,1,2025-04-28T23:51:23Z,b60275e29fe2361ab97ac0ac217840d7,"Mozilla/5.0 (Macintosh; Intel Mac OS X 10_15_7) AppleWebKit/605.1.15 (KHTML, like Gecko) Version/17.6 Safari/605.1.15",Macintosh,Safari,17.6,OS X,10_15_7,https://5puzkbbxv1.cognition.run/?sona_id=51560,"en-US,en;q=0.9",dxnc2qh65xdf62e,22,"[""Asian""]",No,Female,NA,No,338304,NA,13008,NA,"{""product_choice"":""A""}",choice,tcd,trinary,attraction,1,televisions,null,null,null,null,null,null,2,60,50,60,50,60,40,Screen size,Average lifespan,NA,NA
NA,NA,NA,NA,NA,choice_trial_setup,html-keyboard-response,12,71940,0.0-4.0-0.4,73,1,2025-04-28T23:51:23Z,b60275e29fe2361ab97ac0ac217840d7,"Mozilla/5.0 (Macintosh; Intel Mac OS X 10_15_7) AppleWebKit/605.1.15 (KHTML, like Gecko) Version/17.6 Safari/605.1.15",Macintosh,Safari,17.6,OS X,10_15_7,https://5puzkbbxv1.cognition.run/?sona_id=51560,"en-US,en;q=0.9",dxnc2qh65xdf62e,22,"[""Asian""]",No,Female,NA,No,338304,NA,null,<p></p>,null,choice,tcd,trinary,attraction,2,televisions,null,null,null,null,null,null,2,NA,NA,NA,NA,NA,NA,NA,NA,NA,NA
NA,NA,NA,NA,NA,choice_trial,survey-html-form,13,79205,0.0-4.0-1.4,73,1,2025-04-28T23:51:23Z,b60275e29fe2361ab97ac0ac217840d7,"Mozilla/5.0 (Macintosh; Intel Mac OS X 10_15_7) AppleWebKit/605.1.15 (KHTML, like Gecko) Version/17.6 Safari/605.1.15",Macintosh,Safari,17.6,OS X,10_15_7,https://5puzkbbxv1.cognition.run/?sona_id=51560,"en-US,en;q=0.9",dxnc2qh65xdf62e,22,"[""Asian""]",No,Female,NA,No,338304,NA,7260,NA,"{""product_choice"":""A""}",choice,tcd,trinary,attraction,2,televisions,null,null,null,null,null,null,2,50,60,40,60,50,60,Screen size,Average lifespan,NA,NA
NA,NA,NA,NA,NA,choice_trial_setup,html-keyboard-response,14,79507,0.0-4.0-0.5,73,1,2025-04-28T23:51:23Z,b60275e29fe2361ab97ac0ac217840d7,"Mozilla/5.0 (Macintosh; Intel Mac OS X 10_15_7) AppleWebKit/605.1.15 (KHTML, like Gecko) Version/17.6 Safari/605.1.15",Macintosh,Safari,17.6,OS X,10_15_7,https://5puzkbbxv1.cognition.run/?sona_id=51560,"en-US,en;q=0.9",dxnc2qh65xdf62e,22,"[""Asian""]",No,Female,NA,No,338304,NA,null,<p></p>,null,choice,dtc,trinary,repulsion_B,1,televisions,null,null,null,null,null,null,2,NA,NA,NA,NA,NA,NA,NA,NA,NA,NA
NA,NA,NA,NA,NA,choice_trial,survey-html-form,15,85722,0.0-4.0-1.5,73,1,2025-04-28T23:51:23Z,b60275e29fe2361ab97ac0ac217840d7,"Mozilla/5.0 (Macintosh; Intel Mac OS X 10_15_7) AppleWebKit/605.1.15 (KHTML, like Gecko) Version/17.6 Safari/605.1.15",Macintosh,Safari,17.6,OS X,10_15_7,https://5puzkbbxv1.cognition.run/?sona_id=51560,"en-US,en;q=0.9",dxnc2qh65xdf62e,22,"[""Asian""]",No,Female,NA,No,338304,NA,6211,NA,"{""product_choice"":""B""}",choice,dtc,trinary,repulsion_B,1,televisions,null,null,null,null,null,null,2,90,100,80,40,30,40,Screen size,Average lifespan,NA,NA
NA,NA,NA,NA,NA,choice_trial_setup,html-keyboard-response,16,86025,0.0-4.0-0.6,73,1,2025-04-28T23:51:23Z,b60275e29fe2361ab97ac0ac217840d7,"Mozilla/5.0 (Macintosh; Intel Mac OS X 10_15_7) AppleWebKit/605.1.15 (KHTML, like Gecko) Version/17.6 Safari/605.1.15",Macintosh,Safari,17.6,OS X,10_15_7,https://5puzkbbxv1.cognition.run/?sona_id=51560,"en-US,en;q=0.9",dxnc2qh65xdf62e,22,"[""Asian""]",No,Female,NA,No,338304,NA,null,<p></p>,null,choice,tcd,trinary,attraction,2,microwave ovens,null,null,null,null,null,null,2,NA,NA,NA,NA,NA,NA,NA,NA,NA,NA
NA,NA,NA,NA,NA,choice_trial,survey-html-form,17,97069,0.0-4.0-1.6,73,1,2025-04-28T23:51:23Z,b60275e29fe2361ab97ac0ac217840d7,"Mozilla/5.0 (Macintosh; Intel Mac OS X 10_15_7) AppleWebKit/605.1.15 (KHTML, like Gecko) Version/17.6 Safari/605.1.15",Macintosh,Safari,17.6,OS X,10_15_7,https://5puzkbbxv1.cognition.run/?sona_id=51560,"en-US,en;q=0.9",dxnc2qh65xdf62e,22,"[""Asian""]",No,Female,NA,No,338304,NA,11039,NA,"{""product_choice"":""A""}",choice,tcd,trinary,attraction,2,microwave ovens,null,null,null,null,null,null,2,50,60,40,60,50,60,Warranty,Cooking power,NA,NA
NA,NA,NA,NA,NA,choice_trial_setup,html-keyboard-response,18,97371,0.0-4.0-0.7,73,1,2025-04-28T23:51:23Z,b60275e29fe2361ab97ac0ac217840d7,"Mozilla/5.0 (Macintosh; Intel Mac OS X 10_15_7) AppleWebKit/605.1.15 (KHTML, like Gecko) Version/17.6 Safari/605.1.15",Macintosh,Safari,17.6,OS X,10_15_7,https://5puzkbbxv1.cognition.run/?sona_id=51560,"en-US,en;q=0.9",dxnc2qh65xdf62e,22,"[""Asian""]",No,Female,NA,No,338304,NA,null,<p></p>,null,choice,tcd,trinary,repulsion_A,2,washing machines,null,null,null,null,null,null,1,NA,NA,NA,NA,NA,NA,NA,NA,NA,NA
NA,NA,NA,NA,NA,choice_trial,survey-html-form,19,103735,0.0-4.0-1.7,73,1,2025-04-28T23:51:23Z,b60275e29fe2361ab97ac0ac217840d7,"Mozilla/5.0 (Macintosh; Intel Mac OS X 10_15_7) AppleWebKit/605.1.15 (KHTML, like Gecko) Version/17.6 Safari/605.1.15",Macintosh,Safari,17.6,OS X,10_15_7,https://5puzkbbxv1.cognition.run/?sona_id=51560,"en-US,en;q=0.9",dxnc2qh65xdf62e,22,"[""Asian""]",No,Female,NA,No,338304,NA,6361,NA,"{""product_choice"":""B""}",choice,tcd,trinary,repulsion_A,2,washing machines,null,null,null,null,null,null,1,30,40,20,100,90,100,Average lifespan,Energy savings,NA,NA
NA,NA,NA,NA,NA,choice_trial_setup,html-keyboard-response,20,104037,0.0-4.0-0.8,73,1,2025-04-28T23:51:23Z,b60275e29fe2361ab97ac0ac217840d7,"Mozilla/5.0 (Macintosh; Intel Mac OS X 10_15_7) AppleWebKit/605.1.15 (KHTML, like Gecko) Version/17.6 Safari/605.1.15",Macintosh,Safari,17.6,OS X,10_15_7,https://5puzkbbxv1.cognition.run/?sona_id=51560,"en-US,en;q=0.9",dxnc2qh65xdf62e,22,"[""Asian""]",No,Female,NA,No,338304,NA,null,<p></p>,null,choice,tcd,trinary,attraction,1,laptops,null,null,null,null,null,null,2,NA,NA,NA,NA,NA,NA,NA,NA,NA,NA
NA,NA,NA,NA,NA,choice_trial,survey-html-form,21,113003,0.0-4.0-1.8,73,1,2025-04-28T23:51:23Z,b60275e29fe2361ab97ac0ac217840d7,"Mozilla/5.0 (Macintosh; Intel Mac OS X 10_15_7) AppleWebKit/605.1.15 (KHTML, like Gecko) Version/17.6 Safari/605.1.15",Macintosh,Safari,17.6,OS X,10_15_7,https://5puzkbbxv1.cognition.run/?sona_id=51560,"en-US,en;q=0.9",dxnc2qh65xdf62e,22,"[""Asian""]",No,Female,NA,No,338304,NA,8962,NA,"{""product_choice"":""A""}",choice,tcd,trinary,attraction,1,laptops,null,null,null,null,null,null,2,60,50,60,50,60,40,Processing speed,Memory (RAM),NA,NA
NA,NA,NA,NA,NA,choice_trial_setup,html-keyboard-response,22,113306,0.0-4.0-0.9,73,1,2025-04-28T23:51:23Z,b60275e29fe2361ab97ac0ac217840d7,"Mozilla/5.0 (Macintosh; Intel Mac OS X 10_15_7) AppleWebKit/605.1.15 (KHTML, like Gecko) Version/17.6 Safari/605.1.15",Macintosh,Safari,17.6,OS X,10_15_7,https://5puzkbbxv1.cognition.run/?sona_id=51560,"en-US,en;q=0.9",dxnc2qh65xdf62e,22,"[""Asian""]",No,Female,NA,No,338304,NA,null,<p></p>,null,choice,cdt,trinary,repulsion_B,1,laptops,null,null,null,null,null,null,1,NA,NA,NA,NA,NA,NA,NA,NA,NA,NA
NA,NA,NA,NA,NA,choice_trial,survey-html-form,23,118121,0.0-4.0-1.9,73,1,2025-04-28T23:51:23Z,b60275e29fe2361ab97ac0ac217840d7,"Mozilla/5.0 (Macintosh; Intel Mac OS X 10_15_7) AppleWebKit/605.1.15 (KHTML, like Gecko) Version/17.6 Safari/605.1.15",Macintosh,Safari,17.6,OS X,10_15_7,https://5puzkbbxv1.cognition.run/?sona_id=51560,"en-US,en;q=0.9",dxnc2qh65xdf62e,22,"[""Asian""]",No,Female,NA,No,338304,NA,4809,NA,"{""product_choice"":""C""}",choice,cdt,trinary,repulsion_B,1,laptops,null,null,null,null,null,null,1,90,100,80,40,30,40,Processing speed,Memory (RAM),NA,NA
NA,NA,NA,NA,NA,choice_trial_setup,html-keyboard-response,24,118423,0.0-4.0-0.10,73,1,2025-04-28T23:51:23Z,b60275e29fe2361ab97ac0ac217840d7,"Mozilla/5.0 (Macintosh; Intel Mac OS X 10_15_7) AppleWebKit/605.1.15 (KHTML, like Gecko) Version/17.6 Safari/605.1.15",Macintosh,Safari,17.6,OS X,10_15_7,https://5puzkbbxv1.cognition.run/?sona_id=51560,"en-US,en;q=0.9",dxnc2qh65xdf62e,22,"[""Asian""]",No,Female,NA,No,338304,NA,null,<p></p>,null,choice,tdc,trinary,repulsion_B,1,washing machines,null,null,null,null,null,null,2,NA,NA,NA,NA,NA,NA,NA,NA,NA,NA
NA,NA,NA,NA,NA,choice_trial,survey-html-form,25,123687,0.0-4.0-1.10,73,1,2025-04-28T23:51:23Z,b60275e29fe2361ab97ac0ac217840d7,"Mozilla/5.0 (Macintosh; Intel Mac OS X 10_15_7) AppleWebKit/605.1.15 (KHTML, like Gecko) Version/17.6 Safari/605.1.15",Macintosh,Safari,17.6,OS X,10_15_7,https://5puzkbbxv1.cognition.run/?sona_id=51560,"en-US,en;q=0.9",dxnc2qh65xdf62e,22,"[""Asian""]",No,Female,NA,No,338304,NA,5260,NA,"{""product_choice"":""A""}",choice,tdc,trinary,repulsion_B,1,washing machines,null,null,null,null,null,null,2,90,100,80,40,30,40,Average lifespan,Energy savings,NA,NA
NA,NA,NA,NA,NA,choice_trial_setup,html-keyboard-response,26,123990,0.0-4.0-0.11,73,1,2025-04-28T23:51:23Z,b60275e29fe2361ab97ac0ac217840d7,"Mozilla/5.0 (Macintosh; Intel Mac OS X 10_15_7) AppleWebKit/605.1.15 (KHTML, like Gecko) Version/17.6 Safari/605.1.15",Macintosh,Safari,17.6,OS X,10_15_7,https://5puzkbbxv1.cognition.run/?sona_id=51560,"en-US,en;q=0.9",dxnc2qh65xdf62e,22,"[""Asian""]",No,Female,NA,No,338304,NA,null,<p></p>,null,choice,tc,binary,repulsion,1,laptops,null,null,null,null,null,null,2,NA,NA,NA,NA,NA,NA,NA,NA,NA,NA
NA,NA,NA,NA,NA,choice_trial,survey-html-form,27,127819,0.0-4.0-1.11,73,1,2025-04-28T23:51:23Z,b60275e29fe2361ab97ac0ac217840d7,"Mozilla/5.0 (Macintosh; Intel Mac OS X 10_15_7) AppleWebKit/605.1.15 (KHTML, like Gecko) Version/17.6 Safari/605.1.15",Macintosh,Safari,17.6,OS X,10_15_7,https://5puzkbbxv1.cognition.run/?sona_id=51560,"en-US,en;q=0.9",dxnc2qh65xdf62e,22,"[""Asian""]",No,Female,NA,No,338304,NA,3825,NA,"{""product_choice"":""B""}",choice,tc,binary,repulsion,1,laptops,null,null,null,null,null,null,2,100,90,null,30,40,null,Processing speed,Memory (RAM),NA,NA
NA,NA,NA,NA,NA,choice_trial_setup,html-keyboard-response,28,128122,0.0-4.0-0.12,73,1,2025-04-28T23:51:23Z,b60275e29fe2361ab97ac0ac217840d7,"Mozilla/5.0 (Macintosh; Intel Mac OS X 10_15_7) AppleWebKit/605.1.15 (KHTML, like Gecko) Version/17.6 Safari/605.1.15",Macintosh,Safari,17.6,OS X,10_15_7,https://5puzkbbxv1.cognition.run/?sona_id=51560,"en-US,en;q=0.9",dxnc2qh65xdf62e,22,"[""Asian""]",No,Female,NA,No,338304,NA,null,<p></p>,null,choice,wb,binary,catch,null,microwave ovens,80,75,35,50,null,null,1,NA,NA,NA,NA,NA,NA,NA,NA,NA,NA
NA,NA,NA,NA,NA,choice_trial,survey-html-form,29,134118,0.0-4.0-1.12,73,1,2025-04-28T23:51:23Z,b60275e29fe2361ab97ac0ac217840d7,"Mozilla/5.0 (Macintosh; Intel Mac OS X 10_15_7) AppleWebKit/605.1.15 (KHTML, like Gecko) Version/17.6 Safari/605.1.15",Macintosh,Safari,17.6,OS X,10_15_7,https://5puzkbbxv1.cognition.run/?sona_id=51560,"en-US,en;q=0.9",dxnc2qh65xdf62e,22,"[""Asian""]",No,Female,NA,No,338304,NA,5992,NA,"{""product_choice"":""B""}",choice,wb,binary,catch,null,microwave ovens,80,75,35,50,null,null,1,null,null,null,null,null,null,Warranty,Cooking power,NA,NA
NA,NA,NA,NA,NA,choice_trial_setup,html-keyboard-response,30,134421,0.0-4.0-0.13,73,1,2025-04-28T23:51:23Z,b60275e29fe2361ab97ac0ac217840d7,"Mozilla/5.0 (Macintosh; Intel Mac OS X 10_15_7) AppleWebKit/605.1.15 (KHTML, like Gecko) Version/17.6 Safari/605.1.15",Macintosh,Safari,17.6,OS X,10_15_7,https://5puzkbbxv1.cognition.run/?sona_id=51560,"en-US,en;q=0.9",dxnc2qh65xdf62e,22,"[""Asian""]",No,Female,NA,No,338304,NA,null,<p></p>,null,choice,cdt,trinary,repulsion_A,2,microwave ovens,null,null,null,null,null,null,2,NA,NA,NA,NA,NA,NA,NA,NA,NA,NA
NA,NA,NA,NA,NA,choice_trial,survey-html-form,31,138969,0.0-4.0-1.13,73,1,2025-04-28T23:51:23Z,b60275e29fe2361ab97ac0ac217840d7,"Mozilla/5.0 (Macintosh; Intel Mac OS X 10_15_7) AppleWebKit/605.1.15 (KHTML, like Gecko) Version/17.6 Safari/605.1.15",Macintosh,Safari,17.6,OS X,10_15_7,https://5puzkbbxv1.cognition.run/?sona_id=51560,"en-US,en;q=0.9",dxnc2qh65xdf62e,22,"[""Asian""]",No,Female,NA,No,338304,NA,4543,NA,"{""product_choice"":""C""}",choice,cdt,trinary,repulsion_A,2,microwave ovens,null,null,null,null,null,null,2,30,40,20,100,90,100,Warranty,Cooking power,NA,NA
NA,NA,NA,NA,NA,choice_trial_setup,html-keyboard-response,32,139273,0.0-4.0-0.14,73,1,2025-04-28T23:51:23Z,b60275e29fe2361ab97ac0ac217840d7,"Mozilla/5.0 (Macintosh; Intel Mac OS X 10_15_7) AppleWebKit/605.1.15 (KHTML, like Gecko) Version/17.6 Safari/605.1.15",Macintosh,Safari,17.6,OS X,10_15_7,https://5puzkbbxv1.cognition.run/?sona_id=51560,"en-US,en;q=0.9",dxnc2qh65xdf62e,22,"[""Asian""]",No,Female,NA,No,338304,NA,null,<p></p>,null,choice,tc,binary,repulsion,2,laptops,null,null,null,null,null,null,1,NA,NA,NA,NA,NA,NA,NA,NA,NA,NA
NA,NA,NA,NA,NA,choice_trial,survey-html-form,33,144618,0.0-4.0-1.14,73,1,2025-04-28T23:51:23Z,b60275e29fe2361ab97ac0ac217840d7,"Mozilla/5.0 (Macintosh; Intel Mac OS X 10_15_7) AppleWebKit/605.1.15 (KHTML, like Gecko) Version/17.6 Safari/605.1.15",Macintosh,Safari,17.6,OS X,10_15_7,https://5puzkbbxv1.cognition.run/?sona_id=51560,"en-US,en;q=0.9",dxnc2qh65xdf62e,22,"[""Asian""]",No,Female,NA,No,338304,NA,5341,NA,"{""product_choice"":""B""}",choice,tc,binary,repulsion,2,laptops,null,null,null,null,null,null,1,30,40,null,100,90,null,Processing speed,Memory (RAM),NA,NA
NA,NA,NA,NA,NA,choice_trial_setup,html-keyboard-response,34,144922,0.0-4.0-0.15,73,1,2025-04-28T23:51:23Z,b60275e29fe2361ab97ac0ac217840d7,"Mozilla/5.0 (Macintosh; Intel Mac OS X 10_15_7) AppleWebKit/605.1.15 (KHTML, like Gecko) Version/17.6 Safari/605.1.15",Macintosh,Safari,17.6,OS X,10_15_7,https://5puzkbbxv1.cognition.run/?sona_id=51560,"en-US,en;q=0.9",dxnc2qh65xdf62e,22,"[""Asian""]",No,Female,NA,No,338304,NA,null,<p></p>,null,choice,wb,binary,catch,null,laptops,60,65,5,45,null,null,1,NA,NA,NA,NA,NA,NA,NA,NA,NA,NA
NA,NA,NA,NA,NA,choice_trial,survey-html-form,35,148486,0.0-4.0-1.15,73,1,2025-04-28T23:51:23Z,b60275e29fe2361ab97ac0ac217840d7,"Mozilla/5.0 (Macintosh; Intel Mac OS X 10_15_7) AppleWebKit/605.1.15 (KHTML, like Gecko) Version/17.6 Safari/605.1.15",Macintosh,Safari,17.6,OS X,10_15_7,https://5puzkbbxv1.cognition.run/?sona_id=51560,"en-US,en;q=0.9",dxnc2qh65xdf62e,22,"[""Asian""]",No,Female,NA,No,338304,NA,3560,NA,"{""product_choice"":""B""}",choice,wb,binary,catch,null,laptops,60,65,5,45,null,null,1,null,null,null,null,null,null,Processing speed,Memory (RAM),NA,NA
NA,NA,NA,NA,NA,choice_trial_setup,html-keyboard-response,36,148789,0.0-4.0-0.16,73,1,2025-04-28T23:51:23Z,b60275e29fe2361ab97ac0ac217840d7,"Mozilla/5.0 (Macintosh; Intel Mac OS X 10_15_7) AppleWebKit/605.1.15 (KHTML, like Gecko) Version/17.6 Safari/605.1.15",Macintosh,Safari,17.6,OS X,10_15_7,https://5puzkbbxv1.cognition.run/?sona_id=51560,"en-US,en;q=0.9",dxnc2qh65xdf62e,22,"[""Asian""]",No,Female,NA,No,338304,NA,null,<p></p>,null,choice,bw,binary,catch,null,washing machines,65,55,45,20,null,null,2,NA,NA,NA,NA,NA,NA,NA,NA,NA,NA
NA,NA,NA,NA,NA,choice_trial,survey-html-form,37,152621,0.0-4.0-1.16,73,1,2025-04-28T23:51:23Z,b60275e29fe2361ab97ac0ac217840d7,"Mozilla/5.0 (Macintosh; Intel Mac OS X 10_15_7) AppleWebKit/605.1.15 (KHTML, like Gecko) Version/17.6 Safari/605.1.15",Macintosh,Safari,17.6,OS X,10_15_7,https://5puzkbbxv1.cognition.run/?sona_id=51560,"en-US,en;q=0.9",dxnc2qh65xdf62e,22,"[""Asian""]",No,Female,NA,No,338304,NA,3828,NA,"{""product_choice"":""A""}",choice,bw,binary,catch,null,washing machines,65,55,45,20,null,null,2,null,null,null,null,null,null,Average lifespan,Energy savings,NA,NA
NA,NA,NA,NA,NA,choice_trial_setup,html-keyboard-response,38,152925,0.0-4.0-0.17,73,1,2025-04-28T23:51:23Z,b60275e29fe2361ab97ac0ac217840d7,"Mozilla/5.0 (Macintosh; Intel Mac OS X 10_15_7) AppleWebKit/605.1.15 (KHTML, like Gecko) Version/17.6 Safari/605.1.15",Macintosh,Safari,17.6,OS X,10_15_7,https://5puzkbbxv1.cognition.run/?sona_id=51560,"en-US,en;q=0.9",dxnc2qh65xdf62e,22,"[""Asian""]",No,Female,NA,No,338304,NA,null,<p></p>,null,choice,tdc,trinary,repulsion_A,1,microwave ovens,null,null,null,null,null,null,1,NA,NA,NA,NA,NA,NA,NA,NA,NA,NA
NA,NA,NA,NA,NA,choice_trial,survey-html-form,39,157634,0.0-4.0-1.17,73,1,2025-04-28T23:51:23Z,b60275e29fe2361ab97ac0ac217840d7,"Mozilla/5.0 (Macintosh; Intel Mac OS X 10_15_7) AppleWebKit/605.1.15 (KHTML, like Gecko) Version/17.6 Safari/605.1.15",Macintosh,Safari,17.6,OS X,10_15_7,https://5puzkbbxv1.cognition.run/?sona_id=51560,"en-US,en;q=0.9",dxnc2qh65xdf62e,22,"[""Asian""]",No,Female,NA,No,338304,NA,4706,NA,"{""product_choice"":""C""}",choice,tdc,trinary,repulsion_A,1,microwave ovens,null,null,null,null,null,null,1,100,90,100,30,40,20,Warranty,Cooking power,NA,NA
NA,NA,NA,NA,NA,choice_trial_setup,html-keyboard-response,40,157937,0.0-4.0-0.18,73,1,2025-04-28T23:51:23Z,b60275e29fe2361ab97ac0ac217840d7,"Mozilla/5.0 (Macintosh; Intel Mac OS X 10_15_7) AppleWebKit/605.1.15 (KHTML, like Gecko) Version/17.6 Safari/605.1.15",Macintosh,Safari,17.6,OS X,10_15_7,https://5puzkbbxv1.cognition.run/?sona_id=51560,"en-US,en;q=0.9",dxnc2qh65xdf62e,22,"[""Asian""]",No,Female,NA,No,338304,NA,null,<p></p>,null,choice,tc,binary,attraction,NA,microwave ovens,null,null,null,null,null,null,2,NA,NA,NA,NA,NA,NA,NA,NA,NA,NA
NA,NA,NA,NA,NA,choice_trial,survey-html-form,41,161185,0.0-4.0-1.18,73,1,2025-04-28T23:51:23Z,b60275e29fe2361ab97ac0ac217840d7,"Mozilla/5.0 (Macintosh; Intel Mac OS X 10_15_7) AppleWebKit/605.1.15 (KHTML, like Gecko) Version/17.6 Safari/605.1.15",Macintosh,Safari,17.6,OS X,10_15_7,https://5puzkbbxv1.cognition.run/?sona_id=51560,"en-US,en;q=0.9",dxnc2qh65xdf62e,22,"[""Asian""]",No,Female,NA,No,338304,NA,3245,NA,"{""product_choice"":""B""}",choice,tc,binary,attraction,NA,microwave ovens,null,null,null,null,null,null,2,60,50,null,50,60,null,Warranty,Cooking power,NA,NA
NA,NA,NA,NA,NA,choice_trial_setup,html-keyboard-response,42,161488,0.0-4.0-0.19,73,1,2025-04-28T23:51:23Z,b60275e29fe2361ab97ac0ac217840d7,"Mozilla/5.0 (Macintosh; Intel Mac OS X 10_15_7) AppleWebKit/605.1.15 (KHTML, like Gecko) Version/17.6 Safari/605.1.15",Macintosh,Safari,17.6,OS X,10_15_7,https://5puzkbbxv1.cognition.run/?sona_id=51560,"en-US,en;q=0.9",dxnc2qh65xdf62e,22,"[""Asian""]",No,Female,NA,No,338304,NA,null,<p></p>,null,choice,cdt,trinary,repulsion_A,2,laptops,null,null,null,null,null,null,2,NA,NA,NA,NA,NA,NA,NA,NA,NA,NA
NA,NA,NA,NA,NA,choice_trial,survey-html-form,43,165855,0.0-4.0-1.19,73,1,2025-04-28T23:51:23Z,b60275e29fe2361ab97ac0ac217840d7,"Mozilla/5.0 (Macintosh; Intel Mac OS X 10_15_7) AppleWebKit/605.1.15 (KHTML, like Gecko) Version/17.6 Safari/605.1.15",Macintosh,Safari,17.6,OS X,10_15_7,https://5puzkbbxv1.cognition.run/?sona_id=51560,"en-US,en;q=0.9",dxnc2qh65xdf62e,22,"[""Asian""]",No,Female,NA,No,338304,NA,4362,NA,"{""product_choice"":""A""}",choice,cdt,trinary,repulsion_A,2,laptops,null,null,null,null,null,null,2,30,40,20,100,90,100,Processing speed,Memory (RAM),NA,NA
NA,NA,NA,NA,NA,choice_trial_setup,html-keyboard-response,44,166159,0.0-4.0-0.20,73,1,2025-04-28T23:51:23Z,b60275e29fe2361ab97ac0ac217840d7,"Mozilla/5.0 (Macintosh; Intel Mac OS X 10_15_7) AppleWebKit/605.1.15 (KHTML, like Gecko) Version/17.6 Safari/605.1.15",Macintosh,Safari,17.6,OS X,10_15_7,https://5puzkbbxv1.cognition.run/?sona_id=51560,"en-US,en;q=0.9",dxnc2qh65xdf62e,22,"[""Asian""]",No,Female,NA,No,338304,NA,null,<p></p>,null,choice,tdc,trinary,attraction,2,laptops,null,null,null,null,null,null,1,NA,NA,NA,NA,NA,NA,NA,NA,NA,NA
NA,NA,NA,NA,NA,choice_trial,survey-html-form,45,171936,0.0-4.0-1.20,73,1,2025-04-28T23:51:23Z,b60275e29fe2361ab97ac0ac217840d7,"Mozilla/5.0 (Macintosh; Intel Mac OS X 10_15_7) AppleWebKit/605.1.15 (KHTML, like Gecko) Version/17.6 Safari/605.1.15",Macintosh,Safari,17.6,OS X,10_15_7,https://5puzkbbxv1.cognition.run/?sona_id=51560,"en-US,en;q=0.9",dxnc2qh65xdf62e,22,"[""Asian""]",No,Female,NA,No,338304,NA,5772,NA,"{""product_choice"":""C""}",choice,tdc,trinary,attraction,2,laptops,null,null,null,null,null,null,1,50,60,40,60,50,60,Processing speed,Memory (RAM),NA,NA
NA,NA,NA,NA,NA,choice_trial_setup,html-keyboard-response,46,172240,0.0-4.0-0.21,73,1,2025-04-28T23:51:23Z,b60275e29fe2361ab97ac0ac217840d7,"Mozilla/5.0 (Macintosh; Intel Mac OS X 10_15_7) AppleWebKit/605.1.15 (KHTML, like Gecko) Version/17.6 Safari/605.1.15",Macintosh,Safari,17.6,OS X,10_15_7,https://5puzkbbxv1.cognition.run/?sona_id=51560,"en-US,en;q=0.9",dxnc2qh65xdf62e,22,"[""Asian""]",No,Female,NA,No,338304,NA,null,<p></p>,null,choice,cdt,trinary,attraction,1,microwave ovens,null,null,null,null,null,null,1,NA,NA,NA,NA,NA,NA,NA,NA,NA,NA
NA,NA,NA,NA,NA,choice_trial,survey-html-form,47,176436,0.0-4.0-1.21,73,1,2025-04-28T23:51:23Z,b60275e29fe2361ab97ac0ac217840d7,"Mozilla/5.0 (Macintosh; Intel Mac OS X 10_15_7) AppleWebKit/605.1.15 (KHTML, like Gecko) Version/17.6 Safari/605.1.15",Macintosh,Safari,17.6,OS X,10_15_7,https://5puzkbbxv1.cognition.run/?sona_id=51560,"en-US,en;q=0.9",dxnc2qh65xdf62e,22,"[""Asian""]",No,Female,NA,No,338304,NA,4190,NA,"{""product_choice"":""A""}",choice,cdt,trinary,attraction,1,microwave ovens,null,null,null,null,null,null,1,60,50,60,50,60,40,Warranty,Cooking power,NA,NA
NA,NA,NA,NA,NA,choice_trial_setup,html-keyboard-response,48,176739,0.0-4.0-0.22,73,1,2025-04-28T23:51:23Z,b60275e29fe2361ab97ac0ac217840d7,"Mozilla/5.0 (Macintosh; Intel Mac OS X 10_15_7) AppleWebKit/605.1.15 (KHTML, like Gecko) Version/17.6 Safari/605.1.15",Macintosh,Safari,17.6,OS X,10_15_7,https://5puzkbbxv1.cognition.run/?sona_id=51560,"en-US,en;q=0.9",dxnc2qh65xdf62e,22,"[""Asian""]",No,Female,NA,No,338304,NA,null,<p></p>,null,choice,tc,binary,repulsion,2,televisions,null,null,null,null,null,null,1,NA,NA,NA,NA,NA,NA,NA,NA,NA,NA
NA,NA,NA,NA,NA,choice_trial,survey-html-form,49,182302,0.0-4.0-1.22,73,1,2025-04-28T23:51:23Z,b60275e29fe2361ab97ac0ac217840d7,"Mozilla/5.0 (Macintosh; Intel Mac OS X 10_15_7) AppleWebKit/605.1.15 (KHTML, like Gecko) Version/17.6 Safari/605.1.15",Macintosh,Safari,17.6,OS X,10_15_7,https://5puzkbbxv1.cognition.run/?sona_id=51560,"en-US,en;q=0.9",dxnc2qh65xdf62e,22,"[""Asian""]",No,Female,NA,No,338304,NA,5559,NA,"{""product_choice"":""B""}",choice,tc,binary,repulsion,2,televisions,null,null,null,null,null,null,1,30,40,null,100,90,null,Screen size,Average lifespan,NA,NA
NA,NA,NA,NA,NA,choice_trial_setup,html-keyboard-response,50,182606,0.0-4.0-0.23,73,1,2025-04-28T23:51:23Z,b60275e29fe2361ab97ac0ac217840d7,"Mozilla/5.0 (Macintosh; Intel Mac OS X 10_15_7) AppleWebKit/605.1.15 (KHTML, like Gecko) Version/17.6 Safari/605.1.15",Macintosh,Safari,17.6,OS X,10_15_7,https://5puzkbbxv1.cognition.run/?sona_id=51560,"en-US,en;q=0.9",dxnc2qh65xdf62e,22,"[""Asian""]",No,Female,NA,No,338304,NA,null,<p></p>,null,choice,bww,trinary,catch,null,microwave ovens,60,60,35,45,45,25,1,NA,NA,NA,NA,NA,NA,NA,NA,NA,NA
NA,NA,NA,NA,NA,choice_trial,survey-html-form,51,185671,0.0-4.0-1.23,73,1,2025-04-28T23:51:23Z,b60275e29fe2361ab97ac0ac217840d7,"Mozilla/5.0 (Macintosh; Intel Mac OS X 10_15_7) AppleWebKit/605.1.15 (KHTML, like Gecko) Version/17.6 Safari/605.1.15",Macintosh,Safari,17.6,OS X,10_15_7,https://5puzkbbxv1.cognition.run/?sona_id=51560,"en-US,en;q=0.9",dxnc2qh65xdf62e,22,"[""Asian""]",No,Female,NA,No,338304,NA,3055,NA,"{""product_choice"":""A""}",choice,bww,trinary,catch,null,microwave ovens,60,60,35,45,45,25,1,null,null,null,null,null,null,Warranty,Cooking power,NA,NA
NA,NA,NA,NA,NA,choice_trial_setup,html-keyboard-response,52,185976,0.0-4.0-0.24,73,1,2025-04-28T23:51:23Z,b60275e29fe2361ab97ac0ac217840d7,"Mozilla/5.0 (Macintosh; Intel Mac OS X 10_15_7) AppleWebKit/605.1.15 (KHTML, like Gecko) Version/17.6 Safari/605.1.15",Macintosh,Safari,17.6,OS X,10_15_7,https://5puzkbbxv1.cognition.run/?sona_id=51560,"en-US,en;q=0.9",dxnc2qh65xdf62e,22,"[""Asian""]",No,Female,NA,No,338304,NA,null,<p></p>,null,choice,ct,binary,repulsion,2,washing machines,null,null,null,null,null,null,2,NA,NA,NA,NA,NA,NA,NA,NA,NA,NA
NA,NA,NA,NA,NA,choice_trial,survey-html-form,53,191085,0.0-4.0-1.24,73,1,2025-04-28T23:51:23Z,b60275e29fe2361ab97ac0ac217840d7,"Mozilla/5.0 (Macintosh; Intel Mac OS X 10_15_7) AppleWebKit/605.1.15 (KHTML, like Gecko) Version/17.6 Safari/605.1.15",Macintosh,Safari,17.6,OS X,10_15_7,https://5puzkbbxv1.cognition.run/?sona_id=51560,"en-US,en;q=0.9",dxnc2qh65xdf62e,22,"[""Asian""]",No,Female,NA,No,338304,NA,5105,NA,"{""product_choice"":""A""}",choice,ct,binary,repulsion,2,washing machines,null,null,null,null,null,null,2,30,40,null,100,90,null,Average lifespan,Energy savings,NA,NA
NA,NA,NA,NA,NA,choice_trial_setup,html-keyboard-response,54,191389,0.0-4.0-0.25,73,1,2025-04-28T23:51:23Z,b60275e29fe2361ab97ac0ac217840d7,"Mozilla/5.0 (Macintosh; Intel Mac OS X 10_15_7) AppleWebKit/605.1.15 (KHTML, like Gecko) Version/17.6 Safari/605.1.15",Macintosh,Safari,17.6,OS X,10_15_7,https://5puzkbbxv1.cognition.run/?sona_id=51560,"en-US,en;q=0.9",dxnc2qh65xdf62e,22,"[""Asian""]",No,Female,NA,No,338304,NA,null,<p></p>,null,choice,dtc,trinary,repulsion_A,2,televisions,null,null,null,null,null,null,1,NA,NA,NA,NA,NA,NA,NA,NA,NA,NA
NA,NA,NA,NA,NA,choice_trial,survey-html-form,55,196070,0.0-4.0-1.25,73,1,2025-04-28T23:51:23Z,b60275e29fe2361ab97ac0ac217840d7,"Mozilla/5.0 (Macintosh; Intel Mac OS X 10_15_7) AppleWebKit/605.1.15 (KHTML, like Gecko) Version/17.6 Safari/605.1.15",Macintosh,Safari,17.6,OS X,10_15_7,https://5puzkbbxv1.cognition.run/?sona_id=51560,"en-US,en;q=0.9",dxnc2qh65xdf62e,22,"[""Asian""]",No,Female,NA,No,338304,NA,4675,NA,"{""product_choice"":""B""}",choice,dtc,trinary,repulsion_A,2,televisions,null,null,null,null,null,null,1,30,40,20,100,90,100,Screen size,Average lifespan,NA,NA
NA,NA,NA,NA,NA,choice_trial_setup,html-keyboard-response,56,196374,0.0-4.0-0.26,73,1,2025-04-28T23:51:23Z,b60275e29fe2361ab97ac0ac217840d7,"Mozilla/5.0 (Macintosh; Intel Mac OS X 10_15_7) AppleWebKit/605.1.15 (KHTML, like Gecko) Version/17.6 Safari/605.1.15",Macintosh,Safari,17.6,OS X,10_15_7,https://5puzkbbxv1.cognition.run/?sona_id=51560,"en-US,en;q=0.9",dxnc2qh65xdf62e,22,"[""Asian""]",No,Female,NA,No,338304,NA,null,<p></p>,null,choice,tc,binary,repulsion,1,washing machines,null,null,null,null,null,null,1,NA,NA,NA,NA,NA,NA,NA,NA,NA,NA
NA,NA,NA,NA,NA,choice_trial,survey-html-form,57,199839,0.0-4.0-1.26,73,1,2025-04-28T23:51:23Z,b60275e29fe2361ab97ac0ac217840d7,"Mozilla/5.0 (Macintosh; Intel Mac OS X 10_15_7) AppleWebKit/605.1.15 (KHTML, like Gecko) Version/17.6 Safari/605.1.15",Macintosh,Safari,17.6,OS X,10_15_7,https://5puzkbbxv1.cognition.run/?sona_id=51560,"en-US,en;q=0.9",dxnc2qh65xdf62e,22,"[""Asian""]",No,Female,NA,No,338304,NA,3459,NA,"{""product_choice"":""B""}",choice,tc,binary,repulsion,1,washing machines,null,null,null,null,null,null,1,100,90,null,30,40,null,Average lifespan,Energy savings,NA,NA
NA,NA,NA,NA,NA,choice_trial_setup,html-keyboard-response,58,200143,0.0-4.0-0.27,73,1,2025-04-28T23:51:23Z,b60275e29fe2361ab97ac0ac217840d7,"Mozilla/5.0 (Macintosh; Intel Mac OS X 10_15_7) AppleWebKit/605.1.15 (KHTML, like Gecko) Version/17.6 Safari/605.1.15",Macintosh,Safari,17.6,OS X,10_15_7,https://5puzkbbxv1.cognition.run/?sona_id=51560,"en-US,en;q=0.9",dxnc2qh65xdf62e,22,"[""Asian""]",No,Female,NA,No,338304,NA,null,<p></p>,null,choice,ct,binary,attraction,NA,laptops,null,null,null,null,null,null,2,NA,NA,NA,NA,NA,NA,NA,NA,NA,NA
NA,NA,NA,NA,NA,choice_trial,survey-html-form,59,205786,0.0-4.0-1.27,73,1,2025-04-28T23:51:23Z,b60275e29fe2361ab97ac0ac217840d7,"Mozilla/5.0 (Macintosh; Intel Mac OS X 10_15_7) AppleWebKit/605.1.15 (KHTML, like Gecko) Version/17.6 Safari/605.1.15",Macintosh,Safari,17.6,OS X,10_15_7,https://5puzkbbxv1.cognition.run/?sona_id=51560,"en-US,en;q=0.9",dxnc2qh65xdf62e,22,"[""Asian""]",No,Female,NA,No,338304,NA,5639,NA,"{""product_choice"":""B""}",choice,ct,binary,attraction,NA,laptops,null,null,null,null,null,null,2,60,50,null,50,60,null,Processing speed,Memory (RAM),NA,NA
NA,NA,NA,NA,NA,choice_trial_setup,html-keyboard-response,60,206090,0.0-4.0-0.28,73,1,2025-04-28T23:51:23Z,b60275e29fe2361ab97ac0ac217840d7,"Mozilla/5.0 (Macintosh; Intel Mac OS X 10_15_7) AppleWebKit/605.1.15 (KHTML, like Gecko) Version/17.6 Safari/605.1.15",Macintosh,Safari,17.6,OS X,10_15_7,https://5puzkbbxv1.cognition.run/?sona_id=51560,"en-US,en;q=0.9",dxnc2qh65xdf62e,22,"[""Asian""]",No,Female,NA,No,338304,NA,null,<p></p>,null,choice,tc,binary,repulsion,1,televisions,null,null,null,null,null,null,2,NA,NA,NA,NA,NA,NA,NA,NA,NA,NA
NA,NA,NA,NA,NA,choice_trial,survey-html-form,61,209304,0.0-4.0-1.28,73,1,2025-04-28T23:51:23Z,b60275e29fe2361ab97ac0ac217840d7,"Mozilla/5.0 (Macintosh; Intel Mac OS X 10_15_7) AppleWebKit/605.1.15 (KHTML, like Gecko) Version/17.6 Safari/605.1.15",Macintosh,Safari,17.6,OS X,10_15_7,https://5puzkbbxv1.cognition.run/?sona_id=51560,"en-US,en;q=0.9",dxnc2qh65xdf62e,22,"[""Asian""]",No,Female,NA,No,338304,NA,3209,NA,"{""product_choice"":""B""}",choice,tc,binary,repulsion,1,televisions,null,null,null,null,null,null,2,100,90,null,30,40,null,Screen size,Average lifespan,NA,NA
NA,NA,NA,NA,NA,choice_trial_setup,html-keyboard-response,62,209608,0.0-4.0-0.29,73,1,2025-04-28T23:51:23Z,b60275e29fe2361ab97ac0ac217840d7,"Mozilla/5.0 (Macintosh; Intel Mac OS X 10_15_7) AppleWebKit/605.1.15 (KHTML, like Gecko) Version/17.6 Safari/605.1.15",Macintosh,Safari,17.6,OS X,10_15_7,https://5puzkbbxv1.cognition.run/?sona_id=51560,"en-US,en;q=0.9",dxnc2qh65xdf62e,22,"[""Asian""]",No,Female,NA,No,338304,NA,null,<p></p>,null,choice,tc,binary,attraction,NA,washing machines,null,null,null,null,null,null,1,NA,NA,NA,NA,NA,NA,NA,NA,NA,NA
NA,NA,NA,NA,NA,choice_trial,survey-html-form,63,214038,0.0-4.0-1.29,73,1,2025-04-28T23:51:23Z,b60275e29fe2361ab97ac0ac217840d7,"Mozilla/5.0 (Macintosh; Intel Mac OS X 10_15_7) AppleWebKit/605.1.15 (KHTML, like Gecko) Version/17.6 Safari/605.1.15",Macintosh,Safari,17.6,OS X,10_15_7,https://5puzkbbxv1.cognition.run/?sona_id=51560,"en-US,en;q=0.9",dxnc2qh65xdf62e,22,"[""Asian""]",No,Female,NA,No,338304,NA,4426,NA,"{""product_choice"":""A""}",choice,tc,binary,attraction,NA,washing machines,null,null,null,null,null,null,1,60,50,null,50,60,null,Average lifespan,Energy savings,NA,NA
NA,NA,NA,NA,NA,choice_trial_setup,html-keyboard-response,64,214343,0.0-4.0-0.30,73,1,2025-04-28T23:51:23Z,b60275e29fe2361ab97ac0ac217840d7,"Mozilla/5.0 (Macintosh; Intel Mac OS X 10_15_7) AppleWebKit/605.1.15 (KHTML, like Gecko) Version/17.6 Safari/605.1.15",Macintosh,Safari,17.6,OS X,10_15_7,https://5puzkbbxv1.cognition.run/?sona_id=51560,"en-US,en;q=0.9",dxnc2qh65xdf62e,22,"[""Asian""]",No,Female,NA,No,338304,NA,null,<p></p>,null,choice,tdc,trinary,repulsion_B,2,laptops,null,null,null,null,null,null,1,NA,NA,NA,NA,NA,NA,NA,NA,NA,NA
NA,NA,NA,NA,NA,choice_trial,survey-html-form,65,218020,0.0-4.0-1.30,73,1,2025-04-28T23:51:23Z,b60275e29fe2361ab97ac0ac217840d7,"Mozilla/5.0 (Macintosh; Intel Mac OS X 10_15_7) AppleWebKit/605.1.15 (KHTML, like Gecko) Version/17.6 Safari/605.1.15",Macintosh,Safari,17.6,OS X,10_15_7,https://5puzkbbxv1.cognition.run/?sona_id=51560,"en-US,en;q=0.9",dxnc2qh65xdf62e,22,"[""Asian""]",No,Female,NA,No,338304,NA,3671,NA,"{""product_choice"":""A""}",choice,tdc,trinary,repulsion_B,2,laptops,null,null,null,null,null,null,1,40,30,40,90,100,80,Processing speed,Memory (RAM),NA,NA
NA,NA,NA,NA,NA,choice_trial_setup,html-keyboard-response,66,218324,0.0-4.0-0.31,73,1,2025-04-28T23:51:23Z,b60275e29fe2361ab97ac0ac217840d7,"Mozilla/5.0 (Macintosh; Intel Mac OS X 10_15_7) AppleWebKit/605.1.15 (KHTML, like Gecko) Version/17.6 Safari/605.1.15",Macintosh,Safari,17.6,OS X,10_15_7,https://5puzkbbxv1.cognition.run/?sona_id=51560,"en-US,en;q=0.9",dxnc2qh65xdf62e,22,"[""Asian""]",No,Female,NA,No,338304,NA,null,<p></p>,null,choice,dct,trinary,repulsion_A,1,washing machines,null,null,null,null,null,null,1,NA,NA,NA,NA,NA,NA,NA,NA,NA,NA
NA,NA,NA,NA,NA,choice_trial,survey-html-form,67,223735,0.0-4.0-1.31,73,1,2025-04-28T23:51:23Z,b60275e29fe2361ab97ac0ac217840d7,"Mozilla/5.0 (Macintosh; Intel Mac OS X 10_15_7) AppleWebKit/605.1.15 (KHTML, like Gecko) Version/17.6 Safari/605.1.15",Macintosh,Safari,17.6,OS X,10_15_7,https://5puzkbbxv1.cognition.run/?sona_id=51560,"en-US,en;q=0.9",dxnc2qh65xdf62e,22,"[""Asian""]",No,Female,NA,No,338304,NA,5406,NA,"{""product_choice"":""C""}",choice,dct,trinary,repulsion_A,1,washing machines,null,null,null,null,null,null,1,100,90,100,30,40,20,Average lifespan,Energy savings,NA,NA
NA,NA,NA,NA,NA,choice_trial_setup,html-keyboard-response,68,224038,0.0-4.0-0.32,73,1,2025-04-28T23:51:23Z,b60275e29fe2361ab97ac0ac217840d7,"Mozilla/5.0 (Macintosh; Intel Mac OS X 10_15_7) AppleWebKit/605.1.15 (KHTML, like Gecko) Version/17.6 Safari/605.1.15",Macintosh,Safari,17.6,OS X,10_15_7,https://5puzkbbxv1.cognition.run/?sona_id=51560,"en-US,en;q=0.9",dxnc2qh65xdf62e,22,"[""Asian""]",No,Female,NA,No,338304,NA,null,<p></p>,null,choice,cdt,trinary,repulsion_B,2,washing machines,null,null,null,null,null,null,2,NA,NA,NA,NA,NA,NA,NA,NA,NA,NA
NA,NA,NA,NA,NA,choice_trial,survey-html-form,69,227154,0.0-4.0-1.32,73,1,2025-04-28T23:51:23Z,b60275e29fe2361ab97ac0ac217840d7,"Mozilla/5.0 (Macintosh; Intel Mac OS X 10_15_7) AppleWebKit/605.1.15 (KHTML, like Gecko) Version/17.6 Safari/605.1.15",Macintosh,Safari,17.6,OS X,10_15_7,https://5puzkbbxv1.cognition.run/?sona_id=51560,"en-US,en;q=0.9",dxnc2qh65xdf62e,22,"[""Asian""]",No,Female,NA,No,338304,NA,3107,NA,"{""product_choice"":""C""}",choice,cdt,trinary,repulsion_B,2,washing machines,null,null,null,null,null,null,2,40,30,40,90,100,80,Average lifespan,Energy savings,NA,NA
NA,NA,NA,NA,NA,choice_trial_setup,html-keyboard-response,70,227461,0.0-4.0-0.33,73,1,2025-04-28T23:51:23Z,b60275e29fe2361ab97ac0ac217840d7,"Mozilla/5.0 (Macintosh; Intel Mac OS X 10_15_7) AppleWebKit/605.1.15 (KHTML, like Gecko) Version/17.6 Safari/605.1.15",Macintosh,Safari,17.6,OS X,10_15_7,https://5puzkbbxv1.cognition.run/?sona_id=51560,"en-US,en;q=0.9",dxnc2qh65xdf62e,22,"[""Asian""]",No,Female,NA,No,338304,NA,null,<p></p>,null,choice,bww,trinary,catch,null,laptops,90,95,35,45,30,20,2,NA,NA,NA,NA,NA,NA,NA,NA,NA,NA
NA,NA,NA,NA,NA,choice_trial,survey-html-form,71,229837,0.0-4.0-1.33,73,1,2025-04-28T23:51:23Z,b60275e29fe2361ab97ac0ac217840d7,"Mozilla/5.0 (Macintosh; Intel Mac OS X 10_15_7) AppleWebKit/605.1.15 (KHTML, like Gecko) Version/17.6 Safari/605.1.15",Macintosh,Safari,17.6,OS X,10_15_7,https://5puzkbbxv1.cognition.run/?sona_id=51560,"en-US,en;q=0.9",dxnc2qh65xdf62e,22,"[""Asian""]",No,Female,NA,No,338304,NA,2369,NA,"{""product_choice"":""A""}",choice,bww,trinary,catch,null,laptops,90,95,35,45,30,20,2,null,null,null,null,null,null,Processing speed,Memory (RAM),NA,NA
NA,NA,NA,NA,NA,choice_trial_setup,html-keyboard-response,72,230142,0.0-4.0-0.34,73,1,2025-04-28T23:51:23Z,b60275e29fe2361ab97ac0ac217840d7,"Mozilla/5.0 (Macintosh; Intel Mac OS X 10_15_7) AppleWebKit/605.1.15 (KHTML, like Gecko) Version/17.6 Safari/605.1.15",Macintosh,Safari,17.6,OS X,10_15_7,https://5puzkbbxv1.cognition.run/?sona_id=51560,"en-US,en;q=0.9",dxnc2qh65xdf62e,22,"[""Asian""]",No,Female,NA,No,338304,NA,null,<p></p>,null,choice,ctd,trinary,repulsion_B,1,microwave ovens,null,null,null,null,null,null,1,NA,NA,NA,NA,NA,NA,NA,NA,NA,NA
NA,NA,NA,NA,NA,choice_trial,survey-html-form,73,236435,0.0-4.0-1.34,73,1,2025-04-28T23:51:23Z,b60275e29fe2361ab97ac0ac217840d7,"Mozilla/5.0 (Macintosh; Intel Mac OS X 10_15_7) AppleWebKit/605.1.15 (KHTML, like Gecko) Version/17.6 Safari/605.1.15",Macintosh,Safari,17.6,OS X,10_15_7,https://5puzkbbxv1.cognition.run/?sona_id=51560,"en-US,en;q=0.9",dxnc2qh65xdf62e,22,"[""Asian""]",No,Female,NA,No,338304,NA,6287,NA,"{""product_choice"":""B""}",choice,ctd,trinary,repulsion_B,1,microwave ovens,null,null,null,null,null,null,1,90,100,80,40,30,40,Warranty,Cooking power,NA,NA
NA,NA,NA,NA,NA,choice_trial_setup,html-keyboard-response,74,236740,0.0-4.0-0.35,73,1,2025-04-28T23:51:23Z,b60275e29fe2361ab97ac0ac217840d7,"Mozilla/5.0 (Macintosh; Intel Mac OS X 10_15_7) AppleWebKit/605.1.15 (KHTML, like Gecko) Version/17.6 Safari/605.1.15",Macintosh,Safari,17.6,OS X,10_15_7,https://5puzkbbxv1.cognition.run/?sona_id=51560,"en-US,en;q=0.9",dxnc2qh65xdf62e,22,"[""Asian""]",No,Female,NA,No,338304,NA,null,<p></p>,null,choice,bww,trinary,catch,null,washing machines,50,80,10,30,25,20,1,NA,NA,NA,NA,NA,NA,NA,NA,NA,NA
NA,NA,NA,NA,NA,choice_trial,survey-html-form,75,239053,0.0-4.0-1.35,73,1,2025-04-28T23:51:23Z,b60275e29fe2361ab97ac0ac217840d7,"Mozilla/5.0 (Macintosh; Intel Mac OS X 10_15_7) AppleWebKit/605.1.15 (KHTML, like Gecko) Version/17.6 Safari/605.1.15",Macintosh,Safari,17.6,OS X,10_15_7,https://5puzkbbxv1.cognition.run/?sona_id=51560,"en-US,en;q=0.9",dxnc2qh65xdf62e,22,"[""Asian""]",No,Female,NA,No,338304,NA,2306,NA,"{""product_choice"":""A""}",choice,bww,trinary,catch,null,washing machines,50,80,10,30,25,20,1,null,null,null,null,null,null,Average lifespan,Energy savings,NA,NA
NA,NA,NA,NA,NA,choice_trial_setup,html-keyboard-response,76,239359,0.0-4.0-0.36,73,1,2025-04-28T23:51:23Z,b60275e29fe2361ab97ac0ac217840d7,"Mozilla/5.0 (Macintosh; Intel Mac OS X 10_15_7) AppleWebKit/605.1.15 (KHTML, like Gecko) Version/17.6 Safari/605.1.15",Macintosh,Safari,17.6,OS X,10_15_7,https://5puzkbbxv1.cognition.run/?sona_id=51560,"en-US,en;q=0.9",dxnc2qh65xdf62e,22,"[""Asian""]",No,Female,NA,No,338304,NA,null,<p></p>,null,choice,dtc,trinary,repulsion_B,2,televisions,null,null,null,null,null,null,1,NA,NA,NA,NA,NA,NA,NA,NA,NA,NA
NA,NA,NA,NA,NA,choice_trial,survey-html-form,77,243304,0.0-4.0-1.36,73,1,2025-04-28T23:51:23Z,b60275e29fe2361ab97ac0ac217840d7,"Mozilla/5.0 (Macintosh; Intel Mac OS X 10_15_7) AppleWebKit/605.1.15 (KHTML, like Gecko) Version/17.6 Safari/605.1.15",Macintosh,Safari,17.6,OS X,10_15_7,https://5puzkbbxv1.cognition.run/?sona_id=51560,"en-US,en;q=0.9",dxnc2qh65xdf62e,22,"[""Asian""]",No,Female,NA,No,338304,NA,3939,NA,"{""product_choice"":""B""}",choice,dtc,trinary,repulsion_B,2,televisions,null,null,null,null,null,null,1,40,30,40,90,100,80,Screen size,Average lifespan,NA,NA
NA,NA,NA,NA,NA,choice_trial_setup,html-keyboard-response,78,243608,0.0-4.0-0.37,73,1,2025-04-28T23:51:23Z,b60275e29fe2361ab97ac0ac217840d7,"Mozilla/5.0 (Macintosh; Intel Mac OS X 10_15_7) AppleWebKit/605.1.15 (KHTML, like Gecko) Version/17.6 Safari/605.1.15",Macintosh,Safari,17.6,OS X,10_15_7,https://5puzkbbxv1.cognition.run/?sona_id=51560,"en-US,en;q=0.9",dxnc2qh65xdf62e,22,"[""Asian""]",No,Female,NA,No,338304,NA,null,<p></p>,null,choice,dtc,trinary,repulsion_A,1,laptops,null,null,null,null,null,null,1,NA,NA,NA,NA,NA,NA,NA,NA,NA,NA
NA,NA,NA,NA,NA,choice_trial,survey-html-form,79,248806,0.0-4.0-1.37,73,1,2025-04-28T23:51:23Z,b60275e29fe2361ab97ac0ac217840d7,"Mozilla/5.0 (Macintosh; Intel Mac OS X 10_15_7) AppleWebKit/605.1.15 (KHTML, like Gecko) Version/17.6 Safari/605.1.15",Macintosh,Safari,17.6,OS X,10_15_7,https://5puzkbbxv1.cognition.run/?sona_id=51560,"en-US,en;q=0.9",dxnc2qh65xdf62e,22,"[""Asian""]",No,Female,NA,No,338304,NA,5173,NA,"{""product_choice"":""B""}",choice,dtc,trinary,repulsion_A,1,laptops,null,null,null,null,null,null,1,100,90,100,30,40,20,Processing speed,Memory (RAM),NA,NA
NA,NA,NA,NA,NA,choice_trial_setup,html-keyboard-response,80,249111,0.0-4.0-0.38,73,1,2025-04-28T23:51:23Z,b60275e29fe2361ab97ac0ac217840d7,"Mozilla/5.0 (Macintosh; Intel Mac OS X 10_15_7) AppleWebKit/605.1.15 (KHTML, like Gecko) Version/17.6 Safari/605.1.15",Macintosh,Safari,17.6,OS X,10_15_7,https://5puzkbbxv1.cognition.run/?sona_id=51560,"en-US,en;q=0.9",dxnc2qh65xdf62e,22,"[""Asian""]",No,Female,NA,No,338304,NA,null,<p></p>,null,choice,tdc,trinary,attraction,2,washing machines,null,null,null,null,null,null,2,NA,NA,NA,NA,NA,NA,NA,NA,NA,NA
NA,NA,NA,NA,NA,choice_trial,survey-html-form,81,255855,0.0-4.0-1.38,73,1,2025-04-28T23:51:23Z,b60275e29fe2361ab97ac0ac217840d7,"Mozilla/5.0 (Macintosh; Intel Mac OS X 10_15_7) AppleWebKit/605.1.15 (KHTML, like Gecko) Version/17.6 Safari/605.1.15",Macintosh,Safari,17.6,OS X,10_15_7,https://5puzkbbxv1.cognition.run/?sona_id=51560,"en-US,en;q=0.9",dxnc2qh65xdf62e,22,"[""Asian""]",No,Female,NA,No,338304,NA,6738,NA,"{""product_choice"":""A""}",choice,tdc,trinary,attraction,2,washing machines,null,null,null,null,null,null,2,50,60,40,60,50,60,Average lifespan,Energy savings,NA,NA
NA,NA,NA,NA,NA,choice_trial_setup,html-keyboard-response,82,256160,0.0-4.0-0.39,73,1,2025-04-28T23:51:23Z,b60275e29fe2361ab97ac0ac217840d7,"Mozilla/5.0 (Macintosh; Intel Mac OS X 10_15_7) AppleWebKit/605.1.15 (KHTML, like Gecko) Version/17.6 Safari/605.1.15",Macintosh,Safari,17.6,OS X,10_15_7,https://5puzkbbxv1.cognition.run/?sona_id=51560,"en-US,en;q=0.9",dxnc2qh65xdf62e,22,"[""Asian""]",No,Female,NA,No,338304,NA,null,<p></p>,null,choice,ctd,trinary,repulsion_B,2,microwave ovens,null,null,null,null,null,null,1,NA,NA,NA,NA,NA,NA,NA,NA,NA,NA
NA,NA,NA,NA,NA,choice_trial,survey-html-form,83,262769,0.0-4.0-1.39,73,1,2025-04-28T23:51:23Z,b60275e29fe2361ab97ac0ac217840d7,"Mozilla/5.0 (Macintosh; Intel Mac OS X 10_15_7) AppleWebKit/605.1.15 (KHTML, like Gecko) Version/17.6 Safari/605.1.15",Macintosh,Safari,17.6,OS X,10_15_7,https://5puzkbbxv1.cognition.run/?sona_id=51560,"en-US,en;q=0.9",dxnc2qh65xdf62e,22,"[""Asian""]",No,Female,NA,No,338304,NA,6603,NA,"{""product_choice"":""B""}",choice,ctd,trinary,repulsion_B,2,microwave ovens,null,null,null,null,null,null,1,40,30,40,90,100,80,Warranty,Cooking power,NA,NA
NA,NA,NA,NA,NA,choice_trial_setup,html-keyboard-response,84,263074,0.0-4.0-0.40,73,1,2025-04-28T23:51:23Z,b60275e29fe2361ab97ac0ac217840d7,"Mozilla/5.0 (Macintosh; Intel Mac OS X 10_15_7) AppleWebKit/605.1.15 (KHTML, like Gecko) Version/17.6 Safari/605.1.15",Macintosh,Safari,17.6,OS X,10_15_7,https://5puzkbbxv1.cognition.run/?sona_id=51560,"en-US,en;q=0.9",dxnc2qh65xdf62e,22,"[""Asian""]",No,Female,NA,No,338304,NA,null,<p></p>,null,choice,ctd,trinary,attraction,1,washing machines,null,null,null,null,null,null,2,NA,NA,NA,NA,NA,NA,NA,NA,NA,NA
NA,NA,NA,NA,NA,choice_trial,survey-html-form,85,274155,0.0-4.0-1.40,73,1,2025-04-28T23:51:23Z,b60275e29fe2361ab97ac0ac217840d7,"Mozilla/5.0 (Macintosh; Intel Mac OS X 10_15_7) AppleWebKit/605.1.15 (KHTML, like Gecko) Version/17.6 Safari/605.1.15",Macintosh,Safari,17.6,OS X,10_15_7,https://5puzkbbxv1.cognition.run/?sona_id=51560,"en-US,en;q=0.9",dxnc2qh65xdf62e,22,"[""Asian""]",No,Female,NA,No,338304,NA,11074,NA,"{""product_choice"":""B""}",choice,ctd,trinary,attraction,1,washing machines,null,null,null,null,null,null,2,60,50,60,50,60,40,Average lifespan,Energy savings,NA,NA
NA,NA,NA,NA,NA,choice_trial_setup,html-keyboard-response,86,274460,0.0-4.0-0.41,73,1,2025-04-28T23:51:23Z,b60275e29fe2361ab97ac0ac217840d7,"Mozilla/5.0 (Macintosh; Intel Mac OS X 10_15_7) AppleWebKit/605.1.15 (KHTML, like Gecko) Version/17.6 Safari/605.1.15",Macintosh,Safari,17.6,OS X,10_15_7,https://5puzkbbxv1.cognition.run/?sona_id=51560,"en-US,en;q=0.9",dxnc2qh65xdf62e,22,"[""Asian""]",No,Female,NA,No,338304,NA,null,<p></p>,null,choice,ct,binary,attraction,NA,televisions,null,null,null,null,null,null,1,NA,NA,NA,NA,NA,NA,NA,NA,NA,NA
NA,NA,NA,NA,NA,choice_trial,survey-html-form,87,278518,0.0-4.0-1.41,73,1,2025-04-28T23:51:23Z,b60275e29fe2361ab97ac0ac217840d7,"Mozilla/5.0 (Macintosh; Intel Mac OS X 10_15_7) AppleWebKit/605.1.15 (KHTML, like Gecko) Version/17.6 Safari/605.1.15",Macintosh,Safari,17.6,OS X,10_15_7,https://5puzkbbxv1.cognition.run/?sona_id=51560,"en-US,en;q=0.9",dxnc2qh65xdf62e,22,"[""Asian""]",No,Female,NA,No,338304,NA,4051,NA,"{""product_choice"":""B""}",choice,ct,binary,attraction,NA,televisions,null,null,null,null,null,null,1,60,50,null,50,60,null,Screen size,Average lifespan,NA,NA
NA,NA,NA,NA,NA,choice_trial_setup,html-keyboard-response,88,278823,0.0-4.0-0.42,73,1,2025-04-28T23:51:23Z,b60275e29fe2361ab97ac0ac217840d7,"Mozilla/5.0 (Macintosh; Intel Mac OS X 10_15_7) AppleWebKit/605.1.15 (KHTML, like Gecko) Version/17.6 Safari/605.1.15",Macintosh,Safari,17.6,OS X,10_15_7,https://5puzkbbxv1.cognition.run/?sona_id=51560,"en-US,en;q=0.9",dxnc2qh65xdf62e,22,"[""Asian""]",No,Female,NA,No,338304,NA,null,<p></p>,null,choice,tc,binary,repulsion,2,microwave ovens,null,null,null,null,null,null,1,NA,NA,NA,NA,NA,NA,NA,NA,NA,NA
NA,NA,NA,NA,NA,choice_trial,survey-html-form,89,286239,0.0-4.0-1.42,73,1,2025-04-28T23:51:23Z,b60275e29fe2361ab97ac0ac217840d7,"Mozilla/5.0 (Macintosh; Intel Mac OS X 10_15_7) AppleWebKit/605.1.15 (KHTML, like Gecko) Version/17.6 Safari/605.1.15",Macintosh,Safari,17.6,OS X,10_15_7,https://5puzkbbxv1.cognition.run/?sona_id=51560,"en-US,en;q=0.9",dxnc2qh65xdf62e,22,"[""Asian""]",No,Female,NA,No,338304,NA,7409,NA,"{""product_choice"":""B""}",choice,tc,binary,repulsion,2,microwave ovens,null,null,null,null,null,null,1,30,40,null,100,90,null,Warranty,Cooking power,NA,NA
NA,NA,NA,NA,NA,choice_trial_setup,html-keyboard-response,90,286545,0.0-4.0-0.43,73,1,2025-04-28T23:51:23Z,b60275e29fe2361ab97ac0ac217840d7,"Mozilla/5.0 (Macintosh; Intel Mac OS X 10_15_7) AppleWebKit/605.1.15 (KHTML, like Gecko) Version/17.6 Safari/605.1.15",Macintosh,Safari,17.6,OS X,10_15_7,https://5puzkbbxv1.cognition.run/?sona_id=51560,"en-US,en;q=0.9",dxnc2qh65xdf62e,22,"[""Asian""]",No,Female,NA,No,338304,NA,null,<p></p>,null,choice,ct,binary,repulsion,1,microwave ovens,null,null,null,null,null,null,2,NA,NA,NA,NA,NA,NA,NA,NA,NA,NA
NA,NA,NA,NA,NA,choice_trial,survey-html-form,91,291886,0.0-4.0-1.43,73,1,2025-04-28T23:51:23Z,b60275e29fe2361ab97ac0ac217840d7,"Mozilla/5.0 (Macintosh; Intel Mac OS X 10_15_7) AppleWebKit/605.1.15 (KHTML, like Gecko) Version/17.6 Safari/605.1.15",Macintosh,Safari,17.6,OS X,10_15_7,https://5puzkbbxv1.cognition.run/?sona_id=51560,"en-US,en;q=0.9",dxnc2qh65xdf62e,22,"[""Asian""]",No,Female,NA,No,338304,NA,5337,NA,"{""product_choice"":""A""}",choice,ct,binary,repulsion,1,microwave ovens,null,null,null,null,null,null,2,100,90,null,30,40,null,Warranty,Cooking power,NA,NA
NA,NA,NA,NA,NA,post_trials_message,html-button-response,92,293103,0.0-5.0,73,1,2025-04-28T23:51:23Z,b60275e29fe2361ab97ac0ac217840d7,"Mozilla/5.0 (Macintosh; Intel Mac OS X 10_15_7) AppleWebKit/605.1.15 (KHTML, like Gecko) Version/17.6 Safari/605.1.15",Macintosh,Safari,17.6,OS X,10_15_7,https://5puzkbbxv1.cognition.run/?sona_id=51560,"en-US,en;q=0.9",dxnc2qh65xdf62e,22,"[""Asian""]",No,Female,NA,No,338304,NA,1207,<p> <b>Thank you for your patience!</b></p><p>  The study will be done after completing a brief form. </p>,0,NA,NA,NA,NA,NA,NA,NA,NA,NA,NA,NA,NA,NA,NA,NA,NA,NA,NA,NA,NA,NA,NA,NA
NA,NA,NA,NA,NA,survey_message,survey-text,93,307921,0.0-6.0,73,1,2025-04-28T23:51:23Z,b60275e29fe2361ab97ac0ac217840d7,"Mozilla/5.0 (Macintosh; Intel Mac OS X 10_15_7) AppleWebKit/605.1.15 (KHTML, like Gecko) Version/17.6 Safari/605.1.15",Macintosh,Safari,17.6,OS X,10_15_7,https://5puzkbbxv1.cognition.run/?sona_id=51560,"en-US,en;q=0.9",dxnc2qh65xdf62e,22,"[""Asian""]",No,Female,NA,No,338304,NA,14785,NA,"{""Q0"":""finding a balance based on which is more valuable for the product""}",NA,NA,NA,NA,NA,NA,NA,NA,NA,NA,NA,NA,NA,NA,NA,NA,NA,NA,NA,NA,NA,finding a balance based on which is more valuable for the product,NA
NA,NA,NA,NA,NA,demo_age,survey-text,94,309686,0.0-7.0,73,1,2025-04-28T23:51:23Z,b60275e29fe2361ab97ac0ac217840d7,"Mozilla/5.0 (Macintosh; Intel Mac OS X 10_15_7) AppleWebKit/605.1.15 (KHTML, like Gecko) Version/17.6 Safari/605.1.15",Macintosh,Safari,17.6,OS X,10_15_7,https://5puzkbbxv1.cognition.run/?sona_id=51560,"en-US,en;q=0.9",dxnc2qh65xdf62e,22,"[""Asian""]",No,Female,NA,No,338304,NA,1757,NA,"{""Q0"":""22""}",NA,NA,NA,NA,NA,NA,NA,NA,NA,NA,NA,NA,NA,NA,NA,NA,NA,NA,NA,NA,NA,NA,NA
NA,NA,NA,NA,NA,demo_race,survey-multi-select,95,313121,0.0-8.0,73,1,2025-04-28T23:51:23Z,b60275e29fe2361ab97ac0ac217840d7,"Mozilla/5.0 (Macintosh; Intel Mac OS X 10_15_7) AppleWebKit/605.1.15 (KHTML, like Gecko) Version/17.6 Safari/605.1.15",Macintosh,Safari,17.6,OS X,10_15_7,https://5puzkbbxv1.cognition.run/?sona_id=51560,"en-US,en;q=0.9",dxnc2qh65xdf62e,22,"[""Asian""]",No,Female,NA,No,338304,NA,3426,NA,"{""Q0"":[""Asian""]}",NA,NA,NA,NA,NA,NA,NA,NA,NA,NA,NA,NA,NA,NA,NA,NA,NA,NA,NA,NA,NA,NA,[0]
NA,NA,NA,NA,NA,demo_ethnicity_gender,survey-multi-choice,96,315903,0.0-9.0,73,1,2025-04-28T23:51:23Z,b60275e29fe2361ab97ac0ac217840d7,"Mozilla/5.0 (Macintosh; Intel Mac OS X 10_15_7) AppleWebKit/605.1.15 (KHTML, like Gecko) Version/17.6 Safari/605.1.15",Macintosh,Safari,17.6,OS X,10_15_7,https://5puzkbbxv1.cognition.run/?sona_id=51560,"en-US,en;q=0.9",dxnc2qh65xdf62e,22,"[""Asian""]",No,Female,NA,No,338304,NA,2774,NA,"{""Q0"":""No"",""Q1"":""Female""}",NA,NA,NA,NA,NA,NA,NA,NA,NA,NA,NA,NA,NA,NA,NA,NA,NA,NA,NA,NA,NA,NA,"[0,1]"
NA,NA,NA,NA,NA,demo_countries,survey-text,97,319654,0.0-10.0,73,1,2025-04-28T23:51:23Z,b60275e29fe2361ab97ac0ac217840d7,"Mozilla/5.0 (Macintosh; Intel Mac OS X 10_15_7) AppleWebKit/605.1.15 (KHTML, like Gecko) Version/17.6 Safari/605.1.15",Macintosh,Safari,17.6,OS X,10_15_7,https://5puzkbbxv1.cognition.run/?sona_id=51560,"en-US,en;q=0.9",dxnc2qh65xdf62e,22,"[""Asian""]",No,Female,NA,No,338304,NA,3744,NA,"{""Q0"":""NA""}",NA,NA,NA,NA,NA,NA,NA,NA,NA,NA,NA,NA,NA,NA,NA,NA,NA,NA,NA,NA,NA,NA,NA
NA,NA,NA,NA,NA,demo_prev_study,survey-multi-choice,98,323386,0.0-11.0,73,1,2025-04-28T23:51:23Z,b60275e29fe2361ab97ac0ac217840d7,"Mozilla/5.0 (Macintosh; Intel Mac OS X 10_15_7) AppleWebKit/605.1.15 (KHTML, like Gecko) Version/17.6 Safari/605.1.15",Macintosh,Safari,17.6,OS X,10_15_7,https://5puzkbbxv1.cognition.run/?sona_id=51560,"en-US,en;q=0.9",dxnc2qh65xdf62e,22,"[""Asian""]",No,Female,NA,No,338304,NA,3728,NA,"{""Q0"":""No""}",NA,NA,NA,NA,NA,NA,NA,NA,NA,NA,NA,NA,NA,NA,NA,NA,NA,NA,NA,NA,NA,NA,[0]
NA,NA,NA,NA,NA,post_survey_message,html-keyboard-response,99,327993,0.0-12.0,73,1,2025-04-28T23:51:23Z,b60275e29fe2361ab97ac0ac217840d7,"Mozilla/5.0 (Macintosh; Intel Mac OS X 10_15_7) AppleWebKit/605.1.15 (KHTML, like Gecko) Version/17.6 Safari/605.1.15",Macintosh,Safari,17.6,OS X,10_15_7,https://5puzkbbxv1.cognition.run/?sona_id=51560,"en-US,en;q=0.9",dxnc2qh65xdf62e,22,"[""Asian""]",No,Female,NA,No,338304,NA,4593,NA,j,NA,NA,NA,NA,NA,NA,NA,NA,NA,NA,NA,NA,NA,NA,NA,NA,NA,NA,NA,NA,NA,NA,NA
NA,NA,NA,NA,NA,debrief,image-keyboard-response,100,338295,0.0-13.0,73,1,2025-04-28T23:51:23Z,b60275e29fe2361ab97ac0ac217840d7,"Mozilla/5.0 (Macintosh; Intel Mac OS X 10_15_7) AppleWebKit/605.1.15 (KHTML, like Gecko) Version/17.6 Safari/605.1.15",Macintosh,Safari,17.6,OS X,10_15_7,https://5puzkbbxv1.cognition.run/?sona_id=51560,"en-US,en;q=0.9",dxnc2qh65xdf62e,22,"[""Asian""]",No,Female,NA,No,338304,NA,10266,Judg_choice_debrief.png,p,NA,NA,NA,NA,NA,NA,NA,NA,NA,NA,NA,NA,NA,NA,NA,NA,NA,NA,NA,NA,NA,NA,NA
