success,timeout,failed_images,failed_audio,failed_video,screen_id,trial_type,trial_index,time_elapsed,internal_node_id,run_id,condition,recorded_at,source_code_version,user_agent,device,browser,browser_version,platform,platform_version,referer,accept_language,ppt_id,age,race,ethnicity,gender,other_countries,prev_study,view_history,rt,stimulus,response,phase,order,set,effect,t_high,category,d1_best,d2_best,d1_worst1,d2_worst1,d1_worst2,d2_worst2,first_dim,d1_t,d1_c,d1_d,d2_t,d2_c,d2_d,d1_name,d2_name,strategy_response,question_order
TRUE,FALSE,[],[],[],img preload,preload,0,136,0.0-0.0,74,1,2025-04-29T00:08:55Z,b60275e29fe2361ab97ac0ac217840d7,"Mozilla/5.0 (Macintosh; Intel Mac OS X 10_15_7) AppleWebKit/605.1.15 (KHTML, like Gecko) Version/18.3.1 Safari/605.1.15",Macintosh,Safari,18.3.1,OS X,10_15_7,https://5puzkbbxv1.cognition.run/?sona_id=57479,"en-US,en;q=0.9",chb98n8vf8ozpfc,18,"[""White""]",Yes,Female,Na,No,NA,NA,NA,NA,NA,NA,NA,NA,NA,NA,NA,NA,NA,NA,NA,NA,NA,NA,NA,NA,NA,NA,NA,NA,NA,NA,NA
NA,NA,NA,NA,NA,computer_message,instructions,1,3856,0.0-1.0,74,1,2025-04-29T00:08:55Z,b60275e29fe2361ab97ac0ac217840d7,"Mozilla/5.0 (Macintosh; Intel Mac OS X 10_15_7) AppleWebKit/605.1.15 (KHTML, like Gecko) Version/18.3.1 Safari/605.1.15",Macintosh,Safari,18.3.1,OS X,10_15_7,https://5puzkbbxv1.cognition.run/?sona_id=57479,"en-US,en;q=0.9",chb98n8vf8ozpfc,18,"[""White""]",Yes,Female,Na,No,"[{""page_index"":0,""viewing_time"":3718}]",3718,NA,NA,NA,NA,NA,NA,NA,NA,NA,NA,NA,NA,NA,NA,NA,NA,NA,NA,NA,NA,NA,NA,NA,NA,NA
TRUE,NA,NA,NA,NA,NA,fullscreen,2,6692,0.0-2.0,74,1,2025-04-29T00:08:55Z,b60275e29fe2361ab97ac0ac217840d7,"Mozilla/5.0 (Macintosh; Intel Mac OS X 10_15_7) AppleWebKit/605.1.15 (KHTML, like Gecko) Version/18.3.1 Safari/605.1.15",Macintosh,Safari,18.3.1,OS X,10_15_7,https://5puzkbbxv1.cognition.run/?sona_id=57479,"en-US,en;q=0.9",chb98n8vf8ozpfc,18,"[""White""]",Yes,Female,Na,No,NA,1830,NA,NA,NA,NA,NA,NA,NA,NA,NA,NA,NA,NA,NA,NA,NA,NA,NA,NA,NA,NA,NA,NA,NA,NA,NA
NA,NA,NA,NA,NA,choice_instructions,instructions,3,50852,0.0-3.0,74,1,2025-04-29T00:08:55Z,b60275e29fe2361ab97ac0ac217840d7,"Mozilla/5.0 (Macintosh; Intel Mac OS X 10_15_7) AppleWebKit/605.1.15 (KHTML, like Gecko) Version/18.3.1 Safari/605.1.15",Macintosh,Safari,18.3.1,OS X,10_15_7,https://5puzkbbxv1.cognition.run/?sona_id=57479,"en-US,en;q=0.9",chb98n8vf8ozpfc,18,"[""White""]",Yes,Female,Na,No,"[{""page_index"":0,""viewing_time"":1460},{""page_index"":1,""viewing_time"":4700},{""page_index"":2,""viewing_time"":8616},{""page_index"":3,""viewing_time"":6783},{""page_index"":4,""viewing_time"":4350},{""page_index"":5,""viewing_time"":8198},{""page_index"":6,""viewing_time"":10050}]",44157,NA,NA,NA,NA,NA,NA,NA,NA,NA,NA,NA,NA,NA,NA,NA,NA,NA,NA,NA,NA,NA,NA,NA,NA,NA
NA,NA,NA,NA,NA,choice_trial_setup,html-keyboard-response,4,51161,0.0-4.0-0.0,74,1,2025-04-29T00:08:55Z,b60275e29fe2361ab97ac0ac217840d7,"Mozilla/5.0 (Macintosh; Intel Mac OS X 10_15_7) AppleWebKit/605.1.15 (KHTML, like Gecko) Version/18.3.1 Safari/605.1.15",Macintosh,Safari,18.3.1,OS X,10_15_7,https://5puzkbbxv1.cognition.run/?sona_id=57479,"en-US,en;q=0.9",chb98n8vf8ozpfc,18,"[""White""]",Yes,Female,Na,No,NA,null,<p></p>,null,choice,dtc,trinary,repulsion_B,1,microwave ovens,null,null,null,null,null,null,1,NA,NA,NA,NA,NA,NA,NA,NA,NA,NA
NA,NA,NA,NA,NA,choice_trial,survey-html-form,5,68405,0.0-4.0-1.0,74,1,2025-04-29T00:08:55Z,b60275e29fe2361ab97ac0ac217840d7,"Mozilla/5.0 (Macintosh; Intel Mac OS X 10_15_7) AppleWebKit/605.1.15 (KHTML, like Gecko) Version/18.3.1 Safari/605.1.15",Macintosh,Safari,18.3.1,OS X,10_15_7,https://5puzkbbxv1.cognition.run/?sona_id=57479,"en-US,en;q=0.9",chb98n8vf8ozpfc,18,"[""White""]",Yes,Female,Na,No,NA,17234,NA,"{""product_choice"":""B""}",choice,dtc,trinary,repulsion_B,1,microwave ovens,null,null,null,null,null,null,1,90,100,80,40,30,40,Warranty,Cooking power,NA,NA
NA,NA,NA,NA,NA,choice_trial_setup,html-keyboard-response,6,68708,0.0-4.0-0.1,74,1,2025-04-29T00:08:55Z,b60275e29fe2361ab97ac0ac217840d7,"Mozilla/5.0 (Macintosh; Intel Mac OS X 10_15_7) AppleWebKit/605.1.15 (KHTML, like Gecko) Version/18.3.1 Safari/605.1.15",Macintosh,Safari,18.3.1,OS X,10_15_7,https://5puzkbbxv1.cognition.run/?sona_id=57479,"en-US,en;q=0.9",chb98n8vf8ozpfc,18,"[""White""]",Yes,Female,Na,No,NA,null,<p></p>,null,choice,tc,binary,repulsion,1,microwave ovens,null,null,null,null,null,null,2,NA,NA,NA,NA,NA,NA,NA,NA,NA,NA
NA,NA,NA,NA,NA,choice_trial,survey-html-form,7,75190,0.0-4.0-1.1,74,1,2025-04-29T00:08:55Z,b60275e29fe2361ab97ac0ac217840d7,"Mozilla/5.0 (Macintosh; Intel Mac OS X 10_15_7) AppleWebKit/605.1.15 (KHTML, like Gecko) Version/18.3.1 Safari/605.1.15",Macintosh,Safari,18.3.1,OS X,10_15_7,https://5puzkbbxv1.cognition.run/?sona_id=57479,"en-US,en;q=0.9",chb98n8vf8ozpfc,18,"[""White""]",Yes,Female,Na,No,NA,6476,NA,"{""product_choice"":""B""}",choice,tc,binary,repulsion,1,microwave ovens,null,null,null,null,null,null,2,100,90,null,30,40,null,Warranty,Cooking power,NA,NA
NA,NA,NA,NA,NA,choice_trial_setup,html-keyboard-response,8,75493,0.0-4.0-0.2,74,1,2025-04-29T00:08:55Z,b60275e29fe2361ab97ac0ac217840d7,"Mozilla/5.0 (Macintosh; Intel Mac OS X 10_15_7) AppleWebKit/605.1.15 (KHTML, like Gecko) Version/18.3.1 Safari/605.1.15",Macintosh,Safari,18.3.1,OS X,10_15_7,https://5puzkbbxv1.cognition.run/?sona_id=57479,"en-US,en;q=0.9",chb98n8vf8ozpfc,18,"[""White""]",Yes,Female,Na,No,NA,null,<p></p>,null,choice,ct,binary,attraction,NA,televisions,null,null,null,null,null,null,2,NA,NA,NA,NA,NA,NA,NA,NA,NA,NA
NA,NA,NA,NA,NA,choice_trial,survey-html-form,9,81973,0.0-4.0-1.2,74,1,2025-04-29T00:08:55Z,b60275e29fe2361ab97ac0ac217840d7,"Mozilla/5.0 (Macintosh; Intel Mac OS X 10_15_7) AppleWebKit/605.1.15 (KHTML, like Gecko) Version/18.3.1 Safari/605.1.15",Macintosh,Safari,18.3.1,OS X,10_15_7,https://5puzkbbxv1.cognition.run/?sona_id=57479,"en-US,en;q=0.9",chb98n8vf8ozpfc,18,"[""White""]",Yes,Female,Na,No,NA,6475,NA,"{""product_choice"":""A""}",choice,ct,binary,attraction,NA,televisions,null,null,null,null,null,null,2,60,50,null,50,60,null,Screen size,Average lifespan,NA,NA
NA,NA,NA,NA,NA,choice_trial_setup,html-keyboard-response,10,82277,0.0-4.0-0.3,74,1,2025-04-29T00:08:55Z,b60275e29fe2361ab97ac0ac217840d7,"Mozilla/5.0 (Macintosh; Intel Mac OS X 10_15_7) AppleWebKit/605.1.15 (KHTML, like Gecko) Version/18.3.1 Safari/605.1.15",Macintosh,Safari,18.3.1,OS X,10_15_7,https://5puzkbbxv1.cognition.run/?sona_id=57479,"en-US,en;q=0.9",chb98n8vf8ozpfc,18,"[""White""]",Yes,Female,Na,No,NA,null,<p></p>,null,choice,tc,binary,attraction,NA,washing machines,null,null,null,null,null,null,2,NA,NA,NA,NA,NA,NA,NA,NA,NA,NA
NA,NA,NA,NA,NA,choice_trial,survey-html-form,11,90505,0.0-4.0-1.3,74,1,2025-04-29T00:08:55Z,b60275e29fe2361ab97ac0ac217840d7,"Mozilla/5.0 (Macintosh; Intel Mac OS X 10_15_7) AppleWebKit/605.1.15 (KHTML, like Gecko) Version/18.3.1 Safari/605.1.15",Macintosh,Safari,18.3.1,OS X,10_15_7,https://5puzkbbxv1.cognition.run/?sona_id=57479,"en-US,en;q=0.9",chb98n8vf8ozpfc,18,"[""White""]",Yes,Female,Na,No,NA,8224,NA,"{""product_choice"":""A""}",choice,tc,binary,attraction,NA,washing machines,null,null,null,null,null,null,2,60,50,null,50,60,null,Average lifespan,Energy savings,NA,NA
NA,NA,NA,NA,NA,choice_trial_setup,html-keyboard-response,12,90809,0.0-4.0-0.4,74,1,2025-04-29T00:08:55Z,b60275e29fe2361ab97ac0ac217840d7,"Mozilla/5.0 (Macintosh; Intel Mac OS X 10_15_7) AppleWebKit/605.1.15 (KHTML, like Gecko) Version/18.3.1 Safari/605.1.15",Macintosh,Safari,18.3.1,OS X,10_15_7,https://5puzkbbxv1.cognition.run/?sona_id=57479,"en-US,en;q=0.9",chb98n8vf8ozpfc,18,"[""White""]",Yes,Female,Na,No,NA,null,<p></p>,null,choice,dtc,trinary,repulsion_B,1,washing machines,null,null,null,null,null,null,2,NA,NA,NA,NA,NA,NA,NA,NA,NA,NA
NA,NA,NA,NA,NA,choice_trial,survey-html-form,13,99355,0.0-4.0-1.4,74,1,2025-04-29T00:08:55Z,b60275e29fe2361ab97ac0ac217840d7,"Mozilla/5.0 (Macintosh; Intel Mac OS X 10_15_7) AppleWebKit/605.1.15 (KHTML, like Gecko) Version/18.3.1 Safari/605.1.15",Macintosh,Safari,18.3.1,OS X,10_15_7,https://5puzkbbxv1.cognition.run/?sona_id=57479,"en-US,en;q=0.9",chb98n8vf8ozpfc,18,"[""White""]",Yes,Female,Na,No,NA,8541,NA,"{""product_choice"":""B""}",choice,dtc,trinary,repulsion_B,1,washing machines,null,null,null,null,null,null,2,90,100,80,40,30,40,Average lifespan,Energy savings,NA,NA
NA,NA,NA,NA,NA,choice_trial_setup,html-keyboard-response,14,99659,0.0-4.0-0.5,74,1,2025-04-29T00:08:55Z,b60275e29fe2361ab97ac0ac217840d7,"Mozilla/5.0 (Macintosh; Intel Mac OS X 10_15_7) AppleWebKit/605.1.15 (KHTML, like Gecko) Version/18.3.1 Safari/605.1.15",Macintosh,Safari,18.3.1,OS X,10_15_7,https://5puzkbbxv1.cognition.run/?sona_id=57479,"en-US,en;q=0.9",chb98n8vf8ozpfc,18,"[""White""]",Yes,Female,Na,No,NA,null,<p></p>,null,choice,cdt,trinary,repulsion_A,1,washing machines,null,null,null,null,null,null,1,NA,NA,NA,NA,NA,NA,NA,NA,NA,NA
NA,NA,NA,NA,NA,choice_trial,survey-html-form,15,105154,0.0-4.0-1.5,74,1,2025-04-29T00:08:55Z,b60275e29fe2361ab97ac0ac217840d7,"Mozilla/5.0 (Macintosh; Intel Mac OS X 10_15_7) AppleWebKit/605.1.15 (KHTML, like Gecko) Version/18.3.1 Safari/605.1.15",Macintosh,Safari,18.3.1,OS X,10_15_7,https://5puzkbbxv1.cognition.run/?sona_id=57479,"en-US,en;q=0.9",chb98n8vf8ozpfc,18,"[""White""]",Yes,Female,Na,No,NA,5489,NA,"{""product_choice"":""C""}",choice,cdt,trinary,repulsion_A,1,washing machines,null,null,null,null,null,null,1,100,90,100,30,40,20,Average lifespan,Energy savings,NA,NA
NA,NA,NA,NA,NA,choice_trial_setup,html-keyboard-response,16,105459,0.0-4.0-0.6,74,1,2025-04-29T00:08:55Z,b60275e29fe2361ab97ac0ac217840d7,"Mozilla/5.0 (Macintosh; Intel Mac OS X 10_15_7) AppleWebKit/605.1.15 (KHTML, like Gecko) Version/18.3.1 Safari/605.1.15",Macintosh,Safari,18.3.1,OS X,10_15_7,https://5puzkbbxv1.cognition.run/?sona_id=57479,"en-US,en;q=0.9",chb98n8vf8ozpfc,18,"[""White""]",Yes,Female,Na,No,NA,null,<p></p>,null,choice,bw,binary,catch,null,microwave ovens,85,50,10,25,null,null,1,NA,NA,NA,NA,NA,NA,NA,NA,NA,NA
NA,NA,NA,NA,NA,choice_trial,survey-html-form,17,111722,0.0-4.0-1.6,74,1,2025-04-29T00:08:55Z,b60275e29fe2361ab97ac0ac217840d7,"Mozilla/5.0 (Macintosh; Intel Mac OS X 10_15_7) AppleWebKit/605.1.15 (KHTML, like Gecko) Version/18.3.1 Safari/605.1.15",Macintosh,Safari,18.3.1,OS X,10_15_7,https://5puzkbbxv1.cognition.run/?sona_id=57479,"en-US,en;q=0.9",chb98n8vf8ozpfc,18,"[""White""]",Yes,Female,Na,No,NA,6257,NA,"{""product_choice"":""A""}",choice,bw,binary,catch,null,microwave ovens,85,50,10,25,null,null,1,null,null,null,null,null,null,Warranty,Cooking power,NA,NA
NA,NA,NA,NA,NA,choice_trial_setup,html-keyboard-response,18,112025,0.0-4.0-0.7,74,1,2025-04-29T00:08:55Z,b60275e29fe2361ab97ac0ac217840d7,"Mozilla/5.0 (Macintosh; Intel Mac OS X 10_15_7) AppleWebKit/605.1.15 (KHTML, like Gecko) Version/18.3.1 Safari/605.1.15",Macintosh,Safari,18.3.1,OS X,10_15_7,https://5puzkbbxv1.cognition.run/?sona_id=57479,"en-US,en;q=0.9",chb98n8vf8ozpfc,18,"[""White""]",Yes,Female,Na,No,NA,null,<p></p>,null,choice,dtc,trinary,repulsion_A,2,microwave ovens,null,null,null,null,null,null,2,NA,NA,NA,NA,NA,NA,NA,NA,NA,NA
NA,NA,NA,NA,NA,choice_trial,survey-html-form,19,115418,0.0-4.0-1.7,74,1,2025-04-29T00:08:55Z,b60275e29fe2361ab97ac0ac217840d7,"Mozilla/5.0 (Macintosh; Intel Mac OS X 10_15_7) AppleWebKit/605.1.15 (KHTML, like Gecko) Version/18.3.1 Safari/605.1.15",Macintosh,Safari,18.3.1,OS X,10_15_7,https://5puzkbbxv1.cognition.run/?sona_id=57479,"en-US,en;q=0.9",chb98n8vf8ozpfc,18,"[""White""]",Yes,Female,Na,No,NA,3387,NA,"{""product_choice"":""B""}",choice,dtc,trinary,repulsion_A,2,microwave ovens,null,null,null,null,null,null,2,30,40,20,100,90,100,Warranty,Cooking power,NA,NA
NA,NA,NA,NA,NA,choice_trial_setup,html-keyboard-response,20,115721,0.0-4.0-0.8,74,1,2025-04-29T00:08:55Z,b60275e29fe2361ab97ac0ac217840d7,"Mozilla/5.0 (Macintosh; Intel Mac OS X 10_15_7) AppleWebKit/605.1.15 (KHTML, like Gecko) Version/18.3.1 Safari/605.1.15",Macintosh,Safari,18.3.1,OS X,10_15_7,https://5puzkbbxv1.cognition.run/?sona_id=57479,"en-US,en;q=0.9",chb98n8vf8ozpfc,18,"[""White""]",Yes,Female,Na,No,NA,null,<p></p>,null,choice,ct,binary,repulsion,2,washing machines,null,null,null,null,null,null,2,NA,NA,NA,NA,NA,NA,NA,NA,NA,NA
NA,NA,NA,NA,NA,choice_trial,survey-html-form,21,121411,0.0-4.0-1.8,74,1,2025-04-29T00:08:55Z,b60275e29fe2361ab97ac0ac217840d7,"Mozilla/5.0 (Macintosh; Intel Mac OS X 10_15_7) AppleWebKit/605.1.15 (KHTML, like Gecko) Version/18.3.1 Safari/605.1.15",Macintosh,Safari,18.3.1,OS X,10_15_7,https://5puzkbbxv1.cognition.run/?sona_id=57479,"en-US,en;q=0.9",chb98n8vf8ozpfc,18,"[""White""]",Yes,Female,Na,No,NA,5685,NA,"{""product_choice"":""A""}",choice,ct,binary,repulsion,2,washing machines,null,null,null,null,null,null,2,30,40,null,100,90,null,Average lifespan,Energy savings,NA,NA
NA,NA,NA,NA,NA,choice_trial_setup,html-keyboard-response,22,121715,0.0-4.0-0.9,74,1,2025-04-29T00:08:55Z,b60275e29fe2361ab97ac0ac217840d7,"Mozilla/5.0 (Macintosh; Intel Mac OS X 10_15_7) AppleWebKit/605.1.15 (KHTML, like Gecko) Version/18.3.1 Safari/605.1.15",Macintosh,Safari,18.3.1,OS X,10_15_7,https://5puzkbbxv1.cognition.run/?sona_id=57479,"en-US,en;q=0.9",chb98n8vf8ozpfc,18,"[""White""]",Yes,Female,Na,No,NA,null,<p></p>,null,choice,tc,binary,repulsion,1,washing machines,null,null,null,null,null,null,1,NA,NA,NA,NA,NA,NA,NA,NA,NA,NA
NA,NA,NA,NA,NA,choice_trial,survey-html-form,23,127536,0.0-4.0-1.9,74,1,2025-04-29T00:08:55Z,b60275e29fe2361ab97ac0ac217840d7,"Mozilla/5.0 (Macintosh; Intel Mac OS X 10_15_7) AppleWebKit/605.1.15 (KHTML, like Gecko) Version/18.3.1 Safari/605.1.15",Macintosh,Safari,18.3.1,OS X,10_15_7,https://5puzkbbxv1.cognition.run/?sona_id=57479,"en-US,en;q=0.9",chb98n8vf8ozpfc,18,"[""White""]",Yes,Female,Na,No,NA,5815,NA,"{""product_choice"":""B""}",choice,tc,binary,repulsion,1,washing machines,null,null,null,null,null,null,1,100,90,null,30,40,null,Average lifespan,Energy savings,NA,NA
NA,NA,NA,NA,NA,choice_trial_setup,html-keyboard-response,24,127840,0.0-4.0-0.10,74,1,2025-04-29T00:08:55Z,b60275e29fe2361ab97ac0ac217840d7,"Mozilla/5.0 (Macintosh; Intel Mac OS X 10_15_7) AppleWebKit/605.1.15 (KHTML, like Gecko) Version/18.3.1 Safari/605.1.15",Macintosh,Safari,18.3.1,OS X,10_15_7,https://5puzkbbxv1.cognition.run/?sona_id=57479,"en-US,en;q=0.9",chb98n8vf8ozpfc,18,"[""White""]",Yes,Female,Na,No,NA,null,<p></p>,null,choice,wb,binary,catch,null,washing machines,50,70,50,25,null,null,1,NA,NA,NA,NA,NA,NA,NA,NA,NA,NA
NA,NA,NA,NA,NA,choice_trial,survey-html-form,25,130952,0.0-4.0-1.10,74,1,2025-04-29T00:08:55Z,b60275e29fe2361ab97ac0ac217840d7,"Mozilla/5.0 (Macintosh; Intel Mac OS X 10_15_7) AppleWebKit/605.1.15 (KHTML, like Gecko) Version/18.3.1 Safari/605.1.15",Macintosh,Safari,18.3.1,OS X,10_15_7,https://5puzkbbxv1.cognition.run/?sona_id=57479,"en-US,en;q=0.9",chb98n8vf8ozpfc,18,"[""White""]",Yes,Female,Na,No,NA,3106,NA,"{""product_choice"":""B""}",choice,wb,binary,catch,null,washing machines,50,70,50,25,null,null,1,null,null,null,null,null,null,Average lifespan,Energy savings,NA,NA
NA,NA,NA,NA,NA,choice_trial_setup,html-keyboard-response,26,131256,0.0-4.0-0.11,74,1,2025-04-29T00:08:55Z,b60275e29fe2361ab97ac0ac217840d7,"Mozilla/5.0 (Macintosh; Intel Mac OS X 10_15_7) AppleWebKit/605.1.15 (KHTML, like Gecko) Version/18.3.1 Safari/605.1.15",Macintosh,Safari,18.3.1,OS X,10_15_7,https://5puzkbbxv1.cognition.run/?sona_id=57479,"en-US,en;q=0.9",chb98n8vf8ozpfc,18,"[""White""]",Yes,Female,Na,No,NA,null,<p></p>,null,choice,ctd,trinary,attraction,1,washing machines,null,null,null,null,null,null,1,NA,NA,NA,NA,NA,NA,NA,NA,NA,NA
NA,NA,NA,NA,NA,choice_trial,survey-html-form,27,138985,0.0-4.0-1.11,74,1,2025-04-29T00:08:55Z,b60275e29fe2361ab97ac0ac217840d7,"Mozilla/5.0 (Macintosh; Intel Mac OS X 10_15_7) AppleWebKit/605.1.15 (KHTML, like Gecko) Version/18.3.1 Safari/605.1.15",Macintosh,Safari,18.3.1,OS X,10_15_7,https://5puzkbbxv1.cognition.run/?sona_id=57479,"en-US,en;q=0.9",chb98n8vf8ozpfc,18,"[""White""]",Yes,Female,Na,No,NA,7724,NA,"{""product_choice"":""B""}",choice,ctd,trinary,attraction,1,washing machines,null,null,null,null,null,null,1,60,50,60,50,60,40,Average lifespan,Energy savings,NA,NA
NA,NA,NA,NA,NA,choice_trial_setup,html-keyboard-response,28,139289,0.0-4.0-0.12,74,1,2025-04-29T00:08:55Z,b60275e29fe2361ab97ac0ac217840d7,"Mozilla/5.0 (Macintosh; Intel Mac OS X 10_15_7) AppleWebKit/605.1.15 (KHTML, like Gecko) Version/18.3.1 Safari/605.1.15",Macintosh,Safari,18.3.1,OS X,10_15_7,https://5puzkbbxv1.cognition.run/?sona_id=57479,"en-US,en;q=0.9",chb98n8vf8ozpfc,18,"[""White""]",Yes,Female,Na,No,NA,null,<p></p>,null,choice,bw,binary,catch,null,laptops,95,75,45,15,null,null,2,NA,NA,NA,NA,NA,NA,NA,NA,NA,NA
NA,NA,NA,NA,NA,choice_trial,survey-html-form,29,143067,0.0-4.0-1.12,74,1,2025-04-29T00:08:55Z,b60275e29fe2361ab97ac0ac217840d7,"Mozilla/5.0 (Macintosh; Intel Mac OS X 10_15_7) AppleWebKit/605.1.15 (KHTML, like Gecko) Version/18.3.1 Safari/605.1.15",Macintosh,Safari,18.3.1,OS X,10_15_7,https://5puzkbbxv1.cognition.run/?sona_id=57479,"en-US,en;q=0.9",chb98n8vf8ozpfc,18,"[""White""]",Yes,Female,Na,No,NA,3772,NA,"{""product_choice"":""A""}",choice,bw,binary,catch,null,laptops,95,75,45,15,null,null,2,null,null,null,null,null,null,Processing speed,Memory (RAM),NA,NA
NA,NA,NA,NA,NA,choice_trial_setup,html-keyboard-response,30,143372,0.0-4.0-0.13,74,1,2025-04-29T00:08:55Z,b60275e29fe2361ab97ac0ac217840d7,"Mozilla/5.0 (Macintosh; Intel Mac OS X 10_15_7) AppleWebKit/605.1.15 (KHTML, like Gecko) Version/18.3.1 Safari/605.1.15",Macintosh,Safari,18.3.1,OS X,10_15_7,https://5puzkbbxv1.cognition.run/?sona_id=57479,"en-US,en;q=0.9",chb98n8vf8ozpfc,18,"[""White""]",Yes,Female,Na,No,NA,null,<p></p>,null,choice,dtc,trinary,repulsion_A,1,televisions,null,null,null,null,null,null,1,NA,NA,NA,NA,NA,NA,NA,NA,NA,NA
NA,NA,NA,NA,NA,choice_trial,survey-html-form,31,147101,0.0-4.0-1.13,74,1,2025-04-29T00:08:55Z,b60275e29fe2361ab97ac0ac217840d7,"Mozilla/5.0 (Macintosh; Intel Mac OS X 10_15_7) AppleWebKit/605.1.15 (KHTML, like Gecko) Version/18.3.1 Safari/605.1.15",Macintosh,Safari,18.3.1,OS X,10_15_7,https://5puzkbbxv1.cognition.run/?sona_id=57479,"en-US,en;q=0.9",chb98n8vf8ozpfc,18,"[""White""]",Yes,Female,Na,No,NA,3723,NA,"{""product_choice"":""C""}",choice,dtc,trinary,repulsion_A,1,televisions,null,null,null,null,null,null,1,100,90,100,30,40,20,Screen size,Average lifespan,NA,NA
NA,NA,NA,NA,NA,choice_trial_setup,html-keyboard-response,32,147407,0.0-4.0-0.14,74,1,2025-04-29T00:08:55Z,b60275e29fe2361ab97ac0ac217840d7,"Mozilla/5.0 (Macintosh; Intel Mac OS X 10_15_7) AppleWebKit/605.1.15 (KHTML, like Gecko) Version/18.3.1 Safari/605.1.15",Macintosh,Safari,18.3.1,OS X,10_15_7,https://5puzkbbxv1.cognition.run/?sona_id=57479,"en-US,en;q=0.9",chb98n8vf8ozpfc,18,"[""White""]",Yes,Female,Na,No,NA,null,<p></p>,null,choice,bww,trinary,catch,null,laptops,95,60,50,50,5,20,2,NA,NA,NA,NA,NA,NA,NA,NA,NA,NA
NA,NA,NA,NA,NA,choice_trial,survey-html-form,33,151066,0.0-4.0-1.14,74,1,2025-04-29T00:08:55Z,b60275e29fe2361ab97ac0ac217840d7,"Mozilla/5.0 (Macintosh; Intel Mac OS X 10_15_7) AppleWebKit/605.1.15 (KHTML, like Gecko) Version/18.3.1 Safari/605.1.15",Macintosh,Safari,18.3.1,OS X,10_15_7,https://5puzkbbxv1.cognition.run/?sona_id=57479,"en-US,en;q=0.9",chb98n8vf8ozpfc,18,"[""White""]",Yes,Female,Na,No,NA,3654,NA,"{""product_choice"":""A""}",choice,bww,trinary,catch,null,laptops,95,60,50,50,5,20,2,null,null,null,null,null,null,Processing speed,Memory (RAM),NA,NA
NA,NA,NA,NA,NA,choice_trial_setup,html-keyboard-response,34,151370,0.0-4.0-0.15,74,1,2025-04-29T00:08:55Z,b60275e29fe2361ab97ac0ac217840d7,"Mozilla/5.0 (Macintosh; Intel Mac OS X 10_15_7) AppleWebKit/605.1.15 (KHTML, like Gecko) Version/18.3.1 Safari/605.1.15",Macintosh,Safari,18.3.1,OS X,10_15_7,https://5puzkbbxv1.cognition.run/?sona_id=57479,"en-US,en;q=0.9",chb98n8vf8ozpfc,18,"[""White""]",Yes,Female,Na,No,NA,null,<p></p>,null,choice,ctd,trinary,repulsion_A,1,microwave ovens,null,null,null,null,null,null,1,NA,NA,NA,NA,NA,NA,NA,NA,NA,NA
NA,NA,NA,NA,NA,choice_trial,survey-html-form,35,157184,0.0-4.0-1.15,74,1,2025-04-29T00:08:55Z,b60275e29fe2361ab97ac0ac217840d7,"Mozilla/5.0 (Macintosh; Intel Mac OS X 10_15_7) AppleWebKit/605.1.15 (KHTML, like Gecko) Version/18.3.1 Safari/605.1.15",Macintosh,Safari,18.3.1,OS X,10_15_7,https://5puzkbbxv1.cognition.run/?sona_id=57479,"en-US,en;q=0.9",chb98n8vf8ozpfc,18,"[""White""]",Yes,Female,Na,No,NA,5807,NA,"{""product_choice"":""A""}",choice,ctd,trinary,repulsion_A,1,microwave ovens,null,null,null,null,null,null,1,100,90,100,30,40,20,Warranty,Cooking power,NA,NA
NA,NA,NA,NA,NA,choice_trial_setup,html-keyboard-response,36,157488,0.0-4.0-0.16,74,1,2025-04-29T00:08:55Z,b60275e29fe2361ab97ac0ac217840d7,"Mozilla/5.0 (Macintosh; Intel Mac OS X 10_15_7) AppleWebKit/605.1.15 (KHTML, like Gecko) Version/18.3.1 Safari/605.1.15",Macintosh,Safari,18.3.1,OS X,10_15_7,https://5puzkbbxv1.cognition.run/?sona_id=57479,"en-US,en;q=0.9",chb98n8vf8ozpfc,18,"[""White""]",Yes,Female,Na,No,NA,null,<p></p>,null,choice,bw,binary,catch,null,televisions,50,70,50,25,null,null,1,NA,NA,NA,NA,NA,NA,NA,NA,NA,NA
NA,NA,NA,NA,NA,choice_trial,survey-html-form,37,161416,0.0-4.0-1.16,74,1,2025-04-29T00:08:55Z,b60275e29fe2361ab97ac0ac217840d7,"Mozilla/5.0 (Macintosh; Intel Mac OS X 10_15_7) AppleWebKit/605.1.15 (KHTML, like Gecko) Version/18.3.1 Safari/605.1.15",Macintosh,Safari,18.3.1,OS X,10_15_7,https://5puzkbbxv1.cognition.run/?sona_id=57479,"en-US,en;q=0.9",chb98n8vf8ozpfc,18,"[""White""]",Yes,Female,Na,No,NA,3921,NA,"{""product_choice"":""A""}",choice,bw,binary,catch,null,televisions,50,70,50,25,null,null,1,null,null,null,null,null,null,Screen size,Average lifespan,NA,NA
NA,NA,NA,NA,NA,choice_trial_setup,html-keyboard-response,38,161720,0.0-4.0-0.17,74,1,2025-04-29T00:08:55Z,b60275e29fe2361ab97ac0ac217840d7,"Mozilla/5.0 (Macintosh; Intel Mac OS X 10_15_7) AppleWebKit/605.1.15 (KHTML, like Gecko) Version/18.3.1 Safari/605.1.15",Macintosh,Safari,18.3.1,OS X,10_15_7,https://5puzkbbxv1.cognition.run/?sona_id=57479,"en-US,en;q=0.9",chb98n8vf8ozpfc,18,"[""White""]",Yes,Female,Na,No,NA,null,<p></p>,null,choice,dtc,trinary,repulsion_B,2,microwave ovens,null,null,null,null,null,null,1,NA,NA,NA,NA,NA,NA,NA,NA,NA,NA
NA,NA,NA,NA,NA,choice_trial,survey-html-form,39,165183,0.0-4.0-1.17,74,1,2025-04-29T00:08:55Z,b60275e29fe2361ab97ac0ac217840d7,"Mozilla/5.0 (Macintosh; Intel Mac OS X 10_15_7) AppleWebKit/605.1.15 (KHTML, like Gecko) Version/18.3.1 Safari/605.1.15",Macintosh,Safari,18.3.1,OS X,10_15_7,https://5puzkbbxv1.cognition.run/?sona_id=57479,"en-US,en;q=0.9",chb98n8vf8ozpfc,18,"[""White""]",Yes,Female,Na,No,NA,3456,NA,"{""product_choice"":""B""}",choice,dtc,trinary,repulsion_B,2,microwave ovens,null,null,null,null,null,null,1,40,30,40,90,100,80,Warranty,Cooking power,NA,NA
NA,NA,NA,NA,NA,choice_trial_setup,html-keyboard-response,40,165487,0.0-4.0-0.18,74,1,2025-04-29T00:08:55Z,b60275e29fe2361ab97ac0ac217840d7,"Mozilla/5.0 (Macintosh; Intel Mac OS X 10_15_7) AppleWebKit/605.1.15 (KHTML, like Gecko) Version/18.3.1 Safari/605.1.15",Macintosh,Safari,18.3.1,OS X,10_15_7,https://5puzkbbxv1.cognition.run/?sona_id=57479,"en-US,en;q=0.9",chb98n8vf8ozpfc,18,"[""White""]",Yes,Female,Na,No,NA,null,<p></p>,null,choice,cdt,trinary,repulsion_B,2,washing machines,null,null,null,null,null,null,2,NA,NA,NA,NA,NA,NA,NA,NA,NA,NA
NA,NA,NA,NA,NA,choice_trial,survey-html-form,41,172014,0.0-4.0-1.18,74,1,2025-04-29T00:08:55Z,b60275e29fe2361ab97ac0ac217840d7,"Mozilla/5.0 (Macintosh; Intel Mac OS X 10_15_7) AppleWebKit/605.1.15 (KHTML, like Gecko) Version/18.3.1 Safari/605.1.15",Macintosh,Safari,18.3.1,OS X,10_15_7,https://5puzkbbxv1.cognition.run/?sona_id=57479,"en-US,en;q=0.9",chb98n8vf8ozpfc,18,"[""White""]",Yes,Female,Na,No,NA,6519,NA,"{""product_choice"":""C""}",choice,cdt,trinary,repulsion_B,2,washing machines,null,null,null,null,null,null,2,40,30,40,90,100,80,Average lifespan,Energy savings,NA,NA
NA,NA,NA,NA,NA,choice_trial_setup,html-keyboard-response,42,172319,0.0-4.0-0.19,74,1,2025-04-29T00:08:55Z,b60275e29fe2361ab97ac0ac217840d7,"Mozilla/5.0 (Macintosh; Intel Mac OS X 10_15_7) AppleWebKit/605.1.15 (KHTML, like Gecko) Version/18.3.1 Safari/605.1.15",Macintosh,Safari,18.3.1,OS X,10_15_7,https://5puzkbbxv1.cognition.run/?sona_id=57479,"en-US,en;q=0.9",chb98n8vf8ozpfc,18,"[""White""]",Yes,Female,Na,No,NA,null,<p></p>,null,choice,tc,binary,attraction,NA,laptops,null,null,null,null,null,null,2,NA,NA,NA,NA,NA,NA,NA,NA,NA,NA
NA,NA,NA,NA,NA,choice_trial,survey-html-form,43,174632,0.0-4.0-1.19,74,1,2025-04-29T00:08:55Z,b60275e29fe2361ab97ac0ac217840d7,"Mozilla/5.0 (Macintosh; Intel Mac OS X 10_15_7) AppleWebKit/605.1.15 (KHTML, like Gecko) Version/18.3.1 Safari/605.1.15",Macintosh,Safari,18.3.1,OS X,10_15_7,https://5puzkbbxv1.cognition.run/?sona_id=57479,"en-US,en;q=0.9",chb98n8vf8ozpfc,18,"[""White""]",Yes,Female,Na,No,NA,2306,NA,"{""product_choice"":""B""}",choice,tc,binary,attraction,NA,laptops,null,null,null,null,null,null,2,60,50,null,50,60,null,Processing speed,Memory (RAM),NA,NA
NA,NA,NA,NA,NA,choice_trial_setup,html-keyboard-response,44,174936,0.0-4.0-0.20,74,1,2025-04-29T00:08:55Z,b60275e29fe2361ab97ac0ac217840d7,"Mozilla/5.0 (Macintosh; Intel Mac OS X 10_15_7) AppleWebKit/605.1.15 (KHTML, like Gecko) Version/18.3.1 Safari/605.1.15",Macintosh,Safari,18.3.1,OS X,10_15_7,https://5puzkbbxv1.cognition.run/?sona_id=57479,"en-US,en;q=0.9",chb98n8vf8ozpfc,18,"[""White""]",Yes,Female,Na,No,NA,null,<p></p>,null,choice,tdc,trinary,repulsion_B,1,laptops,null,null,null,null,null,null,1,NA,NA,NA,NA,NA,NA,NA,NA,NA,NA
NA,NA,NA,NA,NA,choice_trial,survey-html-form,45,179482,0.0-4.0-1.20,74,1,2025-04-29T00:08:55Z,b60275e29fe2361ab97ac0ac217840d7,"Mozilla/5.0 (Macintosh; Intel Mac OS X 10_15_7) AppleWebKit/605.1.15 (KHTML, like Gecko) Version/18.3.1 Safari/605.1.15",Macintosh,Safari,18.3.1,OS X,10_15_7,https://5puzkbbxv1.cognition.run/?sona_id=57479,"en-US,en;q=0.9",chb98n8vf8ozpfc,18,"[""White""]",Yes,Female,Na,No,NA,4538,NA,"{""product_choice"":""A""}",choice,tdc,trinary,repulsion_B,1,laptops,null,null,null,null,null,null,1,90,100,80,40,30,40,Processing speed,Memory (RAM),NA,NA
NA,NA,NA,NA,NA,choice_trial_setup,html-keyboard-response,46,179786,0.0-4.0-0.21,74,1,2025-04-29T00:08:55Z,b60275e29fe2361ab97ac0ac217840d7,"Mozilla/5.0 (Macintosh; Intel Mac OS X 10_15_7) AppleWebKit/605.1.15 (KHTML, like Gecko) Version/18.3.1 Safari/605.1.15",Macintosh,Safari,18.3.1,OS X,10_15_7,https://5puzkbbxv1.cognition.run/?sona_id=57479,"en-US,en;q=0.9",chb98n8vf8ozpfc,18,"[""White""]",Yes,Female,Na,No,NA,null,<p></p>,null,choice,tcd,trinary,repulsion_B,2,televisions,null,null,null,null,null,null,1,NA,NA,NA,NA,NA,NA,NA,NA,NA,NA
NA,NA,NA,NA,NA,choice_trial,survey-html-form,47,183348,0.0-4.0-1.21,74,1,2025-04-29T00:08:55Z,b60275e29fe2361ab97ac0ac217840d7,"Mozilla/5.0 (Macintosh; Intel Mac OS X 10_15_7) AppleWebKit/605.1.15 (KHTML, like Gecko) Version/18.3.1 Safari/605.1.15",Macintosh,Safari,18.3.1,OS X,10_15_7,https://5puzkbbxv1.cognition.run/?sona_id=57479,"en-US,en;q=0.9",chb98n8vf8ozpfc,18,"[""White""]",Yes,Female,Na,No,NA,3554,NA,"{""product_choice"":""A""}",choice,tcd,trinary,repulsion_B,2,televisions,null,null,null,null,null,null,1,40,30,40,90,100,80,Screen size,Average lifespan,NA,NA
NA,NA,NA,NA,NA,choice_trial_setup,html-keyboard-response,48,183653,0.0-4.0-0.22,74,1,2025-04-29T00:08:55Z,b60275e29fe2361ab97ac0ac217840d7,"Mozilla/5.0 (Macintosh; Intel Mac OS X 10_15_7) AppleWebKit/605.1.15 (KHTML, like Gecko) Version/18.3.1 Safari/605.1.15",Macintosh,Safari,18.3.1,OS X,10_15_7,https://5puzkbbxv1.cognition.run/?sona_id=57479,"en-US,en;q=0.9",chb98n8vf8ozpfc,18,"[""White""]",Yes,Female,Na,No,NA,null,<p></p>,null,choice,dct,trinary,attraction,1,televisions,null,null,null,null,null,null,2,NA,NA,NA,NA,NA,NA,NA,NA,NA,NA
NA,NA,NA,NA,NA,choice_trial,survey-html-form,49,188134,0.0-4.0-1.22,74,1,2025-04-29T00:08:55Z,b60275e29fe2361ab97ac0ac217840d7,"Mozilla/5.0 (Macintosh; Intel Mac OS X 10_15_7) AppleWebKit/605.1.15 (KHTML, like Gecko) Version/18.3.1 Safari/605.1.15",Macintosh,Safari,18.3.1,OS X,10_15_7,https://5puzkbbxv1.cognition.run/?sona_id=57479,"en-US,en;q=0.9",chb98n8vf8ozpfc,18,"[""White""]",Yes,Female,Na,No,NA,4473,NA,"{""product_choice"":""B""}",choice,dct,trinary,attraction,1,televisions,null,null,null,null,null,null,2,60,50,60,50,60,40,Screen size,Average lifespan,NA,NA
NA,NA,NA,NA,NA,choice_trial_setup,html-keyboard-response,50,188439,0.0-4.0-0.23,74,1,2025-04-29T00:08:55Z,b60275e29fe2361ab97ac0ac217840d7,"Mozilla/5.0 (Macintosh; Intel Mac OS X 10_15_7) AppleWebKit/605.1.15 (KHTML, like Gecko) Version/18.3.1 Safari/605.1.15",Macintosh,Safari,18.3.1,OS X,10_15_7,https://5puzkbbxv1.cognition.run/?sona_id=57479,"en-US,en;q=0.9",chb98n8vf8ozpfc,18,"[""White""]",Yes,Female,Na,No,NA,null,<p></p>,null,choice,wwb,trinary,catch,null,washing machines,85,85,5,15,45,40,2,NA,NA,NA,NA,NA,NA,NA,NA,NA,NA
NA,NA,NA,NA,NA,choice_trial,survey-html-form,51,190819,0.0-4.0-1.23,74,1,2025-04-29T00:08:55Z,b60275e29fe2361ab97ac0ac217840d7,"Mozilla/5.0 (Macintosh; Intel Mac OS X 10_15_7) AppleWebKit/605.1.15 (KHTML, like Gecko) Version/18.3.1 Safari/605.1.15",Macintosh,Safari,18.3.1,OS X,10_15_7,https://5puzkbbxv1.cognition.run/?sona_id=57479,"en-US,en;q=0.9",chb98n8vf8ozpfc,18,"[""White""]",Yes,Female,Na,No,NA,2372,NA,"{""product_choice"":""C""}",choice,wwb,trinary,catch,null,washing machines,85,85,5,15,45,40,2,null,null,null,null,null,null,Average lifespan,Energy savings,NA,NA
NA,NA,NA,NA,NA,choice_trial_setup,html-keyboard-response,52,191124,0.0-4.0-0.24,74,1,2025-04-29T00:08:55Z,b60275e29fe2361ab97ac0ac217840d7,"Mozilla/5.0 (Macintosh; Intel Mac OS X 10_15_7) AppleWebKit/605.1.15 (KHTML, like Gecko) Version/18.3.1 Safari/605.1.15",Macintosh,Safari,18.3.1,OS X,10_15_7,https://5puzkbbxv1.cognition.run/?sona_id=57479,"en-US,en;q=0.9",chb98n8vf8ozpfc,18,"[""White""]",Yes,Female,Na,No,NA,null,<p></p>,null,choice,dct,trinary,repulsion_A,2,washing machines,null,null,null,null,null,null,2,NA,NA,NA,NA,NA,NA,NA,NA,NA,NA
NA,NA,NA,NA,NA,choice_trial,survey-html-form,53,197362,0.0-4.0-1.24,74,1,2025-04-29T00:08:55Z,b60275e29fe2361ab97ac0ac217840d7,"Mozilla/5.0 (Macintosh; Intel Mac OS X 10_15_7) AppleWebKit/605.1.15 (KHTML, like Gecko) Version/18.3.1 Safari/605.1.15",Macintosh,Safari,18.3.1,OS X,10_15_7,https://5puzkbbxv1.cognition.run/?sona_id=57479,"en-US,en;q=0.9",chb98n8vf8ozpfc,18,"[""White""]",Yes,Female,Na,No,NA,6231,NA,"{""product_choice"":""B""}",choice,dct,trinary,repulsion_A,2,washing machines,null,null,null,null,null,null,2,30,40,20,100,90,100,Average lifespan,Energy savings,NA,NA
NA,NA,NA,NA,NA,choice_trial_setup,html-keyboard-response,54,197667,0.0-4.0-0.25,74,1,2025-04-29T00:08:55Z,b60275e29fe2361ab97ac0ac217840d7,"Mozilla/5.0 (Macintosh; Intel Mac OS X 10_15_7) AppleWebKit/605.1.15 (KHTML, like Gecko) Version/18.3.1 Safari/605.1.15",Macintosh,Safari,18.3.1,OS X,10_15_7,https://5puzkbbxv1.cognition.run/?sona_id=57479,"en-US,en;q=0.9",chb98n8vf8ozpfc,18,"[""White""]",Yes,Female,Na,No,NA,null,<p></p>,null,choice,dct,trinary,attraction,1,laptops,null,null,null,null,null,null,1,NA,NA,NA,NA,NA,NA,NA,NA,NA,NA
NA,NA,NA,NA,NA,choice_trial,survey-html-form,55,200362,0.0-4.0-1.25,74,1,2025-04-29T00:08:55Z,b60275e29fe2361ab97ac0ac217840d7,"Mozilla/5.0 (Macintosh; Intel Mac OS X 10_15_7) AppleWebKit/605.1.15 (KHTML, like Gecko) Version/18.3.1 Safari/605.1.15",Macintosh,Safari,18.3.1,OS X,10_15_7,https://5puzkbbxv1.cognition.run/?sona_id=57479,"en-US,en;q=0.9",chb98n8vf8ozpfc,18,"[""White""]",Yes,Female,Na,No,NA,2687,NA,"{""product_choice"":""C""}",choice,dct,trinary,attraction,1,laptops,null,null,null,null,null,null,1,60,50,60,50,60,40,Processing speed,Memory (RAM),NA,NA
NA,NA,NA,NA,NA,choice_trial_setup,html-keyboard-response,56,200667,0.0-4.0-0.26,74,1,2025-04-29T00:08:55Z,b60275e29fe2361ab97ac0ac217840d7,"Mozilla/5.0 (Macintosh; Intel Mac OS X 10_15_7) AppleWebKit/605.1.15 (KHTML, like Gecko) Version/18.3.1 Safari/605.1.15",Macintosh,Safari,18.3.1,OS X,10_15_7,https://5puzkbbxv1.cognition.run/?sona_id=57479,"en-US,en;q=0.9",chb98n8vf8ozpfc,18,"[""White""]",Yes,Female,Na,No,NA,null,<p></p>,null,choice,tc,binary,repulsion,2,televisions,null,null,null,null,null,null,2,NA,NA,NA,NA,NA,NA,NA,NA,NA,NA
NA,NA,NA,NA,NA,choice_trial,survey-html-form,57,212834,0.0-4.0-1.26,74,1,2025-04-29T00:08:55Z,b60275e29fe2361ab97ac0ac217840d7,"Mozilla/5.0 (Macintosh; Intel Mac OS X 10_15_7) AppleWebKit/605.1.15 (KHTML, like Gecko) Version/18.3.1 Safari/605.1.15",Macintosh,Safari,18.3.1,OS X,10_15_7,https://5puzkbbxv1.cognition.run/?sona_id=57479,"en-US,en;q=0.9",chb98n8vf8ozpfc,18,"[""White""]",Yes,Female,Na,No,NA,12160,NA,"{""product_choice"":""B""}",choice,tc,binary,repulsion,2,televisions,null,null,null,null,null,null,2,30,40,null,100,90,null,Screen size,Average lifespan,NA,NA
NA,NA,NA,NA,NA,choice_trial_setup,html-keyboard-response,58,213140,0.0-4.0-0.27,74,1,2025-04-29T00:08:55Z,b60275e29fe2361ab97ac0ac217840d7,"Mozilla/5.0 (Macintosh; Intel Mac OS X 10_15_7) AppleWebKit/605.1.15 (KHTML, like Gecko) Version/18.3.1 Safari/605.1.15",Macintosh,Safari,18.3.1,OS X,10_15_7,https://5puzkbbxv1.cognition.run/?sona_id=57479,"en-US,en;q=0.9",chb98n8vf8ozpfc,18,"[""White""]",Yes,Female,Na,No,NA,null,<p></p>,null,choice,tdc,trinary,attraction,2,laptops,null,null,null,null,null,null,2,NA,NA,NA,NA,NA,NA,NA,NA,NA,NA
NA,NA,NA,NA,NA,choice_trial,survey-html-form,59,222489,0.0-4.0-1.27,74,1,2025-04-29T00:08:55Z,b60275e29fe2361ab97ac0ac217840d7,"Mozilla/5.0 (Macintosh; Intel Mac OS X 10_15_7) AppleWebKit/605.1.15 (KHTML, like Gecko) Version/18.3.1 Safari/605.1.15",Macintosh,Safari,18.3.1,OS X,10_15_7,https://5puzkbbxv1.cognition.run/?sona_id=57479,"en-US,en;q=0.9",chb98n8vf8ozpfc,18,"[""White""]",Yes,Female,Na,No,NA,9341,NA,"{""product_choice"":""C""}",choice,tdc,trinary,attraction,2,laptops,null,null,null,null,null,null,2,50,60,40,60,50,60,Processing speed,Memory (RAM),NA,NA
NA,NA,NA,NA,NA,choice_trial_setup,html-keyboard-response,60,222795,0.0-4.0-0.28,74,1,2025-04-29T00:08:55Z,b60275e29fe2361ab97ac0ac217840d7,"Mozilla/5.0 (Macintosh; Intel Mac OS X 10_15_7) AppleWebKit/605.1.15 (KHTML, like Gecko) Version/18.3.1 Safari/605.1.15",Macintosh,Safari,18.3.1,OS X,10_15_7,https://5puzkbbxv1.cognition.run/?sona_id=57479,"en-US,en;q=0.9",chb98n8vf8ozpfc,18,"[""White""]",Yes,Female,Na,No,NA,null,<p></p>,null,choice,tdc,trinary,attraction,2,washing machines,null,null,null,null,null,null,2,NA,NA,NA,NA,NA,NA,NA,NA,NA,NA
NA,NA,NA,NA,NA,choice_trial,survey-html-form,61,232167,0.0-4.0-1.28,74,1,2025-04-29T00:08:55Z,b60275e29fe2361ab97ac0ac217840d7,"Mozilla/5.0 (Macintosh; Intel Mac OS X 10_15_7) AppleWebKit/605.1.15 (KHTML, like Gecko) Version/18.3.1 Safari/605.1.15",Macintosh,Safari,18.3.1,OS X,10_15_7,https://5puzkbbxv1.cognition.run/?sona_id=57479,"en-US,en;q=0.9",chb98n8vf8ozpfc,18,"[""White""]",Yes,Female,Na,No,NA,9364,NA,"{""product_choice"":""A""}",choice,tdc,trinary,attraction,2,washing machines,null,null,null,null,null,null,2,50,60,40,60,50,60,Average lifespan,Energy savings,NA,NA
NA,NA,NA,NA,NA,choice_trial_setup,html-keyboard-response,62,232472,0.0-4.0-0.29,74,1,2025-04-29T00:08:55Z,b60275e29fe2361ab97ac0ac217840d7,"Mozilla/5.0 (Macintosh; Intel Mac OS X 10_15_7) AppleWebKit/605.1.15 (KHTML, like Gecko) Version/18.3.1 Safari/605.1.15",Macintosh,Safari,18.3.1,OS X,10_15_7,https://5puzkbbxv1.cognition.run/?sona_id=57479,"en-US,en;q=0.9",chb98n8vf8ozpfc,18,"[""White""]",Yes,Female,Na,No,NA,null,<p></p>,null,choice,dtc,trinary,attraction,2,microwave ovens,null,null,null,null,null,null,2,NA,NA,NA,NA,NA,NA,NA,NA,NA,NA
NA,NA,NA,NA,NA,choice_trial,survey-html-form,63,237311,0.0-4.0-1.29,74,1,2025-04-29T00:08:55Z,b60275e29fe2361ab97ac0ac217840d7,"Mozilla/5.0 (Macintosh; Intel Mac OS X 10_15_7) AppleWebKit/605.1.15 (KHTML, like Gecko) Version/18.3.1 Safari/605.1.15",Macintosh,Safari,18.3.1,OS X,10_15_7,https://5puzkbbxv1.cognition.run/?sona_id=57479,"en-US,en;q=0.9",chb98n8vf8ozpfc,18,"[""White""]",Yes,Female,Na,No,NA,4831,NA,"{""product_choice"":""B""}",choice,dtc,trinary,attraction,2,microwave ovens,null,null,null,null,null,null,2,50,60,40,60,50,60,Warranty,Cooking power,NA,NA
NA,NA,NA,NA,NA,choice_trial_setup,html-keyboard-response,64,237616,0.0-4.0-0.30,74,1,2025-04-29T00:08:55Z,b60275e29fe2361ab97ac0ac217840d7,"Mozilla/5.0 (Macintosh; Intel Mac OS X 10_15_7) AppleWebKit/605.1.15 (KHTML, like Gecko) Version/18.3.1 Safari/605.1.15",Macintosh,Safari,18.3.1,OS X,10_15_7,https://5puzkbbxv1.cognition.run/?sona_id=57479,"en-US,en;q=0.9",chb98n8vf8ozpfc,18,"[""White""]",Yes,Female,Na,No,NA,null,<p></p>,null,choice,tc,binary,attraction,NA,microwave ovens,null,null,null,null,null,null,2,NA,NA,NA,NA,NA,NA,NA,NA,NA,NA
NA,NA,NA,NA,NA,choice_trial,survey-html-form,65,239858,0.0-4.0-1.30,74,1,2025-04-29T00:08:55Z,b60275e29fe2361ab97ac0ac217840d7,"Mozilla/5.0 (Macintosh; Intel Mac OS X 10_15_7) AppleWebKit/605.1.15 (KHTML, like Gecko) Version/18.3.1 Safari/605.1.15",Macintosh,Safari,18.3.1,OS X,10_15_7,https://5puzkbbxv1.cognition.run/?sona_id=57479,"en-US,en;q=0.9",chb98n8vf8ozpfc,18,"[""White""]",Yes,Female,Na,No,NA,2234,NA,"{""product_choice"":""B""}",choice,tc,binary,attraction,NA,microwave ovens,null,null,null,null,null,null,2,60,50,null,50,60,null,Warranty,Cooking power,NA,NA
NA,NA,NA,NA,NA,choice_trial_setup,html-keyboard-response,66,240164,0.0-4.0-0.31,74,1,2025-04-29T00:08:55Z,b60275e29fe2361ab97ac0ac217840d7,"Mozilla/5.0 (Macintosh; Intel Mac OS X 10_15_7) AppleWebKit/605.1.15 (KHTML, like Gecko) Version/18.3.1 Safari/605.1.15",Macintosh,Safari,18.3.1,OS X,10_15_7,https://5puzkbbxv1.cognition.run/?sona_id=57479,"en-US,en;q=0.9",chb98n8vf8ozpfc,18,"[""White""]",Yes,Female,Na,No,NA,null,<p></p>,null,choice,ctd,trinary,repulsion_A,1,laptops,null,null,null,null,null,null,1,NA,NA,NA,NA,NA,NA,NA,NA,NA,NA
NA,NA,NA,NA,NA,choice_trial,survey-html-form,67,247144,0.0-4.0-1.31,74,1,2025-04-29T00:08:55Z,b60275e29fe2361ab97ac0ac217840d7,"Mozilla/5.0 (Macintosh; Intel Mac OS X 10_15_7) AppleWebKit/605.1.15 (KHTML, like Gecko) Version/18.3.1 Safari/605.1.15",Macintosh,Safari,18.3.1,OS X,10_15_7,https://5puzkbbxv1.cognition.run/?sona_id=57479,"en-US,en;q=0.9",chb98n8vf8ozpfc,18,"[""White""]",Yes,Female,Na,No,NA,6972,NA,"{""product_choice"":""A""}",choice,ctd,trinary,repulsion_A,1,laptops,null,null,null,null,null,null,1,100,90,100,30,40,20,Processing speed,Memory (RAM),NA,NA
NA,NA,NA,NA,NA,choice_trial_setup,html-keyboard-response,68,247449,0.0-4.0-0.32,74,1,2025-04-29T00:08:55Z,b60275e29fe2361ab97ac0ac217840d7,"Mozilla/5.0 (Macintosh; Intel Mac OS X 10_15_7) AppleWebKit/605.1.15 (KHTML, like Gecko) Version/18.3.1 Safari/605.1.15",Macintosh,Safari,18.3.1,OS X,10_15_7,https://5puzkbbxv1.cognition.run/?sona_id=57479,"en-US,en;q=0.9",chb98n8vf8ozpfc,18,"[""White""]",Yes,Female,Na,No,NA,null,<p></p>,null,choice,tcd,trinary,repulsion_A,2,televisions,null,null,null,null,null,null,1,NA,NA,NA,NA,NA,NA,NA,NA,NA,NA
NA,NA,NA,NA,NA,choice_trial,survey-html-form,69,253126,0.0-4.0-1.32,74,1,2025-04-29T00:08:55Z,b60275e29fe2361ab97ac0ac217840d7,"Mozilla/5.0 (Macintosh; Intel Mac OS X 10_15_7) AppleWebKit/605.1.15 (KHTML, like Gecko) Version/18.3.1 Safari/605.1.15",Macintosh,Safari,18.3.1,OS X,10_15_7,https://5puzkbbxv1.cognition.run/?sona_id=57479,"en-US,en;q=0.9",chb98n8vf8ozpfc,18,"[""White""]",Yes,Female,Na,No,NA,5669,NA,"{""product_choice"":""A""}",choice,tcd,trinary,repulsion_A,2,televisions,null,null,null,null,null,null,1,30,40,20,100,90,100,Screen size,Average lifespan,NA,NA
NA,NA,NA,NA,NA,choice_trial_setup,html-keyboard-response,70,253431,0.0-4.0-0.33,74,1,2025-04-29T00:08:55Z,b60275e29fe2361ab97ac0ac217840d7,"Mozilla/5.0 (Macintosh; Intel Mac OS X 10_15_7) AppleWebKit/605.1.15 (KHTML, like Gecko) Version/18.3.1 Safari/605.1.15",Macintosh,Safari,18.3.1,OS X,10_15_7,https://5puzkbbxv1.cognition.run/?sona_id=57479,"en-US,en;q=0.9",chb98n8vf8ozpfc,18,"[""White""]",Yes,Female,Na,No,NA,null,<p></p>,null,choice,ctd,trinary,repulsion_B,2,laptops,null,null,null,null,null,null,1,NA,NA,NA,NA,NA,NA,NA,NA,NA,NA
NA,NA,NA,NA,NA,choice_trial,survey-html-form,71,258192,0.0-4.0-1.33,74,1,2025-04-29T00:08:55Z,b60275e29fe2361ab97ac0ac217840d7,"Mozilla/5.0 (Macintosh; Intel Mac OS X 10_15_7) AppleWebKit/605.1.15 (KHTML, like Gecko) Version/18.3.1 Safari/605.1.15",Macintosh,Safari,18.3.1,OS X,10_15_7,https://5puzkbbxv1.cognition.run/?sona_id=57479,"en-US,en;q=0.9",chb98n8vf8ozpfc,18,"[""White""]",Yes,Female,Na,No,NA,4752,NA,"{""product_choice"":""B""}",choice,ctd,trinary,repulsion_B,2,laptops,null,null,null,null,null,null,1,40,30,40,90,100,80,Processing speed,Memory (RAM),NA,NA
NA,NA,NA,NA,NA,choice_trial_setup,html-keyboard-response,72,258498,0.0-4.0-0.34,74,1,2025-04-29T00:08:55Z,b60275e29fe2361ab97ac0ac217840d7,"Mozilla/5.0 (Macintosh; Intel Mac OS X 10_15_7) AppleWebKit/605.1.15 (KHTML, like Gecko) Version/18.3.1 Safari/605.1.15",Macintosh,Safari,18.3.1,OS X,10_15_7,https://5puzkbbxv1.cognition.run/?sona_id=57479,"en-US,en;q=0.9",chb98n8vf8ozpfc,18,"[""White""]",Yes,Female,Na,No,NA,null,<p></p>,null,choice,ctd,trinary,repulsion_B,1,televisions,null,null,null,null,null,null,1,NA,NA,NA,NA,NA,NA,NA,NA,NA,NA
NA,NA,NA,NA,NA,choice_trial,survey-html-form,73,261141,0.0-4.0-1.34,74,1,2025-04-29T00:08:55Z,b60275e29fe2361ab97ac0ac217840d7,"Mozilla/5.0 (Macintosh; Intel Mac OS X 10_15_7) AppleWebKit/605.1.15 (KHTML, like Gecko) Version/18.3.1 Safari/605.1.15",Macintosh,Safari,18.3.1,OS X,10_15_7,https://5puzkbbxv1.cognition.run/?sona_id=57479,"en-US,en;q=0.9",chb98n8vf8ozpfc,18,"[""White""]",Yes,Female,Na,No,NA,2634,NA,"{""product_choice"":""B""}",choice,ctd,trinary,repulsion_B,1,televisions,null,null,null,null,null,null,1,90,100,80,40,30,40,Screen size,Average lifespan,NA,NA
NA,NA,NA,NA,NA,choice_trial_setup,html-keyboard-response,74,261447,0.0-4.0-0.35,74,1,2025-04-29T00:08:55Z,b60275e29fe2361ab97ac0ac217840d7,"Mozilla/5.0 (Macintosh; Intel Mac OS X 10_15_7) AppleWebKit/605.1.15 (KHTML, like Gecko) Version/18.3.1 Safari/605.1.15",Macintosh,Safari,18.3.1,OS X,10_15_7,https://5puzkbbxv1.cognition.run/?sona_id=57479,"en-US,en;q=0.9",chb98n8vf8ozpfc,18,"[""White""]",Yes,Female,Na,No,NA,null,<p></p>,null,choice,tdc,trinary,attraction,1,microwave ovens,null,null,null,null,null,null,1,NA,NA,NA,NA,NA,NA,NA,NA,NA,NA
NA,NA,NA,NA,NA,choice_trial,survey-html-form,75,268890,0.0-4.0-1.35,74,1,2025-04-29T00:08:55Z,b60275e29fe2361ab97ac0ac217840d7,"Mozilla/5.0 (Macintosh; Intel Mac OS X 10_15_7) AppleWebKit/605.1.15 (KHTML, like Gecko) Version/18.3.1 Safari/605.1.15",Macintosh,Safari,18.3.1,OS X,10_15_7,https://5puzkbbxv1.cognition.run/?sona_id=57479,"en-US,en;q=0.9",chb98n8vf8ozpfc,18,"[""White""]",Yes,Female,Na,No,NA,7433,NA,"{""product_choice"":""C""}",choice,tdc,trinary,attraction,1,microwave ovens,null,null,null,null,null,null,1,60,50,60,50,60,40,Warranty,Cooking power,NA,NA
NA,NA,NA,NA,NA,choice_trial_setup,html-keyboard-response,76,269196,0.0-4.0-0.36,74,1,2025-04-29T00:08:55Z,b60275e29fe2361ab97ac0ac217840d7,"Mozilla/5.0 (Macintosh; Intel Mac OS X 10_15_7) AppleWebKit/605.1.15 (KHTML, like Gecko) Version/18.3.1 Safari/605.1.15",Macintosh,Safari,18.3.1,OS X,10_15_7,https://5puzkbbxv1.cognition.run/?sona_id=57479,"en-US,en;q=0.9",chb98n8vf8ozpfc,18,"[""White""]",Yes,Female,Na,No,NA,null,<p></p>,null,choice,cdt,trinary,repulsion_A,2,laptops,null,null,null,null,null,null,1,NA,NA,NA,NA,NA,NA,NA,NA,NA,NA
NA,NA,NA,NA,NA,choice_trial,survey-html-form,77,274923,0.0-4.0-1.36,74,1,2025-04-29T00:08:55Z,b60275e29fe2361ab97ac0ac217840d7,"Mozilla/5.0 (Macintosh; Intel Mac OS X 10_15_7) AppleWebKit/605.1.15 (KHTML, like Gecko) Version/18.3.1 Safari/605.1.15",Macintosh,Safari,18.3.1,OS X,10_15_7,https://5puzkbbxv1.cognition.run/?sona_id=57479,"en-US,en;q=0.9",chb98n8vf8ozpfc,18,"[""White""]",Yes,Female,Na,No,NA,5719,NA,"{""product_choice"":""A""}",choice,cdt,trinary,repulsion_A,2,laptops,null,null,null,null,null,null,1,30,40,20,100,90,100,Processing speed,Memory (RAM),NA,NA
NA,NA,NA,NA,NA,choice_trial_setup,html-keyboard-response,78,275229,0.0-4.0-0.37,74,1,2025-04-29T00:08:55Z,b60275e29fe2361ab97ac0ac217840d7,"Mozilla/5.0 (Macintosh; Intel Mac OS X 10_15_7) AppleWebKit/605.1.15 (KHTML, like Gecko) Version/18.3.1 Safari/605.1.15",Macintosh,Safari,18.3.1,OS X,10_15_7,https://5puzkbbxv1.cognition.run/?sona_id=57479,"en-US,en;q=0.9",chb98n8vf8ozpfc,18,"[""White""]",Yes,Female,Na,No,NA,null,<p></p>,null,choice,ct,binary,repulsion,2,laptops,null,null,null,null,null,null,2,NA,NA,NA,NA,NA,NA,NA,NA,NA,NA
NA,NA,NA,NA,NA,choice_trial,survey-html-form,79,277887,0.0-4.0-1.37,74,1,2025-04-29T00:08:55Z,b60275e29fe2361ab97ac0ac217840d7,"Mozilla/5.0 (Macintosh; Intel Mac OS X 10_15_7) AppleWebKit/605.1.15 (KHTML, like Gecko) Version/18.3.1 Safari/605.1.15",Macintosh,Safari,18.3.1,OS X,10_15_7,https://5puzkbbxv1.cognition.run/?sona_id=57479,"en-US,en;q=0.9",chb98n8vf8ozpfc,18,"[""White""]",Yes,Female,Na,No,NA,2649,NA,"{""product_choice"":""A""}",choice,ct,binary,repulsion,2,laptops,null,null,null,null,null,null,2,30,40,null,100,90,null,Processing speed,Memory (RAM),NA,NA
NA,NA,NA,NA,NA,choice_trial_setup,html-keyboard-response,80,278192,0.0-4.0-0.38,74,1,2025-04-29T00:08:55Z,b60275e29fe2361ab97ac0ac217840d7,"Mozilla/5.0 (Macintosh; Intel Mac OS X 10_15_7) AppleWebKit/605.1.15 (KHTML, like Gecko) Version/18.3.1 Safari/605.1.15",Macintosh,Safari,18.3.1,OS X,10_15_7,https://5puzkbbxv1.cognition.run/?sona_id=57479,"en-US,en;q=0.9",chb98n8vf8ozpfc,18,"[""White""]",Yes,Female,Na,No,NA,null,<p></p>,null,choice,ct,binary,repulsion,1,televisions,null,null,null,null,null,null,2,NA,NA,NA,NA,NA,NA,NA,NA,NA,NA
NA,NA,NA,NA,NA,choice_trial,survey-html-form,81,282487,0.0-4.0-1.38,74,1,2025-04-29T00:08:55Z,b60275e29fe2361ab97ac0ac217840d7,"Mozilla/5.0 (Macintosh; Intel Mac OS X 10_15_7) AppleWebKit/605.1.15 (KHTML, like Gecko) Version/18.3.1 Safari/605.1.15",Macintosh,Safari,18.3.1,OS X,10_15_7,https://5puzkbbxv1.cognition.run/?sona_id=57479,"en-US,en;q=0.9",chb98n8vf8ozpfc,18,"[""White""]",Yes,Female,Na,No,NA,4286,NA,"{""product_choice"":""A""}",choice,ct,binary,repulsion,1,televisions,null,null,null,null,null,null,2,100,90,null,30,40,null,Screen size,Average lifespan,NA,NA
NA,NA,NA,NA,NA,choice_trial_setup,html-keyboard-response,82,282792,0.0-4.0-0.39,74,1,2025-04-29T00:08:55Z,b60275e29fe2361ab97ac0ac217840d7,"Mozilla/5.0 (Macintosh; Intel Mac OS X 10_15_7) AppleWebKit/605.1.15 (KHTML, like Gecko) Version/18.3.1 Safari/605.1.15",Macintosh,Safari,18.3.1,OS X,10_15_7,https://5puzkbbxv1.cognition.run/?sona_id=57479,"en-US,en;q=0.9",chb98n8vf8ozpfc,18,"[""White""]",Yes,Female,Na,No,NA,null,<p></p>,null,choice,ct,binary,repulsion,1,laptops,null,null,null,null,null,null,2,NA,NA,NA,NA,NA,NA,NA,NA,NA,NA
NA,NA,NA,NA,NA,choice_trial,survey-html-form,83,287941,0.0-4.0-1.39,74,1,2025-04-29T00:08:55Z,b60275e29fe2361ab97ac0ac217840d7,"Mozilla/5.0 (Macintosh; Intel Mac OS X 10_15_7) AppleWebKit/605.1.15 (KHTML, like Gecko) Version/18.3.1 Safari/605.1.15",Macintosh,Safari,18.3.1,OS X,10_15_7,https://5puzkbbxv1.cognition.run/?sona_id=57479,"en-US,en;q=0.9",chb98n8vf8ozpfc,18,"[""White""]",Yes,Female,Na,No,NA,5135,NA,"{""product_choice"":""A""}",choice,ct,binary,repulsion,1,laptops,null,null,null,null,null,null,2,100,90,null,30,40,null,Processing speed,Memory (RAM),NA,NA
NA,NA,NA,NA,NA,choice_trial_setup,html-keyboard-response,84,288248,0.0-4.0-0.40,74,1,2025-04-29T00:08:55Z,b60275e29fe2361ab97ac0ac217840d7,"Mozilla/5.0 (Macintosh; Intel Mac OS X 10_15_7) AppleWebKit/605.1.15 (KHTML, like Gecko) Version/18.3.1 Safari/605.1.15",Macintosh,Safari,18.3.1,OS X,10_15_7,https://5puzkbbxv1.cognition.run/?sona_id=57479,"en-US,en;q=0.9",chb98n8vf8ozpfc,18,"[""White""]",Yes,Female,Na,No,NA,null,<p></p>,null,choice,ct,binary,repulsion,2,microwave ovens,null,null,null,null,null,null,1,NA,NA,NA,NA,NA,NA,NA,NA,NA,NA
NA,NA,NA,NA,NA,choice_trial,survey-html-form,85,290112,0.0-4.0-1.40,74,1,2025-04-29T00:08:55Z,b60275e29fe2361ab97ac0ac217840d7,"Mozilla/5.0 (Macintosh; Intel Mac OS X 10_15_7) AppleWebKit/605.1.15 (KHTML, like Gecko) Version/18.3.1 Safari/605.1.15",Macintosh,Safari,18.3.1,OS X,10_15_7,https://5puzkbbxv1.cognition.run/?sona_id=57479,"en-US,en;q=0.9",chb98n8vf8ozpfc,18,"[""White""]",Yes,Female,Na,No,NA,1854,NA,"{""product_choice"":""A""}",choice,ct,binary,repulsion,2,microwave ovens,null,null,null,null,null,null,1,30,40,null,100,90,null,Warranty,Cooking power,NA,NA
NA,NA,NA,NA,NA,choice_trial_setup,html-keyboard-response,86,290419,0.0-4.0-0.41,74,1,2025-04-29T00:08:55Z,b60275e29fe2361ab97ac0ac217840d7,"Mozilla/5.0 (Macintosh; Intel Mac OS X 10_15_7) AppleWebKit/605.1.15 (KHTML, like Gecko) Version/18.3.1 Safari/605.1.15",Macintosh,Safari,18.3.1,OS X,10_15_7,https://5puzkbbxv1.cognition.run/?sona_id=57479,"en-US,en;q=0.9",chb98n8vf8ozpfc,18,"[""White""]",Yes,Female,Na,No,NA,null,<p></p>,null,choice,bww,trinary,catch,null,microwave ovens,65,65,20,50,35,40,1,NA,NA,NA,NA,NA,NA,NA,NA,NA,NA
NA,NA,NA,NA,NA,choice_trial,survey-html-form,87,294223,0.0-4.0-1.41,74,1,2025-04-29T00:08:55Z,b60275e29fe2361ab97ac0ac217840d7,"Mozilla/5.0 (Macintosh; Intel Mac OS X 10_15_7) AppleWebKit/605.1.15 (KHTML, like Gecko) Version/18.3.1 Safari/605.1.15",Macintosh,Safari,18.3.1,OS X,10_15_7,https://5puzkbbxv1.cognition.run/?sona_id=57479,"en-US,en;q=0.9",chb98n8vf8ozpfc,18,"[""White""]",Yes,Female,Na,No,NA,3795,NA,"{""product_choice"":""A""}",choice,bww,trinary,catch,null,microwave ovens,65,65,20,50,35,40,1,null,null,null,null,null,null,Warranty,Cooking power,NA,NA
NA,NA,NA,NA,NA,choice_trial_setup,html-keyboard-response,88,294528,0.0-4.0-0.42,74,1,2025-04-29T00:08:55Z,b60275e29fe2361ab97ac0ac217840d7,"Mozilla/5.0 (Macintosh; Intel Mac OS X 10_15_7) AppleWebKit/605.1.15 (KHTML, like Gecko) Version/18.3.1 Safari/605.1.15",Macintosh,Safari,18.3.1,OS X,10_15_7,https://5puzkbbxv1.cognition.run/?sona_id=57479,"en-US,en;q=0.9",chb98n8vf8ozpfc,18,"[""White""]",Yes,Female,Na,No,NA,null,<p></p>,null,choice,wwb,trinary,catch,null,televisions,90,90,40,45,20,40,1,NA,NA,NA,NA,NA,NA,NA,NA,NA,NA
NA,NA,NA,NA,NA,choice_trial,survey-html-form,89,297488,0.0-4.0-1.42,74,1,2025-04-29T00:08:55Z,b60275e29fe2361ab97ac0ac217840d7,"Mozilla/5.0 (Macintosh; Intel Mac OS X 10_15_7) AppleWebKit/605.1.15 (KHTML, like Gecko) Version/18.3.1 Safari/605.1.15",Macintosh,Safari,18.3.1,OS X,10_15_7,https://5puzkbbxv1.cognition.run/?sona_id=57479,"en-US,en;q=0.9",chb98n8vf8ozpfc,18,"[""White""]",Yes,Female,Na,No,NA,2945,NA,"{""product_choice"":""C""}",choice,wwb,trinary,catch,null,televisions,90,90,40,45,20,40,1,null,null,null,null,null,null,Screen size,Average lifespan,NA,NA
NA,NA,NA,NA,NA,choice_trial_setup,html-keyboard-response,90,297795,0.0-4.0-0.43,74,1,2025-04-29T00:08:55Z,b60275e29fe2361ab97ac0ac217840d7,"Mozilla/5.0 (Macintosh; Intel Mac OS X 10_15_7) AppleWebKit/605.1.15 (KHTML, like Gecko) Version/18.3.1 Safari/605.1.15",Macintosh,Safari,18.3.1,OS X,10_15_7,https://5puzkbbxv1.cognition.run/?sona_id=57479,"en-US,en;q=0.9",chb98n8vf8ozpfc,18,"[""White""]",Yes,Female,Na,No,NA,null,<p></p>,null,choice,tcd,trinary,attraction,2,televisions,null,null,null,null,null,null,1,NA,NA,NA,NA,NA,NA,NA,NA,NA,NA
NA,NA,NA,NA,NA,choice_trial,survey-html-form,91,305103,0.0-4.0-1.43,74,1,2025-04-29T00:08:55Z,b60275e29fe2361ab97ac0ac217840d7,"Mozilla/5.0 (Macintosh; Intel Mac OS X 10_15_7) AppleWebKit/605.1.15 (KHTML, like Gecko) Version/18.3.1 Safari/605.1.15",Macintosh,Safari,18.3.1,OS X,10_15_7,https://5puzkbbxv1.cognition.run/?sona_id=57479,"en-US,en;q=0.9",chb98n8vf8ozpfc,18,"[""White""]",Yes,Female,Na,No,NA,7298,NA,"{""product_choice"":""A""}",choice,tcd,trinary,attraction,2,televisions,null,null,null,null,null,null,1,50,60,40,60,50,60,Screen size,Average lifespan,NA,NA
NA,NA,NA,NA,NA,post_trials_message,html-button-response,92,308750,0.0-5.0,74,1,2025-04-29T00:08:55Z,b60275e29fe2361ab97ac0ac217840d7,"Mozilla/5.0 (Macintosh; Intel Mac OS X 10_15_7) AppleWebKit/605.1.15 (KHTML, like Gecko) Version/18.3.1 Safari/605.1.15",Macintosh,Safari,18.3.1,OS X,10_15_7,https://5puzkbbxv1.cognition.run/?sona_id=57479,"en-US,en;q=0.9",chb98n8vf8ozpfc,18,"[""White""]",Yes,Female,Na,No,NA,3640,<p> <b>Thank you for your patience!</b></p><p>  The study will be done after completing a brief form. </p>,0,NA,NA,NA,NA,NA,NA,NA,NA,NA,NA,NA,NA,NA,NA,NA,NA,NA,NA,NA,NA,NA,NA,NA
NA,NA,NA,NA,NA,survey_message,survey-text,93,342154,0.0-6.0,74,1,2025-04-29T00:08:55Z,b60275e29fe2361ab97ac0ac217840d7,"Mozilla/5.0 (Macintosh; Intel Mac OS X 10_15_7) AppleWebKit/605.1.15 (KHTML, like Gecko) Version/18.3.1 Safari/605.1.15",Macintosh,Safari,18.3.1,OS X,10_15_7,https://5puzkbbxv1.cognition.run/?sona_id=57479,"en-US,en;q=0.9",chb98n8vf8ozpfc,18,"[""White""]",Yes,Female,Na,No,NA,33381,NA,"{""Q0"":""I chose based off of which option was more important in my opinion and than picked the one that had higher in that.""}",NA,NA,NA,NA,NA,NA,NA,NA,NA,NA,NA,NA,NA,NA,NA,NA,NA,NA,NA,NA,NA,I chose based off of which option was more important in my opinion and than picked the one that had higher in that.,NA
NA,NA,NA,NA,NA,demo_age,survey-text,94,345583,0.0-7.0,74,1,2025-04-29T00:08:55Z,b60275e29fe2361ab97ac0ac217840d7,"Mozilla/5.0 (Macintosh; Intel Mac OS X 10_15_7) AppleWebKit/605.1.15 (KHTML, like Gecko) Version/18.3.1 Safari/605.1.15",Macintosh,Safari,18.3.1,OS X,10_15_7,https://5puzkbbxv1.cognition.run/?sona_id=57479,"en-US,en;q=0.9",chb98n8vf8ozpfc,18,"[""White""]",Yes,Female,Na,No,NA,3415,NA,"{""Q0"":""18""}",NA,NA,NA,NA,NA,NA,NA,NA,NA,NA,NA,NA,NA,NA,NA,NA,NA,NA,NA,NA,NA,NA,NA
NA,NA,NA,NA,NA,demo_race,survey-multi-select,95,359482,0.0-8.0,74,1,2025-04-29T00:08:55Z,b60275e29fe2361ab97ac0ac217840d7,"Mozilla/5.0 (Macintosh; Intel Mac OS X 10_15_7) AppleWebKit/605.1.15 (KHTML, like Gecko) Version/18.3.1 Safari/605.1.15",Macintosh,Safari,18.3.1,OS X,10_15_7,https://5puzkbbxv1.cognition.run/?sona_id=57479,"en-US,en;q=0.9",chb98n8vf8ozpfc,18,"[""White""]",Yes,Female,Na,No,NA,13890,NA,"{""Q0"":[""White""]}",NA,NA,NA,NA,NA,NA,NA,NA,NA,NA,NA,NA,NA,NA,NA,NA,NA,NA,NA,NA,NA,NA,[0]
NA,NA,NA,NA,NA,demo_ethnicity_gender,survey-multi-choice,96,364448,0.0-9.0,74,1,2025-04-29T00:08:55Z,b60275e29fe2361ab97ac0ac217840d7,"Mozilla/5.0 (Macintosh; Intel Mac OS X 10_15_7) AppleWebKit/605.1.15 (KHTML, like Gecko) Version/18.3.1 Safari/605.1.15",Macintosh,Safari,18.3.1,OS X,10_15_7,https://5puzkbbxv1.cognition.run/?sona_id=57479,"en-US,en;q=0.9",chb98n8vf8ozpfc,18,"[""White""]",Yes,Female,Na,No,NA,4958,NA,"{""Q0"":""Yes"",""Q1"":""Female""}",NA,NA,NA,NA,NA,NA,NA,NA,NA,NA,NA,NA,NA,NA,NA,NA,NA,NA,NA,NA,NA,NA,"[0,1]"
NA,NA,NA,NA,NA,demo_countries,survey-text,97,372302,0.0-10.0,74,1,2025-04-29T00:08:55Z,b60275e29fe2361ab97ac0ac217840d7,"Mozilla/5.0 (Macintosh; Intel Mac OS X 10_15_7) AppleWebKit/605.1.15 (KHTML, like Gecko) Version/18.3.1 Safari/605.1.15",Macintosh,Safari,18.3.1,OS X,10_15_7,https://5puzkbbxv1.cognition.run/?sona_id=57479,"en-US,en;q=0.9",chb98n8vf8ozpfc,18,"[""White""]",Yes,Female,Na,No,NA,7843,NA,"{""Q0"":""Na""}",NA,NA,NA,NA,NA,NA,NA,NA,NA,NA,NA,NA,NA,NA,NA,NA,NA,NA,NA,NA,NA,NA,NA
NA,NA,NA,NA,NA,demo_prev_study,survey-multi-choice,98,378094,0.0-11.0,74,1,2025-04-29T00:08:55Z,b60275e29fe2361ab97ac0ac217840d7,"Mozilla/5.0 (Macintosh; Intel Mac OS X 10_15_7) AppleWebKit/605.1.15 (KHTML, like Gecko) Version/18.3.1 Safari/605.1.15",Macintosh,Safari,18.3.1,OS X,10_15_7,https://5puzkbbxv1.cognition.run/?sona_id=57479,"en-US,en;q=0.9",chb98n8vf8ozpfc,18,"[""White""]",Yes,Female,Na,No,NA,5787,NA,"{""Q0"":""No""}",NA,NA,NA,NA,NA,NA,NA,NA,NA,NA,NA,NA,NA,NA,NA,NA,NA,NA,NA,NA,NA,NA,[0]
