success,timeout,failed_images,failed_audio,failed_video,screen_id,trial_type,trial_index,time_elapsed,internal_node_id,run_id,condition,recorded_at,source_code_version,user_agent,device,browser,browser_version,platform,platform_version,referer,accept_language,ppt_id,age,race,ethnicity,gender,other_countries,prev_study,exp_duration,view_history,rt,stimulus,response,phase,order,set,effect,t_high,category,d1_best,d2_best,d1_worst1,d2_worst1,d1_worst2,d2_worst2,first_dim,d1_t,d1_c,d1_d,d2_t,d2_c,d2_d,d1_name,d2_name,strategy_response,question_order
TRUE,FALSE,[],[],[],img preload,preload,0,166,0.0-0.0,76,1,2025-04-29T00:32:29Z,b60275e29fe2361ab97ac0ac217840d7,"Mozilla/5.0 (Macintosh; Intel Mac OS X 10_15_7) AppleWebKit/605.1.15 (KHTML, like Gecko) Version/18.3.1 Safari/605.1.15",Macintosh,Safari,18.3.1,OS X,10_15_7,https://5puzkbbxv1.cognition.run/?sona_id=57654,"en-US,en;q=0.9",q2qw0ktkt2jmf80,19,"[""White""]",No,Male,na,No,590398,NA,NA,NA,NA,NA,NA,NA,NA,NA,NA,NA,NA,NA,NA,NA,NA,NA,NA,NA,NA,NA,NA,NA,NA,NA,NA,NA
NA,NA,NA,NA,NA,computer_message,instructions,1,5160,0.0-1.0,76,1,2025-04-29T00:32:29Z,b60275e29fe2361ab97ac0ac217840d7,"Mozilla/5.0 (Macintosh; Intel Mac OS X 10_15_7) AppleWebKit/605.1.15 (KHTML, like Gecko) Version/18.3.1 Safari/605.1.15",Macintosh,Safari,18.3.1,OS X,10_15_7,https://5puzkbbxv1.cognition.run/?sona_id=57654,"en-US,en;q=0.9",q2qw0ktkt2jmf80,19,"[""White""]",No,Male,na,No,590398,"[{""page_index"":0,""viewing_time"":4992}]",4992,NA,NA,NA,NA,NA,NA,NA,NA,NA,NA,NA,NA,NA,NA,NA,NA,NA,NA,NA,NA,NA,NA,NA,NA,NA
TRUE,NA,NA,NA,NA,NA,fullscreen,2,9699,0.0-2.0,76,1,2025-04-29T00:32:29Z,b60275e29fe2361ab97ac0ac217840d7,"Mozilla/5.0 (Macintosh; Intel Mac OS X 10_15_7) AppleWebKit/605.1.15 (KHTML, like Gecko) Version/18.3.1 Safari/605.1.15",Macintosh,Safari,18.3.1,OS X,10_15_7,https://5puzkbbxv1.cognition.run/?sona_id=57654,"en-US,en;q=0.9",q2qw0ktkt2jmf80,19,"[""White""]",No,Male,na,No,590398,NA,3529,NA,NA,NA,NA,NA,NA,NA,NA,NA,NA,NA,NA,NA,NA,NA,NA,NA,NA,NA,NA,NA,NA,NA,NA,NA
NA,NA,NA,NA,NA,choice_instructions,instructions,3,67562,0.0-3.0,76,1,2025-04-29T00:32:29Z,b60275e29fe2361ab97ac0ac217840d7,"Mozilla/5.0 (Macintosh; Intel Mac OS X 10_15_7) AppleWebKit/605.1.15 (KHTML, like Gecko) Version/18.3.1 Safari/605.1.15",Macintosh,Safari,18.3.1,OS X,10_15_7,https://5puzkbbxv1.cognition.run/?sona_id=57654,"en-US,en;q=0.9",q2qw0ktkt2jmf80,19,"[""White""]",No,Male,na,No,590398,"[{""page_index"":0,""viewing_time"":2068},{""page_index"":1,""viewing_time"":3064},{""page_index"":2,""viewing_time"":19209},{""page_index"":3,""viewing_time"":9310},{""page_index"":4,""viewing_time"":2962},{""page_index"":5,""viewing_time"":14790},{""page_index"":6,""viewing_time"":6462}]",57866,NA,NA,NA,NA,NA,NA,NA,NA,NA,NA,NA,NA,NA,NA,NA,NA,NA,NA,NA,NA,NA,NA,NA,NA,NA
NA,NA,NA,NA,NA,choice_trial_setup,html-keyboard-response,4,67868,0.0-4.0-0.0,76,1,2025-04-29T00:32:29Z,b60275e29fe2361ab97ac0ac217840d7,"Mozilla/5.0 (Macintosh; Intel Mac OS X 10_15_7) AppleWebKit/605.1.15 (KHTML, like Gecko) Version/18.3.1 Safari/605.1.15",Macintosh,Safari,18.3.1,OS X,10_15_7,https://5puzkbbxv1.cognition.run/?sona_id=57654,"en-US,en;q=0.9",q2qw0ktkt2jmf80,19,"[""White""]",No,Male,na,No,590398,NA,null,<p></p>,null,choice,tc,binary,repulsion,1,televisions,null,null,null,null,null,null,1,NA,NA,NA,NA,NA,NA,NA,NA,NA,NA
NA,NA,NA,NA,NA,choice_trial,survey-html-form,5,78778,0.0-4.0-1.0,76,1,2025-04-29T00:32:29Z,b60275e29fe2361ab97ac0ac217840d7,"Mozilla/5.0 (Macintosh; Intel Mac OS X 10_15_7) AppleWebKit/605.1.15 (KHTML, like Gecko) Version/18.3.1 Safari/605.1.15",Macintosh,Safari,18.3.1,OS X,10_15_7,https://5puzkbbxv1.cognition.run/?sona_id=57654,"en-US,en;q=0.9",q2qw0ktkt2jmf80,19,"[""White""]",No,Male,na,No,590398,NA,10906,NA,"{""product_choice"":""B""}",choice,tc,binary,repulsion,1,televisions,null,null,null,null,null,null,1,100,90,null,30,40,null,Screen size,Average lifespan,NA,NA
NA,NA,NA,NA,NA,choice_trial_setup,html-keyboard-response,6,79082,0.0-4.0-0.1,76,1,2025-04-29T00:32:29Z,b60275e29fe2361ab97ac0ac217840d7,"Mozilla/5.0 (Macintosh; Intel Mac OS X 10_15_7) AppleWebKit/605.1.15 (KHTML, like Gecko) Version/18.3.1 Safari/605.1.15",Macintosh,Safari,18.3.1,OS X,10_15_7,https://5puzkbbxv1.cognition.run/?sona_id=57654,"en-US,en;q=0.9",q2qw0ktkt2jmf80,19,"[""White""]",No,Male,na,No,590398,NA,null,<p></p>,null,choice,tcd,trinary,repulsion_B,2,televisions,null,null,null,null,null,null,1,NA,NA,NA,NA,NA,NA,NA,NA,NA,NA
NA,NA,NA,NA,NA,choice_trial,survey-html-form,7,87620,0.0-4.0-1.1,76,1,2025-04-29T00:32:29Z,b60275e29fe2361ab97ac0ac217840d7,"Mozilla/5.0 (Macintosh; Intel Mac OS X 10_15_7) AppleWebKit/605.1.15 (KHTML, like Gecko) Version/18.3.1 Safari/605.1.15",Macintosh,Safari,18.3.1,OS X,10_15_7,https://5puzkbbxv1.cognition.run/?sona_id=57654,"en-US,en;q=0.9",q2qw0ktkt2jmf80,19,"[""White""]",No,Male,na,No,590398,NA,8535,NA,"{""product_choice"":""A""}",choice,tcd,trinary,repulsion_B,2,televisions,null,null,null,null,null,null,1,40,30,40,90,100,80,Screen size,Average lifespan,NA,NA
NA,NA,NA,NA,NA,choice_trial_setup,html-keyboard-response,8,87922,0.0-4.0-0.2,76,1,2025-04-29T00:32:29Z,b60275e29fe2361ab97ac0ac217840d7,"Mozilla/5.0 (Macintosh; Intel Mac OS X 10_15_7) AppleWebKit/605.1.15 (KHTML, like Gecko) Version/18.3.1 Safari/605.1.15",Macintosh,Safari,18.3.1,OS X,10_15_7,https://5puzkbbxv1.cognition.run/?sona_id=57654,"en-US,en;q=0.9",q2qw0ktkt2jmf80,19,"[""White""]",No,Male,na,No,590398,NA,null,<p></p>,null,choice,tc,binary,attraction,NA,microwave ovens,null,null,null,null,null,null,2,NA,NA,NA,NA,NA,NA,NA,NA,NA,NA
NA,NA,NA,NA,NA,choice_trial,survey-html-form,9,95085,0.0-4.0-1.2,76,1,2025-04-29T00:32:29Z,b60275e29fe2361ab97ac0ac217840d7,"Mozilla/5.0 (Macintosh; Intel Mac OS X 10_15_7) AppleWebKit/605.1.15 (KHTML, like Gecko) Version/18.3.1 Safari/605.1.15",Macintosh,Safari,18.3.1,OS X,10_15_7,https://5puzkbbxv1.cognition.run/?sona_id=57654,"en-US,en;q=0.9",q2qw0ktkt2jmf80,19,"[""White""]",No,Male,na,No,590398,NA,7160,NA,"{""product_choice"":""B""}",choice,tc,binary,attraction,NA,microwave ovens,null,null,null,null,null,null,2,60,50,null,50,60,null,Warranty,Cooking power,NA,NA
NA,NA,NA,NA,NA,choice_trial_setup,html-keyboard-response,10,95388,0.0-4.0-0.3,76,1,2025-04-29T00:32:29Z,b60275e29fe2361ab97ac0ac217840d7,"Mozilla/5.0 (Macintosh; Intel Mac OS X 10_15_7) AppleWebKit/605.1.15 (KHTML, like Gecko) Version/18.3.1 Safari/605.1.15",Macintosh,Safari,18.3.1,OS X,10_15_7,https://5puzkbbxv1.cognition.run/?sona_id=57654,"en-US,en;q=0.9",q2qw0ktkt2jmf80,19,"[""White""]",No,Male,na,No,590398,NA,null,<p></p>,null,choice,tcd,trinary,repulsion_B,1,laptops,null,null,null,null,null,null,1,NA,NA,NA,NA,NA,NA,NA,NA,NA,NA
NA,NA,NA,NA,NA,choice_trial,survey-html-form,11,102900,0.0-4.0-1.3,76,1,2025-04-29T00:32:29Z,b60275e29fe2361ab97ac0ac217840d7,"Mozilla/5.0 (Macintosh; Intel Mac OS X 10_15_7) AppleWebKit/605.1.15 (KHTML, like Gecko) Version/18.3.1 Safari/605.1.15",Macintosh,Safari,18.3.1,OS X,10_15_7,https://5puzkbbxv1.cognition.run/?sona_id=57654,"en-US,en;q=0.9",q2qw0ktkt2jmf80,19,"[""White""]",No,Male,na,No,590398,NA,7509,NA,"{""product_choice"":""B""}",choice,tcd,trinary,repulsion_B,1,laptops,null,null,null,null,null,null,1,90,100,80,40,30,40,Processing speed,Memory (RAM),NA,NA
NA,NA,NA,NA,NA,choice_trial_setup,html-keyboard-response,12,103202,0.0-4.0-0.4,76,1,2025-04-29T00:32:29Z,b60275e29fe2361ab97ac0ac217840d7,"Mozilla/5.0 (Macintosh; Intel Mac OS X 10_15_7) AppleWebKit/605.1.15 (KHTML, like Gecko) Version/18.3.1 Safari/605.1.15",Macintosh,Safari,18.3.1,OS X,10_15_7,https://5puzkbbxv1.cognition.run/?sona_id=57654,"en-US,en;q=0.9",q2qw0ktkt2jmf80,19,"[""White""]",No,Male,na,No,590398,NA,null,<p></p>,null,choice,dtc,trinary,attraction,1,microwave ovens,null,null,null,null,null,null,2,NA,NA,NA,NA,NA,NA,NA,NA,NA,NA
NA,NA,NA,NA,NA,choice_trial,survey-html-form,13,107452,0.0-4.0-1.4,76,1,2025-04-29T00:32:29Z,b60275e29fe2361ab97ac0ac217840d7,"Mozilla/5.0 (Macintosh; Intel Mac OS X 10_15_7) AppleWebKit/605.1.15 (KHTML, like Gecko) Version/18.3.1 Safari/605.1.15",Macintosh,Safari,18.3.1,OS X,10_15_7,https://5puzkbbxv1.cognition.run/?sona_id=57654,"en-US,en;q=0.9",q2qw0ktkt2jmf80,19,"[""White""]",No,Male,na,No,590398,NA,4248,NA,"{""product_choice"":""C""}",choice,dtc,trinary,attraction,1,microwave ovens,null,null,null,null,null,null,2,60,50,60,50,60,40,Warranty,Cooking power,NA,NA
NA,NA,NA,NA,NA,choice_trial_setup,html-keyboard-response,14,107755,0.0-4.0-0.5,76,1,2025-04-29T00:32:29Z,b60275e29fe2361ab97ac0ac217840d7,"Mozilla/5.0 (Macintosh; Intel Mac OS X 10_15_7) AppleWebKit/605.1.15 (KHTML, like Gecko) Version/18.3.1 Safari/605.1.15",Macintosh,Safari,18.3.1,OS X,10_15_7,https://5puzkbbxv1.cognition.run/?sona_id=57654,"en-US,en;q=0.9",q2qw0ktkt2jmf80,19,"[""White""]",No,Male,na,No,590398,NA,null,<p></p>,null,choice,tc,binary,repulsion,1,microwave ovens,null,null,null,null,null,null,1,NA,NA,NA,NA,NA,NA,NA,NA,NA,NA
NA,NA,NA,NA,NA,choice_trial,survey-html-form,15,112542,0.0-4.0-1.5,76,1,2025-04-29T00:32:29Z,b60275e29fe2361ab97ac0ac217840d7,"Mozilla/5.0 (Macintosh; Intel Mac OS X 10_15_7) AppleWebKit/605.1.15 (KHTML, like Gecko) Version/18.3.1 Safari/605.1.15",Macintosh,Safari,18.3.1,OS X,10_15_7,https://5puzkbbxv1.cognition.run/?sona_id=57654,"en-US,en;q=0.9",q2qw0ktkt2jmf80,19,"[""White""]",No,Male,na,No,590398,NA,4785,NA,"{""product_choice"":""B""}",choice,tc,binary,repulsion,1,microwave ovens,null,null,null,null,null,null,1,100,90,null,30,40,null,Warranty,Cooking power,NA,NA
NA,NA,NA,NA,NA,choice_trial_setup,html-keyboard-response,16,112845,0.0-4.0-0.6,76,1,2025-04-29T00:32:29Z,b60275e29fe2361ab97ac0ac217840d7,"Mozilla/5.0 (Macintosh; Intel Mac OS X 10_15_7) AppleWebKit/605.1.15 (KHTML, like Gecko) Version/18.3.1 Safari/605.1.15",Macintosh,Safari,18.3.1,OS X,10_15_7,https://5puzkbbxv1.cognition.run/?sona_id=57654,"en-US,en;q=0.9",q2qw0ktkt2jmf80,19,"[""White""]",No,Male,na,No,590398,NA,null,<p></p>,null,choice,ct,binary,attraction,NA,televisions,null,null,null,null,null,null,1,NA,NA,NA,NA,NA,NA,NA,NA,NA,NA
NA,NA,NA,NA,NA,choice_trial,survey-html-form,17,119028,0.0-4.0-1.6,76,1,2025-04-29T00:32:29Z,b60275e29fe2361ab97ac0ac217840d7,"Mozilla/5.0 (Macintosh; Intel Mac OS X 10_15_7) AppleWebKit/605.1.15 (KHTML, like Gecko) Version/18.3.1 Safari/605.1.15",Macintosh,Safari,18.3.1,OS X,10_15_7,https://5puzkbbxv1.cognition.run/?sona_id=57654,"en-US,en;q=0.9",q2qw0ktkt2jmf80,19,"[""White""]",No,Male,na,No,590398,NA,6181,NA,"{""product_choice"":""A""}",choice,ct,binary,attraction,NA,televisions,null,null,null,null,null,null,1,60,50,null,50,60,null,Screen size,Average lifespan,NA,NA
NA,NA,NA,NA,NA,choice_trial_setup,html-keyboard-response,18,119333,0.0-4.0-0.7,76,1,2025-04-29T00:32:29Z,b60275e29fe2361ab97ac0ac217840d7,"Mozilla/5.0 (Macintosh; Intel Mac OS X 10_15_7) AppleWebKit/605.1.15 (KHTML, like Gecko) Version/18.3.1 Safari/605.1.15",Macintosh,Safari,18.3.1,OS X,10_15_7,https://5puzkbbxv1.cognition.run/?sona_id=57654,"en-US,en;q=0.9",q2qw0ktkt2jmf80,19,"[""White""]",No,Male,na,No,590398,NA,null,<p></p>,null,choice,ctd,trinary,attraction,2,washing machines,null,null,null,null,null,null,1,NA,NA,NA,NA,NA,NA,NA,NA,NA,NA
NA,NA,NA,NA,NA,choice_trial,survey-html-form,19,125525,0.0-4.0-1.7,76,1,2025-04-29T00:32:29Z,b60275e29fe2361ab97ac0ac217840d7,"Mozilla/5.0 (Macintosh; Intel Mac OS X 10_15_7) AppleWebKit/605.1.15 (KHTML, like Gecko) Version/18.3.1 Safari/605.1.15",Macintosh,Safari,18.3.1,OS X,10_15_7,https://5puzkbbxv1.cognition.run/?sona_id=57654,"en-US,en;q=0.9",q2qw0ktkt2jmf80,19,"[""White""]",No,Male,na,No,590398,NA,6189,NA,"{""product_choice"":""A""}",choice,ctd,trinary,attraction,2,washing machines,null,null,null,null,null,null,1,50,60,40,60,50,60,Average lifespan,Energy savings,NA,NA
NA,NA,NA,NA,NA,choice_trial_setup,html-keyboard-response,20,125827,0.0-4.0-0.8,76,1,2025-04-29T00:32:29Z,b60275e29fe2361ab97ac0ac217840d7,"Mozilla/5.0 (Macintosh; Intel Mac OS X 10_15_7) AppleWebKit/605.1.15 (KHTML, like Gecko) Version/18.3.1 Safari/605.1.15",Macintosh,Safari,18.3.1,OS X,10_15_7,https://5puzkbbxv1.cognition.run/?sona_id=57654,"en-US,en;q=0.9",q2qw0ktkt2jmf80,19,"[""White""]",No,Male,na,No,590398,NA,null,<p></p>,null,choice,tcd,trinary,repulsion_A,2,washing machines,null,null,null,null,null,null,1,NA,NA,NA,NA,NA,NA,NA,NA,NA,NA
NA,NA,NA,NA,NA,choice_trial,survey-html-form,21,129457,0.0-4.0-1.8,76,1,2025-04-29T00:32:29Z,b60275e29fe2361ab97ac0ac217840d7,"Mozilla/5.0 (Macintosh; Intel Mac OS X 10_15_7) AppleWebKit/605.1.15 (KHTML, like Gecko) Version/18.3.1 Safari/605.1.15",Macintosh,Safari,18.3.1,OS X,10_15_7,https://5puzkbbxv1.cognition.run/?sona_id=57654,"en-US,en;q=0.9",q2qw0ktkt2jmf80,19,"[""White""]",No,Male,na,No,590398,NA,3627,NA,"{""product_choice"":""B""}",choice,tcd,trinary,repulsion_A,2,washing machines,null,null,null,null,null,null,1,30,40,20,100,90,100,Average lifespan,Energy savings,NA,NA
NA,NA,NA,NA,NA,choice_trial_setup,html-keyboard-response,22,129760,0.0-4.0-0.9,76,1,2025-04-29T00:32:29Z,b60275e29fe2361ab97ac0ac217840d7,"Mozilla/5.0 (Macintosh; Intel Mac OS X 10_15_7) AppleWebKit/605.1.15 (KHTML, like Gecko) Version/18.3.1 Safari/605.1.15",Macintosh,Safari,18.3.1,OS X,10_15_7,https://5puzkbbxv1.cognition.run/?sona_id=57654,"en-US,en;q=0.9",q2qw0ktkt2jmf80,19,"[""White""]",No,Male,na,No,590398,NA,null,<p></p>,null,choice,tdc,trinary,repulsion_A,1,microwave ovens,null,null,null,null,null,null,1,NA,NA,NA,NA,NA,NA,NA,NA,NA,NA
NA,NA,NA,NA,NA,choice_trial,survey-html-form,23,134726,0.0-4.0-1.9,76,1,2025-04-29T00:32:29Z,b60275e29fe2361ab97ac0ac217840d7,"Mozilla/5.0 (Macintosh; Intel Mac OS X 10_15_7) AppleWebKit/605.1.15 (KHTML, like Gecko) Version/18.3.1 Safari/605.1.15",Macintosh,Safari,18.3.1,OS X,10_15_7,https://5puzkbbxv1.cognition.run/?sona_id=57654,"en-US,en;q=0.9",q2qw0ktkt2jmf80,19,"[""White""]",No,Male,na,No,590398,NA,4962,NA,"{""product_choice"":""C""}",choice,tdc,trinary,repulsion_A,1,microwave ovens,null,null,null,null,null,null,1,100,90,100,30,40,20,Warranty,Cooking power,NA,NA
NA,NA,NA,NA,NA,choice_trial_setup,html-keyboard-response,24,135029,0.0-4.0-0.10,76,1,2025-04-29T00:32:29Z,b60275e29fe2361ab97ac0ac217840d7,"Mozilla/5.0 (Macintosh; Intel Mac OS X 10_15_7) AppleWebKit/605.1.15 (KHTML, like Gecko) Version/18.3.1 Safari/605.1.15",Macintosh,Safari,18.3.1,OS X,10_15_7,https://5puzkbbxv1.cognition.run/?sona_id=57654,"en-US,en;q=0.9",q2qw0ktkt2jmf80,19,"[""White""]",No,Male,na,No,590398,NA,null,<p></p>,null,choice,ct,binary,repulsion,1,laptops,null,null,null,null,null,null,1,NA,NA,NA,NA,NA,NA,NA,NA,NA,NA
NA,NA,NA,NA,NA,choice_trial,survey-html-form,25,137705,0.0-4.0-1.10,76,1,2025-04-29T00:32:29Z,b60275e29fe2361ab97ac0ac217840d7,"Mozilla/5.0 (Macintosh; Intel Mac OS X 10_15_7) AppleWebKit/605.1.15 (KHTML, like Gecko) Version/18.3.1 Safari/605.1.15",Macintosh,Safari,18.3.1,OS X,10_15_7,https://5puzkbbxv1.cognition.run/?sona_id=57654,"en-US,en;q=0.9",q2qw0ktkt2jmf80,19,"[""White""]",No,Male,na,No,590398,NA,2673,NA,"{""product_choice"":""B""}",choice,ct,binary,repulsion,1,laptops,null,null,null,null,null,null,1,100,90,null,30,40,null,Processing speed,Memory (RAM),NA,NA
NA,NA,NA,NA,NA,choice_trial_setup,html-keyboard-response,26,138008,0.0-4.0-0.11,76,1,2025-04-29T00:32:29Z,b60275e29fe2361ab97ac0ac217840d7,"Mozilla/5.0 (Macintosh; Intel Mac OS X 10_15_7) AppleWebKit/605.1.15 (KHTML, like Gecko) Version/18.3.1 Safari/605.1.15",Macintosh,Safari,18.3.1,OS X,10_15_7,https://5puzkbbxv1.cognition.run/?sona_id=57654,"en-US,en;q=0.9",q2qw0ktkt2jmf80,19,"[""White""]",No,Male,na,No,590398,NA,null,<p></p>,null,choice,dtc,trinary,repulsion_A,1,laptops,null,null,null,null,null,null,1,NA,NA,NA,NA,NA,NA,NA,NA,NA,NA
NA,NA,NA,NA,NA,choice_trial,survey-html-form,27,142549,0.0-4.0-1.11,76,1,2025-04-29T00:32:29Z,b60275e29fe2361ab97ac0ac217840d7,"Mozilla/5.0 (Macintosh; Intel Mac OS X 10_15_7) AppleWebKit/605.1.15 (KHTML, like Gecko) Version/18.3.1 Safari/605.1.15",Macintosh,Safari,18.3.1,OS X,10_15_7,https://5puzkbbxv1.cognition.run/?sona_id=57654,"en-US,en;q=0.9",q2qw0ktkt2jmf80,19,"[""White""]",No,Male,na,No,590398,NA,4538,NA,"{""product_choice"":""C""}",choice,dtc,trinary,repulsion_A,1,laptops,null,null,null,null,null,null,1,100,90,100,30,40,20,Processing speed,Memory (RAM),NA,NA
NA,NA,NA,NA,NA,choice_trial_setup,html-keyboard-response,28,142852,0.0-4.0-0.12,76,1,2025-04-29T00:32:29Z,b60275e29fe2361ab97ac0ac217840d7,"Mozilla/5.0 (Macintosh; Intel Mac OS X 10_15_7) AppleWebKit/605.1.15 (KHTML, like Gecko) Version/18.3.1 Safari/605.1.15",Macintosh,Safari,18.3.1,OS X,10_15_7,https://5puzkbbxv1.cognition.run/?sona_id=57654,"en-US,en;q=0.9",q2qw0ktkt2jmf80,19,"[""White""]",No,Male,na,No,590398,NA,null,<p></p>,null,choice,dct,trinary,repulsion_A,2,televisions,null,null,null,null,null,null,1,NA,NA,NA,NA,NA,NA,NA,NA,NA,NA
NA,NA,NA,NA,NA,choice_trial,survey-html-form,29,149173,0.0-4.0-1.12,76,1,2025-04-29T00:32:29Z,b60275e29fe2361ab97ac0ac217840d7,"Mozilla/5.0 (Macintosh; Intel Mac OS X 10_15_7) AppleWebKit/605.1.15 (KHTML, like Gecko) Version/18.3.1 Safari/605.1.15",Macintosh,Safari,18.3.1,OS X,10_15_7,https://5puzkbbxv1.cognition.run/?sona_id=57654,"en-US,en;q=0.9",q2qw0ktkt2jmf80,19,"[""White""]",No,Male,na,No,590398,NA,6317,NA,"{""product_choice"":""C""}",choice,dct,trinary,repulsion_A,2,televisions,null,null,null,null,null,null,1,30,40,20,100,90,100,Screen size,Average lifespan,NA,NA
NA,NA,NA,NA,NA,choice_trial_setup,html-keyboard-response,30,149475,0.0-4.0-0.13,76,1,2025-04-29T00:32:29Z,b60275e29fe2361ab97ac0ac217840d7,"Mozilla/5.0 (Macintosh; Intel Mac OS X 10_15_7) AppleWebKit/605.1.15 (KHTML, like Gecko) Version/18.3.1 Safari/605.1.15",Macintosh,Safari,18.3.1,OS X,10_15_7,https://5puzkbbxv1.cognition.run/?sona_id=57654,"en-US,en;q=0.9",q2qw0ktkt2jmf80,19,"[""White""]",No,Male,na,No,590398,NA,null,<p></p>,null,choice,dtc,trinary,repulsion_B,2,laptops,null,null,null,null,null,null,1,NA,NA,NA,NA,NA,NA,NA,NA,NA,NA
NA,NA,NA,NA,NA,choice_trial,survey-html-form,31,154904,0.0-4.0-1.13,76,1,2025-04-29T00:32:29Z,b60275e29fe2361ab97ac0ac217840d7,"Mozilla/5.0 (Macintosh; Intel Mac OS X 10_15_7) AppleWebKit/605.1.15 (KHTML, like Gecko) Version/18.3.1 Safari/605.1.15",Macintosh,Safari,18.3.1,OS X,10_15_7,https://5puzkbbxv1.cognition.run/?sona_id=57654,"en-US,en;q=0.9",q2qw0ktkt2jmf80,19,"[""White""]",No,Male,na,No,590398,NA,5424,NA,"{""product_choice"":""B""}",choice,dtc,trinary,repulsion_B,2,laptops,null,null,null,null,null,null,1,40,30,40,90,100,80,Processing speed,Memory (RAM),NA,NA
NA,NA,NA,NA,NA,choice_trial_setup,html-keyboard-response,32,155207,0.0-4.0-0.14,76,1,2025-04-29T00:32:29Z,b60275e29fe2361ab97ac0ac217840d7,"Mozilla/5.0 (Macintosh; Intel Mac OS X 10_15_7) AppleWebKit/605.1.15 (KHTML, like Gecko) Version/18.3.1 Safari/605.1.15",Macintosh,Safari,18.3.1,OS X,10_15_7,https://5puzkbbxv1.cognition.run/?sona_id=57654,"en-US,en;q=0.9",q2qw0ktkt2jmf80,19,"[""White""]",No,Male,na,No,590398,NA,null,<p></p>,null,choice,ctd,trinary,attraction,2,televisions,null,null,null,null,null,null,1,NA,NA,NA,NA,NA,NA,NA,NA,NA,NA
NA,NA,NA,NA,NA,choice_trial,survey-html-form,33,181141,0.0-4.0-1.14,76,1,2025-04-29T00:32:29Z,b60275e29fe2361ab97ac0ac217840d7,"Mozilla/5.0 (Macintosh; Intel Mac OS X 10_15_7) AppleWebKit/605.1.15 (KHTML, like Gecko) Version/18.3.1 Safari/605.1.15",Macintosh,Safari,18.3.1,OS X,10_15_7,https://5puzkbbxv1.cognition.run/?sona_id=57654,"en-US,en;q=0.9",q2qw0ktkt2jmf80,19,"[""White""]",No,Male,na,No,590398,NA,25931,NA,"{""product_choice"":""B""}",choice,ctd,trinary,attraction,2,televisions,null,null,null,null,null,null,1,50,60,40,60,50,60,Screen size,Average lifespan,NA,NA
NA,NA,NA,NA,NA,choice_trial_setup,html-keyboard-response,34,181444,0.0-4.0-0.15,76,1,2025-04-29T00:32:29Z,b60275e29fe2361ab97ac0ac217840d7,"Mozilla/5.0 (Macintosh; Intel Mac OS X 10_15_7) AppleWebKit/605.1.15 (KHTML, like Gecko) Version/18.3.1 Safari/605.1.15",Macintosh,Safari,18.3.1,OS X,10_15_7,https://5puzkbbxv1.cognition.run/?sona_id=57654,"en-US,en;q=0.9",q2qw0ktkt2jmf80,19,"[""White""]",No,Male,na,No,590398,NA,null,<p></p>,null,choice,dct,trinary,repulsion_B,2,washing machines,null,null,null,null,null,null,2,NA,NA,NA,NA,NA,NA,NA,NA,NA,NA
NA,NA,NA,NA,NA,choice_trial,survey-html-form,35,197859,0.0-4.0-1.15,76,1,2025-04-29T00:32:29Z,b60275e29fe2361ab97ac0ac217840d7,"Mozilla/5.0 (Macintosh; Intel Mac OS X 10_15_7) AppleWebKit/605.1.15 (KHTML, like Gecko) Version/18.3.1 Safari/605.1.15",Macintosh,Safari,18.3.1,OS X,10_15_7,https://5puzkbbxv1.cognition.run/?sona_id=57654,"en-US,en;q=0.9",q2qw0ktkt2jmf80,19,"[""White""]",No,Male,na,No,590398,NA,16411,NA,"{""product_choice"":""C""}",choice,dct,trinary,repulsion_B,2,washing machines,null,null,null,null,null,null,2,40,30,40,90,100,80,Average lifespan,Energy savings,NA,NA
NA,NA,NA,NA,NA,choice_trial_setup,html-keyboard-response,36,198163,0.0-4.0-0.16,76,1,2025-04-29T00:32:29Z,b60275e29fe2361ab97ac0ac217840d7,"Mozilla/5.0 (Macintosh; Intel Mac OS X 10_15_7) AppleWebKit/605.1.15 (KHTML, like Gecko) Version/18.3.1 Safari/605.1.15",Macintosh,Safari,18.3.1,OS X,10_15_7,https://5puzkbbxv1.cognition.run/?sona_id=57654,"en-US,en;q=0.9",q2qw0ktkt2jmf80,19,"[""White""]",No,Male,na,No,590398,NA,null,<p></p>,null,choice,wwb,trinary,catch,null,washing machines,90,65,50,5,30,50,1,NA,NA,NA,NA,NA,NA,NA,NA,NA,NA
NA,NA,NA,NA,NA,choice_trial,survey-html-form,37,207744,0.0-4.0-1.16,76,1,2025-04-29T00:32:29Z,b60275e29fe2361ab97ac0ac217840d7,"Mozilla/5.0 (Macintosh; Intel Mac OS X 10_15_7) AppleWebKit/605.1.15 (KHTML, like Gecko) Version/18.3.1 Safari/605.1.15",Macintosh,Safari,18.3.1,OS X,10_15_7,https://5puzkbbxv1.cognition.run/?sona_id=57654,"en-US,en;q=0.9",q2qw0ktkt2jmf80,19,"[""White""]",No,Male,na,No,590398,NA,9577,NA,"{""product_choice"":""C""}",choice,wwb,trinary,catch,null,washing machines,90,65,50,5,30,50,1,null,null,null,null,null,null,Average lifespan,Energy savings,NA,NA
NA,NA,NA,NA,NA,choice_trial_setup,html-keyboard-response,38,208047,0.0-4.0-0.17,76,1,2025-04-29T00:32:29Z,b60275e29fe2361ab97ac0ac217840d7,"Mozilla/5.0 (Macintosh; Intel Mac OS X 10_15_7) AppleWebKit/605.1.15 (KHTML, like Gecko) Version/18.3.1 Safari/605.1.15",Macintosh,Safari,18.3.1,OS X,10_15_7,https://5puzkbbxv1.cognition.run/?sona_id=57654,"en-US,en;q=0.9",q2qw0ktkt2jmf80,19,"[""White""]",No,Male,na,No,590398,NA,null,<p></p>,null,choice,tdc,trinary,repulsion_B,1,microwave ovens,null,null,null,null,null,null,1,NA,NA,NA,NA,NA,NA,NA,NA,NA,NA
NA,NA,NA,NA,NA,choice_trial,survey-html-form,39,218604,0.0-4.0-1.17,76,1,2025-04-29T00:32:29Z,b60275e29fe2361ab97ac0ac217840d7,"Mozilla/5.0 (Macintosh; Intel Mac OS X 10_15_7) AppleWebKit/605.1.15 (KHTML, like Gecko) Version/18.3.1 Safari/605.1.15",Macintosh,Safari,18.3.1,OS X,10_15_7,https://5puzkbbxv1.cognition.run/?sona_id=57654,"en-US,en;q=0.9",q2qw0ktkt2jmf80,19,"[""White""]",No,Male,na,No,590398,NA,10553,NA,"{""product_choice"":""A""}",choice,tdc,trinary,repulsion_B,1,microwave ovens,null,null,null,null,null,null,1,90,100,80,40,30,40,Warranty,Cooking power,NA,NA
NA,NA,NA,NA,NA,choice_trial_setup,html-keyboard-response,40,218906,0.0-4.0-0.18,76,1,2025-04-29T00:32:29Z,b60275e29fe2361ab97ac0ac217840d7,"Mozilla/5.0 (Macintosh; Intel Mac OS X 10_15_7) AppleWebKit/605.1.15 (KHTML, like Gecko) Version/18.3.1 Safari/605.1.15",Macintosh,Safari,18.3.1,OS X,10_15_7,https://5puzkbbxv1.cognition.run/?sona_id=57654,"en-US,en;q=0.9",q2qw0ktkt2jmf80,19,"[""White""]",No,Male,na,No,590398,NA,null,<p></p>,null,choice,ct,binary,repulsion,2,televisions,null,null,null,null,null,null,2,NA,NA,NA,NA,NA,NA,NA,NA,NA,NA
NA,NA,NA,NA,NA,choice_trial,survey-html-form,41,256593,0.0-4.0-1.18,76,1,2025-04-29T00:32:29Z,b60275e29fe2361ab97ac0ac217840d7,"Mozilla/5.0 (Macintosh; Intel Mac OS X 10_15_7) AppleWebKit/605.1.15 (KHTML, like Gecko) Version/18.3.1 Safari/605.1.15",Macintosh,Safari,18.3.1,OS X,10_15_7,https://5puzkbbxv1.cognition.run/?sona_id=57654,"en-US,en;q=0.9",q2qw0ktkt2jmf80,19,"[""White""]",No,Male,na,No,590398,NA,37685,NA,"{""product_choice"":""B""}",choice,ct,binary,repulsion,2,televisions,null,null,null,null,null,null,2,30,40,null,100,90,null,Screen size,Average lifespan,NA,NA
NA,NA,NA,NA,NA,choice_trial_setup,html-keyboard-response,42,256897,0.0-4.0-0.19,76,1,2025-04-29T00:32:29Z,b60275e29fe2361ab97ac0ac217840d7,"Mozilla/5.0 (Macintosh; Intel Mac OS X 10_15_7) AppleWebKit/605.1.15 (KHTML, like Gecko) Version/18.3.1 Safari/605.1.15",Macintosh,Safari,18.3.1,OS X,10_15_7,https://5puzkbbxv1.cognition.run/?sona_id=57654,"en-US,en;q=0.9",q2qw0ktkt2jmf80,19,"[""White""]",No,Male,na,No,590398,NA,null,<p></p>,null,choice,tc,binary,repulsion,2,microwave ovens,null,null,null,null,null,null,2,NA,NA,NA,NA,NA,NA,NA,NA,NA,NA
NA,NA,NA,NA,NA,choice_trial,survey-html-form,43,267081,0.0-4.0-1.19,76,1,2025-04-29T00:32:29Z,b60275e29fe2361ab97ac0ac217840d7,"Mozilla/5.0 (Macintosh; Intel Mac OS X 10_15_7) AppleWebKit/605.1.15 (KHTML, like Gecko) Version/18.3.1 Safari/605.1.15",Macintosh,Safari,18.3.1,OS X,10_15_7,https://5puzkbbxv1.cognition.run/?sona_id=57654,"en-US,en;q=0.9",q2qw0ktkt2jmf80,19,"[""White""]",No,Male,na,No,590398,NA,10179,NA,"{""product_choice"":""A""}",choice,tc,binary,repulsion,2,microwave ovens,null,null,null,null,null,null,2,30,40,null,100,90,null,Warranty,Cooking power,NA,NA
NA,NA,NA,NA,NA,choice_trial_setup,html-keyboard-response,44,267385,0.0-4.0-0.20,76,1,2025-04-29T00:32:29Z,b60275e29fe2361ab97ac0ac217840d7,"Mozilla/5.0 (Macintosh; Intel Mac OS X 10_15_7) AppleWebKit/605.1.15 (KHTML, like Gecko) Version/18.3.1 Safari/605.1.15",Macintosh,Safari,18.3.1,OS X,10_15_7,https://5puzkbbxv1.cognition.run/?sona_id=57654,"en-US,en;q=0.9",q2qw0ktkt2jmf80,19,"[""White""]",No,Male,na,No,590398,NA,null,<p></p>,null,choice,ct,binary,repulsion,1,washing machines,null,null,null,null,null,null,1,NA,NA,NA,NA,NA,NA,NA,NA,NA,NA
NA,NA,NA,NA,NA,choice_trial,survey-html-form,45,286165,0.0-4.0-1.20,76,1,2025-04-29T00:32:29Z,b60275e29fe2361ab97ac0ac217840d7,"Mozilla/5.0 (Macintosh; Intel Mac OS X 10_15_7) AppleWebKit/605.1.15 (KHTML, like Gecko) Version/18.3.1 Safari/605.1.15",Macintosh,Safari,18.3.1,OS X,10_15_7,https://5puzkbbxv1.cognition.run/?sona_id=57654,"en-US,en;q=0.9",q2qw0ktkt2jmf80,19,"[""White""]",No,Male,na,No,590398,NA,18776,NA,"{""product_choice"":""B""}",choice,ct,binary,repulsion,1,washing machines,null,null,null,null,null,null,1,100,90,null,30,40,null,Average lifespan,Energy savings,NA,NA
NA,NA,NA,NA,NA,choice_trial_setup,html-keyboard-response,46,286470,0.0-4.0-0.21,76,1,2025-04-29T00:32:29Z,b60275e29fe2361ab97ac0ac217840d7,"Mozilla/5.0 (Macintosh; Intel Mac OS X 10_15_7) AppleWebKit/605.1.15 (KHTML, like Gecko) Version/18.3.1 Safari/605.1.15",Macintosh,Safari,18.3.1,OS X,10_15_7,https://5puzkbbxv1.cognition.run/?sona_id=57654,"en-US,en;q=0.9",q2qw0ktkt2jmf80,19,"[""White""]",No,Male,na,No,590398,NA,null,<p></p>,null,choice,ctd,trinary,repulsion_B,2,microwave ovens,null,null,null,null,null,null,2,NA,NA,NA,NA,NA,NA,NA,NA,NA,NA
NA,NA,NA,NA,NA,choice_trial,survey-html-form,47,292375,0.0-4.0-1.21,76,1,2025-04-29T00:32:29Z,b60275e29fe2361ab97ac0ac217840d7,"Mozilla/5.0 (Macintosh; Intel Mac OS X 10_15_7) AppleWebKit/605.1.15 (KHTML, like Gecko) Version/18.3.1 Safari/605.1.15",Macintosh,Safari,18.3.1,OS X,10_15_7,https://5puzkbbxv1.cognition.run/?sona_id=57654,"en-US,en;q=0.9",q2qw0ktkt2jmf80,19,"[""White""]",No,Male,na,No,590398,NA,5901,NA,"{""product_choice"":""A""}",choice,ctd,trinary,repulsion_B,2,microwave ovens,null,null,null,null,null,null,2,40,30,40,90,100,80,Warranty,Cooking power,NA,NA
NA,NA,NA,NA,NA,choice_trial_setup,html-keyboard-response,48,292679,0.0-4.0-0.22,76,1,2025-04-29T00:32:29Z,b60275e29fe2361ab97ac0ac217840d7,"Mozilla/5.0 (Macintosh; Intel Mac OS X 10_15_7) AppleWebKit/605.1.15 (KHTML, like Gecko) Version/18.3.1 Safari/605.1.15",Macintosh,Safari,18.3.1,OS X,10_15_7,https://5puzkbbxv1.cognition.run/?sona_id=57654,"en-US,en;q=0.9",q2qw0ktkt2jmf80,19,"[""White""]",No,Male,na,No,590398,NA,null,<p></p>,null,choice,bww,trinary,catch,null,televisions,65,60,10,50,15,45,2,NA,NA,NA,NA,NA,NA,NA,NA,NA,NA
NA,NA,NA,NA,NA,choice_trial,survey-html-form,49,298744,0.0-4.0-1.22,76,1,2025-04-29T00:32:29Z,b60275e29fe2361ab97ac0ac217840d7,"Mozilla/5.0 (Macintosh; Intel Mac OS X 10_15_7) AppleWebKit/605.1.15 (KHTML, like Gecko) Version/18.3.1 Safari/605.1.15",Macintosh,Safari,18.3.1,OS X,10_15_7,https://5puzkbbxv1.cognition.run/?sona_id=57654,"en-US,en;q=0.9",q2qw0ktkt2jmf80,19,"[""White""]",No,Male,na,No,590398,NA,6061,NA,"{""product_choice"":""A""}",choice,bww,trinary,catch,null,televisions,65,60,10,50,15,45,2,null,null,null,null,null,null,Screen size,Average lifespan,NA,NA
NA,NA,NA,NA,NA,choice_trial_setup,html-keyboard-response,50,299047,0.0-4.0-0.23,76,1,2025-04-29T00:32:29Z,b60275e29fe2361ab97ac0ac217840d7,"Mozilla/5.0 (Macintosh; Intel Mac OS X 10_15_7) AppleWebKit/605.1.15 (KHTML, like Gecko) Version/18.3.1 Safari/605.1.15",Macintosh,Safari,18.3.1,OS X,10_15_7,https://5puzkbbxv1.cognition.run/?sona_id=57654,"en-US,en;q=0.9",q2qw0ktkt2jmf80,19,"[""White""]",No,Male,na,No,590398,NA,null,<p></p>,null,choice,cdt,trinary,repulsion_A,2,laptops,null,null,null,null,null,null,1,NA,NA,NA,NA,NA,NA,NA,NA,NA,NA
NA,NA,NA,NA,NA,choice_trial,survey-html-form,51,311459,0.0-4.0-1.23,76,1,2025-04-29T00:32:29Z,b60275e29fe2361ab97ac0ac217840d7,"Mozilla/5.0 (Macintosh; Intel Mac OS X 10_15_7) AppleWebKit/605.1.15 (KHTML, like Gecko) Version/18.3.1 Safari/605.1.15",Macintosh,Safari,18.3.1,OS X,10_15_7,https://5puzkbbxv1.cognition.run/?sona_id=57654,"en-US,en;q=0.9",q2qw0ktkt2jmf80,19,"[""White""]",No,Male,na,No,590398,NA,12408,NA,"{""product_choice"":""C""}",choice,cdt,trinary,repulsion_A,2,laptops,null,null,null,null,null,null,1,30,40,20,100,90,100,Processing speed,Memory (RAM),NA,NA
NA,NA,NA,NA,NA,choice_trial_setup,html-keyboard-response,52,311762,0.0-4.0-0.24,76,1,2025-04-29T00:32:29Z,b60275e29fe2361ab97ac0ac217840d7,"Mozilla/5.0 (Macintosh; Intel Mac OS X 10_15_7) AppleWebKit/605.1.15 (KHTML, like Gecko) Version/18.3.1 Safari/605.1.15",Macintosh,Safari,18.3.1,OS X,10_15_7,https://5puzkbbxv1.cognition.run/?sona_id=57654,"en-US,en;q=0.9",q2qw0ktkt2jmf80,19,"[""White""]",No,Male,na,No,590398,NA,null,<p></p>,null,choice,ctd,trinary,attraction,1,washing machines,null,null,null,null,null,null,1,NA,NA,NA,NA,NA,NA,NA,NA,NA,NA
NA,NA,NA,NA,NA,choice_trial,survey-html-form,53,315860,0.0-4.0-1.24,76,1,2025-04-29T00:32:29Z,b60275e29fe2361ab97ac0ac217840d7,"Mozilla/5.0 (Macintosh; Intel Mac OS X 10_15_7) AppleWebKit/605.1.15 (KHTML, like Gecko) Version/18.3.1 Safari/605.1.15",Macintosh,Safari,18.3.1,OS X,10_15_7,https://5puzkbbxv1.cognition.run/?sona_id=57654,"en-US,en;q=0.9",q2qw0ktkt2jmf80,19,"[""White""]",No,Male,na,No,590398,NA,4094,NA,"{""product_choice"":""B""}",choice,ctd,trinary,attraction,1,washing machines,null,null,null,null,null,null,1,60,50,60,50,60,40,Average lifespan,Energy savings,NA,NA
NA,NA,NA,NA,NA,choice_trial_setup,html-keyboard-response,54,316163,0.0-4.0-0.25,76,1,2025-04-29T00:32:29Z,b60275e29fe2361ab97ac0ac217840d7,"Mozilla/5.0 (Macintosh; Intel Mac OS X 10_15_7) AppleWebKit/605.1.15 (KHTML, like Gecko) Version/18.3.1 Safari/605.1.15",Macintosh,Safari,18.3.1,OS X,10_15_7,https://5puzkbbxv1.cognition.run/?sona_id=57654,"en-US,en;q=0.9",q2qw0ktkt2jmf80,19,"[""White""]",No,Male,na,No,590398,NA,null,<p></p>,null,choice,dtc,trinary,attraction,1,televisions,null,null,null,null,null,null,2,NA,NA,NA,NA,NA,NA,NA,NA,NA,NA
NA,NA,NA,NA,NA,choice_trial,survey-html-form,55,324934,0.0-4.0-1.25,76,1,2025-04-29T00:32:29Z,b60275e29fe2361ab97ac0ac217840d7,"Mozilla/5.0 (Macintosh; Intel Mac OS X 10_15_7) AppleWebKit/605.1.15 (KHTML, like Gecko) Version/18.3.1 Safari/605.1.15",Macintosh,Safari,18.3.1,OS X,10_15_7,https://5puzkbbxv1.cognition.run/?sona_id=57654,"en-US,en;q=0.9",q2qw0ktkt2jmf80,19,"[""White""]",No,Male,na,No,590398,NA,8767,NA,"{""product_choice"":""C""}",choice,dtc,trinary,attraction,1,televisions,null,null,null,null,null,null,2,60,50,60,50,60,40,Screen size,Average lifespan,NA,NA
NA,NA,NA,NA,NA,choice_trial_setup,html-keyboard-response,56,325238,0.0-4.0-0.26,76,1,2025-04-29T00:32:29Z,b60275e29fe2361ab97ac0ac217840d7,"Mozilla/5.0 (Macintosh; Intel Mac OS X 10_15_7) AppleWebKit/605.1.15 (KHTML, like Gecko) Version/18.3.1 Safari/605.1.15",Macintosh,Safari,18.3.1,OS X,10_15_7,https://5puzkbbxv1.cognition.run/?sona_id=57654,"en-US,en;q=0.9",q2qw0ktkt2jmf80,19,"[""White""]",No,Male,na,No,590398,NA,null,<p></p>,null,choice,wb,binary,catch,null,washing machines,95,90,10,50,null,null,2,NA,NA,NA,NA,NA,NA,NA,NA,NA,NA
NA,NA,NA,NA,NA,choice_trial,survey-html-form,57,328845,0.0-4.0-1.26,76,1,2025-04-29T00:32:29Z,b60275e29fe2361ab97ac0ac217840d7,"Mozilla/5.0 (Macintosh; Intel Mac OS X 10_15_7) AppleWebKit/605.1.15 (KHTML, like Gecko) Version/18.3.1 Safari/605.1.15",Macintosh,Safari,18.3.1,OS X,10_15_7,https://5puzkbbxv1.cognition.run/?sona_id=57654,"en-US,en;q=0.9",q2qw0ktkt2jmf80,19,"[""White""]",No,Male,na,No,590398,NA,3602,NA,"{""product_choice"":""B""}",choice,wb,binary,catch,null,washing machines,95,90,10,50,null,null,2,null,null,null,null,null,null,Average lifespan,Energy savings,NA,NA
NA,NA,NA,NA,NA,choice_trial_setup,html-keyboard-response,58,329148,0.0-4.0-0.27,76,1,2025-04-29T00:32:29Z,b60275e29fe2361ab97ac0ac217840d7,"Mozilla/5.0 (Macintosh; Intel Mac OS X 10_15_7) AppleWebKit/605.1.15 (KHTML, like Gecko) Version/18.3.1 Safari/605.1.15",Macintosh,Safari,18.3.1,OS X,10_15_7,https://5puzkbbxv1.cognition.run/?sona_id=57654,"en-US,en;q=0.9",q2qw0ktkt2jmf80,19,"[""White""]",No,Male,na,No,590398,NA,null,<p></p>,null,choice,ct,binary,repulsion,2,washing machines,null,null,null,null,null,null,2,NA,NA,NA,NA,NA,NA,NA,NA,NA,NA
NA,NA,NA,NA,NA,choice_trial,survey-html-form,59,339058,0.0-4.0-1.27,76,1,2025-04-29T00:32:29Z,b60275e29fe2361ab97ac0ac217840d7,"Mozilla/5.0 (Macintosh; Intel Mac OS X 10_15_7) AppleWebKit/605.1.15 (KHTML, like Gecko) Version/18.3.1 Safari/605.1.15",Macintosh,Safari,18.3.1,OS X,10_15_7,https://5puzkbbxv1.cognition.run/?sona_id=57654,"en-US,en;q=0.9",q2qw0ktkt2jmf80,19,"[""White""]",No,Male,na,No,590398,NA,9905,NA,"{""product_choice"":""A""}",choice,ct,binary,repulsion,2,washing machines,null,null,null,null,null,null,2,30,40,null,100,90,null,Average lifespan,Energy savings,NA,NA
NA,NA,NA,NA,NA,choice_trial_setup,html-keyboard-response,60,339360,0.0-4.0-0.28,76,1,2025-04-29T00:32:29Z,b60275e29fe2361ab97ac0ac217840d7,"Mozilla/5.0 (Macintosh; Intel Mac OS X 10_15_7) AppleWebKit/605.1.15 (KHTML, like Gecko) Version/18.3.1 Safari/605.1.15",Macintosh,Safari,18.3.1,OS X,10_15_7,https://5puzkbbxv1.cognition.run/?sona_id=57654,"en-US,en;q=0.9",q2qw0ktkt2jmf80,19,"[""White""]",No,Male,na,No,590398,NA,null,<p></p>,null,choice,dtc,trinary,repulsion_A,1,washing machines,null,null,null,null,null,null,2,NA,NA,NA,NA,NA,NA,NA,NA,NA,NA
NA,NA,NA,NA,NA,choice_trial,survey-html-form,61,344245,0.0-4.0-1.28,76,1,2025-04-29T00:32:29Z,b60275e29fe2361ab97ac0ac217840d7,"Mozilla/5.0 (Macintosh; Intel Mac OS X 10_15_7) AppleWebKit/605.1.15 (KHTML, like Gecko) Version/18.3.1 Safari/605.1.15",Macintosh,Safari,18.3.1,OS X,10_15_7,https://5puzkbbxv1.cognition.run/?sona_id=57654,"en-US,en;q=0.9",q2qw0ktkt2jmf80,19,"[""White""]",No,Male,na,No,590398,NA,4880,NA,"{""product_choice"":""C""}",choice,dtc,trinary,repulsion_A,1,washing machines,null,null,null,null,null,null,2,100,90,100,30,40,20,Average lifespan,Energy savings,NA,NA
NA,NA,NA,NA,NA,choice_trial_setup,html-keyboard-response,62,344549,0.0-4.0-0.29,76,1,2025-04-29T00:32:29Z,b60275e29fe2361ab97ac0ac217840d7,"Mozilla/5.0 (Macintosh; Intel Mac OS X 10_15_7) AppleWebKit/605.1.15 (KHTML, like Gecko) Version/18.3.1 Safari/605.1.15",Macintosh,Safari,18.3.1,OS X,10_15_7,https://5puzkbbxv1.cognition.run/?sona_id=57654,"en-US,en;q=0.9",q2qw0ktkt2jmf80,19,"[""White""]",No,Male,na,No,590398,NA,null,<p></p>,null,choice,cdt,trinary,repulsion_A,1,televisions,null,null,null,null,null,null,2,NA,NA,NA,NA,NA,NA,NA,NA,NA,NA
NA,NA,NA,NA,NA,choice_trial,survey-html-form,63,351833,0.0-4.0-1.29,76,1,2025-04-29T00:32:29Z,b60275e29fe2361ab97ac0ac217840d7,"Mozilla/5.0 (Macintosh; Intel Mac OS X 10_15_7) AppleWebKit/605.1.15 (KHTML, like Gecko) Version/18.3.1 Safari/605.1.15",Macintosh,Safari,18.3.1,OS X,10_15_7,https://5puzkbbxv1.cognition.run/?sona_id=57654,"en-US,en;q=0.9",q2qw0ktkt2jmf80,19,"[""White""]",No,Male,na,No,590398,NA,7280,NA,"{""product_choice"":""A""}",choice,cdt,trinary,repulsion_A,1,televisions,null,null,null,null,null,null,2,100,90,100,30,40,20,Screen size,Average lifespan,NA,NA
NA,NA,NA,NA,NA,choice_trial_setup,html-keyboard-response,64,352137,0.0-4.0-0.30,76,1,2025-04-29T00:32:29Z,b60275e29fe2361ab97ac0ac217840d7,"Mozilla/5.0 (Macintosh; Intel Mac OS X 10_15_7) AppleWebKit/605.1.15 (KHTML, like Gecko) Version/18.3.1 Safari/605.1.15",Macintosh,Safari,18.3.1,OS X,10_15_7,https://5puzkbbxv1.cognition.run/?sona_id=57654,"en-US,en;q=0.9",q2qw0ktkt2jmf80,19,"[""White""]",No,Male,na,No,590398,NA,null,<p></p>,null,choice,wwb,trinary,catch,null,laptops,65,60,20,5,25,25,2,NA,NA,NA,NA,NA,NA,NA,NA,NA,NA
NA,NA,NA,NA,NA,choice_trial,survey-html-form,65,358082,0.0-4.0-1.30,76,1,2025-04-29T00:32:29Z,b60275e29fe2361ab97ac0ac217840d7,"Mozilla/5.0 (Macintosh; Intel Mac OS X 10_15_7) AppleWebKit/605.1.15 (KHTML, like Gecko) Version/18.3.1 Safari/605.1.15",Macintosh,Safari,18.3.1,OS X,10_15_7,https://5puzkbbxv1.cognition.run/?sona_id=57654,"en-US,en;q=0.9",q2qw0ktkt2jmf80,19,"[""White""]",No,Male,na,No,590398,NA,5939,NA,"{""product_choice"":""C""}",choice,wwb,trinary,catch,null,laptops,65,60,20,5,25,25,2,null,null,null,null,null,null,Processing speed,Memory (RAM),NA,NA
NA,NA,NA,NA,NA,choice_trial_setup,html-keyboard-response,66,358386,0.0-4.0-0.31,76,1,2025-04-29T00:32:29Z,b60275e29fe2361ab97ac0ac217840d7,"Mozilla/5.0 (Macintosh; Intel Mac OS X 10_15_7) AppleWebKit/605.1.15 (KHTML, like Gecko) Version/18.3.1 Safari/605.1.15",Macintosh,Safari,18.3.1,OS X,10_15_7,https://5puzkbbxv1.cognition.run/?sona_id=57654,"en-US,en;q=0.9",q2qw0ktkt2jmf80,19,"[""White""]",No,Male,na,No,590398,NA,null,<p></p>,null,choice,tcd,trinary,attraction,2,microwave ovens,null,null,null,null,null,null,2,NA,NA,NA,NA,NA,NA,NA,NA,NA,NA
NA,NA,NA,NA,NA,choice_trial,survey-html-form,67,368513,0.0-4.0-1.31,76,1,2025-04-29T00:32:29Z,b60275e29fe2361ab97ac0ac217840d7,"Mozilla/5.0 (Macintosh; Intel Mac OS X 10_15_7) AppleWebKit/605.1.15 (KHTML, like Gecko) Version/18.3.1 Safari/605.1.15",Macintosh,Safari,18.3.1,OS X,10_15_7,https://5puzkbbxv1.cognition.run/?sona_id=57654,"en-US,en;q=0.9",q2qw0ktkt2jmf80,19,"[""White""]",No,Male,na,No,590398,NA,10123,NA,"{""product_choice"":""A""}",choice,tcd,trinary,attraction,2,microwave ovens,null,null,null,null,null,null,2,50,60,40,60,50,60,Warranty,Cooking power,NA,NA
NA,NA,NA,NA,NA,choice_trial_setup,html-keyboard-response,68,368823,0.0-4.0-0.32,76,1,2025-04-29T00:32:29Z,b60275e29fe2361ab97ac0ac217840d7,"Mozilla/5.0 (Macintosh; Intel Mac OS X 10_15_7) AppleWebKit/605.1.15 (KHTML, like Gecko) Version/18.3.1 Safari/605.1.15",Macintosh,Safari,18.3.1,OS X,10_15_7,https://5puzkbbxv1.cognition.run/?sona_id=57654,"en-US,en;q=0.9",q2qw0ktkt2jmf80,19,"[""White""]",No,Male,na,No,590398,NA,null,<p></p>,null,choice,bw,binary,catch,null,microwave ovens,95,60,25,25,null,null,1,NA,NA,NA,NA,NA,NA,NA,NA,NA,NA
NA,NA,NA,NA,NA,choice_trial,survey-html-form,69,372697,0.0-4.0-1.32,76,1,2025-04-29T00:32:29Z,b60275e29fe2361ab97ac0ac217840d7,"Mozilla/5.0 (Macintosh; Intel Mac OS X 10_15_7) AppleWebKit/605.1.15 (KHTML, like Gecko) Version/18.3.1 Safari/605.1.15",Macintosh,Safari,18.3.1,OS X,10_15_7,https://5puzkbbxv1.cognition.run/?sona_id=57654,"en-US,en;q=0.9",q2qw0ktkt2jmf80,19,"[""White""]",No,Male,na,No,590398,NA,3869,NA,"{""product_choice"":""A""}",choice,bw,binary,catch,null,microwave ovens,95,60,25,25,null,null,1,null,null,null,null,null,null,Warranty,Cooking power,NA,NA
NA,NA,NA,NA,NA,choice_trial_setup,html-keyboard-response,70,373001,0.0-4.0-0.33,76,1,2025-04-29T00:32:29Z,b60275e29fe2361ab97ac0ac217840d7,"Mozilla/5.0 (Macintosh; Intel Mac OS X 10_15_7) AppleWebKit/605.1.15 (KHTML, like Gecko) Version/18.3.1 Safari/605.1.15",Macintosh,Safari,18.3.1,OS X,10_15_7,https://5puzkbbxv1.cognition.run/?sona_id=57654,"en-US,en;q=0.9",q2qw0ktkt2jmf80,19,"[""White""]",No,Male,na,No,590398,NA,null,<p></p>,null,choice,cdt,trinary,repulsion_B,1,washing machines,null,null,null,null,null,null,2,NA,NA,NA,NA,NA,NA,NA,NA,NA,NA
NA,NA,NA,NA,NA,choice_trial,survey-html-form,71,379601,0.0-4.0-1.33,76,1,2025-04-29T00:32:29Z,b60275e29fe2361ab97ac0ac217840d7,"Mozilla/5.0 (Macintosh; Intel Mac OS X 10_15_7) AppleWebKit/605.1.15 (KHTML, like Gecko) Version/18.3.1 Safari/605.1.15",Macintosh,Safari,18.3.1,OS X,10_15_7,https://5puzkbbxv1.cognition.run/?sona_id=57654,"en-US,en;q=0.9",q2qw0ktkt2jmf80,19,"[""White""]",No,Male,na,No,590398,NA,6595,NA,"{""product_choice"":""A""}",choice,cdt,trinary,repulsion_B,1,washing machines,null,null,null,null,null,null,2,90,100,80,40,30,40,Average lifespan,Energy savings,NA,NA
NA,NA,NA,NA,NA,choice_trial_setup,html-keyboard-response,72,379904,0.0-4.0-0.34,76,1,2025-04-29T00:32:29Z,b60275e29fe2361ab97ac0ac217840d7,"Mozilla/5.0 (Macintosh; Intel Mac OS X 10_15_7) AppleWebKit/605.1.15 (KHTML, like Gecko) Version/18.3.1 Safari/605.1.15",Macintosh,Safari,18.3.1,OS X,10_15_7,https://5puzkbbxv1.cognition.run/?sona_id=57654,"en-US,en;q=0.9",q2qw0ktkt2jmf80,19,"[""White""]",No,Male,na,No,590398,NA,null,<p></p>,null,choice,wb,binary,catch,null,televisions,70,60,40,25,null,null,2,NA,NA,NA,NA,NA,NA,NA,NA,NA,NA
NA,NA,NA,NA,NA,choice_trial,survey-html-form,73,383202,0.0-4.0-1.34,76,1,2025-04-29T00:32:29Z,b60275e29fe2361ab97ac0ac217840d7,"Mozilla/5.0 (Macintosh; Intel Mac OS X 10_15_7) AppleWebKit/605.1.15 (KHTML, like Gecko) Version/18.3.1 Safari/605.1.15",Macintosh,Safari,18.3.1,OS X,10_15_7,https://5puzkbbxv1.cognition.run/?sona_id=57654,"en-US,en;q=0.9",q2qw0ktkt2jmf80,19,"[""White""]",No,Male,na,No,590398,NA,3293,NA,"{""product_choice"":""B""}",choice,wb,binary,catch,null,televisions,70,60,40,25,null,null,2,null,null,null,null,null,null,Screen size,Average lifespan,NA,NA
NA,NA,NA,NA,NA,choice_trial_setup,html-keyboard-response,74,383505,0.0-4.0-0.35,76,1,2025-04-29T00:32:29Z,b60275e29fe2361ab97ac0ac217840d7,"Mozilla/5.0 (Macintosh; Intel Mac OS X 10_15_7) AppleWebKit/605.1.15 (KHTML, like Gecko) Version/18.3.1 Safari/605.1.15",Macintosh,Safari,18.3.1,OS X,10_15_7,https://5puzkbbxv1.cognition.run/?sona_id=57654,"en-US,en;q=0.9",q2qw0ktkt2jmf80,19,"[""White""]",No,Male,na,No,590398,NA,null,<p></p>,null,choice,cdt,trinary,repulsion_A,2,microwave ovens,null,null,null,null,null,null,2,NA,NA,NA,NA,NA,NA,NA,NA,NA,NA
NA,NA,NA,NA,NA,choice_trial,survey-html-form,75,389974,0.0-4.0-1.35,76,1,2025-04-29T00:32:29Z,b60275e29fe2361ab97ac0ac217840d7,"Mozilla/5.0 (Macintosh; Intel Mac OS X 10_15_7) AppleWebKit/605.1.15 (KHTML, like Gecko) Version/18.3.1 Safari/605.1.15",Macintosh,Safari,18.3.1,OS X,10_15_7,https://5puzkbbxv1.cognition.run/?sona_id=57654,"en-US,en;q=0.9",q2qw0ktkt2jmf80,19,"[""White""]",No,Male,na,No,590398,NA,6464,NA,"{""product_choice"":""C""}",choice,cdt,trinary,repulsion_A,2,microwave ovens,null,null,null,null,null,null,2,30,40,20,100,90,100,Warranty,Cooking power,NA,NA
NA,NA,NA,NA,NA,choice_trial_setup,html-keyboard-response,76,390279,0.0-4.0-0.36,76,1,2025-04-29T00:32:29Z,b60275e29fe2361ab97ac0ac217840d7,"Mozilla/5.0 (Macintosh; Intel Mac OS X 10_15_7) AppleWebKit/605.1.15 (KHTML, like Gecko) Version/18.3.1 Safari/605.1.15",Macintosh,Safari,18.3.1,OS X,10_15_7,https://5puzkbbxv1.cognition.run/?sona_id=57654,"en-US,en;q=0.9",q2qw0ktkt2jmf80,19,"[""White""]",No,Male,na,No,590398,NA,null,<p></p>,null,choice,tcd,trinary,attraction,2,laptops,null,null,null,null,null,null,2,NA,NA,NA,NA,NA,NA,NA,NA,NA,NA
NA,NA,NA,NA,NA,choice_trial,survey-html-form,77,4511758,0.0-4.0-1.36,76,1,2025-04-29T00:32:29Z,b60275e29fe2361ab97ac0ac217840d7,"Mozilla/5.0 (Macintosh; Intel Mac OS X 10_15_7) AppleWebKit/605.1.15 (KHTML, like Gecko) Version/18.3.1 Safari/605.1.15",Macintosh,Safari,18.3.1,OS X,10_15_7,https://5puzkbbxv1.cognition.run/?sona_id=57654,"en-US,en;q=0.9",q2qw0ktkt2jmf80,19,"[""White""]",No,Male,na,No,590398,NA,24097,NA,"{""product_choice"":""A""}",choice,tcd,trinary,attraction,2,laptops,null,null,null,null,null,null,2,50,60,40,60,50,60,Processing speed,Memory (RAM),NA,NA
NA,NA,NA,NA,NA,choice_trial_setup,html-keyboard-response,78,4512062,0.0-4.0-0.37,76,1,2025-04-29T00:32:29Z,b60275e29fe2361ab97ac0ac217840d7,"Mozilla/5.0 (Macintosh; Intel Mac OS X 10_15_7) AppleWebKit/605.1.15 (KHTML, like Gecko) Version/18.3.1 Safari/605.1.15",Macintosh,Safari,18.3.1,OS X,10_15_7,https://5puzkbbxv1.cognition.run/?sona_id=57654,"en-US,en;q=0.9",q2qw0ktkt2jmf80,19,"[""White""]",No,Male,na,No,590398,NA,null,<p></p>,null,choice,ctd,trinary,attraction,1,laptops,null,null,null,null,null,null,1,NA,NA,NA,NA,NA,NA,NA,NA,NA,NA
NA,NA,NA,NA,NA,choice_trial,survey-html-form,79,4517287,0.0-4.0-1.37,76,1,2025-04-29T00:32:29Z,b60275e29fe2361ab97ac0ac217840d7,"Mozilla/5.0 (Macintosh; Intel Mac OS X 10_15_7) AppleWebKit/605.1.15 (KHTML, like Gecko) Version/18.3.1 Safari/605.1.15",Macintosh,Safari,18.3.1,OS X,10_15_7,https://5puzkbbxv1.cognition.run/?sona_id=57654,"en-US,en;q=0.9",q2qw0ktkt2jmf80,19,"[""White""]",No,Male,na,No,590398,NA,5222,NA,"{""product_choice"":""B""}",choice,ctd,trinary,attraction,1,laptops,null,null,null,null,null,null,1,60,50,60,50,60,40,Processing speed,Memory (RAM),NA,NA
NA,NA,NA,NA,NA,choice_trial_setup,html-keyboard-response,80,4517591,0.0-4.0-0.38,76,1,2025-04-29T00:32:29Z,b60275e29fe2361ab97ac0ac217840d7,"Mozilla/5.0 (Macintosh; Intel Mac OS X 10_15_7) AppleWebKit/605.1.15 (KHTML, like Gecko) Version/18.3.1 Safari/605.1.15",Macintosh,Safari,18.3.1,OS X,10_15_7,https://5puzkbbxv1.cognition.run/?sona_id=57654,"en-US,en;q=0.9",q2qw0ktkt2jmf80,19,"[""White""]",No,Male,na,No,590398,NA,null,<p></p>,null,choice,wb,binary,catch,null,laptops,70,55,45,25,null,null,2,NA,NA,NA,NA,NA,NA,NA,NA,NA,NA
NA,NA,NA,NA,NA,choice_trial,survey-html-form,81,4524378,0.0-4.0-1.38,76,1,2025-04-29T00:32:29Z,b60275e29fe2361ab97ac0ac217840d7,"Mozilla/5.0 (Macintosh; Intel Mac OS X 10_15_7) AppleWebKit/605.1.15 (KHTML, like Gecko) Version/18.3.1 Safari/605.1.15",Macintosh,Safari,18.3.1,OS X,10_15_7,https://5puzkbbxv1.cognition.run/?sona_id=57654,"en-US,en;q=0.9",q2qw0ktkt2jmf80,19,"[""White""]",No,Male,na,No,590398,NA,6785,NA,"{""product_choice"":""B""}",choice,wb,binary,catch,null,laptops,70,55,45,25,null,null,2,null,null,null,null,null,null,Processing speed,Memory (RAM),NA,NA
NA,NA,NA,NA,NA,choice_trial_setup,html-keyboard-response,82,4524682,0.0-4.0-0.39,76,1,2025-04-29T00:32:29Z,b60275e29fe2361ab97ac0ac217840d7,"Mozilla/5.0 (Macintosh; Intel Mac OS X 10_15_7) AppleWebKit/605.1.15 (KHTML, like Gecko) Version/18.3.1 Safari/605.1.15",Macintosh,Safari,18.3.1,OS X,10_15_7,https://5puzkbbxv1.cognition.run/?sona_id=57654,"en-US,en;q=0.9",q2qw0ktkt2jmf80,19,"[""White""]",No,Male,na,No,590398,NA,null,<p></p>,null,choice,ct,binary,repulsion,2,laptops,null,null,null,null,null,null,1,NA,NA,NA,NA,NA,NA,NA,NA,NA,NA
NA,NA,NA,NA,NA,choice_trial,survey-html-form,83,4530854,0.0-4.0-1.39,76,1,2025-04-29T00:32:29Z,b60275e29fe2361ab97ac0ac217840d7,"Mozilla/5.0 (Macintosh; Intel Mac OS X 10_15_7) AppleWebKit/605.1.15 (KHTML, like Gecko) Version/18.3.1 Safari/605.1.15",Macintosh,Safari,18.3.1,OS X,10_15_7,https://5puzkbbxv1.cognition.run/?sona_id=57654,"en-US,en;q=0.9",q2qw0ktkt2jmf80,19,"[""White""]",No,Male,na,No,590398,NA,6167,NA,"{""product_choice"":""B""}",choice,ct,binary,repulsion,2,laptops,null,null,null,null,null,null,1,30,40,null,100,90,null,Processing speed,Memory (RAM),NA,NA
NA,NA,NA,NA,NA,choice_trial_setup,html-keyboard-response,84,4531158,0.0-4.0-0.40,76,1,2025-04-29T00:32:29Z,b60275e29fe2361ab97ac0ac217840d7,"Mozilla/5.0 (Macintosh; Intel Mac OS X 10_15_7) AppleWebKit/605.1.15 (KHTML, like Gecko) Version/18.3.1 Safari/605.1.15",Macintosh,Safari,18.3.1,OS X,10_15_7,https://5puzkbbxv1.cognition.run/?sona_id=57654,"en-US,en;q=0.9",q2qw0ktkt2jmf80,19,"[""White""]",No,Male,na,No,590398,NA,null,<p></p>,null,choice,ct,binary,attraction,NA,washing machines,null,null,null,null,null,null,1,NA,NA,NA,NA,NA,NA,NA,NA,NA,NA
NA,NA,NA,NA,NA,choice_trial,survey-html-form,85,4535407,0.0-4.0-1.40,76,1,2025-04-29T00:32:29Z,b60275e29fe2361ab97ac0ac217840d7,"Mozilla/5.0 (Macintosh; Intel Mac OS X 10_15_7) AppleWebKit/605.1.15 (KHTML, like Gecko) Version/18.3.1 Safari/605.1.15",Macintosh,Safari,18.3.1,OS X,10_15_7,https://5puzkbbxv1.cognition.run/?sona_id=57654,"en-US,en;q=0.9",q2qw0ktkt2jmf80,19,"[""White""]",No,Male,na,No,590398,NA,4244,NA,"{""product_choice"":""B""}",choice,ct,binary,attraction,NA,washing machines,null,null,null,null,null,null,1,60,50,null,50,60,null,Average lifespan,Energy savings,NA,NA
NA,NA,NA,NA,NA,choice_trial_setup,html-keyboard-response,86,4535710,0.0-4.0-0.41,76,1,2025-04-29T00:32:29Z,b60275e29fe2361ab97ac0ac217840d7,"Mozilla/5.0 (Macintosh; Intel Mac OS X 10_15_7) AppleWebKit/605.1.15 (KHTML, like Gecko) Version/18.3.1 Safari/605.1.15",Macintosh,Safari,18.3.1,OS X,10_15_7,https://5puzkbbxv1.cognition.run/?sona_id=57654,"en-US,en;q=0.9",q2qw0ktkt2jmf80,19,"[""White""]",No,Male,na,No,590398,NA,null,<p></p>,null,choice,wwb,trinary,catch,null,microwave ovens,85,95,50,40,15,30,2,NA,NA,NA,NA,NA,NA,NA,NA,NA,NA
NA,NA,NA,NA,NA,choice_trial,survey-html-form,87,4538598,0.0-4.0-1.41,76,1,2025-04-29T00:32:29Z,b60275e29fe2361ab97ac0ac217840d7,"Mozilla/5.0 (Macintosh; Intel Mac OS X 10_15_7) AppleWebKit/605.1.15 (KHTML, like Gecko) Version/18.3.1 Safari/605.1.15",Macintosh,Safari,18.3.1,OS X,10_15_7,https://5puzkbbxv1.cognition.run/?sona_id=57654,"en-US,en;q=0.9",q2qw0ktkt2jmf80,19,"[""White""]",No,Male,na,No,590398,NA,2882,NA,"{""product_choice"":""C""}",choice,wwb,trinary,catch,null,microwave ovens,85,95,50,40,15,30,2,null,null,null,null,null,null,Warranty,Cooking power,NA,NA
NA,NA,NA,NA,NA,choice_trial_setup,html-keyboard-response,88,4538901,0.0-4.0-0.42,76,1,2025-04-29T00:32:29Z,b60275e29fe2361ab97ac0ac217840d7,"Mozilla/5.0 (Macintosh; Intel Mac OS X 10_15_7) AppleWebKit/605.1.15 (KHTML, like Gecko) Version/18.3.1 Safari/605.1.15",Macintosh,Safari,18.3.1,OS X,10_15_7,https://5puzkbbxv1.cognition.run/?sona_id=57654,"en-US,en;q=0.9",q2qw0ktkt2jmf80,19,"[""White""]",No,Male,na,No,590398,NA,null,<p></p>,null,choice,tc,binary,attraction,NA,laptops,null,null,null,null,null,null,1,NA,NA,NA,NA,NA,NA,NA,NA,NA,NA
NA,NA,NA,NA,NA,choice_trial,survey-html-form,89,4545568,0.0-4.0-1.42,76,1,2025-04-29T00:32:29Z,b60275e29fe2361ab97ac0ac217840d7,"Mozilla/5.0 (Macintosh; Intel Mac OS X 10_15_7) AppleWebKit/605.1.15 (KHTML, like Gecko) Version/18.3.1 Safari/605.1.15",Macintosh,Safari,18.3.1,OS X,10_15_7,https://5puzkbbxv1.cognition.run/?sona_id=57654,"en-US,en;q=0.9",q2qw0ktkt2jmf80,19,"[""White""]",No,Male,na,No,590398,NA,6663,NA,"{""product_choice"":""A""}",choice,tc,binary,attraction,NA,laptops,null,null,null,null,null,null,1,60,50,null,50,60,null,Processing speed,Memory (RAM),NA,NA
NA,NA,NA,NA,NA,choice_trial_setup,html-keyboard-response,90,4545873,0.0-4.0-0.43,76,1,2025-04-29T00:32:29Z,b60275e29fe2361ab97ac0ac217840d7,"Mozilla/5.0 (Macintosh; Intel Mac OS X 10_15_7) AppleWebKit/605.1.15 (KHTML, like Gecko) Version/18.3.1 Safari/605.1.15",Macintosh,Safari,18.3.1,OS X,10_15_7,https://5puzkbbxv1.cognition.run/?sona_id=57654,"en-US,en;q=0.9",q2qw0ktkt2jmf80,19,"[""White""]",No,Male,na,No,590398,NA,null,<p></p>,null,choice,ctd,trinary,repulsion_B,1,televisions,null,null,null,null,null,null,2,NA,NA,NA,NA,NA,NA,NA,NA,NA,NA
NA,NA,NA,NA,NA,choice_trial,survey-html-form,91,4553295,0.0-4.0-1.43,76,1,2025-04-29T00:32:29Z,b60275e29fe2361ab97ac0ac217840d7,"Mozilla/5.0 (Macintosh; Intel Mac OS X 10_15_7) AppleWebKit/605.1.15 (KHTML, like Gecko) Version/18.3.1 Safari/605.1.15",Macintosh,Safari,18.3.1,OS X,10_15_7,https://5puzkbbxv1.cognition.run/?sona_id=57654,"en-US,en;q=0.9",q2qw0ktkt2jmf80,19,"[""White""]",No,Male,na,No,590398,NA,7417,NA,"{""product_choice"":""B""}",choice,ctd,trinary,repulsion_B,1,televisions,null,null,null,null,null,null,2,90,100,80,40,30,40,Screen size,Average lifespan,NA,NA
NA,NA,NA,NA,NA,post_trials_message,html-button-response,92,4555633,0.0-5.0,76,1,2025-04-29T00:32:29Z,b60275e29fe2361ab97ac0ac217840d7,"Mozilla/5.0 (Macintosh; Intel Mac OS X 10_15_7) AppleWebKit/605.1.15 (KHTML, like Gecko) Version/18.3.1 Safari/605.1.15",Macintosh,Safari,18.3.1,OS X,10_15_7,https://5puzkbbxv1.cognition.run/?sona_id=57654,"en-US,en;q=0.9",q2qw0ktkt2jmf80,19,"[""White""]",No,Male,na,No,590398,NA,2334,<p> <b>Thank you for your patience!</b></p><p>  The study will be done after completing a brief form. </p>,0,NA,NA,NA,NA,NA,NA,NA,NA,NA,NA,NA,NA,NA,NA,NA,NA,NA,NA,NA,NA,NA,NA,NA
NA,NA,NA,NA,NA,survey_message,survey-text,93,4641696,0.0-6.0,76,1,2025-04-29T00:32:29Z,b60275e29fe2361ab97ac0ac217840d7,"Mozilla/5.0 (Macintosh; Intel Mac OS X 10_15_7) AppleWebKit/605.1.15 (KHTML, like Gecko) Version/18.3.1 Safari/605.1.15",Macintosh,Safari,18.3.1,OS X,10_15_7,https://5puzkbbxv1.cognition.run/?sona_id=57654,"en-US,en;q=0.9",q2qw0ktkt2jmf80,19,"[""White""]",No,Male,na,No,590398,NA,86050,NA,"{""Q0"":""My biggest strategy was picking the machines with the longest life spans. Other than that I choose the option with the best of both worlds. ""}",NA,NA,NA,NA,NA,NA,NA,NA,NA,NA,NA,NA,NA,NA,NA,NA,NA,NA,NA,NA,NA,My biggest strategy was picking the machines with the longest life spans. Other than that I choose the option with the best of both worlds.,NA
NA,NA,NA,NA,NA,demo_age,survey-text,94,4644832,0.0-7.0,76,1,2025-04-29T00:32:29Z,b60275e29fe2361ab97ac0ac217840d7,"Mozilla/5.0 (Macintosh; Intel Mac OS X 10_15_7) AppleWebKit/605.1.15 (KHTML, like Gecko) Version/18.3.1 Safari/605.1.15",Macintosh,Safari,18.3.1,OS X,10_15_7,https://5puzkbbxv1.cognition.run/?sona_id=57654,"en-US,en;q=0.9",q2qw0ktkt2jmf80,19,"[""White""]",No,Male,na,No,590398,NA,3127,NA,"{""Q0"":""19""}",NA,NA,NA,NA,NA,NA,NA,NA,NA,NA,NA,NA,NA,NA,NA,NA,NA,NA,NA,NA,NA,NA,NA
NA,NA,NA,NA,NA,demo_race,survey-multi-select,95,4647019,0.0-8.0,76,1,2025-04-29T00:32:29Z,b60275e29fe2361ab97ac0ac217840d7,"Mozilla/5.0 (Macintosh; Intel Mac OS X 10_15_7) AppleWebKit/605.1.15 (KHTML, like Gecko) Version/18.3.1 Safari/605.1.15",Macintosh,Safari,18.3.1,OS X,10_15_7,https://5puzkbbxv1.cognition.run/?sona_id=57654,"en-US,en;q=0.9",q2qw0ktkt2jmf80,19,"[""White""]",No,Male,na,No,590398,NA,2180,NA,"{""Q0"":[""White""]}",NA,NA,NA,NA,NA,NA,NA,NA,NA,NA,NA,NA,NA,NA,NA,NA,NA,NA,NA,NA,NA,NA,[0]
NA,NA,NA,NA,NA,demo_ethnicity_gender,survey-multi-choice,96,4653216,0.0-9.0,76,1,2025-04-29T00:32:29Z,b60275e29fe2361ab97ac0ac217840d7,"Mozilla/5.0 (Macintosh; Intel Mac OS X 10_15_7) AppleWebKit/605.1.15 (KHTML, like Gecko) Version/18.3.1 Safari/605.1.15",Macintosh,Safari,18.3.1,OS X,10_15_7,https://5puzkbbxv1.cognition.run/?sona_id=57654,"en-US,en;q=0.9",q2qw0ktkt2jmf80,19,"[""White""]",No,Male,na,No,590398,NA,6191,NA,"{""Q0"":""No"",""Q1"":""Male""}",NA,NA,NA,NA,NA,NA,NA,NA,NA,NA,NA,NA,NA,NA,NA,NA,NA,NA,NA,NA,NA,NA,"[0,1]"
NA,NA,NA,NA,NA,demo_countries,survey-text,97,4658237,0.0-10.0,76,1,2025-04-29T00:32:29Z,b60275e29fe2361ab97ac0ac217840d7,"Mozilla/5.0 (Macintosh; Intel Mac OS X 10_15_7) AppleWebKit/605.1.15 (KHTML, like Gecko) Version/18.3.1 Safari/605.1.15",Macintosh,Safari,18.3.1,OS X,10_15_7,https://5puzkbbxv1.cognition.run/?sona_id=57654,"en-US,en;q=0.9",q2qw0ktkt2jmf80,19,"[""White""]",No,Male,na,No,590398,NA,5017,NA,"{""Q0"":""na""}",NA,NA,NA,NA,NA,NA,NA,NA,NA,NA,NA,NA,NA,NA,NA,NA,NA,NA,NA,NA,NA,NA,NA
NA,NA,NA,NA,NA,demo_prev_study,survey-multi-choice,98,4666859,0.0-11.0,76,1,2025-04-29T00:32:29Z,b60275e29fe2361ab97ac0ac217840d7,"Mozilla/5.0 (Macintosh; Intel Mac OS X 10_15_7) AppleWebKit/605.1.15 (KHTML, like Gecko) Version/18.3.1 Safari/605.1.15",Macintosh,Safari,18.3.1,OS X,10_15_7,https://5puzkbbxv1.cognition.run/?sona_id=57654,"en-US,en;q=0.9",q2qw0ktkt2jmf80,19,"[""White""]",No,Male,na,No,590398,NA,8618,NA,"{""Q0"":""No""}",NA,NA,NA,NA,NA,NA,NA,NA,NA,NA,NA,NA,NA,NA,NA,NA,NA,NA,NA,NA,NA,NA,[0]
NA,NA,NA,NA,NA,post_survey_message,html-keyboard-response,99,4674367,0.0-12.0,76,1,2025-04-29T00:32:29Z,b60275e29fe2361ab97ac0ac217840d7,"Mozilla/5.0 (Macintosh; Intel Mac OS X 10_15_7) AppleWebKit/605.1.15 (KHTML, like Gecko) Version/18.3.1 Safari/605.1.15",Macintosh,Safari,18.3.1,OS X,10_15_7,https://5puzkbbxv1.cognition.run/?sona_id=57654,"en-US,en;q=0.9",q2qw0ktkt2jmf80,19,"[""White""]",No,Male,na,No,590398,NA,7504,NA,j,NA,NA,NA,NA,NA,NA,NA,NA,NA,NA,NA,NA,NA,NA,NA,NA,NA,NA,NA,NA,NA,NA,NA
NA,NA,NA,NA,NA,debrief,image-keyboard-response,100,4687739,0.0-13.0,76,1,2025-04-29T00:32:29Z,b60275e29fe2361ab97ac0ac217840d7,"Mozilla/5.0 (Macintosh; Intel Mac OS X 10_15_7) AppleWebKit/605.1.15 (KHTML, like Gecko) Version/18.3.1 Safari/605.1.15",Macintosh,Safari,18.3.1,OS X,10_15_7,https://5puzkbbxv1.cognition.run/?sona_id=57654,"en-US,en;q=0.9",q2qw0ktkt2jmf80,19,"[""White""]",No,Male,na,No,590398,NA,13335,Judg_choice_debrief.png,p,NA,NA,NA,NA,NA,NA,NA,NA,NA,NA,NA,NA,NA,NA,NA,NA,NA,NA,NA,NA,NA,NA,NA
