success,timeout,failed_images,failed_audio,failed_video,screen_id,trial_type,trial_index,time_elapsed,internal_node_id,run_id,condition,recorded_at,source_code_version,user_agent,device,browser,browser_version,platform,platform_version,referer,accept_language,ppt_id,age,race,ethnicity,gender,other_countries,prev_study,exp_duration,view_history,rt,stimulus,response,phase,order,set,effect,t_high,category,d1_best,d2_best,d1_worst1,d2_worst1,d1_worst2,d2_worst2,first_dim,d1_t,d1_c,d1_d,d2_t,d2_c,d2_d,d1_name,d2_name,strategy_response,question_order
TRUE,FALSE,[],[],[],img preload,preload,0,435,0.0-0.0,79,1,2025-04-29T02:15:41Z,b60275e29fe2361ab97ac0ac217840d7,"Mozilla/5.0 (Windows NT 10.0; Win64; x64) AppleWebKit/537.36 (KHTML, like Gecko) Chrome/135.0.0.0 Safari/537.36",WebKit,Chrome,135.0.0.0,Windows,10,https://5puzkbbxv1.cognition.run/?sona_id=53832,"en-US,en;q=0.9",01k294vrjjm6bbm,19,"[""Asian""]",No,Female,1,Yes,105448.80000019072,NA,NA,NA,NA,NA,NA,NA,NA,NA,NA,NA,NA,NA,NA,NA,NA,NA,NA,NA,NA,NA,NA,NA,NA,NA,NA,NA
NA,NA,NA,NA,NA,computer_message,instructions,1,2313,0.0-1.0,79,1,2025-04-29T02:15:41Z,b60275e29fe2361ab97ac0ac217840d7,"Mozilla/5.0 (Windows NT 10.0; Win64; x64) AppleWebKit/537.36 (KHTML, like Gecko) Chrome/135.0.0.0 Safari/537.36",WebKit,Chrome,135.0.0.0,Windows,10,https://5puzkbbxv1.cognition.run/?sona_id=53832,"en-US,en;q=0.9",01k294vrjjm6bbm,19,"[""Asian""]",No,Female,1,Yes,105448.80000019072,"[{""page_index"":0,""viewing_time"":1874}]",1875,NA,NA,NA,NA,NA,NA,NA,NA,NA,NA,NA,NA,NA,NA,NA,NA,NA,NA,NA,NA,NA,NA,NA,NA,NA
TRUE,NA,NA,NA,NA,NA,fullscreen,2,4284,0.0-2.0,79,1,2025-04-29T02:15:41Z,b60275e29fe2361ab97ac0ac217840d7,"Mozilla/5.0 (Windows NT 10.0; Win64; x64) AppleWebKit/537.36 (KHTML, like Gecko) Chrome/135.0.0.0 Safari/537.36",WebKit,Chrome,135.0.0.0,Windows,10,https://5puzkbbxv1.cognition.run/?sona_id=53832,"en-US,en;q=0.9",01k294vrjjm6bbm,19,"[""Asian""]",No,Female,1,Yes,105448.80000019072,NA,959,NA,NA,NA,NA,NA,NA,NA,NA,NA,NA,NA,NA,NA,NA,NA,NA,NA,NA,NA,NA,NA,NA,NA,NA,NA
NA,NA,NA,NA,NA,choice_instructions,instructions,3,11605,0.0-3.0,79,1,2025-04-29T02:15:41Z,b60275e29fe2361ab97ac0ac217840d7,"Mozilla/5.0 (Windows NT 10.0; Win64; x64) AppleWebKit/537.36 (KHTML, like Gecko) Chrome/135.0.0.0 Safari/537.36",WebKit,Chrome,135.0.0.0,Windows,10,https://5puzkbbxv1.cognition.run/?sona_id=53832,"en-US,en;q=0.9",01k294vrjjm6bbm,19,"[""Asian""]",No,Female,1,Yes,105448.80000019072,"[{""page_index"":0,""viewing_time"":938},{""page_index"":1,""viewing_time"":1139},{""page_index"":2,""viewing_time"":973},{""page_index"":3,""viewing_time"":892},{""page_index"":4,""viewing_time"":858},{""page_index"":5,""viewing_time"":1659},{""page_index"":6,""viewing_time"":861}]",7320,NA,NA,NA,NA,NA,NA,NA,NA,NA,NA,NA,NA,NA,NA,NA,NA,NA,NA,NA,NA,NA,NA,NA,NA,NA
NA,NA,NA,NA,NA,choice_trial_setup,html-keyboard-response,4,11943,0.0-4.0-0.0,79,1,2025-04-29T02:15:41Z,b60275e29fe2361ab97ac0ac217840d7,"Mozilla/5.0 (Windows NT 10.0; Win64; x64) AppleWebKit/537.36 (KHTML, like Gecko) Chrome/135.0.0.0 Safari/537.36",WebKit,Chrome,135.0.0.0,Windows,10,https://5puzkbbxv1.cognition.run/?sona_id=53832,"en-US,en;q=0.9",01k294vrjjm6bbm,19,"[""Asian""]",No,Female,1,Yes,105448.80000019072,NA,null,<p></p>,null,choice,ctd,trinary,repulsion_B,2,microwave ovens,null,null,null,null,null,null,2,NA,NA,NA,NA,NA,NA,NA,NA,NA,NA
NA,NA,NA,NA,NA,choice_trial,survey-html-form,5,21815,0.0-4.0-1.0,79,1,2025-04-29T02:15:41Z,b60275e29fe2361ab97ac0ac217840d7,"Mozilla/5.0 (Windows NT 10.0; Win64; x64) AppleWebKit/537.36 (KHTML, like Gecko) Chrome/135.0.0.0 Safari/537.36",WebKit,Chrome,135.0.0.0,Windows,10,https://5puzkbbxv1.cognition.run/?sona_id=53832,"en-US,en;q=0.9",01k294vrjjm6bbm,19,"[""Asian""]",No,Female,1,Yes,105448.80000019072,NA,9862,NA,"{""product_choice"":""A""}",choice,ctd,trinary,repulsion_B,2,microwave ovens,null,null,null,null,null,null,2,40,30,40,90,100,80,Warranty,Cooking power,NA,NA
NA,NA,NA,NA,NA,choice_trial_setup,html-keyboard-response,6,22121,0.0-4.0-0.1,79,1,2025-04-29T02:15:41Z,b60275e29fe2361ab97ac0ac217840d7,"Mozilla/5.0 (Windows NT 10.0; Win64; x64) AppleWebKit/537.36 (KHTML, like Gecko) Chrome/135.0.0.0 Safari/537.36",WebKit,Chrome,135.0.0.0,Windows,10,https://5puzkbbxv1.cognition.run/?sona_id=53832,"en-US,en;q=0.9",01k294vrjjm6bbm,19,"[""Asian""]",No,Female,1,Yes,105448.80000019072,NA,null,<p></p>,null,choice,cdt,trinary,attraction,1,laptops,null,null,null,null,null,null,1,NA,NA,NA,NA,NA,NA,NA,NA,NA,NA
NA,NA,NA,NA,NA,choice_trial,survey-html-form,7,24618,0.0-4.0-1.1,79,1,2025-04-29T02:15:41Z,b60275e29fe2361ab97ac0ac217840d7,"Mozilla/5.0 (Windows NT 10.0; Win64; x64) AppleWebKit/537.36 (KHTML, like Gecko) Chrome/135.0.0.0 Safari/537.36",WebKit,Chrome,135.0.0.0,Windows,10,https://5puzkbbxv1.cognition.run/?sona_id=53832,"en-US,en;q=0.9",01k294vrjjm6bbm,19,"[""Asian""]",No,Female,1,Yes,105448.80000019072,NA,2492,NA,"{""product_choice"":""C""}",choice,cdt,trinary,attraction,1,laptops,null,null,null,null,null,null,1,60,50,60,50,60,40,Processing speed,Memory (RAM),NA,NA
NA,NA,NA,NA,NA,choice_trial_setup,html-keyboard-response,8,24922,0.0-4.0-0.2,79,1,2025-04-29T02:15:41Z,b60275e29fe2361ab97ac0ac217840d7,"Mozilla/5.0 (Windows NT 10.0; Win64; x64) AppleWebKit/537.36 (KHTML, like Gecko) Chrome/135.0.0.0 Safari/537.36",WebKit,Chrome,135.0.0.0,Windows,10,https://5puzkbbxv1.cognition.run/?sona_id=53832,"en-US,en;q=0.9",01k294vrjjm6bbm,19,"[""Asian""]",No,Female,1,Yes,105448.80000019072,NA,null,<p></p>,null,choice,tc,binary,repulsion,2,microwave ovens,null,null,null,null,null,null,2,NA,NA,NA,NA,NA,NA,NA,NA,NA,NA
NA,NA,NA,NA,NA,choice_trial,survey-html-form,9,26446,0.0-4.0-1.2,79,1,2025-04-29T02:15:41Z,b60275e29fe2361ab97ac0ac217840d7,"Mozilla/5.0 (Windows NT 10.0; Win64; x64) AppleWebKit/537.36 (KHTML, like Gecko) Chrome/135.0.0.0 Safari/537.36",WebKit,Chrome,135.0.0.0,Windows,10,https://5puzkbbxv1.cognition.run/?sona_id=53832,"en-US,en;q=0.9",01k294vrjjm6bbm,19,"[""Asian""]",No,Female,1,Yes,105448.80000019072,NA,1520,NA,"{""product_choice"":""B""}",choice,tc,binary,repulsion,2,microwave ovens,null,null,null,null,null,null,2,30,40,null,100,90,null,Warranty,Cooking power,NA,NA
NA,NA,NA,NA,NA,choice_trial_setup,html-keyboard-response,10,26755,0.0-4.0-0.3,79,1,2025-04-29T02:15:41Z,b60275e29fe2361ab97ac0ac217840d7,"Mozilla/5.0 (Windows NT 10.0; Win64; x64) AppleWebKit/537.36 (KHTML, like Gecko) Chrome/135.0.0.0 Safari/537.36",WebKit,Chrome,135.0.0.0,Windows,10,https://5puzkbbxv1.cognition.run/?sona_id=53832,"en-US,en;q=0.9",01k294vrjjm6bbm,19,"[""Asian""]",No,Female,1,Yes,105448.80000019072,NA,null,<p></p>,null,choice,ct,binary,attraction,NA,washing machines,null,null,null,null,null,null,2,NA,NA,NA,NA,NA,NA,NA,NA,NA,NA
NA,NA,NA,NA,NA,choice_trial,survey-html-form,11,28607,0.0-4.0-1.3,79,1,2025-04-29T02:15:41Z,b60275e29fe2361ab97ac0ac217840d7,"Mozilla/5.0 (Windows NT 10.0; Win64; x64) AppleWebKit/537.36 (KHTML, like Gecko) Chrome/135.0.0.0 Safari/537.36",WebKit,Chrome,135.0.0.0,Windows,10,https://5puzkbbxv1.cognition.run/?sona_id=53832,"en-US,en;q=0.9",01k294vrjjm6bbm,19,"[""Asian""]",No,Female,1,Yes,105448.80000019072,NA,1848,NA,"{""product_choice"":""B""}",choice,ct,binary,attraction,NA,washing machines,null,null,null,null,null,null,2,60,50,null,50,60,null,Average lifespan,Energy savings,NA,NA
NA,NA,NA,NA,NA,choice_trial_setup,html-keyboard-response,12,28923,0.0-4.0-0.4,79,1,2025-04-29T02:15:41Z,b60275e29fe2361ab97ac0ac217840d7,"Mozilla/5.0 (Windows NT 10.0; Win64; x64) AppleWebKit/537.36 (KHTML, like Gecko) Chrome/135.0.0.0 Safari/537.36",WebKit,Chrome,135.0.0.0,Windows,10,https://5puzkbbxv1.cognition.run/?sona_id=53832,"en-US,en;q=0.9",01k294vrjjm6bbm,19,"[""Asian""]",No,Female,1,Yes,105448.80000019072,NA,null,<p></p>,null,choice,tc,binary,attraction,NA,televisions,null,null,null,null,null,null,1,NA,NA,NA,NA,NA,NA,NA,NA,NA,NA
NA,NA,NA,NA,NA,choice_trial,survey-html-form,13,30034,0.0-4.0-1.4,79,1,2025-04-29T02:15:41Z,b60275e29fe2361ab97ac0ac217840d7,"Mozilla/5.0 (Windows NT 10.0; Win64; x64) AppleWebKit/537.36 (KHTML, like Gecko) Chrome/135.0.0.0 Safari/537.36",WebKit,Chrome,135.0.0.0,Windows,10,https://5puzkbbxv1.cognition.run/?sona_id=53832,"en-US,en;q=0.9",01k294vrjjm6bbm,19,"[""Asian""]",No,Female,1,Yes,105448.80000019072,NA,1108,NA,"{""product_choice"":""A""}",choice,tc,binary,attraction,NA,televisions,null,null,null,null,null,null,1,60,50,null,50,60,null,Screen size,Average lifespan,NA,NA
NA,NA,NA,NA,NA,choice_trial_setup,html-keyboard-response,14,30349,0.0-4.0-0.5,79,1,2025-04-29T02:15:41Z,b60275e29fe2361ab97ac0ac217840d7,"Mozilla/5.0 (Windows NT 10.0; Win64; x64) AppleWebKit/537.36 (KHTML, like Gecko) Chrome/135.0.0.0 Safari/537.36",WebKit,Chrome,135.0.0.0,Windows,10,https://5puzkbbxv1.cognition.run/?sona_id=53832,"en-US,en;q=0.9",01k294vrjjm6bbm,19,"[""Asian""]",No,Female,1,Yes,105448.80000019072,NA,null,<p></p>,null,choice,ctd,trinary,repulsion_B,1,televisions,null,null,null,null,null,null,2,NA,NA,NA,NA,NA,NA,NA,NA,NA,NA
NA,NA,NA,NA,NA,choice_trial,survey-html-form,15,31136,0.0-4.0-1.5,79,1,2025-04-29T02:15:41Z,b60275e29fe2361ab97ac0ac217840d7,"Mozilla/5.0 (Windows NT 10.0; Win64; x64) AppleWebKit/537.36 (KHTML, like Gecko) Chrome/135.0.0.0 Safari/537.36",WebKit,Chrome,135.0.0.0,Windows,10,https://5puzkbbxv1.cognition.run/?sona_id=53832,"en-US,en;q=0.9",01k294vrjjm6bbm,19,"[""Asian""]",No,Female,1,Yes,105448.80000019072,NA,783,NA,"{""product_choice"":""C""}",choice,ctd,trinary,repulsion_B,1,televisions,null,null,null,null,null,null,2,90,100,80,40,30,40,Screen size,Average lifespan,NA,NA
NA,NA,NA,NA,NA,choice_trial_setup,html-keyboard-response,16,31439,0.0-4.0-0.6,79,1,2025-04-29T02:15:41Z,b60275e29fe2361ab97ac0ac217840d7,"Mozilla/5.0 (Windows NT 10.0; Win64; x64) AppleWebKit/537.36 (KHTML, like Gecko) Chrome/135.0.0.0 Safari/537.36",WebKit,Chrome,135.0.0.0,Windows,10,https://5puzkbbxv1.cognition.run/?sona_id=53832,"en-US,en;q=0.9",01k294vrjjm6bbm,19,"[""Asian""]",No,Female,1,Yes,105448.80000019072,NA,null,<p></p>,null,choice,dct,trinary,repulsion_A,1,televisions,null,null,null,null,null,null,1,NA,NA,NA,NA,NA,NA,NA,NA,NA,NA
NA,NA,NA,NA,NA,choice_trial,survey-html-form,17,32499,0.0-4.0-1.6,79,1,2025-04-29T02:15:41Z,b60275e29fe2361ab97ac0ac217840d7,"Mozilla/5.0 (Windows NT 10.0; Win64; x64) AppleWebKit/537.36 (KHTML, like Gecko) Chrome/135.0.0.0 Safari/537.36",WebKit,Chrome,135.0.0.0,Windows,10,https://5puzkbbxv1.cognition.run/?sona_id=53832,"en-US,en;q=0.9",01k294vrjjm6bbm,19,"[""Asian""]",No,Female,1,Yes,105448.80000019072,NA,1056,NA,"{""product_choice"":""B""}",choice,dct,trinary,repulsion_A,1,televisions,null,null,null,null,null,null,1,100,90,100,30,40,20,Screen size,Average lifespan,NA,NA
NA,NA,NA,NA,NA,choice_trial_setup,html-keyboard-response,18,32804,0.0-4.0-0.7,79,1,2025-04-29T02:15:41Z,b60275e29fe2361ab97ac0ac217840d7,"Mozilla/5.0 (Windows NT 10.0; Win64; x64) AppleWebKit/537.36 (KHTML, like Gecko) Chrome/135.0.0.0 Safari/537.36",WebKit,Chrome,135.0.0.0,Windows,10,https://5puzkbbxv1.cognition.run/?sona_id=53832,"en-US,en;q=0.9",01k294vrjjm6bbm,19,"[""Asian""]",No,Female,1,Yes,105448.80000019072,NA,null,<p></p>,null,choice,wb,binary,catch,null,microwave ovens,65,70,10,5,null,null,2,NA,NA,NA,NA,NA,NA,NA,NA,NA,NA
NA,NA,NA,NA,NA,choice_trial,survey-html-form,19,33513,0.0-4.0-1.7,79,1,2025-04-29T02:15:41Z,b60275e29fe2361ab97ac0ac217840d7,"Mozilla/5.0 (Windows NT 10.0; Win64; x64) AppleWebKit/537.36 (KHTML, like Gecko) Chrome/135.0.0.0 Safari/537.36",WebKit,Chrome,135.0.0.0,Windows,10,https://5puzkbbxv1.cognition.run/?sona_id=53832,"en-US,en;q=0.9",01k294vrjjm6bbm,19,"[""Asian""]",No,Female,1,Yes,105448.80000019072,NA,703,NA,"{""product_choice"":""A""}",choice,wb,binary,catch,null,microwave ovens,65,70,10,5,null,null,2,null,null,null,null,null,null,Warranty,Cooking power,NA,NA
NA,NA,NA,NA,NA,choice_trial_setup,html-keyboard-response,20,33818,0.0-4.0-0.8,79,1,2025-04-29T02:15:41Z,b60275e29fe2361ab97ac0ac217840d7,"Mozilla/5.0 (Windows NT 10.0; Win64; x64) AppleWebKit/537.36 (KHTML, like Gecko) Chrome/135.0.0.0 Safari/537.36",WebKit,Chrome,135.0.0.0,Windows,10,https://5puzkbbxv1.cognition.run/?sona_id=53832,"en-US,en;q=0.9",01k294vrjjm6bbm,19,"[""Asian""]",No,Female,1,Yes,105448.80000019072,NA,null,<p></p>,null,choice,bww,trinary,catch,null,laptops,85,90,20,20,45,45,2,NA,NA,NA,NA,NA,NA,NA,NA,NA,NA
NA,NA,NA,NA,NA,choice_trial,survey-html-form,21,34445,0.0-4.0-1.8,79,1,2025-04-29T02:15:41Z,b60275e29fe2361ab97ac0ac217840d7,"Mozilla/5.0 (Windows NT 10.0; Win64; x64) AppleWebKit/537.36 (KHTML, like Gecko) Chrome/135.0.0.0 Safari/537.36",WebKit,Chrome,135.0.0.0,Windows,10,https://5puzkbbxv1.cognition.run/?sona_id=53832,"en-US,en;q=0.9",01k294vrjjm6bbm,19,"[""Asian""]",No,Female,1,Yes,105448.80000019072,NA,623,NA,"{""product_choice"":""A""}",choice,bww,trinary,catch,null,laptops,85,90,20,20,45,45,2,null,null,null,null,null,null,Processing speed,Memory (RAM),NA,NA
NA,NA,NA,NA,NA,choice_trial_setup,html-keyboard-response,22,34753,0.0-4.0-0.9,79,1,2025-04-29T02:15:41Z,b60275e29fe2361ab97ac0ac217840d7,"Mozilla/5.0 (Windows NT 10.0; Win64; x64) AppleWebKit/537.36 (KHTML, like Gecko) Chrome/135.0.0.0 Safari/537.36",WebKit,Chrome,135.0.0.0,Windows,10,https://5puzkbbxv1.cognition.run/?sona_id=53832,"en-US,en;q=0.9",01k294vrjjm6bbm,19,"[""Asian""]",No,Female,1,Yes,105448.80000019072,NA,null,<p></p>,null,choice,tc,binary,repulsion,2,washing machines,null,null,null,null,null,null,1,NA,NA,NA,NA,NA,NA,NA,NA,NA,NA
NA,NA,NA,NA,NA,choice_trial,survey-html-form,23,35345,0.0-4.0-1.9,79,1,2025-04-29T02:15:41Z,b60275e29fe2361ab97ac0ac217840d7,"Mozilla/5.0 (Windows NT 10.0; Win64; x64) AppleWebKit/537.36 (KHTML, like Gecko) Chrome/135.0.0.0 Safari/537.36",WebKit,Chrome,135.0.0.0,Windows,10,https://5puzkbbxv1.cognition.run/?sona_id=53832,"en-US,en;q=0.9",01k294vrjjm6bbm,19,"[""Asian""]",No,Female,1,Yes,105448.80000019072,NA,588,NA,"{""product_choice"":""B""}",choice,tc,binary,repulsion,2,washing machines,null,null,null,null,null,null,1,30,40,null,100,90,null,Average lifespan,Energy savings,NA,NA
NA,NA,NA,NA,NA,choice_trial_setup,html-keyboard-response,24,35655,0.0-4.0-0.10,79,1,2025-04-29T02:15:41Z,b60275e29fe2361ab97ac0ac217840d7,"Mozilla/5.0 (Windows NT 10.0; Win64; x64) AppleWebKit/537.36 (KHTML, like Gecko) Chrome/135.0.0.0 Safari/537.36",WebKit,Chrome,135.0.0.0,Windows,10,https://5puzkbbxv1.cognition.run/?sona_id=53832,"en-US,en;q=0.9",01k294vrjjm6bbm,19,"[""Asian""]",No,Female,1,Yes,105448.80000019072,NA,null,<p></p>,null,choice,bww,trinary,catch,null,washing machines,80,55,45,50,35,5,1,NA,NA,NA,NA,NA,NA,NA,NA,NA,NA
NA,NA,NA,NA,NA,choice_trial,survey-html-form,25,36206,0.0-4.0-1.10,79,1,2025-04-29T02:15:41Z,b60275e29fe2361ab97ac0ac217840d7,"Mozilla/5.0 (Windows NT 10.0; Win64; x64) AppleWebKit/537.36 (KHTML, like Gecko) Chrome/135.0.0.0 Safari/537.36",WebKit,Chrome,135.0.0.0,Windows,10,https://5puzkbbxv1.cognition.run/?sona_id=53832,"en-US,en;q=0.9",01k294vrjjm6bbm,19,"[""Asian""]",No,Female,1,Yes,105448.80000019072,NA,547,NA,"{""product_choice"":""A""}",choice,bww,trinary,catch,null,washing machines,80,55,45,50,35,5,1,null,null,null,null,null,null,Average lifespan,Energy savings,NA,NA
NA,NA,NA,NA,NA,choice_trial_setup,html-keyboard-response,26,36537,0.0-4.0-0.11,79,1,2025-04-29T02:15:41Z,b60275e29fe2361ab97ac0ac217840d7,"Mozilla/5.0 (Windows NT 10.0; Win64; x64) AppleWebKit/537.36 (KHTML, like Gecko) Chrome/135.0.0.0 Safari/537.36",WebKit,Chrome,135.0.0.0,Windows,10,https://5puzkbbxv1.cognition.run/?sona_id=53832,"en-US,en;q=0.9",01k294vrjjm6bbm,19,"[""Asian""]",No,Female,1,Yes,105448.80000019072,NA,null,<p></p>,null,choice,ctd,trinary,repulsion_B,1,microwave ovens,null,null,null,null,null,null,2,NA,NA,NA,NA,NA,NA,NA,NA,NA,NA
NA,NA,NA,NA,NA,choice_trial,survey-html-form,27,36992,0.0-4.0-1.11,79,1,2025-04-29T02:15:41Z,b60275e29fe2361ab97ac0ac217840d7,"Mozilla/5.0 (Windows NT 10.0; Win64; x64) AppleWebKit/537.36 (KHTML, like Gecko) Chrome/135.0.0.0 Safari/537.36",WebKit,Chrome,135.0.0.0,Windows,10,https://5puzkbbxv1.cognition.run/?sona_id=53832,"en-US,en;q=0.9",01k294vrjjm6bbm,19,"[""Asian""]",No,Female,1,Yes,105448.80000019072,NA,450,NA,"{""product_choice"":""B""}",choice,ctd,trinary,repulsion_B,1,microwave ovens,null,null,null,null,null,null,2,90,100,80,40,30,40,Warranty,Cooking power,NA,NA
NA,NA,NA,NA,NA,choice_trial_setup,html-keyboard-response,28,37302,0.0-4.0-0.12,79,1,2025-04-29T02:15:41Z,b60275e29fe2361ab97ac0ac217840d7,"Mozilla/5.0 (Windows NT 10.0; Win64; x64) AppleWebKit/537.36 (KHTML, like Gecko) Chrome/135.0.0.0 Safari/537.36",WebKit,Chrome,135.0.0.0,Windows,10,https://5puzkbbxv1.cognition.run/?sona_id=53832,"en-US,en;q=0.9",01k294vrjjm6bbm,19,"[""Asian""]",No,Female,1,Yes,105448.80000019072,NA,null,<p></p>,null,choice,ctd,trinary,repulsion_A,1,microwave ovens,null,null,null,null,null,null,2,NA,NA,NA,NA,NA,NA,NA,NA,NA,NA
NA,NA,NA,NA,NA,choice_trial,survey-html-form,29,37762,0.0-4.0-1.12,79,1,2025-04-29T02:15:41Z,b60275e29fe2361ab97ac0ac217840d7,"Mozilla/5.0 (Windows NT 10.0; Win64; x64) AppleWebKit/537.36 (KHTML, like Gecko) Chrome/135.0.0.0 Safari/537.36",WebKit,Chrome,135.0.0.0,Windows,10,https://5puzkbbxv1.cognition.run/?sona_id=53832,"en-US,en;q=0.9",01k294vrjjm6bbm,19,"[""Asian""]",No,Female,1,Yes,105448.80000019072,NA,454,NA,"{""product_choice"":""B""}",choice,ctd,trinary,repulsion_A,1,microwave ovens,null,null,null,null,null,null,2,100,90,100,30,40,20,Warranty,Cooking power,NA,NA
NA,NA,NA,NA,NA,choice_trial_setup,html-keyboard-response,30,38070,0.0-4.0-0.13,79,1,2025-04-29T02:15:41Z,b60275e29fe2361ab97ac0ac217840d7,"Mozilla/5.0 (Windows NT 10.0; Win64; x64) AppleWebKit/537.36 (KHTML, like Gecko) Chrome/135.0.0.0 Safari/537.36",WebKit,Chrome,135.0.0.0,Windows,10,https://5puzkbbxv1.cognition.run/?sona_id=53832,"en-US,en;q=0.9",01k294vrjjm6bbm,19,"[""Asian""]",No,Female,1,Yes,105448.80000019072,NA,null,<p></p>,null,choice,dct,trinary,repulsion_B,2,televisions,null,null,null,null,null,null,2,NA,NA,NA,NA,NA,NA,NA,NA,NA,NA
NA,NA,NA,NA,NA,choice_trial,survey-html-form,31,38488,0.0-4.0-1.13,79,1,2025-04-29T02:15:41Z,b60275e29fe2361ab97ac0ac217840d7,"Mozilla/5.0 (Windows NT 10.0; Win64; x64) AppleWebKit/537.36 (KHTML, like Gecko) Chrome/135.0.0.0 Safari/537.36",WebKit,Chrome,135.0.0.0,Windows,10,https://5puzkbbxv1.cognition.run/?sona_id=53832,"en-US,en;q=0.9",01k294vrjjm6bbm,19,"[""Asian""]",No,Female,1,Yes,105448.80000019072,NA,415,NA,"{""product_choice"":""B""}",choice,dct,trinary,repulsion_B,2,televisions,null,null,null,null,null,null,2,40,30,40,90,100,80,Screen size,Average lifespan,NA,NA
NA,NA,NA,NA,NA,choice_trial_setup,html-keyboard-response,32,38797,0.0-4.0-0.14,79,1,2025-04-29T02:15:41Z,b60275e29fe2361ab97ac0ac217840d7,"Mozilla/5.0 (Windows NT 10.0; Win64; x64) AppleWebKit/537.36 (KHTML, like Gecko) Chrome/135.0.0.0 Safari/537.36",WebKit,Chrome,135.0.0.0,Windows,10,https://5puzkbbxv1.cognition.run/?sona_id=53832,"en-US,en;q=0.9",01k294vrjjm6bbm,19,"[""Asian""]",No,Female,1,Yes,105448.80000019072,NA,null,<p></p>,null,choice,ctd,trinary,repulsion_A,1,laptops,null,null,null,null,null,null,1,NA,NA,NA,NA,NA,NA,NA,NA,NA,NA
NA,NA,NA,NA,NA,choice_trial,survey-html-form,33,39253,0.0-4.0-1.14,79,1,2025-04-29T02:15:41Z,b60275e29fe2361ab97ac0ac217840d7,"Mozilla/5.0 (Windows NT 10.0; Win64; x64) AppleWebKit/537.36 (KHTML, like Gecko) Chrome/135.0.0.0 Safari/537.36",WebKit,Chrome,135.0.0.0,Windows,10,https://5puzkbbxv1.cognition.run/?sona_id=53832,"en-US,en;q=0.9",01k294vrjjm6bbm,19,"[""Asian""]",No,Female,1,Yes,105448.80000019072,NA,448,NA,"{""product_choice"":""B""}",choice,ctd,trinary,repulsion_A,1,laptops,null,null,null,null,null,null,1,100,90,100,30,40,20,Processing speed,Memory (RAM),NA,NA
NA,NA,NA,NA,NA,choice_trial_setup,html-keyboard-response,34,39557,0.0-4.0-0.15,79,1,2025-04-29T02:15:41Z,b60275e29fe2361ab97ac0ac217840d7,"Mozilla/5.0 (Windows NT 10.0; Win64; x64) AppleWebKit/537.36 (KHTML, like Gecko) Chrome/135.0.0.0 Safari/537.36",WebKit,Chrome,135.0.0.0,Windows,10,https://5puzkbbxv1.cognition.run/?sona_id=53832,"en-US,en;q=0.9",01k294vrjjm6bbm,19,"[""Asian""]",No,Female,1,Yes,105448.80000019072,NA,null,<p></p>,null,choice,bw,binary,catch,null,laptops,60,90,35,30,null,null,2,NA,NA,NA,NA,NA,NA,NA,NA,NA,NA
NA,NA,NA,NA,NA,choice_trial,survey-html-form,35,40582,0.0-4.0-1.15,79,1,2025-04-29T02:15:41Z,b60275e29fe2361ab97ac0ac217840d7,"Mozilla/5.0 (Windows NT 10.0; Win64; x64) AppleWebKit/537.36 (KHTML, like Gecko) Chrome/135.0.0.0 Safari/537.36",WebKit,Chrome,135.0.0.0,Windows,10,https://5puzkbbxv1.cognition.run/?sona_id=53832,"en-US,en;q=0.9",01k294vrjjm6bbm,19,"[""Asian""]",No,Female,1,Yes,105448.80000019072,NA,1021,NA,"{""product_choice"":""B""}",choice,bw,binary,catch,null,laptops,60,90,35,30,null,null,2,null,null,null,null,null,null,Processing speed,Memory (RAM),NA,NA
NA,NA,NA,NA,NA,choice_trial_setup,html-keyboard-response,36,40890,0.0-4.0-0.16,79,1,2025-04-29T02:15:41Z,b60275e29fe2361ab97ac0ac217840d7,"Mozilla/5.0 (Windows NT 10.0; Win64; x64) AppleWebKit/537.36 (KHTML, like Gecko) Chrome/135.0.0.0 Safari/537.36",WebKit,Chrome,135.0.0.0,Windows,10,https://5puzkbbxv1.cognition.run/?sona_id=53832,"en-US,en;q=0.9",01k294vrjjm6bbm,19,"[""Asian""]",No,Female,1,Yes,105448.80000019072,NA,null,<p></p>,null,choice,tc,binary,repulsion,1,washing machines,null,null,null,null,null,null,1,NA,NA,NA,NA,NA,NA,NA,NA,NA,NA
NA,NA,NA,NA,NA,choice_trial,survey-html-form,37,41265,0.0-4.0-1.16,79,1,2025-04-29T02:15:41Z,b60275e29fe2361ab97ac0ac217840d7,"Mozilla/5.0 (Windows NT 10.0; Win64; x64) AppleWebKit/537.36 (KHTML, like Gecko) Chrome/135.0.0.0 Safari/537.36",WebKit,Chrome,135.0.0.0,Windows,10,https://5puzkbbxv1.cognition.run/?sona_id=53832,"en-US,en;q=0.9",01k294vrjjm6bbm,19,"[""Asian""]",No,Female,1,Yes,105448.80000019072,NA,370,NA,"{""product_choice"":""A""}",choice,tc,binary,repulsion,1,washing machines,null,null,null,null,null,null,1,100,90,null,30,40,null,Average lifespan,Energy savings,NA,NA
NA,NA,NA,NA,NA,choice_trial_setup,html-keyboard-response,38,41585,0.0-4.0-0.17,79,1,2025-04-29T02:15:41Z,b60275e29fe2361ab97ac0ac217840d7,"Mozilla/5.0 (Windows NT 10.0; Win64; x64) AppleWebKit/537.36 (KHTML, like Gecko) Chrome/135.0.0.0 Safari/537.36",WebKit,Chrome,135.0.0.0,Windows,10,https://5puzkbbxv1.cognition.run/?sona_id=53832,"en-US,en;q=0.9",01k294vrjjm6bbm,19,"[""Asian""]",No,Female,1,Yes,105448.80000019072,NA,null,<p></p>,null,choice,tdc,trinary,repulsion_B,1,laptops,null,null,null,null,null,null,2,NA,NA,NA,NA,NA,NA,NA,NA,NA,NA
NA,NA,NA,NA,NA,choice_trial,survey-html-form,39,42025,0.0-4.0-1.17,79,1,2025-04-29T02:15:41Z,b60275e29fe2361ab97ac0ac217840d7,"Mozilla/5.0 (Windows NT 10.0; Win64; x64) AppleWebKit/537.36 (KHTML, like Gecko) Chrome/135.0.0.0 Safari/537.36",WebKit,Chrome,135.0.0.0,Windows,10,https://5puzkbbxv1.cognition.run/?sona_id=53832,"en-US,en;q=0.9",01k294vrjjm6bbm,19,"[""Asian""]",No,Female,1,Yes,105448.80000019072,NA,436,NA,"{""product_choice"":""C""}",choice,tdc,trinary,repulsion_B,1,laptops,null,null,null,null,null,null,2,90,100,80,40,30,40,Processing speed,Memory (RAM),NA,NA
NA,NA,NA,NA,NA,choice_trial_setup,html-keyboard-response,40,42330,0.0-4.0-0.18,79,1,2025-04-29T02:15:41Z,b60275e29fe2361ab97ac0ac217840d7,"Mozilla/5.0 (Windows NT 10.0; Win64; x64) AppleWebKit/537.36 (KHTML, like Gecko) Chrome/135.0.0.0 Safari/537.36",WebKit,Chrome,135.0.0.0,Windows,10,https://5puzkbbxv1.cognition.run/?sona_id=53832,"en-US,en;q=0.9",01k294vrjjm6bbm,19,"[""Asian""]",No,Female,1,Yes,105448.80000019072,NA,null,<p></p>,null,choice,dtc,trinary,attraction,1,televisions,null,null,null,null,null,null,1,NA,NA,NA,NA,NA,NA,NA,NA,NA,NA
NA,NA,NA,NA,NA,choice_trial,survey-html-form,41,42747,0.0-4.0-1.18,79,1,2025-04-29T02:15:41Z,b60275e29fe2361ab97ac0ac217840d7,"Mozilla/5.0 (Windows NT 10.0; Win64; x64) AppleWebKit/537.36 (KHTML, like Gecko) Chrome/135.0.0.0 Safari/537.36",WebKit,Chrome,135.0.0.0,Windows,10,https://5puzkbbxv1.cognition.run/?sona_id=53832,"en-US,en;q=0.9",01k294vrjjm6bbm,19,"[""Asian""]",No,Female,1,Yes,105448.80000019072,NA,412,NA,"{""product_choice"":""B""}",choice,dtc,trinary,attraction,1,televisions,null,null,null,null,null,null,1,60,50,60,50,60,40,Screen size,Average lifespan,NA,NA
NA,NA,NA,NA,NA,choice_trial_setup,html-keyboard-response,42,43054,0.0-4.0-0.19,79,1,2025-04-29T02:15:41Z,b60275e29fe2361ab97ac0ac217840d7,"Mozilla/5.0 (Windows NT 10.0; Win64; x64) AppleWebKit/537.36 (KHTML, like Gecko) Chrome/135.0.0.0 Safari/537.36",WebKit,Chrome,135.0.0.0,Windows,10,https://5puzkbbxv1.cognition.run/?sona_id=53832,"en-US,en;q=0.9",01k294vrjjm6bbm,19,"[""Asian""]",No,Female,1,Yes,105448.80000019072,NA,null,<p></p>,null,choice,cdt,trinary,attraction,1,microwave ovens,null,null,null,null,null,null,1,NA,NA,NA,NA,NA,NA,NA,NA,NA,NA
NA,NA,NA,NA,NA,choice_trial,survey-html-form,43,43497,0.0-4.0-1.19,79,1,2025-04-29T02:15:41Z,b60275e29fe2361ab97ac0ac217840d7,"Mozilla/5.0 (Windows NT 10.0; Win64; x64) AppleWebKit/537.36 (KHTML, like Gecko) Chrome/135.0.0.0 Safari/537.36",WebKit,Chrome,135.0.0.0,Windows,10,https://5puzkbbxv1.cognition.run/?sona_id=53832,"en-US,en;q=0.9",01k294vrjjm6bbm,19,"[""Asian""]",No,Female,1,Yes,105448.80000019072,NA,437,NA,"{""product_choice"":""B""}",choice,cdt,trinary,attraction,1,microwave ovens,null,null,null,null,null,null,1,60,50,60,50,60,40,Warranty,Cooking power,NA,NA
NA,NA,NA,NA,NA,choice_trial_setup,html-keyboard-response,44,43808,0.0-4.0-0.20,79,1,2025-04-29T02:15:41Z,b60275e29fe2361ab97ac0ac217840d7,"Mozilla/5.0 (Windows NT 10.0; Win64; x64) AppleWebKit/537.36 (KHTML, like Gecko) Chrome/135.0.0.0 Safari/537.36",WebKit,Chrome,135.0.0.0,Windows,10,https://5puzkbbxv1.cognition.run/?sona_id=53832,"en-US,en;q=0.9",01k294vrjjm6bbm,19,"[""Asian""]",No,Female,1,Yes,105448.80000019072,NA,null,<p></p>,null,choice,ctd,trinary,repulsion_A,2,televisions,null,null,null,null,null,null,1,NA,NA,NA,NA,NA,NA,NA,NA,NA,NA
NA,NA,NA,NA,NA,choice_trial,survey-html-form,45,44195,0.0-4.0-1.20,79,1,2025-04-29T02:15:41Z,b60275e29fe2361ab97ac0ac217840d7,"Mozilla/5.0 (Windows NT 10.0; Win64; x64) AppleWebKit/537.36 (KHTML, like Gecko) Chrome/135.0.0.0 Safari/537.36",WebKit,Chrome,135.0.0.0,Windows,10,https://5puzkbbxv1.cognition.run/?sona_id=53832,"en-US,en;q=0.9",01k294vrjjm6bbm,19,"[""Asian""]",No,Female,1,Yes,105448.80000019072,NA,382,NA,"{""product_choice"":""B""}",choice,ctd,trinary,repulsion_A,2,televisions,null,null,null,null,null,null,1,30,40,20,100,90,100,Screen size,Average lifespan,NA,NA
NA,NA,NA,NA,NA,choice_trial_setup,html-keyboard-response,46,44505,0.0-4.0-0.21,79,1,2025-04-29T02:15:41Z,b60275e29fe2361ab97ac0ac217840d7,"Mozilla/5.0 (Windows NT 10.0; Win64; x64) AppleWebKit/537.36 (KHTML, like Gecko) Chrome/135.0.0.0 Safari/537.36",WebKit,Chrome,135.0.0.0,Windows,10,https://5puzkbbxv1.cognition.run/?sona_id=53832,"en-US,en;q=0.9",01k294vrjjm6bbm,19,"[""Asian""]",No,Female,1,Yes,105448.80000019072,NA,null,<p></p>,null,choice,dct,trinary,repulsion_B,1,washing machines,null,null,null,null,null,null,1,NA,NA,NA,NA,NA,NA,NA,NA,NA,NA
NA,NA,NA,NA,NA,choice_trial,survey-html-form,47,44890,0.0-4.0-1.21,79,1,2025-04-29T02:15:41Z,b60275e29fe2361ab97ac0ac217840d7,"Mozilla/5.0 (Windows NT 10.0; Win64; x64) AppleWebKit/537.36 (KHTML, like Gecko) Chrome/135.0.0.0 Safari/537.36",WebKit,Chrome,135.0.0.0,Windows,10,https://5puzkbbxv1.cognition.run/?sona_id=53832,"en-US,en;q=0.9",01k294vrjjm6bbm,19,"[""Asian""]",No,Female,1,Yes,105448.80000019072,NA,379,NA,"{""product_choice"":""B""}",choice,dct,trinary,repulsion_B,1,washing machines,null,null,null,null,null,null,1,90,100,80,40,30,40,Average lifespan,Energy savings,NA,NA
NA,NA,NA,NA,NA,choice_trial_setup,html-keyboard-response,48,45199,0.0-4.0-0.22,79,1,2025-04-29T02:15:41Z,b60275e29fe2361ab97ac0ac217840d7,"Mozilla/5.0 (Windows NT 10.0; Win64; x64) AppleWebKit/537.36 (KHTML, like Gecko) Chrome/135.0.0.0 Safari/537.36",WebKit,Chrome,135.0.0.0,Windows,10,https://5puzkbbxv1.cognition.run/?sona_id=53832,"en-US,en;q=0.9",01k294vrjjm6bbm,19,"[""Asian""]",No,Female,1,Yes,105448.80000019072,NA,null,<p></p>,null,choice,cdt,trinary,attraction,1,washing machines,null,null,null,null,null,null,2,NA,NA,NA,NA,NA,NA,NA,NA,NA,NA
NA,NA,NA,NA,NA,choice_trial,survey-html-form,49,45582,0.0-4.0-1.22,79,1,2025-04-29T02:15:41Z,b60275e29fe2361ab97ac0ac217840d7,"Mozilla/5.0 (Windows NT 10.0; Win64; x64) AppleWebKit/537.36 (KHTML, like Gecko) Chrome/135.0.0.0 Safari/537.36",WebKit,Chrome,135.0.0.0,Windows,10,https://5puzkbbxv1.cognition.run/?sona_id=53832,"en-US,en;q=0.9",01k294vrjjm6bbm,19,"[""Asian""]",No,Female,1,Yes,105448.80000019072,NA,379,NA,"{""product_choice"":""B""}",choice,cdt,trinary,attraction,1,washing machines,null,null,null,null,null,null,2,60,50,60,50,60,40,Average lifespan,Energy savings,NA,NA
NA,NA,NA,NA,NA,choice_trial_setup,html-keyboard-response,50,45864,0.0-4.0-0.23,79,1,2025-04-29T02:15:41Z,b60275e29fe2361ab97ac0ac217840d7,"Mozilla/5.0 (Windows NT 10.0; Win64; x64) AppleWebKit/537.36 (KHTML, like Gecko) Chrome/135.0.0.0 Safari/537.36",WebKit,Chrome,135.0.0.0,Windows,10,https://5puzkbbxv1.cognition.run/?sona_id=53832,"en-US,en;q=0.9",01k294vrjjm6bbm,19,"[""Asian""]",No,Female,1,Yes,105448.80000019072,NA,278,<p></p>,arrowright,choice,ct,binary,repulsion,1,televisions,null,null,null,null,null,null,2,NA,NA,NA,NA,NA,NA,NA,NA,NA,NA
NA,NA,NA,NA,NA,choice_trial,survey-html-form,51,46264,0.0-4.0-1.23,79,1,2025-04-29T02:15:41Z,b60275e29fe2361ab97ac0ac217840d7,"Mozilla/5.0 (Windows NT 10.0; Win64; x64) AppleWebKit/537.36 (KHTML, like Gecko) Chrome/135.0.0.0 Safari/537.36",WebKit,Chrome,135.0.0.0,Windows,10,https://5puzkbbxv1.cognition.run/?sona_id=53832,"en-US,en;q=0.9",01k294vrjjm6bbm,19,"[""Asian""]",No,Female,1,Yes,105448.80000019072,NA,396,NA,"{""product_choice"":""A""}",choice,ct,binary,repulsion,1,televisions,null,null,null,null,null,null,2,100,90,null,30,40,null,Screen size,Average lifespan,NA,NA
NA,NA,NA,NA,NA,choice_trial_setup,html-keyboard-response,52,46572,0.0-4.0-0.24,79,1,2025-04-29T02:15:41Z,b60275e29fe2361ab97ac0ac217840d7,"Mozilla/5.0 (Windows NT 10.0; Win64; x64) AppleWebKit/537.36 (KHTML, like Gecko) Chrome/135.0.0.0 Safari/537.36",WebKit,Chrome,135.0.0.0,Windows,10,https://5puzkbbxv1.cognition.run/?sona_id=53832,"en-US,en;q=0.9",01k294vrjjm6bbm,19,"[""Asian""]",No,Female,1,Yes,105448.80000019072,NA,null,<p></p>,null,choice,dtc,trinary,attraction,2,microwave ovens,null,null,null,null,null,null,1,NA,NA,NA,NA,NA,NA,NA,NA,NA,NA
NA,NA,NA,NA,NA,choice_trial,survey-html-form,53,46996,0.0-4.0-1.24,79,1,2025-04-29T02:15:41Z,b60275e29fe2361ab97ac0ac217840d7,"Mozilla/5.0 (Windows NT 10.0; Win64; x64) AppleWebKit/537.36 (KHTML, like Gecko) Chrome/135.0.0.0 Safari/537.36",WebKit,Chrome,135.0.0.0,Windows,10,https://5puzkbbxv1.cognition.run/?sona_id=53832,"en-US,en;q=0.9",01k294vrjjm6bbm,19,"[""Asian""]",No,Female,1,Yes,105448.80000019072,NA,419,NA,"{""product_choice"":""B""}",choice,dtc,trinary,attraction,2,microwave ovens,null,null,null,null,null,null,1,50,60,40,60,50,60,Warranty,Cooking power,NA,NA
NA,NA,NA,NA,NA,choice_trial_setup,html-keyboard-response,54,47303,0.0-4.0-0.25,79,1,2025-04-29T02:15:41Z,b60275e29fe2361ab97ac0ac217840d7,"Mozilla/5.0 (Windows NT 10.0; Win64; x64) AppleWebKit/537.36 (KHTML, like Gecko) Chrome/135.0.0.0 Safari/537.36",WebKit,Chrome,135.0.0.0,Windows,10,https://5puzkbbxv1.cognition.run/?sona_id=53832,"en-US,en;q=0.9",01k294vrjjm6bbm,19,"[""Asian""]",No,Female,1,Yes,105448.80000019072,NA,null,<p></p>,null,choice,dct,trinary,repulsion_B,2,laptops,null,null,null,null,null,null,1,NA,NA,NA,NA,NA,NA,NA,NA,NA,NA
NA,NA,NA,NA,NA,choice_trial,survey-html-form,55,48701,0.0-4.0-1.25,79,1,2025-04-29T02:15:41Z,b60275e29fe2361ab97ac0ac217840d7,"Mozilla/5.0 (Windows NT 10.0; Win64; x64) AppleWebKit/537.36 (KHTML, like Gecko) Chrome/135.0.0.0 Safari/537.36",WebKit,Chrome,135.0.0.0,Windows,10,https://5puzkbbxv1.cognition.run/?sona_id=53832,"en-US,en;q=0.9",01k294vrjjm6bbm,19,"[""Asian""]",No,Female,1,Yes,105448.80000019072,NA,1392,NA,"{""product_choice"":""B""}",choice,dct,trinary,repulsion_B,2,laptops,null,null,null,null,null,null,1,40,30,40,90,100,80,Processing speed,Memory (RAM),NA,NA
NA,NA,NA,NA,NA,choice_trial_setup,html-keyboard-response,56,49019,0.0-4.0-0.26,79,1,2025-04-29T02:15:41Z,b60275e29fe2361ab97ac0ac217840d7,"Mozilla/5.0 (Windows NT 10.0; Win64; x64) AppleWebKit/537.36 (KHTML, like Gecko) Chrome/135.0.0.0 Safari/537.36",WebKit,Chrome,135.0.0.0,Windows,10,https://5puzkbbxv1.cognition.run/?sona_id=53832,"en-US,en;q=0.9",01k294vrjjm6bbm,19,"[""Asian""]",No,Female,1,Yes,105448.80000019072,NA,null,<p></p>,null,choice,dtc,trinary,attraction,2,washing machines,null,null,null,null,null,null,2,NA,NA,NA,NA,NA,NA,NA,NA,NA,NA
NA,NA,NA,NA,NA,choice_trial,survey-html-form,57,49423,0.0-4.0-1.26,79,1,2025-04-29T02:15:41Z,b60275e29fe2361ab97ac0ac217840d7,"Mozilla/5.0 (Windows NT 10.0; Win64; x64) AppleWebKit/537.36 (KHTML, like Gecko) Chrome/135.0.0.0 Safari/537.36",WebKit,Chrome,135.0.0.0,Windows,10,https://5puzkbbxv1.cognition.run/?sona_id=53832,"en-US,en;q=0.9",01k294vrjjm6bbm,19,"[""Asian""]",No,Female,1,Yes,105448.80000019072,NA,395,NA,"{""product_choice"":""B""}",choice,dtc,trinary,attraction,2,washing machines,null,null,null,null,null,null,2,50,60,40,60,50,60,Average lifespan,Energy savings,NA,NA
NA,NA,NA,NA,NA,choice_trial_setup,html-keyboard-response,58,49733,0.0-4.0-0.27,79,1,2025-04-29T02:15:41Z,b60275e29fe2361ab97ac0ac217840d7,"Mozilla/5.0 (Windows NT 10.0; Win64; x64) AppleWebKit/537.36 (KHTML, like Gecko) Chrome/135.0.0.0 Safari/537.36",WebKit,Chrome,135.0.0.0,Windows,10,https://5puzkbbxv1.cognition.run/?sona_id=53832,"en-US,en;q=0.9",01k294vrjjm6bbm,19,"[""Asian""]",No,Female,1,Yes,105448.80000019072,NA,null,<p></p>,null,choice,ct,binary,attraction,NA,microwave ovens,null,null,null,null,null,null,1,NA,NA,NA,NA,NA,NA,NA,NA,NA,NA
NA,NA,NA,NA,NA,choice_trial,survey-html-form,59,50025,0.0-4.0-1.27,79,1,2025-04-29T02:15:41Z,b60275e29fe2361ab97ac0ac217840d7,"Mozilla/5.0 (Windows NT 10.0; Win64; x64) AppleWebKit/537.36 (KHTML, like Gecko) Chrome/135.0.0.0 Safari/537.36",WebKit,Chrome,135.0.0.0,Windows,10,https://5puzkbbxv1.cognition.run/?sona_id=53832,"en-US,en;q=0.9",01k294vrjjm6bbm,19,"[""Asian""]",No,Female,1,Yes,105448.80000019072,NA,288,NA,"{""product_choice"":""A""}",choice,ct,binary,attraction,NA,microwave ovens,null,null,null,null,null,null,1,60,50,null,50,60,null,Warranty,Cooking power,NA,NA
NA,NA,NA,NA,NA,choice_trial_setup,html-keyboard-response,60,50331,0.0-4.0-0.28,79,1,2025-04-29T02:15:41Z,b60275e29fe2361ab97ac0ac217840d7,"Mozilla/5.0 (Windows NT 10.0; Win64; x64) AppleWebKit/537.36 (KHTML, like Gecko) Chrome/135.0.0.0 Safari/537.36",WebKit,Chrome,135.0.0.0,Windows,10,https://5puzkbbxv1.cognition.run/?sona_id=53832,"en-US,en;q=0.9",01k294vrjjm6bbm,19,"[""Asian""]",No,Female,1,Yes,105448.80000019072,NA,null,<p></p>,null,choice,dtc,trinary,repulsion_A,2,laptops,null,null,null,null,null,null,2,NA,NA,NA,NA,NA,NA,NA,NA,NA,NA
NA,NA,NA,NA,NA,choice_trial,survey-html-form,61,50704,0.0-4.0-1.28,79,1,2025-04-29T02:15:41Z,b60275e29fe2361ab97ac0ac217840d7,"Mozilla/5.0 (Windows NT 10.0; Win64; x64) AppleWebKit/537.36 (KHTML, like Gecko) Chrome/135.0.0.0 Safari/537.36",WebKit,Chrome,135.0.0.0,Windows,10,https://5puzkbbxv1.cognition.run/?sona_id=53832,"en-US,en;q=0.9",01k294vrjjm6bbm,19,"[""Asian""]",No,Female,1,Yes,105448.80000019072,NA,368,NA,"{""product_choice"":""B""}",choice,dtc,trinary,repulsion_A,2,laptops,null,null,null,null,null,null,2,30,40,20,100,90,100,Processing speed,Memory (RAM),NA,NA
NA,NA,NA,NA,NA,choice_trial_setup,html-keyboard-response,62,51014,0.0-4.0-0.29,79,1,2025-04-29T02:15:41Z,b60275e29fe2361ab97ac0ac217840d7,"Mozilla/5.0 (Windows NT 10.0; Win64; x64) AppleWebKit/537.36 (KHTML, like Gecko) Chrome/135.0.0.0 Safari/537.36",WebKit,Chrome,135.0.0.0,Windows,10,https://5puzkbbxv1.cognition.run/?sona_id=53832,"en-US,en;q=0.9",01k294vrjjm6bbm,19,"[""Asian""]",No,Female,1,Yes,105448.80000019072,NA,null,<p></p>,null,choice,tc,binary,repulsion,2,televisions,null,null,null,null,null,null,2,NA,NA,NA,NA,NA,NA,NA,NA,NA,NA
NA,NA,NA,NA,NA,choice_trial,survey-html-form,63,51367,0.0-4.0-1.29,79,1,2025-04-29T02:15:41Z,b60275e29fe2361ab97ac0ac217840d7,"Mozilla/5.0 (Windows NT 10.0; Win64; x64) AppleWebKit/537.36 (KHTML, like Gecko) Chrome/135.0.0.0 Safari/537.36",WebKit,Chrome,135.0.0.0,Windows,10,https://5puzkbbxv1.cognition.run/?sona_id=53832,"en-US,en;q=0.9",01k294vrjjm6bbm,19,"[""Asian""]",No,Female,1,Yes,105448.80000019072,NA,348,NA,"{""product_choice"":""A""}",choice,tc,binary,repulsion,2,televisions,null,null,null,null,null,null,2,30,40,null,100,90,null,Screen size,Average lifespan,NA,NA
NA,NA,NA,NA,NA,choice_trial_setup,html-keyboard-response,64,51677,0.0-4.0-0.30,79,1,2025-04-29T02:15:41Z,b60275e29fe2361ab97ac0ac217840d7,"Mozilla/5.0 (Windows NT 10.0; Win64; x64) AppleWebKit/537.36 (KHTML, like Gecko) Chrome/135.0.0.0 Safari/537.36",WebKit,Chrome,135.0.0.0,Windows,10,https://5puzkbbxv1.cognition.run/?sona_id=53832,"en-US,en;q=0.9",01k294vrjjm6bbm,19,"[""Asian""]",No,Female,1,Yes,105448.80000019072,NA,null,<p></p>,null,choice,wb,binary,catch,null,washing machines,80,65,20,25,null,null,1,NA,NA,NA,NA,NA,NA,NA,NA,NA,NA
NA,NA,NA,NA,NA,choice_trial,survey-html-form,65,52051,0.0-4.0-1.30,79,1,2025-04-29T02:15:41Z,b60275e29fe2361ab97ac0ac217840d7,"Mozilla/5.0 (Windows NT 10.0; Win64; x64) AppleWebKit/537.36 (KHTML, like Gecko) Chrome/135.0.0.0 Safari/537.36",WebKit,Chrome,135.0.0.0,Windows,10,https://5puzkbbxv1.cognition.run/?sona_id=53832,"en-US,en;q=0.9",01k294vrjjm6bbm,19,"[""Asian""]",No,Female,1,Yes,105448.80000019072,NA,368,NA,"{""product_choice"":""A""}",choice,wb,binary,catch,null,washing machines,80,65,20,25,null,null,1,null,null,null,null,null,null,Average lifespan,Energy savings,NA,NA
NA,NA,NA,NA,NA,choice_trial_setup,html-keyboard-response,66,52359,0.0-4.0-0.31,79,1,2025-04-29T02:15:41Z,b60275e29fe2361ab97ac0ac217840d7,"Mozilla/5.0 (Windows NT 10.0; Win64; x64) AppleWebKit/537.36 (KHTML, like Gecko) Chrome/135.0.0.0 Safari/537.36",WebKit,Chrome,135.0.0.0,Windows,10,https://5puzkbbxv1.cognition.run/?sona_id=53832,"en-US,en;q=0.9",01k294vrjjm6bbm,19,"[""Asian""]",No,Female,1,Yes,105448.80000019072,NA,null,<p></p>,null,choice,tc,binary,attraction,NA,laptops,null,null,null,null,null,null,2,NA,NA,NA,NA,NA,NA,NA,NA,NA,NA
NA,NA,NA,NA,NA,choice_trial,survey-html-form,67,52720,0.0-4.0-1.31,79,1,2025-04-29T02:15:41Z,b60275e29fe2361ab97ac0ac217840d7,"Mozilla/5.0 (Windows NT 10.0; Win64; x64) AppleWebKit/537.36 (KHTML, like Gecko) Chrome/135.0.0.0 Safari/537.36",WebKit,Chrome,135.0.0.0,Windows,10,https://5puzkbbxv1.cognition.run/?sona_id=53832,"en-US,en;q=0.9",01k294vrjjm6bbm,19,"[""Asian""]",No,Female,1,Yes,105448.80000019072,NA,357,NA,"{""product_choice"":""A""}",choice,tc,binary,attraction,NA,laptops,null,null,null,null,null,null,2,60,50,null,50,60,null,Processing speed,Memory (RAM),NA,NA
NA,NA,NA,NA,NA,choice_trial_setup,html-keyboard-response,68,53030,0.0-4.0-0.32,79,1,2025-04-29T02:15:41Z,b60275e29fe2361ab97ac0ac217840d7,"Mozilla/5.0 (Windows NT 10.0; Win64; x64) AppleWebKit/537.36 (KHTML, like Gecko) Chrome/135.0.0.0 Safari/537.36",WebKit,Chrome,135.0.0.0,Windows,10,https://5puzkbbxv1.cognition.run/?sona_id=53832,"en-US,en;q=0.9",01k294vrjjm6bbm,19,"[""Asian""]",No,Female,1,Yes,105448.80000019072,NA,null,<p></p>,null,choice,ctd,trinary,repulsion_A,2,washing machines,null,null,null,null,null,null,2,NA,NA,NA,NA,NA,NA,NA,NA,NA,NA
NA,NA,NA,NA,NA,choice_trial,survey-html-form,69,53365,0.0-4.0-1.32,79,1,2025-04-29T02:15:41Z,b60275e29fe2361ab97ac0ac217840d7,"Mozilla/5.0 (Windows NT 10.0; Win64; x64) AppleWebKit/537.36 (KHTML, like Gecko) Chrome/135.0.0.0 Safari/537.36",WebKit,Chrome,135.0.0.0,Windows,10,https://5puzkbbxv1.cognition.run/?sona_id=53832,"en-US,en;q=0.9",01k294vrjjm6bbm,19,"[""Asian""]",No,Female,1,Yes,105448.80000019072,NA,329,NA,"{""product_choice"":""B""}",choice,ctd,trinary,repulsion_A,2,washing machines,null,null,null,null,null,null,2,30,40,20,100,90,100,Average lifespan,Energy savings,NA,NA
NA,NA,NA,NA,NA,choice_trial_setup,html-keyboard-response,70,53671,0.0-4.0-0.33,79,1,2025-04-29T02:15:41Z,b60275e29fe2361ab97ac0ac217840d7,"Mozilla/5.0 (Windows NT 10.0; Win64; x64) AppleWebKit/537.36 (KHTML, like Gecko) Chrome/135.0.0.0 Safari/537.36",WebKit,Chrome,135.0.0.0,Windows,10,https://5puzkbbxv1.cognition.run/?sona_id=53832,"en-US,en;q=0.9",01k294vrjjm6bbm,19,"[""Asian""]",No,Female,1,Yes,105448.80000019072,NA,null,<p></p>,null,choice,cdt,trinary,attraction,2,televisions,null,null,null,null,null,null,1,NA,NA,NA,NA,NA,NA,NA,NA,NA,NA
NA,NA,NA,NA,NA,choice_trial,survey-html-form,71,54009,0.0-4.0-1.33,79,1,2025-04-29T02:15:41Z,b60275e29fe2361ab97ac0ac217840d7,"Mozilla/5.0 (Windows NT 10.0; Win64; x64) AppleWebKit/537.36 (KHTML, like Gecko) Chrome/135.0.0.0 Safari/537.36",WebKit,Chrome,135.0.0.0,Windows,10,https://5puzkbbxv1.cognition.run/?sona_id=53832,"en-US,en;q=0.9",01k294vrjjm6bbm,19,"[""Asian""]",No,Female,1,Yes,105448.80000019072,NA,329,NA,"{""product_choice"":""B""}",choice,cdt,trinary,attraction,2,televisions,null,null,null,null,null,null,1,50,60,40,60,50,60,Screen size,Average lifespan,NA,NA
NA,NA,NA,NA,NA,choice_trial_setup,html-keyboard-response,72,54309,0.0-4.0-0.34,79,1,2025-04-29T02:15:41Z,b60275e29fe2361ab97ac0ac217840d7,"Mozilla/5.0 (Windows NT 10.0; Win64; x64) AppleWebKit/537.36 (KHTML, like Gecko) Chrome/135.0.0.0 Safari/537.36",WebKit,Chrome,135.0.0.0,Windows,10,https://5puzkbbxv1.cognition.run/?sona_id=53832,"en-US,en;q=0.9",01k294vrjjm6bbm,19,"[""Asian""]",No,Female,1,Yes,105448.80000019072,NA,297,<p></p>,arrowright,choice,wwb,trinary,catch,null,microwave ovens,95,50,10,45,30,5,1,NA,NA,NA,NA,NA,NA,NA,NA,NA,NA
NA,NA,NA,NA,NA,choice_trial,survey-html-form,73,54666,0.0-4.0-1.34,79,1,2025-04-29T02:15:41Z,b60275e29fe2361ab97ac0ac217840d7,"Mozilla/5.0 (Windows NT 10.0; Win64; x64) AppleWebKit/537.36 (KHTML, like Gecko) Chrome/135.0.0.0 Safari/537.36",WebKit,Chrome,135.0.0.0,Windows,10,https://5puzkbbxv1.cognition.run/?sona_id=53832,"en-US,en;q=0.9",01k294vrjjm6bbm,19,"[""Asian""]",No,Female,1,Yes,105448.80000019072,NA,352,NA,"{""product_choice"":""B""}",choice,wwb,trinary,catch,null,microwave ovens,95,50,10,45,30,5,1,null,null,null,null,null,null,Warranty,Cooking power,NA,NA
NA,NA,NA,NA,NA,choice_trial_setup,html-keyboard-response,74,54890,0.0-4.0-0.35,79,1,2025-04-29T02:15:41Z,b60275e29fe2361ab97ac0ac217840d7,"Mozilla/5.0 (Windows NT 10.0; Win64; x64) AppleWebKit/537.36 (KHTML, like Gecko) Chrome/135.0.0.0 Safari/537.36",WebKit,Chrome,135.0.0.0,Windows,10,https://5puzkbbxv1.cognition.run/?sona_id=53832,"en-US,en;q=0.9",01k294vrjjm6bbm,19,"[""Asian""]",No,Female,1,Yes,105448.80000019072,NA,220,<p></p>,arrowright,choice,tdc,trinary,repulsion_A,2,microwave ovens,null,null,null,null,null,null,2,NA,NA,NA,NA,NA,NA,NA,NA,NA,NA
NA,NA,NA,NA,NA,choice_trial,survey-html-form,75,55200,0.0-4.0-1.35,79,1,2025-04-29T02:15:41Z,b60275e29fe2361ab97ac0ac217840d7,"Mozilla/5.0 (Windows NT 10.0; Win64; x64) AppleWebKit/537.36 (KHTML, like Gecko) Chrome/135.0.0.0 Safari/537.36",WebKit,Chrome,135.0.0.0,Windows,10,https://5puzkbbxv1.cognition.run/?sona_id=53832,"en-US,en;q=0.9",01k294vrjjm6bbm,19,"[""Asian""]",No,Female,1,Yes,105448.80000019072,NA,306,NA,"{""product_choice"":""B""}",choice,tdc,trinary,repulsion_A,2,microwave ovens,null,null,null,null,null,null,2,30,40,20,100,90,100,Warranty,Cooking power,NA,NA
NA,NA,NA,NA,NA,choice_trial_setup,html-keyboard-response,76,55507,0.0-4.0-0.36,79,1,2025-04-29T02:15:41Z,b60275e29fe2361ab97ac0ac217840d7,"Mozilla/5.0 (Windows NT 10.0; Win64; x64) AppleWebKit/537.36 (KHTML, like Gecko) Chrome/135.0.0.0 Safari/537.36",WebKit,Chrome,135.0.0.0,Windows,10,https://5puzkbbxv1.cognition.run/?sona_id=53832,"en-US,en;q=0.9",01k294vrjjm6bbm,19,"[""Asian""]",No,Female,1,Yes,105448.80000019072,NA,null,<p></p>,null,choice,tc,binary,repulsion,2,laptops,null,null,null,null,null,null,2,NA,NA,NA,NA,NA,NA,NA,NA,NA,NA
NA,NA,NA,NA,NA,choice_trial,survey-html-form,77,56301,0.0-4.0-1.36,79,1,2025-04-29T02:15:41Z,b60275e29fe2361ab97ac0ac217840d7,"Mozilla/5.0 (Windows NT 10.0; Win64; x64) AppleWebKit/537.36 (KHTML, like Gecko) Chrome/135.0.0.0 Safari/537.36",WebKit,Chrome,135.0.0.0,Windows,10,https://5puzkbbxv1.cognition.run/?sona_id=53832,"en-US,en;q=0.9",01k294vrjjm6bbm,19,"[""Asian""]",No,Female,1,Yes,105448.80000019072,NA,790,NA,"{""product_choice"":""A""}",choice,tc,binary,repulsion,2,laptops,null,null,null,null,null,null,2,30,40,null,100,90,null,Processing speed,Memory (RAM),NA,NA
NA,NA,NA,NA,NA,choice_trial_setup,html-keyboard-response,78,56609,0.0-4.0-0.37,79,1,2025-04-29T02:15:41Z,b60275e29fe2361ab97ac0ac217840d7,"Mozilla/5.0 (Windows NT 10.0; Win64; x64) AppleWebKit/537.36 (KHTML, like Gecko) Chrome/135.0.0.0 Safari/537.36",WebKit,Chrome,135.0.0.0,Windows,10,https://5puzkbbxv1.cognition.run/?sona_id=53832,"en-US,en;q=0.9",01k294vrjjm6bbm,19,"[""Asian""]",No,Female,1,Yes,105448.80000019072,NA,null,<p></p>,null,choice,dct,trinary,repulsion_A,1,washing machines,null,null,null,null,null,null,1,NA,NA,NA,NA,NA,NA,NA,NA,NA,NA
NA,NA,NA,NA,NA,choice_trial,survey-html-form,79,56902,0.0-4.0-1.37,79,1,2025-04-29T02:15:41Z,b60275e29fe2361ab97ac0ac217840d7,"Mozilla/5.0 (Windows NT 10.0; Win64; x64) AppleWebKit/537.36 (KHTML, like Gecko) Chrome/135.0.0.0 Safari/537.36",WebKit,Chrome,135.0.0.0,Windows,10,https://5puzkbbxv1.cognition.run/?sona_id=53832,"en-US,en;q=0.9",01k294vrjjm6bbm,19,"[""Asian""]",No,Female,1,Yes,105448.80000019072,NA,288,NA,"{""product_choice"":""B""}",choice,dct,trinary,repulsion_A,1,washing machines,null,null,null,null,null,null,1,100,90,100,30,40,20,Average lifespan,Energy savings,NA,NA
NA,NA,NA,NA,NA,choice_trial_setup,html-keyboard-response,80,57216,0.0-4.0-0.38,79,1,2025-04-29T02:15:41Z,b60275e29fe2361ab97ac0ac217840d7,"Mozilla/5.0 (Windows NT 10.0; Win64; x64) AppleWebKit/537.36 (KHTML, like Gecko) Chrome/135.0.0.0 Safari/537.36",WebKit,Chrome,135.0.0.0,Windows,10,https://5puzkbbxv1.cognition.run/?sona_id=53832,"en-US,en;q=0.9",01k294vrjjm6bbm,19,"[""Asian""]",No,Female,1,Yes,105448.80000019072,NA,null,<p></p>,null,choice,tdc,trinary,repulsion_B,2,washing machines,null,null,null,null,null,null,2,NA,NA,NA,NA,NA,NA,NA,NA,NA,NA
NA,NA,NA,NA,NA,choice_trial,survey-html-form,81,58213,0.0-4.0-1.38,79,1,2025-04-29T02:15:41Z,b60275e29fe2361ab97ac0ac217840d7,"Mozilla/5.0 (Windows NT 10.0; Win64; x64) AppleWebKit/537.36 (KHTML, like Gecko) Chrome/135.0.0.0 Safari/537.36",WebKit,Chrome,135.0.0.0,Windows,10,https://5puzkbbxv1.cognition.run/?sona_id=53832,"en-US,en;q=0.9",01k294vrjjm6bbm,19,"[""Asian""]",No,Female,1,Yes,105448.80000019072,NA,992,NA,"{""product_choice"":""B""}",choice,tdc,trinary,repulsion_B,2,washing machines,null,null,null,null,null,null,2,40,30,40,90,100,80,Average lifespan,Energy savings,NA,NA
NA,NA,NA,NA,NA,choice_trial_setup,html-keyboard-response,82,58518,0.0-4.0-0.39,79,1,2025-04-29T02:15:41Z,b60275e29fe2361ab97ac0ac217840d7,"Mozilla/5.0 (Windows NT 10.0; Win64; x64) AppleWebKit/537.36 (KHTML, like Gecko) Chrome/135.0.0.0 Safari/537.36",WebKit,Chrome,135.0.0.0,Windows,10,https://5puzkbbxv1.cognition.run/?sona_id=53832,"en-US,en;q=0.9",01k294vrjjm6bbm,19,"[""Asian""]",No,Female,1,Yes,105448.80000019072,NA,null,<p></p>,null,choice,bww,trinary,catch,null,televisions,80,85,10,40,30,45,1,NA,NA,NA,NA,NA,NA,NA,NA,NA,NA
NA,NA,NA,NA,NA,choice_trial,survey-html-form,83,58924,0.0-4.0-1.39,79,1,2025-04-29T02:15:41Z,b60275e29fe2361ab97ac0ac217840d7,"Mozilla/5.0 (Windows NT 10.0; Win64; x64) AppleWebKit/537.36 (KHTML, like Gecko) Chrome/135.0.0.0 Safari/537.36",WebKit,Chrome,135.0.0.0,Windows,10,https://5puzkbbxv1.cognition.run/?sona_id=53832,"en-US,en;q=0.9",01k294vrjjm6bbm,19,"[""Asian""]",No,Female,1,Yes,105448.80000019072,NA,399,NA,"{""product_choice"":""B""}",choice,bww,trinary,catch,null,televisions,80,85,10,40,30,45,1,null,null,null,null,null,null,Screen size,Average lifespan,NA,NA
NA,NA,NA,NA,NA,choice_trial_setup,html-keyboard-response,84,59232,0.0-4.0-0.40,79,1,2025-04-29T02:15:41Z,b60275e29fe2361ab97ac0ac217840d7,"Mozilla/5.0 (Windows NT 10.0; Win64; x64) AppleWebKit/537.36 (KHTML, like Gecko) Chrome/135.0.0.0 Safari/537.36",WebKit,Chrome,135.0.0.0,Windows,10,https://5puzkbbxv1.cognition.run/?sona_id=53832,"en-US,en;q=0.9",01k294vrjjm6bbm,19,"[""Asian""]",No,Female,1,Yes,105448.80000019072,NA,null,<p></p>,null,choice,dct,trinary,attraction,2,laptops,null,null,null,null,null,null,2,NA,NA,NA,NA,NA,NA,NA,NA,NA,NA
NA,NA,NA,NA,NA,choice_trial,survey-html-form,85,60387,0.0-4.0-1.40,79,1,2025-04-29T02:15:41Z,b60275e29fe2361ab97ac0ac217840d7,"Mozilla/5.0 (Windows NT 10.0; Win64; x64) AppleWebKit/537.36 (KHTML, like Gecko) Chrome/135.0.0.0 Safari/537.36",WebKit,Chrome,135.0.0.0,Windows,10,https://5puzkbbxv1.cognition.run/?sona_id=53832,"en-US,en;q=0.9",01k294vrjjm6bbm,19,"[""Asian""]",No,Female,1,Yes,105448.80000019072,NA,1149,NA,"{""product_choice"":""C""}",choice,dct,trinary,attraction,2,laptops,null,null,null,null,null,null,2,50,60,40,60,50,60,Processing speed,Memory (RAM),NA,NA
NA,NA,NA,NA,NA,choice_trial_setup,html-keyboard-response,86,60696,0.0-4.0-0.41,79,1,2025-04-29T02:15:41Z,b60275e29fe2361ab97ac0ac217840d7,"Mozilla/5.0 (Windows NT 10.0; Win64; x64) AppleWebKit/537.36 (KHTML, like Gecko) Chrome/135.0.0.0 Safari/537.36",WebKit,Chrome,135.0.0.0,Windows,10,https://5puzkbbxv1.cognition.run/?sona_id=53832,"en-US,en;q=0.9",01k294vrjjm6bbm,19,"[""Asian""]",No,Female,1,Yes,105448.80000019072,NA,null,<p></p>,null,choice,bw,binary,catch,null,televisions,80,60,10,30,null,null,1,NA,NA,NA,NA,NA,NA,NA,NA,NA,NA
NA,NA,NA,NA,NA,choice_trial,survey-html-form,87,61137,0.0-4.0-1.41,79,1,2025-04-29T02:15:41Z,b60275e29fe2361ab97ac0ac217840d7,"Mozilla/5.0 (Windows NT 10.0; Win64; x64) AppleWebKit/537.36 (KHTML, like Gecko) Chrome/135.0.0.0 Safari/537.36",WebKit,Chrome,135.0.0.0,Windows,10,https://5puzkbbxv1.cognition.run/?sona_id=53832,"en-US,en;q=0.9",01k294vrjjm6bbm,19,"[""Asian""]",No,Female,1,Yes,105448.80000019072,NA,433,NA,"{""product_choice"":""A""}",choice,bw,binary,catch,null,televisions,80,60,10,30,null,null,1,null,null,null,null,null,null,Screen size,Average lifespan,NA,NA
NA,NA,NA,NA,NA,choice_trial_setup,html-keyboard-response,88,61443,0.0-4.0-0.42,79,1,2025-04-29T02:15:41Z,b60275e29fe2361ab97ac0ac217840d7,"Mozilla/5.0 (Windows NT 10.0; Win64; x64) AppleWebKit/537.36 (KHTML, like Gecko) Chrome/135.0.0.0 Safari/537.36",WebKit,Chrome,135.0.0.0,Windows,10,https://5puzkbbxv1.cognition.run/?sona_id=53832,"en-US,en;q=0.9",01k294vrjjm6bbm,19,"[""Asian""]",No,Female,1,Yes,105448.80000019072,NA,null,<p></p>,null,choice,tc,binary,repulsion,1,laptops,null,null,null,null,null,null,2,NA,NA,NA,NA,NA,NA,NA,NA,NA,NA
NA,NA,NA,NA,NA,choice_trial,survey-html-form,89,61816,0.0-4.0-1.42,79,1,2025-04-29T02:15:41Z,b60275e29fe2361ab97ac0ac217840d7,"Mozilla/5.0 (Windows NT 10.0; Win64; x64) AppleWebKit/537.36 (KHTML, like Gecko) Chrome/135.0.0.0 Safari/537.36",WebKit,Chrome,135.0.0.0,Windows,10,https://5puzkbbxv1.cognition.run/?sona_id=53832,"en-US,en;q=0.9",01k294vrjjm6bbm,19,"[""Asian""]",No,Female,1,Yes,105448.80000019072,NA,366,NA,"{""product_choice"":""A""}",choice,tc,binary,repulsion,1,laptops,null,null,null,null,null,null,2,100,90,null,30,40,null,Processing speed,Memory (RAM),NA,NA
NA,NA,NA,NA,NA,choice_trial_setup,html-keyboard-response,90,62121,0.0-4.0-0.43,79,1,2025-04-29T02:15:41Z,b60275e29fe2361ab97ac0ac217840d7,"Mozilla/5.0 (Windows NT 10.0; Win64; x64) AppleWebKit/537.36 (KHTML, like Gecko) Chrome/135.0.0.0 Safari/537.36",WebKit,Chrome,135.0.0.0,Windows,10,https://5puzkbbxv1.cognition.run/?sona_id=53832,"en-US,en;q=0.9",01k294vrjjm6bbm,19,"[""Asian""]",No,Female,1,Yes,105448.80000019072,NA,null,<p></p>,null,choice,ct,binary,repulsion,1,microwave ovens,null,null,null,null,null,null,1,NA,NA,NA,NA,NA,NA,NA,NA,NA,NA
NA,NA,NA,NA,NA,choice_trial,survey-html-form,91,62495,0.0-4.0-1.43,79,1,2025-04-29T02:15:41Z,b60275e29fe2361ab97ac0ac217840d7,"Mozilla/5.0 (Windows NT 10.0; Win64; x64) AppleWebKit/537.36 (KHTML, like Gecko) Chrome/135.0.0.0 Safari/537.36",WebKit,Chrome,135.0.0.0,Windows,10,https://5puzkbbxv1.cognition.run/?sona_id=53832,"en-US,en;q=0.9",01k294vrjjm6bbm,19,"[""Asian""]",No,Female,1,Yes,105448.80000019072,NA,368,NA,"{""product_choice"":""A""}",choice,ct,binary,repulsion,1,microwave ovens,null,null,null,null,null,null,1,100,90,null,30,40,null,Warranty,Cooking power,NA,NA
NA,NA,NA,NA,NA,post_trials_message,html-button-response,92,64947,0.0-5.0,79,1,2025-04-29T02:15:41Z,b60275e29fe2361ab97ac0ac217840d7,"Mozilla/5.0 (Windows NT 10.0; Win64; x64) AppleWebKit/537.36 (KHTML, like Gecko) Chrome/135.0.0.0 Safari/537.36",WebKit,Chrome,135.0.0.0,Windows,10,https://5puzkbbxv1.cognition.run/?sona_id=53832,"en-US,en;q=0.9",01k294vrjjm6bbm,19,"[""Asian""]",No,Female,1,Yes,105448.80000019072,NA,2445,<p> <b>Thank you for your patience!</b></p><p>  The study will be done after completing a brief form. </p>,0,NA,NA,NA,NA,NA,NA,NA,NA,NA,NA,NA,NA,NA,NA,NA,NA,NA,NA,NA,NA,NA,NA,NA
NA,NA,NA,NA,NA,survey_message,survey-text,93,75886,0.0-6.0,79,1,2025-04-29T02:15:41Z,b60275e29fe2361ab97ac0ac217840d7,"Mozilla/5.0 (Windows NT 10.0; Win64; x64) AppleWebKit/537.36 (KHTML, like Gecko) Chrome/135.0.0.0 Safari/537.36",WebKit,Chrome,135.0.0.0,Windows,10,https://5puzkbbxv1.cognition.run/?sona_id=53832,"en-US,en;q=0.9",01k294vrjjm6bbm,19,"[""Asian""]",No,Female,1,Yes,105448.80000019072,NA,10903,NA,"{""Q0"":""memory""}",NA,NA,NA,NA,NA,NA,NA,NA,NA,NA,NA,NA,NA,NA,NA,NA,NA,NA,NA,NA,NA,memory,NA
NA,NA,NA,NA,NA,demo_age,survey-text,94,78504,0.0-7.0,79,1,2025-04-29T02:15:41Z,b60275e29fe2361ab97ac0ac217840d7,"Mozilla/5.0 (Windows NT 10.0; Win64; x64) AppleWebKit/537.36 (KHTML, like Gecko) Chrome/135.0.0.0 Safari/537.36",WebKit,Chrome,135.0.0.0,Windows,10,https://5puzkbbxv1.cognition.run/?sona_id=53832,"en-US,en;q=0.9",01k294vrjjm6bbm,19,"[""Asian""]",No,Female,1,Yes,105448.80000019072,NA,2609,NA,"{""Q0"":""19""}",NA,NA,NA,NA,NA,NA,NA,NA,NA,NA,NA,NA,NA,NA,NA,NA,NA,NA,NA,NA,NA,NA,NA
NA,NA,NA,NA,NA,demo_race,survey-multi-select,95,85158,0.0-8.0,79,1,2025-04-29T02:15:41Z,b60275e29fe2361ab97ac0ac217840d7,"Mozilla/5.0 (Windows NT 10.0; Win64; x64) AppleWebKit/537.36 (KHTML, like Gecko) Chrome/135.0.0.0 Safari/537.36",WebKit,Chrome,135.0.0.0,Windows,10,https://5puzkbbxv1.cognition.run/?sona_id=53832,"en-US,en;q=0.9",01k294vrjjm6bbm,19,"[""Asian""]",No,Female,1,Yes,105448.80000019072,NA,6644,NA,"{""Q0"":[""Asian""]}",NA,NA,NA,NA,NA,NA,NA,NA,NA,NA,NA,NA,NA,NA,NA,NA,NA,NA,NA,NA,NA,NA,[0]
NA,NA,NA,NA,NA,demo_ethnicity_gender,survey-multi-choice,96,88676,0.0-9.0,79,1,2025-04-29T02:15:41Z,b60275e29fe2361ab97ac0ac217840d7,"Mozilla/5.0 (Windows NT 10.0; Win64; x64) AppleWebKit/537.36 (KHTML, like Gecko) Chrome/135.0.0.0 Safari/537.36",WebKit,Chrome,135.0.0.0,Windows,10,https://5puzkbbxv1.cognition.run/?sona_id=53832,"en-US,en;q=0.9",01k294vrjjm6bbm,19,"[""Asian""]",No,Female,1,Yes,105448.80000019072,NA,3509,NA,"{""Q0"":""No"",""Q1"":""Female""}",NA,NA,NA,NA,NA,NA,NA,NA,NA,NA,NA,NA,NA,NA,NA,NA,NA,NA,NA,NA,NA,NA,"[0,1]"
NA,NA,NA,NA,NA,demo_countries,survey-text,97,91958,0.0-10.0,79,1,2025-04-29T02:15:41Z,b60275e29fe2361ab97ac0ac217840d7,"Mozilla/5.0 (Windows NT 10.0; Win64; x64) AppleWebKit/537.36 (KHTML, like Gecko) Chrome/135.0.0.0 Safari/537.36",WebKit,Chrome,135.0.0.0,Windows,10,https://5puzkbbxv1.cognition.run/?sona_id=53832,"en-US,en;q=0.9",01k294vrjjm6bbm,19,"[""Asian""]",No,Female,1,Yes,105448.80000019072,NA,3259,NA,"{""Q0"":""1""}",NA,NA,NA,NA,NA,NA,NA,NA,NA,NA,NA,NA,NA,NA,NA,NA,NA,NA,NA,NA,NA,NA,NA
NA,NA,NA,NA,NA,demo_prev_study,survey-multi-choice,98,95603,0.0-11.0,79,1,2025-04-29T02:15:41Z,b60275e29fe2361ab97ac0ac217840d7,"Mozilla/5.0 (Windows NT 10.0; Win64; x64) AppleWebKit/537.36 (KHTML, like Gecko) Chrome/135.0.0.0 Safari/537.36",WebKit,Chrome,135.0.0.0,Windows,10,https://5puzkbbxv1.cognition.run/?sona_id=53832,"en-US,en;q=0.9",01k294vrjjm6bbm,19,"[""Asian""]",No,Female,1,Yes,105448.80000019072,NA,3637,NA,"{""Q0"":""Yes""}",NA,NA,NA,NA,NA,NA,NA,NA,NA,NA,NA,NA,NA,NA,NA,NA,NA,NA,NA,NA,NA,NA,[0]
NA,NA,NA,NA,NA,post_survey_message,html-keyboard-response,99,100481,0.0-12.0,79,1,2025-04-29T02:15:41Z,b60275e29fe2361ab97ac0ac217840d7,"Mozilla/5.0 (Windows NT 10.0; Win64; x64) AppleWebKit/537.36 (KHTML, like Gecko) Chrome/135.0.0.0 Safari/537.36",WebKit,Chrome,135.0.0.0,Windows,10,https://5puzkbbxv1.cognition.run/?sona_id=53832,"en-US,en;q=0.9",01k294vrjjm6bbm,19,"[""Asian""]",No,Female,1,Yes,105448.80000019072,NA,4870,NA,j,NA,NA,NA,NA,NA,NA,NA,NA,NA,NA,NA,NA,NA,NA,NA,NA,NA,NA,NA,NA,NA,NA,NA
NA,NA,NA,NA,NA,debrief,image-keyboard-response,100,105443,0.0-13.0,79,1,2025-04-29T02:15:41Z,b60275e29fe2361ab97ac0ac217840d7,"Mozilla/5.0 (Windows NT 10.0; Win64; x64) AppleWebKit/537.36 (KHTML, like Gecko) Chrome/135.0.0.0 Safari/537.36",WebKit,Chrome,135.0.0.0,Windows,10,https://5puzkbbxv1.cognition.run/?sona_id=53832,"en-US,en;q=0.9",01k294vrjjm6bbm,19,"[""Asian""]",No,Female,1,Yes,105448.80000019072,NA,4922,Judg_choice_debrief.png,p,NA,NA,NA,NA,NA,NA,NA,NA,NA,NA,NA,NA,NA,NA,NA,NA,NA,NA,NA,NA,NA,NA,NA
