success,timeout,failed_images,failed_audio,failed_video,screen_id,trial_type,trial_index,time_elapsed,internal_node_id,run_id,condition,recorded_at,source_code_version,user_agent,device,browser,browser_version,platform,platform_version,referer,accept_language,ppt_id,age,race,ethnicity,gender,other_countries,prev_study,exp_duration,view_history,rt,stimulus,response,phase,order,set,effect,t_high,category,d1_best,d2_best,d1_worst1,d2_worst1,d1_worst2,d2_worst2,first_dim,d1_t,d1_c,d1_d,d2_t,d2_c,d2_d,d1_name,d2_name,strategy_response,question_order
TRUE,FALSE,[],[],[],img preload,preload,0,619,0.0-0.0,80,1,2025-04-29T04:06:43Z,b60275e29fe2361ab97ac0ac217840d7,"Mozilla/5.0 (Windows NT 10.0; Win64; x64) AppleWebKit/537.36 (KHTML, like Gecko) Chrome/135.0.0.0 Safari/537.36",WebKit,Chrome,135.0.0.0,Windows,10,https://5puzkbbxv1.cognition.run/?sona_id=56986,"en-US,en;q=0.9,zh-TW;q=0.8,zh;q=0.7",519ras0ykn2cyhm,21,"[""Asian""]",No,Male,China,No,477541.5,NA,NA,NA,NA,NA,NA,NA,NA,NA,NA,NA,NA,NA,NA,NA,NA,NA,NA,NA,NA,NA,NA,NA,NA,NA,NA,NA
NA,NA,NA,NA,NA,computer_message,instructions,1,4890,0.0-1.0,80,1,2025-04-29T04:06:43Z,b60275e29fe2361ab97ac0ac217840d7,"Mozilla/5.0 (Windows NT 10.0; Win64; x64) AppleWebKit/537.36 (KHTML, like Gecko) Chrome/135.0.0.0 Safari/537.36",WebKit,Chrome,135.0.0.0,Windows,10,https://5puzkbbxv1.cognition.run/?sona_id=56986,"en-US,en;q=0.9,zh-TW;q=0.8,zh;q=0.7",519ras0ykn2cyhm,21,"[""Asian""]",No,Male,China,No,477541.5,"[{""page_index"":0,""viewing_time"":4270}]",4270,NA,NA,NA,NA,NA,NA,NA,NA,NA,NA,NA,NA,NA,NA,NA,NA,NA,NA,NA,NA,NA,NA,NA,NA,NA
TRUE,NA,NA,NA,NA,NA,fullscreen,2,8350,0.0-2.0,80,1,2025-04-29T04:06:43Z,b60275e29fe2361ab97ac0ac217840d7,"Mozilla/5.0 (Windows NT 10.0; Win64; x64) AppleWebKit/537.36 (KHTML, like Gecko) Chrome/135.0.0.0 Safari/537.36",WebKit,Chrome,135.0.0.0,Windows,10,https://5puzkbbxv1.cognition.run/?sona_id=56986,"en-US,en;q=0.9,zh-TW;q=0.8,zh;q=0.7",519ras0ykn2cyhm,21,"[""Asian""]",No,Male,China,No,477541.5,NA,2442,NA,NA,NA,NA,NA,NA,NA,NA,NA,NA,NA,NA,NA,NA,NA,NA,NA,NA,NA,NA,NA,NA,NA,NA,NA
NA,NA,NA,NA,NA,choice_instructions,instructions,3,43093,0.0-3.0,80,1,2025-04-29T04:06:43Z,b60275e29fe2361ab97ac0ac217840d7,"Mozilla/5.0 (Windows NT 10.0; Win64; x64) AppleWebKit/537.36 (KHTML, like Gecko) Chrome/135.0.0.0 Safari/537.36",WebKit,Chrome,135.0.0.0,Windows,10,https://5puzkbbxv1.cognition.run/?sona_id=56986,"en-US,en;q=0.9,zh-TW;q=0.8,zh;q=0.7",519ras0ykn2cyhm,21,"[""Asian""]",No,Male,China,No,477541.5,"[{""page_index"":0,""viewing_time"":1636},{""page_index"":1,""viewing_time"":4552},{""page_index"":2,""viewing_time"":6637},{""page_index"":3,""viewing_time"":4445},{""page_index"":4,""viewing_time"":1433},{""page_index"":5,""viewing_time"":12190},{""page_index"":6,""viewing_time"":3850}]",34743,NA,NA,NA,NA,NA,NA,NA,NA,NA,NA,NA,NA,NA,NA,NA,NA,NA,NA,NA,NA,NA,NA,NA,NA,NA
NA,NA,NA,NA,NA,choice_trial_setup,html-keyboard-response,4,43395,0.0-4.0-0.0,80,1,2025-04-29T04:06:43Z,b60275e29fe2361ab97ac0ac217840d7,"Mozilla/5.0 (Windows NT 10.0; Win64; x64) AppleWebKit/537.36 (KHTML, like Gecko) Chrome/135.0.0.0 Safari/537.36",WebKit,Chrome,135.0.0.0,Windows,10,https://5puzkbbxv1.cognition.run/?sona_id=56986,"en-US,en;q=0.9,zh-TW;q=0.8,zh;q=0.7",519ras0ykn2cyhm,21,"[""Asian""]",No,Male,China,No,477541.5,NA,null,<p></p>,null,choice,dct,trinary,repulsion_A,1,laptops,null,null,null,null,null,null,2,NA,NA,NA,NA,NA,NA,NA,NA,NA,NA
NA,NA,NA,NA,NA,choice_trial,survey-html-form,5,71833,0.0-4.0-1.0,80,1,2025-04-29T04:06:43Z,b60275e29fe2361ab97ac0ac217840d7,"Mozilla/5.0 (Windows NT 10.0; Win64; x64) AppleWebKit/537.36 (KHTML, like Gecko) Chrome/135.0.0.0 Safari/537.36",WebKit,Chrome,135.0.0.0,Windows,10,https://5puzkbbxv1.cognition.run/?sona_id=56986,"en-US,en;q=0.9,zh-TW;q=0.8,zh;q=0.7",519ras0ykn2cyhm,21,"[""Asian""]",No,Male,China,No,477541.5,NA,28435,NA,"{""product_choice"":""C""}",choice,dct,trinary,repulsion_A,1,laptops,null,null,null,null,null,null,2,100,90,100,30,40,20,Processing speed,Memory (RAM),NA,NA
NA,NA,NA,NA,NA,choice_trial_setup,html-keyboard-response,6,72135,0.0-4.0-0.1,80,1,2025-04-29T04:06:43Z,b60275e29fe2361ab97ac0ac217840d7,"Mozilla/5.0 (Windows NT 10.0; Win64; x64) AppleWebKit/537.36 (KHTML, like Gecko) Chrome/135.0.0.0 Safari/537.36",WebKit,Chrome,135.0.0.0,Windows,10,https://5puzkbbxv1.cognition.run/?sona_id=56986,"en-US,en;q=0.9,zh-TW;q=0.8,zh;q=0.7",519ras0ykn2cyhm,21,"[""Asian""]",No,Male,China,No,477541.5,NA,null,<p></p>,null,choice,ct,binary,repulsion,2,microwave ovens,null,null,null,null,null,null,2,NA,NA,NA,NA,NA,NA,NA,NA,NA,NA
NA,NA,NA,NA,NA,choice_trial,survey-html-form,7,82174,0.0-4.0-1.1,80,1,2025-04-29T04:06:43Z,b60275e29fe2361ab97ac0ac217840d7,"Mozilla/5.0 (Windows NT 10.0; Win64; x64) AppleWebKit/537.36 (KHTML, like Gecko) Chrome/135.0.0.0 Safari/537.36",WebKit,Chrome,135.0.0.0,Windows,10,https://5puzkbbxv1.cognition.run/?sona_id=56986,"en-US,en;q=0.9,zh-TW;q=0.8,zh;q=0.7",519ras0ykn2cyhm,21,"[""Asian""]",No,Male,China,No,477541.5,NA,10038,NA,"{""product_choice"":""A""}",choice,ct,binary,repulsion,2,microwave ovens,null,null,null,null,null,null,2,30,40,null,100,90,null,Warranty,Cooking power,NA,NA
NA,NA,NA,NA,NA,choice_trial_setup,html-keyboard-response,8,82477,0.0-4.0-0.2,80,1,2025-04-29T04:06:43Z,b60275e29fe2361ab97ac0ac217840d7,"Mozilla/5.0 (Windows NT 10.0; Win64; x64) AppleWebKit/537.36 (KHTML, like Gecko) Chrome/135.0.0.0 Safari/537.36",WebKit,Chrome,135.0.0.0,Windows,10,https://5puzkbbxv1.cognition.run/?sona_id=56986,"en-US,en;q=0.9,zh-TW;q=0.8,zh;q=0.7",519ras0ykn2cyhm,21,"[""Asian""]",No,Male,China,No,477541.5,NA,null,<p></p>,null,choice,tc,binary,repulsion,2,washing machines,null,null,null,null,null,null,1,NA,NA,NA,NA,NA,NA,NA,NA,NA,NA
NA,NA,NA,NA,NA,choice_trial,survey-html-form,9,91636,0.0-4.0-1.2,80,1,2025-04-29T04:06:43Z,b60275e29fe2361ab97ac0ac217840d7,"Mozilla/5.0 (Windows NT 10.0; Win64; x64) AppleWebKit/537.36 (KHTML, like Gecko) Chrome/135.0.0.0 Safari/537.36",WebKit,Chrome,135.0.0.0,Windows,10,https://5puzkbbxv1.cognition.run/?sona_id=56986,"en-US,en;q=0.9,zh-TW;q=0.8,zh;q=0.7",519ras0ykn2cyhm,21,"[""Asian""]",No,Male,China,No,477541.5,NA,9158,NA,"{""product_choice"":""A""}",choice,tc,binary,repulsion,2,washing machines,null,null,null,null,null,null,1,30,40,null,100,90,null,Average lifespan,Energy savings,NA,NA
NA,NA,NA,NA,NA,choice_trial_setup,html-keyboard-response,10,91938,0.0-4.0-0.3,80,1,2025-04-29T04:06:43Z,b60275e29fe2361ab97ac0ac217840d7,"Mozilla/5.0 (Windows NT 10.0; Win64; x64) AppleWebKit/537.36 (KHTML, like Gecko) Chrome/135.0.0.0 Safari/537.36",WebKit,Chrome,135.0.0.0,Windows,10,https://5puzkbbxv1.cognition.run/?sona_id=56986,"en-US,en;q=0.9,zh-TW;q=0.8,zh;q=0.7",519ras0ykn2cyhm,21,"[""Asian""]",No,Male,China,No,477541.5,NA,null,<p></p>,null,choice,dct,trinary,repulsion_B,2,televisions,null,null,null,null,null,null,2,NA,NA,NA,NA,NA,NA,NA,NA,NA,NA
NA,NA,NA,NA,NA,choice_trial,survey-html-form,11,103417,0.0-4.0-1.3,80,1,2025-04-29T04:06:43Z,b60275e29fe2361ab97ac0ac217840d7,"Mozilla/5.0 (Windows NT 10.0; Win64; x64) AppleWebKit/537.36 (KHTML, like Gecko) Chrome/135.0.0.0 Safari/537.36",WebKit,Chrome,135.0.0.0,Windows,10,https://5puzkbbxv1.cognition.run/?sona_id=56986,"en-US,en;q=0.9,zh-TW;q=0.8,zh;q=0.7",519ras0ykn2cyhm,21,"[""Asian""]",No,Male,China,No,477541.5,NA,11478,NA,"{""product_choice"":""C""}",choice,dct,trinary,repulsion_B,2,televisions,null,null,null,null,null,null,2,40,30,40,90,100,80,Screen size,Average lifespan,NA,NA
NA,NA,NA,NA,NA,choice_trial_setup,html-keyboard-response,12,103718,0.0-4.0-0.4,80,1,2025-04-29T04:06:43Z,b60275e29fe2361ab97ac0ac217840d7,"Mozilla/5.0 (Windows NT 10.0; Win64; x64) AppleWebKit/537.36 (KHTML, like Gecko) Chrome/135.0.0.0 Safari/537.36",WebKit,Chrome,135.0.0.0,Windows,10,https://5puzkbbxv1.cognition.run/?sona_id=56986,"en-US,en;q=0.9,zh-TW;q=0.8,zh;q=0.7",519ras0ykn2cyhm,21,"[""Asian""]",No,Male,China,No,477541.5,NA,null,<p></p>,null,choice,tdc,trinary,attraction,2,laptops,null,null,null,null,null,null,1,NA,NA,NA,NA,NA,NA,NA,NA,NA,NA
NA,NA,NA,NA,NA,choice_trial,survey-html-form,13,109497,0.0-4.0-1.4,80,1,2025-04-29T04:06:43Z,b60275e29fe2361ab97ac0ac217840d7,"Mozilla/5.0 (Windows NT 10.0; Win64; x64) AppleWebKit/537.36 (KHTML, like Gecko) Chrome/135.0.0.0 Safari/537.36",WebKit,Chrome,135.0.0.0,Windows,10,https://5puzkbbxv1.cognition.run/?sona_id=56986,"en-US,en;q=0.9,zh-TW;q=0.8,zh;q=0.7",519ras0ykn2cyhm,21,"[""Asian""]",No,Male,China,No,477541.5,NA,5777,NA,"{""product_choice"":""C""}",choice,tdc,trinary,attraction,2,laptops,null,null,null,null,null,null,1,50,60,40,60,50,60,Processing speed,Memory (RAM),NA,NA
NA,NA,NA,NA,NA,choice_trial_setup,html-keyboard-response,14,109800,0.0-4.0-0.5,80,1,2025-04-29T04:06:43Z,b60275e29fe2361ab97ac0ac217840d7,"Mozilla/5.0 (Windows NT 10.0; Win64; x64) AppleWebKit/537.36 (KHTML, like Gecko) Chrome/135.0.0.0 Safari/537.36",WebKit,Chrome,135.0.0.0,Windows,10,https://5puzkbbxv1.cognition.run/?sona_id=56986,"en-US,en;q=0.9,zh-TW;q=0.8,zh;q=0.7",519ras0ykn2cyhm,21,"[""Asian""]",No,Male,China,No,477541.5,NA,null,<p></p>,null,choice,tc,binary,repulsion,1,washing machines,null,null,null,null,null,null,1,NA,NA,NA,NA,NA,NA,NA,NA,NA,NA
NA,NA,NA,NA,NA,choice_trial,survey-html-form,15,115625,0.0-4.0-1.5,80,1,2025-04-29T04:06:43Z,b60275e29fe2361ab97ac0ac217840d7,"Mozilla/5.0 (Windows NT 10.0; Win64; x64) AppleWebKit/537.36 (KHTML, like Gecko) Chrome/135.0.0.0 Safari/537.36",WebKit,Chrome,135.0.0.0,Windows,10,https://5puzkbbxv1.cognition.run/?sona_id=56986,"en-US,en;q=0.9,zh-TW;q=0.8,zh;q=0.7",519ras0ykn2cyhm,21,"[""Asian""]",No,Male,China,No,477541.5,NA,5824,NA,"{""product_choice"":""B""}",choice,tc,binary,repulsion,1,washing machines,null,null,null,null,null,null,1,100,90,null,30,40,null,Average lifespan,Energy savings,NA,NA
NA,NA,NA,NA,NA,choice_trial_setup,html-keyboard-response,16,115927,0.0-4.0-0.6,80,1,2025-04-29T04:06:43Z,b60275e29fe2361ab97ac0ac217840d7,"Mozilla/5.0 (Windows NT 10.0; Win64; x64) AppleWebKit/537.36 (KHTML, like Gecko) Chrome/135.0.0.0 Safari/537.36",WebKit,Chrome,135.0.0.0,Windows,10,https://5puzkbbxv1.cognition.run/?sona_id=56986,"en-US,en;q=0.9,zh-TW;q=0.8,zh;q=0.7",519ras0ykn2cyhm,21,"[""Asian""]",No,Male,China,No,477541.5,NA,null,<p></p>,null,choice,tdc,trinary,repulsion_A,2,laptops,null,null,null,null,null,null,2,NA,NA,NA,NA,NA,NA,NA,NA,NA,NA
NA,NA,NA,NA,NA,choice_trial,survey-html-form,17,125609,0.0-4.0-1.6,80,1,2025-04-29T04:06:43Z,b60275e29fe2361ab97ac0ac217840d7,"Mozilla/5.0 (Windows NT 10.0; Win64; x64) AppleWebKit/537.36 (KHTML, like Gecko) Chrome/135.0.0.0 Safari/537.36",WebKit,Chrome,135.0.0.0,Windows,10,https://5puzkbbxv1.cognition.run/?sona_id=56986,"en-US,en;q=0.9,zh-TW;q=0.8,zh;q=0.7",519ras0ykn2cyhm,21,"[""Asian""]",No,Male,China,No,477541.5,NA,9679,NA,"{""product_choice"":""C""}",choice,tdc,trinary,repulsion_A,2,laptops,null,null,null,null,null,null,2,30,40,20,100,90,100,Processing speed,Memory (RAM),NA,NA
NA,NA,NA,NA,NA,choice_trial_setup,html-keyboard-response,18,125910,0.0-4.0-0.7,80,1,2025-04-29T04:06:43Z,b60275e29fe2361ab97ac0ac217840d7,"Mozilla/5.0 (Windows NT 10.0; Win64; x64) AppleWebKit/537.36 (KHTML, like Gecko) Chrome/135.0.0.0 Safari/537.36",WebKit,Chrome,135.0.0.0,Windows,10,https://5puzkbbxv1.cognition.run/?sona_id=56986,"en-US,en;q=0.9,zh-TW;q=0.8,zh;q=0.7",519ras0ykn2cyhm,21,"[""Asian""]",No,Male,China,No,477541.5,NA,null,<p></p>,null,choice,bw,binary,catch,null,televisions,55,90,35,20,null,null,2,NA,NA,NA,NA,NA,NA,NA,NA,NA,NA
NA,NA,NA,NA,NA,choice_trial,survey-html-form,19,131748,0.0-4.0-1.7,80,1,2025-04-29T04:06:43Z,b60275e29fe2361ab97ac0ac217840d7,"Mozilla/5.0 (Windows NT 10.0; Win64; x64) AppleWebKit/537.36 (KHTML, like Gecko) Chrome/135.0.0.0 Safari/537.36",WebKit,Chrome,135.0.0.0,Windows,10,https://5puzkbbxv1.cognition.run/?sona_id=56986,"en-US,en;q=0.9,zh-TW;q=0.8,zh;q=0.7",519ras0ykn2cyhm,21,"[""Asian""]",No,Male,China,No,477541.5,NA,5836,NA,"{""product_choice"":""A""}",choice,bw,binary,catch,null,televisions,55,90,35,20,null,null,2,null,null,null,null,null,null,Screen size,Average lifespan,NA,NA
NA,NA,NA,NA,NA,choice_trial_setup,html-keyboard-response,20,132050,0.0-4.0-0.8,80,1,2025-04-29T04:06:43Z,b60275e29fe2361ab97ac0ac217840d7,"Mozilla/5.0 (Windows NT 10.0; Win64; x64) AppleWebKit/537.36 (KHTML, like Gecko) Chrome/135.0.0.0 Safari/537.36",WebKit,Chrome,135.0.0.0,Windows,10,https://5puzkbbxv1.cognition.run/?sona_id=56986,"en-US,en;q=0.9,zh-TW;q=0.8,zh;q=0.7",519ras0ykn2cyhm,21,"[""Asian""]",No,Male,China,No,477541.5,NA,null,<p></p>,null,choice,wbw,trinary,catch,null,washing machines,80,55,30,25,40,20,2,NA,NA,NA,NA,NA,NA,NA,NA,NA,NA
NA,NA,NA,NA,NA,choice_trial,survey-html-form,21,137982,0.0-4.0-1.8,80,1,2025-04-29T04:06:43Z,b60275e29fe2361ab97ac0ac217840d7,"Mozilla/5.0 (Windows NT 10.0; Win64; x64) AppleWebKit/537.36 (KHTML, like Gecko) Chrome/135.0.0.0 Safari/537.36",WebKit,Chrome,135.0.0.0,Windows,10,https://5puzkbbxv1.cognition.run/?sona_id=56986,"en-US,en;q=0.9,zh-TW;q=0.8,zh;q=0.7",519ras0ykn2cyhm,21,"[""Asian""]",No,Male,China,No,477541.5,NA,5929,NA,"{""product_choice"":""B""}",choice,wbw,trinary,catch,null,washing machines,80,55,30,25,40,20,2,null,null,null,null,null,null,Average lifespan,Energy savings,NA,NA
NA,NA,NA,NA,NA,choice_trial_setup,html-keyboard-response,22,138284,0.0-4.0-0.9,80,1,2025-04-29T04:06:43Z,b60275e29fe2361ab97ac0ac217840d7,"Mozilla/5.0 (Windows NT 10.0; Win64; x64) AppleWebKit/537.36 (KHTML, like Gecko) Chrome/135.0.0.0 Safari/537.36",WebKit,Chrome,135.0.0.0,Windows,10,https://5puzkbbxv1.cognition.run/?sona_id=56986,"en-US,en;q=0.9,zh-TW;q=0.8,zh;q=0.7",519ras0ykn2cyhm,21,"[""Asian""]",No,Male,China,No,477541.5,NA,null,<p></p>,null,choice,ct,binary,repulsion,2,laptops,null,null,null,null,null,null,1,NA,NA,NA,NA,NA,NA,NA,NA,NA,NA
NA,NA,NA,NA,NA,choice_trial,survey-html-form,23,146345,0.0-4.0-1.9,80,1,2025-04-29T04:06:43Z,b60275e29fe2361ab97ac0ac217840d7,"Mozilla/5.0 (Windows NT 10.0; Win64; x64) AppleWebKit/537.36 (KHTML, like Gecko) Chrome/135.0.0.0 Safari/537.36",WebKit,Chrome,135.0.0.0,Windows,10,https://5puzkbbxv1.cognition.run/?sona_id=56986,"en-US,en;q=0.9,zh-TW;q=0.8,zh;q=0.7",519ras0ykn2cyhm,21,"[""Asian""]",No,Male,China,No,477541.5,NA,8059,NA,"{""product_choice"":""A""}",choice,ct,binary,repulsion,2,laptops,null,null,null,null,null,null,1,30,40,null,100,90,null,Processing speed,Memory (RAM),NA,NA
NA,NA,NA,NA,NA,choice_trial_setup,html-keyboard-response,24,146648,0.0-4.0-0.10,80,1,2025-04-29T04:06:43Z,b60275e29fe2361ab97ac0ac217840d7,"Mozilla/5.0 (Windows NT 10.0; Win64; x64) AppleWebKit/537.36 (KHTML, like Gecko) Chrome/135.0.0.0 Safari/537.36",WebKit,Chrome,135.0.0.0,Windows,10,https://5puzkbbxv1.cognition.run/?sona_id=56986,"en-US,en;q=0.9,zh-TW;q=0.8,zh;q=0.7",519ras0ykn2cyhm,21,"[""Asian""]",No,Male,China,No,477541.5,NA,null,<p></p>,null,choice,dct,trinary,repulsion_A,2,televisions,null,null,null,null,null,null,2,NA,NA,NA,NA,NA,NA,NA,NA,NA,NA
NA,NA,NA,NA,NA,choice_trial,survey-html-form,25,154385,0.0-4.0-1.10,80,1,2025-04-29T04:06:43Z,b60275e29fe2361ab97ac0ac217840d7,"Mozilla/5.0 (Windows NT 10.0; Win64; x64) AppleWebKit/537.36 (KHTML, like Gecko) Chrome/135.0.0.0 Safari/537.36",WebKit,Chrome,135.0.0.0,Windows,10,https://5puzkbbxv1.cognition.run/?sona_id=56986,"en-US,en;q=0.9,zh-TW;q=0.8,zh;q=0.7",519ras0ykn2cyhm,21,"[""Asian""]",No,Male,China,No,477541.5,NA,7736,NA,"{""product_choice"":""B""}",choice,dct,trinary,repulsion_A,2,televisions,null,null,null,null,null,null,2,30,40,20,100,90,100,Screen size,Average lifespan,NA,NA
NA,NA,NA,NA,NA,choice_trial_setup,html-keyboard-response,26,154688,0.0-4.0-0.11,80,1,2025-04-29T04:06:43Z,b60275e29fe2361ab97ac0ac217840d7,"Mozilla/5.0 (Windows NT 10.0; Win64; x64) AppleWebKit/537.36 (KHTML, like Gecko) Chrome/135.0.0.0 Safari/537.36",WebKit,Chrome,135.0.0.0,Windows,10,https://5puzkbbxv1.cognition.run/?sona_id=56986,"en-US,en;q=0.9,zh-TW;q=0.8,zh;q=0.7",519ras0ykn2cyhm,21,"[""Asian""]",No,Male,China,No,477541.5,NA,null,<p></p>,null,choice,ctd,trinary,attraction,1,washing machines,null,null,null,null,null,null,1,NA,NA,NA,NA,NA,NA,NA,NA,NA,NA
NA,NA,NA,NA,NA,choice_trial,survey-html-form,27,164346,0.0-4.0-1.11,80,1,2025-04-29T04:06:43Z,b60275e29fe2361ab97ac0ac217840d7,"Mozilla/5.0 (Windows NT 10.0; Win64; x64) AppleWebKit/537.36 (KHTML, like Gecko) Chrome/135.0.0.0 Safari/537.36",WebKit,Chrome,135.0.0.0,Windows,10,https://5puzkbbxv1.cognition.run/?sona_id=56986,"en-US,en;q=0.9,zh-TW;q=0.8,zh;q=0.7",519ras0ykn2cyhm,21,"[""Asian""]",No,Male,China,No,477541.5,NA,9656,NA,"{""product_choice"":""A""}",choice,ctd,trinary,attraction,1,washing machines,null,null,null,null,null,null,1,60,50,60,50,60,40,Average lifespan,Energy savings,NA,NA
NA,NA,NA,NA,NA,choice_trial_setup,html-keyboard-response,28,164648,0.0-4.0-0.12,80,1,2025-04-29T04:06:43Z,b60275e29fe2361ab97ac0ac217840d7,"Mozilla/5.0 (Windows NT 10.0; Win64; x64) AppleWebKit/537.36 (KHTML, like Gecko) Chrome/135.0.0.0 Safari/537.36",WebKit,Chrome,135.0.0.0,Windows,10,https://5puzkbbxv1.cognition.run/?sona_id=56986,"en-US,en;q=0.9,zh-TW;q=0.8,zh;q=0.7",519ras0ykn2cyhm,21,"[""Asian""]",No,Male,China,No,477541.5,NA,null,<p></p>,null,choice,dct,trinary,attraction,1,laptops,null,null,null,null,null,null,2,NA,NA,NA,NA,NA,NA,NA,NA,NA,NA
NA,NA,NA,NA,NA,choice_trial,survey-html-form,29,187876,0.0-4.0-1.12,80,1,2025-04-29T04:06:43Z,b60275e29fe2361ab97ac0ac217840d7,"Mozilla/5.0 (Windows NT 10.0; Win64; x64) AppleWebKit/537.36 (KHTML, like Gecko) Chrome/135.0.0.0 Safari/537.36",WebKit,Chrome,135.0.0.0,Windows,10,https://5puzkbbxv1.cognition.run/?sona_id=56986,"en-US,en;q=0.9,zh-TW;q=0.8,zh;q=0.7",519ras0ykn2cyhm,21,"[""Asian""]",No,Male,China,No,477541.5,NA,23225,NA,"{""product_choice"":""C""}",choice,dct,trinary,attraction,1,laptops,null,null,null,null,null,null,2,60,50,60,50,60,40,Processing speed,Memory (RAM),NA,NA
NA,NA,NA,NA,NA,choice_trial_setup,html-keyboard-response,30,188178,0.0-4.0-0.13,80,1,2025-04-29T04:06:43Z,b60275e29fe2361ab97ac0ac217840d7,"Mozilla/5.0 (Windows NT 10.0; Win64; x64) AppleWebKit/537.36 (KHTML, like Gecko) Chrome/135.0.0.0 Safari/537.36",WebKit,Chrome,135.0.0.0,Windows,10,https://5puzkbbxv1.cognition.run/?sona_id=56986,"en-US,en;q=0.9,zh-TW;q=0.8,zh;q=0.7",519ras0ykn2cyhm,21,"[""Asian""]",No,Male,China,No,477541.5,NA,null,<p></p>,null,choice,tc,binary,repulsion,1,laptops,null,null,null,null,null,null,2,NA,NA,NA,NA,NA,NA,NA,NA,NA,NA
NA,NA,NA,NA,NA,choice_trial,survey-html-form,31,193887,0.0-4.0-1.13,80,1,2025-04-29T04:06:43Z,b60275e29fe2361ab97ac0ac217840d7,"Mozilla/5.0 (Windows NT 10.0; Win64; x64) AppleWebKit/537.36 (KHTML, like Gecko) Chrome/135.0.0.0 Safari/537.36",WebKit,Chrome,135.0.0.0,Windows,10,https://5puzkbbxv1.cognition.run/?sona_id=56986,"en-US,en;q=0.9,zh-TW;q=0.8,zh;q=0.7",519ras0ykn2cyhm,21,"[""Asian""]",No,Male,China,No,477541.5,NA,5707,NA,"{""product_choice"":""B""}",choice,tc,binary,repulsion,1,laptops,null,null,null,null,null,null,2,100,90,null,30,40,null,Processing speed,Memory (RAM),NA,NA
NA,NA,NA,NA,NA,choice_trial_setup,html-keyboard-response,32,194190,0.0-4.0-0.14,80,1,2025-04-29T04:06:43Z,b60275e29fe2361ab97ac0ac217840d7,"Mozilla/5.0 (Windows NT 10.0; Win64; x64) AppleWebKit/537.36 (KHTML, like Gecko) Chrome/135.0.0.0 Safari/537.36",WebKit,Chrome,135.0.0.0,Windows,10,https://5puzkbbxv1.cognition.run/?sona_id=56986,"en-US,en;q=0.9,zh-TW;q=0.8,zh;q=0.7",519ras0ykn2cyhm,21,"[""Asian""]",No,Male,China,No,477541.5,NA,null,<p></p>,null,choice,dtc,trinary,repulsion_B,1,televisions,null,null,null,null,null,null,2,NA,NA,NA,NA,NA,NA,NA,NA,NA,NA
NA,NA,NA,NA,NA,choice_trial,survey-html-form,33,199679,0.0-4.0-1.14,80,1,2025-04-29T04:06:43Z,b60275e29fe2361ab97ac0ac217840d7,"Mozilla/5.0 (Windows NT 10.0; Win64; x64) AppleWebKit/537.36 (KHTML, like Gecko) Chrome/135.0.0.0 Safari/537.36",WebKit,Chrome,135.0.0.0,Windows,10,https://5puzkbbxv1.cognition.run/?sona_id=56986,"en-US,en;q=0.9,zh-TW;q=0.8,zh;q=0.7",519ras0ykn2cyhm,21,"[""Asian""]",No,Male,China,No,477541.5,NA,5485,NA,"{""product_choice"":""C""}",choice,dtc,trinary,repulsion_B,1,televisions,null,null,null,null,null,null,2,90,100,80,40,30,40,Screen size,Average lifespan,NA,NA
NA,NA,NA,NA,NA,choice_trial_setup,html-keyboard-response,34,199981,0.0-4.0-0.15,80,1,2025-04-29T04:06:43Z,b60275e29fe2361ab97ac0ac217840d7,"Mozilla/5.0 (Windows NT 10.0; Win64; x64) AppleWebKit/537.36 (KHTML, like Gecko) Chrome/135.0.0.0 Safari/537.36",WebKit,Chrome,135.0.0.0,Windows,10,https://5puzkbbxv1.cognition.run/?sona_id=56986,"en-US,en;q=0.9,zh-TW;q=0.8,zh;q=0.7",519ras0ykn2cyhm,21,"[""Asian""]",No,Male,China,No,477541.5,NA,null,<p></p>,null,choice,ctd,trinary,attraction,2,washing machines,null,null,null,null,null,null,1,NA,NA,NA,NA,NA,NA,NA,NA,NA,NA
NA,NA,NA,NA,NA,choice_trial,survey-html-form,35,204154,0.0-4.0-1.15,80,1,2025-04-29T04:06:43Z,b60275e29fe2361ab97ac0ac217840d7,"Mozilla/5.0 (Windows NT 10.0; Win64; x64) AppleWebKit/537.36 (KHTML, like Gecko) Chrome/135.0.0.0 Safari/537.36",WebKit,Chrome,135.0.0.0,Windows,10,https://5puzkbbxv1.cognition.run/?sona_id=56986,"en-US,en;q=0.9,zh-TW;q=0.8,zh;q=0.7",519ras0ykn2cyhm,21,"[""Asian""]",No,Male,China,No,477541.5,NA,4170,NA,"{""product_choice"":""B""}",choice,ctd,trinary,attraction,2,washing machines,null,null,null,null,null,null,1,50,60,40,60,50,60,Average lifespan,Energy savings,NA,NA
NA,NA,NA,NA,NA,choice_trial_setup,html-keyboard-response,36,204456,0.0-4.0-0.16,80,1,2025-04-29T04:06:43Z,b60275e29fe2361ab97ac0ac217840d7,"Mozilla/5.0 (Windows NT 10.0; Win64; x64) AppleWebKit/537.36 (KHTML, like Gecko) Chrome/135.0.0.0 Safari/537.36",WebKit,Chrome,135.0.0.0,Windows,10,https://5puzkbbxv1.cognition.run/?sona_id=56986,"en-US,en;q=0.9,zh-TW;q=0.8,zh;q=0.7",519ras0ykn2cyhm,21,"[""Asian""]",No,Male,China,No,477541.5,NA,null,<p></p>,null,choice,cdt,trinary,attraction,2,microwave ovens,null,null,null,null,null,null,1,NA,NA,NA,NA,NA,NA,NA,NA,NA,NA
NA,NA,NA,NA,NA,choice_trial,survey-html-form,37,209459,0.0-4.0-1.16,80,1,2025-04-29T04:06:43Z,b60275e29fe2361ab97ac0ac217840d7,"Mozilla/5.0 (Windows NT 10.0; Win64; x64) AppleWebKit/537.36 (KHTML, like Gecko) Chrome/135.0.0.0 Safari/537.36",WebKit,Chrome,135.0.0.0,Windows,10,https://5puzkbbxv1.cognition.run/?sona_id=56986,"en-US,en;q=0.9,zh-TW;q=0.8,zh;q=0.7",519ras0ykn2cyhm,21,"[""Asian""]",No,Male,China,No,477541.5,NA,4999,NA,"{""product_choice"":""A""}",choice,cdt,trinary,attraction,2,microwave ovens,null,null,null,null,null,null,1,50,60,40,60,50,60,Warranty,Cooking power,NA,NA
NA,NA,NA,NA,NA,choice_trial_setup,html-keyboard-response,38,209760,0.0-4.0-0.17,80,1,2025-04-29T04:06:43Z,b60275e29fe2361ab97ac0ac217840d7,"Mozilla/5.0 (Windows NT 10.0; Win64; x64) AppleWebKit/537.36 (KHTML, like Gecko) Chrome/135.0.0.0 Safari/537.36",WebKit,Chrome,135.0.0.0,Windows,10,https://5puzkbbxv1.cognition.run/?sona_id=56986,"en-US,en;q=0.9,zh-TW;q=0.8,zh;q=0.7",519ras0ykn2cyhm,21,"[""Asian""]",No,Male,China,No,477541.5,NA,null,<p></p>,null,choice,ct,binary,repulsion,1,televisions,null,null,null,null,null,null,2,NA,NA,NA,NA,NA,NA,NA,NA,NA,NA
NA,NA,NA,NA,NA,choice_trial,survey-html-form,39,212556,0.0-4.0-1.17,80,1,2025-04-29T04:06:43Z,b60275e29fe2361ab97ac0ac217840d7,"Mozilla/5.0 (Windows NT 10.0; Win64; x64) AppleWebKit/537.36 (KHTML, like Gecko) Chrome/135.0.0.0 Safari/537.36",WebKit,Chrome,135.0.0.0,Windows,10,https://5puzkbbxv1.cognition.run/?sona_id=56986,"en-US,en;q=0.9,zh-TW;q=0.8,zh;q=0.7",519ras0ykn2cyhm,21,"[""Asian""]",No,Male,China,No,477541.5,NA,2794,NA,"{""product_choice"":""B""}",choice,ct,binary,repulsion,1,televisions,null,null,null,null,null,null,2,100,90,null,30,40,null,Screen size,Average lifespan,NA,NA
NA,NA,NA,NA,NA,choice_trial_setup,html-keyboard-response,40,212858,0.0-4.0-0.18,80,1,2025-04-29T04:06:43Z,b60275e29fe2361ab97ac0ac217840d7,"Mozilla/5.0 (Windows NT 10.0; Win64; x64) AppleWebKit/537.36 (KHTML, like Gecko) Chrome/135.0.0.0 Safari/537.36",WebKit,Chrome,135.0.0.0,Windows,10,https://5puzkbbxv1.cognition.run/?sona_id=56986,"en-US,en;q=0.9,zh-TW;q=0.8,zh;q=0.7",519ras0ykn2cyhm,21,"[""Asian""]",No,Male,China,No,477541.5,NA,null,<p></p>,null,choice,cdt,trinary,repulsion_B,1,laptops,null,null,null,null,null,null,2,NA,NA,NA,NA,NA,NA,NA,NA,NA,NA
NA,NA,NA,NA,NA,choice_trial,survey-html-form,41,218929,0.0-4.0-1.18,80,1,2025-04-29T04:06:43Z,b60275e29fe2361ab97ac0ac217840d7,"Mozilla/5.0 (Windows NT 10.0; Win64; x64) AppleWebKit/537.36 (KHTML, like Gecko) Chrome/135.0.0.0 Safari/537.36",WebKit,Chrome,135.0.0.0,Windows,10,https://5puzkbbxv1.cognition.run/?sona_id=56986,"en-US,en;q=0.9,zh-TW;q=0.8,zh;q=0.7",519ras0ykn2cyhm,21,"[""Asian""]",No,Male,China,No,477541.5,NA,6068,NA,"{""product_choice"":""C""}",choice,cdt,trinary,repulsion_B,1,laptops,null,null,null,null,null,null,2,90,100,80,40,30,40,Processing speed,Memory (RAM),NA,NA
NA,NA,NA,NA,NA,choice_trial_setup,html-keyboard-response,42,219233,0.0-4.0-0.19,80,1,2025-04-29T04:06:43Z,b60275e29fe2361ab97ac0ac217840d7,"Mozilla/5.0 (Windows NT 10.0; Win64; x64) AppleWebKit/537.36 (KHTML, like Gecko) Chrome/135.0.0.0 Safari/537.36",WebKit,Chrome,135.0.0.0,Windows,10,https://5puzkbbxv1.cognition.run/?sona_id=56986,"en-US,en;q=0.9,zh-TW;q=0.8,zh;q=0.7",519ras0ykn2cyhm,21,"[""Asian""]",No,Male,China,No,477541.5,NA,null,<p></p>,null,choice,ct,binary,repulsion,2,televisions,null,null,null,null,null,null,1,NA,NA,NA,NA,NA,NA,NA,NA,NA,NA
NA,NA,NA,NA,NA,choice_trial,survey-html-form,43,222273,0.0-4.0-1.19,80,1,2025-04-29T04:06:43Z,b60275e29fe2361ab97ac0ac217840d7,"Mozilla/5.0 (Windows NT 10.0; Win64; x64) AppleWebKit/537.36 (KHTML, like Gecko) Chrome/135.0.0.0 Safari/537.36",WebKit,Chrome,135.0.0.0,Windows,10,https://5puzkbbxv1.cognition.run/?sona_id=56986,"en-US,en;q=0.9,zh-TW;q=0.8,zh;q=0.7",519ras0ykn2cyhm,21,"[""Asian""]",No,Male,China,No,477541.5,NA,3037,NA,"{""product_choice"":""B""}",choice,ct,binary,repulsion,2,televisions,null,null,null,null,null,null,1,30,40,null,100,90,null,Screen size,Average lifespan,NA,NA
NA,NA,NA,NA,NA,choice_trial_setup,html-keyboard-response,44,222576,0.0-4.0-0.20,80,1,2025-04-29T04:06:43Z,b60275e29fe2361ab97ac0ac217840d7,"Mozilla/5.0 (Windows NT 10.0; Win64; x64) AppleWebKit/537.36 (KHTML, like Gecko) Chrome/135.0.0.0 Safari/537.36",WebKit,Chrome,135.0.0.0,Windows,10,https://5puzkbbxv1.cognition.run/?sona_id=56986,"en-US,en;q=0.9,zh-TW;q=0.8,zh;q=0.7",519ras0ykn2cyhm,21,"[""Asian""]",No,Male,China,No,477541.5,NA,null,<p></p>,null,choice,ct,binary,repulsion,1,microwave ovens,null,null,null,null,null,null,2,NA,NA,NA,NA,NA,NA,NA,NA,NA,NA
NA,NA,NA,NA,NA,choice_trial,survey-html-form,45,233346,0.0-4.0-1.20,80,1,2025-04-29T04:06:43Z,b60275e29fe2361ab97ac0ac217840d7,"Mozilla/5.0 (Windows NT 10.0; Win64; x64) AppleWebKit/537.36 (KHTML, like Gecko) Chrome/135.0.0.0 Safari/537.36",WebKit,Chrome,135.0.0.0,Windows,10,https://5puzkbbxv1.cognition.run/?sona_id=56986,"en-US,en;q=0.9,zh-TW;q=0.8,zh;q=0.7",519ras0ykn2cyhm,21,"[""Asian""]",No,Male,China,No,477541.5,NA,10767,NA,"{""product_choice"":""A""}",choice,ct,binary,repulsion,1,microwave ovens,null,null,null,null,null,null,2,100,90,null,30,40,null,Warranty,Cooking power,NA,NA
NA,NA,NA,NA,NA,choice_trial_setup,html-keyboard-response,46,233648,0.0-4.0-0.21,80,1,2025-04-29T04:06:43Z,b60275e29fe2361ab97ac0ac217840d7,"Mozilla/5.0 (Windows NT 10.0; Win64; x64) AppleWebKit/537.36 (KHTML, like Gecko) Chrome/135.0.0.0 Safari/537.36",WebKit,Chrome,135.0.0.0,Windows,10,https://5puzkbbxv1.cognition.run/?sona_id=56986,"en-US,en;q=0.9,zh-TW;q=0.8,zh;q=0.7",519ras0ykn2cyhm,21,"[""Asian""]",No,Male,China,No,477541.5,NA,null,<p></p>,null,choice,ctd,trinary,repulsion_A,1,washing machines,null,null,null,null,null,null,1,NA,NA,NA,NA,NA,NA,NA,NA,NA,NA
NA,NA,NA,NA,NA,choice_trial,survey-html-form,47,261860,0.0-4.0-1.21,80,1,2025-04-29T04:06:43Z,b60275e29fe2361ab97ac0ac217840d7,"Mozilla/5.0 (Windows NT 10.0; Win64; x64) AppleWebKit/537.36 (KHTML, like Gecko) Chrome/135.0.0.0 Safari/537.36",WebKit,Chrome,135.0.0.0,Windows,10,https://5puzkbbxv1.cognition.run/?sona_id=56986,"en-US,en;q=0.9,zh-TW;q=0.8,zh;q=0.7",519ras0ykn2cyhm,21,"[""Asian""]",No,Male,China,No,477541.5,NA,28210,NA,"{""product_choice"":""A""}",choice,ctd,trinary,repulsion_A,1,washing machines,null,null,null,null,null,null,1,100,90,100,30,40,20,Average lifespan,Energy savings,NA,NA
NA,NA,NA,NA,NA,choice_trial_setup,html-keyboard-response,48,262163,0.0-4.0-0.22,80,1,2025-04-29T04:06:43Z,b60275e29fe2361ab97ac0ac217840d7,"Mozilla/5.0 (Windows NT 10.0; Win64; x64) AppleWebKit/537.36 (KHTML, like Gecko) Chrome/135.0.0.0 Safari/537.36",WebKit,Chrome,135.0.0.0,Windows,10,https://5puzkbbxv1.cognition.run/?sona_id=56986,"en-US,en;q=0.9,zh-TW;q=0.8,zh;q=0.7",519ras0ykn2cyhm,21,"[""Asian""]",No,Male,China,No,477541.5,NA,null,<p></p>,null,choice,bw,binary,catch,null,microwave ovens,70,90,40,25,null,null,1,NA,NA,NA,NA,NA,NA,NA,NA,NA,NA
NA,NA,NA,NA,NA,choice_trial,survey-html-form,49,269758,0.0-4.0-1.22,80,1,2025-04-29T04:06:43Z,b60275e29fe2361ab97ac0ac217840d7,"Mozilla/5.0 (Windows NT 10.0; Win64; x64) AppleWebKit/537.36 (KHTML, like Gecko) Chrome/135.0.0.0 Safari/537.36",WebKit,Chrome,135.0.0.0,Windows,10,https://5puzkbbxv1.cognition.run/?sona_id=56986,"en-US,en;q=0.9,zh-TW;q=0.8,zh;q=0.7",519ras0ykn2cyhm,21,"[""Asian""]",No,Male,China,No,477541.5,NA,7592,NA,"{""product_choice"":""A""}",choice,bw,binary,catch,null,microwave ovens,70,90,40,25,null,null,1,null,null,null,null,null,null,Warranty,Cooking power,NA,NA
NA,NA,NA,NA,NA,choice_trial_setup,html-keyboard-response,50,270060,0.0-4.0-0.23,80,1,2025-04-29T04:06:43Z,b60275e29fe2361ab97ac0ac217840d7,"Mozilla/5.0 (Windows NT 10.0; Win64; x64) AppleWebKit/537.36 (KHTML, like Gecko) Chrome/135.0.0.0 Safari/537.36",WebKit,Chrome,135.0.0.0,Windows,10,https://5puzkbbxv1.cognition.run/?sona_id=56986,"en-US,en;q=0.9,zh-TW;q=0.8,zh;q=0.7",519ras0ykn2cyhm,21,"[""Asian""]",No,Male,China,No,477541.5,NA,null,<p></p>,null,choice,cdt,trinary,repulsion_A,1,televisions,null,null,null,null,null,null,2,NA,NA,NA,NA,NA,NA,NA,NA,NA,NA
NA,NA,NA,NA,NA,choice_trial,survey-html-form,51,289809,0.0-4.0-1.23,80,1,2025-04-29T04:06:43Z,b60275e29fe2361ab97ac0ac217840d7,"Mozilla/5.0 (Windows NT 10.0; Win64; x64) AppleWebKit/537.36 (KHTML, like Gecko) Chrome/135.0.0.0 Safari/537.36",WebKit,Chrome,135.0.0.0,Windows,10,https://5puzkbbxv1.cognition.run/?sona_id=56986,"en-US,en;q=0.9,zh-TW;q=0.8,zh;q=0.7",519ras0ykn2cyhm,21,"[""Asian""]",No,Male,China,No,477541.5,NA,19747,NA,"{""product_choice"":""C""}",choice,cdt,trinary,repulsion_A,1,televisions,null,null,null,null,null,null,2,100,90,100,30,40,20,Screen size,Average lifespan,NA,NA
NA,NA,NA,NA,NA,choice_trial_setup,html-keyboard-response,52,290112,0.0-4.0-0.24,80,1,2025-04-29T04:06:43Z,b60275e29fe2361ab97ac0ac217840d7,"Mozilla/5.0 (Windows NT 10.0; Win64; x64) AppleWebKit/537.36 (KHTML, like Gecko) Chrome/135.0.0.0 Safari/537.36",WebKit,Chrome,135.0.0.0,Windows,10,https://5puzkbbxv1.cognition.run/?sona_id=56986,"en-US,en;q=0.9,zh-TW;q=0.8,zh;q=0.7",519ras0ykn2cyhm,21,"[""Asian""]",No,Male,China,No,477541.5,NA,null,<p></p>,null,choice,ct,binary,attraction,NA,televisions,null,null,null,null,null,null,2,NA,NA,NA,NA,NA,NA,NA,NA,NA,NA
NA,NA,NA,NA,NA,choice_trial,survey-html-form,53,295019,0.0-4.0-1.24,80,1,2025-04-29T04:06:43Z,b60275e29fe2361ab97ac0ac217840d7,"Mozilla/5.0 (Windows NT 10.0; Win64; x64) AppleWebKit/537.36 (KHTML, like Gecko) Chrome/135.0.0.0 Safari/537.36",WebKit,Chrome,135.0.0.0,Windows,10,https://5puzkbbxv1.cognition.run/?sona_id=56986,"en-US,en;q=0.9,zh-TW;q=0.8,zh;q=0.7",519ras0ykn2cyhm,21,"[""Asian""]",No,Male,China,No,477541.5,NA,4903,NA,"{""product_choice"":""B""}",choice,ct,binary,attraction,NA,televisions,null,null,null,null,null,null,2,60,50,null,50,60,null,Screen size,Average lifespan,NA,NA
NA,NA,NA,NA,NA,choice_trial_setup,html-keyboard-response,54,295321,0.0-4.0-0.25,80,1,2025-04-29T04:06:43Z,b60275e29fe2361ab97ac0ac217840d7,"Mozilla/5.0 (Windows NT 10.0; Win64; x64) AppleWebKit/537.36 (KHTML, like Gecko) Chrome/135.0.0.0 Safari/537.36",WebKit,Chrome,135.0.0.0,Windows,10,https://5puzkbbxv1.cognition.run/?sona_id=56986,"en-US,en;q=0.9,zh-TW;q=0.8,zh;q=0.7",519ras0ykn2cyhm,21,"[""Asian""]",No,Male,China,No,477541.5,NA,null,<p></p>,null,choice,ct,binary,attraction,NA,laptops,null,null,null,null,null,null,1,NA,NA,NA,NA,NA,NA,NA,NA,NA,NA
NA,NA,NA,NA,NA,choice_trial,survey-html-form,55,299842,0.0-4.0-1.25,80,1,2025-04-29T04:06:43Z,b60275e29fe2361ab97ac0ac217840d7,"Mozilla/5.0 (Windows NT 10.0; Win64; x64) AppleWebKit/537.36 (KHTML, like Gecko) Chrome/135.0.0.0 Safari/537.36",WebKit,Chrome,135.0.0.0,Windows,10,https://5puzkbbxv1.cognition.run/?sona_id=56986,"en-US,en;q=0.9,zh-TW;q=0.8,zh;q=0.7",519ras0ykn2cyhm,21,"[""Asian""]",No,Male,China,No,477541.5,NA,4516,NA,"{""product_choice"":""B""}",choice,ct,binary,attraction,NA,laptops,null,null,null,null,null,null,1,60,50,null,50,60,null,Processing speed,Memory (RAM),NA,NA
NA,NA,NA,NA,NA,choice_trial_setup,html-keyboard-response,56,300144,0.0-4.0-0.26,80,1,2025-04-29T04:06:43Z,b60275e29fe2361ab97ac0ac217840d7,"Mozilla/5.0 (Windows NT 10.0; Win64; x64) AppleWebKit/537.36 (KHTML, like Gecko) Chrome/135.0.0.0 Safari/537.36",WebKit,Chrome,135.0.0.0,Windows,10,https://5puzkbbxv1.cognition.run/?sona_id=56986,"en-US,en;q=0.9,zh-TW;q=0.8,zh;q=0.7",519ras0ykn2cyhm,21,"[""Asian""]",No,Male,China,No,477541.5,NA,null,<p></p>,null,choice,dct,trinary,attraction,1,microwave ovens,null,null,null,null,null,null,2,NA,NA,NA,NA,NA,NA,NA,NA,NA,NA
NA,NA,NA,NA,NA,choice_trial,survey-html-form,57,303944,0.0-4.0-1.26,80,1,2025-04-29T04:06:43Z,b60275e29fe2361ab97ac0ac217840d7,"Mozilla/5.0 (Windows NT 10.0; Win64; x64) AppleWebKit/537.36 (KHTML, like Gecko) Chrome/135.0.0.0 Safari/537.36",WebKit,Chrome,135.0.0.0,Windows,10,https://5puzkbbxv1.cognition.run/?sona_id=56986,"en-US,en;q=0.9,zh-TW;q=0.8,zh;q=0.7",519ras0ykn2cyhm,21,"[""Asian""]",No,Male,China,No,477541.5,NA,3797,NA,"{""product_choice"":""C""}",choice,dct,trinary,attraction,1,microwave ovens,null,null,null,null,null,null,2,60,50,60,50,60,40,Warranty,Cooking power,NA,NA
NA,NA,NA,NA,NA,choice_trial_setup,html-keyboard-response,58,304248,0.0-4.0-0.27,80,1,2025-04-29T04:06:43Z,b60275e29fe2361ab97ac0ac217840d7,"Mozilla/5.0 (Windows NT 10.0; Win64; x64) AppleWebKit/537.36 (KHTML, like Gecko) Chrome/135.0.0.0 Safari/537.36",WebKit,Chrome,135.0.0.0,Windows,10,https://5puzkbbxv1.cognition.run/?sona_id=56986,"en-US,en;q=0.9,zh-TW;q=0.8,zh;q=0.7",519ras0ykn2cyhm,21,"[""Asian""]",No,Male,China,No,477541.5,NA,null,<p></p>,null,choice,ctd,trinary,repulsion_B,2,laptops,null,null,null,null,null,null,1,NA,NA,NA,NA,NA,NA,NA,NA,NA,NA
NA,NA,NA,NA,NA,choice_trial,survey-html-form,59,319305,0.0-4.0-1.27,80,1,2025-04-29T04:06:43Z,b60275e29fe2361ab97ac0ac217840d7,"Mozilla/5.0 (Windows NT 10.0; Win64; x64) AppleWebKit/537.36 (KHTML, like Gecko) Chrome/135.0.0.0 Safari/537.36",WebKit,Chrome,135.0.0.0,Windows,10,https://5puzkbbxv1.cognition.run/?sona_id=56986,"en-US,en;q=0.9,zh-TW;q=0.8,zh;q=0.7",519ras0ykn2cyhm,21,"[""Asian""]",No,Male,China,No,477541.5,NA,15052,NA,"{""product_choice"":""B""}",choice,ctd,trinary,repulsion_B,2,laptops,null,null,null,null,null,null,1,40,30,40,90,100,80,Processing speed,Memory (RAM),NA,NA
NA,NA,NA,NA,NA,choice_trial_setup,html-keyboard-response,60,319607,0.0-4.0-0.28,80,1,2025-04-29T04:06:43Z,b60275e29fe2361ab97ac0ac217840d7,"Mozilla/5.0 (Windows NT 10.0; Win64; x64) AppleWebKit/537.36 (KHTML, like Gecko) Chrome/135.0.0.0 Safari/537.36",WebKit,Chrome,135.0.0.0,Windows,10,https://5puzkbbxv1.cognition.run/?sona_id=56986,"en-US,en;q=0.9,zh-TW;q=0.8,zh;q=0.7",519ras0ykn2cyhm,21,"[""Asian""]",No,Male,China,No,477541.5,NA,null,<p></p>,null,choice,dtc,trinary,repulsion_A,1,microwave ovens,null,null,null,null,null,null,2,NA,NA,NA,NA,NA,NA,NA,NA,NA,NA
NA,NA,NA,NA,NA,choice_trial,survey-html-form,61,334979,0.0-4.0-1.28,80,1,2025-04-29T04:06:43Z,b60275e29fe2361ab97ac0ac217840d7,"Mozilla/5.0 (Windows NT 10.0; Win64; x64) AppleWebKit/537.36 (KHTML, like Gecko) Chrome/135.0.0.0 Safari/537.36",WebKit,Chrome,135.0.0.0,Windows,10,https://5puzkbbxv1.cognition.run/?sona_id=56986,"en-US,en;q=0.9,zh-TW;q=0.8,zh;q=0.7",519ras0ykn2cyhm,21,"[""Asian""]",No,Male,China,No,477541.5,NA,15369,NA,"{""product_choice"":""B""}",choice,dtc,trinary,repulsion_A,1,microwave ovens,null,null,null,null,null,null,2,100,90,100,30,40,20,Warranty,Cooking power,NA,NA
NA,NA,NA,NA,NA,choice_trial_setup,html-keyboard-response,62,335282,0.0-4.0-0.29,80,1,2025-04-29T04:06:43Z,b60275e29fe2361ab97ac0ac217840d7,"Mozilla/5.0 (Windows NT 10.0; Win64; x64) AppleWebKit/537.36 (KHTML, like Gecko) Chrome/135.0.0.0 Safari/537.36",WebKit,Chrome,135.0.0.0,Windows,10,https://5puzkbbxv1.cognition.run/?sona_id=56986,"en-US,en;q=0.9,zh-TW;q=0.8,zh;q=0.7",519ras0ykn2cyhm,21,"[""Asian""]",No,Male,China,No,477541.5,NA,null,<p></p>,null,choice,wbw,trinary,catch,null,televisions,50,65,45,5,25,5,2,NA,NA,NA,NA,NA,NA,NA,NA,NA,NA
NA,NA,NA,NA,NA,choice_trial,survey-html-form,63,340728,0.0-4.0-1.29,80,1,2025-04-29T04:06:43Z,b60275e29fe2361ab97ac0ac217840d7,"Mozilla/5.0 (Windows NT 10.0; Win64; x64) AppleWebKit/537.36 (KHTML, like Gecko) Chrome/135.0.0.0 Safari/537.36",WebKit,Chrome,135.0.0.0,Windows,10,https://5puzkbbxv1.cognition.run/?sona_id=56986,"en-US,en;q=0.9,zh-TW;q=0.8,zh;q=0.7",519ras0ykn2cyhm,21,"[""Asian""]",No,Male,China,No,477541.5,NA,5444,NA,"{""product_choice"":""B""}",choice,wbw,trinary,catch,null,televisions,50,65,45,5,25,5,2,null,null,null,null,null,null,Screen size,Average lifespan,NA,NA
NA,NA,NA,NA,NA,choice_trial_setup,html-keyboard-response,64,341031,0.0-4.0-0.30,80,1,2025-04-29T04:06:43Z,b60275e29fe2361ab97ac0ac217840d7,"Mozilla/5.0 (Windows NT 10.0; Win64; x64) AppleWebKit/537.36 (KHTML, like Gecko) Chrome/135.0.0.0 Safari/537.36",WebKit,Chrome,135.0.0.0,Windows,10,https://5puzkbbxv1.cognition.run/?sona_id=56986,"en-US,en;q=0.9,zh-TW;q=0.8,zh;q=0.7",519ras0ykn2cyhm,21,"[""Asian""]",No,Male,China,No,477541.5,NA,null,<p></p>,null,choice,cdt,trinary,repulsion_A,2,washing machines,null,null,null,null,null,null,2,NA,NA,NA,NA,NA,NA,NA,NA,NA,NA
NA,NA,NA,NA,NA,choice_trial,survey-html-form,65,346567,0.0-4.0-1.30,80,1,2025-04-29T04:06:43Z,b60275e29fe2361ab97ac0ac217840d7,"Mozilla/5.0 (Windows NT 10.0; Win64; x64) AppleWebKit/537.36 (KHTML, like Gecko) Chrome/135.0.0.0 Safari/537.36",WebKit,Chrome,135.0.0.0,Windows,10,https://5puzkbbxv1.cognition.run/?sona_id=56986,"en-US,en;q=0.9,zh-TW;q=0.8,zh;q=0.7",519ras0ykn2cyhm,21,"[""Asian""]",No,Male,China,No,477541.5,NA,5531,NA,"{""product_choice"":""C""}",choice,cdt,trinary,repulsion_A,2,washing machines,null,null,null,null,null,null,2,30,40,20,100,90,100,Average lifespan,Energy savings,NA,NA
NA,NA,NA,NA,NA,choice_trial_setup,html-keyboard-response,66,346870,0.0-4.0-0.31,80,1,2025-04-29T04:06:43Z,b60275e29fe2361ab97ac0ac217840d7,"Mozilla/5.0 (Windows NT 10.0; Win64; x64) AppleWebKit/537.36 (KHTML, like Gecko) Chrome/135.0.0.0 Safari/537.36",WebKit,Chrome,135.0.0.0,Windows,10,https://5puzkbbxv1.cognition.run/?sona_id=56986,"en-US,en;q=0.9,zh-TW;q=0.8,zh;q=0.7",519ras0ykn2cyhm,21,"[""Asian""]",No,Male,China,No,477541.5,NA,null,<p></p>,null,choice,wb,binary,catch,null,laptops,50,90,30,50,null,null,2,NA,NA,NA,NA,NA,NA,NA,NA,NA,NA
NA,NA,NA,NA,NA,choice_trial,survey-html-form,67,352614,0.0-4.0-1.31,80,1,2025-04-29T04:06:43Z,b60275e29fe2361ab97ac0ac217840d7,"Mozilla/5.0 (Windows NT 10.0; Win64; x64) AppleWebKit/537.36 (KHTML, like Gecko) Chrome/135.0.0.0 Safari/537.36",WebKit,Chrome,135.0.0.0,Windows,10,https://5puzkbbxv1.cognition.run/?sona_id=56986,"en-US,en;q=0.9,zh-TW;q=0.8,zh;q=0.7",519ras0ykn2cyhm,21,"[""Asian""]",No,Male,China,No,477541.5,NA,5739,NA,"{""product_choice"":""B""}",choice,wb,binary,catch,null,laptops,50,90,30,50,null,null,2,null,null,null,null,null,null,Processing speed,Memory (RAM),NA,NA
NA,NA,NA,NA,NA,choice_trial_setup,html-keyboard-response,68,352917,0.0-4.0-0.32,80,1,2025-04-29T04:06:43Z,b60275e29fe2361ab97ac0ac217840d7,"Mozilla/5.0 (Windows NT 10.0; Win64; x64) AppleWebKit/537.36 (KHTML, like Gecko) Chrome/135.0.0.0 Safari/537.36",WebKit,Chrome,135.0.0.0,Windows,10,https://5puzkbbxv1.cognition.run/?sona_id=56986,"en-US,en;q=0.9,zh-TW;q=0.8,zh;q=0.7",519ras0ykn2cyhm,21,"[""Asian""]",No,Male,China,No,477541.5,NA,null,<p></p>,null,choice,wwb,trinary,catch,null,microwave ovens,95,80,5,25,50,45,2,NA,NA,NA,NA,NA,NA,NA,NA,NA,NA
NA,NA,NA,NA,NA,choice_trial,survey-html-form,69,355907,0.0-4.0-1.32,80,1,2025-04-29T04:06:43Z,b60275e29fe2361ab97ac0ac217840d7,"Mozilla/5.0 (Windows NT 10.0; Win64; x64) AppleWebKit/537.36 (KHTML, like Gecko) Chrome/135.0.0.0 Safari/537.36",WebKit,Chrome,135.0.0.0,Windows,10,https://5puzkbbxv1.cognition.run/?sona_id=56986,"en-US,en;q=0.9,zh-TW;q=0.8,zh;q=0.7",519ras0ykn2cyhm,21,"[""Asian""]",No,Male,China,No,477541.5,NA,2985,NA,"{""product_choice"":""C""}",choice,wwb,trinary,catch,null,microwave ovens,95,80,5,25,50,45,2,null,null,null,null,null,null,Warranty,Cooking power,NA,NA
NA,NA,NA,NA,NA,choice_trial_setup,html-keyboard-response,70,356210,0.0-4.0-0.33,80,1,2025-04-29T04:06:43Z,b60275e29fe2361ab97ac0ac217840d7,"Mozilla/5.0 (Windows NT 10.0; Win64; x64) AppleWebKit/537.36 (KHTML, like Gecko) Chrome/135.0.0.0 Safari/537.36",WebKit,Chrome,135.0.0.0,Windows,10,https://5puzkbbxv1.cognition.run/?sona_id=56986,"en-US,en;q=0.9,zh-TW;q=0.8,zh;q=0.7",519ras0ykn2cyhm,21,"[""Asian""]",No,Male,China,No,477541.5,NA,null,<p></p>,null,choice,ctd,trinary,attraction,2,televisions,null,null,null,null,null,null,2,NA,NA,NA,NA,NA,NA,NA,NA,NA,NA
NA,NA,NA,NA,NA,choice_trial,survey-html-form,71,358943,0.0-4.0-1.33,80,1,2025-04-29T04:06:43Z,b60275e29fe2361ab97ac0ac217840d7,"Mozilla/5.0 (Windows NT 10.0; Win64; x64) AppleWebKit/537.36 (KHTML, like Gecko) Chrome/135.0.0.0 Safari/537.36",WebKit,Chrome,135.0.0.0,Windows,10,https://5puzkbbxv1.cognition.run/?sona_id=56986,"en-US,en;q=0.9,zh-TW;q=0.8,zh;q=0.7",519ras0ykn2cyhm,21,"[""Asian""]",No,Male,China,No,477541.5,NA,2728,NA,"{""product_choice"":""A""}",choice,ctd,trinary,attraction,2,televisions,null,null,null,null,null,null,2,50,60,40,60,50,60,Screen size,Average lifespan,NA,NA
NA,NA,NA,NA,NA,choice_trial_setup,html-keyboard-response,72,359247,0.0-4.0-0.34,80,1,2025-04-29T04:06:43Z,b60275e29fe2361ab97ac0ac217840d7,"Mozilla/5.0 (Windows NT 10.0; Win64; x64) AppleWebKit/537.36 (KHTML, like Gecko) Chrome/135.0.0.0 Safari/537.36",WebKit,Chrome,135.0.0.0,Windows,10,https://5puzkbbxv1.cognition.run/?sona_id=56986,"en-US,en;q=0.9,zh-TW;q=0.8,zh;q=0.7",519ras0ykn2cyhm,21,"[""Asian""]",No,Male,China,No,477541.5,NA,null,<p></p>,null,choice,bww,trinary,catch,null,laptops,50,95,50,45,35,25,1,NA,NA,NA,NA,NA,NA,NA,NA,NA,NA
NA,NA,NA,NA,NA,choice_trial,survey-html-form,73,363477,0.0-4.0-1.34,80,1,2025-04-29T04:06:43Z,b60275e29fe2361ab97ac0ac217840d7,"Mozilla/5.0 (Windows NT 10.0; Win64; x64) AppleWebKit/537.36 (KHTML, like Gecko) Chrome/135.0.0.0 Safari/537.36",WebKit,Chrome,135.0.0.0,Windows,10,https://5puzkbbxv1.cognition.run/?sona_id=56986,"en-US,en;q=0.9,zh-TW;q=0.8,zh;q=0.7",519ras0ykn2cyhm,21,"[""Asian""]",No,Male,China,No,477541.5,NA,4226,NA,"{""product_choice"":""A""}",choice,bww,trinary,catch,null,laptops,50,95,50,45,35,25,1,null,null,null,null,null,null,Processing speed,Memory (RAM),NA,NA
NA,NA,NA,NA,NA,choice_trial_setup,html-keyboard-response,74,363780,0.0-4.0-0.35,80,1,2025-04-29T04:06:43Z,b60275e29fe2361ab97ac0ac217840d7,"Mozilla/5.0 (Windows NT 10.0; Win64; x64) AppleWebKit/537.36 (KHTML, like Gecko) Chrome/135.0.0.0 Safari/537.36",WebKit,Chrome,135.0.0.0,Windows,10,https://5puzkbbxv1.cognition.run/?sona_id=56986,"en-US,en;q=0.9,zh-TW;q=0.8,zh;q=0.7",519ras0ykn2cyhm,21,"[""Asian""]",No,Male,China,No,477541.5,NA,null,<p></p>,null,choice,ct,binary,attraction,NA,washing machines,null,null,null,null,null,null,1,NA,NA,NA,NA,NA,NA,NA,NA,NA,NA
NA,NA,NA,NA,NA,choice_trial,survey-html-form,75,367565,0.0-4.0-1.35,80,1,2025-04-29T04:06:43Z,b60275e29fe2361ab97ac0ac217840d7,"Mozilla/5.0 (Windows NT 10.0; Win64; x64) AppleWebKit/537.36 (KHTML, like Gecko) Chrome/135.0.0.0 Safari/537.36",WebKit,Chrome,135.0.0.0,Windows,10,https://5puzkbbxv1.cognition.run/?sona_id=56986,"en-US,en;q=0.9,zh-TW;q=0.8,zh;q=0.7",519ras0ykn2cyhm,21,"[""Asian""]",No,Male,China,No,477541.5,NA,3782,NA,"{""product_choice"":""A""}",choice,ct,binary,attraction,NA,washing machines,null,null,null,null,null,null,1,60,50,null,50,60,null,Average lifespan,Energy savings,NA,NA
NA,NA,NA,NA,NA,choice_trial_setup,html-keyboard-response,76,367869,0.0-4.0-0.36,80,1,2025-04-29T04:06:43Z,b60275e29fe2361ab97ac0ac217840d7,"Mozilla/5.0 (Windows NT 10.0; Win64; x64) AppleWebKit/537.36 (KHTML, like Gecko) Chrome/135.0.0.0 Safari/537.36",WebKit,Chrome,135.0.0.0,Windows,10,https://5puzkbbxv1.cognition.run/?sona_id=56986,"en-US,en;q=0.9,zh-TW;q=0.8,zh;q=0.7",519ras0ykn2cyhm,21,"[""Asian""]",No,Male,China,No,477541.5,NA,null,<p></p>,null,choice,ctd,trinary,repulsion_A,2,microwave ovens,null,null,null,null,null,null,1,NA,NA,NA,NA,NA,NA,NA,NA,NA,NA
NA,NA,NA,NA,NA,choice_trial,survey-html-form,77,371618,0.0-4.0-1.36,80,1,2025-04-29T04:06:43Z,b60275e29fe2361ab97ac0ac217840d7,"Mozilla/5.0 (Windows NT 10.0; Win64; x64) AppleWebKit/537.36 (KHTML, like Gecko) Chrome/135.0.0.0 Safari/537.36",WebKit,Chrome,135.0.0.0,Windows,10,https://5puzkbbxv1.cognition.run/?sona_id=56986,"en-US,en;q=0.9,zh-TW;q=0.8,zh;q=0.7",519ras0ykn2cyhm,21,"[""Asian""]",No,Male,China,No,477541.5,NA,3745,NA,"{""product_choice"":""A""}",choice,ctd,trinary,repulsion_A,2,microwave ovens,null,null,null,null,null,null,1,30,40,20,100,90,100,Warranty,Cooking power,NA,NA
NA,NA,NA,NA,NA,choice_trial_setup,html-keyboard-response,78,371921,0.0-4.0-0.37,80,1,2025-04-29T04:06:43Z,b60275e29fe2361ab97ac0ac217840d7,"Mozilla/5.0 (Windows NT 10.0; Win64; x64) AppleWebKit/537.36 (KHTML, like Gecko) Chrome/135.0.0.0 Safari/537.36",WebKit,Chrome,135.0.0.0,Windows,10,https://5puzkbbxv1.cognition.run/?sona_id=56986,"en-US,en;q=0.9,zh-TW;q=0.8,zh;q=0.7",519ras0ykn2cyhm,21,"[""Asian""]",No,Male,China,No,477541.5,NA,null,<p></p>,null,choice,dtc,trinary,repulsion_B,1,microwave ovens,null,null,null,null,null,null,2,NA,NA,NA,NA,NA,NA,NA,NA,NA,NA
NA,NA,NA,NA,NA,choice_trial,survey-html-form,79,374437,0.0-4.0-1.37,80,1,2025-04-29T04:06:43Z,b60275e29fe2361ab97ac0ac217840d7,"Mozilla/5.0 (Windows NT 10.0; Win64; x64) AppleWebKit/537.36 (KHTML, like Gecko) Chrome/135.0.0.0 Safari/537.36",WebKit,Chrome,135.0.0.0,Windows,10,https://5puzkbbxv1.cognition.run/?sona_id=56986,"en-US,en;q=0.9,zh-TW;q=0.8,zh;q=0.7",519ras0ykn2cyhm,21,"[""Asian""]",No,Male,China,No,477541.5,NA,2510,NA,"{""product_choice"":""C""}",choice,dtc,trinary,repulsion_B,1,microwave ovens,null,null,null,null,null,null,2,90,100,80,40,30,40,Warranty,Cooking power,NA,NA
NA,NA,NA,NA,NA,choice_trial_setup,html-keyboard-response,80,374741,0.0-4.0-0.38,80,1,2025-04-29T04:06:43Z,b60275e29fe2361ab97ac0ac217840d7,"Mozilla/5.0 (Windows NT 10.0; Win64; x64) AppleWebKit/537.36 (KHTML, like Gecko) Chrome/135.0.0.0 Safari/537.36",WebKit,Chrome,135.0.0.0,Windows,10,https://5puzkbbxv1.cognition.run/?sona_id=56986,"en-US,en;q=0.9,zh-TW;q=0.8,zh;q=0.7",519ras0ykn2cyhm,21,"[""Asian""]",No,Male,China,No,477541.5,NA,null,<p></p>,null,choice,tcd,trinary,repulsion_B,1,washing machines,null,null,null,null,null,null,1,NA,NA,NA,NA,NA,NA,NA,NA,NA,NA
NA,NA,NA,NA,NA,choice_trial,survey-html-form,81,378960,0.0-4.0-1.38,80,1,2025-04-29T04:06:43Z,b60275e29fe2361ab97ac0ac217840d7,"Mozilla/5.0 (Windows NT 10.0; Win64; x64) AppleWebKit/537.36 (KHTML, like Gecko) Chrome/135.0.0.0 Safari/537.36",WebKit,Chrome,135.0.0.0,Windows,10,https://5puzkbbxv1.cognition.run/?sona_id=56986,"en-US,en;q=0.9,zh-TW;q=0.8,zh;q=0.7",519ras0ykn2cyhm,21,"[""Asian""]",No,Male,China,No,477541.5,NA,4216,NA,"{""product_choice"":""A""}",choice,tcd,trinary,repulsion_B,1,washing machines,null,null,null,null,null,null,1,90,100,80,40,30,40,Average lifespan,Energy savings,NA,NA
NA,NA,NA,NA,NA,choice_trial_setup,html-keyboard-response,82,379262,0.0-4.0-0.39,80,1,2025-04-29T04:06:43Z,b60275e29fe2361ab97ac0ac217840d7,"Mozilla/5.0 (Windows NT 10.0; Win64; x64) AppleWebKit/537.36 (KHTML, like Gecko) Chrome/135.0.0.0 Safari/537.36",WebKit,Chrome,135.0.0.0,Windows,10,https://5puzkbbxv1.cognition.run/?sona_id=56986,"en-US,en;q=0.9,zh-TW;q=0.8,zh;q=0.7",519ras0ykn2cyhm,21,"[""Asian""]",No,Male,China,No,477541.5,NA,null,<p></p>,null,choice,dct,trinary,repulsion_B,2,washing machines,null,null,null,null,null,null,1,NA,NA,NA,NA,NA,NA,NA,NA,NA,NA
NA,NA,NA,NA,NA,choice_trial,survey-html-form,83,384892,0.0-4.0-1.39,80,1,2025-04-29T04:06:43Z,b60275e29fe2361ab97ac0ac217840d7,"Mozilla/5.0 (Windows NT 10.0; Win64; x64) AppleWebKit/537.36 (KHTML, like Gecko) Chrome/135.0.0.0 Safari/537.36",WebKit,Chrome,135.0.0.0,Windows,10,https://5puzkbbxv1.cognition.run/?sona_id=56986,"en-US,en;q=0.9,zh-TW;q=0.8,zh;q=0.7",519ras0ykn2cyhm,21,"[""Asian""]",No,Male,China,No,477541.5,NA,5626,NA,"{""product_choice"":""C""}",choice,dct,trinary,repulsion_B,2,washing machines,null,null,null,null,null,null,1,40,30,40,90,100,80,Average lifespan,Energy savings,NA,NA
NA,NA,NA,NA,NA,choice_trial_setup,html-keyboard-response,84,385195,0.0-4.0-0.40,80,1,2025-04-29T04:06:43Z,b60275e29fe2361ab97ac0ac217840d7,"Mozilla/5.0 (Windows NT 10.0; Win64; x64) AppleWebKit/537.36 (KHTML, like Gecko) Chrome/135.0.0.0 Safari/537.36",WebKit,Chrome,135.0.0.0,Windows,10,https://5puzkbbxv1.cognition.run/?sona_id=56986,"en-US,en;q=0.9,zh-TW;q=0.8,zh;q=0.7",519ras0ykn2cyhm,21,"[""Asian""]",No,Male,China,No,477541.5,NA,null,<p></p>,null,choice,bw,binary,catch,null,washing machines,75,75,20,20,null,null,2,NA,NA,NA,NA,NA,NA,NA,NA,NA,NA
NA,NA,NA,NA,NA,choice_trial,survey-html-form,85,391600,0.0-4.0-1.40,80,1,2025-04-29T04:06:43Z,b60275e29fe2361ab97ac0ac217840d7,"Mozilla/5.0 (Windows NT 10.0; Win64; x64) AppleWebKit/537.36 (KHTML, like Gecko) Chrome/135.0.0.0 Safari/537.36",WebKit,Chrome,135.0.0.0,Windows,10,https://5puzkbbxv1.cognition.run/?sona_id=56986,"en-US,en;q=0.9,zh-TW;q=0.8,zh;q=0.7",519ras0ykn2cyhm,21,"[""Asian""]",No,Male,China,No,477541.5,NA,6399,NA,"{""product_choice"":""A""}",choice,bw,binary,catch,null,washing machines,75,75,20,20,null,null,2,null,null,null,null,null,null,Average lifespan,Energy savings,NA,NA
NA,NA,NA,NA,NA,choice_trial_setup,html-keyboard-response,86,391911,0.0-4.0-0.41,80,1,2025-04-29T04:06:43Z,b60275e29fe2361ab97ac0ac217840d7,"Mozilla/5.0 (Windows NT 10.0; Win64; x64) AppleWebKit/537.36 (KHTML, like Gecko) Chrome/135.0.0.0 Safari/537.36",WebKit,Chrome,135.0.0.0,Windows,10,https://5puzkbbxv1.cognition.run/?sona_id=56986,"en-US,en;q=0.9,zh-TW;q=0.8,zh;q=0.7",519ras0ykn2cyhm,21,"[""Asian""]",No,Male,China,No,477541.5,NA,null,<p></p>,null,choice,dtc,trinary,attraction,1,televisions,null,null,null,null,null,null,2,NA,NA,NA,NA,NA,NA,NA,NA,NA,NA
NA,NA,NA,NA,NA,choice_trial,survey-html-form,87,395393,0.0-4.0-1.41,80,1,2025-04-29T04:06:43Z,b60275e29fe2361ab97ac0ac217840d7,"Mozilla/5.0 (Windows NT 10.0; Win64; x64) AppleWebKit/537.36 (KHTML, like Gecko) Chrome/135.0.0.0 Safari/537.36",WebKit,Chrome,135.0.0.0,Windows,10,https://5puzkbbxv1.cognition.run/?sona_id=56986,"en-US,en;q=0.9,zh-TW;q=0.8,zh;q=0.7",519ras0ykn2cyhm,21,"[""Asian""]",No,Male,China,No,477541.5,NA,3479,NA,"{""product_choice"":""B""}",choice,dtc,trinary,attraction,1,televisions,null,null,null,null,null,null,2,60,50,60,50,60,40,Screen size,Average lifespan,NA,NA
NA,NA,NA,NA,NA,choice_trial_setup,html-keyboard-response,88,395696,0.0-4.0-0.42,80,1,2025-04-29T04:06:43Z,b60275e29fe2361ab97ac0ac217840d7,"Mozilla/5.0 (Windows NT 10.0; Win64; x64) AppleWebKit/537.36 (KHTML, like Gecko) Chrome/135.0.0.0 Safari/537.36",WebKit,Chrome,135.0.0.0,Windows,10,https://5puzkbbxv1.cognition.run/?sona_id=56986,"en-US,en;q=0.9,zh-TW;q=0.8,zh;q=0.7",519ras0ykn2cyhm,21,"[""Asian""]",No,Male,China,No,477541.5,NA,null,<p></p>,null,choice,tdc,trinary,repulsion_B,2,microwave ovens,null,null,null,null,null,null,2,NA,NA,NA,NA,NA,NA,NA,NA,NA,NA
NA,NA,NA,NA,NA,choice_trial,survey-html-form,89,400148,0.0-4.0-1.42,80,1,2025-04-29T04:06:43Z,b60275e29fe2361ab97ac0ac217840d7,"Mozilla/5.0 (Windows NT 10.0; Win64; x64) AppleWebKit/537.36 (KHTML, like Gecko) Chrome/135.0.0.0 Safari/537.36",WebKit,Chrome,135.0.0.0,Windows,10,https://5puzkbbxv1.cognition.run/?sona_id=56986,"en-US,en;q=0.9,zh-TW;q=0.8,zh;q=0.7",519ras0ykn2cyhm,21,"[""Asian""]",No,Male,China,No,477541.5,NA,4450,NA,"{""product_choice"":""A""}",choice,tdc,trinary,repulsion_B,2,microwave ovens,null,null,null,null,null,null,2,40,30,40,90,100,80,Warranty,Cooking power,NA,NA
NA,NA,NA,NA,NA,choice_trial_setup,html-keyboard-response,90,400451,0.0-4.0-0.43,80,1,2025-04-29T04:06:43Z,b60275e29fe2361ab97ac0ac217840d7,"Mozilla/5.0 (Windows NT 10.0; Win64; x64) AppleWebKit/537.36 (KHTML, like Gecko) Chrome/135.0.0.0 Safari/537.36",WebKit,Chrome,135.0.0.0,Windows,10,https://5puzkbbxv1.cognition.run/?sona_id=56986,"en-US,en;q=0.9,zh-TW;q=0.8,zh;q=0.7",519ras0ykn2cyhm,21,"[""Asian""]",No,Male,China,No,477541.5,NA,null,<p></p>,null,choice,ct,binary,attraction,NA,microwave ovens,null,null,null,null,null,null,2,NA,NA,NA,NA,NA,NA,NA,NA,NA,NA
NA,NA,NA,NA,NA,choice_trial,survey-html-form,91,402849,0.0-4.0-1.43,80,1,2025-04-29T04:06:43Z,b60275e29fe2361ab97ac0ac217840d7,"Mozilla/5.0 (Windows NT 10.0; Win64; x64) AppleWebKit/537.36 (KHTML, like Gecko) Chrome/135.0.0.0 Safari/537.36",WebKit,Chrome,135.0.0.0,Windows,10,https://5puzkbbxv1.cognition.run/?sona_id=56986,"en-US,en;q=0.9,zh-TW;q=0.8,zh;q=0.7",519ras0ykn2cyhm,21,"[""Asian""]",No,Male,China,No,477541.5,NA,2391,NA,"{""product_choice"":""B""}",choice,ct,binary,attraction,NA,microwave ovens,null,null,null,null,null,null,2,60,50,null,50,60,null,Warranty,Cooking power,NA,NA
NA,NA,NA,NA,NA,post_trials_message,html-button-response,92,404085,0.0-5.0,80,1,2025-04-29T04:06:43Z,b60275e29fe2361ab97ac0ac217840d7,"Mozilla/5.0 (Windows NT 10.0; Win64; x64) AppleWebKit/537.36 (KHTML, like Gecko) Chrome/135.0.0.0 Safari/537.36",WebKit,Chrome,135.0.0.0,Windows,10,https://5puzkbbxv1.cognition.run/?sona_id=56986,"en-US,en;q=0.9,zh-TW;q=0.8,zh;q=0.7",519ras0ykn2cyhm,21,"[""Asian""]",No,Male,China,No,477541.5,NA,1232,<p> <b>Thank you for your patience!</b></p><p>  The study will be done after completing a brief form. </p>,0,NA,NA,NA,NA,NA,NA,NA,NA,NA,NA,NA,NA,NA,NA,NA,NA,NA,NA,NA,NA,NA,NA,NA
NA,NA,NA,NA,NA,survey_message,survey-text,93,436491,0.0-6.0,80,1,2025-04-29T04:06:43Z,b60275e29fe2361ab97ac0ac217840d7,"Mozilla/5.0 (Windows NT 10.0; Win64; x64) AppleWebKit/537.36 (KHTML, like Gecko) Chrome/135.0.0.0 Safari/537.36",WebKit,Chrome,135.0.0.0,Windows,10,https://5puzkbbxv1.cognition.run/?sona_id=56986,"en-US,en;q=0.9,zh-TW;q=0.8,zh;q=0.7",519ras0ykn2cyhm,21,"[""Asian""]",No,Male,China,No,477541.5,NA,32402,NA,"{""Q0"":""best of the best""}",NA,NA,NA,NA,NA,NA,NA,NA,NA,NA,NA,NA,NA,NA,NA,NA,NA,NA,NA,NA,NA,best of the best,NA
NA,NA,NA,NA,NA,demo_age,survey-text,94,439431,0.0-7.0,80,1,2025-04-29T04:06:43Z,b60275e29fe2361ab97ac0ac217840d7,"Mozilla/5.0 (Windows NT 10.0; Win64; x64) AppleWebKit/537.36 (KHTML, like Gecko) Chrome/135.0.0.0 Safari/537.36",WebKit,Chrome,135.0.0.0,Windows,10,https://5puzkbbxv1.cognition.run/?sona_id=56986,"en-US,en;q=0.9,zh-TW;q=0.8,zh;q=0.7",519ras0ykn2cyhm,21,"[""Asian""]",No,Male,China,No,477541.5,NA,2935,NA,"{""Q0"":""21""}",NA,NA,NA,NA,NA,NA,NA,NA,NA,NA,NA,NA,NA,NA,NA,NA,NA,NA,NA,NA,NA,NA,NA
NA,NA,NA,NA,NA,demo_race,survey-multi-select,95,441144,0.0-8.0,80,1,2025-04-29T04:06:43Z,b60275e29fe2361ab97ac0ac217840d7,"Mozilla/5.0 (Windows NT 10.0; Win64; x64) AppleWebKit/537.36 (KHTML, like Gecko) Chrome/135.0.0.0 Safari/537.36",WebKit,Chrome,135.0.0.0,Windows,10,https://5puzkbbxv1.cognition.run/?sona_id=56986,"en-US,en;q=0.9,zh-TW;q=0.8,zh;q=0.7",519ras0ykn2cyhm,21,"[""Asian""]",No,Male,China,No,477541.5,NA,1709,NA,"{""Q0"":[""Asian""]}",NA,NA,NA,NA,NA,NA,NA,NA,NA,NA,NA,NA,NA,NA,NA,NA,NA,NA,NA,NA,NA,NA,[0]
NA,NA,NA,NA,NA,demo_ethnicity_gender,survey-multi-choice,96,447223,0.0-9.0,80,1,2025-04-29T04:06:43Z,b60275e29fe2361ab97ac0ac217840d7,"Mozilla/5.0 (Windows NT 10.0; Win64; x64) AppleWebKit/537.36 (KHTML, like Gecko) Chrome/135.0.0.0 Safari/537.36",WebKit,Chrome,135.0.0.0,Windows,10,https://5puzkbbxv1.cognition.run/?sona_id=56986,"en-US,en;q=0.9,zh-TW;q=0.8,zh;q=0.7",519ras0ykn2cyhm,21,"[""Asian""]",No,Male,China,No,477541.5,NA,6074,NA,"{""Q0"":""No"",""Q1"":""Male""}",NA,NA,NA,NA,NA,NA,NA,NA,NA,NA,NA,NA,NA,NA,NA,NA,NA,NA,NA,NA,NA,NA,"[0,1]"
NA,NA,NA,NA,NA,demo_countries,survey-text,97,459512,0.0-10.0,80,1,2025-04-29T04:06:43Z,b60275e29fe2361ab97ac0ac217840d7,"Mozilla/5.0 (Windows NT 10.0; Win64; x64) AppleWebKit/537.36 (KHTML, like Gecko) Chrome/135.0.0.0 Safari/537.36",WebKit,Chrome,135.0.0.0,Windows,10,https://5puzkbbxv1.cognition.run/?sona_id=56986,"en-US,en;q=0.9,zh-TW;q=0.8,zh;q=0.7",519ras0ykn2cyhm,21,"[""Asian""]",No,Male,China,No,477541.5,NA,12284,NA,"{""Q0"":""China""}",NA,NA,NA,NA,NA,NA,NA,NA,NA,NA,NA,NA,NA,NA,NA,NA,NA,NA,NA,NA,NA,NA,NA
NA,NA,NA,NA,NA,demo_prev_study,survey-multi-choice,98,466218,0.0-11.0,80,1,2025-04-29T04:06:43Z,b60275e29fe2361ab97ac0ac217840d7,"Mozilla/5.0 (Windows NT 10.0; Win64; x64) AppleWebKit/537.36 (KHTML, like Gecko) Chrome/135.0.0.0 Safari/537.36",WebKit,Chrome,135.0.0.0,Windows,10,https://5puzkbbxv1.cognition.run/?sona_id=56986,"en-US,en;q=0.9,zh-TW;q=0.8,zh;q=0.7",519ras0ykn2cyhm,21,"[""Asian""]",No,Male,China,No,477541.5,NA,6701,NA,"{""Q0"":""No""}",NA,NA,NA,NA,NA,NA,NA,NA,NA,NA,NA,NA,NA,NA,NA,NA,NA,NA,NA,NA,NA,NA,[0]
NA,NA,NA,NA,NA,post_survey_message,html-keyboard-response,99,473426,0.0-12.0,80,1,2025-04-29T04:06:43Z,b60275e29fe2361ab97ac0ac217840d7,"Mozilla/5.0 (Windows NT 10.0; Win64; x64) AppleWebKit/537.36 (KHTML, like Gecko) Chrome/135.0.0.0 Safari/537.36",WebKit,Chrome,135.0.0.0,Windows,10,https://5puzkbbxv1.cognition.run/?sona_id=56986,"en-US,en;q=0.9,zh-TW;q=0.8,zh;q=0.7",519ras0ykn2cyhm,21,"[""Asian""]",No,Male,China,No,477541.5,NA,7204,NA,j,NA,NA,NA,NA,NA,NA,NA,NA,NA,NA,NA,NA,NA,NA,NA,NA,NA,NA,NA,NA,NA,NA,NA
NA,NA,NA,NA,NA,debrief,image-keyboard-response,100,477540,0.0-13.0,80,1,2025-04-29T04:06:43Z,b60275e29fe2361ab97ac0ac217840d7,"Mozilla/5.0 (Windows NT 10.0; Win64; x64) AppleWebKit/537.36 (KHTML, like Gecko) Chrome/135.0.0.0 Safari/537.36",WebKit,Chrome,135.0.0.0,Windows,10,https://5puzkbbxv1.cognition.run/?sona_id=56986,"en-US,en;q=0.9,zh-TW;q=0.8,zh;q=0.7",519ras0ykn2cyhm,21,"[""Asian""]",No,Male,China,No,477541.5,NA,4110,Judg_choice_debrief.png,p,NA,NA,NA,NA,NA,NA,NA,NA,NA,NA,NA,NA,NA,NA,NA,NA,NA,NA,NA,NA,NA,NA,NA
