success,timeout,failed_images,failed_audio,failed_video,screen_id,trial_type,trial_index,time_elapsed,internal_node_id,run_id,condition,recorded_at,source_code_version,user_agent,device,browser,browser_version,platform,platform_version,referer,accept_language,ppt_id,age,race,ethnicity,gender,other_countries,prev_study,exp_duration,view_history,rt,stimulus,response,phase,order,set,effect,t_high,category,d1_best,d2_best,d1_worst1,d2_worst1,d1_worst2,d2_worst2,first_dim,d1_t,d1_c,d1_d,d2_t,d2_c,d2_d,d1_name,d2_name,strategy_response,question_order
TRUE,FALSE,[],[],[],img preload,preload,0,223,0.0-0.0,81,1,2025-04-29T04:12:19Z,b60275e29fe2361ab97ac0ac217840d7,"Mozilla/5.0 (Windows NT 10.0; Win64; x64) AppleWebKit/537.36 (KHTML, like Gecko) Chrome/135.0.0.0 Safari/537.36",WebKit,Chrome,135.0.0.0,Windows,10,https://5puzkbbxv1.cognition.run/?sona_id=56995,"en-US,en;q=0.9",pc0uzw1fgqhxswu,21,"[""Asian""]",No,Male,"China:10 years
US: 11 years",No,434504.69999999553,NA,NA,NA,NA,NA,NA,NA,NA,NA,NA,NA,NA,NA,NA,NA,NA,NA,NA,NA,NA,NA,NA,NA,NA,NA,NA,NA
NA,NA,NA,NA,NA,computer_message,instructions,1,7072,0.0-1.0,81,1,2025-04-29T04:12:19Z,b60275e29fe2361ab97ac0ac217840d7,"Mozilla/5.0 (Windows NT 10.0; Win64; x64) AppleWebKit/537.36 (KHTML, like Gecko) Chrome/135.0.0.0 Safari/537.36",WebKit,Chrome,135.0.0.0,Windows,10,https://5puzkbbxv1.cognition.run/?sona_id=56995,"en-US,en;q=0.9",pc0uzw1fgqhxswu,21,"[""Asian""]",No,Male,"China:10 years
US: 11 years",No,434504.69999999553,"[{""page_index"":0,""viewing_time"":6848}]",6849,NA,NA,NA,NA,NA,NA,NA,NA,NA,NA,NA,NA,NA,NA,NA,NA,NA,NA,NA,NA,NA,NA,NA,NA,NA
TRUE,NA,NA,NA,NA,NA,fullscreen,2,13595,0.0-2.0,81,1,2025-04-29T04:12:19Z,b60275e29fe2361ab97ac0ac217840d7,"Mozilla/5.0 (Windows NT 10.0; Win64; x64) AppleWebKit/537.36 (KHTML, like Gecko) Chrome/135.0.0.0 Safari/537.36",WebKit,Chrome,135.0.0.0,Windows,10,https://5puzkbbxv1.cognition.run/?sona_id=56995,"en-US,en;q=0.9",pc0uzw1fgqhxswu,21,"[""Asian""]",No,Male,"China:10 years
US: 11 years",No,434504.69999999553,NA,5518,NA,NA,NA,NA,NA,NA,NA,NA,NA,NA,NA,NA,NA,NA,NA,NA,NA,NA,NA,NA,NA,NA,NA,NA,NA
NA,NA,NA,NA,NA,choice_instructions,instructions,3,82983,0.0-3.0,81,1,2025-04-29T04:12:19Z,b60275e29fe2361ab97ac0ac217840d7,"Mozilla/5.0 (Windows NT 10.0; Win64; x64) AppleWebKit/537.36 (KHTML, like Gecko) Chrome/135.0.0.0 Safari/537.36",WebKit,Chrome,135.0.0.0,Windows,10,https://5puzkbbxv1.cognition.run/?sona_id=56995,"en-US,en;q=0.9",pc0uzw1fgqhxswu,21,"[""Asian""]",No,Male,"China:10 years
US: 11 years",No,434504.69999999553,"[{""page_index"":0,""viewing_time"":2357},{""page_index"":1,""viewing_time"":5537},{""page_index"":2,""viewing_time"":6099},{""page_index"":3,""viewing_time"":4481},{""page_index"":4,""viewing_time"":3477},{""page_index"":5,""viewing_time"":38544},{""page_index"":6,""viewing_time"":8893}]",69387,NA,NA,NA,NA,NA,NA,NA,NA,NA,NA,NA,NA,NA,NA,NA,NA,NA,NA,NA,NA,NA,NA,NA,NA,NA
NA,NA,NA,NA,NA,choice_trial_setup,html-keyboard-response,4,83286,0.0-4.0-0.0,81,1,2025-04-29T04:12:19Z,b60275e29fe2361ab97ac0ac217840d7,"Mozilla/5.0 (Windows NT 10.0; Win64; x64) AppleWebKit/537.36 (KHTML, like Gecko) Chrome/135.0.0.0 Safari/537.36",WebKit,Chrome,135.0.0.0,Windows,10,https://5puzkbbxv1.cognition.run/?sona_id=56995,"en-US,en;q=0.9",pc0uzw1fgqhxswu,21,"[""Asian""]",No,Male,"China:10 years
US: 11 years",No,434504.69999999553,NA,null,<p></p>,null,choice,tc,binary,repulsion,1,laptops,null,null,null,null,null,null,2,NA,NA,NA,NA,NA,NA,NA,NA,NA,NA
NA,NA,NA,NA,NA,choice_trial,survey-html-form,5,91915,0.0-4.0-1.0,81,1,2025-04-29T04:12:19Z,b60275e29fe2361ab97ac0ac217840d7,"Mozilla/5.0 (Windows NT 10.0; Win64; x64) AppleWebKit/537.36 (KHTML, like Gecko) Chrome/135.0.0.0 Safari/537.36",WebKit,Chrome,135.0.0.0,Windows,10,https://5puzkbbxv1.cognition.run/?sona_id=56995,"en-US,en;q=0.9",pc0uzw1fgqhxswu,21,"[""Asian""]",No,Male,"China:10 years
US: 11 years",No,434504.69999999553,NA,8627,NA,"{""product_choice"":""B""}",choice,tc,binary,repulsion,1,laptops,null,null,null,null,null,null,2,100,90,null,30,40,null,Processing speed,Memory (RAM),NA,NA
NA,NA,NA,NA,NA,choice_trial_setup,html-keyboard-response,6,92216,0.0-4.0-0.1,81,1,2025-04-29T04:12:19Z,b60275e29fe2361ab97ac0ac217840d7,"Mozilla/5.0 (Windows NT 10.0; Win64; x64) AppleWebKit/537.36 (KHTML, like Gecko) Chrome/135.0.0.0 Safari/537.36",WebKit,Chrome,135.0.0.0,Windows,10,https://5puzkbbxv1.cognition.run/?sona_id=56995,"en-US,en;q=0.9",pc0uzw1fgqhxswu,21,"[""Asian""]",No,Male,"China:10 years
US: 11 years",No,434504.69999999553,NA,null,<p></p>,null,choice,ctd,trinary,repulsion_A,2,microwave ovens,null,null,null,null,null,null,1,NA,NA,NA,NA,NA,NA,NA,NA,NA,NA
NA,NA,NA,NA,NA,choice_trial,survey-html-form,7,100410,0.0-4.0-1.1,81,1,2025-04-29T04:12:19Z,b60275e29fe2361ab97ac0ac217840d7,"Mozilla/5.0 (Windows NT 10.0; Win64; x64) AppleWebKit/537.36 (KHTML, like Gecko) Chrome/135.0.0.0 Safari/537.36",WebKit,Chrome,135.0.0.0,Windows,10,https://5puzkbbxv1.cognition.run/?sona_id=56995,"en-US,en;q=0.9",pc0uzw1fgqhxswu,21,"[""Asian""]",No,Male,"China:10 years
US: 11 years",No,434504.69999999553,NA,8192,NA,"{""product_choice"":""A""}",choice,ctd,trinary,repulsion_A,2,microwave ovens,null,null,null,null,null,null,1,30,40,20,100,90,100,Warranty,Cooking power,NA,NA
NA,NA,NA,NA,NA,choice_trial_setup,html-keyboard-response,8,100713,0.0-4.0-0.2,81,1,2025-04-29T04:12:19Z,b60275e29fe2361ab97ac0ac217840d7,"Mozilla/5.0 (Windows NT 10.0; Win64; x64) AppleWebKit/537.36 (KHTML, like Gecko) Chrome/135.0.0.0 Safari/537.36",WebKit,Chrome,135.0.0.0,Windows,10,https://5puzkbbxv1.cognition.run/?sona_id=56995,"en-US,en;q=0.9",pc0uzw1fgqhxswu,21,"[""Asian""]",No,Male,"China:10 years
US: 11 years",No,434504.69999999553,NA,null,<p></p>,null,choice,ct,binary,repulsion,2,microwave ovens,null,null,null,null,null,null,1,NA,NA,NA,NA,NA,NA,NA,NA,NA,NA
NA,NA,NA,NA,NA,choice_trial,survey-html-form,9,111105,0.0-4.0-1.2,81,1,2025-04-29T04:12:19Z,b60275e29fe2361ab97ac0ac217840d7,"Mozilla/5.0 (Windows NT 10.0; Win64; x64) AppleWebKit/537.36 (KHTML, like Gecko) Chrome/135.0.0.0 Safari/537.36",WebKit,Chrome,135.0.0.0,Windows,10,https://5puzkbbxv1.cognition.run/?sona_id=56995,"en-US,en;q=0.9",pc0uzw1fgqhxswu,21,"[""Asian""]",No,Male,"China:10 years
US: 11 years",No,434504.69999999553,NA,10390,NA,"{""product_choice"":""A""}",choice,ct,binary,repulsion,2,microwave ovens,null,null,null,null,null,null,1,30,40,null,100,90,null,Warranty,Cooking power,NA,NA
NA,NA,NA,NA,NA,choice_trial_setup,html-keyboard-response,10,111407,0.0-4.0-0.3,81,1,2025-04-29T04:12:19Z,b60275e29fe2361ab97ac0ac217840d7,"Mozilla/5.0 (Windows NT 10.0; Win64; x64) AppleWebKit/537.36 (KHTML, like Gecko) Chrome/135.0.0.0 Safari/537.36",WebKit,Chrome,135.0.0.0,Windows,10,https://5puzkbbxv1.cognition.run/?sona_id=56995,"en-US,en;q=0.9",pc0uzw1fgqhxswu,21,"[""Asian""]",No,Male,"China:10 years
US: 11 years",No,434504.69999999553,NA,null,<p></p>,null,choice,tcd,trinary,attraction,2,televisions,null,null,null,null,null,null,2,NA,NA,NA,NA,NA,NA,NA,NA,NA,NA
NA,NA,NA,NA,NA,choice_trial,survey-html-form,11,119166,0.0-4.0-1.3,81,1,2025-04-29T04:12:19Z,b60275e29fe2361ab97ac0ac217840d7,"Mozilla/5.0 (Windows NT 10.0; Win64; x64) AppleWebKit/537.36 (KHTML, like Gecko) Chrome/135.0.0.0 Safari/537.36",WebKit,Chrome,135.0.0.0,Windows,10,https://5puzkbbxv1.cognition.run/?sona_id=56995,"en-US,en;q=0.9",pc0uzw1fgqhxswu,21,"[""Asian""]",No,Male,"China:10 years
US: 11 years",No,434504.69999999553,NA,7757,NA,"{""product_choice"":""A""}",choice,tcd,trinary,attraction,2,televisions,null,null,null,null,null,null,2,50,60,40,60,50,60,Screen size,Average lifespan,NA,NA
NA,NA,NA,NA,NA,choice_trial_setup,html-keyboard-response,12,119469,0.0-4.0-0.4,81,1,2025-04-29T04:12:19Z,b60275e29fe2361ab97ac0ac217840d7,"Mozilla/5.0 (Windows NT 10.0; Win64; x64) AppleWebKit/537.36 (KHTML, like Gecko) Chrome/135.0.0.0 Safari/537.36",WebKit,Chrome,135.0.0.0,Windows,10,https://5puzkbbxv1.cognition.run/?sona_id=56995,"en-US,en;q=0.9",pc0uzw1fgqhxswu,21,"[""Asian""]",No,Male,"China:10 years
US: 11 years",No,434504.69999999553,NA,null,<p></p>,null,choice,wb,binary,catch,null,washing machines,70,95,5,20,null,null,2,NA,NA,NA,NA,NA,NA,NA,NA,NA,NA
NA,NA,NA,NA,NA,choice_trial,survey-html-form,13,126819,0.0-4.0-1.4,81,1,2025-04-29T04:12:19Z,b60275e29fe2361ab97ac0ac217840d7,"Mozilla/5.0 (Windows NT 10.0; Win64; x64) AppleWebKit/537.36 (KHTML, like Gecko) Chrome/135.0.0.0 Safari/537.36",WebKit,Chrome,135.0.0.0,Windows,10,https://5puzkbbxv1.cognition.run/?sona_id=56995,"en-US,en;q=0.9",pc0uzw1fgqhxswu,21,"[""Asian""]",No,Male,"China:10 years
US: 11 years",No,434504.69999999553,NA,7348,NA,"{""product_choice"":""B""}",choice,wb,binary,catch,null,washing machines,70,95,5,20,null,null,2,null,null,null,null,null,null,Average lifespan,Energy savings,NA,NA
NA,NA,NA,NA,NA,choice_trial_setup,html-keyboard-response,14,127120,0.0-4.0-0.5,81,1,2025-04-29T04:12:19Z,b60275e29fe2361ab97ac0ac217840d7,"Mozilla/5.0 (Windows NT 10.0; Win64; x64) AppleWebKit/537.36 (KHTML, like Gecko) Chrome/135.0.0.0 Safari/537.36",WebKit,Chrome,135.0.0.0,Windows,10,https://5puzkbbxv1.cognition.run/?sona_id=56995,"en-US,en;q=0.9",pc0uzw1fgqhxswu,21,"[""Asian""]",No,Male,"China:10 years
US: 11 years",No,434504.69999999553,NA,null,<p></p>,null,choice,ctd,trinary,attraction,2,microwave ovens,null,null,null,null,null,null,1,NA,NA,NA,NA,NA,NA,NA,NA,NA,NA
NA,NA,NA,NA,NA,choice_trial,survey-html-form,15,131703,0.0-4.0-1.5,81,1,2025-04-29T04:12:19Z,b60275e29fe2361ab97ac0ac217840d7,"Mozilla/5.0 (Windows NT 10.0; Win64; x64) AppleWebKit/537.36 (KHTML, like Gecko) Chrome/135.0.0.0 Safari/537.36",WebKit,Chrome,135.0.0.0,Windows,10,https://5puzkbbxv1.cognition.run/?sona_id=56995,"en-US,en;q=0.9",pc0uzw1fgqhxswu,21,"[""Asian""]",No,Male,"China:10 years
US: 11 years",No,434504.69999999553,NA,4581,NA,"{""product_choice"":""A""}",choice,ctd,trinary,attraction,2,microwave ovens,null,null,null,null,null,null,1,50,60,40,60,50,60,Warranty,Cooking power,NA,NA
NA,NA,NA,NA,NA,choice_trial_setup,html-keyboard-response,16,132011,0.0-4.0-0.6,81,1,2025-04-29T04:12:19Z,b60275e29fe2361ab97ac0ac217840d7,"Mozilla/5.0 (Windows NT 10.0; Win64; x64) AppleWebKit/537.36 (KHTML, like Gecko) Chrome/135.0.0.0 Safari/537.36",WebKit,Chrome,135.0.0.0,Windows,10,https://5puzkbbxv1.cognition.run/?sona_id=56995,"en-US,en;q=0.9",pc0uzw1fgqhxswu,21,"[""Asian""]",No,Male,"China:10 years
US: 11 years",No,434504.69999999553,NA,null,<p></p>,null,choice,wb,binary,catch,null,laptops,75,70,40,45,null,null,1,NA,NA,NA,NA,NA,NA,NA,NA,NA,NA
NA,NA,NA,NA,NA,choice_trial,survey-html-form,17,139757,0.0-4.0-1.6,81,1,2025-04-29T04:12:19Z,b60275e29fe2361ab97ac0ac217840d7,"Mozilla/5.0 (Windows NT 10.0; Win64; x64) AppleWebKit/537.36 (KHTML, like Gecko) Chrome/135.0.0.0 Safari/537.36",WebKit,Chrome,135.0.0.0,Windows,10,https://5puzkbbxv1.cognition.run/?sona_id=56995,"en-US,en;q=0.9",pc0uzw1fgqhxswu,21,"[""Asian""]",No,Male,"China:10 years
US: 11 years",No,434504.69999999553,NA,7745,NA,"{""product_choice"":""B""}",choice,wb,binary,catch,null,laptops,75,70,40,45,null,null,1,null,null,null,null,null,null,Processing speed,Memory (RAM),NA,NA
NA,NA,NA,NA,NA,choice_trial_setup,html-keyboard-response,18,140059,0.0-4.0-0.7,81,1,2025-04-29T04:12:19Z,b60275e29fe2361ab97ac0ac217840d7,"Mozilla/5.0 (Windows NT 10.0; Win64; x64) AppleWebKit/537.36 (KHTML, like Gecko) Chrome/135.0.0.0 Safari/537.36",WebKit,Chrome,135.0.0.0,Windows,10,https://5puzkbbxv1.cognition.run/?sona_id=56995,"en-US,en;q=0.9",pc0uzw1fgqhxswu,21,"[""Asian""]",No,Male,"China:10 years
US: 11 years",No,434504.69999999553,NA,null,<p></p>,null,choice,bww,trinary,catch,null,washing machines,95,50,30,25,20,10,2,NA,NA,NA,NA,NA,NA,NA,NA,NA,NA
NA,NA,NA,NA,NA,choice_trial,survey-html-form,19,143656,0.0-4.0-1.7,81,1,2025-04-29T04:12:19Z,b60275e29fe2361ab97ac0ac217840d7,"Mozilla/5.0 (Windows NT 10.0; Win64; x64) AppleWebKit/537.36 (KHTML, like Gecko) Chrome/135.0.0.0 Safari/537.36",WebKit,Chrome,135.0.0.0,Windows,10,https://5puzkbbxv1.cognition.run/?sona_id=56995,"en-US,en;q=0.9",pc0uzw1fgqhxswu,21,"[""Asian""]",No,Male,"China:10 years
US: 11 years",No,434504.69999999553,NA,3596,NA,"{""product_choice"":""A""}",choice,bww,trinary,catch,null,washing machines,95,50,30,25,20,10,2,null,null,null,null,null,null,Average lifespan,Energy savings,NA,NA
NA,NA,NA,NA,NA,choice_trial_setup,html-keyboard-response,20,143957,0.0-4.0-0.8,81,1,2025-04-29T04:12:19Z,b60275e29fe2361ab97ac0ac217840d7,"Mozilla/5.0 (Windows NT 10.0; Win64; x64) AppleWebKit/537.36 (KHTML, like Gecko) Chrome/135.0.0.0 Safari/537.36",WebKit,Chrome,135.0.0.0,Windows,10,https://5puzkbbxv1.cognition.run/?sona_id=56995,"en-US,en;q=0.9",pc0uzw1fgqhxswu,21,"[""Asian""]",No,Male,"China:10 years
US: 11 years",No,434504.69999999553,NA,null,<p></p>,null,choice,tc,binary,repulsion,1,microwave ovens,null,null,null,null,null,null,2,NA,NA,NA,NA,NA,NA,NA,NA,NA,NA
NA,NA,NA,NA,NA,choice_trial,survey-html-form,21,147035,0.0-4.0-1.8,81,1,2025-04-29T04:12:19Z,b60275e29fe2361ab97ac0ac217840d7,"Mozilla/5.0 (Windows NT 10.0; Win64; x64) AppleWebKit/537.36 (KHTML, like Gecko) Chrome/135.0.0.0 Safari/537.36",WebKit,Chrome,135.0.0.0,Windows,10,https://5puzkbbxv1.cognition.run/?sona_id=56995,"en-US,en;q=0.9",pc0uzw1fgqhxswu,21,"[""Asian""]",No,Male,"China:10 years
US: 11 years",No,434504.69999999553,NA,3077,NA,"{""product_choice"":""A""}",choice,tc,binary,repulsion,1,microwave ovens,null,null,null,null,null,null,2,100,90,null,30,40,null,Warranty,Cooking power,NA,NA
NA,NA,NA,NA,NA,choice_trial_setup,html-keyboard-response,22,147337,0.0-4.0-0.9,81,1,2025-04-29T04:12:19Z,b60275e29fe2361ab97ac0ac217840d7,"Mozilla/5.0 (Windows NT 10.0; Win64; x64) AppleWebKit/537.36 (KHTML, like Gecko) Chrome/135.0.0.0 Safari/537.36",WebKit,Chrome,135.0.0.0,Windows,10,https://5puzkbbxv1.cognition.run/?sona_id=56995,"en-US,en;q=0.9",pc0uzw1fgqhxswu,21,"[""Asian""]",No,Male,"China:10 years
US: 11 years",No,434504.69999999553,NA,null,<p></p>,null,choice,ctd,trinary,attraction,2,washing machines,null,null,null,null,null,null,2,NA,NA,NA,NA,NA,NA,NA,NA,NA,NA
NA,NA,NA,NA,NA,choice_trial,survey-html-form,23,157622,0.0-4.0-1.9,81,1,2025-04-29T04:12:19Z,b60275e29fe2361ab97ac0ac217840d7,"Mozilla/5.0 (Windows NT 10.0; Win64; x64) AppleWebKit/537.36 (KHTML, like Gecko) Chrome/135.0.0.0 Safari/537.36",WebKit,Chrome,135.0.0.0,Windows,10,https://5puzkbbxv1.cognition.run/?sona_id=56995,"en-US,en;q=0.9",pc0uzw1fgqhxswu,21,"[""Asian""]",No,Male,"China:10 years
US: 11 years",No,434504.69999999553,NA,10283,NA,"{""product_choice"":""B""}",choice,ctd,trinary,attraction,2,washing machines,null,null,null,null,null,null,2,50,60,40,60,50,60,Average lifespan,Energy savings,NA,NA
NA,NA,NA,NA,NA,choice_trial_setup,html-keyboard-response,24,157924,0.0-4.0-0.10,81,1,2025-04-29T04:12:19Z,b60275e29fe2361ab97ac0ac217840d7,"Mozilla/5.0 (Windows NT 10.0; Win64; x64) AppleWebKit/537.36 (KHTML, like Gecko) Chrome/135.0.0.0 Safari/537.36",WebKit,Chrome,135.0.0.0,Windows,10,https://5puzkbbxv1.cognition.run/?sona_id=56995,"en-US,en;q=0.9",pc0uzw1fgqhxswu,21,"[""Asian""]",No,Male,"China:10 years
US: 11 years",No,434504.69999999553,NA,null,<p></p>,null,choice,dtc,trinary,repulsion_B,1,microwave ovens,null,null,null,null,null,null,1,NA,NA,NA,NA,NA,NA,NA,NA,NA,NA
NA,NA,NA,NA,NA,choice_trial,survey-html-form,25,162868,0.0-4.0-1.10,81,1,2025-04-29T04:12:19Z,b60275e29fe2361ab97ac0ac217840d7,"Mozilla/5.0 (Windows NT 10.0; Win64; x64) AppleWebKit/537.36 (KHTML, like Gecko) Chrome/135.0.0.0 Safari/537.36",WebKit,Chrome,135.0.0.0,Windows,10,https://5puzkbbxv1.cognition.run/?sona_id=56995,"en-US,en;q=0.9",pc0uzw1fgqhxswu,21,"[""Asian""]",No,Male,"China:10 years
US: 11 years",No,434504.69999999553,NA,4943,NA,"{""product_choice"":""C""}",choice,dtc,trinary,repulsion_B,1,microwave ovens,null,null,null,null,null,null,1,90,100,80,40,30,40,Warranty,Cooking power,NA,NA
NA,NA,NA,NA,NA,choice_trial_setup,html-keyboard-response,26,163171,0.0-4.0-0.11,81,1,2025-04-29T04:12:19Z,b60275e29fe2361ab97ac0ac217840d7,"Mozilla/5.0 (Windows NT 10.0; Win64; x64) AppleWebKit/537.36 (KHTML, like Gecko) Chrome/135.0.0.0 Safari/537.36",WebKit,Chrome,135.0.0.0,Windows,10,https://5puzkbbxv1.cognition.run/?sona_id=56995,"en-US,en;q=0.9",pc0uzw1fgqhxswu,21,"[""Asian""]",No,Male,"China:10 years
US: 11 years",No,434504.69999999553,NA,null,<p></p>,null,choice,ct,binary,attraction,NA,laptops,null,null,null,null,null,null,2,NA,NA,NA,NA,NA,NA,NA,NA,NA,NA
NA,NA,NA,NA,NA,choice_trial,survey-html-form,27,169633,0.0-4.0-1.11,81,1,2025-04-29T04:12:19Z,b60275e29fe2361ab97ac0ac217840d7,"Mozilla/5.0 (Windows NT 10.0; Win64; x64) AppleWebKit/537.36 (KHTML, like Gecko) Chrome/135.0.0.0 Safari/537.36",WebKit,Chrome,135.0.0.0,Windows,10,https://5puzkbbxv1.cognition.run/?sona_id=56995,"en-US,en;q=0.9",pc0uzw1fgqhxswu,21,"[""Asian""]",No,Male,"China:10 years
US: 11 years",No,434504.69999999553,NA,6461,NA,"{""product_choice"":""A""}",choice,ct,binary,attraction,NA,laptops,null,null,null,null,null,null,2,60,50,null,50,60,null,Processing speed,Memory (RAM),NA,NA
NA,NA,NA,NA,NA,choice_trial_setup,html-keyboard-response,28,169935,0.0-4.0-0.12,81,1,2025-04-29T04:12:19Z,b60275e29fe2361ab97ac0ac217840d7,"Mozilla/5.0 (Windows NT 10.0; Win64; x64) AppleWebKit/537.36 (KHTML, like Gecko) Chrome/135.0.0.0 Safari/537.36",WebKit,Chrome,135.0.0.0,Windows,10,https://5puzkbbxv1.cognition.run/?sona_id=56995,"en-US,en;q=0.9",pc0uzw1fgqhxswu,21,"[""Asian""]",No,Male,"China:10 years
US: 11 years",No,434504.69999999553,NA,null,<p></p>,null,choice,ct,binary,repulsion,2,washing machines,null,null,null,null,null,null,2,NA,NA,NA,NA,NA,NA,NA,NA,NA,NA
NA,NA,NA,NA,NA,choice_trial,survey-html-form,29,172080,0.0-4.0-1.12,81,1,2025-04-29T04:12:19Z,b60275e29fe2361ab97ac0ac217840d7,"Mozilla/5.0 (Windows NT 10.0; Win64; x64) AppleWebKit/537.36 (KHTML, like Gecko) Chrome/135.0.0.0 Safari/537.36",WebKit,Chrome,135.0.0.0,Windows,10,https://5puzkbbxv1.cognition.run/?sona_id=56995,"en-US,en;q=0.9",pc0uzw1fgqhxswu,21,"[""Asian""]",No,Male,"China:10 years
US: 11 years",No,434504.69999999553,NA,2144,NA,"{""product_choice"":""B""}",choice,ct,binary,repulsion,2,washing machines,null,null,null,null,null,null,2,30,40,null,100,90,null,Average lifespan,Energy savings,NA,NA
NA,NA,NA,NA,NA,choice_trial_setup,html-keyboard-response,30,172382,0.0-4.0-0.13,81,1,2025-04-29T04:12:19Z,b60275e29fe2361ab97ac0ac217840d7,"Mozilla/5.0 (Windows NT 10.0; Win64; x64) AppleWebKit/537.36 (KHTML, like Gecko) Chrome/135.0.0.0 Safari/537.36",WebKit,Chrome,135.0.0.0,Windows,10,https://5puzkbbxv1.cognition.run/?sona_id=56995,"en-US,en;q=0.9",pc0uzw1fgqhxswu,21,"[""Asian""]",No,Male,"China:10 years
US: 11 years",No,434504.69999999553,NA,null,<p></p>,null,choice,tc,binary,attraction,NA,televisions,null,null,null,null,null,null,1,NA,NA,NA,NA,NA,NA,NA,NA,NA,NA
NA,NA,NA,NA,NA,choice_trial,survey-html-form,31,189379,0.0-4.0-1.13,81,1,2025-04-29T04:12:19Z,b60275e29fe2361ab97ac0ac217840d7,"Mozilla/5.0 (Windows NT 10.0; Win64; x64) AppleWebKit/537.36 (KHTML, like Gecko) Chrome/135.0.0.0 Safari/537.36",WebKit,Chrome,135.0.0.0,Windows,10,https://5puzkbbxv1.cognition.run/?sona_id=56995,"en-US,en;q=0.9",pc0uzw1fgqhxswu,21,"[""Asian""]",No,Male,"China:10 years
US: 11 years",No,434504.69999999553,NA,16995,NA,"{""product_choice"":""B""}",choice,tc,binary,attraction,NA,televisions,null,null,null,null,null,null,1,60,50,null,50,60,null,Screen size,Average lifespan,NA,NA
NA,NA,NA,NA,NA,choice_trial_setup,html-keyboard-response,32,189681,0.0-4.0-0.14,81,1,2025-04-29T04:12:19Z,b60275e29fe2361ab97ac0ac217840d7,"Mozilla/5.0 (Windows NT 10.0; Win64; x64) AppleWebKit/537.36 (KHTML, like Gecko) Chrome/135.0.0.0 Safari/537.36",WebKit,Chrome,135.0.0.0,Windows,10,https://5puzkbbxv1.cognition.run/?sona_id=56995,"en-US,en;q=0.9",pc0uzw1fgqhxswu,21,"[""Asian""]",No,Male,"China:10 years
US: 11 years",No,434504.69999999553,NA,null,<p></p>,null,choice,cdt,trinary,repulsion_A,1,microwave ovens,null,null,null,null,null,null,1,NA,NA,NA,NA,NA,NA,NA,NA,NA,NA
NA,NA,NA,NA,NA,choice_trial,survey-html-form,33,192938,0.0-4.0-1.14,81,1,2025-04-29T04:12:19Z,b60275e29fe2361ab97ac0ac217840d7,"Mozilla/5.0 (Windows NT 10.0; Win64; x64) AppleWebKit/537.36 (KHTML, like Gecko) Chrome/135.0.0.0 Safari/537.36",WebKit,Chrome,135.0.0.0,Windows,10,https://5puzkbbxv1.cognition.run/?sona_id=56995,"en-US,en;q=0.9",pc0uzw1fgqhxswu,21,"[""Asian""]",No,Male,"China:10 years
US: 11 years",No,434504.69999999553,NA,3256,NA,"{""product_choice"":""C""}",choice,cdt,trinary,repulsion_A,1,microwave ovens,null,null,null,null,null,null,1,100,90,100,30,40,20,Warranty,Cooking power,NA,NA
NA,NA,NA,NA,NA,choice_trial_setup,html-keyboard-response,34,193240,0.0-4.0-0.15,81,1,2025-04-29T04:12:19Z,b60275e29fe2361ab97ac0ac217840d7,"Mozilla/5.0 (Windows NT 10.0; Win64; x64) AppleWebKit/537.36 (KHTML, like Gecko) Chrome/135.0.0.0 Safari/537.36",WebKit,Chrome,135.0.0.0,Windows,10,https://5puzkbbxv1.cognition.run/?sona_id=56995,"en-US,en;q=0.9",pc0uzw1fgqhxswu,21,"[""Asian""]",No,Male,"China:10 years
US: 11 years",No,434504.69999999553,NA,null,<p></p>,null,choice,ct,binary,attraction,NA,microwave ovens,null,null,null,null,null,null,2,NA,NA,NA,NA,NA,NA,NA,NA,NA,NA
NA,NA,NA,NA,NA,choice_trial,survey-html-form,35,195720,0.0-4.0-1.15,81,1,2025-04-29T04:12:19Z,b60275e29fe2361ab97ac0ac217840d7,"Mozilla/5.0 (Windows NT 10.0; Win64; x64) AppleWebKit/537.36 (KHTML, like Gecko) Chrome/135.0.0.0 Safari/537.36",WebKit,Chrome,135.0.0.0,Windows,10,https://5puzkbbxv1.cognition.run/?sona_id=56995,"en-US,en;q=0.9",pc0uzw1fgqhxswu,21,"[""Asian""]",No,Male,"China:10 years
US: 11 years",No,434504.69999999553,NA,2479,NA,"{""product_choice"":""B""}",choice,ct,binary,attraction,NA,microwave ovens,null,null,null,null,null,null,2,60,50,null,50,60,null,Warranty,Cooking power,NA,NA
NA,NA,NA,NA,NA,choice_trial_setup,html-keyboard-response,36,196022,0.0-4.0-0.16,81,1,2025-04-29T04:12:19Z,b60275e29fe2361ab97ac0ac217840d7,"Mozilla/5.0 (Windows NT 10.0; Win64; x64) AppleWebKit/537.36 (KHTML, like Gecko) Chrome/135.0.0.0 Safari/537.36",WebKit,Chrome,135.0.0.0,Windows,10,https://5puzkbbxv1.cognition.run/?sona_id=56995,"en-US,en;q=0.9",pc0uzw1fgqhxswu,21,"[""Asian""]",No,Male,"China:10 years
US: 11 years",No,434504.69999999553,NA,null,<p></p>,null,choice,ctd,trinary,repulsion_B,2,televisions,null,null,null,null,null,null,2,NA,NA,NA,NA,NA,NA,NA,NA,NA,NA
NA,NA,NA,NA,NA,choice_trial,survey-html-form,37,198486,0.0-4.0-1.16,81,1,2025-04-29T04:12:19Z,b60275e29fe2361ab97ac0ac217840d7,"Mozilla/5.0 (Windows NT 10.0; Win64; x64) AppleWebKit/537.36 (KHTML, like Gecko) Chrome/135.0.0.0 Safari/537.36",WebKit,Chrome,135.0.0.0,Windows,10,https://5puzkbbxv1.cognition.run/?sona_id=56995,"en-US,en;q=0.9",pc0uzw1fgqhxswu,21,"[""Asian""]",No,Male,"China:10 years
US: 11 years",No,434504.69999999553,NA,2463,NA,"{""product_choice"":""A""}",choice,ctd,trinary,repulsion_B,2,televisions,null,null,null,null,null,null,2,40,30,40,90,100,80,Screen size,Average lifespan,NA,NA
NA,NA,NA,NA,NA,choice_trial_setup,html-keyboard-response,38,198788,0.0-4.0-0.17,81,1,2025-04-29T04:12:19Z,b60275e29fe2361ab97ac0ac217840d7,"Mozilla/5.0 (Windows NT 10.0; Win64; x64) AppleWebKit/537.36 (KHTML, like Gecko) Chrome/135.0.0.0 Safari/537.36",WebKit,Chrome,135.0.0.0,Windows,10,https://5puzkbbxv1.cognition.run/?sona_id=56995,"en-US,en;q=0.9",pc0uzw1fgqhxswu,21,"[""Asian""]",No,Male,"China:10 years
US: 11 years",No,434504.69999999553,NA,null,<p></p>,null,choice,dtc,trinary,repulsion_A,2,laptops,null,null,null,null,null,null,1,NA,NA,NA,NA,NA,NA,NA,NA,NA,NA
NA,NA,NA,NA,NA,choice_trial,survey-html-form,39,206705,0.0-4.0-1.17,81,1,2025-04-29T04:12:19Z,b60275e29fe2361ab97ac0ac217840d7,"Mozilla/5.0 (Windows NT 10.0; Win64; x64) AppleWebKit/537.36 (KHTML, like Gecko) Chrome/135.0.0.0 Safari/537.36",WebKit,Chrome,135.0.0.0,Windows,10,https://5puzkbbxv1.cognition.run/?sona_id=56995,"en-US,en;q=0.9",pc0uzw1fgqhxswu,21,"[""Asian""]",No,Male,"China:10 years
US: 11 years",No,434504.69999999553,NA,7915,NA,"{""product_choice"":""C""}",choice,dtc,trinary,repulsion_A,2,laptops,null,null,null,null,null,null,1,30,40,20,100,90,100,Processing speed,Memory (RAM),NA,NA
NA,NA,NA,NA,NA,choice_trial_setup,html-keyboard-response,40,207007,0.0-4.0-0.18,81,1,2025-04-29T04:12:19Z,b60275e29fe2361ab97ac0ac217840d7,"Mozilla/5.0 (Windows NT 10.0; Win64; x64) AppleWebKit/537.36 (KHTML, like Gecko) Chrome/135.0.0.0 Safari/537.36",WebKit,Chrome,135.0.0.0,Windows,10,https://5puzkbbxv1.cognition.run/?sona_id=56995,"en-US,en;q=0.9",pc0uzw1fgqhxswu,21,"[""Asian""]",No,Male,"China:10 years
US: 11 years",No,434504.69999999553,NA,null,<p></p>,null,choice,tc,binary,repulsion,1,televisions,null,null,null,null,null,null,1,NA,NA,NA,NA,NA,NA,NA,NA,NA,NA
NA,NA,NA,NA,NA,choice_trial,survey-html-form,41,212129,0.0-4.0-1.18,81,1,2025-04-29T04:12:19Z,b60275e29fe2361ab97ac0ac217840d7,"Mozilla/5.0 (Windows NT 10.0; Win64; x64) AppleWebKit/537.36 (KHTML, like Gecko) Chrome/135.0.0.0 Safari/537.36",WebKit,Chrome,135.0.0.0,Windows,10,https://5puzkbbxv1.cognition.run/?sona_id=56995,"en-US,en;q=0.9",pc0uzw1fgqhxswu,21,"[""Asian""]",No,Male,"China:10 years
US: 11 years",No,434504.69999999553,NA,5121,NA,"{""product_choice"":""B""}",choice,tc,binary,repulsion,1,televisions,null,null,null,null,null,null,1,100,90,null,30,40,null,Screen size,Average lifespan,NA,NA
NA,NA,NA,NA,NA,choice_trial_setup,html-keyboard-response,42,212432,0.0-4.0-0.19,81,1,2025-04-29T04:12:19Z,b60275e29fe2361ab97ac0ac217840d7,"Mozilla/5.0 (Windows NT 10.0; Win64; x64) AppleWebKit/537.36 (KHTML, like Gecko) Chrome/135.0.0.0 Safari/537.36",WebKit,Chrome,135.0.0.0,Windows,10,https://5puzkbbxv1.cognition.run/?sona_id=56995,"en-US,en;q=0.9",pc0uzw1fgqhxswu,21,"[""Asian""]",No,Male,"China:10 years
US: 11 years",No,434504.69999999553,NA,null,<p></p>,null,choice,tc,binary,repulsion,2,laptops,null,null,null,null,null,null,2,NA,NA,NA,NA,NA,NA,NA,NA,NA,NA
NA,NA,NA,NA,NA,choice_trial,survey-html-form,43,215334,0.0-4.0-1.19,81,1,2025-04-29T04:12:19Z,b60275e29fe2361ab97ac0ac217840d7,"Mozilla/5.0 (Windows NT 10.0; Win64; x64) AppleWebKit/537.36 (KHTML, like Gecko) Chrome/135.0.0.0 Safari/537.36",WebKit,Chrome,135.0.0.0,Windows,10,https://5puzkbbxv1.cognition.run/?sona_id=56995,"en-US,en;q=0.9",pc0uzw1fgqhxswu,21,"[""Asian""]",No,Male,"China:10 years
US: 11 years",No,434504.69999999553,NA,2901,NA,"{""product_choice"":""B""}",choice,tc,binary,repulsion,2,laptops,null,null,null,null,null,null,2,30,40,null,100,90,null,Processing speed,Memory (RAM),NA,NA
NA,NA,NA,NA,NA,choice_trial_setup,html-keyboard-response,44,215636,0.0-4.0-0.20,81,1,2025-04-29T04:12:19Z,b60275e29fe2361ab97ac0ac217840d7,"Mozilla/5.0 (Windows NT 10.0; Win64; x64) AppleWebKit/537.36 (KHTML, like Gecko) Chrome/135.0.0.0 Safari/537.36",WebKit,Chrome,135.0.0.0,Windows,10,https://5puzkbbxv1.cognition.run/?sona_id=56995,"en-US,en;q=0.9",pc0uzw1fgqhxswu,21,"[""Asian""]",No,Male,"China:10 years
US: 11 years",No,434504.69999999553,NA,null,<p></p>,null,choice,wwb,trinary,catch,null,microwave ovens,90,55,10,35,45,30,2,NA,NA,NA,NA,NA,NA,NA,NA,NA,NA
NA,NA,NA,NA,NA,choice_trial,survey-html-form,45,223402,0.0-4.0-1.20,81,1,2025-04-29T04:12:19Z,b60275e29fe2361ab97ac0ac217840d7,"Mozilla/5.0 (Windows NT 10.0; Win64; x64) AppleWebKit/537.36 (KHTML, like Gecko) Chrome/135.0.0.0 Safari/537.36",WebKit,Chrome,135.0.0.0,Windows,10,https://5puzkbbxv1.cognition.run/?sona_id=56995,"en-US,en;q=0.9",pc0uzw1fgqhxswu,21,"[""Asian""]",No,Male,"China:10 years
US: 11 years",No,434504.69999999553,NA,7764,NA,"{""product_choice"":""C""}",choice,wwb,trinary,catch,null,microwave ovens,90,55,10,35,45,30,2,null,null,null,null,null,null,Warranty,Cooking power,NA,NA
NA,NA,NA,NA,NA,choice_trial_setup,html-keyboard-response,46,223705,0.0-4.0-0.21,81,1,2025-04-29T04:12:19Z,b60275e29fe2361ab97ac0ac217840d7,"Mozilla/5.0 (Windows NT 10.0; Win64; x64) AppleWebKit/537.36 (KHTML, like Gecko) Chrome/135.0.0.0 Safari/537.36",WebKit,Chrome,135.0.0.0,Windows,10,https://5puzkbbxv1.cognition.run/?sona_id=56995,"en-US,en;q=0.9",pc0uzw1fgqhxswu,21,"[""Asian""]",No,Male,"China:10 years
US: 11 years",No,434504.69999999553,NA,null,<p></p>,null,choice,tcd,trinary,attraction,1,laptops,null,null,null,null,null,null,1,NA,NA,NA,NA,NA,NA,NA,NA,NA,NA
NA,NA,NA,NA,NA,choice_trial,survey-html-form,47,228529,0.0-4.0-1.21,81,1,2025-04-29T04:12:19Z,b60275e29fe2361ab97ac0ac217840d7,"Mozilla/5.0 (Windows NT 10.0; Win64; x64) AppleWebKit/537.36 (KHTML, like Gecko) Chrome/135.0.0.0 Safari/537.36",WebKit,Chrome,135.0.0.0,Windows,10,https://5puzkbbxv1.cognition.run/?sona_id=56995,"en-US,en;q=0.9",pc0uzw1fgqhxswu,21,"[""Asian""]",No,Male,"China:10 years
US: 11 years",No,434504.69999999553,NA,4823,NA,"{""product_choice"":""B""}",choice,tcd,trinary,attraction,1,laptops,null,null,null,null,null,null,1,60,50,60,50,60,40,Processing speed,Memory (RAM),NA,NA
NA,NA,NA,NA,NA,choice_trial_setup,html-keyboard-response,48,228831,0.0-4.0-0.22,81,1,2025-04-29T04:12:19Z,b60275e29fe2361ab97ac0ac217840d7,"Mozilla/5.0 (Windows NT 10.0; Win64; x64) AppleWebKit/537.36 (KHTML, like Gecko) Chrome/135.0.0.0 Safari/537.36",WebKit,Chrome,135.0.0.0,Windows,10,https://5puzkbbxv1.cognition.run/?sona_id=56995,"en-US,en;q=0.9",pc0uzw1fgqhxswu,21,"[""Asian""]",No,Male,"China:10 years
US: 11 years",No,434504.69999999553,NA,null,<p></p>,null,choice,dtc,trinary,repulsion_B,1,washing machines,null,null,null,null,null,null,2,NA,NA,NA,NA,NA,NA,NA,NA,NA,NA
NA,NA,NA,NA,NA,choice_trial,survey-html-form,49,233631,0.0-4.0-1.22,81,1,2025-04-29T04:12:19Z,b60275e29fe2361ab97ac0ac217840d7,"Mozilla/5.0 (Windows NT 10.0; Win64; x64) AppleWebKit/537.36 (KHTML, like Gecko) Chrome/135.0.0.0 Safari/537.36",WebKit,Chrome,135.0.0.0,Windows,10,https://5puzkbbxv1.cognition.run/?sona_id=56995,"en-US,en;q=0.9",pc0uzw1fgqhxswu,21,"[""Asian""]",No,Male,"China:10 years
US: 11 years",No,434504.69999999553,NA,4799,NA,"{""product_choice"":""C""}",choice,dtc,trinary,repulsion_B,1,washing machines,null,null,null,null,null,null,2,90,100,80,40,30,40,Average lifespan,Energy savings,NA,NA
NA,NA,NA,NA,NA,choice_trial_setup,html-keyboard-response,50,233933,0.0-4.0-0.23,81,1,2025-04-29T04:12:19Z,b60275e29fe2361ab97ac0ac217840d7,"Mozilla/5.0 (Windows NT 10.0; Win64; x64) AppleWebKit/537.36 (KHTML, like Gecko) Chrome/135.0.0.0 Safari/537.36",WebKit,Chrome,135.0.0.0,Windows,10,https://5puzkbbxv1.cognition.run/?sona_id=56995,"en-US,en;q=0.9",pc0uzw1fgqhxswu,21,"[""Asian""]",No,Male,"China:10 years
US: 11 years",No,434504.69999999553,NA,null,<p></p>,null,choice,dct,trinary,repulsion_B,2,microwave ovens,null,null,null,null,null,null,2,NA,NA,NA,NA,NA,NA,NA,NA,NA,NA
NA,NA,NA,NA,NA,choice_trial,survey-html-form,51,239097,0.0-4.0-1.23,81,1,2025-04-29T04:12:19Z,b60275e29fe2361ab97ac0ac217840d7,"Mozilla/5.0 (Windows NT 10.0; Win64; x64) AppleWebKit/537.36 (KHTML, like Gecko) Chrome/135.0.0.0 Safari/537.36",WebKit,Chrome,135.0.0.0,Windows,10,https://5puzkbbxv1.cognition.run/?sona_id=56995,"en-US,en;q=0.9",pc0uzw1fgqhxswu,21,"[""Asian""]",No,Male,"China:10 years
US: 11 years",No,434504.69999999553,NA,5162,NA,"{""product_choice"":""C""}",choice,dct,trinary,repulsion_B,2,microwave ovens,null,null,null,null,null,null,2,40,30,40,90,100,80,Warranty,Cooking power,NA,NA
NA,NA,NA,NA,NA,choice_trial_setup,html-keyboard-response,52,239401,0.0-4.0-0.24,81,1,2025-04-29T04:12:19Z,b60275e29fe2361ab97ac0ac217840d7,"Mozilla/5.0 (Windows NT 10.0; Win64; x64) AppleWebKit/537.36 (KHTML, like Gecko) Chrome/135.0.0.0 Safari/537.36",WebKit,Chrome,135.0.0.0,Windows,10,https://5puzkbbxv1.cognition.run/?sona_id=56995,"en-US,en;q=0.9",pc0uzw1fgqhxswu,21,"[""Asian""]",No,Male,"China:10 years
US: 11 years",No,434504.69999999553,NA,null,<p></p>,null,choice,ctd,trinary,repulsion_B,2,washing machines,null,null,null,null,null,null,2,NA,NA,NA,NA,NA,NA,NA,NA,NA,NA
NA,NA,NA,NA,NA,choice_trial,survey-html-form,53,242565,0.0-4.0-1.24,81,1,2025-04-29T04:12:19Z,b60275e29fe2361ab97ac0ac217840d7,"Mozilla/5.0 (Windows NT 10.0; Win64; x64) AppleWebKit/537.36 (KHTML, like Gecko) Chrome/135.0.0.0 Safari/537.36",WebKit,Chrome,135.0.0.0,Windows,10,https://5puzkbbxv1.cognition.run/?sona_id=56995,"en-US,en;q=0.9",pc0uzw1fgqhxswu,21,"[""Asian""]",No,Male,"China:10 years
US: 11 years",No,434504.69999999553,NA,3162,NA,"{""product_choice"":""A""}",choice,ctd,trinary,repulsion_B,2,washing machines,null,null,null,null,null,null,2,40,30,40,90,100,80,Average lifespan,Energy savings,NA,NA
NA,NA,NA,NA,NA,choice_trial_setup,html-keyboard-response,54,242869,0.0-4.0-0.25,81,1,2025-04-29T04:12:19Z,b60275e29fe2361ab97ac0ac217840d7,"Mozilla/5.0 (Windows NT 10.0; Win64; x64) AppleWebKit/537.36 (KHTML, like Gecko) Chrome/135.0.0.0 Safari/537.36",WebKit,Chrome,135.0.0.0,Windows,10,https://5puzkbbxv1.cognition.run/?sona_id=56995,"en-US,en;q=0.9",pc0uzw1fgqhxswu,21,"[""Asian""]",No,Male,"China:10 years
US: 11 years",No,434504.69999999553,NA,null,<p></p>,null,choice,ct,binary,repulsion,1,washing machines,null,null,null,null,null,null,1,NA,NA,NA,NA,NA,NA,NA,NA,NA,NA
NA,NA,NA,NA,NA,choice_trial,survey-html-form,55,245788,0.0-4.0-1.25,81,1,2025-04-29T04:12:19Z,b60275e29fe2361ab97ac0ac217840d7,"Mozilla/5.0 (Windows NT 10.0; Win64; x64) AppleWebKit/537.36 (KHTML, like Gecko) Chrome/135.0.0.0 Safari/537.36",WebKit,Chrome,135.0.0.0,Windows,10,https://5puzkbbxv1.cognition.run/?sona_id=56995,"en-US,en;q=0.9",pc0uzw1fgqhxswu,21,"[""Asian""]",No,Male,"China:10 years
US: 11 years",No,434504.69999999553,NA,2918,NA,"{""product_choice"":""B""}",choice,ct,binary,repulsion,1,washing machines,null,null,null,null,null,null,1,100,90,null,30,40,null,Average lifespan,Energy savings,NA,NA
NA,NA,NA,NA,NA,choice_trial_setup,html-keyboard-response,56,246090,0.0-4.0-0.26,81,1,2025-04-29T04:12:19Z,b60275e29fe2361ab97ac0ac217840d7,"Mozilla/5.0 (Windows NT 10.0; Win64; x64) AppleWebKit/537.36 (KHTML, like Gecko) Chrome/135.0.0.0 Safari/537.36",WebKit,Chrome,135.0.0.0,Windows,10,https://5puzkbbxv1.cognition.run/?sona_id=56995,"en-US,en;q=0.9",pc0uzw1fgqhxswu,21,"[""Asian""]",No,Male,"China:10 years
US: 11 years",No,434504.69999999553,NA,null,<p></p>,null,choice,bw,binary,catch,null,microwave ovens,80,65,35,35,null,null,1,NA,NA,NA,NA,NA,NA,NA,NA,NA,NA
NA,NA,NA,NA,NA,choice_trial,survey-html-form,57,248753,0.0-4.0-1.26,81,1,2025-04-29T04:12:19Z,b60275e29fe2361ab97ac0ac217840d7,"Mozilla/5.0 (Windows NT 10.0; Win64; x64) AppleWebKit/537.36 (KHTML, like Gecko) Chrome/135.0.0.0 Safari/537.36",WebKit,Chrome,135.0.0.0,Windows,10,https://5puzkbbxv1.cognition.run/?sona_id=56995,"en-US,en;q=0.9",pc0uzw1fgqhxswu,21,"[""Asian""]",No,Male,"China:10 years
US: 11 years",No,434504.69999999553,NA,2662,NA,"{""product_choice"":""A""}",choice,bw,binary,catch,null,microwave ovens,80,65,35,35,null,null,1,null,null,null,null,null,null,Warranty,Cooking power,NA,NA
NA,NA,NA,NA,NA,choice_trial_setup,html-keyboard-response,58,249056,0.0-4.0-0.27,81,1,2025-04-29T04:12:19Z,b60275e29fe2361ab97ac0ac217840d7,"Mozilla/5.0 (Windows NT 10.0; Win64; x64) AppleWebKit/537.36 (KHTML, like Gecko) Chrome/135.0.0.0 Safari/537.36",WebKit,Chrome,135.0.0.0,Windows,10,https://5puzkbbxv1.cognition.run/?sona_id=56995,"en-US,en;q=0.9",pc0uzw1fgqhxswu,21,"[""Asian""]",No,Male,"China:10 years
US: 11 years",No,434504.69999999553,NA,null,<p></p>,null,choice,cdt,trinary,attraction,1,televisions,null,null,null,null,null,null,2,NA,NA,NA,NA,NA,NA,NA,NA,NA,NA
NA,NA,NA,NA,NA,choice_trial,survey-html-form,59,253090,0.0-4.0-1.27,81,1,2025-04-29T04:12:19Z,b60275e29fe2361ab97ac0ac217840d7,"Mozilla/5.0 (Windows NT 10.0; Win64; x64) AppleWebKit/537.36 (KHTML, like Gecko) Chrome/135.0.0.0 Safari/537.36",WebKit,Chrome,135.0.0.0,Windows,10,https://5puzkbbxv1.cognition.run/?sona_id=56995,"en-US,en;q=0.9",pc0uzw1fgqhxswu,21,"[""Asian""]",No,Male,"China:10 years
US: 11 years",No,434504.69999999553,NA,4032,NA,"{""product_choice"":""A""}",choice,cdt,trinary,attraction,1,televisions,null,null,null,null,null,null,2,60,50,60,50,60,40,Screen size,Average lifespan,NA,NA
NA,NA,NA,NA,NA,choice_trial_setup,html-keyboard-response,60,253393,0.0-4.0-0.28,81,1,2025-04-29T04:12:19Z,b60275e29fe2361ab97ac0ac217840d7,"Mozilla/5.0 (Windows NT 10.0; Win64; x64) AppleWebKit/537.36 (KHTML, like Gecko) Chrome/135.0.0.0 Safari/537.36",WebKit,Chrome,135.0.0.0,Windows,10,https://5puzkbbxv1.cognition.run/?sona_id=56995,"en-US,en;q=0.9",pc0uzw1fgqhxswu,21,"[""Asian""]",No,Male,"China:10 years
US: 11 years",No,434504.69999999553,NA,null,<p></p>,null,choice,wb,binary,catch,null,televisions,90,70,40,20,null,null,2,NA,NA,NA,NA,NA,NA,NA,NA,NA,NA
NA,NA,NA,NA,NA,choice_trial,survey-html-form,61,256340,0.0-4.0-1.28,81,1,2025-04-29T04:12:19Z,b60275e29fe2361ab97ac0ac217840d7,"Mozilla/5.0 (Windows NT 10.0; Win64; x64) AppleWebKit/537.36 (KHTML, like Gecko) Chrome/135.0.0.0 Safari/537.36",WebKit,Chrome,135.0.0.0,Windows,10,https://5puzkbbxv1.cognition.run/?sona_id=56995,"en-US,en;q=0.9",pc0uzw1fgqhxswu,21,"[""Asian""]",No,Male,"China:10 years
US: 11 years",No,434504.69999999553,NA,2945,NA,"{""product_choice"":""B""}",choice,wb,binary,catch,null,televisions,90,70,40,20,null,null,2,null,null,null,null,null,null,Screen size,Average lifespan,NA,NA
NA,NA,NA,NA,NA,choice_trial_setup,html-keyboard-response,62,256643,0.0-4.0-0.29,81,1,2025-04-29T04:12:19Z,b60275e29fe2361ab97ac0ac217840d7,"Mozilla/5.0 (Windows NT 10.0; Win64; x64) AppleWebKit/537.36 (KHTML, like Gecko) Chrome/135.0.0.0 Safari/537.36",WebKit,Chrome,135.0.0.0,Windows,10,https://5puzkbbxv1.cognition.run/?sona_id=56995,"en-US,en;q=0.9",pc0uzw1fgqhxswu,21,"[""Asian""]",No,Male,"China:10 years
US: 11 years",No,434504.69999999553,NA,null,<p></p>,null,choice,tc,binary,repulsion,2,televisions,null,null,null,null,null,null,2,NA,NA,NA,NA,NA,NA,NA,NA,NA,NA
NA,NA,NA,NA,NA,choice_trial,survey-html-form,63,258532,0.0-4.0-1.29,81,1,2025-04-29T04:12:19Z,b60275e29fe2361ab97ac0ac217840d7,"Mozilla/5.0 (Windows NT 10.0; Win64; x64) AppleWebKit/537.36 (KHTML, like Gecko) Chrome/135.0.0.0 Safari/537.36",WebKit,Chrome,135.0.0.0,Windows,10,https://5puzkbbxv1.cognition.run/?sona_id=56995,"en-US,en;q=0.9",pc0uzw1fgqhxswu,21,"[""Asian""]",No,Male,"China:10 years
US: 11 years",No,434504.69999999553,NA,1888,NA,"{""product_choice"":""A""}",choice,tc,binary,repulsion,2,televisions,null,null,null,null,null,null,2,30,40,null,100,90,null,Screen size,Average lifespan,NA,NA
NA,NA,NA,NA,NA,choice_trial_setup,html-keyboard-response,64,258836,0.0-4.0-0.30,81,1,2025-04-29T04:12:19Z,b60275e29fe2361ab97ac0ac217840d7,"Mozilla/5.0 (Windows NT 10.0; Win64; x64) AppleWebKit/537.36 (KHTML, like Gecko) Chrome/135.0.0.0 Safari/537.36",WebKit,Chrome,135.0.0.0,Windows,10,https://5puzkbbxv1.cognition.run/?sona_id=56995,"en-US,en;q=0.9",pc0uzw1fgqhxswu,21,"[""Asian""]",No,Male,"China:10 years
US: 11 years",No,434504.69999999553,NA,null,<p></p>,null,choice,tcd,trinary,repulsion_A,1,laptops,null,null,null,null,null,null,2,NA,NA,NA,NA,NA,NA,NA,NA,NA,NA
NA,NA,NA,NA,NA,choice_trial,survey-html-form,65,261805,0.0-4.0-1.30,81,1,2025-04-29T04:12:19Z,b60275e29fe2361ab97ac0ac217840d7,"Mozilla/5.0 (Windows NT 10.0; Win64; x64) AppleWebKit/537.36 (KHTML, like Gecko) Chrome/135.0.0.0 Safari/537.36",WebKit,Chrome,135.0.0.0,Windows,10,https://5puzkbbxv1.cognition.run/?sona_id=56995,"en-US,en;q=0.9",pc0uzw1fgqhxswu,21,"[""Asian""]",No,Male,"China:10 years
US: 11 years",No,434504.69999999553,NA,2967,NA,"{""product_choice"":""B""}",choice,tcd,trinary,repulsion_A,1,laptops,null,null,null,null,null,null,2,100,90,100,30,40,20,Processing speed,Memory (RAM),NA,NA
NA,NA,NA,NA,NA,choice_trial_setup,html-keyboard-response,66,262108,0.0-4.0-0.31,81,1,2025-04-29T04:12:19Z,b60275e29fe2361ab97ac0ac217840d7,"Mozilla/5.0 (Windows NT 10.0; Win64; x64) AppleWebKit/537.36 (KHTML, like Gecko) Chrome/135.0.0.0 Safari/537.36",WebKit,Chrome,135.0.0.0,Windows,10,https://5puzkbbxv1.cognition.run/?sona_id=56995,"en-US,en;q=0.9",pc0uzw1fgqhxswu,21,"[""Asian""]",No,Male,"China:10 years
US: 11 years",No,434504.69999999553,NA,null,<p></p>,null,choice,tcd,trinary,repulsion_A,1,washing machines,null,null,null,null,null,null,1,NA,NA,NA,NA,NA,NA,NA,NA,NA,NA
NA,NA,NA,NA,NA,choice_trial,survey-html-form,67,264577,0.0-4.0-1.31,81,1,2025-04-29T04:12:19Z,b60275e29fe2361ab97ac0ac217840d7,"Mozilla/5.0 (Windows NT 10.0; Win64; x64) AppleWebKit/537.36 (KHTML, like Gecko) Chrome/135.0.0.0 Safari/537.36",WebKit,Chrome,135.0.0.0,Windows,10,https://5puzkbbxv1.cognition.run/?sona_id=56995,"en-US,en;q=0.9",pc0uzw1fgqhxswu,21,"[""Asian""]",No,Male,"China:10 years
US: 11 years",No,434504.69999999553,NA,2467,NA,"{""product_choice"":""A""}",choice,tcd,trinary,repulsion_A,1,washing machines,null,null,null,null,null,null,1,100,90,100,30,40,20,Average lifespan,Energy savings,NA,NA
NA,NA,NA,NA,NA,choice_trial_setup,html-keyboard-response,68,264879,0.0-4.0-0.32,81,1,2025-04-29T04:12:19Z,b60275e29fe2361ab97ac0ac217840d7,"Mozilla/5.0 (Windows NT 10.0; Win64; x64) AppleWebKit/537.36 (KHTML, like Gecko) Chrome/135.0.0.0 Safari/537.36",WebKit,Chrome,135.0.0.0,Windows,10,https://5puzkbbxv1.cognition.run/?sona_id=56995,"en-US,en;q=0.9",pc0uzw1fgqhxswu,21,"[""Asian""]",No,Male,"China:10 years
US: 11 years",No,434504.69999999553,NA,null,<p></p>,null,choice,dct,trinary,repulsion_A,2,washing machines,null,null,null,null,null,null,1,NA,NA,NA,NA,NA,NA,NA,NA,NA,NA
NA,NA,NA,NA,NA,choice_trial,survey-html-form,69,267872,0.0-4.0-1.32,81,1,2025-04-29T04:12:19Z,b60275e29fe2361ab97ac0ac217840d7,"Mozilla/5.0 (Windows NT 10.0; Win64; x64) AppleWebKit/537.36 (KHTML, like Gecko) Chrome/135.0.0.0 Safari/537.36",WebKit,Chrome,135.0.0.0,Windows,10,https://5puzkbbxv1.cognition.run/?sona_id=56995,"en-US,en;q=0.9",pc0uzw1fgqhxswu,21,"[""Asian""]",No,Male,"China:10 years
US: 11 years",No,434504.69999999553,NA,2991,NA,"{""product_choice"":""B""}",choice,dct,trinary,repulsion_A,2,washing machines,null,null,null,null,null,null,1,30,40,20,100,90,100,Average lifespan,Energy savings,NA,NA
NA,NA,NA,NA,NA,choice_trial_setup,html-keyboard-response,70,268175,0.0-4.0-0.33,81,1,2025-04-29T04:12:19Z,b60275e29fe2361ab97ac0ac217840d7,"Mozilla/5.0 (Windows NT 10.0; Win64; x64) AppleWebKit/537.36 (KHTML, like Gecko) Chrome/135.0.0.0 Safari/537.36",WebKit,Chrome,135.0.0.0,Windows,10,https://5puzkbbxv1.cognition.run/?sona_id=56995,"en-US,en;q=0.9",pc0uzw1fgqhxswu,21,"[""Asian""]",No,Male,"China:10 years
US: 11 years",No,434504.69999999553,NA,null,<p></p>,null,choice,tc,binary,attraction,NA,washing machines,null,null,null,null,null,null,1,NA,NA,NA,NA,NA,NA,NA,NA,NA,NA
NA,NA,NA,NA,NA,choice_trial,survey-html-form,71,270808,0.0-4.0-1.33,81,1,2025-04-29T04:12:19Z,b60275e29fe2361ab97ac0ac217840d7,"Mozilla/5.0 (Windows NT 10.0; Win64; x64) AppleWebKit/537.36 (KHTML, like Gecko) Chrome/135.0.0.0 Safari/537.36",WebKit,Chrome,135.0.0.0,Windows,10,https://5puzkbbxv1.cognition.run/?sona_id=56995,"en-US,en;q=0.9",pc0uzw1fgqhxswu,21,"[""Asian""]",No,Male,"China:10 years
US: 11 years",No,434504.69999999553,NA,2630,NA,"{""product_choice"":""A""}",choice,tc,binary,attraction,NA,washing machines,null,null,null,null,null,null,1,60,50,null,50,60,null,Average lifespan,Energy savings,NA,NA
NA,NA,NA,NA,NA,choice_trial_setup,html-keyboard-response,72,271110,0.0-4.0-0.34,81,1,2025-04-29T04:12:19Z,b60275e29fe2361ab97ac0ac217840d7,"Mozilla/5.0 (Windows NT 10.0; Win64; x64) AppleWebKit/537.36 (KHTML, like Gecko) Chrome/135.0.0.0 Safari/537.36",WebKit,Chrome,135.0.0.0,Windows,10,https://5puzkbbxv1.cognition.run/?sona_id=56995,"en-US,en;q=0.9",pc0uzw1fgqhxswu,21,"[""Asian""]",No,Male,"China:10 years
US: 11 years",No,434504.69999999553,NA,null,<p></p>,null,choice,tdc,trinary,repulsion_A,2,televisions,null,null,null,null,null,null,1,NA,NA,NA,NA,NA,NA,NA,NA,NA,NA
NA,NA,NA,NA,NA,choice_trial,survey-html-form,73,274981,0.0-4.0-1.34,81,1,2025-04-29T04:12:19Z,b60275e29fe2361ab97ac0ac217840d7,"Mozilla/5.0 (Windows NT 10.0; Win64; x64) AppleWebKit/537.36 (KHTML, like Gecko) Chrome/135.0.0.0 Safari/537.36",WebKit,Chrome,135.0.0.0,Windows,10,https://5puzkbbxv1.cognition.run/?sona_id=56995,"en-US,en;q=0.9",pc0uzw1fgqhxswu,21,"[""Asian""]",No,Male,"China:10 years
US: 11 years",No,434504.69999999553,NA,3869,NA,"{""product_choice"":""C""}",choice,tdc,trinary,repulsion_A,2,televisions,null,null,null,null,null,null,1,30,40,20,100,90,100,Screen size,Average lifespan,NA,NA
NA,NA,NA,NA,NA,choice_trial_setup,html-keyboard-response,74,275284,0.0-4.0-0.35,81,1,2025-04-29T04:12:19Z,b60275e29fe2361ab97ac0ac217840d7,"Mozilla/5.0 (Windows NT 10.0; Win64; x64) AppleWebKit/537.36 (KHTML, like Gecko) Chrome/135.0.0.0 Safari/537.36",WebKit,Chrome,135.0.0.0,Windows,10,https://5puzkbbxv1.cognition.run/?sona_id=56995,"en-US,en;q=0.9",pc0uzw1fgqhxswu,21,"[""Asian""]",No,Male,"China:10 years
US: 11 years",No,434504.69999999553,NA,null,<p></p>,null,choice,bww,trinary,catch,null,laptops,70,80,40,35,20,10,2,NA,NA,NA,NA,NA,NA,NA,NA,NA,NA
NA,NA,NA,NA,NA,choice_trial,survey-html-form,75,277625,0.0-4.0-1.35,81,1,2025-04-29T04:12:19Z,b60275e29fe2361ab97ac0ac217840d7,"Mozilla/5.0 (Windows NT 10.0; Win64; x64) AppleWebKit/537.36 (KHTML, like Gecko) Chrome/135.0.0.0 Safari/537.36",WebKit,Chrome,135.0.0.0,Windows,10,https://5puzkbbxv1.cognition.run/?sona_id=56995,"en-US,en;q=0.9",pc0uzw1fgqhxswu,21,"[""Asian""]",No,Male,"China:10 years
US: 11 years",No,434504.69999999553,NA,2338,NA,"{""product_choice"":""A""}",choice,bww,trinary,catch,null,laptops,70,80,40,35,20,10,2,null,null,null,null,null,null,Processing speed,Memory (RAM),NA,NA
NA,NA,NA,NA,NA,choice_trial_setup,html-keyboard-response,76,277928,0.0-4.0-0.36,81,1,2025-04-29T04:12:19Z,b60275e29fe2361ab97ac0ac217840d7,"Mozilla/5.0 (Windows NT 10.0; Win64; x64) AppleWebKit/537.36 (KHTML, like Gecko) Chrome/135.0.0.0 Safari/537.36",WebKit,Chrome,135.0.0.0,Windows,10,https://5puzkbbxv1.cognition.run/?sona_id=56995,"en-US,en;q=0.9",pc0uzw1fgqhxswu,21,"[""Asian""]",No,Male,"China:10 years
US: 11 years",No,434504.69999999553,NA,null,<p></p>,null,choice,tdc,trinary,attraction,1,washing machines,null,null,null,null,null,null,1,NA,NA,NA,NA,NA,NA,NA,NA,NA,NA
NA,NA,NA,NA,NA,choice_trial,survey-html-form,77,280870,0.0-4.0-1.36,81,1,2025-04-29T04:12:19Z,b60275e29fe2361ab97ac0ac217840d7,"Mozilla/5.0 (Windows NT 10.0; Win64; x64) AppleWebKit/537.36 (KHTML, like Gecko) Chrome/135.0.0.0 Safari/537.36",WebKit,Chrome,135.0.0.0,Windows,10,https://5puzkbbxv1.cognition.run/?sona_id=56995,"en-US,en;q=0.9",pc0uzw1fgqhxswu,21,"[""Asian""]",No,Male,"China:10 years
US: 11 years",No,434504.69999999553,NA,2940,NA,"{""product_choice"":""A""}",choice,tdc,trinary,attraction,1,washing machines,null,null,null,null,null,null,1,60,50,60,50,60,40,Average lifespan,Energy savings,NA,NA
NA,NA,NA,NA,NA,choice_trial_setup,html-keyboard-response,78,281173,0.0-4.0-0.37,81,1,2025-04-29T04:12:19Z,b60275e29fe2361ab97ac0ac217840d7,"Mozilla/5.0 (Windows NT 10.0; Win64; x64) AppleWebKit/537.36 (KHTML, like Gecko) Chrome/135.0.0.0 Safari/537.36",WebKit,Chrome,135.0.0.0,Windows,10,https://5puzkbbxv1.cognition.run/?sona_id=56995,"en-US,en;q=0.9",pc0uzw1fgqhxswu,21,"[""Asian""]",No,Male,"China:10 years
US: 11 years",No,434504.69999999553,NA,null,<p></p>,null,choice,tdc,trinary,attraction,1,microwave ovens,null,null,null,null,null,null,1,NA,NA,NA,NA,NA,NA,NA,NA,NA,NA
NA,NA,NA,NA,NA,choice_trial,survey-html-form,79,287153,0.0-4.0-1.37,81,1,2025-04-29T04:12:19Z,b60275e29fe2361ab97ac0ac217840d7,"Mozilla/5.0 (Windows NT 10.0; Win64; x64) AppleWebKit/537.36 (KHTML, like Gecko) Chrome/135.0.0.0 Safari/537.36",WebKit,Chrome,135.0.0.0,Windows,10,https://5puzkbbxv1.cognition.run/?sona_id=56995,"en-US,en;q=0.9",pc0uzw1fgqhxswu,21,"[""Asian""]",No,Male,"China:10 years
US: 11 years",No,434504.69999999553,NA,5978,NA,"{""product_choice"":""A""}",choice,tdc,trinary,attraction,1,microwave ovens,null,null,null,null,null,null,1,60,50,60,50,60,40,Warranty,Cooking power,NA,NA
NA,NA,NA,NA,NA,choice_trial_setup,html-keyboard-response,80,287456,0.0-4.0-0.38,81,1,2025-04-29T04:12:19Z,b60275e29fe2361ab97ac0ac217840d7,"Mozilla/5.0 (Windows NT 10.0; Win64; x64) AppleWebKit/537.36 (KHTML, like Gecko) Chrome/135.0.0.0 Safari/537.36",WebKit,Chrome,135.0.0.0,Windows,10,https://5puzkbbxv1.cognition.run/?sona_id=56995,"en-US,en;q=0.9",pc0uzw1fgqhxswu,21,"[""Asian""]",No,Male,"China:10 years
US: 11 years",No,434504.69999999553,NA,null,<p></p>,null,choice,tdc,trinary,repulsion_A,1,televisions,null,null,null,null,null,null,1,NA,NA,NA,NA,NA,NA,NA,NA,NA,NA
NA,NA,NA,NA,NA,choice_trial,survey-html-form,81,293103,0.0-4.0-1.38,81,1,2025-04-29T04:12:19Z,b60275e29fe2361ab97ac0ac217840d7,"Mozilla/5.0 (Windows NT 10.0; Win64; x64) AppleWebKit/537.36 (KHTML, like Gecko) Chrome/135.0.0.0 Safari/537.36",WebKit,Chrome,135.0.0.0,Windows,10,https://5puzkbbxv1.cognition.run/?sona_id=56995,"en-US,en;q=0.9",pc0uzw1fgqhxswu,21,"[""Asian""]",No,Male,"China:10 years
US: 11 years",No,434504.69999999553,NA,5644,NA,"{""product_choice"":""C""}",choice,tdc,trinary,repulsion_A,1,televisions,null,null,null,null,null,null,1,100,90,100,30,40,20,Screen size,Average lifespan,NA,NA
NA,NA,NA,NA,NA,choice_trial_setup,html-keyboard-response,82,293405,0.0-4.0-0.39,81,1,2025-04-29T04:12:19Z,b60275e29fe2361ab97ac0ac217840d7,"Mozilla/5.0 (Windows NT 10.0; Win64; x64) AppleWebKit/537.36 (KHTML, like Gecko) Chrome/135.0.0.0 Safari/537.36",WebKit,Chrome,135.0.0.0,Windows,10,https://5puzkbbxv1.cognition.run/?sona_id=56995,"en-US,en;q=0.9",pc0uzw1fgqhxswu,21,"[""Asian""]",No,Male,"China:10 years
US: 11 years",No,434504.69999999553,NA,null,<p></p>,null,choice,tdc,trinary,repulsion_B,1,laptops,null,null,null,null,null,null,2,NA,NA,NA,NA,NA,NA,NA,NA,NA,NA
NA,NA,NA,NA,NA,choice_trial,survey-html-form,83,296789,0.0-4.0-1.39,81,1,2025-04-29T04:12:19Z,b60275e29fe2361ab97ac0ac217840d7,"Mozilla/5.0 (Windows NT 10.0; Win64; x64) AppleWebKit/537.36 (KHTML, like Gecko) Chrome/135.0.0.0 Safari/537.36",WebKit,Chrome,135.0.0.0,Windows,10,https://5puzkbbxv1.cognition.run/?sona_id=56995,"en-US,en;q=0.9",pc0uzw1fgqhxswu,21,"[""Asian""]",No,Male,"China:10 years
US: 11 years",No,434504.69999999553,NA,3382,NA,"{""product_choice"":""C""}",choice,tdc,trinary,repulsion_B,1,laptops,null,null,null,null,null,null,2,90,100,80,40,30,40,Processing speed,Memory (RAM),NA,NA
NA,NA,NA,NA,NA,choice_trial_setup,html-keyboard-response,84,297092,0.0-4.0-0.40,81,1,2025-04-29T04:12:19Z,b60275e29fe2361ab97ac0ac217840d7,"Mozilla/5.0 (Windows NT 10.0; Win64; x64) AppleWebKit/537.36 (KHTML, like Gecko) Chrome/135.0.0.0 Safari/537.36",WebKit,Chrome,135.0.0.0,Windows,10,https://5puzkbbxv1.cognition.run/?sona_id=56995,"en-US,en;q=0.9",pc0uzw1fgqhxswu,21,"[""Asian""]",No,Male,"China:10 years
US: 11 years",No,434504.69999999553,NA,null,<p></p>,null,choice,wbw,trinary,catch,null,televisions,95,65,45,45,25,50,2,NA,NA,NA,NA,NA,NA,NA,NA,NA,NA
NA,NA,NA,NA,NA,choice_trial,survey-html-form,85,300145,0.0-4.0-1.40,81,1,2025-04-29T04:12:19Z,b60275e29fe2361ab97ac0ac217840d7,"Mozilla/5.0 (Windows NT 10.0; Win64; x64) AppleWebKit/537.36 (KHTML, like Gecko) Chrome/135.0.0.0 Safari/537.36",WebKit,Chrome,135.0.0.0,Windows,10,https://5puzkbbxv1.cognition.run/?sona_id=56995,"en-US,en;q=0.9",pc0uzw1fgqhxswu,21,"[""Asian""]",No,Male,"China:10 years
US: 11 years",No,434504.69999999553,NA,3051,NA,"{""product_choice"":""B""}",choice,wbw,trinary,catch,null,televisions,95,65,45,45,25,50,2,null,null,null,null,null,null,Screen size,Average lifespan,NA,NA
NA,NA,NA,NA,NA,choice_trial_setup,html-keyboard-response,86,300449,0.0-4.0-0.41,81,1,2025-04-29T04:12:19Z,b60275e29fe2361ab97ac0ac217840d7,"Mozilla/5.0 (Windows NT 10.0; Win64; x64) AppleWebKit/537.36 (KHTML, like Gecko) Chrome/135.0.0.0 Safari/537.36",WebKit,Chrome,135.0.0.0,Windows,10,https://5puzkbbxv1.cognition.run/?sona_id=56995,"en-US,en;q=0.9",pc0uzw1fgqhxswu,21,"[""Asian""]",No,Male,"China:10 years
US: 11 years",No,434504.69999999553,NA,null,<p></p>,null,choice,tcd,trinary,repulsion_B,2,laptops,null,null,null,null,null,null,2,NA,NA,NA,NA,NA,NA,NA,NA,NA,NA
NA,NA,NA,NA,NA,choice_trial,survey-html-form,87,302655,0.0-4.0-1.41,81,1,2025-04-29T04:12:19Z,b60275e29fe2361ab97ac0ac217840d7,"Mozilla/5.0 (Windows NT 10.0; Win64; x64) AppleWebKit/537.36 (KHTML, like Gecko) Chrome/135.0.0.0 Safari/537.36",WebKit,Chrome,135.0.0.0,Windows,10,https://5puzkbbxv1.cognition.run/?sona_id=56995,"en-US,en;q=0.9",pc0uzw1fgqhxswu,21,"[""Asian""]",No,Male,"China:10 years
US: 11 years",No,434504.69999999553,NA,2204,NA,"{""product_choice"":""B""}",choice,tcd,trinary,repulsion_B,2,laptops,null,null,null,null,null,null,2,40,30,40,90,100,80,Processing speed,Memory (RAM),NA,NA
NA,NA,NA,NA,NA,choice_trial_setup,html-keyboard-response,88,302957,0.0-4.0-0.42,81,1,2025-04-29T04:12:19Z,b60275e29fe2361ab97ac0ac217840d7,"Mozilla/5.0 (Windows NT 10.0; Win64; x64) AppleWebKit/537.36 (KHTML, like Gecko) Chrome/135.0.0.0 Safari/537.36",WebKit,Chrome,135.0.0.0,Windows,10,https://5puzkbbxv1.cognition.run/?sona_id=56995,"en-US,en;q=0.9",pc0uzw1fgqhxswu,21,"[""Asian""]",No,Male,"China:10 years
US: 11 years",No,434504.69999999553,NA,null,<p></p>,null,choice,cdt,trinary,attraction,2,laptops,null,null,null,null,null,null,1,NA,NA,NA,NA,NA,NA,NA,NA,NA,NA
NA,NA,NA,NA,NA,choice_trial,survey-html-form,89,306144,0.0-4.0-1.42,81,1,2025-04-29T04:12:19Z,b60275e29fe2361ab97ac0ac217840d7,"Mozilla/5.0 (Windows NT 10.0; Win64; x64) AppleWebKit/537.36 (KHTML, like Gecko) Chrome/135.0.0.0 Safari/537.36",WebKit,Chrome,135.0.0.0,Windows,10,https://5puzkbbxv1.cognition.run/?sona_id=56995,"en-US,en;q=0.9",pc0uzw1fgqhxswu,21,"[""Asian""]",No,Male,"China:10 years
US: 11 years",No,434504.69999999553,NA,3185,NA,"{""product_choice"":""A""}",choice,cdt,trinary,attraction,2,laptops,null,null,null,null,null,null,1,50,60,40,60,50,60,Processing speed,Memory (RAM),NA,NA
NA,NA,NA,NA,NA,choice_trial_setup,html-keyboard-response,90,306447,0.0-4.0-0.43,81,1,2025-04-29T04:12:19Z,b60275e29fe2361ab97ac0ac217840d7,"Mozilla/5.0 (Windows NT 10.0; Win64; x64) AppleWebKit/537.36 (KHTML, like Gecko) Chrome/135.0.0.0 Safari/537.36",WebKit,Chrome,135.0.0.0,Windows,10,https://5puzkbbxv1.cognition.run/?sona_id=56995,"en-US,en;q=0.9",pc0uzw1fgqhxswu,21,"[""Asian""]",No,Male,"China:10 years
US: 11 years",No,434504.69999999553,NA,null,<p></p>,null,choice,ctd,trinary,repulsion_B,1,televisions,null,null,null,null,null,null,1,NA,NA,NA,NA,NA,NA,NA,NA,NA,NA
NA,NA,NA,NA,NA,choice_trial,survey-html-form,91,310060,0.0-4.0-1.43,81,1,2025-04-29T04:12:19Z,b60275e29fe2361ab97ac0ac217840d7,"Mozilla/5.0 (Windows NT 10.0; Win64; x64) AppleWebKit/537.36 (KHTML, like Gecko) Chrome/135.0.0.0 Safari/537.36",WebKit,Chrome,135.0.0.0,Windows,10,https://5puzkbbxv1.cognition.run/?sona_id=56995,"en-US,en;q=0.9",pc0uzw1fgqhxswu,21,"[""Asian""]",No,Male,"China:10 years
US: 11 years",No,434504.69999999553,NA,3611,NA,"{""product_choice"":""B""}",choice,ctd,trinary,repulsion_B,1,televisions,null,null,null,null,null,null,1,90,100,80,40,30,40,Screen size,Average lifespan,NA,NA
NA,NA,NA,NA,NA,post_trials_message,html-button-response,92,311068,0.0-5.0,81,1,2025-04-29T04:12:19Z,b60275e29fe2361ab97ac0ac217840d7,"Mozilla/5.0 (Windows NT 10.0; Win64; x64) AppleWebKit/537.36 (KHTML, like Gecko) Chrome/135.0.0.0 Safari/537.36",WebKit,Chrome,135.0.0.0,Windows,10,https://5puzkbbxv1.cognition.run/?sona_id=56995,"en-US,en;q=0.9",pc0uzw1fgqhxswu,21,"[""Asian""]",No,Male,"China:10 years
US: 11 years",No,434504.69999999553,NA,1006,<p> <b>Thank you for your patience!</b></p><p>  The study will be done after completing a brief form. </p>,0,NA,NA,NA,NA,NA,NA,NA,NA,NA,NA,NA,NA,NA,NA,NA,NA,NA,NA,NA,NA,NA,NA,NA
NA,NA,NA,NA,NA,survey_message,survey-text,93,350107,0.0-6.0,81,1,2025-04-29T04:12:19Z,b60275e29fe2361ab97ac0ac217840d7,"Mozilla/5.0 (Windows NT 10.0; Win64; x64) AppleWebKit/537.36 (KHTML, like Gecko) Chrome/135.0.0.0 Safari/537.36",WebKit,Chrome,135.0.0.0,Windows,10,https://5puzkbbxv1.cognition.run/?sona_id=56995,"en-US,en;q=0.9",pc0uzw1fgqhxswu,21,"[""Asian""]",No,Male,"China:10 years
US: 11 years",No,434504.69999999553,NA,39035,NA,"{""Q0"":""The longer lifespan for the product, the more likely i will pruches""}",NA,NA,NA,NA,NA,NA,NA,NA,NA,NA,NA,NA,NA,NA,NA,NA,NA,NA,NA,NA,NA,"The longer lifespan for the product, the more likely i will pruches",NA
NA,NA,NA,NA,NA,demo_age,survey-text,94,353371,0.0-7.0,81,1,2025-04-29T04:12:19Z,b60275e29fe2361ab97ac0ac217840d7,"Mozilla/5.0 (Windows NT 10.0; Win64; x64) AppleWebKit/537.36 (KHTML, like Gecko) Chrome/135.0.0.0 Safari/537.36",WebKit,Chrome,135.0.0.0,Windows,10,https://5puzkbbxv1.cognition.run/?sona_id=56995,"en-US,en;q=0.9",pc0uzw1fgqhxswu,21,"[""Asian""]",No,Male,"China:10 years
US: 11 years",No,434504.69999999553,NA,3260,NA,"{""Q0"":""21""}",NA,NA,NA,NA,NA,NA,NA,NA,NA,NA,NA,NA,NA,NA,NA,NA,NA,NA,NA,NA,NA,NA,NA
NA,NA,NA,NA,NA,demo_race,survey-multi-select,95,356077,0.0-8.0,81,1,2025-04-29T04:12:19Z,b60275e29fe2361ab97ac0ac217840d7,"Mozilla/5.0 (Windows NT 10.0; Win64; x64) AppleWebKit/537.36 (KHTML, like Gecko) Chrome/135.0.0.0 Safari/537.36",WebKit,Chrome,135.0.0.0,Windows,10,https://5puzkbbxv1.cognition.run/?sona_id=56995,"en-US,en;q=0.9",pc0uzw1fgqhxswu,21,"[""Asian""]",No,Male,"China:10 years
US: 11 years",No,434504.69999999553,NA,2703,NA,"{""Q0"":[""Asian""]}",NA,NA,NA,NA,NA,NA,NA,NA,NA,NA,NA,NA,NA,NA,NA,NA,NA,NA,NA,NA,NA,NA,[0]
NA,NA,NA,NA,NA,demo_ethnicity_gender,survey-multi-choice,96,360779,0.0-9.0,81,1,2025-04-29T04:12:19Z,b60275e29fe2361ab97ac0ac217840d7,"Mozilla/5.0 (Windows NT 10.0; Win64; x64) AppleWebKit/537.36 (KHTML, like Gecko) Chrome/135.0.0.0 Safari/537.36",WebKit,Chrome,135.0.0.0,Windows,10,https://5puzkbbxv1.cognition.run/?sona_id=56995,"en-US,en;q=0.9",pc0uzw1fgqhxswu,21,"[""Asian""]",No,Male,"China:10 years
US: 11 years",No,434504.69999999553,NA,4698,NA,"{""Q0"":""No"",""Q1"":""Male""}",NA,NA,NA,NA,NA,NA,NA,NA,NA,NA,NA,NA,NA,NA,NA,NA,NA,NA,NA,NA,NA,NA,"[0,1]"
NA,NA,NA,NA,NA,demo_countries,survey-text,97,405757,0.0-10.0,81,1,2025-04-29T04:12:19Z,b60275e29fe2361ab97ac0ac217840d7,"Mozilla/5.0 (Windows NT 10.0; Win64; x64) AppleWebKit/537.36 (KHTML, like Gecko) Chrome/135.0.0.0 Safari/537.36",WebKit,Chrome,135.0.0.0,Windows,10,https://5puzkbbxv1.cognition.run/?sona_id=56995,"en-US,en;q=0.9",pc0uzw1fgqhxswu,21,"[""Asian""]",No,Male,"China:10 years
US: 11 years",No,434504.69999999553,NA,44973,NA,"{""Q0"":""China:10 years\nUS: 11 years""}",NA,NA,NA,NA,NA,NA,NA,NA,NA,NA,NA,NA,NA,NA,NA,NA,NA,NA,NA,NA,NA,NA,NA
NA,NA,NA,NA,NA,demo_prev_study,survey-multi-choice,98,417616,0.0-11.0,81,1,2025-04-29T04:12:19Z,b60275e29fe2361ab97ac0ac217840d7,"Mozilla/5.0 (Windows NT 10.0; Win64; x64) AppleWebKit/537.36 (KHTML, like Gecko) Chrome/135.0.0.0 Safari/537.36",WebKit,Chrome,135.0.0.0,Windows,10,https://5puzkbbxv1.cognition.run/?sona_id=56995,"en-US,en;q=0.9",pc0uzw1fgqhxswu,21,"[""Asian""]",No,Male,"China:10 years
US: 11 years",No,434504.69999999553,NA,11856,NA,"{""Q0"":""No""}",NA,NA,NA,NA,NA,NA,NA,NA,NA,NA,NA,NA,NA,NA,NA,NA,NA,NA,NA,NA,NA,NA,[0]
NA,NA,NA,NA,NA,post_survey_message,html-keyboard-response,99,426949,0.0-12.0,81,1,2025-04-29T04:12:19Z,b60275e29fe2361ab97ac0ac217840d7,"Mozilla/5.0 (Windows NT 10.0; Win64; x64) AppleWebKit/537.36 (KHTML, like Gecko) Chrome/135.0.0.0 Safari/537.36",WebKit,Chrome,135.0.0.0,Windows,10,https://5puzkbbxv1.cognition.run/?sona_id=56995,"en-US,en;q=0.9",pc0uzw1fgqhxswu,21,"[""Asian""]",No,Male,"China:10 years
US: 11 years",No,434504.69999999553,NA,9330,NA,j,NA,NA,NA,NA,NA,NA,NA,NA,NA,NA,NA,NA,NA,NA,NA,NA,NA,NA,NA,NA,NA,NA,NA
NA,NA,NA,NA,NA,debrief,image-keyboard-response,100,434504,0.0-13.0,81,1,2025-04-29T04:12:19Z,b60275e29fe2361ab97ac0ac217840d7,"Mozilla/5.0 (Windows NT 10.0; Win64; x64) AppleWebKit/537.36 (KHTML, like Gecko) Chrome/135.0.0.0 Safari/537.36",WebKit,Chrome,135.0.0.0,Windows,10,https://5puzkbbxv1.cognition.run/?sona_id=56995,"en-US,en;q=0.9",pc0uzw1fgqhxswu,21,"[""Asian""]",No,Male,"China:10 years
US: 11 years",No,434504.69999999553,NA,7551,Judg_choice_debrief.png,p,NA,NA,NA,NA,NA,NA,NA,NA,NA,NA,NA,NA,NA,NA,NA,NA,NA,NA,NA,NA,NA,NA,NA
