success,timeout,failed_images,failed_audio,failed_video,screen_id,trial_type,trial_index,time_elapsed,internal_node_id,run_id,condition,recorded_at,source_code_version,user_agent,device,browser,browser_version,platform,platform_version,referer,accept_language,ppt_id,age,race,ethnicity,gender,other_countries,prev_study,exp_duration,view_history,rt,stimulus,response,phase,order,set,effect,t_high,category,d1_best,d2_best,d1_worst1,d2_worst1,d1_worst2,d2_worst2,first_dim,d1_t,d1_c,d1_d,d2_t,d2_c,d2_d,d1_name,d2_name,strategy_response,question_order
TRUE,FALSE,[],[],[],img preload,preload,0,208,0.0-0.0,82,1,2025-04-29T07:24:13Z,b60275e29fe2361ab97ac0ac217840d7,"Mozilla/5.0 (Macintosh; Intel Mac OS X 10_15_7) AppleWebKit/537.36 (KHTML, like Gecko) Chrome/135.0.0.0 Safari/537.36",Macintosh,Chrome,135.0.0.0,OS X,10_15_7,https://5puzkbbxv1.cognition.run/?sona_id=57776,"uk-UA,uk;q=0.9,en-US;q=0.8,en;q=0.7",q6qmx308qro2fvy,21,"[""White""]",No,Female,Ukraine,No,880184.099999994,NA,NA,NA,NA,NA,NA,NA,NA,NA,NA,NA,NA,NA,NA,NA,NA,NA,NA,NA,NA,NA,NA,NA,NA,NA,NA,NA
NA,NA,NA,NA,NA,computer_message,instructions,1,1460,0.0-1.0,82,1,2025-04-29T07:24:13Z,b60275e29fe2361ab97ac0ac217840d7,"Mozilla/5.0 (Macintosh; Intel Mac OS X 10_15_7) AppleWebKit/537.36 (KHTML, like Gecko) Chrome/135.0.0.0 Safari/537.36",Macintosh,Chrome,135.0.0.0,OS X,10_15_7,https://5puzkbbxv1.cognition.run/?sona_id=57776,"uk-UA,uk;q=0.9,en-US;q=0.8,en;q=0.7",q6qmx308qro2fvy,21,"[""White""]",No,Female,Ukraine,No,880184.099999994,"[{""page_index"":0,""viewing_time"":1249}]",1250,NA,NA,NA,NA,NA,NA,NA,NA,NA,NA,NA,NA,NA,NA,NA,NA,NA,NA,NA,NA,NA,NA,NA,NA,NA
TRUE,NA,NA,NA,NA,NA,fullscreen,2,3661,0.0-2.0,82,1,2025-04-29T07:24:13Z,b60275e29fe2361ab97ac0ac217840d7,"Mozilla/5.0 (Macintosh; Intel Mac OS X 10_15_7) AppleWebKit/537.36 (KHTML, like Gecko) Chrome/135.0.0.0 Safari/537.36",Macintosh,Chrome,135.0.0.0,OS X,10_15_7,https://5puzkbbxv1.cognition.run/?sona_id=57776,"uk-UA,uk;q=0.9,en-US;q=0.8,en;q=0.7",q6qmx308qro2fvy,21,"[""White""]",No,Female,Ukraine,No,880184.099999994,NA,1198,NA,NA,NA,NA,NA,NA,NA,NA,NA,NA,NA,NA,NA,NA,NA,NA,NA,NA,NA,NA,NA,NA,NA,NA,NA
NA,NA,NA,NA,NA,choice_instructions,instructions,3,92478,0.0-3.0,82,1,2025-04-29T07:24:13Z,b60275e29fe2361ab97ac0ac217840d7,"Mozilla/5.0 (Macintosh; Intel Mac OS X 10_15_7) AppleWebKit/537.36 (KHTML, like Gecko) Chrome/135.0.0.0 Safari/537.36",Macintosh,Chrome,135.0.0.0,OS X,10_15_7,https://5puzkbbxv1.cognition.run/?sona_id=57776,"uk-UA,uk;q=0.9,en-US;q=0.8,en;q=0.7",q6qmx308qro2fvy,21,"[""White""]",No,Female,Ukraine,No,880184.099999994,"[{""page_index"":0,""viewing_time"":1197},{""page_index"":1,""viewing_time"":6650},{""page_index"":2,""viewing_time"":28700},{""page_index"":3,""viewing_time"":10501},{""page_index"":4,""viewing_time"":3333},{""page_index"":5,""viewing_time"":29733},{""page_index"":6,""viewing_time"":8701}]",88815,NA,NA,NA,NA,NA,NA,NA,NA,NA,NA,NA,NA,NA,NA,NA,NA,NA,NA,NA,NA,NA,NA,NA,NA,NA
NA,NA,NA,NA,NA,choice_trial_setup,html-keyboard-response,4,92783,0.0-4.0-0.0,82,1,2025-04-29T07:24:13Z,b60275e29fe2361ab97ac0ac217840d7,"Mozilla/5.0 (Macintosh; Intel Mac OS X 10_15_7) AppleWebKit/537.36 (KHTML, like Gecko) Chrome/135.0.0.0 Safari/537.36",Macintosh,Chrome,135.0.0.0,OS X,10_15_7,https://5puzkbbxv1.cognition.run/?sona_id=57776,"uk-UA,uk;q=0.9,en-US;q=0.8,en;q=0.7",q6qmx308qro2fvy,21,"[""White""]",No,Female,Ukraine,No,880184.099999994,NA,null,<p></p>,null,choice,tdc,trinary,repulsion_A,2,laptops,null,null,null,null,null,null,1,NA,NA,NA,NA,NA,NA,NA,NA,NA,NA
NA,NA,NA,NA,NA,choice_trial,survey-html-form,5,114462,0.0-4.0-1.0,82,1,2025-04-29T07:24:13Z,b60275e29fe2361ab97ac0ac217840d7,"Mozilla/5.0 (Macintosh; Intel Mac OS X 10_15_7) AppleWebKit/537.36 (KHTML, like Gecko) Chrome/135.0.0.0 Safari/537.36",Macintosh,Chrome,135.0.0.0,OS X,10_15_7,https://5puzkbbxv1.cognition.run/?sona_id=57776,"uk-UA,uk;q=0.9,en-US;q=0.8,en;q=0.7",q6qmx308qro2fvy,21,"[""White""]",No,Female,Ukraine,No,880184.099999994,NA,21674,NA,"{""product_choice"":""C""}",choice,tdc,trinary,repulsion_A,2,laptops,null,null,null,null,null,null,1,30,40,20,100,90,100,Processing speed,Memory (RAM),NA,NA
NA,NA,NA,NA,NA,choice_trial_setup,html-keyboard-response,6,114766,0.0-4.0-0.1,82,1,2025-04-29T07:24:13Z,b60275e29fe2361ab97ac0ac217840d7,"Mozilla/5.0 (Macintosh; Intel Mac OS X 10_15_7) AppleWebKit/537.36 (KHTML, like Gecko) Chrome/135.0.0.0 Safari/537.36",Macintosh,Chrome,135.0.0.0,OS X,10_15_7,https://5puzkbbxv1.cognition.run/?sona_id=57776,"uk-UA,uk;q=0.9,en-US;q=0.8,en;q=0.7",q6qmx308qro2fvy,21,"[""White""]",No,Female,Ukraine,No,880184.099999994,NA,null,<p></p>,null,choice,dtc,trinary,repulsion_A,1,laptops,null,null,null,null,null,null,1,NA,NA,NA,NA,NA,NA,NA,NA,NA,NA
NA,NA,NA,NA,NA,choice_trial,survey-html-form,7,123711,0.0-4.0-1.1,82,1,2025-04-29T07:24:13Z,b60275e29fe2361ab97ac0ac217840d7,"Mozilla/5.0 (Macintosh; Intel Mac OS X 10_15_7) AppleWebKit/537.36 (KHTML, like Gecko) Chrome/135.0.0.0 Safari/537.36",Macintosh,Chrome,135.0.0.0,OS X,10_15_7,https://5puzkbbxv1.cognition.run/?sona_id=57776,"uk-UA,uk;q=0.9,en-US;q=0.8,en;q=0.7",q6qmx308qro2fvy,21,"[""White""]",No,Female,Ukraine,No,880184.099999994,NA,8942,NA,"{""product_choice"":""C""}",choice,dtc,trinary,repulsion_A,1,laptops,null,null,null,null,null,null,1,100,90,100,30,40,20,Processing speed,Memory (RAM),NA,NA
NA,NA,NA,NA,NA,choice_trial_setup,html-keyboard-response,8,124014,0.0-4.0-0.2,82,1,2025-04-29T07:24:13Z,b60275e29fe2361ab97ac0ac217840d7,"Mozilla/5.0 (Macintosh; Intel Mac OS X 10_15_7) AppleWebKit/537.36 (KHTML, like Gecko) Chrome/135.0.0.0 Safari/537.36",Macintosh,Chrome,135.0.0.0,OS X,10_15_7,https://5puzkbbxv1.cognition.run/?sona_id=57776,"uk-UA,uk;q=0.9,en-US;q=0.8,en;q=0.7",q6qmx308qro2fvy,21,"[""White""]",No,Female,Ukraine,No,880184.099999994,NA,null,<p></p>,null,choice,bw,binary,catch,null,laptops,75,70,45,30,null,null,2,NA,NA,NA,NA,NA,NA,NA,NA,NA,NA
NA,NA,NA,NA,NA,choice_trial,survey-html-form,9,154329,0.0-4.0-1.2,82,1,2025-04-29T07:24:13Z,b60275e29fe2361ab97ac0ac217840d7,"Mozilla/5.0 (Macintosh; Intel Mac OS X 10_15_7) AppleWebKit/537.36 (KHTML, like Gecko) Chrome/135.0.0.0 Safari/537.36",Macintosh,Chrome,135.0.0.0,OS X,10_15_7,https://5puzkbbxv1.cognition.run/?sona_id=57776,"uk-UA,uk;q=0.9,en-US;q=0.8,en;q=0.7",q6qmx308qro2fvy,21,"[""White""]",No,Female,Ukraine,No,880184.099999994,NA,30311,NA,"{""product_choice"":""A""}",choice,bw,binary,catch,null,laptops,75,70,45,30,null,null,2,null,null,null,null,null,null,Processing speed,Memory (RAM),NA,NA
NA,NA,NA,NA,NA,choice_trial_setup,html-keyboard-response,10,154633,0.0-4.0-0.3,82,1,2025-04-29T07:24:13Z,b60275e29fe2361ab97ac0ac217840d7,"Mozilla/5.0 (Macintosh; Intel Mac OS X 10_15_7) AppleWebKit/537.36 (KHTML, like Gecko) Chrome/135.0.0.0 Safari/537.36",Macintosh,Chrome,135.0.0.0,OS X,10_15_7,https://5puzkbbxv1.cognition.run/?sona_id=57776,"uk-UA,uk;q=0.9,en-US;q=0.8,en;q=0.7",q6qmx308qro2fvy,21,"[""White""]",No,Female,Ukraine,No,880184.099999994,NA,null,<p></p>,null,choice,tc,binary,repulsion,2,laptops,null,null,null,null,null,null,2,NA,NA,NA,NA,NA,NA,NA,NA,NA,NA
NA,NA,NA,NA,NA,choice_trial,survey-html-form,11,160163,0.0-4.0-1.3,82,1,2025-04-29T07:24:13Z,b60275e29fe2361ab97ac0ac217840d7,"Mozilla/5.0 (Macintosh; Intel Mac OS X 10_15_7) AppleWebKit/537.36 (KHTML, like Gecko) Chrome/135.0.0.0 Safari/537.36",Macintosh,Chrome,135.0.0.0,OS X,10_15_7,https://5puzkbbxv1.cognition.run/?sona_id=57776,"uk-UA,uk;q=0.9,en-US;q=0.8,en;q=0.7",q6qmx308qro2fvy,21,"[""White""]",No,Female,Ukraine,No,880184.099999994,NA,5528,NA,"{""product_choice"":""B""}",choice,tc,binary,repulsion,2,laptops,null,null,null,null,null,null,2,30,40,null,100,90,null,Processing speed,Memory (RAM),NA,NA
NA,NA,NA,NA,NA,choice_trial_setup,html-keyboard-response,12,160467,0.0-4.0-0.4,82,1,2025-04-29T07:24:13Z,b60275e29fe2361ab97ac0ac217840d7,"Mozilla/5.0 (Macintosh; Intel Mac OS X 10_15_7) AppleWebKit/537.36 (KHTML, like Gecko) Chrome/135.0.0.0 Safari/537.36",Macintosh,Chrome,135.0.0.0,OS X,10_15_7,https://5puzkbbxv1.cognition.run/?sona_id=57776,"uk-UA,uk;q=0.9,en-US;q=0.8,en;q=0.7",q6qmx308qro2fvy,21,"[""White""]",No,Female,Ukraine,No,880184.099999994,NA,null,<p></p>,null,choice,ctd,trinary,repulsion_B,1,televisions,null,null,null,null,null,null,1,NA,NA,NA,NA,NA,NA,NA,NA,NA,NA
NA,NA,NA,NA,NA,choice_trial,survey-html-form,13,184562,0.0-4.0-1.4,82,1,2025-04-29T07:24:13Z,b60275e29fe2361ab97ac0ac217840d7,"Mozilla/5.0 (Macintosh; Intel Mac OS X 10_15_7) AppleWebKit/537.36 (KHTML, like Gecko) Chrome/135.0.0.0 Safari/537.36",Macintosh,Chrome,135.0.0.0,OS X,10_15_7,https://5puzkbbxv1.cognition.run/?sona_id=57776,"uk-UA,uk;q=0.9,en-US;q=0.8,en;q=0.7",q6qmx308qro2fvy,21,"[""White""]",No,Female,Ukraine,No,880184.099999994,NA,24092,NA,"{""product_choice"":""B""}",choice,ctd,trinary,repulsion_B,1,televisions,null,null,null,null,null,null,1,90,100,80,40,30,40,Screen size,Average lifespan,NA,NA
NA,NA,NA,NA,NA,choice_trial_setup,html-keyboard-response,14,184865,0.0-4.0-0.5,82,1,2025-04-29T07:24:13Z,b60275e29fe2361ab97ac0ac217840d7,"Mozilla/5.0 (Macintosh; Intel Mac OS X 10_15_7) AppleWebKit/537.36 (KHTML, like Gecko) Chrome/135.0.0.0 Safari/537.36",Macintosh,Chrome,135.0.0.0,OS X,10_15_7,https://5puzkbbxv1.cognition.run/?sona_id=57776,"uk-UA,uk;q=0.9,en-US;q=0.8,en;q=0.7",q6qmx308qro2fvy,21,"[""White""]",No,Female,Ukraine,No,880184.099999994,NA,null,<p></p>,null,choice,tdc,trinary,attraction,1,televisions,null,null,null,null,null,null,2,NA,NA,NA,NA,NA,NA,NA,NA,NA,NA
NA,NA,NA,NA,NA,choice_trial,survey-html-form,15,245247,0.0-4.0-1.5,82,1,2025-04-29T07:24:13Z,b60275e29fe2361ab97ac0ac217840d7,"Mozilla/5.0 (Macintosh; Intel Mac OS X 10_15_7) AppleWebKit/537.36 (KHTML, like Gecko) Chrome/135.0.0.0 Safari/537.36",Macintosh,Chrome,135.0.0.0,OS X,10_15_7,https://5puzkbbxv1.cognition.run/?sona_id=57776,"uk-UA,uk;q=0.9,en-US;q=0.8,en;q=0.7",q6qmx308qro2fvy,21,"[""White""]",No,Female,Ukraine,No,880184.099999994,NA,60377,NA,"{""product_choice"":""C""}",choice,tdc,trinary,attraction,1,televisions,null,null,null,null,null,null,2,60,50,60,50,60,40,Screen size,Average lifespan,NA,NA
NA,NA,NA,NA,NA,choice_trial_setup,html-keyboard-response,16,245551,0.0-4.0-0.6,82,1,2025-04-29T07:24:13Z,b60275e29fe2361ab97ac0ac217840d7,"Mozilla/5.0 (Macintosh; Intel Mac OS X 10_15_7) AppleWebKit/537.36 (KHTML, like Gecko) Chrome/135.0.0.0 Safari/537.36",Macintosh,Chrome,135.0.0.0,OS X,10_15_7,https://5puzkbbxv1.cognition.run/?sona_id=57776,"uk-UA,uk;q=0.9,en-US;q=0.8,en;q=0.7",q6qmx308qro2fvy,21,"[""White""]",No,Female,Ukraine,No,880184.099999994,NA,null,<p></p>,null,choice,wbw,trinary,catch,null,washing machines,70,80,45,25,25,40,2,NA,NA,NA,NA,NA,NA,NA,NA,NA,NA
NA,NA,NA,NA,NA,choice_trial,survey-html-form,17,253847,0.0-4.0-1.6,82,1,2025-04-29T07:24:13Z,b60275e29fe2361ab97ac0ac217840d7,"Mozilla/5.0 (Macintosh; Intel Mac OS X 10_15_7) AppleWebKit/537.36 (KHTML, like Gecko) Chrome/135.0.0.0 Safari/537.36",Macintosh,Chrome,135.0.0.0,OS X,10_15_7,https://5puzkbbxv1.cognition.run/?sona_id=57776,"uk-UA,uk;q=0.9,en-US;q=0.8,en;q=0.7",q6qmx308qro2fvy,21,"[""White""]",No,Female,Ukraine,No,880184.099999994,NA,8292,NA,"{""product_choice"":""B""}",choice,wbw,trinary,catch,null,washing machines,70,80,45,25,25,40,2,null,null,null,null,null,null,Average lifespan,Energy savings,NA,NA
NA,NA,NA,NA,NA,choice_trial_setup,html-keyboard-response,18,254150,0.0-4.0-0.7,82,1,2025-04-29T07:24:13Z,b60275e29fe2361ab97ac0ac217840d7,"Mozilla/5.0 (Macintosh; Intel Mac OS X 10_15_7) AppleWebKit/537.36 (KHTML, like Gecko) Chrome/135.0.0.0 Safari/537.36",Macintosh,Chrome,135.0.0.0,OS X,10_15_7,https://5puzkbbxv1.cognition.run/?sona_id=57776,"uk-UA,uk;q=0.9,en-US;q=0.8,en;q=0.7",q6qmx308qro2fvy,21,"[""White""]",No,Female,Ukraine,No,880184.099999994,NA,null,<p></p>,null,choice,ct,binary,repulsion,1,televisions,null,null,null,null,null,null,2,NA,NA,NA,NA,NA,NA,NA,NA,NA,NA
NA,NA,NA,NA,NA,choice_trial,survey-html-form,19,264597,0.0-4.0-1.7,82,1,2025-04-29T07:24:13Z,b60275e29fe2361ab97ac0ac217840d7,"Mozilla/5.0 (Macintosh; Intel Mac OS X 10_15_7) AppleWebKit/537.36 (KHTML, like Gecko) Chrome/135.0.0.0 Safari/537.36",Macintosh,Chrome,135.0.0.0,OS X,10_15_7,https://5puzkbbxv1.cognition.run/?sona_id=57776,"uk-UA,uk;q=0.9,en-US;q=0.8,en;q=0.7",q6qmx308qro2fvy,21,"[""White""]",No,Female,Ukraine,No,880184.099999994,NA,10444,NA,"{""product_choice"":""A""}",choice,ct,binary,repulsion,1,televisions,null,null,null,null,null,null,2,100,90,null,30,40,null,Screen size,Average lifespan,NA,NA
NA,NA,NA,NA,NA,choice_trial_setup,html-keyboard-response,20,264901,0.0-4.0-0.8,82,1,2025-04-29T07:24:13Z,b60275e29fe2361ab97ac0ac217840d7,"Mozilla/5.0 (Macintosh; Intel Mac OS X 10_15_7) AppleWebKit/537.36 (KHTML, like Gecko) Chrome/135.0.0.0 Safari/537.36",Macintosh,Chrome,135.0.0.0,OS X,10_15_7,https://5puzkbbxv1.cognition.run/?sona_id=57776,"uk-UA,uk;q=0.9,en-US;q=0.8,en;q=0.7",q6qmx308qro2fvy,21,"[""White""]",No,Female,Ukraine,No,880184.099999994,NA,null,<p></p>,null,choice,dct,trinary,repulsion_A,2,microwave ovens,null,null,null,null,null,null,2,NA,NA,NA,NA,NA,NA,NA,NA,NA,NA
NA,NA,NA,NA,NA,choice_trial,survey-html-form,21,274314,0.0-4.0-1.8,82,1,2025-04-29T07:24:13Z,b60275e29fe2361ab97ac0ac217840d7,"Mozilla/5.0 (Macintosh; Intel Mac OS X 10_15_7) AppleWebKit/537.36 (KHTML, like Gecko) Chrome/135.0.0.0 Safari/537.36",Macintosh,Chrome,135.0.0.0,OS X,10_15_7,https://5puzkbbxv1.cognition.run/?sona_id=57776,"uk-UA,uk;q=0.9,en-US;q=0.8,en;q=0.7",q6qmx308qro2fvy,21,"[""White""]",No,Female,Ukraine,No,880184.099999994,NA,9409,NA,"{""product_choice"":""C""}",choice,dct,trinary,repulsion_A,2,microwave ovens,null,null,null,null,null,null,2,30,40,20,100,90,100,Warranty,Cooking power,NA,NA
NA,NA,NA,NA,NA,choice_trial_setup,html-keyboard-response,22,274618,0.0-4.0-0.9,82,1,2025-04-29T07:24:13Z,b60275e29fe2361ab97ac0ac217840d7,"Mozilla/5.0 (Macintosh; Intel Mac OS X 10_15_7) AppleWebKit/537.36 (KHTML, like Gecko) Chrome/135.0.0.0 Safari/537.36",Macintosh,Chrome,135.0.0.0,OS X,10_15_7,https://5puzkbbxv1.cognition.run/?sona_id=57776,"uk-UA,uk;q=0.9,en-US;q=0.8,en;q=0.7",q6qmx308qro2fvy,21,"[""White""]",No,Female,Ukraine,No,880184.099999994,NA,null,<p></p>,null,choice,tcd,trinary,attraction,2,laptops,null,null,null,null,null,null,2,NA,NA,NA,NA,NA,NA,NA,NA,NA,NA
NA,NA,NA,NA,NA,choice_trial,survey-html-form,23,286064,0.0-4.0-1.9,82,1,2025-04-29T07:24:13Z,b60275e29fe2361ab97ac0ac217840d7,"Mozilla/5.0 (Macintosh; Intel Mac OS X 10_15_7) AppleWebKit/537.36 (KHTML, like Gecko) Chrome/135.0.0.0 Safari/537.36",Macintosh,Chrome,135.0.0.0,OS X,10_15_7,https://5puzkbbxv1.cognition.run/?sona_id=57776,"uk-UA,uk;q=0.9,en-US;q=0.8,en;q=0.7",q6qmx308qro2fvy,21,"[""White""]",No,Female,Ukraine,No,880184.099999994,NA,11442,NA,"{""product_choice"":""A""}",choice,tcd,trinary,attraction,2,laptops,null,null,null,null,null,null,2,50,60,40,60,50,60,Processing speed,Memory (RAM),NA,NA
NA,NA,NA,NA,NA,choice_trial_setup,html-keyboard-response,24,286368,0.0-4.0-0.10,82,1,2025-04-29T07:24:13Z,b60275e29fe2361ab97ac0ac217840d7,"Mozilla/5.0 (Macintosh; Intel Mac OS X 10_15_7) AppleWebKit/537.36 (KHTML, like Gecko) Chrome/135.0.0.0 Safari/537.36",Macintosh,Chrome,135.0.0.0,OS X,10_15_7,https://5puzkbbxv1.cognition.run/?sona_id=57776,"uk-UA,uk;q=0.9,en-US;q=0.8,en;q=0.7",q6qmx308qro2fvy,21,"[""White""]",No,Female,Ukraine,No,880184.099999994,NA,null,<p></p>,null,choice,dtc,trinary,repulsion_A,2,televisions,null,null,null,null,null,null,2,NA,NA,NA,NA,NA,NA,NA,NA,NA,NA
NA,NA,NA,NA,NA,choice_trial,survey-html-form,25,300315,0.0-4.0-1.10,82,1,2025-04-29T07:24:13Z,b60275e29fe2361ab97ac0ac217840d7,"Mozilla/5.0 (Macintosh; Intel Mac OS X 10_15_7) AppleWebKit/537.36 (KHTML, like Gecko) Chrome/135.0.0.0 Safari/537.36",Macintosh,Chrome,135.0.0.0,OS X,10_15_7,https://5puzkbbxv1.cognition.run/?sona_id=57776,"uk-UA,uk;q=0.9,en-US;q=0.8,en;q=0.7",q6qmx308qro2fvy,21,"[""White""]",No,Female,Ukraine,No,880184.099999994,NA,13943,NA,"{""product_choice"":""B""}",choice,dtc,trinary,repulsion_A,2,televisions,null,null,null,null,null,null,2,30,40,20,100,90,100,Screen size,Average lifespan,NA,NA
NA,NA,NA,NA,NA,choice_trial_setup,html-keyboard-response,26,300619,0.0-4.0-0.11,82,1,2025-04-29T07:24:13Z,b60275e29fe2361ab97ac0ac217840d7,"Mozilla/5.0 (Macintosh; Intel Mac OS X 10_15_7) AppleWebKit/537.36 (KHTML, like Gecko) Chrome/135.0.0.0 Safari/537.36",Macintosh,Chrome,135.0.0.0,OS X,10_15_7,https://5puzkbbxv1.cognition.run/?sona_id=57776,"uk-UA,uk;q=0.9,en-US;q=0.8,en;q=0.7",q6qmx308qro2fvy,21,"[""White""]",No,Female,Ukraine,No,880184.099999994,NA,null,<p></p>,null,choice,bw,binary,catch,null,microwave ovens,90,75,5,15,null,null,2,NA,NA,NA,NA,NA,NA,NA,NA,NA,NA
NA,NA,NA,NA,NA,choice_trial,survey-html-form,27,307532,0.0-4.0-1.11,82,1,2025-04-29T07:24:13Z,b60275e29fe2361ab97ac0ac217840d7,"Mozilla/5.0 (Macintosh; Intel Mac OS X 10_15_7) AppleWebKit/537.36 (KHTML, like Gecko) Chrome/135.0.0.0 Safari/537.36",Macintosh,Chrome,135.0.0.0,OS X,10_15_7,https://5puzkbbxv1.cognition.run/?sona_id=57776,"uk-UA,uk;q=0.9,en-US;q=0.8,en;q=0.7",q6qmx308qro2fvy,21,"[""White""]",No,Female,Ukraine,No,880184.099999994,NA,6911,NA,"{""product_choice"":""A""}",choice,bw,binary,catch,null,microwave ovens,90,75,5,15,null,null,2,null,null,null,null,null,null,Warranty,Cooking power,NA,NA
NA,NA,NA,NA,NA,choice_trial_setup,html-keyboard-response,28,307837,0.0-4.0-0.12,82,1,2025-04-29T07:24:13Z,b60275e29fe2361ab97ac0ac217840d7,"Mozilla/5.0 (Macintosh; Intel Mac OS X 10_15_7) AppleWebKit/537.36 (KHTML, like Gecko) Chrome/135.0.0.0 Safari/537.36",Macintosh,Chrome,135.0.0.0,OS X,10_15_7,https://5puzkbbxv1.cognition.run/?sona_id=57776,"uk-UA,uk;q=0.9,en-US;q=0.8,en;q=0.7",q6qmx308qro2fvy,21,"[""White""]",No,Female,Ukraine,No,880184.099999994,NA,null,<p></p>,null,choice,tc,binary,attraction,NA,microwave ovens,null,null,null,null,null,null,1,NA,NA,NA,NA,NA,NA,NA,NA,NA,NA
NA,NA,NA,NA,NA,choice_trial,survey-html-form,29,316198,0.0-4.0-1.12,82,1,2025-04-29T07:24:13Z,b60275e29fe2361ab97ac0ac217840d7,"Mozilla/5.0 (Macintosh; Intel Mac OS X 10_15_7) AppleWebKit/537.36 (KHTML, like Gecko) Chrome/135.0.0.0 Safari/537.36",Macintosh,Chrome,135.0.0.0,OS X,10_15_7,https://5puzkbbxv1.cognition.run/?sona_id=57776,"uk-UA,uk;q=0.9,en-US;q=0.8,en;q=0.7",q6qmx308qro2fvy,21,"[""White""]",No,Female,Ukraine,No,880184.099999994,NA,8357,NA,"{""product_choice"":""B""}",choice,tc,binary,attraction,NA,microwave ovens,null,null,null,null,null,null,1,60,50,null,50,60,null,Warranty,Cooking power,NA,NA
NA,NA,NA,NA,NA,choice_trial_setup,html-keyboard-response,30,316502,0.0-4.0-0.13,82,1,2025-04-29T07:24:13Z,b60275e29fe2361ab97ac0ac217840d7,"Mozilla/5.0 (Macintosh; Intel Mac OS X 10_15_7) AppleWebKit/537.36 (KHTML, like Gecko) Chrome/135.0.0.0 Safari/537.36",Macintosh,Chrome,135.0.0.0,OS X,10_15_7,https://5puzkbbxv1.cognition.run/?sona_id=57776,"uk-UA,uk;q=0.9,en-US;q=0.8,en;q=0.7",q6qmx308qro2fvy,21,"[""White""]",No,Female,Ukraine,No,880184.099999994,NA,null,<p></p>,null,choice,dtc,trinary,repulsion_B,2,microwave ovens,null,null,null,null,null,null,1,NA,NA,NA,NA,NA,NA,NA,NA,NA,NA
NA,NA,NA,NA,NA,choice_trial,survey-html-form,31,325898,0.0-4.0-1.13,82,1,2025-04-29T07:24:13Z,b60275e29fe2361ab97ac0ac217840d7,"Mozilla/5.0 (Macintosh; Intel Mac OS X 10_15_7) AppleWebKit/537.36 (KHTML, like Gecko) Chrome/135.0.0.0 Safari/537.36",Macintosh,Chrome,135.0.0.0,OS X,10_15_7,https://5puzkbbxv1.cognition.run/?sona_id=57776,"uk-UA,uk;q=0.9,en-US;q=0.8,en;q=0.7",q6qmx308qro2fvy,21,"[""White""]",No,Female,Ukraine,No,880184.099999994,NA,9391,NA,"{""product_choice"":""B""}",choice,dtc,trinary,repulsion_B,2,microwave ovens,null,null,null,null,null,null,1,40,30,40,90,100,80,Warranty,Cooking power,NA,NA
NA,NA,NA,NA,NA,choice_trial_setup,html-keyboard-response,32,326201,0.0-4.0-0.14,82,1,2025-04-29T07:24:13Z,b60275e29fe2361ab97ac0ac217840d7,"Mozilla/5.0 (Macintosh; Intel Mac OS X 10_15_7) AppleWebKit/537.36 (KHTML, like Gecko) Chrome/135.0.0.0 Safari/537.36",Macintosh,Chrome,135.0.0.0,OS X,10_15_7,https://5puzkbbxv1.cognition.run/?sona_id=57776,"uk-UA,uk;q=0.9,en-US;q=0.8,en;q=0.7",q6qmx308qro2fvy,21,"[""White""]",No,Female,Ukraine,No,880184.099999994,NA,null,<p></p>,null,choice,dct,trinary,attraction,1,microwave ovens,null,null,null,null,null,null,1,NA,NA,NA,NA,NA,NA,NA,NA,NA,NA
NA,NA,NA,NA,NA,choice_trial,survey-html-form,33,411913,0.0-4.0-1.14,82,1,2025-04-29T07:24:13Z,b60275e29fe2361ab97ac0ac217840d7,"Mozilla/5.0 (Macintosh; Intel Mac OS X 10_15_7) AppleWebKit/537.36 (KHTML, like Gecko) Chrome/135.0.0.0 Safari/537.36",Macintosh,Chrome,135.0.0.0,OS X,10_15_7,https://5puzkbbxv1.cognition.run/?sona_id=57776,"uk-UA,uk;q=0.9,en-US;q=0.8,en;q=0.7",q6qmx308qro2fvy,21,"[""White""]",No,Female,Ukraine,No,880184.099999994,NA,85727,NA,"{""product_choice"":""C""}",choice,dct,trinary,attraction,1,microwave ovens,null,null,null,null,null,null,1,60,50,60,50,60,40,Warranty,Cooking power,NA,NA
NA,NA,NA,NA,NA,choice_trial_setup,html-keyboard-response,34,412217,0.0-4.0-0.15,82,1,2025-04-29T07:24:13Z,b60275e29fe2361ab97ac0ac217840d7,"Mozilla/5.0 (Macintosh; Intel Mac OS X 10_15_7) AppleWebKit/537.36 (KHTML, like Gecko) Chrome/135.0.0.0 Safari/537.36",Macintosh,Chrome,135.0.0.0,OS X,10_15_7,https://5puzkbbxv1.cognition.run/?sona_id=57776,"uk-UA,uk;q=0.9,en-US;q=0.8,en;q=0.7",q6qmx308qro2fvy,21,"[""White""]",No,Female,Ukraine,No,880184.099999994,NA,null,<p></p>,null,choice,tc,binary,repulsion,1,laptops,null,null,null,null,null,null,2,NA,NA,NA,NA,NA,NA,NA,NA,NA,NA
NA,NA,NA,NA,NA,choice_trial,survey-html-form,35,419245,0.0-4.0-1.15,82,1,2025-04-29T07:24:13Z,b60275e29fe2361ab97ac0ac217840d7,"Mozilla/5.0 (Macintosh; Intel Mac OS X 10_15_7) AppleWebKit/537.36 (KHTML, like Gecko) Chrome/135.0.0.0 Safari/537.36",Macintosh,Chrome,135.0.0.0,OS X,10_15_7,https://5puzkbbxv1.cognition.run/?sona_id=57776,"uk-UA,uk;q=0.9,en-US;q=0.8,en;q=0.7",q6qmx308qro2fvy,21,"[""White""]",No,Female,Ukraine,No,880184.099999994,NA,7024,NA,"{""product_choice"":""B""}",choice,tc,binary,repulsion,1,laptops,null,null,null,null,null,null,2,100,90,null,30,40,null,Processing speed,Memory (RAM),NA,NA
NA,NA,NA,NA,NA,choice_trial_setup,html-keyboard-response,36,419548,0.0-4.0-0.16,82,1,2025-04-29T07:24:13Z,b60275e29fe2361ab97ac0ac217840d7,"Mozilla/5.0 (Macintosh; Intel Mac OS X 10_15_7) AppleWebKit/537.36 (KHTML, like Gecko) Chrome/135.0.0.0 Safari/537.36",Macintosh,Chrome,135.0.0.0,OS X,10_15_7,https://5puzkbbxv1.cognition.run/?sona_id=57776,"uk-UA,uk;q=0.9,en-US;q=0.8,en;q=0.7",q6qmx308qro2fvy,21,"[""White""]",No,Female,Ukraine,No,880184.099999994,NA,null,<p></p>,null,choice,dct,trinary,repulsion_A,1,televisions,null,null,null,null,null,null,2,NA,NA,NA,NA,NA,NA,NA,NA,NA,NA
NA,NA,NA,NA,NA,choice_trial,survey-html-form,37,429613,0.0-4.0-1.16,82,1,2025-04-29T07:24:13Z,b60275e29fe2361ab97ac0ac217840d7,"Mozilla/5.0 (Macintosh; Intel Mac OS X 10_15_7) AppleWebKit/537.36 (KHTML, like Gecko) Chrome/135.0.0.0 Safari/537.36",Macintosh,Chrome,135.0.0.0,OS X,10_15_7,https://5puzkbbxv1.cognition.run/?sona_id=57776,"uk-UA,uk;q=0.9,en-US;q=0.8,en;q=0.7",q6qmx308qro2fvy,21,"[""White""]",No,Female,Ukraine,No,880184.099999994,NA,10060,NA,"{""product_choice"":""C""}",choice,dct,trinary,repulsion_A,1,televisions,null,null,null,null,null,null,2,100,90,100,30,40,20,Screen size,Average lifespan,NA,NA
NA,NA,NA,NA,NA,choice_trial_setup,html-keyboard-response,38,429917,0.0-4.0-0.17,82,1,2025-04-29T07:24:13Z,b60275e29fe2361ab97ac0ac217840d7,"Mozilla/5.0 (Macintosh; Intel Mac OS X 10_15_7) AppleWebKit/537.36 (KHTML, like Gecko) Chrome/135.0.0.0 Safari/537.36",Macintosh,Chrome,135.0.0.0,OS X,10_15_7,https://5puzkbbxv1.cognition.run/?sona_id=57776,"uk-UA,uk;q=0.9,en-US;q=0.8,en;q=0.7",q6qmx308qro2fvy,21,"[""White""]",No,Female,Ukraine,No,880184.099999994,NA,null,<p></p>,null,choice,ctd,trinary,attraction,1,washing machines,null,null,null,null,null,null,2,NA,NA,NA,NA,NA,NA,NA,NA,NA,NA
NA,NA,NA,NA,NA,choice_trial,survey-html-form,39,444664,0.0-4.0-1.17,82,1,2025-04-29T07:24:13Z,b60275e29fe2361ab97ac0ac217840d7,"Mozilla/5.0 (Macintosh; Intel Mac OS X 10_15_7) AppleWebKit/537.36 (KHTML, like Gecko) Chrome/135.0.0.0 Safari/537.36",Macintosh,Chrome,135.0.0.0,OS X,10_15_7,https://5puzkbbxv1.cognition.run/?sona_id=57776,"uk-UA,uk;q=0.9,en-US;q=0.8,en;q=0.7",q6qmx308qro2fvy,21,"[""White""]",No,Female,Ukraine,No,880184.099999994,NA,14742,NA,"{""product_choice"":""A""}",choice,ctd,trinary,attraction,1,washing machines,null,null,null,null,null,null,2,60,50,60,50,60,40,Average lifespan,Energy savings,NA,NA
NA,NA,NA,NA,NA,choice_trial_setup,html-keyboard-response,40,444968,0.0-4.0-0.18,82,1,2025-04-29T07:24:13Z,b60275e29fe2361ab97ac0ac217840d7,"Mozilla/5.0 (Macintosh; Intel Mac OS X 10_15_7) AppleWebKit/537.36 (KHTML, like Gecko) Chrome/135.0.0.0 Safari/537.36",Macintosh,Chrome,135.0.0.0,OS X,10_15_7,https://5puzkbbxv1.cognition.run/?sona_id=57776,"uk-UA,uk;q=0.9,en-US;q=0.8,en;q=0.7",q6qmx308qro2fvy,21,"[""White""]",No,Female,Ukraine,No,880184.099999994,NA,null,<p></p>,null,choice,wb,binary,catch,null,televisions,80,60,20,35,null,null,1,NA,NA,NA,NA,NA,NA,NA,NA,NA,NA
NA,NA,NA,NA,NA,choice_trial,survey-html-form,41,450213,0.0-4.0-1.18,82,1,2025-04-29T07:24:13Z,b60275e29fe2361ab97ac0ac217840d7,"Mozilla/5.0 (Macintosh; Intel Mac OS X 10_15_7) AppleWebKit/537.36 (KHTML, like Gecko) Chrome/135.0.0.0 Safari/537.36",Macintosh,Chrome,135.0.0.0,OS X,10_15_7,https://5puzkbbxv1.cognition.run/?sona_id=57776,"uk-UA,uk;q=0.9,en-US;q=0.8,en;q=0.7",q6qmx308qro2fvy,21,"[""White""]",No,Female,Ukraine,No,880184.099999994,NA,5240,NA,"{""product_choice"":""B""}",choice,wb,binary,catch,null,televisions,80,60,20,35,null,null,1,null,null,null,null,null,null,Screen size,Average lifespan,NA,NA
NA,NA,NA,NA,NA,choice_trial_setup,html-keyboard-response,42,450516,0.0-4.0-0.19,82,1,2025-04-29T07:24:13Z,b60275e29fe2361ab97ac0ac217840d7,"Mozilla/5.0 (Macintosh; Intel Mac OS X 10_15_7) AppleWebKit/537.36 (KHTML, like Gecko) Chrome/135.0.0.0 Safari/537.36",Macintosh,Chrome,135.0.0.0,OS X,10_15_7,https://5puzkbbxv1.cognition.run/?sona_id=57776,"uk-UA,uk;q=0.9,en-US;q=0.8,en;q=0.7",q6qmx308qro2fvy,21,"[""White""]",No,Female,Ukraine,No,880184.099999994,NA,null,<p></p>,null,choice,tc,binary,attraction,NA,televisions,null,null,null,null,null,null,2,NA,NA,NA,NA,NA,NA,NA,NA,NA,NA
NA,NA,NA,NA,NA,choice_trial,survey-html-form,43,459397,0.0-4.0-1.19,82,1,2025-04-29T07:24:13Z,b60275e29fe2361ab97ac0ac217840d7,"Mozilla/5.0 (Macintosh; Intel Mac OS X 10_15_7) AppleWebKit/537.36 (KHTML, like Gecko) Chrome/135.0.0.0 Safari/537.36",Macintosh,Chrome,135.0.0.0,OS X,10_15_7,https://5puzkbbxv1.cognition.run/?sona_id=57776,"uk-UA,uk;q=0.9,en-US;q=0.8,en;q=0.7",q6qmx308qro2fvy,21,"[""White""]",No,Female,Ukraine,No,880184.099999994,NA,8876,NA,"{""product_choice"":""A""}",choice,tc,binary,attraction,NA,televisions,null,null,null,null,null,null,2,60,50,null,50,60,null,Screen size,Average lifespan,NA,NA
NA,NA,NA,NA,NA,choice_trial_setup,html-keyboard-response,44,459701,0.0-4.0-0.20,82,1,2025-04-29T07:24:13Z,b60275e29fe2361ab97ac0ac217840d7,"Mozilla/5.0 (Macintosh; Intel Mac OS X 10_15_7) AppleWebKit/537.36 (KHTML, like Gecko) Chrome/135.0.0.0 Safari/537.36",Macintosh,Chrome,135.0.0.0,OS X,10_15_7,https://5puzkbbxv1.cognition.run/?sona_id=57776,"uk-UA,uk;q=0.9,en-US;q=0.8,en;q=0.7",q6qmx308qro2fvy,21,"[""White""]",No,Female,Ukraine,No,880184.099999994,NA,null,<p></p>,null,choice,dtc,trinary,repulsion_A,1,washing machines,null,null,null,null,null,null,2,NA,NA,NA,NA,NA,NA,NA,NA,NA,NA
NA,NA,NA,NA,NA,choice_trial,survey-html-form,45,469979,0.0-4.0-1.20,82,1,2025-04-29T07:24:13Z,b60275e29fe2361ab97ac0ac217840d7,"Mozilla/5.0 (Macintosh; Intel Mac OS X 10_15_7) AppleWebKit/537.36 (KHTML, like Gecko) Chrome/135.0.0.0 Safari/537.36",Macintosh,Chrome,135.0.0.0,OS X,10_15_7,https://5puzkbbxv1.cognition.run/?sona_id=57776,"uk-UA,uk;q=0.9,en-US;q=0.8,en;q=0.7",q6qmx308qro2fvy,21,"[""White""]",No,Female,Ukraine,No,880184.099999994,NA,10273,NA,"{""product_choice"":""C""}",choice,dtc,trinary,repulsion_A,1,washing machines,null,null,null,null,null,null,2,100,90,100,30,40,20,Average lifespan,Energy savings,NA,NA
NA,NA,NA,NA,NA,choice_trial_setup,html-keyboard-response,46,470283,0.0-4.0-0.21,82,1,2025-04-29T07:24:13Z,b60275e29fe2361ab97ac0ac217840d7,"Mozilla/5.0 (Macintosh; Intel Mac OS X 10_15_7) AppleWebKit/537.36 (KHTML, like Gecko) Chrome/135.0.0.0 Safari/537.36",Macintosh,Chrome,135.0.0.0,OS X,10_15_7,https://5puzkbbxv1.cognition.run/?sona_id=57776,"uk-UA,uk;q=0.9,en-US;q=0.8,en;q=0.7",q6qmx308qro2fvy,21,"[""White""]",No,Female,Ukraine,No,880184.099999994,NA,null,<p></p>,null,choice,ctd,trinary,attraction,2,televisions,null,null,null,null,null,null,2,NA,NA,NA,NA,NA,NA,NA,NA,NA,NA
NA,NA,NA,NA,NA,choice_trial,survey-html-form,47,495880,0.0-4.0-1.21,82,1,2025-04-29T07:24:13Z,b60275e29fe2361ab97ac0ac217840d7,"Mozilla/5.0 (Macintosh; Intel Mac OS X 10_15_7) AppleWebKit/537.36 (KHTML, like Gecko) Chrome/135.0.0.0 Safari/537.36",Macintosh,Chrome,135.0.0.0,OS X,10_15_7,https://5puzkbbxv1.cognition.run/?sona_id=57776,"uk-UA,uk;q=0.9,en-US;q=0.8,en;q=0.7",q6qmx308qro2fvy,21,"[""White""]",No,Female,Ukraine,No,880184.099999994,NA,25592,NA,"{""product_choice"":""B""}",choice,ctd,trinary,attraction,2,televisions,null,null,null,null,null,null,2,50,60,40,60,50,60,Screen size,Average lifespan,NA,NA
NA,NA,NA,NA,NA,choice_trial_setup,html-keyboard-response,48,496185,0.0-4.0-0.22,82,1,2025-04-29T07:24:13Z,b60275e29fe2361ab97ac0ac217840d7,"Mozilla/5.0 (Macintosh; Intel Mac OS X 10_15_7) AppleWebKit/537.36 (KHTML, like Gecko) Chrome/135.0.0.0 Safari/537.36",Macintosh,Chrome,135.0.0.0,OS X,10_15_7,https://5puzkbbxv1.cognition.run/?sona_id=57776,"uk-UA,uk;q=0.9,en-US;q=0.8,en;q=0.7",q6qmx308qro2fvy,21,"[""White""]",No,Female,Ukraine,No,880184.099999994,NA,null,<p></p>,null,choice,bww,trinary,catch,null,laptops,65,75,40,45,25,10,2,NA,NA,NA,NA,NA,NA,NA,NA,NA,NA
NA,NA,NA,NA,NA,choice_trial,survey-html-form,49,501596,0.0-4.0-1.22,82,1,2025-04-29T07:24:13Z,b60275e29fe2361ab97ac0ac217840d7,"Mozilla/5.0 (Macintosh; Intel Mac OS X 10_15_7) AppleWebKit/537.36 (KHTML, like Gecko) Chrome/135.0.0.0 Safari/537.36",Macintosh,Chrome,135.0.0.0,OS X,10_15_7,https://5puzkbbxv1.cognition.run/?sona_id=57776,"uk-UA,uk;q=0.9,en-US;q=0.8,en;q=0.7",q6qmx308qro2fvy,21,"[""White""]",No,Female,Ukraine,No,880184.099999994,NA,5406,NA,"{""product_choice"":""A""}",choice,bww,trinary,catch,null,laptops,65,75,40,45,25,10,2,null,null,null,null,null,null,Processing speed,Memory (RAM),NA,NA
NA,NA,NA,NA,NA,choice_trial_setup,html-keyboard-response,50,501899,0.0-4.0-0.23,82,1,2025-04-29T07:24:13Z,b60275e29fe2361ab97ac0ac217840d7,"Mozilla/5.0 (Macintosh; Intel Mac OS X 10_15_7) AppleWebKit/537.36 (KHTML, like Gecko) Chrome/135.0.0.0 Safari/537.36",Macintosh,Chrome,135.0.0.0,OS X,10_15_7,https://5puzkbbxv1.cognition.run/?sona_id=57776,"uk-UA,uk;q=0.9,en-US;q=0.8,en;q=0.7",q6qmx308qro2fvy,21,"[""White""]",No,Female,Ukraine,No,880184.099999994,NA,null,<p></p>,null,choice,wbw,trinary,catch,null,televisions,65,90,45,15,45,45,1,NA,NA,NA,NA,NA,NA,NA,NA,NA,NA
NA,NA,NA,NA,NA,choice_trial,survey-html-form,51,506529,0.0-4.0-1.23,82,1,2025-04-29T07:24:13Z,b60275e29fe2361ab97ac0ac217840d7,"Mozilla/5.0 (Macintosh; Intel Mac OS X 10_15_7) AppleWebKit/537.36 (KHTML, like Gecko) Chrome/135.0.0.0 Safari/537.36",Macintosh,Chrome,135.0.0.0,OS X,10_15_7,https://5puzkbbxv1.cognition.run/?sona_id=57776,"uk-UA,uk;q=0.9,en-US;q=0.8,en;q=0.7",q6qmx308qro2fvy,21,"[""White""]",No,Female,Ukraine,No,880184.099999994,NA,4625,NA,"{""product_choice"":""B""}",choice,wbw,trinary,catch,null,televisions,65,90,45,15,45,45,1,null,null,null,null,null,null,Screen size,Average lifespan,NA,NA
NA,NA,NA,NA,NA,choice_trial_setup,html-keyboard-response,52,506833,0.0-4.0-0.24,82,1,2025-04-29T07:24:13Z,b60275e29fe2361ab97ac0ac217840d7,"Mozilla/5.0 (Macintosh; Intel Mac OS X 10_15_7) AppleWebKit/537.36 (KHTML, like Gecko) Chrome/135.0.0.0 Safari/537.36",Macintosh,Chrome,135.0.0.0,OS X,10_15_7,https://5puzkbbxv1.cognition.run/?sona_id=57776,"uk-UA,uk;q=0.9,en-US;q=0.8,en;q=0.7",q6qmx308qro2fvy,21,"[""White""]",No,Female,Ukraine,No,880184.099999994,NA,null,<p></p>,null,choice,bw,binary,catch,null,washing machines,95,95,20,35,null,null,1,NA,NA,NA,NA,NA,NA,NA,NA,NA,NA
NA,NA,NA,NA,NA,choice_trial,survey-html-form,53,511813,0.0-4.0-1.24,82,1,2025-04-29T07:24:13Z,b60275e29fe2361ab97ac0ac217840d7,"Mozilla/5.0 (Macintosh; Intel Mac OS X 10_15_7) AppleWebKit/537.36 (KHTML, like Gecko) Chrome/135.0.0.0 Safari/537.36",Macintosh,Chrome,135.0.0.0,OS X,10_15_7,https://5puzkbbxv1.cognition.run/?sona_id=57776,"uk-UA,uk;q=0.9,en-US;q=0.8,en;q=0.7",q6qmx308qro2fvy,21,"[""White""]",No,Female,Ukraine,No,880184.099999994,NA,4975,NA,"{""product_choice"":""A""}",choice,bw,binary,catch,null,washing machines,95,95,20,35,null,null,1,null,null,null,null,null,null,Average lifespan,Energy savings,NA,NA
NA,NA,NA,NA,NA,choice_trial_setup,html-keyboard-response,54,512116,0.0-4.0-0.25,82,1,2025-04-29T07:24:13Z,b60275e29fe2361ab97ac0ac217840d7,"Mozilla/5.0 (Macintosh; Intel Mac OS X 10_15_7) AppleWebKit/537.36 (KHTML, like Gecko) Chrome/135.0.0.0 Safari/537.36",Macintosh,Chrome,135.0.0.0,OS X,10_15_7,https://5puzkbbxv1.cognition.run/?sona_id=57776,"uk-UA,uk;q=0.9,en-US;q=0.8,en;q=0.7",q6qmx308qro2fvy,21,"[""White""]",No,Female,Ukraine,No,880184.099999994,NA,null,<p></p>,null,choice,tcd,trinary,repulsion_B,2,washing machines,null,null,null,null,null,null,1,NA,NA,NA,NA,NA,NA,NA,NA,NA,NA
NA,NA,NA,NA,NA,choice_trial,survey-html-form,55,519847,0.0-4.0-1.25,82,1,2025-04-29T07:24:13Z,b60275e29fe2361ab97ac0ac217840d7,"Mozilla/5.0 (Macintosh; Intel Mac OS X 10_15_7) AppleWebKit/537.36 (KHTML, like Gecko) Chrome/135.0.0.0 Safari/537.36",Macintosh,Chrome,135.0.0.0,OS X,10_15_7,https://5puzkbbxv1.cognition.run/?sona_id=57776,"uk-UA,uk;q=0.9,en-US;q=0.8,en;q=0.7",q6qmx308qro2fvy,21,"[""White""]",No,Female,Ukraine,No,880184.099999994,NA,7726,NA,"{""product_choice"":""A""}",choice,tcd,trinary,repulsion_B,2,washing machines,null,null,null,null,null,null,1,40,30,40,90,100,80,Average lifespan,Energy savings,NA,NA
NA,NA,NA,NA,NA,choice_trial_setup,html-keyboard-response,56,520151,0.0-4.0-0.26,82,1,2025-04-29T07:24:13Z,b60275e29fe2361ab97ac0ac217840d7,"Mozilla/5.0 (Macintosh; Intel Mac OS X 10_15_7) AppleWebKit/537.36 (KHTML, like Gecko) Chrome/135.0.0.0 Safari/537.36",Macintosh,Chrome,135.0.0.0,OS X,10_15_7,https://5puzkbbxv1.cognition.run/?sona_id=57776,"uk-UA,uk;q=0.9,en-US;q=0.8,en;q=0.7",q6qmx308qro2fvy,21,"[""White""]",No,Female,Ukraine,No,880184.099999994,NA,null,<p></p>,null,choice,cdt,trinary,attraction,1,laptops,null,null,null,null,null,null,1,NA,NA,NA,NA,NA,NA,NA,NA,NA,NA
NA,NA,NA,NA,NA,choice_trial,survey-html-form,57,532314,0.0-4.0-1.26,82,1,2025-04-29T07:24:13Z,b60275e29fe2361ab97ac0ac217840d7,"Mozilla/5.0 (Macintosh; Intel Mac OS X 10_15_7) AppleWebKit/537.36 (KHTML, like Gecko) Chrome/135.0.0.0 Safari/537.36",Macintosh,Chrome,135.0.0.0,OS X,10_15_7,https://5puzkbbxv1.cognition.run/?sona_id=57776,"uk-UA,uk;q=0.9,en-US;q=0.8,en;q=0.7",q6qmx308qro2fvy,21,"[""White""]",No,Female,Ukraine,No,880184.099999994,NA,12157,NA,"{""product_choice"":""C""}",choice,cdt,trinary,attraction,1,laptops,null,null,null,null,null,null,1,60,50,60,50,60,40,Processing speed,Memory (RAM),NA,NA
NA,NA,NA,NA,NA,choice_trial_setup,html-keyboard-response,58,532619,0.0-4.0-0.27,82,1,2025-04-29T07:24:13Z,b60275e29fe2361ab97ac0ac217840d7,"Mozilla/5.0 (Macintosh; Intel Mac OS X 10_15_7) AppleWebKit/537.36 (KHTML, like Gecko) Chrome/135.0.0.0 Safari/537.36",Macintosh,Chrome,135.0.0.0,OS X,10_15_7,https://5puzkbbxv1.cognition.run/?sona_id=57776,"uk-UA,uk;q=0.9,en-US;q=0.8,en;q=0.7",q6qmx308qro2fvy,21,"[""White""]",No,Female,Ukraine,No,880184.099999994,NA,null,<p></p>,null,choice,ct,binary,repulsion,2,televisions,null,null,null,null,null,null,2,NA,NA,NA,NA,NA,NA,NA,NA,NA,NA
NA,NA,NA,NA,NA,choice_trial,survey-html-form,59,542381,0.0-4.0-1.27,82,1,2025-04-29T07:24:13Z,b60275e29fe2361ab97ac0ac217840d7,"Mozilla/5.0 (Macintosh; Intel Mac OS X 10_15_7) AppleWebKit/537.36 (KHTML, like Gecko) Chrome/135.0.0.0 Safari/537.36",Macintosh,Chrome,135.0.0.0,OS X,10_15_7,https://5puzkbbxv1.cognition.run/?sona_id=57776,"uk-UA,uk;q=0.9,en-US;q=0.8,en;q=0.7",q6qmx308qro2fvy,21,"[""White""]",No,Female,Ukraine,No,880184.099999994,NA,9756,NA,"{""product_choice"":""A""}",choice,ct,binary,repulsion,2,televisions,null,null,null,null,null,null,2,30,40,null,100,90,null,Screen size,Average lifespan,NA,NA
NA,NA,NA,NA,NA,choice_trial_setup,html-keyboard-response,60,542686,0.0-4.0-0.28,82,1,2025-04-29T07:24:13Z,b60275e29fe2361ab97ac0ac217840d7,"Mozilla/5.0 (Macintosh; Intel Mac OS X 10_15_7) AppleWebKit/537.36 (KHTML, like Gecko) Chrome/135.0.0.0 Safari/537.36",Macintosh,Chrome,135.0.0.0,OS X,10_15_7,https://5puzkbbxv1.cognition.run/?sona_id=57776,"uk-UA,uk;q=0.9,en-US;q=0.8,en;q=0.7",q6qmx308qro2fvy,21,"[""White""]",No,Female,Ukraine,No,880184.099999994,NA,null,<p></p>,null,choice,dct,trinary,repulsion_A,1,microwave ovens,null,null,null,null,null,null,2,NA,NA,NA,NA,NA,NA,NA,NA,NA,NA
NA,NA,NA,NA,NA,choice_trial,survey-html-form,61,549979,0.0-4.0-1.28,82,1,2025-04-29T07:24:13Z,b60275e29fe2361ab97ac0ac217840d7,"Mozilla/5.0 (Macintosh; Intel Mac OS X 10_15_7) AppleWebKit/537.36 (KHTML, like Gecko) Chrome/135.0.0.0 Safari/537.36",Macintosh,Chrome,135.0.0.0,OS X,10_15_7,https://5puzkbbxv1.cognition.run/?sona_id=57776,"uk-UA,uk;q=0.9,en-US;q=0.8,en;q=0.7",q6qmx308qro2fvy,21,"[""White""]",No,Female,Ukraine,No,880184.099999994,NA,7288,NA,"{""product_choice"":""B""}",choice,dct,trinary,repulsion_A,1,microwave ovens,null,null,null,null,null,null,2,100,90,100,30,40,20,Warranty,Cooking power,NA,NA
NA,NA,NA,NA,NA,choice_trial_setup,html-keyboard-response,62,550283,0.0-4.0-0.29,82,1,2025-04-29T07:24:13Z,b60275e29fe2361ab97ac0ac217840d7,"Mozilla/5.0 (Macintosh; Intel Mac OS X 10_15_7) AppleWebKit/537.36 (KHTML, like Gecko) Chrome/135.0.0.0 Safari/537.36",Macintosh,Chrome,135.0.0.0,OS X,10_15_7,https://5puzkbbxv1.cognition.run/?sona_id=57776,"uk-UA,uk;q=0.9,en-US;q=0.8,en;q=0.7",q6qmx308qro2fvy,21,"[""White""]",No,Female,Ukraine,No,880184.099999994,NA,null,<p></p>,null,choice,tdc,trinary,repulsion_B,2,televisions,null,null,null,null,null,null,1,NA,NA,NA,NA,NA,NA,NA,NA,NA,NA
NA,NA,NA,NA,NA,choice_trial,survey-html-form,63,557280,0.0-4.0-1.29,82,1,2025-04-29T07:24:13Z,b60275e29fe2361ab97ac0ac217840d7,"Mozilla/5.0 (Macintosh; Intel Mac OS X 10_15_7) AppleWebKit/537.36 (KHTML, like Gecko) Chrome/135.0.0.0 Safari/537.36",Macintosh,Chrome,135.0.0.0,OS X,10_15_7,https://5puzkbbxv1.cognition.run/?sona_id=57776,"uk-UA,uk;q=0.9,en-US;q=0.8,en;q=0.7",q6qmx308qro2fvy,21,"[""White""]",No,Female,Ukraine,No,880184.099999994,NA,6992,NA,"{""product_choice"":""A""}",choice,tdc,trinary,repulsion_B,2,televisions,null,null,null,null,null,null,1,40,30,40,90,100,80,Screen size,Average lifespan,NA,NA
NA,NA,NA,NA,NA,choice_trial_setup,html-keyboard-response,64,557583,0.0-4.0-0.30,82,1,2025-04-29T07:24:13Z,b60275e29fe2361ab97ac0ac217840d7,"Mozilla/5.0 (Macintosh; Intel Mac OS X 10_15_7) AppleWebKit/537.36 (KHTML, like Gecko) Chrome/135.0.0.0 Safari/537.36",Macintosh,Chrome,135.0.0.0,OS X,10_15_7,https://5puzkbbxv1.cognition.run/?sona_id=57776,"uk-UA,uk;q=0.9,en-US;q=0.8,en;q=0.7",q6qmx308qro2fvy,21,"[""White""]",No,Female,Ukraine,No,880184.099999994,NA,null,<p></p>,null,choice,ct,binary,repulsion,2,microwave ovens,null,null,null,null,null,null,2,NA,NA,NA,NA,NA,NA,NA,NA,NA,NA
NA,NA,NA,NA,NA,choice_trial,survey-html-form,65,562597,0.0-4.0-1.30,82,1,2025-04-29T07:24:13Z,b60275e29fe2361ab97ac0ac217840d7,"Mozilla/5.0 (Macintosh; Intel Mac OS X 10_15_7) AppleWebKit/537.36 (KHTML, like Gecko) Chrome/135.0.0.0 Safari/537.36",Macintosh,Chrome,135.0.0.0,OS X,10_15_7,https://5puzkbbxv1.cognition.run/?sona_id=57776,"uk-UA,uk;q=0.9,en-US;q=0.8,en;q=0.7",q6qmx308qro2fvy,21,"[""White""]",No,Female,Ukraine,No,880184.099999994,NA,5009,NA,"{""product_choice"":""B""}",choice,ct,binary,repulsion,2,microwave ovens,null,null,null,null,null,null,2,30,40,null,100,90,null,Warranty,Cooking power,NA,NA
NA,NA,NA,NA,NA,choice_trial_setup,html-keyboard-response,66,562902,0.0-4.0-0.31,82,1,2025-04-29T07:24:13Z,b60275e29fe2361ab97ac0ac217840d7,"Mozilla/5.0 (Macintosh; Intel Mac OS X 10_15_7) AppleWebKit/537.36 (KHTML, like Gecko) Chrome/135.0.0.0 Safari/537.36",Macintosh,Chrome,135.0.0.0,OS X,10_15_7,https://5puzkbbxv1.cognition.run/?sona_id=57776,"uk-UA,uk;q=0.9,en-US;q=0.8,en;q=0.7",q6qmx308qro2fvy,21,"[""White""]",No,Female,Ukraine,No,880184.099999994,NA,null,<p></p>,null,choice,ctd,trinary,repulsion_B,1,laptops,null,null,null,null,null,null,2,NA,NA,NA,NA,NA,NA,NA,NA,NA,NA
NA,NA,NA,NA,NA,choice_trial,survey-html-form,67,592965,0.0-4.0-1.31,82,1,2025-04-29T07:24:13Z,b60275e29fe2361ab97ac0ac217840d7,"Mozilla/5.0 (Macintosh; Intel Mac OS X 10_15_7) AppleWebKit/537.36 (KHTML, like Gecko) Chrome/135.0.0.0 Safari/537.36",Macintosh,Chrome,135.0.0.0,OS X,10_15_7,https://5puzkbbxv1.cognition.run/?sona_id=57776,"uk-UA,uk;q=0.9,en-US;q=0.8,en;q=0.7",q6qmx308qro2fvy,21,"[""White""]",No,Female,Ukraine,No,880184.099999994,NA,30056,NA,"{""product_choice"":""B""}",choice,ctd,trinary,repulsion_B,1,laptops,null,null,null,null,null,null,2,90,100,80,40,30,40,Processing speed,Memory (RAM),NA,NA
NA,NA,NA,NA,NA,choice_trial_setup,html-keyboard-response,68,593270,0.0-4.0-0.32,82,1,2025-04-29T07:24:13Z,b60275e29fe2361ab97ac0ac217840d7,"Mozilla/5.0 (Macintosh; Intel Mac OS X 10_15_7) AppleWebKit/537.36 (KHTML, like Gecko) Chrome/135.0.0.0 Safari/537.36",Macintosh,Chrome,135.0.0.0,OS X,10_15_7,https://5puzkbbxv1.cognition.run/?sona_id=57776,"uk-UA,uk;q=0.9,en-US;q=0.8,en;q=0.7",q6qmx308qro2fvy,21,"[""White""]",No,Female,Ukraine,No,880184.099999994,NA,null,<p></p>,null,choice,tc,binary,repulsion,2,washing machines,null,null,null,null,null,null,2,NA,NA,NA,NA,NA,NA,NA,NA,NA,NA
NA,NA,NA,NA,NA,choice_trial,survey-html-form,69,599980,0.0-4.0-1.32,82,1,2025-04-29T07:24:13Z,b60275e29fe2361ab97ac0ac217840d7,"Mozilla/5.0 (Macintosh; Intel Mac OS X 10_15_7) AppleWebKit/537.36 (KHTML, like Gecko) Chrome/135.0.0.0 Safari/537.36",Macintosh,Chrome,135.0.0.0,OS X,10_15_7,https://5puzkbbxv1.cognition.run/?sona_id=57776,"uk-UA,uk;q=0.9,en-US;q=0.8,en;q=0.7",q6qmx308qro2fvy,21,"[""White""]",No,Female,Ukraine,No,880184.099999994,NA,6705,NA,"{""product_choice"":""B""}",choice,tc,binary,repulsion,2,washing machines,null,null,null,null,null,null,2,30,40,null,100,90,null,Average lifespan,Energy savings,NA,NA
NA,NA,NA,NA,NA,choice_trial_setup,html-keyboard-response,70,600284,0.0-4.0-0.33,82,1,2025-04-29T07:24:13Z,b60275e29fe2361ab97ac0ac217840d7,"Mozilla/5.0 (Macintosh; Intel Mac OS X 10_15_7) AppleWebKit/537.36 (KHTML, like Gecko) Chrome/135.0.0.0 Safari/537.36",Macintosh,Chrome,135.0.0.0,OS X,10_15_7,https://5puzkbbxv1.cognition.run/?sona_id=57776,"uk-UA,uk;q=0.9,en-US;q=0.8,en;q=0.7",q6qmx308qro2fvy,21,"[""White""]",No,Female,Ukraine,No,880184.099999994,NA,null,<p></p>,null,choice,tc,binary,repulsion,1,washing machines,null,null,null,null,null,null,2,NA,NA,NA,NA,NA,NA,NA,NA,NA,NA
NA,NA,NA,NA,NA,choice_trial,survey-html-form,71,606814,0.0-4.0-1.33,82,1,2025-04-29T07:24:13Z,b60275e29fe2361ab97ac0ac217840d7,"Mozilla/5.0 (Macintosh; Intel Mac OS X 10_15_7) AppleWebKit/537.36 (KHTML, like Gecko) Chrome/135.0.0.0 Safari/537.36",Macintosh,Chrome,135.0.0.0,OS X,10_15_7,https://5puzkbbxv1.cognition.run/?sona_id=57776,"uk-UA,uk;q=0.9,en-US;q=0.8,en;q=0.7",q6qmx308qro2fvy,21,"[""White""]",No,Female,Ukraine,No,880184.099999994,NA,6523,NA,"{""product_choice"":""B""}",choice,tc,binary,repulsion,1,washing machines,null,null,null,null,null,null,2,100,90,null,30,40,null,Average lifespan,Energy savings,NA,NA
NA,NA,NA,NA,NA,choice_trial_setup,html-keyboard-response,72,607119,0.0-4.0-0.34,82,1,2025-04-29T07:24:13Z,b60275e29fe2361ab97ac0ac217840d7,"Mozilla/5.0 (Macintosh; Intel Mac OS X 10_15_7) AppleWebKit/537.36 (KHTML, like Gecko) Chrome/135.0.0.0 Safari/537.36",Macintosh,Chrome,135.0.0.0,OS X,10_15_7,https://5puzkbbxv1.cognition.run/?sona_id=57776,"uk-UA,uk;q=0.9,en-US;q=0.8,en;q=0.7",q6qmx308qro2fvy,21,"[""White""]",No,Female,Ukraine,No,880184.099999994,NA,null,<p></p>,null,choice,dtc,trinary,repulsion_B,1,washing machines,null,null,null,null,null,null,2,NA,NA,NA,NA,NA,NA,NA,NA,NA,NA
NA,NA,NA,NA,NA,choice_trial,survey-html-form,73,617531,0.0-4.0-1.34,82,1,2025-04-29T07:24:13Z,b60275e29fe2361ab97ac0ac217840d7,"Mozilla/5.0 (Macintosh; Intel Mac OS X 10_15_7) AppleWebKit/537.36 (KHTML, like Gecko) Chrome/135.0.0.0 Safari/537.36",Macintosh,Chrome,135.0.0.0,OS X,10_15_7,https://5puzkbbxv1.cognition.run/?sona_id=57776,"uk-UA,uk;q=0.9,en-US;q=0.8,en;q=0.7",q6qmx308qro2fvy,21,"[""White""]",No,Female,Ukraine,No,880184.099999994,NA,10406,NA,"{""product_choice"":""B""}",choice,dtc,trinary,repulsion_B,1,washing machines,null,null,null,null,null,null,2,90,100,80,40,30,40,Average lifespan,Energy savings,NA,NA
NA,NA,NA,NA,NA,choice_trial_setup,html-keyboard-response,74,617836,0.0-4.0-0.35,82,1,2025-04-29T07:24:13Z,b60275e29fe2361ab97ac0ac217840d7,"Mozilla/5.0 (Macintosh; Intel Mac OS X 10_15_7) AppleWebKit/537.36 (KHTML, like Gecko) Chrome/135.0.0.0 Safari/537.36",Macintosh,Chrome,135.0.0.0,OS X,10_15_7,https://5puzkbbxv1.cognition.run/?sona_id=57776,"uk-UA,uk;q=0.9,en-US;q=0.8,en;q=0.7",q6qmx308qro2fvy,21,"[""White""]",No,Female,Ukraine,No,880184.099999994,NA,null,<p></p>,null,choice,dtc,trinary,attraction,2,washing machines,null,null,null,null,null,null,2,NA,NA,NA,NA,NA,NA,NA,NA,NA,NA
NA,NA,NA,NA,NA,choice_trial,survey-html-form,75,668397,0.0-4.0-1.35,82,1,2025-04-29T07:24:13Z,b60275e29fe2361ab97ac0ac217840d7,"Mozilla/5.0 (Macintosh; Intel Mac OS X 10_15_7) AppleWebKit/537.36 (KHTML, like Gecko) Chrome/135.0.0.0 Safari/537.36",Macintosh,Chrome,135.0.0.0,OS X,10_15_7,https://5puzkbbxv1.cognition.run/?sona_id=57776,"uk-UA,uk;q=0.9,en-US;q=0.8,en;q=0.7",q6qmx308qro2fvy,21,"[""White""]",No,Female,Ukraine,No,880184.099999994,NA,50556,NA,"{""product_choice"":""B""}",choice,dtc,trinary,attraction,2,washing machines,null,null,null,null,null,null,2,50,60,40,60,50,60,Average lifespan,Energy savings,NA,NA
NA,NA,NA,NA,NA,choice_trial_setup,html-keyboard-response,76,668701,0.0-4.0-0.36,82,1,2025-04-29T07:24:13Z,b60275e29fe2361ab97ac0ac217840d7,"Mozilla/5.0 (Macintosh; Intel Mac OS X 10_15_7) AppleWebKit/537.36 (KHTML, like Gecko) Chrome/135.0.0.0 Safari/537.36",Macintosh,Chrome,135.0.0.0,OS X,10_15_7,https://5puzkbbxv1.cognition.run/?sona_id=57776,"uk-UA,uk;q=0.9,en-US;q=0.8,en;q=0.7",q6qmx308qro2fvy,21,"[""White""]",No,Female,Ukraine,No,880184.099999994,NA,null,<p></p>,null,choice,ct,binary,repulsion,1,microwave ovens,null,null,null,null,null,null,2,NA,NA,NA,NA,NA,NA,NA,NA,NA,NA
NA,NA,NA,NA,NA,choice_trial,survey-html-form,77,676215,0.0-4.0-1.36,82,1,2025-04-29T07:24:13Z,b60275e29fe2361ab97ac0ac217840d7,"Mozilla/5.0 (Macintosh; Intel Mac OS X 10_15_7) AppleWebKit/537.36 (KHTML, like Gecko) Chrome/135.0.0.0 Safari/537.36",Macintosh,Chrome,135.0.0.0,OS X,10_15_7,https://5puzkbbxv1.cognition.run/?sona_id=57776,"uk-UA,uk;q=0.9,en-US;q=0.8,en;q=0.7",q6qmx308qro2fvy,21,"[""White""]",No,Female,Ukraine,No,880184.099999994,NA,7508,NA,"{""product_choice"":""A""}",choice,ct,binary,repulsion,1,microwave ovens,null,null,null,null,null,null,2,100,90,null,30,40,null,Warranty,Cooking power,NA,NA
NA,NA,NA,NA,NA,choice_trial_setup,html-keyboard-response,78,676520,0.0-4.0-0.37,82,1,2025-04-29T07:24:13Z,b60275e29fe2361ab97ac0ac217840d7,"Mozilla/5.0 (Macintosh; Intel Mac OS X 10_15_7) AppleWebKit/537.36 (KHTML, like Gecko) Chrome/135.0.0.0 Safari/537.36",Macintosh,Chrome,135.0.0.0,OS X,10_15_7,https://5puzkbbxv1.cognition.run/?sona_id=57776,"uk-UA,uk;q=0.9,en-US;q=0.8,en;q=0.7",q6qmx308qro2fvy,21,"[""White""]",No,Female,Ukraine,No,880184.099999994,NA,null,<p></p>,null,choice,cdt,trinary,repulsion_B,2,laptops,null,null,null,null,null,null,1,NA,NA,NA,NA,NA,NA,NA,NA,NA,NA
NA,NA,NA,NA,NA,choice_trial,survey-html-form,79,682882,0.0-4.0-1.37,82,1,2025-04-29T07:24:13Z,b60275e29fe2361ab97ac0ac217840d7,"Mozilla/5.0 (Macintosh; Intel Mac OS X 10_15_7) AppleWebKit/537.36 (KHTML, like Gecko) Chrome/135.0.0.0 Safari/537.36",Macintosh,Chrome,135.0.0.0,OS X,10_15_7,https://5puzkbbxv1.cognition.run/?sona_id=57776,"uk-UA,uk;q=0.9,en-US;q=0.8,en;q=0.7",q6qmx308qro2fvy,21,"[""White""]",No,Female,Ukraine,No,880184.099999994,NA,6356,NA,"{""product_choice"":""C""}",choice,cdt,trinary,repulsion_B,2,laptops,null,null,null,null,null,null,1,40,30,40,90,100,80,Processing speed,Memory (RAM),NA,NA
NA,NA,NA,NA,NA,choice_trial_setup,html-keyboard-response,80,683187,0.0-4.0-0.38,82,1,2025-04-29T07:24:13Z,b60275e29fe2361ab97ac0ac217840d7,"Mozilla/5.0 (Macintosh; Intel Mac OS X 10_15_7) AppleWebKit/537.36 (KHTML, like Gecko) Chrome/135.0.0.0 Safari/537.36",Macintosh,Chrome,135.0.0.0,OS X,10_15_7,https://5puzkbbxv1.cognition.run/?sona_id=57776,"uk-UA,uk;q=0.9,en-US;q=0.8,en;q=0.7",q6qmx308qro2fvy,21,"[""White""]",No,Female,Ukraine,No,880184.099999994,NA,null,<p></p>,null,choice,wwb,trinary,catch,null,microwave ovens,95,60,10,20,15,35,1,NA,NA,NA,NA,NA,NA,NA,NA,NA,NA
NA,NA,NA,NA,NA,choice_trial,survey-html-form,81,691464,0.0-4.0-1.38,82,1,2025-04-29T07:24:13Z,b60275e29fe2361ab97ac0ac217840d7,"Mozilla/5.0 (Macintosh; Intel Mac OS X 10_15_7) AppleWebKit/537.36 (KHTML, like Gecko) Chrome/135.0.0.0 Safari/537.36",Macintosh,Chrome,135.0.0.0,OS X,10_15_7,https://5puzkbbxv1.cognition.run/?sona_id=57776,"uk-UA,uk;q=0.9,en-US;q=0.8,en;q=0.7",q6qmx308qro2fvy,21,"[""White""]",No,Female,Ukraine,No,880184.099999994,NA,8271,NA,"{""product_choice"":""C""}",choice,wwb,trinary,catch,null,microwave ovens,95,60,10,20,15,35,1,null,null,null,null,null,null,Warranty,Cooking power,NA,NA
NA,NA,NA,NA,NA,choice_trial_setup,html-keyboard-response,82,691769,0.0-4.0-0.39,82,1,2025-04-29T07:24:13Z,b60275e29fe2361ab97ac0ac217840d7,"Mozilla/5.0 (Macintosh; Intel Mac OS X 10_15_7) AppleWebKit/537.36 (KHTML, like Gecko) Chrome/135.0.0.0 Safari/537.36",Macintosh,Chrome,135.0.0.0,OS X,10_15_7,https://5puzkbbxv1.cognition.run/?sona_id=57776,"uk-UA,uk;q=0.9,en-US;q=0.8,en;q=0.7",q6qmx308qro2fvy,21,"[""White""]",No,Female,Ukraine,No,880184.099999994,NA,null,<p></p>,null,choice,tc,binary,attraction,NA,laptops,null,null,null,null,null,null,2,NA,NA,NA,NA,NA,NA,NA,NA,NA,NA
NA,NA,NA,NA,NA,choice_trial,survey-html-form,83,696298,0.0-4.0-1.39,82,1,2025-04-29T07:24:13Z,b60275e29fe2361ab97ac0ac217840d7,"Mozilla/5.0 (Macintosh; Intel Mac OS X 10_15_7) AppleWebKit/537.36 (KHTML, like Gecko) Chrome/135.0.0.0 Safari/537.36",Macintosh,Chrome,135.0.0.0,OS X,10_15_7,https://5puzkbbxv1.cognition.run/?sona_id=57776,"uk-UA,uk;q=0.9,en-US;q=0.8,en;q=0.7",q6qmx308qro2fvy,21,"[""White""]",No,Female,Ukraine,No,880184.099999994,NA,4522,NA,"{""product_choice"":""A""}",choice,tc,binary,attraction,NA,laptops,null,null,null,null,null,null,2,60,50,null,50,60,null,Processing speed,Memory (RAM),NA,NA
NA,NA,NA,NA,NA,choice_trial_setup,html-keyboard-response,84,696604,0.0-4.0-0.40,82,1,2025-04-29T07:24:13Z,b60275e29fe2361ab97ac0ac217840d7,"Mozilla/5.0 (Macintosh; Intel Mac OS X 10_15_7) AppleWebKit/537.36 (KHTML, like Gecko) Chrome/135.0.0.0 Safari/537.36",Macintosh,Chrome,135.0.0.0,OS X,10_15_7,https://5puzkbbxv1.cognition.run/?sona_id=57776,"uk-UA,uk;q=0.9,en-US;q=0.8,en;q=0.7",q6qmx308qro2fvy,21,"[""White""]",No,Female,Ukraine,No,880184.099999994,NA,null,<p></p>,null,choice,dct,trinary,repulsion_B,1,microwave ovens,null,null,null,null,null,null,2,NA,NA,NA,NA,NA,NA,NA,NA,NA,NA
NA,NA,NA,NA,NA,choice_trial,survey-html-form,85,701315,0.0-4.0-1.40,82,1,2025-04-29T07:24:13Z,b60275e29fe2361ab97ac0ac217840d7,"Mozilla/5.0 (Macintosh; Intel Mac OS X 10_15_7) AppleWebKit/537.36 (KHTML, like Gecko) Chrome/135.0.0.0 Safari/537.36",Macintosh,Chrome,135.0.0.0,OS X,10_15_7,https://5puzkbbxv1.cognition.run/?sona_id=57776,"uk-UA,uk;q=0.9,en-US;q=0.8,en;q=0.7",q6qmx308qro2fvy,21,"[""White""]",No,Female,Ukraine,No,880184.099999994,NA,4704,NA,"{""product_choice"":""C""}",choice,dct,trinary,repulsion_B,1,microwave ovens,null,null,null,null,null,null,2,90,100,80,40,30,40,Warranty,Cooking power,NA,NA
NA,NA,NA,NA,NA,choice_trial_setup,html-keyboard-response,86,701620,0.0-4.0-0.41,82,1,2025-04-29T07:24:13Z,b60275e29fe2361ab97ac0ac217840d7,"Mozilla/5.0 (Macintosh; Intel Mac OS X 10_15_7) AppleWebKit/537.36 (KHTML, like Gecko) Chrome/135.0.0.0 Safari/537.36",Macintosh,Chrome,135.0.0.0,OS X,10_15_7,https://5puzkbbxv1.cognition.run/?sona_id=57776,"uk-UA,uk;q=0.9,en-US;q=0.8,en;q=0.7",q6qmx308qro2fvy,21,"[""White""]",No,Female,Ukraine,No,880184.099999994,NA,null,<p></p>,null,choice,tcd,trinary,repulsion_A,2,washing machines,null,null,null,null,null,null,2,NA,NA,NA,NA,NA,NA,NA,NA,NA,NA
NA,NA,NA,NA,NA,choice_trial,survey-html-form,87,709682,0.0-4.0-1.41,82,1,2025-04-29T07:24:13Z,b60275e29fe2361ab97ac0ac217840d7,"Mozilla/5.0 (Macintosh; Intel Mac OS X 10_15_7) AppleWebKit/537.36 (KHTML, like Gecko) Chrome/135.0.0.0 Safari/537.36",Macintosh,Chrome,135.0.0.0,OS X,10_15_7,https://5puzkbbxv1.cognition.run/?sona_id=57776,"uk-UA,uk;q=0.9,en-US;q=0.8,en;q=0.7",q6qmx308qro2fvy,21,"[""White""]",No,Female,Ukraine,No,880184.099999994,NA,8055,NA,"{""product_choice"":""A""}",choice,tcd,trinary,repulsion_A,2,washing machines,null,null,null,null,null,null,2,30,40,20,100,90,100,Average lifespan,Energy savings,NA,NA
NA,NA,NA,NA,NA,choice_trial_setup,html-keyboard-response,88,709988,0.0-4.0-0.42,82,1,2025-04-29T07:24:13Z,b60275e29fe2361ab97ac0ac217840d7,"Mozilla/5.0 (Macintosh; Intel Mac OS X 10_15_7) AppleWebKit/537.36 (KHTML, like Gecko) Chrome/135.0.0.0 Safari/537.36",Macintosh,Chrome,135.0.0.0,OS X,10_15_7,https://5puzkbbxv1.cognition.run/?sona_id=57776,"uk-UA,uk;q=0.9,en-US;q=0.8,en;q=0.7",q6qmx308qro2fvy,21,"[""White""]",No,Female,Ukraine,No,880184.099999994,NA,null,<p></p>,null,choice,ct,binary,attraction,NA,washing machines,null,null,null,null,null,null,1,NA,NA,NA,NA,NA,NA,NA,NA,NA,NA
NA,NA,NA,NA,NA,choice_trial,survey-html-form,89,715198,0.0-4.0-1.42,82,1,2025-04-29T07:24:13Z,b60275e29fe2361ab97ac0ac217840d7,"Mozilla/5.0 (Macintosh; Intel Mac OS X 10_15_7) AppleWebKit/537.36 (KHTML, like Gecko) Chrome/135.0.0.0 Safari/537.36",Macintosh,Chrome,135.0.0.0,OS X,10_15_7,https://5puzkbbxv1.cognition.run/?sona_id=57776,"uk-UA,uk;q=0.9,en-US;q=0.8,en;q=0.7",q6qmx308qro2fvy,21,"[""White""]",No,Female,Ukraine,No,880184.099999994,NA,5203,NA,"{""product_choice"":""A""}",choice,ct,binary,attraction,NA,washing machines,null,null,null,null,null,null,1,60,50,null,50,60,null,Average lifespan,Energy savings,NA,NA
NA,NA,NA,NA,NA,choice_trial_setup,html-keyboard-response,90,715503,0.0-4.0-0.43,82,1,2025-04-29T07:24:13Z,b60275e29fe2361ab97ac0ac217840d7,"Mozilla/5.0 (Macintosh; Intel Mac OS X 10_15_7) AppleWebKit/537.36 (KHTML, like Gecko) Chrome/135.0.0.0 Safari/537.36",Macintosh,Chrome,135.0.0.0,OS X,10_15_7,https://5puzkbbxv1.cognition.run/?sona_id=57776,"uk-UA,uk;q=0.9,en-US;q=0.8,en;q=0.7",q6qmx308qro2fvy,21,"[""White""]",No,Female,Ukraine,No,880184.099999994,NA,null,<p></p>,null,choice,cdt,trinary,attraction,2,microwave ovens,null,null,null,null,null,null,2,NA,NA,NA,NA,NA,NA,NA,NA,NA,NA
NA,NA,NA,NA,NA,choice_trial,survey-html-form,91,776132,0.0-4.0-1.43,82,1,2025-04-29T07:24:13Z,b60275e29fe2361ab97ac0ac217840d7,"Mozilla/5.0 (Macintosh; Intel Mac OS X 10_15_7) AppleWebKit/537.36 (KHTML, like Gecko) Chrome/135.0.0.0 Safari/537.36",Macintosh,Chrome,135.0.0.0,OS X,10_15_7,https://5puzkbbxv1.cognition.run/?sona_id=57776,"uk-UA,uk;q=0.9,en-US;q=0.8,en;q=0.7",q6qmx308qro2fvy,21,"[""White""]",No,Female,Ukraine,No,880184.099999994,NA,60623,NA,"{""product_choice"":""C""}",choice,cdt,trinary,attraction,2,microwave ovens,null,null,null,null,null,null,2,50,60,40,60,50,60,Warranty,Cooking power,NA,NA
NA,NA,NA,NA,NA,post_trials_message,html-button-response,92,779349,0.0-5.0,82,1,2025-04-29T07:24:13Z,b60275e29fe2361ab97ac0ac217840d7,"Mozilla/5.0 (Macintosh; Intel Mac OS X 10_15_7) AppleWebKit/537.36 (KHTML, like Gecko) Chrome/135.0.0.0 Safari/537.36",Macintosh,Chrome,135.0.0.0,OS X,10_15_7,https://5puzkbbxv1.cognition.run/?sona_id=57776,"uk-UA,uk;q=0.9,en-US;q=0.8,en;q=0.7",q6qmx308qro2fvy,21,"[""White""]",No,Female,Ukraine,No,880184.099999994,NA,3212,<p> <b>Thank you for your patience!</b></p><p>  The study will be done after completing a brief form. </p>,0,NA,NA,NA,NA,NA,NA,NA,NA,NA,NA,NA,NA,NA,NA,NA,NA,NA,NA,NA,NA,NA,NA,NA
NA,NA,NA,NA,NA,survey_message,survey-text,93,815448,0.0-6.0,82,1,2025-04-29T07:24:13Z,b60275e29fe2361ab97ac0ac217840d7,"Mozilla/5.0 (Macintosh; Intel Mac OS X 10_15_7) AppleWebKit/537.36 (KHTML, like Gecko) Chrome/135.0.0.0 Safari/537.36",Macintosh,Chrome,135.0.0.0,OS X,10_15_7,https://5puzkbbxv1.cognition.run/?sona_id=57776,"uk-UA,uk;q=0.9,en-US;q=0.8,en;q=0.7",q6qmx308qro2fvy,21,"[""White""]",No,Female,Ukraine,No,880184.099999994,NA,36092,NA,"{""Q0"":""I ""}",NA,NA,NA,NA,NA,NA,NA,NA,NA,NA,NA,NA,NA,NA,NA,NA,NA,NA,NA,NA,NA,I,NA
NA,NA,NA,NA,NA,demo_age,survey-text,94,818998,0.0-7.0,82,1,2025-04-29T07:24:13Z,b60275e29fe2361ab97ac0ac217840d7,"Mozilla/5.0 (Macintosh; Intel Mac OS X 10_15_7) AppleWebKit/537.36 (KHTML, like Gecko) Chrome/135.0.0.0 Safari/537.36",Macintosh,Chrome,135.0.0.0,OS X,10_15_7,https://5puzkbbxv1.cognition.run/?sona_id=57776,"uk-UA,uk;q=0.9,en-US;q=0.8,en;q=0.7",q6qmx308qro2fvy,21,"[""White""]",No,Female,Ukraine,No,880184.099999994,NA,3545,NA,"{""Q0"":""21""}",NA,NA,NA,NA,NA,NA,NA,NA,NA,NA,NA,NA,NA,NA,NA,NA,NA,NA,NA,NA,NA,NA,NA
NA,NA,NA,NA,NA,demo_race,survey-multi-select,95,821199,0.0-8.0,82,1,2025-04-29T07:24:13Z,b60275e29fe2361ab97ac0ac217840d7,"Mozilla/5.0 (Macintosh; Intel Mac OS X 10_15_7) AppleWebKit/537.36 (KHTML, like Gecko) Chrome/135.0.0.0 Safari/537.36",Macintosh,Chrome,135.0.0.0,OS X,10_15_7,https://5puzkbbxv1.cognition.run/?sona_id=57776,"uk-UA,uk;q=0.9,en-US;q=0.8,en;q=0.7",q6qmx308qro2fvy,21,"[""White""]",No,Female,Ukraine,No,880184.099999994,NA,2199,NA,"{""Q0"":[""White""]}",NA,NA,NA,NA,NA,NA,NA,NA,NA,NA,NA,NA,NA,NA,NA,NA,NA,NA,NA,NA,NA,NA,[0]
NA,NA,NA,NA,NA,demo_ethnicity_gender,survey-multi-choice,96,826199,0.0-9.0,82,1,2025-04-29T07:24:13Z,b60275e29fe2361ab97ac0ac217840d7,"Mozilla/5.0 (Macintosh; Intel Mac OS X 10_15_7) AppleWebKit/537.36 (KHTML, like Gecko) Chrome/135.0.0.0 Safari/537.36",Macintosh,Chrome,135.0.0.0,OS X,10_15_7,https://5puzkbbxv1.cognition.run/?sona_id=57776,"uk-UA,uk;q=0.9,en-US;q=0.8,en;q=0.7",q6qmx308qro2fvy,21,"[""White""]",No,Female,Ukraine,No,880184.099999994,NA,4995,NA,"{""Q0"":""No"",""Q1"":""Female""}",NA,NA,NA,NA,NA,NA,NA,NA,NA,NA,NA,NA,NA,NA,NA,NA,NA,NA,NA,NA,NA,NA,"[0,1]"
NA,NA,NA,NA,NA,demo_countries,survey-text,97,837365,0.0-10.0,82,1,2025-04-29T07:24:13Z,b60275e29fe2361ab97ac0ac217840d7,"Mozilla/5.0 (Macintosh; Intel Mac OS X 10_15_7) AppleWebKit/537.36 (KHTML, like Gecko) Chrome/135.0.0.0 Safari/537.36",Macintosh,Chrome,135.0.0.0,OS X,10_15_7,https://5puzkbbxv1.cognition.run/?sona_id=57776,"uk-UA,uk;q=0.9,en-US;q=0.8,en;q=0.7",q6qmx308qro2fvy,21,"[""White""]",No,Female,Ukraine,No,880184.099999994,NA,11153,NA,"{""Q0"":""Ukraine""}",NA,NA,NA,NA,NA,NA,NA,NA,NA,NA,NA,NA,NA,NA,NA,NA,NA,NA,NA,NA,NA,NA,NA
NA,NA,NA,NA,NA,demo_prev_study,survey-multi-choice,98,845983,0.0-11.0,82,1,2025-04-29T07:24:13Z,b60275e29fe2361ab97ac0ac217840d7,"Mozilla/5.0 (Macintosh; Intel Mac OS X 10_15_7) AppleWebKit/537.36 (KHTML, like Gecko) Chrome/135.0.0.0 Safari/537.36",Macintosh,Chrome,135.0.0.0,OS X,10_15_7,https://5puzkbbxv1.cognition.run/?sona_id=57776,"uk-UA,uk;q=0.9,en-US;q=0.8,en;q=0.7",q6qmx308qro2fvy,21,"[""White""]",No,Female,Ukraine,No,880184.099999994,NA,8616,NA,"{""Q0"":""No""}",NA,NA,NA,NA,NA,NA,NA,NA,NA,NA,NA,NA,NA,NA,NA,NA,NA,NA,NA,NA,NA,NA,[0]
NA,NA,NA,NA,NA,post_survey_message,html-keyboard-response,99,857625,0.0-12.0,82,1,2025-04-29T07:24:13Z,b60275e29fe2361ab97ac0ac217840d7,"Mozilla/5.0 (Macintosh; Intel Mac OS X 10_15_7) AppleWebKit/537.36 (KHTML, like Gecko) Chrome/135.0.0.0 Safari/537.36",Macintosh,Chrome,135.0.0.0,OS X,10_15_7,https://5puzkbbxv1.cognition.run/?sona_id=57776,"uk-UA,uk;q=0.9,en-US;q=0.8,en;q=0.7",q6qmx308qro2fvy,21,"[""White""]",No,Female,Ukraine,No,880184.099999994,NA,11636,NA,j,NA,NA,NA,NA,NA,NA,NA,NA,NA,NA,NA,NA,NA,NA,NA,NA,NA,NA,NA,NA,NA,NA,NA
NA,NA,NA,NA,NA,debrief,image-keyboard-response,100,880164,0.0-13.0,82,1,2025-04-29T07:24:13Z,b60275e29fe2361ab97ac0ac217840d7,"Mozilla/5.0 (Macintosh; Intel Mac OS X 10_15_7) AppleWebKit/537.36 (KHTML, like Gecko) Chrome/135.0.0.0 Safari/537.36",Macintosh,Chrome,135.0.0.0,OS X,10_15_7,https://5puzkbbxv1.cognition.run/?sona_id=57776,"uk-UA,uk;q=0.9,en-US;q=0.8,en;q=0.7",q6qmx308qro2fvy,21,"[""White""]",No,Female,Ukraine,No,880184.099999994,NA,22531,Judg_choice_debrief.png,p,NA,NA,NA,NA,NA,NA,NA,NA,NA,NA,NA,NA,NA,NA,NA,NA,NA,NA,NA,NA,NA,NA,NA
