success,timeout,failed_images,failed_audio,failed_video,screen_id,trial_type,trial_index,time_elapsed,internal_node_id,run_id,condition,recorded_at,source_code_version,user_agent,device,browser,browser_version,platform,platform_version,referer,accept_language,ppt_id,age,race,ethnicity,gender,other_countries,prev_study,exp_duration,view_history,rt,stimulus,response,phase,order,set,effect,t_high,category,d1_best,d2_best,d1_worst1,d2_worst1,d1_worst2,d2_worst2,first_dim,d1_t,d1_c,d1_d,d2_t,d2_c,d2_d,d1_name,d2_name,strategy_response,question_order
TRUE,FALSE,[],[],[],img preload,preload,0,278,0.0-0.0,84,1,2025-04-29T11:14:24Z,b60275e29fe2361ab97ac0ac217840d7,"Mozilla/5.0 (Macintosh; Intel Mac OS X 10_15_7) AppleWebKit/537.36 (KHTML, like Gecko) Chrome/135.0.0.0 Safari/537.36",Macintosh,Chrome,135.0.0.0,OS X,10_15_7,https://5puzkbbxv1.cognition.run/?sona_id=56679,"en-US,en;q=0.9",5m3vhnwqofm2ey6,19,"[""White""]",No,Female,NA,I'm not sure,427019.7999999523,NA,NA,NA,NA,NA,NA,NA,NA,NA,NA,NA,NA,NA,NA,NA,NA,NA,NA,NA,NA,NA,NA,NA,NA,NA,NA,NA
NA,NA,NA,NA,NA,computer_message,instructions,1,1618,0.0-1.0,84,1,2025-04-29T11:14:24Z,b60275e29fe2361ab97ac0ac217840d7,"Mozilla/5.0 (Macintosh; Intel Mac OS X 10_15_7) AppleWebKit/537.36 (KHTML, like Gecko) Chrome/135.0.0.0 Safari/537.36",Macintosh,Chrome,135.0.0.0,OS X,10_15_7,https://5puzkbbxv1.cognition.run/?sona_id=56679,"en-US,en;q=0.9",5m3vhnwqofm2ey6,19,"[""White""]",No,Female,NA,I'm not sure,427019.7999999523,"[{""page_index"":0,""viewing_time"":1338}]",1338,NA,NA,NA,NA,NA,NA,NA,NA,NA,NA,NA,NA,NA,NA,NA,NA,NA,NA,NA,NA,NA,NA,NA,NA,NA
TRUE,NA,NA,NA,NA,NA,fullscreen,2,3561,0.0-2.0,84,1,2025-04-29T11:14:24Z,b60275e29fe2361ab97ac0ac217840d7,"Mozilla/5.0 (Macintosh; Intel Mac OS X 10_15_7) AppleWebKit/537.36 (KHTML, like Gecko) Chrome/135.0.0.0 Safari/537.36",Macintosh,Chrome,135.0.0.0,OS X,10_15_7,https://5puzkbbxv1.cognition.run/?sona_id=56679,"en-US,en;q=0.9",5m3vhnwqofm2ey6,19,"[""White""]",No,Female,NA,I'm not sure,427019.7999999523,NA,939,NA,NA,NA,NA,NA,NA,NA,NA,NA,NA,NA,NA,NA,NA,NA,NA,NA,NA,NA,NA,NA,NA,NA,NA,NA
NA,NA,NA,NA,NA,choice_instructions,instructions,3,37126,0.0-3.0,84,1,2025-04-29T11:14:24Z,b60275e29fe2361ab97ac0ac217840d7,"Mozilla/5.0 (Macintosh; Intel Mac OS X 10_15_7) AppleWebKit/537.36 (KHTML, like Gecko) Chrome/135.0.0.0 Safari/537.36",Macintosh,Chrome,135.0.0.0,OS X,10_15_7,https://5puzkbbxv1.cognition.run/?sona_id=56679,"en-US,en;q=0.9",5m3vhnwqofm2ey6,19,"[""White""]",No,Female,NA,I'm not sure,427019.7999999523,"[{""page_index"":0,""viewing_time"":1499},{""page_index"":1,""viewing_time"":7143},{""page_index"":2,""viewing_time"":5611},{""page_index"":3,""viewing_time"":3019},{""page_index"":4,""viewing_time"":2178},{""page_index"":5,""viewing_time"":9047},{""page_index"":6,""viewing_time"":5067}]",33564,NA,NA,NA,NA,NA,NA,NA,NA,NA,NA,NA,NA,NA,NA,NA,NA,NA,NA,NA,NA,NA,NA,NA,NA,NA
NA,NA,NA,NA,NA,choice_trial_setup,html-keyboard-response,4,37431,0.0-4.0-0.0,84,1,2025-04-29T11:14:24Z,b60275e29fe2361ab97ac0ac217840d7,"Mozilla/5.0 (Macintosh; Intel Mac OS X 10_15_7) AppleWebKit/537.36 (KHTML, like Gecko) Chrome/135.0.0.0 Safari/537.36",Macintosh,Chrome,135.0.0.0,OS X,10_15_7,https://5puzkbbxv1.cognition.run/?sona_id=56679,"en-US,en;q=0.9",5m3vhnwqofm2ey6,19,"[""White""]",No,Female,NA,I'm not sure,427019.7999999523,NA,null,<p></p>,null,choice,tc,binary,repulsion,1,televisions,null,null,null,null,null,null,2,NA,NA,NA,NA,NA,NA,NA,NA,NA,NA
NA,NA,NA,NA,NA,choice_trial,survey-html-form,5,55875,0.0-4.0-1.0,84,1,2025-04-29T11:14:24Z,b60275e29fe2361ab97ac0ac217840d7,"Mozilla/5.0 (Macintosh; Intel Mac OS X 10_15_7) AppleWebKit/537.36 (KHTML, like Gecko) Chrome/135.0.0.0 Safari/537.36",Macintosh,Chrome,135.0.0.0,OS X,10_15_7,https://5puzkbbxv1.cognition.run/?sona_id=56679,"en-US,en;q=0.9",5m3vhnwqofm2ey6,19,"[""White""]",No,Female,NA,I'm not sure,427019.7999999523,NA,18438,NA,"{""product_choice"":""B""}",choice,tc,binary,repulsion,1,televisions,null,null,null,null,null,null,2,100,90,null,30,40,null,Screen size,Average lifespan,NA,NA
NA,NA,NA,NA,NA,choice_trial_setup,html-keyboard-response,6,56179,0.0-4.0-0.1,84,1,2025-04-29T11:14:24Z,b60275e29fe2361ab97ac0ac217840d7,"Mozilla/5.0 (Macintosh; Intel Mac OS X 10_15_7) AppleWebKit/537.36 (KHTML, like Gecko) Chrome/135.0.0.0 Safari/537.36",Macintosh,Chrome,135.0.0.0,OS X,10_15_7,https://5puzkbbxv1.cognition.run/?sona_id=56679,"en-US,en;q=0.9",5m3vhnwqofm2ey6,19,"[""White""]",No,Female,NA,I'm not sure,427019.7999999523,NA,null,<p></p>,null,choice,dct,trinary,repulsion_B,1,laptops,null,null,null,null,null,null,1,NA,NA,NA,NA,NA,NA,NA,NA,NA,NA
NA,NA,NA,NA,NA,choice_trial,survey-html-form,7,67780,0.0-4.0-1.1,84,1,2025-04-29T11:14:24Z,b60275e29fe2361ab97ac0ac217840d7,"Mozilla/5.0 (Macintosh; Intel Mac OS X 10_15_7) AppleWebKit/537.36 (KHTML, like Gecko) Chrome/135.0.0.0 Safari/537.36",Macintosh,Chrome,135.0.0.0,OS X,10_15_7,https://5puzkbbxv1.cognition.run/?sona_id=56679,"en-US,en;q=0.9",5m3vhnwqofm2ey6,19,"[""White""]",No,Female,NA,I'm not sure,427019.7999999523,NA,11598,NA,"{""product_choice"":""C""}",choice,dct,trinary,repulsion_B,1,laptops,null,null,null,null,null,null,1,90,100,80,40,30,40,Processing speed,Memory (RAM),NA,NA
NA,NA,NA,NA,NA,choice_trial_setup,html-keyboard-response,8,68083,0.0-4.0-0.2,84,1,2025-04-29T11:14:24Z,b60275e29fe2361ab97ac0ac217840d7,"Mozilla/5.0 (Macintosh; Intel Mac OS X 10_15_7) AppleWebKit/537.36 (KHTML, like Gecko) Chrome/135.0.0.0 Safari/537.36",Macintosh,Chrome,135.0.0.0,OS X,10_15_7,https://5puzkbbxv1.cognition.run/?sona_id=56679,"en-US,en;q=0.9",5m3vhnwqofm2ey6,19,"[""White""]",No,Female,NA,I'm not sure,427019.7999999523,NA,null,<p></p>,null,choice,ctd,trinary,repulsion_A,1,laptops,null,null,null,null,null,null,1,NA,NA,NA,NA,NA,NA,NA,NA,NA,NA
NA,NA,NA,NA,NA,choice_trial,survey-html-form,9,79461,0.0-4.0-1.2,84,1,2025-04-29T11:14:24Z,b60275e29fe2361ab97ac0ac217840d7,"Mozilla/5.0 (Macintosh; Intel Mac OS X 10_15_7) AppleWebKit/537.36 (KHTML, like Gecko) Chrome/135.0.0.0 Safari/537.36",Macintosh,Chrome,135.0.0.0,OS X,10_15_7,https://5puzkbbxv1.cognition.run/?sona_id=56679,"en-US,en;q=0.9",5m3vhnwqofm2ey6,19,"[""White""]",No,Female,NA,I'm not sure,427019.7999999523,NA,11374,NA,"{""product_choice"":""B""}",choice,ctd,trinary,repulsion_A,1,laptops,null,null,null,null,null,null,1,100,90,100,30,40,20,Processing speed,Memory (RAM),NA,NA
NA,NA,NA,NA,NA,choice_trial_setup,html-keyboard-response,10,79764,0.0-4.0-0.3,84,1,2025-04-29T11:14:24Z,b60275e29fe2361ab97ac0ac217840d7,"Mozilla/5.0 (Macintosh; Intel Mac OS X 10_15_7) AppleWebKit/537.36 (KHTML, like Gecko) Chrome/135.0.0.0 Safari/537.36",Macintosh,Chrome,135.0.0.0,OS X,10_15_7,https://5puzkbbxv1.cognition.run/?sona_id=56679,"en-US,en;q=0.9",5m3vhnwqofm2ey6,19,"[""White""]",No,Female,NA,I'm not sure,427019.7999999523,NA,null,<p></p>,null,choice,tdc,trinary,repulsion_A,2,washing machines,null,null,null,null,null,null,2,NA,NA,NA,NA,NA,NA,NA,NA,NA,NA
NA,NA,NA,NA,NA,choice_trial,survey-html-form,11,83563,0.0-4.0-1.3,84,1,2025-04-29T11:14:24Z,b60275e29fe2361ab97ac0ac217840d7,"Mozilla/5.0 (Macintosh; Intel Mac OS X 10_15_7) AppleWebKit/537.36 (KHTML, like Gecko) Chrome/135.0.0.0 Safari/537.36",Macintosh,Chrome,135.0.0.0,OS X,10_15_7,https://5puzkbbxv1.cognition.run/?sona_id=56679,"en-US,en;q=0.9",5m3vhnwqofm2ey6,19,"[""White""]",No,Female,NA,I'm not sure,427019.7999999523,NA,3795,NA,"{""product_choice"":""A""}",choice,tdc,trinary,repulsion_A,2,washing machines,null,null,null,null,null,null,2,30,40,20,100,90,100,Average lifespan,Energy savings,NA,NA
NA,NA,NA,NA,NA,choice_trial_setup,html-keyboard-response,12,83866,0.0-4.0-0.4,84,1,2025-04-29T11:14:24Z,b60275e29fe2361ab97ac0ac217840d7,"Mozilla/5.0 (Macintosh; Intel Mac OS X 10_15_7) AppleWebKit/537.36 (KHTML, like Gecko) Chrome/135.0.0.0 Safari/537.36",Macintosh,Chrome,135.0.0.0,OS X,10_15_7,https://5puzkbbxv1.cognition.run/?sona_id=56679,"en-US,en;q=0.9",5m3vhnwqofm2ey6,19,"[""White""]",No,Female,NA,I'm not sure,427019.7999999523,NA,null,<p></p>,null,choice,tc,binary,repulsion,2,televisions,null,null,null,null,null,null,1,NA,NA,NA,NA,NA,NA,NA,NA,NA,NA
NA,NA,NA,NA,NA,choice_trial,survey-html-form,13,86736,0.0-4.0-1.4,84,1,2025-04-29T11:14:24Z,b60275e29fe2361ab97ac0ac217840d7,"Mozilla/5.0 (Macintosh; Intel Mac OS X 10_15_7) AppleWebKit/537.36 (KHTML, like Gecko) Chrome/135.0.0.0 Safari/537.36",Macintosh,Chrome,135.0.0.0,OS X,10_15_7,https://5puzkbbxv1.cognition.run/?sona_id=56679,"en-US,en;q=0.9",5m3vhnwqofm2ey6,19,"[""White""]",No,Female,NA,I'm not sure,427019.7999999523,NA,2867,NA,"{""product_choice"":""B""}",choice,tc,binary,repulsion,2,televisions,null,null,null,null,null,null,1,30,40,null,100,90,null,Screen size,Average lifespan,NA,NA
NA,NA,NA,NA,NA,choice_trial_setup,html-keyboard-response,14,87041,0.0-4.0-0.5,84,1,2025-04-29T11:14:24Z,b60275e29fe2361ab97ac0ac217840d7,"Mozilla/5.0 (Macintosh; Intel Mac OS X 10_15_7) AppleWebKit/537.36 (KHTML, like Gecko) Chrome/135.0.0.0 Safari/537.36",Macintosh,Chrome,135.0.0.0,OS X,10_15_7,https://5puzkbbxv1.cognition.run/?sona_id=56679,"en-US,en;q=0.9",5m3vhnwqofm2ey6,19,"[""White""]",No,Female,NA,I'm not sure,427019.7999999523,NA,null,<p></p>,null,choice,wb,binary,catch,null,washing machines,80,90,50,20,null,null,2,NA,NA,NA,NA,NA,NA,NA,NA,NA,NA
NA,NA,NA,NA,NA,choice_trial,survey-html-form,15,90431,0.0-4.0-1.5,84,1,2025-04-29T11:14:24Z,b60275e29fe2361ab97ac0ac217840d7,"Mozilla/5.0 (Macintosh; Intel Mac OS X 10_15_7) AppleWebKit/537.36 (KHTML, like Gecko) Chrome/135.0.0.0 Safari/537.36",Macintosh,Chrome,135.0.0.0,OS X,10_15_7,https://5puzkbbxv1.cognition.run/?sona_id=56679,"en-US,en;q=0.9",5m3vhnwqofm2ey6,19,"[""White""]",No,Female,NA,I'm not sure,427019.7999999523,NA,3385,NA,"{""product_choice"":""B""}",choice,wb,binary,catch,null,washing machines,80,90,50,20,null,null,2,null,null,null,null,null,null,Average lifespan,Energy savings,NA,NA
NA,NA,NA,NA,NA,choice_trial_setup,html-keyboard-response,16,90734,0.0-4.0-0.6,84,1,2025-04-29T11:14:24Z,b60275e29fe2361ab97ac0ac217840d7,"Mozilla/5.0 (Macintosh; Intel Mac OS X 10_15_7) AppleWebKit/537.36 (KHTML, like Gecko) Chrome/135.0.0.0 Safari/537.36",Macintosh,Chrome,135.0.0.0,OS X,10_15_7,https://5puzkbbxv1.cognition.run/?sona_id=56679,"en-US,en;q=0.9",5m3vhnwqofm2ey6,19,"[""White""]",No,Female,NA,I'm not sure,427019.7999999523,NA,null,<p></p>,null,choice,ctd,trinary,repulsion_A,1,televisions,null,null,null,null,null,null,1,NA,NA,NA,NA,NA,NA,NA,NA,NA,NA
NA,NA,NA,NA,NA,choice_trial,survey-html-form,17,95333,0.0-4.0-1.6,84,1,2025-04-29T11:14:24Z,b60275e29fe2361ab97ac0ac217840d7,"Mozilla/5.0 (Macintosh; Intel Mac OS X 10_15_7) AppleWebKit/537.36 (KHTML, like Gecko) Chrome/135.0.0.0 Safari/537.36",Macintosh,Chrome,135.0.0.0,OS X,10_15_7,https://5puzkbbxv1.cognition.run/?sona_id=56679,"en-US,en;q=0.9",5m3vhnwqofm2ey6,19,"[""White""]",No,Female,NA,I'm not sure,427019.7999999523,NA,4595,NA,"{""product_choice"":""A""}",choice,ctd,trinary,repulsion_A,1,televisions,null,null,null,null,null,null,1,100,90,100,30,40,20,Screen size,Average lifespan,NA,NA
NA,NA,NA,NA,NA,choice_trial_setup,html-keyboard-response,18,95637,0.0-4.0-0.7,84,1,2025-04-29T11:14:24Z,b60275e29fe2361ab97ac0ac217840d7,"Mozilla/5.0 (Macintosh; Intel Mac OS X 10_15_7) AppleWebKit/537.36 (KHTML, like Gecko) Chrome/135.0.0.0 Safari/537.36",Macintosh,Chrome,135.0.0.0,OS X,10_15_7,https://5puzkbbxv1.cognition.run/?sona_id=56679,"en-US,en;q=0.9",5m3vhnwqofm2ey6,19,"[""White""]",No,Female,NA,I'm not sure,427019.7999999523,NA,null,<p></p>,null,choice,cdt,trinary,repulsion_A,2,televisions,null,null,null,null,null,null,1,NA,NA,NA,NA,NA,NA,NA,NA,NA,NA
NA,NA,NA,NA,NA,choice_trial,survey-html-form,19,101987,0.0-4.0-1.7,84,1,2025-04-29T11:14:24Z,b60275e29fe2361ab97ac0ac217840d7,"Mozilla/5.0 (Macintosh; Intel Mac OS X 10_15_7) AppleWebKit/537.36 (KHTML, like Gecko) Chrome/135.0.0.0 Safari/537.36",Macintosh,Chrome,135.0.0.0,OS X,10_15_7,https://5puzkbbxv1.cognition.run/?sona_id=56679,"en-US,en;q=0.9",5m3vhnwqofm2ey6,19,"[""White""]",No,Female,NA,I'm not sure,427019.7999999523,NA,6347,NA,"{""product_choice"":""A""}",choice,cdt,trinary,repulsion_A,2,televisions,null,null,null,null,null,null,1,30,40,20,100,90,100,Screen size,Average lifespan,NA,NA
NA,NA,NA,NA,NA,choice_trial_setup,html-keyboard-response,20,102291,0.0-4.0-0.8,84,1,2025-04-29T11:14:24Z,b60275e29fe2361ab97ac0ac217840d7,"Mozilla/5.0 (Macintosh; Intel Mac OS X 10_15_7) AppleWebKit/537.36 (KHTML, like Gecko) Chrome/135.0.0.0 Safari/537.36",Macintosh,Chrome,135.0.0.0,OS X,10_15_7,https://5puzkbbxv1.cognition.run/?sona_id=56679,"en-US,en;q=0.9",5m3vhnwqofm2ey6,19,"[""White""]",No,Female,NA,I'm not sure,427019.7999999523,NA,null,<p></p>,null,choice,dtc,trinary,repulsion_A,1,washing machines,null,null,null,null,null,null,2,NA,NA,NA,NA,NA,NA,NA,NA,NA,NA
NA,NA,NA,NA,NA,choice_trial,survey-html-form,21,110302,0.0-4.0-1.8,84,1,2025-04-29T11:14:24Z,b60275e29fe2361ab97ac0ac217840d7,"Mozilla/5.0 (Macintosh; Intel Mac OS X 10_15_7) AppleWebKit/537.36 (KHTML, like Gecko) Chrome/135.0.0.0 Safari/537.36",Macintosh,Chrome,135.0.0.0,OS X,10_15_7,https://5puzkbbxv1.cognition.run/?sona_id=56679,"en-US,en;q=0.9",5m3vhnwqofm2ey6,19,"[""White""]",No,Female,NA,I'm not sure,427019.7999999523,NA,8007,NA,"{""product_choice"":""B""}",choice,dtc,trinary,repulsion_A,1,washing machines,null,null,null,null,null,null,2,100,90,100,30,40,20,Average lifespan,Energy savings,NA,NA
NA,NA,NA,NA,NA,choice_trial_setup,html-keyboard-response,22,110606,0.0-4.0-0.9,84,1,2025-04-29T11:14:24Z,b60275e29fe2361ab97ac0ac217840d7,"Mozilla/5.0 (Macintosh; Intel Mac OS X 10_15_7) AppleWebKit/537.36 (KHTML, like Gecko) Chrome/135.0.0.0 Safari/537.36",Macintosh,Chrome,135.0.0.0,OS X,10_15_7,https://5puzkbbxv1.cognition.run/?sona_id=56679,"en-US,en;q=0.9",5m3vhnwqofm2ey6,19,"[""White""]",No,Female,NA,I'm not sure,427019.7999999523,NA,null,<p></p>,null,choice,cdt,trinary,attraction,1,microwave ovens,null,null,null,null,null,null,2,NA,NA,NA,NA,NA,NA,NA,NA,NA,NA
NA,NA,NA,NA,NA,choice_trial,survey-html-form,23,119595,0.0-4.0-1.9,84,1,2025-04-29T11:14:24Z,b60275e29fe2361ab97ac0ac217840d7,"Mozilla/5.0 (Macintosh; Intel Mac OS X 10_15_7) AppleWebKit/537.36 (KHTML, like Gecko) Chrome/135.0.0.0 Safari/537.36",Macintosh,Chrome,135.0.0.0,OS X,10_15_7,https://5puzkbbxv1.cognition.run/?sona_id=56679,"en-US,en;q=0.9",5m3vhnwqofm2ey6,19,"[""White""]",No,Female,NA,I'm not sure,427019.7999999523,NA,8984,NA,"{""product_choice"":""A""}",choice,cdt,trinary,attraction,1,microwave ovens,null,null,null,null,null,null,2,60,50,60,50,60,40,Warranty,Cooking power,NA,NA
NA,NA,NA,NA,NA,choice_trial_setup,html-keyboard-response,24,119899,0.0-4.0-0.10,84,1,2025-04-29T11:14:24Z,b60275e29fe2361ab97ac0ac217840d7,"Mozilla/5.0 (Macintosh; Intel Mac OS X 10_15_7) AppleWebKit/537.36 (KHTML, like Gecko) Chrome/135.0.0.0 Safari/537.36",Macintosh,Chrome,135.0.0.0,OS X,10_15_7,https://5puzkbbxv1.cognition.run/?sona_id=56679,"en-US,en;q=0.9",5m3vhnwqofm2ey6,19,"[""White""]",No,Female,NA,I'm not sure,427019.7999999523,NA,null,<p></p>,null,choice,dtc,trinary,attraction,1,televisions,null,null,null,null,null,null,1,NA,NA,NA,NA,NA,NA,NA,NA,NA,NA
NA,NA,NA,NA,NA,choice_trial,survey-html-form,25,124840,0.0-4.0-1.10,84,1,2025-04-29T11:14:24Z,b60275e29fe2361ab97ac0ac217840d7,"Mozilla/5.0 (Macintosh; Intel Mac OS X 10_15_7) AppleWebKit/537.36 (KHTML, like Gecko) Chrome/135.0.0.0 Safari/537.36",Macintosh,Chrome,135.0.0.0,OS X,10_15_7,https://5puzkbbxv1.cognition.run/?sona_id=56679,"en-US,en;q=0.9",5m3vhnwqofm2ey6,19,"[""White""]",No,Female,NA,I'm not sure,427019.7999999523,NA,4936,NA,"{""product_choice"":""C""}",choice,dtc,trinary,attraction,1,televisions,null,null,null,null,null,null,1,60,50,60,50,60,40,Screen size,Average lifespan,NA,NA
NA,NA,NA,NA,NA,choice_trial_setup,html-keyboard-response,26,125145,0.0-4.0-0.11,84,1,2025-04-29T11:14:24Z,b60275e29fe2361ab97ac0ac217840d7,"Mozilla/5.0 (Macintosh; Intel Mac OS X 10_15_7) AppleWebKit/537.36 (KHTML, like Gecko) Chrome/135.0.0.0 Safari/537.36",Macintosh,Chrome,135.0.0.0,OS X,10_15_7,https://5puzkbbxv1.cognition.run/?sona_id=56679,"en-US,en;q=0.9",5m3vhnwqofm2ey6,19,"[""White""]",No,Female,NA,I'm not sure,427019.7999999523,NA,null,<p></p>,null,choice,wb,binary,catch,null,laptops,60,55,35,25,null,null,2,NA,NA,NA,NA,NA,NA,NA,NA,NA,NA
NA,NA,NA,NA,NA,choice_trial,survey-html-form,27,129524,0.0-4.0-1.11,84,1,2025-04-29T11:14:24Z,b60275e29fe2361ab97ac0ac217840d7,"Mozilla/5.0 (Macintosh; Intel Mac OS X 10_15_7) AppleWebKit/537.36 (KHTML, like Gecko) Chrome/135.0.0.0 Safari/537.36",Macintosh,Chrome,135.0.0.0,OS X,10_15_7,https://5puzkbbxv1.cognition.run/?sona_id=56679,"en-US,en;q=0.9",5m3vhnwqofm2ey6,19,"[""White""]",No,Female,NA,I'm not sure,427019.7999999523,NA,4375,NA,"{""product_choice"":""B""}",choice,wb,binary,catch,null,laptops,60,55,35,25,null,null,2,null,null,null,null,null,null,Processing speed,Memory (RAM),NA,NA
NA,NA,NA,NA,NA,choice_trial_setup,html-keyboard-response,28,129827,0.0-4.0-0.12,84,1,2025-04-29T11:14:24Z,b60275e29fe2361ab97ac0ac217840d7,"Mozilla/5.0 (Macintosh; Intel Mac OS X 10_15_7) AppleWebKit/537.36 (KHTML, like Gecko) Chrome/135.0.0.0 Safari/537.36",Macintosh,Chrome,135.0.0.0,OS X,10_15_7,https://5puzkbbxv1.cognition.run/?sona_id=56679,"en-US,en;q=0.9",5m3vhnwqofm2ey6,19,"[""White""]",No,Female,NA,I'm not sure,427019.7999999523,NA,null,<p></p>,null,choice,wb,binary,catch,null,microwave ovens,80,50,40,10,null,null,2,NA,NA,NA,NA,NA,NA,NA,NA,NA,NA
NA,NA,NA,NA,NA,choice_trial,survey-html-form,29,135038,0.0-4.0-1.12,84,1,2025-04-29T11:14:24Z,b60275e29fe2361ab97ac0ac217840d7,"Mozilla/5.0 (Macintosh; Intel Mac OS X 10_15_7) AppleWebKit/537.36 (KHTML, like Gecko) Chrome/135.0.0.0 Safari/537.36",Macintosh,Chrome,135.0.0.0,OS X,10_15_7,https://5puzkbbxv1.cognition.run/?sona_id=56679,"en-US,en;q=0.9",5m3vhnwqofm2ey6,19,"[""White""]",No,Female,NA,I'm not sure,427019.7999999523,NA,5208,NA,"{""product_choice"":""B""}",choice,wb,binary,catch,null,microwave ovens,80,50,40,10,null,null,2,null,null,null,null,null,null,Warranty,Cooking power,NA,NA
NA,NA,NA,NA,NA,choice_trial_setup,html-keyboard-response,30,135343,0.0-4.0-0.13,84,1,2025-04-29T11:14:24Z,b60275e29fe2361ab97ac0ac217840d7,"Mozilla/5.0 (Macintosh; Intel Mac OS X 10_15_7) AppleWebKit/537.36 (KHTML, like Gecko) Chrome/135.0.0.0 Safari/537.36",Macintosh,Chrome,135.0.0.0,OS X,10_15_7,https://5puzkbbxv1.cognition.run/?sona_id=56679,"en-US,en;q=0.9",5m3vhnwqofm2ey6,19,"[""White""]",No,Female,NA,I'm not sure,427019.7999999523,NA,null,<p></p>,null,choice,dct,trinary,repulsion_B,2,laptops,null,null,null,null,null,null,2,NA,NA,NA,NA,NA,NA,NA,NA,NA,NA
NA,NA,NA,NA,NA,choice_trial,survey-html-form,31,139340,0.0-4.0-1.13,84,1,2025-04-29T11:14:24Z,b60275e29fe2361ab97ac0ac217840d7,"Mozilla/5.0 (Macintosh; Intel Mac OS X 10_15_7) AppleWebKit/537.36 (KHTML, like Gecko) Chrome/135.0.0.0 Safari/537.36",Macintosh,Chrome,135.0.0.0,OS X,10_15_7,https://5puzkbbxv1.cognition.run/?sona_id=56679,"en-US,en;q=0.9",5m3vhnwqofm2ey6,19,"[""White""]",No,Female,NA,I'm not sure,427019.7999999523,NA,3993,NA,"{""product_choice"":""C""}",choice,dct,trinary,repulsion_B,2,laptops,null,null,null,null,null,null,2,40,30,40,90,100,80,Processing speed,Memory (RAM),NA,NA
NA,NA,NA,NA,NA,choice_trial_setup,html-keyboard-response,32,139644,0.0-4.0-0.14,84,1,2025-04-29T11:14:24Z,b60275e29fe2361ab97ac0ac217840d7,"Mozilla/5.0 (Macintosh; Intel Mac OS X 10_15_7) AppleWebKit/537.36 (KHTML, like Gecko) Chrome/135.0.0.0 Safari/537.36",Macintosh,Chrome,135.0.0.0,OS X,10_15_7,https://5puzkbbxv1.cognition.run/?sona_id=56679,"en-US,en;q=0.9",5m3vhnwqofm2ey6,19,"[""White""]",No,Female,NA,I'm not sure,427019.7999999523,NA,null,<p></p>,null,choice,wwb,trinary,catch,null,televisions,55,65,25,35,50,35,1,NA,NA,NA,NA,NA,NA,NA,NA,NA,NA
NA,NA,NA,NA,NA,choice_trial,survey-html-form,33,143988,0.0-4.0-1.14,84,1,2025-04-29T11:14:24Z,b60275e29fe2361ab97ac0ac217840d7,"Mozilla/5.0 (Macintosh; Intel Mac OS X 10_15_7) AppleWebKit/537.36 (KHTML, like Gecko) Chrome/135.0.0.0 Safari/537.36",Macintosh,Chrome,135.0.0.0,OS X,10_15_7,https://5puzkbbxv1.cognition.run/?sona_id=56679,"en-US,en;q=0.9",5m3vhnwqofm2ey6,19,"[""White""]",No,Female,NA,I'm not sure,427019.7999999523,NA,4340,NA,"{""product_choice"":""C""}",choice,wwb,trinary,catch,null,televisions,55,65,25,35,50,35,1,null,null,null,null,null,null,Screen size,Average lifespan,NA,NA
NA,NA,NA,NA,NA,choice_trial_setup,html-keyboard-response,34,144292,0.0-4.0-0.15,84,1,2025-04-29T11:14:24Z,b60275e29fe2361ab97ac0ac217840d7,"Mozilla/5.0 (Macintosh; Intel Mac OS X 10_15_7) AppleWebKit/537.36 (KHTML, like Gecko) Chrome/135.0.0.0 Safari/537.36",Macintosh,Chrome,135.0.0.0,OS X,10_15_7,https://5puzkbbxv1.cognition.run/?sona_id=56679,"en-US,en;q=0.9",5m3vhnwqofm2ey6,19,"[""White""]",No,Female,NA,I'm not sure,427019.7999999523,NA,null,<p></p>,null,choice,tcd,trinary,attraction,1,washing machines,null,null,null,null,null,null,2,NA,NA,NA,NA,NA,NA,NA,NA,NA,NA
NA,NA,NA,NA,NA,choice_trial,survey-html-form,35,148772,0.0-4.0-1.15,84,1,2025-04-29T11:14:24Z,b60275e29fe2361ab97ac0ac217840d7,"Mozilla/5.0 (Macintosh; Intel Mac OS X 10_15_7) AppleWebKit/537.36 (KHTML, like Gecko) Chrome/135.0.0.0 Safari/537.36",Macintosh,Chrome,135.0.0.0,OS X,10_15_7,https://5puzkbbxv1.cognition.run/?sona_id=56679,"en-US,en;q=0.9",5m3vhnwqofm2ey6,19,"[""White""]",No,Female,NA,I'm not sure,427019.7999999523,NA,4475,NA,"{""product_choice"":""A""}",choice,tcd,trinary,attraction,1,washing machines,null,null,null,null,null,null,2,60,50,60,50,60,40,Average lifespan,Energy savings,NA,NA
NA,NA,NA,NA,NA,choice_trial_setup,html-keyboard-response,36,149076,0.0-4.0-0.16,84,1,2025-04-29T11:14:24Z,b60275e29fe2361ab97ac0ac217840d7,"Mozilla/5.0 (Macintosh; Intel Mac OS X 10_15_7) AppleWebKit/537.36 (KHTML, like Gecko) Chrome/135.0.0.0 Safari/537.36",Macintosh,Chrome,135.0.0.0,OS X,10_15_7,https://5puzkbbxv1.cognition.run/?sona_id=56679,"en-US,en;q=0.9",5m3vhnwqofm2ey6,19,"[""White""]",No,Female,NA,I'm not sure,427019.7999999523,NA,null,<p></p>,null,choice,dtc,trinary,repulsion_A,2,laptops,null,null,null,null,null,null,1,NA,NA,NA,NA,NA,NA,NA,NA,NA,NA
NA,NA,NA,NA,NA,choice_trial,survey-html-form,37,154737,0.0-4.0-1.16,84,1,2025-04-29T11:14:24Z,b60275e29fe2361ab97ac0ac217840d7,"Mozilla/5.0 (Macintosh; Intel Mac OS X 10_15_7) AppleWebKit/537.36 (KHTML, like Gecko) Chrome/135.0.0.0 Safari/537.36",Macintosh,Chrome,135.0.0.0,OS X,10_15_7,https://5puzkbbxv1.cognition.run/?sona_id=56679,"en-US,en;q=0.9",5m3vhnwqofm2ey6,19,"[""White""]",No,Female,NA,I'm not sure,427019.7999999523,NA,5656,NA,"{""product_choice"":""C""}",choice,dtc,trinary,repulsion_A,2,laptops,null,null,null,null,null,null,1,30,40,20,100,90,100,Processing speed,Memory (RAM),NA,NA
NA,NA,NA,NA,NA,choice_trial_setup,html-keyboard-response,38,155041,0.0-4.0-0.17,84,1,2025-04-29T11:14:24Z,b60275e29fe2361ab97ac0ac217840d7,"Mozilla/5.0 (Macintosh; Intel Mac OS X 10_15_7) AppleWebKit/537.36 (KHTML, like Gecko) Chrome/135.0.0.0 Safari/537.36",Macintosh,Chrome,135.0.0.0,OS X,10_15_7,https://5puzkbbxv1.cognition.run/?sona_id=56679,"en-US,en;q=0.9",5m3vhnwqofm2ey6,19,"[""White""]",No,Female,NA,I'm not sure,427019.7999999523,NA,null,<p></p>,null,choice,ctd,trinary,repulsion_B,1,washing machines,null,null,null,null,null,null,2,NA,NA,NA,NA,NA,NA,NA,NA,NA,NA
NA,NA,NA,NA,NA,choice_trial,survey-html-form,39,160798,0.0-4.0-1.17,84,1,2025-04-29T11:14:24Z,b60275e29fe2361ab97ac0ac217840d7,"Mozilla/5.0 (Macintosh; Intel Mac OS X 10_15_7) AppleWebKit/537.36 (KHTML, like Gecko) Chrome/135.0.0.0 Safari/537.36",Macintosh,Chrome,135.0.0.0,OS X,10_15_7,https://5puzkbbxv1.cognition.run/?sona_id=56679,"en-US,en;q=0.9",5m3vhnwqofm2ey6,19,"[""White""]",No,Female,NA,I'm not sure,427019.7999999523,NA,5752,NA,"{""product_choice"":""A""}",choice,ctd,trinary,repulsion_B,1,washing machines,null,null,null,null,null,null,2,90,100,80,40,30,40,Average lifespan,Energy savings,NA,NA
NA,NA,NA,NA,NA,choice_trial_setup,html-keyboard-response,40,161103,0.0-4.0-0.18,84,1,2025-04-29T11:14:24Z,b60275e29fe2361ab97ac0ac217840d7,"Mozilla/5.0 (Macintosh; Intel Mac OS X 10_15_7) AppleWebKit/537.36 (KHTML, like Gecko) Chrome/135.0.0.0 Safari/537.36",Macintosh,Chrome,135.0.0.0,OS X,10_15_7,https://5puzkbbxv1.cognition.run/?sona_id=56679,"en-US,en;q=0.9",5m3vhnwqofm2ey6,19,"[""White""]",No,Female,NA,I'm not sure,427019.7999999523,NA,null,<p></p>,null,choice,ct,binary,repulsion,2,microwave ovens,null,null,null,null,null,null,2,NA,NA,NA,NA,NA,NA,NA,NA,NA,NA
NA,NA,NA,NA,NA,choice_trial,survey-html-form,41,164360,0.0-4.0-1.18,84,1,2025-04-29T11:14:24Z,b60275e29fe2361ab97ac0ac217840d7,"Mozilla/5.0 (Macintosh; Intel Mac OS X 10_15_7) AppleWebKit/537.36 (KHTML, like Gecko) Chrome/135.0.0.0 Safari/537.36",Macintosh,Chrome,135.0.0.0,OS X,10_15_7,https://5puzkbbxv1.cognition.run/?sona_id=56679,"en-US,en;q=0.9",5m3vhnwqofm2ey6,19,"[""White""]",No,Female,NA,I'm not sure,427019.7999999523,NA,3253,NA,"{""product_choice"":""B""}",choice,ct,binary,repulsion,2,microwave ovens,null,null,null,null,null,null,2,30,40,null,100,90,null,Warranty,Cooking power,NA,NA
NA,NA,NA,NA,NA,choice_trial_setup,html-keyboard-response,42,164663,0.0-4.0-0.19,84,1,2025-04-29T11:14:24Z,b60275e29fe2361ab97ac0ac217840d7,"Mozilla/5.0 (Macintosh; Intel Mac OS X 10_15_7) AppleWebKit/537.36 (KHTML, like Gecko) Chrome/135.0.0.0 Safari/537.36",Macintosh,Chrome,135.0.0.0,OS X,10_15_7,https://5puzkbbxv1.cognition.run/?sona_id=56679,"en-US,en;q=0.9",5m3vhnwqofm2ey6,19,"[""White""]",No,Female,NA,I'm not sure,427019.7999999523,NA,null,<p></p>,null,choice,wb,binary,catch,null,televisions,75,80,35,45,null,null,1,NA,NA,NA,NA,NA,NA,NA,NA,NA,NA
NA,NA,NA,NA,NA,choice_trial,survey-html-form,43,168689,0.0-4.0-1.19,84,1,2025-04-29T11:14:24Z,b60275e29fe2361ab97ac0ac217840d7,"Mozilla/5.0 (Macintosh; Intel Mac OS X 10_15_7) AppleWebKit/537.36 (KHTML, like Gecko) Chrome/135.0.0.0 Safari/537.36",Macintosh,Chrome,135.0.0.0,OS X,10_15_7,https://5puzkbbxv1.cognition.run/?sona_id=56679,"en-US,en;q=0.9",5m3vhnwqofm2ey6,19,"[""White""]",No,Female,NA,I'm not sure,427019.7999999523,NA,4022,NA,"{""product_choice"":""B""}",choice,wb,binary,catch,null,televisions,75,80,35,45,null,null,1,null,null,null,null,null,null,Screen size,Average lifespan,NA,NA
NA,NA,NA,NA,NA,choice_trial_setup,html-keyboard-response,44,168993,0.0-4.0-0.20,84,1,2025-04-29T11:14:24Z,b60275e29fe2361ab97ac0ac217840d7,"Mozilla/5.0 (Macintosh; Intel Mac OS X 10_15_7) AppleWebKit/537.36 (KHTML, like Gecko) Chrome/135.0.0.0 Safari/537.36",Macintosh,Chrome,135.0.0.0,OS X,10_15_7,https://5puzkbbxv1.cognition.run/?sona_id=56679,"en-US,en;q=0.9",5m3vhnwqofm2ey6,19,"[""White""]",No,Female,NA,I'm not sure,427019.7999999523,NA,null,<p></p>,null,choice,ct,binary,attraction,NA,televisions,null,null,null,null,null,null,2,NA,NA,NA,NA,NA,NA,NA,NA,NA,NA
NA,NA,NA,NA,NA,choice_trial,survey-html-form,45,172602,0.0-4.0-1.20,84,1,2025-04-29T11:14:24Z,b60275e29fe2361ab97ac0ac217840d7,"Mozilla/5.0 (Macintosh; Intel Mac OS X 10_15_7) AppleWebKit/537.36 (KHTML, like Gecko) Chrome/135.0.0.0 Safari/537.36",Macintosh,Chrome,135.0.0.0,OS X,10_15_7,https://5puzkbbxv1.cognition.run/?sona_id=56679,"en-US,en;q=0.9",5m3vhnwqofm2ey6,19,"[""White""]",No,Female,NA,I'm not sure,427019.7999999523,NA,3603,NA,"{""product_choice"":""B""}",choice,ct,binary,attraction,NA,televisions,null,null,null,null,null,null,2,60,50,null,50,60,null,Screen size,Average lifespan,NA,NA
NA,NA,NA,NA,NA,choice_trial_setup,html-keyboard-response,46,172906,0.0-4.0-0.21,84,1,2025-04-29T11:14:24Z,b60275e29fe2361ab97ac0ac217840d7,"Mozilla/5.0 (Macintosh; Intel Mac OS X 10_15_7) AppleWebKit/537.36 (KHTML, like Gecko) Chrome/135.0.0.0 Safari/537.36",Macintosh,Chrome,135.0.0.0,OS X,10_15_7,https://5puzkbbxv1.cognition.run/?sona_id=56679,"en-US,en;q=0.9",5m3vhnwqofm2ey6,19,"[""White""]",No,Female,NA,I'm not sure,427019.7999999523,NA,null,<p></p>,null,choice,tc,binary,repulsion,2,laptops,null,null,null,null,null,null,2,NA,NA,NA,NA,NA,NA,NA,NA,NA,NA
NA,NA,NA,NA,NA,choice_trial,survey-html-form,47,175312,0.0-4.0-1.21,84,1,2025-04-29T11:14:24Z,b60275e29fe2361ab97ac0ac217840d7,"Mozilla/5.0 (Macintosh; Intel Mac OS X 10_15_7) AppleWebKit/537.36 (KHTML, like Gecko) Chrome/135.0.0.0 Safari/537.36",Macintosh,Chrome,135.0.0.0,OS X,10_15_7,https://5puzkbbxv1.cognition.run/?sona_id=56679,"en-US,en;q=0.9",5m3vhnwqofm2ey6,19,"[""White""]",No,Female,NA,I'm not sure,427019.7999999523,NA,2402,NA,"{""product_choice"":""B""}",choice,tc,binary,repulsion,2,laptops,null,null,null,null,null,null,2,30,40,null,100,90,null,Processing speed,Memory (RAM),NA,NA
NA,NA,NA,NA,NA,choice_trial_setup,html-keyboard-response,48,175618,0.0-4.0-0.22,84,1,2025-04-29T11:14:24Z,b60275e29fe2361ab97ac0ac217840d7,"Mozilla/5.0 (Macintosh; Intel Mac OS X 10_15_7) AppleWebKit/537.36 (KHTML, like Gecko) Chrome/135.0.0.0 Safari/537.36",Macintosh,Chrome,135.0.0.0,OS X,10_15_7,https://5puzkbbxv1.cognition.run/?sona_id=56679,"en-US,en;q=0.9",5m3vhnwqofm2ey6,19,"[""White""]",No,Female,NA,I'm not sure,427019.7999999523,NA,null,<p></p>,null,choice,ct,binary,repulsion,1,washing machines,null,null,null,null,null,null,2,NA,NA,NA,NA,NA,NA,NA,NA,NA,NA
NA,NA,NA,NA,NA,choice_trial,survey-html-form,49,178510,0.0-4.0-1.22,84,1,2025-04-29T11:14:24Z,b60275e29fe2361ab97ac0ac217840d7,"Mozilla/5.0 (Macintosh; Intel Mac OS X 10_15_7) AppleWebKit/537.36 (KHTML, like Gecko) Chrome/135.0.0.0 Safari/537.36",Macintosh,Chrome,135.0.0.0,OS X,10_15_7,https://5puzkbbxv1.cognition.run/?sona_id=56679,"en-US,en;q=0.9",5m3vhnwqofm2ey6,19,"[""White""]",No,Female,NA,I'm not sure,427019.7999999523,NA,2890,NA,"{""product_choice"":""A""}",choice,ct,binary,repulsion,1,washing machines,null,null,null,null,null,null,2,100,90,null,30,40,null,Average lifespan,Energy savings,NA,NA
NA,NA,NA,NA,NA,choice_trial_setup,html-keyboard-response,50,178815,0.0-4.0-0.23,84,1,2025-04-29T11:14:24Z,b60275e29fe2361ab97ac0ac217840d7,"Mozilla/5.0 (Macintosh; Intel Mac OS X 10_15_7) AppleWebKit/537.36 (KHTML, like Gecko) Chrome/135.0.0.0 Safari/537.36",Macintosh,Chrome,135.0.0.0,OS X,10_15_7,https://5puzkbbxv1.cognition.run/?sona_id=56679,"en-US,en;q=0.9",5m3vhnwqofm2ey6,19,"[""White""]",No,Female,NA,I'm not sure,427019.7999999523,NA,null,<p></p>,null,choice,dtc,trinary,repulsion_B,1,televisions,null,null,null,null,null,null,1,NA,NA,NA,NA,NA,NA,NA,NA,NA,NA
NA,NA,NA,NA,NA,choice_trial,survey-html-form,51,185652,0.0-4.0-1.23,84,1,2025-04-29T11:14:24Z,b60275e29fe2361ab97ac0ac217840d7,"Mozilla/5.0 (Macintosh; Intel Mac OS X 10_15_7) AppleWebKit/537.36 (KHTML, like Gecko) Chrome/135.0.0.0 Safari/537.36",Macintosh,Chrome,135.0.0.0,OS X,10_15_7,https://5puzkbbxv1.cognition.run/?sona_id=56679,"en-US,en;q=0.9",5m3vhnwqofm2ey6,19,"[""White""]",No,Female,NA,I'm not sure,427019.7999999523,NA,6832,NA,"{""product_choice"":""B""}",choice,dtc,trinary,repulsion_B,1,televisions,null,null,null,null,null,null,1,90,100,80,40,30,40,Screen size,Average lifespan,NA,NA
NA,NA,NA,NA,NA,choice_trial_setup,html-keyboard-response,52,185956,0.0-4.0-0.24,84,1,2025-04-29T11:14:24Z,b60275e29fe2361ab97ac0ac217840d7,"Mozilla/5.0 (Macintosh; Intel Mac OS X 10_15_7) AppleWebKit/537.36 (KHTML, like Gecko) Chrome/135.0.0.0 Safari/537.36",Macintosh,Chrome,135.0.0.0,OS X,10_15_7,https://5puzkbbxv1.cognition.run/?sona_id=56679,"en-US,en;q=0.9",5m3vhnwqofm2ey6,19,"[""White""]",No,Female,NA,I'm not sure,427019.7999999523,NA,null,<p></p>,null,choice,tdc,trinary,repulsion_A,1,microwave ovens,null,null,null,null,null,null,1,NA,NA,NA,NA,NA,NA,NA,NA,NA,NA
NA,NA,NA,NA,NA,choice_trial,survey-html-form,53,190929,0.0-4.0-1.24,84,1,2025-04-29T11:14:24Z,b60275e29fe2361ab97ac0ac217840d7,"Mozilla/5.0 (Macintosh; Intel Mac OS X 10_15_7) AppleWebKit/537.36 (KHTML, like Gecko) Chrome/135.0.0.0 Safari/537.36",Macintosh,Chrome,135.0.0.0,OS X,10_15_7,https://5puzkbbxv1.cognition.run/?sona_id=56679,"en-US,en;q=0.9",5m3vhnwqofm2ey6,19,"[""White""]",No,Female,NA,I'm not sure,427019.7999999523,NA,4968,NA,"{""product_choice"":""C""}",choice,tdc,trinary,repulsion_A,1,microwave ovens,null,null,null,null,null,null,1,100,90,100,30,40,20,Warranty,Cooking power,NA,NA
NA,NA,NA,NA,NA,choice_trial_setup,html-keyboard-response,54,191234,0.0-4.0-0.25,84,1,2025-04-29T11:14:24Z,b60275e29fe2361ab97ac0ac217840d7,"Mozilla/5.0 (Macintosh; Intel Mac OS X 10_15_7) AppleWebKit/537.36 (KHTML, like Gecko) Chrome/135.0.0.0 Safari/537.36",Macintosh,Chrome,135.0.0.0,OS X,10_15_7,https://5puzkbbxv1.cognition.run/?sona_id=56679,"en-US,en;q=0.9",5m3vhnwqofm2ey6,19,"[""White""]",No,Female,NA,I'm not sure,427019.7999999523,NA,null,<p></p>,null,choice,dct,trinary,attraction,1,laptops,null,null,null,null,null,null,2,NA,NA,NA,NA,NA,NA,NA,NA,NA,NA
NA,NA,NA,NA,NA,choice_trial,survey-html-form,55,204532,0.0-4.0-1.25,84,1,2025-04-29T11:14:24Z,b60275e29fe2361ab97ac0ac217840d7,"Mozilla/5.0 (Macintosh; Intel Mac OS X 10_15_7) AppleWebKit/537.36 (KHTML, like Gecko) Chrome/135.0.0.0 Safari/537.36",Macintosh,Chrome,135.0.0.0,OS X,10_15_7,https://5puzkbbxv1.cognition.run/?sona_id=56679,"en-US,en;q=0.9",5m3vhnwqofm2ey6,19,"[""White""]",No,Female,NA,I'm not sure,427019.7999999523,NA,13293,NA,"{""product_choice"":""C""}",choice,dct,trinary,attraction,1,laptops,null,null,null,null,null,null,2,60,50,60,50,60,40,Processing speed,Memory (RAM),NA,NA
NA,NA,NA,NA,NA,choice_trial_setup,html-keyboard-response,56,204836,0.0-4.0-0.26,84,1,2025-04-29T11:14:24Z,b60275e29fe2361ab97ac0ac217840d7,"Mozilla/5.0 (Macintosh; Intel Mac OS X 10_15_7) AppleWebKit/537.36 (KHTML, like Gecko) Chrome/135.0.0.0 Safari/537.36",Macintosh,Chrome,135.0.0.0,OS X,10_15_7,https://5puzkbbxv1.cognition.run/?sona_id=56679,"en-US,en;q=0.9",5m3vhnwqofm2ey6,19,"[""White""]",No,Female,NA,I'm not sure,427019.7999999523,NA,null,<p></p>,null,choice,ctd,trinary,repulsion_B,2,microwave ovens,null,null,null,null,null,null,1,NA,NA,NA,NA,NA,NA,NA,NA,NA,NA
NA,NA,NA,NA,NA,choice_trial,survey-html-form,57,209874,0.0-4.0-1.26,84,1,2025-04-29T11:14:24Z,b60275e29fe2361ab97ac0ac217840d7,"Mozilla/5.0 (Macintosh; Intel Mac OS X 10_15_7) AppleWebKit/537.36 (KHTML, like Gecko) Chrome/135.0.0.0 Safari/537.36",Macintosh,Chrome,135.0.0.0,OS X,10_15_7,https://5puzkbbxv1.cognition.run/?sona_id=56679,"en-US,en;q=0.9",5m3vhnwqofm2ey6,19,"[""White""]",No,Female,NA,I'm not sure,427019.7999999523,NA,5034,NA,"{""product_choice"":""B""}",choice,ctd,trinary,repulsion_B,2,microwave ovens,null,null,null,null,null,null,1,40,30,40,90,100,80,Warranty,Cooking power,NA,NA
NA,NA,NA,NA,NA,choice_trial_setup,html-keyboard-response,58,210181,0.0-4.0-0.27,84,1,2025-04-29T11:14:24Z,b60275e29fe2361ab97ac0ac217840d7,"Mozilla/5.0 (Macintosh; Intel Mac OS X 10_15_7) AppleWebKit/537.36 (KHTML, like Gecko) Chrome/135.0.0.0 Safari/537.36",Macintosh,Chrome,135.0.0.0,OS X,10_15_7,https://5puzkbbxv1.cognition.run/?sona_id=56679,"en-US,en;q=0.9",5m3vhnwqofm2ey6,19,"[""White""]",No,Female,NA,I'm not sure,427019.7999999523,NA,null,<p></p>,null,choice,wbw,trinary,catch,null,microwave ovens,95,65,30,30,45,15,1,NA,NA,NA,NA,NA,NA,NA,NA,NA,NA
NA,NA,NA,NA,NA,choice_trial,survey-html-form,59,213113,0.0-4.0-1.27,84,1,2025-04-29T11:14:24Z,b60275e29fe2361ab97ac0ac217840d7,"Mozilla/5.0 (Macintosh; Intel Mac OS X 10_15_7) AppleWebKit/537.36 (KHTML, like Gecko) Chrome/135.0.0.0 Safari/537.36",Macintosh,Chrome,135.0.0.0,OS X,10_15_7,https://5puzkbbxv1.cognition.run/?sona_id=56679,"en-US,en;q=0.9",5m3vhnwqofm2ey6,19,"[""White""]",No,Female,NA,I'm not sure,427019.7999999523,NA,2926,NA,"{""product_choice"":""B""}",choice,wbw,trinary,catch,null,microwave ovens,95,65,30,30,45,15,1,null,null,null,null,null,null,Warranty,Cooking power,NA,NA
NA,NA,NA,NA,NA,choice_trial_setup,html-keyboard-response,60,213418,0.0-4.0-0.28,84,1,2025-04-29T11:14:24Z,b60275e29fe2361ab97ac0ac217840d7,"Mozilla/5.0 (Macintosh; Intel Mac OS X 10_15_7) AppleWebKit/537.36 (KHTML, like Gecko) Chrome/135.0.0.0 Safari/537.36",Macintosh,Chrome,135.0.0.0,OS X,10_15_7,https://5puzkbbxv1.cognition.run/?sona_id=56679,"en-US,en;q=0.9",5m3vhnwqofm2ey6,19,"[""White""]",No,Female,NA,I'm not sure,427019.7999999523,NA,null,<p></p>,null,choice,ctd,trinary,attraction,2,microwave ovens,null,null,null,null,null,null,2,NA,NA,NA,NA,NA,NA,NA,NA,NA,NA
NA,NA,NA,NA,NA,choice_trial,survey-html-form,61,218643,0.0-4.0-1.28,84,1,2025-04-29T11:14:24Z,b60275e29fe2361ab97ac0ac217840d7,"Mozilla/5.0 (Macintosh; Intel Mac OS X 10_15_7) AppleWebKit/537.36 (KHTML, like Gecko) Chrome/135.0.0.0 Safari/537.36",Macintosh,Chrome,135.0.0.0,OS X,10_15_7,https://5puzkbbxv1.cognition.run/?sona_id=56679,"en-US,en;q=0.9",5m3vhnwqofm2ey6,19,"[""White""]",No,Female,NA,I'm not sure,427019.7999999523,NA,5218,NA,"{""product_choice"":""B""}",choice,ctd,trinary,attraction,2,microwave ovens,null,null,null,null,null,null,2,50,60,40,60,50,60,Warranty,Cooking power,NA,NA
NA,NA,NA,NA,NA,choice_trial_setup,html-keyboard-response,62,218948,0.0-4.0-0.29,84,1,2025-04-29T11:14:24Z,b60275e29fe2361ab97ac0ac217840d7,"Mozilla/5.0 (Macintosh; Intel Mac OS X 10_15_7) AppleWebKit/537.36 (KHTML, like Gecko) Chrome/135.0.0.0 Safari/537.36",Macintosh,Chrome,135.0.0.0,OS X,10_15_7,https://5puzkbbxv1.cognition.run/?sona_id=56679,"en-US,en;q=0.9",5m3vhnwqofm2ey6,19,"[""White""]",No,Female,NA,I'm not sure,427019.7999999523,NA,null,<p></p>,null,choice,bww,trinary,catch,null,washing machines,80,55,50,40,15,25,1,NA,NA,NA,NA,NA,NA,NA,NA,NA,NA
NA,NA,NA,NA,NA,choice_trial,survey-html-form,63,221370,0.0-4.0-1.29,84,1,2025-04-29T11:14:24Z,b60275e29fe2361ab97ac0ac217840d7,"Mozilla/5.0 (Macintosh; Intel Mac OS X 10_15_7) AppleWebKit/537.36 (KHTML, like Gecko) Chrome/135.0.0.0 Safari/537.36",Macintosh,Chrome,135.0.0.0,OS X,10_15_7,https://5puzkbbxv1.cognition.run/?sona_id=56679,"en-US,en;q=0.9",5m3vhnwqofm2ey6,19,"[""White""]",No,Female,NA,I'm not sure,427019.7999999523,NA,2416,NA,"{""product_choice"":""A""}",choice,bww,trinary,catch,null,washing machines,80,55,50,40,15,25,1,null,null,null,null,null,null,Average lifespan,Energy savings,NA,NA
NA,NA,NA,NA,NA,choice_trial_setup,html-keyboard-response,64,221676,0.0-4.0-0.30,84,1,2025-04-29T11:14:24Z,b60275e29fe2361ab97ac0ac217840d7,"Mozilla/5.0 (Macintosh; Intel Mac OS X 10_15_7) AppleWebKit/537.36 (KHTML, like Gecko) Chrome/135.0.0.0 Safari/537.36",Macintosh,Chrome,135.0.0.0,OS X,10_15_7,https://5puzkbbxv1.cognition.run/?sona_id=56679,"en-US,en;q=0.9",5m3vhnwqofm2ey6,19,"[""White""]",No,Female,NA,I'm not sure,427019.7999999523,NA,null,<p></p>,null,choice,tc,binary,attraction,NA,microwave ovens,null,null,null,null,null,null,2,NA,NA,NA,NA,NA,NA,NA,NA,NA,NA
NA,NA,NA,NA,NA,choice_trial,survey-html-form,65,226331,0.0-4.0-1.30,84,1,2025-04-29T11:14:24Z,b60275e29fe2361ab97ac0ac217840d7,"Mozilla/5.0 (Macintosh; Intel Mac OS X 10_15_7) AppleWebKit/537.36 (KHTML, like Gecko) Chrome/135.0.0.0 Safari/537.36",Macintosh,Chrome,135.0.0.0,OS X,10_15_7,https://5puzkbbxv1.cognition.run/?sona_id=56679,"en-US,en;q=0.9",5m3vhnwqofm2ey6,19,"[""White""]",No,Female,NA,I'm not sure,427019.7999999523,NA,4649,NA,"{""product_choice"":""B""}",choice,tc,binary,attraction,NA,microwave ovens,null,null,null,null,null,null,2,60,50,null,50,60,null,Warranty,Cooking power,NA,NA
NA,NA,NA,NA,NA,choice_trial_setup,html-keyboard-response,66,226636,0.0-4.0-0.31,84,1,2025-04-29T11:14:24Z,b60275e29fe2361ab97ac0ac217840d7,"Mozilla/5.0 (Macintosh; Intel Mac OS X 10_15_7) AppleWebKit/537.36 (KHTML, like Gecko) Chrome/135.0.0.0 Safari/537.36",Macintosh,Chrome,135.0.0.0,OS X,10_15_7,https://5puzkbbxv1.cognition.run/?sona_id=56679,"en-US,en;q=0.9",5m3vhnwqofm2ey6,19,"[""White""]",No,Female,NA,I'm not sure,427019.7999999523,NA,null,<p></p>,null,choice,tc,binary,repulsion,1,microwave ovens,null,null,null,null,null,null,1,NA,NA,NA,NA,NA,NA,NA,NA,NA,NA
NA,NA,NA,NA,NA,choice_trial,survey-html-form,67,230661,0.0-4.0-1.31,84,1,2025-04-29T11:14:24Z,b60275e29fe2361ab97ac0ac217840d7,"Mozilla/5.0 (Macintosh; Intel Mac OS X 10_15_7) AppleWebKit/537.36 (KHTML, like Gecko) Chrome/135.0.0.0 Safari/537.36",Macintosh,Chrome,135.0.0.0,OS X,10_15_7,https://5puzkbbxv1.cognition.run/?sona_id=56679,"en-US,en;q=0.9",5m3vhnwqofm2ey6,19,"[""White""]",No,Female,NA,I'm not sure,427019.7999999523,NA,4019,NA,"{""product_choice"":""B""}",choice,tc,binary,repulsion,1,microwave ovens,null,null,null,null,null,null,1,100,90,null,30,40,null,Warranty,Cooking power,NA,NA
NA,NA,NA,NA,NA,choice_trial_setup,html-keyboard-response,68,230966,0.0-4.0-0.32,84,1,2025-04-29T11:14:24Z,b60275e29fe2361ab97ac0ac217840d7,"Mozilla/5.0 (Macintosh; Intel Mac OS X 10_15_7) AppleWebKit/537.36 (KHTML, like Gecko) Chrome/135.0.0.0 Safari/537.36",Macintosh,Chrome,135.0.0.0,OS X,10_15_7,https://5puzkbbxv1.cognition.run/?sona_id=56679,"en-US,en;q=0.9",5m3vhnwqofm2ey6,19,"[""White""]",No,Female,NA,I'm not sure,427019.7999999523,NA,null,<p></p>,null,choice,tc,binary,attraction,NA,washing machines,null,null,null,null,null,null,1,NA,NA,NA,NA,NA,NA,NA,NA,NA,NA
NA,NA,NA,NA,NA,choice_trial,survey-html-form,69,235789,0.0-4.0-1.32,84,1,2025-04-29T11:14:24Z,b60275e29fe2361ab97ac0ac217840d7,"Mozilla/5.0 (Macintosh; Intel Mac OS X 10_15_7) AppleWebKit/537.36 (KHTML, like Gecko) Chrome/135.0.0.0 Safari/537.36",Macintosh,Chrome,135.0.0.0,OS X,10_15_7,https://5puzkbbxv1.cognition.run/?sona_id=56679,"en-US,en;q=0.9",5m3vhnwqofm2ey6,19,"[""White""]",No,Female,NA,I'm not sure,427019.7999999523,NA,4817,NA,"{""product_choice"":""A""}",choice,tc,binary,attraction,NA,washing machines,null,null,null,null,null,null,1,60,50,null,50,60,null,Average lifespan,Energy savings,NA,NA
NA,NA,NA,NA,NA,choice_trial_setup,html-keyboard-response,70,236094,0.0-4.0-0.33,84,1,2025-04-29T11:14:24Z,b60275e29fe2361ab97ac0ac217840d7,"Mozilla/5.0 (Macintosh; Intel Mac OS X 10_15_7) AppleWebKit/537.36 (KHTML, like Gecko) Chrome/135.0.0.0 Safari/537.36",Macintosh,Chrome,135.0.0.0,OS X,10_15_7,https://5puzkbbxv1.cognition.run/?sona_id=56679,"en-US,en;q=0.9",5m3vhnwqofm2ey6,19,"[""White""]",No,Female,NA,I'm not sure,427019.7999999523,NA,null,<p></p>,null,choice,dtc,trinary,repulsion_B,2,televisions,null,null,null,null,null,null,1,NA,NA,NA,NA,NA,NA,NA,NA,NA,NA
NA,NA,NA,NA,NA,choice_trial,survey-html-form,71,243162,0.0-4.0-1.33,84,1,2025-04-29T11:14:24Z,b60275e29fe2361ab97ac0ac217840d7,"Mozilla/5.0 (Macintosh; Intel Mac OS X 10_15_7) AppleWebKit/537.36 (KHTML, like Gecko) Chrome/135.0.0.0 Safari/537.36",Macintosh,Chrome,135.0.0.0,OS X,10_15_7,https://5puzkbbxv1.cognition.run/?sona_id=56679,"en-US,en;q=0.9",5m3vhnwqofm2ey6,19,"[""White""]",No,Female,NA,I'm not sure,427019.7999999523,NA,7061,NA,"{""product_choice"":""B""}",choice,dtc,trinary,repulsion_B,2,televisions,null,null,null,null,null,null,1,40,30,40,90,100,80,Screen size,Average lifespan,NA,NA
NA,NA,NA,NA,NA,choice_trial_setup,html-keyboard-response,72,243467,0.0-4.0-0.34,84,1,2025-04-29T11:14:24Z,b60275e29fe2361ab97ac0ac217840d7,"Mozilla/5.0 (Macintosh; Intel Mac OS X 10_15_7) AppleWebKit/537.36 (KHTML, like Gecko) Chrome/135.0.0.0 Safari/537.36",Macintosh,Chrome,135.0.0.0,OS X,10_15_7,https://5puzkbbxv1.cognition.run/?sona_id=56679,"en-US,en;q=0.9",5m3vhnwqofm2ey6,19,"[""White""]",No,Female,NA,I'm not sure,427019.7999999523,NA,null,<p></p>,null,choice,tcd,trinary,attraction,2,televisions,null,null,null,null,null,null,1,NA,NA,NA,NA,NA,NA,NA,NA,NA,NA
NA,NA,NA,NA,NA,choice_trial,survey-html-form,73,255594,0.0-4.0-1.34,84,1,2025-04-29T11:14:24Z,b60275e29fe2361ab97ac0ac217840d7,"Mozilla/5.0 (Macintosh; Intel Mac OS X 10_15_7) AppleWebKit/537.36 (KHTML, like Gecko) Chrome/135.0.0.0 Safari/537.36",Macintosh,Chrome,135.0.0.0,OS X,10_15_7,https://5puzkbbxv1.cognition.run/?sona_id=56679,"en-US,en;q=0.9",5m3vhnwqofm2ey6,19,"[""White""]",No,Female,NA,I'm not sure,427019.7999999523,NA,12120,NA,"{""product_choice"":""A""}",choice,tcd,trinary,attraction,2,televisions,null,null,null,null,null,null,1,50,60,40,60,50,60,Screen size,Average lifespan,NA,NA
NA,NA,NA,NA,NA,choice_trial_setup,html-keyboard-response,74,255899,0.0-4.0-0.35,84,1,2025-04-29T11:14:24Z,b60275e29fe2361ab97ac0ac217840d7,"Mozilla/5.0 (Macintosh; Intel Mac OS X 10_15_7) AppleWebKit/537.36 (KHTML, like Gecko) Chrome/135.0.0.0 Safari/537.36",Macintosh,Chrome,135.0.0.0,OS X,10_15_7,https://5puzkbbxv1.cognition.run/?sona_id=56679,"en-US,en;q=0.9",5m3vhnwqofm2ey6,19,"[""White""]",No,Female,NA,I'm not sure,427019.7999999523,NA,null,<p></p>,null,choice,dtc,trinary,repulsion_B,2,washing machines,null,null,null,null,null,null,1,NA,NA,NA,NA,NA,NA,NA,NA,NA,NA
NA,NA,NA,NA,NA,choice_trial,survey-html-form,75,261186,0.0-4.0-1.35,84,1,2025-04-29T11:14:24Z,b60275e29fe2361ab97ac0ac217840d7,"Mozilla/5.0 (Macintosh; Intel Mac OS X 10_15_7) AppleWebKit/537.36 (KHTML, like Gecko) Chrome/135.0.0.0 Safari/537.36",Macintosh,Chrome,135.0.0.0,OS X,10_15_7,https://5puzkbbxv1.cognition.run/?sona_id=56679,"en-US,en;q=0.9",5m3vhnwqofm2ey6,19,"[""White""]",No,Female,NA,I'm not sure,427019.7999999523,NA,5281,NA,"{""product_choice"":""B""}",choice,dtc,trinary,repulsion_B,2,washing machines,null,null,null,null,null,null,1,40,30,40,90,100,80,Average lifespan,Energy savings,NA,NA
NA,NA,NA,NA,NA,choice_trial_setup,html-keyboard-response,76,261491,0.0-4.0-0.36,84,1,2025-04-29T11:14:24Z,b60275e29fe2361ab97ac0ac217840d7,"Mozilla/5.0 (Macintosh; Intel Mac OS X 10_15_7) AppleWebKit/537.36 (KHTML, like Gecko) Chrome/135.0.0.0 Safari/537.36",Macintosh,Chrome,135.0.0.0,OS X,10_15_7,https://5puzkbbxv1.cognition.run/?sona_id=56679,"en-US,en;q=0.9",5m3vhnwqofm2ey6,19,"[""White""]",No,Female,NA,I'm not sure,427019.7999999523,NA,null,<p></p>,null,choice,tc,binary,repulsion,2,washing machines,null,null,null,null,null,null,1,NA,NA,NA,NA,NA,NA,NA,NA,NA,NA
NA,NA,NA,NA,NA,choice_trial,survey-html-form,77,268251,0.0-4.0-1.36,84,1,2025-04-29T11:14:24Z,b60275e29fe2361ab97ac0ac217840d7,"Mozilla/5.0 (Macintosh; Intel Mac OS X 10_15_7) AppleWebKit/537.36 (KHTML, like Gecko) Chrome/135.0.0.0 Safari/537.36",Macintosh,Chrome,135.0.0.0,OS X,10_15_7,https://5puzkbbxv1.cognition.run/?sona_id=56679,"en-US,en;q=0.9",5m3vhnwqofm2ey6,19,"[""White""]",No,Female,NA,I'm not sure,427019.7999999523,NA,6754,NA,"{""product_choice"":""B""}",choice,tc,binary,repulsion,2,washing machines,null,null,null,null,null,null,1,30,40,null,100,90,null,Average lifespan,Energy savings,NA,NA
NA,NA,NA,NA,NA,choice_trial_setup,html-keyboard-response,78,268558,0.0-4.0-0.37,84,1,2025-04-29T11:14:24Z,b60275e29fe2361ab97ac0ac217840d7,"Mozilla/5.0 (Macintosh; Intel Mac OS X 10_15_7) AppleWebKit/537.36 (KHTML, like Gecko) Chrome/135.0.0.0 Safari/537.36",Macintosh,Chrome,135.0.0.0,OS X,10_15_7,https://5puzkbbxv1.cognition.run/?sona_id=56679,"en-US,en;q=0.9",5m3vhnwqofm2ey6,19,"[""White""]",No,Female,NA,I'm not sure,427019.7999999523,NA,null,<p></p>,null,choice,ctd,trinary,attraction,2,washing machines,null,null,null,null,null,null,2,NA,NA,NA,NA,NA,NA,NA,NA,NA,NA
NA,NA,NA,NA,NA,choice_trial,survey-html-form,79,282190,0.0-4.0-1.37,84,1,2025-04-29T11:14:24Z,b60275e29fe2361ab97ac0ac217840d7,"Mozilla/5.0 (Macintosh; Intel Mac OS X 10_15_7) AppleWebKit/537.36 (KHTML, like Gecko) Chrome/135.0.0.0 Safari/537.36",Macintosh,Chrome,135.0.0.0,OS X,10_15_7,https://5puzkbbxv1.cognition.run/?sona_id=56679,"en-US,en;q=0.9",5m3vhnwqofm2ey6,19,"[""White""]",No,Female,NA,I'm not sure,427019.7999999523,NA,13625,NA,"{""product_choice"":""A""}",choice,ctd,trinary,attraction,2,washing machines,null,null,null,null,null,null,2,50,60,40,60,50,60,Average lifespan,Energy savings,NA,NA
NA,NA,NA,NA,NA,choice_trial_setup,html-keyboard-response,80,282496,0.0-4.0-0.38,84,1,2025-04-29T11:14:24Z,b60275e29fe2361ab97ac0ac217840d7,"Mozilla/5.0 (Macintosh; Intel Mac OS X 10_15_7) AppleWebKit/537.36 (KHTML, like Gecko) Chrome/135.0.0.0 Safari/537.36",Macintosh,Chrome,135.0.0.0,OS X,10_15_7,https://5puzkbbxv1.cognition.run/?sona_id=56679,"en-US,en;q=0.9",5m3vhnwqofm2ey6,19,"[""White""]",No,Female,NA,I'm not sure,427019.7999999523,NA,null,<p></p>,null,choice,ctd,trinary,attraction,2,laptops,null,null,null,null,null,null,1,NA,NA,NA,NA,NA,NA,NA,NA,NA,NA
NA,NA,NA,NA,NA,choice_trial,survey-html-form,81,290452,0.0-4.0-1.38,84,1,2025-04-29T11:14:24Z,b60275e29fe2361ab97ac0ac217840d7,"Mozilla/5.0 (Macintosh; Intel Mac OS X 10_15_7) AppleWebKit/537.36 (KHTML, like Gecko) Chrome/135.0.0.0 Safari/537.36",Macintosh,Chrome,135.0.0.0,OS X,10_15_7,https://5puzkbbxv1.cognition.run/?sona_id=56679,"en-US,en;q=0.9",5m3vhnwqofm2ey6,19,"[""White""]",No,Female,NA,I'm not sure,427019.7999999523,NA,7951,NA,"{""product_choice"":""A""}",choice,ctd,trinary,attraction,2,laptops,null,null,null,null,null,null,1,50,60,40,60,50,60,Processing speed,Memory (RAM),NA,NA
NA,NA,NA,NA,NA,choice_trial_setup,html-keyboard-response,82,290759,0.0-4.0-0.39,84,1,2025-04-29T11:14:24Z,b60275e29fe2361ab97ac0ac217840d7,"Mozilla/5.0 (Macintosh; Intel Mac OS X 10_15_7) AppleWebKit/537.36 (KHTML, like Gecko) Chrome/135.0.0.0 Safari/537.36",Macintosh,Chrome,135.0.0.0,OS X,10_15_7,https://5puzkbbxv1.cognition.run/?sona_id=56679,"en-US,en;q=0.9",5m3vhnwqofm2ey6,19,"[""White""]",No,Female,NA,I'm not sure,427019.7999999523,NA,null,<p></p>,null,choice,tcd,trinary,repulsion_B,1,microwave ovens,null,null,null,null,null,null,2,NA,NA,NA,NA,NA,NA,NA,NA,NA,NA
NA,NA,NA,NA,NA,choice_trial,survey-html-form,83,299476,0.0-4.0-1.39,84,1,2025-04-29T11:14:24Z,b60275e29fe2361ab97ac0ac217840d7,"Mozilla/5.0 (Macintosh; Intel Mac OS X 10_15_7) AppleWebKit/537.36 (KHTML, like Gecko) Chrome/135.0.0.0 Safari/537.36",Macintosh,Chrome,135.0.0.0,OS X,10_15_7,https://5puzkbbxv1.cognition.run/?sona_id=56679,"en-US,en;q=0.9",5m3vhnwqofm2ey6,19,"[""White""]",No,Female,NA,I'm not sure,427019.7999999523,NA,8711,NA,"{""product_choice"":""A""}",choice,tcd,trinary,repulsion_B,1,microwave ovens,null,null,null,null,null,null,2,90,100,80,40,30,40,Warranty,Cooking power,NA,NA
NA,NA,NA,NA,NA,choice_trial_setup,html-keyboard-response,84,299782,0.0-4.0-0.40,84,1,2025-04-29T11:14:24Z,b60275e29fe2361ab97ac0ac217840d7,"Mozilla/5.0 (Macintosh; Intel Mac OS X 10_15_7) AppleWebKit/537.36 (KHTML, like Gecko) Chrome/135.0.0.0 Safari/537.36",Macintosh,Chrome,135.0.0.0,OS X,10_15_7,https://5puzkbbxv1.cognition.run/?sona_id=56679,"en-US,en;q=0.9",5m3vhnwqofm2ey6,19,"[""White""]",No,Female,NA,I'm not sure,427019.7999999523,NA,null,<p></p>,null,choice,tdc,trinary,repulsion_A,2,microwave ovens,null,null,null,null,null,null,2,NA,NA,NA,NA,NA,NA,NA,NA,NA,NA
NA,NA,NA,NA,NA,choice_trial,survey-html-form,85,305124,0.0-4.0-1.40,84,1,2025-04-29T11:14:24Z,b60275e29fe2361ab97ac0ac217840d7,"Mozilla/5.0 (Macintosh; Intel Mac OS X 10_15_7) AppleWebKit/537.36 (KHTML, like Gecko) Chrome/135.0.0.0 Safari/537.36",Macintosh,Chrome,135.0.0.0,OS X,10_15_7,https://5puzkbbxv1.cognition.run/?sona_id=56679,"en-US,en;q=0.9",5m3vhnwqofm2ey6,19,"[""White""]",No,Female,NA,I'm not sure,427019.7999999523,NA,5336,NA,"{""product_choice"":""A""}",choice,tdc,trinary,repulsion_A,2,microwave ovens,null,null,null,null,null,null,2,30,40,20,100,90,100,Warranty,Cooking power,NA,NA
NA,NA,NA,NA,NA,choice_trial_setup,html-keyboard-response,86,305432,0.0-4.0-0.41,84,1,2025-04-29T11:14:24Z,b60275e29fe2361ab97ac0ac217840d7,"Mozilla/5.0 (Macintosh; Intel Mac OS X 10_15_7) AppleWebKit/537.36 (KHTML, like Gecko) Chrome/135.0.0.0 Safari/537.36",Macintosh,Chrome,135.0.0.0,OS X,10_15_7,https://5puzkbbxv1.cognition.run/?sona_id=56679,"en-US,en;q=0.9",5m3vhnwqofm2ey6,19,"[""White""]",No,Female,NA,I'm not sure,427019.7999999523,NA,null,<p></p>,null,choice,bww,trinary,catch,null,laptops,65,90,25,40,35,45,1,NA,NA,NA,NA,NA,NA,NA,NA,NA,NA
NA,NA,NA,NA,NA,choice_trial,survey-html-form,87,311145,0.0-4.0-1.41,84,1,2025-04-29T11:14:24Z,b60275e29fe2361ab97ac0ac217840d7,"Mozilla/5.0 (Macintosh; Intel Mac OS X 10_15_7) AppleWebKit/537.36 (KHTML, like Gecko) Chrome/135.0.0.0 Safari/537.36",Macintosh,Chrome,135.0.0.0,OS X,10_15_7,https://5puzkbbxv1.cognition.run/?sona_id=56679,"en-US,en;q=0.9",5m3vhnwqofm2ey6,19,"[""White""]",No,Female,NA,I'm not sure,427019.7999999523,NA,5705,NA,"{""product_choice"":""A""}",choice,bww,trinary,catch,null,laptops,65,90,25,40,35,45,1,null,null,null,null,null,null,Processing speed,Memory (RAM),NA,NA
NA,NA,NA,NA,NA,choice_trial_setup,html-keyboard-response,88,311451,0.0-4.0-0.42,84,1,2025-04-29T11:14:24Z,b60275e29fe2361ab97ac0ac217840d7,"Mozilla/5.0 (Macintosh; Intel Mac OS X 10_15_7) AppleWebKit/537.36 (KHTML, like Gecko) Chrome/135.0.0.0 Safari/537.36",Macintosh,Chrome,135.0.0.0,OS X,10_15_7,https://5puzkbbxv1.cognition.run/?sona_id=56679,"en-US,en;q=0.9",5m3vhnwqofm2ey6,19,"[""White""]",No,Female,NA,I'm not sure,427019.7999999523,NA,null,<p></p>,null,choice,tc,binary,repulsion,1,laptops,null,null,null,null,null,null,1,NA,NA,NA,NA,NA,NA,NA,NA,NA,NA
NA,NA,NA,NA,NA,choice_trial,survey-html-form,89,317746,0.0-4.0-1.42,84,1,2025-04-29T11:14:24Z,b60275e29fe2361ab97ac0ac217840d7,"Mozilla/5.0 (Macintosh; Intel Mac OS X 10_15_7) AppleWebKit/537.36 (KHTML, like Gecko) Chrome/135.0.0.0 Safari/537.36",Macintosh,Chrome,135.0.0.0,OS X,10_15_7,https://5puzkbbxv1.cognition.run/?sona_id=56679,"en-US,en;q=0.9",5m3vhnwqofm2ey6,19,"[""White""]",No,Female,NA,I'm not sure,427019.7999999523,NA,6287,NA,"{""product_choice"":""B""}",choice,tc,binary,repulsion,1,laptops,null,null,null,null,null,null,1,100,90,null,30,40,null,Processing speed,Memory (RAM),NA,NA
NA,NA,NA,NA,NA,choice_trial_setup,html-keyboard-response,90,318051,0.0-4.0-0.43,84,1,2025-04-29T11:14:24Z,b60275e29fe2361ab97ac0ac217840d7,"Mozilla/5.0 (Macintosh; Intel Mac OS X 10_15_7) AppleWebKit/537.36 (KHTML, like Gecko) Chrome/135.0.0.0 Safari/537.36",Macintosh,Chrome,135.0.0.0,OS X,10_15_7,https://5puzkbbxv1.cognition.run/?sona_id=56679,"en-US,en;q=0.9",5m3vhnwqofm2ey6,19,"[""White""]",No,Female,NA,I'm not sure,427019.7999999523,NA,null,<p></p>,null,choice,tc,binary,attraction,NA,laptops,null,null,null,null,null,null,2,NA,NA,NA,NA,NA,NA,NA,NA,NA,NA
NA,NA,NA,NA,NA,choice_trial,survey-html-form,91,324109,0.0-4.0-1.43,84,1,2025-04-29T11:14:24Z,b60275e29fe2361ab97ac0ac217840d7,"Mozilla/5.0 (Macintosh; Intel Mac OS X 10_15_7) AppleWebKit/537.36 (KHTML, like Gecko) Chrome/135.0.0.0 Safari/537.36",Macintosh,Chrome,135.0.0.0,OS X,10_15_7,https://5puzkbbxv1.cognition.run/?sona_id=56679,"en-US,en;q=0.9",5m3vhnwqofm2ey6,19,"[""White""]",No,Female,NA,I'm not sure,427019.7999999523,NA,6051,NA,"{""product_choice"":""A""}",choice,tc,binary,attraction,NA,laptops,null,null,null,null,null,null,2,60,50,null,50,60,null,Processing speed,Memory (RAM),NA,NA
NA,NA,NA,NA,NA,post_trials_message,html-button-response,92,325659,0.0-5.0,84,1,2025-04-29T11:14:24Z,b60275e29fe2361ab97ac0ac217840d7,"Mozilla/5.0 (Macintosh; Intel Mac OS X 10_15_7) AppleWebKit/537.36 (KHTML, like Gecko) Chrome/135.0.0.0 Safari/537.36",Macintosh,Chrome,135.0.0.0,OS X,10_15_7,https://5puzkbbxv1.cognition.run/?sona_id=56679,"en-US,en;q=0.9",5m3vhnwqofm2ey6,19,"[""White""]",No,Female,NA,I'm not sure,427019.7999999523,NA,1544,<p> <b>Thank you for your patience!</b></p><p>  The study will be done after completing a brief form. </p>,0,NA,NA,NA,NA,NA,NA,NA,NA,NA,NA,NA,NA,NA,NA,NA,NA,NA,NA,NA,NA,NA,NA,NA
NA,NA,NA,NA,NA,survey_message,survey-text,93,395502,0.0-6.0,84,1,2025-04-29T11:14:24Z,b60275e29fe2361ab97ac0ac217840d7,"Mozilla/5.0 (Macintosh; Intel Mac OS X 10_15_7) AppleWebKit/537.36 (KHTML, like Gecko) Chrome/135.0.0.0 Safari/537.36",Macintosh,Chrome,135.0.0.0,OS X,10_15_7,https://5puzkbbxv1.cognition.run/?sona_id=56679,"en-US,en;q=0.9",5m3vhnwqofm2ey6,19,"[""White""]",No,Female,NA,I'm not sure,427019.7999999523,NA,69808,NA,"{""Q0"":""I tried to choose the numbers that were as high as possible without making the other number decrease a lot ""}",NA,NA,NA,NA,NA,NA,NA,NA,NA,NA,NA,NA,NA,NA,NA,NA,NA,NA,NA,NA,NA,I tried to choose the numbers that were as high as possible without making the other number decrease a lot,NA
NA,NA,NA,NA,NA,demo_age,survey-text,94,398100,0.0-7.0,84,1,2025-04-29T11:14:24Z,b60275e29fe2361ab97ac0ac217840d7,"Mozilla/5.0 (Macintosh; Intel Mac OS X 10_15_7) AppleWebKit/537.36 (KHTML, like Gecko) Chrome/135.0.0.0 Safari/537.36",Macintosh,Chrome,135.0.0.0,OS X,10_15_7,https://5puzkbbxv1.cognition.run/?sona_id=56679,"en-US,en;q=0.9",5m3vhnwqofm2ey6,19,"[""White""]",No,Female,NA,I'm not sure,427019.7999999523,NA,2591,NA,"{""Q0"":""19""}",NA,NA,NA,NA,NA,NA,NA,NA,NA,NA,NA,NA,NA,NA,NA,NA,NA,NA,NA,NA,NA,NA,NA
NA,NA,NA,NA,NA,demo_race,survey-multi-select,95,400160,0.0-8.0,84,1,2025-04-29T11:14:24Z,b60275e29fe2361ab97ac0ac217840d7,"Mozilla/5.0 (Macintosh; Intel Mac OS X 10_15_7) AppleWebKit/537.36 (KHTML, like Gecko) Chrome/135.0.0.0 Safari/537.36",Macintosh,Chrome,135.0.0.0,OS X,10_15_7,https://5puzkbbxv1.cognition.run/?sona_id=56679,"en-US,en;q=0.9",5m3vhnwqofm2ey6,19,"[""White""]",No,Female,NA,I'm not sure,427019.7999999523,NA,2051,NA,"{""Q0"":[""White""]}",NA,NA,NA,NA,NA,NA,NA,NA,NA,NA,NA,NA,NA,NA,NA,NA,NA,NA,NA,NA,NA,NA,[0]
NA,NA,NA,NA,NA,demo_ethnicity_gender,survey-multi-choice,96,404214,0.0-9.0,84,1,2025-04-29T11:14:24Z,b60275e29fe2361ab97ac0ac217840d7,"Mozilla/5.0 (Macintosh; Intel Mac OS X 10_15_7) AppleWebKit/537.36 (KHTML, like Gecko) Chrome/135.0.0.0 Safari/537.36",Macintosh,Chrome,135.0.0.0,OS X,10_15_7,https://5puzkbbxv1.cognition.run/?sona_id=56679,"en-US,en;q=0.9",5m3vhnwqofm2ey6,19,"[""White""]",No,Female,NA,I'm not sure,427019.7999999523,NA,4044,NA,"{""Q0"":""No"",""Q1"":""Female""}",NA,NA,NA,NA,NA,NA,NA,NA,NA,NA,NA,NA,NA,NA,NA,NA,NA,NA,NA,NA,NA,NA,"[0,1]"
NA,NA,NA,NA,NA,demo_countries,survey-text,97,410603,0.0-10.0,84,1,2025-04-29T11:14:24Z,b60275e29fe2361ab97ac0ac217840d7,"Mozilla/5.0 (Macintosh; Intel Mac OS X 10_15_7) AppleWebKit/537.36 (KHTML, like Gecko) Chrome/135.0.0.0 Safari/537.36",Macintosh,Chrome,135.0.0.0,OS X,10_15_7,https://5puzkbbxv1.cognition.run/?sona_id=56679,"en-US,en;q=0.9",5m3vhnwqofm2ey6,19,"[""White""]",No,Female,NA,I'm not sure,427019.7999999523,NA,6363,NA,"{""Q0"":""NA""}",NA,NA,NA,NA,NA,NA,NA,NA,NA,NA,NA,NA,NA,NA,NA,NA,NA,NA,NA,NA,NA,NA,NA
NA,NA,NA,NA,NA,demo_prev_study,survey-multi-choice,98,418487,0.0-11.0,84,1,2025-04-29T11:14:24Z,b60275e29fe2361ab97ac0ac217840d7,"Mozilla/5.0 (Macintosh; Intel Mac OS X 10_15_7) AppleWebKit/537.36 (KHTML, like Gecko) Chrome/135.0.0.0 Safari/537.36",Macintosh,Chrome,135.0.0.0,OS X,10_15_7,https://5puzkbbxv1.cognition.run/?sona_id=56679,"en-US,en;q=0.9",5m3vhnwqofm2ey6,19,"[""White""]",No,Female,NA,I'm not sure,427019.7999999523,NA,7877,NA,"{""Q0"":""I'm not sure""}",NA,NA,NA,NA,NA,NA,NA,NA,NA,NA,NA,NA,NA,NA,NA,NA,NA,NA,NA,NA,NA,NA,[0]
NA,NA,NA,NA,NA,post_survey_message,html-keyboard-response,99,424047,0.0-12.0,84,1,2025-04-29T11:14:24Z,b60275e29fe2361ab97ac0ac217840d7,"Mozilla/5.0 (Macintosh; Intel Mac OS X 10_15_7) AppleWebKit/537.36 (KHTML, like Gecko) Chrome/135.0.0.0 Safari/537.36",Macintosh,Chrome,135.0.0.0,OS X,10_15_7,https://5puzkbbxv1.cognition.run/?sona_id=56679,"en-US,en;q=0.9",5m3vhnwqofm2ey6,19,"[""White""]",No,Female,NA,I'm not sure,427019.7999999523,NA,5552,NA,j,NA,NA,NA,NA,NA,NA,NA,NA,NA,NA,NA,NA,NA,NA,NA,NA,NA,NA,NA,NA,NA,NA,NA
NA,NA,NA,NA,NA,debrief,image-keyboard-response,100,427060,0.0-13.0,84,1,2025-04-29T11:14:24Z,b60275e29fe2361ab97ac0ac217840d7,"Mozilla/5.0 (Macintosh; Intel Mac OS X 10_15_7) AppleWebKit/537.36 (KHTML, like Gecko) Chrome/135.0.0.0 Safari/537.36",Macintosh,Chrome,135.0.0.0,OS X,10_15_7,https://5puzkbbxv1.cognition.run/?sona_id=56679,"en-US,en;q=0.9",5m3vhnwqofm2ey6,19,"[""White""]",No,Female,NA,I'm not sure,427019.7999999523,NA,3005,Judg_choice_debrief.png,p,NA,NA,NA,NA,NA,NA,NA,NA,NA,NA,NA,NA,NA,NA,NA,NA,NA,NA,NA,NA,NA,NA,NA
