success,timeout,failed_images,failed_audio,failed_video,screen_id,trial_type,trial_index,time_elapsed,internal_node_id,run_id,condition,recorded_at,source_code_version,user_agent,device,browser,browser_version,platform,platform_version,referer,accept_language,ppt_id,age,race,ethnicity,gender,other_countries,prev_study,exp_duration,view_history,rt,stimulus,response,phase,order,set,effect,t_high,category,d1_best,d2_best,d1_worst1,d2_worst1,d1_worst2,d2_worst2,first_dim,d1_t,d1_c,d1_d,d2_t,d2_c,d2_d,d1_name,d2_name,strategy_response,question_order
TRUE,FALSE,[],[],[],img preload,preload,0,229,0.0-0.0,87,1,2025-04-29T13:11:10Z,b60275e29fe2361ab97ac0ac217840d7,"Mozilla/5.0 (Macintosh; Intel Mac OS X 10_15_7) AppleWebKit/605.1.15 (KHTML, like Gecko) Version/17.0 Safari/605.1.15",Macintosh,Safari,17,OS X,10_15_7,https://5puzkbbxv1.cognition.run/?sona_id=53386,"en-US,en;q=0.9",h7qh9qq4g8gy5q8,19,"[""White""]",No,Female,NA,No,839346,NA,NA,NA,NA,NA,NA,NA,NA,NA,NA,NA,NA,NA,NA,NA,NA,NA,NA,NA,NA,NA,NA,NA,NA,NA,NA,NA
NA,NA,NA,NA,NA,computer_message,instructions,1,3158,0.0-1.0,87,1,2025-04-29T13:11:10Z,b60275e29fe2361ab97ac0ac217840d7,"Mozilla/5.0 (Macintosh; Intel Mac OS X 10_15_7) AppleWebKit/605.1.15 (KHTML, like Gecko) Version/17.0 Safari/605.1.15",Macintosh,Safari,17,OS X,10_15_7,https://5puzkbbxv1.cognition.run/?sona_id=53386,"en-US,en;q=0.9",h7qh9qq4g8gy5q8,19,"[""White""]",No,Female,NA,No,839346,"[{""page_index"":0,""viewing_time"":2926}]",2927,NA,NA,NA,NA,NA,NA,NA,NA,NA,NA,NA,NA,NA,NA,NA,NA,NA,NA,NA,NA,NA,NA,NA,NA,NA
TRUE,NA,NA,NA,NA,NA,fullscreen,2,5800,0.0-2.0,87,1,2025-04-29T13:11:10Z,b60275e29fe2361ab97ac0ac217840d7,"Mozilla/5.0 (Macintosh; Intel Mac OS X 10_15_7) AppleWebKit/605.1.15 (KHTML, like Gecko) Version/17.0 Safari/605.1.15",Macintosh,Safari,17,OS X,10_15_7,https://5puzkbbxv1.cognition.run/?sona_id=53386,"en-US,en;q=0.9",h7qh9qq4g8gy5q8,19,"[""White""]",No,Female,NA,No,839346,NA,1638,NA,NA,NA,NA,NA,NA,NA,NA,NA,NA,NA,NA,NA,NA,NA,NA,NA,NA,NA,NA,NA,NA,NA,NA,NA
NA,NA,NA,NA,NA,choice_instructions,instructions,3,80568,0.0-3.0,87,1,2025-04-29T13:11:10Z,b60275e29fe2361ab97ac0ac217840d7,"Mozilla/5.0 (Macintosh; Intel Mac OS X 10_15_7) AppleWebKit/605.1.15 (KHTML, like Gecko) Version/17.0 Safari/605.1.15",Macintosh,Safari,17,OS X,10_15_7,https://5puzkbbxv1.cognition.run/?sona_id=53386,"en-US,en;q=0.9",h7qh9qq4g8gy5q8,19,"[""White""]",No,Female,NA,No,839346,"[{""page_index"":0,""viewing_time"":4380},{""page_index"":1,""viewing_time"":7557},{""page_index"":2,""viewing_time"":9092},{""page_index"":3,""viewing_time"":11411},{""page_index"":4,""viewing_time"":3913},{""page_index"":5,""viewing_time"":31302},{""page_index"":6,""viewing_time"":7114}]",74769,NA,NA,NA,NA,NA,NA,NA,NA,NA,NA,NA,NA,NA,NA,NA,NA,NA,NA,NA,NA,NA,NA,NA,NA,NA
NA,NA,NA,NA,NA,choice_trial_setup,html-keyboard-response,4,80872,0.0-4.0-0.0,87,1,2025-04-29T13:11:10Z,b60275e29fe2361ab97ac0ac217840d7,"Mozilla/5.0 (Macintosh; Intel Mac OS X 10_15_7) AppleWebKit/605.1.15 (KHTML, like Gecko) Version/17.0 Safari/605.1.15",Macintosh,Safari,17,OS X,10_15_7,https://5puzkbbxv1.cognition.run/?sona_id=53386,"en-US,en;q=0.9",h7qh9qq4g8gy5q8,19,"[""White""]",No,Female,NA,No,839346,NA,null,<p></p>,null,choice,dct,trinary,repulsion_A,2,microwave ovens,null,null,null,null,null,null,1,NA,NA,NA,NA,NA,NA,NA,NA,NA,NA
NA,NA,NA,NA,NA,choice_trial,survey-html-form,5,103798,0.0-4.0-1.0,87,1,2025-04-29T13:11:10Z,b60275e29fe2361ab97ac0ac217840d7,"Mozilla/5.0 (Macintosh; Intel Mac OS X 10_15_7) AppleWebKit/605.1.15 (KHTML, like Gecko) Version/17.0 Safari/605.1.15",Macintosh,Safari,17,OS X,10_15_7,https://5puzkbbxv1.cognition.run/?sona_id=53386,"en-US,en;q=0.9",h7qh9qq4g8gy5q8,19,"[""White""]",No,Female,NA,No,839346,NA,22924,NA,"{""product_choice"":""C""}",choice,dct,trinary,repulsion_A,2,microwave ovens,null,null,null,null,null,null,1,30,40,20,100,90,100,Warranty,Cooking power,NA,NA
NA,NA,NA,NA,NA,choice_trial_setup,html-keyboard-response,6,104101,0.0-4.0-0.1,87,1,2025-04-29T13:11:10Z,b60275e29fe2361ab97ac0ac217840d7,"Mozilla/5.0 (Macintosh; Intel Mac OS X 10_15_7) AppleWebKit/605.1.15 (KHTML, like Gecko) Version/17.0 Safari/605.1.15",Macintosh,Safari,17,OS X,10_15_7,https://5puzkbbxv1.cognition.run/?sona_id=53386,"en-US,en;q=0.9",h7qh9qq4g8gy5q8,19,"[""White""]",No,Female,NA,No,839346,NA,null,<p></p>,null,choice,cdt,trinary,repulsion_A,2,laptops,null,null,null,null,null,null,2,NA,NA,NA,NA,NA,NA,NA,NA,NA,NA
NA,NA,NA,NA,NA,choice_trial,survey-html-form,7,118597,0.0-4.0-1.1,87,1,2025-04-29T13:11:10Z,b60275e29fe2361ab97ac0ac217840d7,"Mozilla/5.0 (Macintosh; Intel Mac OS X 10_15_7) AppleWebKit/605.1.15 (KHTML, like Gecko) Version/17.0 Safari/605.1.15",Macintosh,Safari,17,OS X,10_15_7,https://5puzkbbxv1.cognition.run/?sona_id=53386,"en-US,en;q=0.9",h7qh9qq4g8gy5q8,19,"[""White""]",No,Female,NA,No,839346,NA,14494,NA,"{""product_choice"":""A""}",choice,cdt,trinary,repulsion_A,2,laptops,null,null,null,null,null,null,2,30,40,20,100,90,100,Processing speed,Memory (RAM),NA,NA
NA,NA,NA,NA,NA,choice_trial_setup,html-keyboard-response,8,118901,0.0-4.0-0.2,87,1,2025-04-29T13:11:10Z,b60275e29fe2361ab97ac0ac217840d7,"Mozilla/5.0 (Macintosh; Intel Mac OS X 10_15_7) AppleWebKit/605.1.15 (KHTML, like Gecko) Version/17.0 Safari/605.1.15",Macintosh,Safari,17,OS X,10_15_7,https://5puzkbbxv1.cognition.run/?sona_id=53386,"en-US,en;q=0.9",h7qh9qq4g8gy5q8,19,"[""White""]",No,Female,NA,No,839346,NA,null,<p></p>,null,choice,wb,binary,catch,null,microwave ovens,85,65,45,5,null,null,1,NA,NA,NA,NA,NA,NA,NA,NA,NA,NA
NA,NA,NA,NA,NA,choice_trial,survey-html-form,9,131439,0.0-4.0-1.2,87,1,2025-04-29T13:11:10Z,b60275e29fe2361ab97ac0ac217840d7,"Mozilla/5.0 (Macintosh; Intel Mac OS X 10_15_7) AppleWebKit/605.1.15 (KHTML, like Gecko) Version/17.0 Safari/605.1.15",Macintosh,Safari,17,OS X,10_15_7,https://5puzkbbxv1.cognition.run/?sona_id=53386,"en-US,en;q=0.9",h7qh9qq4g8gy5q8,19,"[""White""]",No,Female,NA,No,839346,NA,12533,NA,"{""product_choice"":""B""}",choice,wb,binary,catch,null,microwave ovens,85,65,45,5,null,null,1,null,null,null,null,null,null,Warranty,Cooking power,NA,NA
NA,NA,NA,NA,NA,choice_trial_setup,html-keyboard-response,10,131742,0.0-4.0-0.3,87,1,2025-04-29T13:11:10Z,b60275e29fe2361ab97ac0ac217840d7,"Mozilla/5.0 (Macintosh; Intel Mac OS X 10_15_7) AppleWebKit/605.1.15 (KHTML, like Gecko) Version/17.0 Safari/605.1.15",Macintosh,Safari,17,OS X,10_15_7,https://5puzkbbxv1.cognition.run/?sona_id=53386,"en-US,en;q=0.9",h7qh9qq4g8gy5q8,19,"[""White""]",No,Female,NA,No,839346,NA,null,<p></p>,null,choice,ct,binary,repulsion,1,televisions,null,null,null,null,null,null,2,NA,NA,NA,NA,NA,NA,NA,NA,NA,NA
NA,NA,NA,NA,NA,choice_trial,survey-html-form,11,148845,0.0-4.0-1.3,87,1,2025-04-29T13:11:10Z,b60275e29fe2361ab97ac0ac217840d7,"Mozilla/5.0 (Macintosh; Intel Mac OS X 10_15_7) AppleWebKit/605.1.15 (KHTML, like Gecko) Version/17.0 Safari/605.1.15",Macintosh,Safari,17,OS X,10_15_7,https://5puzkbbxv1.cognition.run/?sona_id=53386,"en-US,en;q=0.9",h7qh9qq4g8gy5q8,19,"[""White""]",No,Female,NA,No,839346,NA,17098,NA,"{""product_choice"":""A""}",choice,ct,binary,repulsion,1,televisions,null,null,null,null,null,null,2,100,90,null,30,40,null,Screen size,Average lifespan,NA,NA
NA,NA,NA,NA,NA,choice_trial_setup,html-keyboard-response,12,149148,0.0-4.0-0.4,87,1,2025-04-29T13:11:10Z,b60275e29fe2361ab97ac0ac217840d7,"Mozilla/5.0 (Macintosh; Intel Mac OS X 10_15_7) AppleWebKit/605.1.15 (KHTML, like Gecko) Version/17.0 Safari/605.1.15",Macintosh,Safari,17,OS X,10_15_7,https://5puzkbbxv1.cognition.run/?sona_id=53386,"en-US,en;q=0.9",h7qh9qq4g8gy5q8,19,"[""White""]",No,Female,NA,No,839346,NA,null,<p></p>,null,choice,cdt,trinary,attraction,1,washing machines,null,null,null,null,null,null,1,NA,NA,NA,NA,NA,NA,NA,NA,NA,NA
NA,NA,NA,NA,NA,choice_trial,survey-html-form,13,164764,0.0-4.0-1.4,87,1,2025-04-29T13:11:10Z,b60275e29fe2361ab97ac0ac217840d7,"Mozilla/5.0 (Macintosh; Intel Mac OS X 10_15_7) AppleWebKit/605.1.15 (KHTML, like Gecko) Version/17.0 Safari/605.1.15",Macintosh,Safari,17,OS X,10_15_7,https://5puzkbbxv1.cognition.run/?sona_id=53386,"en-US,en;q=0.9",h7qh9qq4g8gy5q8,19,"[""White""]",No,Female,NA,No,839346,NA,15611,NA,"{""product_choice"":""C""}",choice,cdt,trinary,attraction,1,washing machines,null,null,null,null,null,null,1,60,50,60,50,60,40,Average lifespan,Energy savings,NA,NA
NA,NA,NA,NA,NA,choice_trial_setup,html-keyboard-response,14,165067,0.0-4.0-0.5,87,1,2025-04-29T13:11:10Z,b60275e29fe2361ab97ac0ac217840d7,"Mozilla/5.0 (Macintosh; Intel Mac OS X 10_15_7) AppleWebKit/605.1.15 (KHTML, like Gecko) Version/17.0 Safari/605.1.15",Macintosh,Safari,17,OS X,10_15_7,https://5puzkbbxv1.cognition.run/?sona_id=53386,"en-US,en;q=0.9",h7qh9qq4g8gy5q8,19,"[""White""]",No,Female,NA,No,839346,NA,null,<p></p>,null,choice,wbw,trinary,catch,null,microwave ovens,80,90,10,50,45,40,1,NA,NA,NA,NA,NA,NA,NA,NA,NA,NA
NA,NA,NA,NA,NA,choice_trial,survey-html-form,15,180971,0.0-4.0-1.5,87,1,2025-04-29T13:11:10Z,b60275e29fe2361ab97ac0ac217840d7,"Mozilla/5.0 (Macintosh; Intel Mac OS X 10_15_7) AppleWebKit/605.1.15 (KHTML, like Gecko) Version/17.0 Safari/605.1.15",Macintosh,Safari,17,OS X,10_15_7,https://5puzkbbxv1.cognition.run/?sona_id=53386,"en-US,en;q=0.9",h7qh9qq4g8gy5q8,19,"[""White""]",No,Female,NA,No,839346,NA,15899,NA,"{""product_choice"":""B""}",choice,wbw,trinary,catch,null,microwave ovens,80,90,10,50,45,40,1,null,null,null,null,null,null,Warranty,Cooking power,NA,NA
NA,NA,NA,NA,NA,choice_trial_setup,html-keyboard-response,16,181273,0.0-4.0-0.6,87,1,2025-04-29T13:11:10Z,b60275e29fe2361ab97ac0ac217840d7,"Mozilla/5.0 (Macintosh; Intel Mac OS X 10_15_7) AppleWebKit/605.1.15 (KHTML, like Gecko) Version/17.0 Safari/605.1.15",Macintosh,Safari,17,OS X,10_15_7,https://5puzkbbxv1.cognition.run/?sona_id=53386,"en-US,en;q=0.9",h7qh9qq4g8gy5q8,19,"[""White""]",No,Female,NA,No,839346,NA,null,<p></p>,null,choice,tcd,trinary,attraction,2,microwave ovens,null,null,null,null,null,null,1,NA,NA,NA,NA,NA,NA,NA,NA,NA,NA
NA,NA,NA,NA,NA,choice_trial,survey-html-form,17,195144,0.0-4.0-1.6,87,1,2025-04-29T13:11:10Z,b60275e29fe2361ab97ac0ac217840d7,"Mozilla/5.0 (Macintosh; Intel Mac OS X 10_15_7) AppleWebKit/605.1.15 (KHTML, like Gecko) Version/17.0 Safari/605.1.15",Macintosh,Safari,17,OS X,10_15_7,https://5puzkbbxv1.cognition.run/?sona_id=53386,"en-US,en;q=0.9",h7qh9qq4g8gy5q8,19,"[""White""]",No,Female,NA,No,839346,NA,13866,NA,"{""product_choice"":""A""}",choice,tcd,trinary,attraction,2,microwave ovens,null,null,null,null,null,null,1,50,60,40,60,50,60,Warranty,Cooking power,NA,NA
NA,NA,NA,NA,NA,choice_trial_setup,html-keyboard-response,18,195449,0.0-4.0-0.7,87,1,2025-04-29T13:11:10Z,b60275e29fe2361ab97ac0ac217840d7,"Mozilla/5.0 (Macintosh; Intel Mac OS X 10_15_7) AppleWebKit/605.1.15 (KHTML, like Gecko) Version/17.0 Safari/605.1.15",Macintosh,Safari,17,OS X,10_15_7,https://5puzkbbxv1.cognition.run/?sona_id=53386,"en-US,en;q=0.9",h7qh9qq4g8gy5q8,19,"[""White""]",No,Female,NA,No,839346,NA,null,<p></p>,null,choice,tc,binary,attraction,NA,washing machines,null,null,null,null,null,null,1,NA,NA,NA,NA,NA,NA,NA,NA,NA,NA
NA,NA,NA,NA,NA,choice_trial,survey-html-form,19,206156,0.0-4.0-1.7,87,1,2025-04-29T13:11:10Z,b60275e29fe2361ab97ac0ac217840d7,"Mozilla/5.0 (Macintosh; Intel Mac OS X 10_15_7) AppleWebKit/605.1.15 (KHTML, like Gecko) Version/17.0 Safari/605.1.15",Macintosh,Safari,17,OS X,10_15_7,https://5puzkbbxv1.cognition.run/?sona_id=53386,"en-US,en;q=0.9",h7qh9qq4g8gy5q8,19,"[""White""]",No,Female,NA,No,839346,NA,10702,NA,"{""product_choice"":""A""}",choice,tc,binary,attraction,NA,washing machines,null,null,null,null,null,null,1,60,50,null,50,60,null,Average lifespan,Energy savings,NA,NA
NA,NA,NA,NA,NA,choice_trial_setup,html-keyboard-response,20,206461,0.0-4.0-0.8,87,1,2025-04-29T13:11:10Z,b60275e29fe2361ab97ac0ac217840d7,"Mozilla/5.0 (Macintosh; Intel Mac OS X 10_15_7) AppleWebKit/605.1.15 (KHTML, like Gecko) Version/17.0 Safari/605.1.15",Macintosh,Safari,17,OS X,10_15_7,https://5puzkbbxv1.cognition.run/?sona_id=53386,"en-US,en;q=0.9",h7qh9qq4g8gy5q8,19,"[""White""]",No,Female,NA,No,839346,NA,null,<p></p>,null,choice,dct,trinary,attraction,1,televisions,null,null,null,null,null,null,2,NA,NA,NA,NA,NA,NA,NA,NA,NA,NA
NA,NA,NA,NA,NA,choice_trial,survey-html-form,21,252573,0.0-4.0-1.8,87,1,2025-04-29T13:11:10Z,b60275e29fe2361ab97ac0ac217840d7,"Mozilla/5.0 (Macintosh; Intel Mac OS X 10_15_7) AppleWebKit/605.1.15 (KHTML, like Gecko) Version/17.0 Safari/605.1.15",Macintosh,Safari,17,OS X,10_15_7,https://5puzkbbxv1.cognition.run/?sona_id=53386,"en-US,en;q=0.9",h7qh9qq4g8gy5q8,19,"[""White""]",No,Female,NA,No,839346,NA,46107,NA,"{""product_choice"":""C""}",choice,dct,trinary,attraction,1,televisions,null,null,null,null,null,null,2,60,50,60,50,60,40,Screen size,Average lifespan,NA,NA
NA,NA,NA,NA,NA,choice_trial_setup,html-keyboard-response,22,252877,0.0-4.0-0.9,87,1,2025-04-29T13:11:10Z,b60275e29fe2361ab97ac0ac217840d7,"Mozilla/5.0 (Macintosh; Intel Mac OS X 10_15_7) AppleWebKit/605.1.15 (KHTML, like Gecko) Version/17.0 Safari/605.1.15",Macintosh,Safari,17,OS X,10_15_7,https://5puzkbbxv1.cognition.run/?sona_id=53386,"en-US,en;q=0.9",h7qh9qq4g8gy5q8,19,"[""White""]",No,Female,NA,No,839346,NA,null,<p></p>,null,choice,ct,binary,attraction,NA,laptops,null,null,null,null,null,null,1,NA,NA,NA,NA,NA,NA,NA,NA,NA,NA
NA,NA,NA,NA,NA,choice_trial,survey-html-form,23,265779,0.0-4.0-1.9,87,1,2025-04-29T13:11:10Z,b60275e29fe2361ab97ac0ac217840d7,"Mozilla/5.0 (Macintosh; Intel Mac OS X 10_15_7) AppleWebKit/605.1.15 (KHTML, like Gecko) Version/17.0 Safari/605.1.15",Macintosh,Safari,17,OS X,10_15_7,https://5puzkbbxv1.cognition.run/?sona_id=53386,"en-US,en;q=0.9",h7qh9qq4g8gy5q8,19,"[""White""]",No,Female,NA,No,839346,NA,12897,NA,"{""product_choice"":""B""}",choice,ct,binary,attraction,NA,laptops,null,null,null,null,null,null,1,60,50,null,50,60,null,Processing speed,Memory (RAM),NA,NA
NA,NA,NA,NA,NA,choice_trial_setup,html-keyboard-response,24,266084,0.0-4.0-0.10,87,1,2025-04-29T13:11:10Z,b60275e29fe2361ab97ac0ac217840d7,"Mozilla/5.0 (Macintosh; Intel Mac OS X 10_15_7) AppleWebKit/605.1.15 (KHTML, like Gecko) Version/17.0 Safari/605.1.15",Macintosh,Safari,17,OS X,10_15_7,https://5puzkbbxv1.cognition.run/?sona_id=53386,"en-US,en;q=0.9",h7qh9qq4g8gy5q8,19,"[""White""]",No,Female,NA,No,839346,NA,null,<p></p>,null,choice,tcd,trinary,repulsion_B,1,televisions,null,null,null,null,null,null,1,NA,NA,NA,NA,NA,NA,NA,NA,NA,NA
NA,NA,NA,NA,NA,choice_trial,survey-html-form,25,277136,0.0-4.0-1.10,87,1,2025-04-29T13:11:10Z,b60275e29fe2361ab97ac0ac217840d7,"Mozilla/5.0 (Macintosh; Intel Mac OS X 10_15_7) AppleWebKit/605.1.15 (KHTML, like Gecko) Version/17.0 Safari/605.1.15",Macintosh,Safari,17,OS X,10_15_7,https://5puzkbbxv1.cognition.run/?sona_id=53386,"en-US,en;q=0.9",h7qh9qq4g8gy5q8,19,"[""White""]",No,Female,NA,No,839346,NA,11048,NA,"{""product_choice"":""A""}",choice,tcd,trinary,repulsion_B,1,televisions,null,null,null,null,null,null,1,90,100,80,40,30,40,Screen size,Average lifespan,NA,NA
NA,NA,NA,NA,NA,choice_trial_setup,html-keyboard-response,26,277439,0.0-4.0-0.11,87,1,2025-04-29T13:11:10Z,b60275e29fe2361ab97ac0ac217840d7,"Mozilla/5.0 (Macintosh; Intel Mac OS X 10_15_7) AppleWebKit/605.1.15 (KHTML, like Gecko) Version/17.0 Safari/605.1.15",Macintosh,Safari,17,OS X,10_15_7,https://5puzkbbxv1.cognition.run/?sona_id=53386,"en-US,en;q=0.9",h7qh9qq4g8gy5q8,19,"[""White""]",No,Female,NA,No,839346,NA,null,<p></p>,null,choice,tdc,trinary,repulsion_A,1,microwave ovens,null,null,null,null,null,null,2,NA,NA,NA,NA,NA,NA,NA,NA,NA,NA
NA,NA,NA,NA,NA,choice_trial,survey-html-form,27,290286,0.0-4.0-1.11,87,1,2025-04-29T13:11:10Z,b60275e29fe2361ab97ac0ac217840d7,"Mozilla/5.0 (Macintosh; Intel Mac OS X 10_15_7) AppleWebKit/605.1.15 (KHTML, like Gecko) Version/17.0 Safari/605.1.15",Macintosh,Safari,17,OS X,10_15_7,https://5puzkbbxv1.cognition.run/?sona_id=53386,"en-US,en;q=0.9",h7qh9qq4g8gy5q8,19,"[""White""]",No,Female,NA,No,839346,NA,12843,NA,"{""product_choice"":""C""}",choice,tdc,trinary,repulsion_A,1,microwave ovens,null,null,null,null,null,null,2,100,90,100,30,40,20,Warranty,Cooking power,NA,NA
NA,NA,NA,NA,NA,choice_trial_setup,html-keyboard-response,28,290589,0.0-4.0-0.12,87,1,2025-04-29T13:11:10Z,b60275e29fe2361ab97ac0ac217840d7,"Mozilla/5.0 (Macintosh; Intel Mac OS X 10_15_7) AppleWebKit/605.1.15 (KHTML, like Gecko) Version/17.0 Safari/605.1.15",Macintosh,Safari,17,OS X,10_15_7,https://5puzkbbxv1.cognition.run/?sona_id=53386,"en-US,en;q=0.9",h7qh9qq4g8gy5q8,19,"[""White""]",No,Female,NA,No,839346,NA,null,<p></p>,null,choice,cdt,trinary,attraction,1,microwave ovens,null,null,null,null,null,null,2,NA,NA,NA,NA,NA,NA,NA,NA,NA,NA
NA,NA,NA,NA,NA,choice_trial,survey-html-form,29,309558,0.0-4.0-1.12,87,1,2025-04-29T13:11:10Z,b60275e29fe2361ab97ac0ac217840d7,"Mozilla/5.0 (Macintosh; Intel Mac OS X 10_15_7) AppleWebKit/605.1.15 (KHTML, like Gecko) Version/17.0 Safari/605.1.15",Macintosh,Safari,17,OS X,10_15_7,https://5puzkbbxv1.cognition.run/?sona_id=53386,"en-US,en;q=0.9",h7qh9qq4g8gy5q8,19,"[""White""]",No,Female,NA,No,839346,NA,18963,NA,"{""product_choice"":""C""}",choice,cdt,trinary,attraction,1,microwave ovens,null,null,null,null,null,null,2,60,50,60,50,60,40,Warranty,Cooking power,NA,NA
NA,NA,NA,NA,NA,choice_trial_setup,html-keyboard-response,30,309861,0.0-4.0-0.13,87,1,2025-04-29T13:11:10Z,b60275e29fe2361ab97ac0ac217840d7,"Mozilla/5.0 (Macintosh; Intel Mac OS X 10_15_7) AppleWebKit/605.1.15 (KHTML, like Gecko) Version/17.0 Safari/605.1.15",Macintosh,Safari,17,OS X,10_15_7,https://5puzkbbxv1.cognition.run/?sona_id=53386,"en-US,en;q=0.9",h7qh9qq4g8gy5q8,19,"[""White""]",No,Female,NA,No,839346,NA,null,<p></p>,null,choice,ct,binary,repulsion,2,microwave ovens,null,null,null,null,null,null,2,NA,NA,NA,NA,NA,NA,NA,NA,NA,NA
NA,NA,NA,NA,NA,choice_trial,survey-html-form,31,318643,0.0-4.0-1.13,87,1,2025-04-29T13:11:10Z,b60275e29fe2361ab97ac0ac217840d7,"Mozilla/5.0 (Macintosh; Intel Mac OS X 10_15_7) AppleWebKit/605.1.15 (KHTML, like Gecko) Version/17.0 Safari/605.1.15",Macintosh,Safari,17,OS X,10_15_7,https://5puzkbbxv1.cognition.run/?sona_id=53386,"en-US,en;q=0.9",h7qh9qq4g8gy5q8,19,"[""White""]",No,Female,NA,No,839346,NA,8777,NA,"{""product_choice"":""A""}",choice,ct,binary,repulsion,2,microwave ovens,null,null,null,null,null,null,2,30,40,null,100,90,null,Warranty,Cooking power,NA,NA
NA,NA,NA,NA,NA,choice_trial_setup,html-keyboard-response,32,318945,0.0-4.0-0.14,87,1,2025-04-29T13:11:10Z,b60275e29fe2361ab97ac0ac217840d7,"Mozilla/5.0 (Macintosh; Intel Mac OS X 10_15_7) AppleWebKit/605.1.15 (KHTML, like Gecko) Version/17.0 Safari/605.1.15",Macintosh,Safari,17,OS X,10_15_7,https://5puzkbbxv1.cognition.run/?sona_id=53386,"en-US,en;q=0.9",h7qh9qq4g8gy5q8,19,"[""White""]",No,Female,NA,No,839346,NA,null,<p></p>,null,choice,cdt,trinary,repulsion_A,2,washing machines,null,null,null,null,null,null,2,NA,NA,NA,NA,NA,NA,NA,NA,NA,NA
NA,NA,NA,NA,NA,choice_trial,survey-html-form,33,331615,0.0-4.0-1.14,87,1,2025-04-29T13:11:10Z,b60275e29fe2361ab97ac0ac217840d7,"Mozilla/5.0 (Macintosh; Intel Mac OS X 10_15_7) AppleWebKit/605.1.15 (KHTML, like Gecko) Version/17.0 Safari/605.1.15",Macintosh,Safari,17,OS X,10_15_7,https://5puzkbbxv1.cognition.run/?sona_id=53386,"en-US,en;q=0.9",h7qh9qq4g8gy5q8,19,"[""White""]",No,Female,NA,No,839346,NA,12664,NA,"{""product_choice"":""C""}",choice,cdt,trinary,repulsion_A,2,washing machines,null,null,null,null,null,null,2,30,40,20,100,90,100,Average lifespan,Energy savings,NA,NA
NA,NA,NA,NA,NA,choice_trial_setup,html-keyboard-response,34,331918,0.0-4.0-0.15,87,1,2025-04-29T13:11:10Z,b60275e29fe2361ab97ac0ac217840d7,"Mozilla/5.0 (Macintosh; Intel Mac OS X 10_15_7) AppleWebKit/605.1.15 (KHTML, like Gecko) Version/17.0 Safari/605.1.15",Macintosh,Safari,17,OS X,10_15_7,https://5puzkbbxv1.cognition.run/?sona_id=53386,"en-US,en;q=0.9",h7qh9qq4g8gy5q8,19,"[""White""]",No,Female,NA,No,839346,NA,null,<p></p>,null,choice,dct,trinary,attraction,2,televisions,null,null,null,null,null,null,2,NA,NA,NA,NA,NA,NA,NA,NA,NA,NA
NA,NA,NA,NA,NA,choice_trial,survey-html-form,35,344975,0.0-4.0-1.15,87,1,2025-04-29T13:11:10Z,b60275e29fe2361ab97ac0ac217840d7,"Mozilla/5.0 (Macintosh; Intel Mac OS X 10_15_7) AppleWebKit/605.1.15 (KHTML, like Gecko) Version/17.0 Safari/605.1.15",Macintosh,Safari,17,OS X,10_15_7,https://5puzkbbxv1.cognition.run/?sona_id=53386,"en-US,en;q=0.9",h7qh9qq4g8gy5q8,19,"[""White""]",No,Female,NA,No,839346,NA,13053,NA,"{""product_choice"":""C""}",choice,dct,trinary,attraction,2,televisions,null,null,null,null,null,null,2,50,60,40,60,50,60,Screen size,Average lifespan,NA,NA
NA,NA,NA,NA,NA,choice_trial_setup,html-keyboard-response,36,345280,0.0-4.0-0.16,87,1,2025-04-29T13:11:10Z,b60275e29fe2361ab97ac0ac217840d7,"Mozilla/5.0 (Macintosh; Intel Mac OS X 10_15_7) AppleWebKit/605.1.15 (KHTML, like Gecko) Version/17.0 Safari/605.1.15",Macintosh,Safari,17,OS X,10_15_7,https://5puzkbbxv1.cognition.run/?sona_id=53386,"en-US,en;q=0.9",h7qh9qq4g8gy5q8,19,"[""White""]",No,Female,NA,No,839346,NA,null,<p></p>,null,choice,ctd,trinary,repulsion_B,1,laptops,null,null,null,null,null,null,1,NA,NA,NA,NA,NA,NA,NA,NA,NA,NA
NA,NA,NA,NA,NA,choice_trial,survey-html-form,37,353567,0.0-4.0-1.16,87,1,2025-04-29T13:11:10Z,b60275e29fe2361ab97ac0ac217840d7,"Mozilla/5.0 (Macintosh; Intel Mac OS X 10_15_7) AppleWebKit/605.1.15 (KHTML, like Gecko) Version/17.0 Safari/605.1.15",Macintosh,Safari,17,OS X,10_15_7,https://5puzkbbxv1.cognition.run/?sona_id=53386,"en-US,en;q=0.9",h7qh9qq4g8gy5q8,19,"[""White""]",No,Female,NA,No,839346,NA,8282,NA,"{""product_choice"":""B""}",choice,ctd,trinary,repulsion_B,1,laptops,null,null,null,null,null,null,1,90,100,80,40,30,40,Processing speed,Memory (RAM),NA,NA
NA,NA,NA,NA,NA,choice_trial_setup,html-keyboard-response,38,353871,0.0-4.0-0.17,87,1,2025-04-29T13:11:10Z,b60275e29fe2361ab97ac0ac217840d7,"Mozilla/5.0 (Macintosh; Intel Mac OS X 10_15_7) AppleWebKit/605.1.15 (KHTML, like Gecko) Version/17.0 Safari/605.1.15",Macintosh,Safari,17,OS X,10_15_7,https://5puzkbbxv1.cognition.run/?sona_id=53386,"en-US,en;q=0.9",h7qh9qq4g8gy5q8,19,"[""White""]",No,Female,NA,No,839346,NA,null,<p></p>,null,choice,bw,binary,catch,null,washing machines,90,65,35,10,null,null,2,NA,NA,NA,NA,NA,NA,NA,NA,NA,NA
NA,NA,NA,NA,NA,choice_trial,survey-html-form,39,365995,0.0-4.0-1.17,87,1,2025-04-29T13:11:10Z,b60275e29fe2361ab97ac0ac217840d7,"Mozilla/5.0 (Macintosh; Intel Mac OS X 10_15_7) AppleWebKit/605.1.15 (KHTML, like Gecko) Version/17.0 Safari/605.1.15",Macintosh,Safari,17,OS X,10_15_7,https://5puzkbbxv1.cognition.run/?sona_id=53386,"en-US,en;q=0.9",h7qh9qq4g8gy5q8,19,"[""White""]",No,Female,NA,No,839346,NA,12121,NA,"{""product_choice"":""A""}",choice,bw,binary,catch,null,washing machines,90,65,35,10,null,null,2,null,null,null,null,null,null,Average lifespan,Energy savings,NA,NA
NA,NA,NA,NA,NA,choice_trial_setup,html-keyboard-response,40,366299,0.0-4.0-0.18,87,1,2025-04-29T13:11:10Z,b60275e29fe2361ab97ac0ac217840d7,"Mozilla/5.0 (Macintosh; Intel Mac OS X 10_15_7) AppleWebKit/605.1.15 (KHTML, like Gecko) Version/17.0 Safari/605.1.15",Macintosh,Safari,17,OS X,10_15_7,https://5puzkbbxv1.cognition.run/?sona_id=53386,"en-US,en;q=0.9",h7qh9qq4g8gy5q8,19,"[""White""]",No,Female,NA,No,839346,NA,null,<p></p>,null,choice,ct,binary,repulsion,2,televisions,null,null,null,null,null,null,1,NA,NA,NA,NA,NA,NA,NA,NA,NA,NA
NA,NA,NA,NA,NA,choice_trial,survey-html-form,41,376054,0.0-4.0-1.18,87,1,2025-04-29T13:11:10Z,b60275e29fe2361ab97ac0ac217840d7,"Mozilla/5.0 (Macintosh; Intel Mac OS X 10_15_7) AppleWebKit/605.1.15 (KHTML, like Gecko) Version/17.0 Safari/605.1.15",Macintosh,Safari,17,OS X,10_15_7,https://5puzkbbxv1.cognition.run/?sona_id=53386,"en-US,en;q=0.9",h7qh9qq4g8gy5q8,19,"[""White""]",No,Female,NA,No,839346,NA,9751,NA,"{""product_choice"":""A""}",choice,ct,binary,repulsion,2,televisions,null,null,null,null,null,null,1,30,40,null,100,90,null,Screen size,Average lifespan,NA,NA
NA,NA,NA,NA,NA,choice_trial_setup,html-keyboard-response,42,376358,0.0-4.0-0.19,87,1,2025-04-29T13:11:10Z,b60275e29fe2361ab97ac0ac217840d7,"Mozilla/5.0 (Macintosh; Intel Mac OS X 10_15_7) AppleWebKit/605.1.15 (KHTML, like Gecko) Version/17.0 Safari/605.1.15",Macintosh,Safari,17,OS X,10_15_7,https://5puzkbbxv1.cognition.run/?sona_id=53386,"en-US,en;q=0.9",h7qh9qq4g8gy5q8,19,"[""White""]",No,Female,NA,No,839346,NA,null,<p></p>,null,choice,cdt,trinary,repulsion_B,2,microwave ovens,null,null,null,null,null,null,1,NA,NA,NA,NA,NA,NA,NA,NA,NA,NA
NA,NA,NA,NA,NA,choice_trial,survey-html-form,43,394278,0.0-4.0-1.19,87,1,2025-04-29T13:11:10Z,b60275e29fe2361ab97ac0ac217840d7,"Mozilla/5.0 (Macintosh; Intel Mac OS X 10_15_7) AppleWebKit/605.1.15 (KHTML, like Gecko) Version/17.0 Safari/605.1.15",Macintosh,Safari,17,OS X,10_15_7,https://5puzkbbxv1.cognition.run/?sona_id=53386,"en-US,en;q=0.9",h7qh9qq4g8gy5q8,19,"[""White""]",No,Female,NA,No,839346,NA,17916,NA,"{""product_choice"":""C""}",choice,cdt,trinary,repulsion_B,2,microwave ovens,null,null,null,null,null,null,1,40,30,40,90,100,80,Warranty,Cooking power,NA,NA
NA,NA,NA,NA,NA,choice_trial_setup,html-keyboard-response,44,394583,0.0-4.0-0.20,87,1,2025-04-29T13:11:10Z,b60275e29fe2361ab97ac0ac217840d7,"Mozilla/5.0 (Macintosh; Intel Mac OS X 10_15_7) AppleWebKit/605.1.15 (KHTML, like Gecko) Version/17.0 Safari/605.1.15",Macintosh,Safari,17,OS X,10_15_7,https://5puzkbbxv1.cognition.run/?sona_id=53386,"en-US,en;q=0.9",h7qh9qq4g8gy5q8,19,"[""White""]",No,Female,NA,No,839346,NA,null,<p></p>,null,choice,wb,binary,catch,null,laptops,85,90,35,40,null,null,1,NA,NA,NA,NA,NA,NA,NA,NA,NA,NA
NA,NA,NA,NA,NA,choice_trial,survey-html-form,45,399770,0.0-4.0-1.20,87,1,2025-04-29T13:11:10Z,b60275e29fe2361ab97ac0ac217840d7,"Mozilla/5.0 (Macintosh; Intel Mac OS X 10_15_7) AppleWebKit/605.1.15 (KHTML, like Gecko) Version/17.0 Safari/605.1.15",Macintosh,Safari,17,OS X,10_15_7,https://5puzkbbxv1.cognition.run/?sona_id=53386,"en-US,en;q=0.9",h7qh9qq4g8gy5q8,19,"[""White""]",No,Female,NA,No,839346,NA,5182,NA,"{""product_choice"":""B""}",choice,wb,binary,catch,null,laptops,85,90,35,40,null,null,1,null,null,null,null,null,null,Processing speed,Memory (RAM),NA,NA
NA,NA,NA,NA,NA,choice_trial_setup,html-keyboard-response,46,400077,0.0-4.0-0.21,87,1,2025-04-29T13:11:10Z,b60275e29fe2361ab97ac0ac217840d7,"Mozilla/5.0 (Macintosh; Intel Mac OS X 10_15_7) AppleWebKit/605.1.15 (KHTML, like Gecko) Version/17.0 Safari/605.1.15",Macintosh,Safari,17,OS X,10_15_7,https://5puzkbbxv1.cognition.run/?sona_id=53386,"en-US,en;q=0.9",h7qh9qq4g8gy5q8,19,"[""White""]",No,Female,NA,No,839346,NA,null,<p></p>,null,choice,dct,trinary,repulsion_A,1,televisions,null,null,null,null,null,null,1,NA,NA,NA,NA,NA,NA,NA,NA,NA,NA
NA,NA,NA,NA,NA,choice_trial,survey-html-form,47,408941,0.0-4.0-1.21,87,1,2025-04-29T13:11:10Z,b60275e29fe2361ab97ac0ac217840d7,"Mozilla/5.0 (Macintosh; Intel Mac OS X 10_15_7) AppleWebKit/605.1.15 (KHTML, like Gecko) Version/17.0 Safari/605.1.15",Macintosh,Safari,17,OS X,10_15_7,https://5puzkbbxv1.cognition.run/?sona_id=53386,"en-US,en;q=0.9",h7qh9qq4g8gy5q8,19,"[""White""]",No,Female,NA,No,839346,NA,8859,NA,"{""product_choice"":""B""}",choice,dct,trinary,repulsion_A,1,televisions,null,null,null,null,null,null,1,100,90,100,30,40,20,Screen size,Average lifespan,NA,NA
NA,NA,NA,NA,NA,choice_trial_setup,html-keyboard-response,48,409245,0.0-4.0-0.22,87,1,2025-04-29T13:11:10Z,b60275e29fe2361ab97ac0ac217840d7,"Mozilla/5.0 (Macintosh; Intel Mac OS X 10_15_7) AppleWebKit/605.1.15 (KHTML, like Gecko) Version/17.0 Safari/605.1.15",Macintosh,Safari,17,OS X,10_15_7,https://5puzkbbxv1.cognition.run/?sona_id=53386,"en-US,en;q=0.9",h7qh9qq4g8gy5q8,19,"[""White""]",No,Female,NA,No,839346,NA,null,<p></p>,null,choice,wbw,trinary,catch,null,laptops,65,65,50,50,50,5,2,NA,NA,NA,NA,NA,NA,NA,NA,NA,NA
NA,NA,NA,NA,NA,choice_trial,survey-html-form,49,416409,0.0-4.0-1.22,87,1,2025-04-29T13:11:10Z,b60275e29fe2361ab97ac0ac217840d7,"Mozilla/5.0 (Macintosh; Intel Mac OS X 10_15_7) AppleWebKit/605.1.15 (KHTML, like Gecko) Version/17.0 Safari/605.1.15",Macintosh,Safari,17,OS X,10_15_7,https://5puzkbbxv1.cognition.run/?sona_id=53386,"en-US,en;q=0.9",h7qh9qq4g8gy5q8,19,"[""White""]",No,Female,NA,No,839346,NA,7159,NA,"{""product_choice"":""B""}",choice,wbw,trinary,catch,null,laptops,65,65,50,50,50,5,2,null,null,null,null,null,null,Processing speed,Memory (RAM),NA,NA
NA,NA,NA,NA,NA,choice_trial_setup,html-keyboard-response,50,416713,0.0-4.0-0.23,87,1,2025-04-29T13:11:10Z,b60275e29fe2361ab97ac0ac217840d7,"Mozilla/5.0 (Macintosh; Intel Mac OS X 10_15_7) AppleWebKit/605.1.15 (KHTML, like Gecko) Version/17.0 Safari/605.1.15",Macintosh,Safari,17,OS X,10_15_7,https://5puzkbbxv1.cognition.run/?sona_id=53386,"en-US,en;q=0.9",h7qh9qq4g8gy5q8,19,"[""White""]",No,Female,NA,No,839346,NA,null,<p></p>,null,choice,wwb,trinary,catch,null,washing machines,70,60,40,45,5,40,1,NA,NA,NA,NA,NA,NA,NA,NA,NA,NA
NA,NA,NA,NA,NA,choice_trial,survey-html-form,51,422723,0.0-4.0-1.23,87,1,2025-04-29T13:11:10Z,b60275e29fe2361ab97ac0ac217840d7,"Mozilla/5.0 (Macintosh; Intel Mac OS X 10_15_7) AppleWebKit/605.1.15 (KHTML, like Gecko) Version/17.0 Safari/605.1.15",Macintosh,Safari,17,OS X,10_15_7,https://5puzkbbxv1.cognition.run/?sona_id=53386,"en-US,en;q=0.9",h7qh9qq4g8gy5q8,19,"[""White""]",No,Female,NA,No,839346,NA,6004,NA,"{""product_choice"":""C""}",choice,wwb,trinary,catch,null,washing machines,70,60,40,45,5,40,1,null,null,null,null,null,null,Average lifespan,Energy savings,NA,NA
NA,NA,NA,NA,NA,choice_trial_setup,html-keyboard-response,52,423026,0.0-4.0-0.24,87,1,2025-04-29T13:11:10Z,b60275e29fe2361ab97ac0ac217840d7,"Mozilla/5.0 (Macintosh; Intel Mac OS X 10_15_7) AppleWebKit/605.1.15 (KHTML, like Gecko) Version/17.0 Safari/605.1.15",Macintosh,Safari,17,OS X,10_15_7,https://5puzkbbxv1.cognition.run/?sona_id=53386,"en-US,en;q=0.9",h7qh9qq4g8gy5q8,19,"[""White""]",No,Female,NA,No,839346,NA,null,<p></p>,null,choice,tcd,trinary,attraction,2,laptops,null,null,null,null,null,null,2,NA,NA,NA,NA,NA,NA,NA,NA,NA,NA
NA,NA,NA,NA,NA,choice_trial,survey-html-form,53,441960,0.0-4.0-1.24,87,1,2025-04-29T13:11:10Z,b60275e29fe2361ab97ac0ac217840d7,"Mozilla/5.0 (Macintosh; Intel Mac OS X 10_15_7) AppleWebKit/605.1.15 (KHTML, like Gecko) Version/17.0 Safari/605.1.15",Macintosh,Safari,17,OS X,10_15_7,https://5puzkbbxv1.cognition.run/?sona_id=53386,"en-US,en;q=0.9",h7qh9qq4g8gy5q8,19,"[""White""]",No,Female,NA,No,839346,NA,18928,NA,"{""product_choice"":""A""}",choice,tcd,trinary,attraction,2,laptops,null,null,null,null,null,null,2,50,60,40,60,50,60,Processing speed,Memory (RAM),NA,NA
NA,NA,NA,NA,NA,choice_trial_setup,html-keyboard-response,54,442264,0.0-4.0-0.25,87,1,2025-04-29T13:11:10Z,b60275e29fe2361ab97ac0ac217840d7,"Mozilla/5.0 (Macintosh; Intel Mac OS X 10_15_7) AppleWebKit/605.1.15 (KHTML, like Gecko) Version/17.0 Safari/605.1.15",Macintosh,Safari,17,OS X,10_15_7,https://5puzkbbxv1.cognition.run/?sona_id=53386,"en-US,en;q=0.9",h7qh9qq4g8gy5q8,19,"[""White""]",No,Female,NA,No,839346,NA,null,<p></p>,null,choice,tc,binary,repulsion,1,washing machines,null,null,null,null,null,null,2,NA,NA,NA,NA,NA,NA,NA,NA,NA,NA
NA,NA,NA,NA,NA,choice_trial,survey-html-form,55,452334,0.0-4.0-1.25,87,1,2025-04-29T13:11:10Z,b60275e29fe2361ab97ac0ac217840d7,"Mozilla/5.0 (Macintosh; Intel Mac OS X 10_15_7) AppleWebKit/605.1.15 (KHTML, like Gecko) Version/17.0 Safari/605.1.15",Macintosh,Safari,17,OS X,10_15_7,https://5puzkbbxv1.cognition.run/?sona_id=53386,"en-US,en;q=0.9",h7qh9qq4g8gy5q8,19,"[""White""]",No,Female,NA,No,839346,NA,10065,NA,"{""product_choice"":""B""}",choice,tc,binary,repulsion,1,washing machines,null,null,null,null,null,null,2,100,90,null,30,40,null,Average lifespan,Energy savings,NA,NA
NA,NA,NA,NA,NA,choice_trial_setup,html-keyboard-response,56,452639,0.0-4.0-0.26,87,1,2025-04-29T13:11:10Z,b60275e29fe2361ab97ac0ac217840d7,"Mozilla/5.0 (Macintosh; Intel Mac OS X 10_15_7) AppleWebKit/605.1.15 (KHTML, like Gecko) Version/17.0 Safari/605.1.15",Macintosh,Safari,17,OS X,10_15_7,https://5puzkbbxv1.cognition.run/?sona_id=53386,"en-US,en;q=0.9",h7qh9qq4g8gy5q8,19,"[""White""]",No,Female,NA,No,839346,NA,null,<p></p>,null,choice,tc,binary,attraction,NA,microwave ovens,null,null,null,null,null,null,1,NA,NA,NA,NA,NA,NA,NA,NA,NA,NA
NA,NA,NA,NA,NA,choice_trial,survey-html-form,57,468092,0.0-4.0-1.26,87,1,2025-04-29T13:11:10Z,b60275e29fe2361ab97ac0ac217840d7,"Mozilla/5.0 (Macintosh; Intel Mac OS X 10_15_7) AppleWebKit/605.1.15 (KHTML, like Gecko) Version/17.0 Safari/605.1.15",Macintosh,Safari,17,OS X,10_15_7,https://5puzkbbxv1.cognition.run/?sona_id=53386,"en-US,en;q=0.9",h7qh9qq4g8gy5q8,19,"[""White""]",No,Female,NA,No,839346,NA,15448,NA,"{""product_choice"":""B""}",choice,tc,binary,attraction,NA,microwave ovens,null,null,null,null,null,null,1,60,50,null,50,60,null,Warranty,Cooking power,NA,NA
NA,NA,NA,NA,NA,choice_trial_setup,html-keyboard-response,58,468396,0.0-4.0-0.27,87,1,2025-04-29T13:11:10Z,b60275e29fe2361ab97ac0ac217840d7,"Mozilla/5.0 (Macintosh; Intel Mac OS X 10_15_7) AppleWebKit/605.1.15 (KHTML, like Gecko) Version/17.0 Safari/605.1.15",Macintosh,Safari,17,OS X,10_15_7,https://5puzkbbxv1.cognition.run/?sona_id=53386,"en-US,en;q=0.9",h7qh9qq4g8gy5q8,19,"[""White""]",No,Female,NA,No,839346,NA,null,<p></p>,null,choice,ct,binary,repulsion,1,laptops,null,null,null,null,null,null,1,NA,NA,NA,NA,NA,NA,NA,NA,NA,NA
NA,NA,NA,NA,NA,choice_trial,survey-html-form,59,475017,0.0-4.0-1.27,87,1,2025-04-29T13:11:10Z,b60275e29fe2361ab97ac0ac217840d7,"Mozilla/5.0 (Macintosh; Intel Mac OS X 10_15_7) AppleWebKit/605.1.15 (KHTML, like Gecko) Version/17.0 Safari/605.1.15",Macintosh,Safari,17,OS X,10_15_7,https://5puzkbbxv1.cognition.run/?sona_id=53386,"en-US,en;q=0.9",h7qh9qq4g8gy5q8,19,"[""White""]",No,Female,NA,No,839346,NA,6616,NA,"{""product_choice"":""A""}",choice,ct,binary,repulsion,1,laptops,null,null,null,null,null,null,1,100,90,null,30,40,null,Processing speed,Memory (RAM),NA,NA
NA,NA,NA,NA,NA,choice_trial_setup,html-keyboard-response,60,475322,0.0-4.0-0.28,87,1,2025-04-29T13:11:10Z,b60275e29fe2361ab97ac0ac217840d7,"Mozilla/5.0 (Macintosh; Intel Mac OS X 10_15_7) AppleWebKit/605.1.15 (KHTML, like Gecko) Version/17.0 Safari/605.1.15",Macintosh,Safari,17,OS X,10_15_7,https://5puzkbbxv1.cognition.run/?sona_id=53386,"en-US,en;q=0.9",h7qh9qq4g8gy5q8,19,"[""White""]",No,Female,NA,No,839346,NA,null,<p></p>,null,choice,tcd,trinary,repulsion_A,2,televisions,null,null,null,null,null,null,2,NA,NA,NA,NA,NA,NA,NA,NA,NA,NA
NA,NA,NA,NA,NA,choice_trial,survey-html-form,61,489492,0.0-4.0-1.28,87,1,2025-04-29T13:11:10Z,b60275e29fe2361ab97ac0ac217840d7,"Mozilla/5.0 (Macintosh; Intel Mac OS X 10_15_7) AppleWebKit/605.1.15 (KHTML, like Gecko) Version/17.0 Safari/605.1.15",Macintosh,Safari,17,OS X,10_15_7,https://5puzkbbxv1.cognition.run/?sona_id=53386,"en-US,en;q=0.9",h7qh9qq4g8gy5q8,19,"[""White""]",No,Female,NA,No,839346,NA,14164,NA,"{""product_choice"":""B""}",choice,tcd,trinary,repulsion_A,2,televisions,null,null,null,null,null,null,2,30,40,20,100,90,100,Screen size,Average lifespan,NA,NA
NA,NA,NA,NA,NA,choice_trial_setup,html-keyboard-response,62,489796,0.0-4.0-0.29,87,1,2025-04-29T13:11:10Z,b60275e29fe2361ab97ac0ac217840d7,"Mozilla/5.0 (Macintosh; Intel Mac OS X 10_15_7) AppleWebKit/605.1.15 (KHTML, like Gecko) Version/17.0 Safari/605.1.15",Macintosh,Safari,17,OS X,10_15_7,https://5puzkbbxv1.cognition.run/?sona_id=53386,"en-US,en;q=0.9",h7qh9qq4g8gy5q8,19,"[""White""]",No,Female,NA,No,839346,NA,null,<p></p>,null,choice,tc,binary,repulsion,1,microwave ovens,null,null,null,null,null,null,1,NA,NA,NA,NA,NA,NA,NA,NA,NA,NA
NA,NA,NA,NA,NA,choice_trial,survey-html-form,63,495472,0.0-4.0-1.29,87,1,2025-04-29T13:11:10Z,b60275e29fe2361ab97ac0ac217840d7,"Mozilla/5.0 (Macintosh; Intel Mac OS X 10_15_7) AppleWebKit/605.1.15 (KHTML, like Gecko) Version/17.0 Safari/605.1.15",Macintosh,Safari,17,OS X,10_15_7,https://5puzkbbxv1.cognition.run/?sona_id=53386,"en-US,en;q=0.9",h7qh9qq4g8gy5q8,19,"[""White""]",No,Female,NA,No,839346,NA,5671,NA,"{""product_choice"":""B""}",choice,tc,binary,repulsion,1,microwave ovens,null,null,null,null,null,null,1,100,90,null,30,40,null,Warranty,Cooking power,NA,NA
NA,NA,NA,NA,NA,choice_trial_setup,html-keyboard-response,64,495776,0.0-4.0-0.30,87,1,2025-04-29T13:11:10Z,b60275e29fe2361ab97ac0ac217840d7,"Mozilla/5.0 (Macintosh; Intel Mac OS X 10_15_7) AppleWebKit/605.1.15 (KHTML, like Gecko) Version/17.0 Safari/605.1.15",Macintosh,Safari,17,OS X,10_15_7,https://5puzkbbxv1.cognition.run/?sona_id=53386,"en-US,en;q=0.9",h7qh9qq4g8gy5q8,19,"[""White""]",No,Female,NA,No,839346,NA,null,<p></p>,null,choice,wwb,trinary,catch,null,televisions,65,65,25,35,20,20,2,NA,NA,NA,NA,NA,NA,NA,NA,NA,NA
NA,NA,NA,NA,NA,choice_trial,survey-html-form,65,506449,0.0-4.0-1.30,87,1,2025-04-29T13:11:10Z,b60275e29fe2361ab97ac0ac217840d7,"Mozilla/5.0 (Macintosh; Intel Mac OS X 10_15_7) AppleWebKit/605.1.15 (KHTML, like Gecko) Version/17.0 Safari/605.1.15",Macintosh,Safari,17,OS X,10_15_7,https://5puzkbbxv1.cognition.run/?sona_id=53386,"en-US,en;q=0.9",h7qh9qq4g8gy5q8,19,"[""White""]",No,Female,NA,No,839346,NA,10668,NA,"{""product_choice"":""C""}",choice,wwb,trinary,catch,null,televisions,65,65,25,35,20,20,2,null,null,null,null,null,null,Screen size,Average lifespan,NA,NA
NA,NA,NA,NA,NA,choice_trial_setup,html-keyboard-response,66,506755,0.0-4.0-0.31,87,1,2025-04-29T13:11:10Z,b60275e29fe2361ab97ac0ac217840d7,"Mozilla/5.0 (Macintosh; Intel Mac OS X 10_15_7) AppleWebKit/605.1.15 (KHTML, like Gecko) Version/17.0 Safari/605.1.15",Macintosh,Safari,17,OS X,10_15_7,https://5puzkbbxv1.cognition.run/?sona_id=53386,"en-US,en;q=0.9",h7qh9qq4g8gy5q8,19,"[""White""]",No,Female,NA,No,839346,NA,null,<p></p>,null,choice,bw,binary,catch,null,televisions,90,90,25,5,null,null,1,NA,NA,NA,NA,NA,NA,NA,NA,NA,NA
NA,NA,NA,NA,NA,choice_trial,survey-html-form,67,510167,0.0-4.0-1.31,87,1,2025-04-29T13:11:10Z,b60275e29fe2361ab97ac0ac217840d7,"Mozilla/5.0 (Macintosh; Intel Mac OS X 10_15_7) AppleWebKit/605.1.15 (KHTML, like Gecko) Version/17.0 Safari/605.1.15",Macintosh,Safari,17,OS X,10_15_7,https://5puzkbbxv1.cognition.run/?sona_id=53386,"en-US,en;q=0.9",h7qh9qq4g8gy5q8,19,"[""White""]",No,Female,NA,No,839346,NA,3405,NA,"{""product_choice"":""A""}",choice,bw,binary,catch,null,televisions,90,90,25,5,null,null,1,null,null,null,null,null,null,Screen size,Average lifespan,NA,NA
NA,NA,NA,NA,NA,choice_trial_setup,html-keyboard-response,68,510473,0.0-4.0-0.32,87,1,2025-04-29T13:11:10Z,b60275e29fe2361ab97ac0ac217840d7,"Mozilla/5.0 (Macintosh; Intel Mac OS X 10_15_7) AppleWebKit/605.1.15 (KHTML, like Gecko) Version/17.0 Safari/605.1.15",Macintosh,Safari,17,OS X,10_15_7,https://5puzkbbxv1.cognition.run/?sona_id=53386,"en-US,en;q=0.9",h7qh9qq4g8gy5q8,19,"[""White""]",No,Female,NA,No,839346,NA,null,<p></p>,null,choice,cdt,trinary,repulsion_B,2,laptops,null,null,null,null,null,null,1,NA,NA,NA,NA,NA,NA,NA,NA,NA,NA
NA,NA,NA,NA,NA,choice_trial,survey-html-form,69,519074,0.0-4.0-1.32,87,1,2025-04-29T13:11:10Z,b60275e29fe2361ab97ac0ac217840d7,"Mozilla/5.0 (Macintosh; Intel Mac OS X 10_15_7) AppleWebKit/605.1.15 (KHTML, like Gecko) Version/17.0 Safari/605.1.15",Macintosh,Safari,17,OS X,10_15_7,https://5puzkbbxv1.cognition.run/?sona_id=53386,"en-US,en;q=0.9",h7qh9qq4g8gy5q8,19,"[""White""]",No,Female,NA,No,839346,NA,8596,NA,"{""product_choice"":""C""}",choice,cdt,trinary,repulsion_B,2,laptops,null,null,null,null,null,null,1,40,30,40,90,100,80,Processing speed,Memory (RAM),NA,NA
NA,NA,NA,NA,NA,choice_trial_setup,html-keyboard-response,70,519379,0.0-4.0-0.33,87,1,2025-04-29T13:11:10Z,b60275e29fe2361ab97ac0ac217840d7,"Mozilla/5.0 (Macintosh; Intel Mac OS X 10_15_7) AppleWebKit/605.1.15 (KHTML, like Gecko) Version/17.0 Safari/605.1.15",Macintosh,Safari,17,OS X,10_15_7,https://5puzkbbxv1.cognition.run/?sona_id=53386,"en-US,en;q=0.9",h7qh9qq4g8gy5q8,19,"[""White""]",No,Female,NA,No,839346,NA,null,<p></p>,null,choice,tdc,trinary,repulsion_A,1,washing machines,null,null,null,null,null,null,1,NA,NA,NA,NA,NA,NA,NA,NA,NA,NA
NA,NA,NA,NA,NA,choice_trial,survey-html-form,71,532881,0.0-4.0-1.33,87,1,2025-04-29T13:11:10Z,b60275e29fe2361ab97ac0ac217840d7,"Mozilla/5.0 (Macintosh; Intel Mac OS X 10_15_7) AppleWebKit/605.1.15 (KHTML, like Gecko) Version/17.0 Safari/605.1.15",Macintosh,Safari,17,OS X,10_15_7,https://5puzkbbxv1.cognition.run/?sona_id=53386,"en-US,en;q=0.9",h7qh9qq4g8gy5q8,19,"[""White""]",No,Female,NA,No,839346,NA,13495,NA,"{""product_choice"":""A""}",choice,tdc,trinary,repulsion_A,1,washing machines,null,null,null,null,null,null,1,100,90,100,30,40,20,Average lifespan,Energy savings,NA,NA
NA,NA,NA,NA,NA,choice_trial_setup,html-keyboard-response,72,533184,0.0-4.0-0.34,87,1,2025-04-29T13:11:10Z,b60275e29fe2361ab97ac0ac217840d7,"Mozilla/5.0 (Macintosh; Intel Mac OS X 10_15_7) AppleWebKit/605.1.15 (KHTML, like Gecko) Version/17.0 Safari/605.1.15",Macintosh,Safari,17,OS X,10_15_7,https://5puzkbbxv1.cognition.run/?sona_id=53386,"en-US,en;q=0.9",h7qh9qq4g8gy5q8,19,"[""White""]",No,Female,NA,No,839346,NA,null,<p></p>,null,choice,cdt,trinary,repulsion_B,1,microwave ovens,null,null,null,null,null,null,1,NA,NA,NA,NA,NA,NA,NA,NA,NA,NA
NA,NA,NA,NA,NA,choice_trial,survey-html-form,73,549143,0.0-4.0-1.34,87,1,2025-04-29T13:11:10Z,b60275e29fe2361ab97ac0ac217840d7,"Mozilla/5.0 (Macintosh; Intel Mac OS X 10_15_7) AppleWebKit/605.1.15 (KHTML, like Gecko) Version/17.0 Safari/605.1.15",Macintosh,Safari,17,OS X,10_15_7,https://5puzkbbxv1.cognition.run/?sona_id=53386,"en-US,en;q=0.9",h7qh9qq4g8gy5q8,19,"[""White""]",No,Female,NA,No,839346,NA,15954,NA,"{""product_choice"":""C""}",choice,cdt,trinary,repulsion_B,1,microwave ovens,null,null,null,null,null,null,1,90,100,80,40,30,40,Warranty,Cooking power,NA,NA
NA,NA,NA,NA,NA,choice_trial_setup,html-keyboard-response,74,549446,0.0-4.0-0.35,87,1,2025-04-29T13:11:10Z,b60275e29fe2361ab97ac0ac217840d7,"Mozilla/5.0 (Macintosh; Intel Mac OS X 10_15_7) AppleWebKit/605.1.15 (KHTML, like Gecko) Version/17.0 Safari/605.1.15",Macintosh,Safari,17,OS X,10_15_7,https://5puzkbbxv1.cognition.run/?sona_id=53386,"en-US,en;q=0.9",h7qh9qq4g8gy5q8,19,"[""White""]",No,Female,NA,No,839346,NA,null,<p></p>,null,choice,dct,trinary,repulsion_B,2,televisions,null,null,null,null,null,null,2,NA,NA,NA,NA,NA,NA,NA,NA,NA,NA
NA,NA,NA,NA,NA,choice_trial,survey-html-form,75,559337,0.0-4.0-1.35,87,1,2025-04-29T13:11:10Z,b60275e29fe2361ab97ac0ac217840d7,"Mozilla/5.0 (Macintosh; Intel Mac OS X 10_15_7) AppleWebKit/605.1.15 (KHTML, like Gecko) Version/17.0 Safari/605.1.15",Macintosh,Safari,17,OS X,10_15_7,https://5puzkbbxv1.cognition.run/?sona_id=53386,"en-US,en;q=0.9",h7qh9qq4g8gy5q8,19,"[""White""]",No,Female,NA,No,839346,NA,9885,NA,"{""product_choice"":""C""}",choice,dct,trinary,repulsion_B,2,televisions,null,null,null,null,null,null,2,40,30,40,90,100,80,Screen size,Average lifespan,NA,NA
NA,NA,NA,NA,NA,choice_trial_setup,html-keyboard-response,76,559641,0.0-4.0-0.36,87,1,2025-04-29T13:11:10Z,b60275e29fe2361ab97ac0ac217840d7,"Mozilla/5.0 (Macintosh; Intel Mac OS X 10_15_7) AppleWebKit/605.1.15 (KHTML, like Gecko) Version/17.0 Safari/605.1.15",Macintosh,Safari,17,OS X,10_15_7,https://5puzkbbxv1.cognition.run/?sona_id=53386,"en-US,en;q=0.9",h7qh9qq4g8gy5q8,19,"[""White""]",No,Female,NA,No,839346,NA,null,<p></p>,null,choice,ctd,trinary,repulsion_B,2,washing machines,null,null,null,null,null,null,2,NA,NA,NA,NA,NA,NA,NA,NA,NA,NA
NA,NA,NA,NA,NA,choice_trial,survey-html-form,77,570482,0.0-4.0-1.36,87,1,2025-04-29T13:11:10Z,b60275e29fe2361ab97ac0ac217840d7,"Mozilla/5.0 (Macintosh; Intel Mac OS X 10_15_7) AppleWebKit/605.1.15 (KHTML, like Gecko) Version/17.0 Safari/605.1.15",Macintosh,Safari,17,OS X,10_15_7,https://5puzkbbxv1.cognition.run/?sona_id=53386,"en-US,en;q=0.9",h7qh9qq4g8gy5q8,19,"[""White""]",No,Female,NA,No,839346,NA,10836,NA,"{""product_choice"":""B""}",choice,ctd,trinary,repulsion_B,2,washing machines,null,null,null,null,null,null,2,40,30,40,90,100,80,Average lifespan,Energy savings,NA,NA
NA,NA,NA,NA,NA,choice_trial_setup,html-keyboard-response,78,570786,0.0-4.0-0.37,87,1,2025-04-29T13:11:10Z,b60275e29fe2361ab97ac0ac217840d7,"Mozilla/5.0 (Macintosh; Intel Mac OS X 10_15_7) AppleWebKit/605.1.15 (KHTML, like Gecko) Version/17.0 Safari/605.1.15",Macintosh,Safari,17,OS X,10_15_7,https://5puzkbbxv1.cognition.run/?sona_id=53386,"en-US,en;q=0.9",h7qh9qq4g8gy5q8,19,"[""White""]",No,Female,NA,No,839346,NA,null,<p></p>,null,choice,cdt,trinary,repulsion_B,1,washing machines,null,null,null,null,null,null,2,NA,NA,NA,NA,NA,NA,NA,NA,NA,NA
NA,NA,NA,NA,NA,choice_trial,survey-html-form,79,580892,0.0-4.0-1.37,87,1,2025-04-29T13:11:10Z,b60275e29fe2361ab97ac0ac217840d7,"Mozilla/5.0 (Macintosh; Intel Mac OS X 10_15_7) AppleWebKit/605.1.15 (KHTML, like Gecko) Version/17.0 Safari/605.1.15",Macintosh,Safari,17,OS X,10_15_7,https://5puzkbbxv1.cognition.run/?sona_id=53386,"en-US,en;q=0.9",h7qh9qq4g8gy5q8,19,"[""White""]",No,Female,NA,No,839346,NA,10100,NA,"{""product_choice"":""C""}",choice,cdt,trinary,repulsion_B,1,washing machines,null,null,null,null,null,null,2,90,100,80,40,30,40,Average lifespan,Energy savings,NA,NA
NA,NA,NA,NA,NA,choice_trial_setup,html-keyboard-response,80,581196,0.0-4.0-0.38,87,1,2025-04-29T13:11:10Z,b60275e29fe2361ab97ac0ac217840d7,"Mozilla/5.0 (Macintosh; Intel Mac OS X 10_15_7) AppleWebKit/605.1.15 (KHTML, like Gecko) Version/17.0 Safari/605.1.15",Macintosh,Safari,17,OS X,10_15_7,https://5puzkbbxv1.cognition.run/?sona_id=53386,"en-US,en;q=0.9",h7qh9qq4g8gy5q8,19,"[""White""]",No,Female,NA,No,839346,NA,null,<p></p>,null,choice,ct,binary,attraction,NA,televisions,null,null,null,null,null,null,2,NA,NA,NA,NA,NA,NA,NA,NA,NA,NA
NA,NA,NA,NA,NA,choice_trial,survey-html-form,81,591410,0.0-4.0-1.38,87,1,2025-04-29T13:11:10Z,b60275e29fe2361ab97ac0ac217840d7,"Mozilla/5.0 (Macintosh; Intel Mac OS X 10_15_7) AppleWebKit/605.1.15 (KHTML, like Gecko) Version/17.0 Safari/605.1.15",Macintosh,Safari,17,OS X,10_15_7,https://5puzkbbxv1.cognition.run/?sona_id=53386,"en-US,en;q=0.9",h7qh9qq4g8gy5q8,19,"[""White""]",No,Female,NA,No,839346,NA,10209,NA,"{""product_choice"":""A""}",choice,ct,binary,attraction,NA,televisions,null,null,null,null,null,null,2,60,50,null,50,60,null,Screen size,Average lifespan,NA,NA
NA,NA,NA,NA,NA,choice_trial_setup,html-keyboard-response,82,591714,0.0-4.0-0.39,87,1,2025-04-29T13:11:10Z,b60275e29fe2361ab97ac0ac217840d7,"Mozilla/5.0 (Macintosh; Intel Mac OS X 10_15_7) AppleWebKit/605.1.15 (KHTML, like Gecko) Version/17.0 Safari/605.1.15",Macintosh,Safari,17,OS X,10_15_7,https://5puzkbbxv1.cognition.run/?sona_id=53386,"en-US,en;q=0.9",h7qh9qq4g8gy5q8,19,"[""White""]",No,Female,NA,No,839346,NA,null,<p></p>,null,choice,ct,binary,repulsion,2,laptops,null,null,null,null,null,null,2,NA,NA,NA,NA,NA,NA,NA,NA,NA,NA
NA,NA,NA,NA,NA,choice_trial,survey-html-form,83,601778,0.0-4.0-1.39,87,1,2025-04-29T13:11:10Z,b60275e29fe2361ab97ac0ac217840d7,"Mozilla/5.0 (Macintosh; Intel Mac OS X 10_15_7) AppleWebKit/605.1.15 (KHTML, like Gecko) Version/17.0 Safari/605.1.15",Macintosh,Safari,17,OS X,10_15_7,https://5puzkbbxv1.cognition.run/?sona_id=53386,"en-US,en;q=0.9",h7qh9qq4g8gy5q8,19,"[""White""]",No,Female,NA,No,839346,NA,10058,NA,"{""product_choice"":""A""}",choice,ct,binary,repulsion,2,laptops,null,null,null,null,null,null,2,30,40,null,100,90,null,Processing speed,Memory (RAM),NA,NA
NA,NA,NA,NA,NA,choice_trial_setup,html-keyboard-response,84,602084,0.0-4.0-0.40,87,1,2025-04-29T13:11:10Z,b60275e29fe2361ab97ac0ac217840d7,"Mozilla/5.0 (Macintosh; Intel Mac OS X 10_15_7) AppleWebKit/605.1.15 (KHTML, like Gecko) Version/17.0 Safari/605.1.15",Macintosh,Safari,17,OS X,10_15_7,https://5puzkbbxv1.cognition.run/?sona_id=53386,"en-US,en;q=0.9",h7qh9qq4g8gy5q8,19,"[""White""]",No,Female,NA,No,839346,NA,null,<p></p>,null,choice,ctd,trinary,attraction,1,laptops,null,null,null,null,null,null,1,NA,NA,NA,NA,NA,NA,NA,NA,NA,NA
NA,NA,NA,NA,NA,choice_trial,survey-html-form,85,610727,0.0-4.0-1.40,87,1,2025-04-29T13:11:10Z,b60275e29fe2361ab97ac0ac217840d7,"Mozilla/5.0 (Macintosh; Intel Mac OS X 10_15_7) AppleWebKit/605.1.15 (KHTML, like Gecko) Version/17.0 Safari/605.1.15",Macintosh,Safari,17,OS X,10_15_7,https://5puzkbbxv1.cognition.run/?sona_id=53386,"en-US,en;q=0.9",h7qh9qq4g8gy5q8,19,"[""White""]",No,Female,NA,No,839346,NA,8636,NA,"{""product_choice"":""B""}",choice,ctd,trinary,attraction,1,laptops,null,null,null,null,null,null,1,60,50,60,50,60,40,Processing speed,Memory (RAM),NA,NA
NA,NA,NA,NA,NA,choice_trial_setup,html-keyboard-response,86,611033,0.0-4.0-0.41,87,1,2025-04-29T13:11:10Z,b60275e29fe2361ab97ac0ac217840d7,"Mozilla/5.0 (Macintosh; Intel Mac OS X 10_15_7) AppleWebKit/605.1.15 (KHTML, like Gecko) Version/17.0 Safari/605.1.15",Macintosh,Safari,17,OS X,10_15_7,https://5puzkbbxv1.cognition.run/?sona_id=53386,"en-US,en;q=0.9",h7qh9qq4g8gy5q8,19,"[""White""]",No,Female,NA,No,839346,NA,null,<p></p>,null,choice,cdt,trinary,attraction,2,washing machines,null,null,null,null,null,null,2,NA,NA,NA,NA,NA,NA,NA,NA,NA,NA
NA,NA,NA,NA,NA,choice_trial,survey-html-form,87,619751,0.0-4.0-1.41,87,1,2025-04-29T13:11:10Z,b60275e29fe2361ab97ac0ac217840d7,"Mozilla/5.0 (Macintosh; Intel Mac OS X 10_15_7) AppleWebKit/605.1.15 (KHTML, like Gecko) Version/17.0 Safari/605.1.15",Macintosh,Safari,17,OS X,10_15_7,https://5puzkbbxv1.cognition.run/?sona_id=53386,"en-US,en;q=0.9",h7qh9qq4g8gy5q8,19,"[""White""]",No,Female,NA,No,839346,NA,8712,NA,"{""product_choice"":""C""}",choice,cdt,trinary,attraction,2,washing machines,null,null,null,null,null,null,2,50,60,40,60,50,60,Average lifespan,Energy savings,NA,NA
NA,NA,NA,NA,NA,choice_trial_setup,html-keyboard-response,88,620056,0.0-4.0-0.42,87,1,2025-04-29T13:11:10Z,b60275e29fe2361ab97ac0ac217840d7,"Mozilla/5.0 (Macintosh; Intel Mac OS X 10_15_7) AppleWebKit/605.1.15 (KHTML, like Gecko) Version/17.0 Safari/605.1.15",Macintosh,Safari,17,OS X,10_15_7,https://5puzkbbxv1.cognition.run/?sona_id=53386,"en-US,en;q=0.9",h7qh9qq4g8gy5q8,19,"[""White""]",No,Female,NA,No,839346,NA,null,<p></p>,null,choice,tc,binary,repulsion,2,washing machines,null,null,null,null,null,null,1,NA,NA,NA,NA,NA,NA,NA,NA,NA,NA
NA,NA,NA,NA,NA,choice_trial,survey-html-form,89,625948,0.0-4.0-1.42,87,1,2025-04-29T13:11:10Z,b60275e29fe2361ab97ac0ac217840d7,"Mozilla/5.0 (Macintosh; Intel Mac OS X 10_15_7) AppleWebKit/605.1.15 (KHTML, like Gecko) Version/17.0 Safari/605.1.15",Macintosh,Safari,17,OS X,10_15_7,https://5puzkbbxv1.cognition.run/?sona_id=53386,"en-US,en;q=0.9",h7qh9qq4g8gy5q8,19,"[""White""]",No,Female,NA,No,839346,NA,5886,NA,"{""product_choice"":""B""}",choice,tc,binary,repulsion,2,washing machines,null,null,null,null,null,null,1,30,40,null,100,90,null,Average lifespan,Energy savings,NA,NA
NA,NA,NA,NA,NA,choice_trial_setup,html-keyboard-response,90,626253,0.0-4.0-0.43,87,1,2025-04-29T13:11:10Z,b60275e29fe2361ab97ac0ac217840d7,"Mozilla/5.0 (Macintosh; Intel Mac OS X 10_15_7) AppleWebKit/605.1.15 (KHTML, like Gecko) Version/17.0 Safari/605.1.15",Macintosh,Safari,17,OS X,10_15_7,https://5puzkbbxv1.cognition.run/?sona_id=53386,"en-US,en;q=0.9",h7qh9qq4g8gy5q8,19,"[""White""]",No,Female,NA,No,839346,NA,null,<p></p>,null,choice,cdt,trinary,repulsion_A,1,laptops,null,null,null,null,null,null,1,NA,NA,NA,NA,NA,NA,NA,NA,NA,NA
NA,NA,NA,NA,NA,choice_trial,survey-html-form,91,632412,0.0-4.0-1.43,87,1,2025-04-29T13:11:10Z,b60275e29fe2361ab97ac0ac217840d7,"Mozilla/5.0 (Macintosh; Intel Mac OS X 10_15_7) AppleWebKit/605.1.15 (KHTML, like Gecko) Version/17.0 Safari/605.1.15",Macintosh,Safari,17,OS X,10_15_7,https://5puzkbbxv1.cognition.run/?sona_id=53386,"en-US,en;q=0.9",h7qh9qq4g8gy5q8,19,"[""White""]",No,Female,NA,No,839346,NA,6145,NA,"{""product_choice"":""C""}",choice,cdt,trinary,repulsion_A,1,laptops,null,null,null,null,null,null,1,100,90,100,30,40,20,Processing speed,Memory (RAM),NA,NA
NA,NA,NA,NA,NA,post_trials_message,html-button-response,92,635472,0.0-5.0,87,1,2025-04-29T13:11:10Z,b60275e29fe2361ab97ac0ac217840d7,"Mozilla/5.0 (Macintosh; Intel Mac OS X 10_15_7) AppleWebKit/605.1.15 (KHTML, like Gecko) Version/17.0 Safari/605.1.15",Macintosh,Safari,17,OS X,10_15_7,https://5puzkbbxv1.cognition.run/?sona_id=53386,"en-US,en;q=0.9",h7qh9qq4g8gy5q8,19,"[""White""]",No,Female,NA,No,839346,NA,3054,<p> <b>Thank you for your patience!</b></p><p>  The study will be done after completing a brief form. </p>,0,NA,NA,NA,NA,NA,NA,NA,NA,NA,NA,NA,NA,NA,NA,NA,NA,NA,NA,NA,NA,NA,NA,NA
NA,NA,NA,NA,NA,survey_message,survey-text,93,795042,0.0-6.0,87,1,2025-04-29T13:11:10Z,b60275e29fe2361ab97ac0ac217840d7,"Mozilla/5.0 (Macintosh; Intel Mac OS X 10_15_7) AppleWebKit/605.1.15 (KHTML, like Gecko) Version/17.0 Safari/605.1.15",Macintosh,Safari,17,OS X,10_15_7,https://5puzkbbxv1.cognition.run/?sona_id=53386,"en-US,en;q=0.9",h7qh9qq4g8gy5q8,19,"[""White""]",No,Female,NA,No,839346,NA,159559,NA,"{""Q0"":""certain things mattered more to me for example I would prefer to have a fast working computer, a long lasting washing machine, and I don't really care much about the size of my TV. I also tried to think realistically about things that have to be replaced more often. Besides that I mostly chose the options that were higher on both sides of the table.  I also realized that it seemed like the diferrence between 40 and 30 would have a bigger effect on the product than 90 and 100 for some reason.""}",NA,NA,NA,NA,NA,NA,NA,NA,NA,NA,NA,NA,NA,NA,NA,NA,NA,NA,NA,NA,NA,"certain things mattered more to me for example I would prefer to have a fast working computer, a long lasting washing machine, and I don't really care much about the size of my TV. I also tried to think realistically about things that have to be replaced more often. Besides that I mostly chose the options that were higher on both sides of the table.  I also realized that it seemed like the diferrence between 40 and 30 would have a bigger effect on the product than 90 and 100 for some reason.",NA
NA,NA,NA,NA,NA,demo_age,survey-text,94,798550,0.0-7.0,87,1,2025-04-29T13:11:10Z,b60275e29fe2361ab97ac0ac217840d7,"Mozilla/5.0 (Macintosh; Intel Mac OS X 10_15_7) AppleWebKit/605.1.15 (KHTML, like Gecko) Version/17.0 Safari/605.1.15",Macintosh,Safari,17,OS X,10_15_7,https://5puzkbbxv1.cognition.run/?sona_id=53386,"en-US,en;q=0.9",h7qh9qq4g8gy5q8,19,"[""White""]",No,Female,NA,No,839346,NA,3496,NA,"{""Q0"":""19""}",NA,NA,NA,NA,NA,NA,NA,NA,NA,NA,NA,NA,NA,NA,NA,NA,NA,NA,NA,NA,NA,NA,NA
NA,NA,NA,NA,NA,demo_race,survey-multi-select,95,801186,0.0-8.0,87,1,2025-04-29T13:11:10Z,b60275e29fe2361ab97ac0ac217840d7,"Mozilla/5.0 (Macintosh; Intel Mac OS X 10_15_7) AppleWebKit/605.1.15 (KHTML, like Gecko) Version/17.0 Safari/605.1.15",Macintosh,Safari,17,OS X,10_15_7,https://5puzkbbxv1.cognition.run/?sona_id=53386,"en-US,en;q=0.9",h7qh9qq4g8gy5q8,19,"[""White""]",No,Female,NA,No,839346,NA,2629,NA,"{""Q0"":[""White""]}",NA,NA,NA,NA,NA,NA,NA,NA,NA,NA,NA,NA,NA,NA,NA,NA,NA,NA,NA,NA,NA,NA,[0]
NA,NA,NA,NA,NA,demo_ethnicity_gender,survey-multi-choice,96,805373,0.0-9.0,87,1,2025-04-29T13:11:10Z,b60275e29fe2361ab97ac0ac217840d7,"Mozilla/5.0 (Macintosh; Intel Mac OS X 10_15_7) AppleWebKit/605.1.15 (KHTML, like Gecko) Version/17.0 Safari/605.1.15",Macintosh,Safari,17,OS X,10_15_7,https://5puzkbbxv1.cognition.run/?sona_id=53386,"en-US,en;q=0.9",h7qh9qq4g8gy5q8,19,"[""White""]",No,Female,NA,No,839346,NA,4178,NA,"{""Q0"":""No"",""Q1"":""Female""}",NA,NA,NA,NA,NA,NA,NA,NA,NA,NA,NA,NA,NA,NA,NA,NA,NA,NA,NA,NA,NA,NA,"[0,1]"
NA,NA,NA,NA,NA,demo_countries,survey-text,97,813822,0.0-10.0,87,1,2025-04-29T13:11:10Z,b60275e29fe2361ab97ac0ac217840d7,"Mozilla/5.0 (Macintosh; Intel Mac OS X 10_15_7) AppleWebKit/605.1.15 (KHTML, like Gecko) Version/17.0 Safari/605.1.15",Macintosh,Safari,17,OS X,10_15_7,https://5puzkbbxv1.cognition.run/?sona_id=53386,"en-US,en;q=0.9",h7qh9qq4g8gy5q8,19,"[""White""]",No,Female,NA,No,839346,NA,8443,NA,"{""Q0"":""NA""}",NA,NA,NA,NA,NA,NA,NA,NA,NA,NA,NA,NA,NA,NA,NA,NA,NA,NA,NA,NA,NA,NA,NA
NA,NA,NA,NA,NA,demo_prev_study,survey-multi-choice,98,829679,0.0-11.0,87,1,2025-04-29T13:11:10Z,b60275e29fe2361ab97ac0ac217840d7,"Mozilla/5.0 (Macintosh; Intel Mac OS X 10_15_7) AppleWebKit/605.1.15 (KHTML, like Gecko) Version/17.0 Safari/605.1.15",Macintosh,Safari,17,OS X,10_15_7,https://5puzkbbxv1.cognition.run/?sona_id=53386,"en-US,en;q=0.9",h7qh9qq4g8gy5q8,19,"[""White""]",No,Female,NA,No,839346,NA,15851,NA,"{""Q0"":""No""}",NA,NA,NA,NA,NA,NA,NA,NA,NA,NA,NA,NA,NA,NA,NA,NA,NA,NA,NA,NA,NA,NA,[0]
NA,NA,NA,NA,NA,post_survey_message,html-keyboard-response,99,834888,0.0-12.0,87,1,2025-04-29T13:11:10Z,b60275e29fe2361ab97ac0ac217840d7,"Mozilla/5.0 (Macintosh; Intel Mac OS X 10_15_7) AppleWebKit/605.1.15 (KHTML, like Gecko) Version/17.0 Safari/605.1.15",Macintosh,Safari,17,OS X,10_15_7,https://5puzkbbxv1.cognition.run/?sona_id=53386,"en-US,en;q=0.9",h7qh9qq4g8gy5q8,19,"[""White""]",No,Female,NA,No,839346,NA,5202,NA,j,NA,NA,NA,NA,NA,NA,NA,NA,NA,NA,NA,NA,NA,NA,NA,NA,NA,NA,NA,NA,NA,NA,NA
NA,NA,NA,NA,NA,debrief,image-keyboard-response,100,839329,0.0-13.0,87,1,2025-04-29T13:11:10Z,b60275e29fe2361ab97ac0ac217840d7,"Mozilla/5.0 (Macintosh; Intel Mac OS X 10_15_7) AppleWebKit/605.1.15 (KHTML, like Gecko) Version/17.0 Safari/605.1.15",Macintosh,Safari,17,OS X,10_15_7,https://5puzkbbxv1.cognition.run/?sona_id=53386,"en-US,en;q=0.9",h7qh9qq4g8gy5q8,19,"[""White""]",No,Female,NA,No,839346,NA,4374,Judg_choice_debrief.png,p,NA,NA,NA,NA,NA,NA,NA,NA,NA,NA,NA,NA,NA,NA,NA,NA,NA,NA,NA,NA,NA,NA,NA
