success,timeout,failed_images,failed_audio,failed_video,screen_id,trial_type,trial_index,time_elapsed,internal_node_id,run_id,condition,recorded_at,source_code_version,user_agent,device,browser,browser_version,platform,platform_version,referer,accept_language,ppt_id,age,race,ethnicity,gender,other_countries,prev_study,exp_duration,view_history,rt,stimulus,response,phase,order,set,effect,t_high,category,d1_best,d2_best,d1_worst1,d2_worst1,d1_worst2,d2_worst2,first_dim,d1_t,d1_c,d1_d,d2_t,d2_c,d2_d,d1_name,d2_name,strategy_response,question_order
TRUE,FALSE,[],[],[],img preload,preload,0,426,0.0-0.0,91,1,2025-04-29T17:04:05Z,b60275e29fe2361ab97ac0ac217840d7,"Mozilla/5.0 (Macintosh; Intel Mac OS X 10_15_7) AppleWebKit/537.36 (KHTML, like Gecko) Chrome/135.0.0.0 Safari/537.36",Macintosh,Chrome,135.0.0.0,OS X,10_15_7,https://5puzkbbxv1.cognition.run/?sona_id=57158,"en-US,en;q=0.9",wz723um6lt0tc0f,21,"[""White""]",No,Male,NA,No,169833.69999998808,NA,NA,NA,NA,NA,NA,NA,NA,NA,NA,NA,NA,NA,NA,NA,NA,NA,NA,NA,NA,NA,NA,NA,NA,NA,NA,NA
NA,NA,NA,NA,NA,computer_message,instructions,1,1712,0.0-1.0,91,1,2025-04-29T17:04:05Z,b60275e29fe2361ab97ac0ac217840d7,"Mozilla/5.0 (Macintosh; Intel Mac OS X 10_15_7) AppleWebKit/537.36 (KHTML, like Gecko) Chrome/135.0.0.0 Safari/537.36",Macintosh,Chrome,135.0.0.0,OS X,10_15_7,https://5puzkbbxv1.cognition.run/?sona_id=57158,"en-US,en;q=0.9",wz723um6lt0tc0f,21,"[""White""]",No,Male,NA,No,169833.69999998808,"[{""page_index"":0,""viewing_time"":1284}]",1285,NA,NA,NA,NA,NA,NA,NA,NA,NA,NA,NA,NA,NA,NA,NA,NA,NA,NA,NA,NA,NA,NA,NA,NA,NA
TRUE,NA,NA,NA,NA,NA,fullscreen,2,3648,0.0-2.0,91,1,2025-04-29T17:04:05Z,b60275e29fe2361ab97ac0ac217840d7,"Mozilla/5.0 (Macintosh; Intel Mac OS X 10_15_7) AppleWebKit/537.36 (KHTML, like Gecko) Chrome/135.0.0.0 Safari/537.36",Macintosh,Chrome,135.0.0.0,OS X,10_15_7,https://5puzkbbxv1.cognition.run/?sona_id=57158,"en-US,en;q=0.9",wz723um6lt0tc0f,21,"[""White""]",No,Male,NA,No,169833.69999998808,NA,931,NA,NA,NA,NA,NA,NA,NA,NA,NA,NA,NA,NA,NA,NA,NA,NA,NA,NA,NA,NA,NA,NA,NA,NA,NA
NA,NA,NA,NA,NA,choice_instructions,instructions,3,27497,0.0-3.0,91,1,2025-04-29T17:04:05Z,b60275e29fe2361ab97ac0ac217840d7,"Mozilla/5.0 (Macintosh; Intel Mac OS X 10_15_7) AppleWebKit/537.36 (KHTML, like Gecko) Chrome/135.0.0.0 Safari/537.36",Macintosh,Chrome,135.0.0.0,OS X,10_15_7,https://5puzkbbxv1.cognition.run/?sona_id=57158,"en-US,en;q=0.9",wz723um6lt0tc0f,21,"[""White""]",No,Male,NA,No,169833.69999998808,"[{""page_index"":0,""viewing_time"":1044},{""page_index"":1,""viewing_time"":2650},{""page_index"":2,""viewing_time"":3866},{""page_index"":3,""viewing_time"":1985},{""page_index"":4,""viewing_time"":1417},{""page_index"":5,""viewing_time"":8149},{""page_index"":6,""viewing_time"":4735}]",23847,NA,NA,NA,NA,NA,NA,NA,NA,NA,NA,NA,NA,NA,NA,NA,NA,NA,NA,NA,NA,NA,NA,NA,NA,NA
NA,NA,NA,NA,NA,choice_trial_setup,html-keyboard-response,4,27801,0.0-4.0-0.0,91,1,2025-04-29T17:04:05Z,b60275e29fe2361ab97ac0ac217840d7,"Mozilla/5.0 (Macintosh; Intel Mac OS X 10_15_7) AppleWebKit/537.36 (KHTML, like Gecko) Chrome/135.0.0.0 Safari/537.36",Macintosh,Chrome,135.0.0.0,OS X,10_15_7,https://5puzkbbxv1.cognition.run/?sona_id=57158,"en-US,en;q=0.9",wz723um6lt0tc0f,21,"[""White""]",No,Male,NA,No,169833.69999998808,NA,null,<p></p>,null,choice,cdt,trinary,attraction,2,laptops,null,null,null,null,null,null,1,NA,NA,NA,NA,NA,NA,NA,NA,NA,NA
NA,NA,NA,NA,NA,choice_trial,survey-html-form,5,38695,0.0-4.0-1.0,91,1,2025-04-29T17:04:05Z,b60275e29fe2361ab97ac0ac217840d7,"Mozilla/5.0 (Macintosh; Intel Mac OS X 10_15_7) AppleWebKit/537.36 (KHTML, like Gecko) Chrome/135.0.0.0 Safari/537.36",Macintosh,Chrome,135.0.0.0,OS X,10_15_7,https://5puzkbbxv1.cognition.run/?sona_id=57158,"en-US,en;q=0.9",wz723um6lt0tc0f,21,"[""White""]",No,Male,NA,No,169833.69999998808,NA,10889,NA,"{""product_choice"":""C""}",choice,cdt,trinary,attraction,2,laptops,null,null,null,null,null,null,1,50,60,40,60,50,60,Processing speed,Memory (RAM),NA,NA
NA,NA,NA,NA,NA,choice_trial_setup,html-keyboard-response,6,38998,0.0-4.0-0.1,91,1,2025-04-29T17:04:05Z,b60275e29fe2361ab97ac0ac217840d7,"Mozilla/5.0 (Macintosh; Intel Mac OS X 10_15_7) AppleWebKit/537.36 (KHTML, like Gecko) Chrome/135.0.0.0 Safari/537.36",Macintosh,Chrome,135.0.0.0,OS X,10_15_7,https://5puzkbbxv1.cognition.run/?sona_id=57158,"en-US,en;q=0.9",wz723um6lt0tc0f,21,"[""White""]",No,Male,NA,No,169833.69999998808,NA,null,<p></p>,null,choice,cdt,trinary,attraction,2,televisions,null,null,null,null,null,null,2,NA,NA,NA,NA,NA,NA,NA,NA,NA,NA
NA,NA,NA,NA,NA,choice_trial,survey-html-form,7,44928,0.0-4.0-1.1,91,1,2025-04-29T17:04:05Z,b60275e29fe2361ab97ac0ac217840d7,"Mozilla/5.0 (Macintosh; Intel Mac OS X 10_15_7) AppleWebKit/537.36 (KHTML, like Gecko) Chrome/135.0.0.0 Safari/537.36",Macintosh,Chrome,135.0.0.0,OS X,10_15_7,https://5puzkbbxv1.cognition.run/?sona_id=57158,"en-US,en;q=0.9",wz723um6lt0tc0f,21,"[""White""]",No,Male,NA,No,169833.69999998808,NA,5926,NA,"{""product_choice"":""C""}",choice,cdt,trinary,attraction,2,televisions,null,null,null,null,null,null,2,50,60,40,60,50,60,Screen size,Average lifespan,NA,NA
NA,NA,NA,NA,NA,choice_trial_setup,html-keyboard-response,8,45232,0.0-4.0-0.2,91,1,2025-04-29T17:04:05Z,b60275e29fe2361ab97ac0ac217840d7,"Mozilla/5.0 (Macintosh; Intel Mac OS X 10_15_7) AppleWebKit/537.36 (KHTML, like Gecko) Chrome/135.0.0.0 Safari/537.36",Macintosh,Chrome,135.0.0.0,OS X,10_15_7,https://5puzkbbxv1.cognition.run/?sona_id=57158,"en-US,en;q=0.9",wz723um6lt0tc0f,21,"[""White""]",No,Male,NA,No,169833.69999998808,NA,null,<p></p>,null,choice,tc,binary,repulsion,2,televisions,null,null,null,null,null,null,1,NA,NA,NA,NA,NA,NA,NA,NA,NA,NA
NA,NA,NA,NA,NA,choice_trial,survey-html-form,9,50410,0.0-4.0-1.2,91,1,2025-04-29T17:04:05Z,b60275e29fe2361ab97ac0ac217840d7,"Mozilla/5.0 (Macintosh; Intel Mac OS X 10_15_7) AppleWebKit/537.36 (KHTML, like Gecko) Chrome/135.0.0.0 Safari/537.36",Macintosh,Chrome,135.0.0.0,OS X,10_15_7,https://5puzkbbxv1.cognition.run/?sona_id=57158,"en-US,en;q=0.9",wz723um6lt0tc0f,21,"[""White""]",No,Male,NA,No,169833.69999998808,NA,5176,NA,"{""product_choice"":""B""}",choice,tc,binary,repulsion,2,televisions,null,null,null,null,null,null,1,30,40,null,100,90,null,Screen size,Average lifespan,NA,NA
NA,NA,NA,NA,NA,choice_trial_setup,html-keyboard-response,10,50713,0.0-4.0-0.3,91,1,2025-04-29T17:04:05Z,b60275e29fe2361ab97ac0ac217840d7,"Mozilla/5.0 (Macintosh; Intel Mac OS X 10_15_7) AppleWebKit/537.36 (KHTML, like Gecko) Chrome/135.0.0.0 Safari/537.36",Macintosh,Chrome,135.0.0.0,OS X,10_15_7,https://5puzkbbxv1.cognition.run/?sona_id=57158,"en-US,en;q=0.9",wz723um6lt0tc0f,21,"[""White""]",No,Male,NA,No,169833.69999998808,NA,null,<p></p>,null,choice,dct,trinary,attraction,2,microwave ovens,null,null,null,null,null,null,2,NA,NA,NA,NA,NA,NA,NA,NA,NA,NA
NA,NA,NA,NA,NA,choice_trial,survey-html-form,11,57929,0.0-4.0-1.3,91,1,2025-04-29T17:04:05Z,b60275e29fe2361ab97ac0ac217840d7,"Mozilla/5.0 (Macintosh; Intel Mac OS X 10_15_7) AppleWebKit/537.36 (KHTML, like Gecko) Chrome/135.0.0.0 Safari/537.36",Macintosh,Chrome,135.0.0.0,OS X,10_15_7,https://5puzkbbxv1.cognition.run/?sona_id=57158,"en-US,en;q=0.9",wz723um6lt0tc0f,21,"[""White""]",No,Male,NA,No,169833.69999998808,NA,7213,NA,"{""product_choice"":""C""}",choice,dct,trinary,attraction,2,microwave ovens,null,null,null,null,null,null,2,50,60,40,60,50,60,Warranty,Cooking power,NA,NA
NA,NA,NA,NA,NA,choice_trial_setup,html-keyboard-response,12,58232,0.0-4.0-0.4,91,1,2025-04-29T17:04:05Z,b60275e29fe2361ab97ac0ac217840d7,"Mozilla/5.0 (Macintosh; Intel Mac OS X 10_15_7) AppleWebKit/537.36 (KHTML, like Gecko) Chrome/135.0.0.0 Safari/537.36",Macintosh,Chrome,135.0.0.0,OS X,10_15_7,https://5puzkbbxv1.cognition.run/?sona_id=57158,"en-US,en;q=0.9",wz723um6lt0tc0f,21,"[""White""]",No,Male,NA,No,169833.69999998808,NA,null,<p></p>,null,choice,ctd,trinary,attraction,1,televisions,null,null,null,null,null,null,1,NA,NA,NA,NA,NA,NA,NA,NA,NA,NA
NA,NA,NA,NA,NA,choice_trial,survey-html-form,13,63278,0.0-4.0-1.4,91,1,2025-04-29T17:04:05Z,b60275e29fe2361ab97ac0ac217840d7,"Mozilla/5.0 (Macintosh; Intel Mac OS X 10_15_7) AppleWebKit/537.36 (KHTML, like Gecko) Chrome/135.0.0.0 Safari/537.36",Macintosh,Chrome,135.0.0.0,OS X,10_15_7,https://5puzkbbxv1.cognition.run/?sona_id=57158,"en-US,en;q=0.9",wz723um6lt0tc0f,21,"[""White""]",No,Male,NA,No,169833.69999998808,NA,5044,NA,"{""product_choice"":""B""}",choice,ctd,trinary,attraction,1,televisions,null,null,null,null,null,null,1,60,50,60,50,60,40,Screen size,Average lifespan,NA,NA
NA,NA,NA,NA,NA,choice_trial_setup,html-keyboard-response,14,63581,0.0-4.0-0.5,91,1,2025-04-29T17:04:05Z,b60275e29fe2361ab97ac0ac217840d7,"Mozilla/5.0 (Macintosh; Intel Mac OS X 10_15_7) AppleWebKit/537.36 (KHTML, like Gecko) Chrome/135.0.0.0 Safari/537.36",Macintosh,Chrome,135.0.0.0,OS X,10_15_7,https://5puzkbbxv1.cognition.run/?sona_id=57158,"en-US,en;q=0.9",wz723um6lt0tc0f,21,"[""White""]",No,Male,NA,No,169833.69999998808,NA,null,<p></p>,null,choice,tc,binary,attraction,NA,televisions,null,null,null,null,null,null,1,NA,NA,NA,NA,NA,NA,NA,NA,NA,NA
NA,NA,NA,NA,NA,choice_trial,survey-html-form,15,66692,0.0-4.0-1.5,91,1,2025-04-29T17:04:05Z,b60275e29fe2361ab97ac0ac217840d7,"Mozilla/5.0 (Macintosh; Intel Mac OS X 10_15_7) AppleWebKit/537.36 (KHTML, like Gecko) Chrome/135.0.0.0 Safari/537.36",Macintosh,Chrome,135.0.0.0,OS X,10_15_7,https://5puzkbbxv1.cognition.run/?sona_id=57158,"en-US,en;q=0.9",wz723um6lt0tc0f,21,"[""White""]",No,Male,NA,No,169833.69999998808,NA,3108,NA,"{""product_choice"":""A""}",choice,tc,binary,attraction,NA,televisions,null,null,null,null,null,null,1,60,50,null,50,60,null,Screen size,Average lifespan,NA,NA
NA,NA,NA,NA,NA,choice_trial_setup,html-keyboard-response,16,66995,0.0-4.0-0.6,91,1,2025-04-29T17:04:05Z,b60275e29fe2361ab97ac0ac217840d7,"Mozilla/5.0 (Macintosh; Intel Mac OS X 10_15_7) AppleWebKit/537.36 (KHTML, like Gecko) Chrome/135.0.0.0 Safari/537.36",Macintosh,Chrome,135.0.0.0,OS X,10_15_7,https://5puzkbbxv1.cognition.run/?sona_id=57158,"en-US,en;q=0.9",wz723um6lt0tc0f,21,"[""White""]",No,Male,NA,No,169833.69999998808,NA,null,<p></p>,null,choice,ct,binary,attraction,NA,laptops,null,null,null,null,null,null,1,NA,NA,NA,NA,NA,NA,NA,NA,NA,NA
NA,NA,NA,NA,NA,choice_trial,survey-html-form,17,68887,0.0-4.0-1.6,91,1,2025-04-29T17:04:05Z,b60275e29fe2361ab97ac0ac217840d7,"Mozilla/5.0 (Macintosh; Intel Mac OS X 10_15_7) AppleWebKit/537.36 (KHTML, like Gecko) Chrome/135.0.0.0 Safari/537.36",Macintosh,Chrome,135.0.0.0,OS X,10_15_7,https://5puzkbbxv1.cognition.run/?sona_id=57158,"en-US,en;q=0.9",wz723um6lt0tc0f,21,"[""White""]",No,Male,NA,No,169833.69999998808,NA,1889,NA,"{""product_choice"":""A""}",choice,ct,binary,attraction,NA,laptops,null,null,null,null,null,null,1,60,50,null,50,60,null,Processing speed,Memory (RAM),NA,NA
NA,NA,NA,NA,NA,choice_trial_setup,html-keyboard-response,18,69190,0.0-4.0-0.7,91,1,2025-04-29T17:04:05Z,b60275e29fe2361ab97ac0ac217840d7,"Mozilla/5.0 (Macintosh; Intel Mac OS X 10_15_7) AppleWebKit/537.36 (KHTML, like Gecko) Chrome/135.0.0.0 Safari/537.36",Macintosh,Chrome,135.0.0.0,OS X,10_15_7,https://5puzkbbxv1.cognition.run/?sona_id=57158,"en-US,en;q=0.9",wz723um6lt0tc0f,21,"[""White""]",No,Male,NA,No,169833.69999998808,NA,null,<p></p>,null,choice,tc,binary,repulsion,1,microwave ovens,null,null,null,null,null,null,2,NA,NA,NA,NA,NA,NA,NA,NA,NA,NA
NA,NA,NA,NA,NA,choice_trial,survey-html-form,19,69753,0.0-4.0-1.7,91,1,2025-04-29T17:04:05Z,b60275e29fe2361ab97ac0ac217840d7,"Mozilla/5.0 (Macintosh; Intel Mac OS X 10_15_7) AppleWebKit/537.36 (KHTML, like Gecko) Chrome/135.0.0.0 Safari/537.36",Macintosh,Chrome,135.0.0.0,OS X,10_15_7,https://5puzkbbxv1.cognition.run/?sona_id=57158,"en-US,en;q=0.9",wz723um6lt0tc0f,21,"[""White""]",No,Male,NA,No,169833.69999998808,NA,560,NA,"{""product_choice"":""A""}",choice,tc,binary,repulsion,1,microwave ovens,null,null,null,null,null,null,2,100,90,null,30,40,null,Warranty,Cooking power,NA,NA
NA,NA,NA,NA,NA,choice_trial_setup,html-keyboard-response,20,70056,0.0-4.0-0.8,91,1,2025-04-29T17:04:05Z,b60275e29fe2361ab97ac0ac217840d7,"Mozilla/5.0 (Macintosh; Intel Mac OS X 10_15_7) AppleWebKit/537.36 (KHTML, like Gecko) Chrome/135.0.0.0 Safari/537.36",Macintosh,Chrome,135.0.0.0,OS X,10_15_7,https://5puzkbbxv1.cognition.run/?sona_id=57158,"en-US,en;q=0.9",wz723um6lt0tc0f,21,"[""White""]",No,Male,NA,No,169833.69999998808,NA,null,<p></p>,null,choice,wb,binary,catch,null,laptops,75,80,20,15,null,null,1,NA,NA,NA,NA,NA,NA,NA,NA,NA,NA
NA,NA,NA,NA,NA,choice_trial,survey-html-form,21,70413,0.0-4.0-1.8,91,1,2025-04-29T17:04:05Z,b60275e29fe2361ab97ac0ac217840d7,"Mozilla/5.0 (Macintosh; Intel Mac OS X 10_15_7) AppleWebKit/537.36 (KHTML, like Gecko) Chrome/135.0.0.0 Safari/537.36",Macintosh,Chrome,135.0.0.0,OS X,10_15_7,https://5puzkbbxv1.cognition.run/?sona_id=57158,"en-US,en;q=0.9",wz723um6lt0tc0f,21,"[""White""]",No,Male,NA,No,169833.69999998808,NA,354,NA,"{""product_choice"":""A""}",choice,wb,binary,catch,null,laptops,75,80,20,15,null,null,1,null,null,null,null,null,null,Processing speed,Memory (RAM),NA,NA
NA,NA,NA,NA,NA,choice_trial_setup,html-keyboard-response,22,70717,0.0-4.0-0.9,91,1,2025-04-29T17:04:05Z,b60275e29fe2361ab97ac0ac217840d7,"Mozilla/5.0 (Macintosh; Intel Mac OS X 10_15_7) AppleWebKit/537.36 (KHTML, like Gecko) Chrome/135.0.0.0 Safari/537.36",Macintosh,Chrome,135.0.0.0,OS X,10_15_7,https://5puzkbbxv1.cognition.run/?sona_id=57158,"en-US,en;q=0.9",wz723um6lt0tc0f,21,"[""White""]",No,Male,NA,No,169833.69999998808,NA,null,<p></p>,null,choice,ct,binary,repulsion,2,laptops,null,null,null,null,null,null,1,NA,NA,NA,NA,NA,NA,NA,NA,NA,NA
NA,NA,NA,NA,NA,choice_trial,survey-html-form,23,70827,0.0-4.0-1.9,91,1,2025-04-29T17:04:05Z,b60275e29fe2361ab97ac0ac217840d7,"Mozilla/5.0 (Macintosh; Intel Mac OS X 10_15_7) AppleWebKit/537.36 (KHTML, like Gecko) Chrome/135.0.0.0 Safari/537.36",Macintosh,Chrome,135.0.0.0,OS X,10_15_7,https://5puzkbbxv1.cognition.run/?sona_id=57158,"en-US,en;q=0.9",wz723um6lt0tc0f,21,"[""White""]",No,Male,NA,No,169833.69999998808,NA,106,NA,"{""product_choice"":""A""}",choice,ct,binary,repulsion,2,laptops,null,null,null,null,null,null,1,30,40,null,100,90,null,Processing speed,Memory (RAM),NA,NA
NA,NA,NA,NA,NA,choice_trial_setup,html-keyboard-response,24,71130,0.0-4.0-0.10,91,1,2025-04-29T17:04:05Z,b60275e29fe2361ab97ac0ac217840d7,"Mozilla/5.0 (Macintosh; Intel Mac OS X 10_15_7) AppleWebKit/537.36 (KHTML, like Gecko) Chrome/135.0.0.0 Safari/537.36",Macintosh,Chrome,135.0.0.0,OS X,10_15_7,https://5puzkbbxv1.cognition.run/?sona_id=57158,"en-US,en;q=0.9",wz723um6lt0tc0f,21,"[""White""]",No,Male,NA,No,169833.69999998808,NA,null,<p></p>,null,choice,ctd,trinary,repulsion_A,2,televisions,null,null,null,null,null,null,2,NA,NA,NA,NA,NA,NA,NA,NA,NA,NA
NA,NA,NA,NA,NA,choice_trial,survey-html-form,25,72119,0.0-4.0-1.10,91,1,2025-04-29T17:04:05Z,b60275e29fe2361ab97ac0ac217840d7,"Mozilla/5.0 (Macintosh; Intel Mac OS X 10_15_7) AppleWebKit/537.36 (KHTML, like Gecko) Chrome/135.0.0.0 Safari/537.36",Macintosh,Chrome,135.0.0.0,OS X,10_15_7,https://5puzkbbxv1.cognition.run/?sona_id=57158,"en-US,en;q=0.9",wz723um6lt0tc0f,21,"[""White""]",No,Male,NA,No,169833.69999998808,NA,985,NA,"{""product_choice"":""B""}",choice,ctd,trinary,repulsion_A,2,televisions,null,null,null,null,null,null,2,30,40,20,100,90,100,Screen size,Average lifespan,NA,NA
NA,NA,NA,NA,NA,choice_trial_setup,html-keyboard-response,26,72422,0.0-4.0-0.11,91,1,2025-04-29T17:04:05Z,b60275e29fe2361ab97ac0ac217840d7,"Mozilla/5.0 (Macintosh; Intel Mac OS X 10_15_7) AppleWebKit/537.36 (KHTML, like Gecko) Chrome/135.0.0.0 Safari/537.36",Macintosh,Chrome,135.0.0.0,OS X,10_15_7,https://5puzkbbxv1.cognition.run/?sona_id=57158,"en-US,en;q=0.9",wz723um6lt0tc0f,21,"[""White""]",No,Male,NA,No,169833.69999998808,NA,null,<p></p>,null,choice,bww,trinary,catch,null,microwave ovens,80,95,15,50,10,30,1,NA,NA,NA,NA,NA,NA,NA,NA,NA,NA
NA,NA,NA,NA,NA,choice_trial,survey-html-form,27,73317,0.0-4.0-1.11,91,1,2025-04-29T17:04:05Z,b60275e29fe2361ab97ac0ac217840d7,"Mozilla/5.0 (Macintosh; Intel Mac OS X 10_15_7) AppleWebKit/537.36 (KHTML, like Gecko) Chrome/135.0.0.0 Safari/537.36",Macintosh,Chrome,135.0.0.0,OS X,10_15_7,https://5puzkbbxv1.cognition.run/?sona_id=57158,"en-US,en;q=0.9",wz723um6lt0tc0f,21,"[""White""]",No,Male,NA,No,169833.69999998808,NA,891,NA,"{""product_choice"":""B""}",choice,bww,trinary,catch,null,microwave ovens,80,95,15,50,10,30,1,null,null,null,null,null,null,Warranty,Cooking power,NA,NA
NA,NA,NA,NA,NA,choice_trial_setup,html-keyboard-response,28,73620,0.0-4.0-0.12,91,1,2025-04-29T17:04:05Z,b60275e29fe2361ab97ac0ac217840d7,"Mozilla/5.0 (Macintosh; Intel Mac OS X 10_15_7) AppleWebKit/537.36 (KHTML, like Gecko) Chrome/135.0.0.0 Safari/537.36",Macintosh,Chrome,135.0.0.0,OS X,10_15_7,https://5puzkbbxv1.cognition.run/?sona_id=57158,"en-US,en;q=0.9",wz723um6lt0tc0f,21,"[""White""]",No,Male,NA,No,169833.69999998808,NA,null,<p></p>,null,choice,tcd,trinary,attraction,1,laptops,null,null,null,null,null,null,1,NA,NA,NA,NA,NA,NA,NA,NA,NA,NA
NA,NA,NA,NA,NA,choice_trial,survey-html-form,29,74822,0.0-4.0-1.12,91,1,2025-04-29T17:04:05Z,b60275e29fe2361ab97ac0ac217840d7,"Mozilla/5.0 (Macintosh; Intel Mac OS X 10_15_7) AppleWebKit/537.36 (KHTML, like Gecko) Chrome/135.0.0.0 Safari/537.36",Macintosh,Chrome,135.0.0.0,OS X,10_15_7,https://5puzkbbxv1.cognition.run/?sona_id=57158,"en-US,en;q=0.9",wz723um6lt0tc0f,21,"[""White""]",No,Male,NA,No,169833.69999998808,NA,1198,NA,"{""product_choice"":""B""}",choice,tcd,trinary,attraction,1,laptops,null,null,null,null,null,null,1,60,50,60,50,60,40,Processing speed,Memory (RAM),NA,NA
NA,NA,NA,NA,NA,choice_trial_setup,html-keyboard-response,30,75126,0.0-4.0-0.13,91,1,2025-04-29T17:04:05Z,b60275e29fe2361ab97ac0ac217840d7,"Mozilla/5.0 (Macintosh; Intel Mac OS X 10_15_7) AppleWebKit/537.36 (KHTML, like Gecko) Chrome/135.0.0.0 Safari/537.36",Macintosh,Chrome,135.0.0.0,OS X,10_15_7,https://5puzkbbxv1.cognition.run/?sona_id=57158,"en-US,en;q=0.9",wz723um6lt0tc0f,21,"[""White""]",No,Male,NA,No,169833.69999998808,NA,null,<p></p>,null,choice,ctd,trinary,attraction,1,washing machines,null,null,null,null,null,null,2,NA,NA,NA,NA,NA,NA,NA,NA,NA,NA
NA,NA,NA,NA,NA,choice_trial,survey-html-form,31,75578,0.0-4.0-1.13,91,1,2025-04-29T17:04:05Z,b60275e29fe2361ab97ac0ac217840d7,"Mozilla/5.0 (Macintosh; Intel Mac OS X 10_15_7) AppleWebKit/537.36 (KHTML, like Gecko) Chrome/135.0.0.0 Safari/537.36",Macintosh,Chrome,135.0.0.0,OS X,10_15_7,https://5puzkbbxv1.cognition.run/?sona_id=57158,"en-US,en;q=0.9",wz723um6lt0tc0f,21,"[""White""]",No,Male,NA,No,169833.69999998808,NA,449,NA,"{""product_choice"":""B""}",choice,ctd,trinary,attraction,1,washing machines,null,null,null,null,null,null,2,60,50,60,50,60,40,Average lifespan,Energy savings,NA,NA
NA,NA,NA,NA,NA,choice_trial_setup,html-keyboard-response,32,75882,0.0-4.0-0.14,91,1,2025-04-29T17:04:05Z,b60275e29fe2361ab97ac0ac217840d7,"Mozilla/5.0 (Macintosh; Intel Mac OS X 10_15_7) AppleWebKit/537.36 (KHTML, like Gecko) Chrome/135.0.0.0 Safari/537.36",Macintosh,Chrome,135.0.0.0,OS X,10_15_7,https://5puzkbbxv1.cognition.run/?sona_id=57158,"en-US,en;q=0.9",wz723um6lt0tc0f,21,"[""White""]",No,Male,NA,No,169833.69999998808,NA,null,<p></p>,null,choice,tc,binary,repulsion,1,televisions,null,null,null,null,null,null,2,NA,NA,NA,NA,NA,NA,NA,NA,NA,NA
NA,NA,NA,NA,NA,choice_trial,survey-html-form,33,76396,0.0-4.0-1.14,91,1,2025-04-29T17:04:05Z,b60275e29fe2361ab97ac0ac217840d7,"Mozilla/5.0 (Macintosh; Intel Mac OS X 10_15_7) AppleWebKit/537.36 (KHTML, like Gecko) Chrome/135.0.0.0 Safari/537.36",Macintosh,Chrome,135.0.0.0,OS X,10_15_7,https://5puzkbbxv1.cognition.run/?sona_id=57158,"en-US,en;q=0.9",wz723um6lt0tc0f,21,"[""White""]",No,Male,NA,No,169833.69999998808,NA,510,NA,"{""product_choice"":""A""}",choice,tc,binary,repulsion,1,televisions,null,null,null,null,null,null,2,100,90,null,30,40,null,Screen size,Average lifespan,NA,NA
NA,NA,NA,NA,NA,choice_trial_setup,html-keyboard-response,34,76700,0.0-4.0-0.15,91,1,2025-04-29T17:04:05Z,b60275e29fe2361ab97ac0ac217840d7,"Mozilla/5.0 (Macintosh; Intel Mac OS X 10_15_7) AppleWebKit/537.36 (KHTML, like Gecko) Chrome/135.0.0.0 Safari/537.36",Macintosh,Chrome,135.0.0.0,OS X,10_15_7,https://5puzkbbxv1.cognition.run/?sona_id=57158,"en-US,en;q=0.9",wz723um6lt0tc0f,21,"[""White""]",No,Male,NA,No,169833.69999998808,NA,null,<p></p>,null,choice,dtc,trinary,repulsion_A,2,washing machines,null,null,null,null,null,null,2,NA,NA,NA,NA,NA,NA,NA,NA,NA,NA
NA,NA,NA,NA,NA,choice_trial,survey-html-form,35,78490,0.0-4.0-1.15,91,1,2025-04-29T17:04:05Z,b60275e29fe2361ab97ac0ac217840d7,"Mozilla/5.0 (Macintosh; Intel Mac OS X 10_15_7) AppleWebKit/537.36 (KHTML, like Gecko) Chrome/135.0.0.0 Safari/537.36",Macintosh,Chrome,135.0.0.0,OS X,10_15_7,https://5puzkbbxv1.cognition.run/?sona_id=57158,"en-US,en;q=0.9",wz723um6lt0tc0f,21,"[""White""]",No,Male,NA,No,169833.69999998808,NA,1785,NA,"{""product_choice"":""C""}",choice,dtc,trinary,repulsion_A,2,washing machines,null,null,null,null,null,null,2,30,40,20,100,90,100,Average lifespan,Energy savings,NA,NA
NA,NA,NA,NA,NA,choice_trial_setup,html-keyboard-response,36,78794,0.0-4.0-0.16,91,1,2025-04-29T17:04:05Z,b60275e29fe2361ab97ac0ac217840d7,"Mozilla/5.0 (Macintosh; Intel Mac OS X 10_15_7) AppleWebKit/537.36 (KHTML, like Gecko) Chrome/135.0.0.0 Safari/537.36",Macintosh,Chrome,135.0.0.0,OS X,10_15_7,https://5puzkbbxv1.cognition.run/?sona_id=57158,"en-US,en;q=0.9",wz723um6lt0tc0f,21,"[""White""]",No,Male,NA,No,169833.69999998808,NA,null,<p></p>,null,choice,ctd,trinary,repulsion_B,1,televisions,null,null,null,null,null,null,1,NA,NA,NA,NA,NA,NA,NA,NA,NA,NA
NA,NA,NA,NA,NA,choice_trial,survey-html-form,37,79745,0.0-4.0-1.16,91,1,2025-04-29T17:04:05Z,b60275e29fe2361ab97ac0ac217840d7,"Mozilla/5.0 (Macintosh; Intel Mac OS X 10_15_7) AppleWebKit/537.36 (KHTML, like Gecko) Chrome/135.0.0.0 Safari/537.36",Macintosh,Chrome,135.0.0.0,OS X,10_15_7,https://5puzkbbxv1.cognition.run/?sona_id=57158,"en-US,en;q=0.9",wz723um6lt0tc0f,21,"[""White""]",No,Male,NA,No,169833.69999998808,NA,946,NA,"{""product_choice"":""C""}",choice,ctd,trinary,repulsion_B,1,televisions,null,null,null,null,null,null,1,90,100,80,40,30,40,Screen size,Average lifespan,NA,NA
NA,NA,NA,NA,NA,choice_trial_setup,html-keyboard-response,38,80049,0.0-4.0-0.17,91,1,2025-04-29T17:04:05Z,b60275e29fe2361ab97ac0ac217840d7,"Mozilla/5.0 (Macintosh; Intel Mac OS X 10_15_7) AppleWebKit/537.36 (KHTML, like Gecko) Chrome/135.0.0.0 Safari/537.36",Macintosh,Chrome,135.0.0.0,OS X,10_15_7,https://5puzkbbxv1.cognition.run/?sona_id=57158,"en-US,en;q=0.9",wz723um6lt0tc0f,21,"[""White""]",No,Male,NA,No,169833.69999998808,NA,null,<p></p>,null,choice,bw,binary,catch,null,microwave ovens,95,95,20,45,null,null,2,NA,NA,NA,NA,NA,NA,NA,NA,NA,NA
NA,NA,NA,NA,NA,choice_trial,survey-html-form,39,80818,0.0-4.0-1.17,91,1,2025-04-29T17:04:05Z,b60275e29fe2361ab97ac0ac217840d7,"Mozilla/5.0 (Macintosh; Intel Mac OS X 10_15_7) AppleWebKit/537.36 (KHTML, like Gecko) Chrome/135.0.0.0 Safari/537.36",Macintosh,Chrome,135.0.0.0,OS X,10_15_7,https://5puzkbbxv1.cognition.run/?sona_id=57158,"en-US,en;q=0.9",wz723um6lt0tc0f,21,"[""White""]",No,Male,NA,No,169833.69999998808,NA,764,NA,"{""product_choice"":""B""}",choice,bw,binary,catch,null,microwave ovens,95,95,20,45,null,null,2,null,null,null,null,null,null,Warranty,Cooking power,NA,NA
NA,NA,NA,NA,NA,choice_trial_setup,html-keyboard-response,40,81122,0.0-4.0-0.18,91,1,2025-04-29T17:04:05Z,b60275e29fe2361ab97ac0ac217840d7,"Mozilla/5.0 (Macintosh; Intel Mac OS X 10_15_7) AppleWebKit/537.36 (KHTML, like Gecko) Chrome/135.0.0.0 Safari/537.36",Macintosh,Chrome,135.0.0.0,OS X,10_15_7,https://5puzkbbxv1.cognition.run/?sona_id=57158,"en-US,en;q=0.9",wz723um6lt0tc0f,21,"[""White""]",No,Male,NA,No,169833.69999998808,NA,null,<p></p>,null,choice,ct,binary,repulsion,2,washing machines,null,null,null,null,null,null,1,NA,NA,NA,NA,NA,NA,NA,NA,NA,NA
NA,NA,NA,NA,NA,choice_trial,survey-html-form,41,81557,0.0-4.0-1.18,91,1,2025-04-29T17:04:05Z,b60275e29fe2361ab97ac0ac217840d7,"Mozilla/5.0 (Macintosh; Intel Mac OS X 10_15_7) AppleWebKit/537.36 (KHTML, like Gecko) Chrome/135.0.0.0 Safari/537.36",Macintosh,Chrome,135.0.0.0,OS X,10_15_7,https://5puzkbbxv1.cognition.run/?sona_id=57158,"en-US,en;q=0.9",wz723um6lt0tc0f,21,"[""White""]",No,Male,NA,No,169833.69999998808,NA,430,NA,"{""product_choice"":""B""}",choice,ct,binary,repulsion,2,washing machines,null,null,null,null,null,null,1,30,40,null,100,90,null,Average lifespan,Energy savings,NA,NA
NA,NA,NA,NA,NA,choice_trial_setup,html-keyboard-response,42,81861,0.0-4.0-0.19,91,1,2025-04-29T17:04:05Z,b60275e29fe2361ab97ac0ac217840d7,"Mozilla/5.0 (Macintosh; Intel Mac OS X 10_15_7) AppleWebKit/537.36 (KHTML, like Gecko) Chrome/135.0.0.0 Safari/537.36",Macintosh,Chrome,135.0.0.0,OS X,10_15_7,https://5puzkbbxv1.cognition.run/?sona_id=57158,"en-US,en;q=0.9",wz723um6lt0tc0f,21,"[""White""]",No,Male,NA,No,169833.69999998808,NA,null,<p></p>,null,choice,wb,binary,catch,null,televisions,85,55,25,10,null,null,2,NA,NA,NA,NA,NA,NA,NA,NA,NA,NA
NA,NA,NA,NA,NA,choice_trial,survey-html-form,43,82281,0.0-4.0-1.19,91,1,2025-04-29T17:04:05Z,b60275e29fe2361ab97ac0ac217840d7,"Mozilla/5.0 (Macintosh; Intel Mac OS X 10_15_7) AppleWebKit/537.36 (KHTML, like Gecko) Chrome/135.0.0.0 Safari/537.36",Macintosh,Chrome,135.0.0.0,OS X,10_15_7,https://5puzkbbxv1.cognition.run/?sona_id=57158,"en-US,en;q=0.9",wz723um6lt0tc0f,21,"[""White""]",No,Male,NA,No,169833.69999998808,NA,416,NA,"{""product_choice"":""B""}",choice,wb,binary,catch,null,televisions,85,55,25,10,null,null,2,null,null,null,null,null,null,Screen size,Average lifespan,NA,NA
NA,NA,NA,NA,NA,choice_trial_setup,html-keyboard-response,44,82586,0.0-4.0-0.20,91,1,2025-04-29T17:04:05Z,b60275e29fe2361ab97ac0ac217840d7,"Mozilla/5.0 (Macintosh; Intel Mac OS X 10_15_7) AppleWebKit/537.36 (KHTML, like Gecko) Chrome/135.0.0.0 Safari/537.36",Macintosh,Chrome,135.0.0.0,OS X,10_15_7,https://5puzkbbxv1.cognition.run/?sona_id=57158,"en-US,en;q=0.9",wz723um6lt0tc0f,21,"[""White""]",No,Male,NA,No,169833.69999998808,NA,null,<p></p>,null,choice,dtc,trinary,repulsion_B,1,washing machines,null,null,null,null,null,null,1,NA,NA,NA,NA,NA,NA,NA,NA,NA,NA
NA,NA,NA,NA,NA,choice_trial,survey-html-form,45,84225,0.0-4.0-1.20,91,1,2025-04-29T17:04:05Z,b60275e29fe2361ab97ac0ac217840d7,"Mozilla/5.0 (Macintosh; Intel Mac OS X 10_15_7) AppleWebKit/537.36 (KHTML, like Gecko) Chrome/135.0.0.0 Safari/537.36",Macintosh,Chrome,135.0.0.0,OS X,10_15_7,https://5puzkbbxv1.cognition.run/?sona_id=57158,"en-US,en;q=0.9",wz723um6lt0tc0f,21,"[""White""]",No,Male,NA,No,169833.69999998808,NA,1635,NA,"{""product_choice"":""B""}",choice,dtc,trinary,repulsion_B,1,washing machines,null,null,null,null,null,null,1,90,100,80,40,30,40,Average lifespan,Energy savings,NA,NA
NA,NA,NA,NA,NA,choice_trial_setup,html-keyboard-response,46,84529,0.0-4.0-0.21,91,1,2025-04-29T17:04:05Z,b60275e29fe2361ab97ac0ac217840d7,"Mozilla/5.0 (Macintosh; Intel Mac OS X 10_15_7) AppleWebKit/537.36 (KHTML, like Gecko) Chrome/135.0.0.0 Safari/537.36",Macintosh,Chrome,135.0.0.0,OS X,10_15_7,https://5puzkbbxv1.cognition.run/?sona_id=57158,"en-US,en;q=0.9",wz723um6lt0tc0f,21,"[""White""]",No,Male,NA,No,169833.69999998808,NA,null,<p></p>,null,choice,cdt,trinary,repulsion_A,1,washing machines,null,null,null,null,null,null,2,NA,NA,NA,NA,NA,NA,NA,NA,NA,NA
NA,NA,NA,NA,NA,choice_trial,survey-html-form,47,85323,0.0-4.0-1.21,91,1,2025-04-29T17:04:05Z,b60275e29fe2361ab97ac0ac217840d7,"Mozilla/5.0 (Macintosh; Intel Mac OS X 10_15_7) AppleWebKit/537.36 (KHTML, like Gecko) Chrome/135.0.0.0 Safari/537.36",Macintosh,Chrome,135.0.0.0,OS X,10_15_7,https://5puzkbbxv1.cognition.run/?sona_id=57158,"en-US,en;q=0.9",wz723um6lt0tc0f,21,"[""White""]",No,Male,NA,No,169833.69999998808,NA,789,NA,"{""product_choice"":""B""}",choice,cdt,trinary,repulsion_A,1,washing machines,null,null,null,null,null,null,2,100,90,100,30,40,20,Average lifespan,Energy savings,NA,NA
NA,NA,NA,NA,NA,choice_trial_setup,html-keyboard-response,48,85628,0.0-4.0-0.22,91,1,2025-04-29T17:04:05Z,b60275e29fe2361ab97ac0ac217840d7,"Mozilla/5.0 (Macintosh; Intel Mac OS X 10_15_7) AppleWebKit/537.36 (KHTML, like Gecko) Chrome/135.0.0.0 Safari/537.36",Macintosh,Chrome,135.0.0.0,OS X,10_15_7,https://5puzkbbxv1.cognition.run/?sona_id=57158,"en-US,en;q=0.9",wz723um6lt0tc0f,21,"[""White""]",No,Male,NA,No,169833.69999998808,NA,null,<p></p>,null,choice,tc,binary,attraction,NA,microwave ovens,null,null,null,null,null,null,1,NA,NA,NA,NA,NA,NA,NA,NA,NA,NA
NA,NA,NA,NA,NA,choice_trial,survey-html-form,49,86918,0.0-4.0-1.22,91,1,2025-04-29T17:04:05Z,b60275e29fe2361ab97ac0ac217840d7,"Mozilla/5.0 (Macintosh; Intel Mac OS X 10_15_7) AppleWebKit/537.36 (KHTML, like Gecko) Chrome/135.0.0.0 Safari/537.36",Macintosh,Chrome,135.0.0.0,OS X,10_15_7,https://5puzkbbxv1.cognition.run/?sona_id=57158,"en-US,en;q=0.9",wz723um6lt0tc0f,21,"[""White""]",No,Male,NA,No,169833.69999998808,NA,1285,NA,"{""product_choice"":""A""}",choice,tc,binary,attraction,NA,microwave ovens,null,null,null,null,null,null,1,60,50,null,50,60,null,Warranty,Cooking power,NA,NA
NA,NA,NA,NA,NA,choice_trial_setup,html-keyboard-response,50,87223,0.0-4.0-0.23,91,1,2025-04-29T17:04:05Z,b60275e29fe2361ab97ac0ac217840d7,"Mozilla/5.0 (Macintosh; Intel Mac OS X 10_15_7) AppleWebKit/537.36 (KHTML, like Gecko) Chrome/135.0.0.0 Safari/537.36",Macintosh,Chrome,135.0.0.0,OS X,10_15_7,https://5puzkbbxv1.cognition.run/?sona_id=57158,"en-US,en;q=0.9",wz723um6lt0tc0f,21,"[""White""]",No,Male,NA,No,169833.69999998808,NA,null,<p></p>,null,choice,tdc,trinary,attraction,1,microwave ovens,null,null,null,null,null,null,2,NA,NA,NA,NA,NA,NA,NA,NA,NA,NA
NA,NA,NA,NA,NA,choice_trial,survey-html-form,51,88660,0.0-4.0-1.23,91,1,2025-04-29T17:04:05Z,b60275e29fe2361ab97ac0ac217840d7,"Mozilla/5.0 (Macintosh; Intel Mac OS X 10_15_7) AppleWebKit/537.36 (KHTML, like Gecko) Chrome/135.0.0.0 Safari/537.36",Macintosh,Chrome,135.0.0.0,OS X,10_15_7,https://5puzkbbxv1.cognition.run/?sona_id=57158,"en-US,en;q=0.9",wz723um6lt0tc0f,21,"[""White""]",No,Male,NA,No,169833.69999998808,NA,1434,NA,"{""product_choice"":""A""}",choice,tdc,trinary,attraction,1,microwave ovens,null,null,null,null,null,null,2,60,50,60,50,60,40,Warranty,Cooking power,NA,NA
NA,NA,NA,NA,NA,choice_trial_setup,html-keyboard-response,52,88963,0.0-4.0-0.24,91,1,2025-04-29T17:04:05Z,b60275e29fe2361ab97ac0ac217840d7,"Mozilla/5.0 (Macintosh; Intel Mac OS X 10_15_7) AppleWebKit/537.36 (KHTML, like Gecko) Chrome/135.0.0.0 Safari/537.36",Macintosh,Chrome,135.0.0.0,OS X,10_15_7,https://5puzkbbxv1.cognition.run/?sona_id=57158,"en-US,en;q=0.9",wz723um6lt0tc0f,21,"[""White""]",No,Male,NA,No,169833.69999998808,NA,null,<p></p>,null,choice,dtc,trinary,repulsion_B,1,microwave ovens,null,null,null,null,null,null,1,NA,NA,NA,NA,NA,NA,NA,NA,NA,NA
NA,NA,NA,NA,NA,choice_trial,survey-html-form,53,92278,0.0-4.0-1.24,91,1,2025-04-29T17:04:05Z,b60275e29fe2361ab97ac0ac217840d7,"Mozilla/5.0 (Macintosh; Intel Mac OS X 10_15_7) AppleWebKit/537.36 (KHTML, like Gecko) Chrome/135.0.0.0 Safari/537.36",Macintosh,Chrome,135.0.0.0,OS X,10_15_7,https://5puzkbbxv1.cognition.run/?sona_id=57158,"en-US,en;q=0.9",wz723um6lt0tc0f,21,"[""White""]",No,Male,NA,No,169833.69999998808,NA,3310,NA,"{""product_choice"":""B""}",choice,dtc,trinary,repulsion_B,1,microwave ovens,null,null,null,null,null,null,1,90,100,80,40,30,40,Warranty,Cooking power,NA,NA
NA,NA,NA,NA,NA,choice_trial_setup,html-keyboard-response,54,92583,0.0-4.0-0.25,91,1,2025-04-29T17:04:05Z,b60275e29fe2361ab97ac0ac217840d7,"Mozilla/5.0 (Macintosh; Intel Mac OS X 10_15_7) AppleWebKit/537.36 (KHTML, like Gecko) Chrome/135.0.0.0 Safari/537.36",Macintosh,Chrome,135.0.0.0,OS X,10_15_7,https://5puzkbbxv1.cognition.run/?sona_id=57158,"en-US,en;q=0.9",wz723um6lt0tc0f,21,"[""White""]",No,Male,NA,No,169833.69999998808,NA,null,<p></p>,null,choice,tc,binary,repulsion,2,microwave ovens,null,null,null,null,null,null,2,NA,NA,NA,NA,NA,NA,NA,NA,NA,NA
NA,NA,NA,NA,NA,choice_trial,survey-html-form,55,94757,0.0-4.0-1.25,91,1,2025-04-29T17:04:05Z,b60275e29fe2361ab97ac0ac217840d7,"Mozilla/5.0 (Macintosh; Intel Mac OS X 10_15_7) AppleWebKit/537.36 (KHTML, like Gecko) Chrome/135.0.0.0 Safari/537.36",Macintosh,Chrome,135.0.0.0,OS X,10_15_7,https://5puzkbbxv1.cognition.run/?sona_id=57158,"en-US,en;q=0.9",wz723um6lt0tc0f,21,"[""White""]",No,Male,NA,No,169833.69999998808,NA,2169,NA,"{""product_choice"":""A""}",choice,tc,binary,repulsion,2,microwave ovens,null,null,null,null,null,null,2,30,40,null,100,90,null,Warranty,Cooking power,NA,NA
NA,NA,NA,NA,NA,choice_trial_setup,html-keyboard-response,56,95063,0.0-4.0-0.26,91,1,2025-04-29T17:04:05Z,b60275e29fe2361ab97ac0ac217840d7,"Mozilla/5.0 (Macintosh; Intel Mac OS X 10_15_7) AppleWebKit/537.36 (KHTML, like Gecko) Chrome/135.0.0.0 Safari/537.36",Macintosh,Chrome,135.0.0.0,OS X,10_15_7,https://5puzkbbxv1.cognition.run/?sona_id=57158,"en-US,en;q=0.9",wz723um6lt0tc0f,21,"[""White""]",No,Male,NA,No,169833.69999998808,NA,null,<p></p>,null,choice,tdc,trinary,repulsion_A,1,microwave ovens,null,null,null,null,null,null,1,NA,NA,NA,NA,NA,NA,NA,NA,NA,NA
NA,NA,NA,NA,NA,choice_trial,survey-html-form,57,95772,0.0-4.0-1.26,91,1,2025-04-29T17:04:05Z,b60275e29fe2361ab97ac0ac217840d7,"Mozilla/5.0 (Macintosh; Intel Mac OS X 10_15_7) AppleWebKit/537.36 (KHTML, like Gecko) Chrome/135.0.0.0 Safari/537.36",Macintosh,Chrome,135.0.0.0,OS X,10_15_7,https://5puzkbbxv1.cognition.run/?sona_id=57158,"en-US,en;q=0.9",wz723um6lt0tc0f,21,"[""White""]",No,Male,NA,No,169833.69999998808,NA,703,NA,"{""product_choice"":""A""}",choice,tdc,trinary,repulsion_A,1,microwave ovens,null,null,null,null,null,null,1,100,90,100,30,40,20,Warranty,Cooking power,NA,NA
NA,NA,NA,NA,NA,choice_trial_setup,html-keyboard-response,58,96077,0.0-4.0-0.27,91,1,2025-04-29T17:04:05Z,b60275e29fe2361ab97ac0ac217840d7,"Mozilla/5.0 (Macintosh; Intel Mac OS X 10_15_7) AppleWebKit/537.36 (KHTML, like Gecko) Chrome/135.0.0.0 Safari/537.36",Macintosh,Chrome,135.0.0.0,OS X,10_15_7,https://5puzkbbxv1.cognition.run/?sona_id=57158,"en-US,en;q=0.9",wz723um6lt0tc0f,21,"[""White""]",No,Male,NA,No,169833.69999998808,NA,null,<p></p>,null,choice,ctd,trinary,repulsion_B,2,televisions,null,null,null,null,null,null,2,NA,NA,NA,NA,NA,NA,NA,NA,NA,NA
NA,NA,NA,NA,NA,choice_trial,survey-html-form,59,96424,0.0-4.0-1.27,91,1,2025-04-29T17:04:05Z,b60275e29fe2361ab97ac0ac217840d7,"Mozilla/5.0 (Macintosh; Intel Mac OS X 10_15_7) AppleWebKit/537.36 (KHTML, like Gecko) Chrome/135.0.0.0 Safari/537.36",Macintosh,Chrome,135.0.0.0,OS X,10_15_7,https://5puzkbbxv1.cognition.run/?sona_id=57158,"en-US,en;q=0.9",wz723um6lt0tc0f,21,"[""White""]",No,Male,NA,No,169833.69999998808,NA,342,NA,"{""product_choice"":""A""}",choice,ctd,trinary,repulsion_B,2,televisions,null,null,null,null,null,null,2,40,30,40,90,100,80,Screen size,Average lifespan,NA,NA
NA,NA,NA,NA,NA,choice_trial_setup,html-keyboard-response,60,96730,0.0-4.0-0.28,91,1,2025-04-29T17:04:05Z,b60275e29fe2361ab97ac0ac217840d7,"Mozilla/5.0 (Macintosh; Intel Mac OS X 10_15_7) AppleWebKit/537.36 (KHTML, like Gecko) Chrome/135.0.0.0 Safari/537.36",Macintosh,Chrome,135.0.0.0,OS X,10_15_7,https://5puzkbbxv1.cognition.run/?sona_id=57158,"en-US,en;q=0.9",wz723um6lt0tc0f,21,"[""White""]",No,Male,NA,No,169833.69999998808,NA,null,<p></p>,null,choice,tc,binary,repulsion,1,laptops,null,null,null,null,null,null,2,NA,NA,NA,NA,NA,NA,NA,NA,NA,NA
NA,NA,NA,NA,NA,choice_trial,survey-html-form,61,97689,0.0-4.0-1.28,91,1,2025-04-29T17:04:05Z,b60275e29fe2361ab97ac0ac217840d7,"Mozilla/5.0 (Macintosh; Intel Mac OS X 10_15_7) AppleWebKit/537.36 (KHTML, like Gecko) Chrome/135.0.0.0 Safari/537.36",Macintosh,Chrome,135.0.0.0,OS X,10_15_7,https://5puzkbbxv1.cognition.run/?sona_id=57158,"en-US,en;q=0.9",wz723um6lt0tc0f,21,"[""White""]",No,Male,NA,No,169833.69999998808,NA,953,NA,"{""product_choice"":""A""}",choice,tc,binary,repulsion,1,laptops,null,null,null,null,null,null,2,100,90,null,30,40,null,Processing speed,Memory (RAM),NA,NA
NA,NA,NA,NA,NA,choice_trial_setup,html-keyboard-response,62,97994,0.0-4.0-0.29,91,1,2025-04-29T17:04:05Z,b60275e29fe2361ab97ac0ac217840d7,"Mozilla/5.0 (Macintosh; Intel Mac OS X 10_15_7) AppleWebKit/537.36 (KHTML, like Gecko) Chrome/135.0.0.0 Safari/537.36",Macintosh,Chrome,135.0.0.0,OS X,10_15_7,https://5puzkbbxv1.cognition.run/?sona_id=57158,"en-US,en;q=0.9",wz723um6lt0tc0f,21,"[""White""]",No,Male,NA,No,169833.69999998808,NA,null,<p></p>,null,choice,tcd,trinary,repulsion_A,2,laptops,null,null,null,null,null,null,1,NA,NA,NA,NA,NA,NA,NA,NA,NA,NA
NA,NA,NA,NA,NA,choice_trial,survey-html-form,63,100123,0.0-4.0-1.29,91,1,2025-04-29T17:04:05Z,b60275e29fe2361ab97ac0ac217840d7,"Mozilla/5.0 (Macintosh; Intel Mac OS X 10_15_7) AppleWebKit/537.36 (KHTML, like Gecko) Chrome/135.0.0.0 Safari/537.36",Macintosh,Chrome,135.0.0.0,OS X,10_15_7,https://5puzkbbxv1.cognition.run/?sona_id=57158,"en-US,en;q=0.9",wz723um6lt0tc0f,21,"[""White""]",No,Male,NA,No,169833.69999998808,NA,2125,NA,"{""product_choice"":""B""}",choice,tcd,trinary,repulsion_A,2,laptops,null,null,null,null,null,null,1,30,40,20,100,90,100,Processing speed,Memory (RAM),NA,NA
NA,NA,NA,NA,NA,choice_trial_setup,html-keyboard-response,64,100426,0.0-4.0-0.30,91,1,2025-04-29T17:04:05Z,b60275e29fe2361ab97ac0ac217840d7,"Mozilla/5.0 (Macintosh; Intel Mac OS X 10_15_7) AppleWebKit/537.36 (KHTML, like Gecko) Chrome/135.0.0.0 Safari/537.36",Macintosh,Chrome,135.0.0.0,OS X,10_15_7,https://5puzkbbxv1.cognition.run/?sona_id=57158,"en-US,en;q=0.9",wz723um6lt0tc0f,21,"[""White""]",No,Male,NA,No,169833.69999998808,NA,null,<p></p>,null,choice,wbw,trinary,catch,null,washing machines,95,85,20,25,35,50,2,NA,NA,NA,NA,NA,NA,NA,NA,NA,NA
NA,NA,NA,NA,NA,choice_trial,survey-html-form,65,101058,0.0-4.0-1.30,91,1,2025-04-29T17:04:05Z,b60275e29fe2361ab97ac0ac217840d7,"Mozilla/5.0 (Macintosh; Intel Mac OS X 10_15_7) AppleWebKit/537.36 (KHTML, like Gecko) Chrome/135.0.0.0 Safari/537.36",Macintosh,Chrome,135.0.0.0,OS X,10_15_7,https://5puzkbbxv1.cognition.run/?sona_id=57158,"en-US,en;q=0.9",wz723um6lt0tc0f,21,"[""White""]",No,Male,NA,No,169833.69999998808,NA,627,NA,"{""product_choice"":""B""}",choice,wbw,trinary,catch,null,washing machines,95,85,20,25,35,50,2,null,null,null,null,null,null,Average lifespan,Energy savings,NA,NA
NA,NA,NA,NA,NA,choice_trial_setup,html-keyboard-response,66,101363,0.0-4.0-0.31,91,1,2025-04-29T17:04:05Z,b60275e29fe2361ab97ac0ac217840d7,"Mozilla/5.0 (Macintosh; Intel Mac OS X 10_15_7) AppleWebKit/537.36 (KHTML, like Gecko) Chrome/135.0.0.0 Safari/537.36",Macintosh,Chrome,135.0.0.0,OS X,10_15_7,https://5puzkbbxv1.cognition.run/?sona_id=57158,"en-US,en;q=0.9",wz723um6lt0tc0f,21,"[""White""]",No,Male,NA,No,169833.69999998808,NA,null,<p></p>,null,choice,ctd,trinary,repulsion_A,1,laptops,null,null,null,null,null,null,1,NA,NA,NA,NA,NA,NA,NA,NA,NA,NA
NA,NA,NA,NA,NA,choice_trial,survey-html-form,67,102189,0.0-4.0-1.31,91,1,2025-04-29T17:04:05Z,b60275e29fe2361ab97ac0ac217840d7,"Mozilla/5.0 (Macintosh; Intel Mac OS X 10_15_7) AppleWebKit/537.36 (KHTML, like Gecko) Chrome/135.0.0.0 Safari/537.36",Macintosh,Chrome,135.0.0.0,OS X,10_15_7,https://5puzkbbxv1.cognition.run/?sona_id=57158,"en-US,en;q=0.9",wz723um6lt0tc0f,21,"[""White""]",No,Male,NA,No,169833.69999998808,NA,821,NA,"{""product_choice"":""B""}",choice,ctd,trinary,repulsion_A,1,laptops,null,null,null,null,null,null,1,100,90,100,30,40,20,Processing speed,Memory (RAM),NA,NA
NA,NA,NA,NA,NA,choice_trial_setup,html-keyboard-response,68,102494,0.0-4.0-0.32,91,1,2025-04-29T17:04:05Z,b60275e29fe2361ab97ac0ac217840d7,"Mozilla/5.0 (Macintosh; Intel Mac OS X 10_15_7) AppleWebKit/537.36 (KHTML, like Gecko) Chrome/135.0.0.0 Safari/537.36",Macintosh,Chrome,135.0.0.0,OS X,10_15_7,https://5puzkbbxv1.cognition.run/?sona_id=57158,"en-US,en;q=0.9",wz723um6lt0tc0f,21,"[""White""]",No,Male,NA,No,169833.69999998808,NA,null,<p></p>,null,choice,ctd,trinary,repulsion_B,1,laptops,null,null,null,null,null,null,1,NA,NA,NA,NA,NA,NA,NA,NA,NA,NA
NA,NA,NA,NA,NA,choice_trial,survey-html-form,69,102890,0.0-4.0-1.32,91,1,2025-04-29T17:04:05Z,b60275e29fe2361ab97ac0ac217840d7,"Mozilla/5.0 (Macintosh; Intel Mac OS X 10_15_7) AppleWebKit/537.36 (KHTML, like Gecko) Chrome/135.0.0.0 Safari/537.36",Macintosh,Chrome,135.0.0.0,OS X,10_15_7,https://5puzkbbxv1.cognition.run/?sona_id=57158,"en-US,en;q=0.9",wz723um6lt0tc0f,21,"[""White""]",No,Male,NA,No,169833.69999998808,NA,391,NA,"{""product_choice"":""B""}",choice,ctd,trinary,repulsion_B,1,laptops,null,null,null,null,null,null,1,90,100,80,40,30,40,Processing speed,Memory (RAM),NA,NA
NA,NA,NA,NA,NA,choice_trial_setup,html-keyboard-response,70,103194,0.0-4.0-0.33,91,1,2025-04-29T17:04:05Z,b60275e29fe2361ab97ac0ac217840d7,"Mozilla/5.0 (Macintosh; Intel Mac OS X 10_15_7) AppleWebKit/537.36 (KHTML, like Gecko) Chrome/135.0.0.0 Safari/537.36",Macintosh,Chrome,135.0.0.0,OS X,10_15_7,https://5puzkbbxv1.cognition.run/?sona_id=57158,"en-US,en;q=0.9",wz723um6lt0tc0f,21,"[""White""]",No,Male,NA,No,169833.69999998808,NA,null,<p></p>,null,choice,wbw,trinary,catch,null,laptops,90,60,35,10,30,45,2,NA,NA,NA,NA,NA,NA,NA,NA,NA,NA
NA,NA,NA,NA,NA,choice_trial,survey-html-form,71,103633,0.0-4.0-1.33,91,1,2025-04-29T17:04:05Z,b60275e29fe2361ab97ac0ac217840d7,"Mozilla/5.0 (Macintosh; Intel Mac OS X 10_15_7) AppleWebKit/537.36 (KHTML, like Gecko) Chrome/135.0.0.0 Safari/537.36",Macintosh,Chrome,135.0.0.0,OS X,10_15_7,https://5puzkbbxv1.cognition.run/?sona_id=57158,"en-US,en;q=0.9",wz723um6lt0tc0f,21,"[""White""]",No,Male,NA,No,169833.69999998808,NA,432,NA,"{""product_choice"":""B""}",choice,wbw,trinary,catch,null,laptops,90,60,35,10,30,45,2,null,null,null,null,null,null,Processing speed,Memory (RAM),NA,NA
NA,NA,NA,NA,NA,choice_trial_setup,html-keyboard-response,72,103938,0.0-4.0-0.34,91,1,2025-04-29T17:04:05Z,b60275e29fe2361ab97ac0ac217840d7,"Mozilla/5.0 (Macintosh; Intel Mac OS X 10_15_7) AppleWebKit/537.36 (KHTML, like Gecko) Chrome/135.0.0.0 Safari/537.36",Macintosh,Chrome,135.0.0.0,OS X,10_15_7,https://5puzkbbxv1.cognition.run/?sona_id=57158,"en-US,en;q=0.9",wz723um6lt0tc0f,21,"[""White""]",No,Male,NA,No,169833.69999998808,NA,null,<p></p>,null,choice,ctd,trinary,repulsion_B,2,laptops,null,null,null,null,null,null,2,NA,NA,NA,NA,NA,NA,NA,NA,NA,NA
NA,NA,NA,NA,NA,choice_trial,survey-html-form,73,104371,0.0-4.0-1.34,91,1,2025-04-29T17:04:05Z,b60275e29fe2361ab97ac0ac217840d7,"Mozilla/5.0 (Macintosh; Intel Mac OS X 10_15_7) AppleWebKit/537.36 (KHTML, like Gecko) Chrome/135.0.0.0 Safari/537.36",Macintosh,Chrome,135.0.0.0,OS X,10_15_7,https://5puzkbbxv1.cognition.run/?sona_id=57158,"en-US,en;q=0.9",wz723um6lt0tc0f,21,"[""White""]",No,Male,NA,No,169833.69999998808,NA,429,NA,"{""product_choice"":""B""}",choice,ctd,trinary,repulsion_B,2,laptops,null,null,null,null,null,null,2,40,30,40,90,100,80,Processing speed,Memory (RAM),NA,NA
NA,NA,NA,NA,NA,choice_trial_setup,html-keyboard-response,74,104675,0.0-4.0-0.35,91,1,2025-04-29T17:04:05Z,b60275e29fe2361ab97ac0ac217840d7,"Mozilla/5.0 (Macintosh; Intel Mac OS X 10_15_7) AppleWebKit/537.36 (KHTML, like Gecko) Chrome/135.0.0.0 Safari/537.36",Macintosh,Chrome,135.0.0.0,OS X,10_15_7,https://5puzkbbxv1.cognition.run/?sona_id=57158,"en-US,en;q=0.9",wz723um6lt0tc0f,21,"[""White""]",No,Male,NA,No,169833.69999998808,NA,null,<p></p>,null,choice,tcd,trinary,repulsion_B,2,washing machines,null,null,null,null,null,null,1,NA,NA,NA,NA,NA,NA,NA,NA,NA,NA
NA,NA,NA,NA,NA,choice_trial,survey-html-form,75,105175,0.0-4.0-1.35,91,1,2025-04-29T17:04:05Z,b60275e29fe2361ab97ac0ac217840d7,"Mozilla/5.0 (Macintosh; Intel Mac OS X 10_15_7) AppleWebKit/537.36 (KHTML, like Gecko) Chrome/135.0.0.0 Safari/537.36",Macintosh,Chrome,135.0.0.0,OS X,10_15_7,https://5puzkbbxv1.cognition.run/?sona_id=57158,"en-US,en;q=0.9",wz723um6lt0tc0f,21,"[""White""]",No,Male,NA,No,169833.69999998808,NA,494,NA,"{""product_choice"":""B""}",choice,tcd,trinary,repulsion_B,2,washing machines,null,null,null,null,null,null,1,40,30,40,90,100,80,Average lifespan,Energy savings,NA,NA
NA,NA,NA,NA,NA,choice_trial_setup,html-keyboard-response,76,105480,0.0-4.0-0.36,91,1,2025-04-29T17:04:05Z,b60275e29fe2361ab97ac0ac217840d7,"Mozilla/5.0 (Macintosh; Intel Mac OS X 10_15_7) AppleWebKit/537.36 (KHTML, like Gecko) Chrome/135.0.0.0 Safari/537.36",Macintosh,Chrome,135.0.0.0,OS X,10_15_7,https://5puzkbbxv1.cognition.run/?sona_id=57158,"en-US,en;q=0.9",wz723um6lt0tc0f,21,"[""White""]",No,Male,NA,No,169833.69999998808,NA,null,<p></p>,null,choice,ct,binary,attraction,NA,washing machines,null,null,null,null,null,null,1,NA,NA,NA,NA,NA,NA,NA,NA,NA,NA
NA,NA,NA,NA,NA,choice_trial,survey-html-form,77,106411,0.0-4.0-1.36,91,1,2025-04-29T17:04:05Z,b60275e29fe2361ab97ac0ac217840d7,"Mozilla/5.0 (Macintosh; Intel Mac OS X 10_15_7) AppleWebKit/537.36 (KHTML, like Gecko) Chrome/135.0.0.0 Safari/537.36",Macintosh,Chrome,135.0.0.0,OS X,10_15_7,https://5puzkbbxv1.cognition.run/?sona_id=57158,"en-US,en;q=0.9",wz723um6lt0tc0f,21,"[""White""]",No,Male,NA,No,169833.69999998808,NA,925,NA,"{""product_choice"":""B""}",choice,ct,binary,attraction,NA,washing machines,null,null,null,null,null,null,1,60,50,null,50,60,null,Average lifespan,Energy savings,NA,NA
NA,NA,NA,NA,NA,choice_trial_setup,html-keyboard-response,78,106715,0.0-4.0-0.37,91,1,2025-04-29T17:04:05Z,b60275e29fe2361ab97ac0ac217840d7,"Mozilla/5.0 (Macintosh; Intel Mac OS X 10_15_7) AppleWebKit/537.36 (KHTML, like Gecko) Chrome/135.0.0.0 Safari/537.36",Macintosh,Chrome,135.0.0.0,OS X,10_15_7,https://5puzkbbxv1.cognition.run/?sona_id=57158,"en-US,en;q=0.9",wz723um6lt0tc0f,21,"[""White""]",No,Male,NA,No,169833.69999998808,NA,null,<p></p>,null,choice,bw,binary,catch,null,washing machines,85,70,10,40,null,null,2,NA,NA,NA,NA,NA,NA,NA,NA,NA,NA
NA,NA,NA,NA,NA,choice_trial,survey-html-form,79,107843,0.0-4.0-1.37,91,1,2025-04-29T17:04:05Z,b60275e29fe2361ab97ac0ac217840d7,"Mozilla/5.0 (Macintosh; Intel Mac OS X 10_15_7) AppleWebKit/537.36 (KHTML, like Gecko) Chrome/135.0.0.0 Safari/537.36",Macintosh,Chrome,135.0.0.0,OS X,10_15_7,https://5puzkbbxv1.cognition.run/?sona_id=57158,"en-US,en;q=0.9",wz723um6lt0tc0f,21,"[""White""]",No,Male,NA,No,169833.69999998808,NA,1121,NA,"{""product_choice"":""B""}",choice,bw,binary,catch,null,washing machines,85,70,10,40,null,null,2,null,null,null,null,null,null,Average lifespan,Energy savings,NA,NA
NA,NA,NA,NA,NA,choice_trial_setup,html-keyboard-response,80,108149,0.0-4.0-0.38,91,1,2025-04-29T17:04:05Z,b60275e29fe2361ab97ac0ac217840d7,"Mozilla/5.0 (Macintosh; Intel Mac OS X 10_15_7) AppleWebKit/537.36 (KHTML, like Gecko) Chrome/135.0.0.0 Safari/537.36",Macintosh,Chrome,135.0.0.0,OS X,10_15_7,https://5puzkbbxv1.cognition.run/?sona_id=57158,"en-US,en;q=0.9",wz723um6lt0tc0f,21,"[""White""]",No,Male,NA,No,169833.69999998808,NA,null,<p></p>,null,choice,wwb,trinary,catch,null,televisions,75,85,50,35,20,45,1,NA,NA,NA,NA,NA,NA,NA,NA,NA,NA
NA,NA,NA,NA,NA,choice_trial,survey-html-form,81,109424,0.0-4.0-1.38,91,1,2025-04-29T17:04:05Z,b60275e29fe2361ab97ac0ac217840d7,"Mozilla/5.0 (Macintosh; Intel Mac OS X 10_15_7) AppleWebKit/537.36 (KHTML, like Gecko) Chrome/135.0.0.0 Safari/537.36",Macintosh,Chrome,135.0.0.0,OS X,10_15_7,https://5puzkbbxv1.cognition.run/?sona_id=57158,"en-US,en;q=0.9",wz723um6lt0tc0f,21,"[""White""]",No,Male,NA,No,169833.69999998808,NA,1269,NA,"{""product_choice"":""B""}",choice,wwb,trinary,catch,null,televisions,75,85,50,35,20,45,1,null,null,null,null,null,null,Screen size,Average lifespan,NA,NA
NA,NA,NA,NA,NA,choice_trial_setup,html-keyboard-response,82,109730,0.0-4.0-0.39,91,1,2025-04-29T17:04:05Z,b60275e29fe2361ab97ac0ac217840d7,"Mozilla/5.0 (Macintosh; Intel Mac OS X 10_15_7) AppleWebKit/537.36 (KHTML, like Gecko) Chrome/135.0.0.0 Safari/537.36",Macintosh,Chrome,135.0.0.0,OS X,10_15_7,https://5puzkbbxv1.cognition.run/?sona_id=57158,"en-US,en;q=0.9",wz723um6lt0tc0f,21,"[""White""]",No,Male,NA,No,169833.69999998808,NA,null,<p></p>,null,choice,dct,trinary,attraction,2,washing machines,null,null,null,null,null,null,1,NA,NA,NA,NA,NA,NA,NA,NA,NA,NA
NA,NA,NA,NA,NA,choice_trial,survey-html-form,83,110207,0.0-4.0-1.39,91,1,2025-04-29T17:04:05Z,b60275e29fe2361ab97ac0ac217840d7,"Mozilla/5.0 (Macintosh; Intel Mac OS X 10_15_7) AppleWebKit/537.36 (KHTML, like Gecko) Chrome/135.0.0.0 Safari/537.36",Macintosh,Chrome,135.0.0.0,OS X,10_15_7,https://5puzkbbxv1.cognition.run/?sona_id=57158,"en-US,en;q=0.9",wz723um6lt0tc0f,21,"[""White""]",No,Male,NA,No,169833.69999998808,NA,472,NA,"{""product_choice"":""B""}",choice,dct,trinary,attraction,2,washing machines,null,null,null,null,null,null,1,50,60,40,60,50,60,Average lifespan,Energy savings,NA,NA
NA,NA,NA,NA,NA,choice_trial_setup,html-keyboard-response,84,110513,0.0-4.0-0.40,91,1,2025-04-29T17:04:05Z,b60275e29fe2361ab97ac0ac217840d7,"Mozilla/5.0 (Macintosh; Intel Mac OS X 10_15_7) AppleWebKit/537.36 (KHTML, like Gecko) Chrome/135.0.0.0 Safari/537.36",Macintosh,Chrome,135.0.0.0,OS X,10_15_7,https://5puzkbbxv1.cognition.run/?sona_id=57158,"en-US,en;q=0.9",wz723um6lt0tc0f,21,"[""White""]",No,Male,NA,No,169833.69999998808,NA,null,<p></p>,null,choice,dtc,trinary,repulsion_A,2,microwave ovens,null,null,null,null,null,null,1,NA,NA,NA,NA,NA,NA,NA,NA,NA,NA
NA,NA,NA,NA,NA,choice_trial,survey-html-form,85,110929,0.0-4.0-1.40,91,1,2025-04-29T17:04:05Z,b60275e29fe2361ab97ac0ac217840d7,"Mozilla/5.0 (Macintosh; Intel Mac OS X 10_15_7) AppleWebKit/537.36 (KHTML, like Gecko) Chrome/135.0.0.0 Safari/537.36",Macintosh,Chrome,135.0.0.0,OS X,10_15_7,https://5puzkbbxv1.cognition.run/?sona_id=57158,"en-US,en;q=0.9",wz723um6lt0tc0f,21,"[""White""]",No,Male,NA,No,169833.69999998808,NA,410,NA,"{""product_choice"":""B""}",choice,dtc,trinary,repulsion_A,2,microwave ovens,null,null,null,null,null,null,1,30,40,20,100,90,100,Warranty,Cooking power,NA,NA
NA,NA,NA,NA,NA,choice_trial_setup,html-keyboard-response,86,111234,0.0-4.0-0.41,91,1,2025-04-29T17:04:05Z,b60275e29fe2361ab97ac0ac217840d7,"Mozilla/5.0 (Macintosh; Intel Mac OS X 10_15_7) AppleWebKit/537.36 (KHTML, like Gecko) Chrome/135.0.0.0 Safari/537.36",Macintosh,Chrome,135.0.0.0,OS X,10_15_7,https://5puzkbbxv1.cognition.run/?sona_id=57158,"en-US,en;q=0.9",wz723um6lt0tc0f,21,"[""White""]",No,Male,NA,No,169833.69999998808,NA,null,<p></p>,null,choice,dtc,trinary,repulsion_B,2,microwave ovens,null,null,null,null,null,null,1,NA,NA,NA,NA,NA,NA,NA,NA,NA,NA
NA,NA,NA,NA,NA,choice_trial,survey-html-form,87,111578,0.0-4.0-1.41,91,1,2025-04-29T17:04:05Z,b60275e29fe2361ab97ac0ac217840d7,"Mozilla/5.0 (Macintosh; Intel Mac OS X 10_15_7) AppleWebKit/537.36 (KHTML, like Gecko) Chrome/135.0.0.0 Safari/537.36",Macintosh,Chrome,135.0.0.0,OS X,10_15_7,https://5puzkbbxv1.cognition.run/?sona_id=57158,"en-US,en;q=0.9",wz723um6lt0tc0f,21,"[""White""]",No,Male,NA,No,169833.69999998808,NA,339,NA,"{""product_choice"":""B""}",choice,dtc,trinary,repulsion_B,2,microwave ovens,null,null,null,null,null,null,1,40,30,40,90,100,80,Warranty,Cooking power,NA,NA
NA,NA,NA,NA,NA,choice_trial_setup,html-keyboard-response,88,111883,0.0-4.0-0.42,91,1,2025-04-29T17:04:05Z,b60275e29fe2361ab97ac0ac217840d7,"Mozilla/5.0 (Macintosh; Intel Mac OS X 10_15_7) AppleWebKit/537.36 (KHTML, like Gecko) Chrome/135.0.0.0 Safari/537.36",Macintosh,Chrome,135.0.0.0,OS X,10_15_7,https://5puzkbbxv1.cognition.run/?sona_id=57158,"en-US,en;q=0.9",wz723um6lt0tc0f,21,"[""White""]",No,Male,NA,No,169833.69999998808,NA,null,<p></p>,null,choice,tdc,trinary,repulsion_A,1,televisions,null,null,null,null,null,null,1,NA,NA,NA,NA,NA,NA,NA,NA,NA,NA
NA,NA,NA,NA,NA,choice_trial,survey-html-form,89,112663,0.0-4.0-1.42,91,1,2025-04-29T17:04:05Z,b60275e29fe2361ab97ac0ac217840d7,"Mozilla/5.0 (Macintosh; Intel Mac OS X 10_15_7) AppleWebKit/537.36 (KHTML, like Gecko) Chrome/135.0.0.0 Safari/537.36",Macintosh,Chrome,135.0.0.0,OS X,10_15_7,https://5puzkbbxv1.cognition.run/?sona_id=57158,"en-US,en;q=0.9",wz723um6lt0tc0f,21,"[""White""]",No,Male,NA,No,169833.69999998808,NA,774,NA,"{""product_choice"":""B""}",choice,tdc,trinary,repulsion_A,1,televisions,null,null,null,null,null,null,1,100,90,100,30,40,20,Screen size,Average lifespan,NA,NA
NA,NA,NA,NA,NA,choice_trial_setup,html-keyboard-response,90,112969,0.0-4.0-0.43,91,1,2025-04-29T17:04:05Z,b60275e29fe2361ab97ac0ac217840d7,"Mozilla/5.0 (Macintosh; Intel Mac OS X 10_15_7) AppleWebKit/537.36 (KHTML, like Gecko) Chrome/135.0.0.0 Safari/537.36",Macintosh,Chrome,135.0.0.0,OS X,10_15_7,https://5puzkbbxv1.cognition.run/?sona_id=57158,"en-US,en;q=0.9",wz723um6lt0tc0f,21,"[""White""]",No,Male,NA,No,169833.69999998808,NA,null,<p></p>,null,choice,tc,binary,repulsion,1,washing machines,null,null,null,null,null,null,1,NA,NA,NA,NA,NA,NA,NA,NA,NA,NA
NA,NA,NA,NA,NA,choice_trial,survey-html-form,91,114215,0.0-4.0-1.43,91,1,2025-04-29T17:04:05Z,b60275e29fe2361ab97ac0ac217840d7,"Mozilla/5.0 (Macintosh; Intel Mac OS X 10_15_7) AppleWebKit/537.36 (KHTML, like Gecko) Chrome/135.0.0.0 Safari/537.36",Macintosh,Chrome,135.0.0.0,OS X,10_15_7,https://5puzkbbxv1.cognition.run/?sona_id=57158,"en-US,en;q=0.9",wz723um6lt0tc0f,21,"[""White""]",No,Male,NA,No,169833.69999998808,NA,1241,NA,"{""product_choice"":""A""}",choice,tc,binary,repulsion,1,washing machines,null,null,null,null,null,null,1,100,90,null,30,40,null,Average lifespan,Energy savings,NA,NA
NA,NA,NA,NA,NA,post_trials_message,html-button-response,92,117995,0.0-5.0,91,1,2025-04-29T17:04:05Z,b60275e29fe2361ab97ac0ac217840d7,"Mozilla/5.0 (Macintosh; Intel Mac OS X 10_15_7) AppleWebKit/537.36 (KHTML, like Gecko) Chrome/135.0.0.0 Safari/537.36",Macintosh,Chrome,135.0.0.0,OS X,10_15_7,https://5puzkbbxv1.cognition.run/?sona_id=57158,"en-US,en;q=0.9",wz723um6lt0tc0f,21,"[""White""]",No,Male,NA,No,169833.69999998808,NA,3775,<p> <b>Thank you for your patience!</b></p><p>  The study will be done after completing a brief form. </p>,0,NA,NA,NA,NA,NA,NA,NA,NA,NA,NA,NA,NA,NA,NA,NA,NA,NA,NA,NA,NA,NA,NA,NA
NA,NA,NA,NA,NA,survey_message,survey-text,93,137896,0.0-6.0,91,1,2025-04-29T17:04:05Z,b60275e29fe2361ab97ac0ac217840d7,"Mozilla/5.0 (Macintosh; Intel Mac OS X 10_15_7) AppleWebKit/537.36 (KHTML, like Gecko) Chrome/135.0.0.0 Safari/537.36",Macintosh,Chrome,135.0.0.0,OS X,10_15_7,https://5puzkbbxv1.cognition.run/?sona_id=57158,"en-US,en;q=0.9",wz723um6lt0tc0f,21,"[""White""]",No,Male,NA,No,169833.69999998808,NA,19893,NA,"{""Q0"":""I just tried to decide what the best value was""}",NA,NA,NA,NA,NA,NA,NA,NA,NA,NA,NA,NA,NA,NA,NA,NA,NA,NA,NA,NA,NA,I just tried to decide what the best value was,NA
NA,NA,NA,NA,NA,demo_age,survey-text,94,139707,0.0-7.0,91,1,2025-04-29T17:04:05Z,b60275e29fe2361ab97ac0ac217840d7,"Mozilla/5.0 (Macintosh; Intel Mac OS X 10_15_7) AppleWebKit/537.36 (KHTML, like Gecko) Chrome/135.0.0.0 Safari/537.36",Macintosh,Chrome,135.0.0.0,OS X,10_15_7,https://5puzkbbxv1.cognition.run/?sona_id=57158,"en-US,en;q=0.9",wz723um6lt0tc0f,21,"[""White""]",No,Male,NA,No,169833.69999998808,NA,1808,NA,"{""Q0"":""21""}",NA,NA,NA,NA,NA,NA,NA,NA,NA,NA,NA,NA,NA,NA,NA,NA,NA,NA,NA,NA,NA,NA,NA
NA,NA,NA,NA,NA,demo_race,survey-multi-select,95,143065,0.0-8.0,91,1,2025-04-29T17:04:05Z,b60275e29fe2361ab97ac0ac217840d7,"Mozilla/5.0 (Macintosh; Intel Mac OS X 10_15_7) AppleWebKit/537.36 (KHTML, like Gecko) Chrome/135.0.0.0 Safari/537.36",Macintosh,Chrome,135.0.0.0,OS X,10_15_7,https://5puzkbbxv1.cognition.run/?sona_id=57158,"en-US,en;q=0.9",wz723um6lt0tc0f,21,"[""White""]",No,Male,NA,No,169833.69999998808,NA,3351,NA,"{""Q0"":[""White""]}",NA,NA,NA,NA,NA,NA,NA,NA,NA,NA,NA,NA,NA,NA,NA,NA,NA,NA,NA,NA,NA,NA,[0]
NA,NA,NA,NA,NA,demo_ethnicity_gender,survey-multi-choice,96,146993,0.0-9.0,91,1,2025-04-29T17:04:05Z,b60275e29fe2361ab97ac0ac217840d7,"Mozilla/5.0 (Macintosh; Intel Mac OS X 10_15_7) AppleWebKit/537.36 (KHTML, like Gecko) Chrome/135.0.0.0 Safari/537.36",Macintosh,Chrome,135.0.0.0,OS X,10_15_7,https://5puzkbbxv1.cognition.run/?sona_id=57158,"en-US,en;q=0.9",wz723um6lt0tc0f,21,"[""White""]",No,Male,NA,No,169833.69999998808,NA,3922,NA,"{""Q0"":""No"",""Q1"":""Male""}",NA,NA,NA,NA,NA,NA,NA,NA,NA,NA,NA,NA,NA,NA,NA,NA,NA,NA,NA,NA,NA,NA,"[0,1]"
NA,NA,NA,NA,NA,demo_countries,survey-text,97,155611,0.0-10.0,91,1,2025-04-29T17:04:05Z,b60275e29fe2361ab97ac0ac217840d7,"Mozilla/5.0 (Macintosh; Intel Mac OS X 10_15_7) AppleWebKit/537.36 (KHTML, like Gecko) Chrome/135.0.0.0 Safari/537.36",Macintosh,Chrome,135.0.0.0,OS X,10_15_7,https://5puzkbbxv1.cognition.run/?sona_id=57158,"en-US,en;q=0.9",wz723um6lt0tc0f,21,"[""White""]",No,Male,NA,No,169833.69999998808,NA,8605,NA,"{""Q0"":""NA""}",NA,NA,NA,NA,NA,NA,NA,NA,NA,NA,NA,NA,NA,NA,NA,NA,NA,NA,NA,NA,NA,NA,NA
NA,NA,NA,NA,NA,demo_prev_study,survey-multi-choice,98,159945,0.0-11.0,91,1,2025-04-29T17:04:05Z,b60275e29fe2361ab97ac0ac217840d7,"Mozilla/5.0 (Macintosh; Intel Mac OS X 10_15_7) AppleWebKit/537.36 (KHTML, like Gecko) Chrome/135.0.0.0 Safari/537.36",Macintosh,Chrome,135.0.0.0,OS X,10_15_7,https://5puzkbbxv1.cognition.run/?sona_id=57158,"en-US,en;q=0.9",wz723um6lt0tc0f,21,"[""White""]",No,Male,NA,No,169833.69999998808,NA,4331,NA,"{""Q0"":""No""}",NA,NA,NA,NA,NA,NA,NA,NA,NA,NA,NA,NA,NA,NA,NA,NA,NA,NA,NA,NA,NA,NA,[0]
NA,NA,NA,NA,NA,post_survey_message,html-keyboard-response,99,163174,0.0-12.0,91,1,2025-04-29T17:04:05Z,b60275e29fe2361ab97ac0ac217840d7,"Mozilla/5.0 (Macintosh; Intel Mac OS X 10_15_7) AppleWebKit/537.36 (KHTML, like Gecko) Chrome/135.0.0.0 Safari/537.36",Macintosh,Chrome,135.0.0.0,OS X,10_15_7,https://5puzkbbxv1.cognition.run/?sona_id=57158,"en-US,en;q=0.9",wz723um6lt0tc0f,21,"[""White""]",No,Male,NA,No,169833.69999998808,NA,3223,NA,j,NA,NA,NA,NA,NA,NA,NA,NA,NA,NA,NA,NA,NA,NA,NA,NA,NA,NA,NA,NA,NA,NA,NA
NA,NA,NA,NA,NA,debrief,image-keyboard-response,100,169833,0.0-13.0,91,1,2025-04-29T17:04:05Z,b60275e29fe2361ab97ac0ac217840d7,"Mozilla/5.0 (Macintosh; Intel Mac OS X 10_15_7) AppleWebKit/537.36 (KHTML, like Gecko) Chrome/135.0.0.0 Safari/537.36",Macintosh,Chrome,135.0.0.0,OS X,10_15_7,https://5puzkbbxv1.cognition.run/?sona_id=57158,"en-US,en;q=0.9",wz723um6lt0tc0f,21,"[""White""]",No,Male,NA,No,169833.69999998808,NA,6650,Judg_choice_debrief.png,p,NA,NA,NA,NA,NA,NA,NA,NA,NA,NA,NA,NA,NA,NA,NA,NA,NA,NA,NA,NA,NA,NA,NA
