success,timeout,failed_images,failed_audio,failed_video,screen_id,trial_type,trial_index,time_elapsed,internal_node_id,run_id,condition,recorded_at,source_code_version,user_agent,device,browser,browser_version,platform,platform_version,referer,accept_language,ppt_id,age,race,ethnicity,gender,other_countries,prev_study,view_history,rt,stimulus,response,phase,order,set,effect,t_high,category,d1_best,d2_best,d1_worst1,d2_worst1,d1_worst2,d2_worst2,first_dim,d1_t,d1_c,d1_d,d2_t,d2_c,d2_d,d1_name,d2_name,strategy_response,question_order
TRUE,FALSE,[],[],[],img preload,preload,0,159,0.0-0.0,93,1,2025-04-29T18:46:25Z,b60275e29fe2361ab97ac0ac217840d7,"Mozilla/5.0 (iPhone; CPU iPhone OS 17_2_1 like Mac OS X) AppleWebKit/605.1.15 (KHTML, like Gecko) Version/17.2 Mobile/15E148 Safari/604.1",iPhone,Safari,17.2,iOS,17_2_1,https://5puzkbbxv1.cognition.run/?sona_id=57138,"en-US,en;q=0.9",pxbckn0hyqa7f6p,20,"[""White""]",No,Male,NA,No,NA,NA,NA,NA,NA,NA,NA,NA,NA,NA,NA,NA,NA,NA,NA,NA,NA,NA,NA,NA,NA,NA,NA,NA,NA,NA,NA
NA,NA,NA,NA,NA,computer_message,instructions,1,3056,0.0-1.0,93,1,2025-04-29T18:46:25Z,b60275e29fe2361ab97ac0ac217840d7,"Mozilla/5.0 (iPhone; CPU iPhone OS 17_2_1 like Mac OS X) AppleWebKit/605.1.15 (KHTML, like Gecko) Version/17.2 Mobile/15E148 Safari/604.1",iPhone,Safari,17.2,iOS,17_2_1,https://5puzkbbxv1.cognition.run/?sona_id=57138,"en-US,en;q=0.9",pxbckn0hyqa7f6p,20,"[""White""]",No,Male,NA,No,"[{""page_index"":0,""viewing_time"":2894}]",2895,NA,NA,NA,NA,NA,NA,NA,NA,NA,NA,NA,NA,NA,NA,NA,NA,NA,NA,NA,NA,NA,NA,NA,NA,NA
TRUE,NA,NA,NA,NA,NA,fullscreen,2,4974,0.0-2.0,93,1,2025-04-29T18:46:25Z,b60275e29fe2361ab97ac0ac217840d7,"Mozilla/5.0 (iPhone; CPU iPhone OS 17_2_1 like Mac OS X) AppleWebKit/605.1.15 (KHTML, like Gecko) Version/17.2 Mobile/15E148 Safari/604.1",iPhone,Safari,17.2,iOS,17_2_1,https://5puzkbbxv1.cognition.run/?sona_id=57138,"en-US,en;q=0.9",pxbckn0hyqa7f6p,20,"[""White""]",No,Male,NA,No,NA,914,NA,NA,NA,NA,NA,NA,NA,NA,NA,NA,NA,NA,NA,NA,NA,NA,NA,NA,NA,NA,NA,NA,NA,NA,NA
NA,NA,NA,NA,NA,choice_instructions,instructions,3,24765,0.0-3.0,93,1,2025-04-29T18:46:25Z,b60275e29fe2361ab97ac0ac217840d7,"Mozilla/5.0 (iPhone; CPU iPhone OS 17_2_1 like Mac OS X) AppleWebKit/605.1.15 (KHTML, like Gecko) Version/17.2 Mobile/15E148 Safari/604.1",iPhone,Safari,17.2,iOS,17_2_1,https://5puzkbbxv1.cognition.run/?sona_id=57138,"en-US,en;q=0.9",pxbckn0hyqa7f6p,20,"[""White""]",No,Male,NA,No,"[{""page_index"":0,""viewing_time"":1333},{""page_index"":1,""viewing_time"":1402},{""page_index"":2,""viewing_time"":2119},{""page_index"":3,""viewing_time"":851},{""page_index"":4,""viewing_time"":952},{""page_index"":5,""viewing_time"":9313},{""page_index"":6,""viewing_time"":3819}]",19789,NA,NA,NA,NA,NA,NA,NA,NA,NA,NA,NA,NA,NA,NA,NA,NA,NA,NA,NA,NA,NA,NA,NA,NA,NA
NA,NA,NA,NA,NA,choice_trial_setup,html-keyboard-response,4,25071,0.0-4.0-0.0,93,1,2025-04-29T18:46:25Z,b60275e29fe2361ab97ac0ac217840d7,"Mozilla/5.0 (iPhone; CPU iPhone OS 17_2_1 like Mac OS X) AppleWebKit/605.1.15 (KHTML, like Gecko) Version/17.2 Mobile/15E148 Safari/604.1",iPhone,Safari,17.2,iOS,17_2_1,https://5puzkbbxv1.cognition.run/?sona_id=57138,"en-US,en;q=0.9",pxbckn0hyqa7f6p,20,"[""White""]",No,Male,NA,No,NA,null,<p></p>,null,choice,cdt,trinary,repulsion_B,1,microwave ovens,null,null,null,null,null,null,2,NA,NA,NA,NA,NA,NA,NA,NA,NA,NA
NA,NA,NA,NA,NA,choice_trial,survey-html-form,5,36349,0.0-4.0-1.0,93,1,2025-04-29T18:46:25Z,b60275e29fe2361ab97ac0ac217840d7,"Mozilla/5.0 (iPhone; CPU iPhone OS 17_2_1 like Mac OS X) AppleWebKit/605.1.15 (KHTML, like Gecko) Version/17.2 Mobile/15E148 Safari/604.1",iPhone,Safari,17.2,iOS,17_2_1,https://5puzkbbxv1.cognition.run/?sona_id=57138,"en-US,en;q=0.9",pxbckn0hyqa7f6p,20,"[""White""]",No,Male,NA,No,NA,11269,NA,"{""product_choice"":""C""}",choice,cdt,trinary,repulsion_B,1,microwave ovens,null,null,null,null,null,null,2,90,100,80,40,30,40,Warranty,Cooking power,NA,NA
NA,NA,NA,NA,NA,choice_trial_setup,html-keyboard-response,6,36653,0.0-4.0-0.1,93,1,2025-04-29T18:46:25Z,b60275e29fe2361ab97ac0ac217840d7,"Mozilla/5.0 (iPhone; CPU iPhone OS 17_2_1 like Mac OS X) AppleWebKit/605.1.15 (KHTML, like Gecko) Version/17.2 Mobile/15E148 Safari/604.1",iPhone,Safari,17.2,iOS,17_2_1,https://5puzkbbxv1.cognition.run/?sona_id=57138,"en-US,en;q=0.9",pxbckn0hyqa7f6p,20,"[""White""]",No,Male,NA,No,NA,null,<p></p>,null,choice,bw,binary,catch,null,microwave ovens,90,50,5,30,null,null,2,NA,NA,NA,NA,NA,NA,NA,NA,NA,NA
NA,NA,NA,NA,NA,choice_trial,survey-html-form,7,42459,0.0-4.0-1.1,93,1,2025-04-29T18:46:25Z,b60275e29fe2361ab97ac0ac217840d7,"Mozilla/5.0 (iPhone; CPU iPhone OS 17_2_1 like Mac OS X) AppleWebKit/605.1.15 (KHTML, like Gecko) Version/17.2 Mobile/15E148 Safari/604.1",iPhone,Safari,17.2,iOS,17_2_1,https://5puzkbbxv1.cognition.run/?sona_id=57138,"en-US,en;q=0.9",pxbckn0hyqa7f6p,20,"[""White""]",No,Male,NA,No,NA,5789,NA,"{""product_choice"":""A""}",choice,bw,binary,catch,null,microwave ovens,90,50,5,30,null,null,2,null,null,null,null,null,null,Warranty,Cooking power,NA,NA
NA,NA,NA,NA,NA,choice_trial_setup,html-keyboard-response,8,42763,0.0-4.0-0.2,93,1,2025-04-29T18:46:25Z,b60275e29fe2361ab97ac0ac217840d7,"Mozilla/5.0 (iPhone; CPU iPhone OS 17_2_1 like Mac OS X) AppleWebKit/605.1.15 (KHTML, like Gecko) Version/17.2 Mobile/15E148 Safari/604.1",iPhone,Safari,17.2,iOS,17_2_1,https://5puzkbbxv1.cognition.run/?sona_id=57138,"en-US,en;q=0.9",pxbckn0hyqa7f6p,20,"[""White""]",No,Male,NA,No,NA,null,<p></p>,null,choice,tc,binary,attraction,NA,washing machines,null,null,null,null,null,null,1,NA,NA,NA,NA,NA,NA,NA,NA,NA,NA
NA,NA,NA,NA,NA,choice_trial,survey-html-form,9,47026,0.0-4.0-1.2,93,1,2025-04-29T18:46:25Z,b60275e29fe2361ab97ac0ac217840d7,"Mozilla/5.0 (iPhone; CPU iPhone OS 17_2_1 like Mac OS X) AppleWebKit/605.1.15 (KHTML, like Gecko) Version/17.2 Mobile/15E148 Safari/604.1",iPhone,Safari,17.2,iOS,17_2_1,https://5puzkbbxv1.cognition.run/?sona_id=57138,"en-US,en;q=0.9",pxbckn0hyqa7f6p,20,"[""White""]",No,Male,NA,No,NA,4258,NA,"{""product_choice"":""A""}",choice,tc,binary,attraction,NA,washing machines,null,null,null,null,null,null,1,60,50,null,50,60,null,Average lifespan,Energy savings,NA,NA
NA,NA,NA,NA,NA,choice_trial_setup,html-keyboard-response,10,47330,0.0-4.0-0.3,93,1,2025-04-29T18:46:25Z,b60275e29fe2361ab97ac0ac217840d7,"Mozilla/5.0 (iPhone; CPU iPhone OS 17_2_1 like Mac OS X) AppleWebKit/605.1.15 (KHTML, like Gecko) Version/17.2 Mobile/15E148 Safari/604.1",iPhone,Safari,17.2,iOS,17_2_1,https://5puzkbbxv1.cognition.run/?sona_id=57138,"en-US,en;q=0.9",pxbckn0hyqa7f6p,20,"[""White""]",No,Male,NA,No,NA,null,<p></p>,null,choice,tc,binary,repulsion,1,washing machines,null,null,null,null,null,null,2,NA,NA,NA,NA,NA,NA,NA,NA,NA,NA
NA,NA,NA,NA,NA,choice_trial,survey-html-form,11,55152,0.0-4.0-1.3,93,1,2025-04-29T18:46:25Z,b60275e29fe2361ab97ac0ac217840d7,"Mozilla/5.0 (iPhone; CPU iPhone OS 17_2_1 like Mac OS X) AppleWebKit/605.1.15 (KHTML, like Gecko) Version/17.2 Mobile/15E148 Safari/604.1",iPhone,Safari,17.2,iOS,17_2_1,https://5puzkbbxv1.cognition.run/?sona_id=57138,"en-US,en;q=0.9",pxbckn0hyqa7f6p,20,"[""White""]",No,Male,NA,No,NA,7816,NA,"{""product_choice"":""A""}",choice,tc,binary,repulsion,1,washing machines,null,null,null,null,null,null,2,100,90,null,30,40,null,Average lifespan,Energy savings,NA,NA
NA,NA,NA,NA,NA,choice_trial_setup,html-keyboard-response,12,55455,0.0-4.0-0.4,93,1,2025-04-29T18:46:25Z,b60275e29fe2361ab97ac0ac217840d7,"Mozilla/5.0 (iPhone; CPU iPhone OS 17_2_1 like Mac OS X) AppleWebKit/605.1.15 (KHTML, like Gecko) Version/17.2 Mobile/15E148 Safari/604.1",iPhone,Safari,17.2,iOS,17_2_1,https://5puzkbbxv1.cognition.run/?sona_id=57138,"en-US,en;q=0.9",pxbckn0hyqa7f6p,20,"[""White""]",No,Male,NA,No,NA,null,<p></p>,null,choice,dtc,trinary,attraction,2,televisions,null,null,null,null,null,null,1,NA,NA,NA,NA,NA,NA,NA,NA,NA,NA
NA,NA,NA,NA,NA,choice_trial,survey-html-form,13,62143,0.0-4.0-1.4,93,1,2025-04-29T18:46:25Z,b60275e29fe2361ab97ac0ac217840d7,"Mozilla/5.0 (iPhone; CPU iPhone OS 17_2_1 like Mac OS X) AppleWebKit/605.1.15 (KHTML, like Gecko) Version/17.2 Mobile/15E148 Safari/604.1",iPhone,Safari,17.2,iOS,17_2_1,https://5puzkbbxv1.cognition.run/?sona_id=57138,"en-US,en;q=0.9",pxbckn0hyqa7f6p,20,"[""White""]",No,Male,NA,No,NA,6683,NA,"{""product_choice"":""C""}",choice,dtc,trinary,attraction,2,televisions,null,null,null,null,null,null,1,50,60,40,60,50,60,Screen size,Average lifespan,NA,NA
NA,NA,NA,NA,NA,choice_trial_setup,html-keyboard-response,14,62447,0.0-4.0-0.5,93,1,2025-04-29T18:46:25Z,b60275e29fe2361ab97ac0ac217840d7,"Mozilla/5.0 (iPhone; CPU iPhone OS 17_2_1 like Mac OS X) AppleWebKit/605.1.15 (KHTML, like Gecko) Version/17.2 Mobile/15E148 Safari/604.1",iPhone,Safari,17.2,iOS,17_2_1,https://5puzkbbxv1.cognition.run/?sona_id=57138,"en-US,en;q=0.9",pxbckn0hyqa7f6p,20,"[""White""]",No,Male,NA,No,NA,null,<p></p>,null,choice,wbw,trinary,catch,null,microwave ovens,80,95,25,40,20,50,1,NA,NA,NA,NA,NA,NA,NA,NA,NA,NA
NA,NA,NA,NA,NA,choice_trial,survey-html-form,15,66425,0.0-4.0-1.5,93,1,2025-04-29T18:46:25Z,b60275e29fe2361ab97ac0ac217840d7,"Mozilla/5.0 (iPhone; CPU iPhone OS 17_2_1 like Mac OS X) AppleWebKit/605.1.15 (KHTML, like Gecko) Version/17.2 Mobile/15E148 Safari/604.1",iPhone,Safari,17.2,iOS,17_2_1,https://5puzkbbxv1.cognition.run/?sona_id=57138,"en-US,en;q=0.9",pxbckn0hyqa7f6p,20,"[""White""]",No,Male,NA,No,NA,3973,NA,"{""product_choice"":""B""}",choice,wbw,trinary,catch,null,microwave ovens,80,95,25,40,20,50,1,null,null,null,null,null,null,Warranty,Cooking power,NA,NA
NA,NA,NA,NA,NA,choice_trial_setup,html-keyboard-response,16,66729,0.0-4.0-0.6,93,1,2025-04-29T18:46:25Z,b60275e29fe2361ab97ac0ac217840d7,"Mozilla/5.0 (iPhone; CPU iPhone OS 17_2_1 like Mac OS X) AppleWebKit/605.1.15 (KHTML, like Gecko) Version/17.2 Mobile/15E148 Safari/604.1",iPhone,Safari,17.2,iOS,17_2_1,https://5puzkbbxv1.cognition.run/?sona_id=57138,"en-US,en;q=0.9",pxbckn0hyqa7f6p,20,"[""White""]",No,Male,NA,No,NA,null,<p></p>,null,choice,wb,binary,catch,null,laptops,50,75,35,45,null,null,1,NA,NA,NA,NA,NA,NA,NA,NA,NA,NA
NA,NA,NA,NA,NA,choice_trial,survey-html-form,17,69147,0.0-4.0-1.6,93,1,2025-04-29T18:46:25Z,b60275e29fe2361ab97ac0ac217840d7,"Mozilla/5.0 (iPhone; CPU iPhone OS 17_2_1 like Mac OS X) AppleWebKit/605.1.15 (KHTML, like Gecko) Version/17.2 Mobile/15E148 Safari/604.1",iPhone,Safari,17.2,iOS,17_2_1,https://5puzkbbxv1.cognition.run/?sona_id=57138,"en-US,en;q=0.9",pxbckn0hyqa7f6p,20,"[""White""]",No,Male,NA,No,NA,2413,NA,"{""product_choice"":""B""}",choice,wb,binary,catch,null,laptops,50,75,35,45,null,null,1,null,null,null,null,null,null,Processing speed,Memory (RAM),NA,NA
NA,NA,NA,NA,NA,choice_trial_setup,html-keyboard-response,18,69451,0.0-4.0-0.7,93,1,2025-04-29T18:46:25Z,b60275e29fe2361ab97ac0ac217840d7,"Mozilla/5.0 (iPhone; CPU iPhone OS 17_2_1 like Mac OS X) AppleWebKit/605.1.15 (KHTML, like Gecko) Version/17.2 Mobile/15E148 Safari/604.1",iPhone,Safari,17.2,iOS,17_2_1,https://5puzkbbxv1.cognition.run/?sona_id=57138,"en-US,en;q=0.9",pxbckn0hyqa7f6p,20,"[""White""]",No,Male,NA,No,NA,null,<p></p>,null,choice,tc,binary,repulsion,1,microwave ovens,null,null,null,null,null,null,1,NA,NA,NA,NA,NA,NA,NA,NA,NA,NA
NA,NA,NA,NA,NA,choice_trial,survey-html-form,19,72533,0.0-4.0-1.7,93,1,2025-04-29T18:46:25Z,b60275e29fe2361ab97ac0ac217840d7,"Mozilla/5.0 (iPhone; CPU iPhone OS 17_2_1 like Mac OS X) AppleWebKit/605.1.15 (KHTML, like Gecko) Version/17.2 Mobile/15E148 Safari/604.1",iPhone,Safari,17.2,iOS,17_2_1,https://5puzkbbxv1.cognition.run/?sona_id=57138,"en-US,en;q=0.9",pxbckn0hyqa7f6p,20,"[""White""]",No,Male,NA,No,NA,3076,NA,"{""product_choice"":""B""}",choice,tc,binary,repulsion,1,microwave ovens,null,null,null,null,null,null,1,100,90,null,30,40,null,Warranty,Cooking power,NA,NA
NA,NA,NA,NA,NA,choice_trial_setup,html-keyboard-response,20,72837,0.0-4.0-0.8,93,1,2025-04-29T18:46:25Z,b60275e29fe2361ab97ac0ac217840d7,"Mozilla/5.0 (iPhone; CPU iPhone OS 17_2_1 like Mac OS X) AppleWebKit/605.1.15 (KHTML, like Gecko) Version/17.2 Mobile/15E148 Safari/604.1",iPhone,Safari,17.2,iOS,17_2_1,https://5puzkbbxv1.cognition.run/?sona_id=57138,"en-US,en;q=0.9",pxbckn0hyqa7f6p,20,"[""White""]",No,Male,NA,No,NA,null,<p></p>,null,choice,dct,trinary,repulsion_A,1,televisions,null,null,null,null,null,null,2,NA,NA,NA,NA,NA,NA,NA,NA,NA,NA
NA,NA,NA,NA,NA,choice_trial,survey-html-form,21,77435,0.0-4.0-1.8,93,1,2025-04-29T18:46:25Z,b60275e29fe2361ab97ac0ac217840d7,"Mozilla/5.0 (iPhone; CPU iPhone OS 17_2_1 like Mac OS X) AppleWebKit/605.1.15 (KHTML, like Gecko) Version/17.2 Mobile/15E148 Safari/604.1",iPhone,Safari,17.2,iOS,17_2_1,https://5puzkbbxv1.cognition.run/?sona_id=57138,"en-US,en;q=0.9",pxbckn0hyqa7f6p,20,"[""White""]",No,Male,NA,No,NA,4592,NA,"{""product_choice"":""C""}",choice,dct,trinary,repulsion_A,1,televisions,null,null,null,null,null,null,2,100,90,100,30,40,20,Screen size,Average lifespan,NA,NA
NA,NA,NA,NA,NA,choice_trial_setup,html-keyboard-response,22,77738,0.0-4.0-0.9,93,1,2025-04-29T18:46:25Z,b60275e29fe2361ab97ac0ac217840d7,"Mozilla/5.0 (iPhone; CPU iPhone OS 17_2_1 like Mac OS X) AppleWebKit/605.1.15 (KHTML, like Gecko) Version/17.2 Mobile/15E148 Safari/604.1",iPhone,Safari,17.2,iOS,17_2_1,https://5puzkbbxv1.cognition.run/?sona_id=57138,"en-US,en;q=0.9",pxbckn0hyqa7f6p,20,"[""White""]",No,Male,NA,No,NA,null,<p></p>,null,choice,tc,binary,repulsion,1,televisions,null,null,null,null,null,null,2,NA,NA,NA,NA,NA,NA,NA,NA,NA,NA
NA,NA,NA,NA,NA,choice_trial,survey-html-form,23,94419,0.0-4.0-1.9,93,1,2025-04-29T18:46:25Z,b60275e29fe2361ab97ac0ac217840d7,"Mozilla/5.0 (iPhone; CPU iPhone OS 17_2_1 like Mac OS X) AppleWebKit/605.1.15 (KHTML, like Gecko) Version/17.2 Mobile/15E148 Safari/604.1",iPhone,Safari,17.2,iOS,17_2_1,https://5puzkbbxv1.cognition.run/?sona_id=57138,"en-US,en;q=0.9",pxbckn0hyqa7f6p,20,"[""White""]",No,Male,NA,No,NA,16675,NA,"{""product_choice"":""A""}",choice,tc,binary,repulsion,1,televisions,null,null,null,null,null,null,2,100,90,null,30,40,null,Screen size,Average lifespan,NA,NA
NA,NA,NA,NA,NA,choice_trial_setup,html-keyboard-response,24,94724,0.0-4.0-0.10,93,1,2025-04-29T18:46:25Z,b60275e29fe2361ab97ac0ac217840d7,"Mozilla/5.0 (iPhone; CPU iPhone OS 17_2_1 like Mac OS X) AppleWebKit/605.1.15 (KHTML, like Gecko) Version/17.2 Mobile/15E148 Safari/604.1",iPhone,Safari,17.2,iOS,17_2_1,https://5puzkbbxv1.cognition.run/?sona_id=57138,"en-US,en;q=0.9",pxbckn0hyqa7f6p,20,"[""White""]",No,Male,NA,No,NA,null,<p></p>,null,choice,wb,binary,catch,null,washing machines,80,95,15,35,null,null,2,NA,NA,NA,NA,NA,NA,NA,NA,NA,NA
NA,NA,NA,NA,NA,choice_trial,survey-html-form,25,106814,0.0-4.0-1.10,93,1,2025-04-29T18:46:25Z,b60275e29fe2361ab97ac0ac217840d7,"Mozilla/5.0 (iPhone; CPU iPhone OS 17_2_1 like Mac OS X) AppleWebKit/605.1.15 (KHTML, like Gecko) Version/17.2 Mobile/15E148 Safari/604.1",iPhone,Safari,17.2,iOS,17_2_1,https://5puzkbbxv1.cognition.run/?sona_id=57138,"en-US,en;q=0.9",pxbckn0hyqa7f6p,20,"[""White""]",No,Male,NA,No,NA,12084,NA,"{""product_choice"":""B""}",choice,wb,binary,catch,null,washing machines,80,95,15,35,null,null,2,null,null,null,null,null,null,Average lifespan,Energy savings,NA,NA
NA,NA,NA,NA,NA,choice_trial_setup,html-keyboard-response,26,107117,0.0-4.0-0.11,93,1,2025-04-29T18:46:25Z,b60275e29fe2361ab97ac0ac217840d7,"Mozilla/5.0 (iPhone; CPU iPhone OS 17_2_1 like Mac OS X) AppleWebKit/605.1.15 (KHTML, like Gecko) Version/17.2 Mobile/15E148 Safari/604.1",iPhone,Safari,17.2,iOS,17_2_1,https://5puzkbbxv1.cognition.run/?sona_id=57138,"en-US,en;q=0.9",pxbckn0hyqa7f6p,20,"[""White""]",No,Male,NA,No,NA,null,<p></p>,null,choice,ctd,trinary,attraction,1,washing machines,null,null,null,null,null,null,1,NA,NA,NA,NA,NA,NA,NA,NA,NA,NA
NA,NA,NA,NA,NA,choice_trial,survey-html-form,27,157561,0.0-4.0-1.11,93,1,2025-04-29T18:46:25Z,b60275e29fe2361ab97ac0ac217840d7,"Mozilla/5.0 (iPhone; CPU iPhone OS 17_2_1 like Mac OS X) AppleWebKit/605.1.15 (KHTML, like Gecko) Version/17.2 Mobile/15E148 Safari/604.1",iPhone,Safari,17.2,iOS,17_2_1,https://5puzkbbxv1.cognition.run/?sona_id=57138,"en-US,en;q=0.9",pxbckn0hyqa7f6p,20,"[""White""]",No,Male,NA,No,NA,50438,NA,"{""product_choice"":""B""}",choice,ctd,trinary,attraction,1,washing machines,null,null,null,null,null,null,1,60,50,60,50,60,40,Average lifespan,Energy savings,NA,NA
NA,NA,NA,NA,NA,choice_trial_setup,html-keyboard-response,28,157865,0.0-4.0-0.12,93,1,2025-04-29T18:46:25Z,b60275e29fe2361ab97ac0ac217840d7,"Mozilla/5.0 (iPhone; CPU iPhone OS 17_2_1 like Mac OS X) AppleWebKit/605.1.15 (KHTML, like Gecko) Version/17.2 Mobile/15E148 Safari/604.1",iPhone,Safari,17.2,iOS,17_2_1,https://5puzkbbxv1.cognition.run/?sona_id=57138,"en-US,en;q=0.9",pxbckn0hyqa7f6p,20,"[""White""]",No,Male,NA,No,NA,null,<p></p>,null,choice,tdc,trinary,repulsion_A,1,washing machines,null,null,null,null,null,null,2,NA,NA,NA,NA,NA,NA,NA,NA,NA,NA
NA,NA,NA,NA,NA,choice_trial,survey-html-form,29,166900,0.0-4.0-1.12,93,1,2025-04-29T18:46:25Z,b60275e29fe2361ab97ac0ac217840d7,"Mozilla/5.0 (iPhone; CPU iPhone OS 17_2_1 like Mac OS X) AppleWebKit/605.1.15 (KHTML, like Gecko) Version/17.2 Mobile/15E148 Safari/604.1",iPhone,Safari,17.2,iOS,17_2_1,https://5puzkbbxv1.cognition.run/?sona_id=57138,"en-US,en;q=0.9",pxbckn0hyqa7f6p,20,"[""White""]",No,Male,NA,No,NA,9029,NA,"{""product_choice"":""A""}",choice,tdc,trinary,repulsion_A,1,washing machines,null,null,null,null,null,null,2,100,90,100,30,40,20,Average lifespan,Energy savings,NA,NA
NA,NA,NA,NA,NA,choice_trial_setup,html-keyboard-response,30,167204,0.0-4.0-0.13,93,1,2025-04-29T18:46:25Z,b60275e29fe2361ab97ac0ac217840d7,"Mozilla/5.0 (iPhone; CPU iPhone OS 17_2_1 like Mac OS X) AppleWebKit/605.1.15 (KHTML, like Gecko) Version/17.2 Mobile/15E148 Safari/604.1",iPhone,Safari,17.2,iOS,17_2_1,https://5puzkbbxv1.cognition.run/?sona_id=57138,"en-US,en;q=0.9",pxbckn0hyqa7f6p,20,"[""White""]",No,Male,NA,No,NA,null,<p></p>,null,choice,tcd,trinary,repulsion_A,1,microwave ovens,null,null,null,null,null,null,1,NA,NA,NA,NA,NA,NA,NA,NA,NA,NA
NA,NA,NA,NA,NA,choice_trial,survey-html-form,31,177554,0.0-4.0-1.13,93,1,2025-04-29T18:46:25Z,b60275e29fe2361ab97ac0ac217840d7,"Mozilla/5.0 (iPhone; CPU iPhone OS 17_2_1 like Mac OS X) AppleWebKit/605.1.15 (KHTML, like Gecko) Version/17.2 Mobile/15E148 Safari/604.1",iPhone,Safari,17.2,iOS,17_2_1,https://5puzkbbxv1.cognition.run/?sona_id=57138,"en-US,en;q=0.9",pxbckn0hyqa7f6p,20,"[""White""]",No,Male,NA,No,NA,10345,NA,"{""product_choice"":""B""}",choice,tcd,trinary,repulsion_A,1,microwave ovens,null,null,null,null,null,null,1,100,90,100,30,40,20,Warranty,Cooking power,NA,NA
NA,NA,NA,NA,NA,choice_trial_setup,html-keyboard-response,32,177858,0.0-4.0-0.14,93,1,2025-04-29T18:46:25Z,b60275e29fe2361ab97ac0ac217840d7,"Mozilla/5.0 (iPhone; CPU iPhone OS 17_2_1 like Mac OS X) AppleWebKit/605.1.15 (KHTML, like Gecko) Version/17.2 Mobile/15E148 Safari/604.1",iPhone,Safari,17.2,iOS,17_2_1,https://5puzkbbxv1.cognition.run/?sona_id=57138,"en-US,en;q=0.9",pxbckn0hyqa7f6p,20,"[""White""]",No,Male,NA,No,NA,null,<p></p>,null,choice,tdc,trinary,attraction,1,microwave ovens,null,null,null,null,null,null,1,NA,NA,NA,NA,NA,NA,NA,NA,NA,NA
NA,NA,NA,NA,NA,choice_trial,survey-html-form,33,182224,0.0-4.0-1.14,93,1,2025-04-29T18:46:25Z,b60275e29fe2361ab97ac0ac217840d7,"Mozilla/5.0 (iPhone; CPU iPhone OS 17_2_1 like Mac OS X) AppleWebKit/605.1.15 (KHTML, like Gecko) Version/17.2 Mobile/15E148 Safari/604.1",iPhone,Safari,17.2,iOS,17_2_1,https://5puzkbbxv1.cognition.run/?sona_id=57138,"en-US,en;q=0.9",pxbckn0hyqa7f6p,20,"[""White""]",No,Male,NA,No,NA,4360,NA,"{""product_choice"":""A""}",choice,tdc,trinary,attraction,1,microwave ovens,null,null,null,null,null,null,1,60,50,60,50,60,40,Warranty,Cooking power,NA,NA
NA,NA,NA,NA,NA,choice_trial_setup,html-keyboard-response,34,182528,0.0-4.0-0.15,93,1,2025-04-29T18:46:25Z,b60275e29fe2361ab97ac0ac217840d7,"Mozilla/5.0 (iPhone; CPU iPhone OS 17_2_1 like Mac OS X) AppleWebKit/605.1.15 (KHTML, like Gecko) Version/17.2 Mobile/15E148 Safari/604.1",iPhone,Safari,17.2,iOS,17_2_1,https://5puzkbbxv1.cognition.run/?sona_id=57138,"en-US,en;q=0.9",pxbckn0hyqa7f6p,20,"[""White""]",No,Male,NA,No,NA,null,<p></p>,null,choice,tc,binary,repulsion,2,microwave ovens,null,null,null,null,null,null,1,NA,NA,NA,NA,NA,NA,NA,NA,NA,NA
NA,NA,NA,NA,NA,choice_trial,survey-html-form,35,186010,0.0-4.0-1.15,93,1,2025-04-29T18:46:25Z,b60275e29fe2361ab97ac0ac217840d7,"Mozilla/5.0 (iPhone; CPU iPhone OS 17_2_1 like Mac OS X) AppleWebKit/605.1.15 (KHTML, like Gecko) Version/17.2 Mobile/15E148 Safari/604.1",iPhone,Safari,17.2,iOS,17_2_1,https://5puzkbbxv1.cognition.run/?sona_id=57138,"en-US,en;q=0.9",pxbckn0hyqa7f6p,20,"[""White""]",No,Male,NA,No,NA,3476,NA,"{""product_choice"":""B""}",choice,tc,binary,repulsion,2,microwave ovens,null,null,null,null,null,null,1,30,40,null,100,90,null,Warranty,Cooking power,NA,NA
NA,NA,NA,NA,NA,choice_trial_setup,html-keyboard-response,36,186314,0.0-4.0-0.16,93,1,2025-04-29T18:46:25Z,b60275e29fe2361ab97ac0ac217840d7,"Mozilla/5.0 (iPhone; CPU iPhone OS 17_2_1 like Mac OS X) AppleWebKit/605.1.15 (KHTML, like Gecko) Version/17.2 Mobile/15E148 Safari/604.1",iPhone,Safari,17.2,iOS,17_2_1,https://5puzkbbxv1.cognition.run/?sona_id=57138,"en-US,en;q=0.9",pxbckn0hyqa7f6p,20,"[""White""]",No,Male,NA,No,NA,null,<p></p>,null,choice,tcd,trinary,repulsion_A,2,microwave ovens,null,null,null,null,null,null,2,NA,NA,NA,NA,NA,NA,NA,NA,NA,NA
NA,NA,NA,NA,NA,choice_trial,survey-html-form,37,198402,0.0-4.0-1.16,93,1,2025-04-29T18:46:25Z,b60275e29fe2361ab97ac0ac217840d7,"Mozilla/5.0 (iPhone; CPU iPhone OS 17_2_1 like Mac OS X) AppleWebKit/605.1.15 (KHTML, like Gecko) Version/17.2 Mobile/15E148 Safari/604.1",iPhone,Safari,17.2,iOS,17_2_1,https://5puzkbbxv1.cognition.run/?sona_id=57138,"en-US,en;q=0.9",pxbckn0hyqa7f6p,20,"[""White""]",No,Male,NA,No,NA,12081,NA,"{""product_choice"":""A""}",choice,tcd,trinary,repulsion_A,2,microwave ovens,null,null,null,null,null,null,2,30,40,20,100,90,100,Warranty,Cooking power,NA,NA
NA,NA,NA,NA,NA,choice_trial_setup,html-keyboard-response,38,198706,0.0-4.0-0.17,93,1,2025-04-29T18:46:25Z,b60275e29fe2361ab97ac0ac217840d7,"Mozilla/5.0 (iPhone; CPU iPhone OS 17_2_1 like Mac OS X) AppleWebKit/605.1.15 (KHTML, like Gecko) Version/17.2 Mobile/15E148 Safari/604.1",iPhone,Safari,17.2,iOS,17_2_1,https://5puzkbbxv1.cognition.run/?sona_id=57138,"en-US,en;q=0.9",pxbckn0hyqa7f6p,20,"[""White""]",No,Male,NA,No,NA,null,<p></p>,null,choice,dtc,trinary,repulsion_B,1,washing machines,null,null,null,null,null,null,1,NA,NA,NA,NA,NA,NA,NA,NA,NA,NA
NA,NA,NA,NA,NA,choice_trial,survey-html-form,39,250518,0.0-4.0-1.17,93,1,2025-04-29T18:46:25Z,b60275e29fe2361ab97ac0ac217840d7,"Mozilla/5.0 (iPhone; CPU iPhone OS 17_2_1 like Mac OS X) AppleWebKit/605.1.15 (KHTML, like Gecko) Version/17.2 Mobile/15E148 Safari/604.1",iPhone,Safari,17.2,iOS,17_2_1,https://5puzkbbxv1.cognition.run/?sona_id=57138,"en-US,en;q=0.9",pxbckn0hyqa7f6p,20,"[""White""]",No,Male,NA,No,NA,51804,NA,"{""product_choice"":""B""}",choice,dtc,trinary,repulsion_B,1,washing machines,null,null,null,null,null,null,1,90,100,80,40,30,40,Average lifespan,Energy savings,NA,NA
NA,NA,NA,NA,NA,choice_trial_setup,html-keyboard-response,40,250831,0.0-4.0-0.18,93,1,2025-04-29T18:46:25Z,b60275e29fe2361ab97ac0ac217840d7,"Mozilla/5.0 (iPhone; CPU iPhone OS 17_2_1 like Mac OS X) AppleWebKit/605.1.15 (KHTML, like Gecko) Version/17.2 Mobile/15E148 Safari/604.1",iPhone,Safari,17.2,iOS,17_2_1,https://5puzkbbxv1.cognition.run/?sona_id=57138,"en-US,en;q=0.9",pxbckn0hyqa7f6p,20,"[""White""]",No,Male,NA,No,NA,null,<p></p>,null,choice,wwb,trinary,catch,null,televisions,60,85,35,45,35,40,2,NA,NA,NA,NA,NA,NA,NA,NA,NA,NA
NA,NA,NA,NA,NA,choice_trial,survey-html-form,41,254082,0.0-4.0-1.18,93,1,2025-04-29T18:46:25Z,b60275e29fe2361ab97ac0ac217840d7,"Mozilla/5.0 (iPhone; CPU iPhone OS 17_2_1 like Mac OS X) AppleWebKit/605.1.15 (KHTML, like Gecko) Version/17.2 Mobile/15E148 Safari/604.1",iPhone,Safari,17.2,iOS,17_2_1,https://5puzkbbxv1.cognition.run/?sona_id=57138,"en-US,en;q=0.9",pxbckn0hyqa7f6p,20,"[""White""]",No,Male,NA,No,NA,3245,NA,"{""product_choice"":""C""}",choice,wwb,trinary,catch,null,televisions,60,85,35,45,35,40,2,null,null,null,null,null,null,Screen size,Average lifespan,NA,NA
NA,NA,NA,NA,NA,choice_trial_setup,html-keyboard-response,42,254387,0.0-4.0-0.19,93,1,2025-04-29T18:46:25Z,b60275e29fe2361ab97ac0ac217840d7,"Mozilla/5.0 (iPhone; CPU iPhone OS 17_2_1 like Mac OS X) AppleWebKit/605.1.15 (KHTML, like Gecko) Version/17.2 Mobile/15E148 Safari/604.1",iPhone,Safari,17.2,iOS,17_2_1,https://5puzkbbxv1.cognition.run/?sona_id=57138,"en-US,en;q=0.9",pxbckn0hyqa7f6p,20,"[""White""]",No,Male,NA,No,NA,null,<p></p>,null,choice,tdc,trinary,repulsion_B,2,washing machines,null,null,null,null,null,null,2,NA,NA,NA,NA,NA,NA,NA,NA,NA,NA
NA,NA,NA,NA,NA,choice_trial,survey-html-form,43,258154,0.0-4.0-1.19,93,1,2025-04-29T18:46:25Z,b60275e29fe2361ab97ac0ac217840d7,"Mozilla/5.0 (iPhone; CPU iPhone OS 17_2_1 like Mac OS X) AppleWebKit/605.1.15 (KHTML, like Gecko) Version/17.2 Mobile/15E148 Safari/604.1",iPhone,Safari,17.2,iOS,17_2_1,https://5puzkbbxv1.cognition.run/?sona_id=57138,"en-US,en;q=0.9",pxbckn0hyqa7f6p,20,"[""White""]",No,Male,NA,No,NA,3758,NA,"{""product_choice"":""A""}",choice,tdc,trinary,repulsion_B,2,washing machines,null,null,null,null,null,null,2,40,30,40,90,100,80,Average lifespan,Energy savings,NA,NA
NA,NA,NA,NA,NA,choice_trial_setup,html-keyboard-response,44,258459,0.0-4.0-0.20,93,1,2025-04-29T18:46:25Z,b60275e29fe2361ab97ac0ac217840d7,"Mozilla/5.0 (iPhone; CPU iPhone OS 17_2_1 like Mac OS X) AppleWebKit/605.1.15 (KHTML, like Gecko) Version/17.2 Mobile/15E148 Safari/604.1",iPhone,Safari,17.2,iOS,17_2_1,https://5puzkbbxv1.cognition.run/?sona_id=57138,"en-US,en;q=0.9",pxbckn0hyqa7f6p,20,"[""White""]",No,Male,NA,No,NA,null,<p></p>,null,choice,tcd,trinary,repulsion_A,1,laptops,null,null,null,null,null,null,1,NA,NA,NA,NA,NA,NA,NA,NA,NA,NA
NA,NA,NA,NA,NA,choice_trial,survey-html-form,45,291439,0.0-4.0-1.20,93,1,2025-04-29T18:46:25Z,b60275e29fe2361ab97ac0ac217840d7,"Mozilla/5.0 (iPhone; CPU iPhone OS 17_2_1 like Mac OS X) AppleWebKit/605.1.15 (KHTML, like Gecko) Version/17.2 Mobile/15E148 Safari/604.1",iPhone,Safari,17.2,iOS,17_2_1,https://5puzkbbxv1.cognition.run/?sona_id=57138,"en-US,en;q=0.9",pxbckn0hyqa7f6p,20,"[""White""]",No,Male,NA,No,NA,32972,NA,"{""product_choice"":""A""}",choice,tcd,trinary,repulsion_A,1,laptops,null,null,null,null,null,null,1,100,90,100,30,40,20,Processing speed,Memory (RAM),NA,NA
NA,NA,NA,NA,NA,choice_trial_setup,html-keyboard-response,46,291745,0.0-4.0-0.21,93,1,2025-04-29T18:46:25Z,b60275e29fe2361ab97ac0ac217840d7,"Mozilla/5.0 (iPhone; CPU iPhone OS 17_2_1 like Mac OS X) AppleWebKit/605.1.15 (KHTML, like Gecko) Version/17.2 Mobile/15E148 Safari/604.1",iPhone,Safari,17.2,iOS,17_2_1,https://5puzkbbxv1.cognition.run/?sona_id=57138,"en-US,en;q=0.9",pxbckn0hyqa7f6p,20,"[""White""]",No,Male,NA,No,NA,null,<p></p>,null,choice,wb,binary,catch,null,televisions,95,95,45,45,null,null,1,NA,NA,NA,NA,NA,NA,NA,NA,NA,NA
NA,NA,NA,NA,NA,choice_trial,survey-html-form,47,293705,0.0-4.0-1.21,93,1,2025-04-29T18:46:25Z,b60275e29fe2361ab97ac0ac217840d7,"Mozilla/5.0 (iPhone; CPU iPhone OS 17_2_1 like Mac OS X) AppleWebKit/605.1.15 (KHTML, like Gecko) Version/17.2 Mobile/15E148 Safari/604.1",iPhone,Safari,17.2,iOS,17_2_1,https://5puzkbbxv1.cognition.run/?sona_id=57138,"en-US,en;q=0.9",pxbckn0hyqa7f6p,20,"[""White""]",No,Male,NA,No,NA,1952,NA,"{""product_choice"":""A""}",choice,wb,binary,catch,null,televisions,95,95,45,45,null,null,1,null,null,null,null,null,null,Screen size,Average lifespan,NA,NA
NA,NA,NA,NA,NA,choice_trial_setup,html-keyboard-response,48,294010,0.0-4.0-0.22,93,1,2025-04-29T18:46:25Z,b60275e29fe2361ab97ac0ac217840d7,"Mozilla/5.0 (iPhone; CPU iPhone OS 17_2_1 like Mac OS X) AppleWebKit/605.1.15 (KHTML, like Gecko) Version/17.2 Mobile/15E148 Safari/604.1",iPhone,Safari,17.2,iOS,17_2_1,https://5puzkbbxv1.cognition.run/?sona_id=57138,"en-US,en;q=0.9",pxbckn0hyqa7f6p,20,"[""White""]",No,Male,NA,No,NA,null,<p></p>,null,choice,dtc,trinary,repulsion_B,1,televisions,null,null,null,null,null,null,1,NA,NA,NA,NA,NA,NA,NA,NA,NA,NA
NA,NA,NA,NA,NA,choice_trial,survey-html-form,49,296762,0.0-4.0-1.22,93,1,2025-04-29T18:46:25Z,b60275e29fe2361ab97ac0ac217840d7,"Mozilla/5.0 (iPhone; CPU iPhone OS 17_2_1 like Mac OS X) AppleWebKit/605.1.15 (KHTML, like Gecko) Version/17.2 Mobile/15E148 Safari/604.1",iPhone,Safari,17.2,iOS,17_2_1,https://5puzkbbxv1.cognition.run/?sona_id=57138,"en-US,en;q=0.9",pxbckn0hyqa7f6p,20,"[""White""]",No,Male,NA,No,NA,2745,NA,"{""product_choice"":""B""}",choice,dtc,trinary,repulsion_B,1,televisions,null,null,null,null,null,null,1,90,100,80,40,30,40,Screen size,Average lifespan,NA,NA
NA,NA,NA,NA,NA,choice_trial_setup,html-keyboard-response,50,297067,0.0-4.0-0.23,93,1,2025-04-29T18:46:25Z,b60275e29fe2361ab97ac0ac217840d7,"Mozilla/5.0 (iPhone; CPU iPhone OS 17_2_1 like Mac OS X) AppleWebKit/605.1.15 (KHTML, like Gecko) Version/17.2 Mobile/15E148 Safari/604.1",iPhone,Safari,17.2,iOS,17_2_1,https://5puzkbbxv1.cognition.run/?sona_id=57138,"en-US,en;q=0.9",pxbckn0hyqa7f6p,20,"[""White""]",No,Male,NA,No,NA,null,<p></p>,null,choice,ctd,trinary,attraction,2,washing machines,null,null,null,null,null,null,1,NA,NA,NA,NA,NA,NA,NA,NA,NA,NA
NA,NA,NA,NA,NA,choice_trial,survey-html-form,51,299031,0.0-4.0-1.23,93,1,2025-04-29T18:46:25Z,b60275e29fe2361ab97ac0ac217840d7,"Mozilla/5.0 (iPhone; CPU iPhone OS 17_2_1 like Mac OS X) AppleWebKit/605.1.15 (KHTML, like Gecko) Version/17.2 Mobile/15E148 Safari/604.1",iPhone,Safari,17.2,iOS,17_2_1,https://5puzkbbxv1.cognition.run/?sona_id=57138,"en-US,en;q=0.9",pxbckn0hyqa7f6p,20,"[""White""]",No,Male,NA,No,NA,1957,NA,"{""product_choice"":""A""}",choice,ctd,trinary,attraction,2,washing machines,null,null,null,null,null,null,1,50,60,40,60,50,60,Average lifespan,Energy savings,NA,NA
NA,NA,NA,NA,NA,choice_trial_setup,html-keyboard-response,52,299336,0.0-4.0-0.24,93,1,2025-04-29T18:46:25Z,b60275e29fe2361ab97ac0ac217840d7,"Mozilla/5.0 (iPhone; CPU iPhone OS 17_2_1 like Mac OS X) AppleWebKit/605.1.15 (KHTML, like Gecko) Version/17.2 Mobile/15E148 Safari/604.1",iPhone,Safari,17.2,iOS,17_2_1,https://5puzkbbxv1.cognition.run/?sona_id=57138,"en-US,en;q=0.9",pxbckn0hyqa7f6p,20,"[""White""]",No,Male,NA,No,NA,null,<p></p>,null,choice,ct,binary,repulsion,2,washing machines,null,null,null,null,null,null,2,NA,NA,NA,NA,NA,NA,NA,NA,NA,NA
NA,NA,NA,NA,NA,choice_trial,survey-html-form,53,308622,0.0-4.0-1.24,93,1,2025-04-29T18:46:25Z,b60275e29fe2361ab97ac0ac217840d7,"Mozilla/5.0 (iPhone; CPU iPhone OS 17_2_1 like Mac OS X) AppleWebKit/605.1.15 (KHTML, like Gecko) Version/17.2 Mobile/15E148 Safari/604.1",iPhone,Safari,17.2,iOS,17_2_1,https://5puzkbbxv1.cognition.run/?sona_id=57138,"en-US,en;q=0.9",pxbckn0hyqa7f6p,20,"[""White""]",No,Male,NA,No,NA,9278,NA,"{""product_choice"":""B""}",choice,ct,binary,repulsion,2,washing machines,null,null,null,null,null,null,2,30,40,null,100,90,null,Average lifespan,Energy savings,NA,NA
NA,NA,NA,NA,NA,choice_trial_setup,html-keyboard-response,54,308927,0.0-4.0-0.25,93,1,2025-04-29T18:46:25Z,b60275e29fe2361ab97ac0ac217840d7,"Mozilla/5.0 (iPhone; CPU iPhone OS 17_2_1 like Mac OS X) AppleWebKit/605.1.15 (KHTML, like Gecko) Version/17.2 Mobile/15E148 Safari/604.1",iPhone,Safari,17.2,iOS,17_2_1,https://5puzkbbxv1.cognition.run/?sona_id=57138,"en-US,en;q=0.9",pxbckn0hyqa7f6p,20,"[""White""]",No,Male,NA,No,NA,null,<p></p>,null,choice,cdt,trinary,repulsion_B,2,laptops,null,null,null,null,null,null,1,NA,NA,NA,NA,NA,NA,NA,NA,NA,NA
NA,NA,NA,NA,NA,choice_trial,survey-html-form,55,322983,0.0-4.0-1.25,93,1,2025-04-29T18:46:25Z,b60275e29fe2361ab97ac0ac217840d7,"Mozilla/5.0 (iPhone; CPU iPhone OS 17_2_1 like Mac OS X) AppleWebKit/605.1.15 (KHTML, like Gecko) Version/17.2 Mobile/15E148 Safari/604.1",iPhone,Safari,17.2,iOS,17_2_1,https://5puzkbbxv1.cognition.run/?sona_id=57138,"en-US,en;q=0.9",pxbckn0hyqa7f6p,20,"[""White""]",No,Male,NA,No,NA,14050,NA,"{""product_choice"":""B""}",choice,cdt,trinary,repulsion_B,2,laptops,null,null,null,null,null,null,1,40,30,40,90,100,80,Processing speed,Memory (RAM),NA,NA
NA,NA,NA,NA,NA,choice_trial_setup,html-keyboard-response,56,323288,0.0-4.0-0.26,93,1,2025-04-29T18:46:25Z,b60275e29fe2361ab97ac0ac217840d7,"Mozilla/5.0 (iPhone; CPU iPhone OS 17_2_1 like Mac OS X) AppleWebKit/605.1.15 (KHTML, like Gecko) Version/17.2 Mobile/15E148 Safari/604.1",iPhone,Safari,17.2,iOS,17_2_1,https://5puzkbbxv1.cognition.run/?sona_id=57138,"en-US,en;q=0.9",pxbckn0hyqa7f6p,20,"[""White""]",No,Male,NA,No,NA,null,<p></p>,null,choice,ct,binary,repulsion,2,televisions,null,null,null,null,null,null,2,NA,NA,NA,NA,NA,NA,NA,NA,NA,NA
NA,NA,NA,NA,NA,choice_trial,survey-html-form,57,324999,0.0-4.0-1.26,93,1,2025-04-29T18:46:25Z,b60275e29fe2361ab97ac0ac217840d7,"Mozilla/5.0 (iPhone; CPU iPhone OS 17_2_1 like Mac OS X) AppleWebKit/605.1.15 (KHTML, like Gecko) Version/17.2 Mobile/15E148 Safari/604.1",iPhone,Safari,17.2,iOS,17_2_1,https://5puzkbbxv1.cognition.run/?sona_id=57138,"en-US,en;q=0.9",pxbckn0hyqa7f6p,20,"[""White""]",No,Male,NA,No,NA,1703,NA,"{""product_choice"":""B""}",choice,ct,binary,repulsion,2,televisions,null,null,null,null,null,null,2,30,40,null,100,90,null,Screen size,Average lifespan,NA,NA
NA,NA,NA,NA,NA,choice_trial_setup,html-keyboard-response,58,325303,0.0-4.0-0.27,93,1,2025-04-29T18:46:25Z,b60275e29fe2361ab97ac0ac217840d7,"Mozilla/5.0 (iPhone; CPU iPhone OS 17_2_1 like Mac OS X) AppleWebKit/605.1.15 (KHTML, like Gecko) Version/17.2 Mobile/15E148 Safari/604.1",iPhone,Safari,17.2,iOS,17_2_1,https://5puzkbbxv1.cognition.run/?sona_id=57138,"en-US,en;q=0.9",pxbckn0hyqa7f6p,20,"[""White""]",No,Male,NA,No,NA,null,<p></p>,null,choice,ctd,trinary,repulsion_B,2,microwave ovens,null,null,null,null,null,null,1,NA,NA,NA,NA,NA,NA,NA,NA,NA,NA
NA,NA,NA,NA,NA,choice_trial,survey-html-form,59,327816,0.0-4.0-1.27,93,1,2025-04-29T18:46:25Z,b60275e29fe2361ab97ac0ac217840d7,"Mozilla/5.0 (iPhone; CPU iPhone OS 17_2_1 like Mac OS X) AppleWebKit/605.1.15 (KHTML, like Gecko) Version/17.2 Mobile/15E148 Safari/604.1",iPhone,Safari,17.2,iOS,17_2_1,https://5puzkbbxv1.cognition.run/?sona_id=57138,"en-US,en;q=0.9",pxbckn0hyqa7f6p,20,"[""White""]",No,Male,NA,No,NA,2505,NA,"{""product_choice"":""B""}",choice,ctd,trinary,repulsion_B,2,microwave ovens,null,null,null,null,null,null,1,40,30,40,90,100,80,Warranty,Cooking power,NA,NA
NA,NA,NA,NA,NA,choice_trial_setup,html-keyboard-response,60,328120,0.0-4.0-0.28,93,1,2025-04-29T18:46:25Z,b60275e29fe2361ab97ac0ac217840d7,"Mozilla/5.0 (iPhone; CPU iPhone OS 17_2_1 like Mac OS X) AppleWebKit/605.1.15 (KHTML, like Gecko) Version/17.2 Mobile/15E148 Safari/604.1",iPhone,Safari,17.2,iOS,17_2_1,https://5puzkbbxv1.cognition.run/?sona_id=57138,"en-US,en;q=0.9",pxbckn0hyqa7f6p,20,"[""White""]",No,Male,NA,No,NA,null,<p></p>,null,choice,ctd,trinary,attraction,2,laptops,null,null,null,null,null,null,2,NA,NA,NA,NA,NA,NA,NA,NA,NA,NA
NA,NA,NA,NA,NA,choice_trial,survey-html-form,61,336023,0.0-4.0-1.28,93,1,2025-04-29T18:46:25Z,b60275e29fe2361ab97ac0ac217840d7,"Mozilla/5.0 (iPhone; CPU iPhone OS 17_2_1 like Mac OS X) AppleWebKit/605.1.15 (KHTML, like Gecko) Version/17.2 Mobile/15E148 Safari/604.1",iPhone,Safari,17.2,iOS,17_2_1,https://5puzkbbxv1.cognition.run/?sona_id=57138,"en-US,en;q=0.9",pxbckn0hyqa7f6p,20,"[""White""]",No,Male,NA,No,NA,7895,NA,"{""product_choice"":""B""}",choice,ctd,trinary,attraction,2,laptops,null,null,null,null,null,null,2,50,60,40,60,50,60,Processing speed,Memory (RAM),NA,NA
NA,NA,NA,NA,NA,choice_trial_setup,html-keyboard-response,62,336327,0.0-4.0-0.29,93,1,2025-04-29T18:46:25Z,b60275e29fe2361ab97ac0ac217840d7,"Mozilla/5.0 (iPhone; CPU iPhone OS 17_2_1 like Mac OS X) AppleWebKit/605.1.15 (KHTML, like Gecko) Version/17.2 Mobile/15E148 Safari/604.1",iPhone,Safari,17.2,iOS,17_2_1,https://5puzkbbxv1.cognition.run/?sona_id=57138,"en-US,en;q=0.9",pxbckn0hyqa7f6p,20,"[""White""]",No,Male,NA,No,NA,null,<p></p>,null,choice,tc,binary,attraction,NA,microwave ovens,null,null,null,null,null,null,2,NA,NA,NA,NA,NA,NA,NA,NA,NA,NA
NA,NA,NA,NA,NA,choice_trial,survey-html-form,63,347010,0.0-4.0-1.29,93,1,2025-04-29T18:46:25Z,b60275e29fe2361ab97ac0ac217840d7,"Mozilla/5.0 (iPhone; CPU iPhone OS 17_2_1 like Mac OS X) AppleWebKit/605.1.15 (KHTML, like Gecko) Version/17.2 Mobile/15E148 Safari/604.1",iPhone,Safari,17.2,iOS,17_2_1,https://5puzkbbxv1.cognition.run/?sona_id=57138,"en-US,en;q=0.9",pxbckn0hyqa7f6p,20,"[""White""]",No,Male,NA,No,NA,10674,NA,"{""product_choice"":""B""}",choice,tc,binary,attraction,NA,microwave ovens,null,null,null,null,null,null,2,60,50,null,50,60,null,Warranty,Cooking power,NA,NA
NA,NA,NA,NA,NA,choice_trial_setup,html-keyboard-response,64,347315,0.0-4.0-0.30,93,1,2025-04-29T18:46:25Z,b60275e29fe2361ab97ac0ac217840d7,"Mozilla/5.0 (iPhone; CPU iPhone OS 17_2_1 like Mac OS X) AppleWebKit/605.1.15 (KHTML, like Gecko) Version/17.2 Mobile/15E148 Safari/604.1",iPhone,Safari,17.2,iOS,17_2_1,https://5puzkbbxv1.cognition.run/?sona_id=57138,"en-US,en;q=0.9",pxbckn0hyqa7f6p,20,"[""White""]",No,Male,NA,No,NA,null,<p></p>,null,choice,tdc,trinary,repulsion_B,2,televisions,null,null,null,null,null,null,2,NA,NA,NA,NA,NA,NA,NA,NA,NA,NA
NA,NA,NA,NA,NA,choice_trial,survey-html-form,65,350413,0.0-4.0-1.30,93,1,2025-04-29T18:46:25Z,b60275e29fe2361ab97ac0ac217840d7,"Mozilla/5.0 (iPhone; CPU iPhone OS 17_2_1 like Mac OS X) AppleWebKit/605.1.15 (KHTML, like Gecko) Version/17.2 Mobile/15E148 Safari/604.1",iPhone,Safari,17.2,iOS,17_2_1,https://5puzkbbxv1.cognition.run/?sona_id=57138,"en-US,en;q=0.9",pxbckn0hyqa7f6p,20,"[""White""]",No,Male,NA,No,NA,3090,NA,"{""product_choice"":""A""}",choice,tdc,trinary,repulsion_B,2,televisions,null,null,null,null,null,null,2,40,30,40,90,100,80,Screen size,Average lifespan,NA,NA
NA,NA,NA,NA,NA,choice_trial_setup,html-keyboard-response,66,350718,0.0-4.0-0.31,93,1,2025-04-29T18:46:25Z,b60275e29fe2361ab97ac0ac217840d7,"Mozilla/5.0 (iPhone; CPU iPhone OS 17_2_1 like Mac OS X) AppleWebKit/605.1.15 (KHTML, like Gecko) Version/17.2 Mobile/15E148 Safari/604.1",iPhone,Safari,17.2,iOS,17_2_1,https://5puzkbbxv1.cognition.run/?sona_id=57138,"en-US,en;q=0.9",pxbckn0hyqa7f6p,20,"[""White""]",No,Male,NA,No,NA,null,<p></p>,null,choice,tdc,trinary,repulsion_B,1,laptops,null,null,null,null,null,null,2,NA,NA,NA,NA,NA,NA,NA,NA,NA,NA
NA,NA,NA,NA,NA,choice_trial,survey-html-form,67,353698,0.0-4.0-1.31,93,1,2025-04-29T18:46:25Z,b60275e29fe2361ab97ac0ac217840d7,"Mozilla/5.0 (iPhone; CPU iPhone OS 17_2_1 like Mac OS X) AppleWebKit/605.1.15 (KHTML, like Gecko) Version/17.2 Mobile/15E148 Safari/604.1",iPhone,Safari,17.2,iOS,17_2_1,https://5puzkbbxv1.cognition.run/?sona_id=57138,"en-US,en;q=0.9",pxbckn0hyqa7f6p,20,"[""White""]",No,Male,NA,No,NA,2963,NA,"{""product_choice"":""A""}",choice,tdc,trinary,repulsion_B,1,laptops,null,null,null,null,null,null,2,90,100,80,40,30,40,Processing speed,Memory (RAM),NA,NA
NA,NA,NA,NA,NA,choice_trial_setup,html-keyboard-response,68,354008,0.0-4.0-0.32,93,1,2025-04-29T18:46:25Z,b60275e29fe2361ab97ac0ac217840d7,"Mozilla/5.0 (iPhone; CPU iPhone OS 17_2_1 like Mac OS X) AppleWebKit/605.1.15 (KHTML, like Gecko) Version/17.2 Mobile/15E148 Safari/604.1",iPhone,Safari,17.2,iOS,17_2_1,https://5puzkbbxv1.cognition.run/?sona_id=57138,"en-US,en;q=0.9",pxbckn0hyqa7f6p,20,"[""White""]",No,Male,NA,No,NA,null,<p></p>,null,choice,ct,binary,repulsion,2,laptops,null,null,null,null,null,null,2,NA,NA,NA,NA,NA,NA,NA,NA,NA,NA
NA,NA,NA,NA,NA,choice_trial,survey-html-form,69,357237,0.0-4.0-1.32,93,1,2025-04-29T18:46:25Z,b60275e29fe2361ab97ac0ac217840d7,"Mozilla/5.0 (iPhone; CPU iPhone OS 17_2_1 like Mac OS X) AppleWebKit/605.1.15 (KHTML, like Gecko) Version/17.2 Mobile/15E148 Safari/604.1",iPhone,Safari,17.2,iOS,17_2_1,https://5puzkbbxv1.cognition.run/?sona_id=57138,"en-US,en;q=0.9",pxbckn0hyqa7f6p,20,"[""White""]",No,Male,NA,No,NA,3221,NA,"{""product_choice"":""A""}",choice,ct,binary,repulsion,2,laptops,null,null,null,null,null,null,2,30,40,null,100,90,null,Processing speed,Memory (RAM),NA,NA
NA,NA,NA,NA,NA,choice_trial_setup,html-keyboard-response,70,357543,0.0-4.0-0.33,93,1,2025-04-29T18:46:25Z,b60275e29fe2361ab97ac0ac217840d7,"Mozilla/5.0 (iPhone; CPU iPhone OS 17_2_1 like Mac OS X) AppleWebKit/605.1.15 (KHTML, like Gecko) Version/17.2 Mobile/15E148 Safari/604.1",iPhone,Safari,17.2,iOS,17_2_1,https://5puzkbbxv1.cognition.run/?sona_id=57138,"en-US,en;q=0.9",pxbckn0hyqa7f6p,20,"[""White""]",No,Male,NA,No,NA,null,<p></p>,null,choice,ctd,trinary,repulsion_A,2,televisions,null,null,null,null,null,null,2,NA,NA,NA,NA,NA,NA,NA,NA,NA,NA
NA,NA,NA,NA,NA,choice_trial,survey-html-form,71,359605,0.0-4.0-1.33,93,1,2025-04-29T18:46:25Z,b60275e29fe2361ab97ac0ac217840d7,"Mozilla/5.0 (iPhone; CPU iPhone OS 17_2_1 like Mac OS X) AppleWebKit/605.1.15 (KHTML, like Gecko) Version/17.2 Mobile/15E148 Safari/604.1",iPhone,Safari,17.2,iOS,17_2_1,https://5puzkbbxv1.cognition.run/?sona_id=57138,"en-US,en;q=0.9",pxbckn0hyqa7f6p,20,"[""White""]",No,Male,NA,No,NA,2053,NA,"{""product_choice"":""B""}",choice,ctd,trinary,repulsion_A,2,televisions,null,null,null,null,null,null,2,30,40,20,100,90,100,Screen size,Average lifespan,NA,NA
NA,NA,NA,NA,NA,choice_trial_setup,html-keyboard-response,72,359911,0.0-4.0-0.34,93,1,2025-04-29T18:46:25Z,b60275e29fe2361ab97ac0ac217840d7,"Mozilla/5.0 (iPhone; CPU iPhone OS 17_2_1 like Mac OS X) AppleWebKit/605.1.15 (KHTML, like Gecko) Version/17.2 Mobile/15E148 Safari/604.1",iPhone,Safari,17.2,iOS,17_2_1,https://5puzkbbxv1.cognition.run/?sona_id=57138,"en-US,en;q=0.9",pxbckn0hyqa7f6p,20,"[""White""]",No,Male,NA,No,NA,null,<p></p>,null,choice,cdt,trinary,repulsion_A,2,washing machines,null,null,null,null,null,null,1,NA,NA,NA,NA,NA,NA,NA,NA,NA,NA
NA,NA,NA,NA,NA,choice_trial,survey-html-form,73,363729,0.0-4.0-1.34,93,1,2025-04-29T18:46:25Z,b60275e29fe2361ab97ac0ac217840d7,"Mozilla/5.0 (iPhone; CPU iPhone OS 17_2_1 like Mac OS X) AppleWebKit/605.1.15 (KHTML, like Gecko) Version/17.2 Mobile/15E148 Safari/604.1",iPhone,Safari,17.2,iOS,17_2_1,https://5puzkbbxv1.cognition.run/?sona_id=57138,"en-US,en;q=0.9",pxbckn0hyqa7f6p,20,"[""White""]",No,Male,NA,No,NA,3809,NA,"{""product_choice"":""C""}",choice,cdt,trinary,repulsion_A,2,washing machines,null,null,null,null,null,null,1,30,40,20,100,90,100,Average lifespan,Energy savings,NA,NA
NA,NA,NA,NA,NA,choice_trial_setup,html-keyboard-response,74,364034,0.0-4.0-0.35,93,1,2025-04-29T18:46:25Z,b60275e29fe2361ab97ac0ac217840d7,"Mozilla/5.0 (iPhone; CPU iPhone OS 17_2_1 like Mac OS X) AppleWebKit/605.1.15 (KHTML, like Gecko) Version/17.2 Mobile/15E148 Safari/604.1",iPhone,Safari,17.2,iOS,17_2_1,https://5puzkbbxv1.cognition.run/?sona_id=57138,"en-US,en;q=0.9",pxbckn0hyqa7f6p,20,"[""White""]",No,Male,NA,No,NA,null,<p></p>,null,choice,cdt,trinary,attraction,2,microwave ovens,null,null,null,null,null,null,2,NA,NA,NA,NA,NA,NA,NA,NA,NA,NA
NA,NA,NA,NA,NA,choice_trial,survey-html-form,75,368001,0.0-4.0-1.35,93,1,2025-04-29T18:46:25Z,b60275e29fe2361ab97ac0ac217840d7,"Mozilla/5.0 (iPhone; CPU iPhone OS 17_2_1 like Mac OS X) AppleWebKit/605.1.15 (KHTML, like Gecko) Version/17.2 Mobile/15E148 Safari/604.1",iPhone,Safari,17.2,iOS,17_2_1,https://5puzkbbxv1.cognition.run/?sona_id=57138,"en-US,en;q=0.9",pxbckn0hyqa7f6p,20,"[""White""]",No,Male,NA,No,NA,3958,NA,"{""product_choice"":""B""}",choice,cdt,trinary,attraction,2,microwave ovens,null,null,null,null,null,null,2,50,60,40,60,50,60,Warranty,Cooking power,NA,NA
NA,NA,NA,NA,NA,choice_trial_setup,html-keyboard-response,76,368307,0.0-4.0-0.36,93,1,2025-04-29T18:46:25Z,b60275e29fe2361ab97ac0ac217840d7,"Mozilla/5.0 (iPhone; CPU iPhone OS 17_2_1 like Mac OS X) AppleWebKit/605.1.15 (KHTML, like Gecko) Version/17.2 Mobile/15E148 Safari/604.1",iPhone,Safari,17.2,iOS,17_2_1,https://5puzkbbxv1.cognition.run/?sona_id=57138,"en-US,en;q=0.9",pxbckn0hyqa7f6p,20,"[""White""]",No,Male,NA,No,NA,null,<p></p>,null,choice,ct,binary,attraction,NA,televisions,null,null,null,null,null,null,1,NA,NA,NA,NA,NA,NA,NA,NA,NA,NA
NA,NA,NA,NA,NA,choice_trial,survey-html-form,77,371061,0.0-4.0-1.36,93,1,2025-04-29T18:46:25Z,b60275e29fe2361ab97ac0ac217840d7,"Mozilla/5.0 (iPhone; CPU iPhone OS 17_2_1 like Mac OS X) AppleWebKit/605.1.15 (KHTML, like Gecko) Version/17.2 Mobile/15E148 Safari/604.1",iPhone,Safari,17.2,iOS,17_2_1,https://5puzkbbxv1.cognition.run/?sona_id=57138,"en-US,en;q=0.9",pxbckn0hyqa7f6p,20,"[""White""]",No,Male,NA,No,NA,2742,NA,"{""product_choice"":""A""}",choice,ct,binary,attraction,NA,televisions,null,null,null,null,null,null,1,60,50,null,50,60,null,Screen size,Average lifespan,NA,NA
NA,NA,NA,NA,NA,choice_trial_setup,html-keyboard-response,78,371367,0.0-4.0-0.37,93,1,2025-04-29T18:46:25Z,b60275e29fe2361ab97ac0ac217840d7,"Mozilla/5.0 (iPhone; CPU iPhone OS 17_2_1 like Mac OS X) AppleWebKit/605.1.15 (KHTML, like Gecko) Version/17.2 Mobile/15E148 Safari/604.1",iPhone,Safari,17.2,iOS,17_2_1,https://5puzkbbxv1.cognition.run/?sona_id=57138,"en-US,en;q=0.9",pxbckn0hyqa7f6p,20,"[""White""]",No,Male,NA,No,NA,null,<p></p>,null,choice,tc,binary,attraction,NA,laptops,null,null,null,null,null,null,1,NA,NA,NA,NA,NA,NA,NA,NA,NA,NA
NA,NA,NA,NA,NA,choice_trial,survey-html-form,79,373439,0.0-4.0-1.37,93,1,2025-04-29T18:46:25Z,b60275e29fe2361ab97ac0ac217840d7,"Mozilla/5.0 (iPhone; CPU iPhone OS 17_2_1 like Mac OS X) AppleWebKit/605.1.15 (KHTML, like Gecko) Version/17.2 Mobile/15E148 Safari/604.1",iPhone,Safari,17.2,iOS,17_2_1,https://5puzkbbxv1.cognition.run/?sona_id=57138,"en-US,en;q=0.9",pxbckn0hyqa7f6p,20,"[""White""]",No,Male,NA,No,NA,2062,NA,"{""product_choice"":""B""}",choice,tc,binary,attraction,NA,laptops,null,null,null,null,null,null,1,60,50,null,50,60,null,Processing speed,Memory (RAM),NA,NA
NA,NA,NA,NA,NA,choice_trial_setup,html-keyboard-response,80,373744,0.0-4.0-0.38,93,1,2025-04-29T18:46:25Z,b60275e29fe2361ab97ac0ac217840d7,"Mozilla/5.0 (iPhone; CPU iPhone OS 17_2_1 like Mac OS X) AppleWebKit/605.1.15 (KHTML, like Gecko) Version/17.2 Mobile/15E148 Safari/604.1",iPhone,Safari,17.2,iOS,17_2_1,https://5puzkbbxv1.cognition.run/?sona_id=57138,"en-US,en;q=0.9",pxbckn0hyqa7f6p,20,"[""White""]",No,Male,NA,No,NA,null,<p></p>,null,choice,wwb,trinary,catch,null,laptops,70,60,45,20,15,15,2,NA,NA,NA,NA,NA,NA,NA,NA,NA,NA
NA,NA,NA,NA,NA,choice_trial,survey-html-form,81,376391,0.0-4.0-1.38,93,1,2025-04-29T18:46:25Z,b60275e29fe2361ab97ac0ac217840d7,"Mozilla/5.0 (iPhone; CPU iPhone OS 17_2_1 like Mac OS X) AppleWebKit/605.1.15 (KHTML, like Gecko) Version/17.2 Mobile/15E148 Safari/604.1",iPhone,Safari,17.2,iOS,17_2_1,https://5puzkbbxv1.cognition.run/?sona_id=57138,"en-US,en;q=0.9",pxbckn0hyqa7f6p,20,"[""White""]",No,Male,NA,No,NA,2637,NA,"{""product_choice"":""A""}",choice,wwb,trinary,catch,null,laptops,70,60,45,20,15,15,2,null,null,null,null,null,null,Processing speed,Memory (RAM),NA,NA
NA,NA,NA,NA,NA,choice_trial_setup,html-keyboard-response,82,376697,0.0-4.0-0.39,93,1,2025-04-29T18:46:25Z,b60275e29fe2361ab97ac0ac217840d7,"Mozilla/5.0 (iPhone; CPU iPhone OS 17_2_1 like Mac OS X) AppleWebKit/605.1.15 (KHTML, like Gecko) Version/17.2 Mobile/15E148 Safari/604.1",iPhone,Safari,17.2,iOS,17_2_1,https://5puzkbbxv1.cognition.run/?sona_id=57138,"en-US,en;q=0.9",pxbckn0hyqa7f6p,20,"[""White""]",No,Male,NA,No,NA,null,<p></p>,null,choice,dct,trinary,attraction,1,televisions,null,null,null,null,null,null,2,NA,NA,NA,NA,NA,NA,NA,NA,NA,NA
NA,NA,NA,NA,NA,choice_trial,survey-html-form,83,397923,0.0-4.0-1.39,93,1,2025-04-29T18:46:25Z,b60275e29fe2361ab97ac0ac217840d7,"Mozilla/5.0 (iPhone; CPU iPhone OS 17_2_1 like Mac OS X) AppleWebKit/605.1.15 (KHTML, like Gecko) Version/17.2 Mobile/15E148 Safari/604.1",iPhone,Safari,17.2,iOS,17_2_1,https://5puzkbbxv1.cognition.run/?sona_id=57138,"en-US,en;q=0.9",pxbckn0hyqa7f6p,20,"[""White""]",No,Male,NA,No,NA,21217,NA,"{""product_choice"":""B""}",choice,dct,trinary,attraction,1,televisions,null,null,null,null,null,null,2,60,50,60,50,60,40,Screen size,Average lifespan,NA,NA
NA,NA,NA,NA,NA,choice_trial_setup,html-keyboard-response,84,398229,0.0-4.0-0.40,93,1,2025-04-29T18:46:25Z,b60275e29fe2361ab97ac0ac217840d7,"Mozilla/5.0 (iPhone; CPU iPhone OS 17_2_1 like Mac OS X) AppleWebKit/605.1.15 (KHTML, like Gecko) Version/17.2 Mobile/15E148 Safari/604.1",iPhone,Safari,17.2,iOS,17_2_1,https://5puzkbbxv1.cognition.run/?sona_id=57138,"en-US,en;q=0.9",pxbckn0hyqa7f6p,20,"[""White""]",No,Male,NA,No,NA,null,<p></p>,null,choice,tcd,trinary,repulsion_A,2,laptops,null,null,null,null,null,null,1,NA,NA,NA,NA,NA,NA,NA,NA,NA,NA
NA,NA,NA,NA,NA,choice_trial,survey-html-form,85,403812,0.0-4.0-1.40,93,1,2025-04-29T18:46:25Z,b60275e29fe2361ab97ac0ac217840d7,"Mozilla/5.0 (iPhone; CPU iPhone OS 17_2_1 like Mac OS X) AppleWebKit/605.1.15 (KHTML, like Gecko) Version/17.2 Mobile/15E148 Safari/604.1",iPhone,Safari,17.2,iOS,17_2_1,https://5puzkbbxv1.cognition.run/?sona_id=57138,"en-US,en;q=0.9",pxbckn0hyqa7f6p,20,"[""White""]",No,Male,NA,No,NA,5576,NA,"{""product_choice"":""B""}",choice,tcd,trinary,repulsion_A,2,laptops,null,null,null,null,null,null,1,30,40,20,100,90,100,Processing speed,Memory (RAM),NA,NA
NA,NA,NA,NA,NA,choice_trial_setup,html-keyboard-response,86,404118,0.0-4.0-0.41,93,1,2025-04-29T18:46:25Z,b60275e29fe2361ab97ac0ac217840d7,"Mozilla/5.0 (iPhone; CPU iPhone OS 17_2_1 like Mac OS X) AppleWebKit/605.1.15 (KHTML, like Gecko) Version/17.2 Mobile/15E148 Safari/604.1",iPhone,Safari,17.2,iOS,17_2_1,https://5puzkbbxv1.cognition.run/?sona_id=57138,"en-US,en;q=0.9",pxbckn0hyqa7f6p,20,"[""White""]",No,Male,NA,No,NA,null,<p></p>,null,choice,wbw,trinary,catch,null,washing machines,55,50,20,5,25,30,1,NA,NA,NA,NA,NA,NA,NA,NA,NA,NA
NA,NA,NA,NA,NA,choice_trial,survey-html-form,87,406114,0.0-4.0-1.41,93,1,2025-04-29T18:46:25Z,b60275e29fe2361ab97ac0ac217840d7,"Mozilla/5.0 (iPhone; CPU iPhone OS 17_2_1 like Mac OS X) AppleWebKit/605.1.15 (KHTML, like Gecko) Version/17.2 Mobile/15E148 Safari/604.1",iPhone,Safari,17.2,iOS,17_2_1,https://5puzkbbxv1.cognition.run/?sona_id=57138,"en-US,en;q=0.9",pxbckn0hyqa7f6p,20,"[""White""]",No,Male,NA,No,NA,1984,NA,"{""product_choice"":""B""}",choice,wbw,trinary,catch,null,washing machines,55,50,20,5,25,30,1,null,null,null,null,null,null,Average lifespan,Energy savings,NA,NA
NA,NA,NA,NA,NA,choice_trial_setup,html-keyboard-response,88,406421,0.0-4.0-0.42,93,1,2025-04-29T18:46:25Z,b60275e29fe2361ab97ac0ac217840d7,"Mozilla/5.0 (iPhone; CPU iPhone OS 17_2_1 like Mac OS X) AppleWebKit/605.1.15 (KHTML, like Gecko) Version/17.2 Mobile/15E148 Safari/604.1",iPhone,Safari,17.2,iOS,17_2_1,https://5puzkbbxv1.cognition.run/?sona_id=57138,"en-US,en;q=0.9",pxbckn0hyqa7f6p,20,"[""White""]",No,Male,NA,No,NA,null,<p></p>,null,choice,tc,binary,repulsion,1,laptops,null,null,null,null,null,null,1,NA,NA,NA,NA,NA,NA,NA,NA,NA,NA
NA,NA,NA,NA,NA,choice_trial,survey-html-form,89,412485,0.0-4.0-1.42,93,1,2025-04-29T18:46:25Z,b60275e29fe2361ab97ac0ac217840d7,"Mozilla/5.0 (iPhone; CPU iPhone OS 17_2_1 like Mac OS X) AppleWebKit/605.1.15 (KHTML, like Gecko) Version/17.2 Mobile/15E148 Safari/604.1",iPhone,Safari,17.2,iOS,17_2_1,https://5puzkbbxv1.cognition.run/?sona_id=57138,"en-US,en;q=0.9",pxbckn0hyqa7f6p,20,"[""White""]",No,Male,NA,No,NA,6059,NA,"{""product_choice"":""B""}",choice,tc,binary,repulsion,1,laptops,null,null,null,null,null,null,1,100,90,null,30,40,null,Processing speed,Memory (RAM),NA,NA
NA,NA,NA,NA,NA,choice_trial_setup,html-keyboard-response,90,412791,0.0-4.0-0.43,93,1,2025-04-29T18:46:25Z,b60275e29fe2361ab97ac0ac217840d7,"Mozilla/5.0 (iPhone; CPU iPhone OS 17_2_1 like Mac OS X) AppleWebKit/605.1.15 (KHTML, like Gecko) Version/17.2 Mobile/15E148 Safari/604.1",iPhone,Safari,17.2,iOS,17_2_1,https://5puzkbbxv1.cognition.run/?sona_id=57138,"en-US,en;q=0.9",pxbckn0hyqa7f6p,20,"[""White""]",No,Male,NA,No,NA,null,<p></p>,null,choice,tcd,trinary,attraction,1,laptops,null,null,null,null,null,null,1,NA,NA,NA,NA,NA,NA,NA,NA,NA,NA
NA,NA,NA,NA,NA,choice_trial,survey-html-form,91,431700,0.0-4.0-1.43,93,1,2025-04-29T18:46:25Z,b60275e29fe2361ab97ac0ac217840d7,"Mozilla/5.0 (iPhone; CPU iPhone OS 17_2_1 like Mac OS X) AppleWebKit/605.1.15 (KHTML, like Gecko) Version/17.2 Mobile/15E148 Safari/604.1",iPhone,Safari,17.2,iOS,17_2_1,https://5puzkbbxv1.cognition.run/?sona_id=57138,"en-US,en;q=0.9",pxbckn0hyqa7f6p,20,"[""White""]",No,Male,NA,No,NA,18898,NA,"{""product_choice"":""B""}",choice,tcd,trinary,attraction,1,laptops,null,null,null,null,null,null,1,60,50,60,50,60,40,Processing speed,Memory (RAM),NA,NA
NA,NA,NA,NA,NA,post_trials_message,html-button-response,92,435181,0.0-5.0,93,1,2025-04-29T18:46:25Z,b60275e29fe2361ab97ac0ac217840d7,"Mozilla/5.0 (iPhone; CPU iPhone OS 17_2_1 like Mac OS X) AppleWebKit/605.1.15 (KHTML, like Gecko) Version/17.2 Mobile/15E148 Safari/604.1",iPhone,Safari,17.2,iOS,17_2_1,https://5puzkbbxv1.cognition.run/?sona_id=57138,"en-US,en;q=0.9",pxbckn0hyqa7f6p,20,"[""White""]",No,Male,NA,No,NA,3475,<p> <b>Thank you for your patience!</b></p><p>  The study will be done after completing a brief form. </p>,0,NA,NA,NA,NA,NA,NA,NA,NA,NA,NA,NA,NA,NA,NA,NA,NA,NA,NA,NA,NA,NA,NA,NA
NA,NA,NA,NA,NA,survey_message,survey-text,93,483460,0.0-6.0,93,1,2025-04-29T18:46:25Z,b60275e29fe2361ab97ac0ac217840d7,"Mozilla/5.0 (iPhone; CPU iPhone OS 17_2_1 like Mac OS X) AppleWebKit/605.1.15 (KHTML, like Gecko) Version/17.2 Mobile/15E148 Safari/604.1",iPhone,Safari,17.2,iOS,17_2_1,https://5puzkbbxv1.cognition.run/?sona_id=57138,"en-US,en;q=0.9",pxbckn0hyqa7f6p,20,"[""White""]",No,Male,NA,No,NA,48251,NA,"{""Q0"":""I was choosing the best options based on whatever appliance had an a great let score for their efficiency of use.""}",NA,NA,NA,NA,NA,NA,NA,NA,NA,NA,NA,NA,NA,NA,NA,NA,NA,NA,NA,NA,NA,I was choosing the best options based on whatever appliance had an a great let score for their efficiency of use.,NA
NA,NA,NA,NA,NA,demo_age,survey-text,94,486523,0.0-7.0,93,1,2025-04-29T18:46:25Z,b60275e29fe2361ab97ac0ac217840d7,"Mozilla/5.0 (iPhone; CPU iPhone OS 17_2_1 like Mac OS X) AppleWebKit/605.1.15 (KHTML, like Gecko) Version/17.2 Mobile/15E148 Safari/604.1",iPhone,Safari,17.2,iOS,17_2_1,https://5puzkbbxv1.cognition.run/?sona_id=57138,"en-US,en;q=0.9",pxbckn0hyqa7f6p,20,"[""White""]",No,Male,NA,No,NA,3050,NA,"{""Q0"":""20""}",NA,NA,NA,NA,NA,NA,NA,NA,NA,NA,NA,NA,NA,NA,NA,NA,NA,NA,NA,NA,NA,NA,NA
NA,NA,NA,NA,NA,demo_race,survey-multi-select,95,489046,0.0-8.0,93,1,2025-04-29T18:46:25Z,b60275e29fe2361ab97ac0ac217840d7,"Mozilla/5.0 (iPhone; CPU iPhone OS 17_2_1 like Mac OS X) AppleWebKit/605.1.15 (KHTML, like Gecko) Version/17.2 Mobile/15E148 Safari/604.1",iPhone,Safari,17.2,iOS,17_2_1,https://5puzkbbxv1.cognition.run/?sona_id=57138,"en-US,en;q=0.9",pxbckn0hyqa7f6p,20,"[""White""]",No,Male,NA,No,NA,2512,NA,"{""Q0"":[""White""]}",NA,NA,NA,NA,NA,NA,NA,NA,NA,NA,NA,NA,NA,NA,NA,NA,NA,NA,NA,NA,NA,NA,[0]
NA,NA,NA,NA,NA,demo_ethnicity_gender,survey-multi-choice,96,508963,0.0-9.0,93,1,2025-04-29T18:46:25Z,b60275e29fe2361ab97ac0ac217840d7,"Mozilla/5.0 (iPhone; CPU iPhone OS 17_2_1 like Mac OS X) AppleWebKit/605.1.15 (KHTML, like Gecko) Version/17.2 Mobile/15E148 Safari/604.1",iPhone,Safari,17.2,iOS,17_2_1,https://5puzkbbxv1.cognition.run/?sona_id=57138,"en-US,en;q=0.9",pxbckn0hyqa7f6p,20,"[""White""]",No,Male,NA,No,NA,19911,NA,"{""Q0"":""No"",""Q1"":""Male""}",NA,NA,NA,NA,NA,NA,NA,NA,NA,NA,NA,NA,NA,NA,NA,NA,NA,NA,NA,NA,NA,NA,"[0,1]"
NA,NA,NA,NA,NA,demo_countries,survey-text,97,515242,0.0-10.0,93,1,2025-04-29T18:46:25Z,b60275e29fe2361ab97ac0ac217840d7,"Mozilla/5.0 (iPhone; CPU iPhone OS 17_2_1 like Mac OS X) AppleWebKit/605.1.15 (KHTML, like Gecko) Version/17.2 Mobile/15E148 Safari/604.1",iPhone,Safari,17.2,iOS,17_2_1,https://5puzkbbxv1.cognition.run/?sona_id=57138,"en-US,en;q=0.9",pxbckn0hyqa7f6p,20,"[""White""]",No,Male,NA,No,NA,6269,NA,"{""Q0"":""NA""}",NA,NA,NA,NA,NA,NA,NA,NA,NA,NA,NA,NA,NA,NA,NA,NA,NA,NA,NA,NA,NA,NA,NA
NA,NA,NA,NA,NA,demo_prev_study,survey-multi-choice,98,525525,0.0-11.0,93,1,2025-04-29T18:46:25Z,b60275e29fe2361ab97ac0ac217840d7,"Mozilla/5.0 (iPhone; CPU iPhone OS 17_2_1 like Mac OS X) AppleWebKit/605.1.15 (KHTML, like Gecko) Version/17.2 Mobile/15E148 Safari/604.1",iPhone,Safari,17.2,iOS,17_2_1,https://5puzkbbxv1.cognition.run/?sona_id=57138,"en-US,en;q=0.9",pxbckn0hyqa7f6p,20,"[""White""]",No,Male,NA,No,NA,10277,NA,"{""Q0"":""No""}",NA,NA,NA,NA,NA,NA,NA,NA,NA,NA,NA,NA,NA,NA,NA,NA,NA,NA,NA,NA,NA,NA,[0]
