success,timeout,failed_images,failed_audio,failed_video,screen_id,trial_type,trial_index,time_elapsed,internal_node_id,run_id,condition,recorded_at,source_code_version,user_agent,device,browser,browser_version,platform,platform_version,referer,accept_language,ppt_id,age,race,ethnicity,gender,other_countries,prev_study,exp_duration,view_history,rt,stimulus,response,phase,order,set,effect,t_high,category,d1_best,d2_best,d1_worst1,d2_worst1,d1_worst2,d2_worst2,first_dim,d1_t,d1_c,d1_d,d2_t,d2_c,d2_d,d1_name,d2_name,strategy_response,question_order
TRUE,FALSE,[],[],[],img preload,preload,0,242,0.0-0.0,94,1,2025-04-29T18:47:30Z,b60275e29fe2361ab97ac0ac217840d7,"Mozilla/5.0 (Macintosh; Intel Mac OS X 10_15_7) AppleWebKit/605.1.15 (KHTML, like Gecko) Version/18.0.1 Safari/605.1.15",Macintosh,Safari,18.0.1,OS X,10_15_7,https://5puzkbbxv1.cognition.run/?sona_id=53544,"en-US,en;q=0.9",3yqplehfvwclrx7,21,"[""White""]",No,Female,NA,No,338956,NA,NA,NA,NA,NA,NA,NA,NA,NA,NA,NA,NA,NA,NA,NA,NA,NA,NA,NA,NA,NA,NA,NA,NA,NA,NA,NA
NA,NA,NA,NA,NA,computer_message,instructions,1,3601,0.0-1.0,94,1,2025-04-29T18:47:30Z,b60275e29fe2361ab97ac0ac217840d7,"Mozilla/5.0 (Macintosh; Intel Mac OS X 10_15_7) AppleWebKit/605.1.15 (KHTML, like Gecko) Version/18.0.1 Safari/605.1.15",Macintosh,Safari,18.0.1,OS X,10_15_7,https://5puzkbbxv1.cognition.run/?sona_id=53544,"en-US,en;q=0.9",3yqplehfvwclrx7,21,"[""White""]",No,Female,NA,No,338956,"[{""page_index"":0,""viewing_time"":3355}]",3355,NA,NA,NA,NA,NA,NA,NA,NA,NA,NA,NA,NA,NA,NA,NA,NA,NA,NA,NA,NA,NA,NA,NA,NA,NA
TRUE,NA,NA,NA,NA,NA,fullscreen,2,6084,0.0-2.0,94,1,2025-04-29T18:47:30Z,b60275e29fe2361ab97ac0ac217840d7,"Mozilla/5.0 (Macintosh; Intel Mac OS X 10_15_7) AppleWebKit/605.1.15 (KHTML, like Gecko) Version/18.0.1 Safari/605.1.15",Macintosh,Safari,18.0.1,OS X,10_15_7,https://5puzkbbxv1.cognition.run/?sona_id=53544,"en-US,en;q=0.9",3yqplehfvwclrx7,21,"[""White""]",No,Female,NA,No,338956,NA,1478,NA,NA,NA,NA,NA,NA,NA,NA,NA,NA,NA,NA,NA,NA,NA,NA,NA,NA,NA,NA,NA,NA,NA,NA,NA
NA,NA,NA,NA,NA,choice_instructions,instructions,3,38120,0.0-3.0,94,1,2025-04-29T18:47:30Z,b60275e29fe2361ab97ac0ac217840d7,"Mozilla/5.0 (Macintosh; Intel Mac OS X 10_15_7) AppleWebKit/605.1.15 (KHTML, like Gecko) Version/18.0.1 Safari/605.1.15",Macintosh,Safari,18.0.1,OS X,10_15_7,https://5puzkbbxv1.cognition.run/?sona_id=53544,"en-US,en;q=0.9",3yqplehfvwclrx7,21,"[""White""]",No,Female,NA,No,338956,"[{""page_index"":0,""viewing_time"":972},{""page_index"":1,""viewing_time"":2619},{""page_index"":2,""viewing_time"":6438},{""page_index"":3,""viewing_time"":3884},{""page_index"":4,""viewing_time"":1439},{""page_index"":5,""viewing_time"":11697},{""page_index"":6,""viewing_time"":4986}]",32035,NA,NA,NA,NA,NA,NA,NA,NA,NA,NA,NA,NA,NA,NA,NA,NA,NA,NA,NA,NA,NA,NA,NA,NA,NA
NA,NA,NA,NA,NA,choice_trial_setup,html-keyboard-response,4,38426,0.0-4.0-0.0,94,1,2025-04-29T18:47:30Z,b60275e29fe2361ab97ac0ac217840d7,"Mozilla/5.0 (Macintosh; Intel Mac OS X 10_15_7) AppleWebKit/605.1.15 (KHTML, like Gecko) Version/18.0.1 Safari/605.1.15",Macintosh,Safari,18.0.1,OS X,10_15_7,https://5puzkbbxv1.cognition.run/?sona_id=53544,"en-US,en;q=0.9",3yqplehfvwclrx7,21,"[""White""]",No,Female,NA,No,338956,NA,null,<p></p>,null,choice,dtc,trinary,repulsion_A,2,laptops,null,null,null,null,null,null,1,NA,NA,NA,NA,NA,NA,NA,NA,NA,NA
NA,NA,NA,NA,NA,choice_trial,survey-html-form,5,47623,0.0-4.0-1.0,94,1,2025-04-29T18:47:30Z,b60275e29fe2361ab97ac0ac217840d7,"Mozilla/5.0 (Macintosh; Intel Mac OS X 10_15_7) AppleWebKit/605.1.15 (KHTML, like Gecko) Version/18.0.1 Safari/605.1.15",Macintosh,Safari,18.0.1,OS X,10_15_7,https://5puzkbbxv1.cognition.run/?sona_id=53544,"en-US,en;q=0.9",3yqplehfvwclrx7,21,"[""White""]",No,Female,NA,No,338956,NA,9190,NA,"{""product_choice"":""C""}",choice,dtc,trinary,repulsion_A,2,laptops,null,null,null,null,null,null,1,30,40,20,100,90,100,Processing speed,Memory (RAM),NA,NA
NA,NA,NA,NA,NA,choice_trial_setup,html-keyboard-response,6,47926,0.0-4.0-0.1,94,1,2025-04-29T18:47:30Z,b60275e29fe2361ab97ac0ac217840d7,"Mozilla/5.0 (Macintosh; Intel Mac OS X 10_15_7) AppleWebKit/605.1.15 (KHTML, like Gecko) Version/18.0.1 Safari/605.1.15",Macintosh,Safari,18.0.1,OS X,10_15_7,https://5puzkbbxv1.cognition.run/?sona_id=53544,"en-US,en;q=0.9",3yqplehfvwclrx7,21,"[""White""]",No,Female,NA,No,338956,NA,null,<p></p>,null,choice,bw,binary,catch,null,microwave ovens,85,75,20,20,null,null,1,NA,NA,NA,NA,NA,NA,NA,NA,NA,NA
NA,NA,NA,NA,NA,choice_trial,survey-html-form,7,54115,0.0-4.0-1.1,94,1,2025-04-29T18:47:30Z,b60275e29fe2361ab97ac0ac217840d7,"Mozilla/5.0 (Macintosh; Intel Mac OS X 10_15_7) AppleWebKit/605.1.15 (KHTML, like Gecko) Version/18.0.1 Safari/605.1.15",Macintosh,Safari,18.0.1,OS X,10_15_7,https://5puzkbbxv1.cognition.run/?sona_id=53544,"en-US,en;q=0.9",3yqplehfvwclrx7,21,"[""White""]",No,Female,NA,No,338956,NA,6187,NA,"{""product_choice"":""A""}",choice,bw,binary,catch,null,microwave ovens,85,75,20,20,null,null,1,null,null,null,null,null,null,Warranty,Cooking power,NA,NA
NA,NA,NA,NA,NA,choice_trial_setup,html-keyboard-response,8,54417,0.0-4.0-0.2,94,1,2025-04-29T18:47:30Z,b60275e29fe2361ab97ac0ac217840d7,"Mozilla/5.0 (Macintosh; Intel Mac OS X 10_15_7) AppleWebKit/605.1.15 (KHTML, like Gecko) Version/18.0.1 Safari/605.1.15",Macintosh,Safari,18.0.1,OS X,10_15_7,https://5puzkbbxv1.cognition.run/?sona_id=53544,"en-US,en;q=0.9",3yqplehfvwclrx7,21,"[""White""]",No,Female,NA,No,338956,NA,null,<p></p>,null,choice,wwb,trinary,catch,null,televisions,85,95,5,15,20,35,2,NA,NA,NA,NA,NA,NA,NA,NA,NA,NA
NA,NA,NA,NA,NA,choice_trial,survey-html-form,9,59241,0.0-4.0-1.2,94,1,2025-04-29T18:47:30Z,b60275e29fe2361ab97ac0ac217840d7,"Mozilla/5.0 (Macintosh; Intel Mac OS X 10_15_7) AppleWebKit/605.1.15 (KHTML, like Gecko) Version/18.0.1 Safari/605.1.15",Macintosh,Safari,18.0.1,OS X,10_15_7,https://5puzkbbxv1.cognition.run/?sona_id=53544,"en-US,en;q=0.9",3yqplehfvwclrx7,21,"[""White""]",No,Female,NA,No,338956,NA,4821,NA,"{""product_choice"":""C""}",choice,wwb,trinary,catch,null,televisions,85,95,5,15,20,35,2,null,null,null,null,null,null,Screen size,Average lifespan,NA,NA
NA,NA,NA,NA,NA,choice_trial_setup,html-keyboard-response,10,59544,0.0-4.0-0.3,94,1,2025-04-29T18:47:30Z,b60275e29fe2361ab97ac0ac217840d7,"Mozilla/5.0 (Macintosh; Intel Mac OS X 10_15_7) AppleWebKit/605.1.15 (KHTML, like Gecko) Version/18.0.1 Safari/605.1.15",Macintosh,Safari,18.0.1,OS X,10_15_7,https://5puzkbbxv1.cognition.run/?sona_id=53544,"en-US,en;q=0.9",3yqplehfvwclrx7,21,"[""White""]",No,Female,NA,No,338956,NA,null,<p></p>,null,choice,tc,binary,repulsion,1,televisions,null,null,null,null,null,null,1,NA,NA,NA,NA,NA,NA,NA,NA,NA,NA
NA,NA,NA,NA,NA,choice_trial,survey-html-form,11,66285,0.0-4.0-1.3,94,1,2025-04-29T18:47:30Z,b60275e29fe2361ab97ac0ac217840d7,"Mozilla/5.0 (Macintosh; Intel Mac OS X 10_15_7) AppleWebKit/605.1.15 (KHTML, like Gecko) Version/18.0.1 Safari/605.1.15",Macintosh,Safari,18.0.1,OS X,10_15_7,https://5puzkbbxv1.cognition.run/?sona_id=53544,"en-US,en;q=0.9",3yqplehfvwclrx7,21,"[""White""]",No,Female,NA,No,338956,NA,6738,NA,"{""product_choice"":""A""}",choice,tc,binary,repulsion,1,televisions,null,null,null,null,null,null,1,100,90,null,30,40,null,Screen size,Average lifespan,NA,NA
NA,NA,NA,NA,NA,choice_trial_setup,html-keyboard-response,12,66589,0.0-4.0-0.4,94,1,2025-04-29T18:47:30Z,b60275e29fe2361ab97ac0ac217840d7,"Mozilla/5.0 (Macintosh; Intel Mac OS X 10_15_7) AppleWebKit/605.1.15 (KHTML, like Gecko) Version/18.0.1 Safari/605.1.15",Macintosh,Safari,18.0.1,OS X,10_15_7,https://5puzkbbxv1.cognition.run/?sona_id=53544,"en-US,en;q=0.9",3yqplehfvwclrx7,21,"[""White""]",No,Female,NA,No,338956,NA,null,<p></p>,null,choice,dtc,trinary,attraction,2,laptops,null,null,null,null,null,null,2,NA,NA,NA,NA,NA,NA,NA,NA,NA,NA
NA,NA,NA,NA,NA,choice_trial,survey-html-form,13,72938,0.0-4.0-1.4,94,1,2025-04-29T18:47:30Z,b60275e29fe2361ab97ac0ac217840d7,"Mozilla/5.0 (Macintosh; Intel Mac OS X 10_15_7) AppleWebKit/605.1.15 (KHTML, like Gecko) Version/18.0.1 Safari/605.1.15",Macintosh,Safari,18.0.1,OS X,10_15_7,https://5puzkbbxv1.cognition.run/?sona_id=53544,"en-US,en;q=0.9",3yqplehfvwclrx7,21,"[""White""]",No,Female,NA,No,338956,NA,6346,NA,"{""product_choice"":""C""}",choice,dtc,trinary,attraction,2,laptops,null,null,null,null,null,null,2,50,60,40,60,50,60,Processing speed,Memory (RAM),NA,NA
NA,NA,NA,NA,NA,choice_trial_setup,html-keyboard-response,14,73241,0.0-4.0-0.5,94,1,2025-04-29T18:47:30Z,b60275e29fe2361ab97ac0ac217840d7,"Mozilla/5.0 (Macintosh; Intel Mac OS X 10_15_7) AppleWebKit/605.1.15 (KHTML, like Gecko) Version/18.0.1 Safari/605.1.15",Macintosh,Safari,18.0.1,OS X,10_15_7,https://5puzkbbxv1.cognition.run/?sona_id=53544,"en-US,en;q=0.9",3yqplehfvwclrx7,21,"[""White""]",No,Female,NA,No,338956,NA,null,<p></p>,null,choice,cdt,trinary,repulsion_A,2,televisions,null,null,null,null,null,null,1,NA,NA,NA,NA,NA,NA,NA,NA,NA,NA
NA,NA,NA,NA,NA,choice_trial,survey-html-form,15,79251,0.0-4.0-1.5,94,1,2025-04-29T18:47:30Z,b60275e29fe2361ab97ac0ac217840d7,"Mozilla/5.0 (Macintosh; Intel Mac OS X 10_15_7) AppleWebKit/605.1.15 (KHTML, like Gecko) Version/18.0.1 Safari/605.1.15",Macintosh,Safari,18.0.1,OS X,10_15_7,https://5puzkbbxv1.cognition.run/?sona_id=53544,"en-US,en;q=0.9",3yqplehfvwclrx7,21,"[""White""]",No,Female,NA,No,338956,NA,6006,NA,"{""product_choice"":""A""}",choice,cdt,trinary,repulsion_A,2,televisions,null,null,null,null,null,null,1,30,40,20,100,90,100,Screen size,Average lifespan,NA,NA
NA,NA,NA,NA,NA,choice_trial_setup,html-keyboard-response,16,79554,0.0-4.0-0.6,94,1,2025-04-29T18:47:30Z,b60275e29fe2361ab97ac0ac217840d7,"Mozilla/5.0 (Macintosh; Intel Mac OS X 10_15_7) AppleWebKit/605.1.15 (KHTML, like Gecko) Version/18.0.1 Safari/605.1.15",Macintosh,Safari,18.0.1,OS X,10_15_7,https://5puzkbbxv1.cognition.run/?sona_id=53544,"en-US,en;q=0.9",3yqplehfvwclrx7,21,"[""White""]",No,Female,NA,No,338956,NA,null,<p></p>,null,choice,dct,trinary,attraction,2,televisions,null,null,null,null,null,null,1,NA,NA,NA,NA,NA,NA,NA,NA,NA,NA
NA,NA,NA,NA,NA,choice_trial,survey-html-form,17,83619,0.0-4.0-1.6,94,1,2025-04-29T18:47:30Z,b60275e29fe2361ab97ac0ac217840d7,"Mozilla/5.0 (Macintosh; Intel Mac OS X 10_15_7) AppleWebKit/605.1.15 (KHTML, like Gecko) Version/18.0.1 Safari/605.1.15",Macintosh,Safari,18.0.1,OS X,10_15_7,https://5puzkbbxv1.cognition.run/?sona_id=53544,"en-US,en;q=0.9",3yqplehfvwclrx7,21,"[""White""]",No,Female,NA,No,338956,NA,4060,NA,"{""product_choice"":""C""}",choice,dct,trinary,attraction,2,televisions,null,null,null,null,null,null,1,50,60,40,60,50,60,Screen size,Average lifespan,NA,NA
NA,NA,NA,NA,NA,choice_trial_setup,html-keyboard-response,18,83922,0.0-4.0-0.7,94,1,2025-04-29T18:47:30Z,b60275e29fe2361ab97ac0ac217840d7,"Mozilla/5.0 (Macintosh; Intel Mac OS X 10_15_7) AppleWebKit/605.1.15 (KHTML, like Gecko) Version/18.0.1 Safari/605.1.15",Macintosh,Safari,18.0.1,OS X,10_15_7,https://5puzkbbxv1.cognition.run/?sona_id=53544,"en-US,en;q=0.9",3yqplehfvwclrx7,21,"[""White""]",No,Female,NA,No,338956,NA,null,<p></p>,null,choice,wbw,trinary,catch,null,laptops,50,70,25,10,45,45,2,NA,NA,NA,NA,NA,NA,NA,NA,NA,NA
NA,NA,NA,NA,NA,choice_trial,survey-html-form,19,87164,0.0-4.0-1.7,94,1,2025-04-29T18:47:30Z,b60275e29fe2361ab97ac0ac217840d7,"Mozilla/5.0 (Macintosh; Intel Mac OS X 10_15_7) AppleWebKit/605.1.15 (KHTML, like Gecko) Version/18.0.1 Safari/605.1.15",Macintosh,Safari,18.0.1,OS X,10_15_7,https://5puzkbbxv1.cognition.run/?sona_id=53544,"en-US,en;q=0.9",3yqplehfvwclrx7,21,"[""White""]",No,Female,NA,No,338956,NA,3237,NA,"{""product_choice"":""B""}",choice,wbw,trinary,catch,null,laptops,50,70,25,10,45,45,2,null,null,null,null,null,null,Processing speed,Memory (RAM),NA,NA
NA,NA,NA,NA,NA,choice_trial_setup,html-keyboard-response,20,87467,0.0-4.0-0.8,94,1,2025-04-29T18:47:30Z,b60275e29fe2361ab97ac0ac217840d7,"Mozilla/5.0 (Macintosh; Intel Mac OS X 10_15_7) AppleWebKit/605.1.15 (KHTML, like Gecko) Version/18.0.1 Safari/605.1.15",Macintosh,Safari,18.0.1,OS X,10_15_7,https://5puzkbbxv1.cognition.run/?sona_id=53544,"en-US,en;q=0.9",3yqplehfvwclrx7,21,"[""White""]",No,Female,NA,No,338956,NA,null,<p></p>,null,choice,ctd,trinary,repulsion_A,1,laptops,null,null,null,null,null,null,2,NA,NA,NA,NA,NA,NA,NA,NA,NA,NA
NA,NA,NA,NA,NA,choice_trial,survey-html-form,21,93656,0.0-4.0-1.8,94,1,2025-04-29T18:47:30Z,b60275e29fe2361ab97ac0ac217840d7,"Mozilla/5.0 (Macintosh; Intel Mac OS X 10_15_7) AppleWebKit/605.1.15 (KHTML, like Gecko) Version/18.0.1 Safari/605.1.15",Macintosh,Safari,18.0.1,OS X,10_15_7,https://5puzkbbxv1.cognition.run/?sona_id=53544,"en-US,en;q=0.9",3yqplehfvwclrx7,21,"[""White""]",No,Female,NA,No,338956,NA,6185,NA,"{""product_choice"":""B""}",choice,ctd,trinary,repulsion_A,1,laptops,null,null,null,null,null,null,2,100,90,100,30,40,20,Processing speed,Memory (RAM),NA,NA
NA,NA,NA,NA,NA,choice_trial_setup,html-keyboard-response,22,93959,0.0-4.0-0.9,94,1,2025-04-29T18:47:30Z,b60275e29fe2361ab97ac0ac217840d7,"Mozilla/5.0 (Macintosh; Intel Mac OS X 10_15_7) AppleWebKit/605.1.15 (KHTML, like Gecko) Version/18.0.1 Safari/605.1.15",Macintosh,Safari,18.0.1,OS X,10_15_7,https://5puzkbbxv1.cognition.run/?sona_id=53544,"en-US,en;q=0.9",3yqplehfvwclrx7,21,"[""White""]",No,Female,NA,No,338956,NA,null,<p></p>,null,choice,ctd,trinary,repulsion_A,1,washing machines,null,null,null,null,null,null,1,NA,NA,NA,NA,NA,NA,NA,NA,NA,NA
NA,NA,NA,NA,NA,choice_trial,survey-html-form,23,99641,0.0-4.0-1.9,94,1,2025-04-29T18:47:30Z,b60275e29fe2361ab97ac0ac217840d7,"Mozilla/5.0 (Macintosh; Intel Mac OS X 10_15_7) AppleWebKit/605.1.15 (KHTML, like Gecko) Version/18.0.1 Safari/605.1.15",Macintosh,Safari,18.0.1,OS X,10_15_7,https://5puzkbbxv1.cognition.run/?sona_id=53544,"en-US,en;q=0.9",3yqplehfvwclrx7,21,"[""White""]",No,Female,NA,No,338956,NA,5679,NA,"{""product_choice"":""A""}",choice,ctd,trinary,repulsion_A,1,washing machines,null,null,null,null,null,null,1,100,90,100,30,40,20,Average lifespan,Energy savings,NA,NA
NA,NA,NA,NA,NA,choice_trial_setup,html-keyboard-response,24,99944,0.0-4.0-0.10,94,1,2025-04-29T18:47:30Z,b60275e29fe2361ab97ac0ac217840d7,"Mozilla/5.0 (Macintosh; Intel Mac OS X 10_15_7) AppleWebKit/605.1.15 (KHTML, like Gecko) Version/18.0.1 Safari/605.1.15",Macintosh,Safari,18.0.1,OS X,10_15_7,https://5puzkbbxv1.cognition.run/?sona_id=53544,"en-US,en;q=0.9",3yqplehfvwclrx7,21,"[""White""]",No,Female,NA,No,338956,NA,null,<p></p>,null,choice,tc,binary,attraction,NA,televisions,null,null,null,null,null,null,2,NA,NA,NA,NA,NA,NA,NA,NA,NA,NA
NA,NA,NA,NA,NA,choice_trial,survey-html-form,25,103659,0.0-4.0-1.10,94,1,2025-04-29T18:47:30Z,b60275e29fe2361ab97ac0ac217840d7,"Mozilla/5.0 (Macintosh; Intel Mac OS X 10_15_7) AppleWebKit/605.1.15 (KHTML, like Gecko) Version/18.0.1 Safari/605.1.15",Macintosh,Safari,18.0.1,OS X,10_15_7,https://5puzkbbxv1.cognition.run/?sona_id=53544,"en-US,en;q=0.9",3yqplehfvwclrx7,21,"[""White""]",No,Female,NA,No,338956,NA,3711,NA,"{""product_choice"":""B""}",choice,tc,binary,attraction,NA,televisions,null,null,null,null,null,null,2,60,50,null,50,60,null,Screen size,Average lifespan,NA,NA
NA,NA,NA,NA,NA,choice_trial_setup,html-keyboard-response,26,103962,0.0-4.0-0.11,94,1,2025-04-29T18:47:30Z,b60275e29fe2361ab97ac0ac217840d7,"Mozilla/5.0 (Macintosh; Intel Mac OS X 10_15_7) AppleWebKit/605.1.15 (KHTML, like Gecko) Version/18.0.1 Safari/605.1.15",Macintosh,Safari,18.0.1,OS X,10_15_7,https://5puzkbbxv1.cognition.run/?sona_id=53544,"en-US,en;q=0.9",3yqplehfvwclrx7,21,"[""White""]",No,Female,NA,No,338956,NA,null,<p></p>,null,choice,tcd,trinary,repulsion_B,1,televisions,null,null,null,null,null,null,1,NA,NA,NA,NA,NA,NA,NA,NA,NA,NA
NA,NA,NA,NA,NA,choice_trial,survey-html-form,27,111532,0.0-4.0-1.11,94,1,2025-04-29T18:47:30Z,b60275e29fe2361ab97ac0ac217840d7,"Mozilla/5.0 (Macintosh; Intel Mac OS X 10_15_7) AppleWebKit/605.1.15 (KHTML, like Gecko) Version/18.0.1 Safari/605.1.15",Macintosh,Safari,18.0.1,OS X,10_15_7,https://5puzkbbxv1.cognition.run/?sona_id=53544,"en-US,en;q=0.9",3yqplehfvwclrx7,21,"[""White""]",No,Female,NA,No,338956,NA,7565,NA,"{""product_choice"":""B""}",choice,tcd,trinary,repulsion_B,1,televisions,null,null,null,null,null,null,1,90,100,80,40,30,40,Screen size,Average lifespan,NA,NA
NA,NA,NA,NA,NA,choice_trial_setup,html-keyboard-response,28,111835,0.0-4.0-0.12,94,1,2025-04-29T18:47:30Z,b60275e29fe2361ab97ac0ac217840d7,"Mozilla/5.0 (Macintosh; Intel Mac OS X 10_15_7) AppleWebKit/605.1.15 (KHTML, like Gecko) Version/18.0.1 Safari/605.1.15",Macintosh,Safari,18.0.1,OS X,10_15_7,https://5puzkbbxv1.cognition.run/?sona_id=53544,"en-US,en;q=0.9",3yqplehfvwclrx7,21,"[""White""]",No,Female,NA,No,338956,NA,null,<p></p>,null,choice,tdc,trinary,attraction,2,washing machines,null,null,null,null,null,null,1,NA,NA,NA,NA,NA,NA,NA,NA,NA,NA
NA,NA,NA,NA,NA,choice_trial,survey-html-form,29,119244,0.0-4.0-1.12,94,1,2025-04-29T18:47:30Z,b60275e29fe2361ab97ac0ac217840d7,"Mozilla/5.0 (Macintosh; Intel Mac OS X 10_15_7) AppleWebKit/605.1.15 (KHTML, like Gecko) Version/18.0.1 Safari/605.1.15",Macintosh,Safari,18.0.1,OS X,10_15_7,https://5puzkbbxv1.cognition.run/?sona_id=53544,"en-US,en;q=0.9",3yqplehfvwclrx7,21,"[""White""]",No,Female,NA,No,338956,NA,7405,NA,"{""product_choice"":""A""}",choice,tdc,trinary,attraction,2,washing machines,null,null,null,null,null,null,1,50,60,40,60,50,60,Average lifespan,Energy savings,NA,NA
NA,NA,NA,NA,NA,choice_trial_setup,html-keyboard-response,30,119547,0.0-4.0-0.13,94,1,2025-04-29T18:47:30Z,b60275e29fe2361ab97ac0ac217840d7,"Mozilla/5.0 (Macintosh; Intel Mac OS X 10_15_7) AppleWebKit/605.1.15 (KHTML, like Gecko) Version/18.0.1 Safari/605.1.15",Macintosh,Safari,18.0.1,OS X,10_15_7,https://5puzkbbxv1.cognition.run/?sona_id=53544,"en-US,en;q=0.9",3yqplehfvwclrx7,21,"[""White""]",No,Female,NA,No,338956,NA,null,<p></p>,null,choice,wwb,trinary,catch,null,microwave ovens,65,95,30,50,15,40,1,NA,NA,NA,NA,NA,NA,NA,NA,NA,NA
NA,NA,NA,NA,NA,choice_trial,survey-html-form,31,123545,0.0-4.0-1.13,94,1,2025-04-29T18:47:30Z,b60275e29fe2361ab97ac0ac217840d7,"Mozilla/5.0 (Macintosh; Intel Mac OS X 10_15_7) AppleWebKit/605.1.15 (KHTML, like Gecko) Version/18.0.1 Safari/605.1.15",Macintosh,Safari,18.0.1,OS X,10_15_7,https://5puzkbbxv1.cognition.run/?sona_id=53544,"en-US,en;q=0.9",3yqplehfvwclrx7,21,"[""White""]",No,Female,NA,No,338956,NA,3994,NA,"{""product_choice"":""C""}",choice,wwb,trinary,catch,null,microwave ovens,65,95,30,50,15,40,1,null,null,null,null,null,null,Warranty,Cooking power,NA,NA
NA,NA,NA,NA,NA,choice_trial_setup,html-keyboard-response,32,123849,0.0-4.0-0.14,94,1,2025-04-29T18:47:30Z,b60275e29fe2361ab97ac0ac217840d7,"Mozilla/5.0 (Macintosh; Intel Mac OS X 10_15_7) AppleWebKit/605.1.15 (KHTML, like Gecko) Version/18.0.1 Safari/605.1.15",Macintosh,Safari,18.0.1,OS X,10_15_7,https://5puzkbbxv1.cognition.run/?sona_id=53544,"en-US,en;q=0.9",3yqplehfvwclrx7,21,"[""White""]",No,Female,NA,No,338956,NA,null,<p></p>,null,choice,cdt,trinary,repulsion_B,2,laptops,null,null,null,null,null,null,2,NA,NA,NA,NA,NA,NA,NA,NA,NA,NA
NA,NA,NA,NA,NA,choice_trial,survey-html-form,33,128035,0.0-4.0-1.14,94,1,2025-04-29T18:47:30Z,b60275e29fe2361ab97ac0ac217840d7,"Mozilla/5.0 (Macintosh; Intel Mac OS X 10_15_7) AppleWebKit/605.1.15 (KHTML, like Gecko) Version/18.0.1 Safari/605.1.15",Macintosh,Safari,18.0.1,OS X,10_15_7,https://5puzkbbxv1.cognition.run/?sona_id=53544,"en-US,en;q=0.9",3yqplehfvwclrx7,21,"[""White""]",No,Female,NA,No,338956,NA,4181,NA,"{""product_choice"":""C""}",choice,cdt,trinary,repulsion_B,2,laptops,null,null,null,null,null,null,2,40,30,40,90,100,80,Processing speed,Memory (RAM),NA,NA
NA,NA,NA,NA,NA,choice_trial_setup,html-keyboard-response,34,128338,0.0-4.0-0.15,94,1,2025-04-29T18:47:30Z,b60275e29fe2361ab97ac0ac217840d7,"Mozilla/5.0 (Macintosh; Intel Mac OS X 10_15_7) AppleWebKit/605.1.15 (KHTML, like Gecko) Version/18.0.1 Safari/605.1.15",Macintosh,Safari,18.0.1,OS X,10_15_7,https://5puzkbbxv1.cognition.run/?sona_id=53544,"en-US,en;q=0.9",3yqplehfvwclrx7,21,"[""White""]",No,Female,NA,No,338956,NA,null,<p></p>,null,choice,cdt,trinary,repulsion_B,1,washing machines,null,null,null,null,null,null,2,NA,NA,NA,NA,NA,NA,NA,NA,NA,NA
NA,NA,NA,NA,NA,choice_trial,survey-html-form,35,132370,0.0-4.0-1.15,94,1,2025-04-29T18:47:30Z,b60275e29fe2361ab97ac0ac217840d7,"Mozilla/5.0 (Macintosh; Intel Mac OS X 10_15_7) AppleWebKit/605.1.15 (KHTML, like Gecko) Version/18.0.1 Safari/605.1.15",Macintosh,Safari,18.0.1,OS X,10_15_7,https://5puzkbbxv1.cognition.run/?sona_id=53544,"en-US,en;q=0.9",3yqplehfvwclrx7,21,"[""White""]",No,Female,NA,No,338956,NA,4027,NA,"{""product_choice"":""C""}",choice,cdt,trinary,repulsion_B,1,washing machines,null,null,null,null,null,null,2,90,100,80,40,30,40,Average lifespan,Energy savings,NA,NA
NA,NA,NA,NA,NA,choice_trial_setup,html-keyboard-response,36,132674,0.0-4.0-0.16,94,1,2025-04-29T18:47:30Z,b60275e29fe2361ab97ac0ac217840d7,"Mozilla/5.0 (Macintosh; Intel Mac OS X 10_15_7) AppleWebKit/605.1.15 (KHTML, like Gecko) Version/18.0.1 Safari/605.1.15",Macintosh,Safari,18.0.1,OS X,10_15_7,https://5puzkbbxv1.cognition.run/?sona_id=53544,"en-US,en;q=0.9",3yqplehfvwclrx7,21,"[""White""]",No,Female,NA,No,338956,NA,null,<p></p>,null,choice,cdt,trinary,repulsion_B,2,microwave ovens,null,null,null,null,null,null,1,NA,NA,NA,NA,NA,NA,NA,NA,NA,NA
NA,NA,NA,NA,NA,choice_trial,survey-html-form,37,136958,0.0-4.0-1.16,94,1,2025-04-29T18:47:30Z,b60275e29fe2361ab97ac0ac217840d7,"Mozilla/5.0 (Macintosh; Intel Mac OS X 10_15_7) AppleWebKit/605.1.15 (KHTML, like Gecko) Version/18.0.1 Safari/605.1.15",Macintosh,Safari,18.0.1,OS X,10_15_7,https://5puzkbbxv1.cognition.run/?sona_id=53544,"en-US,en;q=0.9",3yqplehfvwclrx7,21,"[""White""]",No,Female,NA,No,338956,NA,4280,NA,"{""product_choice"":""A""}",choice,cdt,trinary,repulsion_B,2,microwave ovens,null,null,null,null,null,null,1,40,30,40,90,100,80,Warranty,Cooking power,NA,NA
NA,NA,NA,NA,NA,choice_trial_setup,html-keyboard-response,38,137261,0.0-4.0-0.17,94,1,2025-04-29T18:47:30Z,b60275e29fe2361ab97ac0ac217840d7,"Mozilla/5.0 (Macintosh; Intel Mac OS X 10_15_7) AppleWebKit/605.1.15 (KHTML, like Gecko) Version/18.0.1 Safari/605.1.15",Macintosh,Safari,18.0.1,OS X,10_15_7,https://5puzkbbxv1.cognition.run/?sona_id=53544,"en-US,en;q=0.9",3yqplehfvwclrx7,21,"[""White""]",No,Female,NA,No,338956,NA,null,<p></p>,null,choice,cdt,trinary,attraction,1,washing machines,null,null,null,null,null,null,2,NA,NA,NA,NA,NA,NA,NA,NA,NA,NA
NA,NA,NA,NA,NA,choice_trial,survey-html-form,39,141007,0.0-4.0-1.17,94,1,2025-04-29T18:47:30Z,b60275e29fe2361ab97ac0ac217840d7,"Mozilla/5.0 (Macintosh; Intel Mac OS X 10_15_7) AppleWebKit/605.1.15 (KHTML, like Gecko) Version/18.0.1 Safari/605.1.15",Macintosh,Safari,18.0.1,OS X,10_15_7,https://5puzkbbxv1.cognition.run/?sona_id=53544,"en-US,en;q=0.9",3yqplehfvwclrx7,21,"[""White""]",No,Female,NA,No,338956,NA,3741,NA,"{""product_choice"":""A""}",choice,cdt,trinary,attraction,1,washing machines,null,null,null,null,null,null,2,60,50,60,50,60,40,Average lifespan,Energy savings,NA,NA
NA,NA,NA,NA,NA,choice_trial_setup,html-keyboard-response,40,141311,0.0-4.0-0.18,94,1,2025-04-29T18:47:30Z,b60275e29fe2361ab97ac0ac217840d7,"Mozilla/5.0 (Macintosh; Intel Mac OS X 10_15_7) AppleWebKit/605.1.15 (KHTML, like Gecko) Version/18.0.1 Safari/605.1.15",Macintosh,Safari,18.0.1,OS X,10_15_7,https://5puzkbbxv1.cognition.run/?sona_id=53544,"en-US,en;q=0.9",3yqplehfvwclrx7,21,"[""White""]",No,Female,NA,No,338956,NA,null,<p></p>,null,choice,tdc,trinary,attraction,1,televisions,null,null,null,null,null,null,2,NA,NA,NA,NA,NA,NA,NA,NA,NA,NA
NA,NA,NA,NA,NA,choice_trial,survey-html-form,41,146099,0.0-4.0-1.18,94,1,2025-04-29T18:47:30Z,b60275e29fe2361ab97ac0ac217840d7,"Mozilla/5.0 (Macintosh; Intel Mac OS X 10_15_7) AppleWebKit/605.1.15 (KHTML, like Gecko) Version/18.0.1 Safari/605.1.15",Macintosh,Safari,18.0.1,OS X,10_15_7,https://5puzkbbxv1.cognition.run/?sona_id=53544,"en-US,en;q=0.9",3yqplehfvwclrx7,21,"[""White""]",No,Female,NA,No,338956,NA,4784,NA,"{""product_choice"":""A""}",choice,tdc,trinary,attraction,1,televisions,null,null,null,null,null,null,2,60,50,60,50,60,40,Screen size,Average lifespan,NA,NA
NA,NA,NA,NA,NA,choice_trial_setup,html-keyboard-response,42,146403,0.0-4.0-0.19,94,1,2025-04-29T18:47:30Z,b60275e29fe2361ab97ac0ac217840d7,"Mozilla/5.0 (Macintosh; Intel Mac OS X 10_15_7) AppleWebKit/605.1.15 (KHTML, like Gecko) Version/18.0.1 Safari/605.1.15",Macintosh,Safari,18.0.1,OS X,10_15_7,https://5puzkbbxv1.cognition.run/?sona_id=53544,"en-US,en;q=0.9",3yqplehfvwclrx7,21,"[""White""]",No,Female,NA,No,338956,NA,null,<p></p>,null,choice,ctd,trinary,attraction,1,laptops,null,null,null,null,null,null,1,NA,NA,NA,NA,NA,NA,NA,NA,NA,NA
NA,NA,NA,NA,NA,choice_trial,survey-html-form,43,151005,0.0-4.0-1.19,94,1,2025-04-29T18:47:30Z,b60275e29fe2361ab97ac0ac217840d7,"Mozilla/5.0 (Macintosh; Intel Mac OS X 10_15_7) AppleWebKit/605.1.15 (KHTML, like Gecko) Version/18.0.1 Safari/605.1.15",Macintosh,Safari,18.0.1,OS X,10_15_7,https://5puzkbbxv1.cognition.run/?sona_id=53544,"en-US,en;q=0.9",3yqplehfvwclrx7,21,"[""White""]",No,Female,NA,No,338956,NA,4596,NA,"{""product_choice"":""B""}",choice,ctd,trinary,attraction,1,laptops,null,null,null,null,null,null,1,60,50,60,50,60,40,Processing speed,Memory (RAM),NA,NA
NA,NA,NA,NA,NA,choice_trial_setup,html-keyboard-response,44,151309,0.0-4.0-0.20,94,1,2025-04-29T18:47:30Z,b60275e29fe2361ab97ac0ac217840d7,"Mozilla/5.0 (Macintosh; Intel Mac OS X 10_15_7) AppleWebKit/605.1.15 (KHTML, like Gecko) Version/18.0.1 Safari/605.1.15",Macintosh,Safari,18.0.1,OS X,10_15_7,https://5puzkbbxv1.cognition.run/?sona_id=53544,"en-US,en;q=0.9",3yqplehfvwclrx7,21,"[""White""]",No,Female,NA,No,338956,NA,null,<p></p>,null,choice,tdc,trinary,repulsion_B,1,microwave ovens,null,null,null,null,null,null,2,NA,NA,NA,NA,NA,NA,NA,NA,NA,NA
NA,NA,NA,NA,NA,choice_trial,survey-html-form,45,155811,0.0-4.0-1.20,94,1,2025-04-29T18:47:30Z,b60275e29fe2361ab97ac0ac217840d7,"Mozilla/5.0 (Macintosh; Intel Mac OS X 10_15_7) AppleWebKit/605.1.15 (KHTML, like Gecko) Version/18.0.1 Safari/605.1.15",Macintosh,Safari,18.0.1,OS X,10_15_7,https://5puzkbbxv1.cognition.run/?sona_id=53544,"en-US,en;q=0.9",3yqplehfvwclrx7,21,"[""White""]",No,Female,NA,No,338956,NA,4497,NA,"{""product_choice"":""A""}",choice,tdc,trinary,repulsion_B,1,microwave ovens,null,null,null,null,null,null,2,90,100,80,40,30,40,Warranty,Cooking power,NA,NA
NA,NA,NA,NA,NA,choice_trial_setup,html-keyboard-response,46,156115,0.0-4.0-0.21,94,1,2025-04-29T18:47:30Z,b60275e29fe2361ab97ac0ac217840d7,"Mozilla/5.0 (Macintosh; Intel Mac OS X 10_15_7) AppleWebKit/605.1.15 (KHTML, like Gecko) Version/18.0.1 Safari/605.1.15",Macintosh,Safari,18.0.1,OS X,10_15_7,https://5puzkbbxv1.cognition.run/?sona_id=53544,"en-US,en;q=0.9",3yqplehfvwclrx7,21,"[""White""]",No,Female,NA,No,338956,NA,null,<p></p>,null,choice,ct,binary,repulsion,1,washing machines,null,null,null,null,null,null,2,NA,NA,NA,NA,NA,NA,NA,NA,NA,NA
NA,NA,NA,NA,NA,choice_trial,survey-html-form,47,160853,0.0-4.0-1.21,94,1,2025-04-29T18:47:30Z,b60275e29fe2361ab97ac0ac217840d7,"Mozilla/5.0 (Macintosh; Intel Mac OS X 10_15_7) AppleWebKit/605.1.15 (KHTML, like Gecko) Version/18.0.1 Safari/605.1.15",Macintosh,Safari,18.0.1,OS X,10_15_7,https://5puzkbbxv1.cognition.run/?sona_id=53544,"en-US,en;q=0.9",3yqplehfvwclrx7,21,"[""White""]",No,Female,NA,No,338956,NA,4733,NA,"{""product_choice"":""A""}",choice,ct,binary,repulsion,1,washing machines,null,null,null,null,null,null,2,100,90,null,30,40,null,Average lifespan,Energy savings,NA,NA
NA,NA,NA,NA,NA,choice_trial_setup,html-keyboard-response,48,161156,0.0-4.0-0.22,94,1,2025-04-29T18:47:30Z,b60275e29fe2361ab97ac0ac217840d7,"Mozilla/5.0 (Macintosh; Intel Mac OS X 10_15_7) AppleWebKit/605.1.15 (KHTML, like Gecko) Version/18.0.1 Safari/605.1.15",Macintosh,Safari,18.0.1,OS X,10_15_7,https://5puzkbbxv1.cognition.run/?sona_id=53544,"en-US,en;q=0.9",3yqplehfvwclrx7,21,"[""White""]",No,Female,NA,No,338956,NA,null,<p></p>,null,choice,dtc,trinary,attraction,1,microwave ovens,null,null,null,null,null,null,1,NA,NA,NA,NA,NA,NA,NA,NA,NA,NA
NA,NA,NA,NA,NA,choice_trial,survey-html-form,49,163507,0.0-4.0-1.22,94,1,2025-04-29T18:47:30Z,b60275e29fe2361ab97ac0ac217840d7,"Mozilla/5.0 (Macintosh; Intel Mac OS X 10_15_7) AppleWebKit/605.1.15 (KHTML, like Gecko) Version/18.0.1 Safari/605.1.15",Macintosh,Safari,18.0.1,OS X,10_15_7,https://5puzkbbxv1.cognition.run/?sona_id=53544,"en-US,en;q=0.9",3yqplehfvwclrx7,21,"[""White""]",No,Female,NA,No,338956,NA,2345,NA,"{""product_choice"":""B""}",choice,dtc,trinary,attraction,1,microwave ovens,null,null,null,null,null,null,1,60,50,60,50,60,40,Warranty,Cooking power,NA,NA
NA,NA,NA,NA,NA,choice_trial_setup,html-keyboard-response,50,163811,0.0-4.0-0.23,94,1,2025-04-29T18:47:30Z,b60275e29fe2361ab97ac0ac217840d7,"Mozilla/5.0 (Macintosh; Intel Mac OS X 10_15_7) AppleWebKit/605.1.15 (KHTML, like Gecko) Version/18.0.1 Safari/605.1.15",Macintosh,Safari,18.0.1,OS X,10_15_7,https://5puzkbbxv1.cognition.run/?sona_id=53544,"en-US,en;q=0.9",3yqplehfvwclrx7,21,"[""White""]",No,Female,NA,No,338956,NA,null,<p></p>,null,choice,ct,binary,repulsion,2,laptops,null,null,null,null,null,null,1,NA,NA,NA,NA,NA,NA,NA,NA,NA,NA
NA,NA,NA,NA,NA,choice_trial,survey-html-form,51,168198,0.0-4.0-1.23,94,1,2025-04-29T18:47:30Z,b60275e29fe2361ab97ac0ac217840d7,"Mozilla/5.0 (Macintosh; Intel Mac OS X 10_15_7) AppleWebKit/605.1.15 (KHTML, like Gecko) Version/18.0.1 Safari/605.1.15",Macintosh,Safari,18.0.1,OS X,10_15_7,https://5puzkbbxv1.cognition.run/?sona_id=53544,"en-US,en;q=0.9",3yqplehfvwclrx7,21,"[""White""]",No,Female,NA,No,338956,NA,4382,NA,"{""product_choice"":""A""}",choice,ct,binary,repulsion,2,laptops,null,null,null,null,null,null,1,30,40,null,100,90,null,Processing speed,Memory (RAM),NA,NA
NA,NA,NA,NA,NA,choice_trial_setup,html-keyboard-response,52,168502,0.0-4.0-0.24,94,1,2025-04-29T18:47:30Z,b60275e29fe2361ab97ac0ac217840d7,"Mozilla/5.0 (Macintosh; Intel Mac OS X 10_15_7) AppleWebKit/605.1.15 (KHTML, like Gecko) Version/18.0.1 Safari/605.1.15",Macintosh,Safari,18.0.1,OS X,10_15_7,https://5puzkbbxv1.cognition.run/?sona_id=53544,"en-US,en;q=0.9",3yqplehfvwclrx7,21,"[""White""]",No,Female,NA,No,338956,NA,null,<p></p>,null,choice,bw,binary,catch,null,televisions,50,50,35,30,null,null,1,NA,NA,NA,NA,NA,NA,NA,NA,NA,NA
NA,NA,NA,NA,NA,choice_trial,survey-html-form,53,170800,0.0-4.0-1.24,94,1,2025-04-29T18:47:30Z,b60275e29fe2361ab97ac0ac217840d7,"Mozilla/5.0 (Macintosh; Intel Mac OS X 10_15_7) AppleWebKit/605.1.15 (KHTML, like Gecko) Version/18.0.1 Safari/605.1.15",Macintosh,Safari,18.0.1,OS X,10_15_7,https://5puzkbbxv1.cognition.run/?sona_id=53544,"en-US,en;q=0.9",3yqplehfvwclrx7,21,"[""White""]",No,Female,NA,No,338956,NA,2294,NA,"{""product_choice"":""A""}",choice,bw,binary,catch,null,televisions,50,50,35,30,null,null,1,null,null,null,null,null,null,Screen size,Average lifespan,NA,NA
NA,NA,NA,NA,NA,choice_trial_setup,html-keyboard-response,54,171104,0.0-4.0-0.25,94,1,2025-04-29T18:47:30Z,b60275e29fe2361ab97ac0ac217840d7,"Mozilla/5.0 (Macintosh; Intel Mac OS X 10_15_7) AppleWebKit/605.1.15 (KHTML, like Gecko) Version/18.0.1 Safari/605.1.15",Macintosh,Safari,18.0.1,OS X,10_15_7,https://5puzkbbxv1.cognition.run/?sona_id=53544,"en-US,en;q=0.9",3yqplehfvwclrx7,21,"[""White""]",No,Female,NA,No,338956,NA,null,<p></p>,null,choice,tc,binary,repulsion,1,laptops,null,null,null,null,null,null,2,NA,NA,NA,NA,NA,NA,NA,NA,NA,NA
NA,NA,NA,NA,NA,choice_trial,survey-html-form,55,176103,0.0-4.0-1.25,94,1,2025-04-29T18:47:30Z,b60275e29fe2361ab97ac0ac217840d7,"Mozilla/5.0 (Macintosh; Intel Mac OS X 10_15_7) AppleWebKit/605.1.15 (KHTML, like Gecko) Version/18.0.1 Safari/605.1.15",Macintosh,Safari,18.0.1,OS X,10_15_7,https://5puzkbbxv1.cognition.run/?sona_id=53544,"en-US,en;q=0.9",3yqplehfvwclrx7,21,"[""White""]",No,Female,NA,No,338956,NA,4995,NA,"{""product_choice"":""B""}",choice,tc,binary,repulsion,1,laptops,null,null,null,null,null,null,2,100,90,null,30,40,null,Processing speed,Memory (RAM),NA,NA
NA,NA,NA,NA,NA,choice_trial_setup,html-keyboard-response,56,176407,0.0-4.0-0.26,94,1,2025-04-29T18:47:30Z,b60275e29fe2361ab97ac0ac217840d7,"Mozilla/5.0 (Macintosh; Intel Mac OS X 10_15_7) AppleWebKit/605.1.15 (KHTML, like Gecko) Version/18.0.1 Safari/605.1.15",Macintosh,Safari,18.0.1,OS X,10_15_7,https://5puzkbbxv1.cognition.run/?sona_id=53544,"en-US,en;q=0.9",3yqplehfvwclrx7,21,"[""White""]",No,Female,NA,No,338956,NA,null,<p></p>,null,choice,dct,trinary,repulsion_A,2,washing machines,null,null,null,null,null,null,1,NA,NA,NA,NA,NA,NA,NA,NA,NA,NA
NA,NA,NA,NA,NA,choice_trial,survey-html-form,57,180374,0.0-4.0-1.26,94,1,2025-04-29T18:47:30Z,b60275e29fe2361ab97ac0ac217840d7,"Mozilla/5.0 (Macintosh; Intel Mac OS X 10_15_7) AppleWebKit/605.1.15 (KHTML, like Gecko) Version/18.0.1 Safari/605.1.15",Macintosh,Safari,18.0.1,OS X,10_15_7,https://5puzkbbxv1.cognition.run/?sona_id=53544,"en-US,en;q=0.9",3yqplehfvwclrx7,21,"[""White""]",No,Female,NA,No,338956,NA,3963,NA,"{""product_choice"":""B""}",choice,dct,trinary,repulsion_A,2,washing machines,null,null,null,null,null,null,1,30,40,20,100,90,100,Average lifespan,Energy savings,NA,NA
NA,NA,NA,NA,NA,choice_trial_setup,html-keyboard-response,58,180677,0.0-4.0-0.27,94,1,2025-04-29T18:47:30Z,b60275e29fe2361ab97ac0ac217840d7,"Mozilla/5.0 (Macintosh; Intel Mac OS X 10_15_7) AppleWebKit/605.1.15 (KHTML, like Gecko) Version/18.0.1 Safari/605.1.15",Macintosh,Safari,18.0.1,OS X,10_15_7,https://5puzkbbxv1.cognition.run/?sona_id=53544,"en-US,en;q=0.9",3yqplehfvwclrx7,21,"[""White""]",No,Female,NA,No,338956,NA,null,<p></p>,null,choice,dct,trinary,repulsion_B,1,laptops,null,null,null,null,null,null,2,NA,NA,NA,NA,NA,NA,NA,NA,NA,NA
NA,NA,NA,NA,NA,choice_trial,survey-html-form,59,221708,0.0-4.0-1.27,94,1,2025-04-29T18:47:30Z,b60275e29fe2361ab97ac0ac217840d7,"Mozilla/5.0 (Macintosh; Intel Mac OS X 10_15_7) AppleWebKit/605.1.15 (KHTML, like Gecko) Version/18.0.1 Safari/605.1.15",Macintosh,Safari,18.0.1,OS X,10_15_7,https://5puzkbbxv1.cognition.run/?sona_id=53544,"en-US,en;q=0.9",3yqplehfvwclrx7,21,"[""White""]",No,Female,NA,No,338956,NA,41025,NA,"{""product_choice"":""C""}",choice,dct,trinary,repulsion_B,1,laptops,null,null,null,null,null,null,2,90,100,80,40,30,40,Processing speed,Memory (RAM),NA,NA
NA,NA,NA,NA,NA,choice_trial_setup,html-keyboard-response,60,222012,0.0-4.0-0.28,94,1,2025-04-29T18:47:30Z,b60275e29fe2361ab97ac0ac217840d7,"Mozilla/5.0 (Macintosh; Intel Mac OS X 10_15_7) AppleWebKit/605.1.15 (KHTML, like Gecko) Version/18.0.1 Safari/605.1.15",Macintosh,Safari,18.0.1,OS X,10_15_7,https://5puzkbbxv1.cognition.run/?sona_id=53544,"en-US,en;q=0.9",3yqplehfvwclrx7,21,"[""White""]",No,Female,NA,No,338956,NA,null,<p></p>,null,choice,ct,binary,repulsion,2,televisions,null,null,null,null,null,null,1,NA,NA,NA,NA,NA,NA,NA,NA,NA,NA
NA,NA,NA,NA,NA,choice_trial,survey-html-form,61,225351,0.0-4.0-1.28,94,1,2025-04-29T18:47:30Z,b60275e29fe2361ab97ac0ac217840d7,"Mozilla/5.0 (Macintosh; Intel Mac OS X 10_15_7) AppleWebKit/605.1.15 (KHTML, like Gecko) Version/18.0.1 Safari/605.1.15",Macintosh,Safari,18.0.1,OS X,10_15_7,https://5puzkbbxv1.cognition.run/?sona_id=53544,"en-US,en;q=0.9",3yqplehfvwclrx7,21,"[""White""]",No,Female,NA,No,338956,NA,3334,NA,"{""product_choice"":""A""}",choice,ct,binary,repulsion,2,televisions,null,null,null,null,null,null,1,30,40,null,100,90,null,Screen size,Average lifespan,NA,NA
NA,NA,NA,NA,NA,choice_trial_setup,html-keyboard-response,62,225655,0.0-4.0-0.29,94,1,2025-04-29T18:47:30Z,b60275e29fe2361ab97ac0ac217840d7,"Mozilla/5.0 (Macintosh; Intel Mac OS X 10_15_7) AppleWebKit/605.1.15 (KHTML, like Gecko) Version/18.0.1 Safari/605.1.15",Macintosh,Safari,18.0.1,OS X,10_15_7,https://5puzkbbxv1.cognition.run/?sona_id=53544,"en-US,en;q=0.9",3yqplehfvwclrx7,21,"[""White""]",No,Female,NA,No,338956,NA,null,<p></p>,null,choice,tc,binary,repulsion,2,microwave ovens,null,null,null,null,null,null,1,NA,NA,NA,NA,NA,NA,NA,NA,NA,NA
NA,NA,NA,NA,NA,choice_trial,survey-html-form,63,228296,0.0-4.0-1.29,94,1,2025-04-29T18:47:30Z,b60275e29fe2361ab97ac0ac217840d7,"Mozilla/5.0 (Macintosh; Intel Mac OS X 10_15_7) AppleWebKit/605.1.15 (KHTML, like Gecko) Version/18.0.1 Safari/605.1.15",Macintosh,Safari,18.0.1,OS X,10_15_7,https://5puzkbbxv1.cognition.run/?sona_id=53544,"en-US,en;q=0.9",3yqplehfvwclrx7,21,"[""White""]",No,Female,NA,No,338956,NA,2635,NA,"{""product_choice"":""B""}",choice,tc,binary,repulsion,2,microwave ovens,null,null,null,null,null,null,1,30,40,null,100,90,null,Warranty,Cooking power,NA,NA
NA,NA,NA,NA,NA,choice_trial_setup,html-keyboard-response,64,228601,0.0-4.0-0.30,94,1,2025-04-29T18:47:30Z,b60275e29fe2361ab97ac0ac217840d7,"Mozilla/5.0 (Macintosh; Intel Mac OS X 10_15_7) AppleWebKit/605.1.15 (KHTML, like Gecko) Version/18.0.1 Safari/605.1.15",Macintosh,Safari,18.0.1,OS X,10_15_7,https://5puzkbbxv1.cognition.run/?sona_id=53544,"en-US,en;q=0.9",3yqplehfvwclrx7,21,"[""White""]",No,Female,NA,No,338956,NA,null,<p></p>,null,choice,dtc,trinary,repulsion_A,2,microwave ovens,null,null,null,null,null,null,1,NA,NA,NA,NA,NA,NA,NA,NA,NA,NA
NA,NA,NA,NA,NA,choice_trial,survey-html-form,65,242477,0.0-4.0-1.30,94,1,2025-04-29T18:47:30Z,b60275e29fe2361ab97ac0ac217840d7,"Mozilla/5.0 (Macintosh; Intel Mac OS X 10_15_7) AppleWebKit/605.1.15 (KHTML, like Gecko) Version/18.0.1 Safari/605.1.15",Macintosh,Safari,18.0.1,OS X,10_15_7,https://5puzkbbxv1.cognition.run/?sona_id=53544,"en-US,en;q=0.9",3yqplehfvwclrx7,21,"[""White""]",No,Female,NA,No,338956,NA,13871,NA,"{""product_choice"":""C""}",choice,dtc,trinary,repulsion_A,2,microwave ovens,null,null,null,null,null,null,1,30,40,20,100,90,100,Warranty,Cooking power,NA,NA
NA,NA,NA,NA,NA,choice_trial_setup,html-keyboard-response,66,242780,0.0-4.0-0.31,94,1,2025-04-29T18:47:30Z,b60275e29fe2361ab97ac0ac217840d7,"Mozilla/5.0 (Macintosh; Intel Mac OS X 10_15_7) AppleWebKit/605.1.15 (KHTML, like Gecko) Version/18.0.1 Safari/605.1.15",Macintosh,Safari,18.0.1,OS X,10_15_7,https://5puzkbbxv1.cognition.run/?sona_id=53544,"en-US,en;q=0.9",3yqplehfvwclrx7,21,"[""White""]",No,Female,NA,No,338956,NA,null,<p></p>,null,choice,tc,binary,attraction,NA,microwave ovens,null,null,null,null,null,null,2,NA,NA,NA,NA,NA,NA,NA,NA,NA,NA
NA,NA,NA,NA,NA,choice_trial,survey-html-form,67,247053,0.0-4.0-1.31,94,1,2025-04-29T18:47:30Z,b60275e29fe2361ab97ac0ac217840d7,"Mozilla/5.0 (Macintosh; Intel Mac OS X 10_15_7) AppleWebKit/605.1.15 (KHTML, like Gecko) Version/18.0.1 Safari/605.1.15",Macintosh,Safari,18.0.1,OS X,10_15_7,https://5puzkbbxv1.cognition.run/?sona_id=53544,"en-US,en;q=0.9",3yqplehfvwclrx7,21,"[""White""]",No,Female,NA,No,338956,NA,4271,NA,"{""product_choice"":""B""}",choice,tc,binary,attraction,NA,microwave ovens,null,null,null,null,null,null,2,60,50,null,50,60,null,Warranty,Cooking power,NA,NA
NA,NA,NA,NA,NA,choice_trial_setup,html-keyboard-response,68,247356,0.0-4.0-0.32,94,1,2025-04-29T18:47:30Z,b60275e29fe2361ab97ac0ac217840d7,"Mozilla/5.0 (Macintosh; Intel Mac OS X 10_15_7) AppleWebKit/605.1.15 (KHTML, like Gecko) Version/18.0.1 Safari/605.1.15",Macintosh,Safari,18.0.1,OS X,10_15_7,https://5puzkbbxv1.cognition.run/?sona_id=53544,"en-US,en;q=0.9",3yqplehfvwclrx7,21,"[""White""]",No,Female,NA,No,338956,NA,null,<p></p>,null,choice,dtc,trinary,repulsion_A,1,televisions,null,null,null,null,null,null,2,NA,NA,NA,NA,NA,NA,NA,NA,NA,NA
NA,NA,NA,NA,NA,choice_trial,survey-html-form,69,253226,0.0-4.0-1.32,94,1,2025-04-29T18:47:30Z,b60275e29fe2361ab97ac0ac217840d7,"Mozilla/5.0 (Macintosh; Intel Mac OS X 10_15_7) AppleWebKit/605.1.15 (KHTML, like Gecko) Version/18.0.1 Safari/605.1.15",Macintosh,Safari,18.0.1,OS X,10_15_7,https://5puzkbbxv1.cognition.run/?sona_id=53544,"en-US,en;q=0.9",3yqplehfvwclrx7,21,"[""White""]",No,Female,NA,No,338956,NA,5865,NA,"{""product_choice"":""B""}",choice,dtc,trinary,repulsion_A,1,televisions,null,null,null,null,null,null,2,100,90,100,30,40,20,Screen size,Average lifespan,NA,NA
NA,NA,NA,NA,NA,choice_trial_setup,html-keyboard-response,70,253531,0.0-4.0-0.33,94,1,2025-04-29T18:47:30Z,b60275e29fe2361ab97ac0ac217840d7,"Mozilla/5.0 (Macintosh; Intel Mac OS X 10_15_7) AppleWebKit/605.1.15 (KHTML, like Gecko) Version/18.0.1 Safari/605.1.15",Macintosh,Safari,18.0.1,OS X,10_15_7,https://5puzkbbxv1.cognition.run/?sona_id=53544,"en-US,en;q=0.9",3yqplehfvwclrx7,21,"[""White""]",No,Female,NA,No,338956,NA,null,<p></p>,null,choice,dct,trinary,repulsion_A,1,microwave ovens,null,null,null,null,null,null,2,NA,NA,NA,NA,NA,NA,NA,NA,NA,NA
NA,NA,NA,NA,NA,choice_trial,survey-html-form,71,257304,0.0-4.0-1.33,94,1,2025-04-29T18:47:30Z,b60275e29fe2361ab97ac0ac217840d7,"Mozilla/5.0 (Macintosh; Intel Mac OS X 10_15_7) AppleWebKit/605.1.15 (KHTML, like Gecko) Version/18.0.1 Safari/605.1.15",Macintosh,Safari,18.0.1,OS X,10_15_7,https://5puzkbbxv1.cognition.run/?sona_id=53544,"en-US,en;q=0.9",3yqplehfvwclrx7,21,"[""White""]",No,Female,NA,No,338956,NA,3768,NA,"{""product_choice"":""B""}",choice,dct,trinary,repulsion_A,1,microwave ovens,null,null,null,null,null,null,2,100,90,100,30,40,20,Warranty,Cooking power,NA,NA
NA,NA,NA,NA,NA,choice_trial_setup,html-keyboard-response,72,257609,0.0-4.0-0.34,94,1,2025-04-29T18:47:30Z,b60275e29fe2361ab97ac0ac217840d7,"Mozilla/5.0 (Macintosh; Intel Mac OS X 10_15_7) AppleWebKit/605.1.15 (KHTML, like Gecko) Version/18.0.1 Safari/605.1.15",Macintosh,Safari,18.0.1,OS X,10_15_7,https://5puzkbbxv1.cognition.run/?sona_id=53544,"en-US,en;q=0.9",3yqplehfvwclrx7,21,"[""White""]",No,Female,NA,No,338956,NA,null,<p></p>,null,choice,bw,binary,catch,null,washing machines,60,80,25,50,null,null,1,NA,NA,NA,NA,NA,NA,NA,NA,NA,NA
NA,NA,NA,NA,NA,choice_trial,survey-html-form,73,259620,0.0-4.0-1.34,94,1,2025-04-29T18:47:30Z,b60275e29fe2361ab97ac0ac217840d7,"Mozilla/5.0 (Macintosh; Intel Mac OS X 10_15_7) AppleWebKit/605.1.15 (KHTML, like Gecko) Version/18.0.1 Safari/605.1.15",Macintosh,Safari,18.0.1,OS X,10_15_7,https://5puzkbbxv1.cognition.run/?sona_id=53544,"en-US,en;q=0.9",3yqplehfvwclrx7,21,"[""White""]",No,Female,NA,No,338956,NA,2005,NA,"{""product_choice"":""A""}",choice,bw,binary,catch,null,washing machines,60,80,25,50,null,null,1,null,null,null,null,null,null,Average lifespan,Energy savings,NA,NA
NA,NA,NA,NA,NA,choice_trial_setup,html-keyboard-response,74,259924,0.0-4.0-0.35,94,1,2025-04-29T18:47:30Z,b60275e29fe2361ab97ac0ac217840d7,"Mozilla/5.0 (Macintosh; Intel Mac OS X 10_15_7) AppleWebKit/605.1.15 (KHTML, like Gecko) Version/18.0.1 Safari/605.1.15",Macintosh,Safari,18.0.1,OS X,10_15_7,https://5puzkbbxv1.cognition.run/?sona_id=53544,"en-US,en;q=0.9",3yqplehfvwclrx7,21,"[""White""]",No,Female,NA,No,338956,NA,null,<p></p>,null,choice,wwb,trinary,catch,null,washing machines,50,75,50,50,15,30,2,NA,NA,NA,NA,NA,NA,NA,NA,NA,NA
NA,NA,NA,NA,NA,choice_trial,survey-html-form,75,261612,0.0-4.0-1.35,94,1,2025-04-29T18:47:30Z,b60275e29fe2361ab97ac0ac217840d7,"Mozilla/5.0 (Macintosh; Intel Mac OS X 10_15_7) AppleWebKit/605.1.15 (KHTML, like Gecko) Version/18.0.1 Safari/605.1.15",Macintosh,Safari,18.0.1,OS X,10_15_7,https://5puzkbbxv1.cognition.run/?sona_id=53544,"en-US,en;q=0.9",3yqplehfvwclrx7,21,"[""White""]",No,Female,NA,No,338956,NA,1682,NA,"{""product_choice"":""C""}",choice,wwb,trinary,catch,null,washing machines,50,75,50,50,15,30,2,null,null,null,null,null,null,Average lifespan,Energy savings,NA,NA
NA,NA,NA,NA,NA,choice_trial_setup,html-keyboard-response,76,261916,0.0-4.0-0.36,94,1,2025-04-29T18:47:30Z,b60275e29fe2361ab97ac0ac217840d7,"Mozilla/5.0 (Macintosh; Intel Mac OS X 10_15_7) AppleWebKit/605.1.15 (KHTML, like Gecko) Version/18.0.1 Safari/605.1.15",Macintosh,Safari,18.0.1,OS X,10_15_7,https://5puzkbbxv1.cognition.run/?sona_id=53544,"en-US,en;q=0.9",3yqplehfvwclrx7,21,"[""White""]",No,Female,NA,No,338956,NA,null,<p></p>,null,choice,ct,binary,repulsion,1,microwave ovens,null,null,null,null,null,null,1,NA,NA,NA,NA,NA,NA,NA,NA,NA,NA
NA,NA,NA,NA,NA,choice_trial,survey-html-form,77,264459,0.0-4.0-1.36,94,1,2025-04-29T18:47:30Z,b60275e29fe2361ab97ac0ac217840d7,"Mozilla/5.0 (Macintosh; Intel Mac OS X 10_15_7) AppleWebKit/605.1.15 (KHTML, like Gecko) Version/18.0.1 Safari/605.1.15",Macintosh,Safari,18.0.1,OS X,10_15_7,https://5puzkbbxv1.cognition.run/?sona_id=53544,"en-US,en;q=0.9",3yqplehfvwclrx7,21,"[""White""]",No,Female,NA,No,338956,NA,2538,NA,"{""product_choice"":""A""}",choice,ct,binary,repulsion,1,microwave ovens,null,null,null,null,null,null,1,100,90,null,30,40,null,Warranty,Cooking power,NA,NA
NA,NA,NA,NA,NA,choice_trial_setup,html-keyboard-response,78,264762,0.0-4.0-0.37,94,1,2025-04-29T18:47:30Z,b60275e29fe2361ab97ac0ac217840d7,"Mozilla/5.0 (Macintosh; Intel Mac OS X 10_15_7) AppleWebKit/605.1.15 (KHTML, like Gecko) Version/18.0.1 Safari/605.1.15",Macintosh,Safari,18.0.1,OS X,10_15_7,https://5puzkbbxv1.cognition.run/?sona_id=53544,"en-US,en;q=0.9",3yqplehfvwclrx7,21,"[""White""]",No,Female,NA,No,338956,NA,null,<p></p>,null,choice,dtc,trinary,attraction,2,microwave ovens,null,null,null,null,null,null,1,NA,NA,NA,NA,NA,NA,NA,NA,NA,NA
NA,NA,NA,NA,NA,choice_trial,survey-html-form,79,266387,0.0-4.0-1.37,94,1,2025-04-29T18:47:30Z,b60275e29fe2361ab97ac0ac217840d7,"Mozilla/5.0 (Macintosh; Intel Mac OS X 10_15_7) AppleWebKit/605.1.15 (KHTML, like Gecko) Version/18.0.1 Safari/605.1.15",Macintosh,Safari,18.0.1,OS X,10_15_7,https://5puzkbbxv1.cognition.run/?sona_id=53544,"en-US,en;q=0.9",3yqplehfvwclrx7,21,"[""White""]",No,Female,NA,No,338956,NA,1619,NA,"{""product_choice"":""B""}",choice,dtc,trinary,attraction,2,microwave ovens,null,null,null,null,null,null,1,50,60,40,60,50,60,Warranty,Cooking power,NA,NA
NA,NA,NA,NA,NA,choice_trial_setup,html-keyboard-response,80,266693,0.0-4.0-0.38,94,1,2025-04-29T18:47:30Z,b60275e29fe2361ab97ac0ac217840d7,"Mozilla/5.0 (Macintosh; Intel Mac OS X 10_15_7) AppleWebKit/605.1.15 (KHTML, like Gecko) Version/18.0.1 Safari/605.1.15",Macintosh,Safari,18.0.1,OS X,10_15_7,https://5puzkbbxv1.cognition.run/?sona_id=53544,"en-US,en;q=0.9",3yqplehfvwclrx7,21,"[""White""]",No,Female,NA,No,338956,NA,null,<p></p>,null,choice,tc,binary,attraction,NA,laptops,null,null,null,null,null,null,1,NA,NA,NA,NA,NA,NA,NA,NA,NA,NA
NA,NA,NA,NA,NA,choice_trial,survey-html-form,81,270064,0.0-4.0-1.38,94,1,2025-04-29T18:47:30Z,b60275e29fe2361ab97ac0ac217840d7,"Mozilla/5.0 (Macintosh; Intel Mac OS X 10_15_7) AppleWebKit/605.1.15 (KHTML, like Gecko) Version/18.0.1 Safari/605.1.15",Macintosh,Safari,18.0.1,OS X,10_15_7,https://5puzkbbxv1.cognition.run/?sona_id=53544,"en-US,en;q=0.9",3yqplehfvwclrx7,21,"[""White""]",No,Female,NA,No,338956,NA,3364,NA,"{""product_choice"":""A""}",choice,tc,binary,attraction,NA,laptops,null,null,null,null,null,null,1,60,50,null,50,60,null,Processing speed,Memory (RAM),NA,NA
NA,NA,NA,NA,NA,choice_trial_setup,html-keyboard-response,82,270368,0.0-4.0-0.39,94,1,2025-04-29T18:47:30Z,b60275e29fe2361ab97ac0ac217840d7,"Mozilla/5.0 (Macintosh; Intel Mac OS X 10_15_7) AppleWebKit/605.1.15 (KHTML, like Gecko) Version/18.0.1 Safari/605.1.15",Macintosh,Safari,18.0.1,OS X,10_15_7,https://5puzkbbxv1.cognition.run/?sona_id=53544,"en-US,en;q=0.9",3yqplehfvwclrx7,21,"[""White""]",No,Female,NA,No,338956,NA,null,<p></p>,null,choice,bw,binary,catch,null,laptops,65,90,45,5,null,null,2,NA,NA,NA,NA,NA,NA,NA,NA,NA,NA
NA,NA,NA,NA,NA,choice_trial,survey-html-form,83,272138,0.0-4.0-1.39,94,1,2025-04-29T18:47:30Z,b60275e29fe2361ab97ac0ac217840d7,"Mozilla/5.0 (Macintosh; Intel Mac OS X 10_15_7) AppleWebKit/605.1.15 (KHTML, like Gecko) Version/18.0.1 Safari/605.1.15",Macintosh,Safari,18.0.1,OS X,10_15_7,https://5puzkbbxv1.cognition.run/?sona_id=53544,"en-US,en;q=0.9",3yqplehfvwclrx7,21,"[""White""]",No,Female,NA,No,338956,NA,1764,NA,"{""product_choice"":""A""}",choice,bw,binary,catch,null,laptops,65,90,45,5,null,null,2,null,null,null,null,null,null,Processing speed,Memory (RAM),NA,NA
NA,NA,NA,NA,NA,choice_trial_setup,html-keyboard-response,84,272442,0.0-4.0-0.40,94,1,2025-04-29T18:47:30Z,b60275e29fe2361ab97ac0ac217840d7,"Mozilla/5.0 (Macintosh; Intel Mac OS X 10_15_7) AppleWebKit/605.1.15 (KHTML, like Gecko) Version/18.0.1 Safari/605.1.15",Macintosh,Safari,18.0.1,OS X,10_15_7,https://5puzkbbxv1.cognition.run/?sona_id=53544,"en-US,en;q=0.9",3yqplehfvwclrx7,21,"[""White""]",No,Female,NA,No,338956,NA,null,<p></p>,null,choice,cdt,trinary,repulsion_B,2,televisions,null,null,null,null,null,null,1,NA,NA,NA,NA,NA,NA,NA,NA,NA,NA
NA,NA,NA,NA,NA,choice_trial,survey-html-form,85,275439,0.0-4.0-1.40,94,1,2025-04-29T18:47:30Z,b60275e29fe2361ab97ac0ac217840d7,"Mozilla/5.0 (Macintosh; Intel Mac OS X 10_15_7) AppleWebKit/605.1.15 (KHTML, like Gecko) Version/18.0.1 Safari/605.1.15",Macintosh,Safari,18.0.1,OS X,10_15_7,https://5puzkbbxv1.cognition.run/?sona_id=53544,"en-US,en;q=0.9",3yqplehfvwclrx7,21,"[""White""]",No,Female,NA,No,338956,NA,2991,NA,"{""product_choice"":""C""}",choice,cdt,trinary,repulsion_B,2,televisions,null,null,null,null,null,null,1,40,30,40,90,100,80,Screen size,Average lifespan,NA,NA
NA,NA,NA,NA,NA,choice_trial_setup,html-keyboard-response,86,275743,0.0-4.0-0.41,94,1,2025-04-29T18:47:30Z,b60275e29fe2361ab97ac0ac217840d7,"Mozilla/5.0 (Macintosh; Intel Mac OS X 10_15_7) AppleWebKit/605.1.15 (KHTML, like Gecko) Version/18.0.1 Safari/605.1.15",Macintosh,Safari,18.0.1,OS X,10_15_7,https://5puzkbbxv1.cognition.run/?sona_id=53544,"en-US,en;q=0.9",3yqplehfvwclrx7,21,"[""White""]",No,Female,NA,No,338956,NA,null,<p></p>,null,choice,ct,binary,attraction,NA,washing machines,null,null,null,null,null,null,1,NA,NA,NA,NA,NA,NA,NA,NA,NA,NA
NA,NA,NA,NA,NA,choice_trial,survey-html-form,87,280522,0.0-4.0-1.41,94,1,2025-04-29T18:47:30Z,b60275e29fe2361ab97ac0ac217840d7,"Mozilla/5.0 (Macintosh; Intel Mac OS X 10_15_7) AppleWebKit/605.1.15 (KHTML, like Gecko) Version/18.0.1 Safari/605.1.15",Macintosh,Safari,18.0.1,OS X,10_15_7,https://5puzkbbxv1.cognition.run/?sona_id=53544,"en-US,en;q=0.9",3yqplehfvwclrx7,21,"[""White""]",No,Female,NA,No,338956,NA,4774,NA,"{""product_choice"":""A""}",choice,ct,binary,attraction,NA,washing machines,null,null,null,null,null,null,1,60,50,null,50,60,null,Average lifespan,Energy savings,NA,NA
NA,NA,NA,NA,NA,choice_trial_setup,html-keyboard-response,88,280826,0.0-4.0-0.42,94,1,2025-04-29T18:47:30Z,b60275e29fe2361ab97ac0ac217840d7,"Mozilla/5.0 (Macintosh; Intel Mac OS X 10_15_7) AppleWebKit/605.1.15 (KHTML, like Gecko) Version/18.0.1 Safari/605.1.15",Macintosh,Safari,18.0.1,OS X,10_15_7,https://5puzkbbxv1.cognition.run/?sona_id=53544,"en-US,en;q=0.9",3yqplehfvwclrx7,21,"[""White""]",No,Female,NA,No,338956,NA,null,<p></p>,null,choice,ct,binary,repulsion,2,washing machines,null,null,null,null,null,null,1,NA,NA,NA,NA,NA,NA,NA,NA,NA,NA
NA,NA,NA,NA,NA,choice_trial,survey-html-form,89,283304,0.0-4.0-1.42,94,1,2025-04-29T18:47:30Z,b60275e29fe2361ab97ac0ac217840d7,"Mozilla/5.0 (Macintosh; Intel Mac OS X 10_15_7) AppleWebKit/605.1.15 (KHTML, like Gecko) Version/18.0.1 Safari/605.1.15",Macintosh,Safari,18.0.1,OS X,10_15_7,https://5puzkbbxv1.cognition.run/?sona_id=53544,"en-US,en;q=0.9",3yqplehfvwclrx7,21,"[""White""]",No,Female,NA,No,338956,NA,2473,NA,"{""product_choice"":""A""}",choice,ct,binary,repulsion,2,washing machines,null,null,null,null,null,null,1,30,40,null,100,90,null,Average lifespan,Energy savings,NA,NA
NA,NA,NA,NA,NA,choice_trial_setup,html-keyboard-response,90,283608,0.0-4.0-0.43,94,1,2025-04-29T18:47:30Z,b60275e29fe2361ab97ac0ac217840d7,"Mozilla/5.0 (Macintosh; Intel Mac OS X 10_15_7) AppleWebKit/605.1.15 (KHTML, like Gecko) Version/18.0.1 Safari/605.1.15",Macintosh,Safari,18.0.1,OS X,10_15_7,https://5puzkbbxv1.cognition.run/?sona_id=53544,"en-US,en;q=0.9",3yqplehfvwclrx7,21,"[""White""]",No,Female,NA,No,338956,NA,null,<p></p>,null,choice,tdc,trinary,repulsion_B,2,washing machines,null,null,null,null,null,null,1,NA,NA,NA,NA,NA,NA,NA,NA,NA,NA
NA,NA,NA,NA,NA,choice_trial,survey-html-form,91,286948,0.0-4.0-1.43,94,1,2025-04-29T18:47:30Z,b60275e29fe2361ab97ac0ac217840d7,"Mozilla/5.0 (Macintosh; Intel Mac OS X 10_15_7) AppleWebKit/605.1.15 (KHTML, like Gecko) Version/18.0.1 Safari/605.1.15",Macintosh,Safari,18.0.1,OS X,10_15_7,https://5puzkbbxv1.cognition.run/?sona_id=53544,"en-US,en;q=0.9",3yqplehfvwclrx7,21,"[""White""]",No,Female,NA,No,338956,NA,3336,NA,"{""product_choice"":""A""}",choice,tdc,trinary,repulsion_B,2,washing machines,null,null,null,null,null,null,1,40,30,40,90,100,80,Average lifespan,Energy savings,NA,NA
NA,NA,NA,NA,NA,post_trials_message,html-button-response,92,288505,0.0-5.0,94,1,2025-04-29T18:47:30Z,b60275e29fe2361ab97ac0ac217840d7,"Mozilla/5.0 (Macintosh; Intel Mac OS X 10_15_7) AppleWebKit/605.1.15 (KHTML, like Gecko) Version/18.0.1 Safari/605.1.15",Macintosh,Safari,18.0.1,OS X,10_15_7,https://5puzkbbxv1.cognition.run/?sona_id=53544,"en-US,en;q=0.9",3yqplehfvwclrx7,21,"[""White""]",No,Female,NA,No,338956,NA,1551,<p> <b>Thank you for your patience!</b></p><p>  The study will be done after completing a brief form. </p>,0,NA,NA,NA,NA,NA,NA,NA,NA,NA,NA,NA,NA,NA,NA,NA,NA,NA,NA,NA,NA,NA,NA,NA
NA,NA,NA,NA,NA,survey_message,survey-text,93,301332,0.0-6.0,94,1,2025-04-29T18:47:30Z,b60275e29fe2361ab97ac0ac217840d7,"Mozilla/5.0 (Macintosh; Intel Mac OS X 10_15_7) AppleWebKit/605.1.15 (KHTML, like Gecko) Version/18.0.1 Safari/605.1.15",Macintosh,Safari,18.0.1,OS X,10_15_7,https://5puzkbbxv1.cognition.run/?sona_id=53544,"en-US,en;q=0.9",3yqplehfvwclrx7,21,"[""White""]",No,Female,NA,No,338956,NA,12812,NA,"{""Q0"":""I chose the products with the best overall ratings""}",NA,NA,NA,NA,NA,NA,NA,NA,NA,NA,NA,NA,NA,NA,NA,NA,NA,NA,NA,NA,NA,I chose the products with the best overall ratings,NA
NA,NA,NA,NA,NA,demo_age,survey-text,94,302974,0.0-7.0,94,1,2025-04-29T18:47:30Z,b60275e29fe2361ab97ac0ac217840d7,"Mozilla/5.0 (Macintosh; Intel Mac OS X 10_15_7) AppleWebKit/605.1.15 (KHTML, like Gecko) Version/18.0.1 Safari/605.1.15",Macintosh,Safari,18.0.1,OS X,10_15_7,https://5puzkbbxv1.cognition.run/?sona_id=53544,"en-US,en;q=0.9",3yqplehfvwclrx7,21,"[""White""]",No,Female,NA,No,338956,NA,1633,NA,"{""Q0"":""21""}",NA,NA,NA,NA,NA,NA,NA,NA,NA,NA,NA,NA,NA,NA,NA,NA,NA,NA,NA,NA,NA,NA,NA
NA,NA,NA,NA,NA,demo_race,survey-multi-select,95,305522,0.0-8.0,94,1,2025-04-29T18:47:30Z,b60275e29fe2361ab97ac0ac217840d7,"Mozilla/5.0 (Macintosh; Intel Mac OS X 10_15_7) AppleWebKit/605.1.15 (KHTML, like Gecko) Version/18.0.1 Safari/605.1.15",Macintosh,Safari,18.0.1,OS X,10_15_7,https://5puzkbbxv1.cognition.run/?sona_id=53544,"en-US,en;q=0.9",3yqplehfvwclrx7,21,"[""White""]",No,Female,NA,No,338956,NA,2542,NA,"{""Q0"":[""White""]}",NA,NA,NA,NA,NA,NA,NA,NA,NA,NA,NA,NA,NA,NA,NA,NA,NA,NA,NA,NA,NA,NA,[0]
NA,NA,NA,NA,NA,demo_ethnicity_gender,survey-multi-choice,96,308341,0.0-9.0,94,1,2025-04-29T18:47:30Z,b60275e29fe2361ab97ac0ac217840d7,"Mozilla/5.0 (Macintosh; Intel Mac OS X 10_15_7) AppleWebKit/605.1.15 (KHTML, like Gecko) Version/18.0.1 Safari/605.1.15",Macintosh,Safari,18.0.1,OS X,10_15_7,https://5puzkbbxv1.cognition.run/?sona_id=53544,"en-US,en;q=0.9",3yqplehfvwclrx7,21,"[""White""]",No,Female,NA,No,338956,NA,2813,NA,"{""Q0"":""No"",""Q1"":""Female""}",NA,NA,NA,NA,NA,NA,NA,NA,NA,NA,NA,NA,NA,NA,NA,NA,NA,NA,NA,NA,NA,NA,"[0,1]"
NA,NA,NA,NA,NA,demo_countries,survey-text,97,313340,0.0-10.0,94,1,2025-04-29T18:47:30Z,b60275e29fe2361ab97ac0ac217840d7,"Mozilla/5.0 (Macintosh; Intel Mac OS X 10_15_7) AppleWebKit/605.1.15 (KHTML, like Gecko) Version/18.0.1 Safari/605.1.15",Macintosh,Safari,18.0.1,OS X,10_15_7,https://5puzkbbxv1.cognition.run/?sona_id=53544,"en-US,en;q=0.9",3yqplehfvwclrx7,21,"[""White""]",No,Female,NA,No,338956,NA,4990,NA,"{""Q0"":""NA""}",NA,NA,NA,NA,NA,NA,NA,NA,NA,NA,NA,NA,NA,NA,NA,NA,NA,NA,NA,NA,NA,NA,NA
NA,NA,NA,NA,NA,demo_prev_study,survey-multi-choice,98,317836,0.0-11.0,94,1,2025-04-29T18:47:30Z,b60275e29fe2361ab97ac0ac217840d7,"Mozilla/5.0 (Macintosh; Intel Mac OS X 10_15_7) AppleWebKit/605.1.15 (KHTML, like Gecko) Version/18.0.1 Safari/605.1.15",Macintosh,Safari,18.0.1,OS X,10_15_7,https://5puzkbbxv1.cognition.run/?sona_id=53544,"en-US,en;q=0.9",3yqplehfvwclrx7,21,"[""White""]",No,Female,NA,No,338956,NA,4493,NA,"{""Q0"":""No""}",NA,NA,NA,NA,NA,NA,NA,NA,NA,NA,NA,NA,NA,NA,NA,NA,NA,NA,NA,NA,NA,NA,[0]
NA,NA,NA,NA,NA,post_survey_message,html-keyboard-response,99,322103,0.0-12.0,94,1,2025-04-29T18:47:30Z,b60275e29fe2361ab97ac0ac217840d7,"Mozilla/5.0 (Macintosh; Intel Mac OS X 10_15_7) AppleWebKit/605.1.15 (KHTML, like Gecko) Version/18.0.1 Safari/605.1.15",Macintosh,Safari,18.0.1,OS X,10_15_7,https://5puzkbbxv1.cognition.run/?sona_id=53544,"en-US,en;q=0.9",3yqplehfvwclrx7,21,"[""White""]",No,Female,NA,No,338956,NA,4262,NA,j,NA,NA,NA,NA,NA,NA,NA,NA,NA,NA,NA,NA,NA,NA,NA,NA,NA,NA,NA,NA,NA,NA,NA
NA,NA,NA,NA,NA,debrief,image-keyboard-response,100,338957,0.0-13.0,94,1,2025-04-29T18:47:30Z,b60275e29fe2361ab97ac0ac217840d7,"Mozilla/5.0 (Macintosh; Intel Mac OS X 10_15_7) AppleWebKit/605.1.15 (KHTML, like Gecko) Version/18.0.1 Safari/605.1.15",Macintosh,Safari,18.0.1,OS X,10_15_7,https://5puzkbbxv1.cognition.run/?sona_id=53544,"en-US,en;q=0.9",3yqplehfvwclrx7,21,"[""White""]",No,Female,NA,No,338956,NA,16829,Judg_choice_debrief.png,p,NA,NA,NA,NA,NA,NA,NA,NA,NA,NA,NA,NA,NA,NA,NA,NA,NA,NA,NA,NA,NA,NA,NA
