success,timeout,failed_images,failed_audio,failed_video,screen_id,trial_type,trial_index,time_elapsed,internal_node_id,run_id,condition,recorded_at,source_code_version,user_agent,device,browser,browser_version,platform,platform_version,referer,accept_language,ppt_id,age,race,ethnicity,gender,other_countries,prev_study,exp_duration,view_history,rt,stimulus,response,phase,order,set,effect,t_high,category,d1_best,d2_best,d1_worst1,d2_worst1,d1_worst2,d2_worst2,first_dim,d1_t,d1_c,d1_d,d2_t,d2_c,d2_d,d1_name,d2_name,strategy_response,question_order
TRUE,FALSE,[],[],[],img preload,preload,0,319,0.0-0.0,95,1,2025-04-29T18:48:30Z,b60275e29fe2361ab97ac0ac217840d7,"Mozilla/5.0 (Macintosh; Intel Mac OS X 10_15_7) AppleWebKit/605.1.15 (KHTML, like Gecko) Version/18.3.1 Safari/605.1.15",Macintosh,Safari,18.3.1,OS X,10_15_7,https://5puzkbbxv1.cognition.run/?sona_id=52246,"en-US,en;q=0.9",4s838lcm79l6sr6,19,"[""Asian""]",No,Female,NA,No,1008897,NA,NA,NA,NA,NA,NA,NA,NA,NA,NA,NA,NA,NA,NA,NA,NA,NA,NA,NA,NA,NA,NA,NA,NA,NA,NA,NA
NA,NA,NA,NA,NA,computer_message,instructions,1,2567,0.0-1.0,95,1,2025-04-29T18:48:30Z,b60275e29fe2361ab97ac0ac217840d7,"Mozilla/5.0 (Macintosh; Intel Mac OS X 10_15_7) AppleWebKit/605.1.15 (KHTML, like Gecko) Version/18.3.1 Safari/605.1.15",Macintosh,Safari,18.3.1,OS X,10_15_7,https://5puzkbbxv1.cognition.run/?sona_id=52246,"en-US,en;q=0.9",4s838lcm79l6sr6,19,"[""Asian""]",No,Female,NA,No,1008897,"[{""page_index"":0,""viewing_time"":2246}]",2246,NA,NA,NA,NA,NA,NA,NA,NA,NA,NA,NA,NA,NA,NA,NA,NA,NA,NA,NA,NA,NA,NA,NA,NA,NA
TRUE,NA,NA,NA,NA,NA,fullscreen,2,5040,0.0-2.0,95,1,2025-04-29T18:48:30Z,b60275e29fe2361ab97ac0ac217840d7,"Mozilla/5.0 (Macintosh; Intel Mac OS X 10_15_7) AppleWebKit/605.1.15 (KHTML, like Gecko) Version/18.3.1 Safari/605.1.15",Macintosh,Safari,18.3.1,OS X,10_15_7,https://5puzkbbxv1.cognition.run/?sona_id=52246,"en-US,en;q=0.9",4s838lcm79l6sr6,19,"[""Asian""]",No,Female,NA,No,1008897,NA,1467,NA,NA,NA,NA,NA,NA,NA,NA,NA,NA,NA,NA,NA,NA,NA,NA,NA,NA,NA,NA,NA,NA,NA,NA,NA
NA,NA,NA,NA,NA,choice_instructions,instructions,3,75235,0.0-3.0,95,1,2025-04-29T18:48:30Z,b60275e29fe2361ab97ac0ac217840d7,"Mozilla/5.0 (Macintosh; Intel Mac OS X 10_15_7) AppleWebKit/605.1.15 (KHTML, like Gecko) Version/18.3.1 Safari/605.1.15",Macintosh,Safari,18.3.1,OS X,10_15_7,https://5puzkbbxv1.cognition.run/?sona_id=52246,"en-US,en;q=0.9",4s838lcm79l6sr6,19,"[""Asian""]",No,Female,NA,No,1008897,"[{""page_index"":0,""viewing_time"":923},{""page_index"":1,""viewing_time"":8683},{""page_index"":2,""viewing_time"":6201},{""page_index"":3,""viewing_time"":10785},{""page_index"":4,""viewing_time"":3983},{""page_index"":5,""viewing_time"":29099},{""page_index"":6,""viewing_time"":10518}]",70192,NA,NA,NA,NA,NA,NA,NA,NA,NA,NA,NA,NA,NA,NA,NA,NA,NA,NA,NA,NA,NA,NA,NA,NA,NA
NA,NA,NA,NA,NA,choice_trial_setup,html-keyboard-response,4,75541,0.0-4.0-0.0,95,1,2025-04-29T18:48:30Z,b60275e29fe2361ab97ac0ac217840d7,"Mozilla/5.0 (Macintosh; Intel Mac OS X 10_15_7) AppleWebKit/605.1.15 (KHTML, like Gecko) Version/18.3.1 Safari/605.1.15",Macintosh,Safari,18.3.1,OS X,10_15_7,https://5puzkbbxv1.cognition.run/?sona_id=52246,"en-US,en;q=0.9",4s838lcm79l6sr6,19,"[""Asian""]",No,Female,NA,No,1008897,NA,null,<p></p>,null,choice,wb,binary,catch,null,laptops,80,70,10,40,null,null,2,NA,NA,NA,NA,NA,NA,NA,NA,NA,NA
NA,NA,NA,NA,NA,choice_trial,survey-html-form,5,83685,0.0-4.0-1.0,95,1,2025-04-29T18:48:30Z,b60275e29fe2361ab97ac0ac217840d7,"Mozilla/5.0 (Macintosh; Intel Mac OS X 10_15_7) AppleWebKit/605.1.15 (KHTML, like Gecko) Version/18.3.1 Safari/605.1.15",Macintosh,Safari,18.3.1,OS X,10_15_7,https://5puzkbbxv1.cognition.run/?sona_id=52246,"en-US,en;q=0.9",4s838lcm79l6sr6,19,"[""Asian""]",No,Female,NA,No,1008897,NA,8139,NA,"{""product_choice"":""B""}",choice,wb,binary,catch,null,laptops,80,70,10,40,null,null,2,null,null,null,null,null,null,Processing speed,Memory (RAM),NA,NA
NA,NA,NA,NA,NA,choice_trial_setup,html-keyboard-response,6,83987,0.0-4.0-0.1,95,1,2025-04-29T18:48:30Z,b60275e29fe2361ab97ac0ac217840d7,"Mozilla/5.0 (Macintosh; Intel Mac OS X 10_15_7) AppleWebKit/605.1.15 (KHTML, like Gecko) Version/18.3.1 Safari/605.1.15",Macintosh,Safari,18.3.1,OS X,10_15_7,https://5puzkbbxv1.cognition.run/?sona_id=52246,"en-US,en;q=0.9",4s838lcm79l6sr6,19,"[""Asian""]",No,Female,NA,No,1008897,NA,null,<p></p>,null,choice,tcd,trinary,attraction,1,laptops,null,null,null,null,null,null,1,NA,NA,NA,NA,NA,NA,NA,NA,NA,NA
NA,NA,NA,NA,NA,choice_trial,survey-html-form,7,90785,0.0-4.0-1.1,95,1,2025-04-29T18:48:30Z,b60275e29fe2361ab97ac0ac217840d7,"Mozilla/5.0 (Macintosh; Intel Mac OS X 10_15_7) AppleWebKit/605.1.15 (KHTML, like Gecko) Version/18.3.1 Safari/605.1.15",Macintosh,Safari,18.3.1,OS X,10_15_7,https://5puzkbbxv1.cognition.run/?sona_id=52246,"en-US,en;q=0.9",4s838lcm79l6sr6,19,"[""Asian""]",No,Female,NA,No,1008897,NA,6794,NA,"{""product_choice"":""A""}",choice,tcd,trinary,attraction,1,laptops,null,null,null,null,null,null,1,60,50,60,50,60,40,Processing speed,Memory (RAM),NA,NA
NA,NA,NA,NA,NA,choice_trial_setup,html-keyboard-response,8,91087,0.0-4.0-0.2,95,1,2025-04-29T18:48:30Z,b60275e29fe2361ab97ac0ac217840d7,"Mozilla/5.0 (Macintosh; Intel Mac OS X 10_15_7) AppleWebKit/605.1.15 (KHTML, like Gecko) Version/18.3.1 Safari/605.1.15",Macintosh,Safari,18.3.1,OS X,10_15_7,https://5puzkbbxv1.cognition.run/?sona_id=52246,"en-US,en;q=0.9",4s838lcm79l6sr6,19,"[""Asian""]",No,Female,NA,No,1008897,NA,null,<p></p>,null,choice,tc,binary,attraction,NA,laptops,null,null,null,null,null,null,1,NA,NA,NA,NA,NA,NA,NA,NA,NA,NA
NA,NA,NA,NA,NA,choice_trial,survey-html-form,9,110001,0.0-4.0-1.2,95,1,2025-04-29T18:48:30Z,b60275e29fe2361ab97ac0ac217840d7,"Mozilla/5.0 (Macintosh; Intel Mac OS X 10_15_7) AppleWebKit/605.1.15 (KHTML, like Gecko) Version/18.3.1 Safari/605.1.15",Macintosh,Safari,18.3.1,OS X,10_15_7,https://5puzkbbxv1.cognition.run/?sona_id=52246,"en-US,en;q=0.9",4s838lcm79l6sr6,19,"[""Asian""]",No,Female,NA,No,1008897,NA,18912,NA,"{""product_choice"":""A""}",choice,tc,binary,attraction,NA,laptops,null,null,null,null,null,null,1,60,50,null,50,60,null,Processing speed,Memory (RAM),NA,NA
NA,NA,NA,NA,NA,choice_trial_setup,html-keyboard-response,10,110304,0.0-4.0-0.3,95,1,2025-04-29T18:48:30Z,b60275e29fe2361ab97ac0ac217840d7,"Mozilla/5.0 (Macintosh; Intel Mac OS X 10_15_7) AppleWebKit/605.1.15 (KHTML, like Gecko) Version/18.3.1 Safari/605.1.15",Macintosh,Safari,18.3.1,OS X,10_15_7,https://5puzkbbxv1.cognition.run/?sona_id=52246,"en-US,en;q=0.9",4s838lcm79l6sr6,19,"[""Asian""]",No,Female,NA,No,1008897,NA,null,<p></p>,null,choice,cdt,trinary,repulsion_A,2,washing machines,null,null,null,null,null,null,2,NA,NA,NA,NA,NA,NA,NA,NA,NA,NA
NA,NA,NA,NA,NA,choice_trial,survey-html-form,11,144218,0.0-4.0-1.3,95,1,2025-04-29T18:48:30Z,b60275e29fe2361ab97ac0ac217840d7,"Mozilla/5.0 (Macintosh; Intel Mac OS X 10_15_7) AppleWebKit/605.1.15 (KHTML, like Gecko) Version/18.3.1 Safari/605.1.15",Macintosh,Safari,18.3.1,OS X,10_15_7,https://5puzkbbxv1.cognition.run/?sona_id=52246,"en-US,en;q=0.9",4s838lcm79l6sr6,19,"[""Asian""]",No,Female,NA,No,1008897,NA,33911,NA,"{""product_choice"":""C""}",choice,cdt,trinary,repulsion_A,2,washing machines,null,null,null,null,null,null,2,30,40,20,100,90,100,Average lifespan,Energy savings,NA,NA
NA,NA,NA,NA,NA,choice_trial_setup,html-keyboard-response,12,144521,0.0-4.0-0.4,95,1,2025-04-29T18:48:30Z,b60275e29fe2361ab97ac0ac217840d7,"Mozilla/5.0 (Macintosh; Intel Mac OS X 10_15_7) AppleWebKit/605.1.15 (KHTML, like Gecko) Version/18.3.1 Safari/605.1.15",Macintosh,Safari,18.3.1,OS X,10_15_7,https://5puzkbbxv1.cognition.run/?sona_id=52246,"en-US,en;q=0.9",4s838lcm79l6sr6,19,"[""Asian""]",No,Female,NA,No,1008897,NA,null,<p></p>,null,choice,tcd,trinary,attraction,1,microwave ovens,null,null,null,null,null,null,1,NA,NA,NA,NA,NA,NA,NA,NA,NA,NA
NA,NA,NA,NA,NA,choice_trial,survey-html-form,13,167485,0.0-4.0-1.4,95,1,2025-04-29T18:48:30Z,b60275e29fe2361ab97ac0ac217840d7,"Mozilla/5.0 (Macintosh; Intel Mac OS X 10_15_7) AppleWebKit/605.1.15 (KHTML, like Gecko) Version/18.3.1 Safari/605.1.15",Macintosh,Safari,18.3.1,OS X,10_15_7,https://5puzkbbxv1.cognition.run/?sona_id=52246,"en-US,en;q=0.9",4s838lcm79l6sr6,19,"[""Asian""]",No,Female,NA,No,1008897,NA,22959,NA,"{""product_choice"":""A""}",choice,tcd,trinary,attraction,1,microwave ovens,null,null,null,null,null,null,1,60,50,60,50,60,40,Warranty,Cooking power,NA,NA
NA,NA,NA,NA,NA,choice_trial_setup,html-keyboard-response,14,167787,0.0-4.0-0.5,95,1,2025-04-29T18:48:30Z,b60275e29fe2361ab97ac0ac217840d7,"Mozilla/5.0 (Macintosh; Intel Mac OS X 10_15_7) AppleWebKit/605.1.15 (KHTML, like Gecko) Version/18.3.1 Safari/605.1.15",Macintosh,Safari,18.3.1,OS X,10_15_7,https://5puzkbbxv1.cognition.run/?sona_id=52246,"en-US,en;q=0.9",4s838lcm79l6sr6,19,"[""Asian""]",No,Female,NA,No,1008897,NA,null,<p></p>,null,choice,dtc,trinary,repulsion_B,2,microwave ovens,null,null,null,null,null,null,2,NA,NA,NA,NA,NA,NA,NA,NA,NA,NA
NA,NA,NA,NA,NA,choice_trial,survey-html-form,15,181835,0.0-4.0-1.5,95,1,2025-04-29T18:48:30Z,b60275e29fe2361ab97ac0ac217840d7,"Mozilla/5.0 (Macintosh; Intel Mac OS X 10_15_7) AppleWebKit/605.1.15 (KHTML, like Gecko) Version/18.3.1 Safari/605.1.15",Macintosh,Safari,18.3.1,OS X,10_15_7,https://5puzkbbxv1.cognition.run/?sona_id=52246,"en-US,en;q=0.9",4s838lcm79l6sr6,19,"[""Asian""]",No,Female,NA,No,1008897,NA,14044,NA,"{""product_choice"":""B""}",choice,dtc,trinary,repulsion_B,2,microwave ovens,null,null,null,null,null,null,2,40,30,40,90,100,80,Warranty,Cooking power,NA,NA
NA,NA,NA,NA,NA,choice_trial_setup,html-keyboard-response,16,182138,0.0-4.0-0.6,95,1,2025-04-29T18:48:30Z,b60275e29fe2361ab97ac0ac217840d7,"Mozilla/5.0 (Macintosh; Intel Mac OS X 10_15_7) AppleWebKit/605.1.15 (KHTML, like Gecko) Version/18.3.1 Safari/605.1.15",Macintosh,Safari,18.3.1,OS X,10_15_7,https://5puzkbbxv1.cognition.run/?sona_id=52246,"en-US,en;q=0.9",4s838lcm79l6sr6,19,"[""Asian""]",No,Female,NA,No,1008897,NA,null,<p></p>,null,choice,ctd,trinary,attraction,2,microwave ovens,null,null,null,null,null,null,2,NA,NA,NA,NA,NA,NA,NA,NA,NA,NA
NA,NA,NA,NA,NA,choice_trial,survey-html-form,17,203218,0.0-4.0-1.6,95,1,2025-04-29T18:48:30Z,b60275e29fe2361ab97ac0ac217840d7,"Mozilla/5.0 (Macintosh; Intel Mac OS X 10_15_7) AppleWebKit/605.1.15 (KHTML, like Gecko) Version/18.3.1 Safari/605.1.15",Macintosh,Safari,18.3.1,OS X,10_15_7,https://5puzkbbxv1.cognition.run/?sona_id=52246,"en-US,en;q=0.9",4s838lcm79l6sr6,19,"[""Asian""]",No,Female,NA,No,1008897,NA,21077,NA,"{""product_choice"":""B""}",choice,ctd,trinary,attraction,2,microwave ovens,null,null,null,null,null,null,2,50,60,40,60,50,60,Warranty,Cooking power,NA,NA
NA,NA,NA,NA,NA,choice_trial_setup,html-keyboard-response,18,203522,0.0-4.0-0.7,95,1,2025-04-29T18:48:30Z,b60275e29fe2361ab97ac0ac217840d7,"Mozilla/5.0 (Macintosh; Intel Mac OS X 10_15_7) AppleWebKit/605.1.15 (KHTML, like Gecko) Version/18.3.1 Safari/605.1.15",Macintosh,Safari,18.3.1,OS X,10_15_7,https://5puzkbbxv1.cognition.run/?sona_id=52246,"en-US,en;q=0.9",4s838lcm79l6sr6,19,"[""Asian""]",No,Female,NA,No,1008897,NA,null,<p></p>,null,choice,wb,binary,catch,null,washing machines,85,85,40,5,null,null,1,NA,NA,NA,NA,NA,NA,NA,NA,NA,NA
NA,NA,NA,NA,NA,choice_trial,survey-html-form,19,211666,0.0-4.0-1.7,95,1,2025-04-29T18:48:30Z,b60275e29fe2361ab97ac0ac217840d7,"Mozilla/5.0 (Macintosh; Intel Mac OS X 10_15_7) AppleWebKit/605.1.15 (KHTML, like Gecko) Version/18.3.1 Safari/605.1.15",Macintosh,Safari,18.3.1,OS X,10_15_7,https://5puzkbbxv1.cognition.run/?sona_id=52246,"en-US,en;q=0.9",4s838lcm79l6sr6,19,"[""Asian""]",No,Female,NA,No,1008897,NA,8140,NA,"{""product_choice"":""B""}",choice,wb,binary,catch,null,washing machines,85,85,40,5,null,null,1,null,null,null,null,null,null,Average lifespan,Energy savings,NA,NA
NA,NA,NA,NA,NA,choice_trial_setup,html-keyboard-response,20,211968,0.0-4.0-0.8,95,1,2025-04-29T18:48:30Z,b60275e29fe2361ab97ac0ac217840d7,"Mozilla/5.0 (Macintosh; Intel Mac OS X 10_15_7) AppleWebKit/605.1.15 (KHTML, like Gecko) Version/18.3.1 Safari/605.1.15",Macintosh,Safari,18.3.1,OS X,10_15_7,https://5puzkbbxv1.cognition.run/?sona_id=52246,"en-US,en;q=0.9",4s838lcm79l6sr6,19,"[""Asian""]",No,Female,NA,No,1008897,NA,null,<p></p>,null,choice,tc,binary,repulsion,1,washing machines,null,null,null,null,null,null,1,NA,NA,NA,NA,NA,NA,NA,NA,NA,NA
NA,NA,NA,NA,NA,choice_trial,survey-html-form,21,225386,0.0-4.0-1.8,95,1,2025-04-29T18:48:30Z,b60275e29fe2361ab97ac0ac217840d7,"Mozilla/5.0 (Macintosh; Intel Mac OS X 10_15_7) AppleWebKit/605.1.15 (KHTML, like Gecko) Version/18.3.1 Safari/605.1.15",Macintosh,Safari,18.3.1,OS X,10_15_7,https://5puzkbbxv1.cognition.run/?sona_id=52246,"en-US,en;q=0.9",4s838lcm79l6sr6,19,"[""Asian""]",No,Female,NA,No,1008897,NA,13415,NA,"{""product_choice"":""B""}",choice,tc,binary,repulsion,1,washing machines,null,null,null,null,null,null,1,100,90,null,30,40,null,Average lifespan,Energy savings,NA,NA
NA,NA,NA,NA,NA,choice_trial_setup,html-keyboard-response,22,225690,0.0-4.0-0.9,95,1,2025-04-29T18:48:30Z,b60275e29fe2361ab97ac0ac217840d7,"Mozilla/5.0 (Macintosh; Intel Mac OS X 10_15_7) AppleWebKit/605.1.15 (KHTML, like Gecko) Version/18.3.1 Safari/605.1.15",Macintosh,Safari,18.3.1,OS X,10_15_7,https://5puzkbbxv1.cognition.run/?sona_id=52246,"en-US,en;q=0.9",4s838lcm79l6sr6,19,"[""Asian""]",No,Female,NA,No,1008897,NA,null,<p></p>,null,choice,wb,binary,catch,null,microwave ovens,60,75,45,20,null,null,1,NA,NA,NA,NA,NA,NA,NA,NA,NA,NA
NA,NA,NA,NA,NA,choice_trial,survey-html-form,23,254635,0.0-4.0-1.9,95,1,2025-04-29T18:48:30Z,b60275e29fe2361ab97ac0ac217840d7,"Mozilla/5.0 (Macintosh; Intel Mac OS X 10_15_7) AppleWebKit/605.1.15 (KHTML, like Gecko) Version/18.3.1 Safari/605.1.15",Macintosh,Safari,18.3.1,OS X,10_15_7,https://5puzkbbxv1.cognition.run/?sona_id=52246,"en-US,en;q=0.9",4s838lcm79l6sr6,19,"[""Asian""]",No,Female,NA,No,1008897,NA,28942,NA,"{""product_choice"":""B""}",choice,wb,binary,catch,null,microwave ovens,60,75,45,20,null,null,1,null,null,null,null,null,null,Warranty,Cooking power,NA,NA
NA,NA,NA,NA,NA,choice_trial_setup,html-keyboard-response,24,254939,0.0-4.0-0.10,95,1,2025-04-29T18:48:30Z,b60275e29fe2361ab97ac0ac217840d7,"Mozilla/5.0 (Macintosh; Intel Mac OS X 10_15_7) AppleWebKit/605.1.15 (KHTML, like Gecko) Version/18.3.1 Safari/605.1.15",Macintosh,Safari,18.3.1,OS X,10_15_7,https://5puzkbbxv1.cognition.run/?sona_id=52246,"en-US,en;q=0.9",4s838lcm79l6sr6,19,"[""Asian""]",No,Female,NA,No,1008897,NA,null,<p></p>,null,choice,bww,trinary,catch,null,washing machines,55,55,5,25,30,25,1,NA,NA,NA,NA,NA,NA,NA,NA,NA,NA
NA,NA,NA,NA,NA,choice_trial,survey-html-form,25,265254,0.0-4.0-1.10,95,1,2025-04-29T18:48:30Z,b60275e29fe2361ab97ac0ac217840d7,"Mozilla/5.0 (Macintosh; Intel Mac OS X 10_15_7) AppleWebKit/605.1.15 (KHTML, like Gecko) Version/18.3.1 Safari/605.1.15",Macintosh,Safari,18.3.1,OS X,10_15_7,https://5puzkbbxv1.cognition.run/?sona_id=52246,"en-US,en;q=0.9",4s838lcm79l6sr6,19,"[""Asian""]",No,Female,NA,No,1008897,NA,10310,NA,"{""product_choice"":""A""}",choice,bww,trinary,catch,null,washing machines,55,55,5,25,30,25,1,null,null,null,null,null,null,Average lifespan,Energy savings,NA,NA
NA,NA,NA,NA,NA,choice_trial_setup,html-keyboard-response,26,265558,0.0-4.0-0.11,95,1,2025-04-29T18:48:30Z,b60275e29fe2361ab97ac0ac217840d7,"Mozilla/5.0 (Macintosh; Intel Mac OS X 10_15_7) AppleWebKit/605.1.15 (KHTML, like Gecko) Version/18.3.1 Safari/605.1.15",Macintosh,Safari,18.3.1,OS X,10_15_7,https://5puzkbbxv1.cognition.run/?sona_id=52246,"en-US,en;q=0.9",4s838lcm79l6sr6,19,"[""Asian""]",No,Female,NA,No,1008897,NA,null,<p></p>,null,choice,tdc,trinary,repulsion_A,1,washing machines,null,null,null,null,null,null,2,NA,NA,NA,NA,NA,NA,NA,NA,NA,NA
NA,NA,NA,NA,NA,choice_trial,survey-html-form,27,297568,0.0-4.0-1.11,95,1,2025-04-29T18:48:30Z,b60275e29fe2361ab97ac0ac217840d7,"Mozilla/5.0 (Macintosh; Intel Mac OS X 10_15_7) AppleWebKit/605.1.15 (KHTML, like Gecko) Version/18.3.1 Safari/605.1.15",Macintosh,Safari,18.3.1,OS X,10_15_7,https://5puzkbbxv1.cognition.run/?sona_id=52246,"en-US,en;q=0.9",4s838lcm79l6sr6,19,"[""Asian""]",No,Female,NA,No,1008897,NA,32004,NA,"{""product_choice"":""C""}",choice,tdc,trinary,repulsion_A,1,washing machines,null,null,null,null,null,null,2,100,90,100,30,40,20,Average lifespan,Energy savings,NA,NA
NA,NA,NA,NA,NA,choice_trial_setup,html-keyboard-response,28,297872,0.0-4.0-0.12,95,1,2025-04-29T18:48:30Z,b60275e29fe2361ab97ac0ac217840d7,"Mozilla/5.0 (Macintosh; Intel Mac OS X 10_15_7) AppleWebKit/605.1.15 (KHTML, like Gecko) Version/18.3.1 Safari/605.1.15",Macintosh,Safari,18.3.1,OS X,10_15_7,https://5puzkbbxv1.cognition.run/?sona_id=52246,"en-US,en;q=0.9",4s838lcm79l6sr6,19,"[""Asian""]",No,Female,NA,No,1008897,NA,null,<p></p>,null,choice,tc,binary,attraction,NA,televisions,null,null,null,null,null,null,2,NA,NA,NA,NA,NA,NA,NA,NA,NA,NA
NA,NA,NA,NA,NA,choice_trial,survey-html-form,29,323403,0.0-4.0-1.12,95,1,2025-04-29T18:48:30Z,b60275e29fe2361ab97ac0ac217840d7,"Mozilla/5.0 (Macintosh; Intel Mac OS X 10_15_7) AppleWebKit/605.1.15 (KHTML, like Gecko) Version/18.3.1 Safari/605.1.15",Macintosh,Safari,18.3.1,OS X,10_15_7,https://5puzkbbxv1.cognition.run/?sona_id=52246,"en-US,en;q=0.9",4s838lcm79l6sr6,19,"[""Asian""]",No,Female,NA,No,1008897,NA,25526,NA,"{""product_choice"":""B""}",choice,tc,binary,attraction,NA,televisions,null,null,null,null,null,null,2,60,50,null,50,60,null,Screen size,Average lifespan,NA,NA
NA,NA,NA,NA,NA,choice_trial_setup,html-keyboard-response,30,323705,0.0-4.0-0.13,95,1,2025-04-29T18:48:30Z,b60275e29fe2361ab97ac0ac217840d7,"Mozilla/5.0 (Macintosh; Intel Mac OS X 10_15_7) AppleWebKit/605.1.15 (KHTML, like Gecko) Version/18.3.1 Safari/605.1.15",Macintosh,Safari,18.3.1,OS X,10_15_7,https://5puzkbbxv1.cognition.run/?sona_id=52246,"en-US,en;q=0.9",4s838lcm79l6sr6,19,"[""Asian""]",No,Female,NA,No,1008897,NA,null,<p></p>,null,choice,dct,trinary,repulsion_B,1,microwave ovens,null,null,null,null,null,null,1,NA,NA,NA,NA,NA,NA,NA,NA,NA,NA
NA,NA,NA,NA,NA,choice_trial,survey-html-form,31,335683,0.0-4.0-1.13,95,1,2025-04-29T18:48:30Z,b60275e29fe2361ab97ac0ac217840d7,"Mozilla/5.0 (Macintosh; Intel Mac OS X 10_15_7) AppleWebKit/605.1.15 (KHTML, like Gecko) Version/18.3.1 Safari/605.1.15",Macintosh,Safari,18.3.1,OS X,10_15_7,https://5puzkbbxv1.cognition.run/?sona_id=52246,"en-US,en;q=0.9",4s838lcm79l6sr6,19,"[""Asian""]",No,Female,NA,No,1008897,NA,11973,NA,"{""product_choice"":""C""}",choice,dct,trinary,repulsion_B,1,microwave ovens,null,null,null,null,null,null,1,90,100,80,40,30,40,Warranty,Cooking power,NA,NA
NA,NA,NA,NA,NA,choice_trial_setup,html-keyboard-response,32,335985,0.0-4.0-0.14,95,1,2025-04-29T18:48:30Z,b60275e29fe2361ab97ac0ac217840d7,"Mozilla/5.0 (Macintosh; Intel Mac OS X 10_15_7) AppleWebKit/605.1.15 (KHTML, like Gecko) Version/18.3.1 Safari/605.1.15",Macintosh,Safari,18.3.1,OS X,10_15_7,https://5puzkbbxv1.cognition.run/?sona_id=52246,"en-US,en;q=0.9",4s838lcm79l6sr6,19,"[""Asian""]",No,Female,NA,No,1008897,NA,null,<p></p>,null,choice,tc,binary,attraction,NA,microwave ovens,null,null,null,null,null,null,2,NA,NA,NA,NA,NA,NA,NA,NA,NA,NA
NA,NA,NA,NA,NA,choice_trial,survey-html-form,33,345216,0.0-4.0-1.14,95,1,2025-04-29T18:48:30Z,b60275e29fe2361ab97ac0ac217840d7,"Mozilla/5.0 (Macintosh; Intel Mac OS X 10_15_7) AppleWebKit/605.1.15 (KHTML, like Gecko) Version/18.3.1 Safari/605.1.15",Macintosh,Safari,18.3.1,OS X,10_15_7,https://5puzkbbxv1.cognition.run/?sona_id=52246,"en-US,en;q=0.9",4s838lcm79l6sr6,19,"[""Asian""]",No,Female,NA,No,1008897,NA,9227,NA,"{""product_choice"":""B""}",choice,tc,binary,attraction,NA,microwave ovens,null,null,null,null,null,null,2,60,50,null,50,60,null,Warranty,Cooking power,NA,NA
NA,NA,NA,NA,NA,choice_trial_setup,html-keyboard-response,34,345519,0.0-4.0-0.15,95,1,2025-04-29T18:48:30Z,b60275e29fe2361ab97ac0ac217840d7,"Mozilla/5.0 (Macintosh; Intel Mac OS X 10_15_7) AppleWebKit/605.1.15 (KHTML, like Gecko) Version/18.3.1 Safari/605.1.15",Macintosh,Safari,18.3.1,OS X,10_15_7,https://5puzkbbxv1.cognition.run/?sona_id=52246,"en-US,en;q=0.9",4s838lcm79l6sr6,19,"[""Asian""]",No,Female,NA,No,1008897,NA,null,<p></p>,null,choice,dtc,trinary,repulsion_A,2,televisions,null,null,null,null,null,null,1,NA,NA,NA,NA,NA,NA,NA,NA,NA,NA
NA,NA,NA,NA,NA,choice_trial,survey-html-form,35,363735,0.0-4.0-1.15,95,1,2025-04-29T18:48:30Z,b60275e29fe2361ab97ac0ac217840d7,"Mozilla/5.0 (Macintosh; Intel Mac OS X 10_15_7) AppleWebKit/605.1.15 (KHTML, like Gecko) Version/18.3.1 Safari/605.1.15",Macintosh,Safari,18.3.1,OS X,10_15_7,https://5puzkbbxv1.cognition.run/?sona_id=52246,"en-US,en;q=0.9",4s838lcm79l6sr6,19,"[""Asian""]",No,Female,NA,No,1008897,NA,18212,NA,"{""product_choice"":""C""}",choice,dtc,trinary,repulsion_A,2,televisions,null,null,null,null,null,null,1,30,40,20,100,90,100,Screen size,Average lifespan,NA,NA
NA,NA,NA,NA,NA,choice_trial_setup,html-keyboard-response,36,364039,0.0-4.0-0.16,95,1,2025-04-29T18:48:30Z,b60275e29fe2361ab97ac0ac217840d7,"Mozilla/5.0 (Macintosh; Intel Mac OS X 10_15_7) AppleWebKit/605.1.15 (KHTML, like Gecko) Version/18.3.1 Safari/605.1.15",Macintosh,Safari,18.3.1,OS X,10_15_7,https://5puzkbbxv1.cognition.run/?sona_id=52246,"en-US,en;q=0.9",4s838lcm79l6sr6,19,"[""Asian""]",No,Female,NA,No,1008897,NA,null,<p></p>,null,choice,cdt,trinary,attraction,2,washing machines,null,null,null,null,null,null,2,NA,NA,NA,NA,NA,NA,NA,NA,NA,NA
NA,NA,NA,NA,NA,choice_trial,survey-html-form,37,389055,0.0-4.0-1.16,95,1,2025-04-29T18:48:30Z,b60275e29fe2361ab97ac0ac217840d7,"Mozilla/5.0 (Macintosh; Intel Mac OS X 10_15_7) AppleWebKit/605.1.15 (KHTML, like Gecko) Version/18.3.1 Safari/605.1.15",Macintosh,Safari,18.3.1,OS X,10_15_7,https://5puzkbbxv1.cognition.run/?sona_id=52246,"en-US,en;q=0.9",4s838lcm79l6sr6,19,"[""Asian""]",No,Female,NA,No,1008897,NA,25011,NA,"{""product_choice"":""C""}",choice,cdt,trinary,attraction,2,washing machines,null,null,null,null,null,null,2,50,60,40,60,50,60,Average lifespan,Energy savings,NA,NA
NA,NA,NA,NA,NA,choice_trial_setup,html-keyboard-response,38,389359,0.0-4.0-0.17,95,1,2025-04-29T18:48:30Z,b60275e29fe2361ab97ac0ac217840d7,"Mozilla/5.0 (Macintosh; Intel Mac OS X 10_15_7) AppleWebKit/605.1.15 (KHTML, like Gecko) Version/18.3.1 Safari/605.1.15",Macintosh,Safari,18.3.1,OS X,10_15_7,https://5puzkbbxv1.cognition.run/?sona_id=52246,"en-US,en;q=0.9",4s838lcm79l6sr6,19,"[""Asian""]",No,Female,NA,No,1008897,NA,null,<p></p>,null,choice,tdc,trinary,repulsion_A,2,laptops,null,null,null,null,null,null,2,NA,NA,NA,NA,NA,NA,NA,NA,NA,NA
NA,NA,NA,NA,NA,choice_trial,survey-html-form,39,401036,0.0-4.0-1.17,95,1,2025-04-29T18:48:30Z,b60275e29fe2361ab97ac0ac217840d7,"Mozilla/5.0 (Macintosh; Intel Mac OS X 10_15_7) AppleWebKit/605.1.15 (KHTML, like Gecko) Version/18.3.1 Safari/605.1.15",Macintosh,Safari,18.3.1,OS X,10_15_7,https://5puzkbbxv1.cognition.run/?sona_id=52246,"en-US,en;q=0.9",4s838lcm79l6sr6,19,"[""Asian""]",No,Female,NA,No,1008897,NA,11671,NA,"{""product_choice"":""C""}",choice,tdc,trinary,repulsion_A,2,laptops,null,null,null,null,null,null,2,30,40,20,100,90,100,Processing speed,Memory (RAM),NA,NA
NA,NA,NA,NA,NA,choice_trial_setup,html-keyboard-response,40,401339,0.0-4.0-0.18,95,1,2025-04-29T18:48:30Z,b60275e29fe2361ab97ac0ac217840d7,"Mozilla/5.0 (Macintosh; Intel Mac OS X 10_15_7) AppleWebKit/605.1.15 (KHTML, like Gecko) Version/18.3.1 Safari/605.1.15",Macintosh,Safari,18.3.1,OS X,10_15_7,https://5puzkbbxv1.cognition.run/?sona_id=52246,"en-US,en;q=0.9",4s838lcm79l6sr6,19,"[""Asian""]",No,Female,NA,No,1008897,NA,null,<p></p>,null,choice,wwb,trinary,catch,null,televisions,60,70,45,40,10,20,1,NA,NA,NA,NA,NA,NA,NA,NA,NA,NA
NA,NA,NA,NA,NA,choice_trial,survey-html-form,41,411869,0.0-4.0-1.18,95,1,2025-04-29T18:48:30Z,b60275e29fe2361ab97ac0ac217840d7,"Mozilla/5.0 (Macintosh; Intel Mac OS X 10_15_7) AppleWebKit/605.1.15 (KHTML, like Gecko) Version/18.3.1 Safari/605.1.15",Macintosh,Safari,18.3.1,OS X,10_15_7,https://5puzkbbxv1.cognition.run/?sona_id=52246,"en-US,en;q=0.9",4s838lcm79l6sr6,19,"[""Asian""]",No,Female,NA,No,1008897,NA,10524,NA,"{""product_choice"":""C""}",choice,wwb,trinary,catch,null,televisions,60,70,45,40,10,20,1,null,null,null,null,null,null,Screen size,Average lifespan,NA,NA
NA,NA,NA,NA,NA,choice_trial_setup,html-keyboard-response,42,412172,0.0-4.0-0.19,95,1,2025-04-29T18:48:30Z,b60275e29fe2361ab97ac0ac217840d7,"Mozilla/5.0 (Macintosh; Intel Mac OS X 10_15_7) AppleWebKit/605.1.15 (KHTML, like Gecko) Version/18.3.1 Safari/605.1.15",Macintosh,Safari,18.3.1,OS X,10_15_7,https://5puzkbbxv1.cognition.run/?sona_id=52246,"en-US,en;q=0.9",4s838lcm79l6sr6,19,"[""Asian""]",No,Female,NA,No,1008897,NA,null,<p></p>,null,choice,cdt,trinary,repulsion_A,1,microwave ovens,null,null,null,null,null,null,2,NA,NA,NA,NA,NA,NA,NA,NA,NA,NA
NA,NA,NA,NA,NA,choice_trial,survey-html-form,43,421804,0.0-4.0-1.19,95,1,2025-04-29T18:48:30Z,b60275e29fe2361ab97ac0ac217840d7,"Mozilla/5.0 (Macintosh; Intel Mac OS X 10_15_7) AppleWebKit/605.1.15 (KHTML, like Gecko) Version/18.3.1 Safari/605.1.15",Macintosh,Safari,18.3.1,OS X,10_15_7,https://5puzkbbxv1.cognition.run/?sona_id=52246,"en-US,en;q=0.9",4s838lcm79l6sr6,19,"[""Asian""]",No,Female,NA,No,1008897,NA,9627,NA,"{""product_choice"":""A""}",choice,cdt,trinary,repulsion_A,1,microwave ovens,null,null,null,null,null,null,2,100,90,100,30,40,20,Warranty,Cooking power,NA,NA
NA,NA,NA,NA,NA,choice_trial_setup,html-keyboard-response,44,422110,0.0-4.0-0.20,95,1,2025-04-29T18:48:30Z,b60275e29fe2361ab97ac0ac217840d7,"Mozilla/5.0 (Macintosh; Intel Mac OS X 10_15_7) AppleWebKit/605.1.15 (KHTML, like Gecko) Version/18.3.1 Safari/605.1.15",Macintosh,Safari,18.3.1,OS X,10_15_7,https://5puzkbbxv1.cognition.run/?sona_id=52246,"en-US,en;q=0.9",4s838lcm79l6sr6,19,"[""Asian""]",No,Female,NA,No,1008897,NA,null,<p></p>,null,choice,ct,binary,repulsion,1,microwave ovens,null,null,null,null,null,null,2,NA,NA,NA,NA,NA,NA,NA,NA,NA,NA
NA,NA,NA,NA,NA,choice_trial,survey-html-form,45,488820,0.0-4.0-1.20,95,1,2025-04-29T18:48:30Z,b60275e29fe2361ab97ac0ac217840d7,"Mozilla/5.0 (Macintosh; Intel Mac OS X 10_15_7) AppleWebKit/605.1.15 (KHTML, like Gecko) Version/18.3.1 Safari/605.1.15",Macintosh,Safari,18.3.1,OS X,10_15_7,https://5puzkbbxv1.cognition.run/?sona_id=52246,"en-US,en;q=0.9",4s838lcm79l6sr6,19,"[""Asian""]",No,Female,NA,No,1008897,NA,66705,NA,"{""product_choice"":""A""}",choice,ct,binary,repulsion,1,microwave ovens,null,null,null,null,null,null,2,100,90,null,30,40,null,Warranty,Cooking power,NA,NA
NA,NA,NA,NA,NA,choice_trial_setup,html-keyboard-response,46,489124,0.0-4.0-0.21,95,1,2025-04-29T18:48:30Z,b60275e29fe2361ab97ac0ac217840d7,"Mozilla/5.0 (Macintosh; Intel Mac OS X 10_15_7) AppleWebKit/605.1.15 (KHTML, like Gecko) Version/18.3.1 Safari/605.1.15",Macintosh,Safari,18.3.1,OS X,10_15_7,https://5puzkbbxv1.cognition.run/?sona_id=52246,"en-US,en;q=0.9",4s838lcm79l6sr6,19,"[""Asian""]",No,Female,NA,No,1008897,NA,null,<p></p>,null,choice,tc,binary,repulsion,2,televisions,null,null,null,null,null,null,1,NA,NA,NA,NA,NA,NA,NA,NA,NA,NA
NA,NA,NA,NA,NA,choice_trial,survey-html-form,47,506769,0.0-4.0-1.21,95,1,2025-04-29T18:48:30Z,b60275e29fe2361ab97ac0ac217840d7,"Mozilla/5.0 (Macintosh; Intel Mac OS X 10_15_7) AppleWebKit/605.1.15 (KHTML, like Gecko) Version/18.3.1 Safari/605.1.15",Macintosh,Safari,18.3.1,OS X,10_15_7,https://5puzkbbxv1.cognition.run/?sona_id=52246,"en-US,en;q=0.9",4s838lcm79l6sr6,19,"[""Asian""]",No,Female,NA,No,1008897,NA,17640,NA,"{""product_choice"":""B""}",choice,tc,binary,repulsion,2,televisions,null,null,null,null,null,null,1,30,40,null,100,90,null,Screen size,Average lifespan,NA,NA
NA,NA,NA,NA,NA,choice_trial_setup,html-keyboard-response,48,507073,0.0-4.0-0.22,95,1,2025-04-29T18:48:30Z,b60275e29fe2361ab97ac0ac217840d7,"Mozilla/5.0 (Macintosh; Intel Mac OS X 10_15_7) AppleWebKit/605.1.15 (KHTML, like Gecko) Version/18.3.1 Safari/605.1.15",Macintosh,Safari,18.3.1,OS X,10_15_7,https://5puzkbbxv1.cognition.run/?sona_id=52246,"en-US,en;q=0.9",4s838lcm79l6sr6,19,"[""Asian""]",No,Female,NA,No,1008897,NA,null,<p></p>,null,choice,tcd,trinary,repulsion_B,1,laptops,null,null,null,null,null,null,2,NA,NA,NA,NA,NA,NA,NA,NA,NA,NA
NA,NA,NA,NA,NA,choice_trial,survey-html-form,49,520868,0.0-4.0-1.22,95,1,2025-04-29T18:48:30Z,b60275e29fe2361ab97ac0ac217840d7,"Mozilla/5.0 (Macintosh; Intel Mac OS X 10_15_7) AppleWebKit/605.1.15 (KHTML, like Gecko) Version/18.3.1 Safari/605.1.15",Macintosh,Safari,18.3.1,OS X,10_15_7,https://5puzkbbxv1.cognition.run/?sona_id=52246,"en-US,en;q=0.9",4s838lcm79l6sr6,19,"[""Asian""]",No,Female,NA,No,1008897,NA,13789,NA,"{""product_choice"":""A""}",choice,tcd,trinary,repulsion_B,1,laptops,null,null,null,null,null,null,2,90,100,80,40,30,40,Processing speed,Memory (RAM),NA,NA
NA,NA,NA,NA,NA,choice_trial_setup,html-keyboard-response,50,521171,0.0-4.0-0.23,95,1,2025-04-29T18:48:30Z,b60275e29fe2361ab97ac0ac217840d7,"Mozilla/5.0 (Macintosh; Intel Mac OS X 10_15_7) AppleWebKit/605.1.15 (KHTML, like Gecko) Version/18.3.1 Safari/605.1.15",Macintosh,Safari,18.3.1,OS X,10_15_7,https://5puzkbbxv1.cognition.run/?sona_id=52246,"en-US,en;q=0.9",4s838lcm79l6sr6,19,"[""Asian""]",No,Female,NA,No,1008897,NA,null,<p></p>,null,choice,dtc,trinary,attraction,1,televisions,null,null,null,null,null,null,2,NA,NA,NA,NA,NA,NA,NA,NA,NA,NA
NA,NA,NA,NA,NA,choice_trial,survey-html-form,51,531433,0.0-4.0-1.23,95,1,2025-04-29T18:48:30Z,b60275e29fe2361ab97ac0ac217840d7,"Mozilla/5.0 (Macintosh; Intel Mac OS X 10_15_7) AppleWebKit/605.1.15 (KHTML, like Gecko) Version/18.3.1 Safari/605.1.15",Macintosh,Safari,18.3.1,OS X,10_15_7,https://5puzkbbxv1.cognition.run/?sona_id=52246,"en-US,en;q=0.9",4s838lcm79l6sr6,19,"[""Asian""]",No,Female,NA,No,1008897,NA,10257,NA,"{""product_choice"":""C""}",choice,dtc,trinary,attraction,1,televisions,null,null,null,null,null,null,2,60,50,60,50,60,40,Screen size,Average lifespan,NA,NA
NA,NA,NA,NA,NA,choice_trial_setup,html-keyboard-response,52,531736,0.0-4.0-0.24,95,1,2025-04-29T18:48:30Z,b60275e29fe2361ab97ac0ac217840d7,"Mozilla/5.0 (Macintosh; Intel Mac OS X 10_15_7) AppleWebKit/605.1.15 (KHTML, like Gecko) Version/18.3.1 Safari/605.1.15",Macintosh,Safari,18.3.1,OS X,10_15_7,https://5puzkbbxv1.cognition.run/?sona_id=52246,"en-US,en;q=0.9",4s838lcm79l6sr6,19,"[""Asian""]",No,Female,NA,No,1008897,NA,null,<p></p>,null,choice,tcd,trinary,attraction,2,laptops,null,null,null,null,null,null,2,NA,NA,NA,NA,NA,NA,NA,NA,NA,NA
NA,NA,NA,NA,NA,choice_trial,survey-html-form,53,540017,0.0-4.0-1.24,95,1,2025-04-29T18:48:30Z,b60275e29fe2361ab97ac0ac217840d7,"Mozilla/5.0 (Macintosh; Intel Mac OS X 10_15_7) AppleWebKit/605.1.15 (KHTML, like Gecko) Version/18.3.1 Safari/605.1.15",Macintosh,Safari,18.3.1,OS X,10_15_7,https://5puzkbbxv1.cognition.run/?sona_id=52246,"en-US,en;q=0.9",4s838lcm79l6sr6,19,"[""Asian""]",No,Female,NA,No,1008897,NA,8278,NA,"{""product_choice"":""A""}",choice,tcd,trinary,attraction,2,laptops,null,null,null,null,null,null,2,50,60,40,60,50,60,Processing speed,Memory (RAM),NA,NA
NA,NA,NA,NA,NA,choice_trial_setup,html-keyboard-response,54,540321,0.0-4.0-0.25,95,1,2025-04-29T18:48:30Z,b60275e29fe2361ab97ac0ac217840d7,"Mozilla/5.0 (Macintosh; Intel Mac OS X 10_15_7) AppleWebKit/605.1.15 (KHTML, like Gecko) Version/18.3.1 Safari/605.1.15",Macintosh,Safari,18.3.1,OS X,10_15_7,https://5puzkbbxv1.cognition.run/?sona_id=52246,"en-US,en;q=0.9",4s838lcm79l6sr6,19,"[""Asian""]",No,Female,NA,No,1008897,NA,null,<p></p>,null,choice,cdt,trinary,attraction,2,televisions,null,null,null,null,null,null,2,NA,NA,NA,NA,NA,NA,NA,NA,NA,NA
NA,NA,NA,NA,NA,choice_trial,survey-html-form,55,547901,0.0-4.0-1.25,95,1,2025-04-29T18:48:30Z,b60275e29fe2361ab97ac0ac217840d7,"Mozilla/5.0 (Macintosh; Intel Mac OS X 10_15_7) AppleWebKit/605.1.15 (KHTML, like Gecko) Version/18.3.1 Safari/605.1.15",Macintosh,Safari,18.3.1,OS X,10_15_7,https://5puzkbbxv1.cognition.run/?sona_id=52246,"en-US,en;q=0.9",4s838lcm79l6sr6,19,"[""Asian""]",No,Female,NA,No,1008897,NA,7575,NA,"{""product_choice"":""C""}",choice,cdt,trinary,attraction,2,televisions,null,null,null,null,null,null,2,50,60,40,60,50,60,Screen size,Average lifespan,NA,NA
NA,NA,NA,NA,NA,choice_trial_setup,html-keyboard-response,56,548205,0.0-4.0-0.26,95,1,2025-04-29T18:48:30Z,b60275e29fe2361ab97ac0ac217840d7,"Mozilla/5.0 (Macintosh; Intel Mac OS X 10_15_7) AppleWebKit/605.1.15 (KHTML, like Gecko) Version/18.3.1 Safari/605.1.15",Macintosh,Safari,18.3.1,OS X,10_15_7,https://5puzkbbxv1.cognition.run/?sona_id=52246,"en-US,en;q=0.9",4s838lcm79l6sr6,19,"[""Asian""]",No,Female,NA,No,1008897,NA,null,<p></p>,null,choice,ctd,trinary,repulsion_A,2,microwave ovens,null,null,null,null,null,null,2,NA,NA,NA,NA,NA,NA,NA,NA,NA,NA
NA,NA,NA,NA,NA,choice_trial,survey-html-form,57,556534,0.0-4.0-1.26,95,1,2025-04-29T18:48:30Z,b60275e29fe2361ab97ac0ac217840d7,"Mozilla/5.0 (Macintosh; Intel Mac OS X 10_15_7) AppleWebKit/605.1.15 (KHTML, like Gecko) Version/18.3.1 Safari/605.1.15",Macintosh,Safari,18.3.1,OS X,10_15_7,https://5puzkbbxv1.cognition.run/?sona_id=52246,"en-US,en;q=0.9",4s838lcm79l6sr6,19,"[""Asian""]",No,Female,NA,No,1008897,NA,8325,NA,"{""product_choice"":""A""}",choice,ctd,trinary,repulsion_A,2,microwave ovens,null,null,null,null,null,null,2,30,40,20,100,90,100,Warranty,Cooking power,NA,NA
NA,NA,NA,NA,NA,choice_trial_setup,html-keyboard-response,58,556838,0.0-4.0-0.27,95,1,2025-04-29T18:48:30Z,b60275e29fe2361ab97ac0ac217840d7,"Mozilla/5.0 (Macintosh; Intel Mac OS X 10_15_7) AppleWebKit/605.1.15 (KHTML, like Gecko) Version/18.3.1 Safari/605.1.15",Macintosh,Safari,18.3.1,OS X,10_15_7,https://5puzkbbxv1.cognition.run/?sona_id=52246,"en-US,en;q=0.9",4s838lcm79l6sr6,19,"[""Asian""]",No,Female,NA,No,1008897,NA,null,<p></p>,null,choice,ct,binary,repulsion,2,washing machines,null,null,null,null,null,null,1,NA,NA,NA,NA,NA,NA,NA,NA,NA,NA
NA,NA,NA,NA,NA,choice_trial,survey-html-form,59,563818,0.0-4.0-1.27,95,1,2025-04-29T18:48:30Z,b60275e29fe2361ab97ac0ac217840d7,"Mozilla/5.0 (Macintosh; Intel Mac OS X 10_15_7) AppleWebKit/605.1.15 (KHTML, like Gecko) Version/18.3.1 Safari/605.1.15",Macintosh,Safari,18.3.1,OS X,10_15_7,https://5puzkbbxv1.cognition.run/?sona_id=52246,"en-US,en;q=0.9",4s838lcm79l6sr6,19,"[""Asian""]",No,Female,NA,No,1008897,NA,6976,NA,"{""product_choice"":""A""}",choice,ct,binary,repulsion,2,washing machines,null,null,null,null,null,null,1,30,40,null,100,90,null,Average lifespan,Energy savings,NA,NA
NA,NA,NA,NA,NA,choice_trial_setup,html-keyboard-response,60,564122,0.0-4.0-0.28,95,1,2025-04-29T18:48:30Z,b60275e29fe2361ab97ac0ac217840d7,"Mozilla/5.0 (Macintosh; Intel Mac OS X 10_15_7) AppleWebKit/605.1.15 (KHTML, like Gecko) Version/18.3.1 Safari/605.1.15",Macintosh,Safari,18.3.1,OS X,10_15_7,https://5puzkbbxv1.cognition.run/?sona_id=52246,"en-US,en;q=0.9",4s838lcm79l6sr6,19,"[""Asian""]",No,Female,NA,No,1008897,NA,null,<p></p>,null,choice,wb,binary,catch,null,televisions,85,70,5,5,null,null,2,NA,NA,NA,NA,NA,NA,NA,NA,NA,NA
NA,NA,NA,NA,NA,choice_trial,survey-html-form,61,583300,0.0-4.0-1.28,95,1,2025-04-29T18:48:30Z,b60275e29fe2361ab97ac0ac217840d7,"Mozilla/5.0 (Macintosh; Intel Mac OS X 10_15_7) AppleWebKit/605.1.15 (KHTML, like Gecko) Version/18.3.1 Safari/605.1.15",Macintosh,Safari,18.3.1,OS X,10_15_7,https://5puzkbbxv1.cognition.run/?sona_id=52246,"en-US,en;q=0.9",4s838lcm79l6sr6,19,"[""Asian""]",No,Female,NA,No,1008897,NA,19172,NA,"{""product_choice"":""B""}",choice,wb,binary,catch,null,televisions,85,70,5,5,null,null,2,null,null,null,null,null,null,Screen size,Average lifespan,NA,NA
NA,NA,NA,NA,NA,choice_trial_setup,html-keyboard-response,62,583603,0.0-4.0-0.29,95,1,2025-04-29T18:48:30Z,b60275e29fe2361ab97ac0ac217840d7,"Mozilla/5.0 (Macintosh; Intel Mac OS X 10_15_7) AppleWebKit/605.1.15 (KHTML, like Gecko) Version/18.3.1 Safari/605.1.15",Macintosh,Safari,18.3.1,OS X,10_15_7,https://5puzkbbxv1.cognition.run/?sona_id=52246,"en-US,en;q=0.9",4s838lcm79l6sr6,19,"[""Asian""]",No,Female,NA,No,1008897,NA,null,<p></p>,null,choice,cdt,trinary,repulsion_B,1,televisions,null,null,null,null,null,null,2,NA,NA,NA,NA,NA,NA,NA,NA,NA,NA
NA,NA,NA,NA,NA,choice_trial,survey-html-form,63,594021,0.0-4.0-1.29,95,1,2025-04-29T18:48:30Z,b60275e29fe2361ab97ac0ac217840d7,"Mozilla/5.0 (Macintosh; Intel Mac OS X 10_15_7) AppleWebKit/605.1.15 (KHTML, like Gecko) Version/18.3.1 Safari/605.1.15",Macintosh,Safari,18.3.1,OS X,10_15_7,https://5puzkbbxv1.cognition.run/?sona_id=52246,"en-US,en;q=0.9",4s838lcm79l6sr6,19,"[""Asian""]",No,Female,NA,No,1008897,NA,10414,NA,"{""product_choice"":""C""}",choice,cdt,trinary,repulsion_B,1,televisions,null,null,null,null,null,null,2,90,100,80,40,30,40,Screen size,Average lifespan,NA,NA
NA,NA,NA,NA,NA,choice_trial_setup,html-keyboard-response,64,594325,0.0-4.0-0.30,95,1,2025-04-29T18:48:30Z,b60275e29fe2361ab97ac0ac217840d7,"Mozilla/5.0 (Macintosh; Intel Mac OS X 10_15_7) AppleWebKit/605.1.15 (KHTML, like Gecko) Version/18.3.1 Safari/605.1.15",Macintosh,Safari,18.3.1,OS X,10_15_7,https://5puzkbbxv1.cognition.run/?sona_id=52246,"en-US,en;q=0.9",4s838lcm79l6sr6,19,"[""Asian""]",No,Female,NA,No,1008897,NA,null,<p></p>,null,choice,tdc,trinary,repulsion_B,2,televisions,null,null,null,null,null,null,1,NA,NA,NA,NA,NA,NA,NA,NA,NA,NA
NA,NA,NA,NA,NA,choice_trial,survey-html-form,65,605385,0.0-4.0-1.30,95,1,2025-04-29T18:48:30Z,b60275e29fe2361ab97ac0ac217840d7,"Mozilla/5.0 (Macintosh; Intel Mac OS X 10_15_7) AppleWebKit/605.1.15 (KHTML, like Gecko) Version/18.3.1 Safari/605.1.15",Macintosh,Safari,18.3.1,OS X,10_15_7,https://5puzkbbxv1.cognition.run/?sona_id=52246,"en-US,en;q=0.9",4s838lcm79l6sr6,19,"[""Asian""]",No,Female,NA,No,1008897,NA,11053,NA,"{""product_choice"":""A""}",choice,tdc,trinary,repulsion_B,2,televisions,null,null,null,null,null,null,1,40,30,40,90,100,80,Screen size,Average lifespan,NA,NA
NA,NA,NA,NA,NA,choice_trial_setup,html-keyboard-response,66,605689,0.0-4.0-0.31,95,1,2025-04-29T18:48:30Z,b60275e29fe2361ab97ac0ac217840d7,"Mozilla/5.0 (Macintosh; Intel Mac OS X 10_15_7) AppleWebKit/605.1.15 (KHTML, like Gecko) Version/18.3.1 Safari/605.1.15",Macintosh,Safari,18.3.1,OS X,10_15_7,https://5puzkbbxv1.cognition.run/?sona_id=52246,"en-US,en;q=0.9",4s838lcm79l6sr6,19,"[""Asian""]",No,Female,NA,No,1008897,NA,null,<p></p>,null,choice,dct,trinary,attraction,1,washing machines,null,null,null,null,null,null,1,NA,NA,NA,NA,NA,NA,NA,NA,NA,NA
NA,NA,NA,NA,NA,choice_trial,survey-html-form,67,613085,0.0-4.0-1.31,95,1,2025-04-29T18:48:30Z,b60275e29fe2361ab97ac0ac217840d7,"Mozilla/5.0 (Macintosh; Intel Mac OS X 10_15_7) AppleWebKit/605.1.15 (KHTML, like Gecko) Version/18.3.1 Safari/605.1.15",Macintosh,Safari,18.3.1,OS X,10_15_7,https://5puzkbbxv1.cognition.run/?sona_id=52246,"en-US,en;q=0.9",4s838lcm79l6sr6,19,"[""Asian""]",No,Female,NA,No,1008897,NA,7391,NA,"{""product_choice"":""C""}",choice,dct,trinary,attraction,1,washing machines,null,null,null,null,null,null,1,60,50,60,50,60,40,Average lifespan,Energy savings,NA,NA
NA,NA,NA,NA,NA,choice_trial_setup,html-keyboard-response,68,613388,0.0-4.0-0.32,95,1,2025-04-29T18:48:30Z,b60275e29fe2361ab97ac0ac217840d7,"Mozilla/5.0 (Macintosh; Intel Mac OS X 10_15_7) AppleWebKit/605.1.15 (KHTML, like Gecko) Version/18.3.1 Safari/605.1.15",Macintosh,Safari,18.3.1,OS X,10_15_7,https://5puzkbbxv1.cognition.run/?sona_id=52246,"en-US,en;q=0.9",4s838lcm79l6sr6,19,"[""Asian""]",No,Female,NA,No,1008897,NA,null,<p></p>,null,choice,ct,binary,repulsion,1,televisions,null,null,null,null,null,null,1,NA,NA,NA,NA,NA,NA,NA,NA,NA,NA
NA,NA,NA,NA,NA,choice_trial,survey-html-form,69,620201,0.0-4.0-1.32,95,1,2025-04-29T18:48:30Z,b60275e29fe2361ab97ac0ac217840d7,"Mozilla/5.0 (Macintosh; Intel Mac OS X 10_15_7) AppleWebKit/605.1.15 (KHTML, like Gecko) Version/18.3.1 Safari/605.1.15",Macintosh,Safari,18.3.1,OS X,10_15_7,https://5puzkbbxv1.cognition.run/?sona_id=52246,"en-US,en;q=0.9",4s838lcm79l6sr6,19,"[""Asian""]",No,Female,NA,No,1008897,NA,6807,NA,"{""product_choice"":""A""}",choice,ct,binary,repulsion,1,televisions,null,null,null,null,null,null,1,100,90,null,30,40,null,Screen size,Average lifespan,NA,NA
NA,NA,NA,NA,NA,choice_trial_setup,html-keyboard-response,70,620505,0.0-4.0-0.33,95,1,2025-04-29T18:48:30Z,b60275e29fe2361ab97ac0ac217840d7,"Mozilla/5.0 (Macintosh; Intel Mac OS X 10_15_7) AppleWebKit/605.1.15 (KHTML, like Gecko) Version/18.3.1 Safari/605.1.15",Macintosh,Safari,18.3.1,OS X,10_15_7,https://5puzkbbxv1.cognition.run/?sona_id=52246,"en-US,en;q=0.9",4s838lcm79l6sr6,19,"[""Asian""]",No,Female,NA,No,1008897,NA,null,<p></p>,null,choice,ct,binary,attraction,NA,washing machines,null,null,null,null,null,null,2,NA,NA,NA,NA,NA,NA,NA,NA,NA,NA
NA,NA,NA,NA,NA,choice_trial,survey-html-form,71,642067,0.0-4.0-1.33,95,1,2025-04-29T18:48:30Z,b60275e29fe2361ab97ac0ac217840d7,"Mozilla/5.0 (Macintosh; Intel Mac OS X 10_15_7) AppleWebKit/605.1.15 (KHTML, like Gecko) Version/18.3.1 Safari/605.1.15",Macintosh,Safari,18.3.1,OS X,10_15_7,https://5puzkbbxv1.cognition.run/?sona_id=52246,"en-US,en;q=0.9",4s838lcm79l6sr6,19,"[""Asian""]",No,Female,NA,No,1008897,NA,21558,NA,"{""product_choice"":""A""}",choice,ct,binary,attraction,NA,washing machines,null,null,null,null,null,null,2,60,50,null,50,60,null,Average lifespan,Energy savings,NA,NA
NA,NA,NA,NA,NA,choice_trial_setup,html-keyboard-response,72,642372,0.0-4.0-0.34,95,1,2025-04-29T18:48:30Z,b60275e29fe2361ab97ac0ac217840d7,"Mozilla/5.0 (Macintosh; Intel Mac OS X 10_15_7) AppleWebKit/605.1.15 (KHTML, like Gecko) Version/18.3.1 Safari/605.1.15",Macintosh,Safari,18.3.1,OS X,10_15_7,https://5puzkbbxv1.cognition.run/?sona_id=52246,"en-US,en;q=0.9",4s838lcm79l6sr6,19,"[""Asian""]",No,Female,NA,No,1008897,NA,null,<p></p>,null,choice,tc,binary,repulsion,2,microwave ovens,null,null,null,null,null,null,2,NA,NA,NA,NA,NA,NA,NA,NA,NA,NA
NA,NA,NA,NA,NA,choice_trial,survey-html-form,73,650083,0.0-4.0-1.34,95,1,2025-04-29T18:48:30Z,b60275e29fe2361ab97ac0ac217840d7,"Mozilla/5.0 (Macintosh; Intel Mac OS X 10_15_7) AppleWebKit/605.1.15 (KHTML, like Gecko) Version/18.3.1 Safari/605.1.15",Macintosh,Safari,18.3.1,OS X,10_15_7,https://5puzkbbxv1.cognition.run/?sona_id=52246,"en-US,en;q=0.9",4s838lcm79l6sr6,19,"[""Asian""]",No,Female,NA,No,1008897,NA,7706,NA,"{""product_choice"":""B""}",choice,tc,binary,repulsion,2,microwave ovens,null,null,null,null,null,null,2,30,40,null,100,90,null,Warranty,Cooking power,NA,NA
NA,NA,NA,NA,NA,choice_trial_setup,html-keyboard-response,74,650387,0.0-4.0-0.35,95,1,2025-04-29T18:48:30Z,b60275e29fe2361ab97ac0ac217840d7,"Mozilla/5.0 (Macintosh; Intel Mac OS X 10_15_7) AppleWebKit/605.1.15 (KHTML, like Gecko) Version/18.3.1 Safari/605.1.15",Macintosh,Safari,18.3.1,OS X,10_15_7,https://5puzkbbxv1.cognition.run/?sona_id=52246,"en-US,en;q=0.9",4s838lcm79l6sr6,19,"[""Asian""]",No,Female,NA,No,1008897,NA,null,<p></p>,null,choice,dtc,trinary,repulsion_A,1,televisions,null,null,null,null,null,null,2,NA,NA,NA,NA,NA,NA,NA,NA,NA,NA
NA,NA,NA,NA,NA,choice_trial,survey-html-form,75,658051,0.0-4.0-1.35,95,1,2025-04-29T18:48:30Z,b60275e29fe2361ab97ac0ac217840d7,"Mozilla/5.0 (Macintosh; Intel Mac OS X 10_15_7) AppleWebKit/605.1.15 (KHTML, like Gecko) Version/18.3.1 Safari/605.1.15",Macintosh,Safari,18.3.1,OS X,10_15_7,https://5puzkbbxv1.cognition.run/?sona_id=52246,"en-US,en;q=0.9",4s838lcm79l6sr6,19,"[""Asian""]",No,Female,NA,No,1008897,NA,7660,NA,"{""product_choice"":""C""}",choice,dtc,trinary,repulsion_A,1,televisions,null,null,null,null,null,null,2,100,90,100,30,40,20,Screen size,Average lifespan,NA,NA
NA,NA,NA,NA,NA,choice_trial_setup,html-keyboard-response,76,658355,0.0-4.0-0.36,95,1,2025-04-29T18:48:30Z,b60275e29fe2361ab97ac0ac217840d7,"Mozilla/5.0 (Macintosh; Intel Mac OS X 10_15_7) AppleWebKit/605.1.15 (KHTML, like Gecko) Version/18.3.1 Safari/605.1.15",Macintosh,Safari,18.3.1,OS X,10_15_7,https://5puzkbbxv1.cognition.run/?sona_id=52246,"en-US,en;q=0.9",4s838lcm79l6sr6,19,"[""Asian""]",No,Female,NA,No,1008897,NA,null,<p></p>,null,choice,ct,binary,repulsion,2,laptops,null,null,null,null,null,null,1,NA,NA,NA,NA,NA,NA,NA,NA,NA,NA
NA,NA,NA,NA,NA,choice_trial,survey-html-form,77,667534,0.0-4.0-1.36,95,1,2025-04-29T18:48:30Z,b60275e29fe2361ab97ac0ac217840d7,"Mozilla/5.0 (Macintosh; Intel Mac OS X 10_15_7) AppleWebKit/605.1.15 (KHTML, like Gecko) Version/18.3.1 Safari/605.1.15",Macintosh,Safari,18.3.1,OS X,10_15_7,https://5puzkbbxv1.cognition.run/?sona_id=52246,"en-US,en;q=0.9",4s838lcm79l6sr6,19,"[""Asian""]",No,Female,NA,No,1008897,NA,9177,NA,"{""product_choice"":""A""}",choice,ct,binary,repulsion,2,laptops,null,null,null,null,null,null,1,30,40,null,100,90,null,Processing speed,Memory (RAM),NA,NA
NA,NA,NA,NA,NA,choice_trial_setup,html-keyboard-response,78,667838,0.0-4.0-0.37,95,1,2025-04-29T18:48:30Z,b60275e29fe2361ab97ac0ac217840d7,"Mozilla/5.0 (Macintosh; Intel Mac OS X 10_15_7) AppleWebKit/605.1.15 (KHTML, like Gecko) Version/18.3.1 Safari/605.1.15",Macintosh,Safari,18.3.1,OS X,10_15_7,https://5puzkbbxv1.cognition.run/?sona_id=52246,"en-US,en;q=0.9",4s838lcm79l6sr6,19,"[""Asian""]",No,Female,NA,No,1008897,NA,null,<p></p>,null,choice,cdt,trinary,repulsion_B,1,washing machines,null,null,null,null,null,null,1,NA,NA,NA,NA,NA,NA,NA,NA,NA,NA
NA,NA,NA,NA,NA,choice_trial,survey-html-form,79,675134,0.0-4.0-1.37,95,1,2025-04-29T18:48:30Z,b60275e29fe2361ab97ac0ac217840d7,"Mozilla/5.0 (Macintosh; Intel Mac OS X 10_15_7) AppleWebKit/605.1.15 (KHTML, like Gecko) Version/18.3.1 Safari/605.1.15",Macintosh,Safari,18.3.1,OS X,10_15_7,https://5puzkbbxv1.cognition.run/?sona_id=52246,"en-US,en;q=0.9",4s838lcm79l6sr6,19,"[""Asian""]",No,Female,NA,No,1008897,NA,7293,NA,"{""product_choice"":""C""}",choice,cdt,trinary,repulsion_B,1,washing machines,null,null,null,null,null,null,1,90,100,80,40,30,40,Average lifespan,Energy savings,NA,NA
NA,NA,NA,NA,NA,choice_trial_setup,html-keyboard-response,80,675437,0.0-4.0-0.38,95,1,2025-04-29T18:48:30Z,b60275e29fe2361ab97ac0ac217840d7,"Mozilla/5.0 (Macintosh; Intel Mac OS X 10_15_7) AppleWebKit/605.1.15 (KHTML, like Gecko) Version/18.3.1 Safari/605.1.15",Macintosh,Safari,18.3.1,OS X,10_15_7,https://5puzkbbxv1.cognition.run/?sona_id=52246,"en-US,en;q=0.9",4s838lcm79l6sr6,19,"[""Asian""]",No,Female,NA,No,1008897,NA,null,<p></p>,null,choice,dct,trinary,repulsion_B,2,washing machines,null,null,null,null,null,null,2,NA,NA,NA,NA,NA,NA,NA,NA,NA,NA
NA,NA,NA,NA,NA,choice_trial,survey-html-form,81,692584,0.0-4.0-1.38,95,1,2025-04-29T18:48:30Z,b60275e29fe2361ab97ac0ac217840d7,"Mozilla/5.0 (Macintosh; Intel Mac OS X 10_15_7) AppleWebKit/605.1.15 (KHTML, like Gecko) Version/18.3.1 Safari/605.1.15",Macintosh,Safari,18.3.1,OS X,10_15_7,https://5puzkbbxv1.cognition.run/?sona_id=52246,"en-US,en;q=0.9",4s838lcm79l6sr6,19,"[""Asian""]",No,Female,NA,No,1008897,NA,17140,NA,"{""product_choice"":""C""}",choice,dct,trinary,repulsion_B,2,washing machines,null,null,null,null,null,null,2,40,30,40,90,100,80,Average lifespan,Energy savings,NA,NA
NA,NA,NA,NA,NA,choice_trial_setup,html-keyboard-response,82,692888,0.0-4.0-0.39,95,1,2025-04-29T18:48:30Z,b60275e29fe2361ab97ac0ac217840d7,"Mozilla/5.0 (Macintosh; Intel Mac OS X 10_15_7) AppleWebKit/605.1.15 (KHTML, like Gecko) Version/18.3.1 Safari/605.1.15",Macintosh,Safari,18.3.1,OS X,10_15_7,https://5puzkbbxv1.cognition.run/?sona_id=52246,"en-US,en;q=0.9",4s838lcm79l6sr6,19,"[""Asian""]",No,Female,NA,No,1008897,NA,null,<p></p>,null,choice,tc,binary,repulsion,1,laptops,null,null,null,null,null,null,2,NA,NA,NA,NA,NA,NA,NA,NA,NA,NA
NA,NA,NA,NA,NA,choice_trial,survey-html-form,83,699967,0.0-4.0-1.39,95,1,2025-04-29T18:48:30Z,b60275e29fe2361ab97ac0ac217840d7,"Mozilla/5.0 (Macintosh; Intel Mac OS X 10_15_7) AppleWebKit/605.1.15 (KHTML, like Gecko) Version/18.3.1 Safari/605.1.15",Macintosh,Safari,18.3.1,OS X,10_15_7,https://5puzkbbxv1.cognition.run/?sona_id=52246,"en-US,en;q=0.9",4s838lcm79l6sr6,19,"[""Asian""]",No,Female,NA,No,1008897,NA,7073,NA,"{""product_choice"":""B""}",choice,tc,binary,repulsion,1,laptops,null,null,null,null,null,null,2,100,90,null,30,40,null,Processing speed,Memory (RAM),NA,NA
NA,NA,NA,NA,NA,choice_trial_setup,html-keyboard-response,84,700272,0.0-4.0-0.40,95,1,2025-04-29T18:48:30Z,b60275e29fe2361ab97ac0ac217840d7,"Mozilla/5.0 (Macintosh; Intel Mac OS X 10_15_7) AppleWebKit/605.1.15 (KHTML, like Gecko) Version/18.3.1 Safari/605.1.15",Macintosh,Safari,18.3.1,OS X,10_15_7,https://5puzkbbxv1.cognition.run/?sona_id=52246,"en-US,en;q=0.9",4s838lcm79l6sr6,19,"[""Asian""]",No,Female,NA,No,1008897,NA,null,<p></p>,null,choice,wwb,trinary,catch,null,microwave ovens,50,55,50,5,10,30,2,NA,NA,NA,NA,NA,NA,NA,NA,NA,NA
NA,NA,NA,NA,NA,choice_trial,survey-html-form,85,708017,0.0-4.0-1.40,95,1,2025-04-29T18:48:30Z,b60275e29fe2361ab97ac0ac217840d7,"Mozilla/5.0 (Macintosh; Intel Mac OS X 10_15_7) AppleWebKit/605.1.15 (KHTML, like Gecko) Version/18.3.1 Safari/605.1.15",Macintosh,Safari,18.3.1,OS X,10_15_7,https://5puzkbbxv1.cognition.run/?sona_id=52246,"en-US,en;q=0.9",4s838lcm79l6sr6,19,"[""Asian""]",No,Female,NA,No,1008897,NA,7740,NA,"{""product_choice"":""C""}",choice,wwb,trinary,catch,null,microwave ovens,50,55,50,5,10,30,2,null,null,null,null,null,null,Warranty,Cooking power,NA,NA
NA,NA,NA,NA,NA,choice_trial_setup,html-keyboard-response,86,708321,0.0-4.0-0.41,95,1,2025-04-29T18:48:30Z,b60275e29fe2361ab97ac0ac217840d7,"Mozilla/5.0 (Macintosh; Intel Mac OS X 10_15_7) AppleWebKit/605.1.15 (KHTML, like Gecko) Version/18.3.1 Safari/605.1.15",Macintosh,Safari,18.3.1,OS X,10_15_7,https://5puzkbbxv1.cognition.run/?sona_id=52246,"en-US,en;q=0.9",4s838lcm79l6sr6,19,"[""Asian""]",No,Female,NA,No,1008897,NA,null,<p></p>,null,choice,wwb,trinary,catch,null,laptops,70,50,20,50,40,5,1,NA,NA,NA,NA,NA,NA,NA,NA,NA,NA
NA,NA,NA,NA,NA,choice_trial,survey-html-form,87,714668,0.0-4.0-1.41,95,1,2025-04-29T18:48:30Z,b60275e29fe2361ab97ac0ac217840d7,"Mozilla/5.0 (Macintosh; Intel Mac OS X 10_15_7) AppleWebKit/605.1.15 (KHTML, like Gecko) Version/18.3.1 Safari/605.1.15",Macintosh,Safari,18.3.1,OS X,10_15_7,https://5puzkbbxv1.cognition.run/?sona_id=52246,"en-US,en;q=0.9",4s838lcm79l6sr6,19,"[""Asian""]",No,Female,NA,No,1008897,NA,6341,NA,"{""product_choice"":""C""}",choice,wwb,trinary,catch,null,laptops,70,50,20,50,40,5,1,null,null,null,null,null,null,Processing speed,Memory (RAM),NA,NA
NA,NA,NA,NA,NA,choice_trial_setup,html-keyboard-response,88,714971,0.0-4.0-0.42,95,1,2025-04-29T18:48:30Z,b60275e29fe2361ab97ac0ac217840d7,"Mozilla/5.0 (Macintosh; Intel Mac OS X 10_15_7) AppleWebKit/605.1.15 (KHTML, like Gecko) Version/18.3.1 Safari/605.1.15",Macintosh,Safari,18.3.1,OS X,10_15_7,https://5puzkbbxv1.cognition.run/?sona_id=52246,"en-US,en;q=0.9",4s838lcm79l6sr6,19,"[""Asian""]",No,Female,NA,No,1008897,NA,null,<p></p>,null,choice,ctd,trinary,repulsion_B,2,laptops,null,null,null,null,null,null,1,NA,NA,NA,NA,NA,NA,NA,NA,NA,NA
NA,NA,NA,NA,NA,choice_trial,survey-html-form,89,723750,0.0-4.0-1.42,95,1,2025-04-29T18:48:30Z,b60275e29fe2361ab97ac0ac217840d7,"Mozilla/5.0 (Macintosh; Intel Mac OS X 10_15_7) AppleWebKit/605.1.15 (KHTML, like Gecko) Version/18.3.1 Safari/605.1.15",Macintosh,Safari,18.3.1,OS X,10_15_7,https://5puzkbbxv1.cognition.run/?sona_id=52246,"en-US,en;q=0.9",4s838lcm79l6sr6,19,"[""Asian""]",No,Female,NA,No,1008897,NA,8773,NA,"{""product_choice"":""B""}",choice,ctd,trinary,repulsion_B,2,laptops,null,null,null,null,null,null,1,40,30,40,90,100,80,Processing speed,Memory (RAM),NA,NA
NA,NA,NA,NA,NA,choice_trial_setup,html-keyboard-response,90,724055,0.0-4.0-0.43,95,1,2025-04-29T18:48:30Z,b60275e29fe2361ab97ac0ac217840d7,"Mozilla/5.0 (Macintosh; Intel Mac OS X 10_15_7) AppleWebKit/605.1.15 (KHTML, like Gecko) Version/18.3.1 Safari/605.1.15",Macintosh,Safari,18.3.1,OS X,10_15_7,https://5puzkbbxv1.cognition.run/?sona_id=52246,"en-US,en;q=0.9",4s838lcm79l6sr6,19,"[""Asian""]",No,Female,NA,No,1008897,NA,null,<p></p>,null,choice,cdt,trinary,repulsion_A,1,laptops,null,null,null,null,null,null,2,NA,NA,NA,NA,NA,NA,NA,NA,NA,NA
NA,NA,NA,NA,NA,choice_trial,survey-html-form,91,734683,0.0-4.0-1.43,95,1,2025-04-29T18:48:30Z,b60275e29fe2361ab97ac0ac217840d7,"Mozilla/5.0 (Macintosh; Intel Mac OS X 10_15_7) AppleWebKit/605.1.15 (KHTML, like Gecko) Version/18.3.1 Safari/605.1.15",Macintosh,Safari,18.3.1,OS X,10_15_7,https://5puzkbbxv1.cognition.run/?sona_id=52246,"en-US,en;q=0.9",4s838lcm79l6sr6,19,"[""Asian""]",No,Female,NA,No,1008897,NA,10624,NA,"{""product_choice"":""A""}",choice,cdt,trinary,repulsion_A,1,laptops,null,null,null,null,null,null,2,100,90,100,30,40,20,Processing speed,Memory (RAM),NA,NA
NA,NA,NA,NA,NA,post_trials_message,html-button-response,92,737067,0.0-5.0,95,1,2025-04-29T18:48:30Z,b60275e29fe2361ab97ac0ac217840d7,"Mozilla/5.0 (Macintosh; Intel Mac OS X 10_15_7) AppleWebKit/605.1.15 (KHTML, like Gecko) Version/18.3.1 Safari/605.1.15",Macintosh,Safari,18.3.1,OS X,10_15_7,https://5puzkbbxv1.cognition.run/?sona_id=52246,"en-US,en;q=0.9",4s838lcm79l6sr6,19,"[""Asian""]",No,Female,NA,No,1008897,NA,2378,<p> <b>Thank you for your patience!</b></p><p>  The study will be done after completing a brief form. </p>,0,NA,NA,NA,NA,NA,NA,NA,NA,NA,NA,NA,NA,NA,NA,NA,NA,NA,NA,NA,NA,NA,NA,NA
NA,NA,NA,NA,NA,survey_message,survey-text,93,955867,0.0-6.0,95,1,2025-04-29T18:48:30Z,b60275e29fe2361ab97ac0ac217840d7,"Mozilla/5.0 (Macintosh; Intel Mac OS X 10_15_7) AppleWebKit/605.1.15 (KHTML, like Gecko) Version/18.3.1 Safari/605.1.15",Macintosh,Safari,18.3.1,OS X,10_15_7,https://5puzkbbxv1.cognition.run/?sona_id=52246,"en-US,en;q=0.9",4s838lcm79l6sr6,19,"[""Asian""]",No,Female,NA,No,1008897,NA,218782,NA,"{""Q0"":""I tried to pick the products with the highest numbers all around, but when there were much lower numbers for one aspect of the product (usually below 50) and the higher numbers were 90 instead of 100 for example, I chose products with 90 instead of 100 because 90 is still fairly close to 100, meaning any product with that number is still very good. I would rather have a product with higher numbers overall than a product with one very high number and one very low one.""}",NA,NA,NA,NA,NA,NA,NA,NA,NA,NA,NA,NA,NA,NA,NA,NA,NA,NA,NA,NA,NA,"I tried to pick the products with the highest numbers all around, but when there were much lower numbers for one aspect of the product (usually below 50) and the higher numbers were 90 instead of 100 for example, I chose products with 90 instead of 100 because 90 is still fairly close to 100, meaning any product with that number is still very good. I would rather have a product with higher numbers overall than a product with one very high number and one very low one.",NA
NA,NA,NA,NA,NA,demo_age,survey-text,94,958351,0.0-7.0,95,1,2025-04-29T18:48:30Z,b60275e29fe2361ab97ac0ac217840d7,"Mozilla/5.0 (Macintosh; Intel Mac OS X 10_15_7) AppleWebKit/605.1.15 (KHTML, like Gecko) Version/18.3.1 Safari/605.1.15",Macintosh,Safari,18.3.1,OS X,10_15_7,https://5puzkbbxv1.cognition.run/?sona_id=52246,"en-US,en;q=0.9",4s838lcm79l6sr6,19,"[""Asian""]",No,Female,NA,No,1008897,NA,2475,NA,"{""Q0"":""19""}",NA,NA,NA,NA,NA,NA,NA,NA,NA,NA,NA,NA,NA,NA,NA,NA,NA,NA,NA,NA,NA,NA,NA
NA,NA,NA,NA,NA,demo_race,survey-multi-select,95,961370,0.0-8.0,95,1,2025-04-29T18:48:30Z,b60275e29fe2361ab97ac0ac217840d7,"Mozilla/5.0 (Macintosh; Intel Mac OS X 10_15_7) AppleWebKit/605.1.15 (KHTML, like Gecko) Version/18.3.1 Safari/605.1.15",Macintosh,Safari,18.3.1,OS X,10_15_7,https://5puzkbbxv1.cognition.run/?sona_id=52246,"en-US,en;q=0.9",4s838lcm79l6sr6,19,"[""Asian""]",No,Female,NA,No,1008897,NA,3013,NA,"{""Q0"":[""Asian""]}",NA,NA,NA,NA,NA,NA,NA,NA,NA,NA,NA,NA,NA,NA,NA,NA,NA,NA,NA,NA,NA,NA,[0]
NA,NA,NA,NA,NA,demo_ethnicity_gender,survey-multi-choice,96,965518,0.0-9.0,95,1,2025-04-29T18:48:30Z,b60275e29fe2361ab97ac0ac217840d7,"Mozilla/5.0 (Macintosh; Intel Mac OS X 10_15_7) AppleWebKit/605.1.15 (KHTML, like Gecko) Version/18.3.1 Safari/605.1.15",Macintosh,Safari,18.3.1,OS X,10_15_7,https://5puzkbbxv1.cognition.run/?sona_id=52246,"en-US,en;q=0.9",4s838lcm79l6sr6,19,"[""Asian""]",No,Female,NA,No,1008897,NA,4142,NA,"{""Q0"":""No"",""Q1"":""Female""}",NA,NA,NA,NA,NA,NA,NA,NA,NA,NA,NA,NA,NA,NA,NA,NA,NA,NA,NA,NA,NA,NA,"[0,1]"
NA,NA,NA,NA,NA,demo_countries,survey-text,97,970022,0.0-10.0,95,1,2025-04-29T18:48:30Z,b60275e29fe2361ab97ac0ac217840d7,"Mozilla/5.0 (Macintosh; Intel Mac OS X 10_15_7) AppleWebKit/605.1.15 (KHTML, like Gecko) Version/18.3.1 Safari/605.1.15",Macintosh,Safari,18.3.1,OS X,10_15_7,https://5puzkbbxv1.cognition.run/?sona_id=52246,"en-US,en;q=0.9",4s838lcm79l6sr6,19,"[""Asian""]",No,Female,NA,No,1008897,NA,4498,NA,"{""Q0"":""NA""}",NA,NA,NA,NA,NA,NA,NA,NA,NA,NA,NA,NA,NA,NA,NA,NA,NA,NA,NA,NA,NA,NA,NA
NA,NA,NA,NA,NA,demo_prev_study,survey-multi-choice,98,979167,0.0-11.0,95,1,2025-04-29T18:48:30Z,b60275e29fe2361ab97ac0ac217840d7,"Mozilla/5.0 (Macintosh; Intel Mac OS X 10_15_7) AppleWebKit/605.1.15 (KHTML, like Gecko) Version/18.3.1 Safari/605.1.15",Macintosh,Safari,18.3.1,OS X,10_15_7,https://5puzkbbxv1.cognition.run/?sona_id=52246,"en-US,en;q=0.9",4s838lcm79l6sr6,19,"[""Asian""]",No,Female,NA,No,1008897,NA,9140,NA,"{""Q0"":""No""}",NA,NA,NA,NA,NA,NA,NA,NA,NA,NA,NA,NA,NA,NA,NA,NA,NA,NA,NA,NA,NA,NA,[0]
NA,NA,NA,NA,NA,post_survey_message,html-keyboard-response,99,982391,0.0-12.0,95,1,2025-04-29T18:48:30Z,b60275e29fe2361ab97ac0ac217840d7,"Mozilla/5.0 (Macintosh; Intel Mac OS X 10_15_7) AppleWebKit/605.1.15 (KHTML, like Gecko) Version/18.3.1 Safari/605.1.15",Macintosh,Safari,18.3.1,OS X,10_15_7,https://5puzkbbxv1.cognition.run/?sona_id=52246,"en-US,en;q=0.9",4s838lcm79l6sr6,19,"[""Asian""]",No,Female,NA,No,1008897,NA,3218,NA,j,NA,NA,NA,NA,NA,NA,NA,NA,NA,NA,NA,NA,NA,NA,NA,NA,NA,NA,NA,NA,NA,NA,NA
NA,NA,NA,NA,NA,debrief,image-keyboard-response,100,1008898,0.0-13.0,95,1,2025-04-29T18:48:30Z,b60275e29fe2361ab97ac0ac217840d7,"Mozilla/5.0 (Macintosh; Intel Mac OS X 10_15_7) AppleWebKit/605.1.15 (KHTML, like Gecko) Version/18.3.1 Safari/605.1.15",Macintosh,Safari,18.3.1,OS X,10_15_7,https://5puzkbbxv1.cognition.run/?sona_id=52246,"en-US,en;q=0.9",4s838lcm79l6sr6,19,"[""Asian""]",No,Female,NA,No,1008897,NA,26475,Judg_choice_debrief.png,p,NA,NA,NA,NA,NA,NA,NA,NA,NA,NA,NA,NA,NA,NA,NA,NA,NA,NA,NA,NA,NA,NA,NA
