success,timeout,failed_images,failed_audio,failed_video,screen_id,trial_type,trial_index,time_elapsed,internal_node_id,run_id,condition,recorded_at,source_code_version,user_agent,device,browser,browser_version,platform,platform_version,referer,accept_language,ppt_id,age,race,ethnicity,gender,other_countries,prev_study,exp_duration,view_history,rt,stimulus,response,phase,order,set,effect,t_high,category,d1_best,d2_best,d1_worst1,d2_worst1,d1_worst2,d2_worst2,first_dim,d1_t,d1_c,d1_d,d2_t,d2_c,d2_d,d1_name,d2_name,strategy_response,question_order
TRUE,FALSE,[],[],[],img preload,preload,0,335,0.0-0.0,97,1,2025-04-29T20:07:59Z,b60275e29fe2361ab97ac0ac217840d7,"Mozilla/5.0 (Macintosh; Intel Mac OS X 10_15_7) AppleWebKit/537.36 (KHTML, like Gecko) Chrome/128.0.0.0 Safari/537.36",Macintosh,Chrome,128.0.0.0,OS X,10_15_7,https://5puzkbbxv1.cognition.run/?sona_id=57138,"en-US,en;q=0.9",ulyb44ok4p9az61,20,"[""White""]",No,Male,na,No,224376.40000000224,NA,NA,NA,NA,NA,NA,NA,NA,NA,NA,NA,NA,NA,NA,NA,NA,NA,NA,NA,NA,NA,NA,NA,NA,NA,NA,NA
NA,NA,NA,NA,NA,computer_message,instructions,1,1527,0.0-1.0,97,1,2025-04-29T20:07:59Z,b60275e29fe2361ab97ac0ac217840d7,"Mozilla/5.0 (Macintosh; Intel Mac OS X 10_15_7) AppleWebKit/537.36 (KHTML, like Gecko) Chrome/128.0.0.0 Safari/537.36",Macintosh,Chrome,128.0.0.0,OS X,10_15_7,https://5puzkbbxv1.cognition.run/?sona_id=57138,"en-US,en;q=0.9",ulyb44ok4p9az61,20,"[""White""]",No,Male,na,No,224376.40000000224,"[{""page_index"":0,""viewing_time"":1188}]",1189,NA,NA,NA,NA,NA,NA,NA,NA,NA,NA,NA,NA,NA,NA,NA,NA,NA,NA,NA,NA,NA,NA,NA,NA,NA
TRUE,NA,NA,NA,NA,NA,fullscreen,2,3265,0.0-2.0,97,1,2025-04-29T20:07:59Z,b60275e29fe2361ab97ac0ac217840d7,"Mozilla/5.0 (Macintosh; Intel Mac OS X 10_15_7) AppleWebKit/537.36 (KHTML, like Gecko) Chrome/128.0.0.0 Safari/537.36",Macintosh,Chrome,128.0.0.0,OS X,10_15_7,https://5puzkbbxv1.cognition.run/?sona_id=57138,"en-US,en;q=0.9",ulyb44ok4p9az61,20,"[""White""]",No,Male,na,No,224376.40000000224,NA,735,NA,NA,NA,NA,NA,NA,NA,NA,NA,NA,NA,NA,NA,NA,NA,NA,NA,NA,NA,NA,NA,NA,NA,NA,NA
NA,NA,NA,NA,NA,choice_instructions,instructions,3,19285,0.0-3.0,97,1,2025-04-29T20:07:59Z,b60275e29fe2361ab97ac0ac217840d7,"Mozilla/5.0 (Macintosh; Intel Mac OS X 10_15_7) AppleWebKit/537.36 (KHTML, like Gecko) Chrome/128.0.0.0 Safari/537.36",Macintosh,Chrome,128.0.0.0,OS X,10_15_7,https://5puzkbbxv1.cognition.run/?sona_id=57138,"en-US,en;q=0.9",ulyb44ok4p9az61,20,"[""White""]",No,Male,na,No,224376.40000000224,"[{""page_index"":0,""viewing_time"":921},{""page_index"":1,""viewing_time"":914},{""page_index"":2,""viewing_time"":770},{""page_index"":3,""viewing_time"":785},{""page_index"":4,""viewing_time"":810},{""page_index"":5,""viewing_time"":10636},{""page_index"":6,""viewing_time"":1182}]",16018,NA,NA,NA,NA,NA,NA,NA,NA,NA,NA,NA,NA,NA,NA,NA,NA,NA,NA,NA,NA,NA,NA,NA,NA,NA
NA,NA,NA,NA,NA,choice_trial_setup,html-keyboard-response,4,19590,0.0-4.0-0.0,97,1,2025-04-29T20:07:59Z,b60275e29fe2361ab97ac0ac217840d7,"Mozilla/5.0 (Macintosh; Intel Mac OS X 10_15_7) AppleWebKit/537.36 (KHTML, like Gecko) Chrome/128.0.0.0 Safari/537.36",Macintosh,Chrome,128.0.0.0,OS X,10_15_7,https://5puzkbbxv1.cognition.run/?sona_id=57138,"en-US,en;q=0.9",ulyb44ok4p9az61,20,"[""White""]",No,Male,na,No,224376.40000000224,NA,null,<p></p>,null,choice,tdc,trinary,repulsion_B,2,washing machines,null,null,null,null,null,null,2,NA,NA,NA,NA,NA,NA,NA,NA,NA,NA
NA,NA,NA,NA,NA,choice_trial,survey-html-form,5,23591,0.0-4.0-1.0,97,1,2025-04-29T20:07:59Z,b60275e29fe2361ab97ac0ac217840d7,"Mozilla/5.0 (Macintosh; Intel Mac OS X 10_15_7) AppleWebKit/537.36 (KHTML, like Gecko) Chrome/128.0.0.0 Safari/537.36",Macintosh,Chrome,128.0.0.0,OS X,10_15_7,https://5puzkbbxv1.cognition.run/?sona_id=57138,"en-US,en;q=0.9",ulyb44ok4p9az61,20,"[""White""]",No,Male,na,No,224376.40000000224,NA,3996,NA,"{""product_choice"":""C""}",choice,tdc,trinary,repulsion_B,2,washing machines,null,null,null,null,null,null,2,40,30,40,90,100,80,Average lifespan,Energy savings,NA,NA
NA,NA,NA,NA,NA,choice_trial_setup,html-keyboard-response,6,23894,0.0-4.0-0.1,97,1,2025-04-29T20:07:59Z,b60275e29fe2361ab97ac0ac217840d7,"Mozilla/5.0 (Macintosh; Intel Mac OS X 10_15_7) AppleWebKit/537.36 (KHTML, like Gecko) Chrome/128.0.0.0 Safari/537.36",Macintosh,Chrome,128.0.0.0,OS X,10_15_7,https://5puzkbbxv1.cognition.run/?sona_id=57138,"en-US,en;q=0.9",ulyb44ok4p9az61,20,"[""White""]",No,Male,na,No,224376.40000000224,NA,null,<p></p>,null,choice,bw,binary,catch,null,washing machines,85,85,50,40,null,null,1,NA,NA,NA,NA,NA,NA,NA,NA,NA,NA
NA,NA,NA,NA,NA,choice_trial,survey-html-form,7,25699,0.0-4.0-1.1,97,1,2025-04-29T20:07:59Z,b60275e29fe2361ab97ac0ac217840d7,"Mozilla/5.0 (Macintosh; Intel Mac OS X 10_15_7) AppleWebKit/537.36 (KHTML, like Gecko) Chrome/128.0.0.0 Safari/537.36",Macintosh,Chrome,128.0.0.0,OS X,10_15_7,https://5puzkbbxv1.cognition.run/?sona_id=57138,"en-US,en;q=0.9",ulyb44ok4p9az61,20,"[""White""]",No,Male,na,No,224376.40000000224,NA,1802,NA,"{""product_choice"":""A""}",choice,bw,binary,catch,null,washing machines,85,85,50,40,null,null,1,null,null,null,null,null,null,Average lifespan,Energy savings,NA,NA
NA,NA,NA,NA,NA,choice_trial_setup,html-keyboard-response,8,26002,0.0-4.0-0.2,97,1,2025-04-29T20:07:59Z,b60275e29fe2361ab97ac0ac217840d7,"Mozilla/5.0 (Macintosh; Intel Mac OS X 10_15_7) AppleWebKit/537.36 (KHTML, like Gecko) Chrome/128.0.0.0 Safari/537.36",Macintosh,Chrome,128.0.0.0,OS X,10_15_7,https://5puzkbbxv1.cognition.run/?sona_id=57138,"en-US,en;q=0.9",ulyb44ok4p9az61,20,"[""White""]",No,Male,na,No,224376.40000000224,NA,null,<p></p>,null,choice,tdc,trinary,attraction,1,washing machines,null,null,null,null,null,null,1,NA,NA,NA,NA,NA,NA,NA,NA,NA,NA
NA,NA,NA,NA,NA,choice_trial,survey-html-form,9,27665,0.0-4.0-1.2,97,1,2025-04-29T20:07:59Z,b60275e29fe2361ab97ac0ac217840d7,"Mozilla/5.0 (Macintosh; Intel Mac OS X 10_15_7) AppleWebKit/537.36 (KHTML, like Gecko) Chrome/128.0.0.0 Safari/537.36",Macintosh,Chrome,128.0.0.0,OS X,10_15_7,https://5puzkbbxv1.cognition.run/?sona_id=57138,"en-US,en;q=0.9",ulyb44ok4p9az61,20,"[""White""]",No,Male,na,No,224376.40000000224,NA,1660,NA,"{""product_choice"":""B""}",choice,tdc,trinary,attraction,1,washing machines,null,null,null,null,null,null,1,60,50,60,50,60,40,Average lifespan,Energy savings,NA,NA
NA,NA,NA,NA,NA,choice_trial_setup,html-keyboard-response,10,27968,0.0-4.0-0.3,97,1,2025-04-29T20:07:59Z,b60275e29fe2361ab97ac0ac217840d7,"Mozilla/5.0 (Macintosh; Intel Mac OS X 10_15_7) AppleWebKit/537.36 (KHTML, like Gecko) Chrome/128.0.0.0 Safari/537.36",Macintosh,Chrome,128.0.0.0,OS X,10_15_7,https://5puzkbbxv1.cognition.run/?sona_id=57138,"en-US,en;q=0.9",ulyb44ok4p9az61,20,"[""White""]",No,Male,na,No,224376.40000000224,NA,null,<p></p>,null,choice,wwb,trinary,catch,null,washing machines,50,80,5,5,20,25,1,NA,NA,NA,NA,NA,NA,NA,NA,NA,NA
NA,NA,NA,NA,NA,choice_trial,survey-html-form,11,29804,0.0-4.0-1.3,97,1,2025-04-29T20:07:59Z,b60275e29fe2361ab97ac0ac217840d7,"Mozilla/5.0 (Macintosh; Intel Mac OS X 10_15_7) AppleWebKit/537.36 (KHTML, like Gecko) Chrome/128.0.0.0 Safari/537.36",Macintosh,Chrome,128.0.0.0,OS X,10_15_7,https://5puzkbbxv1.cognition.run/?sona_id=57138,"en-US,en;q=0.9",ulyb44ok4p9az61,20,"[""White""]",No,Male,na,No,224376.40000000224,NA,1833,NA,"{""product_choice"":""C""}",choice,wwb,trinary,catch,null,washing machines,50,80,5,5,20,25,1,null,null,null,null,null,null,Average lifespan,Energy savings,NA,NA
NA,NA,NA,NA,NA,choice_trial_setup,html-keyboard-response,12,30107,0.0-4.0-0.4,97,1,2025-04-29T20:07:59Z,b60275e29fe2361ab97ac0ac217840d7,"Mozilla/5.0 (Macintosh; Intel Mac OS X 10_15_7) AppleWebKit/537.36 (KHTML, like Gecko) Chrome/128.0.0.0 Safari/537.36",Macintosh,Chrome,128.0.0.0,OS X,10_15_7,https://5puzkbbxv1.cognition.run/?sona_id=57138,"en-US,en;q=0.9",ulyb44ok4p9az61,20,"[""White""]",No,Male,na,No,224376.40000000224,NA,null,<p></p>,null,choice,dct,trinary,repulsion_B,1,washing machines,null,null,null,null,null,null,2,NA,NA,NA,NA,NA,NA,NA,NA,NA,NA
NA,NA,NA,NA,NA,choice_trial,survey-html-form,13,34662,0.0-4.0-1.4,97,1,2025-04-29T20:07:59Z,b60275e29fe2361ab97ac0ac217840d7,"Mozilla/5.0 (Macintosh; Intel Mac OS X 10_15_7) AppleWebKit/537.36 (KHTML, like Gecko) Chrome/128.0.0.0 Safari/537.36",Macintosh,Chrome,128.0.0.0,OS X,10_15_7,https://5puzkbbxv1.cognition.run/?sona_id=57138,"en-US,en;q=0.9",ulyb44ok4p9az61,20,"[""White""]",No,Male,na,No,224376.40000000224,NA,4552,NA,"{""product_choice"":""C""}",choice,dct,trinary,repulsion_B,1,washing machines,null,null,null,null,null,null,2,90,100,80,40,30,40,Average lifespan,Energy savings,NA,NA
NA,NA,NA,NA,NA,choice_trial_setup,html-keyboard-response,14,34965,0.0-4.0-0.5,97,1,2025-04-29T20:07:59Z,b60275e29fe2361ab97ac0ac217840d7,"Mozilla/5.0 (Macintosh; Intel Mac OS X 10_15_7) AppleWebKit/537.36 (KHTML, like Gecko) Chrome/128.0.0.0 Safari/537.36",Macintosh,Chrome,128.0.0.0,OS X,10_15_7,https://5puzkbbxv1.cognition.run/?sona_id=57138,"en-US,en;q=0.9",ulyb44ok4p9az61,20,"[""White""]",No,Male,na,No,224376.40000000224,NA,null,<p></p>,null,choice,tcd,trinary,repulsion_A,2,microwave ovens,null,null,null,null,null,null,2,NA,NA,NA,NA,NA,NA,NA,NA,NA,NA
NA,NA,NA,NA,NA,choice_trial,survey-html-form,15,40323,0.0-4.0-1.5,97,1,2025-04-29T20:07:59Z,b60275e29fe2361ab97ac0ac217840d7,"Mozilla/5.0 (Macintosh; Intel Mac OS X 10_15_7) AppleWebKit/537.36 (KHTML, like Gecko) Chrome/128.0.0.0 Safari/537.36",Macintosh,Chrome,128.0.0.0,OS X,10_15_7,https://5puzkbbxv1.cognition.run/?sona_id=57138,"en-US,en;q=0.9",ulyb44ok4p9az61,20,"[""White""]",No,Male,na,No,224376.40000000224,NA,5355,NA,"{""product_choice"":""B""}",choice,tcd,trinary,repulsion_A,2,microwave ovens,null,null,null,null,null,null,2,30,40,20,100,90,100,Warranty,Cooking power,NA,NA
NA,NA,NA,NA,NA,choice_trial_setup,html-keyboard-response,16,40627,0.0-4.0-0.6,97,1,2025-04-29T20:07:59Z,b60275e29fe2361ab97ac0ac217840d7,"Mozilla/5.0 (Macintosh; Intel Mac OS X 10_15_7) AppleWebKit/537.36 (KHTML, like Gecko) Chrome/128.0.0.0 Safari/537.36",Macintosh,Chrome,128.0.0.0,OS X,10_15_7,https://5puzkbbxv1.cognition.run/?sona_id=57138,"en-US,en;q=0.9",ulyb44ok4p9az61,20,"[""White""]",No,Male,na,No,224376.40000000224,NA,null,<p></p>,null,choice,tc,binary,repulsion,1,laptops,null,null,null,null,null,null,1,NA,NA,NA,NA,NA,NA,NA,NA,NA,NA
NA,NA,NA,NA,NA,choice_trial,survey-html-form,17,43891,0.0-4.0-1.6,97,1,2025-04-29T20:07:59Z,b60275e29fe2361ab97ac0ac217840d7,"Mozilla/5.0 (Macintosh; Intel Mac OS X 10_15_7) AppleWebKit/537.36 (KHTML, like Gecko) Chrome/128.0.0.0 Safari/537.36",Macintosh,Chrome,128.0.0.0,OS X,10_15_7,https://5puzkbbxv1.cognition.run/?sona_id=57138,"en-US,en;q=0.9",ulyb44ok4p9az61,20,"[""White""]",No,Male,na,No,224376.40000000224,NA,3260,NA,"{""product_choice"":""B""}",choice,tc,binary,repulsion,1,laptops,null,null,null,null,null,null,1,100,90,null,30,40,null,Processing speed,Memory (RAM),NA,NA
NA,NA,NA,NA,NA,choice_trial_setup,html-keyboard-response,18,44194,0.0-4.0-0.7,97,1,2025-04-29T20:07:59Z,b60275e29fe2361ab97ac0ac217840d7,"Mozilla/5.0 (Macintosh; Intel Mac OS X 10_15_7) AppleWebKit/537.36 (KHTML, like Gecko) Chrome/128.0.0.0 Safari/537.36",Macintosh,Chrome,128.0.0.0,OS X,10_15_7,https://5puzkbbxv1.cognition.run/?sona_id=57138,"en-US,en;q=0.9",ulyb44ok4p9az61,20,"[""White""]",No,Male,na,No,224376.40000000224,NA,null,<p></p>,null,choice,tc,binary,attraction,NA,washing machines,null,null,null,null,null,null,2,NA,NA,NA,NA,NA,NA,NA,NA,NA,NA
NA,NA,NA,NA,NA,choice_trial,survey-html-form,19,46586,0.0-4.0-1.7,97,1,2025-04-29T20:07:59Z,b60275e29fe2361ab97ac0ac217840d7,"Mozilla/5.0 (Macintosh; Intel Mac OS X 10_15_7) AppleWebKit/537.36 (KHTML, like Gecko) Chrome/128.0.0.0 Safari/537.36",Macintosh,Chrome,128.0.0.0,OS X,10_15_7,https://5puzkbbxv1.cognition.run/?sona_id=57138,"en-US,en;q=0.9",ulyb44ok4p9az61,20,"[""White""]",No,Male,na,No,224376.40000000224,NA,2389,NA,"{""product_choice"":""B""}",choice,tc,binary,attraction,NA,washing machines,null,null,null,null,null,null,2,60,50,null,50,60,null,Average lifespan,Energy savings,NA,NA
NA,NA,NA,NA,NA,choice_trial_setup,html-keyboard-response,20,46890,0.0-4.0-0.8,97,1,2025-04-29T20:07:59Z,b60275e29fe2361ab97ac0ac217840d7,"Mozilla/5.0 (Macintosh; Intel Mac OS X 10_15_7) AppleWebKit/537.36 (KHTML, like Gecko) Chrome/128.0.0.0 Safari/537.36",Macintosh,Chrome,128.0.0.0,OS X,10_15_7,https://5puzkbbxv1.cognition.run/?sona_id=57138,"en-US,en;q=0.9",ulyb44ok4p9az61,20,"[""White""]",No,Male,na,No,224376.40000000224,NA,null,<p></p>,null,choice,tc,binary,repulsion,2,laptops,null,null,null,null,null,null,2,NA,NA,NA,NA,NA,NA,NA,NA,NA,NA
NA,NA,NA,NA,NA,choice_trial,survey-html-form,21,50217,0.0-4.0-1.8,97,1,2025-04-29T20:07:59Z,b60275e29fe2361ab97ac0ac217840d7,"Mozilla/5.0 (Macintosh; Intel Mac OS X 10_15_7) AppleWebKit/537.36 (KHTML, like Gecko) Chrome/128.0.0.0 Safari/537.36",Macintosh,Chrome,128.0.0.0,OS X,10_15_7,https://5puzkbbxv1.cognition.run/?sona_id=57138,"en-US,en;q=0.9",ulyb44ok4p9az61,20,"[""White""]",No,Male,na,No,224376.40000000224,NA,3325,NA,"{""product_choice"":""B""}",choice,tc,binary,repulsion,2,laptops,null,null,null,null,null,null,2,30,40,null,100,90,null,Processing speed,Memory (RAM),NA,NA
NA,NA,NA,NA,NA,choice_trial_setup,html-keyboard-response,22,50521,0.0-4.0-0.9,97,1,2025-04-29T20:07:59Z,b60275e29fe2361ab97ac0ac217840d7,"Mozilla/5.0 (Macintosh; Intel Mac OS X 10_15_7) AppleWebKit/537.36 (KHTML, like Gecko) Chrome/128.0.0.0 Safari/537.36",Macintosh,Chrome,128.0.0.0,OS X,10_15_7,https://5puzkbbxv1.cognition.run/?sona_id=57138,"en-US,en;q=0.9",ulyb44ok4p9az61,20,"[""White""]",No,Male,na,No,224376.40000000224,NA,null,<p></p>,null,choice,ctd,trinary,repulsion_A,2,laptops,null,null,null,null,null,null,1,NA,NA,NA,NA,NA,NA,NA,NA,NA,NA
NA,NA,NA,NA,NA,choice_trial,survey-html-form,23,55332,0.0-4.0-1.9,97,1,2025-04-29T20:07:59Z,b60275e29fe2361ab97ac0ac217840d7,"Mozilla/5.0 (Macintosh; Intel Mac OS X 10_15_7) AppleWebKit/537.36 (KHTML, like Gecko) Chrome/128.0.0.0 Safari/537.36",Macintosh,Chrome,128.0.0.0,OS X,10_15_7,https://5puzkbbxv1.cognition.run/?sona_id=57138,"en-US,en;q=0.9",ulyb44ok4p9az61,20,"[""White""]",No,Male,na,No,224376.40000000224,NA,4809,NA,"{""product_choice"":""A""}",choice,ctd,trinary,repulsion_A,2,laptops,null,null,null,null,null,null,1,30,40,20,100,90,100,Processing speed,Memory (RAM),NA,NA
NA,NA,NA,NA,NA,choice_trial_setup,html-keyboard-response,24,55635,0.0-4.0-0.10,97,1,2025-04-29T20:07:59Z,b60275e29fe2361ab97ac0ac217840d7,"Mozilla/5.0 (Macintosh; Intel Mac OS X 10_15_7) AppleWebKit/537.36 (KHTML, like Gecko) Chrome/128.0.0.0 Safari/537.36",Macintosh,Chrome,128.0.0.0,OS X,10_15_7,https://5puzkbbxv1.cognition.run/?sona_id=57138,"en-US,en;q=0.9",ulyb44ok4p9az61,20,"[""White""]",No,Male,na,No,224376.40000000224,NA,null,<p></p>,null,choice,wb,binary,catch,null,televisions,85,85,5,40,null,null,2,NA,NA,NA,NA,NA,NA,NA,NA,NA,NA
NA,NA,NA,NA,NA,choice_trial,survey-html-form,25,58379,0.0-4.0-1.10,97,1,2025-04-29T20:07:59Z,b60275e29fe2361ab97ac0ac217840d7,"Mozilla/5.0 (Macintosh; Intel Mac OS X 10_15_7) AppleWebKit/537.36 (KHTML, like Gecko) Chrome/128.0.0.0 Safari/537.36",Macintosh,Chrome,128.0.0.0,OS X,10_15_7,https://5puzkbbxv1.cognition.run/?sona_id=57138,"en-US,en;q=0.9",ulyb44ok4p9az61,20,"[""White""]",No,Male,na,No,224376.40000000224,NA,2739,NA,"{""product_choice"":""B""}",choice,wb,binary,catch,null,televisions,85,85,5,40,null,null,2,null,null,null,null,null,null,Screen size,Average lifespan,NA,NA
NA,NA,NA,NA,NA,choice_trial_setup,html-keyboard-response,26,58682,0.0-4.0-0.11,97,1,2025-04-29T20:07:59Z,b60275e29fe2361ab97ac0ac217840d7,"Mozilla/5.0 (Macintosh; Intel Mac OS X 10_15_7) AppleWebKit/537.36 (KHTML, like Gecko) Chrome/128.0.0.0 Safari/537.36",Macintosh,Chrome,128.0.0.0,OS X,10_15_7,https://5puzkbbxv1.cognition.run/?sona_id=57138,"en-US,en;q=0.9",ulyb44ok4p9az61,20,"[""White""]",No,Male,na,No,224376.40000000224,NA,null,<p></p>,null,choice,dct,trinary,attraction,1,microwave ovens,null,null,null,null,null,null,1,NA,NA,NA,NA,NA,NA,NA,NA,NA,NA
NA,NA,NA,NA,NA,choice_trial,survey-html-form,27,61529,0.0-4.0-1.11,97,1,2025-04-29T20:07:59Z,b60275e29fe2361ab97ac0ac217840d7,"Mozilla/5.0 (Macintosh; Intel Mac OS X 10_15_7) AppleWebKit/537.36 (KHTML, like Gecko) Chrome/128.0.0.0 Safari/537.36",Macintosh,Chrome,128.0.0.0,OS X,10_15_7,https://5puzkbbxv1.cognition.run/?sona_id=57138,"en-US,en;q=0.9",ulyb44ok4p9az61,20,"[""White""]",No,Male,na,No,224376.40000000224,NA,2843,NA,"{""product_choice"":""C""}",choice,dct,trinary,attraction,1,microwave ovens,null,null,null,null,null,null,1,60,50,60,50,60,40,Warranty,Cooking power,NA,NA
NA,NA,NA,NA,NA,choice_trial_setup,html-keyboard-response,28,61832,0.0-4.0-0.12,97,1,2025-04-29T20:07:59Z,b60275e29fe2361ab97ac0ac217840d7,"Mozilla/5.0 (Macintosh; Intel Mac OS X 10_15_7) AppleWebKit/537.36 (KHTML, like Gecko) Chrome/128.0.0.0 Safari/537.36",Macintosh,Chrome,128.0.0.0,OS X,10_15_7,https://5puzkbbxv1.cognition.run/?sona_id=57138,"en-US,en;q=0.9",ulyb44ok4p9az61,20,"[""White""]",No,Male,na,No,224376.40000000224,NA,null,<p></p>,null,choice,tdc,trinary,attraction,1,televisions,null,null,null,null,null,null,2,NA,NA,NA,NA,NA,NA,NA,NA,NA,NA
NA,NA,NA,NA,NA,choice_trial,survey-html-form,29,65162,0.0-4.0-1.12,97,1,2025-04-29T20:07:59Z,b60275e29fe2361ab97ac0ac217840d7,"Mozilla/5.0 (Macintosh; Intel Mac OS X 10_15_7) AppleWebKit/537.36 (KHTML, like Gecko) Chrome/128.0.0.0 Safari/537.36",Macintosh,Chrome,128.0.0.0,OS X,10_15_7,https://5puzkbbxv1.cognition.run/?sona_id=57138,"en-US,en;q=0.9",ulyb44ok4p9az61,20,"[""White""]",No,Male,na,No,224376.40000000224,NA,3326,NA,"{""product_choice"":""A""}",choice,tdc,trinary,attraction,1,televisions,null,null,null,null,null,null,2,60,50,60,50,60,40,Screen size,Average lifespan,NA,NA
NA,NA,NA,NA,NA,choice_trial_setup,html-keyboard-response,30,65466,0.0-4.0-0.13,97,1,2025-04-29T20:07:59Z,b60275e29fe2361ab97ac0ac217840d7,"Mozilla/5.0 (Macintosh; Intel Mac OS X 10_15_7) AppleWebKit/537.36 (KHTML, like Gecko) Chrome/128.0.0.0 Safari/537.36",Macintosh,Chrome,128.0.0.0,OS X,10_15_7,https://5puzkbbxv1.cognition.run/?sona_id=57138,"en-US,en;q=0.9",ulyb44ok4p9az61,20,"[""White""]",No,Male,na,No,224376.40000000224,NA,null,<p></p>,null,choice,bww,trinary,catch,null,laptops,90,80,15,30,50,5,1,NA,NA,NA,NA,NA,NA,NA,NA,NA,NA
NA,NA,NA,NA,NA,choice_trial,survey-html-form,31,68065,0.0-4.0-1.13,97,1,2025-04-29T20:07:59Z,b60275e29fe2361ab97ac0ac217840d7,"Mozilla/5.0 (Macintosh; Intel Mac OS X 10_15_7) AppleWebKit/537.36 (KHTML, like Gecko) Chrome/128.0.0.0 Safari/537.36",Macintosh,Chrome,128.0.0.0,OS X,10_15_7,https://5puzkbbxv1.cognition.run/?sona_id=57138,"en-US,en;q=0.9",ulyb44ok4p9az61,20,"[""White""]",No,Male,na,No,224376.40000000224,NA,2593,NA,"{""product_choice"":""A""}",choice,bww,trinary,catch,null,laptops,90,80,15,30,50,5,1,null,null,null,null,null,null,Processing speed,Memory (RAM),NA,NA
NA,NA,NA,NA,NA,choice_trial_setup,html-keyboard-response,32,68369,0.0-4.0-0.14,97,1,2025-04-29T20:07:59Z,b60275e29fe2361ab97ac0ac217840d7,"Mozilla/5.0 (Macintosh; Intel Mac OS X 10_15_7) AppleWebKit/537.36 (KHTML, like Gecko) Chrome/128.0.0.0 Safari/537.36",Macintosh,Chrome,128.0.0.0,OS X,10_15_7,https://5puzkbbxv1.cognition.run/?sona_id=57138,"en-US,en;q=0.9",ulyb44ok4p9az61,20,"[""White""]",No,Male,na,No,224376.40000000224,NA,null,<p></p>,null,choice,dct,trinary,repulsion_B,1,televisions,null,null,null,null,null,null,2,NA,NA,NA,NA,NA,NA,NA,NA,NA,NA
NA,NA,NA,NA,NA,choice_trial,survey-html-form,33,72523,0.0-4.0-1.14,97,1,2025-04-29T20:07:59Z,b60275e29fe2361ab97ac0ac217840d7,"Mozilla/5.0 (Macintosh; Intel Mac OS X 10_15_7) AppleWebKit/537.36 (KHTML, like Gecko) Chrome/128.0.0.0 Safari/537.36",Macintosh,Chrome,128.0.0.0,OS X,10_15_7,https://5puzkbbxv1.cognition.run/?sona_id=57138,"en-US,en;q=0.9",ulyb44ok4p9az61,20,"[""White""]",No,Male,na,No,224376.40000000224,NA,4150,NA,"{""product_choice"":""C""}",choice,dct,trinary,repulsion_B,1,televisions,null,null,null,null,null,null,2,90,100,80,40,30,40,Screen size,Average lifespan,NA,NA
NA,NA,NA,NA,NA,choice_trial_setup,html-keyboard-response,34,72827,0.0-4.0-0.15,97,1,2025-04-29T20:07:59Z,b60275e29fe2361ab97ac0ac217840d7,"Mozilla/5.0 (Macintosh; Intel Mac OS X 10_15_7) AppleWebKit/537.36 (KHTML, like Gecko) Chrome/128.0.0.0 Safari/537.36",Macintosh,Chrome,128.0.0.0,OS X,10_15_7,https://5puzkbbxv1.cognition.run/?sona_id=57138,"en-US,en;q=0.9",ulyb44ok4p9az61,20,"[""White""]",No,Male,na,No,224376.40000000224,NA,null,<p></p>,null,choice,ct,binary,attraction,NA,microwave ovens,null,null,null,null,null,null,1,NA,NA,NA,NA,NA,NA,NA,NA,NA,NA
NA,NA,NA,NA,NA,choice_trial,survey-html-form,35,74920,0.0-4.0-1.15,97,1,2025-04-29T20:07:59Z,b60275e29fe2361ab97ac0ac217840d7,"Mozilla/5.0 (Macintosh; Intel Mac OS X 10_15_7) AppleWebKit/537.36 (KHTML, like Gecko) Chrome/128.0.0.0 Safari/537.36",Macintosh,Chrome,128.0.0.0,OS X,10_15_7,https://5puzkbbxv1.cognition.run/?sona_id=57138,"en-US,en;q=0.9",ulyb44ok4p9az61,20,"[""White""]",No,Male,na,No,224376.40000000224,NA,2088,NA,"{""product_choice"":""B""}",choice,ct,binary,attraction,NA,microwave ovens,null,null,null,null,null,null,1,60,50,null,50,60,null,Warranty,Cooking power,NA,NA
NA,NA,NA,NA,NA,choice_trial_setup,html-keyboard-response,36,75224,0.0-4.0-0.16,97,1,2025-04-29T20:07:59Z,b60275e29fe2361ab97ac0ac217840d7,"Mozilla/5.0 (Macintosh; Intel Mac OS X 10_15_7) AppleWebKit/537.36 (KHTML, like Gecko) Chrome/128.0.0.0 Safari/537.36",Macintosh,Chrome,128.0.0.0,OS X,10_15_7,https://5puzkbbxv1.cognition.run/?sona_id=57138,"en-US,en;q=0.9",ulyb44ok4p9az61,20,"[""White""]",No,Male,na,No,224376.40000000224,NA,null,<p></p>,null,choice,tc,binary,repulsion,2,microwave ovens,null,null,null,null,null,null,1,NA,NA,NA,NA,NA,NA,NA,NA,NA,NA
NA,NA,NA,NA,NA,choice_trial,survey-html-form,37,79497,0.0-4.0-1.16,97,1,2025-04-29T20:07:59Z,b60275e29fe2361ab97ac0ac217840d7,"Mozilla/5.0 (Macintosh; Intel Mac OS X 10_15_7) AppleWebKit/537.36 (KHTML, like Gecko) Chrome/128.0.0.0 Safari/537.36",Macintosh,Chrome,128.0.0.0,OS X,10_15_7,https://5puzkbbxv1.cognition.run/?sona_id=57138,"en-US,en;q=0.9",ulyb44ok4p9az61,20,"[""White""]",No,Male,na,No,224376.40000000224,NA,4269,NA,"{""product_choice"":""B""}",choice,tc,binary,repulsion,2,microwave ovens,null,null,null,null,null,null,1,30,40,null,100,90,null,Warranty,Cooking power,NA,NA
NA,NA,NA,NA,NA,choice_trial_setup,html-keyboard-response,38,79799,0.0-4.0-0.17,97,1,2025-04-29T20:07:59Z,b60275e29fe2361ab97ac0ac217840d7,"Mozilla/5.0 (Macintosh; Intel Mac OS X 10_15_7) AppleWebKit/537.36 (KHTML, like Gecko) Chrome/128.0.0.0 Safari/537.36",Macintosh,Chrome,128.0.0.0,OS X,10_15_7,https://5puzkbbxv1.cognition.run/?sona_id=57138,"en-US,en;q=0.9",ulyb44ok4p9az61,20,"[""White""]",No,Male,na,No,224376.40000000224,NA,null,<p></p>,null,choice,dtc,trinary,repulsion_B,2,laptops,null,null,null,null,null,null,1,NA,NA,NA,NA,NA,NA,NA,NA,NA,NA
NA,NA,NA,NA,NA,choice_trial,survey-html-form,39,85190,0.0-4.0-1.17,97,1,2025-04-29T20:07:59Z,b60275e29fe2361ab97ac0ac217840d7,"Mozilla/5.0 (Macintosh; Intel Mac OS X 10_15_7) AppleWebKit/537.36 (KHTML, like Gecko) Chrome/128.0.0.0 Safari/537.36",Macintosh,Chrome,128.0.0.0,OS X,10_15_7,https://5puzkbbxv1.cognition.run/?sona_id=57138,"en-US,en;q=0.9",ulyb44ok4p9az61,20,"[""White""]",No,Male,na,No,224376.40000000224,NA,5386,NA,"{""product_choice"":""B""}",choice,dtc,trinary,repulsion_B,2,laptops,null,null,null,null,null,null,1,40,30,40,90,100,80,Processing speed,Memory (RAM),NA,NA
NA,NA,NA,NA,NA,choice_trial_setup,html-keyboard-response,40,85494,0.0-4.0-0.18,97,1,2025-04-29T20:07:59Z,b60275e29fe2361ab97ac0ac217840d7,"Mozilla/5.0 (Macintosh; Intel Mac OS X 10_15_7) AppleWebKit/537.36 (KHTML, like Gecko) Chrome/128.0.0.0 Safari/537.36",Macintosh,Chrome,128.0.0.0,OS X,10_15_7,https://5puzkbbxv1.cognition.run/?sona_id=57138,"en-US,en;q=0.9",ulyb44ok4p9az61,20,"[""White""]",No,Male,na,No,224376.40000000224,NA,null,<p></p>,null,choice,wwb,trinary,catch,null,microwave ovens,70,70,5,50,20,15,2,NA,NA,NA,NA,NA,NA,NA,NA,NA,NA
NA,NA,NA,NA,NA,choice_trial,survey-html-form,41,91373,0.0-4.0-1.18,97,1,2025-04-29T20:07:59Z,b60275e29fe2361ab97ac0ac217840d7,"Mozilla/5.0 (Macintosh; Intel Mac OS X 10_15_7) AppleWebKit/537.36 (KHTML, like Gecko) Chrome/128.0.0.0 Safari/537.36",Macintosh,Chrome,128.0.0.0,OS X,10_15_7,https://5puzkbbxv1.cognition.run/?sona_id=57138,"en-US,en;q=0.9",ulyb44ok4p9az61,20,"[""White""]",No,Male,na,No,224376.40000000224,NA,5874,NA,"{""product_choice"":""C""}",choice,wwb,trinary,catch,null,microwave ovens,70,70,5,50,20,15,2,null,null,null,null,null,null,Warranty,Cooking power,NA,NA
NA,NA,NA,NA,NA,choice_trial_setup,html-keyboard-response,42,91678,0.0-4.0-0.19,97,1,2025-04-29T20:07:59Z,b60275e29fe2361ab97ac0ac217840d7,"Mozilla/5.0 (Macintosh; Intel Mac OS X 10_15_7) AppleWebKit/537.36 (KHTML, like Gecko) Chrome/128.0.0.0 Safari/537.36",Macintosh,Chrome,128.0.0.0,OS X,10_15_7,https://5puzkbbxv1.cognition.run/?sona_id=57138,"en-US,en;q=0.9",ulyb44ok4p9az61,20,"[""White""]",No,Male,na,No,224376.40000000224,NA,null,<p></p>,null,choice,tc,binary,attraction,NA,televisions,null,null,null,null,null,null,1,NA,NA,NA,NA,NA,NA,NA,NA,NA,NA
NA,NA,NA,NA,NA,choice_trial,survey-html-form,43,94139,0.0-4.0-1.19,97,1,2025-04-29T20:07:59Z,b60275e29fe2361ab97ac0ac217840d7,"Mozilla/5.0 (Macintosh; Intel Mac OS X 10_15_7) AppleWebKit/537.36 (KHTML, like Gecko) Chrome/128.0.0.0 Safari/537.36",Macintosh,Chrome,128.0.0.0,OS X,10_15_7,https://5puzkbbxv1.cognition.run/?sona_id=57138,"en-US,en;q=0.9",ulyb44ok4p9az61,20,"[""White""]",No,Male,na,No,224376.40000000224,NA,2457,NA,"{""product_choice"":""B""}",choice,tc,binary,attraction,NA,televisions,null,null,null,null,null,null,1,60,50,null,50,60,null,Screen size,Average lifespan,NA,NA
NA,NA,NA,NA,NA,choice_trial_setup,html-keyboard-response,44,94443,0.0-4.0-0.20,97,1,2025-04-29T20:07:59Z,b60275e29fe2361ab97ac0ac217840d7,"Mozilla/5.0 (Macintosh; Intel Mac OS X 10_15_7) AppleWebKit/537.36 (KHTML, like Gecko) Chrome/128.0.0.0 Safari/537.36",Macintosh,Chrome,128.0.0.0,OS X,10_15_7,https://5puzkbbxv1.cognition.run/?sona_id=57138,"en-US,en;q=0.9",ulyb44ok4p9az61,20,"[""White""]",No,Male,na,No,224376.40000000224,NA,null,<p></p>,null,choice,cdt,trinary,repulsion_A,2,televisions,null,null,null,null,null,null,2,NA,NA,NA,NA,NA,NA,NA,NA,NA,NA
NA,NA,NA,NA,NA,choice_trial,survey-html-form,45,98597,0.0-4.0-1.20,97,1,2025-04-29T20:07:59Z,b60275e29fe2361ab97ac0ac217840d7,"Mozilla/5.0 (Macintosh; Intel Mac OS X 10_15_7) AppleWebKit/537.36 (KHTML, like Gecko) Chrome/128.0.0.0 Safari/537.36",Macintosh,Chrome,128.0.0.0,OS X,10_15_7,https://5puzkbbxv1.cognition.run/?sona_id=57138,"en-US,en;q=0.9",ulyb44ok4p9az61,20,"[""White""]",No,Male,na,No,224376.40000000224,NA,4151,NA,"{""product_choice"":""A""}",choice,cdt,trinary,repulsion_A,2,televisions,null,null,null,null,null,null,2,30,40,20,100,90,100,Screen size,Average lifespan,NA,NA
NA,NA,NA,NA,NA,choice_trial_setup,html-keyboard-response,46,98902,0.0-4.0-0.21,97,1,2025-04-29T20:07:59Z,b60275e29fe2361ab97ac0ac217840d7,"Mozilla/5.0 (Macintosh; Intel Mac OS X 10_15_7) AppleWebKit/537.36 (KHTML, like Gecko) Chrome/128.0.0.0 Safari/537.36",Macintosh,Chrome,128.0.0.0,OS X,10_15_7,https://5puzkbbxv1.cognition.run/?sona_id=57138,"en-US,en;q=0.9",ulyb44ok4p9az61,20,"[""White""]",No,Male,na,No,224376.40000000224,NA,null,<p></p>,null,choice,dct,trinary,attraction,2,televisions,null,null,null,null,null,null,2,NA,NA,NA,NA,NA,NA,NA,NA,NA,NA
NA,NA,NA,NA,NA,choice_trial,survey-html-form,47,102173,0.0-4.0-1.21,97,1,2025-04-29T20:07:59Z,b60275e29fe2361ab97ac0ac217840d7,"Mozilla/5.0 (Macintosh; Intel Mac OS X 10_15_7) AppleWebKit/537.36 (KHTML, like Gecko) Chrome/128.0.0.0 Safari/537.36",Macintosh,Chrome,128.0.0.0,OS X,10_15_7,https://5puzkbbxv1.cognition.run/?sona_id=57138,"en-US,en;q=0.9",ulyb44ok4p9az61,20,"[""White""]",No,Male,na,No,224376.40000000224,NA,3266,NA,"{""product_choice"":""B""}",choice,dct,trinary,attraction,2,televisions,null,null,null,null,null,null,2,50,60,40,60,50,60,Screen size,Average lifespan,NA,NA
NA,NA,NA,NA,NA,choice_trial_setup,html-keyboard-response,48,102477,0.0-4.0-0.22,97,1,2025-04-29T20:07:59Z,b60275e29fe2361ab97ac0ac217840d7,"Mozilla/5.0 (Macintosh; Intel Mac OS X 10_15_7) AppleWebKit/537.36 (KHTML, like Gecko) Chrome/128.0.0.0 Safari/537.36",Macintosh,Chrome,128.0.0.0,OS X,10_15_7,https://5puzkbbxv1.cognition.run/?sona_id=57138,"en-US,en;q=0.9",ulyb44ok4p9az61,20,"[""White""]",No,Male,na,No,224376.40000000224,NA,null,<p></p>,null,choice,bw,binary,catch,null,microwave ovens,55,85,10,25,null,null,2,NA,NA,NA,NA,NA,NA,NA,NA,NA,NA
NA,NA,NA,NA,NA,choice_trial,survey-html-form,49,105093,0.0-4.0-1.22,97,1,2025-04-29T20:07:59Z,b60275e29fe2361ab97ac0ac217840d7,"Mozilla/5.0 (Macintosh; Intel Mac OS X 10_15_7) AppleWebKit/537.36 (KHTML, like Gecko) Chrome/128.0.0.0 Safari/537.36",Macintosh,Chrome,128.0.0.0,OS X,10_15_7,https://5puzkbbxv1.cognition.run/?sona_id=57138,"en-US,en;q=0.9",ulyb44ok4p9az61,20,"[""White""]",No,Male,na,No,224376.40000000224,NA,2609,NA,"{""product_choice"":""A""}",choice,bw,binary,catch,null,microwave ovens,55,85,10,25,null,null,2,null,null,null,null,null,null,Warranty,Cooking power,NA,NA
NA,NA,NA,NA,NA,choice_trial_setup,html-keyboard-response,50,105397,0.0-4.0-0.23,97,1,2025-04-29T20:07:59Z,b60275e29fe2361ab97ac0ac217840d7,"Mozilla/5.0 (Macintosh; Intel Mac OS X 10_15_7) AppleWebKit/537.36 (KHTML, like Gecko) Chrome/128.0.0.0 Safari/537.36",Macintosh,Chrome,128.0.0.0,OS X,10_15_7,https://5puzkbbxv1.cognition.run/?sona_id=57138,"en-US,en;q=0.9",ulyb44ok4p9az61,20,"[""White""]",No,Male,na,No,224376.40000000224,NA,null,<p></p>,null,choice,tdc,trinary,repulsion_B,2,microwave ovens,null,null,null,null,null,null,2,NA,NA,NA,NA,NA,NA,NA,NA,NA,NA
NA,NA,NA,NA,NA,choice_trial,survey-html-form,51,109421,0.0-4.0-1.23,97,1,2025-04-29T20:07:59Z,b60275e29fe2361ab97ac0ac217840d7,"Mozilla/5.0 (Macintosh; Intel Mac OS X 10_15_7) AppleWebKit/537.36 (KHTML, like Gecko) Chrome/128.0.0.0 Safari/537.36",Macintosh,Chrome,128.0.0.0,OS X,10_15_7,https://5puzkbbxv1.cognition.run/?sona_id=57138,"en-US,en;q=0.9",ulyb44ok4p9az61,20,"[""White""]",No,Male,na,No,224376.40000000224,NA,4019,NA,"{""product_choice"":""C""}",choice,tdc,trinary,repulsion_B,2,microwave ovens,null,null,null,null,null,null,2,40,30,40,90,100,80,Warranty,Cooking power,NA,NA
NA,NA,NA,NA,NA,choice_trial_setup,html-keyboard-response,52,109726,0.0-4.0-0.24,97,1,2025-04-29T20:07:59Z,b60275e29fe2361ab97ac0ac217840d7,"Mozilla/5.0 (Macintosh; Intel Mac OS X 10_15_7) AppleWebKit/537.36 (KHTML, like Gecko) Chrome/128.0.0.0 Safari/537.36",Macintosh,Chrome,128.0.0.0,OS X,10_15_7,https://5puzkbbxv1.cognition.run/?sona_id=57138,"en-US,en;q=0.9",ulyb44ok4p9az61,20,"[""White""]",No,Male,na,No,224376.40000000224,NA,null,<p></p>,null,choice,ct,binary,attraction,NA,laptops,null,null,null,null,null,null,2,NA,NA,NA,NA,NA,NA,NA,NA,NA,NA
NA,NA,NA,NA,NA,choice_trial,survey-html-form,53,112621,0.0-4.0-1.24,97,1,2025-04-29T20:07:59Z,b60275e29fe2361ab97ac0ac217840d7,"Mozilla/5.0 (Macintosh; Intel Mac OS X 10_15_7) AppleWebKit/537.36 (KHTML, like Gecko) Chrome/128.0.0.0 Safari/537.36",Macintosh,Chrome,128.0.0.0,OS X,10_15_7,https://5puzkbbxv1.cognition.run/?sona_id=57138,"en-US,en;q=0.9",ulyb44ok4p9az61,20,"[""White""]",No,Male,na,No,224376.40000000224,NA,2890,NA,"{""product_choice"":""B""}",choice,ct,binary,attraction,NA,laptops,null,null,null,null,null,null,2,60,50,null,50,60,null,Processing speed,Memory (RAM),NA,NA
NA,NA,NA,NA,NA,choice_trial_setup,html-keyboard-response,54,112926,0.0-4.0-0.25,97,1,2025-04-29T20:07:59Z,b60275e29fe2361ab97ac0ac217840d7,"Mozilla/5.0 (Macintosh; Intel Mac OS X 10_15_7) AppleWebKit/537.36 (KHTML, like Gecko) Chrome/128.0.0.0 Safari/537.36",Macintosh,Chrome,128.0.0.0,OS X,10_15_7,https://5puzkbbxv1.cognition.run/?sona_id=57138,"en-US,en;q=0.9",ulyb44ok4p9az61,20,"[""White""]",No,Male,na,No,224376.40000000224,NA,null,<p></p>,null,choice,tcd,trinary,repulsion_A,1,laptops,null,null,null,null,null,null,1,NA,NA,NA,NA,NA,NA,NA,NA,NA,NA
NA,NA,NA,NA,NA,choice_trial,survey-html-form,55,115492,0.0-4.0-1.25,97,1,2025-04-29T20:07:59Z,b60275e29fe2361ab97ac0ac217840d7,"Mozilla/5.0 (Macintosh; Intel Mac OS X 10_15_7) AppleWebKit/537.36 (KHTML, like Gecko) Chrome/128.0.0.0 Safari/537.36",Macintosh,Chrome,128.0.0.0,OS X,10_15_7,https://5puzkbbxv1.cognition.run/?sona_id=57138,"en-US,en;q=0.9",ulyb44ok4p9az61,20,"[""White""]",No,Male,na,No,224376.40000000224,NA,2561,NA,"{""product_choice"":""B""}",choice,tcd,trinary,repulsion_A,1,laptops,null,null,null,null,null,null,1,100,90,100,30,40,20,Processing speed,Memory (RAM),NA,NA
NA,NA,NA,NA,NA,choice_trial_setup,html-keyboard-response,56,115797,0.0-4.0-0.26,97,1,2025-04-29T20:07:59Z,b60275e29fe2361ab97ac0ac217840d7,"Mozilla/5.0 (Macintosh; Intel Mac OS X 10_15_7) AppleWebKit/537.36 (KHTML, like Gecko) Chrome/128.0.0.0 Safari/537.36",Macintosh,Chrome,128.0.0.0,OS X,10_15_7,https://5puzkbbxv1.cognition.run/?sona_id=57138,"en-US,en;q=0.9",ulyb44ok4p9az61,20,"[""White""]",No,Male,na,No,224376.40000000224,NA,null,<p></p>,null,choice,cdt,trinary,attraction,2,laptops,null,null,null,null,null,null,1,NA,NA,NA,NA,NA,NA,NA,NA,NA,NA
NA,NA,NA,NA,NA,choice_trial,survey-html-form,57,118859,0.0-4.0-1.26,97,1,2025-04-29T20:07:59Z,b60275e29fe2361ab97ac0ac217840d7,"Mozilla/5.0 (Macintosh; Intel Mac OS X 10_15_7) AppleWebKit/537.36 (KHTML, like Gecko) Chrome/128.0.0.0 Safari/537.36",Macintosh,Chrome,128.0.0.0,OS X,10_15_7,https://5puzkbbxv1.cognition.run/?sona_id=57138,"en-US,en;q=0.9",ulyb44ok4p9az61,20,"[""White""]",No,Male,na,No,224376.40000000224,NA,3059,NA,"{""product_choice"":""A""}",choice,cdt,trinary,attraction,2,laptops,null,null,null,null,null,null,1,50,60,40,60,50,60,Processing speed,Memory (RAM),NA,NA
NA,NA,NA,NA,NA,choice_trial_setup,html-keyboard-response,58,119165,0.0-4.0-0.27,97,1,2025-04-29T20:07:59Z,b60275e29fe2361ab97ac0ac217840d7,"Mozilla/5.0 (Macintosh; Intel Mac OS X 10_15_7) AppleWebKit/537.36 (KHTML, like Gecko) Chrome/128.0.0.0 Safari/537.36",Macintosh,Chrome,128.0.0.0,OS X,10_15_7,https://5puzkbbxv1.cognition.run/?sona_id=57138,"en-US,en;q=0.9",ulyb44ok4p9az61,20,"[""White""]",No,Male,na,No,224376.40000000224,NA,null,<p></p>,null,choice,dtc,trinary,repulsion_A,1,washing machines,null,null,null,null,null,null,2,NA,NA,NA,NA,NA,NA,NA,NA,NA,NA
NA,NA,NA,NA,NA,choice_trial,survey-html-form,59,122539,0.0-4.0-1.27,97,1,2025-04-29T20:07:59Z,b60275e29fe2361ab97ac0ac217840d7,"Mozilla/5.0 (Macintosh; Intel Mac OS X 10_15_7) AppleWebKit/537.36 (KHTML, like Gecko) Chrome/128.0.0.0 Safari/537.36",Macintosh,Chrome,128.0.0.0,OS X,10_15_7,https://5puzkbbxv1.cognition.run/?sona_id=57138,"en-US,en;q=0.9",ulyb44ok4p9az61,20,"[""White""]",No,Male,na,No,224376.40000000224,NA,3368,NA,"{""product_choice"":""B""}",choice,dtc,trinary,repulsion_A,1,washing machines,null,null,null,null,null,null,2,100,90,100,30,40,20,Average lifespan,Energy savings,NA,NA
NA,NA,NA,NA,NA,choice_trial_setup,html-keyboard-response,60,122845,0.0-4.0-0.28,97,1,2025-04-29T20:07:59Z,b60275e29fe2361ab97ac0ac217840d7,"Mozilla/5.0 (Macintosh; Intel Mac OS X 10_15_7) AppleWebKit/537.36 (KHTML, like Gecko) Chrome/128.0.0.0 Safari/537.36",Macintosh,Chrome,128.0.0.0,OS X,10_15_7,https://5puzkbbxv1.cognition.run/?sona_id=57138,"en-US,en;q=0.9",ulyb44ok4p9az61,20,"[""White""]",No,Male,na,No,224376.40000000224,NA,null,<p></p>,null,choice,ct,binary,repulsion,2,washing machines,null,null,null,null,null,null,2,NA,NA,NA,NA,NA,NA,NA,NA,NA,NA
NA,NA,NA,NA,NA,choice_trial,survey-html-form,61,125642,0.0-4.0-1.28,97,1,2025-04-29T20:07:59Z,b60275e29fe2361ab97ac0ac217840d7,"Mozilla/5.0 (Macintosh; Intel Mac OS X 10_15_7) AppleWebKit/537.36 (KHTML, like Gecko) Chrome/128.0.0.0 Safari/537.36",Macintosh,Chrome,128.0.0.0,OS X,10_15_7,https://5puzkbbxv1.cognition.run/?sona_id=57138,"en-US,en;q=0.9",ulyb44ok4p9az61,20,"[""White""]",No,Male,na,No,224376.40000000224,NA,2792,NA,"{""product_choice"":""B""}",choice,ct,binary,repulsion,2,washing machines,null,null,null,null,null,null,2,30,40,null,100,90,null,Average lifespan,Energy savings,NA,NA
NA,NA,NA,NA,NA,choice_trial_setup,html-keyboard-response,62,125948,0.0-4.0-0.29,97,1,2025-04-29T20:07:59Z,b60275e29fe2361ab97ac0ac217840d7,"Mozilla/5.0 (Macintosh; Intel Mac OS X 10_15_7) AppleWebKit/537.36 (KHTML, like Gecko) Chrome/128.0.0.0 Safari/537.36",Macintosh,Chrome,128.0.0.0,OS X,10_15_7,https://5puzkbbxv1.cognition.run/?sona_id=57138,"en-US,en;q=0.9",ulyb44ok4p9az61,20,"[""White""]",No,Male,na,No,224376.40000000224,NA,null,<p></p>,null,choice,dct,trinary,repulsion_A,1,microwave ovens,null,null,null,null,null,null,2,NA,NA,NA,NA,NA,NA,NA,NA,NA,NA
NA,NA,NA,NA,NA,choice_trial,survey-html-form,63,128657,0.0-4.0-1.29,97,1,2025-04-29T20:07:59Z,b60275e29fe2361ab97ac0ac217840d7,"Mozilla/5.0 (Macintosh; Intel Mac OS X 10_15_7) AppleWebKit/537.36 (KHTML, like Gecko) Chrome/128.0.0.0 Safari/537.36",Macintosh,Chrome,128.0.0.0,OS X,10_15_7,https://5puzkbbxv1.cognition.run/?sona_id=57138,"en-US,en;q=0.9",ulyb44ok4p9az61,20,"[""White""]",No,Male,na,No,224376.40000000224,NA,2704,NA,"{""product_choice"":""B""}",choice,dct,trinary,repulsion_A,1,microwave ovens,null,null,null,null,null,null,2,100,90,100,30,40,20,Warranty,Cooking power,NA,NA
NA,NA,NA,NA,NA,choice_trial_setup,html-keyboard-response,64,128965,0.0-4.0-0.30,97,1,2025-04-29T20:07:59Z,b60275e29fe2361ab97ac0ac217840d7,"Mozilla/5.0 (Macintosh; Intel Mac OS X 10_15_7) AppleWebKit/537.36 (KHTML, like Gecko) Chrome/128.0.0.0 Safari/537.36",Macintosh,Chrome,128.0.0.0,OS X,10_15_7,https://5puzkbbxv1.cognition.run/?sona_id=57138,"en-US,en;q=0.9",ulyb44ok4p9az61,20,"[""White""]",No,Male,na,No,224376.40000000224,NA,null,<p></p>,null,choice,ct,binary,repulsion,1,microwave ovens,null,null,null,null,null,null,2,NA,NA,NA,NA,NA,NA,NA,NA,NA,NA
NA,NA,NA,NA,NA,choice_trial,survey-html-form,65,132361,0.0-4.0-1.30,97,1,2025-04-29T20:07:59Z,b60275e29fe2361ab97ac0ac217840d7,"Mozilla/5.0 (Macintosh; Intel Mac OS X 10_15_7) AppleWebKit/537.36 (KHTML, like Gecko) Chrome/128.0.0.0 Safari/537.36",Macintosh,Chrome,128.0.0.0,OS X,10_15_7,https://5puzkbbxv1.cognition.run/?sona_id=57138,"en-US,en;q=0.9",ulyb44ok4p9az61,20,"[""White""]",No,Male,na,No,224376.40000000224,NA,3391,NA,"{""product_choice"":""A""}",choice,ct,binary,repulsion,1,microwave ovens,null,null,null,null,null,null,2,100,90,null,30,40,null,Warranty,Cooking power,NA,NA
NA,NA,NA,NA,NA,choice_trial_setup,html-keyboard-response,66,132668,0.0-4.0-0.31,97,1,2025-04-29T20:07:59Z,b60275e29fe2361ab97ac0ac217840d7,"Mozilla/5.0 (Macintosh; Intel Mac OS X 10_15_7) AppleWebKit/537.36 (KHTML, like Gecko) Chrome/128.0.0.0 Safari/537.36",Macintosh,Chrome,128.0.0.0,OS X,10_15_7,https://5puzkbbxv1.cognition.run/?sona_id=57138,"en-US,en;q=0.9",ulyb44ok4p9az61,20,"[""White""]",No,Male,na,No,224376.40000000224,NA,null,<p></p>,null,choice,ct,binary,repulsion,1,televisions,null,null,null,null,null,null,2,NA,NA,NA,NA,NA,NA,NA,NA,NA,NA
NA,NA,NA,NA,NA,choice_trial,survey-html-form,67,134919,0.0-4.0-1.31,97,1,2025-04-29T20:07:59Z,b60275e29fe2361ab97ac0ac217840d7,"Mozilla/5.0 (Macintosh; Intel Mac OS X 10_15_7) AppleWebKit/537.36 (KHTML, like Gecko) Chrome/128.0.0.0 Safari/537.36",Macintosh,Chrome,128.0.0.0,OS X,10_15_7,https://5puzkbbxv1.cognition.run/?sona_id=57138,"en-US,en;q=0.9",ulyb44ok4p9az61,20,"[""White""]",No,Male,na,No,224376.40000000224,NA,2245,NA,"{""product_choice"":""B""}",choice,ct,binary,repulsion,1,televisions,null,null,null,null,null,null,2,100,90,null,30,40,null,Screen size,Average lifespan,NA,NA
NA,NA,NA,NA,NA,choice_trial_setup,html-keyboard-response,68,135224,0.0-4.0-0.32,97,1,2025-04-29T20:07:59Z,b60275e29fe2361ab97ac0ac217840d7,"Mozilla/5.0 (Macintosh; Intel Mac OS X 10_15_7) AppleWebKit/537.36 (KHTML, like Gecko) Chrome/128.0.0.0 Safari/537.36",Macintosh,Chrome,128.0.0.0,OS X,10_15_7,https://5puzkbbxv1.cognition.run/?sona_id=57138,"en-US,en;q=0.9",ulyb44ok4p9az61,20,"[""White""]",No,Male,na,No,224376.40000000224,NA,null,<p></p>,null,choice,ctd,trinary,repulsion_B,2,televisions,null,null,null,null,null,null,2,NA,NA,NA,NA,NA,NA,NA,NA,NA,NA
NA,NA,NA,NA,NA,choice_trial,survey-html-form,69,138159,0.0-4.0-1.32,97,1,2025-04-29T20:07:59Z,b60275e29fe2361ab97ac0ac217840d7,"Mozilla/5.0 (Macintosh; Intel Mac OS X 10_15_7) AppleWebKit/537.36 (KHTML, like Gecko) Chrome/128.0.0.0 Safari/537.36",Macintosh,Chrome,128.0.0.0,OS X,10_15_7,https://5puzkbbxv1.cognition.run/?sona_id=57138,"en-US,en;q=0.9",ulyb44ok4p9az61,20,"[""White""]",No,Male,na,No,224376.40000000224,NA,2929,NA,"{""product_choice"":""B""}",choice,ctd,trinary,repulsion_B,2,televisions,null,null,null,null,null,null,2,40,30,40,90,100,80,Screen size,Average lifespan,NA,NA
NA,NA,NA,NA,NA,choice_trial_setup,html-keyboard-response,70,138464,0.0-4.0-0.33,97,1,2025-04-29T20:07:59Z,b60275e29fe2361ab97ac0ac217840d7,"Mozilla/5.0 (Macintosh; Intel Mac OS X 10_15_7) AppleWebKit/537.36 (KHTML, like Gecko) Chrome/128.0.0.0 Safari/537.36",Macintosh,Chrome,128.0.0.0,OS X,10_15_7,https://5puzkbbxv1.cognition.run/?sona_id=57138,"en-US,en;q=0.9",ulyb44ok4p9az61,20,"[""White""]",No,Male,na,No,224376.40000000224,NA,null,<p></p>,null,choice,cdt,trinary,attraction,2,washing machines,null,null,null,null,null,null,2,NA,NA,NA,NA,NA,NA,NA,NA,NA,NA
NA,NA,NA,NA,NA,choice_trial,survey-html-form,71,141086,0.0-4.0-1.33,97,1,2025-04-29T20:07:59Z,b60275e29fe2361ab97ac0ac217840d7,"Mozilla/5.0 (Macintosh; Intel Mac OS X 10_15_7) AppleWebKit/537.36 (KHTML, like Gecko) Chrome/128.0.0.0 Safari/537.36",Macintosh,Chrome,128.0.0.0,OS X,10_15_7,https://5puzkbbxv1.cognition.run/?sona_id=57138,"en-US,en;q=0.9",ulyb44ok4p9az61,20,"[""White""]",No,Male,na,No,224376.40000000224,NA,2616,NA,"{""product_choice"":""C""}",choice,cdt,trinary,attraction,2,washing machines,null,null,null,null,null,null,2,50,60,40,60,50,60,Average lifespan,Energy savings,NA,NA
NA,NA,NA,NA,NA,choice_trial_setup,html-keyboard-response,72,141392,0.0-4.0-0.34,97,1,2025-04-29T20:07:59Z,b60275e29fe2361ab97ac0ac217840d7,"Mozilla/5.0 (Macintosh; Intel Mac OS X 10_15_7) AppleWebKit/537.36 (KHTML, like Gecko) Chrome/128.0.0.0 Safari/537.36",Macintosh,Chrome,128.0.0.0,OS X,10_15_7,https://5puzkbbxv1.cognition.run/?sona_id=57138,"en-US,en;q=0.9",ulyb44ok4p9az61,20,"[""White""]",No,Male,na,No,224376.40000000224,NA,null,<p></p>,null,choice,wb,binary,catch,null,laptops,70,75,5,15,null,null,1,NA,NA,NA,NA,NA,NA,NA,NA,NA,NA
NA,NA,NA,NA,NA,choice_trial,survey-html-form,73,144213,0.0-4.0-1.34,97,1,2025-04-29T20:07:59Z,b60275e29fe2361ab97ac0ac217840d7,"Mozilla/5.0 (Macintosh; Intel Mac OS X 10_15_7) AppleWebKit/537.36 (KHTML, like Gecko) Chrome/128.0.0.0 Safari/537.36",Macintosh,Chrome,128.0.0.0,OS X,10_15_7,https://5puzkbbxv1.cognition.run/?sona_id=57138,"en-US,en;q=0.9",ulyb44ok4p9az61,20,"[""White""]",No,Male,na,No,224376.40000000224,NA,2812,NA,"{""product_choice"":""B""}",choice,wb,binary,catch,null,laptops,70,75,5,15,null,null,1,null,null,null,null,null,null,Processing speed,Memory (RAM),NA,NA
NA,NA,NA,NA,NA,choice_trial_setup,html-keyboard-response,74,144519,0.0-4.0-0.35,97,1,2025-04-29T20:07:59Z,b60275e29fe2361ab97ac0ac217840d7,"Mozilla/5.0 (Macintosh; Intel Mac OS X 10_15_7) AppleWebKit/537.36 (KHTML, like Gecko) Chrome/128.0.0.0 Safari/537.36",Macintosh,Chrome,128.0.0.0,OS X,10_15_7,https://5puzkbbxv1.cognition.run/?sona_id=57138,"en-US,en;q=0.9",ulyb44ok4p9az61,20,"[""White""]",No,Male,na,No,224376.40000000224,NA,null,<p></p>,null,choice,dct,trinary,repulsion_A,1,televisions,null,null,null,null,null,null,2,NA,NA,NA,NA,NA,NA,NA,NA,NA,NA
NA,NA,NA,NA,NA,choice_trial,survey-html-form,75,146850,0.0-4.0-1.35,97,1,2025-04-29T20:07:59Z,b60275e29fe2361ab97ac0ac217840d7,"Mozilla/5.0 (Macintosh; Intel Mac OS X 10_15_7) AppleWebKit/537.36 (KHTML, like Gecko) Chrome/128.0.0.0 Safari/537.36",Macintosh,Chrome,128.0.0.0,OS X,10_15_7,https://5puzkbbxv1.cognition.run/?sona_id=57138,"en-US,en;q=0.9",ulyb44ok4p9az61,20,"[""White""]",No,Male,na,No,224376.40000000224,NA,2325,NA,"{""product_choice"":""C""}",choice,dct,trinary,repulsion_A,1,televisions,null,null,null,null,null,null,2,100,90,100,30,40,20,Screen size,Average lifespan,NA,NA
NA,NA,NA,NA,NA,choice_trial_setup,html-keyboard-response,76,147156,0.0-4.0-0.36,97,1,2025-04-29T20:07:59Z,b60275e29fe2361ab97ac0ac217840d7,"Mozilla/5.0 (Macintosh; Intel Mac OS X 10_15_7) AppleWebKit/537.36 (KHTML, like Gecko) Chrome/128.0.0.0 Safari/537.36",Macintosh,Chrome,128.0.0.0,OS X,10_15_7,https://5puzkbbxv1.cognition.run/?sona_id=57138,"en-US,en;q=0.9",ulyb44ok4p9az61,20,"[""White""]",No,Male,na,No,224376.40000000224,NA,null,<p></p>,null,choice,bww,trinary,catch,null,televisions,80,90,25,30,45,35,2,NA,NA,NA,NA,NA,NA,NA,NA,NA,NA
NA,NA,NA,NA,NA,choice_trial,survey-html-form,77,149464,0.0-4.0-1.36,97,1,2025-04-29T20:07:59Z,b60275e29fe2361ab97ac0ac217840d7,"Mozilla/5.0 (Macintosh; Intel Mac OS X 10_15_7) AppleWebKit/537.36 (KHTML, like Gecko) Chrome/128.0.0.0 Safari/537.36",Macintosh,Chrome,128.0.0.0,OS X,10_15_7,https://5puzkbbxv1.cognition.run/?sona_id=57138,"en-US,en;q=0.9",ulyb44ok4p9az61,20,"[""White""]",No,Male,na,No,224376.40000000224,NA,2302,NA,"{""product_choice"":""A""}",choice,bww,trinary,catch,null,televisions,80,90,25,30,45,35,2,null,null,null,null,null,null,Screen size,Average lifespan,NA,NA
NA,NA,NA,NA,NA,choice_trial_setup,html-keyboard-response,78,149769,0.0-4.0-0.37,97,1,2025-04-29T20:07:59Z,b60275e29fe2361ab97ac0ac217840d7,"Mozilla/5.0 (Macintosh; Intel Mac OS X 10_15_7) AppleWebKit/537.36 (KHTML, like Gecko) Chrome/128.0.0.0 Safari/537.36",Macintosh,Chrome,128.0.0.0,OS X,10_15_7,https://5puzkbbxv1.cognition.run/?sona_id=57138,"en-US,en;q=0.9",ulyb44ok4p9az61,20,"[""White""]",No,Male,na,No,224376.40000000224,NA,null,<p></p>,null,choice,tc,binary,repulsion,1,washing machines,null,null,null,null,null,null,2,NA,NA,NA,NA,NA,NA,NA,NA,NA,NA
NA,NA,NA,NA,NA,choice_trial,survey-html-form,79,152174,0.0-4.0-1.37,97,1,2025-04-29T20:07:59Z,b60275e29fe2361ab97ac0ac217840d7,"Mozilla/5.0 (Macintosh; Intel Mac OS X 10_15_7) AppleWebKit/537.36 (KHTML, like Gecko) Chrome/128.0.0.0 Safari/537.36",Macintosh,Chrome,128.0.0.0,OS X,10_15_7,https://5puzkbbxv1.cognition.run/?sona_id=57138,"en-US,en;q=0.9",ulyb44ok4p9az61,20,"[""White""]",No,Male,na,No,224376.40000000224,NA,2399,NA,"{""product_choice"":""B""}",choice,tc,binary,repulsion,1,washing machines,null,null,null,null,null,null,2,100,90,null,30,40,null,Average lifespan,Energy savings,NA,NA
NA,NA,NA,NA,NA,choice_trial_setup,html-keyboard-response,80,152480,0.0-4.0-0.38,97,1,2025-04-29T20:07:59Z,b60275e29fe2361ab97ac0ac217840d7,"Mozilla/5.0 (Macintosh; Intel Mac OS X 10_15_7) AppleWebKit/537.36 (KHTML, like Gecko) Chrome/128.0.0.0 Safari/537.36",Macintosh,Chrome,128.0.0.0,OS X,10_15_7,https://5puzkbbxv1.cognition.run/?sona_id=57138,"en-US,en;q=0.9",ulyb44ok4p9az61,20,"[""White""]",No,Male,na,No,224376.40000000224,NA,null,<p></p>,null,choice,dtc,trinary,repulsion_B,1,laptops,null,null,null,null,null,null,1,NA,NA,NA,NA,NA,NA,NA,NA,NA,NA
NA,NA,NA,NA,NA,choice_trial,survey-html-form,81,154788,0.0-4.0-1.38,97,1,2025-04-29T20:07:59Z,b60275e29fe2361ab97ac0ac217840d7,"Mozilla/5.0 (Macintosh; Intel Mac OS X 10_15_7) AppleWebKit/537.36 (KHTML, like Gecko) Chrome/128.0.0.0 Safari/537.36",Macintosh,Chrome,128.0.0.0,OS X,10_15_7,https://5puzkbbxv1.cognition.run/?sona_id=57138,"en-US,en;q=0.9",ulyb44ok4p9az61,20,"[""White""]",No,Male,na,No,224376.40000000224,NA,2301,NA,"{""product_choice"":""C""}",choice,dtc,trinary,repulsion_B,1,laptops,null,null,null,null,null,null,1,90,100,80,40,30,40,Processing speed,Memory (RAM),NA,NA
NA,NA,NA,NA,NA,choice_trial_setup,html-keyboard-response,82,155094,0.0-4.0-0.39,97,1,2025-04-29T20:07:59Z,b60275e29fe2361ab97ac0ac217840d7,"Mozilla/5.0 (Macintosh; Intel Mac OS X 10_15_7) AppleWebKit/537.36 (KHTML, like Gecko) Chrome/128.0.0.0 Safari/537.36",Macintosh,Chrome,128.0.0.0,OS X,10_15_7,https://5puzkbbxv1.cognition.run/?sona_id=57138,"en-US,en;q=0.9",ulyb44ok4p9az61,20,"[""White""]",No,Male,na,No,224376.40000000224,NA,null,<p></p>,null,choice,tc,binary,repulsion,2,televisions,null,null,null,null,null,null,1,NA,NA,NA,NA,NA,NA,NA,NA,NA,NA
NA,NA,NA,NA,NA,choice_trial,survey-html-form,83,158357,0.0-4.0-1.39,97,1,2025-04-29T20:07:59Z,b60275e29fe2361ab97ac0ac217840d7,"Mozilla/5.0 (Macintosh; Intel Mac OS X 10_15_7) AppleWebKit/537.36 (KHTML, like Gecko) Chrome/128.0.0.0 Safari/537.36",Macintosh,Chrome,128.0.0.0,OS X,10_15_7,https://5puzkbbxv1.cognition.run/?sona_id=57138,"en-US,en;q=0.9",ulyb44ok4p9az61,20,"[""White""]",No,Male,na,No,224376.40000000224,NA,3257,NA,"{""product_choice"":""A""}",choice,tc,binary,repulsion,2,televisions,null,null,null,null,null,null,1,30,40,null,100,90,null,Screen size,Average lifespan,NA,NA
NA,NA,NA,NA,NA,choice_trial_setup,html-keyboard-response,84,158663,0.0-4.0-0.40,97,1,2025-04-29T20:07:59Z,b60275e29fe2361ab97ac0ac217840d7,"Mozilla/5.0 (Macintosh; Intel Mac OS X 10_15_7) AppleWebKit/537.36 (KHTML, like Gecko) Chrome/128.0.0.0 Safari/537.36",Macintosh,Chrome,128.0.0.0,OS X,10_15_7,https://5puzkbbxv1.cognition.run/?sona_id=57138,"en-US,en;q=0.9",ulyb44ok4p9az61,20,"[""White""]",No,Male,na,No,224376.40000000224,NA,null,<p></p>,null,choice,dtc,trinary,repulsion_B,1,microwave ovens,null,null,null,null,null,null,2,NA,NA,NA,NA,NA,NA,NA,NA,NA,NA
NA,NA,NA,NA,NA,choice_trial,survey-html-form,85,161756,0.0-4.0-1.40,97,1,2025-04-29T20:07:59Z,b60275e29fe2361ab97ac0ac217840d7,"Mozilla/5.0 (Macintosh; Intel Mac OS X 10_15_7) AppleWebKit/537.36 (KHTML, like Gecko) Chrome/128.0.0.0 Safari/537.36",Macintosh,Chrome,128.0.0.0,OS X,10_15_7,https://5puzkbbxv1.cognition.run/?sona_id=57138,"en-US,en;q=0.9",ulyb44ok4p9az61,20,"[""White""]",No,Male,na,No,224376.40000000224,NA,3086,NA,"{""product_choice"":""B""}",choice,dtc,trinary,repulsion_B,1,microwave ovens,null,null,null,null,null,null,2,90,100,80,40,30,40,Warranty,Cooking power,NA,NA
NA,NA,NA,NA,NA,choice_trial_setup,html-keyboard-response,86,162064,0.0-4.0-0.41,97,1,2025-04-29T20:07:59Z,b60275e29fe2361ab97ac0ac217840d7,"Mozilla/5.0 (Macintosh; Intel Mac OS X 10_15_7) AppleWebKit/537.36 (KHTML, like Gecko) Chrome/128.0.0.0 Safari/537.36",Macintosh,Chrome,128.0.0.0,OS X,10_15_7,https://5puzkbbxv1.cognition.run/?sona_id=57138,"en-US,en;q=0.9",ulyb44ok4p9az61,20,"[""White""]",No,Male,na,No,224376.40000000224,NA,null,<p></p>,null,choice,tdc,trinary,attraction,2,microwave ovens,null,null,null,null,null,null,2,NA,NA,NA,NA,NA,NA,NA,NA,NA,NA
NA,NA,NA,NA,NA,choice_trial,survey-html-form,87,164643,0.0-4.0-1.41,97,1,2025-04-29T20:07:59Z,b60275e29fe2361ab97ac0ac217840d7,"Mozilla/5.0 (Macintosh; Intel Mac OS X 10_15_7) AppleWebKit/537.36 (KHTML, like Gecko) Chrome/128.0.0.0 Safari/537.36",Macintosh,Chrome,128.0.0.0,OS X,10_15_7,https://5puzkbbxv1.cognition.run/?sona_id=57138,"en-US,en;q=0.9",ulyb44ok4p9az61,20,"[""White""]",No,Male,na,No,224376.40000000224,NA,2573,NA,"{""product_choice"":""C""}",choice,tdc,trinary,attraction,2,microwave ovens,null,null,null,null,null,null,2,50,60,40,60,50,60,Warranty,Cooking power,NA,NA
NA,NA,NA,NA,NA,choice_trial_setup,html-keyboard-response,88,164950,0.0-4.0-0.42,97,1,2025-04-29T20:07:59Z,b60275e29fe2361ab97ac0ac217840d7,"Mozilla/5.0 (Macintosh; Intel Mac OS X 10_15_7) AppleWebKit/537.36 (KHTML, like Gecko) Chrome/128.0.0.0 Safari/537.36",Macintosh,Chrome,128.0.0.0,OS X,10_15_7,https://5puzkbbxv1.cognition.run/?sona_id=57138,"en-US,en;q=0.9",ulyb44ok4p9az61,20,"[""White""]",No,Male,na,No,224376.40000000224,NA,null,<p></p>,null,choice,cdt,trinary,repulsion_A,2,washing machines,null,null,null,null,null,null,1,NA,NA,NA,NA,NA,NA,NA,NA,NA,NA
NA,NA,NA,NA,NA,choice_trial,survey-html-form,89,168171,0.0-4.0-1.42,97,1,2025-04-29T20:07:59Z,b60275e29fe2361ab97ac0ac217840d7,"Mozilla/5.0 (Macintosh; Intel Mac OS X 10_15_7) AppleWebKit/537.36 (KHTML, like Gecko) Chrome/128.0.0.0 Safari/537.36",Macintosh,Chrome,128.0.0.0,OS X,10_15_7,https://5puzkbbxv1.cognition.run/?sona_id=57138,"en-US,en;q=0.9",ulyb44ok4p9az61,20,"[""White""]",No,Male,na,No,224376.40000000224,NA,3214,NA,"{""product_choice"":""C""}",choice,cdt,trinary,repulsion_A,2,washing machines,null,null,null,null,null,null,1,30,40,20,100,90,100,Average lifespan,Energy savings,NA,NA
NA,NA,NA,NA,NA,choice_trial_setup,html-keyboard-response,90,168477,0.0-4.0-0.43,97,1,2025-04-29T20:07:59Z,b60275e29fe2361ab97ac0ac217840d7,"Mozilla/5.0 (Macintosh; Intel Mac OS X 10_15_7) AppleWebKit/537.36 (KHTML, like Gecko) Chrome/128.0.0.0 Safari/537.36",Macintosh,Chrome,128.0.0.0,OS X,10_15_7,https://5puzkbbxv1.cognition.run/?sona_id=57138,"en-US,en;q=0.9",ulyb44ok4p9az61,20,"[""White""]",No,Male,na,No,224376.40000000224,NA,null,<p></p>,null,choice,cdt,trinary,attraction,1,laptops,null,null,null,null,null,null,2,NA,NA,NA,NA,NA,NA,NA,NA,NA,NA
NA,NA,NA,NA,NA,choice_trial,survey-html-form,91,171259,0.0-4.0-1.43,97,1,2025-04-29T20:07:59Z,b60275e29fe2361ab97ac0ac217840d7,"Mozilla/5.0 (Macintosh; Intel Mac OS X 10_15_7) AppleWebKit/537.36 (KHTML, like Gecko) Chrome/128.0.0.0 Safari/537.36",Macintosh,Chrome,128.0.0.0,OS X,10_15_7,https://5puzkbbxv1.cognition.run/?sona_id=57138,"en-US,en;q=0.9",ulyb44ok4p9az61,20,"[""White""]",No,Male,na,No,224376.40000000224,NA,2777,NA,"{""product_choice"":""A""}",choice,cdt,trinary,attraction,1,laptops,null,null,null,null,null,null,2,60,50,60,50,60,40,Processing speed,Memory (RAM),NA,NA
NA,NA,NA,NA,NA,post_trials_message,html-button-response,92,172469,0.0-5.0,97,1,2025-04-29T20:07:59Z,b60275e29fe2361ab97ac0ac217840d7,"Mozilla/5.0 (Macintosh; Intel Mac OS X 10_15_7) AppleWebKit/537.36 (KHTML, like Gecko) Chrome/128.0.0.0 Safari/537.36",Macintosh,Chrome,128.0.0.0,OS X,10_15_7,https://5puzkbbxv1.cognition.run/?sona_id=57138,"en-US,en;q=0.9",ulyb44ok4p9az61,20,"[""White""]",No,Male,na,No,224376.40000000224,NA,1203,<p> <b>Thank you for your patience!</b></p><p>  The study will be done after completing a brief form. </p>,0,NA,NA,NA,NA,NA,NA,NA,NA,NA,NA,NA,NA,NA,NA,NA,NA,NA,NA,NA,NA,NA,NA,NA
NA,NA,NA,NA,NA,survey_message,survey-text,93,195446,0.0-6.0,97,1,2025-04-29T20:07:59Z,b60275e29fe2361ab97ac0ac217840d7,"Mozilla/5.0 (Macintosh; Intel Mac OS X 10_15_7) AppleWebKit/537.36 (KHTML, like Gecko) Chrome/128.0.0.0 Safari/537.36",Macintosh,Chrome,128.0.0.0,OS X,10_15_7,https://5puzkbbxv1.cognition.run/?sona_id=57138,"en-US,en;q=0.9",ulyb44ok4p9az61,20,"[""White""]",No,Male,na,No,224376.40000000224,NA,22967,NA,"{""Q0"":""Trying to find the most efficient uses for the appliances ""}",NA,NA,NA,NA,NA,NA,NA,NA,NA,NA,NA,NA,NA,NA,NA,NA,NA,NA,NA,NA,NA,Trying to find the most efficient uses for the appliances,NA
NA,NA,NA,NA,NA,demo_age,survey-text,94,198750,0.0-7.0,97,1,2025-04-29T20:07:59Z,b60275e29fe2361ab97ac0ac217840d7,"Mozilla/5.0 (Macintosh; Intel Mac OS X 10_15_7) AppleWebKit/537.36 (KHTML, like Gecko) Chrome/128.0.0.0 Safari/537.36",Macintosh,Chrome,128.0.0.0,OS X,10_15_7,https://5puzkbbxv1.cognition.run/?sona_id=57138,"en-US,en;q=0.9",ulyb44ok4p9az61,20,"[""White""]",No,Male,na,No,224376.40000000224,NA,3296,NA,"{""Q0"":""20""}",NA,NA,NA,NA,NA,NA,NA,NA,NA,NA,NA,NA,NA,NA,NA,NA,NA,NA,NA,NA,NA,NA,NA
NA,NA,NA,NA,NA,demo_race,survey-multi-select,95,201266,0.0-8.0,97,1,2025-04-29T20:07:59Z,b60275e29fe2361ab97ac0ac217840d7,"Mozilla/5.0 (Macintosh; Intel Mac OS X 10_15_7) AppleWebKit/537.36 (KHTML, like Gecko) Chrome/128.0.0.0 Safari/537.36",Macintosh,Chrome,128.0.0.0,OS X,10_15_7,https://5puzkbbxv1.cognition.run/?sona_id=57138,"en-US,en;q=0.9",ulyb44ok4p9az61,20,"[""White""]",No,Male,na,No,224376.40000000224,NA,2507,NA,"{""Q0"":[""White""]}",NA,NA,NA,NA,NA,NA,NA,NA,NA,NA,NA,NA,NA,NA,NA,NA,NA,NA,NA,NA,NA,NA,[0]
NA,NA,NA,NA,NA,demo_ethnicity_gender,survey-multi-choice,96,204792,0.0-9.0,97,1,2025-04-29T20:07:59Z,b60275e29fe2361ab97ac0ac217840d7,"Mozilla/5.0 (Macintosh; Intel Mac OS X 10_15_7) AppleWebKit/537.36 (KHTML, like Gecko) Chrome/128.0.0.0 Safari/537.36",Macintosh,Chrome,128.0.0.0,OS X,10_15_7,https://5puzkbbxv1.cognition.run/?sona_id=57138,"en-US,en;q=0.9",ulyb44ok4p9az61,20,"[""White""]",No,Male,na,No,224376.40000000224,NA,3515,NA,"{""Q0"":""No"",""Q1"":""Male""}",NA,NA,NA,NA,NA,NA,NA,NA,NA,NA,NA,NA,NA,NA,NA,NA,NA,NA,NA,NA,NA,NA,"[0,1]"
NA,NA,NA,NA,NA,demo_countries,survey-text,97,210264,0.0-10.0,97,1,2025-04-29T20:07:59Z,b60275e29fe2361ab97ac0ac217840d7,"Mozilla/5.0 (Macintosh; Intel Mac OS X 10_15_7) AppleWebKit/537.36 (KHTML, like Gecko) Chrome/128.0.0.0 Safari/537.36",Macintosh,Chrome,128.0.0.0,OS X,10_15_7,https://5puzkbbxv1.cognition.run/?sona_id=57138,"en-US,en;q=0.9",ulyb44ok4p9az61,20,"[""White""]",No,Male,na,No,224376.40000000224,NA,5461,NA,"{""Q0"":""na""}",NA,NA,NA,NA,NA,NA,NA,NA,NA,NA,NA,NA,NA,NA,NA,NA,NA,NA,NA,NA,NA,NA,NA
NA,NA,NA,NA,NA,demo_prev_study,survey-multi-choice,98,213309,0.0-11.0,97,1,2025-04-29T20:07:59Z,b60275e29fe2361ab97ac0ac217840d7,"Mozilla/5.0 (Macintosh; Intel Mac OS X 10_15_7) AppleWebKit/537.36 (KHTML, like Gecko) Chrome/128.0.0.0 Safari/537.36",Macintosh,Chrome,128.0.0.0,OS X,10_15_7,https://5puzkbbxv1.cognition.run/?sona_id=57138,"en-US,en;q=0.9",ulyb44ok4p9az61,20,"[""White""]",No,Male,na,No,224376.40000000224,NA,3039,NA,"{""Q0"":""No""}",NA,NA,NA,NA,NA,NA,NA,NA,NA,NA,NA,NA,NA,NA,NA,NA,NA,NA,NA,NA,NA,NA,[0]
NA,NA,NA,NA,NA,post_survey_message,html-keyboard-response,99,218100,0.0-12.0,97,1,2025-04-29T20:07:59Z,b60275e29fe2361ab97ac0ac217840d7,"Mozilla/5.0 (Macintosh; Intel Mac OS X 10_15_7) AppleWebKit/537.36 (KHTML, like Gecko) Chrome/128.0.0.0 Safari/537.36",Macintosh,Chrome,128.0.0.0,OS X,10_15_7,https://5puzkbbxv1.cognition.run/?sona_id=57138,"en-US,en;q=0.9",ulyb44ok4p9az61,20,"[""White""]",No,Male,na,No,224376.40000000224,NA,4783,NA,j,NA,NA,NA,NA,NA,NA,NA,NA,NA,NA,NA,NA,NA,NA,NA,NA,NA,NA,NA,NA,NA,NA,NA
NA,NA,NA,NA,NA,debrief,image-keyboard-response,100,224381,0.0-13.0,97,1,2025-04-29T20:07:59Z,b60275e29fe2361ab97ac0ac217840d7,"Mozilla/5.0 (Macintosh; Intel Mac OS X 10_15_7) AppleWebKit/537.36 (KHTML, like Gecko) Chrome/128.0.0.0 Safari/537.36",Macintosh,Chrome,128.0.0.0,OS X,10_15_7,https://5puzkbbxv1.cognition.run/?sona_id=57138,"en-US,en;q=0.9",ulyb44ok4p9az61,20,"[""White""]",No,Male,na,No,224376.40000000224,NA,6261,Judg_choice_debrief.png,p,NA,NA,NA,NA,NA,NA,NA,NA,NA,NA,NA,NA,NA,NA,NA,NA,NA,NA,NA,NA,NA,NA,NA
