"success","timeout","failed_images","failed_audio","failed_video","screen_id","trial_type","trial_index","time_elapsed","internal_node_id","run_id","condition","recorded_at","source_code_version","ip","user_agent","device","browser","browser_version","platform","platform_version","referer","accept_language","ppt_id","final_score","age","race","ethnicity","gender","exp_duration","rt","view_history","stimulus","response","phase","order","effect","t_high","category","d1_best","d2_best","d1_worst1","d2_worst1","d1_worst2","d2_worst2","first_dim","d1_t","d1_c","d1_d","d2_t","d2_c","d2_d","d1_name","d2_name","strategy_response","trialType","question_order"
"true","false","[]","[]","[]","img preload","preload","0","1287","0.0-0.0","1","1","2025-04-10 18:08:32","7bd189e8e4882776c700e1dae255cdf5","","Mozilla/5.0 (Windows NT 10.0; Win64; x64) AppleWebKit/537.36 (KHTML, like Gecko) Chrome/135.0.0.0 Safari/537.36","WebKit","Chrome","135.0.0.0","Windows","10.0","https://hz8g1ckzuq.cognition.run/","en-US,en;q=0.9","08w3qfzxefu0mg1","","40","[""Black or African-American""]","No","Male","1977162.2999999821","","","","","","","","","","","","","","","","","","","","","","","","","","",""
"true","","","","","","fullscreen","1","5882","0.0-1.0","1","1","2025-04-10 18:08:32","7bd189e8e4882776c700e1dae255cdf5","","Mozilla/5.0 (Windows NT 10.0; Win64; x64) AppleWebKit/537.36 (KHTML, like Gecko) Chrome/135.0.0.0 Safari/537.36","WebKit","Chrome","135.0.0.0","Windows","10.0","https://hz8g1ckzuq.cognition.run/","en-US,en;q=0.9","08w3qfzxefu0mg1","","40","[""Black or African-American""]","No","Male","1977162.2999999821","3583","","","","","","","","","","","","","","","","","","","","","","","","","",""
"","","","","","","instructions","2","89884","0.0-2.0","1","1","2025-04-10 18:08:32","7bd189e8e4882776c700e1dae255cdf5","","Mozilla/5.0 (Windows NT 10.0; Win64; x64) AppleWebKit/537.36 (KHTML, like Gecko) Chrome/135.0.0.0 Safari/537.36","WebKit","Chrome","135.0.0.0","Windows","10.0","https://hz8g1ckzuq.cognition.run/","en-US,en;q=0.9","08w3qfzxefu0mg1","","40","[""Black or African-American""]","No","Male","1977162.2999999821","84002","[{""page_index"":0,""viewing_time"":1976},{""page_index"":1,""viewing_time"":4306},{""page_index"":2,""viewing_time"":4980},{""page_index"":3,""viewing_time"":21063},{""page_index"":4,""viewing_time"":9491},{""page_index"":5,""viewing_time"":6103},{""page_index"":6,""viewing_time"":6576},{""page_index"":7,""viewing_time"":20946},{""page_index"":8,""viewing_time"":5211},{""page_index"":9,""viewing_time"":3351}]","","","","","","","","","","","","","","","","","","","","","","","","",""
"","","","","","rating_trial_setup","html-keyboard-response","3","90194","0.0-3.0-0.0","1","1","2025-04-10 18:08:32","7bd189e8e4882776c700e1dae255cdf5","","Mozilla/5.0 (Windows NT 10.0; Win64; x64) AppleWebKit/537.36 (KHTML, like Gecko) Chrome/135.0.0.0 Safari/537.36","WebKit","Chrome","135.0.0.0","Windows","10.0","https://hz8g1ckzuq.cognition.run/","en-US,en;q=0.9","08w3qfzxefu0mg1","","40","[""Black or African-American""]","No","Male","1977162.2999999821","null","","<p></p>","null","rating","tdc","attraction_2","2","laptops","null","null","null","null","null","null","2","","","","","","","","","","",""
"","","","","","rating_trial","survey-html-form","4","122175","0.0-3.0-1.0","1","1","2025-04-10 18:08:32","7bd189e8e4882776c700e1dae255cdf5","","Mozilla/5.0 (Windows NT 10.0; Win64; x64) AppleWebKit/537.36 (KHTML, like Gecko) Chrome/135.0.0.0 Safari/537.36","WebKit","Chrome","135.0.0.0","Windows","10.0","https://hz8g1ckzuq.cognition.run/","en-US,en;q=0.9","08w3qfzxefu0mg1","","40","[""Black or African-American""]","No","Male","1977162.2999999821","31971","","","{""price_1"":""350"",""price_2"":""320"",""price_3"":""320""}","rating","tdc","attraction_2","2","laptops","null","null","null","null","null","null","2","50","60","40","60","50","60","Processing speed","Memory (RAM)","","",""
"","","","","","rating_trial_setup","html-keyboard-response","5","122478","0.0-3.0-0.1","1","1","2025-04-10 18:08:32","7bd189e8e4882776c700e1dae255cdf5","","Mozilla/5.0 (Windows NT 10.0; Win64; x64) AppleWebKit/537.36 (KHTML, like Gecko) Chrome/135.0.0.0 Safari/537.36","WebKit","Chrome","135.0.0.0","Windows","10.0","https://hz8g1ckzuq.cognition.run/","en-US,en;q=0.9","08w3qfzxefu0mg1","","40","[""Black or African-American""]","No","Male","1977162.2999999821","null","","<p></p>","null","rating","dct","attraction_2","2","microwave ovens","null","null","null","null","null","null","1","","","","","","","","","","",""
"","","","","","rating_trial","survey-html-form","6","188853","0.0-3.0-1.1","1","1","2025-04-10 18:08:32","7bd189e8e4882776c700e1dae255cdf5","","Mozilla/5.0 (Windows NT 10.0; Win64; x64) AppleWebKit/537.36 (KHTML, like Gecko) Chrome/135.0.0.0 Safari/537.36","WebKit","Chrome","135.0.0.0","Windows","10.0","https://hz8g1ckzuq.cognition.run/","en-US,en;q=0.9","08w3qfzxefu0mg1","","40","[""Black or African-American""]","No","Male","1977162.2999999821","66374","","","{""price_1"":""100"",""price_2"":""130"",""price_3"":""110""}","rating","dct","attraction_2","2","microwave ovens","null","null","null","null","null","null","1","50","60","40","60","50","60","Warranty","Cooking power","","",""
"","","","","","rating_trial_setup","html-keyboard-response","7","189155","0.0-3.0-0.2","1","1","2025-04-10 18:08:32","7bd189e8e4882776c700e1dae255cdf5","","Mozilla/5.0 (Windows NT 10.0; Win64; x64) AppleWebKit/537.36 (KHTML, like Gecko) Chrome/135.0.0.0 Safari/537.36","WebKit","Chrome","135.0.0.0","Windows","10.0","https://hz8g1ckzuq.cognition.run/","en-US,en;q=0.9","08w3qfzxefu0mg1","","40","[""Black or African-American""]","No","Male","1977162.2999999821","null","","<p></p>","null","rating","dtc","repulsion_2","2","laptops","null","null","null","null","null","null","2","","","","","","","","","","",""
"","","","","","rating_trial","survey-html-form","8","224155","0.0-3.0-1.2","1","1","2025-04-10 18:08:32","7bd189e8e4882776c700e1dae255cdf5","","Mozilla/5.0 (Windows NT 10.0; Win64; x64) AppleWebKit/537.36 (KHTML, like Gecko) Chrome/135.0.0.0 Safari/537.36","WebKit","Chrome","135.0.0.0","Windows","10.0","https://hz8g1ckzuq.cognition.run/","en-US,en;q=0.9","08w3qfzxefu0mg1","","40","[""Black or African-American""]","No","Male","1977162.2999999821","34997","","","{""price_1"":""220"",""price_2"":""230"",""price_3"":""250""}","rating","dtc","repulsion_2","2","laptops","null","null","null","null","null","null","2","30","40","20","100","90","100","Processing speed","Memory (RAM)","","",""
"","","","","","rating_trial_setup","html-keyboard-response","9","224461","0.0-3.0-0.3","1","1","2025-04-10 18:08:32","7bd189e8e4882776c700e1dae255cdf5","","Mozilla/5.0 (Windows NT 10.0; Win64; x64) AppleWebKit/537.36 (KHTML, like Gecko) Chrome/135.0.0.0 Safari/537.36","WebKit","Chrome","135.0.0.0","Windows","10.0","https://hz8g1ckzuq.cognition.run/","en-US,en;q=0.9","08w3qfzxefu0mg1","","40","[""Black or African-American""]","No","Male","1977162.2999999821","null","","<p></p>","null","rating","tdc","repulsion_2","1","televisions","null","null","null","null","null","null","2","","","","","","","","","","",""
"","","","","","rating_trial","survey-html-form","10","254530","0.0-3.0-1.3","1","1","2025-04-10 18:08:32","7bd189e8e4882776c700e1dae255cdf5","","Mozilla/5.0 (Windows NT 10.0; Win64; x64) AppleWebKit/537.36 (KHTML, like Gecko) Chrome/135.0.0.0 Safari/537.36","WebKit","Chrome","135.0.0.0","Windows","10.0","https://hz8g1ckzuq.cognition.run/","en-US,en;q=0.9","08w3qfzxefu0mg1","","40","[""Black or African-American""]","No","Male","1977162.2999999821","30066","","","{""price_1"":""200"",""price_2"":""180"",""price_3"":""210""}","rating","tdc","repulsion_2","1","televisions","null","null","null","null","null","null","2","100","90","100","30","40","20","Screen size","Average lifespan","","",""
"","","","","","rating_trial_setup","html-keyboard-response","11","254833","0.0-3.0-0.4","1","1","2025-04-10 18:08:32","7bd189e8e4882776c700e1dae255cdf5","","Mozilla/5.0 (Windows NT 10.0; Win64; x64) AppleWebKit/537.36 (KHTML, like Gecko) Chrome/135.0.0.0 Safari/537.36","WebKit","Chrome","135.0.0.0","Windows","10.0","https://hz8g1ckzuq.cognition.run/","en-US,en;q=0.9","08w3qfzxefu0mg1","","40","[""Black or African-American""]","No","Male","1977162.2999999821","null","","<p></p>","null","rating","wbw","catch","null","washing machines","55","70","35","45","45","30","2","","","","","","","","","","",""
"","","","","","rating_trial","survey-html-form","12","304482","0.0-3.0-1.4","1","1","2025-04-10 18:08:32","7bd189e8e4882776c700e1dae255cdf5","","Mozilla/5.0 (Windows NT 10.0; Win64; x64) AppleWebKit/537.36 (KHTML, like Gecko) Chrome/135.0.0.0 Safari/537.36","WebKit","Chrome","135.0.0.0","Windows","10.0","https://hz8g1ckzuq.cognition.run/","en-US,en;q=0.9","08w3qfzxefu0mg1","","40","[""Black or African-American""]","No","Male","1977162.2999999821","49647","","","{""price_1"":""180"",""price_2"":""220"",""price_3"":""170""}","rating","wbw","catch","null","washing machines","55","70","35","45","45","30","2","null","null","null","null","null","null","Average lifespan","Energy savings","","",""
"","","","","","rating_trial_setup","html-keyboard-response","13","304784","0.0-3.0-0.5","1","1","2025-04-10 18:08:32","7bd189e8e4882776c700e1dae255cdf5","","Mozilla/5.0 (Windows NT 10.0; Win64; x64) AppleWebKit/537.36 (KHTML, like Gecko) Chrome/135.0.0.0 Safari/537.36","WebKit","Chrome","135.0.0.0","Windows","10.0","https://hz8g1ckzuq.cognition.run/","en-US,en;q=0.9","08w3qfzxefu0mg1","","40","[""Black or African-American""]","No","Male","1977162.2999999821","null","","<p></p>","null","rating","ctd","repulsion_2","1","laptops","null","null","null","null","null","null","1","","","","","","","","","","",""
"","","","","","rating_trial","survey-html-form","14","329699","0.0-3.0-1.5","1","1","2025-04-10 18:08:32","7bd189e8e4882776c700e1dae255cdf5","","Mozilla/5.0 (Windows NT 10.0; Win64; x64) AppleWebKit/537.36 (KHTML, like Gecko) Chrome/135.0.0.0 Safari/537.36","WebKit","Chrome","135.0.0.0","Windows","10.0","https://hz8g1ckzuq.cognition.run/","en-US,en;q=0.9","08w3qfzxefu0mg1","","40","[""Black or African-American""]","No","Male","1977162.2999999821","24913","","","{""price_1"":""400"",""price_2"":""410"",""price_3"":""390""}","rating","ctd","repulsion_2","1","laptops","null","null","null","null","null","null","1","100","90","100","30","40","20","Processing speed","Memory (RAM)","","",""
"","","","","","rating_trial_setup","html-keyboard-response","15","330002","0.0-3.0-0.6","1","1","2025-04-10 18:08:32","7bd189e8e4882776c700e1dae255cdf5","","Mozilla/5.0 (Windows NT 10.0; Win64; x64) AppleWebKit/537.36 (KHTML, like Gecko) Chrome/135.0.0.0 Safari/537.36","WebKit","Chrome","135.0.0.0","Windows","10.0","https://hz8g1ckzuq.cognition.run/","en-US,en;q=0.9","08w3qfzxefu0mg1","","40","[""Black or African-American""]","No","Male","1977162.2999999821","null","","<p></p>","null","rating","dct","repulsion_1","1","televisions","null","null","null","null","null","null","2","","","","","","","","","","",""
"","","","","","rating_trial","survey-html-form","16","354650","0.0-3.0-1.6","1","1","2025-04-10 18:08:32","7bd189e8e4882776c700e1dae255cdf5","","Mozilla/5.0 (Windows NT 10.0; Win64; x64) AppleWebKit/537.36 (KHTML, like Gecko) Chrome/135.0.0.0 Safari/537.36","WebKit","Chrome","135.0.0.0","Windows","10.0","https://hz8g1ckzuq.cognition.run/","en-US,en;q=0.9","08w3qfzxefu0mg1","","40","[""Black or African-American""]","No","Male","1977162.2999999821","24645","","","{""price_1"":""180"",""price_2"":""210"",""price_3"":""200""}","rating","dct","repulsion_1","1","televisions","null","null","null","null","null","null","2","100","90","100","30","40","25","Screen size","Average lifespan","","",""
"","","","","","rating_trial_setup","html-keyboard-response","17","354953","0.0-3.0-0.7","1","1","2025-04-10 18:08:32","7bd189e8e4882776c700e1dae255cdf5","","Mozilla/5.0 (Windows NT 10.0; Win64; x64) AppleWebKit/537.36 (KHTML, like Gecko) Chrome/135.0.0.0 Safari/537.36","WebKit","Chrome","135.0.0.0","Windows","10.0","https://hz8g1ckzuq.cognition.run/","en-US,en;q=0.9","08w3qfzxefu0mg1","","40","[""Black or African-American""]","No","Male","1977162.2999999821","null","","<p></p>","null","rating","wbw","catch","null","televisions","90","70","30","45","40","10","1","","","","","","","","","","",""
"","","","","","rating_trial","survey-html-form","18","381080","0.0-3.0-1.7","1","1","2025-04-10 18:08:32","7bd189e8e4882776c700e1dae255cdf5","","Mozilla/5.0 (Windows NT 10.0; Win64; x64) AppleWebKit/537.36 (KHTML, like Gecko) Chrome/135.0.0.0 Safari/537.36","WebKit","Chrome","135.0.0.0","Windows","10.0","https://hz8g1ckzuq.cognition.run/","en-US,en;q=0.9","08w3qfzxefu0mg1","","40","[""Black or African-American""]","No","Male","1977162.2999999821","26124","","","{""price_1"":""180"",""price_2"":""350"",""price_3"":""150""}","rating","wbw","catch","null","televisions","90","70","30","45","40","10","1","null","null","null","null","null","null","Screen size","Average lifespan","","",""
"","","","","","rating_trial_setup","html-keyboard-response","19","381383","0.0-3.0-0.8","1","1","2025-04-10 18:08:32","7bd189e8e4882776c700e1dae255cdf5","","Mozilla/5.0 (Windows NT 10.0; Win64; x64) AppleWebKit/537.36 (KHTML, like Gecko) Chrome/135.0.0.0 Safari/537.36","WebKit","Chrome","135.0.0.0","Windows","10.0","https://hz8g1ckzuq.cognition.run/","en-US,en;q=0.9","08w3qfzxefu0mg1","","40","[""Black or African-American""]","No","Male","1977162.2999999821","null","","<p></p>","null","rating","bww","catch","null","televisions","60","70","45","15","10","5","1","","","","","","","","","","",""
"","","","","","rating_trial","survey-html-form","20","409152","0.0-3.0-1.8","1","1","2025-04-10 18:08:32","7bd189e8e4882776c700e1dae255cdf5","","Mozilla/5.0 (Windows NT 10.0; Win64; x64) AppleWebKit/537.36 (KHTML, like Gecko) Chrome/135.0.0.0 Safari/537.36","WebKit","Chrome","135.0.0.0","Windows","10.0","https://hz8g1ckzuq.cognition.run/","en-US,en;q=0.9","08w3qfzxefu0mg1","","40","[""Black or African-American""]","No","Male","1977162.2999999821","27767","","","{""price_1"":""300"",""price_2"":""130"",""price_3"":""100""}","rating","bww","catch","null","televisions","60","70","45","15","10","5","1","null","null","null","null","null","null","Screen size","Average lifespan","","",""
"","","","","","rating_trial_setup","html-keyboard-response","21","409476","0.0-3.0-0.9","1","1","2025-04-10 18:08:32","7bd189e8e4882776c700e1dae255cdf5","","Mozilla/5.0 (Windows NT 10.0; Win64; x64) AppleWebKit/537.36 (KHTML, like Gecko) Chrome/135.0.0.0 Safari/537.36","WebKit","Chrome","135.0.0.0","Windows","10.0","https://hz8g1ckzuq.cognition.run/","en-US,en;q=0.9","08w3qfzxefu0mg1","","40","[""Black or African-American""]","No","Male","1977162.2999999821","null","","<p></p>","null","rating","dct","attraction_2","1","televisions","null","null","null","null","null","null","2","","","","","","","","","","",""
"","","","","","rating_trial","survey-html-form","22","484048","0.0-3.0-1.9","1","1","2025-04-10 18:08:32","7bd189e8e4882776c700e1dae255cdf5","","Mozilla/5.0 (Windows NT 10.0; Win64; x64) AppleWebKit/537.36 (KHTML, like Gecko) Chrome/135.0.0.0 Safari/537.36","WebKit","Chrome","135.0.0.0","Windows","10.0","https://hz8g1ckzuq.cognition.run/","en-US,en;q=0.9","08w3qfzxefu0mg1","","40","[""Black or African-American""]","No","Male","1977162.2999999821","74566","","","{""price_1"":""190"",""price_2"":""200"",""price_3"":""210""}","rating","dct","attraction_2","1","televisions","null","null","null","null","null","null","2","60","50","60","50","60","40","Screen size","Average lifespan","","",""
"","","","","","rating_trial_setup","html-keyboard-response","23","484351","0.0-3.0-0.10","1","1","2025-04-10 18:08:32","7bd189e8e4882776c700e1dae255cdf5","","Mozilla/5.0 (Windows NT 10.0; Win64; x64) AppleWebKit/537.36 (KHTML, like Gecko) Chrome/135.0.0.0 Safari/537.36","WebKit","Chrome","135.0.0.0","Windows","10.0","https://hz8g1ckzuq.cognition.run/","en-US,en;q=0.9","08w3qfzxefu0mg1","","40","[""Black or African-American""]","No","Male","1977162.2999999821","null","","<p></p>","null","rating","ctd","repulsion_2","2","televisions","null","null","null","null","null","null","2","","","","","","","","","","",""
"","","","","","rating_trial","survey-html-form","24","507818","0.0-3.0-1.10","1","1","2025-04-10 18:08:32","7bd189e8e4882776c700e1dae255cdf5","","Mozilla/5.0 (Windows NT 10.0; Win64; x64) AppleWebKit/537.36 (KHTML, like Gecko) Chrome/135.0.0.0 Safari/537.36","WebKit","Chrome","135.0.0.0","Windows","10.0","https://hz8g1ckzuq.cognition.run/","en-US,en;q=0.9","08w3qfzxefu0mg1","","40","[""Black or African-American""]","No","Male","1977162.2999999821","23464","","","{""price_1"":""230"",""price_2"":""200"",""price_3"":""180""}","rating","ctd","repulsion_2","2","televisions","null","null","null","null","null","null","2","30","40","20","100","90","100","Screen size","Average lifespan","","",""
"","","","","","rating_trial_setup","html-keyboard-response","25","508123","0.0-3.0-0.11","1","1","2025-04-10 18:08:32","7bd189e8e4882776c700e1dae255cdf5","","Mozilla/5.0 (Windows NT 10.0; Win64; x64) AppleWebKit/537.36 (KHTML, like Gecko) Chrome/135.0.0.0 Safari/537.36","WebKit","Chrome","135.0.0.0","Windows","10.0","https://hz8g1ckzuq.cognition.run/","en-US,en;q=0.9","08w3qfzxefu0mg1","","40","[""Black or African-American""]","No","Male","1977162.2999999821","null","","<p></p>","null","rating","dtc","attraction_1","1","televisions","null","null","null","null","null","null","1","","","","","","","","","","",""
"","","","","","rating_trial","survey-html-form","26","561368","0.0-3.0-1.11","1","1","2025-04-10 18:08:32","7bd189e8e4882776c700e1dae255cdf5","","Mozilla/5.0 (Windows NT 10.0; Win64; x64) AppleWebKit/537.36 (KHTML, like Gecko) Chrome/135.0.0.0 Safari/537.36","WebKit","Chrome","135.0.0.0","Windows","10.0","https://hz8g1ckzuq.cognition.run/","en-US,en;q=0.9","08w3qfzxefu0mg1","","40","[""Black or African-American""]","No","Male","1977162.2999999821","53242","","","{""price_1"":""200"",""price_2"":""210"",""price_3"":""200""}","rating","dtc","attraction_1","1","televisions","null","null","null","null","null","null","1","60","50","60","50","60","45","Screen size","Average lifespan","","",""
"","","","","","rating_trial_setup","html-keyboard-response","27","561671","0.0-3.0-0.12","1","1","2025-04-10 18:08:32","7bd189e8e4882776c700e1dae255cdf5","","Mozilla/5.0 (Windows NT 10.0; Win64; x64) AppleWebKit/537.36 (KHTML, like Gecko) Chrome/135.0.0.0 Safari/537.36","WebKit","Chrome","135.0.0.0","Windows","10.0","https://hz8g1ckzuq.cognition.run/","en-US,en;q=0.9","08w3qfzxefu0mg1","","40","[""Black or African-American""]","No","Male","1977162.2999999821","null","","<p></p>","null","rating","bww","catch","null","microwave ovens","50","65","25","5","45","50","1","","","","","","","","","","",""
"","","","","","rating_trial","survey-html-form","28","580375","0.0-3.0-1.12","1","1","2025-04-10 18:08:32","7bd189e8e4882776c700e1dae255cdf5","","Mozilla/5.0 (Windows NT 10.0; Win64; x64) AppleWebKit/537.36 (KHTML, like Gecko) Chrome/135.0.0.0 Safari/537.36","WebKit","Chrome","135.0.0.0","Windows","10.0","https://hz8g1ckzuq.cognition.run/","en-US,en;q=0.9","08w3qfzxefu0mg1","","40","[""Black or African-American""]","No","Male","1977162.2999999821","18702","","","{""price_1"":""110"",""price_2"":""50"",""price_3"":""80""}","rating","bww","catch","null","microwave ovens","50","65","25","5","45","50","1","null","null","null","null","null","null","Warranty","Cooking power","","",""
"","","","","","rating_trial_setup","html-keyboard-response","29","580679","0.0-3.0-0.13","1","1","2025-04-10 18:08:32","7bd189e8e4882776c700e1dae255cdf5","","Mozilla/5.0 (Windows NT 10.0; Win64; x64) AppleWebKit/537.36 (KHTML, like Gecko) Chrome/135.0.0.0 Safari/537.36","WebKit","Chrome","135.0.0.0","Windows","10.0","https://hz8g1ckzuq.cognition.run/","en-US,en;q=0.9","08w3qfzxefu0mg1","","40","[""Black or African-American""]","No","Male","1977162.2999999821","null","","<p></p>","null","rating","dtc","repulsion_1","1","microwave ovens","null","null","null","null","null","null","2","","","","","","","","","","",""
"","","","","","rating_trial","survey-html-form","30","601661","0.0-3.0-1.13","1","1","2025-04-10 18:08:32","7bd189e8e4882776c700e1dae255cdf5","","Mozilla/5.0 (Windows NT 10.0; Win64; x64) AppleWebKit/537.36 (KHTML, like Gecko) Chrome/135.0.0.0 Safari/537.36","WebKit","Chrome","135.0.0.0","Windows","10.0","https://hz8g1ckzuq.cognition.run/","en-US,en;q=0.9","08w3qfzxefu0mg1","","40","[""Black or African-American""]","No","Male","1977162.2999999821","20979","","","{""price_1"":""60"",""price_2"":""70"",""price_3"":""80""}","rating","dtc","repulsion_1","1","microwave ovens","null","null","null","null","null","null","2","100","90","100","30","40","25","Warranty","Cooking power","","",""
"","","","","","rating_trial_setup","html-keyboard-response","31","601981","0.0-3.0-0.14","1","1","2025-04-10 18:08:32","7bd189e8e4882776c700e1dae255cdf5","","Mozilla/5.0 (Windows NT 10.0; Win64; x64) AppleWebKit/537.36 (KHTML, like Gecko) Chrome/135.0.0.0 Safari/537.36","WebKit","Chrome","135.0.0.0","Windows","10.0","https://hz8g1ckzuq.cognition.run/","en-US,en;q=0.9","08w3qfzxefu0mg1","","40","[""Black or African-American""]","No","Male","1977162.2999999821","null","","<p></p>","null","rating","dtc","attraction_1","1","microwave ovens","null","null","null","null","null","null","2","","","","","","","","","","",""
"","","","","","rating_trial","survey-html-form","32","617322","0.0-3.0-1.14","1","1","2025-04-10 18:08:32","7bd189e8e4882776c700e1dae255cdf5","","Mozilla/5.0 (Windows NT 10.0; Win64; x64) AppleWebKit/537.36 (KHTML, like Gecko) Chrome/135.0.0.0 Safari/537.36","WebKit","Chrome","135.0.0.0","Windows","10.0","https://hz8g1ckzuq.cognition.run/","en-US,en;q=0.9","08w3qfzxefu0mg1","","40","[""Black or African-American""]","No","Male","1977162.2999999821","15334","","","{""price_1"":""80"",""price_2"":""90"",""price_3"":""95""}","rating","dtc","attraction_1","1","microwave ovens","null","null","null","null","null","null","2","60","50","60","50","60","45","Warranty","Cooking power","","",""
"","","","","","rating_trial_setup","html-keyboard-response","33","617626","0.0-3.0-0.15","1","1","2025-04-10 18:08:32","7bd189e8e4882776c700e1dae255cdf5","","Mozilla/5.0 (Windows NT 10.0; Win64; x64) AppleWebKit/537.36 (KHTML, like Gecko) Chrome/135.0.0.0 Safari/537.36","WebKit","Chrome","135.0.0.0","Windows","10.0","https://hz8g1ckzuq.cognition.run/","en-US,en;q=0.9","08w3qfzxefu0mg1","","40","[""Black or African-American""]","No","Male","1977162.2999999821","null","","<p></p>","null","rating","dct","repulsion_1","2","televisions","null","null","null","null","null","null","1","","","","","","","","","","",""
"","","","","","rating_trial","survey-html-form","34","665782","0.0-3.0-1.15","1","1","2025-04-10 18:08:32","7bd189e8e4882776c700e1dae255cdf5","","Mozilla/5.0 (Windows NT 10.0; Win64; x64) AppleWebKit/537.36 (KHTML, like Gecko) Chrome/135.0.0.0 Safari/537.36","WebKit","Chrome","135.0.0.0","Windows","10.0","https://hz8g1ckzuq.cognition.run/","en-US,en;q=0.9","08w3qfzxefu0mg1","","40","[""Black or African-American""]","No","Male","1977162.2999999821","48150","","","{""price_1"":""150"",""price_2"":""180"",""price_3"":""160""}","rating","dct","repulsion_1","2","televisions","null","null","null","null","null","null","1","30","40","25","100","90","100","Screen size","Average lifespan","","",""
"","","","","","rating_trial_setup","html-keyboard-response","35","666089","0.0-3.0-0.16","1","1","2025-04-10 18:08:32","7bd189e8e4882776c700e1dae255cdf5","","Mozilla/5.0 (Windows NT 10.0; Win64; x64) AppleWebKit/537.36 (KHTML, like Gecko) Chrome/135.0.0.0 Safari/537.36","WebKit","Chrome","135.0.0.0","Windows","10.0","https://hz8g1ckzuq.cognition.run/","en-US,en;q=0.9","08w3qfzxefu0mg1","","40","[""Black or African-American""]","No","Male","1977162.2999999821","null","","<p></p>","null","rating","dtc","repulsion_1","2","washing machines","null","null","null","null","null","null","1","","","","","","","","","","",""
"","","","","","rating_trial","survey-html-form","36","689776","0.0-3.0-1.16","1","1","2025-04-10 18:08:32","7bd189e8e4882776c700e1dae255cdf5","","Mozilla/5.0 (Windows NT 10.0; Win64; x64) AppleWebKit/537.36 (KHTML, like Gecko) Chrome/135.0.0.0 Safari/537.36","WebKit","Chrome","135.0.0.0","Windows","10.0","https://hz8g1ckzuq.cognition.run/","en-US,en;q=0.9","08w3qfzxefu0mg1","","40","[""Black or African-American""]","No","Male","1977162.2999999821","23684","","","{""price_1"":""180"",""price_2"":""185"",""price_3"":""200""}","rating","dtc","repulsion_1","2","washing machines","null","null","null","null","null","null","1","30","40","25","100","90","100","Average lifespan","Energy savings","","",""
"","","","","","rating_trial_setup","html-keyboard-response","37","690081","0.0-3.0-0.17","1","1","2025-04-10 18:08:32","7bd189e8e4882776c700e1dae255cdf5","","Mozilla/5.0 (Windows NT 10.0; Win64; x64) AppleWebKit/537.36 (KHTML, like Gecko) Chrome/135.0.0.0 Safari/537.36","WebKit","Chrome","135.0.0.0","Windows","10.0","https://hz8g1ckzuq.cognition.run/","en-US,en;q=0.9","08w3qfzxefu0mg1","","40","[""Black or African-American""]","No","Male","1977162.2999999821","null","","<p></p>","null","rating","cdt","attraction_1","1","laptops","null","null","null","null","null","null","1","","","","","","","","","","",""
"","","","","","rating_trial","survey-html-form","38","801363","0.0-3.0-1.17","1","1","2025-04-10 18:08:32","7bd189e8e4882776c700e1dae255cdf5","","Mozilla/5.0 (Windows NT 10.0; Win64; x64) AppleWebKit/537.36 (KHTML, like Gecko) Chrome/135.0.0.0 Safari/537.36","WebKit","Chrome","135.0.0.0","Windows","10.0","https://hz8g1ckzuq.cognition.run/","en-US,en;q=0.9","08w3qfzxefu0mg1","","40","[""Black or African-American""]","No","Male","1977162.2999999821","111277","","","{""price_1"":""250"",""price_2"":""250"",""price_3"":""270""}","rating","cdt","attraction_1","1","laptops","null","null","null","null","null","null","1","60","50","60","50","60","45","Processing speed","Memory (RAM)","","",""
"","","","","","rating_trial_setup","html-keyboard-response","39","801681","0.0-3.0-0.18","1","1","2025-04-10 18:08:32","7bd189e8e4882776c700e1dae255cdf5","","Mozilla/5.0 (Windows NT 10.0; Win64; x64) AppleWebKit/537.36 (KHTML, like Gecko) Chrome/135.0.0.0 Safari/537.36","WebKit","Chrome","135.0.0.0","Windows","10.0","https://hz8g1ckzuq.cognition.run/","en-US,en;q=0.9","08w3qfzxefu0mg1","","40","[""Black or African-American""]","No","Male","1977162.2999999821","null","","<p></p>","null","rating","wwb","catch","null","laptops","80","90","40","15","20","20","2","","","","","","","","","","",""
"","","","","","rating_trial","survey-html-form","40","826805","0.0-3.0-1.18","1","1","2025-04-10 18:08:32","7bd189e8e4882776c700e1dae255cdf5","","Mozilla/5.0 (Windows NT 10.0; Win64; x64) AppleWebKit/537.36 (KHTML, like Gecko) Chrome/135.0.0.0 Safari/537.36","WebKit","Chrome","135.0.0.0","Windows","10.0","https://hz8g1ckzuq.cognition.run/","en-US,en;q=0.9","08w3qfzxefu0mg1","","40","[""Black or African-American""]","No","Male","1977162.2999999821","25122","","","{""price_1"":""200"",""price_2"":""150"",""price_3"":""350""}","rating","wwb","catch","null","laptops","80","90","40","15","20","20","2","null","null","null","null","null","null","Processing speed","Memory (RAM)","","",""
"","","","","","rating_trial_setup","html-keyboard-response","41","827110","0.0-3.0-0.19","1","1","2025-04-10 18:08:32","7bd189e8e4882776c700e1dae255cdf5","","Mozilla/5.0 (Windows NT 10.0; Win64; x64) AppleWebKit/537.36 (KHTML, like Gecko) Chrome/135.0.0.0 Safari/537.36","WebKit","Chrome","135.0.0.0","Windows","10.0","https://hz8g1ckzuq.cognition.run/","en-US,en;q=0.9","08w3qfzxefu0mg1","","40","[""Black or African-American""]","No","Male","1977162.2999999821","null","","<p></p>","null","rating","bww","catch","null","washing machines","70","90","50","45","5","50","1","","","","","","","","","","",""
"","","","","","rating_trial","survey-html-form","42","866269","0.0-3.0-1.19","1","1","2025-04-10 18:08:32","7bd189e8e4882776c700e1dae255cdf5","","Mozilla/5.0 (Windows NT 10.0; Win64; x64) AppleWebKit/537.36 (KHTML, like Gecko) Chrome/135.0.0.0 Safari/537.36","WebKit","Chrome","135.0.0.0","Windows","10.0","https://hz8g1ckzuq.cognition.run/","en-US,en;q=0.9","08w3qfzxefu0mg1","","40","[""Black or African-American""]","No","Male","1977162.2999999821","39156","","","{""price_1"":""300"",""price_2"":""200"",""price_3"":""150""}","rating","bww","catch","null","washing machines","70","90","50","45","5","50","1","null","null","null","null","null","null","Average lifespan","Energy savings","","",""
"","","","","","rating_trial_setup","html-keyboard-response","43","866573","0.0-3.0-0.20","1","1","2025-04-10 18:08:32","7bd189e8e4882776c700e1dae255cdf5","","Mozilla/5.0 (Windows NT 10.0; Win64; x64) AppleWebKit/537.36 (KHTML, like Gecko) Chrome/135.0.0.0 Safari/537.36","WebKit","Chrome","135.0.0.0","Windows","10.0","https://hz8g1ckzuq.cognition.run/","en-US,en;q=0.9","08w3qfzxefu0mg1","","40","[""Black or African-American""]","No","Male","1977162.2999999821","null","","<p></p>","null","rating","cdt","attraction_2","1","microwave ovens","null","null","null","null","null","null","2","","","","","","","","","","",""
"","","","","","rating_trial","survey-html-form","44","885829","0.0-3.0-1.20","1","1","2025-04-10 18:08:32","7bd189e8e4882776c700e1dae255cdf5","","Mozilla/5.0 (Windows NT 10.0; Win64; x64) AppleWebKit/537.36 (KHTML, like Gecko) Chrome/135.0.0.0 Safari/537.36","WebKit","Chrome","135.0.0.0","Windows","10.0","https://hz8g1ckzuq.cognition.run/","en-US,en;q=0.9","08w3qfzxefu0mg1","","40","[""Black or African-American""]","No","Male","1977162.2999999821","19248","","","{""price_1"":""110"",""price_2"":""100"",""price_3"":""110""}","rating","cdt","attraction_2","1","microwave ovens","null","null","null","null","null","null","2","60","50","60","50","60","40","Warranty","Cooking power","","",""
"","","","","","rating_trial_setup","html-keyboard-response","45","886133","0.0-3.0-0.21","1","1","2025-04-10 18:08:32","7bd189e8e4882776c700e1dae255cdf5","","Mozilla/5.0 (Windows NT 10.0; Win64; x64) AppleWebKit/537.36 (KHTML, like Gecko) Chrome/135.0.0.0 Safari/537.36","WebKit","Chrome","135.0.0.0","Windows","10.0","https://hz8g1ckzuq.cognition.run/","en-US,en;q=0.9","08w3qfzxefu0mg1","","40","[""Black or African-American""]","No","Male","1977162.2999999821","null","","<p></p>","null","rating","ctd","repulsion_2","2","microwave ovens","null","null","null","null","null","null","2","","","","","","","","","","",""
"","","","","","rating_trial","survey-html-form","46","905354","0.0-3.0-1.21","1","1","2025-04-10 18:08:32","7bd189e8e4882776c700e1dae255cdf5","","Mozilla/5.0 (Windows NT 10.0; Win64; x64) AppleWebKit/537.36 (KHTML, like Gecko) Chrome/135.0.0.0 Safari/537.36","WebKit","Chrome","135.0.0.0","Windows","10.0","https://hz8g1ckzuq.cognition.run/","en-US,en;q=0.9","08w3qfzxefu0mg1","","40","[""Black or African-American""]","No","Male","1977162.2999999821","19217","","","{""price_1"":""150"",""price_2"":""110"",""price_3"":""90""}","rating","ctd","repulsion_2","2","microwave ovens","null","null","null","null","null","null","2","30","40","20","100","90","100","Warranty","Cooking power","","",""
"","","","","","rating_trial_setup","html-keyboard-response","47","905658","0.0-3.0-0.22","1","1","2025-04-10 18:08:32","7bd189e8e4882776c700e1dae255cdf5","","Mozilla/5.0 (Windows NT 10.0; Win64; x64) AppleWebKit/537.36 (KHTML, like Gecko) Chrome/135.0.0.0 Safari/537.36","WebKit","Chrome","135.0.0.0","Windows","10.0","https://hz8g1ckzuq.cognition.run/","en-US,en;q=0.9","08w3qfzxefu0mg1","","40","[""Black or African-American""]","No","Male","1977162.2999999821","null","","<p></p>","null","rating","tcd","repulsion_1","1","laptops","null","null","null","null","null","null","1","","","","","","","","","","",""
"","","","","","rating_trial","survey-html-form","48","923069","0.0-3.0-1.22","1","1","2025-04-10 18:08:32","7bd189e8e4882776c700e1dae255cdf5","","Mozilla/5.0 (Windows NT 10.0; Win64; x64) AppleWebKit/537.36 (KHTML, like Gecko) Chrome/135.0.0.0 Safari/537.36","WebKit","Chrome","135.0.0.0","Windows","10.0","https://hz8g1ckzuq.cognition.run/","en-US,en;q=0.9","08w3qfzxefu0mg1","","40","[""Black or African-American""]","No","Male","1977162.2999999821","17407","","","{""price_1"":""280"",""price_2"":""280"",""price_3"":""250""}","rating","tcd","repulsion_1","1","laptops","null","null","null","null","null","null","1","100","90","100","30","40","25","Processing speed","Memory (RAM)","","",""
"","","","","","rating_trial_setup","html-keyboard-response","49","923373","0.0-3.0-0.23","1","1","2025-04-10 18:08:32","7bd189e8e4882776c700e1dae255cdf5","","Mozilla/5.0 (Windows NT 10.0; Win64; x64) AppleWebKit/537.36 (KHTML, like Gecko) Chrome/135.0.0.0 Safari/537.36","WebKit","Chrome","135.0.0.0","Windows","10.0","https://hz8g1ckzuq.cognition.run/","en-US,en;q=0.9","08w3qfzxefu0mg1","","40","[""Black or African-American""]","No","Male","1977162.2999999821","null","","<p></p>","null","rating","tcd","attraction_2","2","washing machines","null","null","null","null","null","null","1","","","","","","","","","","",""
"","","","","","rating_trial","survey-html-form","50","949038","0.0-3.0-1.23","1","1","2025-04-10 18:08:32","7bd189e8e4882776c700e1dae255cdf5","","Mozilla/5.0 (Windows NT 10.0; Win64; x64) AppleWebKit/537.36 (KHTML, like Gecko) Chrome/135.0.0.0 Safari/537.36","WebKit","Chrome","135.0.0.0","Windows","10.0","https://hz8g1ckzuq.cognition.run/","en-US,en;q=0.9","08w3qfzxefu0mg1","","40","[""Black or African-American""]","No","Male","1977162.2999999821","25662","","","{""price_1"":""250"",""price_2"":""250"",""price_3"":""230""}","rating","tcd","attraction_2","2","washing machines","null","null","null","null","null","null","1","50","60","40","60","50","60","Average lifespan","Energy savings","","",""
"","","","","","rating_trial_setup","html-keyboard-response","51","949342","0.0-3.0-0.24","1","1","2025-04-10 18:08:32","7bd189e8e4882776c700e1dae255cdf5","","Mozilla/5.0 (Windows NT 10.0; Win64; x64) AppleWebKit/537.36 (KHTML, like Gecko) Chrome/135.0.0.0 Safari/537.36","WebKit","Chrome","135.0.0.0","Windows","10.0","https://hz8g1ckzuq.cognition.run/","en-US,en;q=0.9","08w3qfzxefu0mg1","","40","[""Black or African-American""]","No","Male","1977162.2999999821","null","","<p></p>","null","rating","dct","repulsion_2","2","washing machines","null","null","null","null","null","null","2","","","","","","","","","","",""
"","","","","","rating_trial","survey-html-form","52","977086","0.0-3.0-1.24","1","1","2025-04-10 18:08:32","7bd189e8e4882776c700e1dae255cdf5","","Mozilla/5.0 (Windows NT 10.0; Win64; x64) AppleWebKit/537.36 (KHTML, like Gecko) Chrome/135.0.0.0 Safari/537.36","WebKit","Chrome","135.0.0.0","Windows","10.0","https://hz8g1ckzuq.cognition.run/","en-US,en;q=0.9","08w3qfzxefu0mg1","","40","[""Black or African-American""]","No","Male","1977162.2999999821","27742","","","{""price_1"":""180"",""price_2"":""210"",""price_3"":""190""}","rating","dct","repulsion_2","2","washing machines","null","null","null","null","null","null","2","30","40","20","100","90","100","Average lifespan","Energy savings","","",""
"","","","","","rating_trial_setup","html-keyboard-response","53","977391","0.0-3.0-0.25","1","1","2025-04-10 18:08:32","7bd189e8e4882776c700e1dae255cdf5","","Mozilla/5.0 (Windows NT 10.0; Win64; x64) AppleWebKit/537.36 (KHTML, like Gecko) Chrome/135.0.0.0 Safari/537.36","WebKit","Chrome","135.0.0.0","Windows","10.0","https://hz8g1ckzuq.cognition.run/","en-US,en;q=0.9","08w3qfzxefu0mg1","","40","[""Black or African-American""]","No","Male","1977162.2999999821","null","","<p></p>","null","rating","ctd","repulsion_2","1","microwave ovens","null","null","null","null","null","null","2","","","","","","","","","","",""
"","","","","","rating_trial","survey-html-form","54","1000942","0.0-3.0-1.25","1","1","2025-04-10 18:08:32","7bd189e8e4882776c700e1dae255cdf5","","Mozilla/5.0 (Windows NT 10.0; Win64; x64) AppleWebKit/537.36 (KHTML, like Gecko) Chrome/135.0.0.0 Safari/537.36","WebKit","Chrome","135.0.0.0","Windows","10.0","https://hz8g1ckzuq.cognition.run/","en-US,en;q=0.9","08w3qfzxefu0mg1","","40","[""Black or African-American""]","No","Male","1977162.2999999821","23548","","","{""price_1"":""110"",""price_2"":""90"",""price_3"":""80""}","rating","ctd","repulsion_2","1","microwave ovens","null","null","null","null","null","null","2","100","90","100","30","40","20","Warranty","Cooking power","","",""
"","","","","","rating_trial_setup","html-keyboard-response","55","1001246","0.0-3.0-0.26","1","1","2025-04-10 18:08:32","7bd189e8e4882776c700e1dae255cdf5","","Mozilla/5.0 (Windows NT 10.0; Win64; x64) AppleWebKit/537.36 (KHTML, like Gecko) Chrome/135.0.0.0 Safari/537.36","WebKit","Chrome","135.0.0.0","Windows","10.0","https://hz8g1ckzuq.cognition.run/","en-US,en;q=0.9","08w3qfzxefu0mg1","","40","[""Black or African-American""]","No","Male","1977162.2999999821","null","","<p></p>","null","rating","bww","catch","null","microwave ovens","80","85","25","25","35","45","2","","","","","","","","","","",""
"","","","","","rating_trial","survey-html-form","56","1020243","0.0-3.0-1.26","1","1","2025-04-10 18:08:32","7bd189e8e4882776c700e1dae255cdf5","","Mozilla/5.0 (Windows NT 10.0; Win64; x64) AppleWebKit/537.36 (KHTML, like Gecko) Chrome/135.0.0.0 Safari/537.36","WebKit","Chrome","135.0.0.0","Windows","10.0","https://hz8g1ckzuq.cognition.run/","en-US,en;q=0.9","08w3qfzxefu0mg1","","40","[""Black or African-American""]","No","Male","1977162.2999999821","18993","","","{""price_1"":""150"",""price_2"":""60"",""price_3"":""80""}","rating","bww","catch","null","microwave ovens","80","85","25","25","35","45","2","null","null","null","null","null","null","Warranty","Cooking power","","",""
"","","","","","rating_trial_setup","html-keyboard-response","57","1020547","0.0-3.0-0.27","1","1","2025-04-10 18:08:32","7bd189e8e4882776c700e1dae255cdf5","","Mozilla/5.0 (Windows NT 10.0; Win64; x64) AppleWebKit/537.36 (KHTML, like Gecko) Chrome/135.0.0.0 Safari/537.36","WebKit","Chrome","135.0.0.0","Windows","10.0","https://hz8g1ckzuq.cognition.run/","en-US,en;q=0.9","08w3qfzxefu0mg1","","40","[""Black or African-American""]","No","Male","1977162.2999999821","null","","<p></p>","null","rating","dtc","attraction_1","2","televisions","null","null","null","null","null","null","2","","","","","","","","","","",""
"","","","","","rating_trial","survey-html-form","58","1061862","0.0-3.0-1.27","1","1","2025-04-10 18:08:32","7bd189e8e4882776c700e1dae255cdf5","","Mozilla/5.0 (Windows NT 10.0; Win64; x64) AppleWebKit/537.36 (KHTML, like Gecko) Chrome/135.0.0.0 Safari/537.36","WebKit","Chrome","135.0.0.0","Windows","10.0","https://hz8g1ckzuq.cognition.run/","en-US,en;q=0.9","08w3qfzxefu0mg1","","40","[""Black or African-American""]","No","Male","1977162.2999999821","41310","","","{""price_1"":""190"",""price_2"":""200"",""price_3"":""190""}","rating","dtc","attraction_1","2","televisions","null","null","null","null","null","null","2","50","60","45","60","50","60","Screen size","Average lifespan","","",""
"","","","","","rating_trial_setup","html-keyboard-response","59","1062167","0.0-3.0-0.28","1","1","2025-04-10 18:08:32","7bd189e8e4882776c700e1dae255cdf5","","Mozilla/5.0 (Windows NT 10.0; Win64; x64) AppleWebKit/537.36 (KHTML, like Gecko) Chrome/135.0.0.0 Safari/537.36","WebKit","Chrome","135.0.0.0","Windows","10.0","https://hz8g1ckzuq.cognition.run/","en-US,en;q=0.9","08w3qfzxefu0mg1","","40","[""Black or African-American""]","No","Male","1977162.2999999821","null","","<p></p>","null","rating","cdt","repulsion_2","1","washing machines","null","null","null","null","null","null","1","","","","","","","","","","",""
"","","","","","rating_trial","survey-html-form","60","1085018","0.0-3.0-1.28","1","1","2025-04-10 18:08:32","7bd189e8e4882776c700e1dae255cdf5","","Mozilla/5.0 (Windows NT 10.0; Win64; x64) AppleWebKit/537.36 (KHTML, like Gecko) Chrome/135.0.0.0 Safari/537.36","WebKit","Chrome","135.0.0.0","Windows","10.0","https://hz8g1ckzuq.cognition.run/","en-US,en;q=0.9","08w3qfzxefu0mg1","","40","[""Black or African-American""]","No","Male","1977162.2999999821","22847","","","{""price_1"":""240"",""price_2"":""220"",""price_3"":""240""}","rating","cdt","repulsion_2","1","washing machines","null","null","null","null","null","null","1","100","90","100","30","40","20","Average lifespan","Energy savings","","",""
"","","","","","rating_trial_setup","html-keyboard-response","61","1085324","0.0-3.0-0.29","1","1","2025-04-10 18:08:32","7bd189e8e4882776c700e1dae255cdf5","","Mozilla/5.0 (Windows NT 10.0; Win64; x64) AppleWebKit/537.36 (KHTML, like Gecko) Chrome/135.0.0.0 Safari/537.36","WebKit","Chrome","135.0.0.0","Windows","10.0","https://hz8g1ckzuq.cognition.run/","en-US,en;q=0.9","08w3qfzxefu0mg1","","40","[""Black or African-American""]","No","Male","1977162.2999999821","null","","<p></p>","null","rating","cdt","attraction_2","1","laptops","null","null","null","null","null","null","1","","","","","","","","","","",""
"","","","","","rating_trial","survey-html-form","62","1118744","0.0-3.0-1.29","1","1","2025-04-10 18:08:32","7bd189e8e4882776c700e1dae255cdf5","","Mozilla/5.0 (Windows NT 10.0; Win64; x64) AppleWebKit/537.36 (KHTML, like Gecko) Chrome/135.0.0.0 Safari/537.36","WebKit","Chrome","135.0.0.0","Windows","10.0","https://hz8g1ckzuq.cognition.run/","en-US,en;q=0.9","08w3qfzxefu0mg1","","40","[""Black or African-American""]","No","Male","1977162.2999999821","33417","","","{""price_1"":""250"",""price_2"":""230"",""price_3"":""260""}","rating","cdt","attraction_2","1","laptops","null","null","null","null","null","null","1","60","50","60","50","60","40","Processing speed","Memory (RAM)","","",""
"","","","","","rating_trial_setup","html-keyboard-response","63","1119049","0.0-3.0-0.30","1","1","2025-04-10 18:08:32","7bd189e8e4882776c700e1dae255cdf5","","Mozilla/5.0 (Windows NT 10.0; Win64; x64) AppleWebKit/537.36 (KHTML, like Gecko) Chrome/135.0.0.0 Safari/537.36","WebKit","Chrome","135.0.0.0","Windows","10.0","https://hz8g1ckzuq.cognition.run/","en-US,en;q=0.9","08w3qfzxefu0mg1","","40","[""Black or African-American""]","No","Male","1977162.2999999821","null","","<p></p>","null","rating","cdt","repulsion_1","1","washing machines","null","null","null","null","null","null","2","","","","","","","","","","",""
"","","","","","rating_trial","survey-html-form","64","1149652","0.0-3.0-1.30","1","1","2025-04-10 18:08:32","7bd189e8e4882776c700e1dae255cdf5","","Mozilla/5.0 (Windows NT 10.0; Win64; x64) AppleWebKit/537.36 (KHTML, like Gecko) Chrome/135.0.0.0 Safari/537.36","WebKit","Chrome","135.0.0.0","Windows","10.0","https://hz8g1ckzuq.cognition.run/","en-US,en;q=0.9","08w3qfzxefu0mg1","","40","[""Black or African-American""]","No","Male","1977162.2999999821","30599","","","{""price_1"":""250"",""price_2"":""210"",""price_3"":""230""}","rating","cdt","repulsion_1","1","washing machines","null","null","null","null","null","null","2","100","90","100","30","40","25","Average lifespan","Energy savings","","",""
"","","","","","rating_trial_setup","html-keyboard-response","65","1149957","0.0-3.0-0.31","1","1","2025-04-10 18:08:32","7bd189e8e4882776c700e1dae255cdf5","","Mozilla/5.0 (Windows NT 10.0; Win64; x64) AppleWebKit/537.36 (KHTML, like Gecko) Chrome/135.0.0.0 Safari/537.36","WebKit","Chrome","135.0.0.0","Windows","10.0","https://hz8g1ckzuq.cognition.run/","en-US,en;q=0.9","08w3qfzxefu0mg1","","40","[""Black or African-American""]","No","Male","1977162.2999999821","null","","<p></p>","null","rating","dct","repulsion_1","2","laptops","null","null","null","null","null","null","1","","","","","","","","","","",""
"","","","","","rating_trial","survey-html-form","66","1169582","0.0-3.0-1.31","1","1","2025-04-10 18:08:32","7bd189e8e4882776c700e1dae255cdf5","","Mozilla/5.0 (Windows NT 10.0; Win64; x64) AppleWebKit/537.36 (KHTML, like Gecko) Chrome/135.0.0.0 Safari/537.36","WebKit","Chrome","135.0.0.0","Windows","10.0","https://hz8g1ckzuq.cognition.run/","en-US,en;q=0.9","08w3qfzxefu0mg1","","40","[""Black or African-American""]","No","Male","1977162.2999999821","19618","","","{""price_1"":""180"",""price_2"":""240"",""price_3"":""210""}","rating","dct","repulsion_1","2","laptops","null","null","null","null","null","null","1","30","40","25","100","90","100","Processing speed","Memory (RAM)","","",""
"","","","","","rating_trial_setup","html-keyboard-response","67","1169889","0.0-3.0-0.32","1","1","2025-04-10 18:08:32","7bd189e8e4882776c700e1dae255cdf5","","Mozilla/5.0 (Windows NT 10.0; Win64; x64) AppleWebKit/537.36 (KHTML, like Gecko) Chrome/135.0.0.0 Safari/537.36","WebKit","Chrome","135.0.0.0","Windows","10.0","https://hz8g1ckzuq.cognition.run/","en-US,en;q=0.9","08w3qfzxefu0mg1","","40","[""Black or African-American""]","No","Male","1977162.2999999821","null","","<p></p>","null","rating","cdt","attraction_2","1","washing machines","null","null","null","null","null","null","2","","","","","","","","","","",""
"","","","","","rating_trial","survey-html-form","68","1193342","0.0-3.0-1.32","1","1","2025-04-10 18:08:32","7bd189e8e4882776c700e1dae255cdf5","","Mozilla/5.0 (Windows NT 10.0; Win64; x64) AppleWebKit/537.36 (KHTML, like Gecko) Chrome/135.0.0.0 Safari/537.36","WebKit","Chrome","135.0.0.0","Windows","10.0","https://hz8g1ckzuq.cognition.run/","en-US,en;q=0.9","08w3qfzxefu0mg1","","40","[""Black or African-American""]","No","Male","1977162.2999999821","23444","","","{""price_1"":""240"",""price_2"":""250"",""price_3"":""260""}","rating","cdt","attraction_2","1","washing machines","null","null","null","null","null","null","2","60","50","60","50","60","40","Average lifespan","Energy savings","","",""
"","","","","","rating_trial_setup","html-keyboard-response","69","1193646","0.0-3.0-0.33","1","1","2025-04-10 18:08:32","7bd189e8e4882776c700e1dae255cdf5","","Mozilla/5.0 (Windows NT 10.0; Win64; x64) AppleWebKit/537.36 (KHTML, like Gecko) Chrome/135.0.0.0 Safari/537.36","WebKit","Chrome","135.0.0.0","Windows","10.0","https://hz8g1ckzuq.cognition.run/","en-US,en;q=0.9","08w3qfzxefu0mg1","","40","[""Black or African-American""]","No","Male","1977162.2999999821","null","","<p></p>","null","rating","cdt","attraction_2","2","televisions","null","null","null","null","null","null","2","","","","","","","","","","",""
"","","","","","rating_trial","survey-html-form","70","1255605","0.0-3.0-1.33","1","1","2025-04-10 18:08:32","7bd189e8e4882776c700e1dae255cdf5","","Mozilla/5.0 (Windows NT 10.0; Win64; x64) AppleWebKit/537.36 (KHTML, like Gecko) Chrome/135.0.0.0 Safari/537.36","WebKit","Chrome","135.0.0.0","Windows","10.0","https://hz8g1ckzuq.cognition.run/","en-US,en;q=0.9","08w3qfzxefu0mg1","","40","[""Black or African-American""]","No","Male","1977162.2999999821","61954","","","{""price_1"":""220"",""price_2"":""220"",""price_3"":""230""}","rating","cdt","attraction_2","2","televisions","null","null","null","null","null","null","2","50","60","40","60","50","60","Screen size","Average lifespan","","",""
"","","","","","rating_trial_setup","html-keyboard-response","71","1255909","0.0-3.0-0.34","1","1","2025-04-10 18:08:32","7bd189e8e4882776c700e1dae255cdf5","","Mozilla/5.0 (Windows NT 10.0; Win64; x64) AppleWebKit/537.36 (KHTML, like Gecko) Chrome/135.0.0.0 Safari/537.36","WebKit","Chrome","135.0.0.0","Windows","10.0","https://hz8g1ckzuq.cognition.run/","en-US,en;q=0.9","08w3qfzxefu0mg1","","40","[""Black or African-American""]","No","Male","1977162.2999999821","null","","<p></p>","null","rating","cdt","attraction_1","2","microwave ovens","null","null","null","null","null","null","2","","","","","","","","","","",""
"","","","","","rating_trial","survey-html-form","72","1312959","0.0-3.0-1.34","1","1","2025-04-10 18:08:32","7bd189e8e4882776c700e1dae255cdf5","","Mozilla/5.0 (Windows NT 10.0; Win64; x64) AppleWebKit/537.36 (KHTML, like Gecko) Chrome/135.0.0.0 Safari/537.36","WebKit","Chrome","135.0.0.0","Windows","10.0","https://hz8g1ckzuq.cognition.run/","en-US,en;q=0.9","08w3qfzxefu0mg1","","40","[""Black or African-American""]","No","Male","1977162.2999999821","57046","","","{""price_1"":""110"",""price_2"":""120"",""price_3"":""130""}","rating","cdt","attraction_1","2","microwave ovens","null","null","null","null","null","null","2","50","60","45","60","50","60","Warranty","Cooking power","","",""
"","","","","","rating_trial_setup","html-keyboard-response","73","1313264","0.0-3.0-0.35","1","1","2025-04-10 18:08:32","7bd189e8e4882776c700e1dae255cdf5","","Mozilla/5.0 (Windows NT 10.0; Win64; x64) AppleWebKit/537.36 (KHTML, like Gecko) Chrome/135.0.0.0 Safari/537.36","WebKit","Chrome","135.0.0.0","Windows","10.0","https://hz8g1ckzuq.cognition.run/","en-US,en;q=0.9","08w3qfzxefu0mg1","","40","[""Black or African-American""]","No","Male","1977162.2999999821","null","","<p></p>","null","rating","wwb","catch","null","laptops","90","85","20","10","45","5","1","","","","","","","","","","",""
"","","","","","rating_trial","survey-html-form","74","1343226","0.0-3.0-1.35","1","1","2025-04-10 18:08:32","7bd189e8e4882776c700e1dae255cdf5","","Mozilla/5.0 (Windows NT 10.0; Win64; x64) AppleWebKit/537.36 (KHTML, like Gecko) Chrome/135.0.0.0 Safari/537.36","WebKit","Chrome","135.0.0.0","Windows","10.0","https://hz8g1ckzuq.cognition.run/","en-US,en;q=0.9","08w3qfzxefu0mg1","","40","[""Black or African-American""]","No","Male","1977162.2999999821","29958","","","{""price_1"":""110"",""price_2"":""120"",""price_3"":""380""}","rating","wwb","catch","null","laptops","90","85","20","10","45","5","1","null","null","null","null","null","null","Processing speed","Memory (RAM)","","",""
"","","","","","rating_trial_setup","html-keyboard-response","75","1343530","0.0-3.0-0.36","1","1","2025-04-10 18:08:32","7bd189e8e4882776c700e1dae255cdf5","","Mozilla/5.0 (Windows NT 10.0; Win64; x64) AppleWebKit/537.36 (KHTML, like Gecko) Chrome/135.0.0.0 Safari/537.36","WebKit","Chrome","135.0.0.0","Windows","10.0","https://hz8g1ckzuq.cognition.run/","en-US,en;q=0.9","08w3qfzxefu0mg1","","40","[""Black or African-American""]","No","Male","1977162.2999999821","null","","<p></p>","null","rating","ctd","attraction_1","2","washing machines","null","null","null","null","null","null","1","","","","","","","","","","",""
"","","","","","rating_trial","survey-html-form","76","1363306","0.0-3.0-1.36","1","1","2025-04-10 18:08:32","7bd189e8e4882776c700e1dae255cdf5","","Mozilla/5.0 (Windows NT 10.0; Win64; x64) AppleWebKit/537.36 (KHTML, like Gecko) Chrome/135.0.0.0 Safari/537.36","WebKit","Chrome","135.0.0.0","Windows","10.0","https://hz8g1ckzuq.cognition.run/","en-US,en;q=0.9","08w3qfzxefu0mg1","","40","[""Black or African-American""]","No","Male","1977162.2999999821","19772","","","{""price_1"":""230"",""price_2"":""210"",""price_3"":""200""}","rating","ctd","attraction_1","2","washing machines","null","null","null","null","null","null","1","50","60","45","60","50","60","Average lifespan","Energy savings","","",""
"","","","","","rating_trial_setup","html-keyboard-response","77","1363610","0.0-3.0-0.37","1","1","2025-04-10 18:08:32","7bd189e8e4882776c700e1dae255cdf5","","Mozilla/5.0 (Windows NT 10.0; Win64; x64) AppleWebKit/537.36 (KHTML, like Gecko) Chrome/135.0.0.0 Safari/537.36","WebKit","Chrome","135.0.0.0","Windows","10.0","https://hz8g1ckzuq.cognition.run/","en-US,en;q=0.9","08w3qfzxefu0mg1","","40","[""Black or African-American""]","No","Male","1977162.2999999821","null","","<p></p>","null","rating","dct","repulsion_1","2","microwave ovens","null","null","null","null","null","null","1","","","","","","","","","","",""
"","","","","","rating_trial","survey-html-form","78","1383635","0.0-3.0-1.37","1","1","2025-04-10 18:08:32","7bd189e8e4882776c700e1dae255cdf5","","Mozilla/5.0 (Windows NT 10.0; Win64; x64) AppleWebKit/537.36 (KHTML, like Gecko) Chrome/135.0.0.0 Safari/537.36","WebKit","Chrome","135.0.0.0","Windows","10.0","https://hz8g1ckzuq.cognition.run/","en-US,en;q=0.9","08w3qfzxefu0mg1","","40","[""Black or African-American""]","No","Male","1977162.2999999821","20021","","","{""price_1"":""120"",""price_2"":""135"",""price_3"":""125""}","rating","dct","repulsion_1","2","microwave ovens","null","null","null","null","null","null","1","30","40","25","100","90","100","Warranty","Cooking power","","",""
"","","","","","rating_trial_setup","html-keyboard-response","79","1383940","0.0-3.0-0.38","1","1","2025-04-10 18:08:32","7bd189e8e4882776c700e1dae255cdf5","","Mozilla/5.0 (Windows NT 10.0; Win64; x64) AppleWebKit/537.36 (KHTML, like Gecko) Chrome/135.0.0.0 Safari/537.36","WebKit","Chrome","135.0.0.0","Windows","10.0","https://hz8g1ckzuq.cognition.run/","en-US,en;q=0.9","08w3qfzxefu0mg1","","40","[""Black or African-American""]","No","Male","1977162.2999999821","null","","<p></p>","null","rating","dct","attraction_1","1","washing machines","null","null","null","null","null","null","2","","","","","","","","","","",""
"","","","","","rating_trial","survey-html-form","80","1412330","0.0-3.0-1.38","1","1","2025-04-10 18:08:32","7bd189e8e4882776c700e1dae255cdf5","","Mozilla/5.0 (Windows NT 10.0; Win64; x64) AppleWebKit/537.36 (KHTML, like Gecko) Chrome/135.0.0.0 Safari/537.36","WebKit","Chrome","135.0.0.0","Windows","10.0","https://hz8g1ckzuq.cognition.run/","en-US,en;q=0.9","08w3qfzxefu0mg1","","40","[""Black or African-American""]","No","Male","1977162.2999999821","28386","","","{""price_1"":""230"",""price_2"":""210"",""price_3"":""210""}","rating","dct","attraction_1","1","washing machines","null","null","null","null","null","null","2","60","50","60","50","60","45","Average lifespan","Energy savings","","",""
"","","","","","rating_trial_setup","html-keyboard-response","81","1412637","0.0-3.0-0.39","1","1","2025-04-10 18:08:32","7bd189e8e4882776c700e1dae255cdf5","","Mozilla/5.0 (Windows NT 10.0; Win64; x64) AppleWebKit/537.36 (KHTML, like Gecko) Chrome/135.0.0.0 Safari/537.36","WebKit","Chrome","135.0.0.0","Windows","10.0","https://hz8g1ckzuq.cognition.run/","en-US,en;q=0.9","08w3qfzxefu0mg1","","40","[""Black or African-American""]","No","Male","1977162.2999999821","null","","<p></p>","null","rating","tcd","attraction_1","2","laptops","null","null","null","null","null","null","1","","","","","","","","","","",""
"","","","","","rating_trial","survey-html-form","82","1464282","0.0-3.0-1.39","1","1","2025-04-10 18:08:32","7bd189e8e4882776c700e1dae255cdf5","","Mozilla/5.0 (Windows NT 10.0; Win64; x64) AppleWebKit/537.36 (KHTML, like Gecko) Chrome/135.0.0.0 Safari/537.36","WebKit","Chrome","135.0.0.0","Windows","10.0","https://hz8g1ckzuq.cognition.run/","en-US,en;q=0.9","08w3qfzxefu0mg1","","40","[""Black or African-American""]","No","Male","1977162.2999999821","51632","","","{""price_1"":""280"",""price_2"":""300"",""price_3"":""270""}","rating","tcd","attraction_1","2","laptops","null","null","null","null","null","null","1","50","60","45","60","50","60","Processing speed","Memory (RAM)","","",""
"","","","","","","instructions","83","1489019","0.0-4.0","1","1","2025-04-10 18:08:32","7bd189e8e4882776c700e1dae255cdf5","","Mozilla/5.0 (Windows NT 10.0; Win64; x64) AppleWebKit/537.36 (KHTML, like Gecko) Chrome/135.0.0.0 Safari/537.36","WebKit","Chrome","135.0.0.0","Windows","10.0","https://hz8g1ckzuq.cognition.run/","en-US,en;q=0.9","08w3qfzxefu0mg1","","40","[""Black or African-American""]","No","Male","1977162.2999999821","24733","[{""page_index"":0,""viewing_time"":1792},{""page_index"":1,""viewing_time"":1631},{""page_index"":2,""viewing_time"":1782},{""page_index"":3,""viewing_time"":2608},{""page_index"":4,""viewing_time"":4264},{""page_index"":5,""viewing_time"":2596},{""page_index"":6,""viewing_time"":6265},{""page_index"":7,""viewing_time"":3794}]","","","","","","","","","","","","","","","","","","","","","","","","",""
"","","","","","choice_trial_setup","html-keyboard-response","84","1489332","0.0-5.0-0.0","1","1","2025-04-10 18:08:32","7bd189e8e4882776c700e1dae255cdf5","","Mozilla/5.0 (Windows NT 10.0; Win64; x64) AppleWebKit/537.36 (KHTML, like Gecko) Chrome/135.0.0.0 Safari/537.36","WebKit","Chrome","135.0.0.0","Windows","10.0","https://hz8g1ckzuq.cognition.run/","en-US,en;q=0.9","08w3qfzxefu0mg1","","40","[""Black or African-American""]","No","Male","1977162.2999999821","null","","<p></p>","null","choice","ctd","attraction_1","2","laptops","null","null","null","null","null","null","1","","","","","","","","","","",""
"","","","","","choice_trial","survey-html-form","85","1495874","0.0-5.0-1.0","1","1","2025-04-10 18:08:32","7bd189e8e4882776c700e1dae255cdf5","","Mozilla/5.0 (Windows NT 10.0; Win64; x64) AppleWebKit/537.36 (KHTML, like Gecko) Chrome/135.0.0.0 Safari/537.36","WebKit","Chrome","135.0.0.0","Windows","10.0","https://hz8g1ckzuq.cognition.run/","en-US,en;q=0.9","08w3qfzxefu0mg1","","40","[""Black or African-American""]","No","Male","1977162.2999999821","6536","","","{""product_choice"":""A""}","choice","ctd","attraction_1","2","laptops","null","null","null","null","null","null","1","50","60","45","60","50","60","Processing speed","Memory (RAM)","","",""
"","","","","","choice_trial_setup","html-keyboard-response","86","1496188","0.0-5.0-0.1","1","1","2025-04-10 18:08:32","7bd189e8e4882776c700e1dae255cdf5","","Mozilla/5.0 (Windows NT 10.0; Win64; x64) AppleWebKit/537.36 (KHTML, like Gecko) Chrome/135.0.0.0 Safari/537.36","WebKit","Chrome","135.0.0.0","Windows","10.0","https://hz8g1ckzuq.cognition.run/","en-US,en;q=0.9","08w3qfzxefu0mg1","","40","[""Black or African-American""]","No","Male","1977162.2999999821","null","","<p></p>","null","choice","wbw","catch","null","televisions","85","75","35","15","10","40","2","","","","","","","","","","",""
"","","","","","choice_trial","survey-html-form","87","1500660","0.0-5.0-1.1","1","1","2025-04-10 18:08:32","7bd189e8e4882776c700e1dae255cdf5","","Mozilla/5.0 (Windows NT 10.0; Win64; x64) AppleWebKit/537.36 (KHTML, like Gecko) Chrome/135.0.0.0 Safari/537.36","WebKit","Chrome","135.0.0.0","Windows","10.0","https://hz8g1ckzuq.cognition.run/","en-US,en;q=0.9","08w3qfzxefu0mg1","","40","[""Black or African-American""]","No","Male","1977162.2999999821","4468","","","{""product_choice"":""B""}","choice","wbw","catch","null","televisions","85","75","35","15","10","40","2","null","null","null","null","null","null","Screen size","Average lifespan","","",""
"","","","","","choice_trial_setup","html-keyboard-response","88","1500964","0.0-5.0-0.2","1","1","2025-04-10 18:08:32","7bd189e8e4882776c700e1dae255cdf5","","Mozilla/5.0 (Windows NT 10.0; Win64; x64) AppleWebKit/537.36 (KHTML, like Gecko) Chrome/135.0.0.0 Safari/537.36","WebKit","Chrome","135.0.0.0","Windows","10.0","https://hz8g1ckzuq.cognition.run/","en-US,en;q=0.9","08w3qfzxefu0mg1","","40","[""Black or African-American""]","No","Male","1977162.2999999821","null","","<p></p>","null","choice","tcd","repulsion_1","1","televisions","null","null","null","null","null","null","1","","","","","","","","","","",""
"","","","","","choice_trial","survey-html-form","89","1505930","0.0-5.0-1.2","1","1","2025-04-10 18:08:32","7bd189e8e4882776c700e1dae255cdf5","","Mozilla/5.0 (Windows NT 10.0; Win64; x64) AppleWebKit/537.36 (KHTML, like Gecko) Chrome/135.0.0.0 Safari/537.36","WebKit","Chrome","135.0.0.0","Windows","10.0","https://hz8g1ckzuq.cognition.run/","en-US,en;q=0.9","08w3qfzxefu0mg1","","40","[""Black or African-American""]","No","Male","1977162.2999999821","4960","","","{""product_choice"":""B""}","choice","tcd","repulsion_1","1","televisions","null","null","null","null","null","null","1","100","90","100","30","40","25","Screen size","Average lifespan","","",""
"","","","","","choice_trial_setup","html-keyboard-response","90","1506243","0.0-5.0-0.3","1","1","2025-04-10 18:08:32","7bd189e8e4882776c700e1dae255cdf5","","Mozilla/5.0 (Windows NT 10.0; Win64; x64) AppleWebKit/537.36 (KHTML, like Gecko) Chrome/135.0.0.0 Safari/537.36","WebKit","Chrome","135.0.0.0","Windows","10.0","https://hz8g1ckzuq.cognition.run/","en-US,en;q=0.9","08w3qfzxefu0mg1","","40","[""Black or African-American""]","No","Male","1977162.2999999821","null","","<p></p>","null","choice","wbw","catch","null","laptops","70","65","5","30","5","50","2","","","","","","","","","","",""
"","","","","","choice_trial","survey-html-form","91","1510440","0.0-5.0-1.3","1","1","2025-04-10 18:08:32","7bd189e8e4882776c700e1dae255cdf5","","Mozilla/5.0 (Windows NT 10.0; Win64; x64) AppleWebKit/537.36 (KHTML, like Gecko) Chrome/135.0.0.0 Safari/537.36","WebKit","Chrome","135.0.0.0","Windows","10.0","https://hz8g1ckzuq.cognition.run/","en-US,en;q=0.9","08w3qfzxefu0mg1","","40","[""Black or African-American""]","No","Male","1977162.2999999821","4193","","","{""product_choice"":""B""}","choice","wbw","catch","null","laptops","70","65","5","30","5","50","2","null","null","null","null","null","null","Processing speed","Memory (RAM)","","",""
"","","","","","choice_trial_setup","html-keyboard-response","92","1510745","0.0-5.0-0.4","1","1","2025-04-10 18:08:32","7bd189e8e4882776c700e1dae255cdf5","","Mozilla/5.0 (Windows NT 10.0; Win64; x64) AppleWebKit/537.36 (KHTML, like Gecko) Chrome/135.0.0.0 Safari/537.36","WebKit","Chrome","135.0.0.0","Windows","10.0","https://hz8g1ckzuq.cognition.run/","en-US,en;q=0.9","08w3qfzxefu0mg1","","40","[""Black or African-American""]","No","Male","1977162.2999999821","null","","<p></p>","null","choice","ctd","attraction_1","2","televisions","null","null","null","null","null","null","2","","","","","","","","","","",""
"","","","","","choice_trial","survey-html-form","93","1515825","0.0-5.0-1.4","1","1","2025-04-10 18:08:32","7bd189e8e4882776c700e1dae255cdf5","","Mozilla/5.0 (Windows NT 10.0; Win64; x64) AppleWebKit/537.36 (KHTML, like Gecko) Chrome/135.0.0.0 Safari/537.36","WebKit","Chrome","135.0.0.0","Windows","10.0","https://hz8g1ckzuq.cognition.run/","en-US,en;q=0.9","08w3qfzxefu0mg1","","40","[""Black or African-American""]","No","Male","1977162.2999999821","5075","","","{""product_choice"":""B""}","choice","ctd","attraction_1","2","televisions","null","null","null","null","null","null","2","50","60","45","60","50","60","Screen size","Average lifespan","","",""
"","","","","","choice_trial_setup","html-keyboard-response","94","1516129","0.0-5.0-0.5","1","1","2025-04-10 18:08:32","7bd189e8e4882776c700e1dae255cdf5","","Mozilla/5.0 (Windows NT 10.0; Win64; x64) AppleWebKit/537.36 (KHTML, like Gecko) Chrome/135.0.0.0 Safari/537.36","WebKit","Chrome","135.0.0.0","Windows","10.0","https://hz8g1ckzuq.cognition.run/","en-US,en;q=0.9","08w3qfzxefu0mg1","","40","[""Black or African-American""]","No","Male","1977162.2999999821","null","","<p></p>","null","choice","tdc","repulsion_2","2","microwave ovens","null","null","null","null","null","null","1","","","","","","","","","","",""
"","","","","","choice_trial","survey-html-form","95","1522111","0.0-5.0-1.5","1","1","2025-04-10 18:08:32","7bd189e8e4882776c700e1dae255cdf5","","Mozilla/5.0 (Windows NT 10.0; Win64; x64) AppleWebKit/537.36 (KHTML, like Gecko) Chrome/135.0.0.0 Safari/537.36","WebKit","Chrome","135.0.0.0","Windows","10.0","https://hz8g1ckzuq.cognition.run/","en-US,en;q=0.9","08w3qfzxefu0mg1","","40","[""Black or African-American""]","No","Male","1977162.2999999821","5977","","","{""product_choice"":""C""}","choice","tdc","repulsion_2","2","microwave ovens","null","null","null","null","null","null","1","30","40","20","100","90","100","Warranty","Cooking power","","",""
"","","","","","choice_trial_setup","html-keyboard-response","96","1522417","0.0-5.0-0.6","1","1","2025-04-10 18:08:32","7bd189e8e4882776c700e1dae255cdf5","","Mozilla/5.0 (Windows NT 10.0; Win64; x64) AppleWebKit/537.36 (KHTML, like Gecko) Chrome/135.0.0.0 Safari/537.36","WebKit","Chrome","135.0.0.0","Windows","10.0","https://hz8g1ckzuq.cognition.run/","en-US,en;q=0.9","08w3qfzxefu0mg1","","40","[""Black or African-American""]","No","Male","1977162.2999999821","null","","<p></p>","null","choice","dtc","repulsion_2","2","televisions","null","null","null","null","null","null","2","","","","","","","","","","",""
"","","","","","choice_trial","survey-html-form","97","1527149","0.0-5.0-1.6","1","1","2025-04-10 18:08:32","7bd189e8e4882776c700e1dae255cdf5","","Mozilla/5.0 (Windows NT 10.0; Win64; x64) AppleWebKit/537.36 (KHTML, like Gecko) Chrome/135.0.0.0 Safari/537.36","WebKit","Chrome","135.0.0.0","Windows","10.0","https://hz8g1ckzuq.cognition.run/","en-US,en;q=0.9","08w3qfzxefu0mg1","","40","[""Black or African-American""]","No","Male","1977162.2999999821","4727","","","{""product_choice"":""C""}","choice","dtc","repulsion_2","2","televisions","null","null","null","null","null","null","2","30","40","20","100","90","100","Screen size","Average lifespan","","",""
"","","","","","choice_trial_setup","html-keyboard-response","98","1527454","0.0-5.0-0.7","1","1","2025-04-10 18:08:32","7bd189e8e4882776c700e1dae255cdf5","","Mozilla/5.0 (Windows NT 10.0; Win64; x64) AppleWebKit/537.36 (KHTML, like Gecko) Chrome/135.0.0.0 Safari/537.36","WebKit","Chrome","135.0.0.0","Windows","10.0","https://hz8g1ckzuq.cognition.run/","en-US,en;q=0.9","08w3qfzxefu0mg1","","40","[""Black or African-American""]","No","Male","1977162.2999999821","null","","<p></p>","null","choice","bww","catch","null","microwave ovens","85","65","40","25","10","50","1","","","","","","","","","","",""
"","","","","","choice_trial","survey-html-form","99","1531718","0.0-5.0-1.7","1","1","2025-04-10 18:08:32","7bd189e8e4882776c700e1dae255cdf5","","Mozilla/5.0 (Windows NT 10.0; Win64; x64) AppleWebKit/537.36 (KHTML, like Gecko) Chrome/135.0.0.0 Safari/537.36","WebKit","Chrome","135.0.0.0","Windows","10.0","https://hz8g1ckzuq.cognition.run/","en-US,en;q=0.9","08w3qfzxefu0mg1","","40","[""Black or African-American""]","No","Male","1977162.2999999821","4259","","","{""product_choice"":""A""}","choice","bww","catch","null","microwave ovens","85","65","40","25","10","50","1","null","null","null","null","null","null","Warranty","Cooking power","","",""
"","","","","","choice_trial_setup","html-keyboard-response","100","1532024","0.0-5.0-0.8","1","1","2025-04-10 18:08:32","7bd189e8e4882776c700e1dae255cdf5","","Mozilla/5.0 (Windows NT 10.0; Win64; x64) AppleWebKit/537.36 (KHTML, like Gecko) Chrome/135.0.0.0 Safari/537.36","WebKit","Chrome","135.0.0.0","Windows","10.0","https://hz8g1ckzuq.cognition.run/","en-US,en;q=0.9","08w3qfzxefu0mg1","","40","[""Black or African-American""]","No","Male","1977162.2999999821","null","","<p></p>","null","choice","ctd","repulsion_2","1","microwave ovens","null","null","null","null","null","null","1","","","","","","","","","","",""
"","","","","","choice_trial","survey-html-form","101","1537842","0.0-5.0-1.8","1","1","2025-04-10 18:08:32","7bd189e8e4882776c700e1dae255cdf5","","Mozilla/5.0 (Windows NT 10.0; Win64; x64) AppleWebKit/537.36 (KHTML, like Gecko) Chrome/135.0.0.0 Safari/537.36","WebKit","Chrome","135.0.0.0","Windows","10.0","https://hz8g1ckzuq.cognition.run/","en-US,en;q=0.9","08w3qfzxefu0mg1","","40","[""Black or African-American""]","No","Male","1977162.2999999821","5813","","","{""product_choice"":""A""}","choice","ctd","repulsion_2","1","microwave ovens","null","null","null","null","null","null","1","100","90","100","30","40","20","Warranty","Cooking power","","",""
"","","","","","choice_trial_setup","html-keyboard-response","102","1538154","0.0-5.0-0.9","1","1","2025-04-10 18:08:32","7bd189e8e4882776c700e1dae255cdf5","","Mozilla/5.0 (Windows NT 10.0; Win64; x64) AppleWebKit/537.36 (KHTML, like Gecko) Chrome/135.0.0.0 Safari/537.36","WebKit","Chrome","135.0.0.0","Windows","10.0","https://hz8g1ckzuq.cognition.run/","en-US,en;q=0.9","08w3qfzxefu0mg1","","40","[""Black or African-American""]","No","Male","1977162.2999999821","null","","<p></p>","null","choice","dtc","attraction_1","1","laptops","null","null","null","null","null","null","2","","","","","","","","","","",""
"","","","","","choice_trial","survey-html-form","103","1544831","0.0-5.0-1.9","1","1","2025-04-10 18:08:32","7bd189e8e4882776c700e1dae255cdf5","","Mozilla/5.0 (Windows NT 10.0; Win64; x64) AppleWebKit/537.36 (KHTML, like Gecko) Chrome/135.0.0.0 Safari/537.36","WebKit","Chrome","135.0.0.0","Windows","10.0","https://hz8g1ckzuq.cognition.run/","en-US,en;q=0.9","08w3qfzxefu0mg1","","40","[""Black or African-American""]","No","Male","1977162.2999999821","6665","","","{""product_choice"":""B""}","choice","dtc","attraction_1","1","laptops","null","null","null","null","null","null","2","60","50","60","50","60","45","Processing speed","Memory (RAM)","","",""
"","","","","","choice_trial_setup","html-keyboard-response","104","1545137","0.0-5.0-0.10","1","1","2025-04-10 18:08:32","7bd189e8e4882776c700e1dae255cdf5","","Mozilla/5.0 (Windows NT 10.0; Win64; x64) AppleWebKit/537.36 (KHTML, like Gecko) Chrome/135.0.0.0 Safari/537.36","WebKit","Chrome","135.0.0.0","Windows","10.0","https://hz8g1ckzuq.cognition.run/","en-US,en;q=0.9","08w3qfzxefu0mg1","","40","[""Black or African-American""]","No","Male","1977162.2999999821","null","","<p></p>","null","choice","ctd","repulsion_1","2","microwave ovens","null","null","null","null","null","null","1","","","","","","","","","","",""
"","","","","","choice_trial","survey-html-form","105","1550038","0.0-5.0-1.10","1","1","2025-04-10 18:08:32","7bd189e8e4882776c700e1dae255cdf5","","Mozilla/5.0 (Windows NT 10.0; Win64; x64) AppleWebKit/537.36 (KHTML, like Gecko) Chrome/135.0.0.0 Safari/537.36","WebKit","Chrome","135.0.0.0","Windows","10.0","https://hz8g1ckzuq.cognition.run/","en-US,en;q=0.9","08w3qfzxefu0mg1","","40","[""Black or African-American""]","No","Male","1977162.2999999821","4896","","","{""product_choice"":""A""}","choice","ctd","repulsion_1","2","microwave ovens","null","null","null","null","null","null","1","30","40","25","100","90","100","Warranty","Cooking power","","",""
"","","","","","choice_trial_setup","html-keyboard-response","106","1550343","0.0-5.0-0.11","1","1","2025-04-10 18:08:32","7bd189e8e4882776c700e1dae255cdf5","","Mozilla/5.0 (Windows NT 10.0; Win64; x64) AppleWebKit/537.36 (KHTML, like Gecko) Chrome/135.0.0.0 Safari/537.36","WebKit","Chrome","135.0.0.0","Windows","10.0","https://hz8g1ckzuq.cognition.run/","en-US,en;q=0.9","08w3qfzxefu0mg1","","40","[""Black or African-American""]","No","Male","1977162.2999999821","null","","<p></p>","null","choice","dtc","attraction_1","2","washing machines","null","null","null","null","null","null","1","","","","","","","","","","",""
"","","","","","choice_trial","survey-html-form","107","1555415","0.0-5.0-1.11","1","1","2025-04-10 18:08:32","7bd189e8e4882776c700e1dae255cdf5","","Mozilla/5.0 (Windows NT 10.0; Win64; x64) AppleWebKit/537.36 (KHTML, like Gecko) Chrome/135.0.0.0 Safari/537.36","WebKit","Chrome","135.0.0.0","Windows","10.0","https://hz8g1ckzuq.cognition.run/","en-US,en;q=0.9","08w3qfzxefu0mg1","","40","[""Black or African-American""]","No","Male","1977162.2999999821","5066","","","{""product_choice"":""C""}","choice","dtc","attraction_1","2","washing machines","null","null","null","null","null","null","1","50","60","45","60","50","60","Average lifespan","Energy savings","","",""
"","","","","","choice_trial_setup","html-keyboard-response","108","1555724","0.0-5.0-0.12","1","1","2025-04-10 18:08:32","7bd189e8e4882776c700e1dae255cdf5","","Mozilla/5.0 (Windows NT 10.0; Win64; x64) AppleWebKit/537.36 (KHTML, like Gecko) Chrome/135.0.0.0 Safari/537.36","WebKit","Chrome","135.0.0.0","Windows","10.0","https://hz8g1ckzuq.cognition.run/","en-US,en;q=0.9","08w3qfzxefu0mg1","","40","[""Black or African-American""]","No","Male","1977162.2999999821","null","","<p></p>","null","choice","tcd","repulsion_1","1","laptops","null","null","null","null","null","null","2","","","","","","","","","","",""
"","","","","","choice_trial","survey-html-form","109","1561844","0.0-5.0-1.12","1","1","2025-04-10 18:08:32","7bd189e8e4882776c700e1dae255cdf5","","Mozilla/5.0 (Windows NT 10.0; Win64; x64) AppleWebKit/537.36 (KHTML, like Gecko) Chrome/135.0.0.0 Safari/537.36","WebKit","Chrome","135.0.0.0","Windows","10.0","https://hz8g1ckzuq.cognition.run/","en-US,en;q=0.9","08w3qfzxefu0mg1","","40","[""Black or African-American""]","No","Male","1977162.2999999821","6114","","","{""product_choice"":""B""}","choice","tcd","repulsion_1","1","laptops","null","null","null","null","null","null","2","100","90","100","30","40","25","Processing speed","Memory (RAM)","","",""
"","","","","","choice_trial_setup","html-keyboard-response","110","1562155","0.0-5.0-0.13","1","1","2025-04-10 18:08:32","7bd189e8e4882776c700e1dae255cdf5","","Mozilla/5.0 (Windows NT 10.0; Win64; x64) AppleWebKit/537.36 (KHTML, like Gecko) Chrome/135.0.0.0 Safari/537.36","WebKit","Chrome","135.0.0.0","Windows","10.0","https://hz8g1ckzuq.cognition.run/","en-US,en;q=0.9","08w3qfzxefu0mg1","","40","[""Black or African-American""]","No","Male","1977162.2999999821","null","","<p></p>","null","choice","tdc","repulsion_1","2","laptops","null","null","null","null","null","null","1","","","","","","","","","","",""
"","","","","","choice_trial","survey-html-form","111","1570163","0.0-5.0-1.13","1","1","2025-04-10 18:08:32","7bd189e8e4882776c700e1dae255cdf5","","Mozilla/5.0 (Windows NT 10.0; Win64; x64) AppleWebKit/537.36 (KHTML, like Gecko) Chrome/135.0.0.0 Safari/537.36","WebKit","Chrome","135.0.0.0","Windows","10.0","https://hz8g1ckzuq.cognition.run/","en-US,en;q=0.9","08w3qfzxefu0mg1","","40","[""Black or African-American""]","No","Male","1977162.2999999821","8002","","","{""product_choice"":""C""}","choice","tdc","repulsion_1","2","laptops","null","null","null","null","null","null","1","30","40","25","100","90","100","Processing speed","Memory (RAM)","","",""
"","","","","","choice_trial_setup","html-keyboard-response","112","1570478","0.0-5.0-0.14","1","1","2025-04-10 18:08:32","7bd189e8e4882776c700e1dae255cdf5","","Mozilla/5.0 (Windows NT 10.0; Win64; x64) AppleWebKit/537.36 (KHTML, like Gecko) Chrome/135.0.0.0 Safari/537.36","WebKit","Chrome","135.0.0.0","Windows","10.0","https://hz8g1ckzuq.cognition.run/","en-US,en;q=0.9","08w3qfzxefu0mg1","","40","[""Black or African-American""]","No","Male","1977162.2999999821","null","","<p></p>","null","choice","bww","catch","null","laptops","95","50","30","35","30","5","2","","","","","","","","","","",""
"","","","","","choice_trial","survey-html-form","113","1574964","0.0-5.0-1.14","1","1","2025-04-10 18:08:32","7bd189e8e4882776c700e1dae255cdf5","","Mozilla/5.0 (Windows NT 10.0; Win64; x64) AppleWebKit/537.36 (KHTML, like Gecko) Chrome/135.0.0.0 Safari/537.36","WebKit","Chrome","135.0.0.0","Windows","10.0","https://hz8g1ckzuq.cognition.run/","en-US,en;q=0.9","08w3qfzxefu0mg1","","40","[""Black or African-American""]","No","Male","1977162.2999999821","4478","","","{""product_choice"":""A""}","choice","bww","catch","null","laptops","95","50","30","35","30","5","2","null","null","null","null","null","null","Processing speed","Memory (RAM)","","",""
"","","","","","choice_trial_setup","html-keyboard-response","114","1575280","0.0-5.0-0.15","1","1","2025-04-10 18:08:32","7bd189e8e4882776c700e1dae255cdf5","","Mozilla/5.0 (Windows NT 10.0; Win64; x64) AppleWebKit/537.36 (KHTML, like Gecko) Chrome/135.0.0.0 Safari/537.36","WebKit","Chrome","135.0.0.0","Windows","10.0","https://hz8g1ckzuq.cognition.run/","en-US,en;q=0.9","08w3qfzxefu0mg1","","40","[""Black or African-American""]","No","Male","1977162.2999999821","null","","<p></p>","null","choice","cdt","attraction_2","1","laptops","null","null","null","null","null","null","1","","","","","","","","","","",""
"","","","","","choice_trial","survey-html-form","115","1582760","0.0-5.0-1.15","1","1","2025-04-10 18:08:32","7bd189e8e4882776c700e1dae255cdf5","","Mozilla/5.0 (Windows NT 10.0; Win64; x64) AppleWebKit/537.36 (KHTML, like Gecko) Chrome/135.0.0.0 Safari/537.36","WebKit","Chrome","135.0.0.0","Windows","10.0","https://hz8g1ckzuq.cognition.run/","en-US,en;q=0.9","08w3qfzxefu0mg1","","40","[""Black or African-American""]","No","Male","1977162.2999999821","7474","","","{""product_choice"":""C""}","choice","cdt","attraction_2","1","laptops","null","null","null","null","null","null","1","60","50","60","50","60","40","Processing speed","Memory (RAM)","","",""
"","","","","","choice_trial_setup","html-keyboard-response","116","1583074","0.0-5.0-0.16","1","1","2025-04-10 18:08:32","7bd189e8e4882776c700e1dae255cdf5","","Mozilla/5.0 (Windows NT 10.0; Win64; x64) AppleWebKit/537.36 (KHTML, like Gecko) Chrome/135.0.0.0 Safari/537.36","WebKit","Chrome","135.0.0.0","Windows","10.0","https://hz8g1ckzuq.cognition.run/","en-US,en;q=0.9","08w3qfzxefu0mg1","","40","[""Black or African-American""]","No","Male","1977162.2999999821","null","","<p></p>","null","choice","tcd","repulsion_2","1","televisions","null","null","null","null","null","null","2","","","","","","","","","","",""
"","","","","","choice_trial","survey-html-form","117","1587621","0.0-5.0-1.16","1","1","2025-04-10 18:08:32","7bd189e8e4882776c700e1dae255cdf5","","Mozilla/5.0 (Windows NT 10.0; Win64; x64) AppleWebKit/537.36 (KHTML, like Gecko) Chrome/135.0.0.0 Safari/537.36","WebKit","Chrome","135.0.0.0","Windows","10.0","https://hz8g1ckzuq.cognition.run/","en-US,en;q=0.9","08w3qfzxefu0mg1","","40","[""Black or African-American""]","No","Male","1977162.2999999821","4532","","","{""product_choice"":""B""}","choice","tcd","repulsion_2","1","televisions","null","null","null","null","null","null","2","100","90","100","30","40","20","Screen size","Average lifespan","","",""
"","","","","","choice_trial_setup","html-keyboard-response","118","1587936","0.0-5.0-0.17","1","1","2025-04-10 18:08:32","7bd189e8e4882776c700e1dae255cdf5","","Mozilla/5.0 (Windows NT 10.0; Win64; x64) AppleWebKit/537.36 (KHTML, like Gecko) Chrome/135.0.0.0 Safari/537.36","WebKit","Chrome","135.0.0.0","Windows","10.0","https://hz8g1ckzuq.cognition.run/","en-US,en;q=0.9","08w3qfzxefu0mg1","","40","[""Black or African-American""]","No","Male","1977162.2999999821","null","","<p></p>","null","choice","wwb","catch","null","washing machines","75","55","25","20","20","20","2","","","","","","","","","","",""
"","","","","","choice_trial","survey-html-form","119","1591258","0.0-5.0-1.17","1","1","2025-04-10 18:08:32","7bd189e8e4882776c700e1dae255cdf5","","Mozilla/5.0 (Windows NT 10.0; Win64; x64) AppleWebKit/537.36 (KHTML, like Gecko) Chrome/135.0.0.0 Safari/537.36","WebKit","Chrome","135.0.0.0","Windows","10.0","https://hz8g1ckzuq.cognition.run/","en-US,en;q=0.9","08w3qfzxefu0mg1","","40","[""Black or African-American""]","No","Male","1977162.2999999821","3316","","","{""product_choice"":""C""}","choice","wwb","catch","null","washing machines","75","55","25","20","20","20","2","null","null","null","null","null","null","Average lifespan","Energy savings","","",""
"","","","","","choice_trial_setup","html-keyboard-response","120","1591571","0.0-5.0-0.18","1","1","2025-04-10 18:08:32","7bd189e8e4882776c700e1dae255cdf5","","Mozilla/5.0 (Windows NT 10.0; Win64; x64) AppleWebKit/537.36 (KHTML, like Gecko) Chrome/135.0.0.0 Safari/537.36","WebKit","Chrome","135.0.0.0","Windows","10.0","https://hz8g1ckzuq.cognition.run/","en-US,en;q=0.9","08w3qfzxefu0mg1","","40","[""Black or African-American""]","No","Male","1977162.2999999821","null","","<p></p>","null","choice","dct","attraction_2","1","microwave ovens","null","null","null","null","null","null","1","","","","","","","","","","",""
"","","","","","choice_trial","survey-html-form","121","1598584","0.0-5.0-1.18","1","1","2025-04-10 18:08:32","7bd189e8e4882776c700e1dae255cdf5","","Mozilla/5.0 (Windows NT 10.0; Win64; x64) AppleWebKit/537.36 (KHTML, like Gecko) Chrome/135.0.0.0 Safari/537.36","WebKit","Chrome","135.0.0.0","Windows","10.0","https://hz8g1ckzuq.cognition.run/","en-US,en;q=0.9","08w3qfzxefu0mg1","","40","[""Black or African-American""]","No","Male","1977162.2999999821","7007","","","{""product_choice"":""B""}","choice","dct","attraction_2","1","microwave ovens","null","null","null","null","null","null","1","60","50","60","50","60","40","Warranty","Cooking power","","",""
"","","","","","choice_trial_setup","html-keyboard-response","122","1598890","0.0-5.0-0.19","1","1","2025-04-10 18:08:32","7bd189e8e4882776c700e1dae255cdf5","","Mozilla/5.0 (Windows NT 10.0; Win64; x64) AppleWebKit/537.36 (KHTML, like Gecko) Chrome/135.0.0.0 Safari/537.36","WebKit","Chrome","135.0.0.0","Windows","10.0","https://hz8g1ckzuq.cognition.run/","en-US,en;q=0.9","08w3qfzxefu0mg1","","40","[""Black or African-American""]","No","Male","1977162.2999999821","null","","<p></p>","null","choice","tdc","repulsion_2","2","washing machines","null","null","null","null","null","null","1","","","","","","","","","","",""
"","","","","","choice_trial","survey-html-form","123","1604312","0.0-5.0-1.19","1","1","2025-04-10 18:08:32","7bd189e8e4882776c700e1dae255cdf5","","Mozilla/5.0 (Windows NT 10.0; Win64; x64) AppleWebKit/537.36 (KHTML, like Gecko) Chrome/135.0.0.0 Safari/537.36","WebKit","Chrome","135.0.0.0","Windows","10.0","https://hz8g1ckzuq.cognition.run/","en-US,en;q=0.9","08w3qfzxefu0mg1","","40","[""Black or African-American""]","No","Male","1977162.2999999821","5416","","","{""product_choice"":""C""}","choice","tdc","repulsion_2","2","washing machines","null","null","null","null","null","null","1","30","40","20","100","90","100","Average lifespan","Energy savings","","",""
"","","","","","choice_trial_setup","html-keyboard-response","124","1604618","0.0-5.0-0.20","1","1","2025-04-10 18:08:32","7bd189e8e4882776c700e1dae255cdf5","","Mozilla/5.0 (Windows NT 10.0; Win64; x64) AppleWebKit/537.36 (KHTML, like Gecko) Chrome/135.0.0.0 Safari/537.36","WebKit","Chrome","135.0.0.0","Windows","10.0","https://hz8g1ckzuq.cognition.run/","en-US,en;q=0.9","08w3qfzxefu0mg1","","40","[""Black or African-American""]","No","Male","1977162.2999999821","null","","<p></p>","null","choice","tdc","attraction_2","1","televisions","null","null","null","null","null","null","2","","","","","","","","","","",""
"","","","","","choice_trial","survey-html-form","125","1609136","0.0-5.0-1.20","1","1","2025-04-10 18:08:32","7bd189e8e4882776c700e1dae255cdf5","","Mozilla/5.0 (Windows NT 10.0; Win64; x64) AppleWebKit/537.36 (KHTML, like Gecko) Chrome/135.0.0.0 Safari/537.36","WebKit","Chrome","135.0.0.0","Windows","10.0","https://hz8g1ckzuq.cognition.run/","en-US,en;q=0.9","08w3qfzxefu0mg1","","40","[""Black or African-American""]","No","Male","1977162.2999999821","4512","","","{""product_choice"":""C""}","choice","tdc","attraction_2","1","televisions","null","null","null","null","null","null","2","60","50","60","50","60","40","Screen size","Average lifespan","","",""
"","","","","","choice_trial_setup","html-keyboard-response","126","1609443","0.0-5.0-0.21","1","1","2025-04-10 18:08:32","7bd189e8e4882776c700e1dae255cdf5","","Mozilla/5.0 (Windows NT 10.0; Win64; x64) AppleWebKit/537.36 (KHTML, like Gecko) Chrome/135.0.0.0 Safari/537.36","WebKit","Chrome","135.0.0.0","Windows","10.0","https://hz8g1ckzuq.cognition.run/","en-US,en;q=0.9","08w3qfzxefu0mg1","","40","[""Black or African-American""]","No","Male","1977162.2999999821","null","","<p></p>","null","choice","tcd","repulsion_1","2","washing machines","null","null","null","null","null","null","1","","","","","","","","","","",""
"","","","","","choice_trial","survey-html-form","127","1614144","0.0-5.0-1.21","1","1","2025-04-10 18:08:32","7bd189e8e4882776c700e1dae255cdf5","","Mozilla/5.0 (Windows NT 10.0; Win64; x64) AppleWebKit/537.36 (KHTML, like Gecko) Chrome/135.0.0.0 Safari/537.36","WebKit","Chrome","135.0.0.0","Windows","10.0","https://hz8g1ckzuq.cognition.run/","en-US,en;q=0.9","08w3qfzxefu0mg1","","40","[""Black or African-American""]","No","Male","1977162.2999999821","4695","","","{""product_choice"":""B""}","choice","tcd","repulsion_1","2","washing machines","null","null","null","null","null","null","1","30","40","25","100","90","100","Average lifespan","Energy savings","","",""
"","","","","","choice_trial_setup","html-keyboard-response","128","1614450","0.0-5.0-0.22","1","1","2025-04-10 18:08:32","7bd189e8e4882776c700e1dae255cdf5","","Mozilla/5.0 (Windows NT 10.0; Win64; x64) AppleWebKit/537.36 (KHTML, like Gecko) Chrome/135.0.0.0 Safari/537.36","WebKit","Chrome","135.0.0.0","Windows","10.0","https://hz8g1ckzuq.cognition.run/","en-US,en;q=0.9","08w3qfzxefu0mg1","","40","[""Black or African-American""]","No","Male","1977162.2999999821","null","","<p></p>","null","choice","tcd","attraction_1","2","microwave ovens","null","null","null","null","null","null","1","","","","","","","","","","",""
"","","","","","choice_trial","survey-html-form","129","1619498","0.0-5.0-1.22","1","1","2025-04-10 18:08:32","7bd189e8e4882776c700e1dae255cdf5","","Mozilla/5.0 (Windows NT 10.0; Win64; x64) AppleWebKit/537.36 (KHTML, like Gecko) Chrome/135.0.0.0 Safari/537.36","WebKit","Chrome","135.0.0.0","Windows","10.0","https://hz8g1ckzuq.cognition.run/","en-US,en;q=0.9","08w3qfzxefu0mg1","","40","[""Black or African-American""]","No","Male","1977162.2999999821","5041","","","{""product_choice"":""B""}","choice","tcd","attraction_1","2","microwave ovens","null","null","null","null","null","null","1","50","60","45","60","50","60","Warranty","Cooking power","","",""
"","","","","","choice_trial_setup","html-keyboard-response","130","1619803","0.0-5.0-0.23","1","1","2025-04-10 18:08:32","7bd189e8e4882776c700e1dae255cdf5","","Mozilla/5.0 (Windows NT 10.0; Win64; x64) AppleWebKit/537.36 (KHTML, like Gecko) Chrome/135.0.0.0 Safari/537.36","WebKit","Chrome","135.0.0.0","Windows","10.0","https://hz8g1ckzuq.cognition.run/","en-US,en;q=0.9","08w3qfzxefu0mg1","","40","[""Black or African-American""]","No","Male","1977162.2999999821","null","","<p></p>","null","choice","bww","catch","null","microwave ovens","85","70","20","45","35","25","2","","","","","","","","","","",""
"","","","","","choice_trial","survey-html-form","131","1623552","0.0-5.0-1.23","1","1","2025-04-10 18:08:32","7bd189e8e4882776c700e1dae255cdf5","","Mozilla/5.0 (Windows NT 10.0; Win64; x64) AppleWebKit/537.36 (KHTML, like Gecko) Chrome/135.0.0.0 Safari/537.36","WebKit","Chrome","135.0.0.0","Windows","10.0","https://hz8g1ckzuq.cognition.run/","en-US,en;q=0.9","08w3qfzxefu0mg1","","40","[""Black or African-American""]","No","Male","1977162.2999999821","3743","","","{""product_choice"":""A""}","choice","bww","catch","null","microwave ovens","85","70","20","45","35","25","2","null","null","null","null","null","null","Warranty","Cooking power","","",""
"","","","","","choice_trial_setup","html-keyboard-response","132","1623868","0.0-5.0-0.24","1","1","2025-04-10 18:08:32","7bd189e8e4882776c700e1dae255cdf5","","Mozilla/5.0 (Windows NT 10.0; Win64; x64) AppleWebKit/537.36 (KHTML, like Gecko) Chrome/135.0.0.0 Safari/537.36","WebKit","Chrome","135.0.0.0","Windows","10.0","https://hz8g1ckzuq.cognition.run/","en-US,en;q=0.9","08w3qfzxefu0mg1","","40","[""Black or African-American""]","No","Male","1977162.2999999821","null","","<p></p>","null","choice","dct","repulsion_2","2","laptops","null","null","null","null","null","null","2","","","","","","","","","","",""
"","","","","","choice_trial","survey-html-form","133","1803705","0.0-5.0-1.24","1","1","2025-04-10 18:08:32","7bd189e8e4882776c700e1dae255cdf5","","Mozilla/5.0 (Windows NT 10.0; Win64; x64) AppleWebKit/537.36 (KHTML, like Gecko) Chrome/135.0.0.0 Safari/537.36","WebKit","Chrome","135.0.0.0","Windows","10.0","https://hz8g1ckzuq.cognition.run/","en-US,en;q=0.9","08w3qfzxefu0mg1","","40","[""Black or African-American""]","No","Male","1977162.2999999821","179832","","","{""product_choice"":""B""}","choice","dct","repulsion_2","2","laptops","null","null","null","null","null","null","2","30","40","20","100","90","100","Processing speed","Memory (RAM)","","",""
"","","","","","choice_trial_setup","html-keyboard-response","134","1804026","0.0-5.0-0.25","1","1","2025-04-10 18:08:32","7bd189e8e4882776c700e1dae255cdf5","","Mozilla/5.0 (Windows NT 10.0; Win64; x64) AppleWebKit/537.36 (KHTML, like Gecko) Chrome/135.0.0.0 Safari/537.36","WebKit","Chrome","135.0.0.0","Windows","10.0","https://hz8g1ckzuq.cognition.run/","en-US,en;q=0.9","08w3qfzxefu0mg1","","40","[""Black or African-American""]","No","Male","1977162.2999999821","null","","<p></p>","null","choice","ctd","attraction_2","2","laptops","null","null","null","null","null","null","2","","","","","","","","","","",""
"","","","","","choice_trial","survey-html-form","135","1809025","0.0-5.0-1.25","1","1","2025-04-10 18:08:32","7bd189e8e4882776c700e1dae255cdf5","","Mozilla/5.0 (Windows NT 10.0; Win64; x64) AppleWebKit/537.36 (KHTML, like Gecko) Chrome/135.0.0.0 Safari/537.36","WebKit","Chrome","135.0.0.0","Windows","10.0","https://hz8g1ckzuq.cognition.run/","en-US,en;q=0.9","08w3qfzxefu0mg1","","40","[""Black or African-American""]","No","Male","1977162.2999999821","4983","","","{""product_choice"":""A""}","choice","ctd","attraction_2","2","laptops","null","null","null","null","null","null","2","50","60","40","60","50","60","Processing speed","Memory (RAM)","","",""
"","","","","","choice_trial_setup","html-keyboard-response","136","1809343","0.0-5.0-0.26","1","1","2025-04-10 18:08:32","7bd189e8e4882776c700e1dae255cdf5","","Mozilla/5.0 (Windows NT 10.0; Win64; x64) AppleWebKit/537.36 (KHTML, like Gecko) Chrome/135.0.0.0 Safari/537.36","WebKit","Chrome","135.0.0.0","Windows","10.0","https://hz8g1ckzuq.cognition.run/","en-US,en;q=0.9","08w3qfzxefu0mg1","","40","[""Black or African-American""]","No","Male","1977162.2999999821","null","","<p></p>","null","choice","tcd","repulsion_1","1","washing machines","null","null","null","null","null","null","2","","","","","","","","","","",""
"","","","","","choice_trial","survey-html-form","137","1815169","0.0-5.0-1.26","1","1","2025-04-10 18:08:32","7bd189e8e4882776c700e1dae255cdf5","","Mozilla/5.0 (Windows NT 10.0; Win64; x64) AppleWebKit/537.36 (KHTML, like Gecko) Chrome/135.0.0.0 Safari/537.36","WebKit","Chrome","135.0.0.0","Windows","10.0","https://hz8g1ckzuq.cognition.run/","en-US,en;q=0.9","08w3qfzxefu0mg1","","40","[""Black or African-American""]","No","Male","1977162.2999999821","5811","","","{""product_choice"":""B""}","choice","tcd","repulsion_1","1","washing machines","null","null","null","null","null","null","2","100","90","100","30","40","25","Average lifespan","Energy savings","","",""
"","","","","","choice_trial_setup","html-keyboard-response","138","1815487","0.0-5.0-0.27","1","1","2025-04-10 18:08:32","7bd189e8e4882776c700e1dae255cdf5","","Mozilla/5.0 (Windows NT 10.0; Win64; x64) AppleWebKit/537.36 (KHTML, like Gecko) Chrome/135.0.0.0 Safari/537.36","WebKit","Chrome","135.0.0.0","Windows","10.0","https://hz8g1ckzuq.cognition.run/","en-US,en;q=0.9","08w3qfzxefu0mg1","","40","[""Black or African-American""]","No","Male","1977162.2999999821","null","","<p></p>","null","choice","bww","catch","null","washing machines","75","75","10","25","30","30","1","","","","","","","","","","",""
"","","","","","choice_trial","survey-html-form","139","1819569","0.0-5.0-1.27","1","1","2025-04-10 18:08:32","7bd189e8e4882776c700e1dae255cdf5","","Mozilla/5.0 (Windows NT 10.0; Win64; x64) AppleWebKit/537.36 (KHTML, like Gecko) Chrome/135.0.0.0 Safari/537.36","WebKit","Chrome","135.0.0.0","Windows","10.0","https://hz8g1ckzuq.cognition.run/","en-US,en;q=0.9","08w3qfzxefu0mg1","","40","[""Black or African-American""]","No","Male","1977162.2999999821","4075","","","{""product_choice"":""A""}","choice","bww","catch","null","washing machines","75","75","10","25","30","30","1","null","null","null","null","null","null","Average lifespan","Energy savings","","",""
"","","","","","choice_trial_setup","html-keyboard-response","140","1819877","0.0-5.0-0.28","1","1","2025-04-10 18:08:32","7bd189e8e4882776c700e1dae255cdf5","","Mozilla/5.0 (Windows NT 10.0; Win64; x64) AppleWebKit/537.36 (KHTML, like Gecko) Chrome/135.0.0.0 Safari/537.36","WebKit","Chrome","135.0.0.0","Windows","10.0","https://hz8g1ckzuq.cognition.run/","en-US,en;q=0.9","08w3qfzxefu0mg1","","40","[""Black or African-American""]","No","Male","1977162.2999999821","null","","<p></p>","null","choice","tcd","repulsion_2","1","washing machines","null","null","null","null","null","null","1","","","","","","","","","","",""
"","","","","","choice_trial","survey-html-form","141","1828992","0.0-5.0-1.28","1","1","2025-04-10 18:08:32","7bd189e8e4882776c700e1dae255cdf5","","Mozilla/5.0 (Windows NT 10.0; Win64; x64) AppleWebKit/537.36 (KHTML, like Gecko) Chrome/135.0.0.0 Safari/537.36","WebKit","Chrome","135.0.0.0","Windows","10.0","https://hz8g1ckzuq.cognition.run/","en-US,en;q=0.9","08w3qfzxefu0mg1","","40","[""Black or African-American""]","No","Male","1977162.2999999821","9109","","","{""product_choice"":""B""}","choice","tcd","repulsion_2","1","washing machines","null","null","null","null","null","null","1","100","90","100","30","40","20","Average lifespan","Energy savings","","",""
"","","","","","choice_trial_setup","html-keyboard-response","142","1829322","0.0-5.0-0.29","1","1","2025-04-10 18:08:32","7bd189e8e4882776c700e1dae255cdf5","","Mozilla/5.0 (Windows NT 10.0; Win64; x64) AppleWebKit/537.36 (KHTML, like Gecko) Chrome/135.0.0.0 Safari/537.36","WebKit","Chrome","135.0.0.0","Windows","10.0","https://hz8g1ckzuq.cognition.run/","en-US,en;q=0.9","08w3qfzxefu0mg1","","40","[""Black or African-American""]","No","Male","1977162.2999999821","null","","<p></p>","null","choice","tdc","attraction_1","1","microwave ovens","null","null","null","null","null","null","1","","","","","","","","","","",""
"","","","","","choice_trial","survey-html-form","143","1836568","0.0-5.0-1.29","1","1","2025-04-10 18:08:32","7bd189e8e4882776c700e1dae255cdf5","","Mozilla/5.0 (Windows NT 10.0; Win64; x64) AppleWebKit/537.36 (KHTML, like Gecko) Chrome/135.0.0.0 Safari/537.36","WebKit","Chrome","135.0.0.0","Windows","10.0","https://hz8g1ckzuq.cognition.run/","en-US,en;q=0.9","08w3qfzxefu0mg1","","40","[""Black or African-American""]","No","Male","1977162.2999999821","7229","","","{""product_choice"":""A""}","choice","tdc","attraction_1","1","microwave ovens","null","null","null","null","null","null","1","60","50","60","50","60","45","Warranty","Cooking power","","",""
"","","","","","choice_trial_setup","html-keyboard-response","144","1836890","0.0-5.0-0.30","1","1","2025-04-10 18:08:32","7bd189e8e4882776c700e1dae255cdf5","","Mozilla/5.0 (Windows NT 10.0; Win64; x64) AppleWebKit/537.36 (KHTML, like Gecko) Chrome/135.0.0.0 Safari/537.36","WebKit","Chrome","135.0.0.0","Windows","10.0","https://hz8g1ckzuq.cognition.run/","en-US,en;q=0.9","08w3qfzxefu0mg1","","40","[""Black or African-American""]","No","Male","1977162.2999999821","null","","<p></p>","null","choice","dtc","attraction_2","1","washing machines","null","null","null","null","null","null","2","","","","","","","","","","",""
"","","","","","choice_trial","survey-html-form","145","1845676","0.0-5.0-1.30","1","1","2025-04-10 18:08:32","7bd189e8e4882776c700e1dae255cdf5","","Mozilla/5.0 (Windows NT 10.0; Win64; x64) AppleWebKit/537.36 (KHTML, like Gecko) Chrome/135.0.0.0 Safari/537.36","WebKit","Chrome","135.0.0.0","Windows","10.0","https://hz8g1ckzuq.cognition.run/","en-US,en;q=0.9","08w3qfzxefu0mg1","","40","[""Black or African-American""]","No","Male","1977162.2999999821","8771","","","{""product_choice"":""B""}","choice","dtc","attraction_2","1","washing machines","null","null","null","null","null","null","2","60","50","60","50","60","40","Average lifespan","Energy savings","","",""
"","","","","","choice_trial_setup","html-keyboard-response","146","1845985","0.0-5.0-0.31","1","1","2025-04-10 18:08:32","7bd189e8e4882776c700e1dae255cdf5","","Mozilla/5.0 (Windows NT 10.0; Win64; x64) AppleWebKit/537.36 (KHTML, like Gecko) Chrome/135.0.0.0 Safari/537.36","WebKit","Chrome","135.0.0.0","Windows","10.0","https://hz8g1ckzuq.cognition.run/","en-US,en;q=0.9","08w3qfzxefu0mg1","","40","[""Black or African-American""]","No","Male","1977162.2999999821","null","","<p></p>","null","choice","ctd","attraction_2","2","microwave ovens","null","null","null","null","null","null","2","","","","","","","","","","",""
"","","","","","choice_trial","survey-html-form","147","1858171","0.0-5.0-1.31","1","1","2025-04-10 18:08:32","7bd189e8e4882776c700e1dae255cdf5","","Mozilla/5.0 (Windows NT 10.0; Win64; x64) AppleWebKit/537.36 (KHTML, like Gecko) Chrome/135.0.0.0 Safari/537.36","WebKit","Chrome","135.0.0.0","Windows","10.0","https://hz8g1ckzuq.cognition.run/","en-US,en;q=0.9","08w3qfzxefu0mg1","","40","[""Black or African-American""]","No","Male","1977162.2999999821","12157","","","{""product_choice"":""A""}","choice","ctd","attraction_2","2","microwave ovens","null","null","null","null","null","null","2","50","60","40","60","50","60","Warranty","Cooking power","","",""
"","","","","","choice_trial_setup","html-keyboard-response","148","1858490","0.0-5.0-0.32","1","1","2025-04-10 18:08:32","7bd189e8e4882776c700e1dae255cdf5","","Mozilla/5.0 (Windows NT 10.0; Win64; x64) AppleWebKit/537.36 (KHTML, like Gecko) Chrome/135.0.0.0 Safari/537.36","WebKit","Chrome","135.0.0.0","Windows","10.0","https://hz8g1ckzuq.cognition.run/","en-US,en;q=0.9","08w3qfzxefu0mg1","","40","[""Black or African-American""]","No","Male","1977162.2999999821","null","","<p></p>","null","choice","bww","catch","null","televisions","50","80","5","10","10","30","1","","","","","","","","","","",""
"","","","","","choice_trial","survey-html-form","149","1862478","0.0-5.0-1.32","1","1","2025-04-10 18:08:32","7bd189e8e4882776c700e1dae255cdf5","","Mozilla/5.0 (Windows NT 10.0; Win64; x64) AppleWebKit/537.36 (KHTML, like Gecko) Chrome/135.0.0.0 Safari/537.36","WebKit","Chrome","135.0.0.0","Windows","10.0","https://hz8g1ckzuq.cognition.run/","en-US,en;q=0.9","08w3qfzxefu0mg1","","40","[""Black or African-American""]","No","Male","1977162.2999999821","3982","","","{""product_choice"":""A""}","choice","bww","catch","null","televisions","50","80","5","10","10","30","1","null","null","null","null","null","null","Screen size","Average lifespan","","",""
"","","","","","choice_trial_setup","html-keyboard-response","150","1862797","0.0-5.0-0.33","1","1","2025-04-10 18:08:32","7bd189e8e4882776c700e1dae255cdf5","","Mozilla/5.0 (Windows NT 10.0; Win64; x64) AppleWebKit/537.36 (KHTML, like Gecko) Chrome/135.0.0.0 Safari/537.36","WebKit","Chrome","135.0.0.0","Windows","10.0","https://hz8g1ckzuq.cognition.run/","en-US,en;q=0.9","08w3qfzxefu0mg1","","40","[""Black or African-American""]","No","Male","1977162.2999999821","null","","<p></p>","null","choice","cdt","attraction_1","1","televisions","null","null","null","null","null","null","1","","","","","","","","","","",""
"","","","","","choice_trial","survey-html-form","151","1873512","0.0-5.0-1.33","1","1","2025-04-10 18:08:32","7bd189e8e4882776c700e1dae255cdf5","","Mozilla/5.0 (Windows NT 10.0; Win64; x64) AppleWebKit/537.36 (KHTML, like Gecko) Chrome/135.0.0.0 Safari/537.36","WebKit","Chrome","135.0.0.0","Windows","10.0","https://hz8g1ckzuq.cognition.run/","en-US,en;q=0.9","08w3qfzxefu0mg1","","40","[""Black or African-American""]","No","Male","1977162.2999999821","10699","","","{""product_choice"":""A""}","choice","cdt","attraction_1","1","televisions","null","null","null","null","null","null","1","60","50","60","50","60","45","Screen size","Average lifespan","","",""
