"success","timeout","failed_images","failed_audio","failed_video","screen_id","trial_type","trial_index","time_elapsed","internal_node_id","run_id","condition","recorded_at","source_code_version","ip","user_agent","device","browser","browser_version","platform","platform_version","referer","accept_language","ppt_id","age","race","ethnicity","gender","exp_duration","rt","view_history","stimulus","response","phase","order","effect","t_high","category","d1_best","d2_best","d1_worst1","d2_worst1","d1_worst2","d2_worst2","first_dim","d1_t","d1_c","d1_d","d2_t","d2_c","d2_d","d1_name","d2_name","strategy_response","question_order"
"true","false","[]","[]","[]","img preload","preload","0","572","0.0-0.0","100","1","2025-04-11 14:48:55","bb671e3ae32f654b8954ea4c4635f915","","Mozilla/5.0 (Windows NT 10.0; Win64; x64) AppleWebKit/537.36 (KHTML, like Gecko) Chrome/134.0.0.0 Safari/537.36","WebKit","Chrome","134.0.0.0","Windows","10.0","https://hz8g1ckzuq.cognition.run/","en-US,en;q=0.9,zh;q=0.8,es;q=0.7","91k47oy9cze6h15","24","[""Other""]","Yes","Female","880259.7999997139","","","","","","","","","","","","","","","","","","","","","","","","","",""
"true","","","","","","fullscreen","1","2599","0.0-1.0","100","1","2025-04-11 14:48:55","bb671e3ae32f654b8954ea4c4635f915","","Mozilla/5.0 (Windows NT 10.0; Win64; x64) AppleWebKit/537.36 (KHTML, like Gecko) Chrome/134.0.0.0 Safari/537.36","WebKit","Chrome","134.0.0.0","Windows","10.0","https://hz8g1ckzuq.cognition.run/","en-US,en;q=0.9,zh;q=0.8,es;q=0.7","91k47oy9cze6h15","24","[""Other""]","Yes","Female","880259.7999997139","1005","","","","","","","","","","","","","","","","","","","","","","","","",""
"","","","","","","instructions","2","50759","0.0-2.0","100","1","2025-04-11 14:48:55","bb671e3ae32f654b8954ea4c4635f915","","Mozilla/5.0 (Windows NT 10.0; Win64; x64) AppleWebKit/537.36 (KHTML, like Gecko) Chrome/134.0.0.0 Safari/537.36","WebKit","Chrome","134.0.0.0","Windows","10.0","https://hz8g1ckzuq.cognition.run/","en-US,en;q=0.9,zh;q=0.8,es;q=0.7","91k47oy9cze6h15","24","[""Other""]","Yes","Female","880259.7999997139","48160","[{""page_index"":0,""viewing_time"":1040},{""page_index"":1,""viewing_time"":2478},{""page_index"":2,""viewing_time"":1683},{""page_index"":3,""viewing_time"":4042},{""page_index"":4,""viewing_time"":4918},{""page_index"":5,""viewing_time"":3254},{""page_index"":6,""viewing_time"":2658},{""page_index"":7,""viewing_time"":13439},{""page_index"":8,""viewing_time"":10556},{""page_index"":9,""viewing_time"":4090}]","","","","","","","","","","","","","","","","","","","","","","","",""
"","","","","","rating_trial_setup","html-keyboard-response","3","51064","0.0-3.0-0.0","100","1","2025-04-11 14:48:55","bb671e3ae32f654b8954ea4c4635f915","","Mozilla/5.0 (Windows NT 10.0; Win64; x64) AppleWebKit/537.36 (KHTML, like Gecko) Chrome/134.0.0.0 Safari/537.36","WebKit","Chrome","134.0.0.0","Windows","10.0","https://hz8g1ckzuq.cognition.run/","en-US,en;q=0.9,zh;q=0.8,es;q=0.7","91k47oy9cze6h15","24","[""Other""]","Yes","Female","880259.7999997139","null","","<p></p>","null","rating","tcd","repulsion_2","2","televisions","null","null","null","null","null","null","2","","","","","","","","","",""
"","","","","","rating_trial","survey-html-form","4","84457","0.0-3.0-1.0","100","1","2025-04-11 14:48:55","bb671e3ae32f654b8954ea4c4635f915","","Mozilla/5.0 (Windows NT 10.0; Win64; x64) AppleWebKit/537.36 (KHTML, like Gecko) Chrome/134.0.0.0 Safari/537.36","WebKit","Chrome","134.0.0.0","Windows","10.0","https://hz8g1ckzuq.cognition.run/","en-US,en;q=0.9,zh;q=0.8,es;q=0.7","91k47oy9cze6h15","24","[""Other""]","Yes","Female","880259.7999997139","33388","","","{""price_1"":""90"",""price_2"":""120"",""price_3"":""80""}","rating","tcd","repulsion_2","2","televisions","null","null","null","null","null","null","2","30","40","20","100","90","100","Screen size","Average lifespan","",""
"","","","","","rating_trial_setup","html-keyboard-response","5","84765","0.0-3.0-0.1","100","1","2025-04-11 14:48:55","bb671e3ae32f654b8954ea4c4635f915","","Mozilla/5.0 (Windows NT 10.0; Win64; x64) AppleWebKit/537.36 (KHTML, like Gecko) Chrome/134.0.0.0 Safari/537.36","WebKit","Chrome","134.0.0.0","Windows","10.0","https://hz8g1ckzuq.cognition.run/","en-US,en;q=0.9,zh;q=0.8,es;q=0.7","91k47oy9cze6h15","24","[""Other""]","Yes","Female","880259.7999997139","null","","<p></p>","null","rating","dct","repulsion_2","2","microwave ovens","null","null","null","null","null","null","1","","","","","","","","","",""
"","","","","","rating_trial","survey-html-form","6","104594","0.0-3.0-1.1","100","1","2025-04-11 14:48:55","bb671e3ae32f654b8954ea4c4635f915","","Mozilla/5.0 (Windows NT 10.0; Win64; x64) AppleWebKit/537.36 (KHTML, like Gecko) Chrome/134.0.0.0 Safari/537.36","WebKit","Chrome","134.0.0.0","Windows","10.0","https://hz8g1ckzuq.cognition.run/","en-US,en;q=0.9,zh;q=0.8,es;q=0.7","91k47oy9cze6h15","24","[""Other""]","Yes","Female","880259.7999997139","19827","","","{""price_1"":""80"",""price_2"":""90"",""price_3"":""110""}","rating","dct","repulsion_2","2","microwave ovens","null","null","null","null","null","null","1","30","40","20","100","90","100","Warranty","Cooking power","",""
"","","","","","rating_trial_setup","html-keyboard-response","7","104897","0.0-3.0-0.2","100","1","2025-04-11 14:48:55","bb671e3ae32f654b8954ea4c4635f915","","Mozilla/5.0 (Windows NT 10.0; Win64; x64) AppleWebKit/537.36 (KHTML, like Gecko) Chrome/134.0.0.0 Safari/537.36","WebKit","Chrome","134.0.0.0","Windows","10.0","https://hz8g1ckzuq.cognition.run/","en-US,en;q=0.9,zh;q=0.8,es;q=0.7","91k47oy9cze6h15","24","[""Other""]","Yes","Female","880259.7999997139","null","","<p></p>","null","rating","tdc","repulsion_1","1","televisions","null","null","null","null","null","null","1","","","","","","","","","",""
"","","","","","rating_trial","survey-html-form","8","122834","0.0-3.0-1.2","100","1","2025-04-11 14:48:55","bb671e3ae32f654b8954ea4c4635f915","","Mozilla/5.0 (Windows NT 10.0; Win64; x64) AppleWebKit/537.36 (KHTML, like Gecko) Chrome/134.0.0.0 Safari/537.36","WebKit","Chrome","134.0.0.0","Windows","10.0","https://hz8g1ckzuq.cognition.run/","en-US,en;q=0.9,zh;q=0.8,es;q=0.7","91k47oy9cze6h15","24","[""Other""]","Yes","Female","880259.7999997139","17935","","","{""price_1"":""60"",""price_2"":""50"",""price_3"":""70""}","rating","tdc","repulsion_1","1","televisions","null","null","null","null","null","null","1","100","90","100","30","40","25","Screen size","Average lifespan","",""
"","","","","","rating_trial_setup","html-keyboard-response","9","123143","0.0-3.0-0.3","100","1","2025-04-11 14:48:55","bb671e3ae32f654b8954ea4c4635f915","","Mozilla/5.0 (Windows NT 10.0; Win64; x64) AppleWebKit/537.36 (KHTML, like Gecko) Chrome/134.0.0.0 Safari/537.36","WebKit","Chrome","134.0.0.0","Windows","10.0","https://hz8g1ckzuq.cognition.run/","en-US,en;q=0.9,zh;q=0.8,es;q=0.7","91k47oy9cze6h15","24","[""Other""]","Yes","Female","880259.7999997139","null","","<p></p>","null","rating","dct","attraction_1","1","televisions","null","null","null","null","null","null","2","","","","","","","","","",""
"","","","","","rating_trial","survey-html-form","10","134223","0.0-3.0-1.3","100","1","2025-04-11 14:48:55","bb671e3ae32f654b8954ea4c4635f915","","Mozilla/5.0 (Windows NT 10.0; Win64; x64) AppleWebKit/537.36 (KHTML, like Gecko) Chrome/134.0.0.0 Safari/537.36","WebKit","Chrome","134.0.0.0","Windows","10.0","https://hz8g1ckzuq.cognition.run/","en-US,en;q=0.9,zh;q=0.8,es;q=0.7","91k47oy9cze6h15","24","[""Other""]","Yes","Female","880259.7999997139","11078","","","{""price_1"":""60"",""price_2"":""50"",""price_3"":""45""}","rating","dct","attraction_1","1","televisions","null","null","null","null","null","null","2","60","50","60","50","60","45","Screen size","Average lifespan","",""
"","","","","","rating_trial_setup","html-keyboard-response","11","134536","0.0-3.0-0.4","100","1","2025-04-11 14:48:55","bb671e3ae32f654b8954ea4c4635f915","","Mozilla/5.0 (Windows NT 10.0; Win64; x64) AppleWebKit/537.36 (KHTML, like Gecko) Chrome/134.0.0.0 Safari/537.36","WebKit","Chrome","134.0.0.0","Windows","10.0","https://hz8g1ckzuq.cognition.run/","en-US,en;q=0.9,zh;q=0.8,es;q=0.7","91k47oy9cze6h15","24","[""Other""]","Yes","Female","880259.7999997139","null","","<p></p>","null","rating","dtc","repulsion_1","1","microwave ovens","null","null","null","null","null","null","2","","","","","","","","","",""
"","","","","","rating_trial","survey-html-form","12","149132","0.0-3.0-1.4","100","1","2025-04-11 14:48:55","bb671e3ae32f654b8954ea4c4635f915","","Mozilla/5.0 (Windows NT 10.0; Win64; x64) AppleWebKit/537.36 (KHTML, like Gecko) Chrome/134.0.0.0 Safari/537.36","WebKit","Chrome","134.0.0.0","Windows","10.0","https://hz8g1ckzuq.cognition.run/","en-US,en;q=0.9,zh;q=0.8,es;q=0.7","91k47oy9cze6h15","24","[""Other""]","Yes","Female","880259.7999997139","14593","","","{""price_1"":""50"",""price_2"":""55"",""price_3"":""60""}","rating","dtc","repulsion_1","1","microwave ovens","null","null","null","null","null","null","2","100","90","100","30","40","25","Warranty","Cooking power","",""
"","","","","","rating_trial_setup","html-keyboard-response","13","149440","0.0-3.0-0.5","100","1","2025-04-11 14:48:55","bb671e3ae32f654b8954ea4c4635f915","","Mozilla/5.0 (Windows NT 10.0; Win64; x64) AppleWebKit/537.36 (KHTML, like Gecko) Chrome/134.0.0.0 Safari/537.36","WebKit","Chrome","134.0.0.0","Windows","10.0","https://hz8g1ckzuq.cognition.run/","en-US,en;q=0.9,zh;q=0.8,es;q=0.7","91k47oy9cze6h15","24","[""Other""]","Yes","Female","880259.7999997139","null","","<p></p>","null","rating","ctd","attraction_2","1","microwave ovens","null","null","null","null","null","null","2","","","","","","","","","",""
"","","","","","rating_trial","survey-html-form","14","170434","0.0-3.0-1.5","100","1","2025-04-11 14:48:55","bb671e3ae32f654b8954ea4c4635f915","","Mozilla/5.0 (Windows NT 10.0; Win64; x64) AppleWebKit/537.36 (KHTML, like Gecko) Chrome/134.0.0.0 Safari/537.36","WebKit","Chrome","134.0.0.0","Windows","10.0","https://hz8g1ckzuq.cognition.run/","en-US,en;q=0.9,zh;q=0.8,es;q=0.7","91k47oy9cze6h15","24","[""Other""]","Yes","Female","880259.7999997139","20992","","","{""price_1"":""60"",""price_2"":""70"",""price_3"":""70""}","rating","ctd","attraction_2","1","microwave ovens","null","null","null","null","null","null","2","60","50","60","50","60","40","Warranty","Cooking power","",""
"","","","","","rating_trial_setup","html-keyboard-response","15","170740","0.0-3.0-0.6","100","1","2025-04-11 14:48:55","bb671e3ae32f654b8954ea4c4635f915","","Mozilla/5.0 (Windows NT 10.0; Win64; x64) AppleWebKit/537.36 (KHTML, like Gecko) Chrome/134.0.0.0 Safari/537.36","WebKit","Chrome","134.0.0.0","Windows","10.0","https://hz8g1ckzuq.cognition.run/","en-US,en;q=0.9,zh;q=0.8,es;q=0.7","91k47oy9cze6h15","24","[""Other""]","Yes","Female","880259.7999997139","null","","<p></p>","null","rating","tdc","attraction_1","2","washing machines","null","null","null","null","null","null","1","","","","","","","","","",""
"","","","","","rating_trial","survey-html-form","16","183291","0.0-3.0-1.6","100","1","2025-04-11 14:48:55","bb671e3ae32f654b8954ea4c4635f915","","Mozilla/5.0 (Windows NT 10.0; Win64; x64) AppleWebKit/537.36 (KHTML, like Gecko) Chrome/134.0.0.0 Safari/537.36","WebKit","Chrome","134.0.0.0","Windows","10.0","https://hz8g1ckzuq.cognition.run/","en-US,en;q=0.9,zh;q=0.8,es;q=0.7","91k47oy9cze6h15","24","[""Other""]","Yes","Female","880259.7999997139","12549","","","{""price_1"":""50"",""price_2"":""45"",""price_3"":""70""}","rating","tdc","attraction_1","2","washing machines","null","null","null","null","null","null","1","50","60","45","60","50","60","Average lifespan","Energy savings","",""
"","","","","","rating_trial_setup","html-keyboard-response","17","183604","0.0-3.0-0.7","100","1","2025-04-11 14:48:55","bb671e3ae32f654b8954ea4c4635f915","","Mozilla/5.0 (Windows NT 10.0; Win64; x64) AppleWebKit/537.36 (KHTML, like Gecko) Chrome/134.0.0.0 Safari/537.36","WebKit","Chrome","134.0.0.0","Windows","10.0","https://hz8g1ckzuq.cognition.run/","en-US,en;q=0.9,zh;q=0.8,es;q=0.7","91k47oy9cze6h15","24","[""Other""]","Yes","Female","880259.7999997139","null","","<p></p>","null","rating","tdc","repulsion_2","1","televisions","null","null","null","null","null","null","2","","","","","","","","","",""
"","","","","","rating_trial","survey-html-form","18","201901","0.0-3.0-1.7","100","1","2025-04-11 14:48:55","bb671e3ae32f654b8954ea4c4635f915","","Mozilla/5.0 (Windows NT 10.0; Win64; x64) AppleWebKit/537.36 (KHTML, like Gecko) Chrome/134.0.0.0 Safari/537.36","WebKit","Chrome","134.0.0.0","Windows","10.0","https://hz8g1ckzuq.cognition.run/","en-US,en;q=0.9,zh;q=0.8,es;q=0.7","91k47oy9cze6h15","24","[""Other""]","Yes","Female","880259.7999997139","18294","","","{""price_1"":""45"",""price_2"":""40"",""price_3"":""60""}","rating","tdc","repulsion_2","1","televisions","null","null","null","null","null","null","2","100","90","100","30","40","20","Screen size","Average lifespan","",""
"","","","","","rating_trial_setup","html-keyboard-response","19","202210","0.0-3.0-0.8","100","1","2025-04-11 14:48:55","bb671e3ae32f654b8954ea4c4635f915","","Mozilla/5.0 (Windows NT 10.0; Win64; x64) AppleWebKit/537.36 (KHTML, like Gecko) Chrome/134.0.0.0 Safari/537.36","WebKit","Chrome","134.0.0.0","Windows","10.0","https://hz8g1ckzuq.cognition.run/","en-US,en;q=0.9,zh;q=0.8,es;q=0.7","91k47oy9cze6h15","24","[""Other""]","Yes","Female","880259.7999997139","null","","<p></p>","null","rating","tcd","repulsion_2","2","laptops","null","null","null","null","null","null","2","","","","","","","","","",""
"","","","","","rating_trial","survey-html-form","20","217504","0.0-3.0-1.8","100","1","2025-04-11 14:48:55","bb671e3ae32f654b8954ea4c4635f915","","Mozilla/5.0 (Windows NT 10.0; Win64; x64) AppleWebKit/537.36 (KHTML, like Gecko) Chrome/134.0.0.0 Safari/537.36","WebKit","Chrome","134.0.0.0","Windows","10.0","https://hz8g1ckzuq.cognition.run/","en-US,en;q=0.9,zh;q=0.8,es;q=0.7","91k47oy9cze6h15","24","[""Other""]","Yes","Female","880259.7999997139","15291","","","{""price_1"":""60"",""price_2"":""80"",""price_3"":""100""}","rating","tcd","repulsion_2","2","laptops","null","null","null","null","null","null","2","30","40","20","100","90","100","Processing speed","Memory (RAM)","",""
"","","","","","rating_trial_setup","html-keyboard-response","21","217810","0.0-3.0-0.9","100","1","2025-04-11 14:48:55","bb671e3ae32f654b8954ea4c4635f915","","Mozilla/5.0 (Windows NT 10.0; Win64; x64) AppleWebKit/537.36 (KHTML, like Gecko) Chrome/134.0.0.0 Safari/537.36","WebKit","Chrome","134.0.0.0","Windows","10.0","https://hz8g1ckzuq.cognition.run/","en-US,en;q=0.9,zh;q=0.8,es;q=0.7","91k47oy9cze6h15","24","[""Other""]","Yes","Female","880259.7999997139","null","","<p></p>","null","rating","dtc","attraction_1","1","microwave ovens","null","null","null","null","null","null","1","","","","","","","","","",""
"","","","","","rating_trial","survey-html-form","22","234220","0.0-3.0-1.9","100","1","2025-04-11 14:48:55","bb671e3ae32f654b8954ea4c4635f915","","Mozilla/5.0 (Windows NT 10.0; Win64; x64) AppleWebKit/537.36 (KHTML, like Gecko) Chrome/134.0.0.0 Safari/537.36","WebKit","Chrome","134.0.0.0","Windows","10.0","https://hz8g1ckzuq.cognition.run/","en-US,en;q=0.9,zh;q=0.8,es;q=0.7","91k47oy9cze6h15","24","[""Other""]","Yes","Female","880259.7999997139","16406","","","{""price_1"":""70"",""price_2"":""60"",""price_3"":""55""}","rating","dtc","attraction_1","1","microwave ovens","null","null","null","null","null","null","1","60","50","60","50","60","45","Warranty","Cooking power","",""
"","","","","","rating_trial_setup","html-keyboard-response","23","234529","0.0-3.0-0.10","100","1","2025-04-11 14:48:55","bb671e3ae32f654b8954ea4c4635f915","","Mozilla/5.0 (Windows NT 10.0; Win64; x64) AppleWebKit/537.36 (KHTML, like Gecko) Chrome/134.0.0.0 Safari/537.36","WebKit","Chrome","134.0.0.0","Windows","10.0","https://hz8g1ckzuq.cognition.run/","en-US,en;q=0.9,zh;q=0.8,es;q=0.7","91k47oy9cze6h15","24","[""Other""]","Yes","Female","880259.7999997139","null","","<p></p>","null","rating","ctd","attraction_2","1","laptops","null","null","null","null","null","null","1","","","","","","","","","",""
"","","","","","rating_trial","survey-html-form","24","245494","0.0-3.0-1.10","100","1","2025-04-11 14:48:55","bb671e3ae32f654b8954ea4c4635f915","","Mozilla/5.0 (Windows NT 10.0; Win64; x64) AppleWebKit/537.36 (KHTML, like Gecko) Chrome/134.0.0.0 Safari/537.36","WebKit","Chrome","134.0.0.0","Windows","10.0","https://hz8g1ckzuq.cognition.run/","en-US,en;q=0.9,zh;q=0.8,es;q=0.7","91k47oy9cze6h15","24","[""Other""]","Yes","Female","880259.7999997139","10961","","","{""price_1"":""60"",""price_2"":""70"",""price_3"":""70""}","rating","ctd","attraction_2","1","laptops","null","null","null","null","null","null","1","60","50","60","50","60","40","Processing speed","Memory (RAM)","",""
"","","","","","rating_trial_setup","html-keyboard-response","25","245799","0.0-3.0-0.11","100","1","2025-04-11 14:48:55","bb671e3ae32f654b8954ea4c4635f915","","Mozilla/5.0 (Windows NT 10.0; Win64; x64) AppleWebKit/537.36 (KHTML, like Gecko) Chrome/134.0.0.0 Safari/537.36","WebKit","Chrome","134.0.0.0","Windows","10.0","https://hz8g1ckzuq.cognition.run/","en-US,en;q=0.9,zh;q=0.8,es;q=0.7","91k47oy9cze6h15","24","[""Other""]","Yes","Female","880259.7999997139","null","","<p></p>","null","rating","wwb","catch","null","washing machines","75","75","10","20","30","45","2","","","","","","","","","",""
"","","","","","rating_trial","survey-html-form","26","271490","0.0-3.0-1.11","100","1","2025-04-11 14:48:55","bb671e3ae32f654b8954ea4c4635f915","","Mozilla/5.0 (Windows NT 10.0; Win64; x64) AppleWebKit/537.36 (KHTML, like Gecko) Chrome/134.0.0.0 Safari/537.36","WebKit","Chrome","134.0.0.0","Windows","10.0","https://hz8g1ckzuq.cognition.run/","en-US,en;q=0.9,zh;q=0.8,es;q=0.7","91k47oy9cze6h15","24","[""Other""]","Yes","Female","880259.7999997139","25689","","","{""price_1"":""30"",""price_2"":""35"",""price_3"":""50""}","rating","wwb","catch","null","washing machines","75","75","10","20","30","45","2","null","null","null","null","null","null","Average lifespan","Energy savings","",""
"","","","","","rating_trial_setup","html-keyboard-response","27","271801","0.0-3.0-0.12","100","1","2025-04-11 14:48:55","bb671e3ae32f654b8954ea4c4635f915","","Mozilla/5.0 (Windows NT 10.0; Win64; x64) AppleWebKit/537.36 (KHTML, like Gecko) Chrome/134.0.0.0 Safari/537.36","WebKit","Chrome","134.0.0.0","Windows","10.0","https://hz8g1ckzuq.cognition.run/","en-US,en;q=0.9,zh;q=0.8,es;q=0.7","91k47oy9cze6h15","24","[""Other""]","Yes","Female","880259.7999997139","null","","<p></p>","null","rating","dtc","repulsion_1","2","microwave ovens","null","null","null","null","null","null","1","","","","","","","","","",""
"","","","","","rating_trial","survey-html-form","28","289736","0.0-3.0-1.12","100","1","2025-04-11 14:48:55","bb671e3ae32f654b8954ea4c4635f915","","Mozilla/5.0 (Windows NT 10.0; Win64; x64) AppleWebKit/537.36 (KHTML, like Gecko) Chrome/134.0.0.0 Safari/537.36","WebKit","Chrome","134.0.0.0","Windows","10.0","https://hz8g1ckzuq.cognition.run/","en-US,en;q=0.9,zh;q=0.8,es;q=0.7","91k47oy9cze6h15","24","[""Other""]","Yes","Female","880259.7999997139","17933","","","{""price_1"":""80"",""price_2"":""90"",""price_3"":""110""}","rating","dtc","repulsion_1","2","microwave ovens","null","null","null","null","null","null","1","30","40","25","100","90","100","Warranty","Cooking power","",""
"","","","","","rating_trial_setup","html-keyboard-response","29","290039","0.0-3.0-0.13","100","1","2025-04-11 14:48:55","bb671e3ae32f654b8954ea4c4635f915","","Mozilla/5.0 (Windows NT 10.0; Win64; x64) AppleWebKit/537.36 (KHTML, like Gecko) Chrome/134.0.0.0 Safari/537.36","WebKit","Chrome","134.0.0.0","Windows","10.0","https://hz8g1ckzuq.cognition.run/","en-US,en;q=0.9,zh;q=0.8,es;q=0.7","91k47oy9cze6h15","24","[""Other""]","Yes","Female","880259.7999997139","null","","<p></p>","null","rating","tcd","attraction_2","2","televisions","null","null","null","null","null","null","2","","","","","","","","","",""
"","","","","","rating_trial","survey-html-form","30","306085","0.0-3.0-1.13","100","1","2025-04-11 14:48:55","bb671e3ae32f654b8954ea4c4635f915","","Mozilla/5.0 (Windows NT 10.0; Win64; x64) AppleWebKit/537.36 (KHTML, like Gecko) Chrome/134.0.0.0 Safari/537.36","WebKit","Chrome","134.0.0.0","Windows","10.0","https://hz8g1ckzuq.cognition.run/","en-US,en;q=0.9,zh;q=0.8,es;q=0.7","91k47oy9cze6h15","24","[""Other""]","Yes","Female","880259.7999997139","16044","","","{""price_1"":""60"",""price_2"":""50"",""price_3"":""60""}","rating","tcd","attraction_2","2","televisions","null","null","null","null","null","null","2","50","60","40","60","50","60","Screen size","Average lifespan","",""
"","","","","","rating_trial_setup","html-keyboard-response","31","306388","0.0-3.0-0.14","100","1","2025-04-11 14:48:55","bb671e3ae32f654b8954ea4c4635f915","","Mozilla/5.0 (Windows NT 10.0; Win64; x64) AppleWebKit/537.36 (KHTML, like Gecko) Chrome/134.0.0.0 Safari/537.36","WebKit","Chrome","134.0.0.0","Windows","10.0","https://hz8g1ckzuq.cognition.run/","en-US,en;q=0.9,zh;q=0.8,es;q=0.7","91k47oy9cze6h15","24","[""Other""]","Yes","Female","880259.7999997139","null","","<p></p>","null","rating","bww","catch","null","televisions","50","70","5","30","10","40","2","","","","","","","","","",""
"","","","","","rating_trial","survey-html-form","32","320682","0.0-3.0-1.14","100","1","2025-04-11 14:48:55","bb671e3ae32f654b8954ea4c4635f915","","Mozilla/5.0 (Windows NT 10.0; Win64; x64) AppleWebKit/537.36 (KHTML, like Gecko) Chrome/134.0.0.0 Safari/537.36","WebKit","Chrome","134.0.0.0","Windows","10.0","https://hz8g1ckzuq.cognition.run/","en-US,en;q=0.9,zh;q=0.8,es;q=0.7","91k47oy9cze6h15","24","[""Other""]","Yes","Female","880259.7999997139","14293","","","{""price_1"":""70"",""price_2"":""40"",""price_3"":""45""}","rating","bww","catch","null","televisions","50","70","5","30","10","40","2","null","null","null","null","null","null","Screen size","Average lifespan","",""
"","","","","","rating_trial_setup","html-keyboard-response","33","320992","0.0-3.0-0.15","100","1","2025-04-11 14:48:55","bb671e3ae32f654b8954ea4c4635f915","","Mozilla/5.0 (Windows NT 10.0; Win64; x64) AppleWebKit/537.36 (KHTML, like Gecko) Chrome/134.0.0.0 Safari/537.36","WebKit","Chrome","134.0.0.0","Windows","10.0","https://hz8g1ckzuq.cognition.run/","en-US,en;q=0.9,zh;q=0.8,es;q=0.7","91k47oy9cze6h15","24","[""Other""]","Yes","Female","880259.7999997139","null","","<p></p>","null","rating","tcd","attraction_2","2","laptops","null","null","null","null","null","null","1","","","","","","","","","",""
"","","","","","rating_trial","survey-html-form","34","333133","0.0-3.0-1.15","100","1","2025-04-11 14:48:55","bb671e3ae32f654b8954ea4c4635f915","","Mozilla/5.0 (Windows NT 10.0; Win64; x64) AppleWebKit/537.36 (KHTML, like Gecko) Chrome/134.0.0.0 Safari/537.36","WebKit","Chrome","134.0.0.0","Windows","10.0","https://hz8g1ckzuq.cognition.run/","en-US,en;q=0.9,zh;q=0.8,es;q=0.7","91k47oy9cze6h15","24","[""Other""]","Yes","Female","880259.7999997139","12139","","","{""price_1"":""70"",""price_2"":""60"",""price_3"":""50""}","rating","tcd","attraction_2","2","laptops","null","null","null","null","null","null","1","50","60","40","60","50","60","Processing speed","Memory (RAM)","",""
"","","","","","rating_trial_setup","html-keyboard-response","35","333437","0.0-3.0-0.16","100","1","2025-04-11 14:48:55","bb671e3ae32f654b8954ea4c4635f915","","Mozilla/5.0 (Windows NT 10.0; Win64; x64) AppleWebKit/537.36 (KHTML, like Gecko) Chrome/134.0.0.0 Safari/537.36","WebKit","Chrome","134.0.0.0","Windows","10.0","https://hz8g1ckzuq.cognition.run/","en-US,en;q=0.9,zh;q=0.8,es;q=0.7","91k47oy9cze6h15","24","[""Other""]","Yes","Female","880259.7999997139","null","","<p></p>","null","rating","dct","repulsion_1","2","washing machines","null","null","null","null","null","null","2","","","","","","","","","",""
"","","","","","rating_trial","survey-html-form","36","360108","0.0-3.0-1.16","100","1","2025-04-11 14:48:55","bb671e3ae32f654b8954ea4c4635f915","","Mozilla/5.0 (Windows NT 10.0; Win64; x64) AppleWebKit/537.36 (KHTML, like Gecko) Chrome/134.0.0.0 Safari/537.36","WebKit","Chrome","134.0.0.0","Windows","10.0","https://hz8g1ckzuq.cognition.run/","en-US,en;q=0.9,zh;q=0.8,es;q=0.7","91k47oy9cze6h15","24","[""Other""]","Yes","Female","880259.7999997139","26669","","","{""price_1"":""70"",""price_2"":""65"",""price_3"":""110""}","rating","dct","repulsion_1","2","washing machines","null","null","null","null","null","null","2","30","40","25","100","90","100","Average lifespan","Energy savings","",""
"","","","","","rating_trial_setup","html-keyboard-response","37","360413","0.0-3.0-0.17","100","1","2025-04-11 14:48:55","bb671e3ae32f654b8954ea4c4635f915","","Mozilla/5.0 (Windows NT 10.0; Win64; x64) AppleWebKit/537.36 (KHTML, like Gecko) Chrome/134.0.0.0 Safari/537.36","WebKit","Chrome","134.0.0.0","Windows","10.0","https://hz8g1ckzuq.cognition.run/","en-US,en;q=0.9,zh;q=0.8,es;q=0.7","91k47oy9cze6h15","24","[""Other""]","Yes","Female","880259.7999997139","null","","<p></p>","null","rating","wwb","catch","null","microwave ovens","95","50","10","5","50","40","2","","","","","","","","","",""
"","","","","","rating_trial","survey-html-form","38","372484","0.0-3.0-1.17","100","1","2025-04-11 14:48:55","bb671e3ae32f654b8954ea4c4635f915","","Mozilla/5.0 (Windows NT 10.0; Win64; x64) AppleWebKit/537.36 (KHTML, like Gecko) Chrome/134.0.0.0 Safari/537.36","WebKit","Chrome","134.0.0.0","Windows","10.0","https://hz8g1ckzuq.cognition.run/","en-US,en;q=0.9,zh;q=0.8,es;q=0.7","91k47oy9cze6h15","24","[""Other""]","Yes","Female","880259.7999997139","12067","","","{""price_1"":""20"",""price_2"":""30"",""price_3"":""60""}","rating","wwb","catch","null","microwave ovens","95","50","10","5","50","40","2","null","null","null","null","null","null","Warranty","Cooking power","",""
"","","","","","rating_trial_setup","html-keyboard-response","39","372792","0.0-3.0-0.18","100","1","2025-04-11 14:48:55","bb671e3ae32f654b8954ea4c4635f915","","Mozilla/5.0 (Windows NT 10.0; Win64; x64) AppleWebKit/537.36 (KHTML, like Gecko) Chrome/134.0.0.0 Safari/537.36","WebKit","Chrome","134.0.0.0","Windows","10.0","https://hz8g1ckzuq.cognition.run/","en-US,en;q=0.9,zh;q=0.8,es;q=0.7","91k47oy9cze6h15","24","[""Other""]","Yes","Female","880259.7999997139","null","","<p></p>","null","rating","tdc","repulsion_2","1","laptops","null","null","null","null","null","null","2","","","","","","","","","",""
"","","","","","rating_trial","survey-html-form","40","383923","0.0-3.0-1.18","100","1","2025-04-11 14:48:55","bb671e3ae32f654b8954ea4c4635f915","","Mozilla/5.0 (Windows NT 10.0; Win64; x64) AppleWebKit/537.36 (KHTML, like Gecko) Chrome/134.0.0.0 Safari/537.36","WebKit","Chrome","134.0.0.0","Windows","10.0","https://hz8g1ckzuq.cognition.run/","en-US,en;q=0.9,zh;q=0.8,es;q=0.7","91k47oy9cze6h15","24","[""Other""]","Yes","Female","880259.7999997139","11128","","","{""price_1"":""30"",""price_2"":""25"",""price_3"":""60""}","rating","tdc","repulsion_2","1","laptops","null","null","null","null","null","null","2","100","90","100","30","40","20","Processing speed","Memory (RAM)","",""
"","","","","","rating_trial_setup","html-keyboard-response","41","384232","0.0-3.0-0.19","100","1","2025-04-11 14:48:55","bb671e3ae32f654b8954ea4c4635f915","","Mozilla/5.0 (Windows NT 10.0; Win64; x64) AppleWebKit/537.36 (KHTML, like Gecko) Chrome/134.0.0.0 Safari/537.36","WebKit","Chrome","134.0.0.0","Windows","10.0","https://hz8g1ckzuq.cognition.run/","en-US,en;q=0.9,zh;q=0.8,es;q=0.7","91k47oy9cze6h15","24","[""Other""]","Yes","Female","880259.7999997139","null","","<p></p>","null","rating","dct","repulsion_1","1","laptops","null","null","null","null","null","null","1","","","","","","","","","",""
"","","","","","rating_trial","survey-html-form","42","396571","0.0-3.0-1.19","100","1","2025-04-11 14:48:55","bb671e3ae32f654b8954ea4c4635f915","","Mozilla/5.0 (Windows NT 10.0; Win64; x64) AppleWebKit/537.36 (KHTML, like Gecko) Chrome/134.0.0.0 Safari/537.36","WebKit","Chrome","134.0.0.0","Windows","10.0","https://hz8g1ckzuq.cognition.run/","en-US,en;q=0.9,zh;q=0.8,es;q=0.7","91k47oy9cze6h15","24","[""Other""]","Yes","Female","880259.7999997139","12336","","","{""price_1"":""60"",""price_2"":""60"",""price_3"":""90""}","rating","dct","repulsion_1","1","laptops","null","null","null","null","null","null","1","100","90","100","30","40","25","Processing speed","Memory (RAM)","",""
"","","","","","rating_trial_setup","html-keyboard-response","43","396880","0.0-3.0-0.20","100","1","2025-04-11 14:48:55","bb671e3ae32f654b8954ea4c4635f915","","Mozilla/5.0 (Windows NT 10.0; Win64; x64) AppleWebKit/537.36 (KHTML, like Gecko) Chrome/134.0.0.0 Safari/537.36","WebKit","Chrome","134.0.0.0","Windows","10.0","https://hz8g1ckzuq.cognition.run/","en-US,en;q=0.9,zh;q=0.8,es;q=0.7","91k47oy9cze6h15","24","[""Other""]","Yes","Female","880259.7999997139","null","","<p></p>","null","rating","wbw","catch","null","washing machines","55","70","35","50","30","35","1","","","","","","","","","",""
"","","","","","rating_trial","survey-html-form","44","409760","0.0-3.0-1.20","100","1","2025-04-11 14:48:55","bb671e3ae32f654b8954ea4c4635f915","","Mozilla/5.0 (Windows NT 10.0; Win64; x64) AppleWebKit/537.36 (KHTML, like Gecko) Chrome/134.0.0.0 Safari/537.36","WebKit","Chrome","134.0.0.0","Windows","10.0","https://hz8g1ckzuq.cognition.run/","en-US,en;q=0.9,zh;q=0.8,es;q=0.7","91k47oy9cze6h15","24","[""Other""]","Yes","Female","880259.7999997139","12878","","","{""price_1"":""50"",""price_2"":""60"",""price_3"":""30""}","rating","wbw","catch","null","washing machines","55","70","35","50","30","35","1","null","null","null","null","null","null","Average lifespan","Energy savings","",""
"","","","","","rating_trial_setup","html-keyboard-response","45","410064","0.0-3.0-0.21","100","1","2025-04-11 14:48:55","bb671e3ae32f654b8954ea4c4635f915","","Mozilla/5.0 (Windows NT 10.0; Win64; x64) AppleWebKit/537.36 (KHTML, like Gecko) Chrome/134.0.0.0 Safari/537.36","WebKit","Chrome","134.0.0.0","Windows","10.0","https://hz8g1ckzuq.cognition.run/","en-US,en;q=0.9,zh;q=0.8,es;q=0.7","91k47oy9cze6h15","24","[""Other""]","Yes","Female","880259.7999997139","null","","<p></p>","null","rating","ctd","attraction_2","2","washing machines","null","null","null","null","null","null","2","","","","","","","","","",""
"","","","","","rating_trial","survey-html-form","46","420370","0.0-3.0-1.21","100","1","2025-04-11 14:48:55","bb671e3ae32f654b8954ea4c4635f915","","Mozilla/5.0 (Windows NT 10.0; Win64; x64) AppleWebKit/537.36 (KHTML, like Gecko) Chrome/134.0.0.0 Safari/537.36","WebKit","Chrome","134.0.0.0","Windows","10.0","https://hz8g1ckzuq.cognition.run/","en-US,en;q=0.9,zh;q=0.8,es;q=0.7","91k47oy9cze6h15","24","[""Other""]","Yes","Female","880259.7999997139","10303","","","{""price_1"":""40"",""price_2"":""50"",""price_3"":""45""}","rating","ctd","attraction_2","2","washing machines","null","null","null","null","null","null","2","50","60","40","60","50","60","Average lifespan","Energy savings","",""
"","","","","","rating_trial_setup","html-keyboard-response","47","420673","0.0-3.0-0.22","100","1","2025-04-11 14:48:55","bb671e3ae32f654b8954ea4c4635f915","","Mozilla/5.0 (Windows NT 10.0; Win64; x64) AppleWebKit/537.36 (KHTML, like Gecko) Chrome/134.0.0.0 Safari/537.36","WebKit","Chrome","134.0.0.0","Windows","10.0","https://hz8g1ckzuq.cognition.run/","en-US,en;q=0.9,zh;q=0.8,es;q=0.7","91k47oy9cze6h15","24","[""Other""]","Yes","Female","880259.7999997139","null","","<p></p>","null","rating","cdt","attraction_1","2","laptops","null","null","null","null","null","null","2","","","","","","","","","",""
"","","","","","rating_trial","survey-html-form","48","431444","0.0-3.0-1.22","100","1","2025-04-11 14:48:55","bb671e3ae32f654b8954ea4c4635f915","","Mozilla/5.0 (Windows NT 10.0; Win64; x64) AppleWebKit/537.36 (KHTML, like Gecko) Chrome/134.0.0.0 Safari/537.36","WebKit","Chrome","134.0.0.0","Windows","10.0","https://hz8g1ckzuq.cognition.run/","en-US,en;q=0.9,zh;q=0.8,es;q=0.7","91k47oy9cze6h15","24","[""Other""]","Yes","Female","880259.7999997139","10768","","","{""price_1"":""40"",""price_2"":""50"",""price_3"":""60""}","rating","cdt","attraction_1","2","laptops","null","null","null","null","null","null","2","50","60","45","60","50","60","Processing speed","Memory (RAM)","",""
"","","","","","rating_trial_setup","html-keyboard-response","49","431752","0.0-3.0-0.23","100","1","2025-04-11 14:48:55","bb671e3ae32f654b8954ea4c4635f915","","Mozilla/5.0 (Windows NT 10.0; Win64; x64) AppleWebKit/537.36 (KHTML, like Gecko) Chrome/134.0.0.0 Safari/537.36","WebKit","Chrome","134.0.0.0","Windows","10.0","https://hz8g1ckzuq.cognition.run/","en-US,en;q=0.9,zh;q=0.8,es;q=0.7","91k47oy9cze6h15","24","[""Other""]","Yes","Female","880259.7999997139","null","","<p></p>","null","rating","dtc","repulsion_2","1","washing machines","null","null","null","null","null","null","2","","","","","","","","","",""
"","","","","","rating_trial","survey-html-form","50","443256","0.0-3.0-1.23","100","1","2025-04-11 14:48:55","bb671e3ae32f654b8954ea4c4635f915","","Mozilla/5.0 (Windows NT 10.0; Win64; x64) AppleWebKit/537.36 (KHTML, like Gecko) Chrome/134.0.0.0 Safari/537.36","WebKit","Chrome","134.0.0.0","Windows","10.0","https://hz8g1ckzuq.cognition.run/","en-US,en;q=0.9,zh;q=0.8,es;q=0.7","91k47oy9cze6h15","24","[""Other""]","Yes","Female","880259.7999997139","11500","","","{""price_1"":""40"",""price_2"":""50"",""price_3"":""60""}","rating","dtc","repulsion_2","1","washing machines","null","null","null","null","null","null","2","100","90","100","30","40","20","Average lifespan","Energy savings","",""
"","","","","","rating_trial_setup","html-keyboard-response","51","443561","0.0-3.0-0.24","100","1","2025-04-11 14:48:55","bb671e3ae32f654b8954ea4c4635f915","","Mozilla/5.0 (Windows NT 10.0; Win64; x64) AppleWebKit/537.36 (KHTML, like Gecko) Chrome/134.0.0.0 Safari/537.36","WebKit","Chrome","134.0.0.0","Windows","10.0","https://hz8g1ckzuq.cognition.run/","en-US,en;q=0.9,zh;q=0.8,es;q=0.7","91k47oy9cze6h15","24","[""Other""]","Yes","Female","880259.7999997139","null","","<p></p>","null","rating","tcd","attraction_2","1","televisions","null","null","null","null","null","null","1","","","","","","","","","",""
"","","","","","rating_trial","survey-html-form","52","464384","0.0-3.0-1.24","100","1","2025-04-11 14:48:55","bb671e3ae32f654b8954ea4c4635f915","","Mozilla/5.0 (Windows NT 10.0; Win64; x64) AppleWebKit/537.36 (KHTML, like Gecko) Chrome/134.0.0.0 Safari/537.36","WebKit","Chrome","134.0.0.0","Windows","10.0","https://hz8g1ckzuq.cognition.run/","en-US,en;q=0.9,zh;q=0.8,es;q=0.7","91k47oy9cze6h15","24","[""Other""]","Yes","Female","880259.7999997139","20819","","","{""price_1"":""50"",""price_2"":""45"",""price_3"":""40""}","rating","tcd","attraction_2","1","televisions","null","null","null","null","null","null","1","60","50","60","50","60","40","Screen size","Average lifespan","",""
"","","","","","rating_trial_setup","html-keyboard-response","53","464694","0.0-3.0-0.25","100","1","2025-04-11 14:48:55","bb671e3ae32f654b8954ea4c4635f915","","Mozilla/5.0 (Windows NT 10.0; Win64; x64) AppleWebKit/537.36 (KHTML, like Gecko) Chrome/134.0.0.0 Safari/537.36","WebKit","Chrome","134.0.0.0","Windows","10.0","https://hz8g1ckzuq.cognition.run/","en-US,en;q=0.9,zh;q=0.8,es;q=0.7","91k47oy9cze6h15","24","[""Other""]","Yes","Female","880259.7999997139","null","","<p></p>","null","rating","tdc","repulsion_2","2","washing machines","null","null","null","null","null","null","1","","","","","","","","","",""
"","","","","","rating_trial","survey-html-form","54","476381","0.0-3.0-1.25","100","1","2025-04-11 14:48:55","bb671e3ae32f654b8954ea4c4635f915","","Mozilla/5.0 (Windows NT 10.0; Win64; x64) AppleWebKit/537.36 (KHTML, like Gecko) Chrome/134.0.0.0 Safari/537.36","WebKit","Chrome","134.0.0.0","Windows","10.0","https://hz8g1ckzuq.cognition.run/","en-US,en;q=0.9,zh;q=0.8,es;q=0.7","91k47oy9cze6h15","24","[""Other""]","Yes","Female","880259.7999997139","11684","","","{""price_1"":""30"",""price_2"":""25"",""price_3"":""100""}","rating","tdc","repulsion_2","2","washing machines","null","null","null","null","null","null","1","30","40","20","100","90","100","Average lifespan","Energy savings","",""
"","","","","","rating_trial_setup","html-keyboard-response","55","476690","0.0-3.0-0.26","100","1","2025-04-11 14:48:55","bb671e3ae32f654b8954ea4c4635f915","","Mozilla/5.0 (Windows NT 10.0; Win64; x64) AppleWebKit/537.36 (KHTML, like Gecko) Chrome/134.0.0.0 Safari/537.36","WebKit","Chrome","134.0.0.0","Windows","10.0","https://hz8g1ckzuq.cognition.run/","en-US,en;q=0.9,zh;q=0.8,es;q=0.7","91k47oy9cze6h15","24","[""Other""]","Yes","Female","880259.7999997139","null","","<p></p>","null","rating","dtc","repulsion_1","1","washing machines","null","null","null","null","null","null","2","","","","","","","","","",""
"","","","","","rating_trial","survey-html-form","56","490518","0.0-3.0-1.26","100","1","2025-04-11 14:48:55","bb671e3ae32f654b8954ea4c4635f915","","Mozilla/5.0 (Windows NT 10.0; Win64; x64) AppleWebKit/537.36 (KHTML, like Gecko) Chrome/134.0.0.0 Safari/537.36","WebKit","Chrome","134.0.0.0","Windows","10.0","https://hz8g1ckzuq.cognition.run/","en-US,en;q=0.9,zh;q=0.8,es;q=0.7","91k47oy9cze6h15","24","[""Other""]","Yes","Female","880259.7999997139","13825","","","{""price_1"":""20"",""price_2"":""110"",""price_3"":""120""}","rating","dtc","repulsion_1","1","washing machines","null","null","null","null","null","null","2","100","90","100","30","40","25","Average lifespan","Energy savings","",""
"","","","","","rating_trial_setup","html-keyboard-response","57","490822","0.0-3.0-0.27","100","1","2025-04-11 14:48:55","bb671e3ae32f654b8954ea4c4635f915","","Mozilla/5.0 (Windows NT 10.0; Win64; x64) AppleWebKit/537.36 (KHTML, like Gecko) Chrome/134.0.0.0 Safari/537.36","WebKit","Chrome","134.0.0.0","Windows","10.0","https://hz8g1ckzuq.cognition.run/","en-US,en;q=0.9,zh;q=0.8,es;q=0.7","91k47oy9cze6h15","24","[""Other""]","Yes","Female","880259.7999997139","null","","<p></p>","null","rating","dtc","attraction_1","2","microwave ovens","null","null","null","null","null","null","2","","","","","","","","","",""
"","","","","","rating_trial","survey-html-form","58","504391","0.0-3.0-1.27","100","1","2025-04-11 14:48:55","bb671e3ae32f654b8954ea4c4635f915","","Mozilla/5.0 (Windows NT 10.0; Win64; x64) AppleWebKit/537.36 (KHTML, like Gecko) Chrome/134.0.0.0 Safari/537.36","WebKit","Chrome","134.0.0.0","Windows","10.0","https://hz8g1ckzuq.cognition.run/","en-US,en;q=0.9,zh;q=0.8,es;q=0.7","91k47oy9cze6h15","24","[""Other""]","Yes","Female","880259.7999997139","13566","","","{""price_1"":""60"",""price_2"":""70"",""price_3"":""50""}","rating","dtc","attraction_1","2","microwave ovens","null","null","null","null","null","null","2","50","60","45","60","50","60","Warranty","Cooking power","",""
"","","","","","rating_trial_setup","html-keyboard-response","59","504700","0.0-3.0-0.28","100","1","2025-04-11 14:48:55","bb671e3ae32f654b8954ea4c4635f915","","Mozilla/5.0 (Windows NT 10.0; Win64; x64) AppleWebKit/537.36 (KHTML, like Gecko) Chrome/134.0.0.0 Safari/537.36","WebKit","Chrome","134.0.0.0","Windows","10.0","https://hz8g1ckzuq.cognition.run/","en-US,en;q=0.9,zh;q=0.8,es;q=0.7","91k47oy9cze6h15","24","[""Other""]","Yes","Female","880259.7999997139","null","","<p></p>","null","rating","ctd","attraction_1","1","laptops","null","null","null","null","null","null","1","","","","","","","","","",""
"","","","","","rating_trial","survey-html-form","60","517060","0.0-3.0-1.28","100","1","2025-04-11 14:48:55","bb671e3ae32f654b8954ea4c4635f915","","Mozilla/5.0 (Windows NT 10.0; Win64; x64) AppleWebKit/537.36 (KHTML, like Gecko) Chrome/134.0.0.0 Safari/537.36","WebKit","Chrome","134.0.0.0","Windows","10.0","https://hz8g1ckzuq.cognition.run/","en-US,en;q=0.9,zh;q=0.8,es;q=0.7","91k47oy9cze6h15","24","[""Other""]","Yes","Female","880259.7999997139","12357","","","{""price_1"":""60"",""price_2"":""80"",""price_3"":""70""}","rating","ctd","attraction_1","1","laptops","null","null","null","null","null","null","1","60","50","60","50","60","45","Processing speed","Memory (RAM)","",""
"","","","","","rating_trial_setup","html-keyboard-response","61","517374","0.0-3.0-0.29","100","1","2025-04-11 14:48:55","bb671e3ae32f654b8954ea4c4635f915","","Mozilla/5.0 (Windows NT 10.0; Win64; x64) AppleWebKit/537.36 (KHTML, like Gecko) Chrome/134.0.0.0 Safari/537.36","WebKit","Chrome","134.0.0.0","Windows","10.0","https://hz8g1ckzuq.cognition.run/","en-US,en;q=0.9,zh;q=0.8,es;q=0.7","91k47oy9cze6h15","24","[""Other""]","Yes","Female","880259.7999997139","null","","<p></p>","null","rating","tdc","repulsion_2","1","microwave ovens","null","null","null","null","null","null","1","","","","","","","","","",""
"","","","","","rating_trial","survey-html-form","62","535260","0.0-3.0-1.29","100","1","2025-04-11 14:48:55","bb671e3ae32f654b8954ea4c4635f915","","Mozilla/5.0 (Windows NT 10.0; Win64; x64) AppleWebKit/537.36 (KHTML, like Gecko) Chrome/134.0.0.0 Safari/537.36","WebKit","Chrome","134.0.0.0","Windows","10.0","https://hz8g1ckzuq.cognition.run/","en-US,en;q=0.9,zh;q=0.8,es;q=0.7","91k47oy9cze6h15","24","[""Other""]","Yes","Female","880259.7999997139","17883","","","{""price_1"":""90"",""price_2"":""90"",""price_3"":""90""}","rating","tdc","repulsion_2","1","microwave ovens","null","null","null","null","null","null","1","100","90","100","30","40","20","Warranty","Cooking power","",""
"","","","","","rating_trial_setup","html-keyboard-response","63","535571","0.0-3.0-0.30","100","1","2025-04-11 14:48:55","bb671e3ae32f654b8954ea4c4635f915","","Mozilla/5.0 (Windows NT 10.0; Win64; x64) AppleWebKit/537.36 (KHTML, like Gecko) Chrome/134.0.0.0 Safari/537.36","WebKit","Chrome","134.0.0.0","Windows","10.0","https://hz8g1ckzuq.cognition.run/","en-US,en;q=0.9,zh;q=0.8,es;q=0.7","91k47oy9cze6h15","24","[""Other""]","Yes","Female","880259.7999997139","null","","<p></p>","null","rating","dtc","attraction_2","1","washing machines","null","null","null","null","null","null","2","","","","","","","","","",""
"","","","","","rating_trial","survey-html-form","64","547430","0.0-3.0-1.30","100","1","2025-04-11 14:48:55","bb671e3ae32f654b8954ea4c4635f915","","Mozilla/5.0 (Windows NT 10.0; Win64; x64) AppleWebKit/537.36 (KHTML, like Gecko) Chrome/134.0.0.0 Safari/537.36","WebKit","Chrome","134.0.0.0","Windows","10.0","https://hz8g1ckzuq.cognition.run/","en-US,en;q=0.9,zh;q=0.8,es;q=0.7","91k47oy9cze6h15","24","[""Other""]","Yes","Female","880259.7999997139","11855","","","{""price_1"":""40"",""price_2"":""50"",""price_3"":""50""}","rating","dtc","attraction_2","1","washing machines","null","null","null","null","null","null","2","60","50","60","50","60","40","Average lifespan","Energy savings","",""
"","","","","","rating_trial_setup","html-keyboard-response","65","547741","0.0-3.0-0.31","100","1","2025-04-11 14:48:55","bb671e3ae32f654b8954ea4c4635f915","","Mozilla/5.0 (Windows NT 10.0; Win64; x64) AppleWebKit/537.36 (KHTML, like Gecko) Chrome/134.0.0.0 Safari/537.36","WebKit","Chrome","134.0.0.0","Windows","10.0","https://hz8g1ckzuq.cognition.run/","en-US,en;q=0.9,zh;q=0.8,es;q=0.7","91k47oy9cze6h15","24","[""Other""]","Yes","Female","880259.7999997139","null","","<p></p>","null","rating","cdt","attraction_1","2","televisions","null","null","null","null","null","null","1","","","","","","","","","",""
"","","","","","rating_trial","survey-html-form","66","558388","0.0-3.0-1.31","100","1","2025-04-11 14:48:55","bb671e3ae32f654b8954ea4c4635f915","","Mozilla/5.0 (Windows NT 10.0; Win64; x64) AppleWebKit/537.36 (KHTML, like Gecko) Chrome/134.0.0.0 Safari/537.36","WebKit","Chrome","134.0.0.0","Windows","10.0","https://hz8g1ckzuq.cognition.run/","en-US,en;q=0.9,zh;q=0.8,es;q=0.7","91k47oy9cze6h15","24","[""Other""]","Yes","Female","880259.7999997139","10643","","","{""price_1"":""80"",""price_2"":""50"",""price_3"":""70""}","rating","cdt","attraction_1","2","televisions","null","null","null","null","null","null","1","50","60","45","60","50","60","Screen size","Average lifespan","",""
"","","","","","rating_trial_setup","html-keyboard-response","67","558705","0.0-3.0-0.32","100","1","2025-04-11 14:48:55","bb671e3ae32f654b8954ea4c4635f915","","Mozilla/5.0 (Windows NT 10.0; Win64; x64) AppleWebKit/537.36 (KHTML, like Gecko) Chrome/134.0.0.0 Safari/537.36","WebKit","Chrome","134.0.0.0","Windows","10.0","https://hz8g1ckzuq.cognition.run/","en-US,en;q=0.9,zh;q=0.8,es;q=0.7","91k47oy9cze6h15","24","[""Other""]","Yes","Female","880259.7999997139","null","","<p></p>","null","rating","wbw","catch","null","laptops","95","80","35","25","35","45","1","","","","","","","","","",""
"","","","","","rating_trial","survey-html-form","68","574028","0.0-3.0-1.32","100","1","2025-04-11 14:48:55","bb671e3ae32f654b8954ea4c4635f915","","Mozilla/5.0 (Windows NT 10.0; Win64; x64) AppleWebKit/537.36 (KHTML, like Gecko) Chrome/134.0.0.0 Safari/537.36","WebKit","Chrome","134.0.0.0","Windows","10.0","https://hz8g1ckzuq.cognition.run/","en-US,en;q=0.9,zh;q=0.8,es;q=0.7","91k47oy9cze6h15","24","[""Other""]","Yes","Female","880259.7999997139","15320","","","{""price_1"":""40"",""price_2"":""110"",""price_3"":""20""}","rating","wbw","catch","null","laptops","95","80","35","25","35","45","1","null","null","null","null","null","null","Processing speed","Memory (RAM)","",""
"","","","","","rating_trial_setup","html-keyboard-response","69","574336","0.0-3.0-0.33","100","1","2025-04-11 14:48:55","bb671e3ae32f654b8954ea4c4635f915","","Mozilla/5.0 (Windows NT 10.0; Win64; x64) AppleWebKit/537.36 (KHTML, like Gecko) Chrome/134.0.0.0 Safari/537.36","WebKit","Chrome","134.0.0.0","Windows","10.0","https://hz8g1ckzuq.cognition.run/","en-US,en;q=0.9,zh;q=0.8,es;q=0.7","91k47oy9cze6h15","24","[""Other""]","Yes","Female","880259.7999997139","null","","<p></p>","null","rating","cdt","attraction_1","1","washing machines","null","null","null","null","null","null","2","","","","","","","","","",""
"","","","","","rating_trial","survey-html-form","70","589994","0.0-3.0-1.33","100","1","2025-04-11 14:48:55","bb671e3ae32f654b8954ea4c4635f915","","Mozilla/5.0 (Windows NT 10.0; Win64; x64) AppleWebKit/537.36 (KHTML, like Gecko) Chrome/134.0.0.0 Safari/537.36","WebKit","Chrome","134.0.0.0","Windows","10.0","https://hz8g1ckzuq.cognition.run/","en-US,en;q=0.9,zh;q=0.8,es;q=0.7","91k47oy9cze6h15","24","[""Other""]","Yes","Female","880259.7999997139","15654","","","{""price_1"":""70"",""price_2"":""65"",""price_3"":""60""}","rating","cdt","attraction_1","1","washing machines","null","null","null","null","null","null","2","60","50","60","50","60","45","Average lifespan","Energy savings","",""
"","","","","","rating_trial_setup","html-keyboard-response","71","590306","0.0-3.0-0.34","100","1","2025-04-11 14:48:55","bb671e3ae32f654b8954ea4c4635f915","","Mozilla/5.0 (Windows NT 10.0; Win64; x64) AppleWebKit/537.36 (KHTML, like Gecko) Chrome/134.0.0.0 Safari/537.36","WebKit","Chrome","134.0.0.0","Windows","10.0","https://hz8g1ckzuq.cognition.run/","en-US,en;q=0.9,zh;q=0.8,es;q=0.7","91k47oy9cze6h15","24","[""Other""]","Yes","Female","880259.7999997139","null","","<p></p>","null","rating","tcd","repulsion_1","2","laptops","null","null","null","null","null","null","2","","","","","","","","","",""
"","","","","","rating_trial","survey-html-form","72","599988","0.0-3.0-1.34","100","1","2025-04-11 14:48:55","bb671e3ae32f654b8954ea4c4635f915","","Mozilla/5.0 (Windows NT 10.0; Win64; x64) AppleWebKit/537.36 (KHTML, like Gecko) Chrome/134.0.0.0 Safari/537.36","WebKit","Chrome","134.0.0.0","Windows","10.0","https://hz8g1ckzuq.cognition.run/","en-US,en;q=0.9,zh;q=0.8,es;q=0.7","91k47oy9cze6h15","24","[""Other""]","Yes","Female","880259.7999997139","9678","","","{""price_1"":""100"",""price_2"":""90"",""price_3"":""80""}","rating","tcd","repulsion_1","2","laptops","null","null","null","null","null","null","2","30","40","25","100","90","100","Processing speed","Memory (RAM)","",""
"","","","","","rating_trial_setup","html-keyboard-response","73","600296","0.0-3.0-0.35","100","1","2025-04-11 14:48:55","bb671e3ae32f654b8954ea4c4635f915","","Mozilla/5.0 (Windows NT 10.0; Win64; x64) AppleWebKit/537.36 (KHTML, like Gecko) Chrome/134.0.0.0 Safari/537.36","WebKit","Chrome","134.0.0.0","Windows","10.0","https://hz8g1ckzuq.cognition.run/","en-US,en;q=0.9,zh;q=0.8,es;q=0.7","91k47oy9cze6h15","24","[""Other""]","Yes","Female","880259.7999997139","null","","<p></p>","null","rating","bww","catch","null","laptops","80","85","30","20","15","15","1","","","","","","","","","",""
"","","","","","rating_trial","survey-html-form","74","612064","0.0-3.0-1.35","100","1","2025-04-11 14:48:55","bb671e3ae32f654b8954ea4c4635f915","","Mozilla/5.0 (Windows NT 10.0; Win64; x64) AppleWebKit/537.36 (KHTML, like Gecko) Chrome/134.0.0.0 Safari/537.36","WebKit","Chrome","134.0.0.0","Windows","10.0","https://hz8g1ckzuq.cognition.run/","en-US,en;q=0.9,zh;q=0.8,es;q=0.7","91k47oy9cze6h15","24","[""Other""]","Yes","Female","880259.7999997139","11764","","","{""price_1"":""90"",""price_2"":""50"",""price_3"":""20""}","rating","bww","catch","null","laptops","80","85","30","20","15","15","1","null","null","null","null","null","null","Processing speed","Memory (RAM)","",""
"","","","","","rating_trial_setup","html-keyboard-response","75","612373","0.0-3.0-0.36","100","1","2025-04-11 14:48:55","bb671e3ae32f654b8954ea4c4635f915","","Mozilla/5.0 (Windows NT 10.0; Win64; x64) AppleWebKit/537.36 (KHTML, like Gecko) Chrome/134.0.0.0 Safari/537.36","WebKit","Chrome","134.0.0.0","Windows","10.0","https://hz8g1ckzuq.cognition.run/","en-US,en;q=0.9,zh;q=0.8,es;q=0.7","91k47oy9cze6h15","24","[""Other""]","Yes","Female","880259.7999997139","null","","<p></p>","null","rating","ctd","repulsion_1","2","televisions","null","null","null","null","null","null","1","","","","","","","","","",""
"","","","","","rating_trial","survey-html-form","76","624577","0.0-3.0-1.36","100","1","2025-04-11 14:48:55","bb671e3ae32f654b8954ea4c4635f915","","Mozilla/5.0 (Windows NT 10.0; Win64; x64) AppleWebKit/537.36 (KHTML, like Gecko) Chrome/134.0.0.0 Safari/537.36","WebKit","Chrome","134.0.0.0","Windows","10.0","https://hz8g1ckzuq.cognition.run/","en-US,en;q=0.9,zh;q=0.8,es;q=0.7","91k47oy9cze6h15","24","[""Other""]","Yes","Female","880259.7999997139","12201","","","{""price_1"":""80"",""price_2"":""80"",""price_3"":""80""}","rating","ctd","repulsion_1","2","televisions","null","null","null","null","null","null","1","30","40","25","100","90","100","Screen size","Average lifespan","",""
"","","","","","rating_trial_setup","html-keyboard-response","77","624887","0.0-3.0-0.37","100","1","2025-04-11 14:48:55","bb671e3ae32f654b8954ea4c4635f915","","Mozilla/5.0 (Windows NT 10.0; Win64; x64) AppleWebKit/537.36 (KHTML, like Gecko) Chrome/134.0.0.0 Safari/537.36","WebKit","Chrome","134.0.0.0","Windows","10.0","https://hz8g1ckzuq.cognition.run/","en-US,en;q=0.9,zh;q=0.8,es;q=0.7","91k47oy9cze6h15","24","[""Other""]","Yes","Female","880259.7999997139","null","","<p></p>","null","rating","wwb","catch","null","televisions","50","50","20","5","50","15","2","","","","","","","","","",""
"","","","","","rating_trial","survey-html-form","78","636732","0.0-3.0-1.37","100","1","2025-04-11 14:48:55","bb671e3ae32f654b8954ea4c4635f915","","Mozilla/5.0 (Windows NT 10.0; Win64; x64) AppleWebKit/537.36 (KHTML, like Gecko) Chrome/134.0.0.0 Safari/537.36","WebKit","Chrome","134.0.0.0","Windows","10.0","https://hz8g1ckzuq.cognition.run/","en-US,en;q=0.9,zh;q=0.8,es;q=0.7","91k47oy9cze6h15","24","[""Other""]","Yes","Female","880259.7999997139","11841","","","{""price_1"":""20"",""price_2"":""25"",""price_3"":""60""}","rating","wwb","catch","null","televisions","50","50","20","5","50","15","2","null","null","null","null","null","null","Screen size","Average lifespan","",""
"","","","","","rating_trial_setup","html-keyboard-response","79","637042","0.0-3.0-0.38","100","1","2025-04-11 14:48:55","bb671e3ae32f654b8954ea4c4635f915","","Mozilla/5.0 (Windows NT 10.0; Win64; x64) AppleWebKit/537.36 (KHTML, like Gecko) Chrome/134.0.0.0 Safari/537.36","WebKit","Chrome","134.0.0.0","Windows","10.0","https://hz8g1ckzuq.cognition.run/","en-US,en;q=0.9,zh;q=0.8,es;q=0.7","91k47oy9cze6h15","24","[""Other""]","Yes","Female","880259.7999997139","null","","<p></p>","null","rating","ctd","attraction_2","2","microwave ovens","null","null","null","null","null","null","2","","","","","","","","","",""
"","","","","","rating_trial","survey-html-form","80","653410","0.0-3.0-1.38","100","1","2025-04-11 14:48:55","bb671e3ae32f654b8954ea4c4635f915","","Mozilla/5.0 (Windows NT 10.0; Win64; x64) AppleWebKit/537.36 (KHTML, like Gecko) Chrome/134.0.0.0 Safari/537.36","WebKit","Chrome","134.0.0.0","Windows","10.0","https://hz8g1ckzuq.cognition.run/","en-US,en;q=0.9,zh;q=0.8,es;q=0.7","91k47oy9cze6h15","24","[""Other""]","Yes","Female","880259.7999997139","16364","","","{""price_1"":""50"",""price_2"":""60"",""price_3"":""70""}","rating","ctd","attraction_2","2","microwave ovens","null","null","null","null","null","null","2","50","60","40","60","50","60","Warranty","Cooking power","",""
"","","","","","rating_trial_setup","html-keyboard-response","81","653717","0.0-3.0-0.39","100","1","2025-04-11 14:48:55","bb671e3ae32f654b8954ea4c4635f915","","Mozilla/5.0 (Windows NT 10.0; Win64; x64) AppleWebKit/537.36 (KHTML, like Gecko) Chrome/134.0.0.0 Safari/537.36","WebKit","Chrome","134.0.0.0","Windows","10.0","https://hz8g1ckzuq.cognition.run/","en-US,en;q=0.9,zh;q=0.8,es;q=0.7","91k47oy9cze6h15","24","[""Other""]","Yes","Female","880259.7999997139","null","","<p></p>","null","rating","wbw","catch","null","microwave ovens","75","60","25","20","30","50","1","","","","","","","","","",""
"","","","","","rating_trial","survey-html-form","82","675810","0.0-3.0-1.39","100","1","2025-04-11 14:48:55","bb671e3ae32f654b8954ea4c4635f915","","Mozilla/5.0 (Windows NT 10.0; Win64; x64) AppleWebKit/537.36 (KHTML, like Gecko) Chrome/134.0.0.0 Safari/537.36","WebKit","Chrome","134.0.0.0","Windows","10.0","https://hz8g1ckzuq.cognition.run/","en-US,en;q=0.9,zh;q=0.8,es;q=0.7","91k47oy9cze6h15","24","[""Other""]","Yes","Female","880259.7999997139","22089","","","{""price_1"":""30"",""price_2"":""45"",""price_3"":""35""}","rating","wbw","catch","null","microwave ovens","75","60","25","20","30","50","1","null","null","null","null","null","null","Warranty","Cooking power","",""
"","","","","","","instructions","83","699885","0.0-4.0","100","1","2025-04-11 14:48:55","bb671e3ae32f654b8954ea4c4635f915","","Mozilla/5.0 (Windows NT 10.0; Win64; x64) AppleWebKit/537.36 (KHTML, like Gecko) Chrome/134.0.0.0 Safari/537.36","WebKit","Chrome","134.0.0.0","Windows","10.0","https://hz8g1ckzuq.cognition.run/","en-US,en;q=0.9,zh;q=0.8,es;q=0.7","91k47oy9cze6h15","24","[""Other""]","Yes","Female","880259.7999997139","24072","[{""page_index"":0,""viewing_time"":1429},{""page_index"":1,""viewing_time"":1140},{""page_index"":2,""viewing_time"":1992},{""page_index"":3,""viewing_time"":1945},{""page_index"":4,""viewing_time"":2013},{""page_index"":5,""viewing_time"":11462},{""page_index"":6,""viewing_time"":1784},{""page_index"":7,""viewing_time"":2306}]","","","","","","","","","","","","","","","","","","","","","","","",""
"","","","","","choice_trial_setup","html-keyboard-response","84","700192","0.0-5.0-0.0","100","1","2025-04-11 14:48:55","bb671e3ae32f654b8954ea4c4635f915","","Mozilla/5.0 (Windows NT 10.0; Win64; x64) AppleWebKit/537.36 (KHTML, like Gecko) Chrome/134.0.0.0 Safari/537.36","WebKit","Chrome","134.0.0.0","Windows","10.0","https://hz8g1ckzuq.cognition.run/","en-US,en;q=0.9,zh;q=0.8,es;q=0.7","91k47oy9cze6h15","24","[""Other""]","Yes","Female","880259.7999997139","null","","<p></p>","null","choice","wbw","catch","null","televisions","70","80","20","30","25","5","2","","","","","","","","","",""
"","","","","","choice_trial","survey-html-form","85","707231","0.0-5.0-1.0","100","1","2025-04-11 14:48:55","bb671e3ae32f654b8954ea4c4635f915","","Mozilla/5.0 (Windows NT 10.0; Win64; x64) AppleWebKit/537.36 (KHTML, like Gecko) Chrome/134.0.0.0 Safari/537.36","WebKit","Chrome","134.0.0.0","Windows","10.0","https://hz8g1ckzuq.cognition.run/","en-US,en;q=0.9,zh;q=0.8,es;q=0.7","91k47oy9cze6h15","24","[""Other""]","Yes","Female","880259.7999997139","7034","","","{""product_choice"":""B""}","choice","wbw","catch","null","televisions","70","80","20","30","25","5","2","null","null","null","null","null","null","Screen size","Average lifespan","",""
"","","","","","choice_trial_setup","html-keyboard-response","86","707538","0.0-5.0-0.1","100","1","2025-04-11 14:48:55","bb671e3ae32f654b8954ea4c4635f915","","Mozilla/5.0 (Windows NT 10.0; Win64; x64) AppleWebKit/537.36 (KHTML, like Gecko) Chrome/134.0.0.0 Safari/537.36","WebKit","Chrome","134.0.0.0","Windows","10.0","https://hz8g1ckzuq.cognition.run/","en-US,en;q=0.9,zh;q=0.8,es;q=0.7","91k47oy9cze6h15","24","[""Other""]","Yes","Female","880259.7999997139","null","","<p></p>","null","choice","bww","catch","null","laptops","60","85","40","35","30","15","1","","","","","","","","","",""
"","","","","","choice_trial","survey-html-form","87","710971","0.0-5.0-1.1","100","1","2025-04-11 14:48:55","bb671e3ae32f654b8954ea4c4635f915","","Mozilla/5.0 (Windows NT 10.0; Win64; x64) AppleWebKit/537.36 (KHTML, like Gecko) Chrome/134.0.0.0 Safari/537.36","WebKit","Chrome","134.0.0.0","Windows","10.0","https://hz8g1ckzuq.cognition.run/","en-US,en;q=0.9,zh;q=0.8,es;q=0.7","91k47oy9cze6h15","24","[""Other""]","Yes","Female","880259.7999997139","3428","","","{""product_choice"":""A""}","choice","bww","catch","null","laptops","60","85","40","35","30","15","1","null","null","null","null","null","null","Processing speed","Memory (RAM)","",""
"","","","","","choice_trial_setup","html-keyboard-response","88","711276","0.0-5.0-0.2","100","1","2025-04-11 14:48:55","bb671e3ae32f654b8954ea4c4635f915","","Mozilla/5.0 (Windows NT 10.0; Win64; x64) AppleWebKit/537.36 (KHTML, like Gecko) Chrome/134.0.0.0 Safari/537.36","WebKit","Chrome","134.0.0.0","Windows","10.0","https://hz8g1ckzuq.cognition.run/","en-US,en;q=0.9,zh;q=0.8,es;q=0.7","91k47oy9cze6h15","24","[""Other""]","Yes","Female","880259.7999997139","null","","<p></p>","null","choice","dct","attraction_1","1","laptops","null","null","null","null","null","null","1","","","","","","","","","",""
"","","","","","choice_trial","survey-html-form","89","714421","0.0-5.0-1.2","100","1","2025-04-11 14:48:55","bb671e3ae32f654b8954ea4c4635f915","","Mozilla/5.0 (Windows NT 10.0; Win64; x64) AppleWebKit/537.36 (KHTML, like Gecko) Chrome/134.0.0.0 Safari/537.36","WebKit","Chrome","134.0.0.0","Windows","10.0","https://hz8g1ckzuq.cognition.run/","en-US,en;q=0.9,zh;q=0.8,es;q=0.7","91k47oy9cze6h15","24","[""Other""]","Yes","Female","880259.7999997139","3142","","","{""product_choice"":""C""}","choice","dct","attraction_1","1","laptops","null","null","null","null","null","null","1","60","50","60","50","60","45","Processing speed","Memory (RAM)","",""
"","","","","","choice_trial_setup","html-keyboard-response","90","714739","0.0-5.0-0.3","100","1","2025-04-11 14:48:55","bb671e3ae32f654b8954ea4c4635f915","","Mozilla/5.0 (Windows NT 10.0; Win64; x64) AppleWebKit/537.36 (KHTML, like Gecko) Chrome/134.0.0.0 Safari/537.36","WebKit","Chrome","134.0.0.0","Windows","10.0","https://hz8g1ckzuq.cognition.run/","en-US,en;q=0.9,zh;q=0.8,es;q=0.7","91k47oy9cze6h15","24","[""Other""]","Yes","Female","880259.7999997139","null","","<p></p>","null","choice","wbw","catch","null","laptops","80","70","25","50","50","10","1","","","","","","","","","",""
"","","","","","choice_trial","survey-html-form","91","717660","0.0-5.0-1.3","100","1","2025-04-11 14:48:55","bb671e3ae32f654b8954ea4c4635f915","","Mozilla/5.0 (Windows NT 10.0; Win64; x64) AppleWebKit/537.36 (KHTML, like Gecko) Chrome/134.0.0.0 Safari/537.36","WebKit","Chrome","134.0.0.0","Windows","10.0","https://hz8g1ckzuq.cognition.run/","en-US,en;q=0.9,zh;q=0.8,es;q=0.7","91k47oy9cze6h15","24","[""Other""]","Yes","Female","880259.7999997139","2916","","","{""product_choice"":""B""}","choice","wbw","catch","null","laptops","80","70","25","50","50","10","1","null","null","null","null","null","null","Processing speed","Memory (RAM)","",""
"","","","","","choice_trial_setup","html-keyboard-response","92","717970","0.0-5.0-0.4","100","1","2025-04-11 14:48:55","bb671e3ae32f654b8954ea4c4635f915","","Mozilla/5.0 (Windows NT 10.0; Win64; x64) AppleWebKit/537.36 (KHTML, like Gecko) Chrome/134.0.0.0 Safari/537.36","WebKit","Chrome","134.0.0.0","Windows","10.0","https://hz8g1ckzuq.cognition.run/","en-US,en;q=0.9,zh;q=0.8,es;q=0.7","91k47oy9cze6h15","24","[""Other""]","Yes","Female","880259.7999997139","null","","<p></p>","null","choice","tcd","attraction_1","1","washing machines","null","null","null","null","null","null","2","","","","","","","","","",""
"","","","","","choice_trial","survey-html-form","93","720972","0.0-5.0-1.4","100","1","2025-04-11 14:48:55","bb671e3ae32f654b8954ea4c4635f915","","Mozilla/5.0 (Windows NT 10.0; Win64; x64) AppleWebKit/537.36 (KHTML, like Gecko) Chrome/134.0.0.0 Safari/537.36","WebKit","Chrome","134.0.0.0","Windows","10.0","https://hz8g1ckzuq.cognition.run/","en-US,en;q=0.9,zh;q=0.8,es;q=0.7","91k47oy9cze6h15","24","[""Other""]","Yes","Female","880259.7999997139","2998","","","{""product_choice"":""B""}","choice","tcd","attraction_1","1","washing machines","null","null","null","null","null","null","2","60","50","60","50","60","45","Average lifespan","Energy savings","",""
"","","","","","choice_trial_setup","html-keyboard-response","94","721282","0.0-5.0-0.5","100","1","2025-04-11 14:48:55","bb671e3ae32f654b8954ea4c4635f915","","Mozilla/5.0 (Windows NT 10.0; Win64; x64) AppleWebKit/537.36 (KHTML, like Gecko) Chrome/134.0.0.0 Safari/537.36","WebKit","Chrome","134.0.0.0","Windows","10.0","https://hz8g1ckzuq.cognition.run/","en-US,en;q=0.9,zh;q=0.8,es;q=0.7","91k47oy9cze6h15","24","[""Other""]","Yes","Female","880259.7999997139","null","","<p></p>","null","choice","dtc","repulsion_1","2","microwave ovens","null","null","null","null","null","null","1","","","","","","","","","",""
"","","","","","choice_trial","survey-html-form","95","724584","0.0-5.0-1.5","100","1","2025-04-11 14:48:55","bb671e3ae32f654b8954ea4c4635f915","","Mozilla/5.0 (Windows NT 10.0; Win64; x64) AppleWebKit/537.36 (KHTML, like Gecko) Chrome/134.0.0.0 Safari/537.36","WebKit","Chrome","134.0.0.0","Windows","10.0","https://hz8g1ckzuq.cognition.run/","en-US,en;q=0.9,zh;q=0.8,es;q=0.7","91k47oy9cze6h15","24","[""Other""]","Yes","Female","880259.7999997139","3298","","","{""product_choice"":""C""}","choice","dtc","repulsion_1","2","microwave ovens","null","null","null","null","null","null","1","30","40","25","100","90","100","Warranty","Cooking power","",""
"","","","","","choice_trial_setup","html-keyboard-response","96","724901","0.0-5.0-0.6","100","1","2025-04-11 14:48:55","bb671e3ae32f654b8954ea4c4635f915","","Mozilla/5.0 (Windows NT 10.0; Win64; x64) AppleWebKit/537.36 (KHTML, like Gecko) Chrome/134.0.0.0 Safari/537.36","WebKit","Chrome","134.0.0.0","Windows","10.0","https://hz8g1ckzuq.cognition.run/","en-US,en;q=0.9,zh;q=0.8,es;q=0.7","91k47oy9cze6h15","24","[""Other""]","Yes","Female","880259.7999997139","null","","<p></p>","null","choice","tdc","repulsion_1","1","microwave ovens","null","null","null","null","null","null","1","","","","","","","","","",""
"","","","","","choice_trial","survey-html-form","97","731034","0.0-5.0-1.6","100","1","2025-04-11 14:48:55","bb671e3ae32f654b8954ea4c4635f915","","Mozilla/5.0 (Windows NT 10.0; Win64; x64) AppleWebKit/537.36 (KHTML, like Gecko) Chrome/134.0.0.0 Safari/537.36","WebKit","Chrome","134.0.0.0","Windows","10.0","https://hz8g1ckzuq.cognition.run/","en-US,en;q=0.9,zh;q=0.8,es;q=0.7","91k47oy9cze6h15","24","[""Other""]","Yes","Female","880259.7999997139","6124","","","{""product_choice"":""C""}","choice","tdc","repulsion_1","1","microwave ovens","null","null","null","null","null","null","1","100","90","100","30","40","25","Warranty","Cooking power","",""
"","","","","","choice_trial_setup","html-keyboard-response","98","731344","0.0-5.0-0.7","100","1","2025-04-11 14:48:55","bb671e3ae32f654b8954ea4c4635f915","","Mozilla/5.0 (Windows NT 10.0; Win64; x64) AppleWebKit/537.36 (KHTML, like Gecko) Chrome/134.0.0.0 Safari/537.36","WebKit","Chrome","134.0.0.0","Windows","10.0","https://hz8g1ckzuq.cognition.run/","en-US,en;q=0.9,zh;q=0.8,es;q=0.7","91k47oy9cze6h15","24","[""Other""]","Yes","Female","880259.7999997139","null","","<p></p>","null","choice","dtc","repulsion_1","2","televisions","null","null","null","null","null","null","1","","","","","","","","","",""
"","","","","","choice_trial","survey-html-form","99","735189","0.0-5.0-1.7","100","1","2025-04-11 14:48:55","bb671e3ae32f654b8954ea4c4635f915","","Mozilla/5.0 (Windows NT 10.0; Win64; x64) AppleWebKit/537.36 (KHTML, like Gecko) Chrome/134.0.0.0 Safari/537.36","WebKit","Chrome","134.0.0.0","Windows","10.0","https://hz8g1ckzuq.cognition.run/","en-US,en;q=0.9,zh;q=0.8,es;q=0.7","91k47oy9cze6h15","24","[""Other""]","Yes","Female","880259.7999997139","3837","","","{""product_choice"":""C""}","choice","dtc","repulsion_1","2","televisions","null","null","null","null","null","null","1","30","40","25","100","90","100","Screen size","Average lifespan","",""
"","","","","","choice_trial_setup","html-keyboard-response","100","735502","0.0-5.0-0.8","100","1","2025-04-11 14:48:55","bb671e3ae32f654b8954ea4c4635f915","","Mozilla/5.0 (Windows NT 10.0; Win64; x64) AppleWebKit/537.36 (KHTML, like Gecko) Chrome/134.0.0.0 Safari/537.36","WebKit","Chrome","134.0.0.0","Windows","10.0","https://hz8g1ckzuq.cognition.run/","en-US,en;q=0.9,zh;q=0.8,es;q=0.7","91k47oy9cze6h15","24","[""Other""]","Yes","Female","880259.7999997139","null","","<p></p>","null","choice","tdc","repulsion_1","2","washing machines","null","null","null","null","null","null","1","","","","","","","","","",""
"","","","","","choice_trial","survey-html-form","101","738475","0.0-5.0-1.8","100","1","2025-04-11 14:48:55","bb671e3ae32f654b8954ea4c4635f915","","Mozilla/5.0 (Windows NT 10.0; Win64; x64) AppleWebKit/537.36 (KHTML, like Gecko) Chrome/134.0.0.0 Safari/537.36","WebKit","Chrome","134.0.0.0","Windows","10.0","https://hz8g1ckzuq.cognition.run/","en-US,en;q=0.9,zh;q=0.8,es;q=0.7","91k47oy9cze6h15","24","[""Other""]","Yes","Female","880259.7999997139","2966","","","{""product_choice"":""C""}","choice","tdc","repulsion_1","2","washing machines","null","null","null","null","null","null","1","30","40","25","100","90","100","Average lifespan","Energy savings","",""
"","","","","","choice_trial_setup","html-keyboard-response","102","738781","0.0-5.0-0.9","100","1","2025-04-11 14:48:55","bb671e3ae32f654b8954ea4c4635f915","","Mozilla/5.0 (Windows NT 10.0; Win64; x64) AppleWebKit/537.36 (KHTML, like Gecko) Chrome/134.0.0.0 Safari/537.36","WebKit","Chrome","134.0.0.0","Windows","10.0","https://hz8g1ckzuq.cognition.run/","en-US,en;q=0.9,zh;q=0.8,es;q=0.7","91k47oy9cze6h15","24","[""Other""]","Yes","Female","880259.7999997139","null","","<p></p>","null","choice","tcd","repulsion_1","2","laptops","null","null","null","null","null","null","2","","","","","","","","","",""
"","","","","","choice_trial","survey-html-form","103","741279","0.0-5.0-1.9","100","1","2025-04-11 14:48:55","bb671e3ae32f654b8954ea4c4635f915","","Mozilla/5.0 (Windows NT 10.0; Win64; x64) AppleWebKit/537.36 (KHTML, like Gecko) Chrome/134.0.0.0 Safari/537.36","WebKit","Chrome","134.0.0.0","Windows","10.0","https://hz8g1ckzuq.cognition.run/","en-US,en;q=0.9,zh;q=0.8,es;q=0.7","91k47oy9cze6h15","24","[""Other""]","Yes","Female","880259.7999997139","2487","","","{""product_choice"":""A""}","choice","tcd","repulsion_1","2","laptops","null","null","null","null","null","null","2","30","40","25","100","90","100","Processing speed","Memory (RAM)","",""
"","","","","","choice_trial_setup","html-keyboard-response","104","741599","0.0-5.0-0.10","100","1","2025-04-11 14:48:55","bb671e3ae32f654b8954ea4c4635f915","","Mozilla/5.0 (Windows NT 10.0; Win64; x64) AppleWebKit/537.36 (KHTML, like Gecko) Chrome/134.0.0.0 Safari/537.36","WebKit","Chrome","134.0.0.0","Windows","10.0","https://hz8g1ckzuq.cognition.run/","en-US,en;q=0.9,zh;q=0.8,es;q=0.7","91k47oy9cze6h15","24","[""Other""]","Yes","Female","880259.7999997139","null","","<p></p>","null","choice","bww","catch","null","washing machines","95","55","45","35","15","25","1","","","","","","","","","",""
"","","","","","choice_trial","survey-html-form","105","743577","0.0-5.0-1.10","100","1","2025-04-11 14:48:55","bb671e3ae32f654b8954ea4c4635f915","","Mozilla/5.0 (Windows NT 10.0; Win64; x64) AppleWebKit/537.36 (KHTML, like Gecko) Chrome/134.0.0.0 Safari/537.36","WebKit","Chrome","134.0.0.0","Windows","10.0","https://hz8g1ckzuq.cognition.run/","en-US,en;q=0.9,zh;q=0.8,es;q=0.7","91k47oy9cze6h15","24","[""Other""]","Yes","Female","880259.7999997139","1973","","","{""product_choice"":""A""}","choice","bww","catch","null","washing machines","95","55","45","35","15","25","1","null","null","null","null","null","null","Average lifespan","Energy savings","",""
"","","","","","choice_trial_setup","html-keyboard-response","106","743889","0.0-5.0-0.11","100","1","2025-04-11 14:48:55","bb671e3ae32f654b8954ea4c4635f915","","Mozilla/5.0 (Windows NT 10.0; Win64; x64) AppleWebKit/537.36 (KHTML, like Gecko) Chrome/134.0.0.0 Safari/537.36","WebKit","Chrome","134.0.0.0","Windows","10.0","https://hz8g1ckzuq.cognition.run/","en-US,en;q=0.9,zh;q=0.8,es;q=0.7","91k47oy9cze6h15","24","[""Other""]","Yes","Female","880259.7999997139","null","","<p></p>","null","choice","dct","attraction_1","2","televisions","null","null","null","null","null","null","1","","","","","","","","","",""
"","","","","","choice_trial","survey-html-form","107","754336","0.0-5.0-1.11","100","1","2025-04-11 14:48:55","bb671e3ae32f654b8954ea4c4635f915","","Mozilla/5.0 (Windows NT 10.0; Win64; x64) AppleWebKit/537.36 (KHTML, like Gecko) Chrome/134.0.0.0 Safari/537.36","WebKit","Chrome","134.0.0.0","Windows","10.0","https://hz8g1ckzuq.cognition.run/","en-US,en;q=0.9,zh;q=0.8,es;q=0.7","91k47oy9cze6h15","24","[""Other""]","Yes","Female","880259.7999997139","10440","","","{""product_choice"":""B""}","choice","dct","attraction_1","2","televisions","null","null","null","null","null","null","1","50","60","45","60","50","60","Screen size","Average lifespan","",""
"","","","","","choice_trial_setup","html-keyboard-response","108","754648","0.0-5.0-0.12","100","1","2025-04-11 14:48:55","bb671e3ae32f654b8954ea4c4635f915","","Mozilla/5.0 (Windows NT 10.0; Win64; x64) AppleWebKit/537.36 (KHTML, like Gecko) Chrome/134.0.0.0 Safari/537.36","WebKit","Chrome","134.0.0.0","Windows","10.0","https://hz8g1ckzuq.cognition.run/","en-US,en;q=0.9,zh;q=0.8,es;q=0.7","91k47oy9cze6h15","24","[""Other""]","Yes","Female","880259.7999997139","null","","<p></p>","null","choice","bww","catch","null","microwave ovens","80","50","30","40","25","5","2","","","","","","","","","",""
"","","","","","choice_trial","survey-html-form","109","756636","0.0-5.0-1.12","100","1","2025-04-11 14:48:55","bb671e3ae32f654b8954ea4c4635f915","","Mozilla/5.0 (Windows NT 10.0; Win64; x64) AppleWebKit/537.36 (KHTML, like Gecko) Chrome/134.0.0.0 Safari/537.36","WebKit","Chrome","134.0.0.0","Windows","10.0","https://hz8g1ckzuq.cognition.run/","en-US,en;q=0.9,zh;q=0.8,es;q=0.7","91k47oy9cze6h15","24","[""Other""]","Yes","Female","880259.7999997139","1981","","","{""product_choice"":""A""}","choice","bww","catch","null","microwave ovens","80","50","30","40","25","5","2","null","null","null","null","null","null","Warranty","Cooking power","",""
"","","","","","choice_trial_setup","html-keyboard-response","110","756949","0.0-5.0-0.13","100","1","2025-04-11 14:48:55","bb671e3ae32f654b8954ea4c4635f915","","Mozilla/5.0 (Windows NT 10.0; Win64; x64) AppleWebKit/537.36 (KHTML, like Gecko) Chrome/134.0.0.0 Safari/537.36","WebKit","Chrome","134.0.0.0","Windows","10.0","https://hz8g1ckzuq.cognition.run/","en-US,en;q=0.9,zh;q=0.8,es;q=0.7","91k47oy9cze6h15","24","[""Other""]","Yes","Female","880259.7999997139","null","","<p></p>","null","choice","tcd","attraction_2","1","laptops","null","null","null","null","null","null","1","","","","","","","","","",""
"","","","","","choice_trial","survey-html-form","111","758813","0.0-5.0-1.13","100","1","2025-04-11 14:48:55","bb671e3ae32f654b8954ea4c4635f915","","Mozilla/5.0 (Windows NT 10.0; Win64; x64) AppleWebKit/537.36 (KHTML, like Gecko) Chrome/134.0.0.0 Safari/537.36","WebKit","Chrome","134.0.0.0","Windows","10.0","https://hz8g1ckzuq.cognition.run/","en-US,en;q=0.9,zh;q=0.8,es;q=0.7","91k47oy9cze6h15","24","[""Other""]","Yes","Female","880259.7999997139","1857","","","{""product_choice"":""A""}","choice","tcd","attraction_2","1","laptops","null","null","null","null","null","null","1","60","50","60","50","60","40","Processing speed","Memory (RAM)","",""
"","","","","","choice_trial_setup","html-keyboard-response","112","759128","0.0-5.0-0.14","100","1","2025-04-11 14:48:55","bb671e3ae32f654b8954ea4c4635f915","","Mozilla/5.0 (Windows NT 10.0; Win64; x64) AppleWebKit/537.36 (KHTML, like Gecko) Chrome/134.0.0.0 Safari/537.36","WebKit","Chrome","134.0.0.0","Windows","10.0","https://hz8g1ckzuq.cognition.run/","en-US,en;q=0.9,zh;q=0.8,es;q=0.7","91k47oy9cze6h15","24","[""Other""]","Yes","Female","880259.7999997139","null","","<p></p>","null","choice","tdc","attraction_2","2","microwave ovens","null","null","null","null","null","null","2","","","","","","","","","",""
"","","","","","choice_trial","survey-html-form","113","761297","0.0-5.0-1.14","100","1","2025-04-11 14:48:55","bb671e3ae32f654b8954ea4c4635f915","","Mozilla/5.0 (Windows NT 10.0; Win64; x64) AppleWebKit/537.36 (KHTML, like Gecko) Chrome/134.0.0.0 Safari/537.36","WebKit","Chrome","134.0.0.0","Windows","10.0","https://hz8g1ckzuq.cognition.run/","en-US,en;q=0.9,zh;q=0.8,es;q=0.7","91k47oy9cze6h15","24","[""Other""]","Yes","Female","880259.7999997139","2164","","","{""product_choice"":""B""}","choice","tdc","attraction_2","2","microwave ovens","null","null","null","null","null","null","2","50","60","40","60","50","60","Warranty","Cooking power","",""
"","","","","","choice_trial_setup","html-keyboard-response","114","761607","0.0-5.0-0.15","100","1","2025-04-11 14:48:55","bb671e3ae32f654b8954ea4c4635f915","","Mozilla/5.0 (Windows NT 10.0; Win64; x64) AppleWebKit/537.36 (KHTML, like Gecko) Chrome/134.0.0.0 Safari/537.36","WebKit","Chrome","134.0.0.0","Windows","10.0","https://hz8g1ckzuq.cognition.run/","en-US,en;q=0.9,zh;q=0.8,es;q=0.7","91k47oy9cze6h15","24","[""Other""]","Yes","Female","880259.7999997139","null","","<p></p>","null","choice","dct","attraction_1","1","televisions","null","null","null","null","null","null","2","","","","","","","","","",""
"","","","","","choice_trial","survey-html-form","115","763492","0.0-5.0-1.15","100","1","2025-04-11 14:48:55","bb671e3ae32f654b8954ea4c4635f915","","Mozilla/5.0 (Windows NT 10.0; Win64; x64) AppleWebKit/537.36 (KHTML, like Gecko) Chrome/134.0.0.0 Safari/537.36","WebKit","Chrome","134.0.0.0","Windows","10.0","https://hz8g1ckzuq.cognition.run/","en-US,en;q=0.9,zh;q=0.8,es;q=0.7","91k47oy9cze6h15","24","[""Other""]","Yes","Female","880259.7999997139","1880","","","{""product_choice"":""B""}","choice","dct","attraction_1","1","televisions","null","null","null","null","null","null","2","60","50","60","50","60","45","Screen size","Average lifespan","",""
"","","","","","choice_trial_setup","html-keyboard-response","116","763803","0.0-5.0-0.16","100","1","2025-04-11 14:48:55","bb671e3ae32f654b8954ea4c4635f915","","Mozilla/5.0 (Windows NT 10.0; Win64; x64) AppleWebKit/537.36 (KHTML, like Gecko) Chrome/134.0.0.0 Safari/537.36","WebKit","Chrome","134.0.0.0","Windows","10.0","https://hz8g1ckzuq.cognition.run/","en-US,en;q=0.9,zh;q=0.8,es;q=0.7","91k47oy9cze6h15","24","[""Other""]","Yes","Female","880259.7999997139","null","","<p></p>","null","choice","tcd","repulsion_2","2","microwave ovens","null","null","null","null","null","null","1","","","","","","","","","",""
"","","","","","choice_trial","survey-html-form","117","765692","0.0-5.0-1.16","100","1","2025-04-11 14:48:55","bb671e3ae32f654b8954ea4c4635f915","","Mozilla/5.0 (Windows NT 10.0; Win64; x64) AppleWebKit/537.36 (KHTML, like Gecko) Chrome/134.0.0.0 Safari/537.36","WebKit","Chrome","134.0.0.0","Windows","10.0","https://hz8g1ckzuq.cognition.run/","en-US,en;q=0.9,zh;q=0.8,es;q=0.7","91k47oy9cze6h15","24","[""Other""]","Yes","Female","880259.7999997139","1883","","","{""product_choice"":""B""}","choice","tcd","repulsion_2","2","microwave ovens","null","null","null","null","null","null","1","30","40","20","100","90","100","Warranty","Cooking power","",""
"","","","","","choice_trial_setup","html-keyboard-response","118","766007","0.0-5.0-0.17","100","1","2025-04-11 14:48:55","bb671e3ae32f654b8954ea4c4635f915","","Mozilla/5.0 (Windows NT 10.0; Win64; x64) AppleWebKit/537.36 (KHTML, like Gecko) Chrome/134.0.0.0 Safari/537.36","WebKit","Chrome","134.0.0.0","Windows","10.0","https://hz8g1ckzuq.cognition.run/","en-US,en;q=0.9,zh;q=0.8,es;q=0.7","91k47oy9cze6h15","24","[""Other""]","Yes","Female","880259.7999997139","null","","<p></p>","null","choice","ctd","repulsion_2","2","televisions","null","null","null","null","null","null","2","","","","","","","","","",""
"","","","","","choice_trial","survey-html-form","119","768860","0.0-5.0-1.17","100","1","2025-04-11 14:48:55","bb671e3ae32f654b8954ea4c4635f915","","Mozilla/5.0 (Windows NT 10.0; Win64; x64) AppleWebKit/537.36 (KHTML, like Gecko) Chrome/134.0.0.0 Safari/537.36","WebKit","Chrome","134.0.0.0","Windows","10.0","https://hz8g1ckzuq.cognition.run/","en-US,en;q=0.9,zh;q=0.8,es;q=0.7","91k47oy9cze6h15","24","[""Other""]","Yes","Female","880259.7999997139","2849","","","{""product_choice"":""B""}","choice","ctd","repulsion_2","2","televisions","null","null","null","null","null","null","2","30","40","20","100","90","100","Screen size","Average lifespan","",""
"","","","","","choice_trial_setup","html-keyboard-response","120","769175","0.0-5.0-0.18","100","1","2025-04-11 14:48:55","bb671e3ae32f654b8954ea4c4635f915","","Mozilla/5.0 (Windows NT 10.0; Win64; x64) AppleWebKit/537.36 (KHTML, like Gecko) Chrome/134.0.0.0 Safari/537.36","WebKit","Chrome","134.0.0.0","Windows","10.0","https://hz8g1ckzuq.cognition.run/","en-US,en;q=0.9,zh;q=0.8,es;q=0.7","91k47oy9cze6h15","24","[""Other""]","Yes","Female","880259.7999997139","null","","<p></p>","null","choice","dtc","repulsion_2","1","washing machines","null","null","null","null","null","null","2","","","","","","","","","",""
"","","","","","choice_trial","survey-html-form","121","772287","0.0-5.0-1.18","100","1","2025-04-11 14:48:55","bb671e3ae32f654b8954ea4c4635f915","","Mozilla/5.0 (Windows NT 10.0; Win64; x64) AppleWebKit/537.36 (KHTML, like Gecko) Chrome/134.0.0.0 Safari/537.36","WebKit","Chrome","134.0.0.0","Windows","10.0","https://hz8g1ckzuq.cognition.run/","en-US,en;q=0.9,zh;q=0.8,es;q=0.7","91k47oy9cze6h15","24","[""Other""]","Yes","Female","880259.7999997139","3107","","","{""product_choice"":""C""}","choice","dtc","repulsion_2","1","washing machines","null","null","null","null","null","null","2","100","90","100","30","40","20","Average lifespan","Energy savings","",""
"","","","","","choice_trial_setup","html-keyboard-response","122","772602","0.0-5.0-0.19","100","1","2025-04-11 14:48:55","bb671e3ae32f654b8954ea4c4635f915","","Mozilla/5.0 (Windows NT 10.0; Win64; x64) AppleWebKit/537.36 (KHTML, like Gecko) Chrome/134.0.0.0 Safari/537.36","WebKit","Chrome","134.0.0.0","Windows","10.0","https://hz8g1ckzuq.cognition.run/","en-US,en;q=0.9,zh;q=0.8,es;q=0.7","91k47oy9cze6h15","24","[""Other""]","Yes","Female","880259.7999997139","null","","<p></p>","null","choice","tcd","repulsion_1","1","laptops","null","null","null","null","null","null","2","","","","","","","","","",""
"","","","","","choice_trial","survey-html-form","123","774264","0.0-5.0-1.19","100","1","2025-04-11 14:48:55","bb671e3ae32f654b8954ea4c4635f915","","Mozilla/5.0 (Windows NT 10.0; Win64; x64) AppleWebKit/537.36 (KHTML, like Gecko) Chrome/134.0.0.0 Safari/537.36","WebKit","Chrome","134.0.0.0","Windows","10.0","https://hz8g1ckzuq.cognition.run/","en-US,en;q=0.9,zh;q=0.8,es;q=0.7","91k47oy9cze6h15","24","[""Other""]","Yes","Female","880259.7999997139","1657","","","{""product_choice"":""B""}","choice","tcd","repulsion_1","1","laptops","null","null","null","null","null","null","2","100","90","100","30","40","25","Processing speed","Memory (RAM)","",""
"","","","","","choice_trial_setup","html-keyboard-response","124","774578","0.0-5.0-0.20","100","1","2025-04-11 14:48:55","bb671e3ae32f654b8954ea4c4635f915","","Mozilla/5.0 (Windows NT 10.0; Win64; x64) AppleWebKit/537.36 (KHTML, like Gecko) Chrome/134.0.0.0 Safari/537.36","WebKit","Chrome","134.0.0.0","Windows","10.0","https://hz8g1ckzuq.cognition.run/","en-US,en;q=0.9,zh;q=0.8,es;q=0.7","91k47oy9cze6h15","24","[""Other""]","Yes","Female","880259.7999997139","null","","<p></p>","null","choice","dct","attraction_1","2","microwave ovens","null","null","null","null","null","null","1","","","","","","","","","",""
"","","","","","choice_trial","survey-html-form","125","779110","0.0-5.0-1.20","100","1","2025-04-11 14:48:55","bb671e3ae32f654b8954ea4c4635f915","","Mozilla/5.0 (Windows NT 10.0; Win64; x64) AppleWebKit/537.36 (KHTML, like Gecko) Chrome/134.0.0.0 Safari/537.36","WebKit","Chrome","134.0.0.0","Windows","10.0","https://hz8g1ckzuq.cognition.run/","en-US,en;q=0.9,zh;q=0.8,es;q=0.7","91k47oy9cze6h15","24","[""Other""]","Yes","Female","880259.7999997139","4523","","","{""product_choice"":""B""}","choice","dct","attraction_1","2","microwave ovens","null","null","null","null","null","null","1","50","60","45","60","50","60","Warranty","Cooking power","",""
"","","","","","choice_trial_setup","html-keyboard-response","126","779418","0.0-5.0-0.21","100","1","2025-04-11 14:48:55","bb671e3ae32f654b8954ea4c4635f915","","Mozilla/5.0 (Windows NT 10.0; Win64; x64) AppleWebKit/537.36 (KHTML, like Gecko) Chrome/134.0.0.0 Safari/537.36","WebKit","Chrome","134.0.0.0","Windows","10.0","https://hz8g1ckzuq.cognition.run/","en-US,en;q=0.9,zh;q=0.8,es;q=0.7","91k47oy9cze6h15","24","[""Other""]","Yes","Female","880259.7999997139","null","","<p></p>","null","choice","wbw","catch","null","microwave ovens","70","85","45","45","25","15","2","","","","","","","","","",""
"","","","","","choice_trial","survey-html-form","127","780956","0.0-5.0-1.21","100","1","2025-04-11 14:48:55","bb671e3ae32f654b8954ea4c4635f915","","Mozilla/5.0 (Windows NT 10.0; Win64; x64) AppleWebKit/537.36 (KHTML, like Gecko) Chrome/134.0.0.0 Safari/537.36","WebKit","Chrome","134.0.0.0","Windows","10.0","https://hz8g1ckzuq.cognition.run/","en-US,en;q=0.9,zh;q=0.8,es;q=0.7","91k47oy9cze6h15","24","[""Other""]","Yes","Female","880259.7999997139","1531","","","{""product_choice"":""B""}","choice","wbw","catch","null","microwave ovens","70","85","45","45","25","15","2","null","null","null","null","null","null","Warranty","Cooking power","",""
"","","","","","choice_trial_setup","html-keyboard-response","128","781266","0.0-5.0-0.22","100","1","2025-04-11 14:48:55","bb671e3ae32f654b8954ea4c4635f915","","Mozilla/5.0 (Windows NT 10.0; Win64; x64) AppleWebKit/537.36 (KHTML, like Gecko) Chrome/134.0.0.0 Safari/537.36","WebKit","Chrome","134.0.0.0","Windows","10.0","https://hz8g1ckzuq.cognition.run/","en-US,en;q=0.9,zh;q=0.8,es;q=0.7","91k47oy9cze6h15","24","[""Other""]","Yes","Female","880259.7999997139","null","","<p></p>","null","choice","dtc","repulsion_1","1","televisions","null","null","null","null","null","null","2","","","","","","","","","",""
"","","","","","choice_trial","survey-html-form","129","783929","0.0-5.0-1.22","100","1","2025-04-11 14:48:55","bb671e3ae32f654b8954ea4c4635f915","","Mozilla/5.0 (Windows NT 10.0; Win64; x64) AppleWebKit/537.36 (KHTML, like Gecko) Chrome/134.0.0.0 Safari/537.36","WebKit","Chrome","134.0.0.0","Windows","10.0","https://hz8g1ckzuq.cognition.run/","en-US,en;q=0.9,zh;q=0.8,es;q=0.7","91k47oy9cze6h15","24","[""Other""]","Yes","Female","880259.7999997139","2655","","","{""product_choice"":""C""}","choice","dtc","repulsion_1","1","televisions","null","null","null","null","null","null","2","100","90","100","30","40","25","Screen size","Average lifespan","",""
"","","","","","choice_trial_setup","html-keyboard-response","130","784240","0.0-5.0-0.23","100","1","2025-04-11 14:48:55","bb671e3ae32f654b8954ea4c4635f915","","Mozilla/5.0 (Windows NT 10.0; Win64; x64) AppleWebKit/537.36 (KHTML, like Gecko) Chrome/134.0.0.0 Safari/537.36","WebKit","Chrome","134.0.0.0","Windows","10.0","https://hz8g1ckzuq.cognition.run/","en-US,en;q=0.9,zh;q=0.8,es;q=0.7","91k47oy9cze6h15","24","[""Other""]","Yes","Female","880259.7999997139","null","","<p></p>","null","choice","ctd","attraction_2","2","televisions","null","null","null","null","null","null","2","","","","","","","","","",""
"","","","","","choice_trial","survey-html-form","131","786915","0.0-5.0-1.23","100","1","2025-04-11 14:48:55","bb671e3ae32f654b8954ea4c4635f915","","Mozilla/5.0 (Windows NT 10.0; Win64; x64) AppleWebKit/537.36 (KHTML, like Gecko) Chrome/134.0.0.0 Safari/537.36","WebKit","Chrome","134.0.0.0","Windows","10.0","https://hz8g1ckzuq.cognition.run/","en-US,en;q=0.9,zh;q=0.8,es;q=0.7","91k47oy9cze6h15","24","[""Other""]","Yes","Female","880259.7999997139","2670","","","{""product_choice"":""B""}","choice","ctd","attraction_2","2","televisions","null","null","null","null","null","null","2","50","60","40","60","50","60","Screen size","Average lifespan","",""
"","","","","","choice_trial_setup","html-keyboard-response","132","787236","0.0-5.0-0.24","100","1","2025-04-11 14:48:55","bb671e3ae32f654b8954ea4c4635f915","","Mozilla/5.0 (Windows NT 10.0; Win64; x64) AppleWebKit/537.36 (KHTML, like Gecko) Chrome/134.0.0.0 Safari/537.36","WebKit","Chrome","134.0.0.0","Windows","10.0","https://hz8g1ckzuq.cognition.run/","en-US,en;q=0.9,zh;q=0.8,es;q=0.7","91k47oy9cze6h15","24","[""Other""]","Yes","Female","880259.7999997139","null","","<p></p>","null","choice","wbw","catch","null","washing machines","70","80","10","40","50","10","2","","","","","","","","","",""
"","","","","","choice_trial","survey-html-form","133","788562","0.0-5.0-1.24","100","1","2025-04-11 14:48:55","bb671e3ae32f654b8954ea4c4635f915","","Mozilla/5.0 (Windows NT 10.0; Win64; x64) AppleWebKit/537.36 (KHTML, like Gecko) Chrome/134.0.0.0 Safari/537.36","WebKit","Chrome","134.0.0.0","Windows","10.0","https://hz8g1ckzuq.cognition.run/","en-US,en;q=0.9,zh;q=0.8,es;q=0.7","91k47oy9cze6h15","24","[""Other""]","Yes","Female","880259.7999997139","1319","","","{""product_choice"":""B""}","choice","wbw","catch","null","washing machines","70","80","10","40","50","10","2","null","null","null","null","null","null","Average lifespan","Energy savings","",""
"","","","","","choice_trial_setup","html-keyboard-response","134","788871","0.0-5.0-0.25","100","1","2025-04-11 14:48:55","bb671e3ae32f654b8954ea4c4635f915","","Mozilla/5.0 (Windows NT 10.0; Win64; x64) AppleWebKit/537.36 (KHTML, like Gecko) Chrome/134.0.0.0 Safari/537.36","WebKit","Chrome","134.0.0.0","Windows","10.0","https://hz8g1ckzuq.cognition.run/","en-US,en;q=0.9,zh;q=0.8,es;q=0.7","91k47oy9cze6h15","24","[""Other""]","Yes","Female","880259.7999997139","null","","<p></p>","null","choice","tcd","attraction_1","2","laptops","null","null","null","null","null","null","2","","","","","","","","","",""
"","","","","","choice_trial","survey-html-form","135","790769","0.0-5.0-1.25","100","1","2025-04-11 14:48:55","bb671e3ae32f654b8954ea4c4635f915","","Mozilla/5.0 (Windows NT 10.0; Win64; x64) AppleWebKit/537.36 (KHTML, like Gecko) Chrome/134.0.0.0 Safari/537.36","WebKit","Chrome","134.0.0.0","Windows","10.0","https://hz8g1ckzuq.cognition.run/","en-US,en;q=0.9,zh;q=0.8,es;q=0.7","91k47oy9cze6h15","24","[""Other""]","Yes","Female","880259.7999997139","1891","","","{""product_choice"":""A""}","choice","tcd","attraction_1","2","laptops","null","null","null","null","null","null","2","50","60","45","60","50","60","Processing speed","Memory (RAM)","",""
"","","","","","choice_trial_setup","html-keyboard-response","136","791075","0.0-5.0-0.26","100","1","2025-04-11 14:48:55","bb671e3ae32f654b8954ea4c4635f915","","Mozilla/5.0 (Windows NT 10.0; Win64; x64) AppleWebKit/537.36 (KHTML, like Gecko) Chrome/134.0.0.0 Safari/537.36","WebKit","Chrome","134.0.0.0","Windows","10.0","https://hz8g1ckzuq.cognition.run/","en-US,en;q=0.9,zh;q=0.8,es;q=0.7","91k47oy9cze6h15","24","[""Other""]","Yes","Female","880259.7999997139","null","","<p></p>","null","choice","cdt","attraction_2","1","microwave ovens","null","null","null","null","null","null","1","","","","","","","","","",""
"","","","","","choice_trial","survey-html-form","137","792867","0.0-5.0-1.26","100","1","2025-04-11 14:48:55","bb671e3ae32f654b8954ea4c4635f915","","Mozilla/5.0 (Windows NT 10.0; Win64; x64) AppleWebKit/537.36 (KHTML, like Gecko) Chrome/134.0.0.0 Safari/537.36","WebKit","Chrome","134.0.0.0","Windows","10.0","https://hz8g1ckzuq.cognition.run/","en-US,en;q=0.9,zh;q=0.8,es;q=0.7","91k47oy9cze6h15","24","[""Other""]","Yes","Female","880259.7999997139","1787","","","{""product_choice"":""C""}","choice","cdt","attraction_2","1","microwave ovens","null","null","null","null","null","null","1","60","50","60","50","60","40","Warranty","Cooking power","",""
"","","","","","choice_trial_setup","html-keyboard-response","138","793186","0.0-5.0-0.27","100","1","2025-04-11 14:48:55","bb671e3ae32f654b8954ea4c4635f915","","Mozilla/5.0 (Windows NT 10.0; Win64; x64) AppleWebKit/537.36 (KHTML, like Gecko) Chrome/134.0.0.0 Safari/537.36","WebKit","Chrome","134.0.0.0","Windows","10.0","https://hz8g1ckzuq.cognition.run/","en-US,en;q=0.9,zh;q=0.8,es;q=0.7","91k47oy9cze6h15","24","[""Other""]","Yes","Female","880259.7999997139","null","","<p></p>","null","choice","tdc","repulsion_2","1","televisions","null","null","null","null","null","null","1","","","","","","","","","",""
"","","","","","choice_trial","survey-html-form","139","795557","0.0-5.0-1.27","100","1","2025-04-11 14:48:55","bb671e3ae32f654b8954ea4c4635f915","","Mozilla/5.0 (Windows NT 10.0; Win64; x64) AppleWebKit/537.36 (KHTML, like Gecko) Chrome/134.0.0.0 Safari/537.36","WebKit","Chrome","134.0.0.0","Windows","10.0","https://hz8g1ckzuq.cognition.run/","en-US,en;q=0.9,zh;q=0.8,es;q=0.7","91k47oy9cze6h15","24","[""Other""]","Yes","Female","880259.7999997139","2366","","","{""product_choice"":""A""}","choice","tdc","repulsion_2","1","televisions","null","null","null","null","null","null","1","100","90","100","30","40","20","Screen size","Average lifespan","",""
"","","","","","choice_trial_setup","html-keyboard-response","140","795869","0.0-5.0-0.28","100","1","2025-04-11 14:48:55","bb671e3ae32f654b8954ea4c4635f915","","Mozilla/5.0 (Windows NT 10.0; Win64; x64) AppleWebKit/537.36 (KHTML, like Gecko) Chrome/134.0.0.0 Safari/537.36","WebKit","Chrome","134.0.0.0","Windows","10.0","https://hz8g1ckzuq.cognition.run/","en-US,en;q=0.9,zh;q=0.8,es;q=0.7","91k47oy9cze6h15","24","[""Other""]","Yes","Female","880259.7999997139","null","","<p></p>","null","choice","cdt","attraction_1","2","washing machines","null","null","null","null","null","null","2","","","","","","","","","",""
"","","","","","choice_trial","survey-html-form","141","798040","0.0-5.0-1.28","100","1","2025-04-11 14:48:55","bb671e3ae32f654b8954ea4c4635f915","","Mozilla/5.0 (Windows NT 10.0; Win64; x64) AppleWebKit/537.36 (KHTML, like Gecko) Chrome/134.0.0.0 Safari/537.36","WebKit","Chrome","134.0.0.0","Windows","10.0","https://hz8g1ckzuq.cognition.run/","en-US,en;q=0.9,zh;q=0.8,es;q=0.7","91k47oy9cze6h15","24","[""Other""]","Yes","Female","880259.7999997139","2163","","","{""product_choice"":""C""}","choice","cdt","attraction_1","2","washing machines","null","null","null","null","null","null","2","50","60","45","60","50","60","Average lifespan","Energy savings","",""
"","","","","","choice_trial_setup","html-keyboard-response","142","798355","0.0-5.0-0.29","100","1","2025-04-11 14:48:55","bb671e3ae32f654b8954ea4c4635f915","","Mozilla/5.0 (Windows NT 10.0; Win64; x64) AppleWebKit/537.36 (KHTML, like Gecko) Chrome/134.0.0.0 Safari/537.36","WebKit","Chrome","134.0.0.0","Windows","10.0","https://hz8g1ckzuq.cognition.run/","en-US,en;q=0.9,zh;q=0.8,es;q=0.7","91k47oy9cze6h15","24","[""Other""]","Yes","Female","880259.7999997139","null","","<p></p>","null","choice","tcd","repulsion_1","1","washing machines","null","null","null","null","null","null","1","","","","","","","","","",""
"","","","","","choice_trial","survey-html-form","143","800470","0.0-5.0-1.29","100","1","2025-04-11 14:48:55","bb671e3ae32f654b8954ea4c4635f915","","Mozilla/5.0 (Windows NT 10.0; Win64; x64) AppleWebKit/537.36 (KHTML, like Gecko) Chrome/134.0.0.0 Safari/537.36","WebKit","Chrome","134.0.0.0","Windows","10.0","https://hz8g1ckzuq.cognition.run/","en-US,en;q=0.9,zh;q=0.8,es;q=0.7","91k47oy9cze6h15","24","[""Other""]","Yes","Female","880259.7999997139","2108","","","{""product_choice"":""A""}","choice","tcd","repulsion_1","1","washing machines","null","null","null","null","null","null","1","100","90","100","30","40","25","Average lifespan","Energy savings","",""
"","","","","","choice_trial_setup","html-keyboard-response","144","800785","0.0-5.0-0.30","100","1","2025-04-11 14:48:55","bb671e3ae32f654b8954ea4c4635f915","","Mozilla/5.0 (Windows NT 10.0; Win64; x64) AppleWebKit/537.36 (KHTML, like Gecko) Chrome/134.0.0.0 Safari/537.36","WebKit","Chrome","134.0.0.0","Windows","10.0","https://hz8g1ckzuq.cognition.run/","en-US,en;q=0.9,zh;q=0.8,es;q=0.7","91k47oy9cze6h15","24","[""Other""]","Yes","Female","880259.7999997139","null","","<p></p>","null","choice","tcd","attraction_2","1","televisions","null","null","null","null","null","null","1","","","","","","","","","",""
"","","","","","choice_trial","survey-html-form","145","802913","0.0-5.0-1.30","100","1","2025-04-11 14:48:55","bb671e3ae32f654b8954ea4c4635f915","","Mozilla/5.0 (Windows NT 10.0; Win64; x64) AppleWebKit/537.36 (KHTML, like Gecko) Chrome/134.0.0.0 Safari/537.36","WebKit","Chrome","134.0.0.0","Windows","10.0","https://hz8g1ckzuq.cognition.run/","en-US,en;q=0.9,zh;q=0.8,es;q=0.7","91k47oy9cze6h15","24","[""Other""]","Yes","Female","880259.7999997139","2120","","","{""product_choice"":""C""}","choice","tcd","attraction_2","1","televisions","null","null","null","null","null","null","1","60","50","60","50","60","40","Screen size","Average lifespan","",""
"","","","","","choice_trial_setup","html-keyboard-response","146","803227","0.0-5.0-0.31","100","1","2025-04-11 14:48:55","bb671e3ae32f654b8954ea4c4635f915","","Mozilla/5.0 (Windows NT 10.0; Win64; x64) AppleWebKit/537.36 (KHTML, like Gecko) Chrome/134.0.0.0 Safari/537.36","WebKit","Chrome","134.0.0.0","Windows","10.0","https://hz8g1ckzuq.cognition.run/","en-US,en;q=0.9,zh;q=0.8,es;q=0.7","91k47oy9cze6h15","24","[""Other""]","Yes","Female","880259.7999997139","null","","<p></p>","null","choice","tdc","attraction_2","1","washing machines","null","null","null","null","null","null","2","","","","","","","","","",""
"","","","","","choice_trial","survey-html-form","147","805000","0.0-5.0-1.31","100","1","2025-04-11 14:48:55","bb671e3ae32f654b8954ea4c4635f915","","Mozilla/5.0 (Windows NT 10.0; Win64; x64) AppleWebKit/537.36 (KHTML, like Gecko) Chrome/134.0.0.0 Safari/537.36","WebKit","Chrome","134.0.0.0","Windows","10.0","https://hz8g1ckzuq.cognition.run/","en-US,en;q=0.9,zh;q=0.8,es;q=0.7","91k47oy9cze6h15","24","[""Other""]","Yes","Female","880259.7999997139","1761","","","{""product_choice"":""C""}","choice","tdc","attraction_2","1","washing machines","null","null","null","null","null","null","2","60","50","60","50","60","40","Average lifespan","Energy savings","",""
"","","","","","choice_trial_setup","html-keyboard-response","148","805318","0.0-5.0-0.32","100","1","2025-04-11 14:48:55","bb671e3ae32f654b8954ea4c4635f915","","Mozilla/5.0 (Windows NT 10.0; Win64; x64) AppleWebKit/537.36 (KHTML, like Gecko) Chrome/134.0.0.0 Safari/537.36","WebKit","Chrome","134.0.0.0","Windows","10.0","https://hz8g1ckzuq.cognition.run/","en-US,en;q=0.9,zh;q=0.8,es;q=0.7","91k47oy9cze6h15","24","[""Other""]","Yes","Female","880259.7999997139","null","","<p></p>","null","choice","bww","catch","null","televisions","80","75","30","40","40","20","1","","","","","","","","","",""
"","","","","","choice_trial","survey-html-form","149","807443","0.0-5.0-1.32","100","1","2025-04-11 14:48:55","bb671e3ae32f654b8954ea4c4635f915","","Mozilla/5.0 (Windows NT 10.0; Win64; x64) AppleWebKit/537.36 (KHTML, like Gecko) Chrome/134.0.0.0 Safari/537.36","WebKit","Chrome","134.0.0.0","Windows","10.0","https://hz8g1ckzuq.cognition.run/","en-US,en;q=0.9,zh;q=0.8,es;q=0.7","91k47oy9cze6h15","24","[""Other""]","Yes","Female","880259.7999997139","2116","","","{""product_choice"":""A""}","choice","bww","catch","null","televisions","80","75","30","40","40","20","1","null","null","null","null","null","null","Screen size","Average lifespan","",""
"","","","","","choice_trial_setup","html-keyboard-response","150","807753","0.0-5.0-0.33","100","1","2025-04-11 14:48:55","bb671e3ae32f654b8954ea4c4635f915","","Mozilla/5.0 (Windows NT 10.0; Win64; x64) AppleWebKit/537.36 (KHTML, like Gecko) Chrome/134.0.0.0 Safari/537.36","WebKit","Chrome","134.0.0.0","Windows","10.0","https://hz8g1ckzuq.cognition.run/","en-US,en;q=0.9,zh;q=0.8,es;q=0.7","91k47oy9cze6h15","24","[""Other""]","Yes","Female","880259.7999997139","null","","<p></p>","null","choice","cdt","attraction_2","2","washing machines","null","null","null","null","null","null","2","","","","","","","","","",""
"","","","","","choice_trial","survey-html-form","151","810258","0.0-5.0-1.33","100","1","2025-04-11 14:48:55","bb671e3ae32f654b8954ea4c4635f915","","Mozilla/5.0 (Windows NT 10.0; Win64; x64) AppleWebKit/537.36 (KHTML, like Gecko) Chrome/134.0.0.0 Safari/537.36","WebKit","Chrome","134.0.0.0","Windows","10.0","https://hz8g1ckzuq.cognition.run/","en-US,en;q=0.9,zh;q=0.8,es;q=0.7","91k47oy9cze6h15","24","[""Other""]","Yes","Female","880259.7999997139","2500","","","{""product_choice"":""C""}","choice","cdt","attraction_2","2","washing machines","null","null","null","null","null","null","2","50","60","40","60","50","60","Average lifespan","Energy savings","",""
"","","","","","choice_trial_setup","html-keyboard-response","152","810572","0.0-5.0-0.34","100","1","2025-04-11 14:48:55","bb671e3ae32f654b8954ea4c4635f915","","Mozilla/5.0 (Windows NT 10.0; Win64; x64) AppleWebKit/537.36 (KHTML, like Gecko) Chrome/134.0.0.0 Safari/537.36","WebKit","Chrome","134.0.0.0","Windows","10.0","https://hz8g1ckzuq.cognition.run/","en-US,en;q=0.9,zh;q=0.8,es;q=0.7","91k47oy9cze6h15","24","[""Other""]","Yes","Female","880259.7999997139","null","","<p></p>","null","choice","cdt","attraction_2","2","laptops","null","null","null","null","null","null","1","","","","","","","","","",""
