"success","timeout","failed_images","failed_audio","failed_video","screen_id","trial_type","trial_index","time_elapsed","internal_node_id","run_id","condition","recorded_at","source_code_version","ip","user_agent","device","browser","browser_version","platform","platform_version","referer","accept_language","ppt_id","age","race","ethnicity","gender","exp_duration","rt","view_history","stimulus","response","phase","order","effect","t_high","category","d1_best","d2_best","d1_worst1","d2_worst1","d1_worst2","d2_worst2","first_dim","d1_t","d1_c","d1_d","d2_t","d2_c","d2_d","d1_name","d2_name","strategy_response","question_order"
"true","false","[]","[]","[]","img preload","preload","0","5785","0.0-0.0","104","1","2025-04-11 14:49:08","bb671e3ae32f654b8954ea4c4635f915","","Mozilla/5.0 (Windows NT 10.0; Win64; x64) AppleWebKit/537.36 (KHTML, like Gecko) Chrome/131.0.0.0 Safari/537.36","WebKit","Chrome","131.0.0.0","Windows","10.0","https://hz8g1ckzuq.cognition.run/","en-US,en;q=0.9","2n88zn954gutc1y","29","[""White""]","No","Female","1393813.3000000007","","","","","","","","","","","","","","","","","","","","","","","","","",""
"true","","","","","","fullscreen","1","57571","0.0-1.0","104","1","2025-04-11 14:49:08","bb671e3ae32f654b8954ea4c4635f915","","Mozilla/5.0 (Windows NT 10.0; Win64; x64) AppleWebKit/537.36 (KHTML, like Gecko) Chrome/131.0.0.0 Safari/537.36","WebKit","Chrome","131.0.0.0","Windows","10.0","https://hz8g1ckzuq.cognition.run/","en-US,en;q=0.9","2n88zn954gutc1y","29","[""White""]","No","Female","1393813.3000000007","50763","","","","","","","","","","","","","","","","","","","","","","","","",""
"","","","","","","instructions","2","139360","0.0-2.0","104","1","2025-04-11 14:49:08","bb671e3ae32f654b8954ea4c4635f915","","Mozilla/5.0 (Windows NT 10.0; Win64; x64) AppleWebKit/537.36 (KHTML, like Gecko) Chrome/131.0.0.0 Safari/537.36","WebKit","Chrome","131.0.0.0","Windows","10.0","https://hz8g1ckzuq.cognition.run/","en-US,en;q=0.9","2n88zn954gutc1y","29","[""White""]","No","Female","1393813.3000000007","81786","[{""page_index"":0,""viewing_time"":3868},{""page_index"":1,""viewing_time"":4890},{""page_index"":2,""viewing_time"":4491},{""page_index"":3,""viewing_time"":5312},{""page_index"":4,""viewing_time"":13695},{""page_index"":5,""viewing_time"":7973},{""page_index"":6,""viewing_time"":8976},{""page_index"":7,""viewing_time"":16644},{""page_index"":8,""viewing_time"":9772},{""page_index"":9,""viewing_time"":6164}]","","","","","","","","","","","","","","","","","","","","","","","",""
"","","","","","rating_trial_setup","html-keyboard-response","3","139672","0.0-3.0-0.0","104","1","2025-04-11 14:49:08","bb671e3ae32f654b8954ea4c4635f915","","Mozilla/5.0 (Windows NT 10.0; Win64; x64) AppleWebKit/537.36 (KHTML, like Gecko) Chrome/131.0.0.0 Safari/537.36","WebKit","Chrome","131.0.0.0","Windows","10.0","https://hz8g1ckzuq.cognition.run/","en-US,en;q=0.9","2n88zn954gutc1y","29","[""White""]","No","Female","1393813.3000000007","null","","<p></p>","null","rating","ctd","attraction_1","2","microwave ovens","null","null","null","null","null","null","1","","","","","","","","","",""
"","","","","","rating_trial","survey-html-form","4","161109","0.0-3.0-1.0","104","1","2025-04-11 14:49:08","bb671e3ae32f654b8954ea4c4635f915","","Mozilla/5.0 (Windows NT 10.0; Win64; x64) AppleWebKit/537.36 (KHTML, like Gecko) Chrome/131.0.0.0 Safari/537.36","WebKit","Chrome","131.0.0.0","Windows","10.0","https://hz8g1ckzuq.cognition.run/","en-US,en;q=0.9","2n88zn954gutc1y","29","[""White""]","No","Female","1393813.3000000007","21423","","","{""price_1"":""70"",""price_2"":""45"",""price_3"":""89""}","rating","ctd","attraction_1","2","microwave ovens","null","null","null","null","null","null","1","50","60","45","60","50","60","Warranty","Cooking power","",""
"","","","","","rating_trial_setup","html-keyboard-response","5","161429","0.0-3.0-0.1","104","1","2025-04-11 14:49:08","bb671e3ae32f654b8954ea4c4635f915","","Mozilla/5.0 (Windows NT 10.0; Win64; x64) AppleWebKit/537.36 (KHTML, like Gecko) Chrome/131.0.0.0 Safari/537.36","WebKit","Chrome","131.0.0.0","Windows","10.0","https://hz8g1ckzuq.cognition.run/","en-US,en;q=0.9","2n88zn954gutc1y","29","[""White""]","No","Female","1393813.3000000007","null","","<p></p>","null","rating","tdc","attraction_1","1","microwave ovens","null","null","null","null","null","null","2","","","","","","","","","",""
"","","","","","rating_trial","survey-html-form","6","213554","0.0-3.0-1.1","104","1","2025-04-11 14:49:08","bb671e3ae32f654b8954ea4c4635f915","","Mozilla/5.0 (Windows NT 10.0; Win64; x64) AppleWebKit/537.36 (KHTML, like Gecko) Chrome/131.0.0.0 Safari/537.36","WebKit","Chrome","131.0.0.0","Windows","10.0","https://hz8g1ckzuq.cognition.run/","en-US,en;q=0.9","2n88zn954gutc1y","29","[""White""]","No","Female","1393813.3000000007","52120","","","{""price_1"":""50"",""price_2"":""70"",""price_3"":""65""}","rating","tdc","attraction_1","1","microwave ovens","null","null","null","null","null","null","2","60","50","60","50","60","45","Warranty","Cooking power","",""
"","","","","","rating_trial_setup","html-keyboard-response","7","213881","0.0-3.0-0.2","104","1","2025-04-11 14:49:08","bb671e3ae32f654b8954ea4c4635f915","","Mozilla/5.0 (Windows NT 10.0; Win64; x64) AppleWebKit/537.36 (KHTML, like Gecko) Chrome/131.0.0.0 Safari/537.36","WebKit","Chrome","131.0.0.0","Windows","10.0","https://hz8g1ckzuq.cognition.run/","en-US,en;q=0.9","2n88zn954gutc1y","29","[""White""]","No","Female","1393813.3000000007","null","","<p></p>","null","rating","wwb","catch","null","laptops","70","75","40","10","50","10","2","","","","","","","","","",""
"","","","","","rating_trial","survey-html-form","8","234176","0.0-3.0-1.2","104","1","2025-04-11 14:49:08","bb671e3ae32f654b8954ea4c4635f915","","Mozilla/5.0 (Windows NT 10.0; Win64; x64) AppleWebKit/537.36 (KHTML, like Gecko) Chrome/131.0.0.0 Safari/537.36","WebKit","Chrome","131.0.0.0","Windows","10.0","https://hz8g1ckzuq.cognition.run/","en-US,en;q=0.9","2n88zn954gutc1y","29","[""White""]","No","Female","1393813.3000000007","20289","","","{""price_1"":""50"",""price_2"":""50"",""price_3"":""80""}","rating","wwb","catch","null","laptops","70","75","40","10","50","10","2","null","null","null","null","null","null","Processing speed","Memory (RAM)","",""
"","","","","","rating_trial_setup","html-keyboard-response","9","234484","0.0-3.0-0.3","104","1","2025-04-11 14:49:08","bb671e3ae32f654b8954ea4c4635f915","","Mozilla/5.0 (Windows NT 10.0; Win64; x64) AppleWebKit/537.36 (KHTML, like Gecko) Chrome/131.0.0.0 Safari/537.36","WebKit","Chrome","131.0.0.0","Windows","10.0","https://hz8g1ckzuq.cognition.run/","en-US,en;q=0.9","2n88zn954gutc1y","29","[""White""]","No","Female","1393813.3000000007","null","","<p></p>","null","rating","tdc","repulsion_2","2","microwave ovens","null","null","null","null","null","null","1","","","","","","","","","",""
"","","","","","rating_trial","survey-html-form","10","260085","0.0-3.0-1.3","104","1","2025-04-11 14:49:08","bb671e3ae32f654b8954ea4c4635f915","","Mozilla/5.0 (Windows NT 10.0; Win64; x64) AppleWebKit/537.36 (KHTML, like Gecko) Chrome/131.0.0.0 Safari/537.36","WebKit","Chrome","131.0.0.0","Windows","10.0","https://hz8g1ckzuq.cognition.run/","en-US,en;q=0.9","2n88zn954gutc1y","29","[""White""]","No","Female","1393813.3000000007","25596","","","{""price_1"":""70"",""price_2"":""70"",""price_3"":""70""}","rating","tdc","repulsion_2","2","microwave ovens","null","null","null","null","null","null","1","30","40","20","100","90","100","Warranty","Cooking power","",""
"","","","","","rating_trial_setup","html-keyboard-response","11","260393","0.0-3.0-0.4","104","1","2025-04-11 14:49:08","bb671e3ae32f654b8954ea4c4635f915","","Mozilla/5.0 (Windows NT 10.0; Win64; x64) AppleWebKit/537.36 (KHTML, like Gecko) Chrome/131.0.0.0 Safari/537.36","WebKit","Chrome","131.0.0.0","Windows","10.0","https://hz8g1ckzuq.cognition.run/","en-US,en;q=0.9","2n88zn954gutc1y","29","[""White""]","No","Female","1393813.3000000007","null","","<p></p>","null","rating","wwb","catch","null","washing machines","65","55","45","5","45","10","2","","","","","","","","","",""
"","","","","","rating_trial","survey-html-form","12","273309","0.0-3.0-1.4","104","1","2025-04-11 14:49:08","bb671e3ae32f654b8954ea4c4635f915","","Mozilla/5.0 (Windows NT 10.0; Win64; x64) AppleWebKit/537.36 (KHTML, like Gecko) Chrome/131.0.0.0 Safari/537.36","WebKit","Chrome","131.0.0.0","Windows","10.0","https://hz8g1ckzuq.cognition.run/","en-US,en;q=0.9","2n88zn954gutc1y","29","[""White""]","No","Female","1393813.3000000007","12912","","","{""price_1"":""60"",""price_2"":""55"",""price_3"":""79""}","rating","wwb","catch","null","washing machines","65","55","45","5","45","10","2","null","null","null","null","null","null","Average lifespan","Energy savings","",""
"","","","","","rating_trial_setup","html-keyboard-response","13","273616","0.0-3.0-0.5","104","1","2025-04-11 14:49:08","bb671e3ae32f654b8954ea4c4635f915","","Mozilla/5.0 (Windows NT 10.0; Win64; x64) AppleWebKit/537.36 (KHTML, like Gecko) Chrome/131.0.0.0 Safari/537.36","WebKit","Chrome","131.0.0.0","Windows","10.0","https://hz8g1ckzuq.cognition.run/","en-US,en;q=0.9","2n88zn954gutc1y","29","[""White""]","No","Female","1393813.3000000007","null","","<p></p>","null","rating","ctd","repulsion_2","1","microwave ovens","null","null","null","null","null","null","1","","","","","","","","","",""
"","","","","","rating_trial","survey-html-form","14","285384","0.0-3.0-1.5","104","1","2025-04-11 14:49:08","bb671e3ae32f654b8954ea4c4635f915","","Mozilla/5.0 (Windows NT 10.0; Win64; x64) AppleWebKit/537.36 (KHTML, like Gecko) Chrome/131.0.0.0 Safari/537.36","WebKit","Chrome","131.0.0.0","Windows","10.0","https://hz8g1ckzuq.cognition.run/","en-US,en;q=0.9","2n88zn954gutc1y","29","[""White""]","No","Female","1393813.3000000007","11764","","","{""price_1"":""60"",""price_2"":""67"",""price_3"":""77""}","rating","ctd","repulsion_2","1","microwave ovens","null","null","null","null","null","null","1","100","90","100","30","40","20","Warranty","Cooking power","",""
"","","","","","rating_trial_setup","html-keyboard-response","15","285696","0.0-3.0-0.6","104","1","2025-04-11 14:49:08","bb671e3ae32f654b8954ea4c4635f915","","Mozilla/5.0 (Windows NT 10.0; Win64; x64) AppleWebKit/537.36 (KHTML, like Gecko) Chrome/131.0.0.0 Safari/537.36","WebKit","Chrome","131.0.0.0","Windows","10.0","https://hz8g1ckzuq.cognition.run/","en-US,en;q=0.9","2n88zn954gutc1y","29","[""White""]","No","Female","1393813.3000000007","null","","<p></p>","null","rating","tcd","repulsion_1","1","microwave ovens","null","null","null","null","null","null","2","","","","","","","","","",""
"","","","","","rating_trial","survey-html-form","16","302501","0.0-3.0-1.6","104","1","2025-04-11 14:49:08","bb671e3ae32f654b8954ea4c4635f915","","Mozilla/5.0 (Windows NT 10.0; Win64; x64) AppleWebKit/537.36 (KHTML, like Gecko) Chrome/131.0.0.0 Safari/537.36","WebKit","Chrome","131.0.0.0","Windows","10.0","https://hz8g1ckzuq.cognition.run/","en-US,en;q=0.9","2n88zn954gutc1y","29","[""White""]","No","Female","1393813.3000000007","16800","","","{""price_1"":""80"",""price_2"":""44"",""price_3"":""56""}","rating","tcd","repulsion_1","1","microwave ovens","null","null","null","null","null","null","2","100","90","100","30","40","25","Warranty","Cooking power","",""
"","","","","","rating_trial_setup","html-keyboard-response","17","302814","0.0-3.0-0.7","104","1","2025-04-11 14:49:08","bb671e3ae32f654b8954ea4c4635f915","","Mozilla/5.0 (Windows NT 10.0; Win64; x64) AppleWebKit/537.36 (KHTML, like Gecko) Chrome/131.0.0.0 Safari/537.36","WebKit","Chrome","131.0.0.0","Windows","10.0","https://hz8g1ckzuq.cognition.run/","en-US,en;q=0.9","2n88zn954gutc1y","29","[""White""]","No","Female","1393813.3000000007","null","","<p></p>","null","rating","tcd","attraction_1","1","televisions","null","null","null","null","null","null","2","","","","","","","","","",""
"","","","","","rating_trial","survey-html-form","18","315847","0.0-3.0-1.7","104","1","2025-04-11 14:49:08","bb671e3ae32f654b8954ea4c4635f915","","Mozilla/5.0 (Windows NT 10.0; Win64; x64) AppleWebKit/537.36 (KHTML, like Gecko) Chrome/131.0.0.0 Safari/537.36","WebKit","Chrome","131.0.0.0","Windows","10.0","https://hz8g1ckzuq.cognition.run/","en-US,en;q=0.9","2n88zn954gutc1y","29","[""White""]","No","Female","1393813.3000000007","13030","","","{""price_1"":""70"",""price_2"":""70"",""price_3"":""70""}","rating","tcd","attraction_1","1","televisions","null","null","null","null","null","null","2","60","50","60","50","60","45","Screen size","Average lifespan","",""
"","","","","","rating_trial_setup","html-keyboard-response","19","316158","0.0-3.0-0.8","104","1","2025-04-11 14:49:08","bb671e3ae32f654b8954ea4c4635f915","","Mozilla/5.0 (Windows NT 10.0; Win64; x64) AppleWebKit/537.36 (KHTML, like Gecko) Chrome/131.0.0.0 Safari/537.36","WebKit","Chrome","131.0.0.0","Windows","10.0","https://hz8g1ckzuq.cognition.run/","en-US,en;q=0.9","2n88zn954gutc1y","29","[""White""]","No","Female","1393813.3000000007","null","","<p></p>","null","rating","tdc","attraction_1","1","laptops","null","null","null","null","null","null","1","","","","","","","","","",""
"","","","","","rating_trial","survey-html-form","20","346995","0.0-3.0-1.8","104","1","2025-04-11 14:49:08","bb671e3ae32f654b8954ea4c4635f915","","Mozilla/5.0 (Windows NT 10.0; Win64; x64) AppleWebKit/537.36 (KHTML, like Gecko) Chrome/131.0.0.0 Safari/537.36","WebKit","Chrome","131.0.0.0","Windows","10.0","https://hz8g1ckzuq.cognition.run/","en-US,en;q=0.9","2n88zn954gutc1y","29","[""White""]","No","Female","1393813.3000000007","30833","","","{""price_1"":""1000"",""price_2"":""8880"",""price_3"":""5000""}","rating","tdc","attraction_1","1","laptops","null","null","null","null","null","null","1","60","50","60","50","60","45","Processing speed","Memory (RAM)","",""
"","","","","","rating_trial_setup","html-keyboard-response","21","347313","0.0-3.0-0.9","104","1","2025-04-11 14:49:08","bb671e3ae32f654b8954ea4c4635f915","","Mozilla/5.0 (Windows NT 10.0; Win64; x64) AppleWebKit/537.36 (KHTML, like Gecko) Chrome/131.0.0.0 Safari/537.36","WebKit","Chrome","131.0.0.0","Windows","10.0","https://hz8g1ckzuq.cognition.run/","en-US,en;q=0.9","2n88zn954gutc1y","29","[""White""]","No","Female","1393813.3000000007","null","","<p></p>","null","rating","dtc","attraction_2","1","microwave ovens","null","null","null","null","null","null","1","","","","","","","","","",""
"","","","","","rating_trial","survey-html-form","22","374097","0.0-3.0-1.9","104","1","2025-04-11 14:49:08","bb671e3ae32f654b8954ea4c4635f915","","Mozilla/5.0 (Windows NT 10.0; Win64; x64) AppleWebKit/537.36 (KHTML, like Gecko) Chrome/131.0.0.0 Safari/537.36","WebKit","Chrome","131.0.0.0","Windows","10.0","https://hz8g1ckzuq.cognition.run/","en-US,en;q=0.9","2n88zn954gutc1y","29","[""White""]","No","Female","1393813.3000000007","26778","","","{""price_1"":""2000"",""price_2"":""1500"",""price_3"":""1200""}","rating","dtc","attraction_2","1","microwave ovens","null","null","null","null","null","null","1","60","50","60","50","60","40","Warranty","Cooking power","",""
"","","","","","rating_trial_setup","html-keyboard-response","23","374413","0.0-3.0-0.10","104","1","2025-04-11 14:49:08","bb671e3ae32f654b8954ea4c4635f915","","Mozilla/5.0 (Windows NT 10.0; Win64; x64) AppleWebKit/537.36 (KHTML, like Gecko) Chrome/131.0.0.0 Safari/537.36","WebKit","Chrome","131.0.0.0","Windows","10.0","https://hz8g1ckzuq.cognition.run/","en-US,en;q=0.9","2n88zn954gutc1y","29","[""White""]","No","Female","1393813.3000000007","null","","<p></p>","null","rating","dct","repulsion_1","2","televisions","null","null","null","null","null","null","1","","","","","","","","","",""
"","","","","","rating_trial","survey-html-form","24","390331","0.0-3.0-1.10","104","1","2025-04-11 14:49:08","bb671e3ae32f654b8954ea4c4635f915","","Mozilla/5.0 (Windows NT 10.0; Win64; x64) AppleWebKit/537.36 (KHTML, like Gecko) Chrome/131.0.0.0 Safari/537.36","WebKit","Chrome","131.0.0.0","Windows","10.0","https://hz8g1ckzuq.cognition.run/","en-US,en;q=0.9","2n88zn954gutc1y","29","[""White""]","No","Female","1393813.3000000007","15913","","","{""price_1"":""600"",""price_2"":""400"",""price_3"":""550""}","rating","dct","repulsion_1","2","televisions","null","null","null","null","null","null","1","30","40","25","100","90","100","Screen size","Average lifespan","",""
"","","","","","rating_trial_setup","html-keyboard-response","25","390644","0.0-3.0-0.11","104","1","2025-04-11 14:49:08","bb671e3ae32f654b8954ea4c4635f915","","Mozilla/5.0 (Windows NT 10.0; Win64; x64) AppleWebKit/537.36 (KHTML, like Gecko) Chrome/131.0.0.0 Safari/537.36","WebKit","Chrome","131.0.0.0","Windows","10.0","https://hz8g1ckzuq.cognition.run/","en-US,en;q=0.9","2n88zn954gutc1y","29","[""White""]","No","Female","1393813.3000000007","null","","<p></p>","null","rating","dct","repulsion_1","1","washing machines","null","null","null","null","null","null","1","","","","","","","","","",""
"","","","","","rating_trial","survey-html-form","26","407178","0.0-3.0-1.11","104","1","2025-04-11 14:49:08","bb671e3ae32f654b8954ea4c4635f915","","Mozilla/5.0 (Windows NT 10.0; Win64; x64) AppleWebKit/537.36 (KHTML, like Gecko) Chrome/131.0.0.0 Safari/537.36","WebKit","Chrome","131.0.0.0","Windows","10.0","https://hz8g1ckzuq.cognition.run/","en-US,en;q=0.9","2n88zn954gutc1y","29","[""White""]","No","Female","1393813.3000000007","16528","","","{""price_1"":""300"",""price_2"":""700"",""price_3"":""600""}","rating","dct","repulsion_1","1","washing machines","null","null","null","null","null","null","1","100","90","100","30","40","25","Average lifespan","Energy savings","",""
"","","","","","rating_trial_setup","html-keyboard-response","27","407496","0.0-3.0-0.12","104","1","2025-04-11 14:49:08","bb671e3ae32f654b8954ea4c4635f915","","Mozilla/5.0 (Windows NT 10.0; Win64; x64) AppleWebKit/537.36 (KHTML, like Gecko) Chrome/131.0.0.0 Safari/537.36","WebKit","Chrome","131.0.0.0","Windows","10.0","https://hz8g1ckzuq.cognition.run/","en-US,en;q=0.9","2n88zn954gutc1y","29","[""White""]","No","Female","1393813.3000000007","null","","<p></p>","null","rating","dtc","attraction_1","2","laptops","null","null","null","null","null","null","2","","","","","","","","","",""
"","","","","","rating_trial","survey-html-form","28","432804","0.0-3.0-1.12","104","1","2025-04-11 14:49:08","bb671e3ae32f654b8954ea4c4635f915","","Mozilla/5.0 (Windows NT 10.0; Win64; x64) AppleWebKit/537.36 (KHTML, like Gecko) Chrome/131.0.0.0 Safari/537.36","WebKit","Chrome","131.0.0.0","Windows","10.0","https://hz8g1ckzuq.cognition.run/","en-US,en;q=0.9","2n88zn954gutc1y","29","[""White""]","No","Female","1393813.3000000007","25303","","","{""price_1"":""500"",""price_2"":""500"",""price_3"":""400""}","rating","dtc","attraction_1","2","laptops","null","null","null","null","null","null","2","50","60","45","60","50","60","Processing speed","Memory (RAM)","",""
"","","","","","rating_trial_setup","html-keyboard-response","29","433112","0.0-3.0-0.13","104","1","2025-04-11 14:49:08","bb671e3ae32f654b8954ea4c4635f915","","Mozilla/5.0 (Windows NT 10.0; Win64; x64) AppleWebKit/537.36 (KHTML, like Gecko) Chrome/131.0.0.0 Safari/537.36","WebKit","Chrome","131.0.0.0","Windows","10.0","https://hz8g1ckzuq.cognition.run/","en-US,en;q=0.9","2n88zn954gutc1y","29","[""White""]","No","Female","1393813.3000000007","null","","<p></p>","null","rating","tdc","repulsion_2","1","laptops","null","null","null","null","null","null","2","","","","","","","","","",""
"","","","","","rating_trial","survey-html-form","30","448251","0.0-3.0-1.13","104","1","2025-04-11 14:49:08","bb671e3ae32f654b8954ea4c4635f915","","Mozilla/5.0 (Windows NT 10.0; Win64; x64) AppleWebKit/537.36 (KHTML, like Gecko) Chrome/131.0.0.0 Safari/537.36","WebKit","Chrome","131.0.0.0","Windows","10.0","https://hz8g1ckzuq.cognition.run/","en-US,en;q=0.9","2n88zn954gutc1y","29","[""White""]","No","Female","1393813.3000000007","15134","","","{""price_1"":""400"",""price_2"":""200"",""price_3"":""330""}","rating","tdc","repulsion_2","1","laptops","null","null","null","null","null","null","2","100","90","100","30","40","20","Processing speed","Memory (RAM)","",""
"","","","","","rating_trial_setup","html-keyboard-response","31","448559","0.0-3.0-0.14","104","1","2025-04-11 14:49:08","bb671e3ae32f654b8954ea4c4635f915","","Mozilla/5.0 (Windows NT 10.0; Win64; x64) AppleWebKit/537.36 (KHTML, like Gecko) Chrome/131.0.0.0 Safari/537.36","WebKit","Chrome","131.0.0.0","Windows","10.0","https://hz8g1ckzuq.cognition.run/","en-US,en;q=0.9","2n88zn954gutc1y","29","[""White""]","No","Female","1393813.3000000007","null","","<p></p>","null","rating","tcd","attraction_2","1","laptops","null","null","null","null","null","null","2","","","","","","","","","",""
"","","","","","rating_trial","survey-html-form","32","471149","0.0-3.0-1.14","104","1","2025-04-11 14:49:08","bb671e3ae32f654b8954ea4c4635f915","","Mozilla/5.0 (Windows NT 10.0; Win64; x64) AppleWebKit/537.36 (KHTML, like Gecko) Chrome/131.0.0.0 Safari/537.36","WebKit","Chrome","131.0.0.0","Windows","10.0","https://hz8g1ckzuq.cognition.run/","en-US,en;q=0.9","2n88zn954gutc1y","29","[""White""]","No","Female","1393813.3000000007","22584","","","{""price_1"":""2000"",""price_2"":""1500"",""price_3"":""4000""}","rating","tcd","attraction_2","1","laptops","null","null","null","null","null","null","2","60","50","60","50","60","40","Processing speed","Memory (RAM)","",""
"","","","","","rating_trial_setup","html-keyboard-response","33","471463","0.0-3.0-0.15","104","1","2025-04-11 14:49:08","bb671e3ae32f654b8954ea4c4635f915","","Mozilla/5.0 (Windows NT 10.0; Win64; x64) AppleWebKit/537.36 (KHTML, like Gecko) Chrome/131.0.0.0 Safari/537.36","WebKit","Chrome","131.0.0.0","Windows","10.0","https://hz8g1ckzuq.cognition.run/","en-US,en;q=0.9","2n88zn954gutc1y","29","[""White""]","No","Female","1393813.3000000007","null","","<p></p>","null","rating","tdc","attraction_2","2","microwave ovens","null","null","null","null","null","null","2","","","","","","","","","",""
"","","","","","rating_trial","survey-html-form","34","485773","0.0-3.0-1.15","104","1","2025-04-11 14:49:08","bb671e3ae32f654b8954ea4c4635f915","","Mozilla/5.0 (Windows NT 10.0; Win64; x64) AppleWebKit/537.36 (KHTML, like Gecko) Chrome/131.0.0.0 Safari/537.36","WebKit","Chrome","131.0.0.0","Windows","10.0","https://hz8g1ckzuq.cognition.run/","en-US,en;q=0.9","2n88zn954gutc1y","29","[""White""]","No","Female","1393813.3000000007","14305","","","{""price_1"":""1000"",""price_2"":""600"",""price_3"":""8500""}","rating","tdc","attraction_2","2","microwave ovens","null","null","null","null","null","null","2","50","60","40","60","50","60","Warranty","Cooking power","",""
"","","","","","rating_trial_setup","html-keyboard-response","35","486081","0.0-3.0-0.16","104","1","2025-04-11 14:49:08","bb671e3ae32f654b8954ea4c4635f915","","Mozilla/5.0 (Windows NT 10.0; Win64; x64) AppleWebKit/537.36 (KHTML, like Gecko) Chrome/131.0.0.0 Safari/537.36","WebKit","Chrome","131.0.0.0","Windows","10.0","https://hz8g1ckzuq.cognition.run/","en-US,en;q=0.9","2n88zn954gutc1y","29","[""White""]","No","Female","1393813.3000000007","null","","<p></p>","null","rating","tcd","attraction_2","1","televisions","null","null","null","null","null","null","1","","","","","","","","","",""
"","","","","","rating_trial","survey-html-form","36","507548","0.0-3.0-1.16","104","1","2025-04-11 14:49:08","bb671e3ae32f654b8954ea4c4635f915","","Mozilla/5.0 (Windows NT 10.0; Win64; x64) AppleWebKit/537.36 (KHTML, like Gecko) Chrome/131.0.0.0 Safari/537.36","WebKit","Chrome","131.0.0.0","Windows","10.0","https://hz8g1ckzuq.cognition.run/","en-US,en;q=0.9","2n88zn954gutc1y","29","[""White""]","No","Female","1393813.3000000007","21462","","","{""price_1"":""500"",""price_2"":""700"",""price_3"":""400""}","rating","tcd","attraction_2","1","televisions","null","null","null","null","null","null","1","60","50","60","50","60","40","Screen size","Average lifespan","",""
"","","","","","rating_trial_setup","html-keyboard-response","37","507859","0.0-3.0-0.17","104","1","2025-04-11 14:49:08","bb671e3ae32f654b8954ea4c4635f915","","Mozilla/5.0 (Windows NT 10.0; Win64; x64) AppleWebKit/537.36 (KHTML, like Gecko) Chrome/131.0.0.0 Safari/537.36","WebKit","Chrome","131.0.0.0","Windows","10.0","https://hz8g1ckzuq.cognition.run/","en-US,en;q=0.9","2n88zn954gutc1y","29","[""White""]","No","Female","1393813.3000000007","null","","<p></p>","null","rating","ctd","repulsion_1","1","televisions","null","null","null","null","null","null","2","","","","","","","","","",""
"","","","","","rating_trial","survey-html-form","38","528787","0.0-3.0-1.17","104","1","2025-04-11 14:49:08","bb671e3ae32f654b8954ea4c4635f915","","Mozilla/5.0 (Windows NT 10.0; Win64; x64) AppleWebKit/537.36 (KHTML, like Gecko) Chrome/131.0.0.0 Safari/537.36","WebKit","Chrome","131.0.0.0","Windows","10.0","https://hz8g1ckzuq.cognition.run/","en-US,en;q=0.9","2n88zn954gutc1y","29","[""White""]","No","Female","1393813.3000000007","20923","","","{""price_1"":""600"",""price_2"":""300"",""price_3"":""700""}","rating","ctd","repulsion_1","1","televisions","null","null","null","null","null","null","2","100","90","100","30","40","25","Screen size","Average lifespan","",""
"","","","","","rating_trial_setup","html-keyboard-response","39","529107","0.0-3.0-0.18","104","1","2025-04-11 14:49:08","bb671e3ae32f654b8954ea4c4635f915","","Mozilla/5.0 (Windows NT 10.0; Win64; x64) AppleWebKit/537.36 (KHTML, like Gecko) Chrome/131.0.0.0 Safari/537.36","WebKit","Chrome","131.0.0.0","Windows","10.0","https://hz8g1ckzuq.cognition.run/","en-US,en;q=0.9","2n88zn954gutc1y","29","[""White""]","No","Female","1393813.3000000007","null","","<p></p>","null","rating","tdc","repulsion_2","1","televisions","null","null","null","null","null","null","2","","","","","","","","","",""
"","","","","","rating_trial","survey-html-form","40","553224","0.0-3.0-1.18","104","1","2025-04-11 14:49:08","bb671e3ae32f654b8954ea4c4635f915","","Mozilla/5.0 (Windows NT 10.0; Win64; x64) AppleWebKit/537.36 (KHTML, like Gecko) Chrome/131.0.0.0 Safari/537.36","WebKit","Chrome","131.0.0.0","Windows","10.0","https://hz8g1ckzuq.cognition.run/","en-US,en;q=0.9","2n88zn954gutc1y","29","[""White""]","No","Female","1393813.3000000007","24111","","","{""price_1"":""500"",""price_2"":""600"",""price_3"":""900""}","rating","tdc","repulsion_2","1","televisions","null","null","null","null","null","null","2","100","90","100","30","40","20","Screen size","Average lifespan","",""
"","","","","","rating_trial_setup","html-keyboard-response","41","553533","0.0-3.0-0.19","104","1","2025-04-11 14:49:08","bb671e3ae32f654b8954ea4c4635f915","","Mozilla/5.0 (Windows NT 10.0; Win64; x64) AppleWebKit/537.36 (KHTML, like Gecko) Chrome/131.0.0.0 Safari/537.36","WebKit","Chrome","131.0.0.0","Windows","10.0","https://hz8g1ckzuq.cognition.run/","en-US,en;q=0.9","2n88zn954gutc1y","29","[""White""]","No","Female","1393813.3000000007","null","","<p></p>","null","rating","tdc","repulsion_1","2","washing machines","null","null","null","null","null","null","2","","","","","","","","","",""
"","","","","","rating_trial","survey-html-form","42","572918","0.0-3.0-1.19","104","1","2025-04-11 14:49:08","bb671e3ae32f654b8954ea4c4635f915","","Mozilla/5.0 (Windows NT 10.0; Win64; x64) AppleWebKit/537.36 (KHTML, like Gecko) Chrome/131.0.0.0 Safari/537.36","WebKit","Chrome","131.0.0.0","Windows","10.0","https://hz8g1ckzuq.cognition.run/","en-US,en;q=0.9","2n88zn954gutc1y","29","[""White""]","No","Female","1393813.3000000007","19380","","","{""price_1"":""900"",""price_2"":""900"",""price_3"":""900""}","rating","tdc","repulsion_1","2","washing machines","null","null","null","null","null","null","2","30","40","25","100","90","100","Average lifespan","Energy savings","",""
"","","","","","rating_trial_setup","html-keyboard-response","43","573233","0.0-3.0-0.20","104","1","2025-04-11 14:49:08","bb671e3ae32f654b8954ea4c4635f915","","Mozilla/5.0 (Windows NT 10.0; Win64; x64) AppleWebKit/537.36 (KHTML, like Gecko) Chrome/131.0.0.0 Safari/537.36","WebKit","Chrome","131.0.0.0","Windows","10.0","https://hz8g1ckzuq.cognition.run/","en-US,en;q=0.9","2n88zn954gutc1y","29","[""White""]","No","Female","1393813.3000000007","null","","<p></p>","null","rating","bww","catch","null","washing machines","55","85","30","45","10","5","1","","","","","","","","","",""
"","","","","","rating_trial","survey-html-form","44","591359","0.0-3.0-1.20","104","1","2025-04-11 14:49:08","bb671e3ae32f654b8954ea4c4635f915","","Mozilla/5.0 (Windows NT 10.0; Win64; x64) AppleWebKit/537.36 (KHTML, like Gecko) Chrome/131.0.0.0 Safari/537.36","WebKit","Chrome","131.0.0.0","Windows","10.0","https://hz8g1ckzuq.cognition.run/","en-US,en;q=0.9","2n88zn954gutc1y","29","[""White""]","No","Female","1393813.3000000007","18120","","","{""price_1"":""700"",""price_2"":""650"",""price_3"":""200""}","rating","bww","catch","null","washing machines","55","85","30","45","10","5","1","null","null","null","null","null","null","Average lifespan","Energy savings","",""
"","","","","","rating_trial_setup","html-keyboard-response","45","591664","0.0-3.0-0.21","104","1","2025-04-11 14:49:08","bb671e3ae32f654b8954ea4c4635f915","","Mozilla/5.0 (Windows NT 10.0; Win64; x64) AppleWebKit/537.36 (KHTML, like Gecko) Chrome/131.0.0.0 Safari/537.36","WebKit","Chrome","131.0.0.0","Windows","10.0","https://hz8g1ckzuq.cognition.run/","en-US,en;q=0.9","2n88zn954gutc1y","29","[""White""]","No","Female","1393813.3000000007","null","","<p></p>","null","rating","dct","repulsion_2","2","televisions","null","null","null","null","null","null","2","","","","","","","","","",""
"","","","","","rating_trial","survey-html-form","46","620520","0.0-3.0-1.21","104","1","2025-04-11 14:49:08","bb671e3ae32f654b8954ea4c4635f915","","Mozilla/5.0 (Windows NT 10.0; Win64; x64) AppleWebKit/537.36 (KHTML, like Gecko) Chrome/131.0.0.0 Safari/537.36","WebKit","Chrome","131.0.0.0","Windows","10.0","https://hz8g1ckzuq.cognition.run/","en-US,en;q=0.9","2n88zn954gutc1y","29","[""White""]","No","Female","1393813.3000000007","28849","","","{""price_1"":""2000"",""price_2"":""3000"",""price_3"":""1400""}","rating","dct","repulsion_2","2","televisions","null","null","null","null","null","null","2","30","40","20","100","90","100","Screen size","Average lifespan","",""
"","","","","","rating_trial_setup","html-keyboard-response","47","620831","0.0-3.0-0.22","104","1","2025-04-11 14:49:08","bb671e3ae32f654b8954ea4c4635f915","","Mozilla/5.0 (Windows NT 10.0; Win64; x64) AppleWebKit/537.36 (KHTML, like Gecko) Chrome/131.0.0.0 Safari/537.36","WebKit","Chrome","131.0.0.0","Windows","10.0","https://hz8g1ckzuq.cognition.run/","en-US,en;q=0.9","2n88zn954gutc1y","29","[""White""]","No","Female","1393813.3000000007","null","","<p></p>","null","rating","ctd","attraction_2","2","laptops","null","null","null","null","null","null","1","","","","","","","","","",""
"","","","","","rating_trial","survey-html-form","48","640159","0.0-3.0-1.22","104","1","2025-04-11 14:49:08","bb671e3ae32f654b8954ea4c4635f915","","Mozilla/5.0 (Windows NT 10.0; Win64; x64) AppleWebKit/537.36 (KHTML, like Gecko) Chrome/131.0.0.0 Safari/537.36","WebKit","Chrome","131.0.0.0","Windows","10.0","https://hz8g1ckzuq.cognition.run/","en-US,en;q=0.9","2n88zn954gutc1y","29","[""White""]","No","Female","1393813.3000000007","19323","","","{""price_1"":""399"",""price_2"":""800"",""price_3"":""200""}","rating","ctd","attraction_2","2","laptops","null","null","null","null","null","null","1","50","60","40","60","50","60","Processing speed","Memory (RAM)","",""
"","","","","","rating_trial_setup","html-keyboard-response","49","640472","0.0-3.0-0.23","104","1","2025-04-11 14:49:08","bb671e3ae32f654b8954ea4c4635f915","","Mozilla/5.0 (Windows NT 10.0; Win64; x64) AppleWebKit/537.36 (KHTML, like Gecko) Chrome/131.0.0.0 Safari/537.36","WebKit","Chrome","131.0.0.0","Windows","10.0","https://hz8g1ckzuq.cognition.run/","en-US,en;q=0.9","2n88zn954gutc1y","29","[""White""]","No","Female","1393813.3000000007","null","","<p></p>","null","rating","tcd","attraction_2","2","televisions","null","null","null","null","null","null","2","","","","","","","","","",""
"","","","","","rating_trial","survey-html-form","50","682100","0.0-3.0-1.23","104","1","2025-04-11 14:49:08","bb671e3ae32f654b8954ea4c4635f915","","Mozilla/5.0 (Windows NT 10.0; Win64; x64) AppleWebKit/537.36 (KHTML, like Gecko) Chrome/131.0.0.0 Safari/537.36","WebKit","Chrome","131.0.0.0","Windows","10.0","https://hz8g1ckzuq.cognition.run/","en-US,en;q=0.9","2n88zn954gutc1y","29","[""White""]","No","Female","1393813.3000000007","41622","","","{""price_1"":""2000"",""price_2"":""900"",""price_3"":""1220""}","rating","tcd","attraction_2","2","televisions","null","null","null","null","null","null","2","50","60","40","60","50","60","Screen size","Average lifespan","",""
"","","","","","rating_trial_setup","html-keyboard-response","51","682408","0.0-3.0-0.24","104","1","2025-04-11 14:49:08","bb671e3ae32f654b8954ea4c4635f915","","Mozilla/5.0 (Windows NT 10.0; Win64; x64) AppleWebKit/537.36 (KHTML, like Gecko) Chrome/131.0.0.0 Safari/537.36","WebKit","Chrome","131.0.0.0","Windows","10.0","https://hz8g1ckzuq.cognition.run/","en-US,en;q=0.9","2n88zn954gutc1y","29","[""White""]","No","Female","1393813.3000000007","null","","<p></p>","null","rating","wbw","catch","null","televisions","75","85","45","50","15","5","1","","","","","","","","","",""
"","","","","","rating_trial","survey-html-form","52","694305","0.0-3.0-1.24","104","1","2025-04-11 14:49:08","bb671e3ae32f654b8954ea4c4635f915","","Mozilla/5.0 (Windows NT 10.0; Win64; x64) AppleWebKit/537.36 (KHTML, like Gecko) Chrome/131.0.0.0 Safari/537.36","WebKit","Chrome","131.0.0.0","Windows","10.0","https://hz8g1ckzuq.cognition.run/","en-US,en;q=0.9","2n88zn954gutc1y","29","[""White""]","No","Female","1393813.3000000007","11890","","","{""price_1"":""800"",""price_2"":""800"",""price_3"":""800""}","rating","wbw","catch","null","televisions","75","85","45","50","15","5","1","null","null","null","null","null","null","Screen size","Average lifespan","",""
"","","","","","rating_trial_setup","html-keyboard-response","53","694620","0.0-3.0-0.25","104","1","2025-04-11 14:49:08","bb671e3ae32f654b8954ea4c4635f915","","Mozilla/5.0 (Windows NT 10.0; Win64; x64) AppleWebKit/537.36 (KHTML, like Gecko) Chrome/131.0.0.0 Safari/537.36","WebKit","Chrome","131.0.0.0","Windows","10.0","https://hz8g1ckzuq.cognition.run/","en-US,en;q=0.9","2n88zn954gutc1y","29","[""White""]","No","Female","1393813.3000000007","null","","<p></p>","null","rating","dtc","repulsion_1","2","microwave ovens","null","null","null","null","null","null","1","","","","","","","","","",""
"","","","","","rating_trial","survey-html-form","54","709031","0.0-3.0-1.25","104","1","2025-04-11 14:49:08","bb671e3ae32f654b8954ea4c4635f915","","Mozilla/5.0 (Windows NT 10.0; Win64; x64) AppleWebKit/537.36 (KHTML, like Gecko) Chrome/131.0.0.0 Safari/537.36","WebKit","Chrome","131.0.0.0","Windows","10.0","https://hz8g1ckzuq.cognition.run/","en-US,en;q=0.9","2n88zn954gutc1y","29","[""White""]","No","Female","1393813.3000000007","14404","","","{""price_1"":""600"",""price_2"":""400"",""price_3"":""400""}","rating","dtc","repulsion_1","2","microwave ovens","null","null","null","null","null","null","1","30","40","25","100","90","100","Warranty","Cooking power","",""
"","","","","","rating_trial_setup","html-keyboard-response","55","709342","0.0-3.0-0.26","104","1","2025-04-11 14:49:08","bb671e3ae32f654b8954ea4c4635f915","","Mozilla/5.0 (Windows NT 10.0; Win64; x64) AppleWebKit/537.36 (KHTML, like Gecko) Chrome/131.0.0.0 Safari/537.36","WebKit","Chrome","131.0.0.0","Windows","10.0","https://hz8g1ckzuq.cognition.run/","en-US,en;q=0.9","2n88zn954gutc1y","29","[""White""]","No","Female","1393813.3000000007","null","","<p></p>","null","rating","bww","catch","null","microwave ovens","85","95","10","20","45","50","2","","","","","","","","","",""
"","","","","","rating_trial","survey-html-form","56","726674","0.0-3.0-1.26","104","1","2025-04-11 14:49:08","bb671e3ae32f654b8954ea4c4635f915","","Mozilla/5.0 (Windows NT 10.0; Win64; x64) AppleWebKit/537.36 (KHTML, like Gecko) Chrome/131.0.0.0 Safari/537.36","WebKit","Chrome","131.0.0.0","Windows","10.0","https://hz8g1ckzuq.cognition.run/","en-US,en;q=0.9","2n88zn954gutc1y","29","[""White""]","No","Female","1393813.3000000007","17322","","","{""price_1"":""3000"",""price_2"":""600"",""price_3"":""700""}","rating","bww","catch","null","microwave ovens","85","95","10","20","45","50","2","null","null","null","null","null","null","Warranty","Cooking power","",""
"","","","","","rating_trial_setup","html-keyboard-response","57","726990","0.0-3.0-0.27","104","1","2025-04-11 14:49:08","bb671e3ae32f654b8954ea4c4635f915","","Mozilla/5.0 (Windows NT 10.0; Win64; x64) AppleWebKit/537.36 (KHTML, like Gecko) Chrome/131.0.0.0 Safari/537.36","WebKit","Chrome","131.0.0.0","Windows","10.0","https://hz8g1ckzuq.cognition.run/","en-US,en;q=0.9","2n88zn954gutc1y","29","[""White""]","No","Female","1393813.3000000007","null","","<p></p>","null","rating","dct","attraction_1","2","televisions","null","null","null","null","null","null","1","","","","","","","","","",""
"","","","","","rating_trial","survey-html-form","58","739275","0.0-3.0-1.27","104","1","2025-04-11 14:49:08","bb671e3ae32f654b8954ea4c4635f915","","Mozilla/5.0 (Windows NT 10.0; Win64; x64) AppleWebKit/537.36 (KHTML, like Gecko) Chrome/131.0.0.0 Safari/537.36","WebKit","Chrome","131.0.0.0","Windows","10.0","https://hz8g1ckzuq.cognition.run/","en-US,en;q=0.9","2n88zn954gutc1y","29","[""White""]","No","Female","1393813.3000000007","12278","","","{""price_1"":""600"",""price_2"":""800"",""price_3"":""700""}","rating","dct","attraction_1","2","televisions","null","null","null","null","null","null","1","50","60","45","60","50","60","Screen size","Average lifespan","",""
"","","","","","rating_trial_setup","html-keyboard-response","59","739594","0.0-3.0-0.28","104","1","2025-04-11 14:49:08","bb671e3ae32f654b8954ea4c4635f915","","Mozilla/5.0 (Windows NT 10.0; Win64; x64) AppleWebKit/537.36 (KHTML, like Gecko) Chrome/131.0.0.0 Safari/537.36","WebKit","Chrome","131.0.0.0","Windows","10.0","https://hz8g1ckzuq.cognition.run/","en-US,en;q=0.9","2n88zn954gutc1y","29","[""White""]","No","Female","1393813.3000000007","null","","<p></p>","null","rating","tcd","attraction_1","1","washing machines","null","null","null","null","null","null","2","","","","","","","","","",""
"","","","","","rating_trial","survey-html-form","60","753701","0.0-3.0-1.28","104","1","2025-04-11 14:49:08","bb671e3ae32f654b8954ea4c4635f915","","Mozilla/5.0 (Windows NT 10.0; Win64; x64) AppleWebKit/537.36 (KHTML, like Gecko) Chrome/131.0.0.0 Safari/537.36","WebKit","Chrome","131.0.0.0","Windows","10.0","https://hz8g1ckzuq.cognition.run/","en-US,en;q=0.9","2n88zn954gutc1y","29","[""White""]","No","Female","1393813.3000000007","14101","","","{""price_1"":""300"",""price_2"":""700"",""price_3"":""400""}","rating","tcd","attraction_1","1","washing machines","null","null","null","null","null","null","2","60","50","60","50","60","45","Average lifespan","Energy savings","",""
"","","","","","rating_trial_setup","html-keyboard-response","61","754009","0.0-3.0-0.29","104","1","2025-04-11 14:49:08","bb671e3ae32f654b8954ea4c4635f915","","Mozilla/5.0 (Windows NT 10.0; Win64; x64) AppleWebKit/537.36 (KHTML, like Gecko) Chrome/131.0.0.0 Safari/537.36","WebKit","Chrome","131.0.0.0","Windows","10.0","https://hz8g1ckzuq.cognition.run/","en-US,en;q=0.9","2n88zn954gutc1y","29","[""White""]","No","Female","1393813.3000000007","null","","<p></p>","null","rating","tdc","repulsion_2","1","washing machines","null","null","null","null","null","null","1","","","","","","","","","",""
"","","","","","rating_trial","survey-html-form","62","770788","0.0-3.0-1.29","104","1","2025-04-11 14:49:08","bb671e3ae32f654b8954ea4c4635f915","","Mozilla/5.0 (Windows NT 10.0; Win64; x64) AppleWebKit/537.36 (KHTML, like Gecko) Chrome/131.0.0.0 Safari/537.36","WebKit","Chrome","131.0.0.0","Windows","10.0","https://hz8g1ckzuq.cognition.run/","en-US,en;q=0.9","2n88zn954gutc1y","29","[""White""]","No","Female","1393813.3000000007","16772","","","{""price_1"":""1000"",""price_2"":""1000"",""price_3"":""1000""}","rating","tdc","repulsion_2","1","washing machines","null","null","null","null","null","null","1","100","90","100","30","40","20","Average lifespan","Energy savings","",""
"","","","","","rating_trial_setup","html-keyboard-response","63","771104","0.0-3.0-0.30","104","1","2025-04-11 14:49:08","bb671e3ae32f654b8954ea4c4635f915","","Mozilla/5.0 (Windows NT 10.0; Win64; x64) AppleWebKit/537.36 (KHTML, like Gecko) Chrome/131.0.0.0 Safari/537.36","WebKit","Chrome","131.0.0.0","Windows","10.0","https://hz8g1ckzuq.cognition.run/","en-US,en;q=0.9","2n88zn954gutc1y","29","[""White""]","No","Female","1393813.3000000007","null","","<p></p>","null","rating","cdt","repulsion_1","1","laptops","null","null","null","null","null","null","1","","","","","","","","","",""
"","","","","","rating_trial","survey-html-form","64","784849","0.0-3.0-1.30","104","1","2025-04-11 14:49:08","bb671e3ae32f654b8954ea4c4635f915","","Mozilla/5.0 (Windows NT 10.0; Win64; x64) AppleWebKit/537.36 (KHTML, like Gecko) Chrome/131.0.0.0 Safari/537.36","WebKit","Chrome","131.0.0.0","Windows","10.0","https://hz8g1ckzuq.cognition.run/","en-US,en;q=0.9","2n88zn954gutc1y","29","[""White""]","No","Female","1393813.3000000007","13736","","","{""price_1"":""700"",""price_2"":""666"",""price_3"":""999""}","rating","cdt","repulsion_1","1","laptops","null","null","null","null","null","null","1","100","90","100","30","40","25","Processing speed","Memory (RAM)","",""
"","","","","","rating_trial_setup","html-keyboard-response","65","785163","0.0-3.0-0.31","104","1","2025-04-11 14:49:08","bb671e3ae32f654b8954ea4c4635f915","","Mozilla/5.0 (Windows NT 10.0; Win64; x64) AppleWebKit/537.36 (KHTML, like Gecko) Chrome/131.0.0.0 Safari/537.36","WebKit","Chrome","131.0.0.0","Windows","10.0","https://hz8g1ckzuq.cognition.run/","en-US,en;q=0.9","2n88zn954gutc1y","29","[""White""]","No","Female","1393813.3000000007","null","","<p></p>","null","rating","bww","catch","null","televisions","75","75","20","25","20","5","2","","","","","","","","","",""
"","","","","","rating_trial","survey-html-form","66","818245","0.0-3.0-1.31","104","1","2025-04-11 14:49:08","bb671e3ae32f654b8954ea4c4635f915","","Mozilla/5.0 (Windows NT 10.0; Win64; x64) AppleWebKit/537.36 (KHTML, like Gecko) Chrome/131.0.0.0 Safari/537.36","WebKit","Chrome","131.0.0.0","Windows","10.0","https://hz8g1ckzuq.cognition.run/","en-US,en;q=0.9","2n88zn954gutc1y","29","[""White""]","No","Female","1393813.3000000007","33075","","","{""price_1"":""6500"",""price_2"":""300"",""price_3"":""100""}","rating","bww","catch","null","televisions","75","75","20","25","20","5","2","null","null","null","null","null","null","Screen size","Average lifespan","",""
"","","","","","rating_trial_setup","html-keyboard-response","67","818553","0.0-3.0-0.32","104","1","2025-04-11 14:49:08","bb671e3ae32f654b8954ea4c4635f915","","Mozilla/5.0 (Windows NT 10.0; Win64; x64) AppleWebKit/537.36 (KHTML, like Gecko) Chrome/131.0.0.0 Safari/537.36","WebKit","Chrome","131.0.0.0","Windows","10.0","https://hz8g1ckzuq.cognition.run/","en-US,en;q=0.9","2n88zn954gutc1y","29","[""White""]","No","Female","1393813.3000000007","null","","<p></p>","null","rating","tdc","repulsion_2","2","laptops","null","null","null","null","null","null","2","","","","","","","","","",""
"","","","","","rating_trial","survey-html-form","68","831723","0.0-3.0-1.32","104","1","2025-04-11 14:49:08","bb671e3ae32f654b8954ea4c4635f915","","Mozilla/5.0 (Windows NT 10.0; Win64; x64) AppleWebKit/537.36 (KHTML, like Gecko) Chrome/131.0.0.0 Safari/537.36","WebKit","Chrome","131.0.0.0","Windows","10.0","https://hz8g1ckzuq.cognition.run/","en-US,en;q=0.9","2n88zn954gutc1y","29","[""White""]","No","Female","1393813.3000000007","13164","","","{""price_1"":""2000"",""price_2"":""2000"",""price_3"":""2000""}","rating","tdc","repulsion_2","2","laptops","null","null","null","null","null","null","2","30","40","20","100","90","100","Processing speed","Memory (RAM)","",""
"","","","","","rating_trial_setup","html-keyboard-response","69","832039","0.0-3.0-0.33","104","1","2025-04-11 14:49:08","bb671e3ae32f654b8954ea4c4635f915","","Mozilla/5.0 (Windows NT 10.0; Win64; x64) AppleWebKit/537.36 (KHTML, like Gecko) Chrome/131.0.0.0 Safari/537.36","WebKit","Chrome","131.0.0.0","Windows","10.0","https://hz8g1ckzuq.cognition.run/","en-US,en;q=0.9","2n88zn954gutc1y","29","[""White""]","No","Female","1393813.3000000007","null","","<p></p>","null","rating","tcd","repulsion_2","2","washing machines","null","null","null","null","null","null","2","","","","","","","","","",""
"","","","","","rating_trial","survey-html-form","70","855283","0.0-3.0-1.33","104","1","2025-04-11 14:49:08","bb671e3ae32f654b8954ea4c4635f915","","Mozilla/5.0 (Windows NT 10.0; Win64; x64) AppleWebKit/537.36 (KHTML, like Gecko) Chrome/131.0.0.0 Safari/537.36","WebKit","Chrome","131.0.0.0","Windows","10.0","https://hz8g1ckzuq.cognition.run/","en-US,en;q=0.9","2n88zn954gutc1y","29","[""White""]","No","Female","1393813.3000000007","23236","","","{""price_1"":""1500"",""price_2"":""1500"",""price_3"":""1500""}","rating","tcd","repulsion_2","2","washing machines","null","null","null","null","null","null","2","30","40","20","100","90","100","Average lifespan","Energy savings","",""
"","","","","","rating_trial_setup","html-keyboard-response","71","855593","0.0-3.0-0.34","104","1","2025-04-11 14:49:08","bb671e3ae32f654b8954ea4c4635f915","","Mozilla/5.0 (Windows NT 10.0; Win64; x64) AppleWebKit/537.36 (KHTML, like Gecko) Chrome/131.0.0.0 Safari/537.36","WebKit","Chrome","131.0.0.0","Windows","10.0","https://hz8g1ckzuq.cognition.run/","en-US,en;q=0.9","2n88zn954gutc1y","29","[""White""]","No","Female","1393813.3000000007","null","","<p></p>","null","rating","tcd","attraction_2","2","washing machines","null","null","null","null","null","null","1","","","","","","","","","",""
"","","","","","rating_trial","survey-html-form","72","869870","0.0-3.0-1.34","104","1","2025-04-11 14:49:08","bb671e3ae32f654b8954ea4c4635f915","","Mozilla/5.0 (Windows NT 10.0; Win64; x64) AppleWebKit/537.36 (KHTML, like Gecko) Chrome/131.0.0.0 Safari/537.36","WebKit","Chrome","131.0.0.0","Windows","10.0","https://hz8g1ckzuq.cognition.run/","en-US,en;q=0.9","2n88zn954gutc1y","29","[""White""]","No","Female","1393813.3000000007","14267","","","{""price_1"":""700"",""price_2"":""600"",""price_3"":""600""}","rating","tcd","attraction_2","2","washing machines","null","null","null","null","null","null","1","50","60","40","60","50","60","Average lifespan","Energy savings","",""
"","","","","","rating_trial_setup","html-keyboard-response","73","870190","0.0-3.0-0.35","104","1","2025-04-11 14:49:08","bb671e3ae32f654b8954ea4c4635f915","","Mozilla/5.0 (Windows NT 10.0; Win64; x64) AppleWebKit/537.36 (KHTML, like Gecko) Chrome/131.0.0.0 Safari/537.36","WebKit","Chrome","131.0.0.0","Windows","10.0","https://hz8g1ckzuq.cognition.run/","en-US,en;q=0.9","2n88zn954gutc1y","29","[""White""]","No","Female","1393813.3000000007","null","","<p></p>","null","rating","cdt","attraction_1","2","washing machines","null","null","null","null","null","null","2","","","","","","","","","",""
"","","","","","rating_trial","survey-html-form","74","956416","0.0-3.0-1.35","104","1","2025-04-11 14:49:08","bb671e3ae32f654b8954ea4c4635f915","","Mozilla/5.0 (Windows NT 10.0; Win64; x64) AppleWebKit/537.36 (KHTML, like Gecko) Chrome/131.0.0.0 Safari/537.36","WebKit","Chrome","131.0.0.0","Windows","10.0","https://hz8g1ckzuq.cognition.run/","en-US,en;q=0.9","2n88zn954gutc1y","29","[""White""]","No","Female","1393813.3000000007","86215","","","{""price_1"":""880"",""price_2"":""500"",""price_3"":""400""}","rating","cdt","attraction_1","2","washing machines","null","null","null","null","null","null","2","50","60","45","60","50","60","Average lifespan","Energy savings","",""
"","","","","","rating_trial_setup","html-keyboard-response","75","956724","0.0-3.0-0.36","104","1","2025-04-11 14:49:08","bb671e3ae32f654b8954ea4c4635f915","","Mozilla/5.0 (Windows NT 10.0; Win64; x64) AppleWebKit/537.36 (KHTML, like Gecko) Chrome/131.0.0.0 Safari/537.36","WebKit","Chrome","131.0.0.0","Windows","10.0","https://hz8g1ckzuq.cognition.run/","en-US,en;q=0.9","2n88zn954gutc1y","29","[""White""]","No","Female","1393813.3000000007","null","","<p></p>","null","rating","dct","attraction_2","1","washing machines","null","null","null","null","null","null","1","","","","","","","","","",""
"","","","","","rating_trial","survey-html-form","76","967822","0.0-3.0-1.36","104","1","2025-04-11 14:49:08","bb671e3ae32f654b8954ea4c4635f915","","Mozilla/5.0 (Windows NT 10.0; Win64; x64) AppleWebKit/537.36 (KHTML, like Gecko) Chrome/131.0.0.0 Safari/537.36","WebKit","Chrome","131.0.0.0","Windows","10.0","https://hz8g1ckzuq.cognition.run/","en-US,en;q=0.9","2n88zn954gutc1y","29","[""White""]","No","Female","1393813.3000000007","11091","","","{""price_1"":""700"",""price_2"":""700"",""price_3"":""700""}","rating","dct","attraction_2","1","washing machines","null","null","null","null","null","null","1","60","50","60","50","60","40","Average lifespan","Energy savings","",""
"","","","","","rating_trial_setup","html-keyboard-response","77","968136","0.0-3.0-0.37","104","1","2025-04-11 14:49:08","bb671e3ae32f654b8954ea4c4635f915","","Mozilla/5.0 (Windows NT 10.0; Win64; x64) AppleWebKit/537.36 (KHTML, like Gecko) Chrome/131.0.0.0 Safari/537.36","WebKit","Chrome","131.0.0.0","Windows","10.0","https://hz8g1ckzuq.cognition.run/","en-US,en;q=0.9","2n88zn954gutc1y","29","[""White""]","No","Female","1393813.3000000007","null","","<p></p>","null","rating","bww","catch","null","microwave ovens","65","85","45","15","40","50","1","","","","","","","","","",""
"","","","","","rating_trial","survey-html-form","78","986772","0.0-3.0-1.37","104","1","2025-04-11 14:49:08","bb671e3ae32f654b8954ea4c4635f915","","Mozilla/5.0 (Windows NT 10.0; Win64; x64) AppleWebKit/537.36 (KHTML, like Gecko) Chrome/131.0.0.0 Safari/537.36","WebKit","Chrome","131.0.0.0","Windows","10.0","https://hz8g1ckzuq.cognition.run/","en-US,en;q=0.9","2n88zn954gutc1y","29","[""White""]","No","Female","1393813.3000000007","18627","","","{""price_1"":""300"",""price_2"":""250"",""price_3"":""560""}","rating","bww","catch","null","microwave ovens","65","85","45","15","40","50","1","null","null","null","null","null","null","Warranty","Cooking power","",""
"","","","","","rating_trial_setup","html-keyboard-response","79","987087","0.0-3.0-0.38","104","1","2025-04-11 14:49:08","bb671e3ae32f654b8954ea4c4635f915","","Mozilla/5.0 (Windows NT 10.0; Win64; x64) AppleWebKit/537.36 (KHTML, like Gecko) Chrome/131.0.0.0 Safari/537.36","WebKit","Chrome","131.0.0.0","Windows","10.0","https://hz8g1ckzuq.cognition.run/","en-US,en;q=0.9","2n88zn954gutc1y","29","[""White""]","No","Female","1393813.3000000007","null","","<p></p>","null","rating","tcd","repulsion_1","2","laptops","null","null","null","null","null","null","1","","","","","","","","","",""
"","","","","","rating_trial","survey-html-form","80","1012328","0.0-3.0-1.38","104","1","2025-04-11 14:49:08","bb671e3ae32f654b8954ea4c4635f915","","Mozilla/5.0 (Windows NT 10.0; Win64; x64) AppleWebKit/537.36 (KHTML, like Gecko) Chrome/131.0.0.0 Safari/537.36","WebKit","Chrome","131.0.0.0","Windows","10.0","https://hz8g1ckzuq.cognition.run/","en-US,en;q=0.9","2n88zn954gutc1y","29","[""White""]","No","Female","1393813.3000000007","25232","","","{""price_1"":""800"",""price_2"":""600"",""price_3"":""400""}","rating","tcd","repulsion_1","2","laptops","null","null","null","null","null","null","1","30","40","25","100","90","100","Processing speed","Memory (RAM)","",""
"","","","","","rating_trial_setup","html-keyboard-response","81","1012635","0.0-3.0-0.39","104","1","2025-04-11 14:49:08","bb671e3ae32f654b8954ea4c4635f915","","Mozilla/5.0 (Windows NT 10.0; Win64; x64) AppleWebKit/537.36 (KHTML, like Gecko) Chrome/131.0.0.0 Safari/537.36","WebKit","Chrome","131.0.0.0","Windows","10.0","https://hz8g1ckzuq.cognition.run/","en-US,en;q=0.9","2n88zn954gutc1y","29","[""White""]","No","Female","1393813.3000000007","null","","<p></p>","null","rating","bww","catch","null","laptops","90","65","10","10","5","5","2","","","","","","","","","",""
"","","","","","rating_trial","survey-html-form","82","1037165","0.0-3.0-1.39","104","1","2025-04-11 14:49:08","bb671e3ae32f654b8954ea4c4635f915","","Mozilla/5.0 (Windows NT 10.0; Win64; x64) AppleWebKit/537.36 (KHTML, like Gecko) Chrome/131.0.0.0 Safari/537.36","WebKit","Chrome","131.0.0.0","Windows","10.0","https://hz8g1ckzuq.cognition.run/","en-US,en;q=0.9","2n88zn954gutc1y","29","[""White""]","No","Female","1393813.3000000007","24522","","","{""price_1"":""700"",""price_2"":""400"",""price_3"":""100""}","rating","bww","catch","null","laptops","90","65","10","10","5","5","2","null","null","null","null","null","null","Processing speed","Memory (RAM)","",""
"","","","","","","instructions","83","1088069","0.0-4.0","104","1","2025-04-11 14:49:08","bb671e3ae32f654b8954ea4c4635f915","","Mozilla/5.0 (Windows NT 10.0; Win64; x64) AppleWebKit/537.36 (KHTML, like Gecko) Chrome/131.0.0.0 Safari/537.36","WebKit","Chrome","131.0.0.0","Windows","10.0","https://hz8g1ckzuq.cognition.run/","en-US,en;q=0.9","2n88zn954gutc1y","29","[""White""]","No","Female","1393813.3000000007","50894","[{""page_index"":0,""viewing_time"":3021},{""page_index"":1,""viewing_time"":2886},{""page_index"":2,""viewing_time"":4448},{""page_index"":3,""viewing_time"":5594},{""page_index"":4,""viewing_time"":8827},{""page_index"":5,""viewing_time"":3084},{""page_index"":6,""viewing_time"":17433},{""page_index"":7,""viewing_time"":5600}]","","","","","","","","","","","","","","","","","","","","","","","",""
"","","","","","choice_trial_setup","html-keyboard-response","84","1088378","0.0-5.0-0.0","104","1","2025-04-11 14:49:08","bb671e3ae32f654b8954ea4c4635f915","","Mozilla/5.0 (Windows NT 10.0; Win64; x64) AppleWebKit/537.36 (KHTML, like Gecko) Chrome/131.0.0.0 Safari/537.36","WebKit","Chrome","131.0.0.0","Windows","10.0","https://hz8g1ckzuq.cognition.run/","en-US,en;q=0.9","2n88zn954gutc1y","29","[""White""]","No","Female","1393813.3000000007","null","","<p></p>","null","choice","dtc","repulsion_1","2","washing machines","null","null","null","null","null","null","1","","","","","","","","","",""
"","","","","","choice_trial","survey-html-form","85","1123464","0.0-5.0-1.0","104","1","2025-04-11 14:49:08","bb671e3ae32f654b8954ea4c4635f915","","Mozilla/5.0 (Windows NT 10.0; Win64; x64) AppleWebKit/537.36 (KHTML, like Gecko) Chrome/131.0.0.0 Safari/537.36","WebKit","Chrome","131.0.0.0","Windows","10.0","https://hz8g1ckzuq.cognition.run/","en-US,en;q=0.9","2n88zn954gutc1y","29","[""White""]","No","Female","1393813.3000000007","35078","","","{""product_choice"":""C""}","choice","dtc","repulsion_1","2","washing machines","null","null","null","null","null","null","1","30","40","25","100","90","100","Average lifespan","Energy savings","",""
"","","","","","choice_trial_setup","html-keyboard-response","86","1123779","0.0-5.0-0.1","104","1","2025-04-11 14:49:08","bb671e3ae32f654b8954ea4c4635f915","","Mozilla/5.0 (Windows NT 10.0; Win64; x64) AppleWebKit/537.36 (KHTML, like Gecko) Chrome/131.0.0.0 Safari/537.36","WebKit","Chrome","131.0.0.0","Windows","10.0","https://hz8g1ckzuq.cognition.run/","en-US,en;q=0.9","2n88zn954gutc1y","29","[""White""]","No","Female","1393813.3000000007","null","","<p></p>","null","choice","ctd","attraction_1","1","laptops","null","null","null","null","null","null","2","","","","","","","","","",""
"","","","","","choice_trial","survey-html-form","87","1126960","0.0-5.0-1.1","104","1","2025-04-11 14:49:08","bb671e3ae32f654b8954ea4c4635f915","","Mozilla/5.0 (Windows NT 10.0; Win64; x64) AppleWebKit/537.36 (KHTML, like Gecko) Chrome/131.0.0.0 Safari/537.36","WebKit","Chrome","131.0.0.0","Windows","10.0","https://hz8g1ckzuq.cognition.run/","en-US,en;q=0.9","2n88zn954gutc1y","29","[""White""]","No","Female","1393813.3000000007","3172","","","{""product_choice"":""A""}","choice","ctd","attraction_1","1","laptops","null","null","null","null","null","null","2","60","50","60","50","60","45","Processing speed","Memory (RAM)","",""
"","","","","","choice_trial_setup","html-keyboard-response","88","1127276","0.0-5.0-0.2","104","1","2025-04-11 14:49:08","bb671e3ae32f654b8954ea4c4635f915","","Mozilla/5.0 (Windows NT 10.0; Win64; x64) AppleWebKit/537.36 (KHTML, like Gecko) Chrome/131.0.0.0 Safari/537.36","WebKit","Chrome","131.0.0.0","Windows","10.0","https://hz8g1ckzuq.cognition.run/","en-US,en;q=0.9","2n88zn954gutc1y","29","[""White""]","No","Female","1393813.3000000007","null","","<p></p>","null","choice","dct","repulsion_1","2","microwave ovens","null","null","null","null","null","null","2","","","","","","","","","",""
"","","","","","choice_trial","survey-html-form","89","1132546","0.0-5.0-1.2","104","1","2025-04-11 14:49:08","bb671e3ae32f654b8954ea4c4635f915","","Mozilla/5.0 (Windows NT 10.0; Win64; x64) AppleWebKit/537.36 (KHTML, like Gecko) Chrome/131.0.0.0 Safari/537.36","WebKit","Chrome","131.0.0.0","Windows","10.0","https://hz8g1ckzuq.cognition.run/","en-US,en;q=0.9","2n88zn954gutc1y","29","[""White""]","No","Female","1393813.3000000007","5263","","","{""product_choice"":""B""}","choice","dct","repulsion_1","2","microwave ovens","null","null","null","null","null","null","2","30","40","25","100","90","100","Warranty","Cooking power","",""
"","","","","","choice_trial_setup","html-keyboard-response","90","1132857","0.0-5.0-0.3","104","1","2025-04-11 14:49:08","bb671e3ae32f654b8954ea4c4635f915","","Mozilla/5.0 (Windows NT 10.0; Win64; x64) AppleWebKit/537.36 (KHTML, like Gecko) Chrome/131.0.0.0 Safari/537.36","WebKit","Chrome","131.0.0.0","Windows","10.0","https://hz8g1ckzuq.cognition.run/","en-US,en;q=0.9","2n88zn954gutc1y","29","[""White""]","No","Female","1393813.3000000007","null","","<p></p>","null","choice","dtc","repulsion_1","2","televisions","null","null","null","null","null","null","2","","","","","","","","","",""
"","","","","","choice_trial","survey-html-form","91","1136675","0.0-5.0-1.3","104","1","2025-04-11 14:49:08","bb671e3ae32f654b8954ea4c4635f915","","Mozilla/5.0 (Windows NT 10.0; Win64; x64) AppleWebKit/537.36 (KHTML, like Gecko) Chrome/131.0.0.0 Safari/537.36","WebKit","Chrome","131.0.0.0","Windows","10.0","https://hz8g1ckzuq.cognition.run/","en-US,en;q=0.9","2n88zn954gutc1y","29","[""White""]","No","Female","1393813.3000000007","3808","","","{""product_choice"":""B""}","choice","dtc","repulsion_1","2","televisions","null","null","null","null","null","null","2","30","40","25","100","90","100","Screen size","Average lifespan","",""
"","","","","","choice_trial_setup","html-keyboard-response","92","1136984","0.0-5.0-0.4","104","1","2025-04-11 14:49:08","bb671e3ae32f654b8954ea4c4635f915","","Mozilla/5.0 (Windows NT 10.0; Win64; x64) AppleWebKit/537.36 (KHTML, like Gecko) Chrome/131.0.0.0 Safari/537.36","WebKit","Chrome","131.0.0.0","Windows","10.0","https://hz8g1ckzuq.cognition.run/","en-US,en;q=0.9","2n88zn954gutc1y","29","[""White""]","No","Female","1393813.3000000007","null","","<p></p>","null","choice","wbw","catch","null","microwave ovens","75","80","15","25","40","40","2","","","","","","","","","",""
"","","","","","choice_trial","survey-html-form","93","1140621","0.0-5.0-1.4","104","1","2025-04-11 14:49:08","bb671e3ae32f654b8954ea4c4635f915","","Mozilla/5.0 (Windows NT 10.0; Win64; x64) AppleWebKit/537.36 (KHTML, like Gecko) Chrome/131.0.0.0 Safari/537.36","WebKit","Chrome","131.0.0.0","Windows","10.0","https://hz8g1ckzuq.cognition.run/","en-US,en;q=0.9","2n88zn954gutc1y","29","[""White""]","No","Female","1393813.3000000007","3626","","","{""product_choice"":""B""}","choice","wbw","catch","null","microwave ovens","75","80","15","25","40","40","2","null","null","null","null","null","null","Warranty","Cooking power","",""
"","","","","","choice_trial_setup","html-keyboard-response","94","1140930","0.0-5.0-0.5","104","1","2025-04-11 14:49:08","bb671e3ae32f654b8954ea4c4635f915","","Mozilla/5.0 (Windows NT 10.0; Win64; x64) AppleWebKit/537.36 (KHTML, like Gecko) Chrome/131.0.0.0 Safari/537.36","WebKit","Chrome","131.0.0.0","Windows","10.0","https://hz8g1ckzuq.cognition.run/","en-US,en;q=0.9","2n88zn954gutc1y","29","[""White""]","No","Female","1393813.3000000007","null","","<p></p>","null","choice","dct","attraction_1","2","microwave ovens","null","null","null","null","null","null","1","","","","","","","","","",""
"","","","","","choice_trial","survey-html-form","95","1146295","0.0-5.0-1.5","104","1","2025-04-11 14:49:08","bb671e3ae32f654b8954ea4c4635f915","","Mozilla/5.0 (Windows NT 10.0; Win64; x64) AppleWebKit/537.36 (KHTML, like Gecko) Chrome/131.0.0.0 Safari/537.36","WebKit","Chrome","131.0.0.0","Windows","10.0","https://hz8g1ckzuq.cognition.run/","en-US,en;q=0.9","2n88zn954gutc1y","29","[""White""]","No","Female","1393813.3000000007","5356","","","{""product_choice"":""B""}","choice","dct","attraction_1","2","microwave ovens","null","null","null","null","null","null","1","50","60","45","60","50","60","Warranty","Cooking power","",""
"","","","","","choice_trial_setup","html-keyboard-response","96","1146603","0.0-5.0-0.6","104","1","2025-04-11 14:49:08","bb671e3ae32f654b8954ea4c4635f915","","Mozilla/5.0 (Windows NT 10.0; Win64; x64) AppleWebKit/537.36 (KHTML, like Gecko) Chrome/131.0.0.0 Safari/537.36","WebKit","Chrome","131.0.0.0","Windows","10.0","https://hz8g1ckzuq.cognition.run/","en-US,en;q=0.9","2n88zn954gutc1y","29","[""White""]","No","Female","1393813.3000000007","null","","<p></p>","null","choice","tdc","repulsion_1","2","laptops","null","null","null","null","null","null","2","","","","","","","","","",""
"","","","","","choice_trial","survey-html-form","97","1151784","0.0-5.0-1.6","104","1","2025-04-11 14:49:08","bb671e3ae32f654b8954ea4c4635f915","","Mozilla/5.0 (Windows NT 10.0; Win64; x64) AppleWebKit/537.36 (KHTML, like Gecko) Chrome/131.0.0.0 Safari/537.36","WebKit","Chrome","131.0.0.0","Windows","10.0","https://hz8g1ckzuq.cognition.run/","en-US,en;q=0.9","2n88zn954gutc1y","29","[""White""]","No","Female","1393813.3000000007","5172","","","{""product_choice"":""C""}","choice","tdc","repulsion_1","2","laptops","null","null","null","null","null","null","2","30","40","25","100","90","100","Processing speed","Memory (RAM)","",""
"","","","","","choice_trial_setup","html-keyboard-response","98","1152099","0.0-5.0-0.7","104","1","2025-04-11 14:49:08","bb671e3ae32f654b8954ea4c4635f915","","Mozilla/5.0 (Windows NT 10.0; Win64; x64) AppleWebKit/537.36 (KHTML, like Gecko) Chrome/131.0.0.0 Safari/537.36","WebKit","Chrome","131.0.0.0","Windows","10.0","https://hz8g1ckzuq.cognition.run/","en-US,en;q=0.9","2n88zn954gutc1y","29","[""White""]","No","Female","1393813.3000000007","null","","<p></p>","null","choice","bww","catch","null","laptops","85","55","15","35","30","30","1","","","","","","","","","",""
"","","","","","choice_trial","survey-html-form","99","1156589","0.0-5.0-1.7","104","1","2025-04-11 14:49:08","bb671e3ae32f654b8954ea4c4635f915","","Mozilla/5.0 (Windows NT 10.0; Win64; x64) AppleWebKit/537.36 (KHTML, like Gecko) Chrome/131.0.0.0 Safari/537.36","WebKit","Chrome","131.0.0.0","Windows","10.0","https://hz8g1ckzuq.cognition.run/","en-US,en;q=0.9","2n88zn954gutc1y","29","[""White""]","No","Female","1393813.3000000007","4481","","","{""product_choice"":""A""}","choice","bww","catch","null","laptops","85","55","15","35","30","30","1","null","null","null","null","null","null","Processing speed","Memory (RAM)","",""
"","","","","","choice_trial_setup","html-keyboard-response","100","1156909","0.0-5.0-0.8","104","1","2025-04-11 14:49:08","bb671e3ae32f654b8954ea4c4635f915","","Mozilla/5.0 (Windows NT 10.0; Win64; x64) AppleWebKit/537.36 (KHTML, like Gecko) Chrome/131.0.0.0 Safari/537.36","WebKit","Chrome","131.0.0.0","Windows","10.0","https://hz8g1ckzuq.cognition.run/","en-US,en;q=0.9","2n88zn954gutc1y","29","[""White""]","No","Female","1393813.3000000007","null","","<p></p>","null","choice","dct","repulsion_2","1","microwave ovens","null","null","null","null","null","null","2","","","","","","","","","",""
"","","","","","choice_trial","survey-html-form","101","1159960","0.0-5.0-1.8","104","1","2025-04-11 14:49:08","bb671e3ae32f654b8954ea4c4635f915","","Mozilla/5.0 (Windows NT 10.0; Win64; x64) AppleWebKit/537.36 (KHTML, like Gecko) Chrome/131.0.0.0 Safari/537.36","WebKit","Chrome","131.0.0.0","Windows","10.0","https://hz8g1ckzuq.cognition.run/","en-US,en;q=0.9","2n88zn954gutc1y","29","[""White""]","No","Female","1393813.3000000007","3042","","","{""product_choice"":""C""}","choice","dct","repulsion_2","1","microwave ovens","null","null","null","null","null","null","2","100","90","100","30","40","20","Warranty","Cooking power","",""
"","","","","","choice_trial_setup","html-keyboard-response","102","1160271","0.0-5.0-0.9","104","1","2025-04-11 14:49:08","bb671e3ae32f654b8954ea4c4635f915","","Mozilla/5.0 (Windows NT 10.0; Win64; x64) AppleWebKit/537.36 (KHTML, like Gecko) Chrome/131.0.0.0 Safari/537.36","WebKit","Chrome","131.0.0.0","Windows","10.0","https://hz8g1ckzuq.cognition.run/","en-US,en;q=0.9","2n88zn954gutc1y","29","[""White""]","No","Female","1393813.3000000007","null","","<p></p>","null","choice","cdt","repulsion_2","2","washing machines","null","null","null","null","null","null","1","","","","","","","","","",""
"","","","","","choice_trial","survey-html-form","103","1163688","0.0-5.0-1.9","104","1","2025-04-11 14:49:08","bb671e3ae32f654b8954ea4c4635f915","","Mozilla/5.0 (Windows NT 10.0; Win64; x64) AppleWebKit/537.36 (KHTML, like Gecko) Chrome/131.0.0.0 Safari/537.36","WebKit","Chrome","131.0.0.0","Windows","10.0","https://hz8g1ckzuq.cognition.run/","en-US,en;q=0.9","2n88zn954gutc1y","29","[""White""]","No","Female","1393813.3000000007","3406","","","{""product_choice"":""B""}","choice","cdt","repulsion_2","2","washing machines","null","null","null","null","null","null","1","30","40","20","100","90","100","Average lifespan","Energy savings","",""
"","","","","","choice_trial_setup","html-keyboard-response","104","1164004","0.0-5.0-0.10","104","1","2025-04-11 14:49:08","bb671e3ae32f654b8954ea4c4635f915","","Mozilla/5.0 (Windows NT 10.0; Win64; x64) AppleWebKit/537.36 (KHTML, like Gecko) Chrome/131.0.0.0 Safari/537.36","WebKit","Chrome","131.0.0.0","Windows","10.0","https://hz8g1ckzuq.cognition.run/","en-US,en;q=0.9","2n88zn954gutc1y","29","[""White""]","No","Female","1393813.3000000007","null","","<p></p>","null","choice","dct","attraction_2","2","televisions","null","null","null","null","null","null","1","","","","","","","","","",""
"","","","","","choice_trial","survey-html-form","105","1167539","0.0-5.0-1.10","104","1","2025-04-11 14:49:08","bb671e3ae32f654b8954ea4c4635f915","","Mozilla/5.0 (Windows NT 10.0; Win64; x64) AppleWebKit/537.36 (KHTML, like Gecko) Chrome/131.0.0.0 Safari/537.36","WebKit","Chrome","131.0.0.0","Windows","10.0","https://hz8g1ckzuq.cognition.run/","en-US,en;q=0.9","2n88zn954gutc1y","29","[""White""]","No","Female","1393813.3000000007","3525","","","{""product_choice"":""A""}","choice","dct","attraction_2","2","televisions","null","null","null","null","null","null","1","50","60","40","60","50","60","Screen size","Average lifespan","",""
"","","","","","choice_trial_setup","html-keyboard-response","106","1167853","0.0-5.0-0.11","104","1","2025-04-11 14:49:08","bb671e3ae32f654b8954ea4c4635f915","","Mozilla/5.0 (Windows NT 10.0; Win64; x64) AppleWebKit/537.36 (KHTML, like Gecko) Chrome/131.0.0.0 Safari/537.36","WebKit","Chrome","131.0.0.0","Windows","10.0","https://hz8g1ckzuq.cognition.run/","en-US,en;q=0.9","2n88zn954gutc1y","29","[""White""]","No","Female","1393813.3000000007","null","","<p></p>","null","choice","bww","catch","null","televisions","65","80","45","25","10","50","2","","","","","","","","","",""
"","","","","","choice_trial","survey-html-form","107","1170876","0.0-5.0-1.11","104","1","2025-04-11 14:49:08","bb671e3ae32f654b8954ea4c4635f915","","Mozilla/5.0 (Windows NT 10.0; Win64; x64) AppleWebKit/537.36 (KHTML, like Gecko) Chrome/131.0.0.0 Safari/537.36","WebKit","Chrome","131.0.0.0","Windows","10.0","https://hz8g1ckzuq.cognition.run/","en-US,en;q=0.9","2n88zn954gutc1y","29","[""White""]","No","Female","1393813.3000000007","3014","","","{""product_choice"":""A""}","choice","bww","catch","null","televisions","65","80","45","25","10","50","2","null","null","null","null","null","null","Screen size","Average lifespan","",""
"","","","","","choice_trial_setup","html-keyboard-response","108","1171192","0.0-5.0-0.12","104","1","2025-04-11 14:49:08","bb671e3ae32f654b8954ea4c4635f915","","Mozilla/5.0 (Windows NT 10.0; Win64; x64) AppleWebKit/537.36 (KHTML, like Gecko) Chrome/131.0.0.0 Safari/537.36","WebKit","Chrome","131.0.0.0","Windows","10.0","https://hz8g1ckzuq.cognition.run/","en-US,en;q=0.9","2n88zn954gutc1y","29","[""White""]","No","Female","1393813.3000000007","null","","<p></p>","null","choice","tcd","repulsion_2","2","microwave ovens","null","null","null","null","null","null","2","","","","","","","","","",""
"","","","","","choice_trial","survey-html-form","109","1175574","0.0-5.0-1.12","104","1","2025-04-11 14:49:08","bb671e3ae32f654b8954ea4c4635f915","","Mozilla/5.0 (Windows NT 10.0; Win64; x64) AppleWebKit/537.36 (KHTML, like Gecko) Chrome/131.0.0.0 Safari/537.36","WebKit","Chrome","131.0.0.0","Windows","10.0","https://hz8g1ckzuq.cognition.run/","en-US,en;q=0.9","2n88zn954gutc1y","29","[""White""]","No","Female","1393813.3000000007","4372","","","{""product_choice"":""A""}","choice","tcd","repulsion_2","2","microwave ovens","null","null","null","null","null","null","2","30","40","20","100","90","100","Warranty","Cooking power","",""
"","","","","","choice_trial_setup","html-keyboard-response","110","1175887","0.0-5.0-0.13","104","1","2025-04-11 14:49:08","bb671e3ae32f654b8954ea4c4635f915","","Mozilla/5.0 (Windows NT 10.0; Win64; x64) AppleWebKit/537.36 (KHTML, like Gecko) Chrome/131.0.0.0 Safari/537.36","WebKit","Chrome","131.0.0.0","Windows","10.0","https://hz8g1ckzuq.cognition.run/","en-US,en;q=0.9","2n88zn954gutc1y","29","[""White""]","No","Female","1393813.3000000007","null","","<p></p>","null","choice","dtc","attraction_2","1","microwave ovens","null","null","null","null","null","null","2","","","","","","","","","",""
"","","","","","choice_trial","survey-html-form","111","1181742","0.0-5.0-1.13","104","1","2025-04-11 14:49:08","bb671e3ae32f654b8954ea4c4635f915","","Mozilla/5.0 (Windows NT 10.0; Win64; x64) AppleWebKit/537.36 (KHTML, like Gecko) Chrome/131.0.0.0 Safari/537.36","WebKit","Chrome","131.0.0.0","Windows","10.0","https://hz8g1ckzuq.cognition.run/","en-US,en;q=0.9","2n88zn954gutc1y","29","[""White""]","No","Female","1393813.3000000007","5845","","","{""product_choice"":""C""}","choice","dtc","attraction_2","1","microwave ovens","null","null","null","null","null","null","2","60","50","60","50","60","40","Warranty","Cooking power","",""
"","","","","","choice_trial_setup","html-keyboard-response","112","1182050","0.0-5.0-0.14","104","1","2025-04-11 14:49:08","bb671e3ae32f654b8954ea4c4635f915","","Mozilla/5.0 (Windows NT 10.0; Win64; x64) AppleWebKit/537.36 (KHTML, like Gecko) Chrome/131.0.0.0 Safari/537.36","WebKit","Chrome","131.0.0.0","Windows","10.0","https://hz8g1ckzuq.cognition.run/","en-US,en;q=0.9","2n88zn954gutc1y","29","[""White""]","No","Female","1393813.3000000007","null","","<p></p>","null","choice","ctd","attraction_2","2","microwave ovens","null","null","null","null","null","null","2","","","","","","","","","",""
"","","","","","choice_trial","survey-html-form","113","1187149","0.0-5.0-1.14","104","1","2025-04-11 14:49:08","bb671e3ae32f654b8954ea4c4635f915","","Mozilla/5.0 (Windows NT 10.0; Win64; x64) AppleWebKit/537.36 (KHTML, like Gecko) Chrome/131.0.0.0 Safari/537.36","WebKit","Chrome","131.0.0.0","Windows","10.0","https://hz8g1ckzuq.cognition.run/","en-US,en;q=0.9","2n88zn954gutc1y","29","[""White""]","No","Female","1393813.3000000007","5089","","","{""product_choice"":""C""}","choice","ctd","attraction_2","2","microwave ovens","null","null","null","null","null","null","2","50","60","40","60","50","60","Warranty","Cooking power","",""
"","","","","","choice_trial_setup","html-keyboard-response","114","1187463","0.0-5.0-0.15","104","1","2025-04-11 14:49:08","bb671e3ae32f654b8954ea4c4635f915","","Mozilla/5.0 (Windows NT 10.0; Win64; x64) AppleWebKit/537.36 (KHTML, like Gecko) Chrome/131.0.0.0 Safari/537.36","WebKit","Chrome","131.0.0.0","Windows","10.0","https://hz8g1ckzuq.cognition.run/","en-US,en;q=0.9","2n88zn954gutc1y","29","[""White""]","No","Female","1393813.3000000007","null","","<p></p>","null","choice","dtc","attraction_2","1","laptops","null","null","null","null","null","null","1","","","","","","","","","",""
"","","","","","choice_trial","survey-html-form","115","1191055","0.0-5.0-1.15","104","1","2025-04-11 14:49:08","bb671e3ae32f654b8954ea4c4635f915","","Mozilla/5.0 (Windows NT 10.0; Win64; x64) AppleWebKit/537.36 (KHTML, like Gecko) Chrome/131.0.0.0 Safari/537.36","WebKit","Chrome","131.0.0.0","Windows","10.0","https://hz8g1ckzuq.cognition.run/","en-US,en;q=0.9","2n88zn954gutc1y","29","[""White""]","No","Female","1393813.3000000007","3582","","","{""product_choice"":""A""}","choice","dtc","attraction_2","1","laptops","null","null","null","null","null","null","1","60","50","60","50","60","40","Processing speed","Memory (RAM)","",""
"","","","","","choice_trial_setup","html-keyboard-response","116","1191373","0.0-5.0-0.16","104","1","2025-04-11 14:49:08","bb671e3ae32f654b8954ea4c4635f915","","Mozilla/5.0 (Windows NT 10.0; Win64; x64) AppleWebKit/537.36 (KHTML, like Gecko) Chrome/131.0.0.0 Safari/537.36","WebKit","Chrome","131.0.0.0","Windows","10.0","https://hz8g1ckzuq.cognition.run/","en-US,en;q=0.9","2n88zn954gutc1y","29","[""White""]","No","Female","1393813.3000000007","null","","<p></p>","null","choice","tdc","attraction_1","1","microwave ovens","null","null","null","null","null","null","1","","","","","","","","","",""
"","","","","","choice_trial","survey-html-form","117","1194609","0.0-5.0-1.16","104","1","2025-04-11 14:49:08","bb671e3ae32f654b8954ea4c4635f915","","Mozilla/5.0 (Windows NT 10.0; Win64; x64) AppleWebKit/537.36 (KHTML, like Gecko) Chrome/131.0.0.0 Safari/537.36","WebKit","Chrome","131.0.0.0","Windows","10.0","https://hz8g1ckzuq.cognition.run/","en-US,en;q=0.9","2n88zn954gutc1y","29","[""White""]","No","Female","1393813.3000000007","3227","","","{""product_choice"":""C""}","choice","tdc","attraction_1","1","microwave ovens","null","null","null","null","null","null","1","60","50","60","50","60","45","Warranty","Cooking power","",""
"","","","","","choice_trial_setup","html-keyboard-response","118","1194922","0.0-5.0-0.17","104","1","2025-04-11 14:49:08","bb671e3ae32f654b8954ea4c4635f915","","Mozilla/5.0 (Windows NT 10.0; Win64; x64) AppleWebKit/537.36 (KHTML, like Gecko) Chrome/131.0.0.0 Safari/537.36","WebKit","Chrome","131.0.0.0","Windows","10.0","https://hz8g1ckzuq.cognition.run/","en-US,en;q=0.9","2n88zn954gutc1y","29","[""White""]","No","Female","1393813.3000000007","null","","<p></p>","null","choice","dct","attraction_1","2","washing machines","null","null","null","null","null","null","1","","","","","","","","","",""
"","","","","","choice_trial","survey-html-form","119","1199073","0.0-5.0-1.17","104","1","2025-04-11 14:49:08","bb671e3ae32f654b8954ea4c4635f915","","Mozilla/5.0 (Windows NT 10.0; Win64; x64) AppleWebKit/537.36 (KHTML, like Gecko) Chrome/131.0.0.0 Safari/537.36","WebKit","Chrome","131.0.0.0","Windows","10.0","https://hz8g1ckzuq.cognition.run/","en-US,en;q=0.9","2n88zn954gutc1y","29","[""White""]","No","Female","1393813.3000000007","4141","","","{""product_choice"":""B""}","choice","dct","attraction_1","2","washing machines","null","null","null","null","null","null","1","50","60","45","60","50","60","Average lifespan","Energy savings","",""
"","","","","","choice_trial_setup","html-keyboard-response","120","1199388","0.0-5.0-0.18","104","1","2025-04-11 14:49:08","bb671e3ae32f654b8954ea4c4635f915","","Mozilla/5.0 (Windows NT 10.0; Win64; x64) AppleWebKit/537.36 (KHTML, like Gecko) Chrome/131.0.0.0 Safari/537.36","WebKit","Chrome","131.0.0.0","Windows","10.0","https://hz8g1ckzuq.cognition.run/","en-US,en;q=0.9","2n88zn954gutc1y","29","[""White""]","No","Female","1393813.3000000007","null","","<p></p>","null","choice","ctd","repulsion_1","1","microwave ovens","null","null","null","null","null","null","1","","","","","","","","","",""
"","","","","","choice_trial","survey-html-form","121","1203660","0.0-5.0-1.18","104","1","2025-04-11 14:49:08","bb671e3ae32f654b8954ea4c4635f915","","Mozilla/5.0 (Windows NT 10.0; Win64; x64) AppleWebKit/537.36 (KHTML, like Gecko) Chrome/131.0.0.0 Safari/537.36","WebKit","Chrome","131.0.0.0","Windows","10.0","https://hz8g1ckzuq.cognition.run/","en-US,en;q=0.9","2n88zn954gutc1y","29","[""White""]","No","Female","1393813.3000000007","4261","","","{""product_choice"":""A""}","choice","ctd","repulsion_1","1","microwave ovens","null","null","null","null","null","null","1","100","90","100","30","40","25","Warranty","Cooking power","",""
"","","","","","choice_trial_setup","html-keyboard-response","122","1203969","0.0-5.0-0.19","104","1","2025-04-11 14:49:08","bb671e3ae32f654b8954ea4c4635f915","","Mozilla/5.0 (Windows NT 10.0; Win64; x64) AppleWebKit/537.36 (KHTML, like Gecko) Chrome/131.0.0.0 Safari/537.36","WebKit","Chrome","131.0.0.0","Windows","10.0","https://hz8g1ckzuq.cognition.run/","en-US,en;q=0.9","2n88zn954gutc1y","29","[""White""]","No","Female","1393813.3000000007","null","","<p></p>","null","choice","tcd","repulsion_2","1","televisions","null","null","null","null","null","null","1","","","","","","","","","",""
"","","","","","choice_trial","survey-html-form","123","1206745","0.0-5.0-1.19","104","1","2025-04-11 14:49:08","bb671e3ae32f654b8954ea4c4635f915","","Mozilla/5.0 (Windows NT 10.0; Win64; x64) AppleWebKit/537.36 (KHTML, like Gecko) Chrome/131.0.0.0 Safari/537.36","WebKit","Chrome","131.0.0.0","Windows","10.0","https://hz8g1ckzuq.cognition.run/","en-US,en;q=0.9","2n88zn954gutc1y","29","[""White""]","No","Female","1393813.3000000007","2765","","","{""product_choice"":""C""}","choice","tcd","repulsion_2","1","televisions","null","null","null","null","null","null","1","100","90","100","30","40","20","Screen size","Average lifespan","",""
"","","","","","choice_trial_setup","html-keyboard-response","124","1207056","0.0-5.0-0.20","104","1","2025-04-11 14:49:08","bb671e3ae32f654b8954ea4c4635f915","","Mozilla/5.0 (Windows NT 10.0; Win64; x64) AppleWebKit/537.36 (KHTML, like Gecko) Chrome/131.0.0.0 Safari/537.36","WebKit","Chrome","131.0.0.0","Windows","10.0","https://hz8g1ckzuq.cognition.run/","en-US,en;q=0.9","2n88zn954gutc1y","29","[""White""]","No","Female","1393813.3000000007","null","","<p></p>","null","choice","cdt","repulsion_1","1","laptops","null","null","null","null","null","null","2","","","","","","","","","",""
"","","","","","choice_trial","survey-html-form","125","1209961","0.0-5.0-1.20","104","1","2025-04-11 14:49:08","bb671e3ae32f654b8954ea4c4635f915","","Mozilla/5.0 (Windows NT 10.0; Win64; x64) AppleWebKit/537.36 (KHTML, like Gecko) Chrome/131.0.0.0 Safari/537.36","WebKit","Chrome","131.0.0.0","Windows","10.0","https://hz8g1ckzuq.cognition.run/","en-US,en;q=0.9","2n88zn954gutc1y","29","[""White""]","No","Female","1393813.3000000007","2894","","","{""product_choice"":""C""}","choice","cdt","repulsion_1","1","laptops","null","null","null","null","null","null","2","100","90","100","30","40","25","Processing speed","Memory (RAM)","",""
"","","","","","choice_trial_setup","html-keyboard-response","126","1210284","0.0-5.0-0.21","104","1","2025-04-11 14:49:08","bb671e3ae32f654b8954ea4c4635f915","","Mozilla/5.0 (Windows NT 10.0; Win64; x64) AppleWebKit/537.36 (KHTML, like Gecko) Chrome/131.0.0.0 Safari/537.36","WebKit","Chrome","131.0.0.0","Windows","10.0","https://hz8g1ckzuq.cognition.run/","en-US,en;q=0.9","2n88zn954gutc1y","29","[""White""]","No","Female","1393813.3000000007","null","","<p></p>","null","choice","wbw","catch","null","washing machines","50","60","25","50","45","30","1","","","","","","","","","",""
"","","","","","choice_trial","survey-html-form","127","1213382","0.0-5.0-1.21","104","1","2025-04-11 14:49:08","bb671e3ae32f654b8954ea4c4635f915","","Mozilla/5.0 (Windows NT 10.0; Win64; x64) AppleWebKit/537.36 (KHTML, like Gecko) Chrome/131.0.0.0 Safari/537.36","WebKit","Chrome","131.0.0.0","Windows","10.0","https://hz8g1ckzuq.cognition.run/","en-US,en;q=0.9","2n88zn954gutc1y","29","[""White""]","No","Female","1393813.3000000007","3088","","","{""product_choice"":""A""}","choice","wbw","catch","null","washing machines","50","60","25","50","45","30","1","null","null","null","null","null","null","Average lifespan","Energy savings","",""
"","","","","","choice_trial_setup","html-keyboard-response","128","1213700","0.0-5.0-0.22","104","1","2025-04-11 14:49:08","bb671e3ae32f654b8954ea4c4635f915","","Mozilla/5.0 (Windows NT 10.0; Win64; x64) AppleWebKit/537.36 (KHTML, like Gecko) Chrome/131.0.0.0 Safari/537.36","WebKit","Chrome","131.0.0.0","Windows","10.0","https://hz8g1ckzuq.cognition.run/","en-US,en;q=0.9","2n88zn954gutc1y","29","[""White""]","No","Female","1393813.3000000007","null","","<p></p>","null","choice","cdt","attraction_1","1","televisions","null","null","null","null","null","null","2","","","","","","","","","",""
"","","","","","choice_trial","survey-html-form","129","1217227","0.0-5.0-1.22","104","1","2025-04-11 14:49:08","bb671e3ae32f654b8954ea4c4635f915","","Mozilla/5.0 (Windows NT 10.0; Win64; x64) AppleWebKit/537.36 (KHTML, like Gecko) Chrome/131.0.0.0 Safari/537.36","WebKit","Chrome","131.0.0.0","Windows","10.0","https://hz8g1ckzuq.cognition.run/","en-US,en;q=0.9","2n88zn954gutc1y","29","[""White""]","No","Female","1393813.3000000007","3516","","","{""product_choice"":""B""}","choice","cdt","attraction_1","1","televisions","null","null","null","null","null","null","2","60","50","60","50","60","45","Screen size","Average lifespan","",""
"","","","","","choice_trial_setup","html-keyboard-response","130","1217546","0.0-5.0-0.23","104","1","2025-04-11 14:49:08","bb671e3ae32f654b8954ea4c4635f915","","Mozilla/5.0 (Windows NT 10.0; Win64; x64) AppleWebKit/537.36 (KHTML, like Gecko) Chrome/131.0.0.0 Safari/537.36","WebKit","Chrome","131.0.0.0","Windows","10.0","https://hz8g1ckzuq.cognition.run/","en-US,en;q=0.9","2n88zn954gutc1y","29","[""White""]","No","Female","1393813.3000000007","null","","<p></p>","null","choice","tcd","repulsion_1","1","televisions","null","null","null","null","null","null","2","","","","","","","","","",""
"","","","","","choice_trial","survey-html-form","131","1221617","0.0-5.0-1.23","104","1","2025-04-11 14:49:08","bb671e3ae32f654b8954ea4c4635f915","","Mozilla/5.0 (Windows NT 10.0; Win64; x64) AppleWebKit/537.36 (KHTML, like Gecko) Chrome/131.0.0.0 Safari/537.36","WebKit","Chrome","131.0.0.0","Windows","10.0","https://hz8g1ckzuq.cognition.run/","en-US,en;q=0.9","2n88zn954gutc1y","29","[""White""]","No","Female","1393813.3000000007","4061","","","{""product_choice"":""C""}","choice","tcd","repulsion_1","1","televisions","null","null","null","null","null","null","2","100","90","100","30","40","25","Screen size","Average lifespan","",""
"","","","","","choice_trial_setup","html-keyboard-response","132","1221927","0.0-5.0-0.24","104","1","2025-04-11 14:49:08","bb671e3ae32f654b8954ea4c4635f915","","Mozilla/5.0 (Windows NT 10.0; Win64; x64) AppleWebKit/537.36 (KHTML, like Gecko) Chrome/131.0.0.0 Safari/537.36","WebKit","Chrome","131.0.0.0","Windows","10.0","https://hz8g1ckzuq.cognition.run/","en-US,en;q=0.9","2n88zn954gutc1y","29","[""White""]","No","Female","1393813.3000000007","null","","<p></p>","null","choice","tdc","attraction_1","1","washing machines","null","null","null","null","null","null","1","","","","","","","","","",""
"","","","","","choice_trial","survey-html-form","133","1227506","0.0-5.0-1.24","104","1","2025-04-11 14:49:08","bb671e3ae32f654b8954ea4c4635f915","","Mozilla/5.0 (Windows NT 10.0; Win64; x64) AppleWebKit/537.36 (KHTML, like Gecko) Chrome/131.0.0.0 Safari/537.36","WebKit","Chrome","131.0.0.0","Windows","10.0","https://hz8g1ckzuq.cognition.run/","en-US,en;q=0.9","2n88zn954gutc1y","29","[""White""]","No","Female","1393813.3000000007","5571","","","{""product_choice"":""A""}","choice","tdc","attraction_1","1","washing machines","null","null","null","null","null","null","1","60","50","60","50","60","45","Average lifespan","Energy savings","",""
"","","","","","choice_trial_setup","html-keyboard-response","134","1227821","0.0-5.0-0.25","104","1","2025-04-11 14:49:08","bb671e3ae32f654b8954ea4c4635f915","","Mozilla/5.0 (Windows NT 10.0; Win64; x64) AppleWebKit/537.36 (KHTML, like Gecko) Chrome/131.0.0.0 Safari/537.36","WebKit","Chrome","131.0.0.0","Windows","10.0","https://hz8g1ckzuq.cognition.run/","en-US,en;q=0.9","2n88zn954gutc1y","29","[""White""]","No","Female","1393813.3000000007","null","","<p></p>","null","choice","dct","attraction_2","1","washing machines","null","null","null","null","null","null","1","","","","","","","","","",""
"","","","","","choice_trial","survey-html-form","135","1232229","0.0-5.0-1.25","104","1","2025-04-11 14:49:08","bb671e3ae32f654b8954ea4c4635f915","","Mozilla/5.0 (Windows NT 10.0; Win64; x64) AppleWebKit/537.36 (KHTML, like Gecko) Chrome/131.0.0.0 Safari/537.36","WebKit","Chrome","131.0.0.0","Windows","10.0","https://hz8g1ckzuq.cognition.run/","en-US,en;q=0.9","2n88zn954gutc1y","29","[""White""]","No","Female","1393813.3000000007","4400","","","{""product_choice"":""A""}","choice","dct","attraction_2","1","washing machines","null","null","null","null","null","null","1","60","50","60","50","60","40","Average lifespan","Energy savings","",""
"","","","","","choice_trial_setup","html-keyboard-response","136","1232545","0.0-5.0-0.26","104","1","2025-04-11 14:49:08","bb671e3ae32f654b8954ea4c4635f915","","Mozilla/5.0 (Windows NT 10.0; Win64; x64) AppleWebKit/537.36 (KHTML, like Gecko) Chrome/131.0.0.0 Safari/537.36","WebKit","Chrome","131.0.0.0","Windows","10.0","https://hz8g1ckzuq.cognition.run/","en-US,en;q=0.9","2n88zn954gutc1y","29","[""White""]","No","Female","1393813.3000000007","null","","<p></p>","null","choice","wwb","catch","null","laptops","95","70","30","15","30","40","1","","","","","","","","","",""
"","","","","","choice_trial","survey-html-form","137","1237444","0.0-5.0-1.26","104","1","2025-04-11 14:49:08","bb671e3ae32f654b8954ea4c4635f915","","Mozilla/5.0 (Windows NT 10.0; Win64; x64) AppleWebKit/537.36 (KHTML, like Gecko) Chrome/131.0.0.0 Safari/537.36","WebKit","Chrome","131.0.0.0","Windows","10.0","https://hz8g1ckzuq.cognition.run/","en-US,en;q=0.9","2n88zn954gutc1y","29","[""White""]","No","Female","1393813.3000000007","4891","","","{""product_choice"":""C""}","choice","wwb","catch","null","laptops","95","70","30","15","30","40","1","null","null","null","null","null","null","Processing speed","Memory (RAM)","",""
"","","","","","choice_trial_setup","html-keyboard-response","138","1237753","0.0-5.0-0.27","104","1","2025-04-11 14:49:08","bb671e3ae32f654b8954ea4c4635f915","","Mozilla/5.0 (Windows NT 10.0; Win64; x64) AppleWebKit/537.36 (KHTML, like Gecko) Chrome/131.0.0.0 Safari/537.36","WebKit","Chrome","131.0.0.0","Windows","10.0","https://hz8g1ckzuq.cognition.run/","en-US,en;q=0.9","2n88zn954gutc1y","29","[""White""]","No","Female","1393813.3000000007","null","","<p></p>","null","choice","dtc","attraction_1","2","laptops","null","null","null","null","null","null","1","","","","","","","","","",""
"","","","","","choice_trial","survey-html-form","139","1241116","0.0-5.0-1.27","104","1","2025-04-11 14:49:08","bb671e3ae32f654b8954ea4c4635f915","","Mozilla/5.0 (Windows NT 10.0; Win64; x64) AppleWebKit/537.36 (KHTML, like Gecko) Chrome/131.0.0.0 Safari/537.36","WebKit","Chrome","131.0.0.0","Windows","10.0","https://hz8g1ckzuq.cognition.run/","en-US,en;q=0.9","2n88zn954gutc1y","29","[""White""]","No","Female","1393813.3000000007","3355","","","{""product_choice"":""B""}","choice","dtc","attraction_1","2","laptops","null","null","null","null","null","null","1","50","60","45","60","50","60","Processing speed","Memory (RAM)","",""
"","","","","","choice_trial_setup","html-keyboard-response","140","1241428","0.0-5.0-0.28","104","1","2025-04-11 14:49:08","bb671e3ae32f654b8954ea4c4635f915","","Mozilla/5.0 (Windows NT 10.0; Win64; x64) AppleWebKit/537.36 (KHTML, like Gecko) Chrome/131.0.0.0 Safari/537.36","WebKit","Chrome","131.0.0.0","Windows","10.0","https://hz8g1ckzuq.cognition.run/","en-US,en;q=0.9","2n88zn954gutc1y","29","[""White""]","No","Female","1393813.3000000007","null","","<p></p>","null","choice","dct","attraction_1","2","televisions","null","null","null","null","null","null","1","","","","","","","","","",""
"","","","","","choice_trial","survey-html-form","141","1245488","0.0-5.0-1.28","104","1","2025-04-11 14:49:08","bb671e3ae32f654b8954ea4c4635f915","","Mozilla/5.0 (Windows NT 10.0; Win64; x64) AppleWebKit/537.36 (KHTML, like Gecko) Chrome/131.0.0.0 Safari/537.36","WebKit","Chrome","131.0.0.0","Windows","10.0","https://hz8g1ckzuq.cognition.run/","en-US,en;q=0.9","2n88zn954gutc1y","29","[""White""]","No","Female","1393813.3000000007","4053","","","{""product_choice"":""A""}","choice","dct","attraction_1","2","televisions","null","null","null","null","null","null","1","50","60","45","60","50","60","Screen size","Average lifespan","",""
"","","","","","choice_trial_setup","html-keyboard-response","142","1245796","0.0-5.0-0.29","104","1","2025-04-11 14:49:08","bb671e3ae32f654b8954ea4c4635f915","","Mozilla/5.0 (Windows NT 10.0; Win64; x64) AppleWebKit/537.36 (KHTML, like Gecko) Chrome/131.0.0.0 Safari/537.36","WebKit","Chrome","131.0.0.0","Windows","10.0","https://hz8g1ckzuq.cognition.run/","en-US,en;q=0.9","2n88zn954gutc1y","29","[""White""]","No","Female","1393813.3000000007","null","","<p></p>","null","choice","bww","catch","null","microwave ovens","85","55","10","45","40","35","1","","","","","","","","","",""
"","","","","","choice_trial","survey-html-form","143","1248791","0.0-5.0-1.29","104","1","2025-04-11 14:49:08","bb671e3ae32f654b8954ea4c4635f915","","Mozilla/5.0 (Windows NT 10.0; Win64; x64) AppleWebKit/537.36 (KHTML, like Gecko) Chrome/131.0.0.0 Safari/537.36","WebKit","Chrome","131.0.0.0","Windows","10.0","https://hz8g1ckzuq.cognition.run/","en-US,en;q=0.9","2n88zn954gutc1y","29","[""White""]","No","Female","1393813.3000000007","2987","","","{""product_choice"":""A""}","choice","bww","catch","null","microwave ovens","85","55","10","45","40","35","1","null","null","null","null","null","null","Warranty","Cooking power","",""
"","","","","","choice_trial_setup","html-keyboard-response","144","1249103","0.0-5.0-0.30","104","1","2025-04-11 14:49:08","bb671e3ae32f654b8954ea4c4635f915","","Mozilla/5.0 (Windows NT 10.0; Win64; x64) AppleWebKit/537.36 (KHTML, like Gecko) Chrome/131.0.0.0 Safari/537.36","WebKit","Chrome","131.0.0.0","Windows","10.0","https://hz8g1ckzuq.cognition.run/","en-US,en;q=0.9","2n88zn954gutc1y","29","[""White""]","No","Female","1393813.3000000007","null","","<p></p>","null","choice","tcd","attraction_2","2","washing machines","null","null","null","null","null","null","1","","","","","","","","","",""
"","","","","","choice_trial","survey-html-form","145","1252552","0.0-5.0-1.30","104","1","2025-04-11 14:49:08","bb671e3ae32f654b8954ea4c4635f915","","Mozilla/5.0 (Windows NT 10.0; Win64; x64) AppleWebKit/537.36 (KHTML, like Gecko) Chrome/131.0.0.0 Safari/537.36","WebKit","Chrome","131.0.0.0","Windows","10.0","https://hz8g1ckzuq.cognition.run/","en-US,en;q=0.9","2n88zn954gutc1y","29","[""White""]","No","Female","1393813.3000000007","3438","","","{""product_choice"":""C""}","choice","tcd","attraction_2","2","washing machines","null","null","null","null","null","null","1","50","60","40","60","50","60","Average lifespan","Energy savings","",""
"","","","","","choice_trial_setup","html-keyboard-response","146","1252868","0.0-5.0-0.31","104","1","2025-04-11 14:49:08","bb671e3ae32f654b8954ea4c4635f915","","Mozilla/5.0 (Windows NT 10.0; Win64; x64) AppleWebKit/537.36 (KHTML, like Gecko) Chrome/131.0.0.0 Safari/537.36","WebKit","Chrome","131.0.0.0","Windows","10.0","https://hz8g1ckzuq.cognition.run/","en-US,en;q=0.9","2n88zn954gutc1y","29","[""White""]","No","Female","1393813.3000000007","null","","<p></p>","null","choice","bww","catch","null","washing machines","75","65","25","25","10","10","1","","","","","","","","","",""
"","","","","","choice_trial","survey-html-form","147","1256010","0.0-5.0-1.31","104","1","2025-04-11 14:49:08","bb671e3ae32f654b8954ea4c4635f915","","Mozilla/5.0 (Windows NT 10.0; Win64; x64) AppleWebKit/537.36 (KHTML, like Gecko) Chrome/131.0.0.0 Safari/537.36","WebKit","Chrome","131.0.0.0","Windows","10.0","https://hz8g1ckzuq.cognition.run/","en-US,en;q=0.9","2n88zn954gutc1y","29","[""White""]","No","Female","1393813.3000000007","3131","","","{""product_choice"":""A""}","choice","bww","catch","null","washing machines","75","65","25","25","10","10","1","null","null","null","null","null","null","Average lifespan","Energy savings","",""
"","","","","","choice_trial_setup","html-keyboard-response","148","1256324","0.0-5.0-0.32","104","1","2025-04-11 14:49:08","bb671e3ae32f654b8954ea4c4635f915","","Mozilla/5.0 (Windows NT 10.0; Win64; x64) AppleWebKit/537.36 (KHTML, like Gecko) Chrome/131.0.0.0 Safari/537.36","WebKit","Chrome","131.0.0.0","Windows","10.0","https://hz8g1ckzuq.cognition.run/","en-US,en;q=0.9","2n88zn954gutc1y","29","[""White""]","No","Female","1393813.3000000007","null","","<p></p>","null","choice","tdc","attraction_2","2","laptops","null","null","null","null","null","null","2","","","","","","","","","",""
"","","","","","choice_trial","survey-html-form","149","1261143","0.0-5.0-1.32","104","1","2025-04-11 14:49:08","bb671e3ae32f654b8954ea4c4635f915","","Mozilla/5.0 (Windows NT 10.0; Win64; x64) AppleWebKit/537.36 (KHTML, like Gecko) Chrome/131.0.0.0 Safari/537.36","WebKit","Chrome","131.0.0.0","Windows","10.0","https://hz8g1ckzuq.cognition.run/","en-US,en;q=0.9","2n88zn954gutc1y","29","[""White""]","No","Female","1393813.3000000007","4807","","","{""product_choice"":""A""}","choice","tdc","attraction_2","2","laptops","null","null","null","null","null","null","2","50","60","40","60","50","60","Processing speed","Memory (RAM)","",""
"","","","","","choice_trial_setup","html-keyboard-response","150","1261461","0.0-5.0-0.33","104","1","2025-04-11 14:49:08","bb671e3ae32f654b8954ea4c4635f915","","Mozilla/5.0 (Windows NT 10.0; Win64; x64) AppleWebKit/537.36 (KHTML, like Gecko) Chrome/131.0.0.0 Safari/537.36","WebKit","Chrome","131.0.0.0","Windows","10.0","https://hz8g1ckzuq.cognition.run/","en-US,en;q=0.9","2n88zn954gutc1y","29","[""White""]","No","Female","1393813.3000000007","null","","<p></p>","null","choice","tdc","attraction_2","1","televisions","null","null","null","null","null","null","2","","","","","","","","","",""
"","","","","","choice_trial","survey-html-form","151","1264444","0.0-5.0-1.33","104","1","2025-04-11 14:49:08","bb671e3ae32f654b8954ea4c4635f915","","Mozilla/5.0 (Windows NT 10.0; Win64; x64) AppleWebKit/537.36 (KHTML, like Gecko) Chrome/131.0.0.0 Safari/537.36","WebKit","Chrome","131.0.0.0","Windows","10.0","https://hz8g1ckzuq.cognition.run/","en-US,en;q=0.9","2n88zn954gutc1y","29","[""White""]","No","Female","1393813.3000000007","2970","","","{""product_choice"":""A""}","choice","tdc","attraction_2","1","televisions","null","null","null","null","null","null","2","60","50","60","50","60","40","Screen size","Average lifespan","",""
"","","","","","choice_trial_setup","html-keyboard-response","152","1264762","0.0-5.0-0.34","104","1","2025-04-11 14:49:08","bb671e3ae32f654b8954ea4c4635f915","","Mozilla/5.0 (Windows NT 10.0; Win64; x64) AppleWebKit/537.36 (KHTML, like Gecko) Chrome/131.0.0.0 Safari/537.36","WebKit","Chrome","131.0.0.0","Windows","10.0","https://hz8g1ckzuq.cognition.run/","en-US,en;q=0.9","2n88zn954gutc1y","29","[""White""]","No","Female","1393813.3000000007","null","","<p></p>","null","choice","dtc","repulsion_2","1","washing machines","null","null","null","null","null","null","2","","","","","","","","","",""
"","","","","","choice_trial","survey-html-form","153","1268941","0.0-5.0-1.34","104","1","2025-04-11 14:49:08","bb671e3ae32f654b8954ea4c4635f915","","Mozilla/5.0 (Windows NT 10.0; Win64; x64) AppleWebKit/537.36 (KHTML, like Gecko) Chrome/131.0.0.0 Safari/537.36","WebKit","Chrome","131.0.0.0","Windows","10.0","https://hz8g1ckzuq.cognition.run/","en-US,en;q=0.9","2n88zn954gutc1y","29","[""White""]","No","Female","1393813.3000000007","4171","","","{""product_choice"":""C""}","choice","dtc","repulsion_2","1","washing machines","null","null","null","null","null","null","2","100","90","100","30","40","20","Average lifespan","Energy savings","",""
"","","","","","choice_trial_setup","html-keyboard-response","154","1269271","0.0-5.0-0.35","104","1","2025-04-11 14:49:08","bb671e3ae32f654b8954ea4c4635f915","","Mozilla/5.0 (Windows NT 10.0; Win64; x64) AppleWebKit/537.36 (KHTML, like Gecko) Chrome/131.0.0.0 Safari/537.36","WebKit","Chrome","131.0.0.0","Windows","10.0","https://hz8g1ckzuq.cognition.run/","en-US,en;q=0.9","2n88zn954gutc1y","29","[""White""]","No","Female","1393813.3000000007","null","","<p></p>","null","choice","tdc","repulsion_1","1","washing machines","null","null","null","null","null","null","2","","","","","","","","","",""
"","","","","","choice_trial","survey-html-form","155","1277042","0.0-5.0-1.35","104","1","2025-04-11 14:49:08","bb671e3ae32f654b8954ea4c4635f915","","Mozilla/5.0 (Windows NT 10.0; Win64; x64) AppleWebKit/537.36 (KHTML, like Gecko) Chrome/131.0.0.0 Safari/537.36","WebKit","Chrome","131.0.0.0","Windows","10.0","https://hz8g1ckzuq.cognition.run/","en-US,en;q=0.9","2n88zn954gutc1y","29","[""White""]","No","Female","1393813.3000000007","7758","","","{""product_choice"":""A""}","choice","tdc","repulsion_1","1","washing machines","null","null","null","null","null","null","2","100","90","100","30","40","25","Average lifespan","Energy savings","",""
"","","","","","choice_trial_setup","html-keyboard-response","156","1277363","0.0-5.0-0.36","104","1","2025-04-11 14:49:08","bb671e3ae32f654b8954ea4c4635f915","","Mozilla/5.0 (Windows NT 10.0; Win64; x64) AppleWebKit/537.36 (KHTML, like Gecko) Chrome/131.0.0.0 Safari/537.36","WebKit","Chrome","131.0.0.0","Windows","10.0","https://hz8g1ckzuq.cognition.run/","en-US,en;q=0.9","2n88zn954gutc1y","29","[""White""]","No","Female","1393813.3000000007","null","","<p></p>","null","choice","dtc","repulsion_2","2","televisions","null","null","null","null","null","null","1","","","","","","","","","",""
