"success","timeout","failed_images","failed_audio","failed_video","screen_id","trial_type","trial_index","time_elapsed","internal_node_id","run_id","condition","recorded_at","source_code_version","ip","user_agent","device","browser","browser_version","platform","platform_version","referer","accept_language","ppt_id","age","race","ethnicity","gender","exp_duration","rt","view_history","stimulus","response","phase","order","effect","t_high","category","d1_best","d2_best","d1_worst1","d2_worst1","d1_worst2","d2_worst2","first_dim","d1_t","d1_c","d1_d","d2_t","d2_c","d2_d","d1_name","d2_name","strategy_response","question_order"
"true","false","[]","[]","[]","img preload","preload","0","169","0.0-0.0","105","1","2025-04-11 14:50:02","bb671e3ae32f654b8954ea4c4635f915","","Mozilla/5.0 (Macintosh; Intel Mac OS X 10_15_7) AppleWebKit/537.36 (KHTML, like Gecko) Chrome/116.0.0.0 Safari/537.36","Macintosh","Chrome","116.0.0.0","OS X","10_15_7","https://hz8g1ckzuq.cognition.run/","en-US,en;q=0.9","msn973wp0y6tabm","33","[""White""]","No","Male","1710665.4000000358","","","","","","","","","","","","","","","","","","","","","","","","","",""
"true","","","","","","fullscreen","1","3662","0.0-1.0","105","1","2025-04-11 14:50:02","bb671e3ae32f654b8954ea4c4635f915","","Mozilla/5.0 (Macintosh; Intel Mac OS X 10_15_7) AppleWebKit/537.36 (KHTML, like Gecko) Chrome/116.0.0.0 Safari/537.36","Macintosh","Chrome","116.0.0.0","OS X","10_15_7","https://hz8g1ckzuq.cognition.run/","en-US,en;q=0.9","msn973wp0y6tabm","33","[""White""]","No","Male","1710665.4000000358","2482","","","","","","","","","","","","","","","","","","","","","","","","",""
"","","","","","","instructions","2","402541","0.0-2.0","105","1","2025-04-11 14:50:02","bb671e3ae32f654b8954ea4c4635f915","","Mozilla/5.0 (Macintosh; Intel Mac OS X 10_15_7) AppleWebKit/537.36 (KHTML, like Gecko) Chrome/116.0.0.0 Safari/537.36","Macintosh","Chrome","116.0.0.0","OS X","10_15_7","https://hz8g1ckzuq.cognition.run/","en-US,en;q=0.9","msn973wp0y6tabm","33","[""White""]","No","Male","1710665.4000000358","398872","[{""page_index"":0,""viewing_time"":2278},{""page_index"":1,""viewing_time"":7908},{""page_index"":2,""viewing_time"":3298},{""page_index"":3,""viewing_time"":5453},{""page_index"":4,""viewing_time"":208714},{""page_index"":5,""viewing_time"":11504},{""page_index"":6,""viewing_time"":3394},{""page_index"":7,""viewing_time"":5615},{""page_index"":8,""viewing_time"":2911},{""page_index"":9,""viewing_time"":147794}]","","","","","","","","","","","","","","","","","","","","","","","",""
"","","","","","rating_trial_setup","html-keyboard-response","3","402852","0.0-3.0-0.0","105","1","2025-04-11 14:50:02","bb671e3ae32f654b8954ea4c4635f915","","Mozilla/5.0 (Macintosh; Intel Mac OS X 10_15_7) AppleWebKit/537.36 (KHTML, like Gecko) Chrome/116.0.0.0 Safari/537.36","Macintosh","Chrome","116.0.0.0","OS X","10_15_7","https://hz8g1ckzuq.cognition.run/","en-US,en;q=0.9","msn973wp0y6tabm","33","[""White""]","No","Male","1710665.4000000358","null","","<p></p>","null","rating","cdt","attraction_1","1","washing machines","null","null","null","null","null","null","2","","","","","","","","","",""
"","","","","","rating_trial","survey-html-form","4","439235","0.0-3.0-1.0","105","1","2025-04-11 14:50:02","bb671e3ae32f654b8954ea4c4635f915","","Mozilla/5.0 (Macintosh; Intel Mac OS X 10_15_7) AppleWebKit/537.36 (KHTML, like Gecko) Chrome/116.0.0.0 Safari/537.36","Macintosh","Chrome","116.0.0.0","OS X","10_15_7","https://hz8g1ckzuq.cognition.run/","en-US,en;q=0.9","msn973wp0y6tabm","33","[""White""]","No","Male","1710665.4000000358","36372","","","{""price_1"":""1000"",""price_2"":""700"",""price_3"":""850""}","rating","cdt","attraction_1","1","washing machines","null","null","null","null","null","null","2","60","50","60","50","60","45","Average lifespan","Energy savings","",""
"","","","","","rating_trial_setup","html-keyboard-response","5","439546","0.0-3.0-0.1","105","1","2025-04-11 14:50:02","bb671e3ae32f654b8954ea4c4635f915","","Mozilla/5.0 (Macintosh; Intel Mac OS X 10_15_7) AppleWebKit/537.36 (KHTML, like Gecko) Chrome/116.0.0.0 Safari/537.36","Macintosh","Chrome","116.0.0.0","OS X","10_15_7","https://hz8g1ckzuq.cognition.run/","en-US,en;q=0.9","msn973wp0y6tabm","33","[""White""]","No","Male","1710665.4000000358","null","","<p></p>","null","rating","tcd","repulsion_2","2","televisions","null","null","null","null","null","null","1","","","","","","","","","",""
"","","","","","rating_trial","survey-html-form","6","472242","0.0-3.0-1.1","105","1","2025-04-11 14:50:02","bb671e3ae32f654b8954ea4c4635f915","","Mozilla/5.0 (Macintosh; Intel Mac OS X 10_15_7) AppleWebKit/537.36 (KHTML, like Gecko) Chrome/116.0.0.0 Safari/537.36","Macintosh","Chrome","116.0.0.0","OS X","10_15_7","https://hz8g1ckzuq.cognition.run/","en-US,en;q=0.9","msn973wp0y6tabm","33","[""White""]","No","Male","1710665.4000000358","32694","","","{""price_1"":""200"",""price_2"":""300"",""price_3"":""180""}","rating","tcd","repulsion_2","2","televisions","null","null","null","null","null","null","1","30","40","20","100","90","100","Screen size","Average lifespan","",""
"","","","","","rating_trial_setup","html-keyboard-response","7","472554","0.0-3.0-0.2","105","1","2025-04-11 14:50:02","bb671e3ae32f654b8954ea4c4635f915","","Mozilla/5.0 (Macintosh; Intel Mac OS X 10_15_7) AppleWebKit/537.36 (KHTML, like Gecko) Chrome/116.0.0.0 Safari/537.36","Macintosh","Chrome","116.0.0.0","OS X","10_15_7","https://hz8g1ckzuq.cognition.run/","en-US,en;q=0.9","msn973wp0y6tabm","33","[""White""]","No","Male","1710665.4000000358","null","","<p></p>","null","rating","dct","attraction_2","2","televisions","null","null","null","null","null","null","1","","","","","","","","","",""
"","","","","","rating_trial","survey-html-form","8","499138","0.0-3.0-1.2","105","1","2025-04-11 14:50:02","bb671e3ae32f654b8954ea4c4635f915","","Mozilla/5.0 (Macintosh; Intel Mac OS X 10_15_7) AppleWebKit/537.36 (KHTML, like Gecko) Chrome/116.0.0.0 Safari/537.36","Macintosh","Chrome","116.0.0.0","OS X","10_15_7","https://hz8g1ckzuq.cognition.run/","en-US,en;q=0.9","msn973wp0y6tabm","33","[""White""]","No","Male","1710665.4000000358","26581","","","{""price_1"":""180"",""price_2"":""200"",""price_3"":""200""}","rating","dct","attraction_2","2","televisions","null","null","null","null","null","null","1","50","60","40","60","50","60","Screen size","Average lifespan","",""
"","","","","","rating_trial_setup","html-keyboard-response","9","499446","0.0-3.0-0.3","105","1","2025-04-11 14:50:02","bb671e3ae32f654b8954ea4c4635f915","","Mozilla/5.0 (Macintosh; Intel Mac OS X 10_15_7) AppleWebKit/537.36 (KHTML, like Gecko) Chrome/116.0.0.0 Safari/537.36","Macintosh","Chrome","116.0.0.0","OS X","10_15_7","https://hz8g1ckzuq.cognition.run/","en-US,en;q=0.9","msn973wp0y6tabm","33","[""White""]","No","Male","1710665.4000000358","null","","<p></p>","null","rating","wbw","catch","null","televisions","70","60","5","30","50","50","1","","","","","","","","","",""
"","","","","","rating_trial","survey-html-form","10","514509","0.0-3.0-1.3","105","1","2025-04-11 14:50:02","bb671e3ae32f654b8954ea4c4635f915","","Mozilla/5.0 (Macintosh; Intel Mac OS X 10_15_7) AppleWebKit/537.36 (KHTML, like Gecko) Chrome/116.0.0.0 Safari/537.36","Macintosh","Chrome","116.0.0.0","OS X","10_15_7","https://hz8g1ckzuq.cognition.run/","en-US,en;q=0.9","msn973wp0y6tabm","33","[""White""]","No","Male","1710665.4000000358","15061","","","{""price_1"":""40"",""price_2"":""350"",""price_3"":""200""}","rating","wbw","catch","null","televisions","70","60","5","30","50","50","1","null","null","null","null","null","null","Screen size","Average lifespan","",""
"","","","","","rating_trial_setup","html-keyboard-response","11","514817","0.0-3.0-0.4","105","1","2025-04-11 14:50:02","bb671e3ae32f654b8954ea4c4635f915","","Mozilla/5.0 (Macintosh; Intel Mac OS X 10_15_7) AppleWebKit/537.36 (KHTML, like Gecko) Chrome/116.0.0.0 Safari/537.36","Macintosh","Chrome","116.0.0.0","OS X","10_15_7","https://hz8g1ckzuq.cognition.run/","en-US,en;q=0.9","msn973wp0y6tabm","33","[""White""]","No","Male","1710665.4000000358","null","","<p></p>","null","rating","dtc","repulsion_2","2","microwave ovens","null","null","null","null","null","null","2","","","","","","","","","",""
"","","","","","rating_trial","survey-html-form","12","601808","0.0-3.0-1.4","105","1","2025-04-11 14:50:02","bb671e3ae32f654b8954ea4c4635f915","","Mozilla/5.0 (Macintosh; Intel Mac OS X 10_15_7) AppleWebKit/537.36 (KHTML, like Gecko) Chrome/116.0.0.0 Safari/537.36","Macintosh","Chrome","116.0.0.0","OS X","10_15_7","https://hz8g1ckzuq.cognition.run/","en-US,en;q=0.9","msn973wp0y6tabm","33","[""White""]","No","Male","1710665.4000000358","86988","","","{""price_1"":""500"",""price_2"":""600"",""price_3"":""450""}","rating","dtc","repulsion_2","2","microwave ovens","null","null","null","null","null","null","2","30","40","20","100","90","100","Warranty","Cooking power","",""
"","","","","","rating_trial_setup","html-keyboard-response","13","602112","0.0-3.0-0.5","105","1","2025-04-11 14:50:02","bb671e3ae32f654b8954ea4c4635f915","","Mozilla/5.0 (Macintosh; Intel Mac OS X 10_15_7) AppleWebKit/537.36 (KHTML, like Gecko) Chrome/116.0.0.0 Safari/537.36","Macintosh","Chrome","116.0.0.0","OS X","10_15_7","https://hz8g1ckzuq.cognition.run/","en-US,en;q=0.9","msn973wp0y6tabm","33","[""White""]","No","Male","1710665.4000000358","null","","<p></p>","null","rating","bww","catch","null","washing machines","65","50","35","30","15","25","1","","","","","","","","","",""
"","","","","","rating_trial","survey-html-form","14","612872","0.0-3.0-1.5","105","1","2025-04-11 14:50:02","bb671e3ae32f654b8954ea4c4635f915","","Mozilla/5.0 (Macintosh; Intel Mac OS X 10_15_7) AppleWebKit/537.36 (KHTML, like Gecko) Chrome/116.0.0.0 Safari/537.36","Macintosh","Chrome","116.0.0.0","OS X","10_15_7","https://hz8g1ckzuq.cognition.run/","en-US,en;q=0.9","msn973wp0y6tabm","33","[""White""]","No","Male","1710665.4000000358","10757","","","{""price_1"":""650"",""price_2"":""500"",""price_3"":""400""}","rating","bww","catch","null","washing machines","65","50","35","30","15","25","1","null","null","null","null","null","null","Average lifespan","Energy savings","",""
"","","","","","rating_trial_setup","html-keyboard-response","15","613177","0.0-3.0-0.6","105","1","2025-04-11 14:50:02","bb671e3ae32f654b8954ea4c4635f915","","Mozilla/5.0 (Macintosh; Intel Mac OS X 10_15_7) AppleWebKit/537.36 (KHTML, like Gecko) Chrome/116.0.0.0 Safari/537.36","Macintosh","Chrome","116.0.0.0","OS X","10_15_7","https://hz8g1ckzuq.cognition.run/","en-US,en;q=0.9","msn973wp0y6tabm","33","[""White""]","No","Male","1710665.4000000358","null","","<p></p>","null","rating","wwb","catch","null","microwave ovens","75","60","45","15","45","15","2","","","","","","","","","",""
"","","","","","rating_trial","survey-html-form","16","622940","0.0-3.0-1.6","105","1","2025-04-11 14:50:02","bb671e3ae32f654b8954ea4c4635f915","","Mozilla/5.0 (Macintosh; Intel Mac OS X 10_15_7) AppleWebKit/537.36 (KHTML, like Gecko) Chrome/116.0.0.0 Safari/537.36","Macintosh","Chrome","116.0.0.0","OS X","10_15_7","https://hz8g1ckzuq.cognition.run/","en-US,en;q=0.9","msn973wp0y6tabm","33","[""White""]","No","Male","1710665.4000000358","9761","","","{""price_1"":""400"",""price_2"":""300"",""price_3"":""700""}","rating","wwb","catch","null","microwave ovens","75","60","45","15","45","15","2","null","null","null","null","null","null","Warranty","Cooking power","",""
"","","","","","rating_trial_setup","html-keyboard-response","17","623251","0.0-3.0-0.7","105","1","2025-04-11 14:50:02","bb671e3ae32f654b8954ea4c4635f915","","Mozilla/5.0 (Macintosh; Intel Mac OS X 10_15_7) AppleWebKit/537.36 (KHTML, like Gecko) Chrome/116.0.0.0 Safari/537.36","Macintosh","Chrome","116.0.0.0","OS X","10_15_7","https://hz8g1ckzuq.cognition.run/","en-US,en;q=0.9","msn973wp0y6tabm","33","[""White""]","No","Male","1710665.4000000358","null","","<p></p>","null","rating","dct","repulsion_1","1","washing machines","null","null","null","null","null","null","2","","","","","","","","","",""
"","","","","","rating_trial","survey-html-form","18","644351","0.0-3.0-1.7","105","1","2025-04-11 14:50:02","bb671e3ae32f654b8954ea4c4635f915","","Mozilla/5.0 (Macintosh; Intel Mac OS X 10_15_7) AppleWebKit/537.36 (KHTML, like Gecko) Chrome/116.0.0.0 Safari/537.36","Macintosh","Chrome","116.0.0.0","OS X","10_15_7","https://hz8g1ckzuq.cognition.run/","en-US,en;q=0.9","msn973wp0y6tabm","33","[""White""]","No","Male","1710665.4000000358","21098","","","{""price_1"":""700"",""price_2"":""750"",""price_3"":""720""}","rating","dct","repulsion_1","1","washing machines","null","null","null","null","null","null","2","100","90","100","30","40","25","Average lifespan","Energy savings","",""
"","","","","","rating_trial_setup","html-keyboard-response","19","644657","0.0-3.0-0.8","105","1","2025-04-11 14:50:02","bb671e3ae32f654b8954ea4c4635f915","","Mozilla/5.0 (Macintosh; Intel Mac OS X 10_15_7) AppleWebKit/537.36 (KHTML, like Gecko) Chrome/116.0.0.0 Safari/537.36","Macintosh","Chrome","116.0.0.0","OS X","10_15_7","https://hz8g1ckzuq.cognition.run/","en-US,en;q=0.9","msn973wp0y6tabm","33","[""White""]","No","Male","1710665.4000000358","null","","<p></p>","null","rating","dct","attraction_1","2","microwave ovens","null","null","null","null","null","null","2","","","","","","","","","",""
"","","","","","rating_trial","survey-html-form","20","685804","0.0-3.0-1.8","105","1","2025-04-11 14:50:02","bb671e3ae32f654b8954ea4c4635f915","","Mozilla/5.0 (Macintosh; Intel Mac OS X 10_15_7) AppleWebKit/537.36 (KHTML, like Gecko) Chrome/116.0.0.0 Safari/537.36","Macintosh","Chrome","116.0.0.0","OS X","10_15_7","https://hz8g1ckzuq.cognition.run/","en-US,en;q=0.9","msn973wp0y6tabm","33","[""White""]","No","Male","1710665.4000000358","41144","","","{""price_1"":""500"",""price_2"":""600"",""price_3"":""650""}","rating","dct","attraction_1","2","microwave ovens","null","null","null","null","null","null","2","50","60","45","60","50","60","Warranty","Cooking power","",""
"","","","","","rating_trial_setup","html-keyboard-response","21","686118","0.0-3.0-0.9","105","1","2025-04-11 14:50:02","bb671e3ae32f654b8954ea4c4635f915","","Mozilla/5.0 (Macintosh; Intel Mac OS X 10_15_7) AppleWebKit/537.36 (KHTML, like Gecko) Chrome/116.0.0.0 Safari/537.36","Macintosh","Chrome","116.0.0.0","OS X","10_15_7","https://hz8g1ckzuq.cognition.run/","en-US,en;q=0.9","msn973wp0y6tabm","33","[""White""]","No","Male","1710665.4000000358","null","","<p></p>","null","rating","dct","attraction_2","1","televisions","null","null","null","null","null","null","1","","","","","","","","","",""
"","","","","","rating_trial","survey-html-form","22","706000","0.0-3.0-1.9","105","1","2025-04-11 14:50:02","bb671e3ae32f654b8954ea4c4635f915","","Mozilla/5.0 (Macintosh; Intel Mac OS X 10_15_7) AppleWebKit/537.36 (KHTML, like Gecko) Chrome/116.0.0.0 Safari/537.36","Macintosh","Chrome","116.0.0.0","OS X","10_15_7","https://hz8g1ckzuq.cognition.run/","en-US,en;q=0.9","msn973wp0y6tabm","33","[""White""]","No","Male","1710665.4000000358","19880","","","{""price_1"":""250"",""price_2"":""275"",""price_3"":""275""}","rating","dct","attraction_2","1","televisions","null","null","null","null","null","null","1","60","50","60","50","60","40","Screen size","Average lifespan","",""
"","","","","","rating_trial_setup","html-keyboard-response","23","706305","0.0-3.0-0.10","105","1","2025-04-11 14:50:02","bb671e3ae32f654b8954ea4c4635f915","","Mozilla/5.0 (Macintosh; Intel Mac OS X 10_15_7) AppleWebKit/537.36 (KHTML, like Gecko) Chrome/116.0.0.0 Safari/537.36","Macintosh","Chrome","116.0.0.0","OS X","10_15_7","https://hz8g1ckzuq.cognition.run/","en-US,en;q=0.9","msn973wp0y6tabm","33","[""White""]","No","Male","1710665.4000000358","null","","<p></p>","null","rating","wbw","catch","null","washing machines","80","50","5","45","30","15","2","","","","","","","","","",""
"","","","","","rating_trial","survey-html-form","24","719133","0.0-3.0-1.10","105","1","2025-04-11 14:50:02","bb671e3ae32f654b8954ea4c4635f915","","Mozilla/5.0 (Macintosh; Intel Mac OS X 10_15_7) AppleWebKit/537.36 (KHTML, like Gecko) Chrome/116.0.0.0 Safari/537.36","Macintosh","Chrome","116.0.0.0","OS X","10_15_7","https://hz8g1ckzuq.cognition.run/","en-US,en;q=0.9","msn973wp0y6tabm","33","[""White""]","No","Male","1710665.4000000358","12826","","","{""price_1"":""300"",""price_2"":""750"",""price_3"":""400""}","rating","wbw","catch","null","washing machines","80","50","5","45","30","15","2","null","null","null","null","null","null","Average lifespan","Energy savings","",""
"","","","","","rating_trial_setup","html-keyboard-response","25","719441","0.0-3.0-0.11","105","1","2025-04-11 14:50:02","bb671e3ae32f654b8954ea4c4635f915","","Mozilla/5.0 (Macintosh; Intel Mac OS X 10_15_7) AppleWebKit/537.36 (KHTML, like Gecko) Chrome/116.0.0.0 Safari/537.36","Macintosh","Chrome","116.0.0.0","OS X","10_15_7","https://hz8g1ckzuq.cognition.run/","en-US,en;q=0.9","msn973wp0y6tabm","33","[""White""]","No","Male","1710665.4000000358","null","","<p></p>","null","rating","dtc","attraction_1","1","laptops","null","null","null","null","null","null","1","","","","","","","","","",""
"","","","","","rating_trial","survey-html-form","26","798867","0.0-3.0-1.11","105","1","2025-04-11 14:50:02","bb671e3ae32f654b8954ea4c4635f915","","Mozilla/5.0 (Macintosh; Intel Mac OS X 10_15_7) AppleWebKit/537.36 (KHTML, like Gecko) Chrome/116.0.0.0 Safari/537.36","Macintosh","Chrome","116.0.0.0","OS X","10_15_7","https://hz8g1ckzuq.cognition.run/","en-US,en;q=0.9","msn973wp0y6tabm","33","[""White""]","No","Male","1710665.4000000358","79423","","","{""price_1"":""750"",""price_2"":""850"",""price_3"":""850""}","rating","dtc","attraction_1","1","laptops","null","null","null","null","null","null","1","60","50","60","50","60","45","Processing speed","Memory (RAM)","",""
"","","","","","rating_trial_setup","html-keyboard-response","27","799171","0.0-3.0-0.12","105","1","2025-04-11 14:50:02","bb671e3ae32f654b8954ea4c4635f915","","Mozilla/5.0 (Macintosh; Intel Mac OS X 10_15_7) AppleWebKit/537.36 (KHTML, like Gecko) Chrome/116.0.0.0 Safari/537.36","Macintosh","Chrome","116.0.0.0","OS X","10_15_7","https://hz8g1ckzuq.cognition.run/","en-US,en;q=0.9","msn973wp0y6tabm","33","[""White""]","No","Male","1710665.4000000358","null","","<p></p>","null","rating","dct","attraction_1","1","televisions","null","null","null","null","null","null","1","","","","","","","","","",""
"","","","","","rating_trial","survey-html-form","28","808670","0.0-3.0-1.12","105","1","2025-04-11 14:50:02","bb671e3ae32f654b8954ea4c4635f915","","Mozilla/5.0 (Macintosh; Intel Mac OS X 10_15_7) AppleWebKit/537.36 (KHTML, like Gecko) Chrome/116.0.0.0 Safari/537.36","Macintosh","Chrome","116.0.0.0","OS X","10_15_7","https://hz8g1ckzuq.cognition.run/","en-US,en;q=0.9","msn973wp0y6tabm","33","[""White""]","No","Male","1710665.4000000358","9496","","","{""price_1"":""250"",""price_2"":""300"",""price_3"":""300""}","rating","dct","attraction_1","1","televisions","null","null","null","null","null","null","1","60","50","60","50","60","45","Screen size","Average lifespan","",""
"","","","","","rating_trial_setup","html-keyboard-response","29","808982","0.0-3.0-0.13","105","1","2025-04-11 14:50:02","bb671e3ae32f654b8954ea4c4635f915","","Mozilla/5.0 (Macintosh; Intel Mac OS X 10_15_7) AppleWebKit/537.36 (KHTML, like Gecko) Chrome/116.0.0.0 Safari/537.36","Macintosh","Chrome","116.0.0.0","OS X","10_15_7","https://hz8g1ckzuq.cognition.run/","en-US,en;q=0.9","msn973wp0y6tabm","33","[""White""]","No","Male","1710665.4000000358","null","","<p></p>","null","rating","cdt","repulsion_1","2","laptops","null","null","null","null","null","null","2","","","","","","","","","",""
"","","","","","rating_trial","survey-html-form","30","823617","0.0-3.0-1.13","105","1","2025-04-11 14:50:02","bb671e3ae32f654b8954ea4c4635f915","","Mozilla/5.0 (Macintosh; Intel Mac OS X 10_15_7) AppleWebKit/537.36 (KHTML, like Gecko) Chrome/116.0.0.0 Safari/537.36","Macintosh","Chrome","116.0.0.0","OS X","10_15_7","https://hz8g1ckzuq.cognition.run/","en-US,en;q=0.9","msn973wp0y6tabm","33","[""White""]","No","Male","1710665.4000000358","14632","","","{""price_1"":""900"",""price_2"":""750"",""price_3"":""780""}","rating","cdt","repulsion_1","2","laptops","null","null","null","null","null","null","2","30","40","25","100","90","100","Processing speed","Memory (RAM)","",""
"","","","","","rating_trial_setup","html-keyboard-response","31","823924","0.0-3.0-0.14","105","1","2025-04-11 14:50:02","bb671e3ae32f654b8954ea4c4635f915","","Mozilla/5.0 (Macintosh; Intel Mac OS X 10_15_7) AppleWebKit/537.36 (KHTML, like Gecko) Chrome/116.0.0.0 Safari/537.36","Macintosh","Chrome","116.0.0.0","OS X","10_15_7","https://hz8g1ckzuq.cognition.run/","en-US,en;q=0.9","msn973wp0y6tabm","33","[""White""]","No","Male","1710665.4000000358","null","","<p></p>","null","rating","cdt","attraction_1","2","televisions","null","null","null","null","null","null","2","","","","","","","","","",""
"","","","","","rating_trial","survey-html-form","32","905405","0.0-3.0-1.14","105","1","2025-04-11 14:50:02","bb671e3ae32f654b8954ea4c4635f915","","Mozilla/5.0 (Macintosh; Intel Mac OS X 10_15_7) AppleWebKit/537.36 (KHTML, like Gecko) Chrome/116.0.0.0 Safari/537.36","Macintosh","Chrome","116.0.0.0","OS X","10_15_7","https://hz8g1ckzuq.cognition.run/","en-US,en;q=0.9","msn973wp0y6tabm","33","[""White""]","No","Male","1710665.4000000358","81488","","","{""price_1"":""300"",""price_2"":""280"",""price_3"":""290""}","rating","cdt","attraction_1","2","televisions","null","null","null","null","null","null","2","50","60","45","60","50","60","Screen size","Average lifespan","",""
"","","","","","rating_trial_setup","html-keyboard-response","33","905715","0.0-3.0-0.15","105","1","2025-04-11 14:50:02","bb671e3ae32f654b8954ea4c4635f915","","Mozilla/5.0 (Macintosh; Intel Mac OS X 10_15_7) AppleWebKit/537.36 (KHTML, like Gecko) Chrome/116.0.0.0 Safari/537.36","Macintosh","Chrome","116.0.0.0","OS X","10_15_7","https://hz8g1ckzuq.cognition.run/","en-US,en;q=0.9","msn973wp0y6tabm","33","[""White""]","No","Male","1710665.4000000358","null","","<p></p>","null","rating","tcd","attraction_2","1","washing machines","null","null","null","null","null","null","1","","","","","","","","","",""
"","","","","","rating_trial","survey-html-form","34","915229","0.0-3.0-1.15","105","1","2025-04-11 14:50:02","bb671e3ae32f654b8954ea4c4635f915","","Mozilla/5.0 (Macintosh; Intel Mac OS X 10_15_7) AppleWebKit/537.36 (KHTML, like Gecko) Chrome/116.0.0.0 Safari/537.36","Macintosh","Chrome","116.0.0.0","OS X","10_15_7","https://hz8g1ckzuq.cognition.run/","en-US,en;q=0.9","msn973wp0y6tabm","33","[""White""]","No","Male","1710665.4000000358","9510","","","{""price_1"":""800"",""price_2"":""800"",""price_3"":""750""}","rating","tcd","attraction_2","1","washing machines","null","null","null","null","null","null","1","60","50","60","50","60","40","Average lifespan","Energy savings","",""
"","","","","","rating_trial_setup","html-keyboard-response","35","915532","0.0-3.0-0.16","105","1","2025-04-11 14:50:02","bb671e3ae32f654b8954ea4c4635f915","","Mozilla/5.0 (Macintosh; Intel Mac OS X 10_15_7) AppleWebKit/537.36 (KHTML, like Gecko) Chrome/116.0.0.0 Safari/537.36","Macintosh","Chrome","116.0.0.0","OS X","10_15_7","https://hz8g1ckzuq.cognition.run/","en-US,en;q=0.9","msn973wp0y6tabm","33","[""White""]","No","Male","1710665.4000000358","null","","<p></p>","null","rating","tdc","attraction_1","2","washing machines","null","null","null","null","null","null","1","","","","","","","","","",""
"","","","","","rating_trial","survey-html-form","36","925847","0.0-3.0-1.16","105","1","2025-04-11 14:50:02","bb671e3ae32f654b8954ea4c4635f915","","Mozilla/5.0 (Macintosh; Intel Mac OS X 10_15_7) AppleWebKit/537.36 (KHTML, like Gecko) Chrome/116.0.0.0 Safari/537.36","Macintosh","Chrome","116.0.0.0","OS X","10_15_7","https://hz8g1ckzuq.cognition.run/","en-US,en;q=0.9","msn973wp0y6tabm","33","[""White""]","No","Male","1710665.4000000358","10313","","","{""price_1"":""800"",""price_2"":""750"",""price_3"":""800""}","rating","tdc","attraction_1","2","washing machines","null","null","null","null","null","null","1","50","60","45","60","50","60","Average lifespan","Energy savings","",""
"","","","","","rating_trial_setup","html-keyboard-response","37","926153","0.0-3.0-0.17","105","1","2025-04-11 14:50:02","bb671e3ae32f654b8954ea4c4635f915","","Mozilla/5.0 (Macintosh; Intel Mac OS X 10_15_7) AppleWebKit/537.36 (KHTML, like Gecko) Chrome/116.0.0.0 Safari/537.36","Macintosh","Chrome","116.0.0.0","OS X","10_15_7","https://hz8g1ckzuq.cognition.run/","en-US,en;q=0.9","msn973wp0y6tabm","33","[""White""]","No","Male","1710665.4000000358","null","","<p></p>","null","rating","cdt","attraction_2","1","microwave ovens","null","null","null","null","null","null","1","","","","","","","","","",""
"","","","","","rating_trial","survey-html-form","38","966464","0.0-3.0-1.17","105","1","2025-04-11 14:50:02","bb671e3ae32f654b8954ea4c4635f915","","Mozilla/5.0 (Macintosh; Intel Mac OS X 10_15_7) AppleWebKit/537.36 (KHTML, like Gecko) Chrome/116.0.0.0 Safari/537.36","Macintosh","Chrome","116.0.0.0","OS X","10_15_7","https://hz8g1ckzuq.cognition.run/","en-US,en;q=0.9","msn973wp0y6tabm","33","[""White""]","No","Male","1710665.4000000358","40308","","","{""price_1"":""600"",""price_2"":""500"",""price_3"":""550""}","rating","cdt","attraction_2","1","microwave ovens","null","null","null","null","null","null","1","60","50","60","50","60","40","Warranty","Cooking power","",""
"","","","","","rating_trial_setup","html-keyboard-response","39","966769","0.0-3.0-0.18","105","1","2025-04-11 14:50:02","bb671e3ae32f654b8954ea4c4635f915","","Mozilla/5.0 (Macintosh; Intel Mac OS X 10_15_7) AppleWebKit/537.36 (KHTML, like Gecko) Chrome/116.0.0.0 Safari/537.36","Macintosh","Chrome","116.0.0.0","OS X","10_15_7","https://hz8g1ckzuq.cognition.run/","en-US,en;q=0.9","msn973wp0y6tabm","33","[""White""]","No","Male","1710665.4000000358","null","","<p></p>","null","rating","dct","repulsion_1","1","microwave ovens","null","null","null","null","null","null","2","","","","","","","","","",""
"","","","","","rating_trial","survey-html-form","40","975968","0.0-3.0-1.18","105","1","2025-04-11 14:50:02","bb671e3ae32f654b8954ea4c4635f915","","Mozilla/5.0 (Macintosh; Intel Mac OS X 10_15_7) AppleWebKit/537.36 (KHTML, like Gecko) Chrome/116.0.0.0 Safari/537.36","Macintosh","Chrome","116.0.0.0","OS X","10_15_7","https://hz8g1ckzuq.cognition.run/","en-US,en;q=0.9","msn973wp0y6tabm","33","[""White""]","No","Male","1710665.4000000358","9195","","","{""price_1"":""300"",""price_2"":""500"",""price_3"":""500""}","rating","dct","repulsion_1","1","microwave ovens","null","null","null","null","null","null","2","100","90","100","30","40","25","Warranty","Cooking power","",""
"","","","","","rating_trial_setup","html-keyboard-response","41","976275","0.0-3.0-0.19","105","1","2025-04-11 14:50:02","bb671e3ae32f654b8954ea4c4635f915","","Mozilla/5.0 (Macintosh; Intel Mac OS X 10_15_7) AppleWebKit/537.36 (KHTML, like Gecko) Chrome/116.0.0.0 Safari/537.36","Macintosh","Chrome","116.0.0.0","OS X","10_15_7","https://hz8g1ckzuq.cognition.run/","en-US,en;q=0.9","msn973wp0y6tabm","33","[""White""]","No","Male","1710665.4000000358","null","","<p></p>","null","rating","ctd","repulsion_2","1","microwave ovens","null","null","null","null","null","null","1","","","","","","","","","",""
"","","","","","rating_trial","survey-html-form","42","1255921","0.0-3.0-1.19","105","1","2025-04-11 14:50:02","bb671e3ae32f654b8954ea4c4635f915","","Mozilla/5.0 (Macintosh; Intel Mac OS X 10_15_7) AppleWebKit/537.36 (KHTML, like Gecko) Chrome/116.0.0.0 Safari/537.36","Macintosh","Chrome","116.0.0.0","OS X","10_15_7","https://hz8g1ckzuq.cognition.run/","en-US,en;q=0.9","msn973wp0y6tabm","33","[""White""]","No","Male","1710665.4000000358","279640","","","{""price_1"":""700"",""price_2"":""600"",""price_3"":""500""}","rating","ctd","repulsion_2","1","microwave ovens","null","null","null","null","null","null","1","100","90","100","30","40","20","Warranty","Cooking power","",""
"","","","","","rating_trial_setup","html-keyboard-response","43","1256226","0.0-3.0-0.20","105","1","2025-04-11 14:50:02","bb671e3ae32f654b8954ea4c4635f915","","Mozilla/5.0 (Macintosh; Intel Mac OS X 10_15_7) AppleWebKit/537.36 (KHTML, like Gecko) Chrome/116.0.0.0 Safari/537.36","Macintosh","Chrome","116.0.0.0","OS X","10_15_7","https://hz8g1ckzuq.cognition.run/","en-US,en;q=0.9","msn973wp0y6tabm","33","[""White""]","No","Male","1710665.4000000358","null","","<p></p>","null","rating","dct","repulsion_2","2","washing machines","null","null","null","null","null","null","1","","","","","","","","","",""
"","","","","","rating_trial","survey-html-form","44","1265567","0.0-3.0-1.20","105","1","2025-04-11 14:50:02","bb671e3ae32f654b8954ea4c4635f915","","Mozilla/5.0 (Macintosh; Intel Mac OS X 10_15_7) AppleWebKit/537.36 (KHTML, like Gecko) Chrome/116.0.0.0 Safari/537.36","Macintosh","Chrome","116.0.0.0","OS X","10_15_7","https://hz8g1ckzuq.cognition.run/","en-US,en;q=0.9","msn973wp0y6tabm","33","[""White""]","No","Male","1710665.4000000358","9339","","","{""price_1"":""600"",""price_2"":""700"",""price_3"":""650""}","rating","dct","repulsion_2","2","washing machines","null","null","null","null","null","null","1","30","40","20","100","90","100","Average lifespan","Energy savings","",""
"","","","","","rating_trial_setup","html-keyboard-response","45","1265872","0.0-3.0-0.21","105","1","2025-04-11 14:50:02","bb671e3ae32f654b8954ea4c4635f915","","Mozilla/5.0 (Macintosh; Intel Mac OS X 10_15_7) AppleWebKit/537.36 (KHTML, like Gecko) Chrome/116.0.0.0 Safari/537.36","Macintosh","Chrome","116.0.0.0","OS X","10_15_7","https://hz8g1ckzuq.cognition.run/","en-US,en;q=0.9","msn973wp0y6tabm","33","[""White""]","No","Male","1710665.4000000358","null","","<p></p>","null","rating","ctd","attraction_2","2","microwave ovens","null","null","null","null","null","null","1","","","","","","","","","",""
"","","","","","rating_trial","survey-html-form","46","1276449","0.0-3.0-1.21","105","1","2025-04-11 14:50:02","bb671e3ae32f654b8954ea4c4635f915","","Mozilla/5.0 (Macintosh; Intel Mac OS X 10_15_7) AppleWebKit/537.36 (KHTML, like Gecko) Chrome/116.0.0.0 Safari/537.36","Macintosh","Chrome","116.0.0.0","OS X","10_15_7","https://hz8g1ckzuq.cognition.run/","en-US,en;q=0.9","msn973wp0y6tabm","33","[""White""]","No","Male","1710665.4000000358","10574","","","{""price_1"":""700"",""price_2"":""650"",""price_3"":""625""}","rating","ctd","attraction_2","2","microwave ovens","null","null","null","null","null","null","1","50","60","40","60","50","60","Warranty","Cooking power","",""
"","","","","","rating_trial_setup","html-keyboard-response","47","1276754","0.0-3.0-0.22","105","1","2025-04-11 14:50:02","bb671e3ae32f654b8954ea4c4635f915","","Mozilla/5.0 (Macintosh; Intel Mac OS X 10_15_7) AppleWebKit/537.36 (KHTML, like Gecko) Chrome/116.0.0.0 Safari/537.36","Macintosh","Chrome","116.0.0.0","OS X","10_15_7","https://hz8g1ckzuq.cognition.run/","en-US,en;q=0.9","msn973wp0y6tabm","33","[""White""]","No","Male","1710665.4000000358","null","","<p></p>","null","rating","cdt","repulsion_2","1","televisions","null","null","null","null","null","null","1","","","","","","","","","",""
"","","","","","rating_trial","survey-html-form","48","1285747","0.0-3.0-1.22","105","1","2025-04-11 14:50:02","bb671e3ae32f654b8954ea4c4635f915","","Mozilla/5.0 (Macintosh; Intel Mac OS X 10_15_7) AppleWebKit/537.36 (KHTML, like Gecko) Chrome/116.0.0.0 Safari/537.36","Macintosh","Chrome","116.0.0.0","OS X","10_15_7","https://hz8g1ckzuq.cognition.run/","en-US,en;q=0.9","msn973wp0y6tabm","33","[""White""]","No","Male","1710665.4000000358","8990","","","{""price_1"":""300"",""price_2"":""200"",""price_3"":""225""}","rating","cdt","repulsion_2","1","televisions","null","null","null","null","null","null","1","100","90","100","30","40","20","Screen size","Average lifespan","",""
"","","","","","rating_trial_setup","html-keyboard-response","49","1286052","0.0-3.0-0.23","105","1","2025-04-11 14:50:02","bb671e3ae32f654b8954ea4c4635f915","","Mozilla/5.0 (Macintosh; Intel Mac OS X 10_15_7) AppleWebKit/537.36 (KHTML, like Gecko) Chrome/116.0.0.0 Safari/537.36","Macintosh","Chrome","116.0.0.0","OS X","10_15_7","https://hz8g1ckzuq.cognition.run/","en-US,en;q=0.9","msn973wp0y6tabm","33","[""White""]","No","Male","1710665.4000000358","null","","<p></p>","null","rating","tdc","attraction_1","1","microwave ovens","null","null","null","null","null","null","1","","","","","","","","","",""
"","","","","","rating_trial","survey-html-form","50","1291801","0.0-3.0-1.23","105","1","2025-04-11 14:50:02","bb671e3ae32f654b8954ea4c4635f915","","Mozilla/5.0 (Macintosh; Intel Mac OS X 10_15_7) AppleWebKit/537.36 (KHTML, like Gecko) Chrome/116.0.0.0 Safari/537.36","Macintosh","Chrome","116.0.0.0","OS X","10_15_7","https://hz8g1ckzuq.cognition.run/","en-US,en;q=0.9","msn973wp0y6tabm","33","[""White""]","No","Male","1710665.4000000358","5745","","","{""price_1"":""700"",""price_2"":""600"",""price_3"":""650""}","rating","tdc","attraction_1","1","microwave ovens","null","null","null","null","null","null","1","60","50","60","50","60","45","Warranty","Cooking power","",""
"","","","","","rating_trial_setup","html-keyboard-response","51","1292106","0.0-3.0-0.24","105","1","2025-04-11 14:50:02","bb671e3ae32f654b8954ea4c4635f915","","Mozilla/5.0 (Macintosh; Intel Mac OS X 10_15_7) AppleWebKit/537.36 (KHTML, like Gecko) Chrome/116.0.0.0 Safari/537.36","Macintosh","Chrome","116.0.0.0","OS X","10_15_7","https://hz8g1ckzuq.cognition.run/","en-US,en;q=0.9","msn973wp0y6tabm","33","[""White""]","No","Male","1710665.4000000358","null","","<p></p>","null","rating","tcd","repulsion_2","1","washing machines","null","null","null","null","null","null","2","","","","","","","","","",""
"","","","","","rating_trial","survey-html-form","52","1299522","0.0-3.0-1.24","105","1","2025-04-11 14:50:02","bb671e3ae32f654b8954ea4c4635f915","","Mozilla/5.0 (Macintosh; Intel Mac OS X 10_15_7) AppleWebKit/537.36 (KHTML, like Gecko) Chrome/116.0.0.0 Safari/537.36","Macintosh","Chrome","116.0.0.0","OS X","10_15_7","https://hz8g1ckzuq.cognition.run/","en-US,en;q=0.9","msn973wp0y6tabm","33","[""White""]","No","Male","1710665.4000000358","7413","","","{""price_1"":""800"",""price_2"":""850"",""price_3"":""700""}","rating","tcd","repulsion_2","1","washing machines","null","null","null","null","null","null","2","100","90","100","30","40","20","Average lifespan","Energy savings","",""
"","","","","","rating_trial_setup","html-keyboard-response","53","1299826","0.0-3.0-0.25","105","1","2025-04-11 14:50:02","bb671e3ae32f654b8954ea4c4635f915","","Mozilla/5.0 (Macintosh; Intel Mac OS X 10_15_7) AppleWebKit/537.36 (KHTML, like Gecko) Chrome/116.0.0.0 Safari/537.36","Macintosh","Chrome","116.0.0.0","OS X","10_15_7","https://hz8g1ckzuq.cognition.run/","en-US,en;q=0.9","msn973wp0y6tabm","33","[""White""]","No","Male","1710665.4000000358","null","","<p></p>","null","rating","wwb","catch","null","televisions","55","75","50","20","45","15","1","","","","","","","","","",""
"","","","","","rating_trial","survey-html-form","54","1314867","0.0-3.0-1.25","105","1","2025-04-11 14:50:02","bb671e3ae32f654b8954ea4c4635f915","","Mozilla/5.0 (Macintosh; Intel Mac OS X 10_15_7) AppleWebKit/537.36 (KHTML, like Gecko) Chrome/116.0.0.0 Safari/537.36","Macintosh","Chrome","116.0.0.0","OS X","10_15_7","https://hz8g1ckzuq.cognition.run/","en-US,en;q=0.9","msn973wp0y6tabm","33","[""White""]","No","Male","1710665.4000000358","15037","","","{""price_1"":""200"",""price_2"":""125"",""price_3"":""250""}","rating","wwb","catch","null","televisions","55","75","50","20","45","15","1","null","null","null","null","null","null","Screen size","Average lifespan","",""
"","","","","","rating_trial_setup","html-keyboard-response","55","1315171","0.0-3.0-0.26","105","1","2025-04-11 14:50:02","bb671e3ae32f654b8954ea4c4635f915","","Mozilla/5.0 (Macintosh; Intel Mac OS X 10_15_7) AppleWebKit/537.36 (KHTML, like Gecko) Chrome/116.0.0.0 Safari/537.36","Macintosh","Chrome","116.0.0.0","OS X","10_15_7","https://hz8g1ckzuq.cognition.run/","en-US,en;q=0.9","msn973wp0y6tabm","33","[""White""]","No","Male","1710665.4000000358","null","","<p></p>","null","rating","ctd","attraction_1","2","laptops","null","null","null","null","null","null","1","","","","","","","","","",""
"","","","","","rating_trial","survey-html-form","56","1322995","0.0-3.0-1.26","105","1","2025-04-11 14:50:02","bb671e3ae32f654b8954ea4c4635f915","","Mozilla/5.0 (Macintosh; Intel Mac OS X 10_15_7) AppleWebKit/537.36 (KHTML, like Gecko) Chrome/116.0.0.0 Safari/537.36","Macintosh","Chrome","116.0.0.0","OS X","10_15_7","https://hz8g1ckzuq.cognition.run/","en-US,en;q=0.9","msn973wp0y6tabm","33","[""White""]","No","Male","1710665.4000000358","7821","","","{""price_1"":""800"",""price_2"":""750"",""price_3"":""700""}","rating","ctd","attraction_1","2","laptops","null","null","null","null","null","null","1","50","60","45","60","50","60","Processing speed","Memory (RAM)","",""
"","","","","","rating_trial_setup","html-keyboard-response","57","1323310","0.0-3.0-0.27","105","1","2025-04-11 14:50:02","bb671e3ae32f654b8954ea4c4635f915","","Mozilla/5.0 (Macintosh; Intel Mac OS X 10_15_7) AppleWebKit/537.36 (KHTML, like Gecko) Chrome/116.0.0.0 Safari/537.36","Macintosh","Chrome","116.0.0.0","OS X","10_15_7","https://hz8g1ckzuq.cognition.run/","en-US,en;q=0.9","msn973wp0y6tabm","33","[""White""]","No","Male","1710665.4000000358","null","","<p></p>","null","rating","bww","catch","null","microwave ovens","85","90","35","45","25","20","1","","","","","","","","","",""
"","","","","","rating_trial","survey-html-form","58","1333153","0.0-3.0-1.27","105","1","2025-04-11 14:50:02","bb671e3ae32f654b8954ea4c4635f915","","Mozilla/5.0 (Macintosh; Intel Mac OS X 10_15_7) AppleWebKit/537.36 (KHTML, like Gecko) Chrome/116.0.0.0 Safari/537.36","Macintosh","Chrome","116.0.0.0","OS X","10_15_7","https://hz8g1ckzuq.cognition.run/","en-US,en;q=0.9","msn973wp0y6tabm","33","[""White""]","No","Male","1710665.4000000358","9840","","","{""price_1"":""1000"",""price_2"":""700"",""price_3"":""500""}","rating","bww","catch","null","microwave ovens","85","90","35","45","25","20","1","null","null","null","null","null","null","Warranty","Cooking power","",""
"","","","","","rating_trial_setup","html-keyboard-response","59","1333458","0.0-3.0-0.28","105","1","2025-04-11 14:50:02","bb671e3ae32f654b8954ea4c4635f915","","Mozilla/5.0 (Macintosh; Intel Mac OS X 10_15_7) AppleWebKit/537.36 (KHTML, like Gecko) Chrome/116.0.0.0 Safari/537.36","Macintosh","Chrome","116.0.0.0","OS X","10_15_7","https://hz8g1ckzuq.cognition.run/","en-US,en;q=0.9","msn973wp0y6tabm","33","[""White""]","No","Male","1710665.4000000358","null","","<p></p>","null","rating","ctd","repulsion_1","2","televisions","null","null","null","null","null","null","1","","","","","","","","","",""
"","","","","","rating_trial","survey-html-form","60","1342757","0.0-3.0-1.28","105","1","2025-04-11 14:50:02","bb671e3ae32f654b8954ea4c4635f915","","Mozilla/5.0 (Macintosh; Intel Mac OS X 10_15_7) AppleWebKit/537.36 (KHTML, like Gecko) Chrome/116.0.0.0 Safari/537.36","Macintosh","Chrome","116.0.0.0","OS X","10_15_7","https://hz8g1ckzuq.cognition.run/","en-US,en;q=0.9","msn973wp0y6tabm","33","[""White""]","No","Male","1710665.4000000358","9296","","","{""price_1"":""200"",""price_2"":""180"",""price_3"":""150""}","rating","ctd","repulsion_1","2","televisions","null","null","null","null","null","null","1","30","40","25","100","90","100","Screen size","Average lifespan","",""
"","","","","","rating_trial_setup","html-keyboard-response","61","1343067","0.0-3.0-0.29","105","1","2025-04-11 14:50:02","bb671e3ae32f654b8954ea4c4635f915","","Mozilla/5.0 (Macintosh; Intel Mac OS X 10_15_7) AppleWebKit/537.36 (KHTML, like Gecko) Chrome/116.0.0.0 Safari/537.36","Macintosh","Chrome","116.0.0.0","OS X","10_15_7","https://hz8g1ckzuq.cognition.run/","en-US,en;q=0.9","msn973wp0y6tabm","33","[""White""]","No","Male","1710665.4000000358","null","","<p></p>","null","rating","dct","repulsion_2","2","laptops","null","null","null","null","null","null","1","","","","","","","","","",""
"","","","","","rating_trial","survey-html-form","62","1355657","0.0-3.0-1.29","105","1","2025-04-11 14:50:02","bb671e3ae32f654b8954ea4c4635f915","","Mozilla/5.0 (Macintosh; Intel Mac OS X 10_15_7) AppleWebKit/537.36 (KHTML, like Gecko) Chrome/116.0.0.0 Safari/537.36","Macintosh","Chrome","116.0.0.0","OS X","10_15_7","https://hz8g1ckzuq.cognition.run/","en-US,en;q=0.9","msn973wp0y6tabm","33","[""White""]","No","Male","1710665.4000000358","12587","","","{""price_1"":""800"",""price_2"":""850"",""price_3"":""780""}","rating","dct","repulsion_2","2","laptops","null","null","null","null","null","null","1","30","40","20","100","90","100","Processing speed","Memory (RAM)","",""
"","","","","","rating_trial_setup","html-keyboard-response","63","1355967","0.0-3.0-0.30","105","1","2025-04-11 14:50:02","bb671e3ae32f654b8954ea4c4635f915","","Mozilla/5.0 (Macintosh; Intel Mac OS X 10_15_7) AppleWebKit/537.36 (KHTML, like Gecko) Chrome/116.0.0.0 Safari/537.36","Macintosh","Chrome","116.0.0.0","OS X","10_15_7","https://hz8g1ckzuq.cognition.run/","en-US,en;q=0.9","msn973wp0y6tabm","33","[""White""]","No","Male","1710665.4000000358","null","","<p></p>","null","rating","tcd","repulsion_1","2","washing machines","null","null","null","null","null","null","1","","","","","","","","","",""
"","","","","","rating_trial","survey-html-form","64","1371207","0.0-3.0-1.30","105","1","2025-04-11 14:50:02","bb671e3ae32f654b8954ea4c4635f915","","Mozilla/5.0 (Macintosh; Intel Mac OS X 10_15_7) AppleWebKit/537.36 (KHTML, like Gecko) Chrome/116.0.0.0 Safari/537.36","Macintosh","Chrome","116.0.0.0","OS X","10_15_7","https://hz8g1ckzuq.cognition.run/","en-US,en;q=0.9","msn973wp0y6tabm","33","[""White""]","No","Male","1710665.4000000358","15236","","","{""price_1"":""700"",""price_2"":""800"",""price_3"":""680""}","rating","tcd","repulsion_1","2","washing machines","null","null","null","null","null","null","1","30","40","25","100","90","100","Average lifespan","Energy savings","",""
"","","","","","rating_trial_setup","html-keyboard-response","65","1371517","0.0-3.0-0.31","105","1","2025-04-11 14:50:02","bb671e3ae32f654b8954ea4c4635f915","","Mozilla/5.0 (Macintosh; Intel Mac OS X 10_15_7) AppleWebKit/537.36 (KHTML, like Gecko) Chrome/116.0.0.0 Safari/537.36","Macintosh","Chrome","116.0.0.0","OS X","10_15_7","https://hz8g1ckzuq.cognition.run/","en-US,en;q=0.9","msn973wp0y6tabm","33","[""White""]","No","Male","1710665.4000000358","null","","<p></p>","null","rating","tcd","attraction_2","1","laptops","null","null","null","null","null","null","1","","","","","","","","","",""
"","","","","","rating_trial","survey-html-form","66","1398471","0.0-3.0-1.31","105","1","2025-04-11 14:50:02","bb671e3ae32f654b8954ea4c4635f915","","Mozilla/5.0 (Macintosh; Intel Mac OS X 10_15_7) AppleWebKit/537.36 (KHTML, like Gecko) Chrome/116.0.0.0 Safari/537.36","Macintosh","Chrome","116.0.0.0","OS X","10_15_7","https://hz8g1ckzuq.cognition.run/","en-US,en;q=0.9","msn973wp0y6tabm","33","[""White""]","No","Male","1710665.4000000358","26951","","","{""price_1"":""800"",""price_2"":""750"",""price_3"":""750""}","rating","tcd","attraction_2","1","laptops","null","null","null","null","null","null","1","60","50","60","50","60","40","Processing speed","Memory (RAM)","",""
"","","","","","rating_trial_setup","html-keyboard-response","67","1398779","0.0-3.0-0.32","105","1","2025-04-11 14:50:02","bb671e3ae32f654b8954ea4c4635f915","","Mozilla/5.0 (Macintosh; Intel Mac OS X 10_15_7) AppleWebKit/537.36 (KHTML, like Gecko) Chrome/116.0.0.0 Safari/537.36","Macintosh","Chrome","116.0.0.0","OS X","10_15_7","https://hz8g1ckzuq.cognition.run/","en-US,en;q=0.9","msn973wp0y6tabm","33","[""White""]","No","Male","1710665.4000000358","null","","<p></p>","null","rating","tdc","attraction_2","2","washing machines","null","null","null","null","null","null","2","","","","","","","","","",""
"","","","","","rating_trial","survey-html-form","68","1407393","0.0-3.0-1.32","105","1","2025-04-11 14:50:02","bb671e3ae32f654b8954ea4c4635f915","","Mozilla/5.0 (Macintosh; Intel Mac OS X 10_15_7) AppleWebKit/537.36 (KHTML, like Gecko) Chrome/116.0.0.0 Safari/537.36","Macintosh","Chrome","116.0.0.0","OS X","10_15_7","https://hz8g1ckzuq.cognition.run/","en-US,en;q=0.9","msn973wp0y6tabm","33","[""White""]","No","Male","1710665.4000000358","8611","","","{""price_1"":""800"",""price_2"":""700"",""price_3"":""700""}","rating","tdc","attraction_2","2","washing machines","null","null","null","null","null","null","2","50","60","40","60","50","60","Average lifespan","Energy savings","",""
"","","","","","rating_trial_setup","html-keyboard-response","69","1407701","0.0-3.0-0.33","105","1","2025-04-11 14:50:02","bb671e3ae32f654b8954ea4c4635f915","","Mozilla/5.0 (Macintosh; Intel Mac OS X 10_15_7) AppleWebKit/537.36 (KHTML, like Gecko) Chrome/116.0.0.0 Safari/537.36","Macintosh","Chrome","116.0.0.0","OS X","10_15_7","https://hz8g1ckzuq.cognition.run/","en-US,en;q=0.9","msn973wp0y6tabm","33","[""White""]","No","Male","1710665.4000000358","null","","<p></p>","null","rating","cdt","repulsion_1","2","microwave ovens","null","null","null","null","null","null","1","","","","","","","","","",""
"","","","","","rating_trial","survey-html-form","70","1417587","0.0-3.0-1.33","105","1","2025-04-11 14:50:02","bb671e3ae32f654b8954ea4c4635f915","","Mozilla/5.0 (Macintosh; Intel Mac OS X 10_15_7) AppleWebKit/537.36 (KHTML, like Gecko) Chrome/116.0.0.0 Safari/537.36","Macintosh","Chrome","116.0.0.0","OS X","10_15_7","https://hz8g1ckzuq.cognition.run/","en-US,en;q=0.9","msn973wp0y6tabm","33","[""White""]","No","Male","1710665.4000000358","9882","","","{""price_1"":""500"",""price_2"":""400"",""price_3"":""380""}","rating","cdt","repulsion_1","2","microwave ovens","null","null","null","null","null","null","1","30","40","25","100","90","100","Warranty","Cooking power","",""
"","","","","","rating_trial_setup","html-keyboard-response","71","1417900","0.0-3.0-0.34","105","1","2025-04-11 14:50:02","bb671e3ae32f654b8954ea4c4635f915","","Mozilla/5.0 (Macintosh; Intel Mac OS X 10_15_7) AppleWebKit/537.36 (KHTML, like Gecko) Chrome/116.0.0.0 Safari/537.36","Macintosh","Chrome","116.0.0.0","OS X","10_15_7","https://hz8g1ckzuq.cognition.run/","en-US,en;q=0.9","msn973wp0y6tabm","33","[""White""]","No","Male","1710665.4000000358","null","","<p></p>","null","rating","dtc","repulsion_2","1","laptops","null","null","null","null","null","null","2","","","","","","","","","",""
"","","","","","rating_trial","survey-html-form","72","1428361","0.0-3.0-1.34","105","1","2025-04-11 14:50:02","bb671e3ae32f654b8954ea4c4635f915","","Mozilla/5.0 (Macintosh; Intel Mac OS X 10_15_7) AppleWebKit/537.36 (KHTML, like Gecko) Chrome/116.0.0.0 Safari/537.36","Macintosh","Chrome","116.0.0.0","OS X","10_15_7","https://hz8g1ckzuq.cognition.run/","en-US,en;q=0.9","msn973wp0y6tabm","33","[""White""]","No","Male","1710665.4000000358","10456","","","{""price_1"":""700"",""price_2"":""750"",""price_3"":""780""}","rating","dtc","repulsion_2","1","laptops","null","null","null","null","null","null","2","100","90","100","30","40","20","Processing speed","Memory (RAM)","",""
"","","","","","rating_trial_setup","html-keyboard-response","73","1428668","0.0-3.0-0.35","105","1","2025-04-11 14:50:02","bb671e3ae32f654b8954ea4c4635f915","","Mozilla/5.0 (Macintosh; Intel Mac OS X 10_15_7) AppleWebKit/537.36 (KHTML, like Gecko) Chrome/116.0.0.0 Safari/537.36","Macintosh","Chrome","116.0.0.0","OS X","10_15_7","https://hz8g1ckzuq.cognition.run/","en-US,en;q=0.9","msn973wp0y6tabm","33","[""White""]","No","Male","1710665.4000000358","null","","<p></p>","null","rating","tdc","repulsion_1","1","laptops","null","null","null","null","null","null","2","","","","","","","","","",""
"","","","","","rating_trial","survey-html-form","74","1448870","0.0-3.0-1.35","105","1","2025-04-11 14:50:02","bb671e3ae32f654b8954ea4c4635f915","","Mozilla/5.0 (Macintosh; Intel Mac OS X 10_15_7) AppleWebKit/537.36 (KHTML, like Gecko) Chrome/116.0.0.0 Safari/537.36","Macintosh","Chrome","116.0.0.0","OS X","10_15_7","https://hz8g1ckzuq.cognition.run/","en-US,en;q=0.9","msn973wp0y6tabm","33","[""White""]","No","Male","1710665.4000000358","20197","","","{""price_1"":""700"",""price_2"":""680"",""price_3"":""680""}","rating","tdc","repulsion_1","1","laptops","null","null","null","null","null","null","2","100","90","100","30","40","25","Processing speed","Memory (RAM)","",""
"","","","","","rating_trial_setup","html-keyboard-response","75","1449182","0.0-3.0-0.36","105","1","2025-04-11 14:50:02","bb671e3ae32f654b8954ea4c4635f915","","Mozilla/5.0 (Macintosh; Intel Mac OS X 10_15_7) AppleWebKit/537.36 (KHTML, like Gecko) Chrome/116.0.0.0 Safari/537.36","Macintosh","Chrome","116.0.0.0","OS X","10_15_7","https://hz8g1ckzuq.cognition.run/","en-US,en;q=0.9","msn973wp0y6tabm","33","[""White""]","No","Male","1710665.4000000358","null","","<p></p>","null","rating","dtc","attraction_2","2","laptops","null","null","null","null","null","null","2","","","","","","","","","",""
"","","","","","rating_trial","survey-html-form","76","1460161","0.0-3.0-1.36","105","1","2025-04-11 14:50:02","bb671e3ae32f654b8954ea4c4635f915","","Mozilla/5.0 (Macintosh; Intel Mac OS X 10_15_7) AppleWebKit/537.36 (KHTML, like Gecko) Chrome/116.0.0.0 Safari/537.36","Macintosh","Chrome","116.0.0.0","OS X","10_15_7","https://hz8g1ckzuq.cognition.run/","en-US,en;q=0.9","msn973wp0y6tabm","33","[""White""]","No","Male","1710665.4000000358","10975","","","{""price_1"":""700"",""price_2"":""700"",""price_3"":""700""}","rating","dtc","attraction_2","2","laptops","null","null","null","null","null","null","2","50","60","40","60","50","60","Processing speed","Memory (RAM)","",""
"","","","","","rating_trial_setup","html-keyboard-response","77","1460468","0.0-3.0-0.37","105","1","2025-04-11 14:50:02","bb671e3ae32f654b8954ea4c4635f915","","Mozilla/5.0 (Macintosh; Intel Mac OS X 10_15_7) AppleWebKit/537.36 (KHTML, like Gecko) Chrome/116.0.0.0 Safari/537.36","Macintosh","Chrome","116.0.0.0","OS X","10_15_7","https://hz8g1ckzuq.cognition.run/","en-US,en;q=0.9","msn973wp0y6tabm","33","[""White""]","No","Male","1710665.4000000358","null","","<p></p>","null","rating","wbw","catch","null","laptops","95","75","25","45","5","45","2","","","","","","","","","",""
"","","","","","rating_trial","survey-html-form","78","1471665","0.0-3.0-1.37","105","1","2025-04-11 14:50:02","bb671e3ae32f654b8954ea4c4635f915","","Mozilla/5.0 (Macintosh; Intel Mac OS X 10_15_7) AppleWebKit/537.36 (KHTML, like Gecko) Chrome/116.0.0.0 Safari/537.36","Macintosh","Chrome","116.0.0.0","OS X","10_15_7","https://hz8g1ckzuq.cognition.run/","en-US,en;q=0.9","msn973wp0y6tabm","33","[""White""]","No","Male","1710665.4000000358","11192","","","{""price_1"":""650"",""price_2"":""900"",""price_3"":""600""}","rating","wbw","catch","null","laptops","95","75","25","45","5","45","2","null","null","null","null","null","null","Processing speed","Memory (RAM)","",""
"","","","","","rating_trial_setup","html-keyboard-response","79","1471971","0.0-3.0-0.38","105","1","2025-04-11 14:50:02","bb671e3ae32f654b8954ea4c4635f915","","Mozilla/5.0 (Macintosh; Intel Mac OS X 10_15_7) AppleWebKit/537.36 (KHTML, like Gecko) Chrome/116.0.0.0 Safari/537.36","Macintosh","Chrome","116.0.0.0","OS X","10_15_7","https://hz8g1ckzuq.cognition.run/","en-US,en;q=0.9","msn973wp0y6tabm","33","[""White""]","No","Male","1710665.4000000358","null","","<p></p>","null","rating","wbw","catch","null","laptops","80","90","5","35","40","15","2","","","","","","","","","",""
"","","","","","rating_trial","survey-html-form","80","1481019","0.0-3.0-1.38","105","1","2025-04-11 14:50:02","bb671e3ae32f654b8954ea4c4635f915","","Mozilla/5.0 (Macintosh; Intel Mac OS X 10_15_7) AppleWebKit/537.36 (KHTML, like Gecko) Chrome/116.0.0.0 Safari/537.36","Macintosh","Chrome","116.0.0.0","OS X","10_15_7","https://hz8g1ckzuq.cognition.run/","en-US,en;q=0.9","msn973wp0y6tabm","33","[""White""]","No","Male","1710665.4000000358","9043","","","{""price_1"":""400"",""price_2"":""1000"",""price_3"":""500""}","rating","wbw","catch","null","laptops","80","90","5","35","40","15","2","null","null","null","null","null","null","Processing speed","Memory (RAM)","",""
"","","","","","rating_trial_setup","html-keyboard-response","81","1481331","0.0-3.0-0.39","105","1","2025-04-11 14:50:02","bb671e3ae32f654b8954ea4c4635f915","","Mozilla/5.0 (Macintosh; Intel Mac OS X 10_15_7) AppleWebKit/537.36 (KHTML, like Gecko) Chrome/116.0.0.0 Safari/537.36","Macintosh","Chrome","116.0.0.0","OS X","10_15_7","https://hz8g1ckzuq.cognition.run/","en-US,en;q=0.9","msn973wp0y6tabm","33","[""White""]","No","Male","1710665.4000000358","null","","<p></p>","null","rating","dtc","repulsion_1","1","televisions","null","null","null","null","null","null","2","","","","","","","","","",""
"","","","","","rating_trial","survey-html-form","82","1491886","0.0-3.0-1.39","105","1","2025-04-11 14:50:02","bb671e3ae32f654b8954ea4c4635f915","","Mozilla/5.0 (Macintosh; Intel Mac OS X 10_15_7) AppleWebKit/537.36 (KHTML, like Gecko) Chrome/116.0.0.0 Safari/537.36","Macintosh","Chrome","116.0.0.0","OS X","10_15_7","https://hz8g1ckzuq.cognition.run/","en-US,en;q=0.9","msn973wp0y6tabm","33","[""White""]","No","Male","1710665.4000000358","10550","","","{""price_1"":""200"",""price_2"":""225"",""price_3"":""280""}","rating","dtc","repulsion_1","1","televisions","null","null","null","null","null","null","2","100","90","100","30","40","25","Screen size","Average lifespan","",""
"","","","","","","instructions","83","1522019","0.0-4.0","105","1","2025-04-11 14:50:02","bb671e3ae32f654b8954ea4c4635f915","","Mozilla/5.0 (Macintosh; Intel Mac OS X 10_15_7) AppleWebKit/537.36 (KHTML, like Gecko) Chrome/116.0.0.0 Safari/537.36","Macintosh","Chrome","116.0.0.0","OS X","10_15_7","https://hz8g1ckzuq.cognition.run/","en-US,en;q=0.9","msn973wp0y6tabm","33","[""White""]","No","Male","1710665.4000000358","30125","[{""page_index"":0,""viewing_time"":1243},{""page_index"":1,""viewing_time"":1018},{""page_index"":2,""viewing_time"":2116},{""page_index"":3,""viewing_time"":6387},{""page_index"":4,""viewing_time"":3411},{""page_index"":5,""viewing_time"":3543},{""page_index"":6,""viewing_time"":7644},{""page_index"":7,""viewing_time"":4756}]","","","","","","","","","","","","","","","","","","","","","","","",""
"","","","","","choice_trial_setup","html-keyboard-response","84","1522333","0.0-5.0-0.0","105","1","2025-04-11 14:50:02","bb671e3ae32f654b8954ea4c4635f915","","Mozilla/5.0 (Macintosh; Intel Mac OS X 10_15_7) AppleWebKit/537.36 (KHTML, like Gecko) Chrome/116.0.0.0 Safari/537.36","Macintosh","Chrome","116.0.0.0","OS X","10_15_7","https://hz8g1ckzuq.cognition.run/","en-US,en;q=0.9","msn973wp0y6tabm","33","[""White""]","No","Male","1710665.4000000358","null","","<p></p>","null","choice","ctd","repulsion_2","1","televisions","null","null","null","null","null","null","2","","","","","","","","","",""
"","","","","","choice_trial","survey-html-form","85","1530804","0.0-5.0-1.0","105","1","2025-04-11 14:50:02","bb671e3ae32f654b8954ea4c4635f915","","Mozilla/5.0 (Macintosh; Intel Mac OS X 10_15_7) AppleWebKit/537.36 (KHTML, like Gecko) Chrome/116.0.0.0 Safari/537.36","Macintosh","Chrome","116.0.0.0","OS X","10_15_7","https://hz8g1ckzuq.cognition.run/","en-US,en;q=0.9","msn973wp0y6tabm","33","[""White""]","No","Male","1710665.4000000358","8466","","","{""product_choice"":""B""}","choice","ctd","repulsion_2","1","televisions","null","null","null","null","null","null","2","100","90","100","30","40","20","Screen size","Average lifespan","",""
"","","","","","choice_trial_setup","html-keyboard-response","86","1531116","0.0-5.0-0.1","105","1","2025-04-11 14:50:02","bb671e3ae32f654b8954ea4c4635f915","","Mozilla/5.0 (Macintosh; Intel Mac OS X 10_15_7) AppleWebKit/537.36 (KHTML, like Gecko) Chrome/116.0.0.0 Safari/537.36","Macintosh","Chrome","116.0.0.0","OS X","10_15_7","https://hz8g1ckzuq.cognition.run/","en-US,en;q=0.9","msn973wp0y6tabm","33","[""White""]","No","Male","1710665.4000000358","null","","<p></p>","null","choice","dtc","repulsion_1","1","televisions","null","null","null","null","null","null","2","","","","","","","","","",""
"","","","","","choice_trial","survey-html-form","87","1536036","0.0-5.0-1.1","105","1","2025-04-11 14:50:02","bb671e3ae32f654b8954ea4c4635f915","","Mozilla/5.0 (Macintosh; Intel Mac OS X 10_15_7) AppleWebKit/537.36 (KHTML, like Gecko) Chrome/116.0.0.0 Safari/537.36","Macintosh","Chrome","116.0.0.0","OS X","10_15_7","https://hz8g1ckzuq.cognition.run/","en-US,en;q=0.9","msn973wp0y6tabm","33","[""White""]","No","Male","1710665.4000000358","4917","","","{""product_choice"":""B""}","choice","dtc","repulsion_1","1","televisions","null","null","null","null","null","null","2","100","90","100","30","40","25","Screen size","Average lifespan","",""
"","","","","","choice_trial_setup","html-keyboard-response","88","1536352","0.0-5.0-0.2","105","1","2025-04-11 14:50:02","bb671e3ae32f654b8954ea4c4635f915","","Mozilla/5.0 (Macintosh; Intel Mac OS X 10_15_7) AppleWebKit/537.36 (KHTML, like Gecko) Chrome/116.0.0.0 Safari/537.36","Macintosh","Chrome","116.0.0.0","OS X","10_15_7","https://hz8g1ckzuq.cognition.run/","en-US,en;q=0.9","msn973wp0y6tabm","33","[""White""]","No","Male","1710665.4000000358","null","","<p></p>","null","choice","cdt","attraction_2","2","microwave ovens","null","null","null","null","null","null","2","","","","","","","","","",""
"","","","","","choice_trial","survey-html-form","89","1543719","0.0-5.0-1.2","105","1","2025-04-11 14:50:02","bb671e3ae32f654b8954ea4c4635f915","","Mozilla/5.0 (Macintosh; Intel Mac OS X 10_15_7) AppleWebKit/537.36 (KHTML, like Gecko) Chrome/116.0.0.0 Safari/537.36","Macintosh","Chrome","116.0.0.0","OS X","10_15_7","https://hz8g1ckzuq.cognition.run/","en-US,en;q=0.9","msn973wp0y6tabm","33","[""White""]","No","Male","1710665.4000000358","7363","","","{""product_choice"":""C""}","choice","cdt","attraction_2","2","microwave ovens","null","null","null","null","null","null","2","50","60","40","60","50","60","Warranty","Cooking power","",""
"","","","","","choice_trial_setup","html-keyboard-response","90","1544032","0.0-5.0-0.3","105","1","2025-04-11 14:50:02","bb671e3ae32f654b8954ea4c4635f915","","Mozilla/5.0 (Macintosh; Intel Mac OS X 10_15_7) AppleWebKit/537.36 (KHTML, like Gecko) Chrome/116.0.0.0 Safari/537.36","Macintosh","Chrome","116.0.0.0","OS X","10_15_7","https://hz8g1ckzuq.cognition.run/","en-US,en;q=0.9","msn973wp0y6tabm","33","[""White""]","No","Male","1710665.4000000358","null","","<p></p>","null","choice","dct","repulsion_2","1","microwave ovens","null","null","null","null","null","null","1","","","","","","","","","",""
"","","","","","choice_trial","survey-html-form","91","1548828","0.0-5.0-1.3","105","1","2025-04-11 14:50:02","bb671e3ae32f654b8954ea4c4635f915","","Mozilla/5.0 (Macintosh; Intel Mac OS X 10_15_7) AppleWebKit/537.36 (KHTML, like Gecko) Chrome/116.0.0.0 Safari/537.36","Macintosh","Chrome","116.0.0.0","OS X","10_15_7","https://hz8g1ckzuq.cognition.run/","en-US,en;q=0.9","msn973wp0y6tabm","33","[""White""]","No","Male","1710665.4000000358","4791","","","{""product_choice"":""C""}","choice","dct","repulsion_2","1","microwave ovens","null","null","null","null","null","null","1","100","90","100","30","40","20","Warranty","Cooking power","",""
"","","","","","choice_trial_setup","html-keyboard-response","92","1549140","0.0-5.0-0.4","105","1","2025-04-11 14:50:02","bb671e3ae32f654b8954ea4c4635f915","","Mozilla/5.0 (Macintosh; Intel Mac OS X 10_15_7) AppleWebKit/537.36 (KHTML, like Gecko) Chrome/116.0.0.0 Safari/537.36","Macintosh","Chrome","116.0.0.0","OS X","10_15_7","https://hz8g1ckzuq.cognition.run/","en-US,en;q=0.9","msn973wp0y6tabm","33","[""White""]","No","Male","1710665.4000000358","null","","<p></p>","null","choice","tcd","repulsion_1","2","televisions","null","null","null","null","null","null","2","","","","","","","","","",""
"","","","","","choice_trial","survey-html-form","93","1552264","0.0-5.0-1.4","105","1","2025-04-11 14:50:02","bb671e3ae32f654b8954ea4c4635f915","","Mozilla/5.0 (Macintosh; Intel Mac OS X 10_15_7) AppleWebKit/537.36 (KHTML, like Gecko) Chrome/116.0.0.0 Safari/537.36","Macintosh","Chrome","116.0.0.0","OS X","10_15_7","https://hz8g1ckzuq.cognition.run/","en-US,en;q=0.9","msn973wp0y6tabm","33","[""White""]","No","Male","1710665.4000000358","3118","","","{""product_choice"":""A""}","choice","tcd","repulsion_1","2","televisions","null","null","null","null","null","null","2","30","40","25","100","90","100","Screen size","Average lifespan","",""
"","","","","","choice_trial_setup","html-keyboard-response","94","1552577","0.0-5.0-0.5","105","1","2025-04-11 14:50:02","bb671e3ae32f654b8954ea4c4635f915","","Mozilla/5.0 (Macintosh; Intel Mac OS X 10_15_7) AppleWebKit/537.36 (KHTML, like Gecko) Chrome/116.0.0.0 Safari/537.36","Macintosh","Chrome","116.0.0.0","OS X","10_15_7","https://hz8g1ckzuq.cognition.run/","en-US,en;q=0.9","msn973wp0y6tabm","33","[""White""]","No","Male","1710665.4000000358","null","","<p></p>","null","choice","dct","attraction_2","1","microwave ovens","null","null","null","null","null","null","2","","","","","","","","","",""
"","","","","","choice_trial","survey-html-form","95","1557585","0.0-5.0-1.5","105","1","2025-04-11 14:50:02","bb671e3ae32f654b8954ea4c4635f915","","Mozilla/5.0 (Macintosh; Intel Mac OS X 10_15_7) AppleWebKit/537.36 (KHTML, like Gecko) Chrome/116.0.0.0 Safari/537.36","Macintosh","Chrome","116.0.0.0","OS X","10_15_7","https://hz8g1ckzuq.cognition.run/","en-US,en;q=0.9","msn973wp0y6tabm","33","[""White""]","No","Male","1710665.4000000358","5004","","","{""product_choice"":""B""}","choice","dct","attraction_2","1","microwave ovens","null","null","null","null","null","null","2","60","50","60","50","60","40","Warranty","Cooking power","",""
"","","","","","choice_trial_setup","html-keyboard-response","96","1557895","0.0-5.0-0.6","105","1","2025-04-11 14:50:02","bb671e3ae32f654b8954ea4c4635f915","","Mozilla/5.0 (Macintosh; Intel Mac OS X 10_15_7) AppleWebKit/537.36 (KHTML, like Gecko) Chrome/116.0.0.0 Safari/537.36","Macintosh","Chrome","116.0.0.0","OS X","10_15_7","https://hz8g1ckzuq.cognition.run/","en-US,en;q=0.9","msn973wp0y6tabm","33","[""White""]","No","Male","1710665.4000000358","null","","<p></p>","null","choice","bww","catch","null","televisions","70","80","30","15","10","10","1","","","","","","","","","",""
"","","","","","choice_trial","survey-html-form","97","1561440","0.0-5.0-1.6","105","1","2025-04-11 14:50:02","bb671e3ae32f654b8954ea4c4635f915","","Mozilla/5.0 (Macintosh; Intel Mac OS X 10_15_7) AppleWebKit/537.36 (KHTML, like Gecko) Chrome/116.0.0.0 Safari/537.36","Macintosh","Chrome","116.0.0.0","OS X","10_15_7","https://hz8g1ckzuq.cognition.run/","en-US,en;q=0.9","msn973wp0y6tabm","33","[""White""]","No","Male","1710665.4000000358","3538","","","{""product_choice"":""A""}","choice","bww","catch","null","televisions","70","80","30","15","10","10","1","null","null","null","null","null","null","Screen size","Average lifespan","",""
"","","","","","choice_trial_setup","html-keyboard-response","98","1561751","0.0-5.0-0.7","105","1","2025-04-11 14:50:02","bb671e3ae32f654b8954ea4c4635f915","","Mozilla/5.0 (Macintosh; Intel Mac OS X 10_15_7) AppleWebKit/537.36 (KHTML, like Gecko) Chrome/116.0.0.0 Safari/537.36","Macintosh","Chrome","116.0.0.0","OS X","10_15_7","https://hz8g1ckzuq.cognition.run/","en-US,en;q=0.9","msn973wp0y6tabm","33","[""White""]","No","Male","1710665.4000000358","null","","<p></p>","null","choice","dct","repulsion_1","1","microwave ovens","null","null","null","null","null","null","1","","","","","","","","","",""
"","","","","","choice_trial","survey-html-form","99","1565613","0.0-5.0-1.7","105","1","2025-04-11 14:50:02","bb671e3ae32f654b8954ea4c4635f915","","Mozilla/5.0 (Macintosh; Intel Mac OS X 10_15_7) AppleWebKit/537.36 (KHTML, like Gecko) Chrome/116.0.0.0 Safari/537.36","Macintosh","Chrome","116.0.0.0","OS X","10_15_7","https://hz8g1ckzuq.cognition.run/","en-US,en;q=0.9","msn973wp0y6tabm","33","[""White""]","No","Male","1710665.4000000358","3858","","","{""product_choice"":""C""}","choice","dct","repulsion_1","1","microwave ovens","null","null","null","null","null","null","1","100","90","100","30","40","25","Warranty","Cooking power","",""
"","","","","","choice_trial_setup","html-keyboard-response","100","1565908","0.0-5.0-0.8","105","1","2025-04-11 14:50:02","bb671e3ae32f654b8954ea4c4635f915","","Mozilla/5.0 (Macintosh; Intel Mac OS X 10_15_7) AppleWebKit/537.36 (KHTML, like Gecko) Chrome/116.0.0.0 Safari/537.36","Macintosh","Chrome","116.0.0.0","OS X","10_15_7","https://hz8g1ckzuq.cognition.run/","en-US,en;q=0.9","msn973wp0y6tabm","33","[""White""]","No","Male","1710665.4000000358","291","","<p></p>","meta","choice","tcd","attraction_2","1","washing machines","null","null","null","null","null","null","1","","","","","","","","","",""
"","","","","","choice_trial","survey-html-form","101","1569352","0.0-5.0-1.8","105","1","2025-04-11 14:50:02","bb671e3ae32f654b8954ea4c4635f915","","Mozilla/5.0 (Macintosh; Intel Mac OS X 10_15_7) AppleWebKit/537.36 (KHTML, like Gecko) Chrome/116.0.0.0 Safari/537.36","Macintosh","Chrome","116.0.0.0","OS X","10_15_7","https://hz8g1ckzuq.cognition.run/","en-US,en;q=0.9","msn973wp0y6tabm","33","[""White""]","No","Male","1710665.4000000358","3440","","","{""product_choice"":""A""}","choice","tcd","attraction_2","1","washing machines","null","null","null","null","null","null","1","60","50","60","50","60","40","Average lifespan","Energy savings","",""
"","","","","","choice_trial_setup","html-keyboard-response","102","1569663","0.0-5.0-0.9","105","1","2025-04-11 14:50:02","bb671e3ae32f654b8954ea4c4635f915","","Mozilla/5.0 (Macintosh; Intel Mac OS X 10_15_7) AppleWebKit/537.36 (KHTML, like Gecko) Chrome/116.0.0.0 Safari/537.36","Macintosh","Chrome","116.0.0.0","OS X","10_15_7","https://hz8g1ckzuq.cognition.run/","en-US,en;q=0.9","msn973wp0y6tabm","33","[""White""]","No","Male","1710665.4000000358","null","","<p></p>","null","choice","dct","repulsion_2","1","washing machines","null","null","null","null","null","null","1","","","","","","","","","",""
"","","","","","choice_trial","survey-html-form","103","1572304","0.0-5.0-1.9","105","1","2025-04-11 14:50:02","bb671e3ae32f654b8954ea4c4635f915","","Mozilla/5.0 (Macintosh; Intel Mac OS X 10_15_7) AppleWebKit/537.36 (KHTML, like Gecko) Chrome/116.0.0.0 Safari/537.36","Macintosh","Chrome","116.0.0.0","OS X","10_15_7","https://hz8g1ckzuq.cognition.run/","en-US,en;q=0.9","msn973wp0y6tabm","33","[""White""]","No","Male","1710665.4000000358","2636","","","{""product_choice"":""C""}","choice","dct","repulsion_2","1","washing machines","null","null","null","null","null","null","1","100","90","100","30","40","20","Average lifespan","Energy savings","",""
"","","","","","choice_trial_setup","html-keyboard-response","104","1572614","0.0-5.0-0.10","105","1","2025-04-11 14:50:02","bb671e3ae32f654b8954ea4c4635f915","","Mozilla/5.0 (Macintosh; Intel Mac OS X 10_15_7) AppleWebKit/537.36 (KHTML, like Gecko) Chrome/116.0.0.0 Safari/537.36","Macintosh","Chrome","116.0.0.0","OS X","10_15_7","https://hz8g1ckzuq.cognition.run/","en-US,en;q=0.9","msn973wp0y6tabm","33","[""White""]","No","Male","1710665.4000000358","null","","<p></p>","null","choice","tdc","attraction_1","1","televisions","null","null","null","null","null","null","1","","","","","","","","","",""
"","","","","","choice_trial","survey-html-form","105","1575921","0.0-5.0-1.10","105","1","2025-04-11 14:50:02","bb671e3ae32f654b8954ea4c4635f915","","Mozilla/5.0 (Macintosh; Intel Mac OS X 10_15_7) AppleWebKit/537.36 (KHTML, like Gecko) Chrome/116.0.0.0 Safari/537.36","Macintosh","Chrome","116.0.0.0","OS X","10_15_7","https://hz8g1ckzuq.cognition.run/","en-US,en;q=0.9","msn973wp0y6tabm","33","[""White""]","No","Male","1710665.4000000358","3303","","","{""product_choice"":""A""}","choice","tdc","attraction_1","1","televisions","null","null","null","null","null","null","1","60","50","60","50","60","45","Screen size","Average lifespan","",""
"","","","","","choice_trial_setup","html-keyboard-response","106","1576232","0.0-5.0-0.11","105","1","2025-04-11 14:50:02","bb671e3ae32f654b8954ea4c4635f915","","Mozilla/5.0 (Macintosh; Intel Mac OS X 10_15_7) AppleWebKit/537.36 (KHTML, like Gecko) Chrome/116.0.0.0 Safari/537.36","Macintosh","Chrome","116.0.0.0","OS X","10_15_7","https://hz8g1ckzuq.cognition.run/","en-US,en;q=0.9","msn973wp0y6tabm","33","[""White""]","No","Male","1710665.4000000358","null","","<p></p>","null","choice","tcd","repulsion_1","2","laptops","null","null","null","null","null","null","1","","","","","","","","","",""
"","","","","","choice_trial","survey-html-form","107","1579520","0.0-5.0-1.11","105","1","2025-04-11 14:50:02","bb671e3ae32f654b8954ea4c4635f915","","Mozilla/5.0 (Macintosh; Intel Mac OS X 10_15_7) AppleWebKit/537.36 (KHTML, like Gecko) Chrome/116.0.0.0 Safari/537.36","Macintosh","Chrome","116.0.0.0","OS X","10_15_7","https://hz8g1ckzuq.cognition.run/","en-US,en;q=0.9","msn973wp0y6tabm","33","[""White""]","No","Male","1710665.4000000358","3283","","","{""product_choice"":""A""}","choice","tcd","repulsion_1","2","laptops","null","null","null","null","null","null","1","30","40","25","100","90","100","Processing speed","Memory (RAM)","",""
"","","","","","choice_trial_setup","html-keyboard-response","108","1579830","0.0-5.0-0.12","105","1","2025-04-11 14:50:02","bb671e3ae32f654b8954ea4c4635f915","","Mozilla/5.0 (Macintosh; Intel Mac OS X 10_15_7) AppleWebKit/537.36 (KHTML, like Gecko) Chrome/116.0.0.0 Safari/537.36","Macintosh","Chrome","116.0.0.0","OS X","10_15_7","https://hz8g1ckzuq.cognition.run/","en-US,en;q=0.9","msn973wp0y6tabm","33","[""White""]","No","Male","1710665.4000000358","null","","<p></p>","null","choice","tcd","repulsion_1","1","laptops","null","null","null","null","null","null","2","","","","","","","","","",""
"","","","","","choice_trial","survey-html-form","109","1583374","0.0-5.0-1.12","105","1","2025-04-11 14:50:02","bb671e3ae32f654b8954ea4c4635f915","","Mozilla/5.0 (Macintosh; Intel Mac OS X 10_15_7) AppleWebKit/537.36 (KHTML, like Gecko) Chrome/116.0.0.0 Safari/537.36","Macintosh","Chrome","116.0.0.0","OS X","10_15_7","https://hz8g1ckzuq.cognition.run/","en-US,en;q=0.9","msn973wp0y6tabm","33","[""White""]","No","Male","1710665.4000000358","3540","","","{""product_choice"":""A""}","choice","tcd","repulsion_1","1","laptops","null","null","null","null","null","null","2","100","90","100","30","40","25","Processing speed","Memory (RAM)","",""
"","","","","","choice_trial_setup","html-keyboard-response","110","1583686","0.0-5.0-0.13","105","1","2025-04-11 14:50:02","bb671e3ae32f654b8954ea4c4635f915","","Mozilla/5.0 (Macintosh; Intel Mac OS X 10_15_7) AppleWebKit/537.36 (KHTML, like Gecko) Chrome/116.0.0.0 Safari/537.36","Macintosh","Chrome","116.0.0.0","OS X","10_15_7","https://hz8g1ckzuq.cognition.run/","en-US,en;q=0.9","msn973wp0y6tabm","33","[""White""]","No","Male","1710665.4000000358","null","","<p></p>","null","choice","dtc","attraction_1","1","washing machines","null","null","null","null","null","null","1","","","","","","","","","",""
"","","","","","choice_trial","survey-html-form","111","1586605","0.0-5.0-1.13","105","1","2025-04-11 14:50:02","bb671e3ae32f654b8954ea4c4635f915","","Mozilla/5.0 (Macintosh; Intel Mac OS X 10_15_7) AppleWebKit/537.36 (KHTML, like Gecko) Chrome/116.0.0.0 Safari/537.36","Macintosh","Chrome","116.0.0.0","OS X","10_15_7","https://hz8g1ckzuq.cognition.run/","en-US,en;q=0.9","msn973wp0y6tabm","33","[""White""]","No","Male","1710665.4000000358","2916","","","{""product_choice"":""B""}","choice","dtc","attraction_1","1","washing machines","null","null","null","null","null","null","1","60","50","60","50","60","45","Average lifespan","Energy savings","",""
"","","","","","choice_trial_setup","html-keyboard-response","112","1586919","0.0-5.0-0.14","105","1","2025-04-11 14:50:02","bb671e3ae32f654b8954ea4c4635f915","","Mozilla/5.0 (Macintosh; Intel Mac OS X 10_15_7) AppleWebKit/537.36 (KHTML, like Gecko) Chrome/116.0.0.0 Safari/537.36","Macintosh","Chrome","116.0.0.0","OS X","10_15_7","https://hz8g1ckzuq.cognition.run/","en-US,en;q=0.9","msn973wp0y6tabm","33","[""White""]","No","Male","1710665.4000000358","null","","<p></p>","null","choice","tdc","attraction_2","2","televisions","null","null","null","null","null","null","1","","","","","","","","","",""
"","","","","","choice_trial","survey-html-form","113","1589746","0.0-5.0-1.14","105","1","2025-04-11 14:50:02","bb671e3ae32f654b8954ea4c4635f915","","Mozilla/5.0 (Macintosh; Intel Mac OS X 10_15_7) AppleWebKit/537.36 (KHTML, like Gecko) Chrome/116.0.0.0 Safari/537.36","Macintosh","Chrome","116.0.0.0","OS X","10_15_7","https://hz8g1ckzuq.cognition.run/","en-US,en;q=0.9","msn973wp0y6tabm","33","[""White""]","No","Male","1710665.4000000358","2822","","","{""product_choice"":""C""}","choice","tdc","attraction_2","2","televisions","null","null","null","null","null","null","1","50","60","40","60","50","60","Screen size","Average lifespan","",""
"","","","","","choice_trial_setup","html-keyboard-response","114","1590054","0.0-5.0-0.15","105","1","2025-04-11 14:50:02","bb671e3ae32f654b8954ea4c4635f915","","Mozilla/5.0 (Macintosh; Intel Mac OS X 10_15_7) AppleWebKit/537.36 (KHTML, like Gecko) Chrome/116.0.0.0 Safari/537.36","Macintosh","Chrome","116.0.0.0","OS X","10_15_7","https://hz8g1ckzuq.cognition.run/","en-US,en;q=0.9","msn973wp0y6tabm","33","[""White""]","No","Male","1710665.4000000358","null","","<p></p>","null","choice","dct","repulsion_1","2","microwave ovens","null","null","null","null","null","null","1","","","","","","","","","",""
"","","","","","choice_trial","survey-html-form","115","1593265","0.0-5.0-1.15","105","1","2025-04-11 14:50:02","bb671e3ae32f654b8954ea4c4635f915","","Mozilla/5.0 (Macintosh; Intel Mac OS X 10_15_7) AppleWebKit/537.36 (KHTML, like Gecko) Chrome/116.0.0.0 Safari/537.36","Macintosh","Chrome","116.0.0.0","OS X","10_15_7","https://hz8g1ckzuq.cognition.run/","en-US,en;q=0.9","msn973wp0y6tabm","33","[""White""]","No","Male","1710665.4000000358","3205","","","{""product_choice"":""C""}","choice","dct","repulsion_1","2","microwave ovens","null","null","null","null","null","null","1","30","40","25","100","90","100","Warranty","Cooking power","",""
"","","","","","choice_trial_setup","html-keyboard-response","116","1593576","0.0-5.0-0.16","105","1","2025-04-11 14:50:02","bb671e3ae32f654b8954ea4c4635f915","","Mozilla/5.0 (Macintosh; Intel Mac OS X 10_15_7) AppleWebKit/537.36 (KHTML, like Gecko) Chrome/116.0.0.0 Safari/537.36","Macintosh","Chrome","116.0.0.0","OS X","10_15_7","https://hz8g1ckzuq.cognition.run/","en-US,en;q=0.9","msn973wp0y6tabm","33","[""White""]","No","Male","1710665.4000000358","null","","<p></p>","null","choice","wbw","catch","null","microwave ovens","85","90","45","15","30","30","1","","","","","","","","","",""
"","","","","","choice_trial","survey-html-form","117","1595897","0.0-5.0-1.16","105","1","2025-04-11 14:50:02","bb671e3ae32f654b8954ea4c4635f915","","Mozilla/5.0 (Macintosh; Intel Mac OS X 10_15_7) AppleWebKit/537.36 (KHTML, like Gecko) Chrome/116.0.0.0 Safari/537.36","Macintosh","Chrome","116.0.0.0","OS X","10_15_7","https://hz8g1ckzuq.cognition.run/","en-US,en;q=0.9","msn973wp0y6tabm","33","[""White""]","No","Male","1710665.4000000358","2316","","","{""product_choice"":""B""}","choice","wbw","catch","null","microwave ovens","85","90","45","15","30","30","1","null","null","null","null","null","null","Warranty","Cooking power","",""
"","","","","","choice_trial_setup","html-keyboard-response","118","1596207","0.0-5.0-0.17","105","1","2025-04-11 14:50:02","bb671e3ae32f654b8954ea4c4635f915","","Mozilla/5.0 (Macintosh; Intel Mac OS X 10_15_7) AppleWebKit/537.36 (KHTML, like Gecko) Chrome/116.0.0.0 Safari/537.36","Macintosh","Chrome","116.0.0.0","OS X","10_15_7","https://hz8g1ckzuq.cognition.run/","en-US,en;q=0.9","msn973wp0y6tabm","33","[""White""]","No","Male","1710665.4000000358","null","","<p></p>","null","choice","tdc","repulsion_2","2","televisions","null","null","null","null","null","null","1","","","","","","","","","",""
"","","","","","choice_trial","survey-html-form","119","1599784","0.0-5.0-1.17","105","1","2025-04-11 14:50:02","bb671e3ae32f654b8954ea4c4635f915","","Mozilla/5.0 (Macintosh; Intel Mac OS X 10_15_7) AppleWebKit/537.36 (KHTML, like Gecko) Chrome/116.0.0.0 Safari/537.36","Macintosh","Chrome","116.0.0.0","OS X","10_15_7","https://hz8g1ckzuq.cognition.run/","en-US,en;q=0.9","msn973wp0y6tabm","33","[""White""]","No","Male","1710665.4000000358","3571","","","{""product_choice"":""A""}","choice","tdc","repulsion_2","2","televisions","null","null","null","null","null","null","1","30","40","20","100","90","100","Screen size","Average lifespan","",""
"","","","","","choice_trial_setup","html-keyboard-response","120","1600092","0.0-5.0-0.18","105","1","2025-04-11 14:50:02","bb671e3ae32f654b8954ea4c4635f915","","Mozilla/5.0 (Macintosh; Intel Mac OS X 10_15_7) AppleWebKit/537.36 (KHTML, like Gecko) Chrome/116.0.0.0 Safari/537.36","Macintosh","Chrome","116.0.0.0","OS X","10_15_7","https://hz8g1ckzuq.cognition.run/","en-US,en;q=0.9","msn973wp0y6tabm","33","[""White""]","No","Male","1710665.4000000358","null","","<p></p>","null","choice","bww","catch","null","laptops","70","60","45","5","25","30","2","","","","","","","","","",""
"","","","","","choice_trial","survey-html-form","121","1602736","0.0-5.0-1.18","105","1","2025-04-11 14:50:02","bb671e3ae32f654b8954ea4c4635f915","","Mozilla/5.0 (Macintosh; Intel Mac OS X 10_15_7) AppleWebKit/537.36 (KHTML, like Gecko) Chrome/116.0.0.0 Safari/537.36","Macintosh","Chrome","116.0.0.0","OS X","10_15_7","https://hz8g1ckzuq.cognition.run/","en-US,en;q=0.9","msn973wp0y6tabm","33","[""White""]","No","Male","1710665.4000000358","2638","","","{""product_choice"":""A""}","choice","bww","catch","null","laptops","70","60","45","5","25","30","2","null","null","null","null","null","null","Processing speed","Memory (RAM)","",""
"","","","","","choice_trial_setup","html-keyboard-response","122","1603048","0.0-5.0-0.19","105","1","2025-04-11 14:50:02","bb671e3ae32f654b8954ea4c4635f915","","Mozilla/5.0 (Macintosh; Intel Mac OS X 10_15_7) AppleWebKit/537.36 (KHTML, like Gecko) Chrome/116.0.0.0 Safari/537.36","Macintosh","Chrome","116.0.0.0","OS X","10_15_7","https://hz8g1ckzuq.cognition.run/","en-US,en;q=0.9","msn973wp0y6tabm","33","[""White""]","No","Male","1710665.4000000358","null","","<p></p>","null","choice","dtc","attraction_1","2","washing machines","null","null","null","null","null","null","1","","","","","","","","","",""
"","","","","","choice_trial","survey-html-form","123","1605623","0.0-5.0-1.19","105","1","2025-04-11 14:50:02","bb671e3ae32f654b8954ea4c4635f915","","Mozilla/5.0 (Macintosh; Intel Mac OS X 10_15_7) AppleWebKit/537.36 (KHTML, like Gecko) Chrome/116.0.0.0 Safari/537.36","Macintosh","Chrome","116.0.0.0","OS X","10_15_7","https://hz8g1ckzuq.cognition.run/","en-US,en;q=0.9","msn973wp0y6tabm","33","[""White""]","No","Male","1710665.4000000358","2570","","","{""product_choice"":""C""}","choice","dtc","attraction_1","2","washing machines","null","null","null","null","null","null","1","50","60","45","60","50","60","Average lifespan","Energy savings","",""
"","","","","","choice_trial_setup","html-keyboard-response","124","1605936","0.0-5.0-0.20","105","1","2025-04-11 14:50:02","bb671e3ae32f654b8954ea4c4635f915","","Mozilla/5.0 (Macintosh; Intel Mac OS X 10_15_7) AppleWebKit/537.36 (KHTML, like Gecko) Chrome/116.0.0.0 Safari/537.36","Macintosh","Chrome","116.0.0.0","OS X","10_15_7","https://hz8g1ckzuq.cognition.run/","en-US,en;q=0.9","msn973wp0y6tabm","33","[""White""]","No","Male","1710665.4000000358","null","","<p></p>","null","choice","cdt","attraction_2","1","televisions","null","null","null","null","null","null","2","","","","","","","","","",""
"","","","","","choice_trial","survey-html-form","125","1608395","0.0-5.0-1.20","105","1","2025-04-11 14:50:02","bb671e3ae32f654b8954ea4c4635f915","","Mozilla/5.0 (Macintosh; Intel Mac OS X 10_15_7) AppleWebKit/537.36 (KHTML, like Gecko) Chrome/116.0.0.0 Safari/537.36","Macintosh","Chrome","116.0.0.0","OS X","10_15_7","https://hz8g1ckzuq.cognition.run/","en-US,en;q=0.9","msn973wp0y6tabm","33","[""White""]","No","Male","1710665.4000000358","2454","","","{""product_choice"":""A""}","choice","cdt","attraction_2","1","televisions","null","null","null","null","null","null","2","60","50","60","50","60","40","Screen size","Average lifespan","",""
"","","","","","choice_trial_setup","html-keyboard-response","126","1608703","0.0-5.0-0.21","105","1","2025-04-11 14:50:02","bb671e3ae32f654b8954ea4c4635f915","","Mozilla/5.0 (Macintosh; Intel Mac OS X 10_15_7) AppleWebKit/537.36 (KHTML, like Gecko) Chrome/116.0.0.0 Safari/537.36","Macintosh","Chrome","116.0.0.0","OS X","10_15_7","https://hz8g1ckzuq.cognition.run/","en-US,en;q=0.9","msn973wp0y6tabm","33","[""White""]","No","Male","1710665.4000000358","null","","<p></p>","null","choice","ctd","repulsion_1","2","washing machines","null","null","null","null","null","null","1","","","","","","","","","",""
"","","","","","choice_trial","survey-html-form","127","1612175","0.0-5.0-1.21","105","1","2025-04-11 14:50:02","bb671e3ae32f654b8954ea4c4635f915","","Mozilla/5.0 (Macintosh; Intel Mac OS X 10_15_7) AppleWebKit/537.36 (KHTML, like Gecko) Chrome/116.0.0.0 Safari/537.36","Macintosh","Chrome","116.0.0.0","OS X","10_15_7","https://hz8g1ckzuq.cognition.run/","en-US,en;q=0.9","msn973wp0y6tabm","33","[""White""]","No","Male","1710665.4000000358","3467","","","{""product_choice"":""B""}","choice","ctd","repulsion_1","2","washing machines","null","null","null","null","null","null","1","30","40","25","100","90","100","Average lifespan","Energy savings","",""
"","","","","","choice_trial_setup","html-keyboard-response","128","1612483","0.0-5.0-0.22","105","1","2025-04-11 14:50:02","bb671e3ae32f654b8954ea4c4635f915","","Mozilla/5.0 (Macintosh; Intel Mac OS X 10_15_7) AppleWebKit/537.36 (KHTML, like Gecko) Chrome/116.0.0.0 Safari/537.36","Macintosh","Chrome","116.0.0.0","OS X","10_15_7","https://hz8g1ckzuq.cognition.run/","en-US,en;q=0.9","msn973wp0y6tabm","33","[""White""]","No","Male","1710665.4000000358","null","","<p></p>","null","choice","dct","attraction_2","2","laptops","null","null","null","null","null","null","2","","","","","","","","","",""
"","","","","","choice_trial","survey-html-form","129","1616095","0.0-5.0-1.22","105","1","2025-04-11 14:50:02","bb671e3ae32f654b8954ea4c4635f915","","Mozilla/5.0 (Macintosh; Intel Mac OS X 10_15_7) AppleWebKit/537.36 (KHTML, like Gecko) Chrome/116.0.0.0 Safari/537.36","Macintosh","Chrome","116.0.0.0","OS X","10_15_7","https://hz8g1ckzuq.cognition.run/","en-US,en;q=0.9","msn973wp0y6tabm","33","[""White""]","No","Male","1710665.4000000358","3606","","","{""product_choice"":""C""}","choice","dct","attraction_2","2","laptops","null","null","null","null","null","null","2","50","60","40","60","50","60","Processing speed","Memory (RAM)","",""
"","","","","","choice_trial_setup","html-keyboard-response","130","1616404","0.0-5.0-0.23","105","1","2025-04-11 14:50:02","bb671e3ae32f654b8954ea4c4635f915","","Mozilla/5.0 (Macintosh; Intel Mac OS X 10_15_7) AppleWebKit/537.36 (KHTML, like Gecko) Chrome/116.0.0.0 Safari/537.36","Macintosh","Chrome","116.0.0.0","OS X","10_15_7","https://hz8g1ckzuq.cognition.run/","en-US,en;q=0.9","msn973wp0y6tabm","33","[""White""]","No","Male","1710665.4000000358","null","","<p></p>","null","choice","dtc","attraction_1","2","laptops","null","null","null","null","null","null","1","","","","","","","","","",""
"","","","","","choice_trial","survey-html-form","131","1619761","0.0-5.0-1.23","105","1","2025-04-11 14:50:02","bb671e3ae32f654b8954ea4c4635f915","","Mozilla/5.0 (Macintosh; Intel Mac OS X 10_15_7) AppleWebKit/537.36 (KHTML, like Gecko) Chrome/116.0.0.0 Safari/537.36","Macintosh","Chrome","116.0.0.0","OS X","10_15_7","https://hz8g1ckzuq.cognition.run/","en-US,en;q=0.9","msn973wp0y6tabm","33","[""White""]","No","Male","1710665.4000000358","3352","","","{""product_choice"":""C""}","choice","dtc","attraction_1","2","laptops","null","null","null","null","null","null","1","50","60","45","60","50","60","Processing speed","Memory (RAM)","",""
"","","","","","choice_trial_setup","html-keyboard-response","132","1620069","0.0-5.0-0.24","105","1","2025-04-11 14:50:02","bb671e3ae32f654b8954ea4c4635f915","","Mozilla/5.0 (Macintosh; Intel Mac OS X 10_15_7) AppleWebKit/537.36 (KHTML, like Gecko) Chrome/116.0.0.0 Safari/537.36","Macintosh","Chrome","116.0.0.0","OS X","10_15_7","https://hz8g1ckzuq.cognition.run/","en-US,en;q=0.9","msn973wp0y6tabm","33","[""White""]","No","Male","1710665.4000000358","null","","<p></p>","null","choice","cdt","repulsion_2","2","washing machines","null","null","null","null","null","null","1","","","","","","","","","",""
"","","","","","choice_trial","survey-html-form","133","1622500","0.0-5.0-1.24","105","1","2025-04-11 14:50:02","bb671e3ae32f654b8954ea4c4635f915","","Mozilla/5.0 (Macintosh; Intel Mac OS X 10_15_7) AppleWebKit/537.36 (KHTML, like Gecko) Chrome/116.0.0.0 Safari/537.36","Macintosh","Chrome","116.0.0.0","OS X","10_15_7","https://hz8g1ckzuq.cognition.run/","en-US,en;q=0.9","msn973wp0y6tabm","33","[""White""]","No","Male","1710665.4000000358","2426","","","{""product_choice"":""C""}","choice","cdt","repulsion_2","2","washing machines","null","null","null","null","null","null","1","30","40","20","100","90","100","Average lifespan","Energy savings","",""
"","","","","","choice_trial_setup","html-keyboard-response","134","1622811","0.0-5.0-0.25","105","1","2025-04-11 14:50:02","bb671e3ae32f654b8954ea4c4635f915","","Mozilla/5.0 (Macintosh; Intel Mac OS X 10_15_7) AppleWebKit/537.36 (KHTML, like Gecko) Chrome/116.0.0.0 Safari/537.36","Macintosh","Chrome","116.0.0.0","OS X","10_15_7","https://hz8g1ckzuq.cognition.run/","en-US,en;q=0.9","msn973wp0y6tabm","33","[""White""]","No","Male","1710665.4000000358","null","","<p></p>","null","choice","wwb","catch","null","microwave ovens","95","65","35","35","45","35","2","","","","","","","","","",""
"","","","","","choice_trial","survey-html-form","135","1628992","0.0-5.0-1.25","105","1","2025-04-11 14:50:02","bb671e3ae32f654b8954ea4c4635f915","","Mozilla/5.0 (Macintosh; Intel Mac OS X 10_15_7) AppleWebKit/537.36 (KHTML, like Gecko) Chrome/116.0.0.0 Safari/537.36","Macintosh","Chrome","116.0.0.0","OS X","10_15_7","https://hz8g1ckzuq.cognition.run/","en-US,en;q=0.9","msn973wp0y6tabm","33","[""White""]","No","Male","1710665.4000000358","6175","","","{""product_choice"":""C""}","choice","wwb","catch","null","microwave ovens","95","65","35","35","45","35","2","null","null","null","null","null","null","Warranty","Cooking power","",""
"","","","","","choice_trial_setup","html-keyboard-response","136","1629302","0.0-5.0-0.26","105","1","2025-04-11 14:50:02","bb671e3ae32f654b8954ea4c4635f915","","Mozilla/5.0 (Macintosh; Intel Mac OS X 10_15_7) AppleWebKit/537.36 (KHTML, like Gecko) Chrome/116.0.0.0 Safari/537.36","Macintosh","Chrome","116.0.0.0","OS X","10_15_7","https://hz8g1ckzuq.cognition.run/","en-US,en;q=0.9","msn973wp0y6tabm","33","[""White""]","No","Male","1710665.4000000358","null","","<p></p>","null","choice","bww","catch","null","laptops","50","95","25","45","50","15","2","","","","","","","","","",""
"","","","","","choice_trial","survey-html-form","137","1631657","0.0-5.0-1.26","105","1","2025-04-11 14:50:02","bb671e3ae32f654b8954ea4c4635f915","","Mozilla/5.0 (Macintosh; Intel Mac OS X 10_15_7) AppleWebKit/537.36 (KHTML, like Gecko) Chrome/116.0.0.0 Safari/537.36","Macintosh","Chrome","116.0.0.0","OS X","10_15_7","https://hz8g1ckzuq.cognition.run/","en-US,en;q=0.9","msn973wp0y6tabm","33","[""White""]","No","Male","1710665.4000000358","2349","","","{""product_choice"":""A""}","choice","bww","catch","null","laptops","50","95","25","45","50","15","2","null","null","null","null","null","null","Processing speed","Memory (RAM)","",""
"","","","","","choice_trial_setup","html-keyboard-response","138","1631966","0.0-5.0-0.27","105","1","2025-04-11 14:50:02","bb671e3ae32f654b8954ea4c4635f915","","Mozilla/5.0 (Macintosh; Intel Mac OS X 10_15_7) AppleWebKit/537.36 (KHTML, like Gecko) Chrome/116.0.0.0 Safari/537.36","Macintosh","Chrome","116.0.0.0","OS X","10_15_7","https://hz8g1ckzuq.cognition.run/","en-US,en;q=0.9","msn973wp0y6tabm","33","[""White""]","No","Male","1710665.4000000358","null","","<p></p>","null","choice","cdt","repulsion_2","2","laptops","null","null","null","null","null","null","1","","","","","","","","","",""
"","","","","","choice_trial","survey-html-form","139","1634141","0.0-5.0-1.27","105","1","2025-04-11 14:50:02","bb671e3ae32f654b8954ea4c4635f915","","Mozilla/5.0 (Macintosh; Intel Mac OS X 10_15_7) AppleWebKit/537.36 (KHTML, like Gecko) Chrome/116.0.0.0 Safari/537.36","Macintosh","Chrome","116.0.0.0","OS X","10_15_7","https://hz8g1ckzuq.cognition.run/","en-US,en;q=0.9","msn973wp0y6tabm","33","[""White""]","No","Male","1710665.4000000358","2169","","","{""product_choice"":""C""}","choice","cdt","repulsion_2","2","laptops","null","null","null","null","null","null","1","30","40","20","100","90","100","Processing speed","Memory (RAM)","",""
"","","","","","choice_trial_setup","html-keyboard-response","140","1634452","0.0-5.0-0.28","105","1","2025-04-11 14:50:02","bb671e3ae32f654b8954ea4c4635f915","","Mozilla/5.0 (Macintosh; Intel Mac OS X 10_15_7) AppleWebKit/537.36 (KHTML, like Gecko) Chrome/116.0.0.0 Safari/537.36","Macintosh","Chrome","116.0.0.0","OS X","10_15_7","https://hz8g1ckzuq.cognition.run/","en-US,en;q=0.9","msn973wp0y6tabm","33","[""White""]","No","Male","1710665.4000000358","null","","<p></p>","null","choice","bww","catch","null","televisions","80","75","50","35","5","15","1","","","","","","","","","",""
"","","","","","choice_trial","survey-html-form","141","1637602","0.0-5.0-1.28","105","1","2025-04-11 14:50:02","bb671e3ae32f654b8954ea4c4635f915","","Mozilla/5.0 (Macintosh; Intel Mac OS X 10_15_7) AppleWebKit/537.36 (KHTML, like Gecko) Chrome/116.0.0.0 Safari/537.36","Macintosh","Chrome","116.0.0.0","OS X","10_15_7","https://hz8g1ckzuq.cognition.run/","en-US,en;q=0.9","msn973wp0y6tabm","33","[""White""]","No","Male","1710665.4000000358","3144","","","{""product_choice"":""A""}","choice","bww","catch","null","televisions","80","75","50","35","5","15","1","null","null","null","null","null","null","Screen size","Average lifespan","",""
"","","","","","choice_trial_setup","html-keyboard-response","142","1637916","0.0-5.0-0.29","105","1","2025-04-11 14:50:02","bb671e3ae32f654b8954ea4c4635f915","","Mozilla/5.0 (Macintosh; Intel Mac OS X 10_15_7) AppleWebKit/537.36 (KHTML, like Gecko) Chrome/116.0.0.0 Safari/537.36","Macintosh","Chrome","116.0.0.0","OS X","10_15_7","https://hz8g1ckzuq.cognition.run/","en-US,en;q=0.9","msn973wp0y6tabm","33","[""White""]","No","Male","1710665.4000000358","null","","<p></p>","null","choice","tdc","attraction_2","1","laptops","null","null","null","null","null","null","2","","","","","","","","","",""
"","","","","","choice_trial","survey-html-form","143","1640013","0.0-5.0-1.29","105","1","2025-04-11 14:50:02","bb671e3ae32f654b8954ea4c4635f915","","Mozilla/5.0 (Macintosh; Intel Mac OS X 10_15_7) AppleWebKit/537.36 (KHTML, like Gecko) Chrome/116.0.0.0 Safari/537.36","Macintosh","Chrome","116.0.0.0","OS X","10_15_7","https://hz8g1ckzuq.cognition.run/","en-US,en;q=0.9","msn973wp0y6tabm","33","[""White""]","No","Male","1710665.4000000358","2090","","","{""product_choice"":""C""}","choice","tdc","attraction_2","1","laptops","null","null","null","null","null","null","2","60","50","60","50","60","40","Processing speed","Memory (RAM)","",""
"","","","","","choice_trial_setup","html-keyboard-response","144","1640295","0.0-5.0-0.30","105","1","2025-04-11 14:50:02","bb671e3ae32f654b8954ea4c4635f915","","Mozilla/5.0 (Macintosh; Intel Mac OS X 10_15_7) AppleWebKit/537.36 (KHTML, like Gecko) Chrome/116.0.0.0 Safari/537.36","Macintosh","Chrome","116.0.0.0","OS X","10_15_7","https://hz8g1ckzuq.cognition.run/","en-US,en;q=0.9","msn973wp0y6tabm","33","[""White""]","No","Male","1710665.4000000358","277","","<p></p>","meta","choice","tdc","attraction_1","2","microwave ovens","null","null","null","null","null","null","1","","","","","","","","","",""
"","","","","","choice_trial","survey-html-form","145","1642727","0.0-5.0-1.30","105","1","2025-04-11 14:50:02","bb671e3ae32f654b8954ea4c4635f915","","Mozilla/5.0 (Macintosh; Intel Mac OS X 10_15_7) AppleWebKit/537.36 (KHTML, like Gecko) Chrome/116.0.0.0 Safari/537.36","Macintosh","Chrome","116.0.0.0","OS X","10_15_7","https://hz8g1ckzuq.cognition.run/","en-US,en;q=0.9","msn973wp0y6tabm","33","[""White""]","No","Male","1710665.4000000358","2426","","","{""product_choice"":""C""}","choice","tdc","attraction_1","2","microwave ovens","null","null","null","null","null","null","1","50","60","45","60","50","60","Warranty","Cooking power","",""
"","","","","","choice_trial_setup","html-keyboard-response","146","1643036","0.0-5.0-0.31","105","1","2025-04-11 14:50:02","bb671e3ae32f654b8954ea4c4635f915","","Mozilla/5.0 (Macintosh; Intel Mac OS X 10_15_7) AppleWebKit/537.36 (KHTML, like Gecko) Chrome/116.0.0.0 Safari/537.36","Macintosh","Chrome","116.0.0.0","OS X","10_15_7","https://hz8g1ckzuq.cognition.run/","en-US,en;q=0.9","msn973wp0y6tabm","33","[""White""]","No","Male","1710665.4000000358","null","","<p></p>","null","choice","tcd","repulsion_1","1","washing machines","null","null","null","null","null","null","2","","","","","","","","","",""
"","","","","","choice_trial","survey-html-form","147","1645548","0.0-5.0-1.31","105","1","2025-04-11 14:50:02","bb671e3ae32f654b8954ea4c4635f915","","Mozilla/5.0 (Macintosh; Intel Mac OS X 10_15_7) AppleWebKit/537.36 (KHTML, like Gecko) Chrome/116.0.0.0 Safari/537.36","Macintosh","Chrome","116.0.0.0","OS X","10_15_7","https://hz8g1ckzuq.cognition.run/","en-US,en;q=0.9","msn973wp0y6tabm","33","[""White""]","No","Male","1710665.4000000358","2506","","","{""product_choice"":""A""}","choice","tcd","repulsion_1","1","washing machines","null","null","null","null","null","null","2","100","90","100","30","40","25","Average lifespan","Energy savings","",""
"","","","","","choice_trial_setup","html-keyboard-response","148","1645863","0.0-5.0-0.32","105","1","2025-04-11 14:50:02","bb671e3ae32f654b8954ea4c4635f915","","Mozilla/5.0 (Macintosh; Intel Mac OS X 10_15_7) AppleWebKit/537.36 (KHTML, like Gecko) Chrome/116.0.0.0 Safari/537.36","Macintosh","Chrome","116.0.0.0","OS X","10_15_7","https://hz8g1ckzuq.cognition.run/","en-US,en;q=0.9","msn973wp0y6tabm","33","[""White""]","No","Male","1710665.4000000358","null","","<p></p>","null","choice","dtc","attraction_1","1","laptops","null","null","null","null","null","null","1","","","","","","","","","",""
"","","","","","choice_trial","survey-html-form","149","1648328","0.0-5.0-1.32","105","1","2025-04-11 14:50:02","bb671e3ae32f654b8954ea4c4635f915","","Mozilla/5.0 (Macintosh; Intel Mac OS X 10_15_7) AppleWebKit/537.36 (KHTML, like Gecko) Chrome/116.0.0.0 Safari/537.36","Macintosh","Chrome","116.0.0.0","OS X","10_15_7","https://hz8g1ckzuq.cognition.run/","en-US,en;q=0.9","msn973wp0y6tabm","33","[""White""]","No","Male","1710665.4000000358","2458","","","{""product_choice"":""B""}","choice","dtc","attraction_1","1","laptops","null","null","null","null","null","null","1","60","50","60","50","60","45","Processing speed","Memory (RAM)","",""
"","","","","","choice_trial_setup","html-keyboard-response","150","1648638","0.0-5.0-0.33","105","1","2025-04-11 14:50:02","bb671e3ae32f654b8954ea4c4635f915","","Mozilla/5.0 (Macintosh; Intel Mac OS X 10_15_7) AppleWebKit/537.36 (KHTML, like Gecko) Chrome/116.0.0.0 Safari/537.36","Macintosh","Chrome","116.0.0.0","OS X","10_15_7","https://hz8g1ckzuq.cognition.run/","en-US,en;q=0.9","msn973wp0y6tabm","33","[""White""]","No","Male","1710665.4000000358","null","","<p></p>","null","choice","bww","catch","null","washing machines","65","55","25","35","10","5","2","","","","","","","","","",""
"","","","","","choice_trial","survey-html-form","151","1650533","0.0-5.0-1.33","105","1","2025-04-11 14:50:02","bb671e3ae32f654b8954ea4c4635f915","","Mozilla/5.0 (Macintosh; Intel Mac OS X 10_15_7) AppleWebKit/537.36 (KHTML, like Gecko) Chrome/116.0.0.0 Safari/537.36","Macintosh","Chrome","116.0.0.0","OS X","10_15_7","https://hz8g1ckzuq.cognition.run/","en-US,en;q=0.9","msn973wp0y6tabm","33","[""White""]","No","Male","1710665.4000000358","1888","","","{""product_choice"":""A""}","choice","bww","catch","null","washing machines","65","55","25","35","10","5","2","null","null","null","null","null","null","Average lifespan","Energy savings","",""
"","","","","","choice_trial_setup","html-keyboard-response","152","1650847","0.0-5.0-0.34","105","1","2025-04-11 14:50:02","bb671e3ae32f654b8954ea4c4635f915","","Mozilla/5.0 (Macintosh; Intel Mac OS X 10_15_7) AppleWebKit/537.36 (KHTML, like Gecko) Chrome/116.0.0.0 Safari/537.36","Macintosh","Chrome","116.0.0.0","OS X","10_15_7","https://hz8g1ckzuq.cognition.run/","en-US,en;q=0.9","msn973wp0y6tabm","33","[""White""]","No","Male","1710665.4000000358","null","","<p></p>","null","choice","dtc","repulsion_2","2","microwave ovens","null","null","null","null","null","null","2","","","","","","","","","",""
"","","","","","choice_trial","survey-html-form","153","1653977","0.0-5.0-1.34","105","1","2025-04-11 14:50:02","bb671e3ae32f654b8954ea4c4635f915","","Mozilla/5.0 (Macintosh; Intel Mac OS X 10_15_7) AppleWebKit/537.36 (KHTML, like Gecko) Chrome/116.0.0.0 Safari/537.36","Macintosh","Chrome","116.0.0.0","OS X","10_15_7","https://hz8g1ckzuq.cognition.run/","en-US,en;q=0.9","msn973wp0y6tabm","33","[""White""]","No","Male","1710665.4000000358","3124","","","{""product_choice"":""B""}","choice","dtc","repulsion_2","2","microwave ovens","null","null","null","null","null","null","2","30","40","20","100","90","100","Warranty","Cooking power","",""
"","","","","","choice_trial_setup","html-keyboard-response","154","1654295","0.0-5.0-0.35","105","1","2025-04-11 14:50:02","bb671e3ae32f654b8954ea4c4635f915","","Mozilla/5.0 (Macintosh; Intel Mac OS X 10_15_7) AppleWebKit/537.36 (KHTML, like Gecko) Chrome/116.0.0.0 Safari/537.36","Macintosh","Chrome","116.0.0.0","OS X","10_15_7","https://hz8g1ckzuq.cognition.run/","en-US,en;q=0.9","msn973wp0y6tabm","33","[""White""]","No","Male","1710665.4000000358","null","","<p></p>","null","choice","ctd","attraction_1","1","microwave ovens","null","null","null","null","null","null","2","","","","","","","","","",""
"","","","","","choice_trial","survey-html-form","155","1657225","0.0-5.0-1.35","105","1","2025-04-11 14:50:02","bb671e3ae32f654b8954ea4c4635f915","","Mozilla/5.0 (Macintosh; Intel Mac OS X 10_15_7) AppleWebKit/537.36 (KHTML, like Gecko) Chrome/116.0.0.0 Safari/537.36","Macintosh","Chrome","116.0.0.0","OS X","10_15_7","https://hz8g1ckzuq.cognition.run/","en-US,en;q=0.9","msn973wp0y6tabm","33","[""White""]","No","Male","1710665.4000000358","2923","","","{""product_choice"":""A""}","choice","ctd","attraction_1","1","microwave ovens","null","null","null","null","null","null","2","60","50","60","50","60","45","Warranty","Cooking power","",""
