"success","timeout","failed_images","failed_audio","failed_video","screen_id","trial_type","trial_index","time_elapsed","internal_node_id","run_id","condition","recorded_at","source_code_version","ip","user_agent","device","browser","browser_version","platform","platform_version","referer","accept_language","ppt_id","age","race","ethnicity","gender","exp_duration","rt","view_history","stimulus","response","phase","order","effect","t_high","category","d1_best","d2_best","d1_worst1","d2_worst1","d1_worst2","d2_worst2","first_dim","d1_t","d1_c","d1_d","d2_t","d2_c","d2_d","d1_name","d2_name","strategy_response","question_order"
"true","false","[]","[]","[]","img preload","preload","0","1700","0.0-0.0","107","1","2025-04-11 14:50:19","bb671e3ae32f654b8954ea4c4635f915","","Mozilla/5.0 (Macintosh; Intel Mac OS X 10_15_7) AppleWebKit/537.36 (KHTML, like Gecko) Chrome/135.0.0.0 Safari/537.36","Macintosh","Chrome","135.0.0.0","OS X","10_15_7","https://hz8g1ckzuq.cognition.run/","en-US,en;q=0.9","qc6jdceofbq359d","27","[""Asian"",""Other""]","Yes","Male","1457134.799999997","","","","","","","","","","","","","","","","","","","","","","","","","",""
"true","","","","","","fullscreen","1","6177","0.0-1.0","107","1","2025-04-11 14:50:19","bb671e3ae32f654b8954ea4c4635f915","","Mozilla/5.0 (Macintosh; Intel Mac OS X 10_15_7) AppleWebKit/537.36 (KHTML, like Gecko) Chrome/135.0.0.0 Safari/537.36","Macintosh","Chrome","135.0.0.0","OS X","10_15_7","https://hz8g1ckzuq.cognition.run/","en-US,en;q=0.9","qc6jdceofbq359d","27","[""Asian"",""Other""]","Yes","Male","1457134.799999997","3472","","","","","","","","","","","","","","","","","","","","","","","","",""
"","","","","","","instructions","2","69366","0.0-2.0","107","1","2025-04-11 14:50:19","bb671e3ae32f654b8954ea4c4635f915","","Mozilla/5.0 (Macintosh; Intel Mac OS X 10_15_7) AppleWebKit/537.36 (KHTML, like Gecko) Chrome/135.0.0.0 Safari/537.36","Macintosh","Chrome","135.0.0.0","OS X","10_15_7","https://hz8g1ckzuq.cognition.run/","en-US,en;q=0.9","qc6jdceofbq359d","27","[""Asian"",""Other""]","Yes","Male","1457134.799999997","63178","[{""page_index"":0,""viewing_time"":1630},{""page_index"":1,""viewing_time"":3203},{""page_index"":2,""viewing_time"":2959},{""page_index"":3,""viewing_time"":4760},{""page_index"":4,""viewing_time"":9106},{""page_index"":5,""viewing_time"":4796},{""page_index"":6,""viewing_time"":4411},{""page_index"":7,""viewing_time"":19395},{""page_index"":8,""viewing_time"":9196},{""page_index"":9,""viewing_time"":3722}]","","","","","","","","","","","","","","","","","","","","","","","",""
"","","","","","rating_trial_setup","html-keyboard-response","3","69670","0.0-3.0-0.0","107","1","2025-04-11 14:50:19","bb671e3ae32f654b8954ea4c4635f915","","Mozilla/5.0 (Macintosh; Intel Mac OS X 10_15_7) AppleWebKit/537.36 (KHTML, like Gecko) Chrome/135.0.0.0 Safari/537.36","Macintosh","Chrome","135.0.0.0","OS X","10_15_7","https://hz8g1ckzuq.cognition.run/","en-US,en;q=0.9","qc6jdceofbq359d","27","[""Asian"",""Other""]","Yes","Male","1457134.799999997","null","","<p></p>","null","rating","dtc","repulsion_2","2","washing machines","null","null","null","null","null","null","2","","","","","","","","","",""
"","","","","","rating_trial","survey-html-form","4","118261","0.0-3.0-1.0","107","1","2025-04-11 14:50:19","bb671e3ae32f654b8954ea4c4635f915","","Mozilla/5.0 (Macintosh; Intel Mac OS X 10_15_7) AppleWebKit/537.36 (KHTML, like Gecko) Chrome/135.0.0.0 Safari/537.36","Macintosh","Chrome","135.0.0.0","OS X","10_15_7","https://hz8g1ckzuq.cognition.run/","en-US,en;q=0.9","qc6jdceofbq359d","27","[""Asian"",""Other""]","Yes","Male","1457134.799999997","48584","","","{""price_1"":""250"",""price_2"":""300"",""price_3"":""400""}","rating","dtc","repulsion_2","2","washing machines","null","null","null","null","null","null","2","30","40","20","100","90","100","Average lifespan","Energy savings","",""
"","","","","","rating_trial_setup","html-keyboard-response","5","118563","0.0-3.0-0.1","107","1","2025-04-11 14:50:19","bb671e3ae32f654b8954ea4c4635f915","","Mozilla/5.0 (Macintosh; Intel Mac OS X 10_15_7) AppleWebKit/537.36 (KHTML, like Gecko) Chrome/135.0.0.0 Safari/537.36","Macintosh","Chrome","135.0.0.0","OS X","10_15_7","https://hz8g1ckzuq.cognition.run/","en-US,en;q=0.9","qc6jdceofbq359d","27","[""Asian"",""Other""]","Yes","Male","1457134.799999997","null","","<p></p>","null","rating","dct","attraction_1","1","washing machines","null","null","null","null","null","null","1","","","","","","","","","",""
"","","","","","rating_trial","survey-html-form","6","149874","0.0-3.0-1.1","107","1","2025-04-11 14:50:19","bb671e3ae32f654b8954ea4c4635f915","","Mozilla/5.0 (Macintosh; Intel Mac OS X 10_15_7) AppleWebKit/537.36 (KHTML, like Gecko) Chrome/135.0.0.0 Safari/537.36","Macintosh","Chrome","135.0.0.0","OS X","10_15_7","https://hz8g1ckzuq.cognition.run/","en-US,en;q=0.9","qc6jdceofbq359d","27","[""Asian"",""Other""]","Yes","Male","1457134.799999997","31309","","","{""price_1"":""250"",""price_2"":""200"",""price_3"":""225""}","rating","dct","attraction_1","1","washing machines","null","null","null","null","null","null","1","60","50","60","50","60","45","Average lifespan","Energy savings","",""
"","","","","","rating_trial_setup","html-keyboard-response","7","150177","0.0-3.0-0.2","107","1","2025-04-11 14:50:19","bb671e3ae32f654b8954ea4c4635f915","","Mozilla/5.0 (Macintosh; Intel Mac OS X 10_15_7) AppleWebKit/537.36 (KHTML, like Gecko) Chrome/135.0.0.0 Safari/537.36","Macintosh","Chrome","135.0.0.0","OS X","10_15_7","https://hz8g1ckzuq.cognition.run/","en-US,en;q=0.9","qc6jdceofbq359d","27","[""Asian"",""Other""]","Yes","Male","1457134.799999997","null","","<p></p>","null","rating","cdt","repulsion_2","2","televisions","null","null","null","null","null","null","2","","","","","","","","","",""
"","","","","","rating_trial","survey-html-form","8","178193","0.0-3.0-1.2","107","1","2025-04-11 14:50:19","bb671e3ae32f654b8954ea4c4635f915","","Mozilla/5.0 (Macintosh; Intel Mac OS X 10_15_7) AppleWebKit/537.36 (KHTML, like Gecko) Chrome/135.0.0.0 Safari/537.36","Macintosh","Chrome","135.0.0.0","OS X","10_15_7","https://hz8g1ckzuq.cognition.run/","en-US,en;q=0.9","qc6jdceofbq359d","27","[""Asian"",""Other""]","Yes","Male","1457134.799999997","28012","","","{""price_1"":""200"",""price_2"":""250"",""price_3"":""300""}","rating","cdt","repulsion_2","2","televisions","null","null","null","null","null","null","2","30","40","20","100","90","100","Screen size","Average lifespan","",""
"","","","","","rating_trial_setup","html-keyboard-response","9","178496","0.0-3.0-0.3","107","1","2025-04-11 14:50:19","bb671e3ae32f654b8954ea4c4635f915","","Mozilla/5.0 (Macintosh; Intel Mac OS X 10_15_7) AppleWebKit/537.36 (KHTML, like Gecko) Chrome/135.0.0.0 Safari/537.36","Macintosh","Chrome","135.0.0.0","OS X","10_15_7","https://hz8g1ckzuq.cognition.run/","en-US,en;q=0.9","qc6jdceofbq359d","27","[""Asian"",""Other""]","Yes","Male","1457134.799999997","null","","<p></p>","null","rating","dtc","attraction_2","2","washing machines","null","null","null","null","null","null","1","","","","","","","","","",""
"","","","","","rating_trial","survey-html-form","10","196454","0.0-3.0-1.3","107","1","2025-04-11 14:50:19","bb671e3ae32f654b8954ea4c4635f915","","Mozilla/5.0 (Macintosh; Intel Mac OS X 10_15_7) AppleWebKit/537.36 (KHTML, like Gecko) Chrome/135.0.0.0 Safari/537.36","Macintosh","Chrome","135.0.0.0","OS X","10_15_7","https://hz8g1ckzuq.cognition.run/","en-US,en;q=0.9","qc6jdceofbq359d","27","[""Asian"",""Other""]","Yes","Male","1457134.799999997","17954","","","{""price_1"":""200"",""price_2"":""250"",""price_3"":""300""}","rating","dtc","attraction_2","2","washing machines","null","null","null","null","null","null","1","50","60","40","60","50","60","Average lifespan","Energy savings","",""
"","","","","","rating_trial_setup","html-keyboard-response","11","196757","0.0-3.0-0.4","107","1","2025-04-11 14:50:19","bb671e3ae32f654b8954ea4c4635f915","","Mozilla/5.0 (Macintosh; Intel Mac OS X 10_15_7) AppleWebKit/537.36 (KHTML, like Gecko) Chrome/135.0.0.0 Safari/537.36","Macintosh","Chrome","135.0.0.0","OS X","10_15_7","https://hz8g1ckzuq.cognition.run/","en-US,en;q=0.9","qc6jdceofbq359d","27","[""Asian"",""Other""]","Yes","Male","1457134.799999997","null","","<p></p>","null","rating","tdc","repulsion_1","1","microwave ovens","null","null","null","null","null","null","2","","","","","","","","","",""
"","","","","","rating_trial","survey-html-form","12","215556","0.0-3.0-1.4","107","1","2025-04-11 14:50:19","bb671e3ae32f654b8954ea4c4635f915","","Mozilla/5.0 (Macintosh; Intel Mac OS X 10_15_7) AppleWebKit/537.36 (KHTML, like Gecko) Chrome/135.0.0.0 Safari/537.36","Macintosh","Chrome","135.0.0.0","OS X","10_15_7","https://hz8g1ckzuq.cognition.run/","en-US,en;q=0.9","qc6jdceofbq359d","27","[""Asian"",""Other""]","Yes","Male","1457134.799999997","18797","","","{""price_1"":""150"",""price_2"":""60"",""price_3"":""100""}","rating","tdc","repulsion_1","1","microwave ovens","null","null","null","null","null","null","2","100","90","100","30","40","25","Warranty","Cooking power","",""
"","","","","","rating_trial_setup","html-keyboard-response","13","215859","0.0-3.0-0.5","107","1","2025-04-11 14:50:19","bb671e3ae32f654b8954ea4c4635f915","","Mozilla/5.0 (Macintosh; Intel Mac OS X 10_15_7) AppleWebKit/537.36 (KHTML, like Gecko) Chrome/135.0.0.0 Safari/537.36","Macintosh","Chrome","135.0.0.0","OS X","10_15_7","https://hz8g1ckzuq.cognition.run/","en-US,en;q=0.9","qc6jdceofbq359d","27","[""Asian"",""Other""]","Yes","Male","1457134.799999997","null","","<p></p>","null","rating","dct","attraction_2","1","microwave ovens","null","null","null","null","null","null","2","","","","","","","","","",""
"","","","","","rating_trial","survey-html-form","14","253553","0.0-3.0-1.5","107","1","2025-04-11 14:50:19","bb671e3ae32f654b8954ea4c4635f915","","Mozilla/5.0 (Macintosh; Intel Mac OS X 10_15_7) AppleWebKit/537.36 (KHTML, like Gecko) Chrome/135.0.0.0 Safari/537.36","Macintosh","Chrome","135.0.0.0","OS X","10_15_7","https://hz8g1ckzuq.cognition.run/","en-US,en;q=0.9","qc6jdceofbq359d","27","[""Asian"",""Other""]","Yes","Male","1457134.799999997","37689","","","{""price_1"":""80"",""price_2"":""100"",""price_3"":""120""}","rating","dct","attraction_2","1","microwave ovens","null","null","null","null","null","null","2","60","50","60","50","60","40","Warranty","Cooking power","",""
"","","","","","rating_trial_setup","html-keyboard-response","15","253856","0.0-3.0-0.6","107","1","2025-04-11 14:50:19","bb671e3ae32f654b8954ea4c4635f915","","Mozilla/5.0 (Macintosh; Intel Mac OS X 10_15_7) AppleWebKit/537.36 (KHTML, like Gecko) Chrome/135.0.0.0 Safari/537.36","Macintosh","Chrome","135.0.0.0","OS X","10_15_7","https://hz8g1ckzuq.cognition.run/","en-US,en;q=0.9","qc6jdceofbq359d","27","[""Asian"",""Other""]","Yes","Male","1457134.799999997","null","","<p></p>","null","rating","tcd","attraction_1","1","laptops","null","null","null","null","null","null","1","","","","","","","","","",""
"","","","","","rating_trial","survey-html-form","16","275103","0.0-3.0-1.6","107","1","2025-04-11 14:50:19","bb671e3ae32f654b8954ea4c4635f915","","Mozilla/5.0 (Macintosh; Intel Mac OS X 10_15_7) AppleWebKit/537.36 (KHTML, like Gecko) Chrome/135.0.0.0 Safari/537.36","Macintosh","Chrome","135.0.0.0","OS X","10_15_7","https://hz8g1ckzuq.cognition.run/","en-US,en;q=0.9","qc6jdceofbq359d","27","[""Asian"",""Other""]","Yes","Male","1457134.799999997","21242","","","{""price_1"":""400"",""price_2"":""450"",""price_3"":""350""}","rating","tcd","attraction_1","1","laptops","null","null","null","null","null","null","1","60","50","60","50","60","45","Processing speed","Memory (RAM)","",""
"","","","","","rating_trial_setup","html-keyboard-response","17","275406","0.0-3.0-0.7","107","1","2025-04-11 14:50:19","bb671e3ae32f654b8954ea4c4635f915","","Mozilla/5.0 (Macintosh; Intel Mac OS X 10_15_7) AppleWebKit/537.36 (KHTML, like Gecko) Chrome/135.0.0.0 Safari/537.36","Macintosh","Chrome","135.0.0.0","OS X","10_15_7","https://hz8g1ckzuq.cognition.run/","en-US,en;q=0.9","qc6jdceofbq359d","27","[""Asian"",""Other""]","Yes","Male","1457134.799999997","null","","<p></p>","null","rating","tdc","attraction_1","2","microwave ovens","null","null","null","null","null","null","2","","","","","","","","","",""
"","","","","","rating_trial","survey-html-form","18","292330","0.0-3.0-1.7","107","1","2025-04-11 14:50:19","bb671e3ae32f654b8954ea4c4635f915","","Mozilla/5.0 (Macintosh; Intel Mac OS X 10_15_7) AppleWebKit/537.36 (KHTML, like Gecko) Chrome/135.0.0.0 Safari/537.36","Macintosh","Chrome","135.0.0.0","OS X","10_15_7","https://hz8g1ckzuq.cognition.run/","en-US,en;q=0.9","qc6jdceofbq359d","27","[""Asian"",""Other""]","Yes","Male","1457134.799999997","16919","","","{""price_1"":""120"",""price_2"":""100"",""price_3"":""100""}","rating","tdc","attraction_1","2","microwave ovens","null","null","null","null","null","null","2","50","60","45","60","50","60","Warranty","Cooking power","",""
"","","","","","rating_trial_setup","html-keyboard-response","19","292633","0.0-3.0-0.8","107","1","2025-04-11 14:50:19","bb671e3ae32f654b8954ea4c4635f915","","Mozilla/5.0 (Macintosh; Intel Mac OS X 10_15_7) AppleWebKit/537.36 (KHTML, like Gecko) Chrome/135.0.0.0 Safari/537.36","Macintosh","Chrome","135.0.0.0","OS X","10_15_7","https://hz8g1ckzuq.cognition.run/","en-US,en;q=0.9","qc6jdceofbq359d","27","[""Asian"",""Other""]","Yes","Male","1457134.799999997","null","","<p></p>","null","rating","dtc","repulsion_2","1","microwave ovens","null","null","null","null","null","null","2","","","","","","","","","",""
"","","","","","rating_trial","survey-html-form","20","309128","0.0-3.0-1.8","107","1","2025-04-11 14:50:19","bb671e3ae32f654b8954ea4c4635f915","","Mozilla/5.0 (Macintosh; Intel Mac OS X 10_15_7) AppleWebKit/537.36 (KHTML, like Gecko) Chrome/135.0.0.0 Safari/537.36","Macintosh","Chrome","135.0.0.0","OS X","10_15_7","https://hz8g1ckzuq.cognition.run/","en-US,en;q=0.9","qc6jdceofbq359d","27","[""Asian"",""Other""]","Yes","Male","1457134.799999997","16491","","","{""price_1"":""50"",""price_2"":""60"",""price_3"":""80""}","rating","dtc","repulsion_2","1","microwave ovens","null","null","null","null","null","null","2","100","90","100","30","40","20","Warranty","Cooking power","",""
"","","","","","rating_trial_setup","html-keyboard-response","21","309432","0.0-3.0-0.9","107","1","2025-04-11 14:50:19","bb671e3ae32f654b8954ea4c4635f915","","Mozilla/5.0 (Macintosh; Intel Mac OS X 10_15_7) AppleWebKit/537.36 (KHTML, like Gecko) Chrome/135.0.0.0 Safari/537.36","Macintosh","Chrome","135.0.0.0","OS X","10_15_7","https://hz8g1ckzuq.cognition.run/","en-US,en;q=0.9","qc6jdceofbq359d","27","[""Asian"",""Other""]","Yes","Male","1457134.799999997","null","","<p></p>","null","rating","dtc","attraction_2","1","laptops","null","null","null","null","null","null","1","","","","","","","","","",""
"","","","","","rating_trial","survey-html-form","22","321442","0.0-3.0-1.9","107","1","2025-04-11 14:50:19","bb671e3ae32f654b8954ea4c4635f915","","Mozilla/5.0 (Macintosh; Intel Mac OS X 10_15_7) AppleWebKit/537.36 (KHTML, like Gecko) Chrome/135.0.0.0 Safari/537.36","Macintosh","Chrome","135.0.0.0","OS X","10_15_7","https://hz8g1ckzuq.cognition.run/","en-US,en;q=0.9","qc6jdceofbq359d","27","[""Asian"",""Other""]","Yes","Male","1457134.799999997","12004","","","{""price_1"":""200"",""price_2"":""250"",""price_3"":""300""}","rating","dtc","attraction_2","1","laptops","null","null","null","null","null","null","1","60","50","60","50","60","40","Processing speed","Memory (RAM)","",""
"","","","","","rating_trial_setup","html-keyboard-response","23","321747","0.0-3.0-0.10","107","1","2025-04-11 14:50:19","bb671e3ae32f654b8954ea4c4635f915","","Mozilla/5.0 (Macintosh; Intel Mac OS X 10_15_7) AppleWebKit/537.36 (KHTML, like Gecko) Chrome/135.0.0.0 Safari/537.36","Macintosh","Chrome","135.0.0.0","OS X","10_15_7","https://hz8g1ckzuq.cognition.run/","en-US,en;q=0.9","qc6jdceofbq359d","27","[""Asian"",""Other""]","Yes","Male","1457134.799999997","null","","<p></p>","null","rating","wbw","catch","null","televisions","60","75","15","20","30","20","2","","","","","","","","","",""
"","","","","","rating_trial","survey-html-form","24","350534","0.0-3.0-1.10","107","1","2025-04-11 14:50:19","bb671e3ae32f654b8954ea4c4635f915","","Mozilla/5.0 (Macintosh; Intel Mac OS X 10_15_7) AppleWebKit/537.36 (KHTML, like Gecko) Chrome/135.0.0.0 Safari/537.36","Macintosh","Chrome","135.0.0.0","OS X","10_15_7","https://hz8g1ckzuq.cognition.run/","en-US,en;q=0.9","qc6jdceofbq359d","27","[""Asian"",""Other""]","Yes","Male","1457134.799999997","28781","","","{""price_1"":""50"",""price_2"":""250"",""price_3"":""80""}","rating","wbw","catch","null","televisions","60","75","15","20","30","20","2","null","null","null","null","null","null","Screen size","Average lifespan","",""
"","","","","","rating_trial_setup","html-keyboard-response","25","350837","0.0-3.0-0.11","107","1","2025-04-11 14:50:19","bb671e3ae32f654b8954ea4c4635f915","","Mozilla/5.0 (Macintosh; Intel Mac OS X 10_15_7) AppleWebKit/537.36 (KHTML, like Gecko) Chrome/135.0.0.0 Safari/537.36","Macintosh","Chrome","135.0.0.0","OS X","10_15_7","https://hz8g1ckzuq.cognition.run/","en-US,en;q=0.9","qc6jdceofbq359d","27","[""Asian"",""Other""]","Yes","Male","1457134.799999997","null","","<p></p>","null","rating","ctd","repulsion_2","1","televisions","null","null","null","null","null","null","2","","","","","","","","","",""
"","","","","","rating_trial","survey-html-form","26","380549","0.0-3.0-1.11","107","1","2025-04-11 14:50:19","bb671e3ae32f654b8954ea4c4635f915","","Mozilla/5.0 (Macintosh; Intel Mac OS X 10_15_7) AppleWebKit/537.36 (KHTML, like Gecko) Chrome/135.0.0.0 Safari/537.36","Macintosh","Chrome","135.0.0.0","OS X","10_15_7","https://hz8g1ckzuq.cognition.run/","en-US,en;q=0.9","qc6jdceofbq359d","27","[""Asian"",""Other""]","Yes","Male","1457134.799999997","29706","","","{""price_1"":""150"",""price_2"":""100"",""price_3"":""60""}","rating","ctd","repulsion_2","1","televisions","null","null","null","null","null","null","2","100","90","100","30","40","20","Screen size","Average lifespan","",""
"","","","","","rating_trial_setup","html-keyboard-response","27","380852","0.0-3.0-0.12","107","1","2025-04-11 14:50:19","bb671e3ae32f654b8954ea4c4635f915","","Mozilla/5.0 (Macintosh; Intel Mac OS X 10_15_7) AppleWebKit/537.36 (KHTML, like Gecko) Chrome/135.0.0.0 Safari/537.36","Macintosh","Chrome","135.0.0.0","OS X","10_15_7","https://hz8g1ckzuq.cognition.run/","en-US,en;q=0.9","qc6jdceofbq359d","27","[""Asian"",""Other""]","Yes","Male","1457134.799999997","null","","<p></p>","null","rating","tcd","repulsion_2","2","laptops","null","null","null","null","null","null","1","","","","","","","","","",""
"","","","","","rating_trial","survey-html-form","28","395898","0.0-3.0-1.12","107","1","2025-04-11 14:50:19","bb671e3ae32f654b8954ea4c4635f915","","Mozilla/5.0 (Macintosh; Intel Mac OS X 10_15_7) AppleWebKit/537.36 (KHTML, like Gecko) Chrome/135.0.0.0 Safari/537.36","Macintosh","Chrome","135.0.0.0","OS X","10_15_7","https://hz8g1ckzuq.cognition.run/","en-US,en;q=0.9","qc6jdceofbq359d","27","[""Asian"",""Other""]","Yes","Male","1457134.799999997","15044","","","{""price_1"":""400"",""price_2"":""425"",""price_3"":""375""}","rating","tcd","repulsion_2","2","laptops","null","null","null","null","null","null","1","30","40","20","100","90","100","Processing speed","Memory (RAM)","",""
"","","","","","rating_trial_setup","html-keyboard-response","29","396203","0.0-3.0-0.13","107","1","2025-04-11 14:50:19","bb671e3ae32f654b8954ea4c4635f915","","Mozilla/5.0 (Macintosh; Intel Mac OS X 10_15_7) AppleWebKit/537.36 (KHTML, like Gecko) Chrome/135.0.0.0 Safari/537.36","Macintosh","Chrome","135.0.0.0","OS X","10_15_7","https://hz8g1ckzuq.cognition.run/","en-US,en;q=0.9","qc6jdceofbq359d","27","[""Asian"",""Other""]","Yes","Male","1457134.799999997","null","","<p></p>","null","rating","tcd","repulsion_1","2","laptops","null","null","null","null","null","null","1","","","","","","","","","",""
"","","","","","rating_trial","survey-html-form","30","415172","0.0-3.0-1.13","107","1","2025-04-11 14:50:19","bb671e3ae32f654b8954ea4c4635f915","","Mozilla/5.0 (Macintosh; Intel Mac OS X 10_15_7) AppleWebKit/537.36 (KHTML, like Gecko) Chrome/135.0.0.0 Safari/537.36","Macintosh","Chrome","135.0.0.0","OS X","10_15_7","https://hz8g1ckzuq.cognition.run/","en-US,en;q=0.9","qc6jdceofbq359d","27","[""Asian"",""Other""]","Yes","Male","1457134.799999997","18962","","","{""price_1"":""400"",""price_2"":""425"",""price_3"":""350""}","rating","tcd","repulsion_1","2","laptops","null","null","null","null","null","null","1","30","40","25","100","90","100","Processing speed","Memory (RAM)","",""
"","","","","","rating_trial_setup","html-keyboard-response","31","415476","0.0-3.0-0.14","107","1","2025-04-11 14:50:19","bb671e3ae32f654b8954ea4c4635f915","","Mozilla/5.0 (Macintosh; Intel Mac OS X 10_15_7) AppleWebKit/537.36 (KHTML, like Gecko) Chrome/135.0.0.0 Safari/537.36","Macintosh","Chrome","135.0.0.0","OS X","10_15_7","https://hz8g1ckzuq.cognition.run/","en-US,en;q=0.9","qc6jdceofbq359d","27","[""Asian"",""Other""]","Yes","Male","1457134.799999997","null","","<p></p>","null","rating","wwb","catch","null","laptops","95","75","10","50","10","5","2","","","","","","","","","",""
"","","","","","rating_trial","survey-html-form","32","433832","0.0-3.0-1.14","107","1","2025-04-11 14:50:19","bb671e3ae32f654b8954ea4c4635f915","","Mozilla/5.0 (Macintosh; Intel Mac OS X 10_15_7) AppleWebKit/537.36 (KHTML, like Gecko) Chrome/135.0.0.0 Safari/537.36","Macintosh","Chrome","135.0.0.0","OS X","10_15_7","https://hz8g1ckzuq.cognition.run/","en-US,en;q=0.9","qc6jdceofbq359d","27","[""Asian"",""Other""]","Yes","Male","1457134.799999997","18349","","","{""price_1"":""150"",""price_2"":""40"",""price_3"":""500""}","rating","wwb","catch","null","laptops","95","75","10","50","10","5","2","null","null","null","null","null","null","Processing speed","Memory (RAM)","",""
"","","","","","rating_trial_setup","html-keyboard-response","33","434136","0.0-3.0-0.15","107","1","2025-04-11 14:50:19","bb671e3ae32f654b8954ea4c4635f915","","Mozilla/5.0 (Macintosh; Intel Mac OS X 10_15_7) AppleWebKit/537.36 (KHTML, like Gecko) Chrome/135.0.0.0 Safari/537.36","Macintosh","Chrome","135.0.0.0","OS X","10_15_7","https://hz8g1ckzuq.cognition.run/","en-US,en;q=0.9","qc6jdceofbq359d","27","[""Asian"",""Other""]","Yes","Male","1457134.799999997","null","","<p></p>","null","rating","cdt","attraction_2","1","televisions","null","null","null","null","null","null","2","","","","","","","","","",""
"","","","","","rating_trial","survey-html-form","34","459728","0.0-3.0-1.15","107","1","2025-04-11 14:50:19","bb671e3ae32f654b8954ea4c4635f915","","Mozilla/5.0 (Macintosh; Intel Mac OS X 10_15_7) AppleWebKit/537.36 (KHTML, like Gecko) Chrome/135.0.0.0 Safari/537.36","Macintosh","Chrome","135.0.0.0","OS X","10_15_7","https://hz8g1ckzuq.cognition.run/","en-US,en;q=0.9","qc6jdceofbq359d","27","[""Asian"",""Other""]","Yes","Male","1457134.799999997","25585","","","{""price_1"":""150"",""price_2"":""100"",""price_3"":""125""}","rating","cdt","attraction_2","1","televisions","null","null","null","null","null","null","2","60","50","60","50","60","40","Screen size","Average lifespan","",""
"","","","","","rating_trial_setup","html-keyboard-response","35","460035","0.0-3.0-0.16","107","1","2025-04-11 14:50:19","bb671e3ae32f654b8954ea4c4635f915","","Mozilla/5.0 (Macintosh; Intel Mac OS X 10_15_7) AppleWebKit/537.36 (KHTML, like Gecko) Chrome/135.0.0.0 Safari/537.36","Macintosh","Chrome","135.0.0.0","OS X","10_15_7","https://hz8g1ckzuq.cognition.run/","en-US,en;q=0.9","qc6jdceofbq359d","27","[""Asian"",""Other""]","Yes","Male","1457134.799999997","null","","<p></p>","null","rating","tdc","attraction_2","2","televisions","null","null","null","null","null","null","2","","","","","","","","","",""
"","","","","","rating_trial","survey-html-form","36","470357","0.0-3.0-1.16","107","1","2025-04-11 14:50:19","bb671e3ae32f654b8954ea4c4635f915","","Mozilla/5.0 (Macintosh; Intel Mac OS X 10_15_7) AppleWebKit/537.36 (KHTML, like Gecko) Chrome/135.0.0.0 Safari/537.36","Macintosh","Chrome","135.0.0.0","OS X","10_15_7","https://hz8g1ckzuq.cognition.run/","en-US,en;q=0.9","qc6jdceofbq359d","27","[""Asian"",""Other""]","Yes","Male","1457134.799999997","10315","","","{""price_1"":""150"",""price_2"":""125"",""price_3"":""100""}","rating","tdc","attraction_2","2","televisions","null","null","null","null","null","null","2","50","60","40","60","50","60","Screen size","Average lifespan","",""
"","","","","","rating_trial_setup","html-keyboard-response","37","470661","0.0-3.0-0.17","107","1","2025-04-11 14:50:19","bb671e3ae32f654b8954ea4c4635f915","","Mozilla/5.0 (Macintosh; Intel Mac OS X 10_15_7) AppleWebKit/537.36 (KHTML, like Gecko) Chrome/135.0.0.0 Safari/537.36","Macintosh","Chrome","135.0.0.0","OS X","10_15_7","https://hz8g1ckzuq.cognition.run/","en-US,en;q=0.9","qc6jdceofbq359d","27","[""Asian"",""Other""]","Yes","Male","1457134.799999997","null","","<p></p>","null","rating","tcd","attraction_2","2","microwave ovens","null","null","null","null","null","null","2","","","","","","","","","",""
"","","","","","rating_trial","survey-html-form","38","491000","0.0-3.0-1.17","107","1","2025-04-11 14:50:19","bb671e3ae32f654b8954ea4c4635f915","","Mozilla/5.0 (Macintosh; Intel Mac OS X 10_15_7) AppleWebKit/537.36 (KHTML, like Gecko) Chrome/135.0.0.0 Safari/537.36","Macintosh","Chrome","135.0.0.0","OS X","10_15_7","https://hz8g1ckzuq.cognition.run/","en-US,en;q=0.9","qc6jdceofbq359d","27","[""Asian"",""Other""]","Yes","Male","1457134.799999997","20336","","","{""price_1"":""100"",""price_2"":""90"",""price_3"":""110""}","rating","tcd","attraction_2","2","microwave ovens","null","null","null","null","null","null","2","50","60","40","60","50","60","Warranty","Cooking power","",""
"","","","","","rating_trial_setup","html-keyboard-response","39","491304","0.0-3.0-0.18","107","1","2025-04-11 14:50:19","bb671e3ae32f654b8954ea4c4635f915","","Mozilla/5.0 (Macintosh; Intel Mac OS X 10_15_7) AppleWebKit/537.36 (KHTML, like Gecko) Chrome/135.0.0.0 Safari/537.36","Macintosh","Chrome","135.0.0.0","OS X","10_15_7","https://hz8g1ckzuq.cognition.run/","en-US,en;q=0.9","qc6jdceofbq359d","27","[""Asian"",""Other""]","Yes","Male","1457134.799999997","null","","<p></p>","null","rating","ctd","repulsion_1","1","washing machines","null","null","null","null","null","null","2","","","","","","","","","",""
"","","","","","rating_trial","survey-html-form","40","502980","0.0-3.0-1.18","107","1","2025-04-11 14:50:19","bb671e3ae32f654b8954ea4c4635f915","","Mozilla/5.0 (Macintosh; Intel Mac OS X 10_15_7) AppleWebKit/537.36 (KHTML, like Gecko) Chrome/135.0.0.0 Safari/537.36","Macintosh","Chrome","135.0.0.0","OS X","10_15_7","https://hz8g1ckzuq.cognition.run/","en-US,en;q=0.9","qc6jdceofbq359d","27","[""Asian"",""Other""]","Yes","Male","1457134.799999997","11669","","","{""price_1"":""300"",""price_2"":""250"",""price_3"":""200""}","rating","ctd","repulsion_1","1","washing machines","null","null","null","null","null","null","2","100","90","100","30","40","25","Average lifespan","Energy savings","",""
"","","","","","rating_trial_setup","html-keyboard-response","41","503286","0.0-3.0-0.19","107","1","2025-04-11 14:50:19","bb671e3ae32f654b8954ea4c4635f915","","Mozilla/5.0 (Macintosh; Intel Mac OS X 10_15_7) AppleWebKit/537.36 (KHTML, like Gecko) Chrome/135.0.0.0 Safari/537.36","Macintosh","Chrome","135.0.0.0","OS X","10_15_7","https://hz8g1ckzuq.cognition.run/","en-US,en;q=0.9","qc6jdceofbq359d","27","[""Asian"",""Other""]","Yes","Male","1457134.799999997","null","","<p></p>","null","rating","wbw","catch","null","televisions","60","65","25","15","25","10","1","","","","","","","","","",""
"","","","","","rating_trial","survey-html-form","42","549504","0.0-3.0-1.19","107","1","2025-04-11 14:50:19","bb671e3ae32f654b8954ea4c4635f915","","Mozilla/5.0 (Macintosh; Intel Mac OS X 10_15_7) AppleWebKit/537.36 (KHTML, like Gecko) Chrome/135.0.0.0 Safari/537.36","Macintosh","Chrome","135.0.0.0","OS X","10_15_7","https://hz8g1ckzuq.cognition.run/","en-US,en;q=0.9","qc6jdceofbq359d","27","[""Asian"",""Other""]","Yes","Male","1457134.799999997","46211","","","{""price_1"":""30"",""price_2"":""80"",""price_3"":""20""}","rating","wbw","catch","null","televisions","60","65","25","15","25","10","1","null","null","null","null","null","null","Screen size","Average lifespan","",""
"","","","","","rating_trial_setup","html-keyboard-response","43","549808","0.0-3.0-0.20","107","1","2025-04-11 14:50:19","bb671e3ae32f654b8954ea4c4635f915","","Mozilla/5.0 (Macintosh; Intel Mac OS X 10_15_7) AppleWebKit/537.36 (KHTML, like Gecko) Chrome/135.0.0.0 Safari/537.36","Macintosh","Chrome","135.0.0.0","OS X","10_15_7","https://hz8g1ckzuq.cognition.run/","en-US,en;q=0.9","qc6jdceofbq359d","27","[""Asian"",""Other""]","Yes","Male","1457134.799999997","null","","<p></p>","null","rating","tdc","repulsion_1","2","televisions","null","null","null","null","null","null","1","","","","","","","","","",""
"","","","","","rating_trial","survey-html-form","44","574204","0.0-3.0-1.20","107","1","2025-04-11 14:50:19","bb671e3ae32f654b8954ea4c4635f915","","Mozilla/5.0 (Macintosh; Intel Mac OS X 10_15_7) AppleWebKit/537.36 (KHTML, like Gecko) Chrome/135.0.0.0 Safari/537.36","Macintosh","Chrome","135.0.0.0","OS X","10_15_7","https://hz8g1ckzuq.cognition.run/","en-US,en;q=0.9","qc6jdceofbq359d","27","[""Asian"",""Other""]","Yes","Male","1457134.799999997","24388","","","{""price_1"":""50"",""price_2"":""40"",""price_3"":""65""}","rating","tdc","repulsion_1","2","televisions","null","null","null","null","null","null","1","30","40","25","100","90","100","Screen size","Average lifespan","",""
"","","","","","rating_trial_setup","html-keyboard-response","45","574509","0.0-3.0-0.21","107","1","2025-04-11 14:50:19","bb671e3ae32f654b8954ea4c4635f915","","Mozilla/5.0 (Macintosh; Intel Mac OS X 10_15_7) AppleWebKit/537.36 (KHTML, like Gecko) Chrome/135.0.0.0 Safari/537.36","Macintosh","Chrome","135.0.0.0","OS X","10_15_7","https://hz8g1ckzuq.cognition.run/","en-US,en;q=0.9","qc6jdceofbq359d","27","[""Asian"",""Other""]","Yes","Male","1457134.799999997","null","","<p></p>","null","rating","tdc","repulsion_2","1","washing machines","null","null","null","null","null","null","2","","","","","","","","","",""
"","","","","","rating_trial","survey-html-form","46","592303","0.0-3.0-1.21","107","1","2025-04-11 14:50:19","bb671e3ae32f654b8954ea4c4635f915","","Mozilla/5.0 (Macintosh; Intel Mac OS X 10_15_7) AppleWebKit/537.36 (KHTML, like Gecko) Chrome/135.0.0.0 Safari/537.36","Macintosh","Chrome","135.0.0.0","OS X","10_15_7","https://hz8g1ckzuq.cognition.run/","en-US,en;q=0.9","qc6jdceofbq359d","27","[""Asian"",""Other""]","Yes","Male","1457134.799999997","17786","","","{""price_1"":""200"",""price_2"":""180"",""price_3"":""220""}","rating","tdc","repulsion_2","1","washing machines","null","null","null","null","null","null","2","100","90","100","30","40","20","Average lifespan","Energy savings","",""
"","","","","","rating_trial_setup","html-keyboard-response","47","592609","0.0-3.0-0.22","107","1","2025-04-11 14:50:19","bb671e3ae32f654b8954ea4c4635f915","","Mozilla/5.0 (Macintosh; Intel Mac OS X 10_15_7) AppleWebKit/537.36 (KHTML, like Gecko) Chrome/135.0.0.0 Safari/537.36","Macintosh","Chrome","135.0.0.0","OS X","10_15_7","https://hz8g1ckzuq.cognition.run/","en-US,en;q=0.9","qc6jdceofbq359d","27","[""Asian"",""Other""]","Yes","Male","1457134.799999997","null","","<p></p>","null","rating","wwb","catch","null","microwave ovens","70","80","15","30","25","35","1","","","","","","","","","",""
"","","","","","rating_trial","survey-html-form","48","753887","0.0-3.0-1.22","107","1","2025-04-11 14:50:19","bb671e3ae32f654b8954ea4c4635f915","","Mozilla/5.0 (Macintosh; Intel Mac OS X 10_15_7) AppleWebKit/537.36 (KHTML, like Gecko) Chrome/135.0.0.0 Safari/537.36","Macintosh","Chrome","135.0.0.0","OS X","10_15_7","https://hz8g1ckzuq.cognition.run/","en-US,en;q=0.9","qc6jdceofbq359d","27","[""Asian"",""Other""]","Yes","Male","1457134.799999997","161269","","","{""price_1"":""50"",""price_2"":""60"",""price_3"":""80""}","rating","wwb","catch","null","microwave ovens","70","80","15","30","25","35","1","null","null","null","null","null","null","Warranty","Cooking power","",""
"","","","","","rating_trial_setup","html-keyboard-response","49","754192","0.0-3.0-0.23","107","1","2025-04-11 14:50:19","bb671e3ae32f654b8954ea4c4635f915","","Mozilla/5.0 (Macintosh; Intel Mac OS X 10_15_7) AppleWebKit/537.36 (KHTML, like Gecko) Chrome/135.0.0.0 Safari/537.36","Macintosh","Chrome","135.0.0.0","OS X","10_15_7","https://hz8g1ckzuq.cognition.run/","en-US,en;q=0.9","qc6jdceofbq359d","27","[""Asian"",""Other""]","Yes","Male","1457134.799999997","null","","<p></p>","null","rating","wbw","catch","null","washing machines","50","90","15","40","50","50","2","","","","","","","","","",""
"","","","","","rating_trial","survey-html-form","50","780748","0.0-3.0-1.23","107","1","2025-04-11 14:50:19","bb671e3ae32f654b8954ea4c4635f915","","Mozilla/5.0 (Macintosh; Intel Mac OS X 10_15_7) AppleWebKit/537.36 (KHTML, like Gecko) Chrome/135.0.0.0 Safari/537.36","Macintosh","Chrome","135.0.0.0","OS X","10_15_7","https://hz8g1ckzuq.cognition.run/","en-US,en;q=0.9","qc6jdceofbq359d","27","[""Asian"",""Other""]","Yes","Male","1457134.799999997","26548","","","{""price_1"":""70"",""price_2"":""180"",""price_3"":""100""}","rating","wbw","catch","null","washing machines","50","90","15","40","50","50","2","null","null","null","null","null","null","Average lifespan","Energy savings","",""
"","","","","","rating_trial_setup","html-keyboard-response","51","781051","0.0-3.0-0.24","107","1","2025-04-11 14:50:19","bb671e3ae32f654b8954ea4c4635f915","","Mozilla/5.0 (Macintosh; Intel Mac OS X 10_15_7) AppleWebKit/537.36 (KHTML, like Gecko) Chrome/135.0.0.0 Safari/537.36","Macintosh","Chrome","135.0.0.0","OS X","10_15_7","https://hz8g1ckzuq.cognition.run/","en-US,en;q=0.9","qc6jdceofbq359d","27","[""Asian"",""Other""]","Yes","Male","1457134.799999997","null","","<p></p>","null","rating","cdt","repulsion_1","2","microwave ovens","null","null","null","null","null","null","2","","","","","","","","","",""
"","","","","","rating_trial","survey-html-form","52","830845","0.0-3.0-1.24","107","1","2025-04-11 14:50:19","bb671e3ae32f654b8954ea4c4635f915","","Mozilla/5.0 (Macintosh; Intel Mac OS X 10_15_7) AppleWebKit/537.36 (KHTML, like Gecko) Chrome/135.0.0.0 Safari/537.36","Macintosh","Chrome","135.0.0.0","OS X","10_15_7","https://hz8g1ckzuq.cognition.run/","en-US,en;q=0.9","qc6jdceofbq359d","27","[""Asian"",""Other""]","Yes","Male","1457134.799999997","49784","","","{""price_1"":""120"",""price_2"":""140"",""price_3"":""150""}","rating","cdt","repulsion_1","2","microwave ovens","null","null","null","null","null","null","2","30","40","25","100","90","100","Warranty","Cooking power","",""
"","","","","","rating_trial_setup","html-keyboard-response","53","831153","0.0-3.0-0.25","107","1","2025-04-11 14:50:19","bb671e3ae32f654b8954ea4c4635f915","","Mozilla/5.0 (Macintosh; Intel Mac OS X 10_15_7) AppleWebKit/537.36 (KHTML, like Gecko) Chrome/135.0.0.0 Safari/537.36","Macintosh","Chrome","135.0.0.0","OS X","10_15_7","https://hz8g1ckzuq.cognition.run/","en-US,en;q=0.9","qc6jdceofbq359d","27","[""Asian"",""Other""]","Yes","Male","1457134.799999997","null","","<p></p>","null","rating","bww","catch","null","laptops","70","95","40","30","5","45","1","","","","","","","","","",""
"","","","","","rating_trial","survey-html-form","54","845525","0.0-3.0-1.25","107","1","2025-04-11 14:50:19","bb671e3ae32f654b8954ea4c4635f915","","Mozilla/5.0 (Macintosh; Intel Mac OS X 10_15_7) AppleWebKit/537.36 (KHTML, like Gecko) Chrome/135.0.0.0 Safari/537.36","Macintosh","Chrome","135.0.0.0","OS X","10_15_7","https://hz8g1ckzuq.cognition.run/","en-US,en;q=0.9","qc6jdceofbq359d","27","[""Asian"",""Other""]","Yes","Male","1457134.799999997","14363","","","{""price_1"":""500"",""price_2"":""130"",""price_3"":""70""}","rating","bww","catch","null","laptops","70","95","40","30","5","45","1","null","null","null","null","null","null","Processing speed","Memory (RAM)","",""
"","","","","","rating_trial_setup","html-keyboard-response","55","845831","0.0-3.0-0.26","107","1","2025-04-11 14:50:19","bb671e3ae32f654b8954ea4c4635f915","","Mozilla/5.0 (Macintosh; Intel Mac OS X 10_15_7) AppleWebKit/537.36 (KHTML, like Gecko) Chrome/135.0.0.0 Safari/537.36","Macintosh","Chrome","135.0.0.0","OS X","10_15_7","https://hz8g1ckzuq.cognition.run/","en-US,en;q=0.9","qc6jdceofbq359d","27","[""Asian"",""Other""]","Yes","Male","1457134.799999997","null","","<p></p>","null","rating","dct","repulsion_1","2","washing machines","null","null","null","null","null","null","2","","","","","","","","","",""
"","","","","","rating_trial","survey-html-form","56","869259","0.0-3.0-1.26","107","1","2025-04-11 14:50:19","bb671e3ae32f654b8954ea4c4635f915","","Mozilla/5.0 (Macintosh; Intel Mac OS X 10_15_7) AppleWebKit/537.36 (KHTML, like Gecko) Chrome/135.0.0.0 Safari/537.36","Macintosh","Chrome","135.0.0.0","OS X","10_15_7","https://hz8g1ckzuq.cognition.run/","en-US,en;q=0.9","qc6jdceofbq359d","27","[""Asian"",""Other""]","Yes","Male","1457134.799999997","23419","","","{""price_1"":""200"",""price_2"":""190"",""price_3"":""210""}","rating","dct","repulsion_1","2","washing machines","null","null","null","null","null","null","2","30","40","25","100","90","100","Average lifespan","Energy savings","",""
"","","","","","rating_trial_setup","html-keyboard-response","57","869567","0.0-3.0-0.27","107","1","2025-04-11 14:50:19","bb671e3ae32f654b8954ea4c4635f915","","Mozilla/5.0 (Macintosh; Intel Mac OS X 10_15_7) AppleWebKit/537.36 (KHTML, like Gecko) Chrome/135.0.0.0 Safari/537.36","Macintosh","Chrome","135.0.0.0","OS X","10_15_7","https://hz8g1ckzuq.cognition.run/","en-US,en;q=0.9","qc6jdceofbq359d","27","[""Asian"",""Other""]","Yes","Male","1457134.799999997","null","","<p></p>","null","rating","dtc","repulsion_1","1","televisions","null","null","null","null","null","null","2","","","","","","","","","",""
"","","","","","rating_trial","survey-html-form","58","893551","0.0-3.0-1.27","107","1","2025-04-11 14:50:19","bb671e3ae32f654b8954ea4c4635f915","","Mozilla/5.0 (Macintosh; Intel Mac OS X 10_15_7) AppleWebKit/537.36 (KHTML, like Gecko) Chrome/135.0.0.0 Safari/537.36","Macintosh","Chrome","135.0.0.0","OS X","10_15_7","https://hz8g1ckzuq.cognition.run/","en-US,en;q=0.9","qc6jdceofbq359d","27","[""Asian"",""Other""]","Yes","Male","1457134.799999997","23977","","","{""price_1"":""200"",""price_2"":""220"",""price_3"":""200""}","rating","dtc","repulsion_1","1","televisions","null","null","null","null","null","null","2","100","90","100","30","40","25","Screen size","Average lifespan","",""
"","","","","","rating_trial_setup","html-keyboard-response","59","893858","0.0-3.0-0.28","107","1","2025-04-11 14:50:19","bb671e3ae32f654b8954ea4c4635f915","","Mozilla/5.0 (Macintosh; Intel Mac OS X 10_15_7) AppleWebKit/537.36 (KHTML, like Gecko) Chrome/135.0.0.0 Safari/537.36","Macintosh","Chrome","135.0.0.0","OS X","10_15_7","https://hz8g1ckzuq.cognition.run/","en-US,en;q=0.9","qc6jdceofbq359d","27","[""Asian"",""Other""]","Yes","Male","1457134.799999997","null","","<p></p>","null","rating","tcd","attraction_1","2","laptops","null","null","null","null","null","null","2","","","","","","","","","",""
"","","","","","rating_trial","survey-html-form","60","922156","0.0-3.0-1.28","107","1","2025-04-11 14:50:19","bb671e3ae32f654b8954ea4c4635f915","","Mozilla/5.0 (Macintosh; Intel Mac OS X 10_15_7) AppleWebKit/537.36 (KHTML, like Gecko) Chrome/135.0.0.0 Safari/537.36","Macintosh","Chrome","135.0.0.0","OS X","10_15_7","https://hz8g1ckzuq.cognition.run/","en-US,en;q=0.9","qc6jdceofbq359d","27","[""Asian"",""Other""]","Yes","Male","1457134.799999997","28287","","","{""price_1"":""200"",""price_2"":""210"",""price_3"":""200""}","rating","tcd","attraction_1","2","laptops","null","null","null","null","null","null","2","50","60","45","60","50","60","Processing speed","Memory (RAM)","",""
"","","","","","rating_trial_setup","html-keyboard-response","61","922461","0.0-3.0-0.29","107","1","2025-04-11 14:50:19","bb671e3ae32f654b8954ea4c4635f915","","Mozilla/5.0 (Macintosh; Intel Mac OS X 10_15_7) AppleWebKit/537.36 (KHTML, like Gecko) Chrome/135.0.0.0 Safari/537.36","Macintosh","Chrome","135.0.0.0","OS X","10_15_7","https://hz8g1ckzuq.cognition.run/","en-US,en;q=0.9","qc6jdceofbq359d","27","[""Asian"",""Other""]","Yes","Male","1457134.799999997","null","","<p></p>","null","rating","dct","attraction_1","1","microwave ovens","null","null","null","null","null","null","1","","","","","","","","","",""
"","","","","","rating_trial","survey-html-form","62","940651","0.0-3.0-1.29","107","1","2025-04-11 14:50:19","bb671e3ae32f654b8954ea4c4635f915","","Mozilla/5.0 (Macintosh; Intel Mac OS X 10_15_7) AppleWebKit/537.36 (KHTML, like Gecko) Chrome/135.0.0.0 Safari/537.36","Macintosh","Chrome","135.0.0.0","OS X","10_15_7","https://hz8g1ckzuq.cognition.run/","en-US,en;q=0.9","qc6jdceofbq359d","27","[""Asian"",""Other""]","Yes","Male","1457134.799999997","18181","","","{""price_1"":""120"",""price_2"":""130"",""price_3"":""125""}","rating","dct","attraction_1","1","microwave ovens","null","null","null","null","null","null","1","60","50","60","50","60","45","Warranty","Cooking power","",""
"","","","","","rating_trial_setup","html-keyboard-response","63","940957","0.0-3.0-0.30","107","1","2025-04-11 14:50:19","bb671e3ae32f654b8954ea4c4635f915","","Mozilla/5.0 (Macintosh; Intel Mac OS X 10_15_7) AppleWebKit/537.36 (KHTML, like Gecko) Chrome/135.0.0.0 Safari/537.36","Macintosh","Chrome","135.0.0.0","OS X","10_15_7","https://hz8g1ckzuq.cognition.run/","en-US,en;q=0.9","qc6jdceofbq359d","27","[""Asian"",""Other""]","Yes","Male","1457134.799999997","null","","<p></p>","null","rating","tdc","repulsion_2","2","microwave ovens","null","null","null","null","null","null","1","","","","","","","","","",""
"","","","","","rating_trial","survey-html-form","64","954487","0.0-3.0-1.30","107","1","2025-04-11 14:50:19","bb671e3ae32f654b8954ea4c4635f915","","Mozilla/5.0 (Macintosh; Intel Mac OS X 10_15_7) AppleWebKit/537.36 (KHTML, like Gecko) Chrome/135.0.0.0 Safari/537.36","Macintosh","Chrome","135.0.0.0","OS X","10_15_7","https://hz8g1ckzuq.cognition.run/","en-US,en;q=0.9","qc6jdceofbq359d","27","[""Asian"",""Other""]","Yes","Male","1457134.799999997","13519","","","{""price_1"":""180"",""price_2"":""160"",""price_3"":""160""}","rating","tdc","repulsion_2","2","microwave ovens","null","null","null","null","null","null","1","30","40","20","100","90","100","Warranty","Cooking power","",""
"","","","","","rating_trial_setup","html-keyboard-response","65","954792","0.0-3.0-0.31","107","1","2025-04-11 14:50:19","bb671e3ae32f654b8954ea4c4635f915","","Mozilla/5.0 (Macintosh; Intel Mac OS X 10_15_7) AppleWebKit/537.36 (KHTML, like Gecko) Chrome/135.0.0.0 Safari/537.36","Macintosh","Chrome","135.0.0.0","OS X","10_15_7","https://hz8g1ckzuq.cognition.run/","en-US,en;q=0.9","qc6jdceofbq359d","27","[""Asian"",""Other""]","Yes","Male","1457134.799999997","null","","<p></p>","null","rating","tcd","repulsion_2","1","laptops","null","null","null","null","null","null","1","","","","","","","","","",""
"","","","","","rating_trial","survey-html-form","66","965796","0.0-3.0-1.31","107","1","2025-04-11 14:50:19","bb671e3ae32f654b8954ea4c4635f915","","Mozilla/5.0 (Macintosh; Intel Mac OS X 10_15_7) AppleWebKit/537.36 (KHTML, like Gecko) Chrome/135.0.0.0 Safari/537.36","Macintosh","Chrome","135.0.0.0","OS X","10_15_7","https://hz8g1ckzuq.cognition.run/","en-US,en;q=0.9","qc6jdceofbq359d","27","[""Asian"",""Other""]","Yes","Male","1457134.799999997","10994","","","{""price_1"":""200"",""price_2"":""220"",""price_3"":""150""}","rating","tcd","repulsion_2","1","laptops","null","null","null","null","null","null","1","100","90","100","30","40","20","Processing speed","Memory (RAM)","",""
"","","","","","rating_trial_setup","html-keyboard-response","67","966102","0.0-3.0-0.32","107","1","2025-04-11 14:50:19","bb671e3ae32f654b8954ea4c4635f915","","Mozilla/5.0 (Macintosh; Intel Mac OS X 10_15_7) AppleWebKit/537.36 (KHTML, like Gecko) Chrome/135.0.0.0 Safari/537.36","Macintosh","Chrome","135.0.0.0","OS X","10_15_7","https://hz8g1ckzuq.cognition.run/","en-US,en;q=0.9","qc6jdceofbq359d","27","[""Asian"",""Other""]","Yes","Male","1457134.799999997","null","","<p></p>","null","rating","tcd","attraction_1","1","televisions","null","null","null","null","null","null","1","","","","","","","","","",""
"","","","","","rating_trial","survey-html-form","68","975120","0.0-3.0-1.32","107","1","2025-04-11 14:50:19","bb671e3ae32f654b8954ea4c4635f915","","Mozilla/5.0 (Macintosh; Intel Mac OS X 10_15_7) AppleWebKit/537.36 (KHTML, like Gecko) Chrome/135.0.0.0 Safari/537.36","Macintosh","Chrome","135.0.0.0","OS X","10_15_7","https://hz8g1ckzuq.cognition.run/","en-US,en;q=0.9","qc6jdceofbq359d","27","[""Asian"",""Other""]","Yes","Male","1457134.799999997","9008","","","{""price_1"":""200"",""price_2"":""210"",""price_3"":""210""}","rating","tcd","attraction_1","1","televisions","null","null","null","null","null","null","1","60","50","60","50","60","45","Screen size","Average lifespan","",""
"","","","","","rating_trial_setup","html-keyboard-response","69","975424","0.0-3.0-0.33","107","1","2025-04-11 14:50:19","bb671e3ae32f654b8954ea4c4635f915","","Mozilla/5.0 (Macintosh; Intel Mac OS X 10_15_7) AppleWebKit/537.36 (KHTML, like Gecko) Chrome/135.0.0.0 Safari/537.36","Macintosh","Chrome","135.0.0.0","OS X","10_15_7","https://hz8g1ckzuq.cognition.run/","en-US,en;q=0.9","qc6jdceofbq359d","27","[""Asian"",""Other""]","Yes","Male","1457134.799999997","null","","<p></p>","null","rating","cdt","attraction_2","2","laptops","null","null","null","null","null","null","1","","","","","","","","","",""
"","","","","","rating_trial","survey-html-form","70","981570","0.0-3.0-1.33","107","1","2025-04-11 14:50:19","bb671e3ae32f654b8954ea4c4635f915","","Mozilla/5.0 (Macintosh; Intel Mac OS X 10_15_7) AppleWebKit/537.36 (KHTML, like Gecko) Chrome/135.0.0.0 Safari/537.36","Macintosh","Chrome","135.0.0.0","OS X","10_15_7","https://hz8g1ckzuq.cognition.run/","en-US,en;q=0.9","qc6jdceofbq359d","27","[""Asian"",""Other""]","Yes","Male","1457134.799999997","6140","","","{""price_1"":""200"",""price_2"":""210"",""price_3"":""200""}","rating","cdt","attraction_2","2","laptops","null","null","null","null","null","null","1","50","60","40","60","50","60","Processing speed","Memory (RAM)","",""
"","","","","","rating_trial_setup","html-keyboard-response","71","981876","0.0-3.0-0.34","107","1","2025-04-11 14:50:19","bb671e3ae32f654b8954ea4c4635f915","","Mozilla/5.0 (Macintosh; Intel Mac OS X 10_15_7) AppleWebKit/537.36 (KHTML, like Gecko) Chrome/135.0.0.0 Safari/537.36","Macintosh","Chrome","135.0.0.0","OS X","10_15_7","https://hz8g1ckzuq.cognition.run/","en-US,en;q=0.9","qc6jdceofbq359d","27","[""Asian"",""Other""]","Yes","Male","1457134.799999997","null","","<p></p>","null","rating","tcd","attraction_1","2","televisions","null","null","null","null","null","null","1","","","","","","","","","",""
"","","","","","rating_trial","survey-html-form","72","992685","0.0-3.0-1.34","107","1","2025-04-11 14:50:19","bb671e3ae32f654b8954ea4c4635f915","","Mozilla/5.0 (Macintosh; Intel Mac OS X 10_15_7) AppleWebKit/537.36 (KHTML, like Gecko) Chrome/135.0.0.0 Safari/537.36","Macintosh","Chrome","135.0.0.0","OS X","10_15_7","https://hz8g1ckzuq.cognition.run/","en-US,en;q=0.9","qc6jdceofbq359d","27","[""Asian"",""Other""]","Yes","Male","1457134.799999997","10798","","","{""price_1"":""150"",""price_2"":""150"",""price_3"":""150""}","rating","tcd","attraction_1","2","televisions","null","null","null","null","null","null","1","50","60","45","60","50","60","Screen size","Average lifespan","",""
"","","","","","rating_trial_setup","html-keyboard-response","73","992994","0.0-3.0-0.35","107","1","2025-04-11 14:50:19","bb671e3ae32f654b8954ea4c4635f915","","Mozilla/5.0 (Macintosh; Intel Mac OS X 10_15_7) AppleWebKit/537.36 (KHTML, like Gecko) Chrome/135.0.0.0 Safari/537.36","Macintosh","Chrome","135.0.0.0","OS X","10_15_7","https://hz8g1ckzuq.cognition.run/","en-US,en;q=0.9","qc6jdceofbq359d","27","[""Asian"",""Other""]","Yes","Male","1457134.799999997","null","","<p></p>","null","rating","dct","attraction_2","1","washing machines","null","null","null","null","null","null","2","","","","","","","","","",""
"","","","","","rating_trial","survey-html-form","74","1000377","0.0-3.0-1.35","107","1","2025-04-11 14:50:19","bb671e3ae32f654b8954ea4c4635f915","","Mozilla/5.0 (Macintosh; Intel Mac OS X 10_15_7) AppleWebKit/537.36 (KHTML, like Gecko) Chrome/135.0.0.0 Safari/537.36","Macintosh","Chrome","135.0.0.0","OS X","10_15_7","https://hz8g1ckzuq.cognition.run/","en-US,en;q=0.9","qc6jdceofbq359d","27","[""Asian"",""Other""]","Yes","Male","1457134.799999997","7372","","","{""price_1"":""200"",""price_2"":""200"",""price_3"":""200""}","rating","dct","attraction_2","1","washing machines","null","null","null","null","null","null","2","60","50","60","50","60","40","Average lifespan","Energy savings","",""
"","","","","","rating_trial_setup","html-keyboard-response","75","1000688","0.0-3.0-0.36","107","1","2025-04-11 14:50:19","bb671e3ae32f654b8954ea4c4635f915","","Mozilla/5.0 (Macintosh; Intel Mac OS X 10_15_7) AppleWebKit/537.36 (KHTML, like Gecko) Chrome/135.0.0.0 Safari/537.36","Macintosh","Chrome","135.0.0.0","OS X","10_15_7","https://hz8g1ckzuq.cognition.run/","en-US,en;q=0.9","qc6jdceofbq359d","27","[""Asian"",""Other""]","Yes","Male","1457134.799999997","null","","<p></p>","null","rating","wwb","catch","null","microwave ovens","60","95","30","40","10","50","2","","","","","","","","","",""
"","","","","","rating_trial","survey-html-form","76","1016442","0.0-3.0-1.36","107","1","2025-04-11 14:50:19","bb671e3ae32f654b8954ea4c4635f915","","Mozilla/5.0 (Macintosh; Intel Mac OS X 10_15_7) AppleWebKit/537.36 (KHTML, like Gecko) Chrome/135.0.0.0 Safari/537.36","Macintosh","Chrome","135.0.0.0","OS X","10_15_7","https://hz8g1ckzuq.cognition.run/","en-US,en;q=0.9","qc6jdceofbq359d","27","[""Asian"",""Other""]","Yes","Male","1457134.799999997","15743","","","{""price_1"":""100"",""price_2"":""90"",""price_3"":""140""}","rating","wwb","catch","null","microwave ovens","60","95","30","40","10","50","2","null","null","null","null","null","null","Warranty","Cooking power","",""
"","","","","","rating_trial_setup","html-keyboard-response","77","1016749","0.0-3.0-0.37","107","1","2025-04-11 14:50:19","bb671e3ae32f654b8954ea4c4635f915","","Mozilla/5.0 (Macintosh; Intel Mac OS X 10_15_7) AppleWebKit/537.36 (KHTML, like Gecko) Chrome/135.0.0.0 Safari/537.36","Macintosh","Chrome","135.0.0.0","OS X","10_15_7","https://hz8g1ckzuq.cognition.run/","en-US,en;q=0.9","qc6jdceofbq359d","27","[""Asian"",""Other""]","Yes","Male","1457134.799999997","null","","<p></p>","null","rating","tcd","attraction_1","2","washing machines","null","null","null","null","null","null","2","","","","","","","","","",""
"","","","","","rating_trial","survey-html-form","78","1039732","0.0-3.0-1.37","107","1","2025-04-11 14:50:19","bb671e3ae32f654b8954ea4c4635f915","","Mozilla/5.0 (Macintosh; Intel Mac OS X 10_15_7) AppleWebKit/537.36 (KHTML, like Gecko) Chrome/135.0.0.0 Safari/537.36","Macintosh","Chrome","135.0.0.0","OS X","10_15_7","https://hz8g1ckzuq.cognition.run/","en-US,en;q=0.9","qc6jdceofbq359d","27","[""Asian"",""Other""]","Yes","Male","1457134.799999997","22972","","","{""price_1"":""200"",""price_2"":""210"",""price_3"":""210""}","rating","tcd","attraction_1","2","washing machines","null","null","null","null","null","null","2","50","60","45","60","50","60","Average lifespan","Energy savings","",""
"","","","","","rating_trial_setup","html-keyboard-response","79","1040038","0.0-3.0-0.38","107","1","2025-04-11 14:50:19","bb671e3ae32f654b8954ea4c4635f915","","Mozilla/5.0 (Macintosh; Intel Mac OS X 10_15_7) AppleWebKit/537.36 (KHTML, like Gecko) Chrome/135.0.0.0 Safari/537.36","Macintosh","Chrome","135.0.0.0","OS X","10_15_7","https://hz8g1ckzuq.cognition.run/","en-US,en;q=0.9","qc6jdceofbq359d","27","[""Asian"",""Other""]","Yes","Male","1457134.799999997","null","","<p></p>","null","rating","dtc","repulsion_1","1","laptops","null","null","null","null","null","null","1","","","","","","","","","",""
"","","","","","rating_trial","survey-html-form","80","1059555","0.0-3.0-1.38","107","1","2025-04-11 14:50:19","bb671e3ae32f654b8954ea4c4635f915","","Mozilla/5.0 (Macintosh; Intel Mac OS X 10_15_7) AppleWebKit/537.36 (KHTML, like Gecko) Chrome/135.0.0.0 Safari/537.36","Macintosh","Chrome","135.0.0.0","OS X","10_15_7","https://hz8g1ckzuq.cognition.run/","en-US,en;q=0.9","qc6jdceofbq359d","27","[""Asian"",""Other""]","Yes","Male","1457134.799999997","19512","","","{""price_1"":""200"",""price_2"":""220"",""price_3"":""250""}","rating","dtc","repulsion_1","1","laptops","null","null","null","null","null","null","1","100","90","100","30","40","25","Processing speed","Memory (RAM)","",""
"","","","","","rating_trial_setup","html-keyboard-response","81","1059862","0.0-3.0-0.39","107","1","2025-04-11 14:50:19","bb671e3ae32f654b8954ea4c4635f915","","Mozilla/5.0 (Macintosh; Intel Mac OS X 10_15_7) AppleWebKit/537.36 (KHTML, like Gecko) Chrome/135.0.0.0 Safari/537.36","Macintosh","Chrome","135.0.0.0","OS X","10_15_7","https://hz8g1ckzuq.cognition.run/","en-US,en;q=0.9","qc6jdceofbq359d","27","[""Asian"",""Other""]","Yes","Male","1457134.799999997","null","","<p></p>","null","rating","wbw","catch","null","washing machines","95","70","50","35","10","45","1","","","","","","","","","",""
"","","","","","rating_trial","survey-html-form","82","1080281","0.0-3.0-1.39","107","1","2025-04-11 14:50:19","bb671e3ae32f654b8954ea4c4635f915","","Mozilla/5.0 (Macintosh; Intel Mac OS X 10_15_7) AppleWebKit/537.36 (KHTML, like Gecko) Chrome/135.0.0.0 Safari/537.36","Macintosh","Chrome","135.0.0.0","OS X","10_15_7","https://hz8g1ckzuq.cognition.run/","en-US,en;q=0.9","qc6jdceofbq359d","27","[""Asian"",""Other""]","Yes","Male","1457134.799999997","20410","","","{""price_1"":""150"",""price_2"":""225"",""price_3"":""100""}","rating","wbw","catch","null","washing machines","95","70","50","35","10","45","1","null","null","null","null","null","null","Average lifespan","Energy savings","",""
"","","","","","","instructions","83","1111298","0.0-4.0","107","1","2025-04-11 14:50:19","bb671e3ae32f654b8954ea4c4635f915","","Mozilla/5.0 (Macintosh; Intel Mac OS X 10_15_7) AppleWebKit/537.36 (KHTML, like Gecko) Chrome/135.0.0.0 Safari/537.36","Macintosh","Chrome","135.0.0.0","OS X","10_15_7","https://hz8g1ckzuq.cognition.run/","en-US,en;q=0.9","qc6jdceofbq359d","27","[""Asian"",""Other""]","Yes","Male","1457134.799999997","31012","[{""page_index"":0,""viewing_time"":1637},{""page_index"":1,""viewing_time"":1157},{""page_index"":2,""viewing_time"":2135},{""page_index"":3,""viewing_time"":3500},{""page_index"":4,""viewing_time"":5012},{""page_index"":5,""viewing_time"":2885},{""page_index"":6,""viewing_time"":8145},{""page_index"":7,""viewing_time"":6541}]","","","","","","","","","","","","","","","","","","","","","","","",""
"","","","","","choice_trial_setup","html-keyboard-response","84","1111610","0.0-5.0-0.0","107","1","2025-04-11 14:50:19","bb671e3ae32f654b8954ea4c4635f915","","Mozilla/5.0 (Macintosh; Intel Mac OS X 10_15_7) AppleWebKit/537.36 (KHTML, like Gecko) Chrome/135.0.0.0 Safari/537.36","Macintosh","Chrome","135.0.0.0","OS X","10_15_7","https://hz8g1ckzuq.cognition.run/","en-US,en;q=0.9","qc6jdceofbq359d","27","[""Asian"",""Other""]","Yes","Male","1457134.799999997","null","","<p></p>","null","choice","tdc","repulsion_2","1","laptops","null","null","null","null","null","null","2","","","","","","","","","",""
"","","","","","choice_trial","survey-html-form","85","1118556","0.0-5.0-1.0","107","1","2025-04-11 14:50:19","bb671e3ae32f654b8954ea4c4635f915","","Mozilla/5.0 (Macintosh; Intel Mac OS X 10_15_7) AppleWebKit/537.36 (KHTML, like Gecko) Chrome/135.0.0.0 Safari/537.36","Macintosh","Chrome","135.0.0.0","OS X","10_15_7","https://hz8g1ckzuq.cognition.run/","en-US,en;q=0.9","qc6jdceofbq359d","27","[""Asian"",""Other""]","Yes","Male","1457134.799999997","6934","","","{""product_choice"":""C""}","choice","tdc","repulsion_2","1","laptops","null","null","null","null","null","null","2","100","90","100","30","40","20","Processing speed","Memory (RAM)","",""
"","","","","","choice_trial_setup","html-keyboard-response","86","1118867","0.0-5.0-0.1","107","1","2025-04-11 14:50:19","bb671e3ae32f654b8954ea4c4635f915","","Mozilla/5.0 (Macintosh; Intel Mac OS X 10_15_7) AppleWebKit/537.36 (KHTML, like Gecko) Chrome/135.0.0.0 Safari/537.36","Macintosh","Chrome","135.0.0.0","OS X","10_15_7","https://hz8g1ckzuq.cognition.run/","en-US,en;q=0.9","qc6jdceofbq359d","27","[""Asian"",""Other""]","Yes","Male","1457134.799999997","null","","<p></p>","null","choice","wbw","catch","null","laptops","70","95","5","45","20","5","1","","","","","","","","","",""
"","","","","","choice_trial","survey-html-form","87","1123896","0.0-5.0-1.1","107","1","2025-04-11 14:50:19","bb671e3ae32f654b8954ea4c4635f915","","Mozilla/5.0 (Macintosh; Intel Mac OS X 10_15_7) AppleWebKit/537.36 (KHTML, like Gecko) Chrome/135.0.0.0 Safari/537.36","Macintosh","Chrome","135.0.0.0","OS X","10_15_7","https://hz8g1ckzuq.cognition.run/","en-US,en;q=0.9","qc6jdceofbq359d","27","[""Asian"",""Other""]","Yes","Male","1457134.799999997","5016","","","{""product_choice"":""B""}","choice","wbw","catch","null","laptops","70","95","5","45","20","5","1","null","null","null","null","null","null","Processing speed","Memory (RAM)","",""
"","","","","","choice_trial_setup","html-keyboard-response","88","1124207","0.0-5.0-0.2","107","1","2025-04-11 14:50:19","bb671e3ae32f654b8954ea4c4635f915","","Mozilla/5.0 (Macintosh; Intel Mac OS X 10_15_7) AppleWebKit/537.36 (KHTML, like Gecko) Chrome/135.0.0.0 Safari/537.36","Macintosh","Chrome","135.0.0.0","OS X","10_15_7","https://hz8g1ckzuq.cognition.run/","en-US,en;q=0.9","qc6jdceofbq359d","27","[""Asian"",""Other""]","Yes","Male","1457134.799999997","null","","<p></p>","null","choice","tdc","attraction_2","2","televisions","null","null","null","null","null","null","1","","","","","","","","","",""
"","","","","","choice_trial","survey-html-form","89","1134737","0.0-5.0-1.2","107","1","2025-04-11 14:50:19","bb671e3ae32f654b8954ea4c4635f915","","Mozilla/5.0 (Macintosh; Intel Mac OS X 10_15_7) AppleWebKit/537.36 (KHTML, like Gecko) Chrome/135.0.0.0 Safari/537.36","Macintosh","Chrome","135.0.0.0","OS X","10_15_7","https://hz8g1ckzuq.cognition.run/","en-US,en;q=0.9","qc6jdceofbq359d","27","[""Asian"",""Other""]","Yes","Male","1457134.799999997","10517","","","{""product_choice"":""C""}","choice","tdc","attraction_2","2","televisions","null","null","null","null","null","null","1","50","60","40","60","50","60","Screen size","Average lifespan","",""
"","","","","","choice_trial_setup","html-keyboard-response","90","1135048","0.0-5.0-0.3","107","1","2025-04-11 14:50:19","bb671e3ae32f654b8954ea4c4635f915","","Mozilla/5.0 (Macintosh; Intel Mac OS X 10_15_7) AppleWebKit/537.36 (KHTML, like Gecko) Chrome/135.0.0.0 Safari/537.36","Macintosh","Chrome","135.0.0.0","OS X","10_15_7","https://hz8g1ckzuq.cognition.run/","en-US,en;q=0.9","qc6jdceofbq359d","27","[""Asian"",""Other""]","Yes","Male","1457134.799999997","null","","<p></p>","null","choice","ctd","attraction_1","2","laptops","null","null","null","null","null","null","1","","","","","","","","","",""
"","","","","","choice_trial","survey-html-form","91","1140957","0.0-5.0-1.3","107","1","2025-04-11 14:50:19","bb671e3ae32f654b8954ea4c4635f915","","Mozilla/5.0 (Macintosh; Intel Mac OS X 10_15_7) AppleWebKit/537.36 (KHTML, like Gecko) Chrome/135.0.0.0 Safari/537.36","Macintosh","Chrome","135.0.0.0","OS X","10_15_7","https://hz8g1ckzuq.cognition.run/","en-US,en;q=0.9","qc6jdceofbq359d","27","[""Asian"",""Other""]","Yes","Male","1457134.799999997","5896","","","{""product_choice"":""B""}","choice","ctd","attraction_1","2","laptops","null","null","null","null","null","null","1","50","60","45","60","50","60","Processing speed","Memory (RAM)","",""
"","","","","","choice_trial_setup","html-keyboard-response","92","1141268","0.0-5.0-0.4","107","1","2025-04-11 14:50:19","bb671e3ae32f654b8954ea4c4635f915","","Mozilla/5.0 (Macintosh; Intel Mac OS X 10_15_7) AppleWebKit/537.36 (KHTML, like Gecko) Chrome/135.0.0.0 Safari/537.36","Macintosh","Chrome","135.0.0.0","OS X","10_15_7","https://hz8g1ckzuq.cognition.run/","en-US,en;q=0.9","qc6jdceofbq359d","27","[""Asian"",""Other""]","Yes","Male","1457134.799999997","null","","<p></p>","null","choice","dtc","repulsion_1","2","washing machines","null","null","null","null","null","null","2","","","","","","","","","",""
"","","","","","choice_trial","survey-html-form","93","1146783","0.0-5.0-1.4","107","1","2025-04-11 14:50:19","bb671e3ae32f654b8954ea4c4635f915","","Mozilla/5.0 (Macintosh; Intel Mac OS X 10_15_7) AppleWebKit/537.36 (KHTML, like Gecko) Chrome/135.0.0.0 Safari/537.36","Macintosh","Chrome","135.0.0.0","OS X","10_15_7","https://hz8g1ckzuq.cognition.run/","en-US,en;q=0.9","qc6jdceofbq359d","27","[""Asian"",""Other""]","Yes","Male","1457134.799999997","5503","","","{""product_choice"":""C""}","choice","dtc","repulsion_1","2","washing machines","null","null","null","null","null","null","2","30","40","25","100","90","100","Average lifespan","Energy savings","",""
"","","","","","choice_trial_setup","html-keyboard-response","94","1147095","0.0-5.0-0.5","107","1","2025-04-11 14:50:19","bb671e3ae32f654b8954ea4c4635f915","","Mozilla/5.0 (Macintosh; Intel Mac OS X 10_15_7) AppleWebKit/537.36 (KHTML, like Gecko) Chrome/135.0.0.0 Safari/537.36","Macintosh","Chrome","135.0.0.0","OS X","10_15_7","https://hz8g1ckzuq.cognition.run/","en-US,en;q=0.9","qc6jdceofbq359d","27","[""Asian"",""Other""]","Yes","Male","1457134.799999997","null","","<p></p>","null","choice","dtc","attraction_2","1","televisions","null","null","null","null","null","null","2","","","","","","","","","",""
"","","","","","choice_trial","survey-html-form","95","1153108","0.0-5.0-1.5","107","1","2025-04-11 14:50:19","bb671e3ae32f654b8954ea4c4635f915","","Mozilla/5.0 (Macintosh; Intel Mac OS X 10_15_7) AppleWebKit/537.36 (KHTML, like Gecko) Chrome/135.0.0.0 Safari/537.36","Macintosh","Chrome","135.0.0.0","OS X","10_15_7","https://hz8g1ckzuq.cognition.run/","en-US,en;q=0.9","qc6jdceofbq359d","27","[""Asian"",""Other""]","Yes","Male","1457134.799999997","6001","","","{""product_choice"":""B""}","choice","dtc","attraction_2","1","televisions","null","null","null","null","null","null","2","60","50","60","50","60","40","Screen size","Average lifespan","",""
"","","","","","choice_trial_setup","html-keyboard-response","96","1153418","0.0-5.0-0.6","107","1","2025-04-11 14:50:19","bb671e3ae32f654b8954ea4c4635f915","","Mozilla/5.0 (Macintosh; Intel Mac OS X 10_15_7) AppleWebKit/537.36 (KHTML, like Gecko) Chrome/135.0.0.0 Safari/537.36","Macintosh","Chrome","135.0.0.0","OS X","10_15_7","https://hz8g1ckzuq.cognition.run/","en-US,en;q=0.9","qc6jdceofbq359d","27","[""Asian"",""Other""]","Yes","Male","1457134.799999997","null","","<p></p>","null","choice","wwb","catch","null","laptops","65","85","50","50","40","25","1","","","","","","","","","",""
"","","","","","choice_trial","survey-html-form","97","1157390","0.0-5.0-1.6","107","1","2025-04-11 14:50:19","bb671e3ae32f654b8954ea4c4635f915","","Mozilla/5.0 (Macintosh; Intel Mac OS X 10_15_7) AppleWebKit/537.36 (KHTML, like Gecko) Chrome/135.0.0.0 Safari/537.36","Macintosh","Chrome","135.0.0.0","OS X","10_15_7","https://hz8g1ckzuq.cognition.run/","en-US,en;q=0.9","qc6jdceofbq359d","27","[""Asian"",""Other""]","Yes","Male","1457134.799999997","3959","","","{""product_choice"":""C""}","choice","wwb","catch","null","laptops","65","85","50","50","40","25","1","null","null","null","null","null","null","Processing speed","Memory (RAM)","",""
"","","","","","choice_trial_setup","html-keyboard-response","98","1157697","0.0-5.0-0.7","107","1","2025-04-11 14:50:19","bb671e3ae32f654b8954ea4c4635f915","","Mozilla/5.0 (Macintosh; Intel Mac OS X 10_15_7) AppleWebKit/537.36 (KHTML, like Gecko) Chrome/135.0.0.0 Safari/537.36","Macintosh","Chrome","135.0.0.0","OS X","10_15_7","https://hz8g1ckzuq.cognition.run/","en-US,en;q=0.9","qc6jdceofbq359d","27","[""Asian"",""Other""]","Yes","Male","1457134.799999997","null","","<p></p>","null","choice","ctd","repulsion_2","2","washing machines","null","null","null","null","null","null","1","","","","","","","","","",""
"","","","","","choice_trial","survey-html-form","99","1166986","0.0-5.0-1.7","107","1","2025-04-11 14:50:19","bb671e3ae32f654b8954ea4c4635f915","","Mozilla/5.0 (Macintosh; Intel Mac OS X 10_15_7) AppleWebKit/537.36 (KHTML, like Gecko) Chrome/135.0.0.0 Safari/537.36","Macintosh","Chrome","135.0.0.0","OS X","10_15_7","https://hz8g1ckzuq.cognition.run/","en-US,en;q=0.9","qc6jdceofbq359d","27","[""Asian"",""Other""]","Yes","Male","1457134.799999997","9282","","","{""product_choice"":""A""}","choice","ctd","repulsion_2","2","washing machines","null","null","null","null","null","null","1","30","40","20","100","90","100","Average lifespan","Energy savings","",""
"","","","","","choice_trial_setup","html-keyboard-response","100","1167298","0.0-5.0-0.8","107","1","2025-04-11 14:50:19","bb671e3ae32f654b8954ea4c4635f915","","Mozilla/5.0 (Macintosh; Intel Mac OS X 10_15_7) AppleWebKit/537.36 (KHTML, like Gecko) Chrome/135.0.0.0 Safari/537.36","Macintosh","Chrome","135.0.0.0","OS X","10_15_7","https://hz8g1ckzuq.cognition.run/","en-US,en;q=0.9","qc6jdceofbq359d","27","[""Asian"",""Other""]","Yes","Male","1457134.799999997","null","","<p></p>","null","choice","dtc","attraction_1","2","televisions","null","null","null","null","null","null","2","","","","","","","","","",""
"","","","","","choice_trial","survey-html-form","101","1171465","0.0-5.0-1.8","107","1","2025-04-11 14:50:19","bb671e3ae32f654b8954ea4c4635f915","","Mozilla/5.0 (Macintosh; Intel Mac OS X 10_15_7) AppleWebKit/537.36 (KHTML, like Gecko) Chrome/135.0.0.0 Safari/537.36","Macintosh","Chrome","135.0.0.0","OS X","10_15_7","https://hz8g1ckzuq.cognition.run/","en-US,en;q=0.9","qc6jdceofbq359d","27","[""Asian"",""Other""]","Yes","Male","1457134.799999997","4157","","","{""product_choice"":""C""}","choice","dtc","attraction_1","2","televisions","null","null","null","null","null","null","2","50","60","45","60","50","60","Screen size","Average lifespan","",""
"","","","","","choice_trial_setup","html-keyboard-response","102","1171779","0.0-5.0-0.9","107","1","2025-04-11 14:50:19","bb671e3ae32f654b8954ea4c4635f915","","Mozilla/5.0 (Macintosh; Intel Mac OS X 10_15_7) AppleWebKit/537.36 (KHTML, like Gecko) Chrome/135.0.0.0 Safari/537.36","Macintosh","Chrome","135.0.0.0","OS X","10_15_7","https://hz8g1ckzuq.cognition.run/","en-US,en;q=0.9","qc6jdceofbq359d","27","[""Asian"",""Other""]","Yes","Male","1457134.799999997","null","","<p></p>","null","choice","tcd","attraction_1","1","laptops","null","null","null","null","null","null","1","","","","","","","","","",""
"","","","","","choice_trial","survey-html-form","103","1176738","0.0-5.0-1.9","107","1","2025-04-11 14:50:19","bb671e3ae32f654b8954ea4c4635f915","","Mozilla/5.0 (Macintosh; Intel Mac OS X 10_15_7) AppleWebKit/537.36 (KHTML, like Gecko) Chrome/135.0.0.0 Safari/537.36","Macintosh","Chrome","135.0.0.0","OS X","10_15_7","https://hz8g1ckzuq.cognition.run/","en-US,en;q=0.9","qc6jdceofbq359d","27","[""Asian"",""Other""]","Yes","Male","1457134.799999997","4946","","","{""product_choice"":""B""}","choice","tcd","attraction_1","1","laptops","null","null","null","null","null","null","1","60","50","60","50","60","45","Processing speed","Memory (RAM)","",""
"","","","","","choice_trial_setup","html-keyboard-response","104","1177049","0.0-5.0-0.10","107","1","2025-04-11 14:50:19","bb671e3ae32f654b8954ea4c4635f915","","Mozilla/5.0 (Macintosh; Intel Mac OS X 10_15_7) AppleWebKit/537.36 (KHTML, like Gecko) Chrome/135.0.0.0 Safari/537.36","Macintosh","Chrome","135.0.0.0","OS X","10_15_7","https://hz8g1ckzuq.cognition.run/","en-US,en;q=0.9","qc6jdceofbq359d","27","[""Asian"",""Other""]","Yes","Male","1457134.799999997","null","","<p></p>","null","choice","wbw","catch","null","microwave ovens","55","95","35","15","50","45","1","","","","","","","","","",""
"","","","","","choice_trial","survey-html-form","105","1181007","0.0-5.0-1.10","107","1","2025-04-11 14:50:19","bb671e3ae32f654b8954ea4c4635f915","","Mozilla/5.0 (Macintosh; Intel Mac OS X 10_15_7) AppleWebKit/537.36 (KHTML, like Gecko) Chrome/135.0.0.0 Safari/537.36","Macintosh","Chrome","135.0.0.0","OS X","10_15_7","https://hz8g1ckzuq.cognition.run/","en-US,en;q=0.9","qc6jdceofbq359d","27","[""Asian"",""Other""]","Yes","Male","1457134.799999997","3945","","","{""product_choice"":""B""}","choice","wbw","catch","null","microwave ovens","55","95","35","15","50","45","1","null","null","null","null","null","null","Warranty","Cooking power","",""
"","","","","","choice_trial_setup","html-keyboard-response","106","1181315","0.0-5.0-0.11","107","1","2025-04-11 14:50:19","bb671e3ae32f654b8954ea4c4635f915","","Mozilla/5.0 (Macintosh; Intel Mac OS X 10_15_7) AppleWebKit/537.36 (KHTML, like Gecko) Chrome/135.0.0.0 Safari/537.36","Macintosh","Chrome","135.0.0.0","OS X","10_15_7","https://hz8g1ckzuq.cognition.run/","en-US,en;q=0.9","qc6jdceofbq359d","27","[""Asian"",""Other""]","Yes","Male","1457134.799999997","null","","<p></p>","null","choice","tdc","repulsion_2","1","televisions","null","null","null","null","null","null","1","","","","","","","","","",""
"","","","","","choice_trial","survey-html-form","107","1187063","0.0-5.0-1.11","107","1","2025-04-11 14:50:19","bb671e3ae32f654b8954ea4c4635f915","","Mozilla/5.0 (Macintosh; Intel Mac OS X 10_15_7) AppleWebKit/537.36 (KHTML, like Gecko) Chrome/135.0.0.0 Safari/537.36","Macintosh","Chrome","135.0.0.0","OS X","10_15_7","https://hz8g1ckzuq.cognition.run/","en-US,en;q=0.9","qc6jdceofbq359d","27","[""Asian"",""Other""]","Yes","Male","1457134.799999997","5734","","","{""product_choice"":""C""}","choice","tdc","repulsion_2","1","televisions","null","null","null","null","null","null","1","100","90","100","30","40","20","Screen size","Average lifespan","",""
"","","","","","choice_trial_setup","html-keyboard-response","108","1187376","0.0-5.0-0.12","107","1","2025-04-11 14:50:19","bb671e3ae32f654b8954ea4c4635f915","","Mozilla/5.0 (Macintosh; Intel Mac OS X 10_15_7) AppleWebKit/537.36 (KHTML, like Gecko) Chrome/135.0.0.0 Safari/537.36","Macintosh","Chrome","135.0.0.0","OS X","10_15_7","https://hz8g1ckzuq.cognition.run/","en-US,en;q=0.9","qc6jdceofbq359d","27","[""Asian"",""Other""]","Yes","Male","1457134.799999997","null","","<p></p>","null","choice","dtc","repulsion_1","1","microwave ovens","null","null","null","null","null","null","2","","","","","","","","","",""
"","","","","","choice_trial","survey-html-form","109","1191255","0.0-5.0-1.12","107","1","2025-04-11 14:50:19","bb671e3ae32f654b8954ea4c4635f915","","Mozilla/5.0 (Macintosh; Intel Mac OS X 10_15_7) AppleWebKit/537.36 (KHTML, like Gecko) Chrome/135.0.0.0 Safari/537.36","Macintosh","Chrome","135.0.0.0","OS X","10_15_7","https://hz8g1ckzuq.cognition.run/","en-US,en;q=0.9","qc6jdceofbq359d","27","[""Asian"",""Other""]","Yes","Male","1457134.799999997","3866","","","{""product_choice"":""C""}","choice","dtc","repulsion_1","1","microwave ovens","null","null","null","null","null","null","2","100","90","100","30","40","25","Warranty","Cooking power","",""
"","","","","","choice_trial_setup","html-keyboard-response","110","1191568","0.0-5.0-0.13","107","1","2025-04-11 14:50:19","bb671e3ae32f654b8954ea4c4635f915","","Mozilla/5.0 (Macintosh; Intel Mac OS X 10_15_7) AppleWebKit/537.36 (KHTML, like Gecko) Chrome/135.0.0.0 Safari/537.36","Macintosh","Chrome","135.0.0.0","OS X","10_15_7","https://hz8g1ckzuq.cognition.run/","en-US,en;q=0.9","qc6jdceofbq359d","27","[""Asian"",""Other""]","Yes","Male","1457134.799999997","null","","<p></p>","null","choice","dct","repulsion_2","1","washing machines","null","null","null","null","null","null","1","","","","","","","","","",""
"","","","","","choice_trial","survey-html-form","111","1199133","0.0-5.0-1.13","107","1","2025-04-11 14:50:19","bb671e3ae32f654b8954ea4c4635f915","","Mozilla/5.0 (Macintosh; Intel Mac OS X 10_15_7) AppleWebKit/537.36 (KHTML, like Gecko) Chrome/135.0.0.0 Safari/537.36","Macintosh","Chrome","135.0.0.0","OS X","10_15_7","https://hz8g1ckzuq.cognition.run/","en-US,en;q=0.9","qc6jdceofbq359d","27","[""Asian"",""Other""]","Yes","Male","1457134.799999997","7552","","","{""product_choice"":""B""}","choice","dct","repulsion_2","1","washing machines","null","null","null","null","null","null","1","100","90","100","30","40","20","Average lifespan","Energy savings","",""
"","","","","","choice_trial_setup","html-keyboard-response","112","1199445","0.0-5.0-0.14","107","1","2025-04-11 14:50:19","bb671e3ae32f654b8954ea4c4635f915","","Mozilla/5.0 (Macintosh; Intel Mac OS X 10_15_7) AppleWebKit/537.36 (KHTML, like Gecko) Chrome/135.0.0.0 Safari/537.36","Macintosh","Chrome","135.0.0.0","OS X","10_15_7","https://hz8g1ckzuq.cognition.run/","en-US,en;q=0.9","qc6jdceofbq359d","27","[""Asian"",""Other""]","Yes","Male","1457134.799999997","null","","<p></p>","null","choice","dct","attraction_2","1","microwave ovens","null","null","null","null","null","null","1","","","","","","","","","",""
"","","","","","choice_trial","survey-html-form","113","1205510","0.0-5.0-1.14","107","1","2025-04-11 14:50:19","bb671e3ae32f654b8954ea4c4635f915","","Mozilla/5.0 (Macintosh; Intel Mac OS X 10_15_7) AppleWebKit/537.36 (KHTML, like Gecko) Chrome/135.0.0.0 Safari/537.36","Macintosh","Chrome","135.0.0.0","OS X","10_15_7","https://hz8g1ckzuq.cognition.run/","en-US,en;q=0.9","qc6jdceofbq359d","27","[""Asian"",""Other""]","Yes","Male","1457134.799999997","6051","","","{""product_choice"":""B""}","choice","dct","attraction_2","1","microwave ovens","null","null","null","null","null","null","1","60","50","60","50","60","40","Warranty","Cooking power","",""
"","","","","","choice_trial_setup","html-keyboard-response","114","1205822","0.0-5.0-0.15","107","1","2025-04-11 14:50:19","bb671e3ae32f654b8954ea4c4635f915","","Mozilla/5.0 (Macintosh; Intel Mac OS X 10_15_7) AppleWebKit/537.36 (KHTML, like Gecko) Chrome/135.0.0.0 Safari/537.36","Macintosh","Chrome","135.0.0.0","OS X","10_15_7","https://hz8g1ckzuq.cognition.run/","en-US,en;q=0.9","qc6jdceofbq359d","27","[""Asian"",""Other""]","Yes","Male","1457134.799999997","null","","<p></p>","null","choice","dct","attraction_2","2","washing machines","null","null","null","null","null","null","2","","","","","","","","","",""
"","","","","","choice_trial","survey-html-form","115","1223867","0.0-5.0-1.15","107","1","2025-04-11 14:50:19","bb671e3ae32f654b8954ea4c4635f915","","Mozilla/5.0 (Macintosh; Intel Mac OS X 10_15_7) AppleWebKit/537.36 (KHTML, like Gecko) Chrome/135.0.0.0 Safari/537.36","Macintosh","Chrome","135.0.0.0","OS X","10_15_7","https://hz8g1ckzuq.cognition.run/","en-US,en;q=0.9","qc6jdceofbq359d","27","[""Asian"",""Other""]","Yes","Male","1457134.799999997","18031","","","{""product_choice"":""B""}","choice","dct","attraction_2","2","washing machines","null","null","null","null","null","null","2","50","60","40","60","50","60","Average lifespan","Energy savings","",""
"","","","","","choice_trial_setup","html-keyboard-response","116","1224180","0.0-5.0-0.16","107","1","2025-04-11 14:50:19","bb671e3ae32f654b8954ea4c4635f915","","Mozilla/5.0 (Macintosh; Intel Mac OS X 10_15_7) AppleWebKit/537.36 (KHTML, like Gecko) Chrome/135.0.0.0 Safari/537.36","Macintosh","Chrome","135.0.0.0","OS X","10_15_7","https://hz8g1ckzuq.cognition.run/","en-US,en;q=0.9","qc6jdceofbq359d","27","[""Asian"",""Other""]","Yes","Male","1457134.799999997","null","","<p></p>","null","choice","bww","catch","null","washing machines","80","90","30","5","25","10","1","","","","","","","","","",""
"","","","","","choice_trial","survey-html-form","117","1231613","0.0-5.0-1.16","107","1","2025-04-11 14:50:19","bb671e3ae32f654b8954ea4c4635f915","","Mozilla/5.0 (Macintosh; Intel Mac OS X 10_15_7) AppleWebKit/537.36 (KHTML, like Gecko) Chrome/135.0.0.0 Safari/537.36","Macintosh","Chrome","135.0.0.0","OS X","10_15_7","https://hz8g1ckzuq.cognition.run/","en-US,en;q=0.9","qc6jdceofbq359d","27","[""Asian"",""Other""]","Yes","Male","1457134.799999997","7419","","","{""product_choice"":""A""}","choice","bww","catch","null","washing machines","80","90","30","5","25","10","1","null","null","null","null","null","null","Average lifespan","Energy savings","",""
"","","","","","choice_trial_setup","html-keyboard-response","118","1231927","0.0-5.0-0.17","107","1","2025-04-11 14:50:19","bb671e3ae32f654b8954ea4c4635f915","","Mozilla/5.0 (Macintosh; Intel Mac OS X 10_15_7) AppleWebKit/537.36 (KHTML, like Gecko) Chrome/135.0.0.0 Safari/537.36","Macintosh","Chrome","135.0.0.0","OS X","10_15_7","https://hz8g1ckzuq.cognition.run/","en-US,en;q=0.9","qc6jdceofbq359d","27","[""Asian"",""Other""]","Yes","Male","1457134.799999997","null","","<p></p>","null","choice","cdt","repulsion_1","1","laptops","null","null","null","null","null","null","2","","","","","","","","","",""
"","","","","","choice_trial","survey-html-form","119","1237985","0.0-5.0-1.17","107","1","2025-04-11 14:50:19","bb671e3ae32f654b8954ea4c4635f915","","Mozilla/5.0 (Macintosh; Intel Mac OS X 10_15_7) AppleWebKit/537.36 (KHTML, like Gecko) Chrome/135.0.0.0 Safari/537.36","Macintosh","Chrome","135.0.0.0","OS X","10_15_7","https://hz8g1ckzuq.cognition.run/","en-US,en;q=0.9","qc6jdceofbq359d","27","[""Asian"",""Other""]","Yes","Male","1457134.799999997","6043","","","{""product_choice"":""A""}","choice","cdt","repulsion_1","1","laptops","null","null","null","null","null","null","2","100","90","100","30","40","25","Processing speed","Memory (RAM)","",""
"","","","","","choice_trial_setup","html-keyboard-response","120","1238298","0.0-5.0-0.18","107","1","2025-04-11 14:50:19","bb671e3ae32f654b8954ea4c4635f915","","Mozilla/5.0 (Macintosh; Intel Mac OS X 10_15_7) AppleWebKit/537.36 (KHTML, like Gecko) Chrome/135.0.0.0 Safari/537.36","Macintosh","Chrome","135.0.0.0","OS X","10_15_7","https://hz8g1ckzuq.cognition.run/","en-US,en;q=0.9","qc6jdceofbq359d","27","[""Asian"",""Other""]","Yes","Male","1457134.799999997","null","","<p></p>","null","choice","cdt","repulsion_1","2","televisions","null","null","null","null","null","null","2","","","","","","","","","",""
"","","","","","choice_trial","survey-html-form","121","1242985","0.0-5.0-1.18","107","1","2025-04-11 14:50:19","bb671e3ae32f654b8954ea4c4635f915","","Mozilla/5.0 (Macintosh; Intel Mac OS X 10_15_7) AppleWebKit/537.36 (KHTML, like Gecko) Chrome/135.0.0.0 Safari/537.36","Macintosh","Chrome","135.0.0.0","OS X","10_15_7","https://hz8g1ckzuq.cognition.run/","en-US,en;q=0.9","qc6jdceofbq359d","27","[""Asian"",""Other""]","Yes","Male","1457134.799999997","4673","","","{""product_choice"":""A""}","choice","cdt","repulsion_1","2","televisions","null","null","null","null","null","null","2","30","40","25","100","90","100","Screen size","Average lifespan","",""
"","","","","","choice_trial_setup","html-keyboard-response","122","1243298","0.0-5.0-0.19","107","1","2025-04-11 14:50:19","bb671e3ae32f654b8954ea4c4635f915","","Mozilla/5.0 (Macintosh; Intel Mac OS X 10_15_7) AppleWebKit/537.36 (KHTML, like Gecko) Chrome/135.0.0.0 Safari/537.36","Macintosh","Chrome","135.0.0.0","OS X","10_15_7","https://hz8g1ckzuq.cognition.run/","en-US,en;q=0.9","qc6jdceofbq359d","27","[""Asian"",""Other""]","Yes","Male","1457134.799999997","null","","<p></p>","null","choice","dct","attraction_1","1","microwave ovens","null","null","null","null","null","null","1","","","","","","","","","",""
"","","","","","choice_trial","survey-html-form","123","1248303","0.0-5.0-1.19","107","1","2025-04-11 14:50:19","bb671e3ae32f654b8954ea4c4635f915","","Mozilla/5.0 (Macintosh; Intel Mac OS X 10_15_7) AppleWebKit/537.36 (KHTML, like Gecko) Chrome/135.0.0.0 Safari/537.36","Macintosh","Chrome","135.0.0.0","OS X","10_15_7","https://hz8g1ckzuq.cognition.run/","en-US,en;q=0.9","qc6jdceofbq359d","27","[""Asian"",""Other""]","Yes","Male","1457134.799999997","4989","","","{""product_choice"":""B""}","choice","dct","attraction_1","1","microwave ovens","null","null","null","null","null","null","1","60","50","60","50","60","45","Warranty","Cooking power","",""
"","","","","","choice_trial_setup","html-keyboard-response","124","1248617","0.0-5.0-0.20","107","1","2025-04-11 14:50:19","bb671e3ae32f654b8954ea4c4635f915","","Mozilla/5.0 (Macintosh; Intel Mac OS X 10_15_7) AppleWebKit/537.36 (KHTML, like Gecko) Chrome/135.0.0.0 Safari/537.36","Macintosh","Chrome","135.0.0.0","OS X","10_15_7","https://hz8g1ckzuq.cognition.run/","en-US,en;q=0.9","qc6jdceofbq359d","27","[""Asian"",""Other""]","Yes","Male","1457134.799999997","null","","<p></p>","null","choice","cdt","attraction_2","1","laptops","null","null","null","null","null","null","1","","","","","","","","","",""
"","","","","","choice_trial","survey-html-form","125","1253186","0.0-5.0-1.20","107","1","2025-04-11 14:50:19","bb671e3ae32f654b8954ea4c4635f915","","Mozilla/5.0 (Macintosh; Intel Mac OS X 10_15_7) AppleWebKit/537.36 (KHTML, like Gecko) Chrome/135.0.0.0 Safari/537.36","Macintosh","Chrome","135.0.0.0","OS X","10_15_7","https://hz8g1ckzuq.cognition.run/","en-US,en;q=0.9","qc6jdceofbq359d","27","[""Asian"",""Other""]","Yes","Male","1457134.799999997","4555","","","{""product_choice"":""A""}","choice","cdt","attraction_2","1","laptops","null","null","null","null","null","null","1","60","50","60","50","60","40","Processing speed","Memory (RAM)","",""
"","","","","","choice_trial_setup","html-keyboard-response","126","1253500","0.0-5.0-0.21","107","1","2025-04-11 14:50:19","bb671e3ae32f654b8954ea4c4635f915","","Mozilla/5.0 (Macintosh; Intel Mac OS X 10_15_7) AppleWebKit/537.36 (KHTML, like Gecko) Chrome/135.0.0.0 Safari/537.36","Macintosh","Chrome","135.0.0.0","OS X","10_15_7","https://hz8g1ckzuq.cognition.run/","en-US,en;q=0.9","qc6jdceofbq359d","27","[""Asian"",""Other""]","Yes","Male","1457134.799999997","null","","<p></p>","null","choice","cdt","attraction_2","2","microwave ovens","null","null","null","null","null","null","1","","","","","","","","","",""
"","","","","","choice_trial","survey-html-form","127","1257790","0.0-5.0-1.21","107","1","2025-04-11 14:50:19","bb671e3ae32f654b8954ea4c4635f915","","Mozilla/5.0 (Macintosh; Intel Mac OS X 10_15_7) AppleWebKit/537.36 (KHTML, like Gecko) Chrome/135.0.0.0 Safari/537.36","Macintosh","Chrome","135.0.0.0","OS X","10_15_7","https://hz8g1ckzuq.cognition.run/","en-US,en;q=0.9","qc6jdceofbq359d","27","[""Asian"",""Other""]","Yes","Male","1457134.799999997","4275","","","{""product_choice"":""C""}","choice","cdt","attraction_2","2","microwave ovens","null","null","null","null","null","null","1","50","60","40","60","50","60","Warranty","Cooking power","",""
"","","","","","choice_trial_setup","html-keyboard-response","128","1258103","0.0-5.0-0.22","107","1","2025-04-11 14:50:19","bb671e3ae32f654b8954ea4c4635f915","","Mozilla/5.0 (Macintosh; Intel Mac OS X 10_15_7) AppleWebKit/537.36 (KHTML, like Gecko) Chrome/135.0.0.0 Safari/537.36","Macintosh","Chrome","135.0.0.0","OS X","10_15_7","https://hz8g1ckzuq.cognition.run/","en-US,en;q=0.9","qc6jdceofbq359d","27","[""Asian"",""Other""]","Yes","Male","1457134.799999997","null","","<p></p>","null","choice","wwb","catch","null","televisions","75","50","20","5","40","40","1","","","","","","","","","",""
"","","","","","choice_trial","survey-html-form","129","1262843","0.0-5.0-1.22","107","1","2025-04-11 14:50:19","bb671e3ae32f654b8954ea4c4635f915","","Mozilla/5.0 (Macintosh; Intel Mac OS X 10_15_7) AppleWebKit/537.36 (KHTML, like Gecko) Chrome/135.0.0.0 Safari/537.36","Macintosh","Chrome","135.0.0.0","OS X","10_15_7","https://hz8g1ckzuq.cognition.run/","en-US,en;q=0.9","qc6jdceofbq359d","27","[""Asian"",""Other""]","Yes","Male","1457134.799999997","4724","","","{""product_choice"":""C""}","choice","wwb","catch","null","televisions","75","50","20","5","40","40","1","null","null","null","null","null","null","Screen size","Average lifespan","",""
"","","","","","choice_trial_setup","html-keyboard-response","130","1263157","0.0-5.0-0.23","107","1","2025-04-11 14:50:19","bb671e3ae32f654b8954ea4c4635f915","","Mozilla/5.0 (Macintosh; Intel Mac OS X 10_15_7) AppleWebKit/537.36 (KHTML, like Gecko) Chrome/135.0.0.0 Safari/537.36","Macintosh","Chrome","135.0.0.0","OS X","10_15_7","https://hz8g1ckzuq.cognition.run/","en-US,en;q=0.9","qc6jdceofbq359d","27","[""Asian"",""Other""]","Yes","Male","1457134.799999997","null","","<p></p>","null","choice","dtc","attraction_1","2","washing machines","null","null","null","null","null","null","2","","","","","","","","","",""
"","","","","","choice_trial","survey-html-form","131","1271542","0.0-5.0-1.23","107","1","2025-04-11 14:50:19","bb671e3ae32f654b8954ea4c4635f915","","Mozilla/5.0 (Macintosh; Intel Mac OS X 10_15_7) AppleWebKit/537.36 (KHTML, like Gecko) Chrome/135.0.0.0 Safari/537.36","Macintosh","Chrome","135.0.0.0","OS X","10_15_7","https://hz8g1ckzuq.cognition.run/","en-US,en;q=0.9","qc6jdceofbq359d","27","[""Asian"",""Other""]","Yes","Male","1457134.799999997","8369","","","{""product_choice"":""B""}","choice","dtc","attraction_1","2","washing machines","null","null","null","null","null","null","2","50","60","45","60","50","60","Average lifespan","Energy savings","",""
"","","","","","choice_trial_setup","html-keyboard-response","132","1271857","0.0-5.0-0.24","107","1","2025-04-11 14:50:19","bb671e3ae32f654b8954ea4c4635f915","","Mozilla/5.0 (Macintosh; Intel Mac OS X 10_15_7) AppleWebKit/537.36 (KHTML, like Gecko) Chrome/135.0.0.0 Safari/537.36","Macintosh","Chrome","135.0.0.0","OS X","10_15_7","https://hz8g1ckzuq.cognition.run/","en-US,en;q=0.9","qc6jdceofbq359d","27","[""Asian"",""Other""]","Yes","Male","1457134.799999997","null","","<p></p>","null","choice","dtc","repulsion_2","1","microwave ovens","null","null","null","null","null","null","2","","","","","","","","","",""
"","","","","","choice_trial","survey-html-form","133","1276330","0.0-5.0-1.24","107","1","2025-04-11 14:50:19","bb671e3ae32f654b8954ea4c4635f915","","Mozilla/5.0 (Macintosh; Intel Mac OS X 10_15_7) AppleWebKit/537.36 (KHTML, like Gecko) Chrome/135.0.0.0 Safari/537.36","Macintosh","Chrome","135.0.0.0","OS X","10_15_7","https://hz8g1ckzuq.cognition.run/","en-US,en;q=0.9","qc6jdceofbq359d","27","[""Asian"",""Other""]","Yes","Male","1457134.799999997","4458","","","{""product_choice"":""C""}","choice","dtc","repulsion_2","1","microwave ovens","null","null","null","null","null","null","2","100","90","100","30","40","20","Warranty","Cooking power","",""
"","","","","","choice_trial_setup","html-keyboard-response","134","1276640","0.0-5.0-0.25","107","1","2025-04-11 14:50:19","bb671e3ae32f654b8954ea4c4635f915","","Mozilla/5.0 (Macintosh; Intel Mac OS X 10_15_7) AppleWebKit/537.36 (KHTML, like Gecko) Chrome/135.0.0.0 Safari/537.36","Macintosh","Chrome","135.0.0.0","OS X","10_15_7","https://hz8g1ckzuq.cognition.run/","en-US,en;q=0.9","qc6jdceofbq359d","27","[""Asian"",""Other""]","Yes","Male","1457134.799999997","null","","<p></p>","null","choice","dct","repulsion_2","2","microwave ovens","null","null","null","null","null","null","1","","","","","","","","","",""
"","","","","","choice_trial","survey-html-form","135","1282197","0.0-5.0-1.25","107","1","2025-04-11 14:50:19","bb671e3ae32f654b8954ea4c4635f915","","Mozilla/5.0 (Macintosh; Intel Mac OS X 10_15_7) AppleWebKit/537.36 (KHTML, like Gecko) Chrome/135.0.0.0 Safari/537.36","Macintosh","Chrome","135.0.0.0","OS X","10_15_7","https://hz8g1ckzuq.cognition.run/","en-US,en;q=0.9","qc6jdceofbq359d","27","[""Asian"",""Other""]","Yes","Male","1457134.799999997","5547","","","{""product_choice"":""B""}","choice","dct","repulsion_2","2","microwave ovens","null","null","null","null","null","null","1","30","40","20","100","90","100","Warranty","Cooking power","",""
"","","","","","choice_trial_setup","html-keyboard-response","136","1282512","0.0-5.0-0.26","107","1","2025-04-11 14:50:19","bb671e3ae32f654b8954ea4c4635f915","","Mozilla/5.0 (Macintosh; Intel Mac OS X 10_15_7) AppleWebKit/537.36 (KHTML, like Gecko) Chrome/135.0.0.0 Safari/537.36","Macintosh","Chrome","135.0.0.0","OS X","10_15_7","https://hz8g1ckzuq.cognition.run/","en-US,en;q=0.9","qc6jdceofbq359d","27","[""Asian"",""Other""]","Yes","Male","1457134.799999997","null","","<p></p>","null","choice","tdc","repulsion_1","1","televisions","null","null","null","null","null","null","1","","","","","","","","","",""
"","","","","","choice_trial","survey-html-form","137","1287354","0.0-5.0-1.26","107","1","2025-04-11 14:50:19","bb671e3ae32f654b8954ea4c4635f915","","Mozilla/5.0 (Macintosh; Intel Mac OS X 10_15_7) AppleWebKit/537.36 (KHTML, like Gecko) Chrome/135.0.0.0 Safari/537.36","Macintosh","Chrome","135.0.0.0","OS X","10_15_7","https://hz8g1ckzuq.cognition.run/","en-US,en;q=0.9","qc6jdceofbq359d","27","[""Asian"",""Other""]","Yes","Male","1457134.799999997","4826","","","{""product_choice"":""C""}","choice","tdc","repulsion_1","1","televisions","null","null","null","null","null","null","1","100","90","100","30","40","25","Screen size","Average lifespan","",""
"","","","","","choice_trial_setup","html-keyboard-response","138","1287668","0.0-5.0-0.27","107","1","2025-04-11 14:50:19","bb671e3ae32f654b8954ea4c4635f915","","Mozilla/5.0 (Macintosh; Intel Mac OS X 10_15_7) AppleWebKit/537.36 (KHTML, like Gecko) Chrome/135.0.0.0 Safari/537.36","Macintosh","Chrome","135.0.0.0","OS X","10_15_7","https://hz8g1ckzuq.cognition.run/","en-US,en;q=0.9","qc6jdceofbq359d","27","[""Asian"",""Other""]","Yes","Male","1457134.799999997","null","","<p></p>","null","choice","cdt","repulsion_2","2","televisions","null","null","null","null","null","null","1","","","","","","","","","",""
"","","","","","choice_trial","survey-html-form","139","1291612","0.0-5.0-1.27","107","1","2025-04-11 14:50:19","bb671e3ae32f654b8954ea4c4635f915","","Mozilla/5.0 (Macintosh; Intel Mac OS X 10_15_7) AppleWebKit/537.36 (KHTML, like Gecko) Chrome/135.0.0.0 Safari/537.36","Macintosh","Chrome","135.0.0.0","OS X","10_15_7","https://hz8g1ckzuq.cognition.run/","en-US,en;q=0.9","qc6jdceofbq359d","27","[""Asian"",""Other""]","Yes","Male","1457134.799999997","3928","","","{""product_choice"":""A""}","choice","cdt","repulsion_2","2","televisions","null","null","null","null","null","null","1","30","40","20","100","90","100","Screen size","Average lifespan","",""
"","","","","","choice_trial_setup","html-keyboard-response","140","1291920","0.0-5.0-0.28","107","1","2025-04-11 14:50:19","bb671e3ae32f654b8954ea4c4635f915","","Mozilla/5.0 (Macintosh; Intel Mac OS X 10_15_7) AppleWebKit/537.36 (KHTML, like Gecko) Chrome/135.0.0.0 Safari/537.36","Macintosh","Chrome","135.0.0.0","OS X","10_15_7","https://hz8g1ckzuq.cognition.run/","en-US,en;q=0.9","qc6jdceofbq359d","27","[""Asian"",""Other""]","Yes","Male","1457134.799999997","null","","<p></p>","null","choice","ctd","attraction_2","1","washing machines","null","null","null","null","null","null","2","","","","","","","","","",""
"","","","","","choice_trial","survey-html-form","141","1303189","0.0-5.0-1.28","107","1","2025-04-11 14:50:19","bb671e3ae32f654b8954ea4c4635f915","","Mozilla/5.0 (Macintosh; Intel Mac OS X 10_15_7) AppleWebKit/537.36 (KHTML, like Gecko) Chrome/135.0.0.0 Safari/537.36","Macintosh","Chrome","135.0.0.0","OS X","10_15_7","https://hz8g1ckzuq.cognition.run/","en-US,en;q=0.9","qc6jdceofbq359d","27","[""Asian"",""Other""]","Yes","Male","1457134.799999997","11260","","","{""product_choice"":""A""}","choice","ctd","attraction_2","1","washing machines","null","null","null","null","null","null","2","60","50","60","50","60","40","Average lifespan","Energy savings","",""
"","","","","","choice_trial_setup","html-keyboard-response","142","1303504","0.0-5.0-0.29","107","1","2025-04-11 14:50:19","bb671e3ae32f654b8954ea4c4635f915","","Mozilla/5.0 (Macintosh; Intel Mac OS X 10_15_7) AppleWebKit/537.36 (KHTML, like Gecko) Chrome/135.0.0.0 Safari/537.36","Macintosh","Chrome","135.0.0.0","OS X","10_15_7","https://hz8g1ckzuq.cognition.run/","en-US,en;q=0.9","qc6jdceofbq359d","27","[""Asian"",""Other""]","Yes","Male","1457134.799999997","null","","<p></p>","null","choice","tcd","repulsion_2","2","laptops","null","null","null","null","null","null","1","","","","","","","","","",""
"","","","","","choice_trial","survey-html-form","143","1306528","0.0-5.0-1.29","107","1","2025-04-11 14:50:19","bb671e3ae32f654b8954ea4c4635f915","","Mozilla/5.0 (Macintosh; Intel Mac OS X 10_15_7) AppleWebKit/537.36 (KHTML, like Gecko) Chrome/135.0.0.0 Safari/537.36","Macintosh","Chrome","135.0.0.0","OS X","10_15_7","https://hz8g1ckzuq.cognition.run/","en-US,en;q=0.9","qc6jdceofbq359d","27","[""Asian"",""Other""]","Yes","Male","1457134.799999997","3008","","","{""product_choice"":""B""}","choice","tcd","repulsion_2","2","laptops","null","null","null","null","null","null","1","30","40","20","100","90","100","Processing speed","Memory (RAM)","",""
"","","","","","choice_trial_setup","html-keyboard-response","144","1306844","0.0-5.0-0.30","107","1","2025-04-11 14:50:19","bb671e3ae32f654b8954ea4c4635f915","","Mozilla/5.0 (Macintosh; Intel Mac OS X 10_15_7) AppleWebKit/537.36 (KHTML, like Gecko) Chrome/135.0.0.0 Safari/537.36","Macintosh","Chrome","135.0.0.0","OS X","10_15_7","https://hz8g1ckzuq.cognition.run/","en-US,en;q=0.9","qc6jdceofbq359d","27","[""Asian"",""Other""]","Yes","Male","1457134.799999997","null","","<p></p>","null","choice","dtc","attraction_1","1","televisions","null","null","null","null","null","null","1","","","","","","","","","",""
"","","","","","choice_trial","survey-html-form","145","1311651","0.0-5.0-1.30","107","1","2025-04-11 14:50:19","bb671e3ae32f654b8954ea4c4635f915","","Mozilla/5.0 (Macintosh; Intel Mac OS X 10_15_7) AppleWebKit/537.36 (KHTML, like Gecko) Chrome/135.0.0.0 Safari/537.36","Macintosh","Chrome","135.0.0.0","OS X","10_15_7","https://hz8g1ckzuq.cognition.run/","en-US,en;q=0.9","qc6jdceofbq359d","27","[""Asian"",""Other""]","Yes","Male","1457134.799999997","4792","","","{""product_choice"":""C""}","choice","dtc","attraction_1","1","televisions","null","null","null","null","null","null","1","60","50","60","50","60","45","Screen size","Average lifespan","",""
"","","","","","choice_trial_setup","html-keyboard-response","146","1311967","0.0-5.0-0.31","107","1","2025-04-11 14:50:19","bb671e3ae32f654b8954ea4c4635f915","","Mozilla/5.0 (Macintosh; Intel Mac OS X 10_15_7) AppleWebKit/537.36 (KHTML, like Gecko) Chrome/135.0.0.0 Safari/537.36","Macintosh","Chrome","135.0.0.0","OS X","10_15_7","https://hz8g1ckzuq.cognition.run/","en-US,en;q=0.9","qc6jdceofbq359d","27","[""Asian"",""Other""]","Yes","Male","1457134.799999997","null","","<p></p>","null","choice","wbw","catch","null","microwave ovens","70","60","50","40","25","5","1","","","","","","","","","",""
"","","","","","choice_trial","survey-html-form","147","1326725","0.0-5.0-1.31","107","1","2025-04-11 14:50:19","bb671e3ae32f654b8954ea4c4635f915","","Mozilla/5.0 (Macintosh; Intel Mac OS X 10_15_7) AppleWebKit/537.36 (KHTML, like Gecko) Chrome/135.0.0.0 Safari/537.36","Macintosh","Chrome","135.0.0.0","OS X","10_15_7","https://hz8g1ckzuq.cognition.run/","en-US,en;q=0.9","qc6jdceofbq359d","27","[""Asian"",""Other""]","Yes","Male","1457134.799999997","14741","","","{""product_choice"":""B""}","choice","wbw","catch","null","microwave ovens","70","60","50","40","25","5","1","null","null","null","null","null","null","Warranty","Cooking power","",""
"","","","","","choice_trial_setup","html-keyboard-response","148","1327041","0.0-5.0-0.32","107","1","2025-04-11 14:50:19","bb671e3ae32f654b8954ea4c4635f915","","Mozilla/5.0 (Macintosh; Intel Mac OS X 10_15_7) AppleWebKit/537.36 (KHTML, like Gecko) Chrome/135.0.0.0 Safari/537.36","Macintosh","Chrome","135.0.0.0","OS X","10_15_7","https://hz8g1ckzuq.cognition.run/","en-US,en;q=0.9","qc6jdceofbq359d","27","[""Asian"",""Other""]","Yes","Male","1457134.799999997","null","","<p></p>","null","choice","ctd","attraction_2","2","laptops","null","null","null","null","null","null","1","","","","","","","","","",""
"","","","","","choice_trial","survey-html-form","149","1330791","0.0-5.0-1.32","107","1","2025-04-11 14:50:19","bb671e3ae32f654b8954ea4c4635f915","","Mozilla/5.0 (Macintosh; Intel Mac OS X 10_15_7) AppleWebKit/537.36 (KHTML, like Gecko) Chrome/135.0.0.0 Safari/537.36","Macintosh","Chrome","135.0.0.0","OS X","10_15_7","https://hz8g1ckzuq.cognition.run/","en-US,en;q=0.9","qc6jdceofbq359d","27","[""Asian"",""Other""]","Yes","Male","1457134.799999997","3734","","","{""product_choice"":""B""}","choice","ctd","attraction_2","2","laptops","null","null","null","null","null","null","1","50","60","40","60","50","60","Processing speed","Memory (RAM)","",""
"","","","","","choice_trial_setup","html-keyboard-response","150","1331107","0.0-5.0-0.33","107","1","2025-04-11 14:50:19","bb671e3ae32f654b8954ea4c4635f915","","Mozilla/5.0 (Macintosh; Intel Mac OS X 10_15_7) AppleWebKit/537.36 (KHTML, like Gecko) Chrome/135.0.0.0 Safari/537.36","Macintosh","Chrome","135.0.0.0","OS X","10_15_7","https://hz8g1ckzuq.cognition.run/","en-US,en;q=0.9","qc6jdceofbq359d","27","[""Asian"",""Other""]","Yes","Male","1457134.799999997","null","","<p></p>","null","choice","ctd","repulsion_1","2","microwave ovens","null","null","null","null","null","null","1","","","","","","","","","",""
"","","","","","choice_trial","survey-html-form","151","1346869","0.0-5.0-1.33","107","1","2025-04-11 14:50:19","bb671e3ae32f654b8954ea4c4635f915","","Mozilla/5.0 (Macintosh; Intel Mac OS X 10_15_7) AppleWebKit/537.36 (KHTML, like Gecko) Chrome/135.0.0.0 Safari/537.36","Macintosh","Chrome","135.0.0.0","OS X","10_15_7","https://hz8g1ckzuq.cognition.run/","en-US,en;q=0.9","qc6jdceofbq359d","27","[""Asian"",""Other""]","Yes","Male","1457134.799999997","15744","","","{""product_choice"":""A""}","choice","ctd","repulsion_1","2","microwave ovens","null","null","null","null","null","null","1","30","40","25","100","90","100","Warranty","Cooking power","",""
"","","","","","choice_trial_setup","html-keyboard-response","152","1347185","0.0-5.0-0.34","107","1","2025-04-11 14:50:19","bb671e3ae32f654b8954ea4c4635f915","","Mozilla/5.0 (Macintosh; Intel Mac OS X 10_15_7) AppleWebKit/537.36 (KHTML, like Gecko) Chrome/135.0.0.0 Safari/537.36","Macintosh","Chrome","135.0.0.0","OS X","10_15_7","https://hz8g1ckzuq.cognition.run/","en-US,en;q=0.9","qc6jdceofbq359d","27","[""Asian"",""Other""]","Yes","Male","1457134.799999997","null","","<p></p>","null","choice","tdc","repulsion_1","1","washing machines","null","null","null","null","null","null","1","","","","","","","","","",""
