"success","timeout","failed_images","failed_audio","failed_video","screen_id","trial_type","trial_index","time_elapsed","internal_node_id","run_id","condition","recorded_at","source_code_version","ip","user_agent","device","browser","browser_version","platform","platform_version","referer","accept_language","ppt_id","age","race","ethnicity","gender","exp_duration","rt","view_history","stimulus","response","phase","order","effect","t_high","category","d1_best","d2_best","d1_worst1","d2_worst1","d1_worst2","d2_worst2","first_dim","d1_t","d1_c","d1_d","d2_t","d2_c","d2_d","d1_name","d2_name","strategy_response","question_order"
"true","false","[]","[]","[]","img preload","preload","0","10000","0.0-0.0","108","1","2025-04-11 14:50:27","bb671e3ae32f654b8954ea4c4635f915","","Mozilla/5.0 (Windows NT 10.0; Win64; x64) AppleWebKit/537.36 (KHTML, like Gecko) Chrome/130.0.0.0 Safari/537.36","WebKit","Chrome","130.0.0.0","Windows","10.0","https://hz8g1ckzuq.cognition.run/","en-US,en;q=0.9","6jbb7t6gtfvfth3","48","[""White""]","No","Male","1693708.1000000238","","","","","","","","","","","","","","","","","","","","","","","","","",""
"true","","","","","","fullscreen","1","21543","0.0-1.0","108","1","2025-04-11 14:50:27","bb671e3ae32f654b8954ea4c4635f915","","Mozilla/5.0 (Windows NT 10.0; Win64; x64) AppleWebKit/537.36 (KHTML, like Gecko) Chrome/130.0.0.0 Safari/537.36","WebKit","Chrome","130.0.0.0","Windows","10.0","https://hz8g1ckzuq.cognition.run/","en-US,en;q=0.9","6jbb7t6gtfvfth3","48","[""White""]","No","Male","1693708.1000000238","10534","","","","","","","","","","","","","","","","","","","","","","","","",""
"","","","","","","instructions","2","192473","0.0-2.0","108","1","2025-04-11 14:50:27","bb671e3ae32f654b8954ea4c4635f915","","Mozilla/5.0 (Windows NT 10.0; Win64; x64) AppleWebKit/537.36 (KHTML, like Gecko) Chrome/130.0.0.0 Safari/537.36","WebKit","Chrome","130.0.0.0","Windows","10.0","https://hz8g1ckzuq.cognition.run/","en-US,en;q=0.9","6jbb7t6gtfvfth3","48","[""White""]","No","Male","1693708.1000000238","170929","[{""page_index"":0,""viewing_time"":5384},{""page_index"":1,""viewing_time"":5330},{""page_index"":2,""viewing_time"":8705},{""page_index"":3,""viewing_time"":10521},{""page_index"":4,""viewing_time"":8412},{""page_index"":5,""viewing_time"":64681},{""page_index"":6,""viewing_time"":19984},{""page_index"":7,""viewing_time"":32169},{""page_index"":8,""viewing_time"":11471},{""page_index"":9,""viewing_time"":4271}]","","","","","","","","","","","","","","","","","","","","","","","",""
"","","","","","rating_trial_setup","html-keyboard-response","3","192778","0.0-3.0-0.0","108","1","2025-04-11 14:50:27","bb671e3ae32f654b8954ea4c4635f915","","Mozilla/5.0 (Windows NT 10.0; Win64; x64) AppleWebKit/537.36 (KHTML, like Gecko) Chrome/130.0.0.0 Safari/537.36","WebKit","Chrome","130.0.0.0","Windows","10.0","https://hz8g1ckzuq.cognition.run/","en-US,en;q=0.9","6jbb7t6gtfvfth3","48","[""White""]","No","Male","1693708.1000000238","null","","<p></p>","null","rating","ctd","attraction_2","2","televisions","null","null","null","null","null","null","2","","","","","","","","","",""
"","","","","","rating_trial","survey-html-form","4","266622","0.0-3.0-1.0","108","1","2025-04-11 14:50:27","bb671e3ae32f654b8954ea4c4635f915","","Mozilla/5.0 (Windows NT 10.0; Win64; x64) AppleWebKit/537.36 (KHTML, like Gecko) Chrome/130.0.0.0 Safari/537.36","WebKit","Chrome","130.0.0.0","Windows","10.0","https://hz8g1ckzuq.cognition.run/","en-US,en;q=0.9","6jbb7t6gtfvfth3","48","[""White""]","No","Male","1693708.1000000238","73832","","","{""price_1"":""300"",""price_2"":""350"",""price_3"":""280""}","rating","ctd","attraction_2","2","televisions","null","null","null","null","null","null","2","50","60","40","60","50","60","Screen size","Average lifespan","",""
"","","","","","rating_trial_setup","html-keyboard-response","5","266926","0.0-3.0-0.1","108","1","2025-04-11 14:50:27","bb671e3ae32f654b8954ea4c4635f915","","Mozilla/5.0 (Windows NT 10.0; Win64; x64) AppleWebKit/537.36 (KHTML, like Gecko) Chrome/130.0.0.0 Safari/537.36","WebKit","Chrome","130.0.0.0","Windows","10.0","https://hz8g1ckzuq.cognition.run/","en-US,en;q=0.9","6jbb7t6gtfvfth3","48","[""White""]","No","Male","1693708.1000000238","null","","<p></p>","null","rating","tdc","attraction_2","1","televisions","null","null","null","null","null","null","2","","","","","","","","","",""
"","","","","","rating_trial","survey-html-form","6","293685","0.0-3.0-1.1","108","1","2025-04-11 14:50:27","bb671e3ae32f654b8954ea4c4635f915","","Mozilla/5.0 (Windows NT 10.0; Win64; x64) AppleWebKit/537.36 (KHTML, like Gecko) Chrome/130.0.0.0 Safari/537.36","WebKit","Chrome","130.0.0.0","Windows","10.0","https://hz8g1ckzuq.cognition.run/","en-US,en;q=0.9","6jbb7t6gtfvfth3","48","[""White""]","No","Male","1693708.1000000238","26753","","","{""price_1"":""300"",""price_2"":""250"",""price_3"":""350""}","rating","tdc","attraction_2","1","televisions","null","null","null","null","null","null","2","60","50","60","50","60","40","Screen size","Average lifespan","",""
"","","","","","rating_trial_setup","html-keyboard-response","7","293989","0.0-3.0-0.2","108","1","2025-04-11 14:50:27","bb671e3ae32f654b8954ea4c4635f915","","Mozilla/5.0 (Windows NT 10.0; Win64; x64) AppleWebKit/537.36 (KHTML, like Gecko) Chrome/130.0.0.0 Safari/537.36","WebKit","Chrome","130.0.0.0","Windows","10.0","https://hz8g1ckzuq.cognition.run/","en-US,en;q=0.9","6jbb7t6gtfvfth3","48","[""White""]","No","Male","1693708.1000000238","null","","<p></p>","null","rating","cdt","attraction_2","1","laptops","null","null","null","null","null","null","1","","","","","","","","","",""
"","","","","","rating_trial","survey-html-form","8","333232","0.0-3.0-1.2","108","1","2025-04-11 14:50:27","bb671e3ae32f654b8954ea4c4635f915","","Mozilla/5.0 (Windows NT 10.0; Win64; x64) AppleWebKit/537.36 (KHTML, like Gecko) Chrome/130.0.0.0 Safari/537.36","WebKit","Chrome","130.0.0.0","Windows","10.0","https://hz8g1ckzuq.cognition.run/","en-US,en;q=0.9","6jbb7t6gtfvfth3","48","[""White""]","No","Male","1693708.1000000238","39237","","","{""price_1"":""600"",""price_2"":""500"",""price_3"":""650""}","rating","cdt","attraction_2","1","laptops","null","null","null","null","null","null","1","60","50","60","50","60","40","Processing speed","Memory (RAM)","",""
"","","","","","rating_trial_setup","html-keyboard-response","9","333535","0.0-3.0-0.3","108","1","2025-04-11 14:50:27","bb671e3ae32f654b8954ea4c4635f915","","Mozilla/5.0 (Windows NT 10.0; Win64; x64) AppleWebKit/537.36 (KHTML, like Gecko) Chrome/130.0.0.0 Safari/537.36","WebKit","Chrome","130.0.0.0","Windows","10.0","https://hz8g1ckzuq.cognition.run/","en-US,en;q=0.9","6jbb7t6gtfvfth3","48","[""White""]","No","Male","1693708.1000000238","null","","<p></p>","null","rating","tcd","attraction_1","2","laptops","null","null","null","null","null","null","2","","","","","","","","","",""
"","","","","","rating_trial","survey-html-form","10","352013","0.0-3.0-1.3","108","1","2025-04-11 14:50:27","bb671e3ae32f654b8954ea4c4635f915","","Mozilla/5.0 (Windows NT 10.0; Win64; x64) AppleWebKit/537.36 (KHTML, like Gecko) Chrome/130.0.0.0 Safari/537.36","WebKit","Chrome","130.0.0.0","Windows","10.0","https://hz8g1ckzuq.cognition.run/","en-US,en;q=0.9","6jbb7t6gtfvfth3","48","[""White""]","No","Male","1693708.1000000238","18472","","","{""price_1"":""600"",""price_2"":""650"",""price_3"":""550""}","rating","tcd","attraction_1","2","laptops","null","null","null","null","null","null","2","50","60","45","60","50","60","Processing speed","Memory (RAM)","",""
"","","","","","rating_trial_setup","html-keyboard-response","11","352317","0.0-3.0-0.4","108","1","2025-04-11 14:50:27","bb671e3ae32f654b8954ea4c4635f915","","Mozilla/5.0 (Windows NT 10.0; Win64; x64) AppleWebKit/537.36 (KHTML, like Gecko) Chrome/130.0.0.0 Safari/537.36","WebKit","Chrome","130.0.0.0","Windows","10.0","https://hz8g1ckzuq.cognition.run/","en-US,en;q=0.9","6jbb7t6gtfvfth3","48","[""White""]","No","Male","1693708.1000000238","null","","<p></p>","null","rating","wwb","catch","null","televisions","85","80","10","15","35","20","1","","","","","","","","","",""
"","","","","","rating_trial","survey-html-form","12","392401","0.0-3.0-1.4","108","1","2025-04-11 14:50:27","bb671e3ae32f654b8954ea4c4635f915","","Mozilla/5.0 (Windows NT 10.0; Win64; x64) AppleWebKit/537.36 (KHTML, like Gecko) Chrome/130.0.0.0 Safari/537.36","WebKit","Chrome","130.0.0.0","Windows","10.0","https://hz8g1ckzuq.cognition.run/","en-US,en;q=0.9","6jbb7t6gtfvfth3","48","[""White""]","No","Male","1693708.1000000238","40079","","","{""price_1"":""100"",""price_2"":""120"",""price_3"":""600""}","rating","wwb","catch","null","televisions","85","80","10","15","35","20","1","null","null","null","null","null","null","Screen size","Average lifespan","",""
"","","","","","rating_trial_setup","html-keyboard-response","13","392704","0.0-3.0-0.5","108","1","2025-04-11 14:50:27","bb671e3ae32f654b8954ea4c4635f915","","Mozilla/5.0 (Windows NT 10.0; Win64; x64) AppleWebKit/537.36 (KHTML, like Gecko) Chrome/130.0.0.0 Safari/537.36","WebKit","Chrome","130.0.0.0","Windows","10.0","https://hz8g1ckzuq.cognition.run/","en-US,en;q=0.9","6jbb7t6gtfvfth3","48","[""White""]","No","Male","1693708.1000000238","null","","<p></p>","null","rating","dtc","attraction_1","1","televisions","null","null","null","null","null","null","2","","","","","","","","","",""
"","","","","","rating_trial","survey-html-form","14","417133","0.0-3.0-1.5","108","1","2025-04-11 14:50:27","bb671e3ae32f654b8954ea4c4635f915","","Mozilla/5.0 (Windows NT 10.0; Win64; x64) AppleWebKit/537.36 (KHTML, like Gecko) Chrome/130.0.0.0 Safari/537.36","WebKit","Chrome","130.0.0.0","Windows","10.0","https://hz8g1ckzuq.cognition.run/","en-US,en;q=0.9","6jbb7t6gtfvfth3","48","[""White""]","No","Male","1693708.1000000238","24423","","","{""price_1"":""250"",""price_2"":""300"",""price_3"":""350""}","rating","dtc","attraction_1","1","televisions","null","null","null","null","null","null","2","60","50","60","50","60","45","Screen size","Average lifespan","",""
"","","","","","rating_trial_setup","html-keyboard-response","15","417436","0.0-3.0-0.6","108","1","2025-04-11 14:50:27","bb671e3ae32f654b8954ea4c4635f915","","Mozilla/5.0 (Windows NT 10.0; Win64; x64) AppleWebKit/537.36 (KHTML, like Gecko) Chrome/130.0.0.0 Safari/537.36","WebKit","Chrome","130.0.0.0","Windows","10.0","https://hz8g1ckzuq.cognition.run/","en-US,en;q=0.9","6jbb7t6gtfvfth3","48","[""White""]","No","Male","1693708.1000000238","null","","<p></p>","null","rating","wwb","catch","null","washing machines","80","55","50","45","10","45","2","","","","","","","","","",""
"","","","","","rating_trial","survey-html-form","16","450430","0.0-3.0-1.6","108","1","2025-04-11 14:50:27","bb671e3ae32f654b8954ea4c4635f915","","Mozilla/5.0 (Windows NT 10.0; Win64; x64) AppleWebKit/537.36 (KHTML, like Gecko) Chrome/130.0.0.0 Safari/537.36","WebKit","Chrome","130.0.0.0","Windows","10.0","https://hz8g1ckzuq.cognition.run/","en-US,en;q=0.9","6jbb7t6gtfvfth3","48","[""White""]","No","Male","1693708.1000000238","32987","","","{""price_1"":""120"",""price_2"":""80"",""price_3"":""250""}","rating","wwb","catch","null","washing machines","80","55","50","45","10","45","2","null","null","null","null","null","null","Average lifespan","Energy savings","",""
"","","","","","rating_trial_setup","html-keyboard-response","17","450733","0.0-3.0-0.7","108","1","2025-04-11 14:50:27","bb671e3ae32f654b8954ea4c4635f915","","Mozilla/5.0 (Windows NT 10.0; Win64; x64) AppleWebKit/537.36 (KHTML, like Gecko) Chrome/130.0.0.0 Safari/537.36","WebKit","Chrome","130.0.0.0","Windows","10.0","https://hz8g1ckzuq.cognition.run/","en-US,en;q=0.9","6jbb7t6gtfvfth3","48","[""White""]","No","Male","1693708.1000000238","null","","<p></p>","null","rating","tcd","repulsion_2","2","laptops","null","null","null","null","null","null","2","","","","","","","","","",""
"","","","","","rating_trial","survey-html-form","18","506961","0.0-3.0-1.7","108","1","2025-04-11 14:50:27","bb671e3ae32f654b8954ea4c4635f915","","Mozilla/5.0 (Windows NT 10.0; Win64; x64) AppleWebKit/537.36 (KHTML, like Gecko) Chrome/130.0.0.0 Safari/537.36","WebKit","Chrome","130.0.0.0","Windows","10.0","https://hz8g1ckzuq.cognition.run/","en-US,en;q=0.9","6jbb7t6gtfvfth3","48","[""White""]","No","Male","1693708.1000000238","56225","","","{""price_1"":""400"",""price_2"":""420"",""price_3"":""250""}","rating","tcd","repulsion_2","2","laptops","null","null","null","null","null","null","2","30","40","20","100","90","100","Processing speed","Memory (RAM)","",""
"","","","","","rating_trial_setup","html-keyboard-response","19","507263","0.0-3.0-0.8","108","1","2025-04-11 14:50:27","bb671e3ae32f654b8954ea4c4635f915","","Mozilla/5.0 (Windows NT 10.0; Win64; x64) AppleWebKit/537.36 (KHTML, like Gecko) Chrome/130.0.0.0 Safari/537.36","WebKit","Chrome","130.0.0.0","Windows","10.0","https://hz8g1ckzuq.cognition.run/","en-US,en;q=0.9","6jbb7t6gtfvfth3","48","[""White""]","No","Male","1693708.1000000238","null","","<p></p>","null","rating","tdc","attraction_1","1","washing machines","null","null","null","null","null","null","2","","","","","","","","","",""
"","","","","","rating_trial","survey-html-form","20","544935","0.0-3.0-1.8","108","1","2025-04-11 14:50:27","bb671e3ae32f654b8954ea4c4635f915","","Mozilla/5.0 (Windows NT 10.0; Win64; x64) AppleWebKit/537.36 (KHTML, like Gecko) Chrome/130.0.0.0 Safari/537.36","WebKit","Chrome","130.0.0.0","Windows","10.0","https://hz8g1ckzuq.cognition.run/","en-US,en;q=0.9","6jbb7t6gtfvfth3","48","[""White""]","No","Male","1693708.1000000238","37665","","","{""price_1"":""750"",""price_2"":""700"",""price_3"":""800""}","rating","tdc","attraction_1","1","washing machines","null","null","null","null","null","null","2","60","50","60","50","60","45","Average lifespan","Energy savings","",""
"","","","","","rating_trial_setup","html-keyboard-response","21","545247","0.0-3.0-0.9","108","1","2025-04-11 14:50:27","bb671e3ae32f654b8954ea4c4635f915","","Mozilla/5.0 (Windows NT 10.0; Win64; x64) AppleWebKit/537.36 (KHTML, like Gecko) Chrome/130.0.0.0 Safari/537.36","WebKit","Chrome","130.0.0.0","Windows","10.0","https://hz8g1ckzuq.cognition.run/","en-US,en;q=0.9","6jbb7t6gtfvfth3","48","[""White""]","No","Male","1693708.1000000238","null","","<p></p>","null","rating","ctd","repulsion_2","1","microwave ovens","null","null","null","null","null","null","2","","","","","","","","","",""
"","","","","","rating_trial","survey-html-form","22","568210","0.0-3.0-1.9","108","1","2025-04-11 14:50:27","bb671e3ae32f654b8954ea4c4635f915","","Mozilla/5.0 (Windows NT 10.0; Win64; x64) AppleWebKit/537.36 (KHTML, like Gecko) Chrome/130.0.0.0 Safari/537.36","WebKit","Chrome","130.0.0.0","Windows","10.0","https://hz8g1ckzuq.cognition.run/","en-US,en;q=0.9","6jbb7t6gtfvfth3","48","[""White""]","No","Male","1693708.1000000238","22955","","","{""price_1"":""150"",""price_2"":""130"",""price_3"":""100""}","rating","ctd","repulsion_2","1","microwave ovens","null","null","null","null","null","null","2","100","90","100","30","40","20","Warranty","Cooking power","",""
"","","","","","rating_trial_setup","html-keyboard-response","23","568514","0.0-3.0-0.10","108","1","2025-04-11 14:50:27","bb671e3ae32f654b8954ea4c4635f915","","Mozilla/5.0 (Windows NT 10.0; Win64; x64) AppleWebKit/537.36 (KHTML, like Gecko) Chrome/130.0.0.0 Safari/537.36","WebKit","Chrome","130.0.0.0","Windows","10.0","https://hz8g1ckzuq.cognition.run/","en-US,en;q=0.9","6jbb7t6gtfvfth3","48","[""White""]","No","Male","1693708.1000000238","null","","<p></p>","null","rating","ctd","repulsion_2","2","microwave ovens","null","null","null","null","null","null","1","","","","","","","","","",""
"","","","","","rating_trial","survey-html-form","24","610056","0.0-3.0-1.10","108","1","2025-04-11 14:50:27","bb671e3ae32f654b8954ea4c4635f915","","Mozilla/5.0 (Windows NT 10.0; Win64; x64) AppleWebKit/537.36 (KHTML, like Gecko) Chrome/130.0.0.0 Safari/537.36","WebKit","Chrome","130.0.0.0","Windows","10.0","https://hz8g1ckzuq.cognition.run/","en-US,en;q=0.9","6jbb7t6gtfvfth3","48","[""White""]","No","Male","1693708.1000000238","41535","","","{""price_1"":""150"",""price_2"":""145"",""price_3"":""140""}","rating","ctd","repulsion_2","2","microwave ovens","null","null","null","null","null","null","1","30","40","20","100","90","100","Warranty","Cooking power","",""
"","","","","","rating_trial_setup","html-keyboard-response","25","610361","0.0-3.0-0.11","108","1","2025-04-11 14:50:27","bb671e3ae32f654b8954ea4c4635f915","","Mozilla/5.0 (Windows NT 10.0; Win64; x64) AppleWebKit/537.36 (KHTML, like Gecko) Chrome/130.0.0.0 Safari/537.36","WebKit","Chrome","130.0.0.0","Windows","10.0","https://hz8g1ckzuq.cognition.run/","en-US,en;q=0.9","6jbb7t6gtfvfth3","48","[""White""]","No","Male","1693708.1000000238","null","","<p></p>","null","rating","cdt","repulsion_2","2","televisions","null","null","null","null","null","null","2","","","","","","","","","",""
"","","","","","rating_trial","survey-html-form","26","650957","0.0-3.0-1.11","108","1","2025-04-11 14:50:27","bb671e3ae32f654b8954ea4c4635f915","","Mozilla/5.0 (Windows NT 10.0; Win64; x64) AppleWebKit/537.36 (KHTML, like Gecko) Chrome/130.0.0.0 Safari/537.36","WebKit","Chrome","130.0.0.0","Windows","10.0","https://hz8g1ckzuq.cognition.run/","en-US,en;q=0.9","6jbb7t6gtfvfth3","48","[""White""]","No","Male","1693708.1000000238","40589","","","{""price_1"":""400"",""price_2"":""350"",""price_3"":""380""}","rating","cdt","repulsion_2","2","televisions","null","null","null","null","null","null","2","30","40","20","100","90","100","Screen size","Average lifespan","",""
"","","","","","rating_trial_setup","html-keyboard-response","27","651260","0.0-3.0-0.12","108","1","2025-04-11 14:50:27","bb671e3ae32f654b8954ea4c4635f915","","Mozilla/5.0 (Windows NT 10.0; Win64; x64) AppleWebKit/537.36 (KHTML, like Gecko) Chrome/130.0.0.0 Safari/537.36","WebKit","Chrome","130.0.0.0","Windows","10.0","https://hz8g1ckzuq.cognition.run/","en-US,en;q=0.9","6jbb7t6gtfvfth3","48","[""White""]","No","Male","1693708.1000000238","null","","<p></p>","null","rating","cdt","repulsion_1","1","televisions","null","null","null","null","null","null","2","","","","","","","","","",""
"","","","","","rating_trial","survey-html-form","28","673756","0.0-3.0-1.12","108","1","2025-04-11 14:50:27","bb671e3ae32f654b8954ea4c4635f915","","Mozilla/5.0 (Windows NT 10.0; Win64; x64) AppleWebKit/537.36 (KHTML, like Gecko) Chrome/130.0.0.0 Safari/537.36","WebKit","Chrome","130.0.0.0","Windows","10.0","https://hz8g1ckzuq.cognition.run/","en-US,en;q=0.9","6jbb7t6gtfvfth3","48","[""White""]","No","Male","1693708.1000000238","22487","","","{""price_1"":""400"",""price_2"":""300"",""price_3"":""320""}","rating","cdt","repulsion_1","1","televisions","null","null","null","null","null","null","2","100","90","100","30","40","25","Screen size","Average lifespan","",""
"","","","","","rating_trial_setup","html-keyboard-response","29","674061","0.0-3.0-0.13","108","1","2025-04-11 14:50:27","bb671e3ae32f654b8954ea4c4635f915","","Mozilla/5.0 (Windows NT 10.0; Win64; x64) AppleWebKit/537.36 (KHTML, like Gecko) Chrome/130.0.0.0 Safari/537.36","WebKit","Chrome","130.0.0.0","Windows","10.0","https://hz8g1ckzuq.cognition.run/","en-US,en;q=0.9","6jbb7t6gtfvfth3","48","[""White""]","No","Male","1693708.1000000238","null","","<p></p>","null","rating","dtc","repulsion_2","2","washing machines","null","null","null","null","null","null","1","","","","","","","","","",""
"","","","","","rating_trial","survey-html-form","30","704870","0.0-3.0-1.13","108","1","2025-04-11 14:50:27","bb671e3ae32f654b8954ea4c4635f915","","Mozilla/5.0 (Windows NT 10.0; Win64; x64) AppleWebKit/537.36 (KHTML, like Gecko) Chrome/130.0.0.0 Safari/537.36","WebKit","Chrome","130.0.0.0","Windows","10.0","https://hz8g1ckzuq.cognition.run/","en-US,en;q=0.9","6jbb7t6gtfvfth3","48","[""White""]","No","Male","1693708.1000000238","30806","","","{""price_1"":""650"",""price_2"":""700"",""price_3"":""780""}","rating","dtc","repulsion_2","2","washing machines","null","null","null","null","null","null","1","30","40","20","100","90","100","Average lifespan","Energy savings","",""
"","","","","","rating_trial_setup","html-keyboard-response","31","705174","0.0-3.0-0.14","108","1","2025-04-11 14:50:27","bb671e3ae32f654b8954ea4c4635f915","","Mozilla/5.0 (Windows NT 10.0; Win64; x64) AppleWebKit/537.36 (KHTML, like Gecko) Chrome/130.0.0.0 Safari/537.36","WebKit","Chrome","130.0.0.0","Windows","10.0","https://hz8g1ckzuq.cognition.run/","en-US,en;q=0.9","6jbb7t6gtfvfth3","48","[""White""]","No","Male","1693708.1000000238","null","","<p></p>","null","rating","wbw","catch","null","laptops","90","70","25","25","5","25","1","","","","","","","","","",""
"","","","","","rating_trial","survey-html-form","32","736880","0.0-3.0-1.14","108","1","2025-04-11 14:50:27","bb671e3ae32f654b8954ea4c4635f915","","Mozilla/5.0 (Windows NT 10.0; Win64; x64) AppleWebKit/537.36 (KHTML, like Gecko) Chrome/130.0.0.0 Safari/537.36","WebKit","Chrome","130.0.0.0","Windows","10.0","https://hz8g1ckzuq.cognition.run/","en-US,en;q=0.9","6jbb7t6gtfvfth3","48","[""White""]","No","Male","1693708.1000000238","31696","","","{""price_1"":""250"",""price_2"":""800"",""price_3"":""100""}","rating","wbw","catch","null","laptops","90","70","25","25","5","25","1","null","null","null","null","null","null","Processing speed","Memory (RAM)","",""
"","","","","","rating_trial_setup","html-keyboard-response","33","737183","0.0-3.0-0.15","108","1","2025-04-11 14:50:27","bb671e3ae32f654b8954ea4c4635f915","","Mozilla/5.0 (Windows NT 10.0; Win64; x64) AppleWebKit/537.36 (KHTML, like Gecko) Chrome/130.0.0.0 Safari/537.36","WebKit","Chrome","130.0.0.0","Windows","10.0","https://hz8g1ckzuq.cognition.run/","en-US,en;q=0.9","6jbb7t6gtfvfth3","48","[""White""]","No","Male","1693708.1000000238","null","","<p></p>","null","rating","dtc","attraction_1","2","televisions","null","null","null","null","null","null","1","","","","","","","","","",""
"","","","","","rating_trial","survey-html-form","34","760897","0.0-3.0-1.15","108","1","2025-04-11 14:50:27","bb671e3ae32f654b8954ea4c4635f915","","Mozilla/5.0 (Windows NT 10.0; Win64; x64) AppleWebKit/537.36 (KHTML, like Gecko) Chrome/130.0.0.0 Safari/537.36","WebKit","Chrome","130.0.0.0","Windows","10.0","https://hz8g1ckzuq.cognition.run/","en-US,en;q=0.9","6jbb7t6gtfvfth3","48","[""White""]","No","Male","1693708.1000000238","23707","","","{""price_1"":""350"",""price_2"":""450"",""price_3"":""400""}","rating","dtc","attraction_1","2","televisions","null","null","null","null","null","null","1","50","60","45","60","50","60","Screen size","Average lifespan","",""
"","","","","","rating_trial_setup","html-keyboard-response","35","761202","0.0-3.0-0.16","108","1","2025-04-11 14:50:27","bb671e3ae32f654b8954ea4c4635f915","","Mozilla/5.0 (Windows NT 10.0; Win64; x64) AppleWebKit/537.36 (KHTML, like Gecko) Chrome/130.0.0.0 Safari/537.36","WebKit","Chrome","130.0.0.0","Windows","10.0","https://hz8g1ckzuq.cognition.run/","en-US,en;q=0.9","6jbb7t6gtfvfth3","48","[""White""]","No","Male","1693708.1000000238","null","","<p></p>","null","rating","dtc","repulsion_2","1","washing machines","null","null","null","null","null","null","2","","","","","","","","","",""
"","","","","","rating_trial","survey-html-form","36","780217","0.0-3.0-1.16","108","1","2025-04-11 14:50:27","bb671e3ae32f654b8954ea4c4635f915","","Mozilla/5.0 (Windows NT 10.0; Win64; x64) AppleWebKit/537.36 (KHTML, like Gecko) Chrome/130.0.0.0 Safari/537.36","WebKit","Chrome","130.0.0.0","Windows","10.0","https://hz8g1ckzuq.cognition.run/","en-US,en;q=0.9","6jbb7t6gtfvfth3","48","[""White""]","No","Male","1693708.1000000238","19012","","","{""price_1"":""550"",""price_2"":""650"",""price_3"":""700""}","rating","dtc","repulsion_2","1","washing machines","null","null","null","null","null","null","2","100","90","100","30","40","20","Average lifespan","Energy savings","",""
"","","","","","rating_trial_setup","html-keyboard-response","37","780523","0.0-3.0-0.17","108","1","2025-04-11 14:50:27","bb671e3ae32f654b8954ea4c4635f915","","Mozilla/5.0 (Windows NT 10.0; Win64; x64) AppleWebKit/537.36 (KHTML, like Gecko) Chrome/130.0.0.0 Safari/537.36","WebKit","Chrome","130.0.0.0","Windows","10.0","https://hz8g1ckzuq.cognition.run/","en-US,en;q=0.9","6jbb7t6gtfvfth3","48","[""White""]","No","Male","1693708.1000000238","null","","<p></p>","null","rating","dct","attraction_2","2","laptops","null","null","null","null","null","null","1","","","","","","","","","",""
"","","","","","rating_trial","survey-html-form","38","824324","0.0-3.0-1.17","108","1","2025-04-11 14:50:27","bb671e3ae32f654b8954ea4c4635f915","","Mozilla/5.0 (Windows NT 10.0; Win64; x64) AppleWebKit/537.36 (KHTML, like Gecko) Chrome/130.0.0.0 Safari/537.36","WebKit","Chrome","130.0.0.0","Windows","10.0","https://hz8g1ckzuq.cognition.run/","en-US,en;q=0.9","6jbb7t6gtfvfth3","48","[""White""]","No","Male","1693708.1000000238","43796","","","{""price_1"":""500"",""price_2"":""580"",""price_3"":""550""}","rating","dct","attraction_2","2","laptops","null","null","null","null","null","null","1","50","60","40","60","50","60","Processing speed","Memory (RAM)","",""
"","","","","","rating_trial_setup","html-keyboard-response","39","824629","0.0-3.0-0.18","108","1","2025-04-11 14:50:27","bb671e3ae32f654b8954ea4c4635f915","","Mozilla/5.0 (Windows NT 10.0; Win64; x64) AppleWebKit/537.36 (KHTML, like Gecko) Chrome/130.0.0.0 Safari/537.36","WebKit","Chrome","130.0.0.0","Windows","10.0","https://hz8g1ckzuq.cognition.run/","en-US,en;q=0.9","6jbb7t6gtfvfth3","48","[""White""]","No","Male","1693708.1000000238","null","","<p></p>","null","rating","tdc","repulsion_1","2","laptops","null","null","null","null","null","null","1","","","","","","","","","",""
"","","","","","rating_trial","survey-html-form","40","843581","0.0-3.0-1.18","108","1","2025-04-11 14:50:27","bb671e3ae32f654b8954ea4c4635f915","","Mozilla/5.0 (Windows NT 10.0; Win64; x64) AppleWebKit/537.36 (KHTML, like Gecko) Chrome/130.0.0.0 Safari/537.36","WebKit","Chrome","130.0.0.0","Windows","10.0","https://hz8g1ckzuq.cognition.run/","en-US,en;q=0.9","6jbb7t6gtfvfth3","48","[""White""]","No","Male","1693708.1000000238","18944","","","{""price_1"":""420"",""price_2"":""400"",""price_3"":""500""}","rating","tdc","repulsion_1","2","laptops","null","null","null","null","null","null","1","30","40","25","100","90","100","Processing speed","Memory (RAM)","",""
"","","","","","rating_trial_setup","html-keyboard-response","41","843886","0.0-3.0-0.19","108","1","2025-04-11 14:50:27","bb671e3ae32f654b8954ea4c4635f915","","Mozilla/5.0 (Windows NT 10.0; Win64; x64) AppleWebKit/537.36 (KHTML, like Gecko) Chrome/130.0.0.0 Safari/537.36","WebKit","Chrome","130.0.0.0","Windows","10.0","https://hz8g1ckzuq.cognition.run/","en-US,en;q=0.9","6jbb7t6gtfvfth3","48","[""White""]","No","Male","1693708.1000000238","null","","<p></p>","null","rating","wbw","catch","null","microwave ovens","80","50","30","20","50","20","2","","","","","","","","","",""
"","","","","","rating_trial","survey-html-form","42","871570","0.0-3.0-1.19","108","1","2025-04-11 14:50:27","bb671e3ae32f654b8954ea4c4635f915","","Mozilla/5.0 (Windows NT 10.0; Win64; x64) AppleWebKit/537.36 (KHTML, like Gecko) Chrome/130.0.0.0 Safari/537.36","WebKit","Chrome","130.0.0.0","Windows","10.0","https://hz8g1ckzuq.cognition.run/","en-US,en;q=0.9","6jbb7t6gtfvfth3","48","[""White""]","No","Male","1693708.1000000238","27677","","","{""price_1"":""80"",""price_2"":""250"",""price_3"":""100""}","rating","wbw","catch","null","microwave ovens","80","50","30","20","50","20","2","null","null","null","null","null","null","Warranty","Cooking power","",""
"","","","","","rating_trial_setup","html-keyboard-response","43","871874","0.0-3.0-0.20","108","1","2025-04-11 14:50:27","bb671e3ae32f654b8954ea4c4635f915","","Mozilla/5.0 (Windows NT 10.0; Win64; x64) AppleWebKit/537.36 (KHTML, like Gecko) Chrome/130.0.0.0 Safari/537.36","WebKit","Chrome","130.0.0.0","Windows","10.0","https://hz8g1ckzuq.cognition.run/","en-US,en;q=0.9","6jbb7t6gtfvfth3","48","[""White""]","No","Male","1693708.1000000238","null","","<p></p>","null","rating","dct","attraction_2","1","washing machines","null","null","null","null","null","null","1","","","","","","","","","",""
"","","","","","rating_trial","survey-html-form","44","891010","0.0-3.0-1.20","108","1","2025-04-11 14:50:27","bb671e3ae32f654b8954ea4c4635f915","","Mozilla/5.0 (Windows NT 10.0; Win64; x64) AppleWebKit/537.36 (KHTML, like Gecko) Chrome/130.0.0.0 Safari/537.36","WebKit","Chrome","130.0.0.0","Windows","10.0","https://hz8g1ckzuq.cognition.run/","en-US,en;q=0.9","6jbb7t6gtfvfth3","48","[""White""]","No","Male","1693708.1000000238","19127","","","{""price_1"":""600"",""price_2"":""700"",""price_3"":""650""}","rating","dct","attraction_2","1","washing machines","null","null","null","null","null","null","1","60","50","60","50","60","40","Average lifespan","Energy savings","",""
"","","","","","rating_trial_setup","html-keyboard-response","45","891314","0.0-3.0-0.21","108","1","2025-04-11 14:50:27","bb671e3ae32f654b8954ea4c4635f915","","Mozilla/5.0 (Windows NT 10.0; Win64; x64) AppleWebKit/537.36 (KHTML, like Gecko) Chrome/130.0.0.0 Safari/537.36","WebKit","Chrome","130.0.0.0","Windows","10.0","https://hz8g1ckzuq.cognition.run/","en-US,en;q=0.9","6jbb7t6gtfvfth3","48","[""White""]","No","Male","1693708.1000000238","null","","<p></p>","null","rating","tcd","repulsion_2","1","televisions","null","null","null","null","null","null","1","","","","","","","","","",""
"","","","","","rating_trial","survey-html-form","46","916903","0.0-3.0-1.21","108","1","2025-04-11 14:50:27","bb671e3ae32f654b8954ea4c4635f915","","Mozilla/5.0 (Windows NT 10.0; Win64; x64) AppleWebKit/537.36 (KHTML, like Gecko) Chrome/130.0.0.0 Safari/537.36","WebKit","Chrome","130.0.0.0","Windows","10.0","https://hz8g1ckzuq.cognition.run/","en-US,en;q=0.9","6jbb7t6gtfvfth3","48","[""White""]","No","Male","1693708.1000000238","25583","","","{""price_1"":""300"",""price_2"":""350"",""price_3"":""250""}","rating","tcd","repulsion_2","1","televisions","null","null","null","null","null","null","1","100","90","100","30","40","20","Screen size","Average lifespan","",""
"","","","","","rating_trial_setup","html-keyboard-response","47","917207","0.0-3.0-0.22","108","1","2025-04-11 14:50:27","bb671e3ae32f654b8954ea4c4635f915","","Mozilla/5.0 (Windows NT 10.0; Win64; x64) AppleWebKit/537.36 (KHTML, like Gecko) Chrome/130.0.0.0 Safari/537.36","WebKit","Chrome","130.0.0.0","Windows","10.0","https://hz8g1ckzuq.cognition.run/","en-US,en;q=0.9","6jbb7t6gtfvfth3","48","[""White""]","No","Male","1693708.1000000238","null","","<p></p>","null","rating","wwb","catch","null","microwave ovens","80","85","5","30","35","50","1","","","","","","","","","",""
"","","","","","rating_trial","survey-html-form","48","934680","0.0-3.0-1.22","108","1","2025-04-11 14:50:27","bb671e3ae32f654b8954ea4c4635f915","","Mozilla/5.0 (Windows NT 10.0; Win64; x64) AppleWebKit/537.36 (KHTML, like Gecko) Chrome/130.0.0.0 Safari/537.36","WebKit","Chrome","130.0.0.0","Windows","10.0","https://hz8g1ckzuq.cognition.run/","en-US,en;q=0.9","6jbb7t6gtfvfth3","48","[""White""]","No","Male","1693708.1000000238","17467","","","{""price_1"":""70"",""price_2"":""120"",""price_3"":""200""}","rating","wwb","catch","null","microwave ovens","80","85","5","30","35","50","1","null","null","null","null","null","null","Warranty","Cooking power","",""
"","","","","","rating_trial_setup","html-keyboard-response","49","934985","0.0-3.0-0.23","108","1","2025-04-11 14:50:27","bb671e3ae32f654b8954ea4c4635f915","","Mozilla/5.0 (Windows NT 10.0; Win64; x64) AppleWebKit/537.36 (KHTML, like Gecko) Chrome/130.0.0.0 Safari/537.36","WebKit","Chrome","130.0.0.0","Windows","10.0","https://hz8g1ckzuq.cognition.run/","en-US,en;q=0.9","6jbb7t6gtfvfth3","48","[""White""]","No","Male","1693708.1000000238","null","","<p></p>","null","rating","tcd","repulsion_1","1","laptops","null","null","null","null","null","null","1","","","","","","","","","",""
"","","","","","rating_trial","survey-html-form","50","967066","0.0-3.0-1.23","108","1","2025-04-11 14:50:27","bb671e3ae32f654b8954ea4c4635f915","","Mozilla/5.0 (Windows NT 10.0; Win64; x64) AppleWebKit/537.36 (KHTML, like Gecko) Chrome/130.0.0.0 Safari/537.36","WebKit","Chrome","130.0.0.0","Windows","10.0","https://hz8g1ckzuq.cognition.run/","en-US,en;q=0.9","6jbb7t6gtfvfth3","48","[""White""]","No","Male","1693708.1000000238","32072","","","{""price_1"":""400"",""price_2"":""450"",""price_3"":""350""}","rating","tcd","repulsion_1","1","laptops","null","null","null","null","null","null","1","100","90","100","30","40","25","Processing speed","Memory (RAM)","",""
"","","","","","rating_trial_setup","html-keyboard-response","51","967370","0.0-3.0-0.24","108","1","2025-04-11 14:50:27","bb671e3ae32f654b8954ea4c4635f915","","Mozilla/5.0 (Windows NT 10.0; Win64; x64) AppleWebKit/537.36 (KHTML, like Gecko) Chrome/130.0.0.0 Safari/537.36","WebKit","Chrome","130.0.0.0","Windows","10.0","https://hz8g1ckzuq.cognition.run/","en-US,en;q=0.9","6jbb7t6gtfvfth3","48","[""White""]","No","Male","1693708.1000000238","null","","<p></p>","null","rating","ctd","repulsion_1","2","washing machines","null","null","null","null","null","null","2","","","","","","","","","",""
"","","","","","rating_trial","survey-html-form","52","984725","0.0-3.0-1.24","108","1","2025-04-11 14:50:27","bb671e3ae32f654b8954ea4c4635f915","","Mozilla/5.0 (Windows NT 10.0; Win64; x64) AppleWebKit/537.36 (KHTML, like Gecko) Chrome/130.0.0.0 Safari/537.36","WebKit","Chrome","130.0.0.0","Windows","10.0","https://hz8g1ckzuq.cognition.run/","en-US,en;q=0.9","6jbb7t6gtfvfth3","48","[""White""]","No","Male","1693708.1000000238","17343","","","{""price_1"":""700"",""price_2"":""650"",""price_3"":""600""}","rating","ctd","repulsion_1","2","washing machines","null","null","null","null","null","null","2","30","40","25","100","90","100","Average lifespan","Energy savings","",""
"","","","","","rating_trial_setup","html-keyboard-response","53","985029","0.0-3.0-0.25","108","1","2025-04-11 14:50:27","bb671e3ae32f654b8954ea4c4635f915","","Mozilla/5.0 (Windows NT 10.0; Win64; x64) AppleWebKit/537.36 (KHTML, like Gecko) Chrome/130.0.0.0 Safari/537.36","WebKit","Chrome","130.0.0.0","Windows","10.0","https://hz8g1ckzuq.cognition.run/","en-US,en;q=0.9","6jbb7t6gtfvfth3","48","[""White""]","No","Male","1693708.1000000238","null","","<p></p>","null","rating","dtc","repulsion_1","1","washing machines","null","null","null","null","null","null","2","","","","","","","","","",""
"","","","","","rating_trial","survey-html-form","54","997816","0.0-3.0-1.25","108","1","2025-04-11 14:50:27","bb671e3ae32f654b8954ea4c4635f915","","Mozilla/5.0 (Windows NT 10.0; Win64; x64) AppleWebKit/537.36 (KHTML, like Gecko) Chrome/130.0.0.0 Safari/537.36","WebKit","Chrome","130.0.0.0","Windows","10.0","https://hz8g1ckzuq.cognition.run/","en-US,en;q=0.9","6jbb7t6gtfvfth3","48","[""White""]","No","Male","1693708.1000000238","12777","","","{""price_1"":""600"",""price_2"":""650"",""price_3"":""700""}","rating","dtc","repulsion_1","1","washing machines","null","null","null","null","null","null","2","100","90","100","30","40","25","Average lifespan","Energy savings","",""
"","","","","","rating_trial_setup","html-keyboard-response","55","998120","0.0-3.0-0.26","108","1","2025-04-11 14:50:27","bb671e3ae32f654b8954ea4c4635f915","","Mozilla/5.0 (Windows NT 10.0; Win64; x64) AppleWebKit/537.36 (KHTML, like Gecko) Chrome/130.0.0.0 Safari/537.36","WebKit","Chrome","130.0.0.0","Windows","10.0","https://hz8g1ckzuq.cognition.run/","en-US,en;q=0.9","6jbb7t6gtfvfth3","48","[""White""]","No","Male","1693708.1000000238","null","","<p></p>","null","rating","cdt","repulsion_2","1","laptops","null","null","null","null","null","null","1","","","","","","","","","",""
"","","","","","rating_trial","survey-html-form","56","1011358","0.0-3.0-1.26","108","1","2025-04-11 14:50:27","bb671e3ae32f654b8954ea4c4635f915","","Mozilla/5.0 (Windows NT 10.0; Win64; x64) AppleWebKit/537.36 (KHTML, like Gecko) Chrome/130.0.0.0 Safari/537.36","WebKit","Chrome","130.0.0.0","Windows","10.0","https://hz8g1ckzuq.cognition.run/","en-US,en;q=0.9","6jbb7t6gtfvfth3","48","[""White""]","No","Male","1693708.1000000238","13228","","","{""price_1"":""400"",""price_2"":""300"",""price_3"":""350""}","rating","cdt","repulsion_2","1","laptops","null","null","null","null","null","null","1","100","90","100","30","40","20","Processing speed","Memory (RAM)","",""
"","","","","","rating_trial_setup","html-keyboard-response","57","1011662","0.0-3.0-0.27","108","1","2025-04-11 14:50:27","bb671e3ae32f654b8954ea4c4635f915","","Mozilla/5.0 (Windows NT 10.0; Win64; x64) AppleWebKit/537.36 (KHTML, like Gecko) Chrome/130.0.0.0 Safari/537.36","WebKit","Chrome","130.0.0.0","Windows","10.0","https://hz8g1ckzuq.cognition.run/","en-US,en;q=0.9","6jbb7t6gtfvfth3","48","[""White""]","No","Male","1693708.1000000238","null","","<p></p>","null","rating","dtc","repulsion_1","2","televisions","null","null","null","null","null","null","2","","","","","","","","","",""
"","","","","","rating_trial","survey-html-form","58","1028291","0.0-3.0-1.27","108","1","2025-04-11 14:50:27","bb671e3ae32f654b8954ea4c4635f915","","Mozilla/5.0 (Windows NT 10.0; Win64; x64) AppleWebKit/537.36 (KHTML, like Gecko) Chrome/130.0.0.0 Safari/537.36","WebKit","Chrome","130.0.0.0","Windows","10.0","https://hz8g1ckzuq.cognition.run/","en-US,en;q=0.9","6jbb7t6gtfvfth3","48","[""White""]","No","Male","1693708.1000000238","16620","","","{""price_1"":""200"",""price_2"":""250"",""price_3"":""300""}","rating","dtc","repulsion_1","2","televisions","null","null","null","null","null","null","2","30","40","25","100","90","100","Screen size","Average lifespan","",""
"","","","","","rating_trial_setup","html-keyboard-response","59","1028598","0.0-3.0-0.28","108","1","2025-04-11 14:50:27","bb671e3ae32f654b8954ea4c4635f915","","Mozilla/5.0 (Windows NT 10.0; Win64; x64) AppleWebKit/537.36 (KHTML, like Gecko) Chrome/130.0.0.0 Safari/537.36","WebKit","Chrome","130.0.0.0","Windows","10.0","https://hz8g1ckzuq.cognition.run/","en-US,en;q=0.9","6jbb7t6gtfvfth3","48","[""White""]","No","Male","1693708.1000000238","null","","<p></p>","null","rating","cdt","attraction_1","2","microwave ovens","null","null","null","null","null","null","1","","","","","","","","","",""
"","","","","","rating_trial","survey-html-form","60","1054235","0.0-3.0-1.28","108","1","2025-04-11 14:50:27","bb671e3ae32f654b8954ea4c4635f915","","Mozilla/5.0 (Windows NT 10.0; Win64; x64) AppleWebKit/537.36 (KHTML, like Gecko) Chrome/130.0.0.0 Safari/537.36","WebKit","Chrome","130.0.0.0","Windows","10.0","https://hz8g1ckzuq.cognition.run/","en-US,en;q=0.9","6jbb7t6gtfvfth3","48","[""White""]","No","Male","1693708.1000000238","25629","","","{""price_1"":""130"",""price_2"":""100"",""price_3"":""150""}","rating","cdt","attraction_1","2","microwave ovens","null","null","null","null","null","null","1","50","60","45","60","50","60","Warranty","Cooking power","",""
"","","","","","rating_trial_setup","html-keyboard-response","61","1054541","0.0-3.0-0.29","108","1","2025-04-11 14:50:27","bb671e3ae32f654b8954ea4c4635f915","","Mozilla/5.0 (Windows NT 10.0; Win64; x64) AppleWebKit/537.36 (KHTML, like Gecko) Chrome/130.0.0.0 Safari/537.36","WebKit","Chrome","130.0.0.0","Windows","10.0","https://hz8g1ckzuq.cognition.run/","en-US,en;q=0.9","6jbb7t6gtfvfth3","48","[""White""]","No","Male","1693708.1000000238","null","","<p></p>","null","rating","ctd","repulsion_1","1","microwave ovens","null","null","null","null","null","null","2","","","","","","","","","",""
"","","","","","rating_trial","survey-html-form","62","1073140","0.0-3.0-1.29","108","1","2025-04-11 14:50:27","bb671e3ae32f654b8954ea4c4635f915","","Mozilla/5.0 (Windows NT 10.0; Win64; x64) AppleWebKit/537.36 (KHTML, like Gecko) Chrome/130.0.0.0 Safari/537.36","WebKit","Chrome","130.0.0.0","Windows","10.0","https://hz8g1ckzuq.cognition.run/","en-US,en;q=0.9","6jbb7t6gtfvfth3","48","[""White""]","No","Male","1693708.1000000238","18589","","","{""price_1"":""150"",""price_2"":""120"",""price_3"":""95""}","rating","ctd","repulsion_1","1","microwave ovens","null","null","null","null","null","null","2","100","90","100","30","40","25","Warranty","Cooking power","",""
"","","","","","rating_trial_setup","html-keyboard-response","63","1073448","0.0-3.0-0.30","108","1","2025-04-11 14:50:27","bb671e3ae32f654b8954ea4c4635f915","","Mozilla/5.0 (Windows NT 10.0; Win64; x64) AppleWebKit/537.36 (KHTML, like Gecko) Chrome/130.0.0.0 Safari/537.36","WebKit","Chrome","130.0.0.0","Windows","10.0","https://hz8g1ckzuq.cognition.run/","en-US,en;q=0.9","6jbb7t6gtfvfth3","48","[""White""]","No","Male","1693708.1000000238","null","","<p></p>","null","rating","wbw","catch","null","laptops","80","70","15","25","40","5","1","","","","","","","","","",""
"","","","","","rating_trial","survey-html-form","64","1094092","0.0-3.0-1.30","108","1","2025-04-11 14:50:27","bb671e3ae32f654b8954ea4c4635f915","","Mozilla/5.0 (Windows NT 10.0; Win64; x64) AppleWebKit/537.36 (KHTML, like Gecko) Chrome/130.0.0.0 Safari/537.36","WebKit","Chrome","130.0.0.0","Windows","10.0","https://hz8g1ckzuq.cognition.run/","en-US,en;q=0.9","6jbb7t6gtfvfth3","48","[""White""]","No","Male","1693708.1000000238","20636","","","{""price_1"":""120"",""price_2"":""550"",""price_3"":""80""}","rating","wbw","catch","null","laptops","80","70","15","25","40","5","1","null","null","null","null","null","null","Processing speed","Memory (RAM)","",""
"","","","","","rating_trial_setup","html-keyboard-response","65","1094397","0.0-3.0-0.31","108","1","2025-04-11 14:50:27","bb671e3ae32f654b8954ea4c4635f915","","Mozilla/5.0 (Windows NT 10.0; Win64; x64) AppleWebKit/537.36 (KHTML, like Gecko) Chrome/130.0.0.0 Safari/537.36","WebKit","Chrome","130.0.0.0","Windows","10.0","https://hz8g1ckzuq.cognition.run/","en-US,en;q=0.9","6jbb7t6gtfvfth3","48","[""White""]","No","Male","1693708.1000000238","null","","<p></p>","null","rating","tdc","attraction_1","1","laptops","null","null","null","null","null","null","2","","","","","","","","","",""
"","","","","","rating_trial","survey-html-form","66","1117028","0.0-3.0-1.31","108","1","2025-04-11 14:50:27","bb671e3ae32f654b8954ea4c4635f915","","Mozilla/5.0 (Windows NT 10.0; Win64; x64) AppleWebKit/537.36 (KHTML, like Gecko) Chrome/130.0.0.0 Safari/537.36","WebKit","Chrome","130.0.0.0","Windows","10.0","https://hz8g1ckzuq.cognition.run/","en-US,en;q=0.9","6jbb7t6gtfvfth3","48","[""White""]","No","Male","1693708.1000000238","22621","","","{""price_1"":""400"",""price_2"":""350"",""price_3"":""380""}","rating","tdc","attraction_1","1","laptops","null","null","null","null","null","null","2","60","50","60","50","60","45","Processing speed","Memory (RAM)","",""
"","","","","","rating_trial_setup","html-keyboard-response","67","1117333","0.0-3.0-0.32","108","1","2025-04-11 14:50:27","bb671e3ae32f654b8954ea4c4635f915","","Mozilla/5.0 (Windows NT 10.0; Win64; x64) AppleWebKit/537.36 (KHTML, like Gecko) Chrome/130.0.0.0 Safari/537.36","WebKit","Chrome","130.0.0.0","Windows","10.0","https://hz8g1ckzuq.cognition.run/","en-US,en;q=0.9","6jbb7t6gtfvfth3","48","[""White""]","No","Male","1693708.1000000238","null","","<p></p>","null","rating","dtc","attraction_1","2","washing machines","null","null","null","null","null","null","2","","","","","","","","","",""
"","","","","","rating_trial","survey-html-form","68","1133357","0.0-3.0-1.32","108","1","2025-04-11 14:50:27","bb671e3ae32f654b8954ea4c4635f915","","Mozilla/5.0 (Windows NT 10.0; Win64; x64) AppleWebKit/537.36 (KHTML, like Gecko) Chrome/130.0.0.0 Safari/537.36","WebKit","Chrome","130.0.0.0","Windows","10.0","https://hz8g1ckzuq.cognition.run/","en-US,en;q=0.9","6jbb7t6gtfvfth3","48","[""White""]","No","Male","1693708.1000000238","16011","","","{""price_1"":""500"",""price_2"":""600"",""price_3"":""550""}","rating","dtc","attraction_1","2","washing machines","null","null","null","null","null","null","2","50","60","45","60","50","60","Average lifespan","Energy savings","",""
"","","","","","rating_trial_setup","html-keyboard-response","69","1133661","0.0-3.0-0.33","108","1","2025-04-11 14:50:27","bb671e3ae32f654b8954ea4c4635f915","","Mozilla/5.0 (Windows NT 10.0; Win64; x64) AppleWebKit/537.36 (KHTML, like Gecko) Chrome/130.0.0.0 Safari/537.36","WebKit","Chrome","130.0.0.0","Windows","10.0","https://hz8g1ckzuq.cognition.run/","en-US,en;q=0.9","6jbb7t6gtfvfth3","48","[""White""]","No","Male","1693708.1000000238","null","","<p></p>","null","rating","tdc","attraction_2","2","microwave ovens","null","null","null","null","null","null","1","","","","","","","","","",""
"","","","","","rating_trial","survey-html-form","70","1150080","0.0-3.0-1.33","108","1","2025-04-11 14:50:27","bb671e3ae32f654b8954ea4c4635f915","","Mozilla/5.0 (Windows NT 10.0; Win64; x64) AppleWebKit/537.36 (KHTML, like Gecko) Chrome/130.0.0.0 Safari/537.36","WebKit","Chrome","130.0.0.0","Windows","10.0","https://hz8g1ckzuq.cognition.run/","en-US,en;q=0.9","6jbb7t6gtfvfth3","48","[""White""]","No","Male","1693708.1000000238","16408","","","{""price_1"":""150"",""price_2"":""110"",""price_3"":""130""}","rating","tdc","attraction_2","2","microwave ovens","null","null","null","null","null","null","1","50","60","40","60","50","60","Warranty","Cooking power","",""
"","","","","","rating_trial_setup","html-keyboard-response","71","1150390","0.0-3.0-0.34","108","1","2025-04-11 14:50:27","bb671e3ae32f654b8954ea4c4635f915","","Mozilla/5.0 (Windows NT 10.0; Win64; x64) AppleWebKit/537.36 (KHTML, like Gecko) Chrome/130.0.0.0 Safari/537.36","WebKit","Chrome","130.0.0.0","Windows","10.0","https://hz8g1ckzuq.cognition.run/","en-US,en;q=0.9","6jbb7t6gtfvfth3","48","[""White""]","No","Male","1693708.1000000238","null","","<p></p>","null","rating","dct","repulsion_1","2","microwave ovens","null","null","null","null","null","null","2","","","","","","","","","",""
"","","","","","rating_trial","survey-html-form","72","1172718","0.0-3.0-1.34","108","1","2025-04-11 14:50:27","bb671e3ae32f654b8954ea4c4635f915","","Mozilla/5.0 (Windows NT 10.0; Win64; x64) AppleWebKit/537.36 (KHTML, like Gecko) Chrome/130.0.0.0 Safari/537.36","WebKit","Chrome","130.0.0.0","Windows","10.0","https://hz8g1ckzuq.cognition.run/","en-US,en;q=0.9","6jbb7t6gtfvfth3","48","[""White""]","No","Male","1693708.1000000238","22316","","","{""price_1"":""120"",""price_2"":""150"",""price_3"":""140""}","rating","dct","repulsion_1","2","microwave ovens","null","null","null","null","null","null","2","30","40","25","100","90","100","Warranty","Cooking power","",""
"","","","","","rating_trial_setup","html-keyboard-response","73","1173023","0.0-3.0-0.35","108","1","2025-04-11 14:50:27","bb671e3ae32f654b8954ea4c4635f915","","Mozilla/5.0 (Windows NT 10.0; Win64; x64) AppleWebKit/537.36 (KHTML, like Gecko) Chrome/130.0.0.0 Safari/537.36","WebKit","Chrome","130.0.0.0","Windows","10.0","https://hz8g1ckzuq.cognition.run/","en-US,en;q=0.9","6jbb7t6gtfvfth3","48","[""White""]","No","Male","1693708.1000000238","null","","<p></p>","null","rating","dtc","attraction_2","2","washing machines","null","null","null","null","null","null","1","","","","","","","","","",""
"","","","","","rating_trial","survey-html-form","74","1187155","0.0-3.0-1.35","108","1","2025-04-11 14:50:27","bb671e3ae32f654b8954ea4c4635f915","","Mozilla/5.0 (Windows NT 10.0; Win64; x64) AppleWebKit/537.36 (KHTML, like Gecko) Chrome/130.0.0.0 Safari/537.36","WebKit","Chrome","130.0.0.0","Windows","10.0","https://hz8g1ckzuq.cognition.run/","en-US,en;q=0.9","6jbb7t6gtfvfth3","48","[""White""]","No","Male","1693708.1000000238","14120","","","{""price_1"":""500"",""price_2"":""600"",""price_3"":""550""}","rating","dtc","attraction_2","2","washing machines","null","null","null","null","null","null","1","50","60","40","60","50","60","Average lifespan","Energy savings","",""
"","","","","","rating_trial_setup","html-keyboard-response","75","1187460","0.0-3.0-0.36","108","1","2025-04-11 14:50:27","bb671e3ae32f654b8954ea4c4635f915","","Mozilla/5.0 (Windows NT 10.0; Win64; x64) AppleWebKit/537.36 (KHTML, like Gecko) Chrome/130.0.0.0 Safari/537.36","WebKit","Chrome","130.0.0.0","Windows","10.0","https://hz8g1ckzuq.cognition.run/","en-US,en;q=0.9","6jbb7t6gtfvfth3","48","[""White""]","No","Male","1693708.1000000238","null","","<p></p>","null","rating","wwb","catch","null","televisions","80","85","30","15","40","40","1","","","","","","","","","",""
"","","","","","rating_trial","survey-html-form","76","1214011","0.0-3.0-1.36","108","1","2025-04-11 14:50:27","bb671e3ae32f654b8954ea4c4635f915","","Mozilla/5.0 (Windows NT 10.0; Win64; x64) AppleWebKit/537.36 (KHTML, like Gecko) Chrome/130.0.0.0 Safari/537.36","WebKit","Chrome","130.0.0.0","Windows","10.0","https://hz8g1ckzuq.cognition.run/","en-US,en;q=0.9","6jbb7t6gtfvfth3","48","[""White""]","No","Male","1693708.1000000238","26538","","","{""price_1"":""110"",""price_2"":""200"",""price_3"":""450""}","rating","wwb","catch","null","televisions","80","85","30","15","40","40","1","null","null","null","null","null","null","Screen size","Average lifespan","",""
"","","","","","rating_trial_setup","html-keyboard-response","77","1214319","0.0-3.0-0.37","108","1","2025-04-11 14:50:27","bb671e3ae32f654b8954ea4c4635f915","","Mozilla/5.0 (Windows NT 10.0; Win64; x64) AppleWebKit/537.36 (KHTML, like Gecko) Chrome/130.0.0.0 Safari/537.36","WebKit","Chrome","130.0.0.0","Windows","10.0","https://hz8g1ckzuq.cognition.run/","en-US,en;q=0.9","6jbb7t6gtfvfth3","48","[""White""]","No","Male","1693708.1000000238","null","","<p></p>","null","rating","cdt","attraction_2","1","microwave ovens","null","null","null","null","null","null","2","","","","","","","","","",""
"","","","","","rating_trial","survey-html-form","78","1234282","0.0-3.0-1.37","108","1","2025-04-11 14:50:27","bb671e3ae32f654b8954ea4c4635f915","","Mozilla/5.0 (Windows NT 10.0; Win64; x64) AppleWebKit/537.36 (KHTML, like Gecko) Chrome/130.0.0.0 Safari/537.36","WebKit","Chrome","130.0.0.0","Windows","10.0","https://hz8g1ckzuq.cognition.run/","en-US,en;q=0.9","6jbb7t6gtfvfth3","48","[""White""]","No","Male","1693708.1000000238","19952","","","{""price_1"":""150"",""price_2"":""120"",""price_3"":""130""}","rating","cdt","attraction_2","1","microwave ovens","null","null","null","null","null","null","2","60","50","60","50","60","40","Warranty","Cooking power","",""
"","","","","","rating_trial_setup","html-keyboard-response","79","1234587","0.0-3.0-0.38","108","1","2025-04-11 14:50:27","bb671e3ae32f654b8954ea4c4635f915","","Mozilla/5.0 (Windows NT 10.0; Win64; x64) AppleWebKit/537.36 (KHTML, like Gecko) Chrome/130.0.0.0 Safari/537.36","WebKit","Chrome","130.0.0.0","Windows","10.0","https://hz8g1ckzuq.cognition.run/","en-US,en;q=0.9","6jbb7t6gtfvfth3","48","[""White""]","No","Male","1693708.1000000238","null","","<p></p>","null","rating","ctd","attraction_1","1","microwave ovens","null","null","null","null","null","null","2","","","","","","","","","",""
"","","","","","rating_trial","survey-html-form","80","1253482","0.0-3.0-1.38","108","1","2025-04-11 14:50:27","bb671e3ae32f654b8954ea4c4635f915","","Mozilla/5.0 (Windows NT 10.0; Win64; x64) AppleWebKit/537.36 (KHTML, like Gecko) Chrome/130.0.0.0 Safari/537.36","WebKit","Chrome","130.0.0.0","Windows","10.0","https://hz8g1ckzuq.cognition.run/","en-US,en;q=0.9","6jbb7t6gtfvfth3","48","[""White""]","No","Male","1693708.1000000238","18882","","","{""price_1"":""180"",""price_2"":""150"",""price_3"":""120""}","rating","ctd","attraction_1","1","microwave ovens","null","null","null","null","null","null","2","60","50","60","50","60","45","Warranty","Cooking power","",""
"","","","","","rating_trial_setup","html-keyboard-response","81","1253787","0.0-3.0-0.39","108","1","2025-04-11 14:50:27","bb671e3ae32f654b8954ea4c4635f915","","Mozilla/5.0 (Windows NT 10.0; Win64; x64) AppleWebKit/537.36 (KHTML, like Gecko) Chrome/130.0.0.0 Safari/537.36","WebKit","Chrome","130.0.0.0","Windows","10.0","https://hz8g1ckzuq.cognition.run/","en-US,en;q=0.9","6jbb7t6gtfvfth3","48","[""White""]","No","Male","1693708.1000000238","null","","<p></p>","null","rating","wwb","catch","null","washing machines","80","50","40","50","20","25","1","","","","","","","","","",""
"","","","","","rating_trial","survey-html-form","82","1273368","0.0-3.0-1.39","108","1","2025-04-11 14:50:27","bb671e3ae32f654b8954ea4c4635f915","","Mozilla/5.0 (Windows NT 10.0; Win64; x64) AppleWebKit/537.36 (KHTML, like Gecko) Chrome/130.0.0.0 Safari/537.36","WebKit","Chrome","130.0.0.0","Windows","10.0","https://hz8g1ckzuq.cognition.run/","en-US,en;q=0.9","6jbb7t6gtfvfth3","48","[""White""]","No","Male","1693708.1000000238","19567","","","{""price_1"":""500"",""price_2"":""200"",""price_3"":""600""}","rating","wwb","catch","null","washing machines","80","50","40","50","20","25","1","null","null","null","null","null","null","Average lifespan","Energy savings","",""
"","","","","","","instructions","83","1296650","0.0-4.0","108","1","2025-04-11 14:50:27","bb671e3ae32f654b8954ea4c4635f915","","Mozilla/5.0 (Windows NT 10.0; Win64; x64) AppleWebKit/537.36 (KHTML, like Gecko) Chrome/130.0.0.0 Safari/537.36","WebKit","Chrome","130.0.0.0","Windows","10.0","https://hz8g1ckzuq.cognition.run/","en-US,en;q=0.9","6jbb7t6gtfvfth3","48","[""White""]","No","Male","1693708.1000000238","23278","[{""page_index"":0,""viewing_time"":2040},{""page_index"":1,""viewing_time"":1024},{""page_index"":2,""viewing_time"":3846},{""page_index"":3,""viewing_time"":2277},{""page_index"":4,""viewing_time"":2100},{""page_index"":5,""viewing_time"":3129},{""page_index"":6,""viewing_time"":5354},{""page_index"":7,""viewing_time"":3507}]","","","","","","","","","","","","","","","","","","","","","","","",""
"","","","","","choice_trial_setup","html-keyboard-response","84","1296958","0.0-5.0-0.0","108","1","2025-04-11 14:50:27","bb671e3ae32f654b8954ea4c4635f915","","Mozilla/5.0 (Windows NT 10.0; Win64; x64) AppleWebKit/537.36 (KHTML, like Gecko) Chrome/130.0.0.0 Safari/537.36","WebKit","Chrome","130.0.0.0","Windows","10.0","https://hz8g1ckzuq.cognition.run/","en-US,en;q=0.9","6jbb7t6gtfvfth3","48","[""White""]","No","Male","1693708.1000000238","null","","<p></p>","null","choice","cdt","repulsion_1","1","televisions","null","null","null","null","null","null","1","","","","","","","","","",""
"","","","","","choice_trial","survey-html-form","85","1300848","0.0-5.0-1.0","108","1","2025-04-11 14:50:27","bb671e3ae32f654b8954ea4c4635f915","","Mozilla/5.0 (Windows NT 10.0; Win64; x64) AppleWebKit/537.36 (KHTML, like Gecko) Chrome/130.0.0.0 Safari/537.36","WebKit","Chrome","130.0.0.0","Windows","10.0","https://hz8g1ckzuq.cognition.run/","en-US,en;q=0.9","6jbb7t6gtfvfth3","48","[""White""]","No","Male","1693708.1000000238","3875","","","{""product_choice"":""A""}","choice","cdt","repulsion_1","1","televisions","null","null","null","null","null","null","1","100","90","100","30","40","25","Screen size","Average lifespan","",""
"","","","","","choice_trial_setup","html-keyboard-response","86","1301153","0.0-5.0-0.1","108","1","2025-04-11 14:50:27","bb671e3ae32f654b8954ea4c4635f915","","Mozilla/5.0 (Windows NT 10.0; Win64; x64) AppleWebKit/537.36 (KHTML, like Gecko) Chrome/130.0.0.0 Safari/537.36","WebKit","Chrome","130.0.0.0","Windows","10.0","https://hz8g1ckzuq.cognition.run/","en-US,en;q=0.9","6jbb7t6gtfvfth3","48","[""White""]","No","Male","1693708.1000000238","null","","<p></p>","null","choice","tcd","repulsion_1","2","washing machines","null","null","null","null","null","null","1","","","","","","","","","",""
"","","","","","choice_trial","survey-html-form","87","1306915","0.0-5.0-1.1","108","1","2025-04-11 14:50:27","bb671e3ae32f654b8954ea4c4635f915","","Mozilla/5.0 (Windows NT 10.0; Win64; x64) AppleWebKit/537.36 (KHTML, like Gecko) Chrome/130.0.0.0 Safari/537.36","WebKit","Chrome","130.0.0.0","Windows","10.0","https://hz8g1ckzuq.cognition.run/","en-US,en;q=0.9","6jbb7t6gtfvfth3","48","[""White""]","No","Male","1693708.1000000238","5750","","","{""product_choice"":""B""}","choice","tcd","repulsion_1","2","washing machines","null","null","null","null","null","null","1","30","40","25","100","90","100","Average lifespan","Energy savings","",""
"","","","","","choice_trial_setup","html-keyboard-response","88","1307221","0.0-5.0-0.2","108","1","2025-04-11 14:50:27","bb671e3ae32f654b8954ea4c4635f915","","Mozilla/5.0 (Windows NT 10.0; Win64; x64) AppleWebKit/537.36 (KHTML, like Gecko) Chrome/130.0.0.0 Safari/537.36","WebKit","Chrome","130.0.0.0","Windows","10.0","https://hz8g1ckzuq.cognition.run/","en-US,en;q=0.9","6jbb7t6gtfvfth3","48","[""White""]","No","Male","1693708.1000000238","null","","<p></p>","null","choice","dtc","repulsion_1","1","washing machines","null","null","null","null","null","null","2","","","","","","","","","",""
"","","","","","choice_trial","survey-html-form","89","1311303","0.0-5.0-1.2","108","1","2025-04-11 14:50:27","bb671e3ae32f654b8954ea4c4635f915","","Mozilla/5.0 (Windows NT 10.0; Win64; x64) AppleWebKit/537.36 (KHTML, like Gecko) Chrome/130.0.0.0 Safari/537.36","WebKit","Chrome","130.0.0.0","Windows","10.0","https://hz8g1ckzuq.cognition.run/","en-US,en;q=0.9","6jbb7t6gtfvfth3","48","[""White""]","No","Male","1693708.1000000238","4070","","","{""product_choice"":""C""}","choice","dtc","repulsion_1","1","washing machines","null","null","null","null","null","null","2","100","90","100","30","40","25","Average lifespan","Energy savings","",""
"","","","","","choice_trial_setup","html-keyboard-response","90","1311610","0.0-5.0-0.3","108","1","2025-04-11 14:50:27","bb671e3ae32f654b8954ea4c4635f915","","Mozilla/5.0 (Windows NT 10.0; Win64; x64) AppleWebKit/537.36 (KHTML, like Gecko) Chrome/130.0.0.0 Safari/537.36","WebKit","Chrome","130.0.0.0","Windows","10.0","https://hz8g1ckzuq.cognition.run/","en-US,en;q=0.9","6jbb7t6gtfvfth3","48","[""White""]","No","Male","1693708.1000000238","null","","<p></p>","null","choice","dtc","attraction_1","1","laptops","null","null","null","null","null","null","1","","","","","","","","","",""
"","","","","","choice_trial","survey-html-form","91","1318304","0.0-5.0-1.3","108","1","2025-04-11 14:50:27","bb671e3ae32f654b8954ea4c4635f915","","Mozilla/5.0 (Windows NT 10.0; Win64; x64) AppleWebKit/537.36 (KHTML, like Gecko) Chrome/130.0.0.0 Safari/537.36","WebKit","Chrome","130.0.0.0","Windows","10.0","https://hz8g1ckzuq.cognition.run/","en-US,en;q=0.9","6jbb7t6gtfvfth3","48","[""White""]","No","Male","1693708.1000000238","6677","","","{""product_choice"":""B""}","choice","dtc","attraction_1","1","laptops","null","null","null","null","null","null","1","60","50","60","50","60","45","Processing speed","Memory (RAM)","",""
"","","","","","choice_trial_setup","html-keyboard-response","92","1318611","0.0-5.0-0.4","108","1","2025-04-11 14:50:27","bb671e3ae32f654b8954ea4c4635f915","","Mozilla/5.0 (Windows NT 10.0; Win64; x64) AppleWebKit/537.36 (KHTML, like Gecko) Chrome/130.0.0.0 Safari/537.36","WebKit","Chrome","130.0.0.0","Windows","10.0","https://hz8g1ckzuq.cognition.run/","en-US,en;q=0.9","6jbb7t6gtfvfth3","48","[""White""]","No","Male","1693708.1000000238","null","","<p></p>","null","choice","tcd","repulsion_1","1","microwave ovens","null","null","null","null","null","null","2","","","","","","","","","",""
"","","","","","choice_trial","survey-html-form","93","1326990","0.0-5.0-1.4","108","1","2025-04-11 14:50:27","bb671e3ae32f654b8954ea4c4635f915","","Mozilla/5.0 (Windows NT 10.0; Win64; x64) AppleWebKit/537.36 (KHTML, like Gecko) Chrome/130.0.0.0 Safari/537.36","WebKit","Chrome","130.0.0.0","Windows","10.0","https://hz8g1ckzuq.cognition.run/","en-US,en;q=0.9","6jbb7t6gtfvfth3","48","[""White""]","No","Male","1693708.1000000238","8365","","","{""product_choice"":""B""}","choice","tcd","repulsion_1","1","microwave ovens","null","null","null","null","null","null","2","100","90","100","30","40","25","Warranty","Cooking power","",""
"","","","","","choice_trial_setup","html-keyboard-response","94","1327296","0.0-5.0-0.5","108","1","2025-04-11 14:50:27","bb671e3ae32f654b8954ea4c4635f915","","Mozilla/5.0 (Windows NT 10.0; Win64; x64) AppleWebKit/537.36 (KHTML, like Gecko) Chrome/130.0.0.0 Safari/537.36","WebKit","Chrome","130.0.0.0","Windows","10.0","https://hz8g1ckzuq.cognition.run/","en-US,en;q=0.9","6jbb7t6gtfvfth3","48","[""White""]","No","Male","1693708.1000000238","null","","<p></p>","null","choice","wbw","catch","null","laptops","90","95","45","15","10","20","2","","","","","","","","","",""
"","","","","","choice_trial","survey-html-form","95","1330221","0.0-5.0-1.5","108","1","2025-04-11 14:50:27","bb671e3ae32f654b8954ea4c4635f915","","Mozilla/5.0 (Windows NT 10.0; Win64; x64) AppleWebKit/537.36 (KHTML, like Gecko) Chrome/130.0.0.0 Safari/537.36","WebKit","Chrome","130.0.0.0","Windows","10.0","https://hz8g1ckzuq.cognition.run/","en-US,en;q=0.9","6jbb7t6gtfvfth3","48","[""White""]","No","Male","1693708.1000000238","2903","","","{""product_choice"":""B""}","choice","wbw","catch","null","laptops","90","95","45","15","10","20","2","null","null","null","null","null","null","Processing speed","Memory (RAM)","",""
"","","","","","choice_trial_setup","html-keyboard-response","96","1330528","0.0-5.0-0.6","108","1","2025-04-11 14:50:27","bb671e3ae32f654b8954ea4c4635f915","","Mozilla/5.0 (Windows NT 10.0; Win64; x64) AppleWebKit/537.36 (KHTML, like Gecko) Chrome/130.0.0.0 Safari/537.36","WebKit","Chrome","130.0.0.0","Windows","10.0","https://hz8g1ckzuq.cognition.run/","en-US,en;q=0.9","6jbb7t6gtfvfth3","48","[""White""]","No","Male","1693708.1000000238","null","","<p></p>","null","choice","dct","repulsion_2","1","microwave ovens","null","null","null","null","null","null","2","","","","","","","","","",""
"","","","","","choice_trial","survey-html-form","97","1335044","0.0-5.0-1.6","108","1","2025-04-11 14:50:27","bb671e3ae32f654b8954ea4c4635f915","","Mozilla/5.0 (Windows NT 10.0; Win64; x64) AppleWebKit/537.36 (KHTML, like Gecko) Chrome/130.0.0.0 Safari/537.36","WebKit","Chrome","130.0.0.0","Windows","10.0","https://hz8g1ckzuq.cognition.run/","en-US,en;q=0.9","6jbb7t6gtfvfth3","48","[""White""]","No","Male","1693708.1000000238","4504","","","{""product_choice"":""B""}","choice","dct","repulsion_2","1","microwave ovens","null","null","null","null","null","null","2","100","90","100","30","40","20","Warranty","Cooking power","",""
"","","","","","choice_trial_setup","html-keyboard-response","98","1335349","0.0-5.0-0.7","108","1","2025-04-11 14:50:27","bb671e3ae32f654b8954ea4c4635f915","","Mozilla/5.0 (Windows NT 10.0; Win64; x64) AppleWebKit/537.36 (KHTML, like Gecko) Chrome/130.0.0.0 Safari/537.36","WebKit","Chrome","130.0.0.0","Windows","10.0","https://hz8g1ckzuq.cognition.run/","en-US,en;q=0.9","6jbb7t6gtfvfth3","48","[""White""]","No","Male","1693708.1000000238","null","","<p></p>","null","choice","dct","repulsion_2","1","televisions","null","null","null","null","null","null","1","","","","","","","","","",""
"","","","","","choice_trial","survey-html-form","99","1338497","0.0-5.0-1.7","108","1","2025-04-11 14:50:27","bb671e3ae32f654b8954ea4c4635f915","","Mozilla/5.0 (Windows NT 10.0; Win64; x64) AppleWebKit/537.36 (KHTML, like Gecko) Chrome/130.0.0.0 Safari/537.36","WebKit","Chrome","130.0.0.0","Windows","10.0","https://hz8g1ckzuq.cognition.run/","en-US,en;q=0.9","6jbb7t6gtfvfth3","48","[""White""]","No","Male","1693708.1000000238","3140","","","{""product_choice"":""B""}","choice","dct","repulsion_2","1","televisions","null","null","null","null","null","null","1","100","90","100","30","40","20","Screen size","Average lifespan","",""
"","","","","","choice_trial_setup","html-keyboard-response","100","1338802","0.0-5.0-0.8","108","1","2025-04-11 14:50:27","bb671e3ae32f654b8954ea4c4635f915","","Mozilla/5.0 (Windows NT 10.0; Win64; x64) AppleWebKit/537.36 (KHTML, like Gecko) Chrome/130.0.0.0 Safari/537.36","WebKit","Chrome","130.0.0.0","Windows","10.0","https://hz8g1ckzuq.cognition.run/","en-US,en;q=0.9","6jbb7t6gtfvfth3","48","[""White""]","No","Male","1693708.1000000238","null","","<p></p>","null","choice","dct","attraction_1","1","washing machines","null","null","null","null","null","null","1","","","","","","","","","",""
"","","","","","choice_trial","survey-html-form","101","1342997","0.0-5.0-1.8","108","1","2025-04-11 14:50:27","bb671e3ae32f654b8954ea4c4635f915","","Mozilla/5.0 (Windows NT 10.0; Win64; x64) AppleWebKit/537.36 (KHTML, like Gecko) Chrome/130.0.0.0 Safari/537.36","WebKit","Chrome","130.0.0.0","Windows","10.0","https://hz8g1ckzuq.cognition.run/","en-US,en;q=0.9","6jbb7t6gtfvfth3","48","[""White""]","No","Male","1693708.1000000238","4182","","","{""product_choice"":""B""}","choice","dct","attraction_1","1","washing machines","null","null","null","null","null","null","1","60","50","60","50","60","45","Average lifespan","Energy savings","",""
"","","","","","choice_trial_setup","html-keyboard-response","102","1343305","0.0-5.0-0.9","108","1","2025-04-11 14:50:27","bb671e3ae32f654b8954ea4c4635f915","","Mozilla/5.0 (Windows NT 10.0; Win64; x64) AppleWebKit/537.36 (KHTML, like Gecko) Chrome/130.0.0.0 Safari/537.36","WebKit","Chrome","130.0.0.0","Windows","10.0","https://hz8g1ckzuq.cognition.run/","en-US,en;q=0.9","6jbb7t6gtfvfth3","48","[""White""]","No","Male","1693708.1000000238","null","","<p></p>","null","choice","cdt","repulsion_1","2","microwave ovens","null","null","null","null","null","null","1","","","","","","","","","",""
"","","","","","choice_trial","survey-html-form","103","1347681","0.0-5.0-1.9","108","1","2025-04-11 14:50:27","bb671e3ae32f654b8954ea4c4635f915","","Mozilla/5.0 (Windows NT 10.0; Win64; x64) AppleWebKit/537.36 (KHTML, like Gecko) Chrome/130.0.0.0 Safari/537.36","WebKit","Chrome","130.0.0.0","Windows","10.0","https://hz8g1ckzuq.cognition.run/","en-US,en;q=0.9","6jbb7t6gtfvfth3","48","[""White""]","No","Male","1693708.1000000238","4363","","","{""product_choice"":""A""}","choice","cdt","repulsion_1","2","microwave ovens","null","null","null","null","null","null","1","30","40","25","100","90","100","Warranty","Cooking power","",""
"","","","","","choice_trial_setup","html-keyboard-response","104","1347986","0.0-5.0-0.10","108","1","2025-04-11 14:50:27","bb671e3ae32f654b8954ea4c4635f915","","Mozilla/5.0 (Windows NT 10.0; Win64; x64) AppleWebKit/537.36 (KHTML, like Gecko) Chrome/130.0.0.0 Safari/537.36","WebKit","Chrome","130.0.0.0","Windows","10.0","https://hz8g1ckzuq.cognition.run/","en-US,en;q=0.9","6jbb7t6gtfvfth3","48","[""White""]","No","Male","1693708.1000000238","null","","<p></p>","null","choice","dtc","attraction_1","1","televisions","null","null","null","null","null","null","1","","","","","","","","","",""
"","","","","","choice_trial","survey-html-form","105","1353236","0.0-5.0-1.10","108","1","2025-04-11 14:50:27","bb671e3ae32f654b8954ea4c4635f915","","Mozilla/5.0 (Windows NT 10.0; Win64; x64) AppleWebKit/537.36 (KHTML, like Gecko) Chrome/130.0.0.0 Safari/537.36","WebKit","Chrome","130.0.0.0","Windows","10.0","https://hz8g1ckzuq.cognition.run/","en-US,en;q=0.9","6jbb7t6gtfvfth3","48","[""White""]","No","Male","1693708.1000000238","5235","","","{""product_choice"":""C""}","choice","dtc","attraction_1","1","televisions","null","null","null","null","null","null","1","60","50","60","50","60","45","Screen size","Average lifespan","",""
"","","","","","choice_trial_setup","html-keyboard-response","106","1353542","0.0-5.0-0.11","108","1","2025-04-11 14:50:27","bb671e3ae32f654b8954ea4c4635f915","","Mozilla/5.0 (Windows NT 10.0; Win64; x64) AppleWebKit/537.36 (KHTML, like Gecko) Chrome/130.0.0.0 Safari/537.36","WebKit","Chrome","130.0.0.0","Windows","10.0","https://hz8g1ckzuq.cognition.run/","en-US,en;q=0.9","6jbb7t6gtfvfth3","48","[""White""]","No","Male","1693708.1000000238","null","","<p></p>","null","choice","ctd","attraction_1","2","televisions","null","null","null","null","null","null","2","","","","","","","","","",""
"","","","","","choice_trial","survey-html-form","107","1360180","0.0-5.0-1.11","108","1","2025-04-11 14:50:27","bb671e3ae32f654b8954ea4c4635f915","","Mozilla/5.0 (Windows NT 10.0; Win64; x64) AppleWebKit/537.36 (KHTML, like Gecko) Chrome/130.0.0.0 Safari/537.36","WebKit","Chrome","130.0.0.0","Windows","10.0","https://hz8g1ckzuq.cognition.run/","en-US,en;q=0.9","6jbb7t6gtfvfth3","48","[""White""]","No","Male","1693708.1000000238","6625","","","{""product_choice"":""B""}","choice","ctd","attraction_1","2","televisions","null","null","null","null","null","null","2","50","60","45","60","50","60","Screen size","Average lifespan","",""
"","","","","","choice_trial_setup","html-keyboard-response","108","1360487","0.0-5.0-0.12","108","1","2025-04-11 14:50:27","bb671e3ae32f654b8954ea4c4635f915","","Mozilla/5.0 (Windows NT 10.0; Win64; x64) AppleWebKit/537.36 (KHTML, like Gecko) Chrome/130.0.0.0 Safari/537.36","WebKit","Chrome","130.0.0.0","Windows","10.0","https://hz8g1ckzuq.cognition.run/","en-US,en;q=0.9","6jbb7t6gtfvfth3","48","[""White""]","No","Male","1693708.1000000238","null","","<p></p>","null","choice","cdt","attraction_1","2","washing machines","null","null","null","null","null","null","1","","","","","","","","","",""
"","","","","","choice_trial","survey-html-form","109","1364730","0.0-5.0-1.12","108","1","2025-04-11 14:50:27","bb671e3ae32f654b8954ea4c4635f915","","Mozilla/5.0 (Windows NT 10.0; Win64; x64) AppleWebKit/537.36 (KHTML, like Gecko) Chrome/130.0.0.0 Safari/537.36","WebKit","Chrome","130.0.0.0","Windows","10.0","https://hz8g1ckzuq.cognition.run/","en-US,en;q=0.9","6jbb7t6gtfvfth3","48","[""White""]","No","Male","1693708.1000000238","4230","","","{""product_choice"":""C""}","choice","cdt","attraction_1","2","washing machines","null","null","null","null","null","null","1","50","60","45","60","50","60","Average lifespan","Energy savings","",""
"","","","","","choice_trial_setup","html-keyboard-response","110","1365037","0.0-5.0-0.13","108","1","2025-04-11 14:50:27","bb671e3ae32f654b8954ea4c4635f915","","Mozilla/5.0 (Windows NT 10.0; Win64; x64) AppleWebKit/537.36 (KHTML, like Gecko) Chrome/130.0.0.0 Safari/537.36","WebKit","Chrome","130.0.0.0","Windows","10.0","https://hz8g1ckzuq.cognition.run/","en-US,en;q=0.9","6jbb7t6gtfvfth3","48","[""White""]","No","Male","1693708.1000000238","null","","<p></p>","null","choice","bww","catch","null","laptops","70","80","50","15","45","5","1","","","","","","","","","",""
"","","","","","choice_trial","survey-html-form","111","1367980","0.0-5.0-1.13","108","1","2025-04-11 14:50:27","bb671e3ae32f654b8954ea4c4635f915","","Mozilla/5.0 (Windows NT 10.0; Win64; x64) AppleWebKit/537.36 (KHTML, like Gecko) Chrome/130.0.0.0 Safari/537.36","WebKit","Chrome","130.0.0.0","Windows","10.0","https://hz8g1ckzuq.cognition.run/","en-US,en;q=0.9","6jbb7t6gtfvfth3","48","[""White""]","No","Male","1693708.1000000238","2927","","","{""product_choice"":""A""}","choice","bww","catch","null","laptops","70","80","50","15","45","5","1","null","null","null","null","null","null","Processing speed","Memory (RAM)","",""
"","","","","","choice_trial_setup","html-keyboard-response","112","1368286","0.0-5.0-0.14","108","1","2025-04-11 14:50:27","bb671e3ae32f654b8954ea4c4635f915","","Mozilla/5.0 (Windows NT 10.0; Win64; x64) AppleWebKit/537.36 (KHTML, like Gecko) Chrome/130.0.0.0 Safari/537.36","WebKit","Chrome","130.0.0.0","Windows","10.0","https://hz8g1ckzuq.cognition.run/","en-US,en;q=0.9","6jbb7t6gtfvfth3","48","[""White""]","No","Male","1693708.1000000238","null","","<p></p>","null","choice","wwb","catch","null","microwave ovens","95","65","50","25","5","10","2","","","","","","","","","",""
"","","","","","choice_trial","survey-html-form","113","1372638","0.0-5.0-1.14","108","1","2025-04-11 14:50:27","bb671e3ae32f654b8954ea4c4635f915","","Mozilla/5.0 (Windows NT 10.0; Win64; x64) AppleWebKit/537.36 (KHTML, like Gecko) Chrome/130.0.0.0 Safari/537.36","WebKit","Chrome","130.0.0.0","Windows","10.0","https://hz8g1ckzuq.cognition.run/","en-US,en;q=0.9","6jbb7t6gtfvfth3","48","[""White""]","No","Male","1693708.1000000238","4334","","","{""product_choice"":""C""}","choice","wwb","catch","null","microwave ovens","95","65","50","25","5","10","2","null","null","null","null","null","null","Warranty","Cooking power","",""
"","","","","","choice_trial_setup","html-keyboard-response","114","1372944","0.0-5.0-0.15","108","1","2025-04-11 14:50:27","bb671e3ae32f654b8954ea4c4635f915","","Mozilla/5.0 (Windows NT 10.0; Win64; x64) AppleWebKit/537.36 (KHTML, like Gecko) Chrome/130.0.0.0 Safari/537.36","WebKit","Chrome","130.0.0.0","Windows","10.0","https://hz8g1ckzuq.cognition.run/","en-US,en;q=0.9","6jbb7t6gtfvfth3","48","[""White""]","No","Male","1693708.1000000238","null","","<p></p>","null","choice","dct","repulsion_2","2","microwave ovens","null","null","null","null","null","null","2","","","","","","","","","",""
"","","","","","choice_trial","survey-html-form","115","1375761","0.0-5.0-1.15","108","1","2025-04-11 14:50:27","bb671e3ae32f654b8954ea4c4635f915","","Mozilla/5.0 (Windows NT 10.0; Win64; x64) AppleWebKit/537.36 (KHTML, like Gecko) Chrome/130.0.0.0 Safari/537.36","WebKit","Chrome","130.0.0.0","Windows","10.0","https://hz8g1ckzuq.cognition.run/","en-US,en;q=0.9","6jbb7t6gtfvfth3","48","[""White""]","No","Male","1693708.1000000238","2802","","","{""product_choice"":""B""}","choice","dct","repulsion_2","2","microwave ovens","null","null","null","null","null","null","2","30","40","20","100","90","100","Warranty","Cooking power","",""
"","","","","","choice_trial_setup","html-keyboard-response","116","1376067","0.0-5.0-0.16","108","1","2025-04-11 14:50:27","bb671e3ae32f654b8954ea4c4635f915","","Mozilla/5.0 (Windows NT 10.0; Win64; x64) AppleWebKit/537.36 (KHTML, like Gecko) Chrome/130.0.0.0 Safari/537.36","WebKit","Chrome","130.0.0.0","Windows","10.0","https://hz8g1ckzuq.cognition.run/","en-US,en;q=0.9","6jbb7t6gtfvfth3","48","[""White""]","No","Male","1693708.1000000238","null","","<p></p>","null","choice","dct","attraction_2","2","televisions","null","null","null","null","null","null","1","","","","","","","","","",""
"","","","","","choice_trial","survey-html-form","117","1380277","0.0-5.0-1.16","108","1","2025-04-11 14:50:27","bb671e3ae32f654b8954ea4c4635f915","","Mozilla/5.0 (Windows NT 10.0; Win64; x64) AppleWebKit/537.36 (KHTML, like Gecko) Chrome/130.0.0.0 Safari/537.36","WebKit","Chrome","130.0.0.0","Windows","10.0","https://hz8g1ckzuq.cognition.run/","en-US,en;q=0.9","6jbb7t6gtfvfth3","48","[""White""]","No","Male","1693708.1000000238","4197","","","{""product_choice"":""C""}","choice","dct","attraction_2","2","televisions","null","null","null","null","null","null","1","50","60","40","60","50","60","Screen size","Average lifespan","",""
"","","","","","choice_trial_setup","html-keyboard-response","118","1380584","0.0-5.0-0.17","108","1","2025-04-11 14:50:27","bb671e3ae32f654b8954ea4c4635f915","","Mozilla/5.0 (Windows NT 10.0; Win64; x64) AppleWebKit/537.36 (KHTML, like Gecko) Chrome/130.0.0.0 Safari/537.36","WebKit","Chrome","130.0.0.0","Windows","10.0","https://hz8g1ckzuq.cognition.run/","en-US,en;q=0.9","6jbb7t6gtfvfth3","48","[""White""]","No","Male","1693708.1000000238","null","","<p></p>","null","choice","bww","catch","null","televisions","80","70","35","20","50","10","2","","","","","","","","","",""
"","","","","","choice_trial","survey-html-form","119","1383648","0.0-5.0-1.17","108","1","2025-04-11 14:50:27","bb671e3ae32f654b8954ea4c4635f915","","Mozilla/5.0 (Windows NT 10.0; Win64; x64) AppleWebKit/537.36 (KHTML, like Gecko) Chrome/130.0.0.0 Safari/537.36","WebKit","Chrome","130.0.0.0","Windows","10.0","https://hz8g1ckzuq.cognition.run/","en-US,en;q=0.9","6jbb7t6gtfvfth3","48","[""White""]","No","Male","1693708.1000000238","3045","","","{""product_choice"":""A""}","choice","bww","catch","null","televisions","80","70","35","20","50","10","2","null","null","null","null","null","null","Screen size","Average lifespan","",""
"","","","","","choice_trial_setup","html-keyboard-response","120","1383955","0.0-5.0-0.18","108","1","2025-04-11 14:50:27","bb671e3ae32f654b8954ea4c4635f915","","Mozilla/5.0 (Windows NT 10.0; Win64; x64) AppleWebKit/537.36 (KHTML, like Gecko) Chrome/130.0.0.0 Safari/537.36","WebKit","Chrome","130.0.0.0","Windows","10.0","https://hz8g1ckzuq.cognition.run/","en-US,en;q=0.9","6jbb7t6gtfvfth3","48","[""White""]","No","Male","1693708.1000000238","null","","<p></p>","null","choice","tcd","repulsion_1","1","laptops","null","null","null","null","null","null","1","","","","","","","","","",""
"","","","","","choice_trial","survey-html-form","121","1389819","0.0-5.0-1.18","108","1","2025-04-11 14:50:27","bb671e3ae32f654b8954ea4c4635f915","","Mozilla/5.0 (Windows NT 10.0; Win64; x64) AppleWebKit/537.36 (KHTML, like Gecko) Chrome/130.0.0.0 Safari/537.36","WebKit","Chrome","130.0.0.0","Windows","10.0","https://hz8g1ckzuq.cognition.run/","en-US,en;q=0.9","6jbb7t6gtfvfth3","48","[""White""]","No","Male","1693708.1000000238","5854","","","{""product_choice"":""B""}","choice","tcd","repulsion_1","1","laptops","null","null","null","null","null","null","1","100","90","100","30","40","25","Processing speed","Memory (RAM)","",""
"","","","","","choice_trial_setup","html-keyboard-response","122","1390128","0.0-5.0-0.19","108","1","2025-04-11 14:50:27","bb671e3ae32f654b8954ea4c4635f915","","Mozilla/5.0 (Windows NT 10.0; Win64; x64) AppleWebKit/537.36 (KHTML, like Gecko) Chrome/130.0.0.0 Safari/537.36","WebKit","Chrome","130.0.0.0","Windows","10.0","https://hz8g1ckzuq.cognition.run/","en-US,en;q=0.9","6jbb7t6gtfvfth3","48","[""White""]","No","Male","1693708.1000000238","null","","<p></p>","null","choice","dtc","attraction_2","2","microwave ovens","null","null","null","null","null","null","2","","","","","","","","","",""
"","","","","","choice_trial","survey-html-form","123","1396244","0.0-5.0-1.19","108","1","2025-04-11 14:50:27","bb671e3ae32f654b8954ea4c4635f915","","Mozilla/5.0 (Windows NT 10.0; Win64; x64) AppleWebKit/537.36 (KHTML, like Gecko) Chrome/130.0.0.0 Safari/537.36","WebKit","Chrome","130.0.0.0","Windows","10.0","https://hz8g1ckzuq.cognition.run/","en-US,en;q=0.9","6jbb7t6gtfvfth3","48","[""White""]","No","Male","1693708.1000000238","6103","","","{""product_choice"":""B""}","choice","dtc","attraction_2","2","microwave ovens","null","null","null","null","null","null","2","50","60","40","60","50","60","Warranty","Cooking power","",""
"","","","","","choice_trial_setup","html-keyboard-response","124","1396554","0.0-5.0-0.20","108","1","2025-04-11 14:50:27","bb671e3ae32f654b8954ea4c4635f915","","Mozilla/5.0 (Windows NT 10.0; Win64; x64) AppleWebKit/537.36 (KHTML, like Gecko) Chrome/130.0.0.0 Safari/537.36","WebKit","Chrome","130.0.0.0","Windows","10.0","https://hz8g1ckzuq.cognition.run/","en-US,en;q=0.9","6jbb7t6gtfvfth3","48","[""White""]","No","Male","1693708.1000000238","null","","<p></p>","null","choice","ctd","repulsion_2","2","laptops","null","null","null","null","null","null","1","","","","","","","","","",""
"","","","","","choice_trial","survey-html-form","125","1399473","0.0-5.0-1.20","108","1","2025-04-11 14:50:27","bb671e3ae32f654b8954ea4c4635f915","","Mozilla/5.0 (Windows NT 10.0; Win64; x64) AppleWebKit/537.36 (KHTML, like Gecko) Chrome/130.0.0.0 Safari/537.36","WebKit","Chrome","130.0.0.0","Windows","10.0","https://hz8g1ckzuq.cognition.run/","en-US,en;q=0.9","6jbb7t6gtfvfth3","48","[""White""]","No","Male","1693708.1000000238","2905","","","{""product_choice"":""A""}","choice","ctd","repulsion_2","2","laptops","null","null","null","null","null","null","1","30","40","20","100","90","100","Processing speed","Memory (RAM)","",""
"","","","","","choice_trial_setup","html-keyboard-response","126","1399779","0.0-5.0-0.21","108","1","2025-04-11 14:50:27","bb671e3ae32f654b8954ea4c4635f915","","Mozilla/5.0 (Windows NT 10.0; Win64; x64) AppleWebKit/537.36 (KHTML, like Gecko) Chrome/130.0.0.0 Safari/537.36","WebKit","Chrome","130.0.0.0","Windows","10.0","https://hz8g1ckzuq.cognition.run/","en-US,en;q=0.9","6jbb7t6gtfvfth3","48","[""White""]","No","Male","1693708.1000000238","null","","<p></p>","null","choice","dtc","attraction_1","1","microwave ovens","null","null","null","null","null","null","1","","","","","","","","","",""
"","","","","","choice_trial","survey-html-form","127","1404593","0.0-5.0-1.21","108","1","2025-04-11 14:50:27","bb671e3ae32f654b8954ea4c4635f915","","Mozilla/5.0 (Windows NT 10.0; Win64; x64) AppleWebKit/537.36 (KHTML, like Gecko) Chrome/130.0.0.0 Safari/537.36","WebKit","Chrome","130.0.0.0","Windows","10.0","https://hz8g1ckzuq.cognition.run/","en-US,en;q=0.9","6jbb7t6gtfvfth3","48","[""White""]","No","Male","1693708.1000000238","4798","","","{""product_choice"":""C""}","choice","dtc","attraction_1","1","microwave ovens","null","null","null","null","null","null","1","60","50","60","50","60","45","Warranty","Cooking power","",""
"","","","","","choice_trial_setup","html-keyboard-response","128","1404900","0.0-5.0-0.22","108","1","2025-04-11 14:50:27","bb671e3ae32f654b8954ea4c4635f915","","Mozilla/5.0 (Windows NT 10.0; Win64; x64) AppleWebKit/537.36 (KHTML, like Gecko) Chrome/130.0.0.0 Safari/537.36","WebKit","Chrome","130.0.0.0","Windows","10.0","https://hz8g1ckzuq.cognition.run/","en-US,en;q=0.9","6jbb7t6gtfvfth3","48","[""White""]","No","Male","1693708.1000000238","null","","<p></p>","null","choice","tdc","repulsion_2","2","washing machines","null","null","null","null","null","null","2","","","","","","","","","",""
"","","","","","choice_trial","survey-html-form","129","1408049","0.0-5.0-1.22","108","1","2025-04-11 14:50:27","bb671e3ae32f654b8954ea4c4635f915","","Mozilla/5.0 (Windows NT 10.0; Win64; x64) AppleWebKit/537.36 (KHTML, like Gecko) Chrome/130.0.0.0 Safari/537.36","WebKit","Chrome","130.0.0.0","Windows","10.0","https://hz8g1ckzuq.cognition.run/","en-US,en;q=0.9","6jbb7t6gtfvfth3","48","[""White""]","No","Male","1693708.1000000238","3139","","","{""product_choice"":""C""}","choice","tdc","repulsion_2","2","washing machines","null","null","null","null","null","null","2","30","40","20","100","90","100","Average lifespan","Energy savings","",""
"","","","","","choice_trial_setup","html-keyboard-response","130","1408356","0.0-5.0-0.23","108","1","2025-04-11 14:50:27","bb671e3ae32f654b8954ea4c4635f915","","Mozilla/5.0 (Windows NT 10.0; Win64; x64) AppleWebKit/537.36 (KHTML, like Gecko) Chrome/130.0.0.0 Safari/537.36","WebKit","Chrome","130.0.0.0","Windows","10.0","https://hz8g1ckzuq.cognition.run/","en-US,en;q=0.9","6jbb7t6gtfvfth3","48","[""White""]","No","Male","1693708.1000000238","null","","<p></p>","null","choice","bww","catch","null","televisions","90","95","5","20","10","40","2","","","","","","","","","",""
"","","","","","choice_trial","survey-html-form","131","1410464","0.0-5.0-1.23","108","1","2025-04-11 14:50:27","bb671e3ae32f654b8954ea4c4635f915","","Mozilla/5.0 (Windows NT 10.0; Win64; x64) AppleWebKit/537.36 (KHTML, like Gecko) Chrome/130.0.0.0 Safari/537.36","WebKit","Chrome","130.0.0.0","Windows","10.0","https://hz8g1ckzuq.cognition.run/","en-US,en;q=0.9","6jbb7t6gtfvfth3","48","[""White""]","No","Male","1693708.1000000238","2090","","","{""product_choice"":""A""}","choice","bww","catch","null","televisions","90","95","5","20","10","40","2","null","null","null","null","null","null","Screen size","Average lifespan","",""
"","","","","","choice_trial_setup","html-keyboard-response","132","1410772","0.0-5.0-0.24","108","1","2025-04-11 14:50:27","bb671e3ae32f654b8954ea4c4635f915","","Mozilla/5.0 (Windows NT 10.0; Win64; x64) AppleWebKit/537.36 (KHTML, like Gecko) Chrome/130.0.0.0 Safari/537.36","WebKit","Chrome","130.0.0.0","Windows","10.0","https://hz8g1ckzuq.cognition.run/","en-US,en;q=0.9","6jbb7t6gtfvfth3","48","[""White""]","No","Male","1693708.1000000238","null","","<p></p>","null","choice","bww","catch","null","washing machines","75","65","15","50","20","15","1","","","","","","","","","",""
"","","","","","choice_trial","survey-html-form","133","1413249","0.0-5.0-1.24","108","1","2025-04-11 14:50:27","bb671e3ae32f654b8954ea4c4635f915","","Mozilla/5.0 (Windows NT 10.0; Win64; x64) AppleWebKit/537.36 (KHTML, like Gecko) Chrome/130.0.0.0 Safari/537.36","WebKit","Chrome","130.0.0.0","Windows","10.0","https://hz8g1ckzuq.cognition.run/","en-US,en;q=0.9","6jbb7t6gtfvfth3","48","[""White""]","No","Male","1693708.1000000238","2459","","","{""product_choice"":""A""}","choice","bww","catch","null","washing machines","75","65","15","50","20","15","1","null","null","null","null","null","null","Average lifespan","Energy savings","",""
"","","","","","choice_trial_setup","html-keyboard-response","134","1413557","0.0-5.0-0.25","108","1","2025-04-11 14:50:27","bb671e3ae32f654b8954ea4c4635f915","","Mozilla/5.0 (Windows NT 10.0; Win64; x64) AppleWebKit/537.36 (KHTML, like Gecko) Chrome/130.0.0.0 Safari/537.36","WebKit","Chrome","130.0.0.0","Windows","10.0","https://hz8g1ckzuq.cognition.run/","en-US,en;q=0.9","6jbb7t6gtfvfth3","48","[""White""]","No","Male","1693708.1000000238","null","","<p></p>","null","choice","bww","catch","null","microwave ovens","75","80","40","25","15","30","2","","","","","","","","","",""
"","","","","","choice_trial","survey-html-form","135","1416123","0.0-5.0-1.25","108","1","2025-04-11 14:50:27","bb671e3ae32f654b8954ea4c4635f915","","Mozilla/5.0 (Windows NT 10.0; Win64; x64) AppleWebKit/537.36 (KHTML, like Gecko) Chrome/130.0.0.0 Safari/537.36","WebKit","Chrome","130.0.0.0","Windows","10.0","https://hz8g1ckzuq.cognition.run/","en-US,en;q=0.9","6jbb7t6gtfvfth3","48","[""White""]","No","Male","1693708.1000000238","2547","","","{""product_choice"":""A""}","choice","bww","catch","null","microwave ovens","75","80","40","25","15","30","2","null","null","null","null","null","null","Warranty","Cooking power","",""
"","","","","","choice_trial_setup","html-keyboard-response","136","1416434","0.0-5.0-0.26","108","1","2025-04-11 14:50:27","bb671e3ae32f654b8954ea4c4635f915","","Mozilla/5.0 (Windows NT 10.0; Win64; x64) AppleWebKit/537.36 (KHTML, like Gecko) Chrome/130.0.0.0 Safari/537.36","WebKit","Chrome","130.0.0.0","Windows","10.0","https://hz8g1ckzuq.cognition.run/","en-US,en;q=0.9","6jbb7t6gtfvfth3","48","[""White""]","No","Male","1693708.1000000238","null","","<p></p>","null","choice","ctd","attraction_2","1","laptops","null","null","null","null","null","null","2","","","","","","","","","",""
"","","","","","choice_trial","survey-html-form","137","1420933","0.0-5.0-1.26","108","1","2025-04-11 14:50:27","bb671e3ae32f654b8954ea4c4635f915","","Mozilla/5.0 (Windows NT 10.0; Win64; x64) AppleWebKit/537.36 (KHTML, like Gecko) Chrome/130.0.0.0 Safari/537.36","WebKit","Chrome","130.0.0.0","Windows","10.0","https://hz8g1ckzuq.cognition.run/","en-US,en;q=0.9","6jbb7t6gtfvfth3","48","[""White""]","No","Male","1693708.1000000238","4482","","","{""product_choice"":""B""}","choice","ctd","attraction_2","1","laptops","null","null","null","null","null","null","2","60","50","60","50","60","40","Processing speed","Memory (RAM)","",""
"","","","","","choice_trial_setup","html-keyboard-response","138","1421240","0.0-5.0-0.27","108","1","2025-04-11 14:50:27","bb671e3ae32f654b8954ea4c4635f915","","Mozilla/5.0 (Windows NT 10.0; Win64; x64) AppleWebKit/537.36 (KHTML, like Gecko) Chrome/130.0.0.0 Safari/537.36","WebKit","Chrome","130.0.0.0","Windows","10.0","https://hz8g1ckzuq.cognition.run/","en-US,en;q=0.9","6jbb7t6gtfvfth3","48","[""White""]","No","Male","1693708.1000000238","null","","<p></p>","null","choice","cdt","repulsion_2","1","laptops","null","null","null","null","null","null","1","","","","","","","","","",""
"","","","","","choice_trial","survey-html-form","139","1424578","0.0-5.0-1.27","108","1","2025-04-11 14:50:27","bb671e3ae32f654b8954ea4c4635f915","","Mozilla/5.0 (Windows NT 10.0; Win64; x64) AppleWebKit/537.36 (KHTML, like Gecko) Chrome/130.0.0.0 Safari/537.36","WebKit","Chrome","130.0.0.0","Windows","10.0","https://hz8g1ckzuq.cognition.run/","en-US,en;q=0.9","6jbb7t6gtfvfth3","48","[""White""]","No","Male","1693708.1000000238","3322","","","{""product_choice"":""A""}","choice","cdt","repulsion_2","1","laptops","null","null","null","null","null","null","1","100","90","100","30","40","20","Processing speed","Memory (RAM)","",""
"","","","","","choice_trial_setup","html-keyboard-response","140","1424886","0.0-5.0-0.28","108","1","2025-04-11 14:50:27","bb671e3ae32f654b8954ea4c4635f915","","Mozilla/5.0 (Windows NT 10.0; Win64; x64) AppleWebKit/537.36 (KHTML, like Gecko) Chrome/130.0.0.0 Safari/537.36","WebKit","Chrome","130.0.0.0","Windows","10.0","https://hz8g1ckzuq.cognition.run/","en-US,en;q=0.9","6jbb7t6gtfvfth3","48","[""White""]","No","Male","1693708.1000000238","null","","<p></p>","null","choice","ctd","repulsion_2","2","televisions","null","null","null","null","null","null","1","","","","","","","","","",""
"","","","","","choice_trial","survey-html-form","141","1427860","0.0-5.0-1.28","108","1","2025-04-11 14:50:27","bb671e3ae32f654b8954ea4c4635f915","","Mozilla/5.0 (Windows NT 10.0; Win64; x64) AppleWebKit/537.36 (KHTML, like Gecko) Chrome/130.0.0.0 Safari/537.36","WebKit","Chrome","130.0.0.0","Windows","10.0","https://hz8g1ckzuq.cognition.run/","en-US,en;q=0.9","6jbb7t6gtfvfth3","48","[""White""]","No","Male","1693708.1000000238","2958","","","{""product_choice"":""A""}","choice","ctd","repulsion_2","2","televisions","null","null","null","null","null","null","1","30","40","20","100","90","100","Screen size","Average lifespan","",""
"","","","","","choice_trial_setup","html-keyboard-response","142","1428169","0.0-5.0-0.29","108","1","2025-04-11 14:50:27","bb671e3ae32f654b8954ea4c4635f915","","Mozilla/5.0 (Windows NT 10.0; Win64; x64) AppleWebKit/537.36 (KHTML, like Gecko) Chrome/130.0.0.0 Safari/537.36","WebKit","Chrome","130.0.0.0","Windows","10.0","https://hz8g1ckzuq.cognition.run/","en-US,en;q=0.9","6jbb7t6gtfvfth3","48","[""White""]","No","Male","1693708.1000000238","null","","<p></p>","null","choice","tcd","attraction_1","2","microwave ovens","null","null","null","null","null","null","2","","","","","","","","","",""
"","","","","","choice_trial","survey-html-form","143","1432644","0.0-5.0-1.29","108","1","2025-04-11 14:50:27","bb671e3ae32f654b8954ea4c4635f915","","Mozilla/5.0 (Windows NT 10.0; Win64; x64) AppleWebKit/537.36 (KHTML, like Gecko) Chrome/130.0.0.0 Safari/537.36","WebKit","Chrome","130.0.0.0","Windows","10.0","https://hz8g1ckzuq.cognition.run/","en-US,en;q=0.9","6jbb7t6gtfvfth3","48","[""White""]","No","Male","1693708.1000000238","4455","","","{""product_choice"":""A""}","choice","tcd","attraction_1","2","microwave ovens","null","null","null","null","null","null","2","50","60","45","60","50","60","Warranty","Cooking power","",""
"","","","","","choice_trial_setup","html-keyboard-response","144","1432952","0.0-5.0-0.30","108","1","2025-04-11 14:50:27","bb671e3ae32f654b8954ea4c4635f915","","Mozilla/5.0 (Windows NT 10.0; Win64; x64) AppleWebKit/537.36 (KHTML, like Gecko) Chrome/130.0.0.0 Safari/537.36","WebKit","Chrome","130.0.0.0","Windows","10.0","https://hz8g1ckzuq.cognition.run/","en-US,en;q=0.9","6jbb7t6gtfvfth3","48","[""White""]","No","Male","1693708.1000000238","null","","<p></p>","null","choice","tcd","repulsion_2","1","washing machines","null","null","null","null","null","null","1","","","","","","","","","",""
"","","","","","choice_trial","survey-html-form","145","1436078","0.0-5.0-1.30","108","1","2025-04-11 14:50:27","bb671e3ae32f654b8954ea4c4635f915","","Mozilla/5.0 (Windows NT 10.0; Win64; x64) AppleWebKit/537.36 (KHTML, like Gecko) Chrome/130.0.0.0 Safari/537.36","WebKit","Chrome","130.0.0.0","Windows","10.0","https://hz8g1ckzuq.cognition.run/","en-US,en;q=0.9","6jbb7t6gtfvfth3","48","[""White""]","No","Male","1693708.1000000238","3109","","","{""product_choice"":""B""}","choice","tcd","repulsion_2","1","washing machines","null","null","null","null","null","null","1","100","90","100","30","40","20","Average lifespan","Energy savings","",""
"","","","","","choice_trial_setup","html-keyboard-response","146","1436387","0.0-5.0-0.31","108","1","2025-04-11 14:50:27","bb671e3ae32f654b8954ea4c4635f915","","Mozilla/5.0 (Windows NT 10.0; Win64; x64) AppleWebKit/537.36 (KHTML, like Gecko) Chrome/130.0.0.0 Safari/537.36","WebKit","Chrome","130.0.0.0","Windows","10.0","https://hz8g1ckzuq.cognition.run/","en-US,en;q=0.9","6jbb7t6gtfvfth3","48","[""White""]","No","Male","1693708.1000000238","null","","<p></p>","null","choice","dct","attraction_2","1","washing machines","null","null","null","null","null","null","2","","","","","","","","","",""
"","","","","","choice_trial","survey-html-form","147","1440574","0.0-5.0-1.31","108","1","2025-04-11 14:50:27","bb671e3ae32f654b8954ea4c4635f915","","Mozilla/5.0 (Windows NT 10.0; Win64; x64) AppleWebKit/537.36 (KHTML, like Gecko) Chrome/130.0.0.0 Safari/537.36","WebKit","Chrome","130.0.0.0","Windows","10.0","https://hz8g1ckzuq.cognition.run/","en-US,en;q=0.9","6jbb7t6gtfvfth3","48","[""White""]","No","Male","1693708.1000000238","4159","","","{""product_choice"":""B""}","choice","dct","attraction_2","1","washing machines","null","null","null","null","null","null","2","60","50","60","50","60","40","Average lifespan","Energy savings","",""
"","","","","","choice_trial_setup","html-keyboard-response","148","1440882","0.0-5.0-0.32","108","1","2025-04-11 14:50:27","bb671e3ae32f654b8954ea4c4635f915","","Mozilla/5.0 (Windows NT 10.0; Win64; x64) AppleWebKit/537.36 (KHTML, like Gecko) Chrome/130.0.0.0 Safari/537.36","WebKit","Chrome","130.0.0.0","Windows","10.0","https://hz8g1ckzuq.cognition.run/","en-US,en;q=0.9","6jbb7t6gtfvfth3","48","[""White""]","No","Male","1693708.1000000238","null","","<p></p>","null","choice","tcd","attraction_2","1","televisions","null","null","null","null","null","null","2","","","","","","","","","",""
"","","","","","choice_trial","survey-html-form","149","1445107","0.0-5.0-1.32","108","1","2025-04-11 14:50:27","bb671e3ae32f654b8954ea4c4635f915","","Mozilla/5.0 (Windows NT 10.0; Win64; x64) AppleWebKit/537.36 (KHTML, like Gecko) Chrome/130.0.0.0 Safari/537.36","WebKit","Chrome","130.0.0.0","Windows","10.0","https://hz8g1ckzuq.cognition.run/","en-US,en;q=0.9","6jbb7t6gtfvfth3","48","[""White""]","No","Male","1693708.1000000238","4207","","","{""product_choice"":""B""}","choice","tcd","attraction_2","1","televisions","null","null","null","null","null","null","2","60","50","60","50","60","40","Screen size","Average lifespan","",""
"","","","","","choice_trial_setup","html-keyboard-response","150","1445416","0.0-5.0-0.33","108","1","2025-04-11 14:50:27","bb671e3ae32f654b8954ea4c4635f915","","Mozilla/5.0 (Windows NT 10.0; Win64; x64) AppleWebKit/537.36 (KHTML, like Gecko) Chrome/130.0.0.0 Safari/537.36","WebKit","Chrome","130.0.0.0","Windows","10.0","https://hz8g1ckzuq.cognition.run/","en-US,en;q=0.9","6jbb7t6gtfvfth3","48","[""White""]","No","Male","1693708.1000000238","null","","<p></p>","null","choice","wwb","catch","null","washing machines","65","60","35","10","30","40","1","","","","","","","","","",""
"","","","","","choice_trial","survey-html-form","151","1448094","0.0-5.0-1.33","108","1","2025-04-11 14:50:27","bb671e3ae32f654b8954ea4c4635f915","","Mozilla/5.0 (Windows NT 10.0; Win64; x64) AppleWebKit/537.36 (KHTML, like Gecko) Chrome/130.0.0.0 Safari/537.36","WebKit","Chrome","130.0.0.0","Windows","10.0","https://hz8g1ckzuq.cognition.run/","en-US,en;q=0.9","6jbb7t6gtfvfth3","48","[""White""]","No","Male","1693708.1000000238","2657","","","{""product_choice"":""C""}","choice","wwb","catch","null","washing machines","65","60","35","10","30","40","1","null","null","null","null","null","null","Average lifespan","Energy savings","",""
"","","","","","choice_trial_setup","html-keyboard-response","152","1448402","0.0-5.0-0.34","108","1","2025-04-11 14:50:27","bb671e3ae32f654b8954ea4c4635f915","","Mozilla/5.0 (Windows NT 10.0; Win64; x64) AppleWebKit/537.36 (KHTML, like Gecko) Chrome/130.0.0.0 Safari/537.36","WebKit","Chrome","130.0.0.0","Windows","10.0","https://hz8g1ckzuq.cognition.run/","en-US,en;q=0.9","6jbb7t6gtfvfth3","48","[""White""]","No","Male","1693708.1000000238","null","","<p></p>","null","choice","ctd","attraction_2","2","laptops","null","null","null","null","null","null","2","","","","","","","","","",""
"","","","","","choice_trial","survey-html-form","153","1452325","0.0-5.0-1.34","108","1","2025-04-11 14:50:27","bb671e3ae32f654b8954ea4c4635f915","","Mozilla/5.0 (Windows NT 10.0; Win64; x64) AppleWebKit/537.36 (KHTML, like Gecko) Chrome/130.0.0.0 Safari/537.36","WebKit","Chrome","130.0.0.0","Windows","10.0","https://hz8g1ckzuq.cognition.run/","en-US,en;q=0.9","6jbb7t6gtfvfth3","48","[""White""]","No","Male","1693708.1000000238","3905","","","{""product_choice"":""A""}","choice","ctd","attraction_2","2","laptops","null","null","null","null","null","null","2","50","60","40","60","50","60","Processing speed","Memory (RAM)","",""
"","","","","","choice_trial_setup","html-keyboard-response","154","1452633","0.0-5.0-0.35","108","1","2025-04-11 14:50:27","bb671e3ae32f654b8954ea4c4635f915","","Mozilla/5.0 (Windows NT 10.0; Win64; x64) AppleWebKit/537.36 (KHTML, like Gecko) Chrome/130.0.0.0 Safari/537.36","WebKit","Chrome","130.0.0.0","Windows","10.0","https://hz8g1ckzuq.cognition.run/","en-US,en;q=0.9","6jbb7t6gtfvfth3","48","[""White""]","No","Male","1693708.1000000238","null","","<p></p>","null","choice","tdc","attraction_2","2","washing machines","null","null","null","null","null","null","2","","","","","","","","","",""
"","","","","","choice_trial","survey-html-form","155","1456298","0.0-5.0-1.35","108","1","2025-04-11 14:50:27","bb671e3ae32f654b8954ea4c4635f915","","Mozilla/5.0 (Windows NT 10.0; Win64; x64) AppleWebKit/537.36 (KHTML, like Gecko) Chrome/130.0.0.0 Safari/537.36","WebKit","Chrome","130.0.0.0","Windows","10.0","https://hz8g1ckzuq.cognition.run/","en-US,en;q=0.9","6jbb7t6gtfvfth3","48","[""White""]","No","Male","1693708.1000000238","3646","","","{""product_choice"":""A""}","choice","tdc","attraction_2","2","washing machines","null","null","null","null","null","null","2","50","60","40","60","50","60","Average lifespan","Energy savings","",""
"","","","","","choice_trial_setup","html-keyboard-response","156","1456606","0.0-5.0-0.36","108","1","2025-04-11 14:50:27","bb671e3ae32f654b8954ea4c4635f915","","Mozilla/5.0 (Windows NT 10.0; Win64; x64) AppleWebKit/537.36 (KHTML, like Gecko) Chrome/130.0.0.0 Safari/537.36","WebKit","Chrome","130.0.0.0","Windows","10.0","https://hz8g1ckzuq.cognition.run/","en-US,en;q=0.9","6jbb7t6gtfvfth3","48","[""White""]","No","Male","1693708.1000000238","null","","<p></p>","null","choice","dct","repulsion_1","2","laptops","null","null","null","null","null","null","1","","","","","","","","","",""
"","","","","","choice_trial","survey-html-form","157","1460053","0.0-5.0-1.36","108","1","2025-04-11 14:50:27","bb671e3ae32f654b8954ea4c4635f915","","Mozilla/5.0 (Windows NT 10.0; Win64; x64) AppleWebKit/537.36 (KHTML, like Gecko) Chrome/130.0.0.0 Safari/537.36","WebKit","Chrome","130.0.0.0","Windows","10.0","https://hz8g1ckzuq.cognition.run/","en-US,en;q=0.9","6jbb7t6gtfvfth3","48","[""White""]","No","Male","1693708.1000000238","3429","","","{""product_choice"":""B""}","choice","dct","repulsion_1","2","laptops","null","null","null","null","null","null","1","30","40","25","100","90","100","Processing speed","Memory (RAM)","",""
