"success","timeout","failed_images","failed_audio","failed_video","screen_id","trial_type","trial_index","time_elapsed","internal_node_id","run_id","condition","recorded_at","source_code_version","ip","user_agent","device","browser","browser_version","platform","platform_version","referer","accept_language","ppt_id","age","race","ethnicity","gender","exp_duration","rt","view_history","stimulus","response","phase","order","effect","t_high","category","d1_best","d2_best","d1_worst1","d2_worst1","d1_worst2","d2_worst2","first_dim","d1_t","d1_c","d1_d","d2_t","d2_c","d2_d","d1_name","d2_name","strategy_response","question_order"
"true","false","[]","[]","[]","img preload","preload","0","283","0.0-0.0","109","1","2025-04-11 14:51:42","bb671e3ae32f654b8954ea4c4635f915","","Mozilla/5.0 (Windows NT 10.0; Win64; x64) AppleWebKit/537.36 (KHTML, like Gecko) Chrome/135.0.0.0 Safari/537.36","WebKit","Chrome","135.0.0.0","Windows","10.0","https://hz8g1ckzuq.cognition.run/","en-US,en;q=0.9","4ce8of9ceuylv13","33","[""White""]","No","Female","882064.599999994","","","","","","","","","","","","","","","","","","","","","","","","","",""
"true","","","","","","fullscreen","1","5068","0.0-1.0","109","1","2025-04-11 14:51:42","bb671e3ae32f654b8954ea4c4635f915","","Mozilla/5.0 (Windows NT 10.0; Win64; x64) AppleWebKit/537.36 (KHTML, like Gecko) Chrome/135.0.0.0 Safari/537.36","WebKit","Chrome","135.0.0.0","Windows","10.0","https://hz8g1ckzuq.cognition.run/","en-US,en;q=0.9","4ce8of9ceuylv13","33","[""White""]","No","Female","882064.599999994","3772","","","","","","","","","","","","","","","","","","","","","","","","",""
"","","","","","","instructions","2","58547","0.0-2.0","109","1","2025-04-11 14:51:42","bb671e3ae32f654b8954ea4c4635f915","","Mozilla/5.0 (Windows NT 10.0; Win64; x64) AppleWebKit/537.36 (KHTML, like Gecko) Chrome/135.0.0.0 Safari/537.36","WebKit","Chrome","135.0.0.0","Windows","10.0","https://hz8g1ckzuq.cognition.run/","en-US,en;q=0.9","4ce8of9ceuylv13","33","[""White""]","No","Female","882064.599999994","53478","[{""page_index"":0,""viewing_time"":13127},{""page_index"":1,""viewing_time"":3093},{""page_index"":2,""viewing_time"":1984},{""page_index"":3,""viewing_time"":2205},{""page_index"":4,""viewing_time"":4550},{""page_index"":5,""viewing_time"":6711},{""page_index"":6,""viewing_time"":7316},{""page_index"":7,""viewing_time"":9814},{""page_index"":8,""viewing_time"":3437},{""page_index"":9,""viewing_time"":1241}]","","","","","","","","","","","","","","","","","","","","","","","",""
"","","","","","rating_trial_setup","html-keyboard-response","3","58849","0.0-3.0-0.0","109","1","2025-04-11 14:51:42","bb671e3ae32f654b8954ea4c4635f915","","Mozilla/5.0 (Windows NT 10.0; Win64; x64) AppleWebKit/537.36 (KHTML, like Gecko) Chrome/135.0.0.0 Safari/537.36","WebKit","Chrome","135.0.0.0","Windows","10.0","https://hz8g1ckzuq.cognition.run/","en-US,en;q=0.9","4ce8of9ceuylv13","33","[""White""]","No","Female","882064.599999994","null","","<p></p>","null","rating","ctd","repulsion_2","1","washing machines","null","null","null","null","null","null","1","","","","","","","","","",""
"","","","","","rating_trial","survey-html-form","4","79899","0.0-3.0-1.0","109","1","2025-04-11 14:51:42","bb671e3ae32f654b8954ea4c4635f915","","Mozilla/5.0 (Windows NT 10.0; Win64; x64) AppleWebKit/537.36 (KHTML, like Gecko) Chrome/135.0.0.0 Safari/537.36","WebKit","Chrome","135.0.0.0","Windows","10.0","https://hz8g1ckzuq.cognition.run/","en-US,en;q=0.9","4ce8of9ceuylv13","33","[""White""]","No","Female","882064.599999994","21049","","","{""price_1"":""399"",""price_2"":""350"",""price_3"":""350""}","rating","ctd","repulsion_2","1","washing machines","null","null","null","null","null","null","1","100","90","100","30","40","20","Average lifespan","Energy savings","",""
"","","","","","rating_trial_setup","html-keyboard-response","5","80202","0.0-3.0-0.1","109","1","2025-04-11 14:51:42","bb671e3ae32f654b8954ea4c4635f915","","Mozilla/5.0 (Windows NT 10.0; Win64; x64) AppleWebKit/537.36 (KHTML, like Gecko) Chrome/135.0.0.0 Safari/537.36","WebKit","Chrome","135.0.0.0","Windows","10.0","https://hz8g1ckzuq.cognition.run/","en-US,en;q=0.9","4ce8of9ceuylv13","33","[""White""]","No","Female","882064.599999994","null","","<p></p>","null","rating","tdc","repulsion_1","1","microwave ovens","null","null","null","null","null","null","2","","","","","","","","","",""
"","","","","","rating_trial","survey-html-form","6","99965","0.0-3.0-1.1","109","1","2025-04-11 14:51:42","bb671e3ae32f654b8954ea4c4635f915","","Mozilla/5.0 (Windows NT 10.0; Win64; x64) AppleWebKit/537.36 (KHTML, like Gecko) Chrome/135.0.0.0 Safari/537.36","WebKit","Chrome","135.0.0.0","Windows","10.0","https://hz8g1ckzuq.cognition.run/","en-US,en;q=0.9","4ce8of9ceuylv13","33","[""White""]","No","Female","882064.599999994","19762","","","{""price_1"":""50"",""price_2"":""50"",""price_3"":""75""}","rating","tdc","repulsion_1","1","microwave ovens","null","null","null","null","null","null","2","100","90","100","30","40","25","Warranty","Cooking power","",""
"","","","","","rating_trial_setup","html-keyboard-response","7","100269","0.0-3.0-0.2","109","1","2025-04-11 14:51:42","bb671e3ae32f654b8954ea4c4635f915","","Mozilla/5.0 (Windows NT 10.0; Win64; x64) AppleWebKit/537.36 (KHTML, like Gecko) Chrome/135.0.0.0 Safari/537.36","WebKit","Chrome","135.0.0.0","Windows","10.0","https://hz8g1ckzuq.cognition.run/","en-US,en;q=0.9","4ce8of9ceuylv13","33","[""White""]","No","Female","882064.599999994","null","","<p></p>","null","rating","wbw","catch","null","televisions","55","75","25","35","45","35","1","","","","","","","","","",""
"","","","","","rating_trial","survey-html-form","8","114379","0.0-3.0-1.2","109","1","2025-04-11 14:51:42","bb671e3ae32f654b8954ea4c4635f915","","Mozilla/5.0 (Windows NT 10.0; Win64; x64) AppleWebKit/537.36 (KHTML, like Gecko) Chrome/135.0.0.0 Safari/537.36","WebKit","Chrome","135.0.0.0","Windows","10.0","https://hz8g1ckzuq.cognition.run/","en-US,en;q=0.9","4ce8of9ceuylv13","33","[""White""]","No","Female","882064.599999994","14107","","","{""price_1"":""399"",""price_2"":""399"",""price_3"":""399""}","rating","wbw","catch","null","televisions","55","75","25","35","45","35","1","null","null","null","null","null","null","Screen size","Average lifespan","",""
"","","","","","rating_trial_setup","html-keyboard-response","9","114681","0.0-3.0-0.3","109","1","2025-04-11 14:51:42","bb671e3ae32f654b8954ea4c4635f915","","Mozilla/5.0 (Windows NT 10.0; Win64; x64) AppleWebKit/537.36 (KHTML, like Gecko) Chrome/135.0.0.0 Safari/537.36","WebKit","Chrome","135.0.0.0","Windows","10.0","https://hz8g1ckzuq.cognition.run/","en-US,en;q=0.9","4ce8of9ceuylv13","33","[""White""]","No","Female","882064.599999994","null","","<p></p>","null","rating","tcd","attraction_1","2","washing machines","null","null","null","null","null","null","1","","","","","","","","","",""
"","","","","","rating_trial","survey-html-form","10","139162","0.0-3.0-1.3","109","1","2025-04-11 14:51:42","bb671e3ae32f654b8954ea4c4635f915","","Mozilla/5.0 (Windows NT 10.0; Win64; x64) AppleWebKit/537.36 (KHTML, like Gecko) Chrome/135.0.0.0 Safari/537.36","WebKit","Chrome","135.0.0.0","Windows","10.0","https://hz8g1ckzuq.cognition.run/","en-US,en;q=0.9","4ce8of9ceuylv13","33","[""White""]","No","Female","882064.599999994","24479","","","{""price_1"":""299"",""price_2"":""299"",""price_3"":""299""}","rating","tcd","attraction_1","2","washing machines","null","null","null","null","null","null","1","50","60","45","60","50","60","Average lifespan","Energy savings","",""
"","","","","","rating_trial_setup","html-keyboard-response","11","139464","0.0-3.0-0.4","109","1","2025-04-11 14:51:42","bb671e3ae32f654b8954ea4c4635f915","","Mozilla/5.0 (Windows NT 10.0; Win64; x64) AppleWebKit/537.36 (KHTML, like Gecko) Chrome/135.0.0.0 Safari/537.36","WebKit","Chrome","135.0.0.0","Windows","10.0","https://hz8g1ckzuq.cognition.run/","en-US,en;q=0.9","4ce8of9ceuylv13","33","[""White""]","No","Female","882064.599999994","null","","<p></p>","null","rating","ctd","repulsion_1","2","washing machines","null","null","null","null","null","null","1","","","","","","","","","",""
"","","","","","rating_trial","survey-html-form","12","148929","0.0-3.0-1.4","109","1","2025-04-11 14:51:42","bb671e3ae32f654b8954ea4c4635f915","","Mozilla/5.0 (Windows NT 10.0; Win64; x64) AppleWebKit/537.36 (KHTML, like Gecko) Chrome/135.0.0.0 Safari/537.36","WebKit","Chrome","135.0.0.0","Windows","10.0","https://hz8g1ckzuq.cognition.run/","en-US,en;q=0.9","4ce8of9ceuylv13","33","[""White""]","No","Female","882064.599999994","9463","","","{""price_1"":""299"",""price_2"":""299"",""price_3"":""299""}","rating","ctd","repulsion_1","2","washing machines","null","null","null","null","null","null","1","30","40","25","100","90","100","Average lifespan","Energy savings","",""
"","","","","","rating_trial_setup","html-keyboard-response","13","149233","0.0-3.0-0.5","109","1","2025-04-11 14:51:42","bb671e3ae32f654b8954ea4c4635f915","","Mozilla/5.0 (Windows NT 10.0; Win64; x64) AppleWebKit/537.36 (KHTML, like Gecko) Chrome/135.0.0.0 Safari/537.36","WebKit","Chrome","135.0.0.0","Windows","10.0","https://hz8g1ckzuq.cognition.run/","en-US,en;q=0.9","4ce8of9ceuylv13","33","[""White""]","No","Female","882064.599999994","null","","<p></p>","null","rating","dct","attraction_2","2","microwave ovens","null","null","null","null","null","null","2","","","","","","","","","",""
"","","","","","rating_trial","survey-html-form","14","166072","0.0-3.0-1.5","109","1","2025-04-11 14:51:42","bb671e3ae32f654b8954ea4c4635f915","","Mozilla/5.0 (Windows NT 10.0; Win64; x64) AppleWebKit/537.36 (KHTML, like Gecko) Chrome/135.0.0.0 Safari/537.36","WebKit","Chrome","135.0.0.0","Windows","10.0","https://hz8g1ckzuq.cognition.run/","en-US,en;q=0.9","4ce8of9ceuylv13","33","[""White""]","No","Female","882064.599999994","16836","","","{""price_1"":""75"",""price_2"":""75"",""price_3"":""75""}","rating","dct","attraction_2","2","microwave ovens","null","null","null","null","null","null","2","50","60","40","60","50","60","Warranty","Cooking power","",""
"","","","","","rating_trial_setup","html-keyboard-response","15","166375","0.0-3.0-0.6","109","1","2025-04-11 14:51:42","bb671e3ae32f654b8954ea4c4635f915","","Mozilla/5.0 (Windows NT 10.0; Win64; x64) AppleWebKit/537.36 (KHTML, like Gecko) Chrome/135.0.0.0 Safari/537.36","WebKit","Chrome","135.0.0.0","Windows","10.0","https://hz8g1ckzuq.cognition.run/","en-US,en;q=0.9","4ce8of9ceuylv13","33","[""White""]","No","Female","882064.599999994","null","","<p></p>","null","rating","cdt","attraction_2","1","microwave ovens","null","null","null","null","null","null","2","","","","","","","","","",""
"","","","","","rating_trial","survey-html-form","16","172534","0.0-3.0-1.6","109","1","2025-04-11 14:51:42","bb671e3ae32f654b8954ea4c4635f915","","Mozilla/5.0 (Windows NT 10.0; Win64; x64) AppleWebKit/537.36 (KHTML, like Gecko) Chrome/135.0.0.0 Safari/537.36","WebKit","Chrome","135.0.0.0","Windows","10.0","https://hz8g1ckzuq.cognition.run/","en-US,en;q=0.9","4ce8of9ceuylv13","33","[""White""]","No","Female","882064.599999994","6156","","","{""price_1"":""75"",""price_2"":""75"",""price_3"":""75""}","rating","cdt","attraction_2","1","microwave ovens","null","null","null","null","null","null","2","60","50","60","50","60","40","Warranty","Cooking power","",""
"","","","","","rating_trial_setup","html-keyboard-response","17","172836","0.0-3.0-0.7","109","1","2025-04-11 14:51:42","bb671e3ae32f654b8954ea4c4635f915","","Mozilla/5.0 (Windows NT 10.0; Win64; x64) AppleWebKit/537.36 (KHTML, like Gecko) Chrome/135.0.0.0 Safari/537.36","WebKit","Chrome","135.0.0.0","Windows","10.0","https://hz8g1ckzuq.cognition.run/","en-US,en;q=0.9","4ce8of9ceuylv13","33","[""White""]","No","Female","882064.599999994","null","","<p></p>","null","rating","dct","attraction_2","1","laptops","null","null","null","null","null","null","1","","","","","","","","","",""
"","","","","","rating_trial","survey-html-form","18","178177","0.0-3.0-1.7","109","1","2025-04-11 14:51:42","bb671e3ae32f654b8954ea4c4635f915","","Mozilla/5.0 (Windows NT 10.0; Win64; x64) AppleWebKit/537.36 (KHTML, like Gecko) Chrome/135.0.0.0 Safari/537.36","WebKit","Chrome","135.0.0.0","Windows","10.0","https://hz8g1ckzuq.cognition.run/","en-US,en;q=0.9","4ce8of9ceuylv13","33","[""White""]","No","Female","882064.599999994","5339","","","{""price_1"":""1000"",""price_2"":""1000"",""price_3"":""1000""}","rating","dct","attraction_2","1","laptops","null","null","null","null","null","null","1","60","50","60","50","60","40","Processing speed","Memory (RAM)","",""
"","","","","","rating_trial_setup","html-keyboard-response","19","178479","0.0-3.0-0.8","109","1","2025-04-11 14:51:42","bb671e3ae32f654b8954ea4c4635f915","","Mozilla/5.0 (Windows NT 10.0; Win64; x64) AppleWebKit/537.36 (KHTML, like Gecko) Chrome/135.0.0.0 Safari/537.36","WebKit","Chrome","135.0.0.0","Windows","10.0","https://hz8g1ckzuq.cognition.run/","en-US,en;q=0.9","4ce8of9ceuylv13","33","[""White""]","No","Female","882064.599999994","null","","<p></p>","null","rating","tdc","attraction_2","2","laptops","null","null","null","null","null","null","2","","","","","","","","","",""
"","","","","","rating_trial","survey-html-form","20","185733","0.0-3.0-1.8","109","1","2025-04-11 14:51:42","bb671e3ae32f654b8954ea4c4635f915","","Mozilla/5.0 (Windows NT 10.0; Win64; x64) AppleWebKit/537.36 (KHTML, like Gecko) Chrome/135.0.0.0 Safari/537.36","WebKit","Chrome","135.0.0.0","Windows","10.0","https://hz8g1ckzuq.cognition.run/","en-US,en;q=0.9","4ce8of9ceuylv13","33","[""White""]","No","Female","882064.599999994","7249","","","{""price_1"":""1000"",""price_2"":""1000"",""price_3"":""1000""}","rating","tdc","attraction_2","2","laptops","null","null","null","null","null","null","2","50","60","40","60","50","60","Processing speed","Memory (RAM)","",""
"","","","","","rating_trial_setup","html-keyboard-response","21","186036","0.0-3.0-0.9","109","1","2025-04-11 14:51:42","bb671e3ae32f654b8954ea4c4635f915","","Mozilla/5.0 (Windows NT 10.0; Win64; x64) AppleWebKit/537.36 (KHTML, like Gecko) Chrome/135.0.0.0 Safari/537.36","WebKit","Chrome","135.0.0.0","Windows","10.0","https://hz8g1ckzuq.cognition.run/","en-US,en;q=0.9","4ce8of9ceuylv13","33","[""White""]","No","Female","882064.599999994","null","","<p></p>","null","rating","dct","attraction_2","2","washing machines","null","null","null","null","null","null","1","","","","","","","","","",""
"","","","","","rating_trial","survey-html-form","22","202768","0.0-3.0-1.9","109","1","2025-04-11 14:51:42","bb671e3ae32f654b8954ea4c4635f915","","Mozilla/5.0 (Windows NT 10.0; Win64; x64) AppleWebKit/537.36 (KHTML, like Gecko) Chrome/135.0.0.0 Safari/537.36","WebKit","Chrome","135.0.0.0","Windows","10.0","https://hz8g1ckzuq.cognition.run/","en-US,en;q=0.9","4ce8of9ceuylv13","33","[""White""]","No","Female","882064.599999994","16729","","","{""price_1"":""299"",""price_2"":""299"",""price_3"":""299""}","rating","dct","attraction_2","2","washing machines","null","null","null","null","null","null","1","50","60","40","60","50","60","Average lifespan","Energy savings","",""
"","","","","","rating_trial_setup","html-keyboard-response","23","203069","0.0-3.0-0.10","109","1","2025-04-11 14:51:42","bb671e3ae32f654b8954ea4c4635f915","","Mozilla/5.0 (Windows NT 10.0; Win64; x64) AppleWebKit/537.36 (KHTML, like Gecko) Chrome/135.0.0.0 Safari/537.36","WebKit","Chrome","135.0.0.0","Windows","10.0","https://hz8g1ckzuq.cognition.run/","en-US,en;q=0.9","4ce8of9ceuylv13","33","[""White""]","No","Female","882064.599999994","null","","<p></p>","null","rating","ctd","attraction_2","1","televisions","null","null","null","null","null","null","2","","","","","","","","","",""
"","","","","","rating_trial","survey-html-form","24","213275","0.0-3.0-1.10","109","1","2025-04-11 14:51:42","bb671e3ae32f654b8954ea4c4635f915","","Mozilla/5.0 (Windows NT 10.0; Win64; x64) AppleWebKit/537.36 (KHTML, like Gecko) Chrome/135.0.0.0 Safari/537.36","WebKit","Chrome","135.0.0.0","Windows","10.0","https://hz8g1ckzuq.cognition.run/","en-US,en;q=0.9","4ce8of9ceuylv13","33","[""White""]","No","Female","882064.599999994","10205","","","{""price_1"":""399"",""price_2"":""399"",""price_3"":""399""}","rating","ctd","attraction_2","1","televisions","null","null","null","null","null","null","2","60","50","60","50","60","40","Screen size","Average lifespan","",""
"","","","","","rating_trial_setup","html-keyboard-response","25","213577","0.0-3.0-0.11","109","1","2025-04-11 14:51:42","bb671e3ae32f654b8954ea4c4635f915","","Mozilla/5.0 (Windows NT 10.0; Win64; x64) AppleWebKit/537.36 (KHTML, like Gecko) Chrome/135.0.0.0 Safari/537.36","WebKit","Chrome","135.0.0.0","Windows","10.0","https://hz8g1ckzuq.cognition.run/","en-US,en;q=0.9","4ce8of9ceuylv13","33","[""White""]","No","Female","882064.599999994","null","","<p></p>","null","rating","wwb","catch","null","washing machines","95","95","35","35","10","10","2","","","","","","","","","",""
"","","","","","rating_trial","survey-html-form","26","232035","0.0-3.0-1.11","109","1","2025-04-11 14:51:42","bb671e3ae32f654b8954ea4c4635f915","","Mozilla/5.0 (Windows NT 10.0; Win64; x64) AppleWebKit/537.36 (KHTML, like Gecko) Chrome/135.0.0.0 Safari/537.36","WebKit","Chrome","135.0.0.0","Windows","10.0","https://hz8g1ckzuq.cognition.run/","en-US,en;q=0.9","4ce8of9ceuylv13","33","[""White""]","No","Female","882064.599999994","18457","","","{""price_1"":""299"",""price_2"":""299"",""price_3"":""299""}","rating","wwb","catch","null","washing machines","95","95","35","35","10","10","2","null","null","null","null","null","null","Average lifespan","Energy savings","",""
"","","","","","rating_trial_setup","html-keyboard-response","27","232336","0.0-3.0-0.12","109","1","2025-04-11 14:51:42","bb671e3ae32f654b8954ea4c4635f915","","Mozilla/5.0 (Windows NT 10.0; Win64; x64) AppleWebKit/537.36 (KHTML, like Gecko) Chrome/135.0.0.0 Safari/537.36","WebKit","Chrome","135.0.0.0","Windows","10.0","https://hz8g1ckzuq.cognition.run/","en-US,en;q=0.9","4ce8of9ceuylv13","33","[""White""]","No","Female","882064.599999994","null","","<p></p>","null","rating","tcd","attraction_2","1","washing machines","null","null","null","null","null","null","2","","","","","","","","","",""
"","","","","","rating_trial","survey-html-form","28","241153","0.0-3.0-1.12","109","1","2025-04-11 14:51:42","bb671e3ae32f654b8954ea4c4635f915","","Mozilla/5.0 (Windows NT 10.0; Win64; x64) AppleWebKit/537.36 (KHTML, like Gecko) Chrome/135.0.0.0 Safari/537.36","WebKit","Chrome","135.0.0.0","Windows","10.0","https://hz8g1ckzuq.cognition.run/","en-US,en;q=0.9","4ce8of9ceuylv13","33","[""White""]","No","Female","882064.599999994","8815","","","{""price_1"":""299"",""price_2"":""299"",""price_3"":""299""}","rating","tcd","attraction_2","1","washing machines","null","null","null","null","null","null","2","60","50","60","50","60","40","Average lifespan","Energy savings","",""
"","","","","","rating_trial_setup","html-keyboard-response","29","241455","0.0-3.0-0.13","109","1","2025-04-11 14:51:42","bb671e3ae32f654b8954ea4c4635f915","","Mozilla/5.0 (Windows NT 10.0; Win64; x64) AppleWebKit/537.36 (KHTML, like Gecko) Chrome/135.0.0.0 Safari/537.36","WebKit","Chrome","135.0.0.0","Windows","10.0","https://hz8g1ckzuq.cognition.run/","en-US,en;q=0.9","4ce8of9ceuylv13","33","[""White""]","No","Female","882064.599999994","null","","<p></p>","null","rating","cdt","repulsion_2","2","televisions","null","null","null","null","null","null","2","","","","","","","","","",""
"","","","","","rating_trial","survey-html-form","30","248222","0.0-3.0-1.13","109","1","2025-04-11 14:51:42","bb671e3ae32f654b8954ea4c4635f915","","Mozilla/5.0 (Windows NT 10.0; Win64; x64) AppleWebKit/537.36 (KHTML, like Gecko) Chrome/135.0.0.0 Safari/537.36","WebKit","Chrome","135.0.0.0","Windows","10.0","https://hz8g1ckzuq.cognition.run/","en-US,en;q=0.9","4ce8of9ceuylv13","33","[""White""]","No","Female","882064.599999994","6764","","","{""price_1"":""399"",""price_2"":""399"",""price_3"":""399""}","rating","cdt","repulsion_2","2","televisions","null","null","null","null","null","null","2","30","40","20","100","90","100","Screen size","Average lifespan","",""
"","","","","","rating_trial_setup","html-keyboard-response","31","248523","0.0-3.0-0.14","109","1","2025-04-11 14:51:42","bb671e3ae32f654b8954ea4c4635f915","","Mozilla/5.0 (Windows NT 10.0; Win64; x64) AppleWebKit/537.36 (KHTML, like Gecko) Chrome/135.0.0.0 Safari/537.36","WebKit","Chrome","135.0.0.0","Windows","10.0","https://hz8g1ckzuq.cognition.run/","en-US,en;q=0.9","4ce8of9ceuylv13","33","[""White""]","No","Female","882064.599999994","null","","<p></p>","null","rating","dtc","repulsion_1","2","televisions","null","null","null","null","null","null","1","","","","","","","","","",""
"","","","","","rating_trial","survey-html-form","32","253514","0.0-3.0-1.14","109","1","2025-04-11 14:51:42","bb671e3ae32f654b8954ea4c4635f915","","Mozilla/5.0 (Windows NT 10.0; Win64; x64) AppleWebKit/537.36 (KHTML, like Gecko) Chrome/135.0.0.0 Safari/537.36","WebKit","Chrome","135.0.0.0","Windows","10.0","https://hz8g1ckzuq.cognition.run/","en-US,en;q=0.9","4ce8of9ceuylv13","33","[""White""]","No","Female","882064.599999994","4988","","","{""price_1"":""399"",""price_2"":""399"",""price_3"":""399""}","rating","dtc","repulsion_1","2","televisions","null","null","null","null","null","null","1","30","40","25","100","90","100","Screen size","Average lifespan","",""
"","","","","","rating_trial_setup","html-keyboard-response","33","253816","0.0-3.0-0.15","109","1","2025-04-11 14:51:42","bb671e3ae32f654b8954ea4c4635f915","","Mozilla/5.0 (Windows NT 10.0; Win64; x64) AppleWebKit/537.36 (KHTML, like Gecko) Chrome/135.0.0.0 Safari/537.36","WebKit","Chrome","135.0.0.0","Windows","10.0","https://hz8g1ckzuq.cognition.run/","en-US,en;q=0.9","4ce8of9ceuylv13","33","[""White""]","No","Female","882064.599999994","null","","<p></p>","null","rating","bww","catch","null","laptops","80","80","30","40","50","50","2","","","","","","","","","",""
"","","","","","rating_trial","survey-html-form","34","264259","0.0-3.0-1.15","109","1","2025-04-11 14:51:42","bb671e3ae32f654b8954ea4c4635f915","","Mozilla/5.0 (Windows NT 10.0; Win64; x64) AppleWebKit/537.36 (KHTML, like Gecko) Chrome/135.0.0.0 Safari/537.36","WebKit","Chrome","135.0.0.0","Windows","10.0","https://hz8g1ckzuq.cognition.run/","en-US,en;q=0.9","4ce8of9ceuylv13","33","[""White""]","No","Female","882064.599999994","10441","","","{""price_1"":""1000"",""price_2"":""1000"",""price_3"":""1000""}","rating","bww","catch","null","laptops","80","80","30","40","50","50","2","null","null","null","null","null","null","Processing speed","Memory (RAM)","",""
"","","","","","rating_trial_setup","html-keyboard-response","35","264562","0.0-3.0-0.16","109","1","2025-04-11 14:51:42","bb671e3ae32f654b8954ea4c4635f915","","Mozilla/5.0 (Windows NT 10.0; Win64; x64) AppleWebKit/537.36 (KHTML, like Gecko) Chrome/135.0.0.0 Safari/537.36","WebKit","Chrome","135.0.0.0","Windows","10.0","https://hz8g1ckzuq.cognition.run/","en-US,en;q=0.9","4ce8of9ceuylv13","33","[""White""]","No","Female","882064.599999994","null","","<p></p>","null","rating","bww","catch","null","microwave ovens","50","60","50","20","20","45","1","","","","","","","","","",""
"","","","","","rating_trial","survey-html-form","36","268936","0.0-3.0-1.16","109","1","2025-04-11 14:51:42","bb671e3ae32f654b8954ea4c4635f915","","Mozilla/5.0 (Windows NT 10.0; Win64; x64) AppleWebKit/537.36 (KHTML, like Gecko) Chrome/135.0.0.0 Safari/537.36","WebKit","Chrome","135.0.0.0","Windows","10.0","https://hz8g1ckzuq.cognition.run/","en-US,en;q=0.9","4ce8of9ceuylv13","33","[""White""]","No","Female","882064.599999994","4372","","","{""price_1"":""50"",""price_2"":""50"",""price_3"":""50""}","rating","bww","catch","null","microwave ovens","50","60","50","20","20","45","1","null","null","null","null","null","null","Warranty","Cooking power","",""
"","","","","","rating_trial_setup","html-keyboard-response","37","269238","0.0-3.0-0.17","109","1","2025-04-11 14:51:42","bb671e3ae32f654b8954ea4c4635f915","","Mozilla/5.0 (Windows NT 10.0; Win64; x64) AppleWebKit/537.36 (KHTML, like Gecko) Chrome/135.0.0.0 Safari/537.36","WebKit","Chrome","135.0.0.0","Windows","10.0","https://hz8g1ckzuq.cognition.run/","en-US,en;q=0.9","4ce8of9ceuylv13","33","[""White""]","No","Female","882064.599999994","null","","<p></p>","null","rating","dct","repulsion_2","2","washing machines","null","null","null","null","null","null","2","","","","","","","","","",""
"","","","","","rating_trial","survey-html-form","38","274636","0.0-3.0-1.17","109","1","2025-04-11 14:51:42","bb671e3ae32f654b8954ea4c4635f915","","Mozilla/5.0 (Windows NT 10.0; Win64; x64) AppleWebKit/537.36 (KHTML, like Gecko) Chrome/135.0.0.0 Safari/537.36","WebKit","Chrome","135.0.0.0","Windows","10.0","https://hz8g1ckzuq.cognition.run/","en-US,en;q=0.9","4ce8of9ceuylv13","33","[""White""]","No","Female","882064.599999994","5395","","","{""price_1"":""300"",""price_2"":""0300"",""price_3"":""300""}","rating","dct","repulsion_2","2","washing machines","null","null","null","null","null","null","2","30","40","20","100","90","100","Average lifespan","Energy savings","",""
"","","","","","rating_trial_setup","html-keyboard-response","39","274939","0.0-3.0-0.18","109","1","2025-04-11 14:51:42","bb671e3ae32f654b8954ea4c4635f915","","Mozilla/5.0 (Windows NT 10.0; Win64; x64) AppleWebKit/537.36 (KHTML, like Gecko) Chrome/135.0.0.0 Safari/537.36","WebKit","Chrome","135.0.0.0","Windows","10.0","https://hz8g1ckzuq.cognition.run/","en-US,en;q=0.9","4ce8of9ceuylv13","33","[""White""]","No","Female","882064.599999994","null","","<p></p>","null","rating","ctd","repulsion_1","2","laptops","null","null","null","null","null","null","1","","","","","","","","","",""
"","","","","","rating_trial","survey-html-form","40","284156","0.0-3.0-1.18","109","1","2025-04-11 14:51:42","bb671e3ae32f654b8954ea4c4635f915","","Mozilla/5.0 (Windows NT 10.0; Win64; x64) AppleWebKit/537.36 (KHTML, like Gecko) Chrome/135.0.0.0 Safari/537.36","WebKit","Chrome","135.0.0.0","Windows","10.0","https://hz8g1ckzuq.cognition.run/","en-US,en;q=0.9","4ce8of9ceuylv13","33","[""White""]","No","Female","882064.599999994","9214","","","{""price_1"":""1000"",""price_2"":""1000"",""price_3"":""100""}","rating","ctd","repulsion_1","2","laptops","null","null","null","null","null","null","1","30","40","25","100","90","100","Processing speed","Memory (RAM)","",""
"","","","","","rating_trial_setup","html-keyboard-response","41","284457","0.0-3.0-0.19","109","1","2025-04-11 14:51:42","bb671e3ae32f654b8954ea4c4635f915","","Mozilla/5.0 (Windows NT 10.0; Win64; x64) AppleWebKit/537.36 (KHTML, like Gecko) Chrome/135.0.0.0 Safari/537.36","WebKit","Chrome","135.0.0.0","Windows","10.0","https://hz8g1ckzuq.cognition.run/","en-US,en;q=0.9","4ce8of9ceuylv13","33","[""White""]","No","Female","882064.599999994","null","","<p></p>","null","rating","bww","catch","null","laptops","75","60","5","40","50","35","2","","","","","","","","","",""
"","","","","","rating_trial","survey-html-form","42","291400","0.0-3.0-1.19","109","1","2025-04-11 14:51:42","bb671e3ae32f654b8954ea4c4635f915","","Mozilla/5.0 (Windows NT 10.0; Win64; x64) AppleWebKit/537.36 (KHTML, like Gecko) Chrome/135.0.0.0 Safari/537.36","WebKit","Chrome","135.0.0.0","Windows","10.0","https://hz8g1ckzuq.cognition.run/","en-US,en;q=0.9","4ce8of9ceuylv13","33","[""White""]","No","Female","882064.599999994","6942","","","{""price_1"":""1000"",""price_2"":""1000"",""price_3"":""1000""}","rating","bww","catch","null","laptops","75","60","5","40","50","35","2","null","null","null","null","null","null","Processing speed","Memory (RAM)","",""
"","","","","","rating_trial_setup","html-keyboard-response","43","291702","0.0-3.0-0.20","109","1","2025-04-11 14:51:42","bb671e3ae32f654b8954ea4c4635f915","","Mozilla/5.0 (Windows NT 10.0; Win64; x64) AppleWebKit/537.36 (KHTML, like Gecko) Chrome/135.0.0.0 Safari/537.36","WebKit","Chrome","135.0.0.0","Windows","10.0","https://hz8g1ckzuq.cognition.run/","en-US,en;q=0.9","4ce8of9ceuylv13","33","[""White""]","No","Female","882064.599999994","null","","<p></p>","null","rating","dct","attraction_1","1","laptops","null","null","null","null","null","null","1","","","","","","","","","",""
"","","","","","rating_trial","survey-html-form","44","297829","0.0-3.0-1.20","109","1","2025-04-11 14:51:42","bb671e3ae32f654b8954ea4c4635f915","","Mozilla/5.0 (Windows NT 10.0; Win64; x64) AppleWebKit/537.36 (KHTML, like Gecko) Chrome/135.0.0.0 Safari/537.36","WebKit","Chrome","135.0.0.0","Windows","10.0","https://hz8g1ckzuq.cognition.run/","en-US,en;q=0.9","4ce8of9ceuylv13","33","[""White""]","No","Female","882064.599999994","6124","","","{""price_1"":""1000"",""price_2"":""1000"",""price_3"":""1000""}","rating","dct","attraction_1","1","laptops","null","null","null","null","null","null","1","60","50","60","50","60","45","Processing speed","Memory (RAM)","",""
"","","","","","rating_trial_setup","html-keyboard-response","45","298131","0.0-3.0-0.21","109","1","2025-04-11 14:51:42","bb671e3ae32f654b8954ea4c4635f915","","Mozilla/5.0 (Windows NT 10.0; Win64; x64) AppleWebKit/537.36 (KHTML, like Gecko) Chrome/135.0.0.0 Safari/537.36","WebKit","Chrome","135.0.0.0","Windows","10.0","https://hz8g1ckzuq.cognition.run/","en-US,en;q=0.9","4ce8of9ceuylv13","33","[""White""]","No","Female","882064.599999994","null","","<p></p>","null","rating","wbw","catch","null","microwave ovens","50","95","50","30","50","20","2","","","","","","","","","",""
"","","","","","rating_trial","survey-html-form","46","305699","0.0-3.0-1.21","109","1","2025-04-11 14:51:42","bb671e3ae32f654b8954ea4c4635f915","","Mozilla/5.0 (Windows NT 10.0; Win64; x64) AppleWebKit/537.36 (KHTML, like Gecko) Chrome/135.0.0.0 Safari/537.36","WebKit","Chrome","135.0.0.0","Windows","10.0","https://hz8g1ckzuq.cognition.run/","en-US,en;q=0.9","4ce8of9ceuylv13","33","[""White""]","No","Female","882064.599999994","7564","","","{""price_1"":""50"",""price_2"":""50"",""price_3"":""50""}","rating","wbw","catch","null","microwave ovens","50","95","50","30","50","20","2","null","null","null","null","null","null","Warranty","Cooking power","",""
"","","","","","rating_trial_setup","html-keyboard-response","47","306001","0.0-3.0-0.22","109","1","2025-04-11 14:51:42","bb671e3ae32f654b8954ea4c4635f915","","Mozilla/5.0 (Windows NT 10.0; Win64; x64) AppleWebKit/537.36 (KHTML, like Gecko) Chrome/135.0.0.0 Safari/537.36","WebKit","Chrome","135.0.0.0","Windows","10.0","https://hz8g1ckzuq.cognition.run/","en-US,en;q=0.9","4ce8of9ceuylv13","33","[""White""]","No","Female","882064.599999994","null","","<p></p>","null","rating","dct","repulsion_2","2","microwave ovens","null","null","null","null","null","null","1","","","","","","","","","",""
"","","","","","rating_trial","survey-html-form","48","314668","0.0-3.0-1.22","109","1","2025-04-11 14:51:42","bb671e3ae32f654b8954ea4c4635f915","","Mozilla/5.0 (Windows NT 10.0; Win64; x64) AppleWebKit/537.36 (KHTML, like Gecko) Chrome/135.0.0.0 Safari/537.36","WebKit","Chrome","135.0.0.0","Windows","10.0","https://hz8g1ckzuq.cognition.run/","en-US,en;q=0.9","4ce8of9ceuylv13","33","[""White""]","No","Female","882064.599999994","8665","","","{""price_1"":""50"",""price_2"":""50"",""price_3"":""75""}","rating","dct","repulsion_2","2","microwave ovens","null","null","null","null","null","null","1","30","40","20","100","90","100","Warranty","Cooking power","",""
"","","","","","rating_trial_setup","html-keyboard-response","49","314970","0.0-3.0-0.23","109","1","2025-04-11 14:51:42","bb671e3ae32f654b8954ea4c4635f915","","Mozilla/5.0 (Windows NT 10.0; Win64; x64) AppleWebKit/537.36 (KHTML, like Gecko) Chrome/135.0.0.0 Safari/537.36","WebKit","Chrome","135.0.0.0","Windows","10.0","https://hz8g1ckzuq.cognition.run/","en-US,en;q=0.9","4ce8of9ceuylv13","33","[""White""]","No","Female","882064.599999994","null","","<p></p>","null","rating","tdc","attraction_2","2","televisions","null","null","null","null","null","null","1","","","","","","","","","",""
"","","","","","rating_trial","survey-html-form","50","326647","0.0-3.0-1.23","109","1","2025-04-11 14:51:42","bb671e3ae32f654b8954ea4c4635f915","","Mozilla/5.0 (Windows NT 10.0; Win64; x64) AppleWebKit/537.36 (KHTML, like Gecko) Chrome/135.0.0.0 Safari/537.36","WebKit","Chrome","135.0.0.0","Windows","10.0","https://hz8g1ckzuq.cognition.run/","en-US,en;q=0.9","4ce8of9ceuylv13","33","[""White""]","No","Female","882064.599999994","11673","","","{""price_1"":""399"",""price_2"":""399"",""price_3"":""399""}","rating","tdc","attraction_2","2","televisions","null","null","null","null","null","null","1","50","60","40","60","50","60","Screen size","Average lifespan","",""
"","","","","","rating_trial_setup","html-keyboard-response","51","326951","0.0-3.0-0.24","109","1","2025-04-11 14:51:42","bb671e3ae32f654b8954ea4c4635f915","","Mozilla/5.0 (Windows NT 10.0; Win64; x64) AppleWebKit/537.36 (KHTML, like Gecko) Chrome/135.0.0.0 Safari/537.36","WebKit","Chrome","135.0.0.0","Windows","10.0","https://hz8g1ckzuq.cognition.run/","en-US,en;q=0.9","4ce8of9ceuylv13","33","[""White""]","No","Female","882064.599999994","null","","<p></p>","null","rating","tcd","repulsion_1","1","laptops","null","null","null","null","null","null","1","","","","","","","","","",""
"","","","","","rating_trial","survey-html-form","52","339953","0.0-3.0-1.24","109","1","2025-04-11 14:51:42","bb671e3ae32f654b8954ea4c4635f915","","Mozilla/5.0 (Windows NT 10.0; Win64; x64) AppleWebKit/537.36 (KHTML, like Gecko) Chrome/135.0.0.0 Safari/537.36","WebKit","Chrome","135.0.0.0","Windows","10.0","https://hz8g1ckzuq.cognition.run/","en-US,en;q=0.9","4ce8of9ceuylv13","33","[""White""]","No","Female","882064.599999994","13000","","","{""price_1"":""1000"",""price_2"":""1000"",""price_3"":""1000""}","rating","tcd","repulsion_1","1","laptops","null","null","null","null","null","null","1","100","90","100","30","40","25","Processing speed","Memory (RAM)","",""
"","","","","","rating_trial_setup","html-keyboard-response","53","340255","0.0-3.0-0.25","109","1","2025-04-11 14:51:42","bb671e3ae32f654b8954ea4c4635f915","","Mozilla/5.0 (Windows NT 10.0; Win64; x64) AppleWebKit/537.36 (KHTML, like Gecko) Chrome/135.0.0.0 Safari/537.36","WebKit","Chrome","135.0.0.0","Windows","10.0","https://hz8g1ckzuq.cognition.run/","en-US,en;q=0.9","4ce8of9ceuylv13","33","[""White""]","No","Female","882064.599999994","null","","<p></p>","null","rating","tcd","attraction_1","2","laptops","null","null","null","null","null","null","1","","","","","","","","","",""
"","","","","","rating_trial","survey-html-form","54","345666","0.0-3.0-1.25","109","1","2025-04-11 14:51:42","bb671e3ae32f654b8954ea4c4635f915","","Mozilla/5.0 (Windows NT 10.0; Win64; x64) AppleWebKit/537.36 (KHTML, like Gecko) Chrome/135.0.0.0 Safari/537.36","WebKit","Chrome","135.0.0.0","Windows","10.0","https://hz8g1ckzuq.cognition.run/","en-US,en;q=0.9","4ce8of9ceuylv13","33","[""White""]","No","Female","882064.599999994","5409","","","{""price_1"":""1000"",""price_2"":""1000"",""price_3"":""1000""}","rating","tcd","attraction_1","2","laptops","null","null","null","null","null","null","1","50","60","45","60","50","60","Processing speed","Memory (RAM)","",""
"","","","","","rating_trial_setup","html-keyboard-response","55","345967","0.0-3.0-0.26","109","1","2025-04-11 14:51:42","bb671e3ae32f654b8954ea4c4635f915","","Mozilla/5.0 (Windows NT 10.0; Win64; x64) AppleWebKit/537.36 (KHTML, like Gecko) Chrome/135.0.0.0 Safari/537.36","WebKit","Chrome","135.0.0.0","Windows","10.0","https://hz8g1ckzuq.cognition.run/","en-US,en;q=0.9","4ce8of9ceuylv13","33","[""White""]","No","Female","882064.599999994","null","","<p></p>","null","rating","dtc","attraction_1","1","washing machines","null","null","null","null","null","null","1","","","","","","","","","",""
"","","","","","rating_trial","survey-html-form","56","356348","0.0-3.0-1.26","109","1","2025-04-11 14:51:42","bb671e3ae32f654b8954ea4c4635f915","","Mozilla/5.0 (Windows NT 10.0; Win64; x64) AppleWebKit/537.36 (KHTML, like Gecko) Chrome/135.0.0.0 Safari/537.36","WebKit","Chrome","135.0.0.0","Windows","10.0","https://hz8g1ckzuq.cognition.run/","en-US,en;q=0.9","4ce8of9ceuylv13","33","[""White""]","No","Female","882064.599999994","10378","","","{""price_1"":""299"",""price_2"":""299"",""price_3"":""299""}","rating","dtc","attraction_1","1","washing machines","null","null","null","null","null","null","1","60","50","60","50","60","45","Average lifespan","Energy savings","",""
"","","","","","rating_trial_setup","html-keyboard-response","57","356649","0.0-3.0-0.27","109","1","2025-04-11 14:51:42","bb671e3ae32f654b8954ea4c4635f915","","Mozilla/5.0 (Windows NT 10.0; Win64; x64) AppleWebKit/537.36 (KHTML, like Gecko) Chrome/135.0.0.0 Safari/537.36","WebKit","Chrome","135.0.0.0","Windows","10.0","https://hz8g1ckzuq.cognition.run/","en-US,en;q=0.9","4ce8of9ceuylv13","33","[""White""]","No","Female","882064.599999994","null","","<p></p>","null","rating","ctd","attraction_1","2","microwave ovens","null","null","null","null","null","null","2","","","","","","","","","",""
"","","","","","rating_trial","survey-html-form","58","362162","0.0-3.0-1.27","109","1","2025-04-11 14:51:42","bb671e3ae32f654b8954ea4c4635f915","","Mozilla/5.0 (Windows NT 10.0; Win64; x64) AppleWebKit/537.36 (KHTML, like Gecko) Chrome/135.0.0.0 Safari/537.36","WebKit","Chrome","135.0.0.0","Windows","10.0","https://hz8g1ckzuq.cognition.run/","en-US,en;q=0.9","4ce8of9ceuylv13","33","[""White""]","No","Female","882064.599999994","5511","","","{""price_1"":""75"",""price_2"":""75"",""price_3"":""75""}","rating","ctd","attraction_1","2","microwave ovens","null","null","null","null","null","null","2","50","60","45","60","50","60","Warranty","Cooking power","",""
"","","","","","rating_trial_setup","html-keyboard-response","59","362463","0.0-3.0-0.28","109","1","2025-04-11 14:51:42","bb671e3ae32f654b8954ea4c4635f915","","Mozilla/5.0 (Windows NT 10.0; Win64; x64) AppleWebKit/537.36 (KHTML, like Gecko) Chrome/135.0.0.0 Safari/537.36","WebKit","Chrome","135.0.0.0","Windows","10.0","https://hz8g1ckzuq.cognition.run/","en-US,en;q=0.9","4ce8of9ceuylv13","33","[""White""]","No","Female","882064.599999994","null","","<p></p>","null","rating","dtc","repulsion_2","1","laptops","null","null","null","null","null","null","1","","","","","","","","","",""
"","","","","","rating_trial","survey-html-form","60","367868","0.0-3.0-1.28","109","1","2025-04-11 14:51:42","bb671e3ae32f654b8954ea4c4635f915","","Mozilla/5.0 (Windows NT 10.0; Win64; x64) AppleWebKit/537.36 (KHTML, like Gecko) Chrome/135.0.0.0 Safari/537.36","WebKit","Chrome","135.0.0.0","Windows","10.0","https://hz8g1ckzuq.cognition.run/","en-US,en;q=0.9","4ce8of9ceuylv13","33","[""White""]","No","Female","882064.599999994","5400","","","{""price_1"":""1000"",""price_2"":""1000"",""price_3"":""1000""}","rating","dtc","repulsion_2","1","laptops","null","null","null","null","null","null","1","100","90","100","30","40","20","Processing speed","Memory (RAM)","",""
"","","","","","rating_trial_setup","html-keyboard-response","61","368170","0.0-3.0-0.29","109","1","2025-04-11 14:51:42","bb671e3ae32f654b8954ea4c4635f915","","Mozilla/5.0 (Windows NT 10.0; Win64; x64) AppleWebKit/537.36 (KHTML, like Gecko) Chrome/135.0.0.0 Safari/537.36","WebKit","Chrome","135.0.0.0","Windows","10.0","https://hz8g1ckzuq.cognition.run/","en-US,en;q=0.9","4ce8of9ceuylv13","33","[""White""]","No","Female","882064.599999994","null","","<p></p>","null","rating","wwb","catch","null","televisions","55","70","25","25","45","50","2","","","","","","","","","",""
"","","","","","rating_trial","survey-html-form","62","372837","0.0-3.0-1.29","109","1","2025-04-11 14:51:42","bb671e3ae32f654b8954ea4c4635f915","","Mozilla/5.0 (Windows NT 10.0; Win64; x64) AppleWebKit/537.36 (KHTML, like Gecko) Chrome/135.0.0.0 Safari/537.36","WebKit","Chrome","135.0.0.0","Windows","10.0","https://hz8g1ckzuq.cognition.run/","en-US,en;q=0.9","4ce8of9ceuylv13","33","[""White""]","No","Female","882064.599999994","4665","","","{""price_1"":""399"",""price_2"":""399"",""price_3"":""399""}","rating","wwb","catch","null","televisions","55","70","25","25","45","50","2","null","null","null","null","null","null","Screen size","Average lifespan","",""
"","","","","","rating_trial_setup","html-keyboard-response","63","373139","0.0-3.0-0.30","109","1","2025-04-11 14:51:42","bb671e3ae32f654b8954ea4c4635f915","","Mozilla/5.0 (Windows NT 10.0; Win64; x64) AppleWebKit/537.36 (KHTML, like Gecko) Chrome/135.0.0.0 Safari/537.36","WebKit","Chrome","135.0.0.0","Windows","10.0","https://hz8g1ckzuq.cognition.run/","en-US,en;q=0.9","4ce8of9ceuylv13","33","[""White""]","No","Female","882064.599999994","null","","<p></p>","null","rating","tcd","repulsion_1","1","televisions","null","null","null","null","null","null","2","","","","","","","","","",""
"","","","","","rating_trial","survey-html-form","64","405091","0.0-3.0-1.30","109","1","2025-04-11 14:51:42","bb671e3ae32f654b8954ea4c4635f915","","Mozilla/5.0 (Windows NT 10.0; Win64; x64) AppleWebKit/537.36 (KHTML, like Gecko) Chrome/135.0.0.0 Safari/537.36","WebKit","Chrome","135.0.0.0","Windows","10.0","https://hz8g1ckzuq.cognition.run/","en-US,en;q=0.9","4ce8of9ceuylv13","33","[""White""]","No","Female","882064.599999994","31948","","","{""price_1"":""399"",""price_2"":""399"",""price_3"":""399""}","rating","tcd","repulsion_1","1","televisions","null","null","null","null","null","null","2","100","90","100","30","40","25","Screen size","Average lifespan","",""
"","","","","","rating_trial_setup","html-keyboard-response","65","405395","0.0-3.0-0.31","109","1","2025-04-11 14:51:42","bb671e3ae32f654b8954ea4c4635f915","","Mozilla/5.0 (Windows NT 10.0; Win64; x64) AppleWebKit/537.36 (KHTML, like Gecko) Chrome/135.0.0.0 Safari/537.36","WebKit","Chrome","135.0.0.0","Windows","10.0","https://hz8g1ckzuq.cognition.run/","en-US,en;q=0.9","4ce8of9ceuylv13","33","[""White""]","No","Female","882064.599999994","null","","<p></p>","null","rating","dct","repulsion_1","1","washing machines","null","null","null","null","null","null","2","","","","","","","","","",""
"","","","","","rating_trial","survey-html-form","66","419059","0.0-3.0-1.31","109","1","2025-04-11 14:51:42","bb671e3ae32f654b8954ea4c4635f915","","Mozilla/5.0 (Windows NT 10.0; Win64; x64) AppleWebKit/537.36 (KHTML, like Gecko) Chrome/135.0.0.0 Safari/537.36","WebKit","Chrome","135.0.0.0","Windows","10.0","https://hz8g1ckzuq.cognition.run/","en-US,en;q=0.9","4ce8of9ceuylv13","33","[""White""]","No","Female","882064.599999994","13661","","","{""price_1"":""300"",""price_2"":""300"",""price_3"":""300""}","rating","dct","repulsion_1","1","washing machines","null","null","null","null","null","null","2","100","90","100","30","40","25","Average lifespan","Energy savings","",""
"","","","","","rating_trial_setup","html-keyboard-response","67","419361","0.0-3.0-0.32","109","1","2025-04-11 14:51:42","bb671e3ae32f654b8954ea4c4635f915","","Mozilla/5.0 (Windows NT 10.0; Win64; x64) AppleWebKit/537.36 (KHTML, like Gecko) Chrome/135.0.0.0 Safari/537.36","WebKit","Chrome","135.0.0.0","Windows","10.0","https://hz8g1ckzuq.cognition.run/","en-US,en;q=0.9","4ce8of9ceuylv13","33","[""White""]","No","Female","882064.599999994","null","","<p></p>","null","rating","dct","attraction_1","1","microwave ovens","null","null","null","null","null","null","2","","","","","","","","","",""
"","","","","","rating_trial","survey-html-form","68","423302","0.0-3.0-1.32","109","1","2025-04-11 14:51:42","bb671e3ae32f654b8954ea4c4635f915","","Mozilla/5.0 (Windows NT 10.0; Win64; x64) AppleWebKit/537.36 (KHTML, like Gecko) Chrome/135.0.0.0 Safari/537.36","WebKit","Chrome","135.0.0.0","Windows","10.0","https://hz8g1ckzuq.cognition.run/","en-US,en;q=0.9","4ce8of9ceuylv13","33","[""White""]","No","Female","882064.599999994","3936","","","{""price_1"":""50"",""price_2"":""50"",""price_3"":""50""}","rating","dct","attraction_1","1","microwave ovens","null","null","null","null","null","null","2","60","50","60","50","60","45","Warranty","Cooking power","",""
"","","","","","rating_trial_setup","html-keyboard-response","69","423605","0.0-3.0-0.33","109","1","2025-04-11 14:51:42","bb671e3ae32f654b8954ea4c4635f915","","Mozilla/5.0 (Windows NT 10.0; Win64; x64) AppleWebKit/537.36 (KHTML, like Gecko) Chrome/135.0.0.0 Safari/537.36","WebKit","Chrome","135.0.0.0","Windows","10.0","https://hz8g1ckzuq.cognition.run/","en-US,en;q=0.9","4ce8of9ceuylv13","33","[""White""]","No","Female","882064.599999994","null","","<p></p>","null","rating","dct","repulsion_2","1","televisions","null","null","null","null","null","null","2","","","","","","","","","",""
"","","","","","rating_trial","survey-html-form","70","434731","0.0-3.0-1.33","109","1","2025-04-11 14:51:42","bb671e3ae32f654b8954ea4c4635f915","","Mozilla/5.0 (Windows NT 10.0; Win64; x64) AppleWebKit/537.36 (KHTML, like Gecko) Chrome/135.0.0.0 Safari/537.36","WebKit","Chrome","135.0.0.0","Windows","10.0","https://hz8g1ckzuq.cognition.run/","en-US,en;q=0.9","4ce8of9ceuylv13","33","[""White""]","No","Female","882064.599999994","11121","","","{""price_1"":""399"",""price_2"":""399"",""price_3"":""399""}","rating","dct","repulsion_2","1","televisions","null","null","null","null","null","null","2","100","90","100","30","40","20","Screen size","Average lifespan","",""
"","","","","","rating_trial_setup","html-keyboard-response","71","435035","0.0-3.0-0.34","109","1","2025-04-11 14:51:42","bb671e3ae32f654b8954ea4c4635f915","","Mozilla/5.0 (Windows NT 10.0; Win64; x64) AppleWebKit/537.36 (KHTML, like Gecko) Chrome/135.0.0.0 Safari/537.36","WebKit","Chrome","135.0.0.0","Windows","10.0","https://hz8g1ckzuq.cognition.run/","en-US,en;q=0.9","4ce8of9ceuylv13","33","[""White""]","No","Female","882064.599999994","null","","<p></p>","null","rating","wbw","catch","null","washing machines","65","95","30","5","35","15","1","","","","","","","","","",""
"","","","","","rating_trial","survey-html-form","72","440613","0.0-3.0-1.34","109","1","2025-04-11 14:51:42","bb671e3ae32f654b8954ea4c4635f915","","Mozilla/5.0 (Windows NT 10.0; Win64; x64) AppleWebKit/537.36 (KHTML, like Gecko) Chrome/135.0.0.0 Safari/537.36","WebKit","Chrome","135.0.0.0","Windows","10.0","https://hz8g1ckzuq.cognition.run/","en-US,en;q=0.9","4ce8of9ceuylv13","33","[""White""]","No","Female","882064.599999994","5574","","","{""price_1"":""300"",""price_2"":""300"",""price_3"":""300""}","rating","wbw","catch","null","washing machines","65","95","30","5","35","15","1","null","null","null","null","null","null","Average lifespan","Energy savings","",""
"","","","","","rating_trial_setup","html-keyboard-response","73","440916","0.0-3.0-0.35","109","1","2025-04-11 14:51:42","bb671e3ae32f654b8954ea4c4635f915","","Mozilla/5.0 (Windows NT 10.0; Win64; x64) AppleWebKit/537.36 (KHTML, like Gecko) Chrome/135.0.0.0 Safari/537.36","WebKit","Chrome","135.0.0.0","Windows","10.0","https://hz8g1ckzuq.cognition.run/","en-US,en;q=0.9","4ce8of9ceuylv13","33","[""White""]","No","Female","882064.599999994","null","","<p></p>","null","rating","ctd","attraction_1","1","televisions","null","null","null","null","null","null","1","","","","","","","","","",""
"","","","","","rating_trial","survey-html-form","74","444967","0.0-3.0-1.35","109","1","2025-04-11 14:51:42","bb671e3ae32f654b8954ea4c4635f915","","Mozilla/5.0 (Windows NT 10.0; Win64; x64) AppleWebKit/537.36 (KHTML, like Gecko) Chrome/135.0.0.0 Safari/537.36","WebKit","Chrome","135.0.0.0","Windows","10.0","https://hz8g1ckzuq.cognition.run/","en-US,en;q=0.9","4ce8of9ceuylv13","33","[""White""]","No","Female","882064.599999994","4050","","","{""price_1"":""399"",""price_2"":""399"",""price_3"":""399""}","rating","ctd","attraction_1","1","televisions","null","null","null","null","null","null","1","60","50","60","50","60","45","Screen size","Average lifespan","",""
"","","","","","rating_trial_setup","html-keyboard-response","75","445269","0.0-3.0-0.36","109","1","2025-04-11 14:51:42","bb671e3ae32f654b8954ea4c4635f915","","Mozilla/5.0 (Windows NT 10.0; Win64; x64) AppleWebKit/537.36 (KHTML, like Gecko) Chrome/135.0.0.0 Safari/537.36","WebKit","Chrome","135.0.0.0","Windows","10.0","https://hz8g1ckzuq.cognition.run/","en-US,en;q=0.9","4ce8of9ceuylv13","33","[""White""]","No","Female","882064.599999994","null","","<p></p>","null","rating","tcd","repulsion_1","2","microwave ovens","null","null","null","null","null","null","1","","","","","","","","","",""
"","","","","","rating_trial","survey-html-form","76","449575","0.0-3.0-1.36","109","1","2025-04-11 14:51:42","bb671e3ae32f654b8954ea4c4635f915","","Mozilla/5.0 (Windows NT 10.0; Win64; x64) AppleWebKit/537.36 (KHTML, like Gecko) Chrome/135.0.0.0 Safari/537.36","WebKit","Chrome","135.0.0.0","Windows","10.0","https://hz8g1ckzuq.cognition.run/","en-US,en;q=0.9","4ce8of9ceuylv13","33","[""White""]","No","Female","882064.599999994","4300","","","{""price_1"":""50"",""price_2"":""50"",""price_3"":""50""}","rating","tcd","repulsion_1","2","microwave ovens","null","null","null","null","null","null","1","30","40","25","100","90","100","Warranty","Cooking power","",""
"","","","","","rating_trial_setup","html-keyboard-response","77","449876","0.0-3.0-0.37","109","1","2025-04-11 14:51:42","bb671e3ae32f654b8954ea4c4635f915","","Mozilla/5.0 (Windows NT 10.0; Win64; x64) AppleWebKit/537.36 (KHTML, like Gecko) Chrome/135.0.0.0 Safari/537.36","WebKit","Chrome","135.0.0.0","Windows","10.0","https://hz8g1ckzuq.cognition.run/","en-US,en;q=0.9","4ce8of9ceuylv13","33","[""White""]","No","Female","882064.599999994","null","","<p></p>","null","rating","ctd","repulsion_2","1","microwave ovens","null","null","null","null","null","null","2","","","","","","","","","",""
"","","","","","rating_trial","survey-html-form","78","453626","0.0-3.0-1.37","109","1","2025-04-11 14:51:42","bb671e3ae32f654b8954ea4c4635f915","","Mozilla/5.0 (Windows NT 10.0; Win64; x64) AppleWebKit/537.36 (KHTML, like Gecko) Chrome/135.0.0.0 Safari/537.36","WebKit","Chrome","135.0.0.0","Windows","10.0","https://hz8g1ckzuq.cognition.run/","en-US,en;q=0.9","4ce8of9ceuylv13","33","[""White""]","No","Female","882064.599999994","3747","","","{""price_1"":""50"",""price_2"":""50"",""price_3"":""50""}","rating","ctd","repulsion_2","1","microwave ovens","null","null","null","null","null","null","2","100","90","100","30","40","20","Warranty","Cooking power","",""
"","","","","","rating_trial_setup","html-keyboard-response","79","453927","0.0-3.0-0.38","109","1","2025-04-11 14:51:42","bb671e3ae32f654b8954ea4c4635f915","","Mozilla/5.0 (Windows NT 10.0; Win64; x64) AppleWebKit/537.36 (KHTML, like Gecko) Chrome/135.0.0.0 Safari/537.36","WebKit","Chrome","135.0.0.0","Windows","10.0","https://hz8g1ckzuq.cognition.run/","en-US,en;q=0.9","4ce8of9ceuylv13","33","[""White""]","No","Female","882064.599999994","null","","<p></p>","null","rating","tdc","repulsion_2","2","laptops","null","null","null","null","null","null","2","","","","","","","","","",""
"","","","","","rating_trial","survey-html-form","80","458444","0.0-3.0-1.38","109","1","2025-04-11 14:51:42","bb671e3ae32f654b8954ea4c4635f915","","Mozilla/5.0 (Windows NT 10.0; Win64; x64) AppleWebKit/537.36 (KHTML, like Gecko) Chrome/135.0.0.0 Safari/537.36","WebKit","Chrome","135.0.0.0","Windows","10.0","https://hz8g1ckzuq.cognition.run/","en-US,en;q=0.9","4ce8of9ceuylv13","33","[""White""]","No","Female","882064.599999994","4513","","","{""price_1"":""1000"",""price_2"":""1000"",""price_3"":""1000""}","rating","tdc","repulsion_2","2","laptops","null","null","null","null","null","null","2","30","40","20","100","90","100","Processing speed","Memory (RAM)","",""
"","","","","","rating_trial_setup","html-keyboard-response","81","458748","0.0-3.0-0.39","109","1","2025-04-11 14:51:42","bb671e3ae32f654b8954ea4c4635f915","","Mozilla/5.0 (Windows NT 10.0; Win64; x64) AppleWebKit/537.36 (KHTML, like Gecko) Chrome/135.0.0.0 Safari/537.36","WebKit","Chrome","135.0.0.0","Windows","10.0","https://hz8g1ckzuq.cognition.run/","en-US,en;q=0.9","4ce8of9ceuylv13","33","[""White""]","No","Female","882064.599999994","null","","<p></p>","null","rating","ctd","attraction_1","2","televisions","null","null","null","null","null","null","1","","","","","","","","","",""
"","","","","","rating_trial","survey-html-form","82","469136","0.0-3.0-1.39","109","1","2025-04-11 14:51:42","bb671e3ae32f654b8954ea4c4635f915","","Mozilla/5.0 (Windows NT 10.0; Win64; x64) AppleWebKit/537.36 (KHTML, like Gecko) Chrome/135.0.0.0 Safari/537.36","WebKit","Chrome","135.0.0.0","Windows","10.0","https://hz8g1ckzuq.cognition.run/","en-US,en;q=0.9","4ce8of9ceuylv13","33","[""White""]","No","Female","882064.599999994","10383","","","{""price_1"":""399"",""price_2"":""399"",""price_3"":""399""}","rating","ctd","attraction_1","2","televisions","null","null","null","null","null","null","1","50","60","45","60","50","60","Screen size","Average lifespan","",""
"","","","","","","instructions","83","598775","0.0-4.0","109","1","2025-04-11 14:51:42","bb671e3ae32f654b8954ea4c4635f915","","Mozilla/5.0 (Windows NT 10.0; Win64; x64) AppleWebKit/537.36 (KHTML, like Gecko) Chrome/135.0.0.0 Safari/537.36","WebKit","Chrome","135.0.0.0","Windows","10.0","https://hz8g1ckzuq.cognition.run/","en-US,en;q=0.9","4ce8of9ceuylv13","33","[""White""]","No","Female","882064.599999994","129637","[{""page_index"":0,""viewing_time"":1382},{""page_index"":1,""viewing_time"":1156},{""page_index"":2,""viewing_time"":108343},{""page_index"":3,""viewing_time"":4509},{""page_index"":4,""viewing_time"":3759},{""page_index"":5,""viewing_time"":3293},{""page_index"":6,""viewing_time"":4859},{""page_index"":7,""viewing_time"":2336}]","","","","","","","","","","","","","","","","","","","","","","","",""
"","","","","","choice_trial_setup","html-keyboard-response","84","599082","0.0-5.0-0.0","109","1","2025-04-11 14:51:42","bb671e3ae32f654b8954ea4c4635f915","","Mozilla/5.0 (Windows NT 10.0; Win64; x64) AppleWebKit/537.36 (KHTML, like Gecko) Chrome/135.0.0.0 Safari/537.36","WebKit","Chrome","135.0.0.0","Windows","10.0","https://hz8g1ckzuq.cognition.run/","en-US,en;q=0.9","4ce8of9ceuylv13","33","[""White""]","No","Female","882064.599999994","null","","<p></p>","null","choice","dct","repulsion_1","2","microwave ovens","null","null","null","null","null","null","2","","","","","","","","","",""
"","","","","","choice_trial","survey-html-form","85","605407","0.0-5.0-1.0","109","1","2025-04-11 14:51:42","bb671e3ae32f654b8954ea4c4635f915","","Mozilla/5.0 (Windows NT 10.0; Win64; x64) AppleWebKit/537.36 (KHTML, like Gecko) Chrome/135.0.0.0 Safari/537.36","WebKit","Chrome","135.0.0.0","Windows","10.0","https://hz8g1ckzuq.cognition.run/","en-US,en;q=0.9","4ce8of9ceuylv13","33","[""White""]","No","Female","882064.599999994","6319","","","{""product_choice"":""B""}","choice","dct","repulsion_1","2","microwave ovens","null","null","null","null","null","null","2","30","40","25","100","90","100","Warranty","Cooking power","",""
"","","","","","choice_trial_setup","html-keyboard-response","86","605712","0.0-5.0-0.1","109","1","2025-04-11 14:51:42","bb671e3ae32f654b8954ea4c4635f915","","Mozilla/5.0 (Windows NT 10.0; Win64; x64) AppleWebKit/537.36 (KHTML, like Gecko) Chrome/135.0.0.0 Safari/537.36","WebKit","Chrome","135.0.0.0","Windows","10.0","https://hz8g1ckzuq.cognition.run/","en-US,en;q=0.9","4ce8of9ceuylv13","33","[""White""]","No","Female","882064.599999994","null","","<p></p>","null","choice","dct","attraction_2","1","televisions","null","null","null","null","null","null","1","","","","","","","","","",""
"","","","","","choice_trial","survey-html-form","87","614437","0.0-5.0-1.1","109","1","2025-04-11 14:51:42","bb671e3ae32f654b8954ea4c4635f915","","Mozilla/5.0 (Windows NT 10.0; Win64; x64) AppleWebKit/537.36 (KHTML, like Gecko) Chrome/135.0.0.0 Safari/537.36","WebKit","Chrome","135.0.0.0","Windows","10.0","https://hz8g1ckzuq.cognition.run/","en-US,en;q=0.9","4ce8of9ceuylv13","33","[""White""]","No","Female","882064.599999994","8720","","","{""product_choice"":""C""}","choice","dct","attraction_2","1","televisions","null","null","null","null","null","null","1","60","50","60","50","60","40","Screen size","Average lifespan","",""
"","","","","","choice_trial_setup","html-keyboard-response","88","614743","0.0-5.0-0.2","109","1","2025-04-11 14:51:42","bb671e3ae32f654b8954ea4c4635f915","","Mozilla/5.0 (Windows NT 10.0; Win64; x64) AppleWebKit/537.36 (KHTML, like Gecko) Chrome/135.0.0.0 Safari/537.36","WebKit","Chrome","135.0.0.0","Windows","10.0","https://hz8g1ckzuq.cognition.run/","en-US,en;q=0.9","4ce8of9ceuylv13","33","[""White""]","No","Female","882064.599999994","null","","<p></p>","null","choice","dtc","repulsion_2","1","laptops","null","null","null","null","null","null","1","","","","","","","","","",""
"","","","","","choice_trial","survey-html-form","89","624707","0.0-5.0-1.2","109","1","2025-04-11 14:51:42","bb671e3ae32f654b8954ea4c4635f915","","Mozilla/5.0 (Windows NT 10.0; Win64; x64) AppleWebKit/537.36 (KHTML, like Gecko) Chrome/135.0.0.0 Safari/537.36","WebKit","Chrome","135.0.0.0","Windows","10.0","https://hz8g1ckzuq.cognition.run/","en-US,en;q=0.9","4ce8of9ceuylv13","33","[""White""]","No","Female","882064.599999994","9959","","","{""product_choice"":""C""}","choice","dtc","repulsion_2","1","laptops","null","null","null","null","null","null","1","100","90","100","30","40","20","Processing speed","Memory (RAM)","",""
"","","","","","choice_trial_setup","html-keyboard-response","90","625011","0.0-5.0-0.3","109","1","2025-04-11 14:51:42","bb671e3ae32f654b8954ea4c4635f915","","Mozilla/5.0 (Windows NT 10.0; Win64; x64) AppleWebKit/537.36 (KHTML, like Gecko) Chrome/135.0.0.0 Safari/537.36","WebKit","Chrome","135.0.0.0","Windows","10.0","https://hz8g1ckzuq.cognition.run/","en-US,en;q=0.9","4ce8of9ceuylv13","33","[""White""]","No","Female","882064.599999994","null","","<p></p>","null","choice","tdc","attraction_2","2","microwave ovens","null","null","null","null","null","null","1","","","","","","","","","",""
"","","","","","choice_trial","survey-html-form","91","628891","0.0-5.0-1.3","109","1","2025-04-11 14:51:42","bb671e3ae32f654b8954ea4c4635f915","","Mozilla/5.0 (Windows NT 10.0; Win64; x64) AppleWebKit/537.36 (KHTML, like Gecko) Chrome/135.0.0.0 Safari/537.36","WebKit","Chrome","135.0.0.0","Windows","10.0","https://hz8g1ckzuq.cognition.run/","en-US,en;q=0.9","4ce8of9ceuylv13","33","[""White""]","No","Female","882064.599999994","3876","","","{""product_choice"":""C""}","choice","tdc","attraction_2","2","microwave ovens","null","null","null","null","null","null","1","50","60","40","60","50","60","Warranty","Cooking power","",""
"","","","","","choice_trial_setup","html-keyboard-response","92","629197","0.0-5.0-0.4","109","1","2025-04-11 14:51:42","bb671e3ae32f654b8954ea4c4635f915","","Mozilla/5.0 (Windows NT 10.0; Win64; x64) AppleWebKit/537.36 (KHTML, like Gecko) Chrome/135.0.0.0 Safari/537.36","WebKit","Chrome","135.0.0.0","Windows","10.0","https://hz8g1ckzuq.cognition.run/","en-US,en;q=0.9","4ce8of9ceuylv13","33","[""White""]","No","Female","882064.599999994","null","","<p></p>","null","choice","cdt","repulsion_2","1","microwave ovens","null","null","null","null","null","null","2","","","","","","","","","",""
"","","","","","choice_trial","survey-html-form","93","645903","0.0-5.0-1.4","109","1","2025-04-11 14:51:42","bb671e3ae32f654b8954ea4c4635f915","","Mozilla/5.0 (Windows NT 10.0; Win64; x64) AppleWebKit/537.36 (KHTML, like Gecko) Chrome/135.0.0.0 Safari/537.36","WebKit","Chrome","135.0.0.0","Windows","10.0","https://hz8g1ckzuq.cognition.run/","en-US,en;q=0.9","4ce8of9ceuylv13","33","[""White""]","No","Female","882064.599999994","16702","","","{""product_choice"":""A""}","choice","cdt","repulsion_2","1","microwave ovens","null","null","null","null","null","null","2","100","90","100","30","40","20","Warranty","Cooking power","",""
"","","","","","choice_trial_setup","html-keyboard-response","94","646209","0.0-5.0-0.5","109","1","2025-04-11 14:51:42","bb671e3ae32f654b8954ea4c4635f915","","Mozilla/5.0 (Windows NT 10.0; Win64; x64) AppleWebKit/537.36 (KHTML, like Gecko) Chrome/135.0.0.0 Safari/537.36","WebKit","Chrome","135.0.0.0","Windows","10.0","https://hz8g1ckzuq.cognition.run/","en-US,en;q=0.9","4ce8of9ceuylv13","33","[""White""]","No","Female","882064.599999994","null","","<p></p>","null","choice","tcd","repulsion_1","1","televisions","null","null","null","null","null","null","1","","","","","","","","","",""
"","","","","","choice_trial","survey-html-form","95","652010","0.0-5.0-1.5","109","1","2025-04-11 14:51:42","bb671e3ae32f654b8954ea4c4635f915","","Mozilla/5.0 (Windows NT 10.0; Win64; x64) AppleWebKit/537.36 (KHTML, like Gecko) Chrome/135.0.0.0 Safari/537.36","WebKit","Chrome","135.0.0.0","Windows","10.0","https://hz8g1ckzuq.cognition.run/","en-US,en;q=0.9","4ce8of9ceuylv13","33","[""White""]","No","Female","882064.599999994","5796","","","{""product_choice"":""B""}","choice","tcd","repulsion_1","1","televisions","null","null","null","null","null","null","1","100","90","100","30","40","25","Screen size","Average lifespan","",""
"","","","","","choice_trial_setup","html-keyboard-response","96","652314","0.0-5.0-0.6","109","1","2025-04-11 14:51:42","bb671e3ae32f654b8954ea4c4635f915","","Mozilla/5.0 (Windows NT 10.0; Win64; x64) AppleWebKit/537.36 (KHTML, like Gecko) Chrome/135.0.0.0 Safari/537.36","WebKit","Chrome","135.0.0.0","Windows","10.0","https://hz8g1ckzuq.cognition.run/","en-US,en;q=0.9","4ce8of9ceuylv13","33","[""White""]","No","Female","882064.599999994","null","","<p></p>","null","choice","tcd","repulsion_1","2","laptops","null","null","null","null","null","null","2","","","","","","","","","",""
"","","","","","choice_trial","survey-html-form","97","656381","0.0-5.0-1.6","109","1","2025-04-11 14:51:42","bb671e3ae32f654b8954ea4c4635f915","","Mozilla/5.0 (Windows NT 10.0; Win64; x64) AppleWebKit/537.36 (KHTML, like Gecko) Chrome/135.0.0.0 Safari/537.36","WebKit","Chrome","135.0.0.0","Windows","10.0","https://hz8g1ckzuq.cognition.run/","en-US,en;q=0.9","4ce8of9ceuylv13","33","[""White""]","No","Female","882064.599999994","4062","","","{""product_choice"":""B""}","choice","tcd","repulsion_1","2","laptops","null","null","null","null","null","null","2","30","40","25","100","90","100","Processing speed","Memory (RAM)","",""
"","","","","","choice_trial_setup","html-keyboard-response","98","656688","0.0-5.0-0.7","109","1","2025-04-11 14:51:42","bb671e3ae32f654b8954ea4c4635f915","","Mozilla/5.0 (Windows NT 10.0; Win64; x64) AppleWebKit/537.36 (KHTML, like Gecko) Chrome/135.0.0.0 Safari/537.36","WebKit","Chrome","135.0.0.0","Windows","10.0","https://hz8g1ckzuq.cognition.run/","en-US,en;q=0.9","4ce8of9ceuylv13","33","[""White""]","No","Female","882064.599999994","null","","<p></p>","null","choice","wbw","catch","null","washing machines","65","70","20","40","50","20","2","","","","","","","","","",""
"","","","","","choice_trial","survey-html-form","99","669633","0.0-5.0-1.7","109","1","2025-04-11 14:51:42","bb671e3ae32f654b8954ea4c4635f915","","Mozilla/5.0 (Windows NT 10.0; Win64; x64) AppleWebKit/537.36 (KHTML, like Gecko) Chrome/135.0.0.0 Safari/537.36","WebKit","Chrome","135.0.0.0","Windows","10.0","https://hz8g1ckzuq.cognition.run/","en-US,en;q=0.9","4ce8of9ceuylv13","33","[""White""]","No","Female","882064.599999994","12939","","","{""product_choice"":""B""}","choice","wbw","catch","null","washing machines","65","70","20","40","50","20","2","null","null","null","null","null","null","Average lifespan","Energy savings","",""
"","","","","","choice_trial_setup","html-keyboard-response","100","669939","0.0-5.0-0.8","109","1","2025-04-11 14:51:42","bb671e3ae32f654b8954ea4c4635f915","","Mozilla/5.0 (Windows NT 10.0; Win64; x64) AppleWebKit/537.36 (KHTML, like Gecko) Chrome/135.0.0.0 Safari/537.36","WebKit","Chrome","135.0.0.0","Windows","10.0","https://hz8g1ckzuq.cognition.run/","en-US,en;q=0.9","4ce8of9ceuylv13","33","[""White""]","No","Female","882064.599999994","null","","<p></p>","null","choice","ctd","attraction_2","2","laptops","null","null","null","null","null","null","2","","","","","","","","","",""
"","","","","","choice_trial","survey-html-form","101","672983","0.0-5.0-1.8","109","1","2025-04-11 14:51:42","bb671e3ae32f654b8954ea4c4635f915","","Mozilla/5.0 (Windows NT 10.0; Win64; x64) AppleWebKit/537.36 (KHTML, like Gecko) Chrome/135.0.0.0 Safari/537.36","WebKit","Chrome","135.0.0.0","Windows","10.0","https://hz8g1ckzuq.cognition.run/","en-US,en;q=0.9","4ce8of9ceuylv13","33","[""White""]","No","Female","882064.599999994","3038","","","{""product_choice"":""B""}","choice","ctd","attraction_2","2","laptops","null","null","null","null","null","null","2","50","60","40","60","50","60","Processing speed","Memory (RAM)","",""
"","","","","","choice_trial_setup","html-keyboard-response","102","673289","0.0-5.0-0.9","109","1","2025-04-11 14:51:42","bb671e3ae32f654b8954ea4c4635f915","","Mozilla/5.0 (Windows NT 10.0; Win64; x64) AppleWebKit/537.36 (KHTML, like Gecko) Chrome/135.0.0.0 Safari/537.36","WebKit","Chrome","135.0.0.0","Windows","10.0","https://hz8g1ckzuq.cognition.run/","en-US,en;q=0.9","4ce8of9ceuylv13","33","[""White""]","No","Female","882064.599999994","null","","<p></p>","null","choice","tdc","repulsion_1","1","microwave ovens","null","null","null","null","null","null","1","","","","","","","","","",""
"","","","","","choice_trial","survey-html-form","103","676525","0.0-5.0-1.9","109","1","2025-04-11 14:51:42","bb671e3ae32f654b8954ea4c4635f915","","Mozilla/5.0 (Windows NT 10.0; Win64; x64) AppleWebKit/537.36 (KHTML, like Gecko) Chrome/135.0.0.0 Safari/537.36","WebKit","Chrome","135.0.0.0","Windows","10.0","https://hz8g1ckzuq.cognition.run/","en-US,en;q=0.9","4ce8of9ceuylv13","33","[""White""]","No","Female","882064.599999994","3231","","","{""product_choice"":""C""}","choice","tdc","repulsion_1","1","microwave ovens","null","null","null","null","null","null","1","100","90","100","30","40","25","Warranty","Cooking power","",""
"","","","","","choice_trial_setup","html-keyboard-response","104","676832","0.0-5.0-0.10","109","1","2025-04-11 14:51:42","bb671e3ae32f654b8954ea4c4635f915","","Mozilla/5.0 (Windows NT 10.0; Win64; x64) AppleWebKit/537.36 (KHTML, like Gecko) Chrome/135.0.0.0 Safari/537.36","WebKit","Chrome","135.0.0.0","Windows","10.0","https://hz8g1ckzuq.cognition.run/","en-US,en;q=0.9","4ce8of9ceuylv13","33","[""White""]","No","Female","882064.599999994","null","","<p></p>","null","choice","tcd","repulsion_1","2","washing machines","null","null","null","null","null","null","1","","","","","","","","","",""
"","","","","","choice_trial","survey-html-form","105","680479","0.0-5.0-1.10","109","1","2025-04-11 14:51:42","bb671e3ae32f654b8954ea4c4635f915","","Mozilla/5.0 (Windows NT 10.0; Win64; x64) AppleWebKit/537.36 (KHTML, like Gecko) Chrome/135.0.0.0 Safari/537.36","WebKit","Chrome","135.0.0.0","Windows","10.0","https://hz8g1ckzuq.cognition.run/","en-US,en;q=0.9","4ce8of9ceuylv13","33","[""White""]","No","Female","882064.599999994","3642","","","{""product_choice"":""B""}","choice","tcd","repulsion_1","2","washing machines","null","null","null","null","null","null","1","30","40","25","100","90","100","Average lifespan","Energy savings","",""
"","","","","","choice_trial_setup","html-keyboard-response","106","680784","0.0-5.0-0.11","109","1","2025-04-11 14:51:42","bb671e3ae32f654b8954ea4c4635f915","","Mozilla/5.0 (Windows NT 10.0; Win64; x64) AppleWebKit/537.36 (KHTML, like Gecko) Chrome/135.0.0.0 Safari/537.36","WebKit","Chrome","135.0.0.0","Windows","10.0","https://hz8g1ckzuq.cognition.run/","en-US,en;q=0.9","4ce8of9ceuylv13","33","[""White""]","No","Female","882064.599999994","null","","<p></p>","null","choice","wbw","catch","null","televisions","60","80","30","45","50","40","1","","","","","","","","","",""
"","","","","","choice_trial","survey-html-form","107","686523","0.0-5.0-1.11","109","1","2025-04-11 14:51:42","bb671e3ae32f654b8954ea4c4635f915","","Mozilla/5.0 (Windows NT 10.0; Win64; x64) AppleWebKit/537.36 (KHTML, like Gecko) Chrome/135.0.0.0 Safari/537.36","WebKit","Chrome","135.0.0.0","Windows","10.0","https://hz8g1ckzuq.cognition.run/","en-US,en;q=0.9","4ce8of9ceuylv13","33","[""White""]","No","Female","882064.599999994","5736","","","{""product_choice"":""B""}","choice","wbw","catch","null","televisions","60","80","30","45","50","40","1","null","null","null","null","null","null","Screen size","Average lifespan","",""
"","","","","","choice_trial_setup","html-keyboard-response","108","686827","0.0-5.0-0.12","109","1","2025-04-11 14:51:42","bb671e3ae32f654b8954ea4c4635f915","","Mozilla/5.0 (Windows NT 10.0; Win64; x64) AppleWebKit/537.36 (KHTML, like Gecko) Chrome/135.0.0.0 Safari/537.36","WebKit","Chrome","135.0.0.0","Windows","10.0","https://hz8g1ckzuq.cognition.run/","en-US,en;q=0.9","4ce8of9ceuylv13","33","[""White""]","No","Female","882064.599999994","null","","<p></p>","null","choice","dtc","repulsion_2","2","televisions","null","null","null","null","null","null","1","","","","","","","","","",""
"","","","","","choice_trial","survey-html-form","109","691341","0.0-5.0-1.12","109","1","2025-04-11 14:51:42","bb671e3ae32f654b8954ea4c4635f915","","Mozilla/5.0 (Windows NT 10.0; Win64; x64) AppleWebKit/537.36 (KHTML, like Gecko) Chrome/135.0.0.0 Safari/537.36","WebKit","Chrome","135.0.0.0","Windows","10.0","https://hz8g1ckzuq.cognition.run/","en-US,en;q=0.9","4ce8of9ceuylv13","33","[""White""]","No","Female","882064.599999994","4510","","","{""product_choice"":""C""}","choice","dtc","repulsion_2","2","televisions","null","null","null","null","null","null","1","30","40","20","100","90","100","Screen size","Average lifespan","",""
"","","","","","choice_trial_setup","html-keyboard-response","110","691647","0.0-5.0-0.13","109","1","2025-04-11 14:51:42","bb671e3ae32f654b8954ea4c4635f915","","Mozilla/5.0 (Windows NT 10.0; Win64; x64) AppleWebKit/537.36 (KHTML, like Gecko) Chrome/135.0.0.0 Safari/537.36","WebKit","Chrome","135.0.0.0","Windows","10.0","https://hz8g1ckzuq.cognition.run/","en-US,en;q=0.9","4ce8of9ceuylv13","33","[""White""]","No","Female","882064.599999994","null","","<p></p>","null","choice","cdt","attraction_1","2","televisions","null","null","null","null","null","null","2","","","","","","","","","",""
"","","","","","choice_trial","survey-html-form","111","697089","0.0-5.0-1.13","109","1","2025-04-11 14:51:42","bb671e3ae32f654b8954ea4c4635f915","","Mozilla/5.0 (Windows NT 10.0; Win64; x64) AppleWebKit/537.36 (KHTML, like Gecko) Chrome/135.0.0.0 Safari/537.36","WebKit","Chrome","135.0.0.0","Windows","10.0","https://hz8g1ckzuq.cognition.run/","en-US,en;q=0.9","4ce8of9ceuylv13","33","[""White""]","No","Female","882064.599999994","5437","","","{""product_choice"":""C""}","choice","cdt","attraction_1","2","televisions","null","null","null","null","null","null","2","50","60","45","60","50","60","Screen size","Average lifespan","",""
"","","","","","choice_trial_setup","html-keyboard-response","112","697394","0.0-5.0-0.14","109","1","2025-04-11 14:51:42","bb671e3ae32f654b8954ea4c4635f915","","Mozilla/5.0 (Windows NT 10.0; Win64; x64) AppleWebKit/537.36 (KHTML, like Gecko) Chrome/135.0.0.0 Safari/537.36","WebKit","Chrome","135.0.0.0","Windows","10.0","https://hz8g1ckzuq.cognition.run/","en-US,en;q=0.9","4ce8of9ceuylv13","33","[""White""]","No","Female","882064.599999994","null","","<p></p>","null","choice","cdt","repulsion_2","2","laptops","null","null","null","null","null","null","1","","","","","","","","","",""
"","","","","","choice_trial","survey-html-form","113","701350","0.0-5.0-1.14","109","1","2025-04-11 14:51:42","bb671e3ae32f654b8954ea4c4635f915","","Mozilla/5.0 (Windows NT 10.0; Win64; x64) AppleWebKit/537.36 (KHTML, like Gecko) Chrome/135.0.0.0 Safari/537.36","WebKit","Chrome","135.0.0.0","Windows","10.0","https://hz8g1ckzuq.cognition.run/","en-US,en;q=0.9","4ce8of9ceuylv13","33","[""White""]","No","Female","882064.599999994","3950","","","{""product_choice"":""A""}","choice","cdt","repulsion_2","2","laptops","null","null","null","null","null","null","1","30","40","20","100","90","100","Processing speed","Memory (RAM)","",""
"","","","","","choice_trial_setup","html-keyboard-response","114","701657","0.0-5.0-0.15","109","1","2025-04-11 14:51:42","bb671e3ae32f654b8954ea4c4635f915","","Mozilla/5.0 (Windows NT 10.0; Win64; x64) AppleWebKit/537.36 (KHTML, like Gecko) Chrome/135.0.0.0 Safari/537.36","WebKit","Chrome","135.0.0.0","Windows","10.0","https://hz8g1ckzuq.cognition.run/","en-US,en;q=0.9","4ce8of9ceuylv13","33","[""White""]","No","Female","882064.599999994","null","","<p></p>","null","choice","dtc","attraction_2","1","washing machines","null","null","null","null","null","null","1","","","","","","","","","",""
"","","","","","choice_trial","survey-html-form","115","704806","0.0-5.0-1.15","109","1","2025-04-11 14:51:42","bb671e3ae32f654b8954ea4c4635f915","","Mozilla/5.0 (Windows NT 10.0; Win64; x64) AppleWebKit/537.36 (KHTML, like Gecko) Chrome/135.0.0.0 Safari/537.36","WebKit","Chrome","135.0.0.0","Windows","10.0","https://hz8g1ckzuq.cognition.run/","en-US,en;q=0.9","4ce8of9ceuylv13","33","[""White""]","No","Female","882064.599999994","3144","","","{""product_choice"":""B""}","choice","dtc","attraction_2","1","washing machines","null","null","null","null","null","null","1","60","50","60","50","60","40","Average lifespan","Energy savings","",""
"","","","","","choice_trial_setup","html-keyboard-response","116","705110","0.0-5.0-0.16","109","1","2025-04-11 14:51:42","bb671e3ae32f654b8954ea4c4635f915","","Mozilla/5.0 (Windows NT 10.0; Win64; x64) AppleWebKit/537.36 (KHTML, like Gecko) Chrome/135.0.0.0 Safari/537.36","WebKit","Chrome","135.0.0.0","Windows","10.0","https://hz8g1ckzuq.cognition.run/","en-US,en;q=0.9","4ce8of9ceuylv13","33","[""White""]","No","Female","882064.599999994","null","","<p></p>","null","choice","tcd","attraction_2","2","washing machines","null","null","null","null","null","null","1","","","","","","","","","",""
"","","","","","choice_trial","survey-html-form","117","715825","0.0-5.0-1.16","109","1","2025-04-11 14:51:42","bb671e3ae32f654b8954ea4c4635f915","","Mozilla/5.0 (Windows NT 10.0; Win64; x64) AppleWebKit/537.36 (KHTML, like Gecko) Chrome/135.0.0.0 Safari/537.36","WebKit","Chrome","135.0.0.0","Windows","10.0","https://hz8g1ckzuq.cognition.run/","en-US,en;q=0.9","4ce8of9ceuylv13","33","[""White""]","No","Female","882064.599999994","10712","","","{""product_choice"":""B""}","choice","tcd","attraction_2","2","washing machines","null","null","null","null","null","null","1","50","60","40","60","50","60","Average lifespan","Energy savings","",""
"","","","","","choice_trial_setup","html-keyboard-response","118","716127","0.0-5.0-0.17","109","1","2025-04-11 14:51:42","bb671e3ae32f654b8954ea4c4635f915","","Mozilla/5.0 (Windows NT 10.0; Win64; x64) AppleWebKit/537.36 (KHTML, like Gecko) Chrome/135.0.0.0 Safari/537.36","WebKit","Chrome","135.0.0.0","Windows","10.0","https://hz8g1ckzuq.cognition.run/","en-US,en;q=0.9","4ce8of9ceuylv13","33","[""White""]","No","Female","882064.599999994","null","","<p></p>","null","choice","ctd","repulsion_2","2","microwave ovens","null","null","null","null","null","null","2","","","","","","","","","",""
"","","","","","choice_trial","survey-html-form","119","721612","0.0-5.0-1.17","109","1","2025-04-11 14:51:42","bb671e3ae32f654b8954ea4c4635f915","","Mozilla/5.0 (Windows NT 10.0; Win64; x64) AppleWebKit/537.36 (KHTML, like Gecko) Chrome/135.0.0.0 Safari/537.36","WebKit","Chrome","135.0.0.0","Windows","10.0","https://hz8g1ckzuq.cognition.run/","en-US,en;q=0.9","4ce8of9ceuylv13","33","[""White""]","No","Female","882064.599999994","5483","","","{""product_choice"":""A""}","choice","ctd","repulsion_2","2","microwave ovens","null","null","null","null","null","null","2","30","40","20","100","90","100","Warranty","Cooking power","",""
"","","","","","choice_trial_setup","html-keyboard-response","120","721917","0.0-5.0-0.18","109","1","2025-04-11 14:51:42","bb671e3ae32f654b8954ea4c4635f915","","Mozilla/5.0 (Windows NT 10.0; Win64; x64) AppleWebKit/537.36 (KHTML, like Gecko) Chrome/135.0.0.0 Safari/537.36","WebKit","Chrome","135.0.0.0","Windows","10.0","https://hz8g1ckzuq.cognition.run/","en-US,en;q=0.9","4ce8of9ceuylv13","33","[""White""]","No","Female","882064.599999994","null","","<p></p>","null","choice","tcd","attraction_1","1","washing machines","null","null","null","null","null","null","2","","","","","","","","","",""
"","","","","","choice_trial","survey-html-form","121","723938","0.0-5.0-1.18","109","1","2025-04-11 14:51:42","bb671e3ae32f654b8954ea4c4635f915","","Mozilla/5.0 (Windows NT 10.0; Win64; x64) AppleWebKit/537.36 (KHTML, like Gecko) Chrome/135.0.0.0 Safari/537.36","WebKit","Chrome","135.0.0.0","Windows","10.0","https://hz8g1ckzuq.cognition.run/","en-US,en;q=0.9","4ce8of9ceuylv13","33","[""White""]","No","Female","882064.599999994","2014","","","{""product_choice"":""B""}","choice","tcd","attraction_1","1","washing machines","null","null","null","null","null","null","2","60","50","60","50","60","45","Average lifespan","Energy savings","",""
"","","","","","choice_trial_setup","html-keyboard-response","122","724244","0.0-5.0-0.19","109","1","2025-04-11 14:51:42","bb671e3ae32f654b8954ea4c4635f915","","Mozilla/5.0 (Windows NT 10.0; Win64; x64) AppleWebKit/537.36 (KHTML, like Gecko) Chrome/135.0.0.0 Safari/537.36","WebKit","Chrome","135.0.0.0","Windows","10.0","https://hz8g1ckzuq.cognition.run/","en-US,en;q=0.9","4ce8of9ceuylv13","33","[""White""]","No","Female","882064.599999994","null","","<p></p>","null","choice","wwb","catch","null","laptops","70","70","15","30","30","5","1","","","","","","","","","",""
"","","","","","choice_trial","survey-html-form","123","726692","0.0-5.0-1.19","109","1","2025-04-11 14:51:42","bb671e3ae32f654b8954ea4c4635f915","","Mozilla/5.0 (Windows NT 10.0; Win64; x64) AppleWebKit/537.36 (KHTML, like Gecko) Chrome/135.0.0.0 Safari/537.36","WebKit","Chrome","135.0.0.0","Windows","10.0","https://hz8g1ckzuq.cognition.run/","en-US,en;q=0.9","4ce8of9ceuylv13","33","[""White""]","No","Female","882064.599999994","2442","","","{""product_choice"":""C""}","choice","wwb","catch","null","laptops","70","70","15","30","30","5","1","null","null","null","null","null","null","Processing speed","Memory (RAM)","",""
"","","","","","choice_trial_setup","html-keyboard-response","124","726997","0.0-5.0-0.20","109","1","2025-04-11 14:51:42","bb671e3ae32f654b8954ea4c4635f915","","Mozilla/5.0 (Windows NT 10.0; Win64; x64) AppleWebKit/537.36 (KHTML, like Gecko) Chrome/135.0.0.0 Safari/537.36","WebKit","Chrome","135.0.0.0","Windows","10.0","https://hz8g1ckzuq.cognition.run/","en-US,en;q=0.9","4ce8of9ceuylv13","33","[""White""]","No","Female","882064.599999994","null","","<p></p>","null","choice","ctd","repulsion_2","1","washing machines","null","null","null","null","null","null","2","","","","","","","","","",""
"","","","","","choice_trial","survey-html-form","125","732555","0.0-5.0-1.20","109","1","2025-04-11 14:51:42","bb671e3ae32f654b8954ea4c4635f915","","Mozilla/5.0 (Windows NT 10.0; Win64; x64) AppleWebKit/537.36 (KHTML, like Gecko) Chrome/135.0.0.0 Safari/537.36","WebKit","Chrome","135.0.0.0","Windows","10.0","https://hz8g1ckzuq.cognition.run/","en-US,en;q=0.9","4ce8of9ceuylv13","33","[""White""]","No","Female","882064.599999994","5553","","","{""product_choice"":""A""}","choice","ctd","repulsion_2","1","washing machines","null","null","null","null","null","null","2","100","90","100","30","40","20","Average lifespan","Energy savings","",""
"","","","","","choice_trial_setup","html-keyboard-response","126","732860","0.0-5.0-0.21","109","1","2025-04-11 14:51:42","bb671e3ae32f654b8954ea4c4635f915","","Mozilla/5.0 (Windows NT 10.0; Win64; x64) AppleWebKit/537.36 (KHTML, like Gecko) Chrome/135.0.0.0 Safari/537.36","WebKit","Chrome","135.0.0.0","Windows","10.0","https://hz8g1ckzuq.cognition.run/","en-US,en;q=0.9","4ce8of9ceuylv13","33","[""White""]","No","Female","882064.599999994","null","","<p></p>","null","choice","wbw","catch","null","televisions","80","70","25","35","10","30","1","","","","","","","","","",""
"","","","","","choice_trial","survey-html-form","127","738261","0.0-5.0-1.21","109","1","2025-04-11 14:51:42","bb671e3ae32f654b8954ea4c4635f915","","Mozilla/5.0 (Windows NT 10.0; Win64; x64) AppleWebKit/537.36 (KHTML, like Gecko) Chrome/135.0.0.0 Safari/537.36","WebKit","Chrome","135.0.0.0","Windows","10.0","https://hz8g1ckzuq.cognition.run/","en-US,en;q=0.9","4ce8of9ceuylv13","33","[""White""]","No","Female","882064.599999994","5395","","","{""product_choice"":""B""}","choice","wbw","catch","null","televisions","80","70","25","35","10","30","1","null","null","null","null","null","null","Screen size","Average lifespan","",""
"","","","","","choice_trial_setup","html-keyboard-response","128","738566","0.0-5.0-0.22","109","1","2025-04-11 14:51:42","bb671e3ae32f654b8954ea4c4635f915","","Mozilla/5.0 (Windows NT 10.0; Win64; x64) AppleWebKit/537.36 (KHTML, like Gecko) Chrome/135.0.0.0 Safari/537.36","WebKit","Chrome","135.0.0.0","Windows","10.0","https://hz8g1ckzuq.cognition.run/","en-US,en;q=0.9","4ce8of9ceuylv13","33","[""White""]","No","Female","882064.599999994","null","","<p></p>","null","choice","wbw","catch","null","laptops","75","75","35","35","40","10","1","","","","","","","","","",""
"","","","","","choice_trial","survey-html-form","129","741469","0.0-5.0-1.22","109","1","2025-04-11 14:51:42","bb671e3ae32f654b8954ea4c4635f915","","Mozilla/5.0 (Windows NT 10.0; Win64; x64) AppleWebKit/537.36 (KHTML, like Gecko) Chrome/135.0.0.0 Safari/537.36","WebKit","Chrome","135.0.0.0","Windows","10.0","https://hz8g1ckzuq.cognition.run/","en-US,en;q=0.9","4ce8of9ceuylv13","33","[""White""]","No","Female","882064.599999994","2901","","","{""product_choice"":""B""}","choice","wbw","catch","null","laptops","75","75","35","35","40","10","1","null","null","null","null","null","null","Processing speed","Memory (RAM)","",""
"","","","","","choice_trial_setup","html-keyboard-response","130","741776","0.0-5.0-0.23","109","1","2025-04-11 14:51:42","bb671e3ae32f654b8954ea4c4635f915","","Mozilla/5.0 (Windows NT 10.0; Win64; x64) AppleWebKit/537.36 (KHTML, like Gecko) Chrome/135.0.0.0 Safari/537.36","WebKit","Chrome","135.0.0.0","Windows","10.0","https://hz8g1ckzuq.cognition.run/","en-US,en;q=0.9","4ce8of9ceuylv13","33","[""White""]","No","Female","882064.599999994","null","","<p></p>","null","choice","wbw","catch","null","microwave ovens","70","70","40","15","40","15","1","","","","","","","","","",""
"","","","","","choice_trial","survey-html-form","131","744407","0.0-5.0-1.23","109","1","2025-04-11 14:51:42","bb671e3ae32f654b8954ea4c4635f915","","Mozilla/5.0 (Windows NT 10.0; Win64; x64) AppleWebKit/537.36 (KHTML, like Gecko) Chrome/135.0.0.0 Safari/537.36","WebKit","Chrome","135.0.0.0","Windows","10.0","https://hz8g1ckzuq.cognition.run/","en-US,en;q=0.9","4ce8of9ceuylv13","33","[""White""]","No","Female","882064.599999994","2629","","","{""product_choice"":""B""}","choice","wbw","catch","null","microwave ovens","70","70","40","15","40","15","1","null","null","null","null","null","null","Warranty","Cooking power","",""
"","","","","","choice_trial_setup","html-keyboard-response","132","744714","0.0-5.0-0.24","109","1","2025-04-11 14:51:42","bb671e3ae32f654b8954ea4c4635f915","","Mozilla/5.0 (Windows NT 10.0; Win64; x64) AppleWebKit/537.36 (KHTML, like Gecko) Chrome/135.0.0.0 Safari/537.36","WebKit","Chrome","135.0.0.0","Windows","10.0","https://hz8g1ckzuq.cognition.run/","en-US,en;q=0.9","4ce8of9ceuylv13","33","[""White""]","No","Female","882064.599999994","null","","<p></p>","null","choice","tcd","attraction_2","2","televisions","null","null","null","null","null","null","2","","","","","","","","","",""
"","","","","","choice_trial","survey-html-form","133","747708","0.0-5.0-1.24","109","1","2025-04-11 14:51:42","bb671e3ae32f654b8954ea4c4635f915","","Mozilla/5.0 (Windows NT 10.0; Win64; x64) AppleWebKit/537.36 (KHTML, like Gecko) Chrome/135.0.0.0 Safari/537.36","WebKit","Chrome","135.0.0.0","Windows","10.0","https://hz8g1ckzuq.cognition.run/","en-US,en;q=0.9","4ce8of9ceuylv13","33","[""White""]","No","Female","882064.599999994","2990","","","{""product_choice"":""A""}","choice","tcd","attraction_2","2","televisions","null","null","null","null","null","null","2","50","60","40","60","50","60","Screen size","Average lifespan","",""
"","","","","","choice_trial_setup","html-keyboard-response","134","748014","0.0-5.0-0.25","109","1","2025-04-11 14:51:42","bb671e3ae32f654b8954ea4c4635f915","","Mozilla/5.0 (Windows NT 10.0; Win64; x64) AppleWebKit/537.36 (KHTML, like Gecko) Chrome/135.0.0.0 Safari/537.36","WebKit","Chrome","135.0.0.0","Windows","10.0","https://hz8g1ckzuq.cognition.run/","en-US,en;q=0.9","4ce8of9ceuylv13","33","[""White""]","No","Female","882064.599999994","null","","<p></p>","null","choice","tdc","repulsion_2","1","televisions","null","null","null","null","null","null","2","","","","","","","","","",""
"","","","","","choice_trial","survey-html-form","135","761525","0.0-5.0-1.25","109","1","2025-04-11 14:51:42","bb671e3ae32f654b8954ea4c4635f915","","Mozilla/5.0 (Windows NT 10.0; Win64; x64) AppleWebKit/537.36 (KHTML, like Gecko) Chrome/135.0.0.0 Safari/537.36","WebKit","Chrome","135.0.0.0","Windows","10.0","https://hz8g1ckzuq.cognition.run/","en-US,en;q=0.9","4ce8of9ceuylv13","33","[""White""]","No","Female","882064.599999994","13506","","","{""product_choice"":""C""}","choice","tdc","repulsion_2","1","televisions","null","null","null","null","null","null","2","100","90","100","30","40","20","Screen size","Average lifespan","",""
"","","","","","choice_trial_setup","html-keyboard-response","136","761832","0.0-5.0-0.26","109","1","2025-04-11 14:51:42","bb671e3ae32f654b8954ea4c4635f915","","Mozilla/5.0 (Windows NT 10.0; Win64; x64) AppleWebKit/537.36 (KHTML, like Gecko) Chrome/135.0.0.0 Safari/537.36","WebKit","Chrome","135.0.0.0","Windows","10.0","https://hz8g1ckzuq.cognition.run/","en-US,en;q=0.9","4ce8of9ceuylv13","33","[""White""]","No","Female","882064.599999994","null","","<p></p>","null","choice","wbw","catch","null","microwave ovens","70","65","50","25","30","25","2","","","","","","","","","",""
"","","","","","choice_trial","survey-html-form","137","763768","0.0-5.0-1.26","109","1","2025-04-11 14:51:42","bb671e3ae32f654b8954ea4c4635f915","","Mozilla/5.0 (Windows NT 10.0; Win64; x64) AppleWebKit/537.36 (KHTML, like Gecko) Chrome/135.0.0.0 Safari/537.36","WebKit","Chrome","135.0.0.0","Windows","10.0","https://hz8g1ckzuq.cognition.run/","en-US,en;q=0.9","4ce8of9ceuylv13","33","[""White""]","No","Female","882064.599999994","1929","","","{""product_choice"":""B""}","choice","wbw","catch","null","microwave ovens","70","65","50","25","30","25","2","null","null","null","null","null","null","Warranty","Cooking power","",""
"","","","","","choice_trial_setup","html-keyboard-response","138","764073","0.0-5.0-0.27","109","1","2025-04-11 14:51:42","bb671e3ae32f654b8954ea4c4635f915","","Mozilla/5.0 (Windows NT 10.0; Win64; x64) AppleWebKit/537.36 (KHTML, like Gecko) Chrome/135.0.0.0 Safari/537.36","WebKit","Chrome","135.0.0.0","Windows","10.0","https://hz8g1ckzuq.cognition.run/","en-US,en;q=0.9","4ce8of9ceuylv13","33","[""White""]","No","Female","882064.599999994","null","","<p></p>","null","choice","ctd","attraction_2","1","microwave ovens","null","null","null","null","null","null","2","","","","","","","","","",""
"","","","","","choice_trial","survey-html-form","139","769653","0.0-5.0-1.27","109","1","2025-04-11 14:51:42","bb671e3ae32f654b8954ea4c4635f915","","Mozilla/5.0 (Windows NT 10.0; Win64; x64) AppleWebKit/537.36 (KHTML, like Gecko) Chrome/135.0.0.0 Safari/537.36","WebKit","Chrome","135.0.0.0","Windows","10.0","https://hz8g1ckzuq.cognition.run/","en-US,en;q=0.9","4ce8of9ceuylv13","33","[""White""]","No","Female","882064.599999994","5574","","","{""product_choice"":""A""}","choice","ctd","attraction_2","1","microwave ovens","null","null","null","null","null","null","2","60","50","60","50","60","40","Warranty","Cooking power","",""
"","","","","","choice_trial_setup","html-keyboard-response","140","769960","0.0-5.0-0.28","109","1","2025-04-11 14:51:42","bb671e3ae32f654b8954ea4c4635f915","","Mozilla/5.0 (Windows NT 10.0; Win64; x64) AppleWebKit/537.36 (KHTML, like Gecko) Chrome/135.0.0.0 Safari/537.36","WebKit","Chrome","135.0.0.0","Windows","10.0","https://hz8g1ckzuq.cognition.run/","en-US,en;q=0.9","4ce8of9ceuylv13","33","[""White""]","No","Female","882064.599999994","null","","<p></p>","null","choice","tcd","attraction_1","2","microwave ovens","null","null","null","null","null","null","1","","","","","","","","","",""
"","","","","","choice_trial","survey-html-form","141","772251","0.0-5.0-1.28","109","1","2025-04-11 14:51:42","bb671e3ae32f654b8954ea4c4635f915","","Mozilla/5.0 (Windows NT 10.0; Win64; x64) AppleWebKit/537.36 (KHTML, like Gecko) Chrome/135.0.0.0 Safari/537.36","WebKit","Chrome","135.0.0.0","Windows","10.0","https://hz8g1ckzuq.cognition.run/","en-US,en;q=0.9","4ce8of9ceuylv13","33","[""White""]","No","Female","882064.599999994","2283","","","{""product_choice"":""B""}","choice","tcd","attraction_1","2","microwave ovens","null","null","null","null","null","null","1","50","60","45","60","50","60","Warranty","Cooking power","",""
"","","","","","choice_trial_setup","html-keyboard-response","142","772559","0.0-5.0-0.29","109","1","2025-04-11 14:51:42","bb671e3ae32f654b8954ea4c4635f915","","Mozilla/5.0 (Windows NT 10.0; Win64; x64) AppleWebKit/537.36 (KHTML, like Gecko) Chrome/135.0.0.0 Safari/537.36","WebKit","Chrome","135.0.0.0","Windows","10.0","https://hz8g1ckzuq.cognition.run/","en-US,en;q=0.9","4ce8of9ceuylv13","33","[""White""]","No","Female","882064.599999994","null","","<p></p>","null","choice","tdc","repulsion_1","1","washing machines","null","null","null","null","null","null","1","","","","","","","","","",""
"","","","","","choice_trial","survey-html-form","143","775095","0.0-5.0-1.29","109","1","2025-04-11 14:51:42","bb671e3ae32f654b8954ea4c4635f915","","Mozilla/5.0 (Windows NT 10.0; Win64; x64) AppleWebKit/537.36 (KHTML, like Gecko) Chrome/135.0.0.0 Safari/537.36","WebKit","Chrome","135.0.0.0","Windows","10.0","https://hz8g1ckzuq.cognition.run/","en-US,en;q=0.9","4ce8of9ceuylv13","33","[""White""]","No","Female","882064.599999994","2531","","","{""product_choice"":""C""}","choice","tdc","repulsion_1","1","washing machines","null","null","null","null","null","null","1","100","90","100","30","40","25","Average lifespan","Energy savings","",""
"","","","","","choice_trial_setup","html-keyboard-response","144","775401","0.0-5.0-0.30","109","1","2025-04-11 14:51:42","bb671e3ae32f654b8954ea4c4635f915","","Mozilla/5.0 (Windows NT 10.0; Win64; x64) AppleWebKit/537.36 (KHTML, like Gecko) Chrome/135.0.0.0 Safari/537.36","WebKit","Chrome","135.0.0.0","Windows","10.0","https://hz8g1ckzuq.cognition.run/","en-US,en;q=0.9","4ce8of9ceuylv13","33","[""White""]","No","Female","882064.599999994","null","","<p></p>","null","choice","bww","catch","null","washing machines","60","75","50","30","50","40","1","","","","","","","","","",""
"","","","","","choice_trial","survey-html-form","145","778720","0.0-5.0-1.30","109","1","2025-04-11 14:51:42","bb671e3ae32f654b8954ea4c4635f915","","Mozilla/5.0 (Windows NT 10.0; Win64; x64) AppleWebKit/537.36 (KHTML, like Gecko) Chrome/135.0.0.0 Safari/537.36","WebKit","Chrome","135.0.0.0","Windows","10.0","https://hz8g1ckzuq.cognition.run/","en-US,en;q=0.9","4ce8of9ceuylv13","33","[""White""]","No","Female","882064.599999994","3316","","","{""product_choice"":""A""}","choice","bww","catch","null","washing machines","60","75","50","30","50","40","1","null","null","null","null","null","null","Average lifespan","Energy savings","",""
"","","","","","choice_trial_setup","html-keyboard-response","146","779027","0.0-5.0-0.31","109","1","2025-04-11 14:51:42","bb671e3ae32f654b8954ea4c4635f915","","Mozilla/5.0 (Windows NT 10.0; Win64; x64) AppleWebKit/537.36 (KHTML, like Gecko) Chrome/135.0.0.0 Safari/537.36","WebKit","Chrome","135.0.0.0","Windows","10.0","https://hz8g1ckzuq.cognition.run/","en-US,en;q=0.9","4ce8of9ceuylv13","33","[""White""]","No","Female","882064.599999994","null","","<p></p>","null","choice","dtc","repulsion_1","2","televisions","null","null","null","null","null","null","1","","","","","","","","","",""
"","","","","","choice_trial","survey-html-form","147","781786","0.0-5.0-1.31","109","1","2025-04-11 14:51:42","bb671e3ae32f654b8954ea4c4635f915","","Mozilla/5.0 (Windows NT 10.0; Win64; x64) AppleWebKit/537.36 (KHTML, like Gecko) Chrome/135.0.0.0 Safari/537.36","WebKit","Chrome","135.0.0.0","Windows","10.0","https://hz8g1ckzuq.cognition.run/","en-US,en;q=0.9","4ce8of9ceuylv13","33","[""White""]","No","Female","882064.599999994","2752","","","{""product_choice"":""C""}","choice","dtc","repulsion_1","2","televisions","null","null","null","null","null","null","1","30","40","25","100","90","100","Screen size","Average lifespan","",""
"","","","","","choice_trial_setup","html-keyboard-response","148","782092","0.0-5.0-0.32","109","1","2025-04-11 14:51:42","bb671e3ae32f654b8954ea4c4635f915","","Mozilla/5.0 (Windows NT 10.0; Win64; x64) AppleWebKit/537.36 (KHTML, like Gecko) Chrome/135.0.0.0 Safari/537.36","WebKit","Chrome","135.0.0.0","Windows","10.0","https://hz8g1ckzuq.cognition.run/","en-US,en;q=0.9","4ce8of9ceuylv13","33","[""White""]","No","Female","882064.599999994","null","","<p></p>","null","choice","ctd","repulsion_2","2","washing machines","null","null","null","null","null","null","2","","","","","","","","","",""
"","","","","","choice_trial","survey-html-form","149","785603","0.0-5.0-1.32","109","1","2025-04-11 14:51:42","bb671e3ae32f654b8954ea4c4635f915","","Mozilla/5.0 (Windows NT 10.0; Win64; x64) AppleWebKit/537.36 (KHTML, like Gecko) Chrome/135.0.0.0 Safari/537.36","WebKit","Chrome","135.0.0.0","Windows","10.0","https://hz8g1ckzuq.cognition.run/","en-US,en;q=0.9","4ce8of9ceuylv13","33","[""White""]","No","Female","882064.599999994","3506","","","{""product_choice"":""A""}","choice","ctd","repulsion_2","2","washing machines","null","null","null","null","null","null","2","30","40","20","100","90","100","Average lifespan","Energy savings","",""
"","","","","","choice_trial_setup","html-keyboard-response","150","785910","0.0-5.0-0.33","109","1","2025-04-11 14:51:42","bb671e3ae32f654b8954ea4c4635f915","","Mozilla/5.0 (Windows NT 10.0; Win64; x64) AppleWebKit/537.36 (KHTML, like Gecko) Chrome/135.0.0.0 Safari/537.36","WebKit","Chrome","135.0.0.0","Windows","10.0","https://hz8g1ckzuq.cognition.run/","en-US,en;q=0.9","4ce8of9ceuylv13","33","[""White""]","No","Female","882064.599999994","null","","<p></p>","null","choice","tcd","attraction_1","1","laptops","null","null","null","null","null","null","1","","","","","","","","","",""
"","","","","","choice_trial","survey-html-form","151","788878","0.0-5.0-1.33","109","1","2025-04-11 14:51:42","bb671e3ae32f654b8954ea4c4635f915","","Mozilla/5.0 (Windows NT 10.0; Win64; x64) AppleWebKit/537.36 (KHTML, like Gecko) Chrome/135.0.0.0 Safari/537.36","WebKit","Chrome","135.0.0.0","Windows","10.0","https://hz8g1ckzuq.cognition.run/","en-US,en;q=0.9","4ce8of9ceuylv13","33","[""White""]","No","Female","882064.599999994","2961","","","{""product_choice"":""A""}","choice","tcd","attraction_1","1","laptops","null","null","null","null","null","null","1","60","50","60","50","60","45","Processing speed","Memory (RAM)","",""
"","","","","","choice_trial_setup","html-keyboard-response","152","789186","0.0-5.0-0.34","109","1","2025-04-11 14:51:42","bb671e3ae32f654b8954ea4c4635f915","","Mozilla/5.0 (Windows NT 10.0; Win64; x64) AppleWebKit/537.36 (KHTML, like Gecko) Chrome/135.0.0.0 Safari/537.36","WebKit","Chrome","135.0.0.0","Windows","10.0","https://hz8g1ckzuq.cognition.run/","en-US,en;q=0.9","4ce8of9ceuylv13","33","[""White""]","No","Female","882064.599999994","null","","<p></p>","null","choice","tcd","attraction_1","1","televisions","null","null","null","null","null","null","1","","","","","","","","","",""
"","","","","","choice_trial","survey-html-form","153","792190","0.0-5.0-1.34","109","1","2025-04-11 14:51:42","bb671e3ae32f654b8954ea4c4635f915","","Mozilla/5.0 (Windows NT 10.0; Win64; x64) AppleWebKit/537.36 (KHTML, like Gecko) Chrome/135.0.0.0 Safari/537.36","WebKit","Chrome","135.0.0.0","Windows","10.0","https://hz8g1ckzuq.cognition.run/","en-US,en;q=0.9","4ce8of9ceuylv13","33","[""White""]","No","Female","882064.599999994","2997","","","{""product_choice"":""A""}","choice","tcd","attraction_1","1","televisions","null","null","null","null","null","null","1","60","50","60","50","60","45","Screen size","Average lifespan","",""
"","","","","","choice_trial_setup","html-keyboard-response","154","792497","0.0-5.0-0.35","109","1","2025-04-11 14:51:42","bb671e3ae32f654b8954ea4c4635f915","","Mozilla/5.0 (Windows NT 10.0; Win64; x64) AppleWebKit/537.36 (KHTML, like Gecko) Chrome/135.0.0.0 Safari/537.36","WebKit","Chrome","135.0.0.0","Windows","10.0","https://hz8g1ckzuq.cognition.run/","en-US,en;q=0.9","4ce8of9ceuylv13","33","[""White""]","No","Female","882064.599999994","null","","<p></p>","null","choice","tcd","attraction_2","1","laptops","null","null","null","null","null","null","1","","","","","","","","","",""
"","","","","","choice_trial","survey-html-form","155","799409","0.0-5.0-1.35","109","1","2025-04-11 14:51:42","bb671e3ae32f654b8954ea4c4635f915","","Mozilla/5.0 (Windows NT 10.0; Win64; x64) AppleWebKit/537.36 (KHTML, like Gecko) Chrome/135.0.0.0 Safari/537.36","WebKit","Chrome","135.0.0.0","Windows","10.0","https://hz8g1ckzuq.cognition.run/","en-US,en;q=0.9","4ce8of9ceuylv13","33","[""White""]","No","Female","882064.599999994","6907","","","{""product_choice"":""A""}","choice","tcd","attraction_2","1","laptops","null","null","null","null","null","null","1","60","50","60","50","60","40","Processing speed","Memory (RAM)","",""
"","","","","","choice_trial_setup","html-keyboard-response","156","799722","0.0-5.0-0.36","109","1","2025-04-11 14:51:42","bb671e3ae32f654b8954ea4c4635f915","","Mozilla/5.0 (Windows NT 10.0; Win64; x64) AppleWebKit/537.36 (KHTML, like Gecko) Chrome/135.0.0.0 Safari/537.36","WebKit","Chrome","135.0.0.0","Windows","10.0","https://hz8g1ckzuq.cognition.run/","en-US,en;q=0.9","4ce8of9ceuylv13","33","[""White""]","No","Female","882064.599999994","null","","<p></p>","null","choice","cdt","attraction_1","1","microwave ovens","null","null","null","null","null","null","1","","","","","","","","","",""
"","","","","","choice_trial","survey-html-form","157","805579","0.0-5.0-1.36","109","1","2025-04-11 14:51:42","bb671e3ae32f654b8954ea4c4635f915","","Mozilla/5.0 (Windows NT 10.0; Win64; x64) AppleWebKit/537.36 (KHTML, like Gecko) Chrome/135.0.0.0 Safari/537.36","WebKit","Chrome","135.0.0.0","Windows","10.0","https://hz8g1ckzuq.cognition.run/","en-US,en;q=0.9","4ce8of9ceuylv13","33","[""White""]","No","Female","882064.599999994","5851","","","{""product_choice"":""C""}","choice","cdt","attraction_1","1","microwave ovens","null","null","null","null","null","null","1","60","50","60","50","60","45","Warranty","Cooking power","",""
