"success","timeout","failed_images","failed_audio","failed_video","screen_id","trial_type","trial_index","time_elapsed","internal_node_id","run_id","condition","recorded_at","source_code_version","ip","user_agent","device","browser","browser_version","platform","platform_version","referer","accept_language","ppt_id","final_score","age","race","ethnicity","gender","exp_duration","rt","view_history","stimulus","response","phase","order","effect","t_high","category","d1_best","d2_best","d1_worst1","d2_worst1","d1_worst2","d2_worst2","first_dim","d1_t","d1_c","d1_d","d2_t","d2_c","d2_d","d1_name","d2_name","strategy_response","trialType","question_order"
"true","false","[]","[]","[]","img preload","preload","0","1372","0.0-0.0","11","1","2025-04-10 18:39:36","7bd189e8e4882776c700e1dae255cdf5","","Mozilla/5.0 (Windows NT 10.0; Win64; x64) AppleWebKit/537.36 (KHTML, like Gecko) Chrome/135.0.0.0 Safari/537.36","WebKit","Chrome","135.0.0.0","Windows","10.0","https://hz8g1ckzuq.cognition.run/","en-US,en;q=0.9","21j9z6w9rehmfcd","","54","[""White""]","No","Male","1404017.5999999642","","","","","","","","","","","","","","","","","","","","","","","","","","",""
"true","","","","","","fullscreen","1","4896","0.0-1.0","11","1","2025-04-10 18:39:36","7bd189e8e4882776c700e1dae255cdf5","","Mozilla/5.0 (Windows NT 10.0; Win64; x64) AppleWebKit/537.36 (KHTML, like Gecko) Chrome/135.0.0.0 Safari/537.36","WebKit","Chrome","135.0.0.0","Windows","10.0","https://hz8g1ckzuq.cognition.run/","en-US,en;q=0.9","21j9z6w9rehmfcd","","54","[""White""]","No","Male","1404017.5999999642","2520","","","","","","","","","","","","","","","","","","","","","","","","","",""
"","","","","","","instructions","2","94835","0.0-2.0","11","1","2025-04-10 18:39:36","7bd189e8e4882776c700e1dae255cdf5","","Mozilla/5.0 (Windows NT 10.0; Win64; x64) AppleWebKit/537.36 (KHTML, like Gecko) Chrome/135.0.0.0 Safari/537.36","WebKit","Chrome","135.0.0.0","Windows","10.0","https://hz8g1ckzuq.cognition.run/","en-US,en;q=0.9","21j9z6w9rehmfcd","","54","[""White""]","No","Male","1404017.5999999642","89939","[{""page_index"":0,""viewing_time"":1856},{""page_index"":1,""viewing_time"":6920},{""page_index"":2,""viewing_time"":4140},{""page_index"":3,""viewing_time"":46221},{""page_index"":4,""viewing_time"":4540},{""page_index"":5,""viewing_time"":2800},{""page_index"":6,""viewing_time"":3530},{""page_index"":7,""viewing_time"":12171},{""page_index"":8,""viewing_time"":3740},{""page_index"":9,""viewing_time"":4020}]","","","","","","","","","","","","","","","","","","","","","","","","",""
"","","","","","rating_trial_setup","html-keyboard-response","3","95139","0.0-3.0-0.0","11","1","2025-04-10 18:39:36","7bd189e8e4882776c700e1dae255cdf5","","Mozilla/5.0 (Windows NT 10.0; Win64; x64) AppleWebKit/537.36 (KHTML, like Gecko) Chrome/135.0.0.0 Safari/537.36","WebKit","Chrome","135.0.0.0","Windows","10.0","https://hz8g1ckzuq.cognition.run/","en-US,en;q=0.9","21j9z6w9rehmfcd","","54","[""White""]","No","Male","1404017.5999999642","null","","<p></p>","null","rating","dct","repulsion_1","1","washing machines","null","null","null","null","null","null","2","","","","","","","","","","",""
"","","","","","rating_trial","survey-html-form","4","146896","0.0-3.0-1.0","11","1","2025-04-10 18:39:36","7bd189e8e4882776c700e1dae255cdf5","","Mozilla/5.0 (Windows NT 10.0; Win64; x64) AppleWebKit/537.36 (KHTML, like Gecko) Chrome/135.0.0.0 Safari/537.36","WebKit","Chrome","135.0.0.0","Windows","10.0","https://hz8g1ckzuq.cognition.run/","en-US,en;q=0.9","21j9z6w9rehmfcd","","54","[""White""]","No","Male","1404017.5999999642","51755","","","{""price_1"":""70"",""price_2"":""60"",""price_3"":""70""}","rating","dct","repulsion_1","1","washing machines","null","null","null","null","null","null","2","100","90","100","30","40","25","Average lifespan","Energy savings","","",""
"","","","","","rating_trial_setup","html-keyboard-response","5","147199","0.0-3.0-0.1","11","1","2025-04-10 18:39:36","7bd189e8e4882776c700e1dae255cdf5","","Mozilla/5.0 (Windows NT 10.0; Win64; x64) AppleWebKit/537.36 (KHTML, like Gecko) Chrome/135.0.0.0 Safari/537.36","WebKit","Chrome","135.0.0.0","Windows","10.0","https://hz8g1ckzuq.cognition.run/","en-US,en;q=0.9","21j9z6w9rehmfcd","","54","[""White""]","No","Male","1404017.5999999642","null","","<p></p>","null","rating","bww","catch","null","televisions","95","60","10","20","30","40","1","","","","","","","","","","",""
"","","","","","rating_trial","survey-html-form","6","192875","0.0-3.0-1.1","11","1","2025-04-10 18:39:36","7bd189e8e4882776c700e1dae255cdf5","","Mozilla/5.0 (Windows NT 10.0; Win64; x64) AppleWebKit/537.36 (KHTML, like Gecko) Chrome/135.0.0.0 Safari/537.36","WebKit","Chrome","135.0.0.0","Windows","10.0","https://hz8g1ckzuq.cognition.run/","en-US,en;q=0.9","21j9z6w9rehmfcd","","54","[""White""]","No","Male","1404017.5999999642","45675","","","{""price_1"":""80"",""price_2"":""30"",""price_3"":""35""}","rating","bww","catch","null","televisions","95","60","10","20","30","40","1","null","null","null","null","null","null","Screen size","Average lifespan","","",""
"","","","","","rating_trial_setup","html-keyboard-response","7","193179","0.0-3.0-0.2","11","1","2025-04-10 18:39:36","7bd189e8e4882776c700e1dae255cdf5","","Mozilla/5.0 (Windows NT 10.0; Win64; x64) AppleWebKit/537.36 (KHTML, like Gecko) Chrome/135.0.0.0 Safari/537.36","WebKit","Chrome","135.0.0.0","Windows","10.0","https://hz8g1ckzuq.cognition.run/","en-US,en;q=0.9","21j9z6w9rehmfcd","","54","[""White""]","No","Male","1404017.5999999642","null","","<p></p>","null","rating","dtc","repulsion_1","2","washing machines","null","null","null","null","null","null","1","","","","","","","","","","",""
"","","","","","rating_trial","survey-html-form","8","211371","0.0-3.0-1.2","11","1","2025-04-10 18:39:36","7bd189e8e4882776c700e1dae255cdf5","","Mozilla/5.0 (Windows NT 10.0; Win64; x64) AppleWebKit/537.36 (KHTML, like Gecko) Chrome/135.0.0.0 Safari/537.36","WebKit","Chrome","135.0.0.0","Windows","10.0","https://hz8g1ckzuq.cognition.run/","en-US,en;q=0.9","21j9z6w9rehmfcd","","54","[""White""]","No","Male","1404017.5999999642","18189","","","{""price_1"":""70"",""price_2"":""80"",""price_3"":""50""}","rating","dtc","repulsion_1","2","washing machines","null","null","null","null","null","null","1","30","40","25","100","90","100","Average lifespan","Energy savings","","",""
"","","","","","rating_trial_setup","html-keyboard-response","9","211674","0.0-3.0-0.3","11","1","2025-04-10 18:39:36","7bd189e8e4882776c700e1dae255cdf5","","Mozilla/5.0 (Windows NT 10.0; Win64; x64) AppleWebKit/537.36 (KHTML, like Gecko) Chrome/135.0.0.0 Safari/537.36","WebKit","Chrome","135.0.0.0","Windows","10.0","https://hz8g1ckzuq.cognition.run/","en-US,en;q=0.9","21j9z6w9rehmfcd","","54","[""White""]","No","Male","1404017.5999999642","null","","<p></p>","null","rating","tdc","attraction_2","2","televisions","null","null","null","null","null","null","2","","","","","","","","","","",""
"","","","","","rating_trial","survey-html-form","10","247681","0.0-3.0-1.3","11","1","2025-04-10 18:39:36","7bd189e8e4882776c700e1dae255cdf5","","Mozilla/5.0 (Windows NT 10.0; Win64; x64) AppleWebKit/537.36 (KHTML, like Gecko) Chrome/135.0.0.0 Safari/537.36","WebKit","Chrome","135.0.0.0","Windows","10.0","https://hz8g1ckzuq.cognition.run/","en-US,en;q=0.9","21j9z6w9rehmfcd","","54","[""White""]","No","Male","1404017.5999999642","36005","","","{""price_1"":""70"",""price_2"":""65"",""price_3"":""65""}","rating","tdc","attraction_2","2","televisions","null","null","null","null","null","null","2","50","60","40","60","50","60","Screen size","Average lifespan","","",""
"","","","","","rating_trial_setup","html-keyboard-response","11","247984","0.0-3.0-0.4","11","1","2025-04-10 18:39:36","7bd189e8e4882776c700e1dae255cdf5","","Mozilla/5.0 (Windows NT 10.0; Win64; x64) AppleWebKit/537.36 (KHTML, like Gecko) Chrome/135.0.0.0 Safari/537.36","WebKit","Chrome","135.0.0.0","Windows","10.0","https://hz8g1ckzuq.cognition.run/","en-US,en;q=0.9","21j9z6w9rehmfcd","","54","[""White""]","No","Male","1404017.5999999642","null","","<p></p>","null","rating","dct","attraction_1","1","televisions","null","null","null","null","null","null","1","","","","","","","","","","",""
"","","","","","rating_trial","survey-html-form","12","290416","0.0-3.0-1.4","11","1","2025-04-10 18:39:36","7bd189e8e4882776c700e1dae255cdf5","","Mozilla/5.0 (Windows NT 10.0; Win64; x64) AppleWebKit/537.36 (KHTML, like Gecko) Chrome/135.0.0.0 Safari/537.36","WebKit","Chrome","135.0.0.0","Windows","10.0","https://hz8g1ckzuq.cognition.run/","en-US,en;q=0.9","21j9z6w9rehmfcd","","54","[""White""]","No","Male","1404017.5999999642","42430","","","{""price_1"":""90"",""price_2"":""80"",""price_3"":""80""}","rating","dct","attraction_1","1","televisions","null","null","null","null","null","null","1","60","50","60","50","60","45","Screen size","Average lifespan","","",""
"","","","","","rating_trial_setup","html-keyboard-response","13","290719","0.0-3.0-0.5","11","1","2025-04-10 18:39:36","7bd189e8e4882776c700e1dae255cdf5","","Mozilla/5.0 (Windows NT 10.0; Win64; x64) AppleWebKit/537.36 (KHTML, like Gecko) Chrome/135.0.0.0 Safari/537.36","WebKit","Chrome","135.0.0.0","Windows","10.0","https://hz8g1ckzuq.cognition.run/","en-US,en;q=0.9","21j9z6w9rehmfcd","","54","[""White""]","No","Male","1404017.5999999642","null","","<p></p>","null","rating","dct","attraction_1","1","washing machines","null","null","null","null","null","null","2","","","","","","","","","","",""
"","","","","","rating_trial","survey-html-form","14","388674","0.0-3.0-1.5","11","1","2025-04-10 18:39:36","7bd189e8e4882776c700e1dae255cdf5","","Mozilla/5.0 (Windows NT 10.0; Win64; x64) AppleWebKit/537.36 (KHTML, like Gecko) Chrome/135.0.0.0 Safari/537.36","WebKit","Chrome","135.0.0.0","Windows","10.0","https://hz8g1ckzuq.cognition.run/","en-US,en;q=0.9","21j9z6w9rehmfcd","","54","[""White""]","No","Male","1404017.5999999642","97956","","","{""price_1"":""80"",""price_2"":""90"",""price_3"":""90""}","rating","dct","attraction_1","1","washing machines","null","null","null","null","null","null","2","60","50","60","50","60","45","Average lifespan","Energy savings","","",""
"","","","","","rating_trial_setup","html-keyboard-response","15","388978","0.0-3.0-0.6","11","1","2025-04-10 18:39:36","7bd189e8e4882776c700e1dae255cdf5","","Mozilla/5.0 (Windows NT 10.0; Win64; x64) AppleWebKit/537.36 (KHTML, like Gecko) Chrome/135.0.0.0 Safari/537.36","WebKit","Chrome","135.0.0.0","Windows","10.0","https://hz8g1ckzuq.cognition.run/","en-US,en;q=0.9","21j9z6w9rehmfcd","","54","[""White""]","No","Male","1404017.5999999642","null","","<p></p>","null","rating","ctd","repulsion_2","1","washing machines","null","null","null","null","null","null","2","","","","","","","","","","",""
"","","","","","rating_trial","survey-html-form","16","415773","0.0-3.0-1.6","11","1","2025-04-10 18:39:36","7bd189e8e4882776c700e1dae255cdf5","","Mozilla/5.0 (Windows NT 10.0; Win64; x64) AppleWebKit/537.36 (KHTML, like Gecko) Chrome/135.0.0.0 Safari/537.36","WebKit","Chrome","135.0.0.0","Windows","10.0","https://hz8g1ckzuq.cognition.run/","en-US,en;q=0.9","21j9z6w9rehmfcd","","54","[""White""]","No","Male","1404017.5999999642","26794","","","{""price_1"":""80"",""price_2"":""80"",""price_3"":""80""}","rating","ctd","repulsion_2","1","washing machines","null","null","null","null","null","null","2","100","90","100","30","40","20","Average lifespan","Energy savings","","",""
"","","","","","rating_trial_setup","html-keyboard-response","17","416076","0.0-3.0-0.7","11","1","2025-04-10 18:39:36","7bd189e8e4882776c700e1dae255cdf5","","Mozilla/5.0 (Windows NT 10.0; Win64; x64) AppleWebKit/537.36 (KHTML, like Gecko) Chrome/135.0.0.0 Safari/537.36","WebKit","Chrome","135.0.0.0","Windows","10.0","https://hz8g1ckzuq.cognition.run/","en-US,en;q=0.9","21j9z6w9rehmfcd","","54","[""White""]","No","Male","1404017.5999999642","null","","<p></p>","null","rating","cdt","attraction_1","1","microwave ovens","null","null","null","null","null","null","2","","","","","","","","","","",""
"","","","","","rating_trial","survey-html-form","18","445794","0.0-3.0-1.7","11","1","2025-04-10 18:39:36","7bd189e8e4882776c700e1dae255cdf5","","Mozilla/5.0 (Windows NT 10.0; Win64; x64) AppleWebKit/537.36 (KHTML, like Gecko) Chrome/135.0.0.0 Safari/537.36","WebKit","Chrome","135.0.0.0","Windows","10.0","https://hz8g1ckzuq.cognition.run/","en-US,en;q=0.9","21j9z6w9rehmfcd","","54","[""White""]","No","Male","1404017.5999999642","29715","","","{""price_1"":""70"",""price_2"":""60"",""price_3"":""60""}","rating","cdt","attraction_1","1","microwave ovens","null","null","null","null","null","null","2","60","50","60","50","60","45","Warranty","Cooking power","","",""
"","","","","","rating_trial_setup","html-keyboard-response","19","446097","0.0-3.0-0.8","11","1","2025-04-10 18:39:36","7bd189e8e4882776c700e1dae255cdf5","","Mozilla/5.0 (Windows NT 10.0; Win64; x64) AppleWebKit/537.36 (KHTML, like Gecko) Chrome/135.0.0.0 Safari/537.36","WebKit","Chrome","135.0.0.0","Windows","10.0","https://hz8g1ckzuq.cognition.run/","en-US,en;q=0.9","21j9z6w9rehmfcd","","54","[""White""]","No","Male","1404017.5999999642","null","","<p></p>","null","rating","ctd","attraction_2","1","washing machines","null","null","null","null","null","null","1","","","","","","","","","","",""
"","","","","","rating_trial","survey-html-form","20","463596","0.0-3.0-1.8","11","1","2025-04-10 18:39:36","7bd189e8e4882776c700e1dae255cdf5","","Mozilla/5.0 (Windows NT 10.0; Win64; x64) AppleWebKit/537.36 (KHTML, like Gecko) Chrome/135.0.0.0 Safari/537.36","WebKit","Chrome","135.0.0.0","Windows","10.0","https://hz8g1ckzuq.cognition.run/","en-US,en;q=0.9","21j9z6w9rehmfcd","","54","[""White""]","No","Male","1404017.5999999642","17496","","","{""price_1"":""70"",""price_2"":""60"",""price_3"":""60""}","rating","ctd","attraction_2","1","washing machines","null","null","null","null","null","null","1","60","50","60","50","60","40","Average lifespan","Energy savings","","",""
"","","","","","rating_trial_setup","html-keyboard-response","21","463900","0.0-3.0-0.9","11","1","2025-04-10 18:39:36","7bd189e8e4882776c700e1dae255cdf5","","Mozilla/5.0 (Windows NT 10.0; Win64; x64) AppleWebKit/537.36 (KHTML, like Gecko) Chrome/135.0.0.0 Safari/537.36","WebKit","Chrome","135.0.0.0","Windows","10.0","https://hz8g1ckzuq.cognition.run/","en-US,en;q=0.9","21j9z6w9rehmfcd","","54","[""White""]","No","Male","1404017.5999999642","null","","<p></p>","null","rating","tcd","attraction_1","2","laptops","null","null","null","null","null","null","1","","","","","","","","","","",""
"","","","","","rating_trial","survey-html-form","22","491155","0.0-3.0-1.9","11","1","2025-04-10 18:39:36","7bd189e8e4882776c700e1dae255cdf5","","Mozilla/5.0 (Windows NT 10.0; Win64; x64) AppleWebKit/537.36 (KHTML, like Gecko) Chrome/135.0.0.0 Safari/537.36","WebKit","Chrome","135.0.0.0","Windows","10.0","https://hz8g1ckzuq.cognition.run/","en-US,en;q=0.9","21j9z6w9rehmfcd","","54","[""White""]","No","Male","1404017.5999999642","27254","","","{""price_1"":""80"",""price_2"":""80"",""price_3"":""70""}","rating","tcd","attraction_1","2","laptops","null","null","null","null","null","null","1","50","60","45","60","50","60","Processing speed","Memory (RAM)","","",""
"","","","","","rating_trial_setup","html-keyboard-response","23","491457","0.0-3.0-0.10","11","1","2025-04-10 18:39:36","7bd189e8e4882776c700e1dae255cdf5","","Mozilla/5.0 (Windows NT 10.0; Win64; x64) AppleWebKit/537.36 (KHTML, like Gecko) Chrome/135.0.0.0 Safari/537.36","WebKit","Chrome","135.0.0.0","Windows","10.0","https://hz8g1ckzuq.cognition.run/","en-US,en;q=0.9","21j9z6w9rehmfcd","","54","[""White""]","No","Male","1404017.5999999642","null","","<p></p>","null","rating","tdc","repulsion_2","2","microwave ovens","null","null","null","null","null","null","2","","","","","","","","","","",""
"","","","","","rating_trial","survey-html-form","24","512476","0.0-3.0-1.10","11","1","2025-04-10 18:39:36","7bd189e8e4882776c700e1dae255cdf5","","Mozilla/5.0 (Windows NT 10.0; Win64; x64) AppleWebKit/537.36 (KHTML, like Gecko) Chrome/135.0.0.0 Safari/537.36","WebKit","Chrome","135.0.0.0","Windows","10.0","https://hz8g1ckzuq.cognition.run/","en-US,en;q=0.9","21j9z6w9rehmfcd","","54","[""White""]","No","Male","1404017.5999999642","21016","","","{""price_1"":""90"",""price_2"":""80"",""price_3"":""80""}","rating","tdc","repulsion_2","2","microwave ovens","null","null","null","null","null","null","2","30","40","20","100","90","100","Warranty","Cooking power","","",""
"","","","","","rating_trial_setup","html-keyboard-response","25","512778","0.0-3.0-0.11","11","1","2025-04-10 18:39:36","7bd189e8e4882776c700e1dae255cdf5","","Mozilla/5.0 (Windows NT 10.0; Win64; x64) AppleWebKit/537.36 (KHTML, like Gecko) Chrome/135.0.0.0 Safari/537.36","WebKit","Chrome","135.0.0.0","Windows","10.0","https://hz8g1ckzuq.cognition.run/","en-US,en;q=0.9","21j9z6w9rehmfcd","","54","[""White""]","No","Male","1404017.5999999642","null","","<p></p>","null","rating","ctd","repulsion_2","1","microwave ovens","null","null","null","null","null","null","1","","","","","","","","","","",""
"","","","","","rating_trial","survey-html-form","26","555175","0.0-3.0-1.11","11","1","2025-04-10 18:39:36","7bd189e8e4882776c700e1dae255cdf5","","Mozilla/5.0 (Windows NT 10.0; Win64; x64) AppleWebKit/537.36 (KHTML, like Gecko) Chrome/135.0.0.0 Safari/537.36","WebKit","Chrome","135.0.0.0","Windows","10.0","https://hz8g1ckzuq.cognition.run/","en-US,en;q=0.9","21j9z6w9rehmfcd","","54","[""White""]","No","Male","1404017.5999999642","42396","","","{""price_1"":""80"",""price_2"":""80"",""price_3"":""70""}","rating","ctd","repulsion_2","1","microwave ovens","null","null","null","null","null","null","1","100","90","100","30","40","20","Warranty","Cooking power","","",""
"","","","","","rating_trial_setup","html-keyboard-response","27","555480","0.0-3.0-0.12","11","1","2025-04-10 18:39:36","7bd189e8e4882776c700e1dae255cdf5","","Mozilla/5.0 (Windows NT 10.0; Win64; x64) AppleWebKit/537.36 (KHTML, like Gecko) Chrome/135.0.0.0 Safari/537.36","WebKit","Chrome","135.0.0.0","Windows","10.0","https://hz8g1ckzuq.cognition.run/","en-US,en;q=0.9","21j9z6w9rehmfcd","","54","[""White""]","No","Male","1404017.5999999642","null","","<p></p>","null","rating","dct","attraction_1","2","televisions","null","null","null","null","null","null","2","","","","","","","","","","",""
"","","","","","rating_trial","survey-html-form","28","570415","0.0-3.0-1.12","11","1","2025-04-10 18:39:36","7bd189e8e4882776c700e1dae255cdf5","","Mozilla/5.0 (Windows NT 10.0; Win64; x64) AppleWebKit/537.36 (KHTML, like Gecko) Chrome/135.0.0.0 Safari/537.36","WebKit","Chrome","135.0.0.0","Windows","10.0","https://hz8g1ckzuq.cognition.run/","en-US,en;q=0.9","21j9z6w9rehmfcd","","54","[""White""]","No","Male","1404017.5999999642","14933","","","{""price_1"":""65"",""price_2"":""70"",""price_3"":""70""}","rating","dct","attraction_1","2","televisions","null","null","null","null","null","null","2","50","60","45","60","50","60","Screen size","Average lifespan","","",""
"","","","","","rating_trial_setup","html-keyboard-response","29","570719","0.0-3.0-0.13","11","1","2025-04-10 18:39:36","7bd189e8e4882776c700e1dae255cdf5","","Mozilla/5.0 (Windows NT 10.0; Win64; x64) AppleWebKit/537.36 (KHTML, like Gecko) Chrome/135.0.0.0 Safari/537.36","WebKit","Chrome","135.0.0.0","Windows","10.0","https://hz8g1ckzuq.cognition.run/","en-US,en;q=0.9","21j9z6w9rehmfcd","","54","[""White""]","No","Male","1404017.5999999642","null","","<p></p>","null","rating","tdc","repulsion_1","1","microwave ovens","null","null","null","null","null","null","2","","","","","","","","","","",""
"","","","","","rating_trial","survey-html-form","30","583517","0.0-3.0-1.13","11","1","2025-04-10 18:39:36","7bd189e8e4882776c700e1dae255cdf5","","Mozilla/5.0 (Windows NT 10.0; Win64; x64) AppleWebKit/537.36 (KHTML, like Gecko) Chrome/135.0.0.0 Safari/537.36","WebKit","Chrome","135.0.0.0","Windows","10.0","https://hz8g1ckzuq.cognition.run/","en-US,en;q=0.9","21j9z6w9rehmfcd","","54","[""White""]","No","Male","1404017.5999999642","12795","","","{""price_1"":""80"",""price_2"":""70"",""price_3"":""80""}","rating","tdc","repulsion_1","1","microwave ovens","null","null","null","null","null","null","2","100","90","100","30","40","25","Warranty","Cooking power","","",""
"","","","","","rating_trial_setup","html-keyboard-response","31","583821","0.0-3.0-0.14","11","1","2025-04-10 18:39:36","7bd189e8e4882776c700e1dae255cdf5","","Mozilla/5.0 (Windows NT 10.0; Win64; x64) AppleWebKit/537.36 (KHTML, like Gecko) Chrome/135.0.0.0 Safari/537.36","WebKit","Chrome","135.0.0.0","Windows","10.0","https://hz8g1ckzuq.cognition.run/","en-US,en;q=0.9","21j9z6w9rehmfcd","","54","[""White""]","No","Male","1404017.5999999642","null","","<p></p>","null","rating","cdt","attraction_1","2","washing machines","null","null","null","null","null","null","2","","","","","","","","","","",""
"","","","","","rating_trial","survey-html-form","32","607555","0.0-3.0-1.14","11","1","2025-04-10 18:39:36","7bd189e8e4882776c700e1dae255cdf5","","Mozilla/5.0 (Windows NT 10.0; Win64; x64) AppleWebKit/537.36 (KHTML, like Gecko) Chrome/135.0.0.0 Safari/537.36","WebKit","Chrome","135.0.0.0","Windows","10.0","https://hz8g1ckzuq.cognition.run/","en-US,en;q=0.9","21j9z6w9rehmfcd","","54","[""White""]","No","Male","1404017.5999999642","23732","","","{""price_1"":""90"",""price_2"":""80"",""price_3"":""90""}","rating","cdt","attraction_1","2","washing machines","null","null","null","null","null","null","2","50","60","45","60","50","60","Average lifespan","Energy savings","","",""
"","","","","","rating_trial_setup","html-keyboard-response","33","607859","0.0-3.0-0.15","11","1","2025-04-10 18:39:36","7bd189e8e4882776c700e1dae255cdf5","","Mozilla/5.0 (Windows NT 10.0; Win64; x64) AppleWebKit/537.36 (KHTML, like Gecko) Chrome/135.0.0.0 Safari/537.36","WebKit","Chrome","135.0.0.0","Windows","10.0","https://hz8g1ckzuq.cognition.run/","en-US,en;q=0.9","21j9z6w9rehmfcd","","54","[""White""]","No","Male","1404017.5999999642","null","","<p></p>","null","rating","ctd","repulsion_2","2","laptops","null","null","null","null","null","null","2","","","","","","","","","","",""
"","","","","","rating_trial","survey-html-form","34","623256","0.0-3.0-1.15","11","1","2025-04-10 18:39:36","7bd189e8e4882776c700e1dae255cdf5","","Mozilla/5.0 (Windows NT 10.0; Win64; x64) AppleWebKit/537.36 (KHTML, like Gecko) Chrome/135.0.0.0 Safari/537.36","WebKit","Chrome","135.0.0.0","Windows","10.0","https://hz8g1ckzuq.cognition.run/","en-US,en;q=0.9","21j9z6w9rehmfcd","","54","[""White""]","No","Male","1404017.5999999642","15394","","","{""price_1"":""80"",""price_2"":""80"",""price_3"":""70""}","rating","ctd","repulsion_2","2","laptops","null","null","null","null","null","null","2","30","40","20","100","90","100","Processing speed","Memory (RAM)","","",""
"","","","","","rating_trial_setup","html-keyboard-response","35","623558","0.0-3.0-0.16","11","1","2025-04-10 18:39:36","7bd189e8e4882776c700e1dae255cdf5","","Mozilla/5.0 (Windows NT 10.0; Win64; x64) AppleWebKit/537.36 (KHTML, like Gecko) Chrome/135.0.0.0 Safari/537.36","WebKit","Chrome","135.0.0.0","Windows","10.0","https://hz8g1ckzuq.cognition.run/","en-US,en;q=0.9","21j9z6w9rehmfcd","","54","[""White""]","No","Male","1404017.5999999642","null","","<p></p>","null","rating","dct","repulsion_2","1","televisions","null","null","null","null","null","null","1","","","","","","","","","","",""
"","","","","","rating_trial","survey-html-form","36","662975","0.0-3.0-1.16","11","1","2025-04-10 18:39:36","7bd189e8e4882776c700e1dae255cdf5","","Mozilla/5.0 (Windows NT 10.0; Win64; x64) AppleWebKit/537.36 (KHTML, like Gecko) Chrome/135.0.0.0 Safari/537.36","WebKit","Chrome","135.0.0.0","Windows","10.0","https://hz8g1ckzuq.cognition.run/","en-US,en;q=0.9","21j9z6w9rehmfcd","","54","[""White""]","No","Male","1404017.5999999642","39416","","","{""price_1"":""90"",""price_2"":""100"",""price_3"":""100""}","rating","dct","repulsion_2","1","televisions","null","null","null","null","null","null","1","100","90","100","30","40","20","Screen size","Average lifespan","","",""
"","","","","","rating_trial_setup","html-keyboard-response","37","663278","0.0-3.0-0.17","11","1","2025-04-10 18:39:36","7bd189e8e4882776c700e1dae255cdf5","","Mozilla/5.0 (Windows NT 10.0; Win64; x64) AppleWebKit/537.36 (KHTML, like Gecko) Chrome/135.0.0.0 Safari/537.36","WebKit","Chrome","135.0.0.0","Windows","10.0","https://hz8g1ckzuq.cognition.run/","en-US,en;q=0.9","21j9z6w9rehmfcd","","54","[""White""]","No","Male","1404017.5999999642","null","","<p></p>","null","rating","bww","catch","null","laptops","75","85","5","20","50","40","2","","","","","","","","","","",""
"","","","","","rating_trial","survey-html-form","38","686916","0.0-3.0-1.17","11","1","2025-04-10 18:39:36","7bd189e8e4882776c700e1dae255cdf5","","Mozilla/5.0 (Windows NT 10.0; Win64; x64) AppleWebKit/537.36 (KHTML, like Gecko) Chrome/135.0.0.0 Safari/537.36","WebKit","Chrome","135.0.0.0","Windows","10.0","https://hz8g1ckzuq.cognition.run/","en-US,en;q=0.9","21j9z6w9rehmfcd","","54","[""White""]","No","Male","1404017.5999999642","23634","","","{""price_1"":""300"",""price_2"":""100"",""price_3"":""150""}","rating","bww","catch","null","laptops","75","85","5","20","50","40","2","null","null","null","null","null","null","Processing speed","Memory (RAM)","","",""
"","","","","","rating_trial_setup","html-keyboard-response","39","687219","0.0-3.0-0.18","11","1","2025-04-10 18:39:36","7bd189e8e4882776c700e1dae255cdf5","","Mozilla/5.0 (Windows NT 10.0; Win64; x64) AppleWebKit/537.36 (KHTML, like Gecko) Chrome/135.0.0.0 Safari/537.36","WebKit","Chrome","135.0.0.0","Windows","10.0","https://hz8g1ckzuq.cognition.run/","en-US,en;q=0.9","21j9z6w9rehmfcd","","54","[""White""]","No","Male","1404017.5999999642","null","","<p></p>","null","rating","ctd","attraction_1","2","microwave ovens","null","null","null","null","null","null","2","","","","","","","","","","",""
"","","","","","rating_trial","survey-html-form","40","702476","0.0-3.0-1.18","11","1","2025-04-10 18:39:36","7bd189e8e4882776c700e1dae255cdf5","","Mozilla/5.0 (Windows NT 10.0; Win64; x64) AppleWebKit/537.36 (KHTML, like Gecko) Chrome/135.0.0.0 Safari/537.36","WebKit","Chrome","135.0.0.0","Windows","10.0","https://hz8g1ckzuq.cognition.run/","en-US,en;q=0.9","21j9z6w9rehmfcd","","54","[""White""]","No","Male","1404017.5999999642","15253","","","{""price_1"":""80"",""price_2"":""80"",""price_3"":""70""}","rating","ctd","attraction_1","2","microwave ovens","null","null","null","null","null","null","2","50","60","45","60","50","60","Warranty","Cooking power","","",""
"","","","","","rating_trial_setup","html-keyboard-response","41","702780","0.0-3.0-0.19","11","1","2025-04-10 18:39:36","7bd189e8e4882776c700e1dae255cdf5","","Mozilla/5.0 (Windows NT 10.0; Win64; x64) AppleWebKit/537.36 (KHTML, like Gecko) Chrome/135.0.0.0 Safari/537.36","WebKit","Chrome","135.0.0.0","Windows","10.0","https://hz8g1ckzuq.cognition.run/","en-US,en;q=0.9","21j9z6w9rehmfcd","","54","[""White""]","No","Male","1404017.5999999642","null","","<p></p>","null","rating","ctd","repulsion_2","2","washing machines","null","null","null","null","null","null","1","","","","","","","","","","",""
"","","","","","rating_trial","survey-html-form","42","752116","0.0-3.0-1.19","11","1","2025-04-10 18:39:36","7bd189e8e4882776c700e1dae255cdf5","","Mozilla/5.0 (Windows NT 10.0; Win64; x64) AppleWebKit/537.36 (KHTML, like Gecko) Chrome/135.0.0.0 Safari/537.36","WebKit","Chrome","135.0.0.0","Windows","10.0","https://hz8g1ckzuq.cognition.run/","en-US,en;q=0.9","21j9z6w9rehmfcd","","54","[""White""]","No","Male","1404017.5999999642","49335","","","{""price_1"":""90"",""price_2"":""80"",""price_3"":""70""}","rating","ctd","repulsion_2","2","washing machines","null","null","null","null","null","null","1","30","40","20","100","90","100","Average lifespan","Energy savings","","",""
"","","","","","rating_trial_setup","html-keyboard-response","43","752421","0.0-3.0-0.20","11","1","2025-04-10 18:39:36","7bd189e8e4882776c700e1dae255cdf5","","Mozilla/5.0 (Windows NT 10.0; Win64; x64) AppleWebKit/537.36 (KHTML, like Gecko) Chrome/135.0.0.0 Safari/537.36","WebKit","Chrome","135.0.0.0","Windows","10.0","https://hz8g1ckzuq.cognition.run/","en-US,en;q=0.9","21j9z6w9rehmfcd","","54","[""White""]","No","Male","1404017.5999999642","null","","<p></p>","null","rating","wwb","catch","null","washing machines","65","90","35","50","5","50","1","","","","","","","","","","",""
"","","","","","rating_trial","survey-html-form","44","772277","0.0-3.0-1.20","11","1","2025-04-10 18:39:36","7bd189e8e4882776c700e1dae255cdf5","","Mozilla/5.0 (Windows NT 10.0; Win64; x64) AppleWebKit/537.36 (KHTML, like Gecko) Chrome/135.0.0.0 Safari/537.36","WebKit","Chrome","135.0.0.0","Windows","10.0","https://hz8g1ckzuq.cognition.run/","en-US,en;q=0.9","21j9z6w9rehmfcd","","54","[""White""]","No","Male","1404017.5999999642","19852","","","{""price_1"":""80"",""price_2"":""60"",""price_3"":""100""}","rating","wwb","catch","null","washing machines","65","90","35","50","5","50","1","null","null","null","null","null","null","Average lifespan","Energy savings","","",""
"","","","","","rating_trial_setup","html-keyboard-response","45","772581","0.0-3.0-0.21","11","1","2025-04-10 18:39:36","7bd189e8e4882776c700e1dae255cdf5","","Mozilla/5.0 (Windows NT 10.0; Win64; x64) AppleWebKit/537.36 (KHTML, like Gecko) Chrome/135.0.0.0 Safari/537.36","WebKit","Chrome","135.0.0.0","Windows","10.0","https://hz8g1ckzuq.cognition.run/","en-US,en;q=0.9","21j9z6w9rehmfcd","","54","[""White""]","No","Male","1404017.5999999642","null","","<p></p>","null","rating","dct","repulsion_1","2","microwave ovens","null","null","null","null","null","null","1","","","","","","","","","","",""
"","","","","","rating_trial","survey-html-form","46","787060","0.0-3.0-1.21","11","1","2025-04-10 18:39:36","7bd189e8e4882776c700e1dae255cdf5","","Mozilla/5.0 (Windows NT 10.0; Win64; x64) AppleWebKit/537.36 (KHTML, like Gecko) Chrome/135.0.0.0 Safari/537.36","WebKit","Chrome","135.0.0.0","Windows","10.0","https://hz8g1ckzuq.cognition.run/","en-US,en;q=0.9","21j9z6w9rehmfcd","","54","[""White""]","No","Male","1404017.5999999642","14478","","","{""price_1"":""90"",""price_2"":""100"",""price_3"":""100""}","rating","dct","repulsion_1","2","microwave ovens","null","null","null","null","null","null","1","30","40","25","100","90","100","Warranty","Cooking power","","",""
"","","","","","rating_trial_setup","html-keyboard-response","47","787364","0.0-3.0-0.22","11","1","2025-04-10 18:39:36","7bd189e8e4882776c700e1dae255cdf5","","Mozilla/5.0 (Windows NT 10.0; Win64; x64) AppleWebKit/537.36 (KHTML, like Gecko) Chrome/135.0.0.0 Safari/537.36","WebKit","Chrome","135.0.0.0","Windows","10.0","https://hz8g1ckzuq.cognition.run/","en-US,en;q=0.9","21j9z6w9rehmfcd","","54","[""White""]","No","Male","1404017.5999999642","null","","<p></p>","null","rating","wwb","catch","null","microwave ovens","60","90","45","35","15","5","2","","","","","","","","","","",""
"","","","","","rating_trial","survey-html-form","48","801966","0.0-3.0-1.22","11","1","2025-04-10 18:39:36","7bd189e8e4882776c700e1dae255cdf5","","Mozilla/5.0 (Windows NT 10.0; Win64; x64) AppleWebKit/537.36 (KHTML, like Gecko) Chrome/135.0.0.0 Safari/537.36","WebKit","Chrome","135.0.0.0","Windows","10.0","https://hz8g1ckzuq.cognition.run/","en-US,en;q=0.9","21j9z6w9rehmfcd","","54","[""White""]","No","Male","1404017.5999999642","14598","","","{""price_1"":""80"",""price_2"":""40"",""price_3"":""90""}","rating","wwb","catch","null","microwave ovens","60","90","45","35","15","5","2","null","null","null","null","null","null","Warranty","Cooking power","","",""
"","","","","","rating_trial_setup","html-keyboard-response","49","802270","0.0-3.0-0.23","11","1","2025-04-10 18:39:36","7bd189e8e4882776c700e1dae255cdf5","","Mozilla/5.0 (Windows NT 10.0; Win64; x64) AppleWebKit/537.36 (KHTML, like Gecko) Chrome/135.0.0.0 Safari/537.36","WebKit","Chrome","135.0.0.0","Windows","10.0","https://hz8g1ckzuq.cognition.run/","en-US,en;q=0.9","21j9z6w9rehmfcd","","54","[""White""]","No","Male","1404017.5999999642","null","","<p></p>","null","rating","dct","attraction_2","1","microwave ovens","null","null","null","null","null","null","2","","","","","","","","","","",""
"","","","","","rating_trial","survey-html-form","50","821096","0.0-3.0-1.23","11","1","2025-04-10 18:39:36","7bd189e8e4882776c700e1dae255cdf5","","Mozilla/5.0 (Windows NT 10.0; Win64; x64) AppleWebKit/537.36 (KHTML, like Gecko) Chrome/135.0.0.0 Safari/537.36","WebKit","Chrome","135.0.0.0","Windows","10.0","https://hz8g1ckzuq.cognition.run/","en-US,en;q=0.9","21j9z6w9rehmfcd","","54","[""White""]","No","Male","1404017.5999999642","18823","","","{""price_1"":""90"",""price_2"":""100"",""price_3"":""100""}","rating","dct","attraction_2","1","microwave ovens","null","null","null","null","null","null","2","60","50","60","50","60","40","Warranty","Cooking power","","",""
"","","","","","rating_trial_setup","html-keyboard-response","51","821399","0.0-3.0-0.24","11","1","2025-04-10 18:39:36","7bd189e8e4882776c700e1dae255cdf5","","Mozilla/5.0 (Windows NT 10.0; Win64; x64) AppleWebKit/537.36 (KHTML, like Gecko) Chrome/135.0.0.0 Safari/537.36","WebKit","Chrome","135.0.0.0","Windows","10.0","https://hz8g1ckzuq.cognition.run/","en-US,en;q=0.9","21j9z6w9rehmfcd","","54","[""White""]","No","Male","1404017.5999999642","null","","<p></p>","null","rating","dct","attraction_2","1","televisions","null","null","null","null","null","null","2","","","","","","","","","","",""
"","","","","","rating_trial","survey-html-form","52","841175","0.0-3.0-1.24","11","1","2025-04-10 18:39:36","7bd189e8e4882776c700e1dae255cdf5","","Mozilla/5.0 (Windows NT 10.0; Win64; x64) AppleWebKit/537.36 (KHTML, like Gecko) Chrome/135.0.0.0 Safari/537.36","WebKit","Chrome","135.0.0.0","Windows","10.0","https://hz8g1ckzuq.cognition.run/","en-US,en;q=0.9","21j9z6w9rehmfcd","","54","[""White""]","No","Male","1404017.5999999642","19774","","","{""price_1"":""100"",""price_2"":""110"",""price_3"":""11""}","rating","dct","attraction_2","1","televisions","null","null","null","null","null","null","2","60","50","60","50","60","40","Screen size","Average lifespan","","",""
"","","","","","rating_trial_setup","html-keyboard-response","53","841479","0.0-3.0-0.25","11","1","2025-04-10 18:39:36","7bd189e8e4882776c700e1dae255cdf5","","Mozilla/5.0 (Windows NT 10.0; Win64; x64) AppleWebKit/537.36 (KHTML, like Gecko) Chrome/135.0.0.0 Safari/537.36","WebKit","Chrome","135.0.0.0","Windows","10.0","https://hz8g1ckzuq.cognition.run/","en-US,en;q=0.9","21j9z6w9rehmfcd","","54","[""White""]","No","Male","1404017.5999999642","null","","<p></p>","null","rating","dct","attraction_2","2","microwave ovens","null","null","null","null","null","null","1","","","","","","","","","","",""
"","","","","","rating_trial","survey-html-form","54","858055","0.0-3.0-1.25","11","1","2025-04-10 18:39:36","7bd189e8e4882776c700e1dae255cdf5","","Mozilla/5.0 (Windows NT 10.0; Win64; x64) AppleWebKit/537.36 (KHTML, like Gecko) Chrome/135.0.0.0 Safari/537.36","WebKit","Chrome","135.0.0.0","Windows","10.0","https://hz8g1ckzuq.cognition.run/","en-US,en;q=0.9","21j9z6w9rehmfcd","","54","[""White""]","No","Male","1404017.5999999642","16572","","","{""price_1"":""80"",""price_2"":""90"",""price_3"":""90""}","rating","dct","attraction_2","2","microwave ovens","null","null","null","null","null","null","1","50","60","40","60","50","60","Warranty","Cooking power","","",""
"","","","","","rating_trial_setup","html-keyboard-response","55","858360","0.0-3.0-0.26","11","1","2025-04-10 18:39:36","7bd189e8e4882776c700e1dae255cdf5","","Mozilla/5.0 (Windows NT 10.0; Win64; x64) AppleWebKit/537.36 (KHTML, like Gecko) Chrome/135.0.0.0 Safari/537.36","WebKit","Chrome","135.0.0.0","Windows","10.0","https://hz8g1ckzuq.cognition.run/","en-US,en;q=0.9","21j9z6w9rehmfcd","","54","[""White""]","No","Male","1404017.5999999642","null","","<p></p>","null","rating","tdc","repulsion_1","2","televisions","null","null","null","null","null","null","2","","","","","","","","","","",""
"","","","","","rating_trial","survey-html-form","56","871956","0.0-3.0-1.26","11","1","2025-04-10 18:39:36","7bd189e8e4882776c700e1dae255cdf5","","Mozilla/5.0 (Windows NT 10.0; Win64; x64) AppleWebKit/537.36 (KHTML, like Gecko) Chrome/135.0.0.0 Safari/537.36","WebKit","Chrome","135.0.0.0","Windows","10.0","https://hz8g1ckzuq.cognition.run/","en-US,en;q=0.9","21j9z6w9rehmfcd","","54","[""White""]","No","Male","1404017.5999999642","13592","","","{""price_1"":""90"",""price_2"":""80"",""price_3"":""90""}","rating","tdc","repulsion_1","2","televisions","null","null","null","null","null","null","2","30","40","25","100","90","100","Screen size","Average lifespan","","",""
"","","","","","rating_trial_setup","html-keyboard-response","57","872260","0.0-3.0-0.27","11","1","2025-04-10 18:39:36","7bd189e8e4882776c700e1dae255cdf5","","Mozilla/5.0 (Windows NT 10.0; Win64; x64) AppleWebKit/537.36 (KHTML, like Gecko) Chrome/135.0.0.0 Safari/537.36","WebKit","Chrome","135.0.0.0","Windows","10.0","https://hz8g1ckzuq.cognition.run/","en-US,en;q=0.9","21j9z6w9rehmfcd","","54","[""White""]","No","Male","1404017.5999999642","null","","<p></p>","null","rating","tdc","attraction_2","2","washing machines","null","null","null","null","null","null","2","","","","","","","","","","",""
"","","","","","rating_trial","survey-html-form","58","887777","0.0-3.0-1.27","11","1","2025-04-10 18:39:36","7bd189e8e4882776c700e1dae255cdf5","","Mozilla/5.0 (Windows NT 10.0; Win64; x64) AppleWebKit/537.36 (KHTML, like Gecko) Chrome/135.0.0.0 Safari/537.36","WebKit","Chrome","135.0.0.0","Windows","10.0","https://hz8g1ckzuq.cognition.run/","en-US,en;q=0.9","21j9z6w9rehmfcd","","54","[""White""]","No","Male","1404017.5999999642","15512","","","{""price_1"":""90"",""price_2"":""80"",""price_3"":""90""}","rating","tdc","attraction_2","2","washing machines","null","null","null","null","null","null","2","50","60","40","60","50","60","Average lifespan","Energy savings","","",""
"","","","","","rating_trial_setup","html-keyboard-response","59","888081","0.0-3.0-0.28","11","1","2025-04-10 18:39:36","7bd189e8e4882776c700e1dae255cdf5","","Mozilla/5.0 (Windows NT 10.0; Win64; x64) AppleWebKit/537.36 (KHTML, like Gecko) Chrome/135.0.0.0 Safari/537.36","WebKit","Chrome","135.0.0.0","Windows","10.0","https://hz8g1ckzuq.cognition.run/","en-US,en;q=0.9","21j9z6w9rehmfcd","","54","[""White""]","No","Male","1404017.5999999642","null","","<p></p>","null","rating","wbw","catch","null","microwave ovens","75","90","50","5","10","10","1","","","","","","","","","","",""
"","","","","","rating_trial","survey-html-form","60","907055","0.0-3.0-1.28","11","1","2025-04-10 18:39:36","7bd189e8e4882776c700e1dae255cdf5","","Mozilla/5.0 (Windows NT 10.0; Win64; x64) AppleWebKit/537.36 (KHTML, like Gecko) Chrome/135.0.0.0 Safari/537.36","WebKit","Chrome","135.0.0.0","Windows","10.0","https://hz8g1ckzuq.cognition.run/","en-US,en;q=0.9","21j9z6w9rehmfcd","","54","[""White""]","No","Male","1404017.5999999642","18971","","","{""price_1"":""60"",""price_2"":""100"",""price_3"":""30""}","rating","wbw","catch","null","microwave ovens","75","90","50","5","10","10","1","null","null","null","null","null","null","Warranty","Cooking power","","",""
"","","","","","rating_trial_setup","html-keyboard-response","61","907359","0.0-3.0-0.29","11","1","2025-04-10 18:39:36","7bd189e8e4882776c700e1dae255cdf5","","Mozilla/5.0 (Windows NT 10.0; Win64; x64) AppleWebKit/537.36 (KHTML, like Gecko) Chrome/135.0.0.0 Safari/537.36","WebKit","Chrome","135.0.0.0","Windows","10.0","https://hz8g1ckzuq.cognition.run/","en-US,en;q=0.9","21j9z6w9rehmfcd","","54","[""White""]","No","Male","1404017.5999999642","null","","<p></p>","null","rating","ctd","repulsion_1","1","televisions","null","null","null","null","null","null","2","","","","","","","","","","",""
"","","","","","rating_trial","survey-html-form","62","923836","0.0-3.0-1.29","11","1","2025-04-10 18:39:36","7bd189e8e4882776c700e1dae255cdf5","","Mozilla/5.0 (Windows NT 10.0; Win64; x64) AppleWebKit/537.36 (KHTML, like Gecko) Chrome/135.0.0.0 Safari/537.36","WebKit","Chrome","135.0.0.0","Windows","10.0","https://hz8g1ckzuq.cognition.run/","en-US,en;q=0.9","21j9z6w9rehmfcd","","54","[""White""]","No","Male","1404017.5999999642","16473","","","{""price_1"":""90"",""price_2"":""90"",""price_3"":""80""}","rating","ctd","repulsion_1","1","televisions","null","null","null","null","null","null","2","100","90","100","30","40","25","Screen size","Average lifespan","","",""
"","","","","","rating_trial_setup","html-keyboard-response","63","924141","0.0-3.0-0.30","11","1","2025-04-10 18:39:36","7bd189e8e4882776c700e1dae255cdf5","","Mozilla/5.0 (Windows NT 10.0; Win64; x64) AppleWebKit/537.36 (KHTML, like Gecko) Chrome/135.0.0.0 Safari/537.36","WebKit","Chrome","135.0.0.0","Windows","10.0","https://hz8g1ckzuq.cognition.run/","en-US,en;q=0.9","21j9z6w9rehmfcd","","54","[""White""]","No","Male","1404017.5999999642","null","","<p></p>","null","rating","wbw","catch","null","washing machines","90","75","25","50","40","50","2","","","","","","","","","","",""
"","","","","","rating_trial","survey-html-form","64","937496","0.0-3.0-1.30","11","1","2025-04-10 18:39:36","7bd189e8e4882776c700e1dae255cdf5","","Mozilla/5.0 (Windows NT 10.0; Win64; x64) AppleWebKit/537.36 (KHTML, like Gecko) Chrome/135.0.0.0 Safari/537.36","WebKit","Chrome","135.0.0.0","Windows","10.0","https://hz8g1ckzuq.cognition.run/","en-US,en;q=0.9","21j9z6w9rehmfcd","","54","[""White""]","No","Male","1404017.5999999642","13351","","","{""price_1"":""90"",""price_2"":""120"",""price_3"":""80""}","rating","wbw","catch","null","washing machines","90","75","25","50","40","50","2","null","null","null","null","null","null","Average lifespan","Energy savings","","",""
"","","","","","rating_trial_setup","html-keyboard-response","65","937800","0.0-3.0-0.31","11","1","2025-04-10 18:39:36","7bd189e8e4882776c700e1dae255cdf5","","Mozilla/5.0 (Windows NT 10.0; Win64; x64) AppleWebKit/537.36 (KHTML, like Gecko) Chrome/135.0.0.0 Safari/537.36","WebKit","Chrome","135.0.0.0","Windows","10.0","https://hz8g1ckzuq.cognition.run/","en-US,en;q=0.9","21j9z6w9rehmfcd","","54","[""White""]","No","Male","1404017.5999999642","null","","<p></p>","null","rating","tdc","repulsion_2","2","televisions","null","null","null","null","null","null","2","","","","","","","","","","",""
"","","","","","rating_trial","survey-html-form","66","955414","0.0-3.0-1.31","11","1","2025-04-10 18:39:36","7bd189e8e4882776c700e1dae255cdf5","","Mozilla/5.0 (Windows NT 10.0; Win64; x64) AppleWebKit/537.36 (KHTML, like Gecko) Chrome/135.0.0.0 Safari/537.36","WebKit","Chrome","135.0.0.0","Windows","10.0","https://hz8g1ckzuq.cognition.run/","en-US,en;q=0.9","21j9z6w9rehmfcd","","54","[""White""]","No","Male","1404017.5999999642","17612","","","{""price_1"":""90"",""price_2"":""80"",""price_3"":""90""}","rating","tdc","repulsion_2","2","televisions","null","null","null","null","null","null","2","30","40","20","100","90","100","Screen size","Average lifespan","","",""
"","","","","","rating_trial_setup","html-keyboard-response","67","955720","0.0-3.0-0.32","11","1","2025-04-10 18:39:36","7bd189e8e4882776c700e1dae255cdf5","","Mozilla/5.0 (Windows NT 10.0; Win64; x64) AppleWebKit/537.36 (KHTML, like Gecko) Chrome/135.0.0.0 Safari/537.36","WebKit","Chrome","135.0.0.0","Windows","10.0","https://hz8g1ckzuq.cognition.run/","en-US,en;q=0.9","21j9z6w9rehmfcd","","54","[""White""]","No","Male","1404017.5999999642","null","","<p></p>","null","rating","ctd","repulsion_1","2","laptops","null","null","null","null","null","null","2","","","","","","","","","","",""
"","","","","","rating_trial","survey-html-form","68","978535","0.0-3.0-1.32","11","1","2025-04-10 18:39:36","7bd189e8e4882776c700e1dae255cdf5","","Mozilla/5.0 (Windows NT 10.0; Win64; x64) AppleWebKit/537.36 (KHTML, like Gecko) Chrome/135.0.0.0 Safari/537.36","WebKit","Chrome","135.0.0.0","Windows","10.0","https://hz8g1ckzuq.cognition.run/","en-US,en;q=0.9","21j9z6w9rehmfcd","","54","[""White""]","No","Male","1404017.5999999642","22811","","","{""price_1"":""90"",""price_2"":""90"",""price_3"":""80""}","rating","ctd","repulsion_1","2","laptops","null","null","null","null","null","null","2","30","40","25","100","90","100","Processing speed","Memory (RAM)","","",""
"","","","","","rating_trial_setup","html-keyboard-response","69","978840","0.0-3.0-0.33","11","1","2025-04-10 18:39:36","7bd189e8e4882776c700e1dae255cdf5","","Mozilla/5.0 (Windows NT 10.0; Win64; x64) AppleWebKit/537.36 (KHTML, like Gecko) Chrome/135.0.0.0 Safari/537.36","WebKit","Chrome","135.0.0.0","Windows","10.0","https://hz8g1ckzuq.cognition.run/","en-US,en;q=0.9","21j9z6w9rehmfcd","","54","[""White""]","No","Male","1404017.5999999642","null","","<p></p>","null","rating","dtc","repulsion_2","1","laptops","null","null","null","null","null","null","1","","","","","","","","","","",""
"","","","","","rating_trial","survey-html-form","70","996976","0.0-3.0-1.33","11","1","2025-04-10 18:39:36","7bd189e8e4882776c700e1dae255cdf5","","Mozilla/5.0 (Windows NT 10.0; Win64; x64) AppleWebKit/537.36 (KHTML, like Gecko) Chrome/135.0.0.0 Safari/537.36","WebKit","Chrome","135.0.0.0","Windows","10.0","https://hz8g1ckzuq.cognition.run/","en-US,en;q=0.9","21j9z6w9rehmfcd","","54","[""White""]","No","Male","1404017.5999999642","18132","","","{""price_1"":""300"",""price_2"":""350"",""price_3"":""350""}","rating","dtc","repulsion_2","1","laptops","null","null","null","null","null","null","1","100","90","100","30","40","20","Processing speed","Memory (RAM)","","",""
"","","","","","rating_trial_setup","html-keyboard-response","71","997281","0.0-3.0-0.34","11","1","2025-04-10 18:39:36","7bd189e8e4882776c700e1dae255cdf5","","Mozilla/5.0 (Windows NT 10.0; Win64; x64) AppleWebKit/537.36 (KHTML, like Gecko) Chrome/135.0.0.0 Safari/537.36","WebKit","Chrome","135.0.0.0","Windows","10.0","https://hz8g1ckzuq.cognition.run/","en-US,en;q=0.9","21j9z6w9rehmfcd","","54","[""White""]","No","Male","1404017.5999999642","null","","<p></p>","null","rating","wwb","catch","null","televisions","65","95","50","50","35","5","1","","","","","","","","","","",""
"","","","","","rating_trial","survey-html-form","72","1030016","0.0-3.0-1.34","11","1","2025-04-10 18:39:36","7bd189e8e4882776c700e1dae255cdf5","","Mozilla/5.0 (Windows NT 10.0; Win64; x64) AppleWebKit/537.36 (KHTML, like Gecko) Chrome/135.0.0.0 Safari/537.36","WebKit","Chrome","135.0.0.0","Windows","10.0","https://hz8g1ckzuq.cognition.run/","en-US,en;q=0.9","21j9z6w9rehmfcd","","54","[""White""]","No","Male","1404017.5999999642","32732","","","{""price_1"":""90"",""price_2"":""40"",""price_3"":""200""}","rating","wwb","catch","null","televisions","65","95","50","50","35","5","1","null","null","null","null","null","null","Screen size","Average lifespan","","",""
"","","","","","rating_trial_setup","html-keyboard-response","73","1030321","0.0-3.0-0.35","11","1","2025-04-10 18:39:36","7bd189e8e4882776c700e1dae255cdf5","","Mozilla/5.0 (Windows NT 10.0; Win64; x64) AppleWebKit/537.36 (KHTML, like Gecko) Chrome/135.0.0.0 Safari/537.36","WebKit","Chrome","135.0.0.0","Windows","10.0","https://hz8g1ckzuq.cognition.run/","en-US,en;q=0.9","21j9z6w9rehmfcd","","54","[""White""]","No","Male","1404017.5999999642","null","","<p></p>","null","rating","ctd","attraction_2","1","laptops","null","null","null","null","null","null","2","","","","","","","","","","",""
"","","","","","rating_trial","survey-html-form","74","1048436","0.0-3.0-1.35","11","1","2025-04-10 18:39:36","7bd189e8e4882776c700e1dae255cdf5","","Mozilla/5.0 (Windows NT 10.0; Win64; x64) AppleWebKit/537.36 (KHTML, like Gecko) Chrome/135.0.0.0 Safari/537.36","WebKit","Chrome","135.0.0.0","Windows","10.0","https://hz8g1ckzuq.cognition.run/","en-US,en;q=0.9","21j9z6w9rehmfcd","","54","[""White""]","No","Male","1404017.5999999642","18110","","","{""price_1"":""90"",""price_2"":""90"",""price_3"":""90""}","rating","ctd","attraction_2","1","laptops","null","null","null","null","null","null","2","60","50","60","50","60","40","Processing speed","Memory (RAM)","","",""
"","","","","","rating_trial_setup","html-keyboard-response","75","1048741","0.0-3.0-0.36","11","1","2025-04-10 18:39:36","7bd189e8e4882776c700e1dae255cdf5","","Mozilla/5.0 (Windows NT 10.0; Win64; x64) AppleWebKit/537.36 (KHTML, like Gecko) Chrome/135.0.0.0 Safari/537.36","WebKit","Chrome","135.0.0.0","Windows","10.0","https://hz8g1ckzuq.cognition.run/","en-US,en;q=0.9","21j9z6w9rehmfcd","","54","[""White""]","No","Male","1404017.5999999642","null","","<p></p>","null","rating","dct","attraction_1","1","laptops","null","null","null","null","null","null","1","","","","","","","","","","",""
"","","","","","rating_trial","survey-html-form","76","1076754","0.0-3.0-1.36","11","1","2025-04-10 18:39:36","7bd189e8e4882776c700e1dae255cdf5","","Mozilla/5.0 (Windows NT 10.0; Win64; x64) AppleWebKit/537.36 (KHTML, like Gecko) Chrome/135.0.0.0 Safari/537.36","WebKit","Chrome","135.0.0.0","Windows","10.0","https://hz8g1ckzuq.cognition.run/","en-US,en;q=0.9","21j9z6w9rehmfcd","","54","[""White""]","No","Male","1404017.5999999642","28011","","","{""price_1"":""90"",""price_2"":""90"",""price_3"":""90""}","rating","dct","attraction_1","1","laptops","null","null","null","null","null","null","1","60","50","60","50","60","45","Processing speed","Memory (RAM)","","",""
"","","","","","rating_trial_setup","html-keyboard-response","77","1077060","0.0-3.0-0.37","11","1","2025-04-10 18:39:36","7bd189e8e4882776c700e1dae255cdf5","","Mozilla/5.0 (Windows NT 10.0; Win64; x64) AppleWebKit/537.36 (KHTML, like Gecko) Chrome/135.0.0.0 Safari/537.36","WebKit","Chrome","135.0.0.0","Windows","10.0","https://hz8g1ckzuq.cognition.run/","en-US,en;q=0.9","21j9z6w9rehmfcd","","54","[""White""]","No","Male","1404017.5999999642","null","","<p></p>","null","rating","tcd","attraction_2","2","laptops","null","null","null","null","null","null","1","","","","","","","","","","",""
"","","","","","rating_trial","survey-html-form","78","1088775","0.0-3.0-1.37","11","1","2025-04-10 18:39:36","7bd189e8e4882776c700e1dae255cdf5","","Mozilla/5.0 (Windows NT 10.0; Win64; x64) AppleWebKit/537.36 (KHTML, like Gecko) Chrome/135.0.0.0 Safari/537.36","WebKit","Chrome","135.0.0.0","Windows","10.0","https://hz8g1ckzuq.cognition.run/","en-US,en;q=0.9","21j9z6w9rehmfcd","","54","[""White""]","No","Male","1404017.5999999642","11711","","","{""price_1"":""90"",""price_2"":""90"",""price_3"":""80""}","rating","tcd","attraction_2","2","laptops","null","null","null","null","null","null","1","50","60","40","60","50","60","Processing speed","Memory (RAM)","","",""
"","","","","","rating_trial_setup","html-keyboard-response","79","1089080","0.0-3.0-0.38","11","1","2025-04-10 18:39:36","7bd189e8e4882776c700e1dae255cdf5","","Mozilla/5.0 (Windows NT 10.0; Win64; x64) AppleWebKit/537.36 (KHTML, like Gecko) Chrome/135.0.0.0 Safari/537.36","WebKit","Chrome","135.0.0.0","Windows","10.0","https://hz8g1ckzuq.cognition.run/","en-US,en;q=0.9","21j9z6w9rehmfcd","","54","[""White""]","No","Male","1404017.5999999642","null","","<p></p>","null","rating","wbw","catch","null","laptops","95","65","10","40","35","40","1","","","","","","","","","","",""
"","","","","","rating_trial","survey-html-form","80","1100576","0.0-3.0-1.38","11","1","2025-04-10 18:39:36","7bd189e8e4882776c700e1dae255cdf5","","Mozilla/5.0 (Windows NT 10.0; Win64; x64) AppleWebKit/537.36 (KHTML, like Gecko) Chrome/135.0.0.0 Safari/537.36","WebKit","Chrome","135.0.0.0","Windows","10.0","https://hz8g1ckzuq.cognition.run/","en-US,en;q=0.9","21j9z6w9rehmfcd","","54","[""White""]","No","Male","1404017.5999999642","11491","","","{""price_1"":""50"",""price_2"":""120"",""price_3"":""40""}","rating","wbw","catch","null","laptops","95","65","10","40","35","40","1","null","null","null","null","null","null","Processing speed","Memory (RAM)","","",""
"","","","","","rating_trial_setup","html-keyboard-response","81","1100880","0.0-3.0-0.39","11","1","2025-04-10 18:39:36","7bd189e8e4882776c700e1dae255cdf5","","Mozilla/5.0 (Windows NT 10.0; Win64; x64) AppleWebKit/537.36 (KHTML, like Gecko) Chrome/135.0.0.0 Safari/537.36","WebKit","Chrome","135.0.0.0","Windows","10.0","https://hz8g1ckzuq.cognition.run/","en-US,en;q=0.9","21j9z6w9rehmfcd","","54","[""White""]","No","Male","1404017.5999999642","null","","<p></p>","null","rating","tcd","repulsion_1","1","laptops","null","null","null","null","null","null","1","","","","","","","","","","",""
"","","","","","rating_trial","survey-html-form","82","1122196","0.0-3.0-1.39","11","1","2025-04-10 18:39:36","7bd189e8e4882776c700e1dae255cdf5","","Mozilla/5.0 (Windows NT 10.0; Win64; x64) AppleWebKit/537.36 (KHTML, like Gecko) Chrome/135.0.0.0 Safari/537.36","WebKit","Chrome","135.0.0.0","Windows","10.0","https://hz8g1ckzuq.cognition.run/","en-US,en;q=0.9","21j9z6w9rehmfcd","","54","[""White""]","No","Male","1404017.5999999642","21311","","","{""price_1"":""90"",""price_2"":""90"",""price_3"":""80""}","rating","tcd","repulsion_1","1","laptops","null","null","null","null","null","null","1","100","90","100","30","40","25","Processing speed","Memory (RAM)","","",""
"","","","","","","instructions","83","1161760","0.0-4.0","11","1","2025-04-10 18:39:36","7bd189e8e4882776c700e1dae255cdf5","","Mozilla/5.0 (Windows NT 10.0; Win64; x64) AppleWebKit/537.36 (KHTML, like Gecko) Chrome/135.0.0.0 Safari/537.36","WebKit","Chrome","135.0.0.0","Windows","10.0","https://hz8g1ckzuq.cognition.run/","en-US,en;q=0.9","21j9z6w9rehmfcd","","54","[""White""]","No","Male","1404017.5999999642","39562","[{""page_index"":0,""viewing_time"":2815},{""page_index"":1,""viewing_time"":1380},{""page_index"":2,""viewing_time"":2880},{""page_index"":3,""viewing_time"":2120},{""page_index"":4,""viewing_time"":1680},{""page_index"":5,""viewing_time"":1280},{""page_index"":6,""viewing_time"":24681},{""page_index"":7,""viewing_time"":2725}]","","","","","","","","","","","","","","","","","","","","","","","","",""
"","","","","","choice_trial_setup","html-keyboard-response","84","1162068","0.0-5.0-0.0","11","1","2025-04-10 18:39:36","7bd189e8e4882776c700e1dae255cdf5","","Mozilla/5.0 (Windows NT 10.0; Win64; x64) AppleWebKit/537.36 (KHTML, like Gecko) Chrome/135.0.0.0 Safari/537.36","WebKit","Chrome","135.0.0.0","Windows","10.0","https://hz8g1ckzuq.cognition.run/","en-US,en;q=0.9","21j9z6w9rehmfcd","","54","[""White""]","No","Male","1404017.5999999642","null","","<p></p>","null","choice","dtc","attraction_1","1","laptops","null","null","null","null","null","null","1","","","","","","","","","","",""
"","","","","","choice_trial","survey-html-form","85","1167756","0.0-5.0-1.0","11","1","2025-04-10 18:39:36","7bd189e8e4882776c700e1dae255cdf5","","Mozilla/5.0 (Windows NT 10.0; Win64; x64) AppleWebKit/537.36 (KHTML, like Gecko) Chrome/135.0.0.0 Safari/537.36","WebKit","Chrome","135.0.0.0","Windows","10.0","https://hz8g1ckzuq.cognition.run/","en-US,en;q=0.9","21j9z6w9rehmfcd","","54","[""White""]","No","Male","1404017.5999999642","5682","","","{""product_choice"":""B""}","choice","dtc","attraction_1","1","laptops","null","null","null","null","null","null","1","60","50","60","50","60","45","Processing speed","Memory (RAM)","","",""
"","","","","","choice_trial_setup","html-keyboard-response","86","1168059","0.0-5.0-0.1","11","1","2025-04-10 18:39:36","7bd189e8e4882776c700e1dae255cdf5","","Mozilla/5.0 (Windows NT 10.0; Win64; x64) AppleWebKit/537.36 (KHTML, like Gecko) Chrome/135.0.0.0 Safari/537.36","WebKit","Chrome","135.0.0.0","Windows","10.0","https://hz8g1ckzuq.cognition.run/","en-US,en;q=0.9","21j9z6w9rehmfcd","","54","[""White""]","No","Male","1404017.5999999642","null","","<p></p>","null","choice","ctd","attraction_1","2","microwave ovens","null","null","null","null","null","null","1","","","","","","","","","","",""
"","","","","","choice_trial","survey-html-form","87","1174916","0.0-5.0-1.1","11","1","2025-04-10 18:39:36","7bd189e8e4882776c700e1dae255cdf5","","Mozilla/5.0 (Windows NT 10.0; Win64; x64) AppleWebKit/537.36 (KHTML, like Gecko) Chrome/135.0.0.0 Safari/537.36","WebKit","Chrome","135.0.0.0","Windows","10.0","https://hz8g1ckzuq.cognition.run/","en-US,en;q=0.9","21j9z6w9rehmfcd","","54","[""White""]","No","Male","1404017.5999999642","6853","","","{""product_choice"":""B""}","choice","ctd","attraction_1","2","microwave ovens","null","null","null","null","null","null","1","50","60","45","60","50","60","Warranty","Cooking power","","",""
"","","","","","choice_trial_setup","html-keyboard-response","88","1175220","0.0-5.0-0.2","11","1","2025-04-10 18:39:36","7bd189e8e4882776c700e1dae255cdf5","","Mozilla/5.0 (Windows NT 10.0; Win64; x64) AppleWebKit/537.36 (KHTML, like Gecko) Chrome/135.0.0.0 Safari/537.36","WebKit","Chrome","135.0.0.0","Windows","10.0","https://hz8g1ckzuq.cognition.run/","en-US,en;q=0.9","21j9z6w9rehmfcd","","54","[""White""]","No","Male","1404017.5999999642","null","","<p></p>","null","choice","tdc","attraction_2","2","microwave ovens","null","null","null","null","null","null","2","","","","","","","","","","",""
"","","","","","choice_trial","survey-html-form","89","1177286","0.0-5.0-1.2","11","1","2025-04-10 18:39:36","7bd189e8e4882776c700e1dae255cdf5","","Mozilla/5.0 (Windows NT 10.0; Win64; x64) AppleWebKit/537.36 (KHTML, like Gecko) Chrome/135.0.0.0 Safari/537.36","WebKit","Chrome","135.0.0.0","Windows","10.0","https://hz8g1ckzuq.cognition.run/","en-US,en;q=0.9","21j9z6w9rehmfcd","","54","[""White""]","No","Male","1404017.5999999642","2061","","","{""product_choice"":""C""}","choice","tdc","attraction_2","2","microwave ovens","null","null","null","null","null","null","2","50","60","40","60","50","60","Warranty","Cooking power","","",""
"","","","","","choice_trial_setup","html-keyboard-response","90","1177591","0.0-5.0-0.3","11","1","2025-04-10 18:39:36","7bd189e8e4882776c700e1dae255cdf5","","Mozilla/5.0 (Windows NT 10.0; Win64; x64) AppleWebKit/537.36 (KHTML, like Gecko) Chrome/135.0.0.0 Safari/537.36","WebKit","Chrome","135.0.0.0","Windows","10.0","https://hz8g1ckzuq.cognition.run/","en-US,en;q=0.9","21j9z6w9rehmfcd","","54","[""White""]","No","Male","1404017.5999999642","null","","<p></p>","null","choice","cdt","repulsion_1","1","laptops","null","null","null","null","null","null","2","","","","","","","","","","",""
"","","","","","choice_trial","survey-html-form","91","1184716","0.0-5.0-1.3","11","1","2025-04-10 18:39:36","7bd189e8e4882776c700e1dae255cdf5","","Mozilla/5.0 (Windows NT 10.0; Win64; x64) AppleWebKit/537.36 (KHTML, like Gecko) Chrome/135.0.0.0 Safari/537.36","WebKit","Chrome","135.0.0.0","Windows","10.0","https://hz8g1ckzuq.cognition.run/","en-US,en;q=0.9","21j9z6w9rehmfcd","","54","[""White""]","No","Male","1404017.5999999642","7121","","","{""product_choice"":""A""}","choice","cdt","repulsion_1","1","laptops","null","null","null","null","null","null","2","100","90","100","30","40","25","Processing speed","Memory (RAM)","","",""
"","","","","","choice_trial_setup","html-keyboard-response","92","1185020","0.0-5.0-0.4","11","1","2025-04-10 18:39:36","7bd189e8e4882776c700e1dae255cdf5","","Mozilla/5.0 (Windows NT 10.0; Win64; x64) AppleWebKit/537.36 (KHTML, like Gecko) Chrome/135.0.0.0 Safari/537.36","WebKit","Chrome","135.0.0.0","Windows","10.0","https://hz8g1ckzuq.cognition.run/","en-US,en;q=0.9","21j9z6w9rehmfcd","","54","[""White""]","No","Male","1404017.5999999642","null","","<p></p>","null","choice","tcd","attraction_1","2","washing machines","null","null","null","null","null","null","2","","","","","","","","","","",""
"","","","","","choice_trial","survey-html-form","93","1191437","0.0-5.0-1.4","11","1","2025-04-10 18:39:36","7bd189e8e4882776c700e1dae255cdf5","","Mozilla/5.0 (Windows NT 10.0; Win64; x64) AppleWebKit/537.36 (KHTML, like Gecko) Chrome/135.0.0.0 Safari/537.36","WebKit","Chrome","135.0.0.0","Windows","10.0","https://hz8g1ckzuq.cognition.run/","en-US,en;q=0.9","21j9z6w9rehmfcd","","54","[""White""]","No","Male","1404017.5999999642","6412","","","{""product_choice"":""A""}","choice","tcd","attraction_1","2","washing machines","null","null","null","null","null","null","2","50","60","45","60","50","60","Average lifespan","Energy savings","","",""
"","","","","","choice_trial_setup","html-keyboard-response","94","1191742","0.0-5.0-0.5","11","1","2025-04-10 18:39:36","7bd189e8e4882776c700e1dae255cdf5","","Mozilla/5.0 (Windows NT 10.0; Win64; x64) AppleWebKit/537.36 (KHTML, like Gecko) Chrome/135.0.0.0 Safari/537.36","WebKit","Chrome","135.0.0.0","Windows","10.0","https://hz8g1ckzuq.cognition.run/","en-US,en;q=0.9","21j9z6w9rehmfcd","","54","[""White""]","No","Male","1404017.5999999642","null","","<p></p>","null","choice","wwb","catch","null","microwave ovens","50","80","40","35","25","15","2","","","","","","","","","","",""
"","","","","","choice_trial","survey-html-form","95","1200215","0.0-5.0-1.5","11","1","2025-04-10 18:39:36","7bd189e8e4882776c700e1dae255cdf5","","Mozilla/5.0 (Windows NT 10.0; Win64; x64) AppleWebKit/537.36 (KHTML, like Gecko) Chrome/135.0.0.0 Safari/537.36","WebKit","Chrome","135.0.0.0","Windows","10.0","https://hz8g1ckzuq.cognition.run/","en-US,en;q=0.9","21j9z6w9rehmfcd","","54","[""White""]","No","Male","1404017.5999999642","8469","","","{""product_choice"":""C""}","choice","wwb","catch","null","microwave ovens","50","80","40","35","25","15","2","null","null","null","null","null","null","Warranty","Cooking power","","",""
"","","","","","choice_trial_setup","html-keyboard-response","96","1200520","0.0-5.0-0.6","11","1","2025-04-10 18:39:36","7bd189e8e4882776c700e1dae255cdf5","","Mozilla/5.0 (Windows NT 10.0; Win64; x64) AppleWebKit/537.36 (KHTML, like Gecko) Chrome/135.0.0.0 Safari/537.36","WebKit","Chrome","135.0.0.0","Windows","10.0","https://hz8g1ckzuq.cognition.run/","en-US,en;q=0.9","21j9z6w9rehmfcd","","54","[""White""]","No","Male","1404017.5999999642","null","","<p></p>","null","choice","tdc","repulsion_1","2","laptops","null","null","null","null","null","null","2","","","","","","","","","","",""
"","","","","","choice_trial","survey-html-form","97","1205755","0.0-5.0-1.6","11","1","2025-04-10 18:39:36","7bd189e8e4882776c700e1dae255cdf5","","Mozilla/5.0 (Windows NT 10.0; Win64; x64) AppleWebKit/537.36 (KHTML, like Gecko) Chrome/135.0.0.0 Safari/537.36","WebKit","Chrome","135.0.0.0","Windows","10.0","https://hz8g1ckzuq.cognition.run/","en-US,en;q=0.9","21j9z6w9rehmfcd","","54","[""White""]","No","Male","1404017.5999999642","5230","","","{""product_choice"":""A""}","choice","tdc","repulsion_1","2","laptops","null","null","null","null","null","null","2","30","40","25","100","90","100","Processing speed","Memory (RAM)","","",""
"","","","","","choice_trial_setup","html-keyboard-response","98","1206059","0.0-5.0-0.7","11","1","2025-04-10 18:39:36","7bd189e8e4882776c700e1dae255cdf5","","Mozilla/5.0 (Windows NT 10.0; Win64; x64) AppleWebKit/537.36 (KHTML, like Gecko) Chrome/135.0.0.0 Safari/537.36","WebKit","Chrome","135.0.0.0","Windows","10.0","https://hz8g1ckzuq.cognition.run/","en-US,en;q=0.9","21j9z6w9rehmfcd","","54","[""White""]","No","Male","1404017.5999999642","null","","<p></p>","null","choice","dtc","repulsion_2","1","washing machines","null","null","null","null","null","null","1","","","","","","","","","","",""
"","","","","","choice_trial","survey-html-form","99","1218536","0.0-5.0-1.7","11","1","2025-04-10 18:39:36","7bd189e8e4882776c700e1dae255cdf5","","Mozilla/5.0 (Windows NT 10.0; Win64; x64) AppleWebKit/537.36 (KHTML, like Gecko) Chrome/135.0.0.0 Safari/537.36","WebKit","Chrome","135.0.0.0","Windows","10.0","https://hz8g1ckzuq.cognition.run/","en-US,en;q=0.9","21j9z6w9rehmfcd","","54","[""White""]","No","Male","1404017.5999999642","12472","","","{""product_choice"":""B""}","choice","dtc","repulsion_2","1","washing machines","null","null","null","null","null","null","1","100","90","100","30","40","20","Average lifespan","Energy savings","","",""
"","","","","","choice_trial_setup","html-keyboard-response","100","1218840","0.0-5.0-0.8","11","1","2025-04-10 18:39:36","7bd189e8e4882776c700e1dae255cdf5","","Mozilla/5.0 (Windows NT 10.0; Win64; x64) AppleWebKit/537.36 (KHTML, like Gecko) Chrome/135.0.0.0 Safari/537.36","WebKit","Chrome","135.0.0.0","Windows","10.0","https://hz8g1ckzuq.cognition.run/","en-US,en;q=0.9","21j9z6w9rehmfcd","","54","[""White""]","No","Male","1404017.5999999642","null","","<p></p>","null","choice","tcd","repulsion_2","2","washing machines","null","null","null","null","null","null","1","","","","","","","","","","",""
"","","","","","choice_trial","survey-html-form","101","1226515","0.0-5.0-1.8","11","1","2025-04-10 18:39:36","7bd189e8e4882776c700e1dae255cdf5","","Mozilla/5.0 (Windows NT 10.0; Win64; x64) AppleWebKit/537.36 (KHTML, like Gecko) Chrome/135.0.0.0 Safari/537.36","WebKit","Chrome","135.0.0.0","Windows","10.0","https://hz8g1ckzuq.cognition.run/","en-US,en;q=0.9","21j9z6w9rehmfcd","","54","[""White""]","No","Male","1404017.5999999642","7670","","","{""product_choice"":""A""}","choice","tcd","repulsion_2","2","washing machines","null","null","null","null","null","null","1","30","40","20","100","90","100","Average lifespan","Energy savings","","",""
"","","","","","choice_trial_setup","html-keyboard-response","102","1226820","0.0-5.0-0.9","11","1","2025-04-10 18:39:36","7bd189e8e4882776c700e1dae255cdf5","","Mozilla/5.0 (Windows NT 10.0; Win64; x64) AppleWebKit/537.36 (KHTML, like Gecko) Chrome/135.0.0.0 Safari/537.36","WebKit","Chrome","135.0.0.0","Windows","10.0","https://hz8g1ckzuq.cognition.run/","en-US,en;q=0.9","21j9z6w9rehmfcd","","54","[""White""]","No","Male","1404017.5999999642","null","","<p></p>","null","choice","tdc","repulsion_1","1","televisions","null","null","null","null","null","null","2","","","","","","","","","","",""
"","","","","","choice_trial","survey-html-form","103","1229816","0.0-5.0-1.9","11","1","2025-04-10 18:39:36","7bd189e8e4882776c700e1dae255cdf5","","Mozilla/5.0 (Windows NT 10.0; Win64; x64) AppleWebKit/537.36 (KHTML, like Gecko) Chrome/135.0.0.0 Safari/537.36","WebKit","Chrome","135.0.0.0","Windows","10.0","https://hz8g1ckzuq.cognition.run/","en-US,en;q=0.9","21j9z6w9rehmfcd","","54","[""White""]","No","Male","1404017.5999999642","2991","","","{""product_choice"":""A""}","choice","tdc","repulsion_1","1","televisions","null","null","null","null","null","null","2","100","90","100","30","40","25","Screen size","Average lifespan","","",""
"","","","","","choice_trial_setup","html-keyboard-response","104","1230120","0.0-5.0-0.10","11","1","2025-04-10 18:39:36","7bd189e8e4882776c700e1dae255cdf5","","Mozilla/5.0 (Windows NT 10.0; Win64; x64) AppleWebKit/537.36 (KHTML, like Gecko) Chrome/135.0.0.0 Safari/537.36","WebKit","Chrome","135.0.0.0","Windows","10.0","https://hz8g1ckzuq.cognition.run/","en-US,en;q=0.9","21j9z6w9rehmfcd","","54","[""White""]","No","Male","1404017.5999999642","null","","<p></p>","null","choice","bww","catch","null","laptops","65","85","40","30","40","35","2","","","","","","","","","","",""
"","","","","","choice_trial","survey-html-form","105","1232815","0.0-5.0-1.10","11","1","2025-04-10 18:39:36","7bd189e8e4882776c700e1dae255cdf5","","Mozilla/5.0 (Windows NT 10.0; Win64; x64) AppleWebKit/537.36 (KHTML, like Gecko) Chrome/135.0.0.0 Safari/537.36","WebKit","Chrome","135.0.0.0","Windows","10.0","https://hz8g1ckzuq.cognition.run/","en-US,en;q=0.9","21j9z6w9rehmfcd","","54","[""White""]","No","Male","1404017.5999999642","2690","","","{""product_choice"":""A""}","choice","bww","catch","null","laptops","65","85","40","30","40","35","2","null","null","null","null","null","null","Processing speed","Memory (RAM)","","",""
"","","","","","choice_trial_setup","html-keyboard-response","106","1233120","0.0-5.0-0.11","11","1","2025-04-10 18:39:36","7bd189e8e4882776c700e1dae255cdf5","","Mozilla/5.0 (Windows NT 10.0; Win64; x64) AppleWebKit/537.36 (KHTML, like Gecko) Chrome/135.0.0.0 Safari/537.36","WebKit","Chrome","135.0.0.0","Windows","10.0","https://hz8g1ckzuq.cognition.run/","en-US,en;q=0.9","21j9z6w9rehmfcd","","54","[""White""]","No","Male","1404017.5999999642","null","","<p></p>","null","choice","dtc","repulsion_2","1","microwave ovens","null","null","null","null","null","null","1","","","","","","","","","","",""
"","","","","","choice_trial","survey-html-form","107","1239396","0.0-5.0-1.11","11","1","2025-04-10 18:39:36","7bd189e8e4882776c700e1dae255cdf5","","Mozilla/5.0 (Windows NT 10.0; Win64; x64) AppleWebKit/537.36 (KHTML, like Gecko) Chrome/135.0.0.0 Safari/537.36","WebKit","Chrome","135.0.0.0","Windows","10.0","https://hz8g1ckzuq.cognition.run/","en-US,en;q=0.9","21j9z6w9rehmfcd","","54","[""White""]","No","Male","1404017.5999999642","6271","","","{""product_choice"":""C""}","choice","dtc","repulsion_2","1","microwave ovens","null","null","null","null","null","null","1","100","90","100","30","40","20","Warranty","Cooking power","","",""
"","","","","","choice_trial_setup","html-keyboard-response","108","1239701","0.0-5.0-0.12","11","1","2025-04-10 18:39:36","7bd189e8e4882776c700e1dae255cdf5","","Mozilla/5.0 (Windows NT 10.0; Win64; x64) AppleWebKit/537.36 (KHTML, like Gecko) Chrome/135.0.0.0 Safari/537.36","WebKit","Chrome","135.0.0.0","Windows","10.0","https://hz8g1ckzuq.cognition.run/","en-US,en;q=0.9","21j9z6w9rehmfcd","","54","[""White""]","No","Male","1404017.5999999642","null","","<p></p>","null","choice","cdt","attraction_2","2","laptops","null","null","null","null","null","null","2","","","","","","","","","","",""
"","","","","","choice_trial","survey-html-form","109","1267955","0.0-5.0-1.12","11","1","2025-04-10 18:39:36","7bd189e8e4882776c700e1dae255cdf5","","Mozilla/5.0 (Windows NT 10.0; Win64; x64) AppleWebKit/537.36 (KHTML, like Gecko) Chrome/135.0.0.0 Safari/537.36","WebKit","Chrome","135.0.0.0","Windows","10.0","https://hz8g1ckzuq.cognition.run/","en-US,en;q=0.9","21j9z6w9rehmfcd","","54","[""White""]","No","Male","1404017.5999999642","28251","","","{""product_choice"":""A""}","choice","cdt","attraction_2","2","laptops","null","null","null","null","null","null","2","50","60","40","60","50","60","Processing speed","Memory (RAM)","","",""
"","","","","","choice_trial_setup","html-keyboard-response","110","1268261","0.0-5.0-0.13","11","1","2025-04-10 18:39:36","7bd189e8e4882776c700e1dae255cdf5","","Mozilla/5.0 (Windows NT 10.0; Win64; x64) AppleWebKit/537.36 (KHTML, like Gecko) Chrome/135.0.0.0 Safari/537.36","WebKit","Chrome","135.0.0.0","Windows","10.0","https://hz8g1ckzuq.cognition.run/","en-US,en;q=0.9","21j9z6w9rehmfcd","","54","[""White""]","No","Male","1404017.5999999642","null","","<p></p>","null","choice","dtc","attraction_1","2","laptops","null","null","null","null","null","null","1","","","","","","","","","","",""
"","","","","","choice_trial","survey-html-form","111","1274434","0.0-5.0-1.13","11","1","2025-04-10 18:39:36","7bd189e8e4882776c700e1dae255cdf5","","Mozilla/5.0 (Windows NT 10.0; Win64; x64) AppleWebKit/537.36 (KHTML, like Gecko) Chrome/135.0.0.0 Safari/537.36","WebKit","Chrome","135.0.0.0","Windows","10.0","https://hz8g1ckzuq.cognition.run/","en-US,en;q=0.9","21j9z6w9rehmfcd","","54","[""White""]","No","Male","1404017.5999999642","6169","","","{""product_choice"":""B""}","choice","dtc","attraction_1","2","laptops","null","null","null","null","null","null","1","50","60","45","60","50","60","Processing speed","Memory (RAM)","","",""
"","","","","","choice_trial_setup","html-keyboard-response","112","1274740","0.0-5.0-0.14","11","1","2025-04-10 18:39:36","7bd189e8e4882776c700e1dae255cdf5","","Mozilla/5.0 (Windows NT 10.0; Win64; x64) AppleWebKit/537.36 (KHTML, like Gecko) Chrome/135.0.0.0 Safari/537.36","WebKit","Chrome","135.0.0.0","Windows","10.0","https://hz8g1ckzuq.cognition.run/","en-US,en;q=0.9","21j9z6w9rehmfcd","","54","[""White""]","No","Male","1404017.5999999642","null","","<p></p>","null","choice","ctd","attraction_2","1","televisions","null","null","null","null","null","null","2","","","","","","","","","","",""
"","","","","","choice_trial","survey-html-form","113","1277180","0.0-5.0-1.14","11","1","2025-04-10 18:39:36","7bd189e8e4882776c700e1dae255cdf5","","Mozilla/5.0 (Windows NT 10.0; Win64; x64) AppleWebKit/537.36 (KHTML, like Gecko) Chrome/135.0.0.0 Safari/537.36","WebKit","Chrome","135.0.0.0","Windows","10.0","https://hz8g1ckzuq.cognition.run/","en-US,en;q=0.9","21j9z6w9rehmfcd","","54","[""White""]","No","Male","1404017.5999999642","2435","","","{""product_choice"":""A""}","choice","ctd","attraction_2","1","televisions","null","null","null","null","null","null","2","60","50","60","50","60","40","Screen size","Average lifespan","","",""
"","","","","","choice_trial_setup","html-keyboard-response","114","1277485","0.0-5.0-0.15","11","1","2025-04-10 18:39:36","7bd189e8e4882776c700e1dae255cdf5","","Mozilla/5.0 (Windows NT 10.0; Win64; x64) AppleWebKit/537.36 (KHTML, like Gecko) Chrome/135.0.0.0 Safari/537.36","WebKit","Chrome","135.0.0.0","Windows","10.0","https://hz8g1ckzuq.cognition.run/","en-US,en;q=0.9","21j9z6w9rehmfcd","","54","[""White""]","No","Male","1404017.5999999642","null","","<p></p>","null","choice","cdt","attraction_2","2","televisions","null","null","null","null","null","null","1","","","","","","","","","","",""
"","","","","","choice_trial","survey-html-form","115","1279375","0.0-5.0-1.15","11","1","2025-04-10 18:39:36","7bd189e8e4882776c700e1dae255cdf5","","Mozilla/5.0 (Windows NT 10.0; Win64; x64) AppleWebKit/537.36 (KHTML, like Gecko) Chrome/135.0.0.0 Safari/537.36","WebKit","Chrome","135.0.0.0","Windows","10.0","https://hz8g1ckzuq.cognition.run/","en-US,en;q=0.9","21j9z6w9rehmfcd","","54","[""White""]","No","Male","1404017.5999999642","1885","","","{""product_choice"":""A""}","choice","cdt","attraction_2","2","televisions","null","null","null","null","null","null","1","50","60","40","60","50","60","Screen size","Average lifespan","","",""
"","","","","","choice_trial_setup","html-keyboard-response","116","1279682","0.0-5.0-0.16","11","1","2025-04-10 18:39:36","7bd189e8e4882776c700e1dae255cdf5","","Mozilla/5.0 (Windows NT 10.0; Win64; x64) AppleWebKit/537.36 (KHTML, like Gecko) Chrome/135.0.0.0 Safari/537.36","WebKit","Chrome","135.0.0.0","Windows","10.0","https://hz8g1ckzuq.cognition.run/","en-US,en;q=0.9","21j9z6w9rehmfcd","","54","[""White""]","No","Male","1404017.5999999642","null","","<p></p>","null","choice","cdt","repulsion_2","2","televisions","null","null","null","null","null","null","1","","","","","","","","","","",""
"","","","","","choice_trial","survey-html-form","117","1281495","0.0-5.0-1.16","11","1","2025-04-10 18:39:36","7bd189e8e4882776c700e1dae255cdf5","","Mozilla/5.0 (Windows NT 10.0; Win64; x64) AppleWebKit/537.36 (KHTML, like Gecko) Chrome/135.0.0.0 Safari/537.36","WebKit","Chrome","135.0.0.0","Windows","10.0","https://hz8g1ckzuq.cognition.run/","en-US,en;q=0.9","21j9z6w9rehmfcd","","54","[""White""]","No","Male","1404017.5999999642","1808","","","{""product_choice"":""C""}","choice","cdt","repulsion_2","2","televisions","null","null","null","null","null","null","1","30","40","20","100","90","100","Screen size","Average lifespan","","",""
"","","","","","choice_trial_setup","html-keyboard-response","118","1281801","0.0-5.0-0.17","11","1","2025-04-10 18:39:36","7bd189e8e4882776c700e1dae255cdf5","","Mozilla/5.0 (Windows NT 10.0; Win64; x64) AppleWebKit/537.36 (KHTML, like Gecko) Chrome/135.0.0.0 Safari/537.36","WebKit","Chrome","135.0.0.0","Windows","10.0","https://hz8g1ckzuq.cognition.run/","en-US,en;q=0.9","21j9z6w9rehmfcd","","54","[""White""]","No","Male","1404017.5999999642","null","","<p></p>","null","choice","dtc","attraction_2","2","washing machines","null","null","null","null","null","null","2","","","","","","","","","","",""
"","","","","","choice_trial","survey-html-form","119","1293256","0.0-5.0-1.17","11","1","2025-04-10 18:39:36","7bd189e8e4882776c700e1dae255cdf5","","Mozilla/5.0 (Windows NT 10.0; Win64; x64) AppleWebKit/537.36 (KHTML, like Gecko) Chrome/135.0.0.0 Safari/537.36","WebKit","Chrome","135.0.0.0","Windows","10.0","https://hz8g1ckzuq.cognition.run/","en-US,en;q=0.9","21j9z6w9rehmfcd","","54","[""White""]","No","Male","1404017.5999999642","11449","","","{""product_choice"":""C""}","choice","dtc","attraction_2","2","washing machines","null","null","null","null","null","null","2","50","60","40","60","50","60","Average lifespan","Energy savings","","",""
"","","","","","choice_trial_setup","html-keyboard-response","120","1293563","0.0-5.0-0.18","11","1","2025-04-10 18:39:36","7bd189e8e4882776c700e1dae255cdf5","","Mozilla/5.0 (Windows NT 10.0; Win64; x64) AppleWebKit/537.36 (KHTML, like Gecko) Chrome/135.0.0.0 Safari/537.36","WebKit","Chrome","135.0.0.0","Windows","10.0","https://hz8g1ckzuq.cognition.run/","en-US,en;q=0.9","21j9z6w9rehmfcd","","54","[""White""]","No","Male","1404017.5999999642","null","","<p></p>","null","choice","cdt","repulsion_2","1","televisions","null","null","null","null","null","null","1","","","","","","","","","","",""
"","","","","","choice_trial","survey-html-form","121","1296376","0.0-5.0-1.18","11","1","2025-04-10 18:39:36","7bd189e8e4882776c700e1dae255cdf5","","Mozilla/5.0 (Windows NT 10.0; Win64; x64) AppleWebKit/537.36 (KHTML, like Gecko) Chrome/135.0.0.0 Safari/537.36","WebKit","Chrome","135.0.0.0","Windows","10.0","https://hz8g1ckzuq.cognition.run/","en-US,en;q=0.9","21j9z6w9rehmfcd","","54","[""White""]","No","Male","1404017.5999999642","2808","","","{""product_choice"":""C""}","choice","cdt","repulsion_2","1","televisions","null","null","null","null","null","null","1","100","90","100","30","40","20","Screen size","Average lifespan","","",""
"","","","","","choice_trial_setup","html-keyboard-response","122","1296685","0.0-5.0-0.19","11","1","2025-04-10 18:39:36","7bd189e8e4882776c700e1dae255cdf5","","Mozilla/5.0 (Windows NT 10.0; Win64; x64) AppleWebKit/537.36 (KHTML, like Gecko) Chrome/135.0.0.0 Safari/537.36","WebKit","Chrome","135.0.0.0","Windows","10.0","https://hz8g1ckzuq.cognition.run/","en-US,en;q=0.9","21j9z6w9rehmfcd","","54","[""White""]","No","Male","1404017.5999999642","null","","<p></p>","null","choice","bww","catch","null","microwave ovens","75","55","50","15","10","40","1","","","","","","","","","","",""
"","","","","","choice_trial","survey-html-form","123","1299396","0.0-5.0-1.19","11","1","2025-04-10 18:39:36","7bd189e8e4882776c700e1dae255cdf5","","Mozilla/5.0 (Windows NT 10.0; Win64; x64) AppleWebKit/537.36 (KHTML, like Gecko) Chrome/135.0.0.0 Safari/537.36","WebKit","Chrome","135.0.0.0","Windows","10.0","https://hz8g1ckzuq.cognition.run/","en-US,en;q=0.9","21j9z6w9rehmfcd","","54","[""White""]","No","Male","1404017.5999999642","2706","","","{""product_choice"":""B""}","choice","bww","catch","null","microwave ovens","75","55","50","15","10","40","1","null","null","null","null","null","null","Warranty","Cooking power","","",""
"","","","","","choice_trial_setup","html-keyboard-response","124","1299701","0.0-5.0-0.20","11","1","2025-04-10 18:39:36","7bd189e8e4882776c700e1dae255cdf5","","Mozilla/5.0 (Windows NT 10.0; Win64; x64) AppleWebKit/537.36 (KHTML, like Gecko) Chrome/135.0.0.0 Safari/537.36","WebKit","Chrome","135.0.0.0","Windows","10.0","https://hz8g1ckzuq.cognition.run/","en-US,en;q=0.9","21j9z6w9rehmfcd","","54","[""White""]","No","Male","1404017.5999999642","null","","<p></p>","null","choice","ctd","repulsion_1","2","washing machines","null","null","null","null","null","null","2","","","","","","","","","","",""
"","","","","","choice_trial","survey-html-form","125","1301976","0.0-5.0-1.20","11","1","2025-04-10 18:39:36","7bd189e8e4882776c700e1dae255cdf5","","Mozilla/5.0 (Windows NT 10.0; Win64; x64) AppleWebKit/537.36 (KHTML, like Gecko) Chrome/135.0.0.0 Safari/537.36","WebKit","Chrome","135.0.0.0","Windows","10.0","https://hz8g1ckzuq.cognition.run/","en-US,en;q=0.9","21j9z6w9rehmfcd","","54","[""White""]","No","Male","1404017.5999999642","2269","","","{""product_choice"":""C""}","choice","ctd","repulsion_1","2","washing machines","null","null","null","null","null","null","2","30","40","25","100","90","100","Average lifespan","Energy savings","","",""
"","","","","","choice_trial_setup","html-keyboard-response","126","1302283","0.0-5.0-0.21","11","1","2025-04-10 18:39:36","7bd189e8e4882776c700e1dae255cdf5","","Mozilla/5.0 (Windows NT 10.0; Win64; x64) AppleWebKit/537.36 (KHTML, like Gecko) Chrome/135.0.0.0 Safari/537.36","WebKit","Chrome","135.0.0.0","Windows","10.0","https://hz8g1ckzuq.cognition.run/","en-US,en;q=0.9","21j9z6w9rehmfcd","","54","[""White""]","No","Male","1404017.5999999642","null","","<p></p>","null","choice","tcd","attraction_2","1","laptops","null","null","null","null","null","null","2","","","","","","","","","","",""
"","","","","","choice_trial","survey-html-form","127","1304236","0.0-5.0-1.21","11","1","2025-04-10 18:39:36","7bd189e8e4882776c700e1dae255cdf5","","Mozilla/5.0 (Windows NT 10.0; Win64; x64) AppleWebKit/537.36 (KHTML, like Gecko) Chrome/135.0.0.0 Safari/537.36","WebKit","Chrome","135.0.0.0","Windows","10.0","https://hz8g1ckzuq.cognition.run/","en-US,en;q=0.9","21j9z6w9rehmfcd","","54","[""White""]","No","Male","1404017.5999999642","1947","","","{""product_choice"":""B""}","choice","tcd","attraction_2","1","laptops","null","null","null","null","null","null","2","60","50","60","50","60","40","Processing speed","Memory (RAM)","","",""
"","","","","","choice_trial_setup","html-keyboard-response","128","1304541","0.0-5.0-0.22","11","1","2025-04-10 18:39:36","7bd189e8e4882776c700e1dae255cdf5","","Mozilla/5.0 (Windows NT 10.0; Win64; x64) AppleWebKit/537.36 (KHTML, like Gecko) Chrome/135.0.0.0 Safari/537.36","WebKit","Chrome","135.0.0.0","Windows","10.0","https://hz8g1ckzuq.cognition.run/","en-US,en;q=0.9","21j9z6w9rehmfcd","","54","[""White""]","No","Male","1404017.5999999642","null","","<p></p>","null","choice","cdt","repulsion_2","1","laptops","null","null","null","null","null","null","1","","","","","","","","","","",""
"","","","","","choice_trial","survey-html-form","129","1306071","0.0-5.0-1.22","11","1","2025-04-10 18:39:36","7bd189e8e4882776c700e1dae255cdf5","","Mozilla/5.0 (Windows NT 10.0; Win64; x64) AppleWebKit/537.36 (KHTML, like Gecko) Chrome/135.0.0.0 Safari/537.36","WebKit","Chrome","135.0.0.0","Windows","10.0","https://hz8g1ckzuq.cognition.run/","en-US,en;q=0.9","21j9z6w9rehmfcd","","54","[""White""]","No","Male","1404017.5999999642","1524","","","{""product_choice"":""A""}","choice","cdt","repulsion_2","1","laptops","null","null","null","null","null","null","1","100","90","100","30","40","20","Processing speed","Memory (RAM)","","",""
"","","","","","choice_trial_setup","html-keyboard-response","130","1306378","0.0-5.0-0.23","11","1","2025-04-10 18:39:36","7bd189e8e4882776c700e1dae255cdf5","","Mozilla/5.0 (Windows NT 10.0; Win64; x64) AppleWebKit/537.36 (KHTML, like Gecko) Chrome/135.0.0.0 Safari/537.36","WebKit","Chrome","135.0.0.0","Windows","10.0","https://hz8g1ckzuq.cognition.run/","en-US,en;q=0.9","21j9z6w9rehmfcd","","54","[""White""]","No","Male","1404017.5999999642","null","","<p></p>","null","choice","wbw","catch","null","washing machines","80","70","30","10","15","20","1","","","","","","","","","","",""
"","","","","","choice_trial","survey-html-form","131","1308216","0.0-5.0-1.23","11","1","2025-04-10 18:39:36","7bd189e8e4882776c700e1dae255cdf5","","Mozilla/5.0 (Windows NT 10.0; Win64; x64) AppleWebKit/537.36 (KHTML, like Gecko) Chrome/135.0.0.0 Safari/537.36","WebKit","Chrome","135.0.0.0","Windows","10.0","https://hz8g1ckzuq.cognition.run/","en-US,en;q=0.9","21j9z6w9rehmfcd","","54","[""White""]","No","Male","1404017.5999999642","1833","","","{""product_choice"":""B""}","choice","wbw","catch","null","washing machines","80","70","30","10","15","20","1","null","null","null","null","null","null","Average lifespan","Energy savings","","",""
"","","","","","choice_trial_setup","html-keyboard-response","132","1308522","0.0-5.0-0.24","11","1","2025-04-10 18:39:36","7bd189e8e4882776c700e1dae255cdf5","","Mozilla/5.0 (Windows NT 10.0; Win64; x64) AppleWebKit/537.36 (KHTML, like Gecko) Chrome/135.0.0.0 Safari/537.36","WebKit","Chrome","135.0.0.0","Windows","10.0","https://hz8g1ckzuq.cognition.run/","en-US,en;q=0.9","21j9z6w9rehmfcd","","54","[""White""]","No","Male","1404017.5999999642","null","","<p></p>","null","choice","cdt","attraction_2","1","washing machines","null","null","null","null","null","null","2","","","","","","","","","","",""
"","","","","","choice_trial","survey-html-form","133","1310512","0.0-5.0-1.24","11","1","2025-04-10 18:39:36","7bd189e8e4882776c700e1dae255cdf5","","Mozilla/5.0 (Windows NT 10.0; Win64; x64) AppleWebKit/537.36 (KHTML, like Gecko) Chrome/135.0.0.0 Safari/537.36","WebKit","Chrome","135.0.0.0","Windows","10.0","https://hz8g1ckzuq.cognition.run/","en-US,en;q=0.9","21j9z6w9rehmfcd","","54","[""White""]","No","Male","1404017.5999999642","1984","","","{""product_choice"":""B""}","choice","cdt","attraction_2","1","washing machines","null","null","null","null","null","null","2","60","50","60","50","60","40","Average lifespan","Energy savings","","",""
"","","","","","choice_trial_setup","html-keyboard-response","134","1310818","0.0-5.0-0.25","11","1","2025-04-10 18:39:36","7bd189e8e4882776c700e1dae255cdf5","","Mozilla/5.0 (Windows NT 10.0; Win64; x64) AppleWebKit/537.36 (KHTML, like Gecko) Chrome/135.0.0.0 Safari/537.36","WebKit","Chrome","135.0.0.0","Windows","10.0","https://hz8g1ckzuq.cognition.run/","en-US,en;q=0.9","21j9z6w9rehmfcd","","54","[""White""]","No","Male","1404017.5999999642","null","","<p></p>","null","choice","tdc","attraction_1","2","televisions","null","null","null","null","null","null","1","","","","","","","","","","",""
"","","","","","choice_trial","survey-html-form","135","1313431","0.0-5.0-1.25","11","1","2025-04-10 18:39:36","7bd189e8e4882776c700e1dae255cdf5","","Mozilla/5.0 (Windows NT 10.0; Win64; x64) AppleWebKit/537.36 (KHTML, like Gecko) Chrome/135.0.0.0 Safari/537.36","WebKit","Chrome","135.0.0.0","Windows","10.0","https://hz8g1ckzuq.cognition.run/","en-US,en;q=0.9","21j9z6w9rehmfcd","","54","[""White""]","No","Male","1404017.5999999642","2607","","","{""product_choice"":""A""}","choice","tdc","attraction_1","2","televisions","null","null","null","null","null","null","1","50","60","45","60","50","60","Screen size","Average lifespan","","",""
"","","","","","choice_trial_setup","html-keyboard-response","136","1313738","0.0-5.0-0.26","11","1","2025-04-10 18:39:36","7bd189e8e4882776c700e1dae255cdf5","","Mozilla/5.0 (Windows NT 10.0; Win64; x64) AppleWebKit/537.36 (KHTML, like Gecko) Chrome/135.0.0.0 Safari/537.36","WebKit","Chrome","135.0.0.0","Windows","10.0","https://hz8g1ckzuq.cognition.run/","en-US,en;q=0.9","21j9z6w9rehmfcd","","54","[""White""]","No","Male","1404017.5999999642","null","","<p></p>","null","choice","tdc","attraction_1","1","washing machines","null","null","null","null","null","null","1","","","","","","","","","","",""
"","","","","","choice_trial","survey-html-form","137","1316552","0.0-5.0-1.26","11","1","2025-04-10 18:39:36","7bd189e8e4882776c700e1dae255cdf5","","Mozilla/5.0 (Windows NT 10.0; Win64; x64) AppleWebKit/537.36 (KHTML, like Gecko) Chrome/135.0.0.0 Safari/537.36","WebKit","Chrome","135.0.0.0","Windows","10.0","https://hz8g1ckzuq.cognition.run/","en-US,en;q=0.9","21j9z6w9rehmfcd","","54","[""White""]","No","Male","1404017.5999999642","2808","","","{""product_choice"":""C""}","choice","tdc","attraction_1","1","washing machines","null","null","null","null","null","null","1","60","50","60","50","60","45","Average lifespan","Energy savings","","",""
"","","","","","choice_trial_setup","html-keyboard-response","138","1316858","0.0-5.0-0.27","11","1","2025-04-10 18:39:36","7bd189e8e4882776c700e1dae255cdf5","","Mozilla/5.0 (Windows NT 10.0; Win64; x64) AppleWebKit/537.36 (KHTML, like Gecko) Chrome/135.0.0.0 Safari/537.36","WebKit","Chrome","135.0.0.0","Windows","10.0","https://hz8g1ckzuq.cognition.run/","en-US,en;q=0.9","21j9z6w9rehmfcd","","54","[""White""]","No","Male","1404017.5999999642","null","","<p></p>","null","choice","bww","catch","null","televisions","85","75","40","50","30","25","1","","","","","","","","","","",""
"","","","","","choice_trial","survey-html-form","139","1321275","0.0-5.0-1.27","11","1","2025-04-10 18:39:36","7bd189e8e4882776c700e1dae255cdf5","","Mozilla/5.0 (Windows NT 10.0; Win64; x64) AppleWebKit/537.36 (KHTML, like Gecko) Chrome/135.0.0.0 Safari/537.36","WebKit","Chrome","135.0.0.0","Windows","10.0","https://hz8g1ckzuq.cognition.run/","en-US,en;q=0.9","21j9z6w9rehmfcd","","54","[""White""]","No","Male","1404017.5999999642","4413","","","{""product_choice"":""C""}","choice","bww","catch","null","televisions","85","75","40","50","30","25","1","null","null","null","null","null","null","Screen size","Average lifespan","","",""
"","","","","","choice_trial_setup","html-keyboard-response","140","1321582","0.0-5.0-0.28","11","1","2025-04-10 18:39:36","7bd189e8e4882776c700e1dae255cdf5","","Mozilla/5.0 (Windows NT 10.0; Win64; x64) AppleWebKit/537.36 (KHTML, like Gecko) Chrome/135.0.0.0 Safari/537.36","WebKit","Chrome","135.0.0.0","Windows","10.0","https://hz8g1ckzuq.cognition.run/","en-US,en;q=0.9","21j9z6w9rehmfcd","","54","[""White""]","No","Male","1404017.5999999642","null","","<p></p>","null","choice","ctd","attraction_1","1","televisions","null","null","null","null","null","null","1","","","","","","","","","","",""
"","","","","","choice_trial","survey-html-form","141","1323615","0.0-5.0-1.28","11","1","2025-04-10 18:39:36","7bd189e8e4882776c700e1dae255cdf5","","Mozilla/5.0 (Windows NT 10.0; Win64; x64) AppleWebKit/537.36 (KHTML, like Gecko) Chrome/135.0.0.0 Safari/537.36","WebKit","Chrome","135.0.0.0","Windows","10.0","https://hz8g1ckzuq.cognition.run/","en-US,en;q=0.9","21j9z6w9rehmfcd","","54","[""White""]","No","Male","1404017.5999999642","2026","","","{""product_choice"":""A""}","choice","ctd","attraction_1","1","televisions","null","null","null","null","null","null","1","60","50","60","50","60","45","Screen size","Average lifespan","","",""
"","","","","","choice_trial_setup","html-keyboard-response","142","1323921","0.0-5.0-0.29","11","1","2025-04-10 18:39:36","7bd189e8e4882776c700e1dae255cdf5","","Mozilla/5.0 (Windows NT 10.0; Win64; x64) AppleWebKit/537.36 (KHTML, like Gecko) Chrome/135.0.0.0 Safari/537.36","WebKit","Chrome","135.0.0.0","Windows","10.0","https://hz8g1ckzuq.cognition.run/","en-US,en;q=0.9","21j9z6w9rehmfcd","","54","[""White""]","No","Male","1404017.5999999642","null","","<p></p>","null","choice","wwb","catch","null","washing machines","95","55","5","20","35","35","1","","","","","","","","","","",""
"","","","","","choice_trial","survey-html-form","143","1329415","0.0-5.0-1.29","11","1","2025-04-10 18:39:36","7bd189e8e4882776c700e1dae255cdf5","","Mozilla/5.0 (Windows NT 10.0; Win64; x64) AppleWebKit/537.36 (KHTML, like Gecko) Chrome/135.0.0.0 Safari/537.36","WebKit","Chrome","135.0.0.0","Windows","10.0","https://hz8g1ckzuq.cognition.run/","en-US,en;q=0.9","21j9z6w9rehmfcd","","54","[""White""]","No","Male","1404017.5999999642","5488","","","{""product_choice"":""C""}","choice","wwb","catch","null","washing machines","95","55","5","20","35","35","1","null","null","null","null","null","null","Average lifespan","Energy savings","","",""
"","","","","","choice_trial_setup","html-keyboard-response","144","1329721","0.0-5.0-0.30","11","1","2025-04-10 18:39:36","7bd189e8e4882776c700e1dae255cdf5","","Mozilla/5.0 (Windows NT 10.0; Win64; x64) AppleWebKit/537.36 (KHTML, like Gecko) Chrome/135.0.0.0 Safari/537.36","WebKit","Chrome","135.0.0.0","Windows","10.0","https://hz8g1ckzuq.cognition.run/","en-US,en;q=0.9","21j9z6w9rehmfcd","","54","[""White""]","No","Male","1404017.5999999642","null","","<p></p>","null","choice","dtc","attraction_1","1","microwave ovens","null","null","null","null","null","null","1","","","","","","","","","","",""
"","","","","","choice_trial","survey-html-form","145","1332715","0.0-5.0-1.30","11","1","2025-04-10 18:39:36","7bd189e8e4882776c700e1dae255cdf5","","Mozilla/5.0 (Windows NT 10.0; Win64; x64) AppleWebKit/537.36 (KHTML, like Gecko) Chrome/135.0.0.0 Safari/537.36","WebKit","Chrome","135.0.0.0","Windows","10.0","https://hz8g1ckzuq.cognition.run/","en-US,en;q=0.9","21j9z6w9rehmfcd","","54","[""White""]","No","Male","1404017.5999999642","2988","","","{""product_choice"":""C""}","choice","dtc","attraction_1","1","microwave ovens","null","null","null","null","null","null","1","60","50","60","50","60","45","Warranty","Cooking power","","",""
"","","","","","choice_trial_setup","html-keyboard-response","146","1333021","0.0-5.0-0.31","11","1","2025-04-10 18:39:36","7bd189e8e4882776c700e1dae255cdf5","","Mozilla/5.0 (Windows NT 10.0; Win64; x64) AppleWebKit/537.36 (KHTML, like Gecko) Chrome/135.0.0.0 Safari/537.36","WebKit","Chrome","135.0.0.0","Windows","10.0","https://hz8g1ckzuq.cognition.run/","en-US,en;q=0.9","21j9z6w9rehmfcd","","54","[""White""]","No","Male","1404017.5999999642","null","","<p></p>","null","choice","wwb","catch","null","televisions","75","90","20","10","45","15","2","","","","","","","","","","",""
"","","","","","choice_trial","survey-html-form","147","1335390","0.0-5.0-1.31","11","1","2025-04-10 18:39:36","7bd189e8e4882776c700e1dae255cdf5","","Mozilla/5.0 (Windows NT 10.0; Win64; x64) AppleWebKit/537.36 (KHTML, like Gecko) Chrome/135.0.0.0 Safari/537.36","WebKit","Chrome","135.0.0.0","Windows","10.0","https://hz8g1ckzuq.cognition.run/","en-US,en;q=0.9","21j9z6w9rehmfcd","","54","[""White""]","No","Male","1404017.5999999642","2363","","","{""product_choice"":""C""}","choice","wwb","catch","null","televisions","75","90","20","10","45","15","2","null","null","null","null","null","null","Screen size","Average lifespan","","",""
"","","","","","choice_trial_setup","html-keyboard-response","148","1335696","0.0-5.0-0.32","11","1","2025-04-10 18:39:36","7bd189e8e4882776c700e1dae255cdf5","","Mozilla/5.0 (Windows NT 10.0; Win64; x64) AppleWebKit/537.36 (KHTML, like Gecko) Chrome/135.0.0.0 Safari/537.36","WebKit","Chrome","135.0.0.0","Windows","10.0","https://hz8g1ckzuq.cognition.run/","en-US,en;q=0.9","21j9z6w9rehmfcd","","54","[""White""]","No","Male","1404017.5999999642","null","","<p></p>","null","choice","tdc","repulsion_1","1","washing machines","null","null","null","null","null","null","1","","","","","","","","","","",""
"","","","","","choice_trial","survey-html-form","149","1338016","0.0-5.0-1.32","11","1","2025-04-10 18:39:36","7bd189e8e4882776c700e1dae255cdf5","","Mozilla/5.0 (Windows NT 10.0; Win64; x64) AppleWebKit/537.36 (KHTML, like Gecko) Chrome/135.0.0.0 Safari/537.36","WebKit","Chrome","135.0.0.0","Windows","10.0","https://hz8g1ckzuq.cognition.run/","en-US,en;q=0.9","21j9z6w9rehmfcd","","54","[""White""]","No","Male","1404017.5999999642","2314","","","{""product_choice"":""C""}","choice","tdc","repulsion_1","1","washing machines","null","null","null","null","null","null","1","100","90","100","30","40","25","Average lifespan","Energy savings","","",""
"","","","","","choice_trial_setup","html-keyboard-response","150","1338321","0.0-5.0-0.33","11","1","2025-04-10 18:39:36","7bd189e8e4882776c700e1dae255cdf5","","Mozilla/5.0 (Windows NT 10.0; Win64; x64) AppleWebKit/537.36 (KHTML, like Gecko) Chrome/135.0.0.0 Safari/537.36","WebKit","Chrome","135.0.0.0","Windows","10.0","https://hz8g1ckzuq.cognition.run/","en-US,en;q=0.9","21j9z6w9rehmfcd","","54","[""White""]","No","Male","1404017.5999999642","null","","<p></p>","null","choice","wbw","catch","null","laptops","80","65","15","5","30","35","1","","","","","","","","","","",""
"","","","","","choice_trial","survey-html-form","151","1343176","0.0-5.0-1.33","11","1","2025-04-10 18:39:36","7bd189e8e4882776c700e1dae255cdf5","","Mozilla/5.0 (Windows NT 10.0; Win64; x64) AppleWebKit/537.36 (KHTML, like Gecko) Chrome/135.0.0.0 Safari/537.36","WebKit","Chrome","135.0.0.0","Windows","10.0","https://hz8g1ckzuq.cognition.run/","en-US,en;q=0.9","21j9z6w9rehmfcd","","54","[""White""]","No","Male","1404017.5999999642","4848","","","{""product_choice"":""B""}","choice","wbw","catch","null","laptops","80","65","15","5","30","35","1","null","null","null","null","null","null","Processing speed","Memory (RAM)","","",""
"","","","","","choice_trial_setup","html-keyboard-response","152","1343482","0.0-5.0-0.34","11","1","2025-04-10 18:39:36","7bd189e8e4882776c700e1dae255cdf5","","Mozilla/5.0 (Windows NT 10.0; Win64; x64) AppleWebKit/537.36 (KHTML, like Gecko) Chrome/135.0.0.0 Safari/537.36","WebKit","Chrome","135.0.0.0","Windows","10.0","https://hz8g1ckzuq.cognition.run/","en-US,en;q=0.9","21j9z6w9rehmfcd","","54","[""White""]","No","Male","1404017.5999999642","null","","<p></p>","null","choice","dct","attraction_2","1","microwave ovens","null","null","null","null","null","null","2","","","","","","","","","","",""
"","","","","","choice_trial","survey-html-form","153","1347330","0.0-5.0-1.34","11","1","2025-04-10 18:39:36","7bd189e8e4882776c700e1dae255cdf5","","Mozilla/5.0 (Windows NT 10.0; Win64; x64) AppleWebKit/537.36 (KHTML, like Gecko) Chrome/135.0.0.0 Safari/537.36","WebKit","Chrome","135.0.0.0","Windows","10.0","https://hz8g1ckzuq.cognition.run/","en-US,en;q=0.9","21j9z6w9rehmfcd","","54","[""White""]","No","Male","1404017.5999999642","3841","","","{""product_choice"":""B""}","choice","dct","attraction_2","1","microwave ovens","null","null","null","null","null","null","2","60","50","60","50","60","40","Warranty","Cooking power","","",""
"","","","","","choice_trial_setup","html-keyboard-response","154","1347637","0.0-5.0-0.35","11","1","2025-04-10 18:39:36","7bd189e8e4882776c700e1dae255cdf5","","Mozilla/5.0 (Windows NT 10.0; Win64; x64) AppleWebKit/537.36 (KHTML, like Gecko) Chrome/135.0.0.0 Safari/537.36","WebKit","Chrome","135.0.0.0","Windows","10.0","https://hz8g1ckzuq.cognition.run/","en-US,en;q=0.9","21j9z6w9rehmfcd","","54","[""White""]","No","Male","1404017.5999999642","null","","<p></p>","null","choice","ctd","repulsion_2","2","laptops","null","null","null","null","null","null","1","","","","","","","","","","",""
"","","","","","choice_trial","survey-html-form","155","1352995","0.0-5.0-1.35","11","1","2025-04-10 18:39:36","7bd189e8e4882776c700e1dae255cdf5","","Mozilla/5.0 (Windows NT 10.0; Win64; x64) AppleWebKit/537.36 (KHTML, like Gecko) Chrome/135.0.0.0 Safari/537.36","WebKit","Chrome","135.0.0.0","Windows","10.0","https://hz8g1ckzuq.cognition.run/","en-US,en;q=0.9","21j9z6w9rehmfcd","","54","[""White""]","No","Male","1404017.5999999642","5351","","","{""product_choice"":""B""}","choice","ctd","repulsion_2","2","laptops","null","null","null","null","null","null","1","30","40","20","100","90","100","Processing speed","Memory (RAM)","","",""
"","","","","","choice_trial_setup","html-keyboard-response","156","1353302","0.0-5.0-0.36","11","1","2025-04-10 18:39:36","7bd189e8e4882776c700e1dae255cdf5","","Mozilla/5.0 (Windows NT 10.0; Win64; x64) AppleWebKit/537.36 (KHTML, like Gecko) Chrome/135.0.0.0 Safari/537.36","WebKit","Chrome","135.0.0.0","Windows","10.0","https://hz8g1ckzuq.cognition.run/","en-US,en;q=0.9","21j9z6w9rehmfcd","","54","[""White""]","No","Male","1404017.5999999642","null","","<p></p>","null","choice","dct","repulsion_1","2","televisions","null","null","null","null","null","null","2","","","","","","","","","","",""
