"success","timeout","failed_images","failed_audio","failed_video","screen_id","trial_type","trial_index","time_elapsed","internal_node_id","run_id","condition","recorded_at","source_code_version","ip","user_agent","device","browser","browser_version","platform","platform_version","referer","accept_language","ppt_id","age","race","ethnicity","gender","exp_duration","rt","view_history","stimulus","response","phase","order","effect","t_high","category","d1_best","d2_best","d1_worst1","d2_worst1","d1_worst2","d2_worst2","first_dim","d1_t","d1_c","d1_d","d2_t","d2_c","d2_d","d1_name","d2_name","strategy_response","question_order"
"true","false","[]","[]","[]","img preload","preload","0","97","0.0-0.0","110","1","2025-04-11 14:54:18","bb671e3ae32f654b8954ea4c4635f915","","Mozilla/5.0 (Macintosh; Intel Mac OS X 10_15_7) AppleWebKit/537.36 (KHTML, like Gecko) Chrome/132.0.0.0 Safari/537.36","Macintosh","Chrome","132.0.0.0","OS X","10_15_7","https://hz8g1ckzuq.cognition.run/","en-US,en;q=0.9","4zqf9qb8cw6jc2b","30","[""White""]","No","Female","1847571.8999999762","","","","","","","","","","","","","","","","","","","","","","","","","",""
"true","","","","","","fullscreen","1","5436","0.0-1.0","110","1","2025-04-11 14:54:18","bb671e3ae32f654b8954ea4c4635f915","","Mozilla/5.0 (Macintosh; Intel Mac OS X 10_15_7) AppleWebKit/537.36 (KHTML, like Gecko) Chrome/132.0.0.0 Safari/537.36","Macintosh","Chrome","132.0.0.0","OS X","10_15_7","https://hz8g1ckzuq.cognition.run/","en-US,en;q=0.9","4zqf9qb8cw6jc2b","30","[""White""]","No","Female","1847571.8999999762","4336","","","","","","","","","","","","","","","","","","","","","","","","",""
"","","","","","","instructions","2","120327","0.0-2.0","110","1","2025-04-11 14:54:18","bb671e3ae32f654b8954ea4c4635f915","","Mozilla/5.0 (Macintosh; Intel Mac OS X 10_15_7) AppleWebKit/537.36 (KHTML, like Gecko) Chrome/132.0.0.0 Safari/537.36","Macintosh","Chrome","132.0.0.0","OS X","10_15_7","https://hz8g1ckzuq.cognition.run/","en-US,en;q=0.9","4zqf9qb8cw6jc2b","30","[""White""]","No","Female","1847571.8999999762","114891","[{""page_index"":0,""viewing_time"":22889},{""page_index"":1,""viewing_time"":13379},{""page_index"":2,""viewing_time"":4062},{""page_index"":3,""viewing_time"":4235},{""page_index"":2,""viewing_time"":1453},{""page_index"":3,""viewing_time"":1074},{""page_index"":4,""viewing_time"":22853},{""page_index"":5,""viewing_time"":13091},{""page_index"":6,""viewing_time"":12234},{""page_index"":7,""viewing_time"":9224},{""page_index"":8,""viewing_time"":9145},{""page_index"":9,""viewing_time"":1254}]","","","","","","","","","","","","","","","","","","","","","","","",""
"","","","","","rating_trial_setup","html-keyboard-response","3","120630","0.0-3.0-0.0","110","1","2025-04-11 14:54:18","bb671e3ae32f654b8954ea4c4635f915","","Mozilla/5.0 (Macintosh; Intel Mac OS X 10_15_7) AppleWebKit/537.36 (KHTML, like Gecko) Chrome/132.0.0.0 Safari/537.36","Macintosh","Chrome","132.0.0.0","OS X","10_15_7","https://hz8g1ckzuq.cognition.run/","en-US,en;q=0.9","4zqf9qb8cw6jc2b","30","[""White""]","No","Female","1847571.8999999762","null","","<p></p>","null","rating","dtc","repulsion_1","2","televisions","null","null","null","null","null","null","2","","","","","","","","","",""
"","","","","","rating_trial","survey-html-form","4","135047","0.0-3.0-1.0","110","1","2025-04-11 14:54:18","bb671e3ae32f654b8954ea4c4635f915","","Mozilla/5.0 (Macintosh; Intel Mac OS X 10_15_7) AppleWebKit/537.36 (KHTML, like Gecko) Chrome/132.0.0.0 Safari/537.36","Macintosh","Chrome","132.0.0.0","OS X","10_15_7","https://hz8g1ckzuq.cognition.run/","en-US,en;q=0.9","4zqf9qb8cw6jc2b","30","[""White""]","No","Female","1847571.8999999762","14414","","","{""price_1"":""125"",""price_2"":""125"",""price_3"":""90""}","rating","dtc","repulsion_1","2","televisions","null","null","null","null","null","null","2","30","40","25","100","90","100","Screen size","Average lifespan","",""
"","","","","","rating_trial_setup","html-keyboard-response","5","135350","0.0-3.0-0.1","110","1","2025-04-11 14:54:18","bb671e3ae32f654b8954ea4c4635f915","","Mozilla/5.0 (Macintosh; Intel Mac OS X 10_15_7) AppleWebKit/537.36 (KHTML, like Gecko) Chrome/132.0.0.0 Safari/537.36","Macintosh","Chrome","132.0.0.0","OS X","10_15_7","https://hz8g1ckzuq.cognition.run/","en-US,en;q=0.9","4zqf9qb8cw6jc2b","30","[""White""]","No","Female","1847571.8999999762","null","","<p></p>","null","rating","tcd","attraction_2","2","televisions","null","null","null","null","null","null","2","","","","","","","","","",""
"","","","","","rating_trial","survey-html-form","6","150932","0.0-3.0-1.1","110","1","2025-04-11 14:54:18","bb671e3ae32f654b8954ea4c4635f915","","Mozilla/5.0 (Macintosh; Intel Mac OS X 10_15_7) AppleWebKit/537.36 (KHTML, like Gecko) Chrome/132.0.0.0 Safari/537.36","Macintosh","Chrome","132.0.0.0","OS X","10_15_7","https://hz8g1ckzuq.cognition.run/","en-US,en;q=0.9","4zqf9qb8cw6jc2b","30","[""White""]","No","Female","1847571.8999999762","15581","","","{""price_1"":""85"",""price_2"":""85"",""price_3"":""75""}","rating","tcd","attraction_2","2","televisions","null","null","null","null","null","null","2","50","60","40","60","50","60","Screen size","Average lifespan","",""
"","","","","","rating_trial_setup","html-keyboard-response","7","151234","0.0-3.0-0.2","110","1","2025-04-11 14:54:18","bb671e3ae32f654b8954ea4c4635f915","","Mozilla/5.0 (Macintosh; Intel Mac OS X 10_15_7) AppleWebKit/537.36 (KHTML, like Gecko) Chrome/132.0.0.0 Safari/537.36","Macintosh","Chrome","132.0.0.0","OS X","10_15_7","https://hz8g1ckzuq.cognition.run/","en-US,en;q=0.9","4zqf9qb8cw6jc2b","30","[""White""]","No","Female","1847571.8999999762","null","","<p></p>","null","rating","cdt","repulsion_1","2","laptops","null","null","null","null","null","null","1","","","","","","","","","",""
"","","","","","rating_trial","survey-html-form","8","166880","0.0-3.0-1.2","110","1","2025-04-11 14:54:18","bb671e3ae32f654b8954ea4c4635f915","","Mozilla/5.0 (Macintosh; Intel Mac OS X 10_15_7) AppleWebKit/537.36 (KHTML, like Gecko) Chrome/132.0.0.0 Safari/537.36","Macintosh","Chrome","132.0.0.0","OS X","10_15_7","https://hz8g1ckzuq.cognition.run/","en-US,en;q=0.9","4zqf9qb8cw6jc2b","30","[""White""]","No","Female","1847571.8999999762","15643","","","{""price_1"":""225"",""price_2"":""150"",""price_3"":""150""}","rating","cdt","repulsion_1","2","laptops","null","null","null","null","null","null","1","30","40","25","100","90","100","Processing speed","Memory (RAM)","",""
"","","","","","rating_trial_setup","html-keyboard-response","9","167183","0.0-3.0-0.3","110","1","2025-04-11 14:54:18","bb671e3ae32f654b8954ea4c4635f915","","Mozilla/5.0 (Macintosh; Intel Mac OS X 10_15_7) AppleWebKit/537.36 (KHTML, like Gecko) Chrome/132.0.0.0 Safari/537.36","Macintosh","Chrome","132.0.0.0","OS X","10_15_7","https://hz8g1ckzuq.cognition.run/","en-US,en;q=0.9","4zqf9qb8cw6jc2b","30","[""White""]","No","Female","1847571.8999999762","null","","<p></p>","null","rating","dct","repulsion_1","1","laptops","null","null","null","null","null","null","2","","","","","","","","","",""
"","","","","","rating_trial","survey-html-form","10","241235","0.0-3.0-1.3","110","1","2025-04-11 14:54:18","bb671e3ae32f654b8954ea4c4635f915","","Mozilla/5.0 (Macintosh; Intel Mac OS X 10_15_7) AppleWebKit/537.36 (KHTML, like Gecko) Chrome/132.0.0.0 Safari/537.36","Macintosh","Chrome","132.0.0.0","OS X","10_15_7","https://hz8g1ckzuq.cognition.run/","en-US,en;q=0.9","4zqf9qb8cw6jc2b","30","[""White""]","No","Female","1847571.8999999762","74050","","","{""price_1"":""125"",""price_2"":""200"",""price_3"":""175""}","rating","dct","repulsion_1","1","laptops","null","null","null","null","null","null","2","100","90","100","30","40","25","Processing speed","Memory (RAM)","",""
"","","","","","rating_trial_setup","html-keyboard-response","11","241538","0.0-3.0-0.4","110","1","2025-04-11 14:54:18","bb671e3ae32f654b8954ea4c4635f915","","Mozilla/5.0 (Macintosh; Intel Mac OS X 10_15_7) AppleWebKit/537.36 (KHTML, like Gecko) Chrome/132.0.0.0 Safari/537.36","Macintosh","Chrome","132.0.0.0","OS X","10_15_7","https://hz8g1ckzuq.cognition.run/","en-US,en;q=0.9","4zqf9qb8cw6jc2b","30","[""White""]","No","Female","1847571.8999999762","null","","<p></p>","null","rating","dct","attraction_1","2","televisions","null","null","null","null","null","null","1","","","","","","","","","",""
"","","","","","rating_trial","survey-html-form","12","352323","0.0-3.0-1.4","110","1","2025-04-11 14:54:18","bb671e3ae32f654b8954ea4c4635f915","","Mozilla/5.0 (Macintosh; Intel Mac OS X 10_15_7) AppleWebKit/537.36 (KHTML, like Gecko) Chrome/132.0.0.0 Safari/537.36","Macintosh","Chrome","132.0.0.0","OS X","10_15_7","https://hz8g1ckzuq.cognition.run/","en-US,en;q=0.9","4zqf9qb8cw6jc2b","30","[""White""]","No","Female","1847571.8999999762","110784","","","{""price_1"":""60"",""price_2"":""75"",""price_3"":""75""}","rating","dct","attraction_1","2","televisions","null","null","null","null","null","null","1","50","60","45","60","50","60","Screen size","Average lifespan","",""
"","","","","","rating_trial_setup","html-keyboard-response","13","352626","0.0-3.0-0.5","110","1","2025-04-11 14:54:18","bb671e3ae32f654b8954ea4c4635f915","","Mozilla/5.0 (Macintosh; Intel Mac OS X 10_15_7) AppleWebKit/537.36 (KHTML, like Gecko) Chrome/132.0.0.0 Safari/537.36","Macintosh","Chrome","132.0.0.0","OS X","10_15_7","https://hz8g1ckzuq.cognition.run/","en-US,en;q=0.9","4zqf9qb8cw6jc2b","30","[""White""]","No","Female","1847571.8999999762","null","","<p></p>","null","rating","wwb","catch","null","microwave ovens","75","90","25","35","5","30","1","","","","","","","","","",""
"","","","","","rating_trial","survey-html-form","14","403404","0.0-3.0-1.5","110","1","2025-04-11 14:54:18","bb671e3ae32f654b8954ea4c4635f915","","Mozilla/5.0 (Macintosh; Intel Mac OS X 10_15_7) AppleWebKit/537.36 (KHTML, like Gecko) Chrome/132.0.0.0 Safari/537.36","Macintosh","Chrome","132.0.0.0","OS X","10_15_7","https://hz8g1ckzuq.cognition.run/","en-US,en;q=0.9","4zqf9qb8cw6jc2b","30","[""White""]","No","Female","1847571.8999999762","50775","","","{""price_1"":""60"",""price_2"":""25"",""price_3"":""100""}","rating","wwb","catch","null","microwave ovens","75","90","25","35","5","30","1","null","null","null","null","null","null","Warranty","Cooking power","",""
"","","","","","rating_trial_setup","html-keyboard-response","15","403706","0.0-3.0-0.6","110","1","2025-04-11 14:54:18","bb671e3ae32f654b8954ea4c4635f915","","Mozilla/5.0 (Macintosh; Intel Mac OS X 10_15_7) AppleWebKit/537.36 (KHTML, like Gecko) Chrome/132.0.0.0 Safari/537.36","Macintosh","Chrome","132.0.0.0","OS X","10_15_7","https://hz8g1ckzuq.cognition.run/","en-US,en;q=0.9","4zqf9qb8cw6jc2b","30","[""White""]","No","Female","1847571.8999999762","null","","<p></p>","null","rating","cdt","repulsion_1","1","microwave ovens","null","null","null","null","null","null","2","","","","","","","","","",""
"","","","","","rating_trial","survey-html-form","16","570602","0.0-3.0-1.6","110","1","2025-04-11 14:54:18","bb671e3ae32f654b8954ea4c4635f915","","Mozilla/5.0 (Macintosh; Intel Mac OS X 10_15_7) AppleWebKit/537.36 (KHTML, like Gecko) Chrome/132.0.0.0 Safari/537.36","Macintosh","Chrome","132.0.0.0","OS X","10_15_7","https://hz8g1ckzuq.cognition.run/","en-US,en;q=0.9","4zqf9qb8cw6jc2b","30","[""White""]","No","Female","1847571.8999999762","166894","","","{""price_1"":""75"",""price_2"":""80"",""price_3"":""85""}","rating","cdt","repulsion_1","1","microwave ovens","null","null","null","null","null","null","2","100","90","100","30","40","25","Warranty","Cooking power","",""
"","","","","","rating_trial_setup","html-keyboard-response","17","570905","0.0-3.0-0.7","110","1","2025-04-11 14:54:18","bb671e3ae32f654b8954ea4c4635f915","","Mozilla/5.0 (Macintosh; Intel Mac OS X 10_15_7) AppleWebKit/537.36 (KHTML, like Gecko) Chrome/132.0.0.0 Safari/537.36","Macintosh","Chrome","132.0.0.0","OS X","10_15_7","https://hz8g1ckzuq.cognition.run/","en-US,en;q=0.9","4zqf9qb8cw6jc2b","30","[""White""]","No","Female","1847571.8999999762","null","","<p></p>","null","rating","ctd","attraction_2","2","microwave ovens","null","null","null","null","null","null","2","","","","","","","","","",""
"","","","","","rating_trial","survey-html-form","18","610755","0.0-3.0-1.7","110","1","2025-04-11 14:54:18","bb671e3ae32f654b8954ea4c4635f915","","Mozilla/5.0 (Macintosh; Intel Mac OS X 10_15_7) AppleWebKit/537.36 (KHTML, like Gecko) Chrome/132.0.0.0 Safari/537.36","Macintosh","Chrome","132.0.0.0","OS X","10_15_7","https://hz8g1ckzuq.cognition.run/","en-US,en;q=0.9","4zqf9qb8cw6jc2b","30","[""White""]","No","Female","1847571.8999999762","39847","","","{""price_1"":""60"",""price_2"":""60"",""price_3"":""60""}","rating","ctd","attraction_2","2","microwave ovens","null","null","null","null","null","null","2","50","60","40","60","50","60","Warranty","Cooking power","",""
"","","","","","rating_trial_setup","html-keyboard-response","19","611057","0.0-3.0-0.8","110","1","2025-04-11 14:54:18","bb671e3ae32f654b8954ea4c4635f915","","Mozilla/5.0 (Macintosh; Intel Mac OS X 10_15_7) AppleWebKit/537.36 (KHTML, like Gecko) Chrome/132.0.0.0 Safari/537.36","Macintosh","Chrome","132.0.0.0","OS X","10_15_7","https://hz8g1ckzuq.cognition.run/","en-US,en;q=0.9","4zqf9qb8cw6jc2b","30","[""White""]","No","Female","1847571.8999999762","null","","<p></p>","null","rating","bww","catch","null","microwave ovens","85","55","15","35","30","20","1","","","","","","","","","",""
"","","","","","rating_trial","survey-html-form","20","629487","0.0-3.0-1.8","110","1","2025-04-11 14:54:18","bb671e3ae32f654b8954ea4c4635f915","","Mozilla/5.0 (Macintosh; Intel Mac OS X 10_15_7) AppleWebKit/537.36 (KHTML, like Gecko) Chrome/132.0.0.0 Safari/537.36","Macintosh","Chrome","132.0.0.0","OS X","10_15_7","https://hz8g1ckzuq.cognition.run/","en-US,en;q=0.9","4zqf9qb8cw6jc2b","30","[""White""]","No","Female","1847571.8999999762","18428","","","{""price_1"":""75"",""price_2"":""35"",""price_3"":""35""}","rating","bww","catch","null","microwave ovens","85","55","15","35","30","20","1","null","null","null","null","null","null","Warranty","Cooking power","",""
"","","","","","rating_trial_setup","html-keyboard-response","21","629790","0.0-3.0-0.9","110","1","2025-04-11 14:54:18","bb671e3ae32f654b8954ea4c4635f915","","Mozilla/5.0 (Macintosh; Intel Mac OS X 10_15_7) AppleWebKit/537.36 (KHTML, like Gecko) Chrome/132.0.0.0 Safari/537.36","Macintosh","Chrome","132.0.0.0","OS X","10_15_7","https://hz8g1ckzuq.cognition.run/","en-US,en;q=0.9","4zqf9qb8cw6jc2b","30","[""White""]","No","Female","1847571.8999999762","null","","<p></p>","null","rating","wwb","catch","null","laptops","85","75","45","15","20","35","2","","","","","","","","","",""
"","","","","","rating_trial","survey-html-form","22","725541","0.0-3.0-1.9","110","1","2025-04-11 14:54:18","bb671e3ae32f654b8954ea4c4635f915","","Mozilla/5.0 (Macintosh; Intel Mac OS X 10_15_7) AppleWebKit/537.36 (KHTML, like Gecko) Chrome/132.0.0.0 Safari/537.36","Macintosh","Chrome","132.0.0.0","OS X","10_15_7","https://hz8g1ckzuq.cognition.run/","en-US,en;q=0.9","4zqf9qb8cw6jc2b","30","[""White""]","No","Female","1847571.8999999762","95748","","","{""price_1"":""45"",""price_2"":""50"",""price_3"":""80""}","rating","wwb","catch","null","laptops","85","75","45","15","20","35","2","null","null","null","null","null","null","Processing speed","Memory (RAM)","",""
"","","","","","rating_trial_setup","html-keyboard-response","23","725844","0.0-3.0-0.10","110","1","2025-04-11 14:54:18","bb671e3ae32f654b8954ea4c4635f915","","Mozilla/5.0 (Macintosh; Intel Mac OS X 10_15_7) AppleWebKit/537.36 (KHTML, like Gecko) Chrome/132.0.0.0 Safari/537.36","Macintosh","Chrome","132.0.0.0","OS X","10_15_7","https://hz8g1ckzuq.cognition.run/","en-US,en;q=0.9","4zqf9qb8cw6jc2b","30","[""White""]","No","Female","1847571.8999999762","null","","<p></p>","null","rating","ctd","repulsion_2","1","laptops","null","null","null","null","null","null","1","","","","","","","","","",""
"","","","","","rating_trial","survey-html-form","24","773695","0.0-3.0-1.10","110","1","2025-04-11 14:54:18","bb671e3ae32f654b8954ea4c4635f915","","Mozilla/5.0 (Macintosh; Intel Mac OS X 10_15_7) AppleWebKit/537.36 (KHTML, like Gecko) Chrome/132.0.0.0 Safari/537.36","Macintosh","Chrome","132.0.0.0","OS X","10_15_7","https://hz8g1ckzuq.cognition.run/","en-US,en;q=0.9","4zqf9qb8cw6jc2b","30","[""White""]","No","Female","1847571.8999999762","47848","","","{""price_1"":""160"",""price_2"":""190"",""price_3"":""190""}","rating","ctd","repulsion_2","1","laptops","null","null","null","null","null","null","1","100","90","100","30","40","20","Processing speed","Memory (RAM)","",""
"","","","","","rating_trial_setup","html-keyboard-response","25","773998","0.0-3.0-0.11","110","1","2025-04-11 14:54:18","bb671e3ae32f654b8954ea4c4635f915","","Mozilla/5.0 (Macintosh; Intel Mac OS X 10_15_7) AppleWebKit/537.36 (KHTML, like Gecko) Chrome/132.0.0.0 Safari/537.36","Macintosh","Chrome","132.0.0.0","OS X","10_15_7","https://hz8g1ckzuq.cognition.run/","en-US,en;q=0.9","4zqf9qb8cw6jc2b","30","[""White""]","No","Female","1847571.8999999762","null","","<p></p>","null","rating","dtc","repulsion_1","1","televisions","null","null","null","null","null","null","2","","","","","","","","","",""
"","","","","","rating_trial","survey-html-form","26","794769","0.0-3.0-1.11","110","1","2025-04-11 14:54:18","bb671e3ae32f654b8954ea4c4635f915","","Mozilla/5.0 (Macintosh; Intel Mac OS X 10_15_7) AppleWebKit/537.36 (KHTML, like Gecko) Chrome/132.0.0.0 Safari/537.36","Macintosh","Chrome","132.0.0.0","OS X","10_15_7","https://hz8g1ckzuq.cognition.run/","en-US,en;q=0.9","4zqf9qb8cw6jc2b","30","[""White""]","No","Female","1847571.8999999762","20768","","","{""price_1"":""65"",""price_2"":""65"",""price_3"":""45""}","rating","dtc","repulsion_1","1","televisions","null","null","null","null","null","null","2","100","90","100","30","40","25","Screen size","Average lifespan","",""
"","","","","","rating_trial_setup","html-keyboard-response","27","795073","0.0-3.0-0.12","110","1","2025-04-11 14:54:18","bb671e3ae32f654b8954ea4c4635f915","","Mozilla/5.0 (Macintosh; Intel Mac OS X 10_15_7) AppleWebKit/537.36 (KHTML, like Gecko) Chrome/132.0.0.0 Safari/537.36","Macintosh","Chrome","132.0.0.0","OS X","10_15_7","https://hz8g1ckzuq.cognition.run/","en-US,en;q=0.9","4zqf9qb8cw6jc2b","30","[""White""]","No","Female","1847571.8999999762","null","","<p></p>","null","rating","dtc","attraction_2","1","microwave ovens","null","null","null","null","null","null","1","","","","","","","","","",""
"","","","","","rating_trial","survey-html-form","28","803233","0.0-3.0-1.12","110","1","2025-04-11 14:54:18","bb671e3ae32f654b8954ea4c4635f915","","Mozilla/5.0 (Macintosh; Intel Mac OS X 10_15_7) AppleWebKit/537.36 (KHTML, like Gecko) Chrome/132.0.0.0 Safari/537.36","Macintosh","Chrome","132.0.0.0","OS X","10_15_7","https://hz8g1ckzuq.cognition.run/","en-US,en;q=0.9","4zqf9qb8cw6jc2b","30","[""White""]","No","Female","1847571.8999999762","8157","","","{""price_1"":""85"",""price_2"":""89"",""price_3"":""80""}","rating","dtc","attraction_2","1","microwave ovens","null","null","null","null","null","null","1","60","50","60","50","60","40","Warranty","Cooking power","",""
"","","","","","rating_trial_setup","html-keyboard-response","29","803536","0.0-3.0-0.13","110","1","2025-04-11 14:54:18","bb671e3ae32f654b8954ea4c4635f915","","Mozilla/5.0 (Macintosh; Intel Mac OS X 10_15_7) AppleWebKit/537.36 (KHTML, like Gecko) Chrome/132.0.0.0 Safari/537.36","Macintosh","Chrome","132.0.0.0","OS X","10_15_7","https://hz8g1ckzuq.cognition.run/","en-US,en;q=0.9","4zqf9qb8cw6jc2b","30","[""White""]","No","Female","1847571.8999999762","null","","<p></p>","null","rating","wbw","catch","null","televisions","55","50","45","5","15","25","1","","","","","","","","","",""
"","","","","","rating_trial","survey-html-form","30","822381","0.0-3.0-1.13","110","1","2025-04-11 14:54:18","bb671e3ae32f654b8954ea4c4635f915","","Mozilla/5.0 (Macintosh; Intel Mac OS X 10_15_7) AppleWebKit/537.36 (KHTML, like Gecko) Chrome/132.0.0.0 Safari/537.36","Macintosh","Chrome","132.0.0.0","OS X","10_15_7","https://hz8g1ckzuq.cognition.run/","en-US,en;q=0.9","4zqf9qb8cw6jc2b","30","[""White""]","No","Female","1847571.8999999762","18841","","","{""price_1"":""15"",""price_2"":""35"",""price_3"":""25""}","rating","wbw","catch","null","televisions","55","50","45","5","15","25","1","null","null","null","null","null","null","Screen size","Average lifespan","",""
"","","","","","rating_trial_setup","html-keyboard-response","31","822683","0.0-3.0-0.14","110","1","2025-04-11 14:54:18","bb671e3ae32f654b8954ea4c4635f915","","Mozilla/5.0 (Macintosh; Intel Mac OS X 10_15_7) AppleWebKit/537.36 (KHTML, like Gecko) Chrome/132.0.0.0 Safari/537.36","Macintosh","Chrome","132.0.0.0","OS X","10_15_7","https://hz8g1ckzuq.cognition.run/","en-US,en;q=0.9","4zqf9qb8cw6jc2b","30","[""White""]","No","Female","1847571.8999999762","null","","<p></p>","null","rating","tcd","attraction_1","2","washing machines","null","null","null","null","null","null","1","","","","","","","","","",""
"","","","","","rating_trial","survey-html-form","32","831945","0.0-3.0-1.14","110","1","2025-04-11 14:54:18","bb671e3ae32f654b8954ea4c4635f915","","Mozilla/5.0 (Macintosh; Intel Mac OS X 10_15_7) AppleWebKit/537.36 (KHTML, like Gecko) Chrome/132.0.0.0 Safari/537.36","Macintosh","Chrome","132.0.0.0","OS X","10_15_7","https://hz8g1ckzuq.cognition.run/","en-US,en;q=0.9","4zqf9qb8cw6jc2b","30","[""White""]","No","Female","1847571.8999999762","9260","","","{""price_1"":""200"",""price_2"":""200"",""price_3"":""200""}","rating","tcd","attraction_1","2","washing machines","null","null","null","null","null","null","1","50","60","45","60","50","60","Average lifespan","Energy savings","",""
"","","","","","rating_trial_setup","html-keyboard-response","33","832248","0.0-3.0-0.15","110","1","2025-04-11 14:54:18","bb671e3ae32f654b8954ea4c4635f915","","Mozilla/5.0 (Macintosh; Intel Mac OS X 10_15_7) AppleWebKit/537.36 (KHTML, like Gecko) Chrome/132.0.0.0 Safari/537.36","Macintosh","Chrome","132.0.0.0","OS X","10_15_7","https://hz8g1ckzuq.cognition.run/","en-US,en;q=0.9","4zqf9qb8cw6jc2b","30","[""White""]","No","Female","1847571.8999999762","null","","<p></p>","null","rating","bww","catch","null","washing machines","70","60","10","35","30","15","2","","","","","","","","","",""
"","","","","","rating_trial","survey-html-form","34","838159","0.0-3.0-1.15","110","1","2025-04-11 14:54:18","bb671e3ae32f654b8954ea4c4635f915","","Mozilla/5.0 (Macintosh; Intel Mac OS X 10_15_7) AppleWebKit/537.36 (KHTML, like Gecko) Chrome/132.0.0.0 Safari/537.36","Macintosh","Chrome","132.0.0.0","OS X","10_15_7","https://hz8g1ckzuq.cognition.run/","en-US,en;q=0.9","4zqf9qb8cw6jc2b","30","[""White""]","No","Female","1847571.8999999762","5909","","","{""price_1"":""300"",""price_2"":""200"",""price_3"":""200""}","rating","bww","catch","null","washing machines","70","60","10","35","30","15","2","null","null","null","null","null","null","Average lifespan","Energy savings","",""
"","","","","","rating_trial_setup","html-keyboard-response","35","838462","0.0-3.0-0.16","110","1","2025-04-11 14:54:18","bb671e3ae32f654b8954ea4c4635f915","","Mozilla/5.0 (Macintosh; Intel Mac OS X 10_15_7) AppleWebKit/537.36 (KHTML, like Gecko) Chrome/132.0.0.0 Safari/537.36","Macintosh","Chrome","132.0.0.0","OS X","10_15_7","https://hz8g1ckzuq.cognition.run/","en-US,en;q=0.9","4zqf9qb8cw6jc2b","30","[""White""]","No","Female","1847571.8999999762","null","","<p></p>","null","rating","cdt","attraction_1","1","televisions","null","null","null","null","null","null","1","","","","","","","","","",""
"","","","","","rating_trial","survey-html-form","36","846785","0.0-3.0-1.16","110","1","2025-04-11 14:54:18","bb671e3ae32f654b8954ea4c4635f915","","Mozilla/5.0 (Macintosh; Intel Mac OS X 10_15_7) AppleWebKit/537.36 (KHTML, like Gecko) Chrome/132.0.0.0 Safari/537.36","Macintosh","Chrome","132.0.0.0","OS X","10_15_7","https://hz8g1ckzuq.cognition.run/","en-US,en;q=0.9","4zqf9qb8cw6jc2b","30","[""White""]","No","Female","1847571.8999999762","8320","","","{""price_1"":""45"",""price_2"":""45"",""price_3"":""50""}","rating","cdt","attraction_1","1","televisions","null","null","null","null","null","null","1","60","50","60","50","60","45","Screen size","Average lifespan","",""
"","","","","","rating_trial_setup","html-keyboard-response","37","847088","0.0-3.0-0.17","110","1","2025-04-11 14:54:18","bb671e3ae32f654b8954ea4c4635f915","","Mozilla/5.0 (Macintosh; Intel Mac OS X 10_15_7) AppleWebKit/537.36 (KHTML, like Gecko) Chrome/132.0.0.0 Safari/537.36","Macintosh","Chrome","132.0.0.0","OS X","10_15_7","https://hz8g1ckzuq.cognition.run/","en-US,en;q=0.9","4zqf9qb8cw6jc2b","30","[""White""]","No","Female","1847571.8999999762","null","","<p></p>","null","rating","ctd","repulsion_2","1","washing machines","null","null","null","null","null","null","1","","","","","","","","","",""
"","","","","","rating_trial","survey-html-form","38","961340","0.0-3.0-1.17","110","1","2025-04-11 14:54:18","bb671e3ae32f654b8954ea4c4635f915","","Mozilla/5.0 (Macintosh; Intel Mac OS X 10_15_7) AppleWebKit/537.36 (KHTML, like Gecko) Chrome/132.0.0.0 Safari/537.36","Macintosh","Chrome","132.0.0.0","OS X","10_15_7","https://hz8g1ckzuq.cognition.run/","en-US,en;q=0.9","4zqf9qb8cw6jc2b","30","[""White""]","No","Female","1847571.8999999762","114251","","","{""price_1"":""200"",""price_2"":""300"",""price_3"":""300""}","rating","ctd","repulsion_2","1","washing machines","null","null","null","null","null","null","1","100","90","100","30","40","20","Average lifespan","Energy savings","",""
"","","","","","rating_trial_setup","html-keyboard-response","39","961644","0.0-3.0-0.18","110","1","2025-04-11 14:54:18","bb671e3ae32f654b8954ea4c4635f915","","Mozilla/5.0 (Macintosh; Intel Mac OS X 10_15_7) AppleWebKit/537.36 (KHTML, like Gecko) Chrome/132.0.0.0 Safari/537.36","Macintosh","Chrome","132.0.0.0","OS X","10_15_7","https://hz8g1ckzuq.cognition.run/","en-US,en;q=0.9","4zqf9qb8cw6jc2b","30","[""White""]","No","Female","1847571.8999999762","null","","<p></p>","null","rating","wwb","catch","null","washing machines","85","85","5","45","50","20","1","","","","","","","","","",""
"","","","","","rating_trial","survey-html-form","40","975671","0.0-3.0-1.18","110","1","2025-04-11 14:54:18","bb671e3ae32f654b8954ea4c4635f915","","Mozilla/5.0 (Macintosh; Intel Mac OS X 10_15_7) AppleWebKit/537.36 (KHTML, like Gecko) Chrome/132.0.0.0 Safari/537.36","Macintosh","Chrome","132.0.0.0","OS X","10_15_7","https://hz8g1ckzuq.cognition.run/","en-US,en;q=0.9","4zqf9qb8cw6jc2b","30","[""White""]","No","Female","1847571.8999999762","14023","","","{""price_1"":""125"",""price_2"":""200"",""price_3"":""350""}","rating","wwb","catch","null","washing machines","85","85","5","45","50","20","1","null","null","null","null","null","null","Average lifespan","Energy savings","",""
"","","","","","rating_trial_setup","html-keyboard-response","41","975974","0.0-3.0-0.19","110","1","2025-04-11 14:54:18","bb671e3ae32f654b8954ea4c4635f915","","Mozilla/5.0 (Macintosh; Intel Mac OS X 10_15_7) AppleWebKit/537.36 (KHTML, like Gecko) Chrome/132.0.0.0 Safari/537.36","Macintosh","Chrome","132.0.0.0","OS X","10_15_7","https://hz8g1ckzuq.cognition.run/","en-US,en;q=0.9","4zqf9qb8cw6jc2b","30","[""White""]","No","Female","1847571.8999999762","null","","<p></p>","null","rating","ctd","attraction_1","1","washing machines","null","null","null","null","null","null","2","","","","","","","","","",""
"","","","","","rating_trial","survey-html-form","42","980575","0.0-3.0-1.19","110","1","2025-04-11 14:54:18","bb671e3ae32f654b8954ea4c4635f915","","Mozilla/5.0 (Macintosh; Intel Mac OS X 10_15_7) AppleWebKit/537.36 (KHTML, like Gecko) Chrome/132.0.0.0 Safari/537.36","Macintosh","Chrome","132.0.0.0","OS X","10_15_7","https://hz8g1ckzuq.cognition.run/","en-US,en;q=0.9","4zqf9qb8cw6jc2b","30","[""White""]","No","Female","1847571.8999999762","4598","","","{""price_1"":""300"",""price_2"":""300"",""price_3"":""300""}","rating","ctd","attraction_1","1","washing machines","null","null","null","null","null","null","2","60","50","60","50","60","45","Average lifespan","Energy savings","",""
"","","","","","rating_trial_setup","html-keyboard-response","43","980878","0.0-3.0-0.20","110","1","2025-04-11 14:54:18","bb671e3ae32f654b8954ea4c4635f915","","Mozilla/5.0 (Macintosh; Intel Mac OS X 10_15_7) AppleWebKit/537.36 (KHTML, like Gecko) Chrome/132.0.0.0 Safari/537.36","Macintosh","Chrome","132.0.0.0","OS X","10_15_7","https://hz8g1ckzuq.cognition.run/","en-US,en;q=0.9","4zqf9qb8cw6jc2b","30","[""White""]","No","Female","1847571.8999999762","null","","<p></p>","null","rating","tdc","attraction_2","1","televisions","null","null","null","null","null","null","2","","","","","","","","","",""
"","","","","","rating_trial","survey-html-form","44","987366","0.0-3.0-1.20","110","1","2025-04-11 14:54:18","bb671e3ae32f654b8954ea4c4635f915","","Mozilla/5.0 (Macintosh; Intel Mac OS X 10_15_7) AppleWebKit/537.36 (KHTML, like Gecko) Chrome/132.0.0.0 Safari/537.36","Macintosh","Chrome","132.0.0.0","OS X","10_15_7","https://hz8g1ckzuq.cognition.run/","en-US,en;q=0.9","4zqf9qb8cw6jc2b","30","[""White""]","No","Female","1847571.8999999762","6483","","","{""price_1"":""100"",""price_2"":""100"",""price_3"":""100""}","rating","tdc","attraction_2","1","televisions","null","null","null","null","null","null","2","60","50","60","50","60","40","Screen size","Average lifespan","",""
"","","","","","rating_trial_setup","html-keyboard-response","45","987669","0.0-3.0-0.21","110","1","2025-04-11 14:54:18","bb671e3ae32f654b8954ea4c4635f915","","Mozilla/5.0 (Macintosh; Intel Mac OS X 10_15_7) AppleWebKit/537.36 (KHTML, like Gecko) Chrome/132.0.0.0 Safari/537.36","Macintosh","Chrome","132.0.0.0","OS X","10_15_7","https://hz8g1ckzuq.cognition.run/","en-US,en;q=0.9","4zqf9qb8cw6jc2b","30","[""White""]","No","Female","1847571.8999999762","null","","<p></p>","null","rating","dct","attraction_1","2","laptops","null","null","null","null","null","null","1","","","","","","","","","",""
"","","","","","rating_trial","survey-html-form","46","996093","0.0-3.0-1.21","110","1","2025-04-11 14:54:18","bb671e3ae32f654b8954ea4c4635f915","","Mozilla/5.0 (Macintosh; Intel Mac OS X 10_15_7) AppleWebKit/537.36 (KHTML, like Gecko) Chrome/132.0.0.0 Safari/537.36","Macintosh","Chrome","132.0.0.0","OS X","10_15_7","https://hz8g1ckzuq.cognition.run/","en-US,en;q=0.9","4zqf9qb8cw6jc2b","30","[""White""]","No","Female","1847571.8999999762","8420","","","{""price_1"":""125"",""price_2"":""135"",""price_3"":""150""}","rating","dct","attraction_1","2","laptops","null","null","null","null","null","null","1","50","60","45","60","50","60","Processing speed","Memory (RAM)","",""
"","","","","","rating_trial_setup","html-keyboard-response","47","996397","0.0-3.0-0.22","110","1","2025-04-11 14:54:18","bb671e3ae32f654b8954ea4c4635f915","","Mozilla/5.0 (Macintosh; Intel Mac OS X 10_15_7) AppleWebKit/537.36 (KHTML, like Gecko) Chrome/132.0.0.0 Safari/537.36","Macintosh","Chrome","132.0.0.0","OS X","10_15_7","https://hz8g1ckzuq.cognition.run/","en-US,en;q=0.9","4zqf9qb8cw6jc2b","30","[""White""]","No","Female","1847571.8999999762","null","","<p></p>","null","rating","wbw","catch","null","laptops","50","70","50","25","5","15","1","","","","","","","","","",""
"","","","","","rating_trial","survey-html-form","48","1032907","0.0-3.0-1.22","110","1","2025-04-11 14:54:18","bb671e3ae32f654b8954ea4c4635f915","","Mozilla/5.0 (Macintosh; Intel Mac OS X 10_15_7) AppleWebKit/537.36 (KHTML, like Gecko) Chrome/132.0.0.0 Safari/537.36","Macintosh","Chrome","132.0.0.0","OS X","10_15_7","https://hz8g1ckzuq.cognition.run/","en-US,en;q=0.9","4zqf9qb8cw6jc2b","30","[""White""]","No","Female","1847571.8999999762","36506","","","{""price_1"":""120"",""price_2"":""175"",""price_3"":""100""}","rating","wbw","catch","null","laptops","50","70","50","25","5","15","1","null","null","null","null","null","null","Processing speed","Memory (RAM)","",""
"","","","","","rating_trial_setup","html-keyboard-response","49","1033211","0.0-3.0-0.23","110","1","2025-04-11 14:54:18","bb671e3ae32f654b8954ea4c4635f915","","Mozilla/5.0 (Macintosh; Intel Mac OS X 10_15_7) AppleWebKit/537.36 (KHTML, like Gecko) Chrome/132.0.0.0 Safari/537.36","Macintosh","Chrome","132.0.0.0","OS X","10_15_7","https://hz8g1ckzuq.cognition.run/","en-US,en;q=0.9","4zqf9qb8cw6jc2b","30","[""White""]","No","Female","1847571.8999999762","null","","<p></p>","null","rating","wwb","catch","null","televisions","60","65","35","10","45","30","2","","","","","","","","","",""
"","","","","","rating_trial","survey-html-form","50","1126407","0.0-3.0-1.23","110","1","2025-04-11 14:54:18","bb671e3ae32f654b8954ea4c4635f915","","Mozilla/5.0 (Macintosh; Intel Mac OS X 10_15_7) AppleWebKit/537.36 (KHTML, like Gecko) Chrome/132.0.0.0 Safari/537.36","Macintosh","Chrome","132.0.0.0","OS X","10_15_7","https://hz8g1ckzuq.cognition.run/","en-US,en;q=0.9","4zqf9qb8cw6jc2b","30","[""White""]","No","Female","1847571.8999999762","93192","","","{""price_1"":""45"",""price_2"":""55"",""price_3"":""60""}","rating","wwb","catch","null","televisions","60","65","35","10","45","30","2","null","null","null","null","null","null","Screen size","Average lifespan","",""
"","","","","","rating_trial_setup","html-keyboard-response","51","1126710","0.0-3.0-0.24","110","1","2025-04-11 14:54:18","bb671e3ae32f654b8954ea4c4635f915","","Mozilla/5.0 (Macintosh; Intel Mac OS X 10_15_7) AppleWebKit/537.36 (KHTML, like Gecko) Chrome/132.0.0.0 Safari/537.36","Macintosh","Chrome","132.0.0.0","OS X","10_15_7","https://hz8g1ckzuq.cognition.run/","en-US,en;q=0.9","4zqf9qb8cw6jc2b","30","[""White""]","No","Female","1847571.8999999762","null","","<p></p>","null","rating","dct","repulsion_1","2","microwave ovens","null","null","null","null","null","null","2","","","","","","","","","",""
"","","","","","rating_trial","survey-html-form","52","1135125","0.0-3.0-1.24","110","1","2025-04-11 14:54:18","bb671e3ae32f654b8954ea4c4635f915","","Mozilla/5.0 (Macintosh; Intel Mac OS X 10_15_7) AppleWebKit/537.36 (KHTML, like Gecko) Chrome/132.0.0.0 Safari/537.36","Macintosh","Chrome","132.0.0.0","OS X","10_15_7","https://hz8g1ckzuq.cognition.run/","en-US,en;q=0.9","4zqf9qb8cw6jc2b","30","[""White""]","No","Female","1847571.8999999762","8410","","","{""price_1"":""45"",""price_2"":""55"",""price_3"":""60""}","rating","dct","repulsion_1","2","microwave ovens","null","null","null","null","null","null","2","30","40","25","100","90","100","Warranty","Cooking power","",""
"","","","","","rating_trial_setup","html-keyboard-response","53","1135429","0.0-3.0-0.25","110","1","2025-04-11 14:54:18","bb671e3ae32f654b8954ea4c4635f915","","Mozilla/5.0 (Macintosh; Intel Mac OS X 10_15_7) AppleWebKit/537.36 (KHTML, like Gecko) Chrome/132.0.0.0 Safari/537.36","Macintosh","Chrome","132.0.0.0","OS X","10_15_7","https://hz8g1ckzuq.cognition.run/","en-US,en;q=0.9","4zqf9qb8cw6jc2b","30","[""White""]","No","Female","1847571.8999999762","null","","<p></p>","null","rating","ctd","attraction_2","2","laptops","null","null","null","null","null","null","1","","","","","","","","","",""
"","","","","","rating_trial","survey-html-form","54","1571010","0.0-3.0-1.25","110","1","2025-04-11 14:54:18","bb671e3ae32f654b8954ea4c4635f915","","Mozilla/5.0 (Macintosh; Intel Mac OS X 10_15_7) AppleWebKit/537.36 (KHTML, like Gecko) Chrome/132.0.0.0 Safari/537.36","Macintosh","Chrome","132.0.0.0","OS X","10_15_7","https://hz8g1ckzuq.cognition.run/","en-US,en;q=0.9","4zqf9qb8cw6jc2b","30","[""White""]","No","Female","1847571.8999999762","435515","","","{""price_1"":""150"",""price_2"":""150"",""price_3"":""150""}","rating","ctd","attraction_2","2","laptops","null","null","null","null","null","null","1","50","60","40","60","50","60","Processing speed","Memory (RAM)","",""
"","","","","","rating_trial_setup","html-keyboard-response","55","1571314","0.0-3.0-0.26","110","1","2025-04-11 14:54:18","bb671e3ae32f654b8954ea4c4635f915","","Mozilla/5.0 (Macintosh; Intel Mac OS X 10_15_7) AppleWebKit/537.36 (KHTML, like Gecko) Chrome/132.0.0.0 Safari/537.36","Macintosh","Chrome","132.0.0.0","OS X","10_15_7","https://hz8g1ckzuq.cognition.run/","en-US,en;q=0.9","4zqf9qb8cw6jc2b","30","[""White""]","No","Female","1847571.8999999762","null","","<p></p>","null","rating","ctd","attraction_1","2","microwave ovens","null","null","null","null","null","null","1","","","","","","","","","",""
"","","","","","rating_trial","survey-html-form","56","1584493","0.0-3.0-1.26","110","1","2025-04-11 14:54:18","bb671e3ae32f654b8954ea4c4635f915","","Mozilla/5.0 (Macintosh; Intel Mac OS X 10_15_7) AppleWebKit/537.36 (KHTML, like Gecko) Chrome/132.0.0.0 Safari/537.36","Macintosh","Chrome","132.0.0.0","OS X","10_15_7","https://hz8g1ckzuq.cognition.run/","en-US,en;q=0.9","4zqf9qb8cw6jc2b","30","[""White""]","No","Female","1847571.8999999762","13176","","","{""price_1"":""55"",""price_2"":""55"",""price_3"":""55""}","rating","ctd","attraction_1","2","microwave ovens","null","null","null","null","null","null","1","50","60","45","60","50","60","Warranty","Cooking power","",""
"","","","","","rating_trial_setup","html-keyboard-response","57","1584796","0.0-3.0-0.27","110","1","2025-04-11 14:54:18","bb671e3ae32f654b8954ea4c4635f915","","Mozilla/5.0 (Macintosh; Intel Mac OS X 10_15_7) AppleWebKit/537.36 (KHTML, like Gecko) Chrome/132.0.0.0 Safari/537.36","Macintosh","Chrome","132.0.0.0","OS X","10_15_7","https://hz8g1ckzuq.cognition.run/","en-US,en;q=0.9","4zqf9qb8cw6jc2b","30","[""White""]","No","Female","1847571.8999999762","null","","<p></p>","null","rating","tdc","repulsion_1","1","washing machines","null","null","null","null","null","null","2","","","","","","","","","",""
"","","","","","rating_trial","survey-html-form","58","1594460","0.0-3.0-1.27","110","1","2025-04-11 14:54:18","bb671e3ae32f654b8954ea4c4635f915","","Mozilla/5.0 (Macintosh; Intel Mac OS X 10_15_7) AppleWebKit/537.36 (KHTML, like Gecko) Chrome/132.0.0.0 Safari/537.36","Macintosh","Chrome","132.0.0.0","OS X","10_15_7","https://hz8g1ckzuq.cognition.run/","en-US,en;q=0.9","4zqf9qb8cw6jc2b","30","[""White""]","No","Female","1847571.8999999762","9659","","","{""price_1"":""200"",""price_2"":""200"",""price_3"":""150""}","rating","tdc","repulsion_1","1","washing machines","null","null","null","null","null","null","2","100","90","100","30","40","25","Average lifespan","Energy savings","",""
"","","","","","rating_trial_setup","html-keyboard-response","59","1594762","0.0-3.0-0.28","110","1","2025-04-11 14:54:18","bb671e3ae32f654b8954ea4c4635f915","","Mozilla/5.0 (Macintosh; Intel Mac OS X 10_15_7) AppleWebKit/537.36 (KHTML, like Gecko) Chrome/132.0.0.0 Safari/537.36","Macintosh","Chrome","132.0.0.0","OS X","10_15_7","https://hz8g1ckzuq.cognition.run/","en-US,en;q=0.9","4zqf9qb8cw6jc2b","30","[""White""]","No","Female","1847571.8999999762","null","","<p></p>","null","rating","dct","repulsion_2","2","microwave ovens","null","null","null","null","null","null","1","","","","","","","","","",""
"","","","","","rating_trial","survey-html-form","60","1622140","0.0-3.0-1.28","110","1","2025-04-11 14:54:18","bb671e3ae32f654b8954ea4c4635f915","","Mozilla/5.0 (Macintosh; Intel Mac OS X 10_15_7) AppleWebKit/537.36 (KHTML, like Gecko) Chrome/132.0.0.0 Safari/537.36","Macintosh","Chrome","132.0.0.0","OS X","10_15_7","https://hz8g1ckzuq.cognition.run/","en-US,en;q=0.9","4zqf9qb8cw6jc2b","30","[""White""]","No","Female","1847571.8999999762","27373","","","{""price_1"":""45"",""price_2"":""50"",""price_3"":""50""}","rating","dct","repulsion_2","2","microwave ovens","null","null","null","null","null","null","1","30","40","20","100","90","100","Warranty","Cooking power","",""
"","","","","","rating_trial_setup","html-keyboard-response","61","1622445","0.0-3.0-0.29","110","1","2025-04-11 14:54:18","bb671e3ae32f654b8954ea4c4635f915","","Mozilla/5.0 (Macintosh; Intel Mac OS X 10_15_7) AppleWebKit/537.36 (KHTML, like Gecko) Chrome/132.0.0.0 Safari/537.36","Macintosh","Chrome","132.0.0.0","OS X","10_15_7","https://hz8g1ckzuq.cognition.run/","en-US,en;q=0.9","4zqf9qb8cw6jc2b","30","[""White""]","No","Female","1847571.8999999762","null","","<p></p>","null","rating","dtc","repulsion_2","2","washing machines","null","null","null","null","null","null","2","","","","","","","","","",""
"","","","","","rating_trial","survey-html-form","62","1628811","0.0-3.0-1.29","110","1","2025-04-11 14:54:18","bb671e3ae32f654b8954ea4c4635f915","","Mozilla/5.0 (Macintosh; Intel Mac OS X 10_15_7) AppleWebKit/537.36 (KHTML, like Gecko) Chrome/132.0.0.0 Safari/537.36","Macintosh","Chrome","132.0.0.0","OS X","10_15_7","https://hz8g1ckzuq.cognition.run/","en-US,en;q=0.9","4zqf9qb8cw6jc2b","30","[""White""]","No","Female","1847571.8999999762","6361","","","{""price_1"":""200"",""price_2"":""200"",""price_3"":""150""}","rating","dtc","repulsion_2","2","washing machines","null","null","null","null","null","null","2","30","40","20","100","90","100","Average lifespan","Energy savings","",""
"","","","","","rating_trial_setup","html-keyboard-response","63","1629114","0.0-3.0-0.30","110","1","2025-04-11 14:54:18","bb671e3ae32f654b8954ea4c4635f915","","Mozilla/5.0 (Macintosh; Intel Mac OS X 10_15_7) AppleWebKit/537.36 (KHTML, like Gecko) Chrome/132.0.0.0 Safari/537.36","Macintosh","Chrome","132.0.0.0","OS X","10_15_7","https://hz8g1ckzuq.cognition.run/","en-US,en;q=0.9","4zqf9qb8cw6jc2b","30","[""White""]","No","Female","1847571.8999999762","null","","<p></p>","null","rating","dtc","attraction_1","1","laptops","null","null","null","null","null","null","1","","","","","","","","","",""
"","","","","","rating_trial","survey-html-form","64","1636061","0.0-3.0-1.30","110","1","2025-04-11 14:54:18","bb671e3ae32f654b8954ea4c4635f915","","Mozilla/5.0 (Macintosh; Intel Mac OS X 10_15_7) AppleWebKit/537.36 (KHTML, like Gecko) Chrome/132.0.0.0 Safari/537.36","Macintosh","Chrome","132.0.0.0","OS X","10_15_7","https://hz8g1ckzuq.cognition.run/","en-US,en;q=0.9","4zqf9qb8cw6jc2b","30","[""White""]","No","Female","1847571.8999999762","6945","","","{""price_1"":""145"",""price_2"":""160"",""price_3"":""160""}","rating","dtc","attraction_1","1","laptops","null","null","null","null","null","null","1","60","50","60","50","60","45","Processing speed","Memory (RAM)","",""
"","","","","","rating_trial_setup","html-keyboard-response","65","1636366","0.0-3.0-0.31","110","1","2025-04-11 14:54:18","bb671e3ae32f654b8954ea4c4635f915","","Mozilla/5.0 (Macintosh; Intel Mac OS X 10_15_7) AppleWebKit/537.36 (KHTML, like Gecko) Chrome/132.0.0.0 Safari/537.36","Macintosh","Chrome","132.0.0.0","OS X","10_15_7","https://hz8g1ckzuq.cognition.run/","en-US,en;q=0.9","4zqf9qb8cw6jc2b","30","[""White""]","No","Female","1847571.8999999762","null","","<p></p>","null","rating","dct","attraction_1","1","microwave ovens","null","null","null","null","null","null","1","","","","","","","","","",""
"","","","","","rating_trial","survey-html-form","66","1640339","0.0-3.0-1.31","110","1","2025-04-11 14:54:18","bb671e3ae32f654b8954ea4c4635f915","","Mozilla/5.0 (Macintosh; Intel Mac OS X 10_15_7) AppleWebKit/537.36 (KHTML, like Gecko) Chrome/132.0.0.0 Safari/537.36","Macintosh","Chrome","132.0.0.0","OS X","10_15_7","https://hz8g1ckzuq.cognition.run/","en-US,en;q=0.9","4zqf9qb8cw6jc2b","30","[""White""]","No","Female","1847571.8999999762","3969","","","{""price_1"":""55"",""price_2"":""55"",""price_3"":""55""}","rating","dct","attraction_1","1","microwave ovens","null","null","null","null","null","null","1","60","50","60","50","60","45","Warranty","Cooking power","",""
"","","","","","rating_trial_setup","html-keyboard-response","67","1640641","0.0-3.0-0.32","110","1","2025-04-11 14:54:18","bb671e3ae32f654b8954ea4c4635f915","","Mozilla/5.0 (Macintosh; Intel Mac OS X 10_15_7) AppleWebKit/537.36 (KHTML, like Gecko) Chrome/132.0.0.0 Safari/537.36","Macintosh","Chrome","132.0.0.0","OS X","10_15_7","https://hz8g1ckzuq.cognition.run/","en-US,en;q=0.9","4zqf9qb8cw6jc2b","30","[""White""]","No","Female","1847571.8999999762","null","","<p></p>","null","rating","dct","repulsion_2","2","laptops","null","null","null","null","null","null","2","","","","","","","","","",""
"","","","","","rating_trial","survey-html-form","68","1647947","0.0-3.0-1.32","110","1","2025-04-11 14:54:18","bb671e3ae32f654b8954ea4c4635f915","","Mozilla/5.0 (Macintosh; Intel Mac OS X 10_15_7) AppleWebKit/537.36 (KHTML, like Gecko) Chrome/132.0.0.0 Safari/537.36","Macintosh","Chrome","132.0.0.0","OS X","10_15_7","https://hz8g1ckzuq.cognition.run/","en-US,en;q=0.9","4zqf9qb8cw6jc2b","30","[""White""]","No","Female","1847571.8999999762","7302","","","{""price_1"":""135"",""price_2"":""150"",""price_3"":""150""}","rating","dct","repulsion_2","2","laptops","null","null","null","null","null","null","2","30","40","20","100","90","100","Processing speed","Memory (RAM)","",""
"","","","","","rating_trial_setup","html-keyboard-response","69","1648250","0.0-3.0-0.33","110","1","2025-04-11 14:54:18","bb671e3ae32f654b8954ea4c4635f915","","Mozilla/5.0 (Macintosh; Intel Mac OS X 10_15_7) AppleWebKit/537.36 (KHTML, like Gecko) Chrome/132.0.0.0 Safari/537.36","Macintosh","Chrome","132.0.0.0","OS X","10_15_7","https://hz8g1ckzuq.cognition.run/","en-US,en;q=0.9","4zqf9qb8cw6jc2b","30","[""White""]","No","Female","1847571.8999999762","null","","<p></p>","null","rating","ctd","repulsion_1","2","washing machines","null","null","null","null","null","null","1","","","","","","","","","",""
"","","","","","rating_trial","survey-html-form","70","1653006","0.0-3.0-1.33","110","1","2025-04-11 14:54:18","bb671e3ae32f654b8954ea4c4635f915","","Mozilla/5.0 (Macintosh; Intel Mac OS X 10_15_7) AppleWebKit/537.36 (KHTML, like Gecko) Chrome/132.0.0.0 Safari/537.36","Macintosh","Chrome","132.0.0.0","OS X","10_15_7","https://hz8g1ckzuq.cognition.run/","en-US,en;q=0.9","4zqf9qb8cw6jc2b","30","[""White""]","No","Female","1847571.8999999762","4753","","","{""price_1"":""200"",""price_2"":""200"",""price_3"":""200""}","rating","ctd","repulsion_1","2","washing machines","null","null","null","null","null","null","1","30","40","25","100","90","100","Average lifespan","Energy savings","",""
"","","","","","rating_trial_setup","html-keyboard-response","71","1653309","0.0-3.0-0.34","110","1","2025-04-11 14:54:18","bb671e3ae32f654b8954ea4c4635f915","","Mozilla/5.0 (Macintosh; Intel Mac OS X 10_15_7) AppleWebKit/537.36 (KHTML, like Gecko) Chrome/132.0.0.0 Safari/537.36","Macintosh","Chrome","132.0.0.0","OS X","10_15_7","https://hz8g1ckzuq.cognition.run/","en-US,en;q=0.9","4zqf9qb8cw6jc2b","30","[""White""]","No","Female","1847571.8999999762","null","","<p></p>","null","rating","cdt","repulsion_2","2","televisions","null","null","null","null","null","null","1","","","","","","","","","",""
"","","","","","rating_trial","survey-html-form","72","1658520","0.0-3.0-1.34","110","1","2025-04-11 14:54:18","bb671e3ae32f654b8954ea4c4635f915","","Mozilla/5.0 (Macintosh; Intel Mac OS X 10_15_7) AppleWebKit/537.36 (KHTML, like Gecko) Chrome/132.0.0.0 Safari/537.36","Macintosh","Chrome","132.0.0.0","OS X","10_15_7","https://hz8g1ckzuq.cognition.run/","en-US,en;q=0.9","4zqf9qb8cw6jc2b","30","[""White""]","No","Female","1847571.8999999762","5207","","","{""price_1"":""45"",""price_2"":""55"",""price_3"":""55""}","rating","cdt","repulsion_2","2","televisions","null","null","null","null","null","null","1","30","40","20","100","90","100","Screen size","Average lifespan","",""
"","","","","","rating_trial_setup","html-keyboard-response","73","1658823","0.0-3.0-0.35","110","1","2025-04-11 14:54:18","bb671e3ae32f654b8954ea4c4635f915","","Mozilla/5.0 (Macintosh; Intel Mac OS X 10_15_7) AppleWebKit/537.36 (KHTML, like Gecko) Chrome/132.0.0.0 Safari/537.36","Macintosh","Chrome","132.0.0.0","OS X","10_15_7","https://hz8g1ckzuq.cognition.run/","en-US,en;q=0.9","4zqf9qb8cw6jc2b","30","[""White""]","No","Female","1847571.8999999762","null","","<p></p>","null","rating","tcd","repulsion_2","1","televisions","null","null","null","null","null","null","2","","","","","","","","","",""
"","","","","","rating_trial","survey-html-form","74","1664782","0.0-3.0-1.35","110","1","2025-04-11 14:54:18","bb671e3ae32f654b8954ea4c4635f915","","Mozilla/5.0 (Macintosh; Intel Mac OS X 10_15_7) AppleWebKit/537.36 (KHTML, like Gecko) Chrome/132.0.0.0 Safari/537.36","Macintosh","Chrome","132.0.0.0","OS X","10_15_7","https://hz8g1ckzuq.cognition.run/","en-US,en;q=0.9","4zqf9qb8cw6jc2b","30","[""White""]","No","Female","1847571.8999999762","5955","","","{""price_1"":""60"",""price_2"":""65"",""price_3"":""45""}","rating","tcd","repulsion_2","1","televisions","null","null","null","null","null","null","2","100","90","100","30","40","20","Screen size","Average lifespan","",""
"","","","","","rating_trial_setup","html-keyboard-response","75","1665085","0.0-3.0-0.36","110","1","2025-04-11 14:54:18","bb671e3ae32f654b8954ea4c4635f915","","Mozilla/5.0 (Macintosh; Intel Mac OS X 10_15_7) AppleWebKit/537.36 (KHTML, like Gecko) Chrome/132.0.0.0 Safari/537.36","Macintosh","Chrome","132.0.0.0","OS X","10_15_7","https://hz8g1ckzuq.cognition.run/","en-US,en;q=0.9","4zqf9qb8cw6jc2b","30","[""White""]","No","Female","1847571.8999999762","null","","<p></p>","null","rating","tdc","attraction_2","2","washing machines","null","null","null","null","null","null","2","","","","","","","","","",""
"","","","","","rating_trial","survey-html-form","76","1670755","0.0-3.0-1.36","110","1","2025-04-11 14:54:18","bb671e3ae32f654b8954ea4c4635f915","","Mozilla/5.0 (Macintosh; Intel Mac OS X 10_15_7) AppleWebKit/537.36 (KHTML, like Gecko) Chrome/132.0.0.0 Safari/537.36","Macintosh","Chrome","132.0.0.0","OS X","10_15_7","https://hz8g1ckzuq.cognition.run/","en-US,en;q=0.9","4zqf9qb8cw6jc2b","30","[""White""]","No","Female","1847571.8999999762","5666","","","{""price_1"":""200"",""price_2"":""200"",""price_3"":""200""}","rating","tdc","attraction_2","2","washing machines","null","null","null","null","null","null","2","50","60","40","60","50","60","Average lifespan","Energy savings","",""
"","","","","","rating_trial_setup","html-keyboard-response","77","1671058","0.0-3.0-0.37","110","1","2025-04-11 14:54:18","bb671e3ae32f654b8954ea4c4635f915","","Mozilla/5.0 (Macintosh; Intel Mac OS X 10_15_7) AppleWebKit/537.36 (KHTML, like Gecko) Chrome/132.0.0.0 Safari/537.36","Macintosh","Chrome","132.0.0.0","OS X","10_15_7","https://hz8g1ckzuq.cognition.run/","en-US,en;q=0.9","4zqf9qb8cw6jc2b","30","[""White""]","No","Female","1847571.8999999762","null","","<p></p>","null","rating","dtc","attraction_2","1","washing machines","null","null","null","null","null","null","1","","","","","","","","","",""
"","","","","","rating_trial","survey-html-form","78","1676328","0.0-3.0-1.37","110","1","2025-04-11 14:54:18","bb671e3ae32f654b8954ea4c4635f915","","Mozilla/5.0 (Macintosh; Intel Mac OS X 10_15_7) AppleWebKit/537.36 (KHTML, like Gecko) Chrome/132.0.0.0 Safari/537.36","Macintosh","Chrome","132.0.0.0","OS X","10_15_7","https://hz8g1ckzuq.cognition.run/","en-US,en;q=0.9","4zqf9qb8cw6jc2b","30","[""White""]","No","Female","1847571.8999999762","5264","","","{""price_1"":""250"",""price_2"":""200"",""price_3"":""250""}","rating","dtc","attraction_2","1","washing machines","null","null","null","null","null","null","1","60","50","60","50","60","40","Average lifespan","Energy savings","",""
"","","","","","rating_trial_setup","html-keyboard-response","79","1676633","0.0-3.0-0.38","110","1","2025-04-11 14:54:18","bb671e3ae32f654b8954ea4c4635f915","","Mozilla/5.0 (Macintosh; Intel Mac OS X 10_15_7) AppleWebKit/537.36 (KHTML, like Gecko) Chrome/132.0.0.0 Safari/537.36","Macintosh","Chrome","132.0.0.0","OS X","10_15_7","https://hz8g1ckzuq.cognition.run/","en-US,en;q=0.9","4zqf9qb8cw6jc2b","30","[""White""]","No","Female","1847571.8999999762","null","","<p></p>","null","rating","tdc","attraction_2","1","laptops","null","null","null","null","null","null","1","","","","","","","","","",""
"","","","","","rating_trial","survey-html-form","80","1685105","0.0-3.0-1.38","110","1","2025-04-11 14:54:18","bb671e3ae32f654b8954ea4c4635f915","","Mozilla/5.0 (Macintosh; Intel Mac OS X 10_15_7) AppleWebKit/537.36 (KHTML, like Gecko) Chrome/132.0.0.0 Safari/537.36","Macintosh","Chrome","132.0.0.0","OS X","10_15_7","https://hz8g1ckzuq.cognition.run/","en-US,en;q=0.9","4zqf9qb8cw6jc2b","30","[""White""]","No","Female","1847571.8999999762","8468","","","{""price_1"":""145"",""price_2"":""145"",""price_3"":""140""}","rating","tdc","attraction_2","1","laptops","null","null","null","null","null","null","1","60","50","60","50","60","40","Processing speed","Memory (RAM)","",""
"","","","","","rating_trial_setup","html-keyboard-response","81","1685408","0.0-3.0-0.39","110","1","2025-04-11 14:54:18","bb671e3ae32f654b8954ea4c4635f915","","Mozilla/5.0 (Macintosh; Intel Mac OS X 10_15_7) AppleWebKit/537.36 (KHTML, like Gecko) Chrome/132.0.0.0 Safari/537.36","Macintosh","Chrome","132.0.0.0","OS X","10_15_7","https://hz8g1ckzuq.cognition.run/","en-US,en;q=0.9","4zqf9qb8cw6jc2b","30","[""White""]","No","Female","1847571.8999999762","null","","<p></p>","null","rating","dtc","repulsion_2","1","microwave ovens","null","null","null","null","null","null","1","","","","","","","","","",""
"","","","","","rating_trial","survey-html-form","82","1691644","0.0-3.0-1.39","110","1","2025-04-11 14:54:18","bb671e3ae32f654b8954ea4c4635f915","","Mozilla/5.0 (Macintosh; Intel Mac OS X 10_15_7) AppleWebKit/537.36 (KHTML, like Gecko) Chrome/132.0.0.0 Safari/537.36","Macintosh","Chrome","132.0.0.0","OS X","10_15_7","https://hz8g1ckzuq.cognition.run/","en-US,en;q=0.9","4zqf9qb8cw6jc2b","30","[""White""]","No","Female","1847571.8999999762","6233","","","{""price_1"":""75"",""price_2"":""75"",""price_3"":""65""}","rating","dtc","repulsion_2","1","microwave ovens","null","null","null","null","null","null","1","100","90","100","30","40","20","Warranty","Cooking power","",""
"","","","","","","instructions","83","1709872","0.0-4.0","110","1","2025-04-11 14:54:18","bb671e3ae32f654b8954ea4c4635f915","","Mozilla/5.0 (Macintosh; Intel Mac OS X 10_15_7) AppleWebKit/537.36 (KHTML, like Gecko) Chrome/132.0.0.0 Safari/537.36","Macintosh","Chrome","132.0.0.0","OS X","10_15_7","https://hz8g1ckzuq.cognition.run/","en-US,en;q=0.9","4zqf9qb8cw6jc2b","30","[""White""]","No","Female","1847571.8999999762","18224","[{""page_index"":0,""viewing_time"":1181},{""page_index"":1,""viewing_time"":1197},{""page_index"":2,""viewing_time"":2113},{""page_index"":3,""viewing_time"":2185},{""page_index"":4,""viewing_time"":1081},{""page_index"":5,""viewing_time"":1177},{""page_index"":4,""viewing_time"":2239},{""page_index"":5,""viewing_time"":834},{""page_index"":6,""viewing_time"":5365},{""page_index"":7,""viewing_time"":852}]","","","","","","","","","","","","","","","","","","","","","","","",""
"","","","","","choice_trial_setup","html-keyboard-response","84","1710176","0.0-5.0-0.0","110","1","2025-04-11 14:54:18","bb671e3ae32f654b8954ea4c4635f915","","Mozilla/5.0 (Macintosh; Intel Mac OS X 10_15_7) AppleWebKit/537.36 (KHTML, like Gecko) Chrome/132.0.0.0 Safari/537.36","Macintosh","Chrome","132.0.0.0","OS X","10_15_7","https://hz8g1ckzuq.cognition.run/","en-US,en;q=0.9","4zqf9qb8cw6jc2b","30","[""White""]","No","Female","1847571.8999999762","null","","<p></p>","null","choice","wwb","catch","null","washing machines","85","90","25","40","50","25","2","","","","","","","","","",""
"","","","","","choice_trial","survey-html-form","85","1712264","0.0-5.0-1.0","110","1","2025-04-11 14:54:18","bb671e3ae32f654b8954ea4c4635f915","","Mozilla/5.0 (Macintosh; Intel Mac OS X 10_15_7) AppleWebKit/537.36 (KHTML, like Gecko) Chrome/132.0.0.0 Safari/537.36","Macintosh","Chrome","132.0.0.0","OS X","10_15_7","https://hz8g1ckzuq.cognition.run/","en-US,en;q=0.9","4zqf9qb8cw6jc2b","30","[""White""]","No","Female","1847571.8999999762","2084","","","{""product_choice"":""C""}","choice","wwb","catch","null","washing machines","85","90","25","40","50","25","2","null","null","null","null","null","null","Average lifespan","Energy savings","",""
"","","","","","choice_trial_setup","html-keyboard-response","86","1712567","0.0-5.0-0.1","110","1","2025-04-11 14:54:18","bb671e3ae32f654b8954ea4c4635f915","","Mozilla/5.0 (Macintosh; Intel Mac OS X 10_15_7) AppleWebKit/537.36 (KHTML, like Gecko) Chrome/132.0.0.0 Safari/537.36","Macintosh","Chrome","132.0.0.0","OS X","10_15_7","https://hz8g1ckzuq.cognition.run/","en-US,en;q=0.9","4zqf9qb8cw6jc2b","30","[""White""]","No","Female","1847571.8999999762","null","","<p></p>","null","choice","dtc","attraction_2","2","microwave ovens","null","null","null","null","null","null","1","","","","","","","","","",""
"","","","","","choice_trial","survey-html-form","87","1717626","0.0-5.0-1.1","110","1","2025-04-11 14:54:18","bb671e3ae32f654b8954ea4c4635f915","","Mozilla/5.0 (Macintosh; Intel Mac OS X 10_15_7) AppleWebKit/537.36 (KHTML, like Gecko) Chrome/132.0.0.0 Safari/537.36","Macintosh","Chrome","132.0.0.0","OS X","10_15_7","https://hz8g1ckzuq.cognition.run/","en-US,en;q=0.9","4zqf9qb8cw6jc2b","30","[""White""]","No","Female","1847571.8999999762","5055","","","{""product_choice"":""B""}","choice","dtc","attraction_2","2","microwave ovens","null","null","null","null","null","null","1","50","60","40","60","50","60","Warranty","Cooking power","",""
"","","","","","choice_trial_setup","html-keyboard-response","88","1717931","0.0-5.0-0.2","110","1","2025-04-11 14:54:18","bb671e3ae32f654b8954ea4c4635f915","","Mozilla/5.0 (Macintosh; Intel Mac OS X 10_15_7) AppleWebKit/537.36 (KHTML, like Gecko) Chrome/132.0.0.0 Safari/537.36","Macintosh","Chrome","132.0.0.0","OS X","10_15_7","https://hz8g1ckzuq.cognition.run/","en-US,en;q=0.9","4zqf9qb8cw6jc2b","30","[""White""]","No","Female","1847571.8999999762","null","","<p></p>","null","choice","cdt","repulsion_1","1","laptops","null","null","null","null","null","null","2","","","","","","","","","",""
"","","","","","choice_trial","survey-html-form","89","1721729","0.0-5.0-1.2","110","1","2025-04-11 14:54:18","bb671e3ae32f654b8954ea4c4635f915","","Mozilla/5.0 (Macintosh; Intel Mac OS X 10_15_7) AppleWebKit/537.36 (KHTML, like Gecko) Chrome/132.0.0.0 Safari/537.36","Macintosh","Chrome","132.0.0.0","OS X","10_15_7","https://hz8g1ckzuq.cognition.run/","en-US,en;q=0.9","4zqf9qb8cw6jc2b","30","[""White""]","No","Female","1847571.8999999762","3796","","","{""product_choice"":""A""}","choice","cdt","repulsion_1","1","laptops","null","null","null","null","null","null","2","100","90","100","30","40","25","Processing speed","Memory (RAM)","",""
"","","","","","choice_trial_setup","html-keyboard-response","90","1722034","0.0-5.0-0.3","110","1","2025-04-11 14:54:18","bb671e3ae32f654b8954ea4c4635f915","","Mozilla/5.0 (Macintosh; Intel Mac OS X 10_15_7) AppleWebKit/537.36 (KHTML, like Gecko) Chrome/132.0.0.0 Safari/537.36","Macintosh","Chrome","132.0.0.0","OS X","10_15_7","https://hz8g1ckzuq.cognition.run/","en-US,en;q=0.9","4zqf9qb8cw6jc2b","30","[""White""]","No","Female","1847571.8999999762","null","","<p></p>","null","choice","dtc","attraction_1","1","televisions","null","null","null","null","null","null","2","","","","","","","","","",""
"","","","","","choice_trial","survey-html-form","91","1724016","0.0-5.0-1.3","110","1","2025-04-11 14:54:18","bb671e3ae32f654b8954ea4c4635f915","","Mozilla/5.0 (Macintosh; Intel Mac OS X 10_15_7) AppleWebKit/537.36 (KHTML, like Gecko) Chrome/132.0.0.0 Safari/537.36","Macintosh","Chrome","132.0.0.0","OS X","10_15_7","https://hz8g1ckzuq.cognition.run/","en-US,en;q=0.9","4zqf9qb8cw6jc2b","30","[""White""]","No","Female","1847571.8999999762","1979","","","{""product_choice"":""B""}","choice","dtc","attraction_1","1","televisions","null","null","null","null","null","null","2","60","50","60","50","60","45","Screen size","Average lifespan","",""
"","","","","","choice_trial_setup","html-keyboard-response","92","1724321","0.0-5.0-0.4","110","1","2025-04-11 14:54:18","bb671e3ae32f654b8954ea4c4635f915","","Mozilla/5.0 (Macintosh; Intel Mac OS X 10_15_7) AppleWebKit/537.36 (KHTML, like Gecko) Chrome/132.0.0.0 Safari/537.36","Macintosh","Chrome","132.0.0.0","OS X","10_15_7","https://hz8g1ckzuq.cognition.run/","en-US,en;q=0.9","4zqf9qb8cw6jc2b","30","[""White""]","No","Female","1847571.8999999762","null","","<p></p>","null","choice","wbw","catch","null","televisions","65","90","30","25","50","15","2","","","","","","","","","",""
"","","","","","choice_trial","survey-html-form","93","1726052","0.0-5.0-1.4","110","1","2025-04-11 14:54:18","bb671e3ae32f654b8954ea4c4635f915","","Mozilla/5.0 (Macintosh; Intel Mac OS X 10_15_7) AppleWebKit/537.36 (KHTML, like Gecko) Chrome/132.0.0.0 Safari/537.36","Macintosh","Chrome","132.0.0.0","OS X","10_15_7","https://hz8g1ckzuq.cognition.run/","en-US,en;q=0.9","4zqf9qb8cw6jc2b","30","[""White""]","No","Female","1847571.8999999762","1726","","","{""product_choice"":""B""}","choice","wbw","catch","null","televisions","65","90","30","25","50","15","2","null","null","null","null","null","null","Screen size","Average lifespan","",""
"","","","","","choice_trial_setup","html-keyboard-response","94","1726356","0.0-5.0-0.5","110","1","2025-04-11 14:54:18","bb671e3ae32f654b8954ea4c4635f915","","Mozilla/5.0 (Macintosh; Intel Mac OS X 10_15_7) AppleWebKit/537.36 (KHTML, like Gecko) Chrome/132.0.0.0 Safari/537.36","Macintosh","Chrome","132.0.0.0","OS X","10_15_7","https://hz8g1ckzuq.cognition.run/","en-US,en;q=0.9","4zqf9qb8cw6jc2b","30","[""White""]","No","Female","1847571.8999999762","null","","<p></p>","null","choice","wwb","catch","null","laptops","60","65","15","10","5","45","1","","","","","","","","","",""
"","","","","","choice_trial","survey-html-form","95","1728573","0.0-5.0-1.5","110","1","2025-04-11 14:54:18","bb671e3ae32f654b8954ea4c4635f915","","Mozilla/5.0 (Macintosh; Intel Mac OS X 10_15_7) AppleWebKit/537.36 (KHTML, like Gecko) Chrome/132.0.0.0 Safari/537.36","Macintosh","Chrome","132.0.0.0","OS X","10_15_7","https://hz8g1ckzuq.cognition.run/","en-US,en;q=0.9","4zqf9qb8cw6jc2b","30","[""White""]","No","Female","1847571.8999999762","2214","","","{""product_choice"":""C""}","choice","wwb","catch","null","laptops","60","65","15","10","5","45","1","null","null","null","null","null","null","Processing speed","Memory (RAM)","",""
"","","","","","choice_trial_setup","html-keyboard-response","96","1728877","0.0-5.0-0.6","110","1","2025-04-11 14:54:18","bb671e3ae32f654b8954ea4c4635f915","","Mozilla/5.0 (Macintosh; Intel Mac OS X 10_15_7) AppleWebKit/537.36 (KHTML, like Gecko) Chrome/132.0.0.0 Safari/537.36","Macintosh","Chrome","132.0.0.0","OS X","10_15_7","https://hz8g1ckzuq.cognition.run/","en-US,en;q=0.9","4zqf9qb8cw6jc2b","30","[""White""]","No","Female","1847571.8999999762","null","","<p></p>","null","choice","tcd","attraction_2","1","televisions","null","null","null","null","null","null","2","","","","","","","","","",""
"","","","","","choice_trial","survey-html-form","97","1731556","0.0-5.0-1.6","110","1","2025-04-11 14:54:18","bb671e3ae32f654b8954ea4c4635f915","","Mozilla/5.0 (Macintosh; Intel Mac OS X 10_15_7) AppleWebKit/537.36 (KHTML, like Gecko) Chrome/132.0.0.0 Safari/537.36","Macintosh","Chrome","132.0.0.0","OS X","10_15_7","https://hz8g1ckzuq.cognition.run/","en-US,en;q=0.9","4zqf9qb8cw6jc2b","30","[""White""]","No","Female","1847571.8999999762","2677","","","{""product_choice"":""A""}","choice","tcd","attraction_2","1","televisions","null","null","null","null","null","null","2","60","50","60","50","60","40","Screen size","Average lifespan","",""
"","","","","","choice_trial_setup","html-keyboard-response","98","1731860","0.0-5.0-0.7","110","1","2025-04-11 14:54:18","bb671e3ae32f654b8954ea4c4635f915","","Mozilla/5.0 (Macintosh; Intel Mac OS X 10_15_7) AppleWebKit/537.36 (KHTML, like Gecko) Chrome/132.0.0.0 Safari/537.36","Macintosh","Chrome","132.0.0.0","OS X","10_15_7","https://hz8g1ckzuq.cognition.run/","en-US,en;q=0.9","4zqf9qb8cw6jc2b","30","[""White""]","No","Female","1847571.8999999762","null","","<p></p>","null","choice","bww","catch","null","laptops","80","65","20","15","20","35","2","","","","","","","","","",""
"","","","","","choice_trial","survey-html-form","99","1733571","0.0-5.0-1.7","110","1","2025-04-11 14:54:18","bb671e3ae32f654b8954ea4c4635f915","","Mozilla/5.0 (Macintosh; Intel Mac OS X 10_15_7) AppleWebKit/537.36 (KHTML, like Gecko) Chrome/132.0.0.0 Safari/537.36","Macintosh","Chrome","132.0.0.0","OS X","10_15_7","https://hz8g1ckzuq.cognition.run/","en-US,en;q=0.9","4zqf9qb8cw6jc2b","30","[""White""]","No","Female","1847571.8999999762","1706","","","{""product_choice"":""A""}","choice","bww","catch","null","laptops","80","65","20","15","20","35","2","null","null","null","null","null","null","Processing speed","Memory (RAM)","",""
"","","","","","choice_trial_setup","html-keyboard-response","100","1733875","0.0-5.0-0.8","110","1","2025-04-11 14:54:18","bb671e3ae32f654b8954ea4c4635f915","","Mozilla/5.0 (Macintosh; Intel Mac OS X 10_15_7) AppleWebKit/537.36 (KHTML, like Gecko) Chrome/132.0.0.0 Safari/537.36","Macintosh","Chrome","132.0.0.0","OS X","10_15_7","https://hz8g1ckzuq.cognition.run/","en-US,en;q=0.9","4zqf9qb8cw6jc2b","30","[""White""]","No","Female","1847571.8999999762","null","","<p></p>","null","choice","cdt","repulsion_2","2","televisions","null","null","null","null","null","null","2","","","","","","","","","",""
"","","","","","choice_trial","survey-html-form","101","1736142","0.0-5.0-1.8","110","1","2025-04-11 14:54:18","bb671e3ae32f654b8954ea4c4635f915","","Mozilla/5.0 (Macintosh; Intel Mac OS X 10_15_7) AppleWebKit/537.36 (KHTML, like Gecko) Chrome/132.0.0.0 Safari/537.36","Macintosh","Chrome","132.0.0.0","OS X","10_15_7","https://hz8g1ckzuq.cognition.run/","en-US,en;q=0.9","4zqf9qb8cw6jc2b","30","[""White""]","No","Female","1847571.8999999762","2262","","","{""product_choice"":""A""}","choice","cdt","repulsion_2","2","televisions","null","null","null","null","null","null","2","30","40","20","100","90","100","Screen size","Average lifespan","",""
"","","","","","choice_trial_setup","html-keyboard-response","102","1736446","0.0-5.0-0.9","110","1","2025-04-11 14:54:18","bb671e3ae32f654b8954ea4c4635f915","","Mozilla/5.0 (Macintosh; Intel Mac OS X 10_15_7) AppleWebKit/537.36 (KHTML, like Gecko) Chrome/132.0.0.0 Safari/537.36","Macintosh","Chrome","132.0.0.0","OS X","10_15_7","https://hz8g1ckzuq.cognition.run/","en-US,en;q=0.9","4zqf9qb8cw6jc2b","30","[""White""]","No","Female","1847571.8999999762","null","","<p></p>","null","choice","tcd","repulsion_1","2","washing machines","null","null","null","null","null","null","2","","","","","","","","","",""
"","","","","","choice_trial","survey-html-form","103","1739109","0.0-5.0-1.9","110","1","2025-04-11 14:54:18","bb671e3ae32f654b8954ea4c4635f915","","Mozilla/5.0 (Macintosh; Intel Mac OS X 10_15_7) AppleWebKit/537.36 (KHTML, like Gecko) Chrome/132.0.0.0 Safari/537.36","Macintosh","Chrome","132.0.0.0","OS X","10_15_7","https://hz8g1ckzuq.cognition.run/","en-US,en;q=0.9","4zqf9qb8cw6jc2b","30","[""White""]","No","Female","1847571.8999999762","2659","","","{""product_choice"":""B""}","choice","tcd","repulsion_1","2","washing machines","null","null","null","null","null","null","2","30","40","25","100","90","100","Average lifespan","Energy savings","",""
"","","","","","choice_trial_setup","html-keyboard-response","104","1739413","0.0-5.0-0.10","110","1","2025-04-11 14:54:18","bb671e3ae32f654b8954ea4c4635f915","","Mozilla/5.0 (Macintosh; Intel Mac OS X 10_15_7) AppleWebKit/537.36 (KHTML, like Gecko) Chrome/132.0.0.0 Safari/537.36","Macintosh","Chrome","132.0.0.0","OS X","10_15_7","https://hz8g1ckzuq.cognition.run/","en-US,en;q=0.9","4zqf9qb8cw6jc2b","30","[""White""]","No","Female","1847571.8999999762","null","","<p></p>","null","choice","dtc","attraction_2","1","laptops","null","null","null","null","null","null","2","","","","","","","","","",""
"","","","","","choice_trial","survey-html-form","105","1742159","0.0-5.0-1.10","110","1","2025-04-11 14:54:18","bb671e3ae32f654b8954ea4c4635f915","","Mozilla/5.0 (Macintosh; Intel Mac OS X 10_15_7) AppleWebKit/537.36 (KHTML, like Gecko) Chrome/132.0.0.0 Safari/537.36","Macintosh","Chrome","132.0.0.0","OS X","10_15_7","https://hz8g1ckzuq.cognition.run/","en-US,en;q=0.9","4zqf9qb8cw6jc2b","30","[""White""]","No","Female","1847571.8999999762","2742","","","{""product_choice"":""B""}","choice","dtc","attraction_2","1","laptops","null","null","null","null","null","null","2","60","50","60","50","60","40","Processing speed","Memory (RAM)","",""
"","","","","","choice_trial_setup","html-keyboard-response","106","1742464","0.0-5.0-0.11","110","1","2025-04-11 14:54:18","bb671e3ae32f654b8954ea4c4635f915","","Mozilla/5.0 (Macintosh; Intel Mac OS X 10_15_7) AppleWebKit/537.36 (KHTML, like Gecko) Chrome/132.0.0.0 Safari/537.36","Macintosh","Chrome","132.0.0.0","OS X","10_15_7","https://hz8g1ckzuq.cognition.run/","en-US,en;q=0.9","4zqf9qb8cw6jc2b","30","[""White""]","No","Female","1847571.8999999762","null","","<p></p>","null","choice","cdt","attraction_1","1","microwave ovens","null","null","null","null","null","null","1","","","","","","","","","",""
"","","","","","choice_trial","survey-html-form","107","1744343","0.0-5.0-1.11","110","1","2025-04-11 14:54:18","bb671e3ae32f654b8954ea4c4635f915","","Mozilla/5.0 (Macintosh; Intel Mac OS X 10_15_7) AppleWebKit/537.36 (KHTML, like Gecko) Chrome/132.0.0.0 Safari/537.36","Macintosh","Chrome","132.0.0.0","OS X","10_15_7","https://hz8g1ckzuq.cognition.run/","en-US,en;q=0.9","4zqf9qb8cw6jc2b","30","[""White""]","No","Female","1847571.8999999762","1874","","","{""product_choice"":""A""}","choice","cdt","attraction_1","1","microwave ovens","null","null","null","null","null","null","1","60","50","60","50","60","45","Warranty","Cooking power","",""
"","","","","","choice_trial_setup","html-keyboard-response","108","1744647","0.0-5.0-0.12","110","1","2025-04-11 14:54:18","bb671e3ae32f654b8954ea4c4635f915","","Mozilla/5.0 (Macintosh; Intel Mac OS X 10_15_7) AppleWebKit/537.36 (KHTML, like Gecko) Chrome/132.0.0.0 Safari/537.36","Macintosh","Chrome","132.0.0.0","OS X","10_15_7","https://hz8g1ckzuq.cognition.run/","en-US,en;q=0.9","4zqf9qb8cw6jc2b","30","[""White""]","No","Female","1847571.8999999762","null","","<p></p>","null","choice","dtc","repulsion_2","2","laptops","null","null","null","null","null","null","2","","","","","","","","","",""
"","","","","","choice_trial","survey-html-form","109","1748054","0.0-5.0-1.12","110","1","2025-04-11 14:54:18","bb671e3ae32f654b8954ea4c4635f915","","Mozilla/5.0 (Macintosh; Intel Mac OS X 10_15_7) AppleWebKit/537.36 (KHTML, like Gecko) Chrome/132.0.0.0 Safari/537.36","Macintosh","Chrome","132.0.0.0","OS X","10_15_7","https://hz8g1ckzuq.cognition.run/","en-US,en;q=0.9","4zqf9qb8cw6jc2b","30","[""White""]","No","Female","1847571.8999999762","3401","","","{""product_choice"":""C""}","choice","dtc","repulsion_2","2","laptops","null","null","null","null","null","null","2","30","40","20","100","90","100","Processing speed","Memory (RAM)","",""
"","","","","","choice_trial_setup","html-keyboard-response","110","1748359","0.0-5.0-0.13","110","1","2025-04-11 14:54:18","bb671e3ae32f654b8954ea4c4635f915","","Mozilla/5.0 (Macintosh; Intel Mac OS X 10_15_7) AppleWebKit/537.36 (KHTML, like Gecko) Chrome/132.0.0.0 Safari/537.36","Macintosh","Chrome","132.0.0.0","OS X","10_15_7","https://hz8g1ckzuq.cognition.run/","en-US,en;q=0.9","4zqf9qb8cw6jc2b","30","[""White""]","No","Female","1847571.8999999762","null","","<p></p>","null","choice","dct","attraction_2","2","washing machines","null","null","null","null","null","null","1","","","","","","","","","",""
"","","","","","choice_trial","survey-html-form","111","1750426","0.0-5.0-1.13","110","1","2025-04-11 14:54:18","bb671e3ae32f654b8954ea4c4635f915","","Mozilla/5.0 (Macintosh; Intel Mac OS X 10_15_7) AppleWebKit/537.36 (KHTML, like Gecko) Chrome/132.0.0.0 Safari/537.36","Macintosh","Chrome","132.0.0.0","OS X","10_15_7","https://hz8g1ckzuq.cognition.run/","en-US,en;q=0.9","4zqf9qb8cw6jc2b","30","[""White""]","No","Female","1847571.8999999762","2060","","","{""product_choice"":""B""}","choice","dct","attraction_2","2","washing machines","null","null","null","null","null","null","1","50","60","40","60","50","60","Average lifespan","Energy savings","",""
"","","","","","choice_trial_setup","html-keyboard-response","112","1750730","0.0-5.0-0.14","110","1","2025-04-11 14:54:18","bb671e3ae32f654b8954ea4c4635f915","","Mozilla/5.0 (Macintosh; Intel Mac OS X 10_15_7) AppleWebKit/537.36 (KHTML, like Gecko) Chrome/132.0.0.0 Safari/537.36","Macintosh","Chrome","132.0.0.0","OS X","10_15_7","https://hz8g1ckzuq.cognition.run/","en-US,en;q=0.9","4zqf9qb8cw6jc2b","30","[""White""]","No","Female","1847571.8999999762","null","","<p></p>","null","choice","bww","catch","null","microwave ovens","85","85","45","20","35","40","2","","","","","","","","","",""
"","","","","","choice_trial","survey-html-form","113","1753311","0.0-5.0-1.14","110","1","2025-04-11 14:54:18","bb671e3ae32f654b8954ea4c4635f915","","Mozilla/5.0 (Macintosh; Intel Mac OS X 10_15_7) AppleWebKit/537.36 (KHTML, like Gecko) Chrome/132.0.0.0 Safari/537.36","Macintosh","Chrome","132.0.0.0","OS X","10_15_7","https://hz8g1ckzuq.cognition.run/","en-US,en;q=0.9","4zqf9qb8cw6jc2b","30","[""White""]","No","Female","1847571.8999999762","2576","","","{""product_choice"":""A""}","choice","bww","catch","null","microwave ovens","85","85","45","20","35","40","2","null","null","null","null","null","null","Warranty","Cooking power","",""
"","","","","","choice_trial_setup","html-keyboard-response","114","1753617","0.0-5.0-0.15","110","1","2025-04-11 14:54:18","bb671e3ae32f654b8954ea4c4635f915","","Mozilla/5.0 (Macintosh; Intel Mac OS X 10_15_7) AppleWebKit/537.36 (KHTML, like Gecko) Chrome/132.0.0.0 Safari/537.36","Macintosh","Chrome","132.0.0.0","OS X","10_15_7","https://hz8g1ckzuq.cognition.run/","en-US,en;q=0.9","4zqf9qb8cw6jc2b","30","[""White""]","No","Female","1847571.8999999762","null","","<p></p>","null","choice","dct","repulsion_2","2","washing machines","null","null","null","null","null","null","1","","","","","","","","","",""
"","","","","","choice_trial","survey-html-form","115","1757510","0.0-5.0-1.15","110","1","2025-04-11 14:54:18","bb671e3ae32f654b8954ea4c4635f915","","Mozilla/5.0 (Macintosh; Intel Mac OS X 10_15_7) AppleWebKit/537.36 (KHTML, like Gecko) Chrome/132.0.0.0 Safari/537.36","Macintosh","Chrome","132.0.0.0","OS X","10_15_7","https://hz8g1ckzuq.cognition.run/","en-US,en;q=0.9","4zqf9qb8cw6jc2b","30","[""White""]","No","Female","1847571.8999999762","3887","","","{""product_choice"":""C""}","choice","dct","repulsion_2","2","washing machines","null","null","null","null","null","null","1","30","40","20","100","90","100","Average lifespan","Energy savings","",""
"","","","","","choice_trial_setup","html-keyboard-response","116","1757815","0.0-5.0-0.16","110","1","2025-04-11 14:54:18","bb671e3ae32f654b8954ea4c4635f915","","Mozilla/5.0 (Macintosh; Intel Mac OS X 10_15_7) AppleWebKit/537.36 (KHTML, like Gecko) Chrome/132.0.0.0 Safari/537.36","Macintosh","Chrome","132.0.0.0","OS X","10_15_7","https://hz8g1ckzuq.cognition.run/","en-US,en;q=0.9","4zqf9qb8cw6jc2b","30","[""White""]","No","Female","1847571.8999999762","null","","<p></p>","null","choice","dtc","attraction_1","1","laptops","null","null","null","null","null","null","1","","","","","","","","","",""
"","","","","","choice_trial","survey-html-form","117","1760438","0.0-5.0-1.16","110","1","2025-04-11 14:54:18","bb671e3ae32f654b8954ea4c4635f915","","Mozilla/5.0 (Macintosh; Intel Mac OS X 10_15_7) AppleWebKit/537.36 (KHTML, like Gecko) Chrome/132.0.0.0 Safari/537.36","Macintosh","Chrome","132.0.0.0","OS X","10_15_7","https://hz8g1ckzuq.cognition.run/","en-US,en;q=0.9","4zqf9qb8cw6jc2b","30","[""White""]","No","Female","1847571.8999999762","2617","","","{""product_choice"":""C""}","choice","dtc","attraction_1","1","laptops","null","null","null","null","null","null","1","60","50","60","50","60","45","Processing speed","Memory (RAM)","",""
"","","","","","choice_trial_setup","html-keyboard-response","118","1760744","0.0-5.0-0.17","110","1","2025-04-11 14:54:18","bb671e3ae32f654b8954ea4c4635f915","","Mozilla/5.0 (Macintosh; Intel Mac OS X 10_15_7) AppleWebKit/537.36 (KHTML, like Gecko) Chrome/132.0.0.0 Safari/537.36","Macintosh","Chrome","132.0.0.0","OS X","10_15_7","https://hz8g1ckzuq.cognition.run/","en-US,en;q=0.9","4zqf9qb8cw6jc2b","30","[""White""]","No","Female","1847571.8999999762","null","","<p></p>","null","choice","wwb","catch","null","washing machines","75","90","40","20","5","20","2","","","","","","","","","",""
"","","","","","choice_trial","survey-html-form","119","1762739","0.0-5.0-1.17","110","1","2025-04-11 14:54:18","bb671e3ae32f654b8954ea4c4635f915","","Mozilla/5.0 (Macintosh; Intel Mac OS X 10_15_7) AppleWebKit/537.36 (KHTML, like Gecko) Chrome/132.0.0.0 Safari/537.36","Macintosh","Chrome","132.0.0.0","OS X","10_15_7","https://hz8g1ckzuq.cognition.run/","en-US,en;q=0.9","4zqf9qb8cw6jc2b","30","[""White""]","No","Female","1847571.8999999762","1988","","","{""product_choice"":""C""}","choice","wwb","catch","null","washing machines","75","90","40","20","5","20","2","null","null","null","null","null","null","Average lifespan","Energy savings","",""
"","","","","","choice_trial_setup","html-keyboard-response","120","1763044","0.0-5.0-0.18","110","1","2025-04-11 14:54:18","bb671e3ae32f654b8954ea4c4635f915","","Mozilla/5.0 (Macintosh; Intel Mac OS X 10_15_7) AppleWebKit/537.36 (KHTML, like Gecko) Chrome/132.0.0.0 Safari/537.36","Macintosh","Chrome","132.0.0.0","OS X","10_15_7","https://hz8g1ckzuq.cognition.run/","en-US,en;q=0.9","4zqf9qb8cw6jc2b","30","[""White""]","No","Female","1847571.8999999762","null","","<p></p>","null","choice","dct","repulsion_1","1","microwave ovens","null","null","null","null","null","null","2","","","","","","","","","",""
"","","","","","choice_trial","survey-html-form","121","1765357","0.0-5.0-1.18","110","1","2025-04-11 14:54:18","bb671e3ae32f654b8954ea4c4635f915","","Mozilla/5.0 (Macintosh; Intel Mac OS X 10_15_7) AppleWebKit/537.36 (KHTML, like Gecko) Chrome/132.0.0.0 Safari/537.36","Macintosh","Chrome","132.0.0.0","OS X","10_15_7","https://hz8g1ckzuq.cognition.run/","en-US,en;q=0.9","4zqf9qb8cw6jc2b","30","[""White""]","No","Female","1847571.8999999762","2306","","","{""product_choice"":""B""}","choice","dct","repulsion_1","1","microwave ovens","null","null","null","null","null","null","2","100","90","100","30","40","25","Warranty","Cooking power","",""
"","","","","","choice_trial_setup","html-keyboard-response","122","1765662","0.0-5.0-0.19","110","1","2025-04-11 14:54:18","bb671e3ae32f654b8954ea4c4635f915","","Mozilla/5.0 (Macintosh; Intel Mac OS X 10_15_7) AppleWebKit/537.36 (KHTML, like Gecko) Chrome/132.0.0.0 Safari/537.36","Macintosh","Chrome","132.0.0.0","OS X","10_15_7","https://hz8g1ckzuq.cognition.run/","en-US,en;q=0.9","4zqf9qb8cw6jc2b","30","[""White""]","No","Female","1847571.8999999762","null","","<p></p>","null","choice","cdt","attraction_2","1","washing machines","null","null","null","null","null","null","1","","","","","","","","","",""
"","","","","","choice_trial","survey-html-form","123","1769372","0.0-5.0-1.19","110","1","2025-04-11 14:54:18","bb671e3ae32f654b8954ea4c4635f915","","Mozilla/5.0 (Macintosh; Intel Mac OS X 10_15_7) AppleWebKit/537.36 (KHTML, like Gecko) Chrome/132.0.0.0 Safari/537.36","Macintosh","Chrome","132.0.0.0","OS X","10_15_7","https://hz8g1ckzuq.cognition.run/","en-US,en;q=0.9","4zqf9qb8cw6jc2b","30","[""White""]","No","Female","1847571.8999999762","3702","","","{""product_choice"":""C""}","choice","cdt","attraction_2","1","washing machines","null","null","null","null","null","null","1","60","50","60","50","60","40","Average lifespan","Energy savings","",""
"","","","","","choice_trial_setup","html-keyboard-response","124","1769677","0.0-5.0-0.20","110","1","2025-04-11 14:54:18","bb671e3ae32f654b8954ea4c4635f915","","Mozilla/5.0 (Macintosh; Intel Mac OS X 10_15_7) AppleWebKit/537.36 (KHTML, like Gecko) Chrome/132.0.0.0 Safari/537.36","Macintosh","Chrome","132.0.0.0","OS X","10_15_7","https://hz8g1ckzuq.cognition.run/","en-US,en;q=0.9","4zqf9qb8cw6jc2b","30","[""White""]","No","Female","1847571.8999999762","null","","<p></p>","null","choice","ctd","repulsion_2","1","laptops","null","null","null","null","null","null","2","","","","","","","","","",""
"","","","","","choice_trial","survey-html-form","125","1772944","0.0-5.0-1.20","110","1","2025-04-11 14:54:18","bb671e3ae32f654b8954ea4c4635f915","","Mozilla/5.0 (Macintosh; Intel Mac OS X 10_15_7) AppleWebKit/537.36 (KHTML, like Gecko) Chrome/132.0.0.0 Safari/537.36","Macintosh","Chrome","132.0.0.0","OS X","10_15_7","https://hz8g1ckzuq.cognition.run/","en-US,en;q=0.9","4zqf9qb8cw6jc2b","30","[""White""]","No","Female","1847571.8999999762","3260","","","{""product_choice"":""A""}","choice","ctd","repulsion_2","1","laptops","null","null","null","null","null","null","2","100","90","100","30","40","20","Processing speed","Memory (RAM)","",""
"","","","","","choice_trial_setup","html-keyboard-response","126","1773247","0.0-5.0-0.21","110","1","2025-04-11 14:54:18","bb671e3ae32f654b8954ea4c4635f915","","Mozilla/5.0 (Macintosh; Intel Mac OS X 10_15_7) AppleWebKit/537.36 (KHTML, like Gecko) Chrome/132.0.0.0 Safari/537.36","Macintosh","Chrome","132.0.0.0","OS X","10_15_7","https://hz8g1ckzuq.cognition.run/","en-US,en;q=0.9","4zqf9qb8cw6jc2b","30","[""White""]","No","Female","1847571.8999999762","null","","<p></p>","null","choice","tdc","repulsion_1","1","televisions","null","null","null","null","null","null","2","","","","","","","","","",""
"","","","","","choice_trial","survey-html-form","127","1778852","0.0-5.0-1.21","110","1","2025-04-11 14:54:18","bb671e3ae32f654b8954ea4c4635f915","","Mozilla/5.0 (Macintosh; Intel Mac OS X 10_15_7) AppleWebKit/537.36 (KHTML, like Gecko) Chrome/132.0.0.0 Safari/537.36","Macintosh","Chrome","132.0.0.0","OS X","10_15_7","https://hz8g1ckzuq.cognition.run/","en-US,en;q=0.9","4zqf9qb8cw6jc2b","30","[""White""]","No","Female","1847571.8999999762","5601","","","{""product_choice"":""C""}","choice","tdc","repulsion_1","1","televisions","null","null","null","null","null","null","2","100","90","100","30","40","25","Screen size","Average lifespan","",""
"","","","","","choice_trial_setup","html-keyboard-response","128","1779157","0.0-5.0-0.22","110","1","2025-04-11 14:54:18","bb671e3ae32f654b8954ea4c4635f915","","Mozilla/5.0 (Macintosh; Intel Mac OS X 10_15_7) AppleWebKit/537.36 (KHTML, like Gecko) Chrome/132.0.0.0 Safari/537.36","Macintosh","Chrome","132.0.0.0","OS X","10_15_7","https://hz8g1ckzuq.cognition.run/","en-US,en;q=0.9","4zqf9qb8cw6jc2b","30","[""White""]","No","Female","1847571.8999999762","null","","<p></p>","null","choice","ctd","attraction_1","2","microwave ovens","null","null","null","null","null","null","1","","","","","","","","","",""
"","","","","","choice_trial","survey-html-form","129","1781342","0.0-5.0-1.22","110","1","2025-04-11 14:54:18","bb671e3ae32f654b8954ea4c4635f915","","Mozilla/5.0 (Macintosh; Intel Mac OS X 10_15_7) AppleWebKit/537.36 (KHTML, like Gecko) Chrome/132.0.0.0 Safari/537.36","Macintosh","Chrome","132.0.0.0","OS X","10_15_7","https://hz8g1ckzuq.cognition.run/","en-US,en;q=0.9","4zqf9qb8cw6jc2b","30","[""White""]","No","Female","1847571.8999999762","2180","","","{""product_choice"":""A""}","choice","ctd","attraction_1","2","microwave ovens","null","null","null","null","null","null","1","50","60","45","60","50","60","Warranty","Cooking power","",""
"","","","","","choice_trial_setup","html-keyboard-response","130","1781649","0.0-5.0-0.23","110","1","2025-04-11 14:54:18","bb671e3ae32f654b8954ea4c4635f915","","Mozilla/5.0 (Macintosh; Intel Mac OS X 10_15_7) AppleWebKit/537.36 (KHTML, like Gecko) Chrome/132.0.0.0 Safari/537.36","Macintosh","Chrome","132.0.0.0","OS X","10_15_7","https://hz8g1ckzuq.cognition.run/","en-US,en;q=0.9","4zqf9qb8cw6jc2b","30","[""White""]","No","Female","1847571.8999999762","null","","<p></p>","null","choice","cdt","attraction_1","2","laptops","null","null","null","null","null","null","1","","","","","","","","","",""
"","","","","","choice_trial","survey-html-form","131","1783706","0.0-5.0-1.23","110","1","2025-04-11 14:54:18","bb671e3ae32f654b8954ea4c4635f915","","Mozilla/5.0 (Macintosh; Intel Mac OS X 10_15_7) AppleWebKit/537.36 (KHTML, like Gecko) Chrome/132.0.0.0 Safari/537.36","Macintosh","Chrome","132.0.0.0","OS X","10_15_7","https://hz8g1ckzuq.cognition.run/","en-US,en;q=0.9","4zqf9qb8cw6jc2b","30","[""White""]","No","Female","1847571.8999999762","2049","","","{""product_choice"":""A""}","choice","cdt","attraction_1","2","laptops","null","null","null","null","null","null","1","50","60","45","60","50","60","Processing speed","Memory (RAM)","",""
"","","","","","choice_trial_setup","html-keyboard-response","132","1784011","0.0-5.0-0.24","110","1","2025-04-11 14:54:18","bb671e3ae32f654b8954ea4c4635f915","","Mozilla/5.0 (Macintosh; Intel Mac OS X 10_15_7) AppleWebKit/537.36 (KHTML, like Gecko) Chrome/132.0.0.0 Safari/537.36","Macintosh","Chrome","132.0.0.0","OS X","10_15_7","https://hz8g1ckzuq.cognition.run/","en-US,en;q=0.9","4zqf9qb8cw6jc2b","30","[""White""]","No","Female","1847571.8999999762","null","","<p></p>","null","choice","cdt","repulsion_2","2","microwave ovens","null","null","null","null","null","null","2","","","","","","","","","",""
"","","","","","choice_trial","survey-html-form","133","1787434","0.0-5.0-1.24","110","1","2025-04-11 14:54:18","bb671e3ae32f654b8954ea4c4635f915","","Mozilla/5.0 (Macintosh; Intel Mac OS X 10_15_7) AppleWebKit/537.36 (KHTML, like Gecko) Chrome/132.0.0.0 Safari/537.36","Macintosh","Chrome","132.0.0.0","OS X","10_15_7","https://hz8g1ckzuq.cognition.run/","en-US,en;q=0.9","4zqf9qb8cw6jc2b","30","[""White""]","No","Female","1847571.8999999762","3418","","","{""product_choice"":""C""}","choice","cdt","repulsion_2","2","microwave ovens","null","null","null","null","null","null","2","30","40","20","100","90","100","Warranty","Cooking power","",""
"","","","","","choice_trial_setup","html-keyboard-response","134","1787739","0.0-5.0-0.25","110","1","2025-04-11 14:54:18","bb671e3ae32f654b8954ea4c4635f915","","Mozilla/5.0 (Macintosh; Intel Mac OS X 10_15_7) AppleWebKit/537.36 (KHTML, like Gecko) Chrome/132.0.0.0 Safari/537.36","Macintosh","Chrome","132.0.0.0","OS X","10_15_7","https://hz8g1ckzuq.cognition.run/","en-US,en;q=0.9","4zqf9qb8cw6jc2b","30","[""White""]","No","Female","1847571.8999999762","null","","<p></p>","null","choice","dtc","repulsion_1","2","televisions","null","null","null","null","null","null","1","","","","","","","","","",""
"","","","","","choice_trial","survey-html-form","135","1791010","0.0-5.0-1.25","110","1","2025-04-11 14:54:18","bb671e3ae32f654b8954ea4c4635f915","","Mozilla/5.0 (Macintosh; Intel Mac OS X 10_15_7) AppleWebKit/537.36 (KHTML, like Gecko) Chrome/132.0.0.0 Safari/537.36","Macintosh","Chrome","132.0.0.0","OS X","10_15_7","https://hz8g1ckzuq.cognition.run/","en-US,en;q=0.9","4zqf9qb8cw6jc2b","30","[""White""]","No","Female","1847571.8999999762","3264","","","{""product_choice"":""C""}","choice","dtc","repulsion_1","2","televisions","null","null","null","null","null","null","1","30","40","25","100","90","100","Screen size","Average lifespan","",""
"","","","","","choice_trial_setup","html-keyboard-response","136","1791315","0.0-5.0-0.26","110","1","2025-04-11 14:54:18","bb671e3ae32f654b8954ea4c4635f915","","Mozilla/5.0 (Macintosh; Intel Mac OS X 10_15_7) AppleWebKit/537.36 (KHTML, like Gecko) Chrome/132.0.0.0 Safari/537.36","Macintosh","Chrome","132.0.0.0","OS X","10_15_7","https://hz8g1ckzuq.cognition.run/","en-US,en;q=0.9","4zqf9qb8cw6jc2b","30","[""White""]","No","Female","1847571.8999999762","null","","<p></p>","null","choice","bww","catch","null","microwave ovens","50","95","15","20","35","45","2","","","","","","","","","",""
"","","","","","choice_trial","survey-html-form","137","1793091","0.0-5.0-1.26","110","1","2025-04-11 14:54:18","bb671e3ae32f654b8954ea4c4635f915","","Mozilla/5.0 (Macintosh; Intel Mac OS X 10_15_7) AppleWebKit/537.36 (KHTML, like Gecko) Chrome/132.0.0.0 Safari/537.36","Macintosh","Chrome","132.0.0.0","OS X","10_15_7","https://hz8g1ckzuq.cognition.run/","en-US,en;q=0.9","4zqf9qb8cw6jc2b","30","[""White""]","No","Female","1847571.8999999762","1769","","","{""product_choice"":""A""}","choice","bww","catch","null","microwave ovens","50","95","15","20","35","45","2","null","null","null","null","null","null","Warranty","Cooking power","",""
"","","","","","choice_trial_setup","html-keyboard-response","138","1793397","0.0-5.0-0.27","110","1","2025-04-11 14:54:18","bb671e3ae32f654b8954ea4c4635f915","","Mozilla/5.0 (Macintosh; Intel Mac OS X 10_15_7) AppleWebKit/537.36 (KHTML, like Gecko) Chrome/132.0.0.0 Safari/537.36","Macintosh","Chrome","132.0.0.0","OS X","10_15_7","https://hz8g1ckzuq.cognition.run/","en-US,en;q=0.9","4zqf9qb8cw6jc2b","30","[""White""]","No","Female","1847571.8999999762","null","","<p></p>","null","choice","tcd","repulsion_2","1","microwave ovens","null","null","null","null","null","null","1","","","","","","","","","",""
"","","","","","choice_trial","survey-html-form","139","1796446","0.0-5.0-1.27","110","1","2025-04-11 14:54:18","bb671e3ae32f654b8954ea4c4635f915","","Mozilla/5.0 (Macintosh; Intel Mac OS X 10_15_7) AppleWebKit/537.36 (KHTML, like Gecko) Chrome/132.0.0.0 Safari/537.36","Macintosh","Chrome","132.0.0.0","OS X","10_15_7","https://hz8g1ckzuq.cognition.run/","en-US,en;q=0.9","4zqf9qb8cw6jc2b","30","[""White""]","No","Female","1847571.8999999762","3043","","","{""product_choice"":""B""}","choice","tcd","repulsion_2","1","microwave ovens","null","null","null","null","null","null","1","100","90","100","30","40","20","Warranty","Cooking power","",""
"","","","","","choice_trial_setup","html-keyboard-response","140","1796752","0.0-5.0-0.28","110","1","2025-04-11 14:54:18","bb671e3ae32f654b8954ea4c4635f915","","Mozilla/5.0 (Macintosh; Intel Mac OS X 10_15_7) AppleWebKit/537.36 (KHTML, like Gecko) Chrome/132.0.0.0 Safari/537.36","Macintosh","Chrome","132.0.0.0","OS X","10_15_7","https://hz8g1ckzuq.cognition.run/","en-US,en;q=0.9","4zqf9qb8cw6jc2b","30","[""White""]","No","Female","1847571.8999999762","null","","<p></p>","null","choice","ctd","attraction_1","1","washing machines","null","null","null","null","null","null","2","","","","","","","","","",""
"","","","","","choice_trial","survey-html-form","141","1798923","0.0-5.0-1.28","110","1","2025-04-11 14:54:18","bb671e3ae32f654b8954ea4c4635f915","","Mozilla/5.0 (Macintosh; Intel Mac OS X 10_15_7) AppleWebKit/537.36 (KHTML, like Gecko) Chrome/132.0.0.0 Safari/537.36","Macintosh","Chrome","132.0.0.0","OS X","10_15_7","https://hz8g1ckzuq.cognition.run/","en-US,en;q=0.9","4zqf9qb8cw6jc2b","30","[""White""]","No","Female","1847571.8999999762","2166","","","{""product_choice"":""A""}","choice","ctd","attraction_1","1","washing machines","null","null","null","null","null","null","2","60","50","60","50","60","45","Average lifespan","Energy savings","",""
"","","","","","choice_trial_setup","html-keyboard-response","142","1799229","0.0-5.0-0.29","110","1","2025-04-11 14:54:18","bb671e3ae32f654b8954ea4c4635f915","","Mozilla/5.0 (Macintosh; Intel Mac OS X 10_15_7) AppleWebKit/537.36 (KHTML, like Gecko) Chrome/132.0.0.0 Safari/537.36","Macintosh","Chrome","132.0.0.0","OS X","10_15_7","https://hz8g1ckzuq.cognition.run/","en-US,en;q=0.9","4zqf9qb8cw6jc2b","30","[""White""]","No","Female","1847571.8999999762","null","","<p></p>","null","choice","cdt","repulsion_2","1","televisions","null","null","null","null","null","null","2","","","","","","","","","",""
"","","","","","choice_trial","survey-html-form","143","1802577","0.0-5.0-1.29","110","1","2025-04-11 14:54:18","bb671e3ae32f654b8954ea4c4635f915","","Mozilla/5.0 (Macintosh; Intel Mac OS X 10_15_7) AppleWebKit/537.36 (KHTML, like Gecko) Chrome/132.0.0.0 Safari/537.36","Macintosh","Chrome","132.0.0.0","OS X","10_15_7","https://hz8g1ckzuq.cognition.run/","en-US,en;q=0.9","4zqf9qb8cw6jc2b","30","[""White""]","No","Female","1847571.8999999762","3340","","","{""product_choice"":""A""}","choice","cdt","repulsion_2","1","televisions","null","null","null","null","null","null","2","100","90","100","30","40","20","Screen size","Average lifespan","",""
"","","","","","choice_trial_setup","html-keyboard-response","144","1802881","0.0-5.0-0.30","110","1","2025-04-11 14:54:18","bb671e3ae32f654b8954ea4c4635f915","","Mozilla/5.0 (Macintosh; Intel Mac OS X 10_15_7) AppleWebKit/537.36 (KHTML, like Gecko) Chrome/132.0.0.0 Safari/537.36","Macintosh","Chrome","132.0.0.0","OS X","10_15_7","https://hz8g1ckzuq.cognition.run/","en-US,en;q=0.9","4zqf9qb8cw6jc2b","30","[""White""]","No","Female","1847571.8999999762","null","","<p></p>","null","choice","wbw","catch","null","televisions","80","95","15","45","50","40","1","","","","","","","","","",""
"","","","","","choice_trial","survey-html-form","145","1805158","0.0-5.0-1.30","110","1","2025-04-11 14:54:18","bb671e3ae32f654b8954ea4c4635f915","","Mozilla/5.0 (Macintosh; Intel Mac OS X 10_15_7) AppleWebKit/537.36 (KHTML, like Gecko) Chrome/132.0.0.0 Safari/537.36","Macintosh","Chrome","132.0.0.0","OS X","10_15_7","https://hz8g1ckzuq.cognition.run/","en-US,en;q=0.9","4zqf9qb8cw6jc2b","30","[""White""]","No","Female","1847571.8999999762","2272","","","{""product_choice"":""B""}","choice","wbw","catch","null","televisions","80","95","15","45","50","40","1","null","null","null","null","null","null","Screen size","Average lifespan","",""
"","","","","","choice_trial_setup","html-keyboard-response","146","1805464","0.0-5.0-0.31","110","1","2025-04-11 14:54:18","bb671e3ae32f654b8954ea4c4635f915","","Mozilla/5.0 (Macintosh; Intel Mac OS X 10_15_7) AppleWebKit/537.36 (KHTML, like Gecko) Chrome/132.0.0.0 Safari/537.36","Macintosh","Chrome","132.0.0.0","OS X","10_15_7","https://hz8g1ckzuq.cognition.run/","en-US,en;q=0.9","4zqf9qb8cw6jc2b","30","[""White""]","No","Female","1847571.8999999762","null","","<p></p>","null","choice","ctd","repulsion_1","2","microwave ovens","null","null","null","null","null","null","1","","","","","","","","","",""
"","","","","","choice_trial","survey-html-form","147","1809567","0.0-5.0-1.31","110","1","2025-04-11 14:54:18","bb671e3ae32f654b8954ea4c4635f915","","Mozilla/5.0 (Macintosh; Intel Mac OS X 10_15_7) AppleWebKit/537.36 (KHTML, like Gecko) Chrome/132.0.0.0 Safari/537.36","Macintosh","Chrome","132.0.0.0","OS X","10_15_7","https://hz8g1ckzuq.cognition.run/","en-US,en;q=0.9","4zqf9qb8cw6jc2b","30","[""White""]","No","Female","1847571.8999999762","4096","","","{""product_choice"":""A""}","choice","ctd","repulsion_1","2","microwave ovens","null","null","null","null","null","null","1","30","40","25","100","90","100","Warranty","Cooking power","",""
"","","","","","choice_trial_setup","html-keyboard-response","148","1809873","0.0-5.0-0.32","110","1","2025-04-11 14:54:18","bb671e3ae32f654b8954ea4c4635f915","","Mozilla/5.0 (Macintosh; Intel Mac OS X 10_15_7) AppleWebKit/537.36 (KHTML, like Gecko) Chrome/132.0.0.0 Safari/537.36","Macintosh","Chrome","132.0.0.0","OS X","10_15_7","https://hz8g1ckzuq.cognition.run/","en-US,en;q=0.9","4zqf9qb8cw6jc2b","30","[""White""]","No","Female","1847571.8999999762","null","","<p></p>","null","choice","dct","repulsion_1","1","washing machines","null","null","null","null","null","null","2","","","","","","","","","",""
"","","","","","choice_trial","survey-html-form","149","1813126","0.0-5.0-1.32","110","1","2025-04-11 14:54:18","bb671e3ae32f654b8954ea4c4635f915","","Mozilla/5.0 (Macintosh; Intel Mac OS X 10_15_7) AppleWebKit/537.36 (KHTML, like Gecko) Chrome/132.0.0.0 Safari/537.36","Macintosh","Chrome","132.0.0.0","OS X","10_15_7","https://hz8g1ckzuq.cognition.run/","en-US,en;q=0.9","4zqf9qb8cw6jc2b","30","[""White""]","No","Female","1847571.8999999762","3244","","","{""product_choice"":""B""}","choice","dct","repulsion_1","1","washing machines","null","null","null","null","null","null","2","100","90","100","30","40","25","Average lifespan","Energy savings","",""
"","","","","","choice_trial_setup","html-keyboard-response","150","1813432","0.0-5.0-0.33","110","1","2025-04-11 14:54:18","bb671e3ae32f654b8954ea4c4635f915","","Mozilla/5.0 (Macintosh; Intel Mac OS X 10_15_7) AppleWebKit/537.36 (KHTML, like Gecko) Chrome/132.0.0.0 Safari/537.36","Macintosh","Chrome","132.0.0.0","OS X","10_15_7","https://hz8g1ckzuq.cognition.run/","en-US,en;q=0.9","4zqf9qb8cw6jc2b","30","[""White""]","No","Female","1847571.8999999762","null","","<p></p>","null","choice","tcd","repulsion_1","2","laptops","null","null","null","null","null","null","2","","","","","","","","","",""
"","","","","","choice_trial","survey-html-form","151","1815494","0.0-5.0-1.33","110","1","2025-04-11 14:54:18","bb671e3ae32f654b8954ea4c4635f915","","Mozilla/5.0 (Macintosh; Intel Mac OS X 10_15_7) AppleWebKit/537.36 (KHTML, like Gecko) Chrome/132.0.0.0 Safari/537.36","Macintosh","Chrome","132.0.0.0","OS X","10_15_7","https://hz8g1ckzuq.cognition.run/","en-US,en;q=0.9","4zqf9qb8cw6jc2b","30","[""White""]","No","Female","1847571.8999999762","2057","","","{""product_choice"":""A""}","choice","tcd","repulsion_1","2","laptops","null","null","null","null","null","null","2","30","40","25","100","90","100","Processing speed","Memory (RAM)","",""
"","","","","","choice_trial_setup","html-keyboard-response","152","1815801","0.0-5.0-0.34","110","1","2025-04-11 14:54:18","bb671e3ae32f654b8954ea4c4635f915","","Mozilla/5.0 (Macintosh; Intel Mac OS X 10_15_7) AppleWebKit/537.36 (KHTML, like Gecko) Chrome/132.0.0.0 Safari/537.36","Macintosh","Chrome","132.0.0.0","OS X","10_15_7","https://hz8g1ckzuq.cognition.run/","en-US,en;q=0.9","4zqf9qb8cw6jc2b","30","[""White""]","No","Female","1847571.8999999762","null","","<p></p>","null","choice","tdc","attraction_1","2","televisions","null","null","null","null","null","null","2","","","","","","","","","",""
"","","","","","choice_trial","survey-html-form","153","1818152","0.0-5.0-1.34","110","1","2025-04-11 14:54:18","bb671e3ae32f654b8954ea4c4635f915","","Mozilla/5.0 (Macintosh; Intel Mac OS X 10_15_7) AppleWebKit/537.36 (KHTML, like Gecko) Chrome/132.0.0.0 Safari/537.36","Macintosh","Chrome","132.0.0.0","OS X","10_15_7","https://hz8g1ckzuq.cognition.run/","en-US,en;q=0.9","4zqf9qb8cw6jc2b","30","[""White""]","No","Female","1847571.8999999762","2345","","","{""product_choice"":""A""}","choice","tdc","attraction_1","2","televisions","null","null","null","null","null","null","2","50","60","45","60","50","60","Screen size","Average lifespan","",""
"","","","","","choice_trial_setup","html-keyboard-response","154","1818458","0.0-5.0-0.35","110","1","2025-04-11 14:54:18","bb671e3ae32f654b8954ea4c4635f915","","Mozilla/5.0 (Macintosh; Intel Mac OS X 10_15_7) AppleWebKit/537.36 (KHTML, like Gecko) Chrome/132.0.0.0 Safari/537.36","Macintosh","Chrome","132.0.0.0","OS X","10_15_7","https://hz8g1ckzuq.cognition.run/","en-US,en;q=0.9","4zqf9qb8cw6jc2b","30","[""White""]","No","Female","1847571.8999999762","null","","<p></p>","null","choice","dtc","attraction_2","2","laptops","null","null","null","null","null","null","2","","","","","","","","","",""
