"success","timeout","failed_images","failed_audio","failed_video","screen_id","trial_type","trial_index","time_elapsed","internal_node_id","run_id","condition","recorded_at","source_code_version","ip","user_agent","device","browser","browser_version","platform","platform_version","referer","accept_language","ppt_id","age","race","ethnicity","gender","exp_duration","rt","view_history","stimulus","response","phase","order","effect","t_high","category","d1_best","d2_best","d1_worst1","d2_worst1","d1_worst2","d2_worst2","first_dim","d1_t","d1_c","d1_d","d2_t","d2_c","d2_d","d1_name","d2_name","strategy_response","question_order"
"true","false","[]","[]","[]","img preload","preload","0","202","0.0-0.0","124","1","2025-04-11 15:51:45","bb671e3ae32f654b8954ea4c4635f915","","Mozilla/5.0 (Macintosh; Intel Mac OS X 10_15_7) AppleWebKit/537.36 (KHTML, like Gecko) Chrome/135.0.0.0 Safari/537.36","Macintosh","Chrome","135.0.0.0","OS X","10_15_7","https://hz8g1ckzuq.cognition.run/","en-US,en;q=0.9","prjxtwdkjj394sf","30","[""Asian""]","No","Male","1554146.400000006","","","","","","","","","","","","","","","","","","","","","","","","","",""
"true","","","","","","fullscreen","1","2358","0.0-1.0","124","1","2025-04-11 15:51:45","bb671e3ae32f654b8954ea4c4635f915","","Mozilla/5.0 (Macintosh; Intel Mac OS X 10_15_7) AppleWebKit/537.36 (KHTML, like Gecko) Chrome/135.0.0.0 Safari/537.36","Macintosh","Chrome","135.0.0.0","OS X","10_15_7","https://hz8g1ckzuq.cognition.run/","en-US,en;q=0.9","prjxtwdkjj394sf","30","[""Asian""]","No","Male","1554146.400000006","1154","","","","","","","","","","","","","","","","","","","","","","","","",""
"","","","","","","instructions","2","122705","0.0-2.0","124","1","2025-04-11 15:51:45","bb671e3ae32f654b8954ea4c4635f915","","Mozilla/5.0 (Macintosh; Intel Mac OS X 10_15_7) AppleWebKit/537.36 (KHTML, like Gecko) Chrome/135.0.0.0 Safari/537.36","Macintosh","Chrome","135.0.0.0","OS X","10_15_7","https://hz8g1ckzuq.cognition.run/","en-US,en;q=0.9","prjxtwdkjj394sf","30","[""Asian""]","No","Male","1554146.400000006","120345","[{""page_index"":0,""viewing_time"":970},{""page_index"":1,""viewing_time"":2831},{""page_index"":2,""viewing_time"":4292},{""page_index"":3,""viewing_time"":3173},{""page_index"":4,""viewing_time"":7022},{""page_index"":5,""viewing_time"":5402},{""page_index"":6,""viewing_time"":4053},{""page_index"":7,""viewing_time"":5948},{""page_index"":8,""viewing_time"":84818},{""page_index"":9,""viewing_time"":1836}]","","","","","","","","","","","","","","","","","","","","","","","",""
"","","","","","rating_trial_setup","html-keyboard-response","3","123010","0.0-3.0-0.0","124","1","2025-04-11 15:51:45","bb671e3ae32f654b8954ea4c4635f915","","Mozilla/5.0 (Macintosh; Intel Mac OS X 10_15_7) AppleWebKit/537.36 (KHTML, like Gecko) Chrome/135.0.0.0 Safari/537.36","Macintosh","Chrome","135.0.0.0","OS X","10_15_7","https://hz8g1ckzuq.cognition.run/","en-US,en;q=0.9","prjxtwdkjj394sf","30","[""Asian""]","No","Male","1554146.400000006","null","","<p></p>","null","rating","dct","attraction_1","1","televisions","null","null","null","null","null","null","1","","","","","","","","","",""
"","","","","","rating_trial","survey-html-form","4","152740","0.0-3.0-1.0","124","1","2025-04-11 15:51:45","bb671e3ae32f654b8954ea4c4635f915","","Mozilla/5.0 (Macintosh; Intel Mac OS X 10_15_7) AppleWebKit/537.36 (KHTML, like Gecko) Chrome/135.0.0.0 Safari/537.36","Macintosh","Chrome","135.0.0.0","OS X","10_15_7","https://hz8g1ckzuq.cognition.run/","en-US,en;q=0.9","prjxtwdkjj394sf","30","[""Asian""]","No","Male","1554146.400000006","29724","","","{""price_1"":""199"",""price_2"":""159"",""price_3"":""199""}","rating","dct","attraction_1","1","televisions","null","null","null","null","null","null","1","60","50","60","50","60","45","Screen size","Average lifespan","",""
"","","","","","rating_trial_setup","html-keyboard-response","5","153042","0.0-3.0-0.1","124","1","2025-04-11 15:51:45","bb671e3ae32f654b8954ea4c4635f915","","Mozilla/5.0 (Macintosh; Intel Mac OS X 10_15_7) AppleWebKit/537.36 (KHTML, like Gecko) Chrome/135.0.0.0 Safari/537.36","Macintosh","Chrome","135.0.0.0","OS X","10_15_7","https://hz8g1ckzuq.cognition.run/","en-US,en;q=0.9","prjxtwdkjj394sf","30","[""Asian""]","No","Male","1554146.400000006","null","","<p></p>","null","rating","dtc","repulsion_2","1","laptops","null","null","null","null","null","null","1","","","","","","","","","",""
"","","","","","rating_trial","survey-html-form","6","177416","0.0-3.0-1.1","124","1","2025-04-11 15:51:45","bb671e3ae32f654b8954ea4c4635f915","","Mozilla/5.0 (Macintosh; Intel Mac OS X 10_15_7) AppleWebKit/537.36 (KHTML, like Gecko) Chrome/135.0.0.0 Safari/537.36","Macintosh","Chrome","135.0.0.0","OS X","10_15_7","https://hz8g1ckzuq.cognition.run/","en-US,en;q=0.9","prjxtwdkjj394sf","30","[""Asian""]","No","Male","1554146.400000006","24373","","","{""price_1"":""499"",""price_2"":""599"",""price_3"":""649""}","rating","dtc","repulsion_2","1","laptops","null","null","null","null","null","null","1","100","90","100","30","40","20","Processing speed","Memory (RAM)","",""
"","","","","","rating_trial_setup","html-keyboard-response","7","177718","0.0-3.0-0.2","124","1","2025-04-11 15:51:45","bb671e3ae32f654b8954ea4c4635f915","","Mozilla/5.0 (Macintosh; Intel Mac OS X 10_15_7) AppleWebKit/537.36 (KHTML, like Gecko) Chrome/135.0.0.0 Safari/537.36","Macintosh","Chrome","135.0.0.0","OS X","10_15_7","https://hz8g1ckzuq.cognition.run/","en-US,en;q=0.9","prjxtwdkjj394sf","30","[""Asian""]","No","Male","1554146.400000006","null","","<p></p>","null","rating","tdc","attraction_1","1","washing machines","null","null","null","null","null","null","2","","","","","","","","","",""
"","","","","","rating_trial","survey-html-form","8","191810","0.0-3.0-1.2","124","1","2025-04-11 15:51:45","bb671e3ae32f654b8954ea4c4635f915","","Mozilla/5.0 (Macintosh; Intel Mac OS X 10_15_7) AppleWebKit/537.36 (KHTML, like Gecko) Chrome/135.0.0.0 Safari/537.36","Macintosh","Chrome","135.0.0.0","OS X","10_15_7","https://hz8g1ckzuq.cognition.run/","en-US,en;q=0.9","prjxtwdkjj394sf","30","[""Asian""]","No","Male","1554146.400000006","14091","","","{""price_1"":""499"",""price_2"":""499"",""price_3"":""499""}","rating","tdc","attraction_1","1","washing machines","null","null","null","null","null","null","2","60","50","60","50","60","45","Average lifespan","Energy savings","",""
"","","","","","rating_trial_setup","html-keyboard-response","9","192112","0.0-3.0-0.3","124","1","2025-04-11 15:51:45","bb671e3ae32f654b8954ea4c4635f915","","Mozilla/5.0 (Macintosh; Intel Mac OS X 10_15_7) AppleWebKit/537.36 (KHTML, like Gecko) Chrome/135.0.0.0 Safari/537.36","Macintosh","Chrome","135.0.0.0","OS X","10_15_7","https://hz8g1ckzuq.cognition.run/","en-US,en;q=0.9","prjxtwdkjj394sf","30","[""Asian""]","No","Male","1554146.400000006","null","","<p></p>","null","rating","ctd","repulsion_2","2","televisions","null","null","null","null","null","null","1","","","","","","","","","",""
"","","","","","rating_trial","survey-html-form","10","292404","0.0-3.0-1.3","124","1","2025-04-11 15:51:45","bb671e3ae32f654b8954ea4c4635f915","","Mozilla/5.0 (Macintosh; Intel Mac OS X 10_15_7) AppleWebKit/537.36 (KHTML, like Gecko) Chrome/135.0.0.0 Safari/537.36","Macintosh","Chrome","135.0.0.0","OS X","10_15_7","https://hz8g1ckzuq.cognition.run/","en-US,en;q=0.9","prjxtwdkjj394sf","30","[""Asian""]","No","Male","1554146.400000006","100292","","","{""price_1"":""149"",""price_2"":""129"",""price_3"":""109""}","rating","ctd","repulsion_2","2","televisions","null","null","null","null","null","null","1","30","40","20","100","90","100","Screen size","Average lifespan","",""
"","","","","","rating_trial_setup","html-keyboard-response","11","292706","0.0-3.0-0.4","124","1","2025-04-11 15:51:45","bb671e3ae32f654b8954ea4c4635f915","","Mozilla/5.0 (Macintosh; Intel Mac OS X 10_15_7) AppleWebKit/537.36 (KHTML, like Gecko) Chrome/135.0.0.0 Safari/537.36","Macintosh","Chrome","135.0.0.0","OS X","10_15_7","https://hz8g1ckzuq.cognition.run/","en-US,en;q=0.9","prjxtwdkjj394sf","30","[""Asian""]","No","Male","1554146.400000006","null","","<p></p>","null","rating","dct","attraction_2","1","microwave ovens","null","null","null","null","null","null","1","","","","","","","","","",""
"","","","","","rating_trial","survey-html-form","12","302071","0.0-3.0-1.4","124","1","2025-04-11 15:51:45","bb671e3ae32f654b8954ea4c4635f915","","Mozilla/5.0 (Macintosh; Intel Mac OS X 10_15_7) AppleWebKit/537.36 (KHTML, like Gecko) Chrome/135.0.0.0 Safari/537.36","Macintosh","Chrome","135.0.0.0","OS X","10_15_7","https://hz8g1ckzuq.cognition.run/","en-US,en;q=0.9","prjxtwdkjj394sf","30","[""Asian""]","No","Male","1554146.400000006","9365","","","{""price_1"":""59"",""price_2"":""69"",""price_3"":""79""}","rating","dct","attraction_2","1","microwave ovens","null","null","null","null","null","null","1","60","50","60","50","60","40","Warranty","Cooking power","",""
"","","","","","rating_trial_setup","html-keyboard-response","13","302373","0.0-3.0-0.5","124","1","2025-04-11 15:51:45","bb671e3ae32f654b8954ea4c4635f915","","Mozilla/5.0 (Macintosh; Intel Mac OS X 10_15_7) AppleWebKit/537.36 (KHTML, like Gecko) Chrome/135.0.0.0 Safari/537.36","Macintosh","Chrome","135.0.0.0","OS X","10_15_7","https://hz8g1ckzuq.cognition.run/","en-US,en;q=0.9","prjxtwdkjj394sf","30","[""Asian""]","No","Male","1554146.400000006","null","","<p></p>","null","rating","wbw","catch","null","televisions","65","80","40","50","40","15","2","","","","","","","","","",""
"","","","","","rating_trial","survey-html-form","14","323232","0.0-3.0-1.5","124","1","2025-04-11 15:51:45","bb671e3ae32f654b8954ea4c4635f915","","Mozilla/5.0 (Macintosh; Intel Mac OS X 10_15_7) AppleWebKit/537.36 (KHTML, like Gecko) Chrome/135.0.0.0 Safari/537.36","Macintosh","Chrome","135.0.0.0","OS X","10_15_7","https://hz8g1ckzuq.cognition.run/","en-US,en;q=0.9","prjxtwdkjj394sf","30","[""Asian""]","No","Male","1554146.400000006","20858","","","{""price_1"":""149"",""price_2"":""189"",""price_3"":""139""}","rating","wbw","catch","null","televisions","65","80","40","50","40","15","2","null","null","null","null","null","null","Screen size","Average lifespan","",""
"","","","","","rating_trial_setup","html-keyboard-response","15","323533","0.0-3.0-0.6","124","1","2025-04-11 15:51:45","bb671e3ae32f654b8954ea4c4635f915","","Mozilla/5.0 (Macintosh; Intel Mac OS X 10_15_7) AppleWebKit/537.36 (KHTML, like Gecko) Chrome/135.0.0.0 Safari/537.36","Macintosh","Chrome","135.0.0.0","OS X","10_15_7","https://hz8g1ckzuq.cognition.run/","en-US,en;q=0.9","prjxtwdkjj394sf","30","[""Asian""]","No","Male","1554146.400000006","null","","<p></p>","null","rating","tcd","repulsion_2","1","washing machines","null","null","null","null","null","null","1","","","","","","","","","",""
"","","","","","rating_trial","survey-html-form","16","336374","0.0-3.0-1.6","124","1","2025-04-11 15:51:45","bb671e3ae32f654b8954ea4c4635f915","","Mozilla/5.0 (Macintosh; Intel Mac OS X 10_15_7) AppleWebKit/537.36 (KHTML, like Gecko) Chrome/135.0.0.0 Safari/537.36","Macintosh","Chrome","135.0.0.0","OS X","10_15_7","https://hz8g1ckzuq.cognition.run/","en-US,en;q=0.9","prjxtwdkjj394sf","30","[""Asian""]","No","Male","1554146.400000006","12840","","","{""price_1"":""499"",""price_2"":""549"",""price_3"":""449""}","rating","tcd","repulsion_2","1","washing machines","null","null","null","null","null","null","1","100","90","100","30","40","20","Average lifespan","Energy savings","",""
"","","","","","rating_trial_setup","html-keyboard-response","17","336676","0.0-3.0-0.7","124","1","2025-04-11 15:51:45","bb671e3ae32f654b8954ea4c4635f915","","Mozilla/5.0 (Macintosh; Intel Mac OS X 10_15_7) AppleWebKit/537.36 (KHTML, like Gecko) Chrome/135.0.0.0 Safari/537.36","Macintosh","Chrome","135.0.0.0","OS X","10_15_7","https://hz8g1ckzuq.cognition.run/","en-US,en;q=0.9","prjxtwdkjj394sf","30","[""Asian""]","No","Male","1554146.400000006","null","","<p></p>","null","rating","bww","catch","null","laptops","50","65","10","5","5","45","1","","","","","","","","","",""
"","","","","","rating_trial","survey-html-form","18","355922","0.0-3.0-1.7","124","1","2025-04-11 15:51:45","bb671e3ae32f654b8954ea4c4635f915","","Mozilla/5.0 (Macintosh; Intel Mac OS X 10_15_7) AppleWebKit/537.36 (KHTML, like Gecko) Chrome/135.0.0.0 Safari/537.36","Macintosh","Chrome","135.0.0.0","OS X","10_15_7","https://hz8g1ckzuq.cognition.run/","en-US,en;q=0.9","prjxtwdkjj394sf","30","[""Asian""]","No","Male","1554146.400000006","19245","","","{""price_1"":""499"",""price_2"":""199"",""price_3"":""299""}","rating","bww","catch","null","laptops","50","65","10","5","5","45","1","null","null","null","null","null","null","Processing speed","Memory (RAM)","",""
"","","","","","rating_trial_setup","html-keyboard-response","19","356225","0.0-3.0-0.8","124","1","2025-04-11 15:51:45","bb671e3ae32f654b8954ea4c4635f915","","Mozilla/5.0 (Macintosh; Intel Mac OS X 10_15_7) AppleWebKit/537.36 (KHTML, like Gecko) Chrome/135.0.0.0 Safari/537.36","Macintosh","Chrome","135.0.0.0","OS X","10_15_7","https://hz8g1ckzuq.cognition.run/","en-US,en;q=0.9","prjxtwdkjj394sf","30","[""Asian""]","No","Male","1554146.400000006","null","","<p></p>","null","rating","tcd","attraction_1","1","microwave ovens","null","null","null","null","null","null","1","","","","","","","","","",""
"","","","","","rating_trial","survey-html-form","20","389984","0.0-3.0-1.8","124","1","2025-04-11 15:51:45","bb671e3ae32f654b8954ea4c4635f915","","Mozilla/5.0 (Macintosh; Intel Mac OS X 10_15_7) AppleWebKit/537.36 (KHTML, like Gecko) Chrome/135.0.0.0 Safari/537.36","Macintosh","Chrome","135.0.0.0","OS X","10_15_7","https://hz8g1ckzuq.cognition.run/","en-US,en;q=0.9","prjxtwdkjj394sf","30","[""Asian""]","No","Male","1554146.400000006","33758","","","{""price_1"":""79"",""price_2"":""79"",""price_3"":""79""}","rating","tcd","attraction_1","1","microwave ovens","null","null","null","null","null","null","1","60","50","60","50","60","45","Warranty","Cooking power","",""
"","","","","","rating_trial_setup","html-keyboard-response","21","390286","0.0-3.0-0.9","124","1","2025-04-11 15:51:45","bb671e3ae32f654b8954ea4c4635f915","","Mozilla/5.0 (Macintosh; Intel Mac OS X 10_15_7) AppleWebKit/537.36 (KHTML, like Gecko) Chrome/135.0.0.0 Safari/537.36","Macintosh","Chrome","135.0.0.0","OS X","10_15_7","https://hz8g1ckzuq.cognition.run/","en-US,en;q=0.9","prjxtwdkjj394sf","30","[""Asian""]","No","Male","1554146.400000006","null","","<p></p>","null","rating","ctd","attraction_1","1","laptops","null","null","null","null","null","null","2","","","","","","","","","",""
"","","","","","rating_trial","survey-html-form","22","404784","0.0-3.0-1.9","124","1","2025-04-11 15:51:45","bb671e3ae32f654b8954ea4c4635f915","","Mozilla/5.0 (Macintosh; Intel Mac OS X 10_15_7) AppleWebKit/537.36 (KHTML, like Gecko) Chrome/135.0.0.0 Safari/537.36","Macintosh","Chrome","135.0.0.0","OS X","10_15_7","https://hz8g1ckzuq.cognition.run/","en-US,en;q=0.9","prjxtwdkjj394sf","30","[""Asian""]","No","Male","1554146.400000006","14497","","","{""price_1"":""399"",""price_2"":""399"",""price_3"":""379""}","rating","ctd","attraction_1","1","laptops","null","null","null","null","null","null","2","60","50","60","50","60","45","Processing speed","Memory (RAM)","",""
"","","","","","rating_trial_setup","html-keyboard-response","23","405087","0.0-3.0-0.10","124","1","2025-04-11 15:51:45","bb671e3ae32f654b8954ea4c4635f915","","Mozilla/5.0 (Macintosh; Intel Mac OS X 10_15_7) AppleWebKit/537.36 (KHTML, like Gecko) Chrome/135.0.0.0 Safari/537.36","Macintosh","Chrome","135.0.0.0","OS X","10_15_7","https://hz8g1ckzuq.cognition.run/","en-US,en;q=0.9","prjxtwdkjj394sf","30","[""Asian""]","No","Male","1554146.400000006","null","","<p></p>","null","rating","tcd","attraction_2","2","televisions","null","null","null","null","null","null","1","","","","","","","","","",""
"","","","","","rating_trial","survey-html-form","24","423207","0.0-3.0-1.10","124","1","2025-04-11 15:51:45","bb671e3ae32f654b8954ea4c4635f915","","Mozilla/5.0 (Macintosh; Intel Mac OS X 10_15_7) AppleWebKit/537.36 (KHTML, like Gecko) Chrome/135.0.0.0 Safari/537.36","Macintosh","Chrome","135.0.0.0","OS X","10_15_7","https://hz8g1ckzuq.cognition.run/","en-US,en;q=0.9","prjxtwdkjj394sf","30","[""Asian""]","No","Male","1554146.400000006","18119","","","{""price_1"":""199"",""price_2"":""229"",""price_3"":""169""}","rating","tcd","attraction_2","2","televisions","null","null","null","null","null","null","1","50","60","40","60","50","60","Screen size","Average lifespan","",""
"","","","","","rating_trial_setup","html-keyboard-response","25","423509","0.0-3.0-0.11","124","1","2025-04-11 15:51:45","bb671e3ae32f654b8954ea4c4635f915","","Mozilla/5.0 (Macintosh; Intel Mac OS X 10_15_7) AppleWebKit/537.36 (KHTML, like Gecko) Chrome/135.0.0.0 Safari/537.36","Macintosh","Chrome","135.0.0.0","OS X","10_15_7","https://hz8g1ckzuq.cognition.run/","en-US,en;q=0.9","prjxtwdkjj394sf","30","[""Asian""]","No","Male","1554146.400000006","null","","<p></p>","null","rating","ctd","repulsion_1","1","washing machines","null","null","null","null","null","null","2","","","","","","","","","",""
"","","","","","rating_trial","survey-html-form","26","509441","0.0-3.0-1.11","124","1","2025-04-11 15:51:45","bb671e3ae32f654b8954ea4c4635f915","","Mozilla/5.0 (Macintosh; Intel Mac OS X 10_15_7) AppleWebKit/537.36 (KHTML, like Gecko) Chrome/135.0.0.0 Safari/537.36","Macintosh","Chrome","135.0.0.0","OS X","10_15_7","https://hz8g1ckzuq.cognition.run/","en-US,en;q=0.9","prjxtwdkjj394sf","30","[""Asian""]","No","Male","1554146.400000006","85899","","","{""price_1"":""499"",""price_2"":""449"",""price_3"":""399""}","rating","ctd","repulsion_1","1","washing machines","null","null","null","null","null","null","2","100","90","100","30","40","25","Average lifespan","Energy savings","",""
"","","","","","rating_trial_setup","html-keyboard-response","27","509743","0.0-3.0-0.12","124","1","2025-04-11 15:51:45","bb671e3ae32f654b8954ea4c4635f915","","Mozilla/5.0 (Macintosh; Intel Mac OS X 10_15_7) AppleWebKit/537.36 (KHTML, like Gecko) Chrome/135.0.0.0 Safari/537.36","Macintosh","Chrome","135.0.0.0","OS X","10_15_7","https://hz8g1ckzuq.cognition.run/","en-US,en;q=0.9","prjxtwdkjj394sf","30","[""Asian""]","No","Male","1554146.400000006","null","","<p></p>","null","rating","bww","catch","null","microwave ovens","95","60","25","25","45","30","1","","","","","","","","","",""
"","","","","","rating_trial","survey-html-form","28","520257","0.0-3.0-1.12","124","1","2025-04-11 15:51:45","bb671e3ae32f654b8954ea4c4635f915","","Mozilla/5.0 (Macintosh; Intel Mac OS X 10_15_7) AppleWebKit/537.36 (KHTML, like Gecko) Chrome/135.0.0.0 Safari/537.36","Macintosh","Chrome","135.0.0.0","OS X","10_15_7","https://hz8g1ckzuq.cognition.run/","en-US,en;q=0.9","prjxtwdkjj394sf","30","[""Asian""]","No","Male","1554146.400000006","10513","","","{""price_1"":""99"",""price_2"":""69"",""price_3"":""75""}","rating","bww","catch","null","microwave ovens","95","60","25","25","45","30","1","null","null","null","null","null","null","Warranty","Cooking power","",""
"","","","","","rating_trial_setup","html-keyboard-response","29","520559","0.0-3.0-0.13","124","1","2025-04-11 15:51:45","bb671e3ae32f654b8954ea4c4635f915","","Mozilla/5.0 (Macintosh; Intel Mac OS X 10_15_7) AppleWebKit/537.36 (KHTML, like Gecko) Chrome/135.0.0.0 Safari/537.36","Macintosh","Chrome","135.0.0.0","OS X","10_15_7","https://hz8g1ckzuq.cognition.run/","en-US,en;q=0.9","prjxtwdkjj394sf","30","[""Asian""]","No","Male","1554146.400000006","null","","<p></p>","null","rating","tcd","repulsion_2","1","microwave ovens","null","null","null","null","null","null","2","","","","","","","","","",""
"","","","","","rating_trial","survey-html-form","30","605629","0.0-3.0-1.13","124","1","2025-04-11 15:51:45","bb671e3ae32f654b8954ea4c4635f915","","Mozilla/5.0 (Macintosh; Intel Mac OS X 10_15_7) AppleWebKit/537.36 (KHTML, like Gecko) Chrome/135.0.0.0 Safari/537.36","Macintosh","Chrome","135.0.0.0","OS X","10_15_7","https://hz8g1ckzuq.cognition.run/","en-US,en;q=0.9","prjxtwdkjj394sf","30","[""Asian""]","No","Male","1554146.400000006","85067","","","{""price_1"":""69"",""price_2"":""89"",""price_3"":""59""}","rating","tcd","repulsion_2","1","microwave ovens","null","null","null","null","null","null","2","100","90","100","30","40","20","Warranty","Cooking power","",""
"","","","","","rating_trial_setup","html-keyboard-response","31","605931","0.0-3.0-0.14","124","1","2025-04-11 15:51:45","bb671e3ae32f654b8954ea4c4635f915","","Mozilla/5.0 (Macintosh; Intel Mac OS X 10_15_7) AppleWebKit/537.36 (KHTML, like Gecko) Chrome/135.0.0.0 Safari/537.36","Macintosh","Chrome","135.0.0.0","OS X","10_15_7","https://hz8g1ckzuq.cognition.run/","en-US,en;q=0.9","prjxtwdkjj394sf","30","[""Asian""]","No","Male","1554146.400000006","null","","<p></p>","null","rating","cdt","attraction_2","1","laptops","null","null","null","null","null","null","2","","","","","","","","","",""
"","","","","","rating_trial","survey-html-form","32","634031","0.0-3.0-1.14","124","1","2025-04-11 15:51:45","bb671e3ae32f654b8954ea4c4635f915","","Mozilla/5.0 (Macintosh; Intel Mac OS X 10_15_7) AppleWebKit/537.36 (KHTML, like Gecko) Chrome/135.0.0.0 Safari/537.36","Macintosh","Chrome","135.0.0.0","OS X","10_15_7","https://hz8g1ckzuq.cognition.run/","en-US,en;q=0.9","prjxtwdkjj394sf","30","[""Asian""]","No","Male","1554146.400000006","28098","","","{""price_1"":""399"",""price_2"":""399"",""price_3"":""399""}","rating","cdt","attraction_2","1","laptops","null","null","null","null","null","null","2","60","50","60","50","60","40","Processing speed","Memory (RAM)","",""
"","","","","","rating_trial_setup","html-keyboard-response","33","634333","0.0-3.0-0.15","124","1","2025-04-11 15:51:45","bb671e3ae32f654b8954ea4c4635f915","","Mozilla/5.0 (Macintosh; Intel Mac OS X 10_15_7) AppleWebKit/537.36 (KHTML, like Gecko) Chrome/135.0.0.0 Safari/537.36","Macintosh","Chrome","135.0.0.0","OS X","10_15_7","https://hz8g1ckzuq.cognition.run/","en-US,en;q=0.9","prjxtwdkjj394sf","30","[""Asian""]","No","Male","1554146.400000006","null","","<p></p>","null","rating","ctd","repulsion_2","1","televisions","null","null","null","null","null","null","2","","","","","","","","","",""
"","","","","","rating_trial","survey-html-form","34","651778","0.0-3.0-1.15","124","1","2025-04-11 15:51:45","bb671e3ae32f654b8954ea4c4635f915","","Mozilla/5.0 (Macintosh; Intel Mac OS X 10_15_7) AppleWebKit/537.36 (KHTML, like Gecko) Chrome/135.0.0.0 Safari/537.36","Macintosh","Chrome","135.0.0.0","OS X","10_15_7","https://hz8g1ckzuq.cognition.run/","en-US,en;q=0.9","prjxtwdkjj394sf","30","[""Asian""]","No","Male","1554146.400000006","17444","","","{""price_1"":""449"",""price_2"":""499"",""price_3"":""449""}","rating","ctd","repulsion_2","1","televisions","null","null","null","null","null","null","2","100","90","100","30","40","20","Screen size","Average lifespan","",""
"","","","","","rating_trial_setup","html-keyboard-response","35","652081","0.0-3.0-0.16","124","1","2025-04-11 15:51:45","bb671e3ae32f654b8954ea4c4635f915","","Mozilla/5.0 (Macintosh; Intel Mac OS X 10_15_7) AppleWebKit/537.36 (KHTML, like Gecko) Chrome/135.0.0.0 Safari/537.36","Macintosh","Chrome","135.0.0.0","OS X","10_15_7","https://hz8g1ckzuq.cognition.run/","en-US,en;q=0.9","prjxtwdkjj394sf","30","[""Asian""]","No","Male","1554146.400000006","null","","<p></p>","null","rating","dtc","attraction_1","2","laptops","null","null","null","null","null","null","1","","","","","","","","","",""
"","","","","","rating_trial","survey-html-form","36","704791","0.0-3.0-1.16","124","1","2025-04-11 15:51:45","bb671e3ae32f654b8954ea4c4635f915","","Mozilla/5.0 (Macintosh; Intel Mac OS X 10_15_7) AppleWebKit/537.36 (KHTML, like Gecko) Chrome/135.0.0.0 Safari/537.36","Macintosh","Chrome","135.0.0.0","OS X","10_15_7","https://hz8g1ckzuq.cognition.run/","en-US,en;q=0.9","prjxtwdkjj394sf","30","[""Asian""]","No","Male","1554146.400000006","52708","","","{""price_1"":""399"",""price_2"":""399"",""price_3"":""399""}","rating","dtc","attraction_1","2","laptops","null","null","null","null","null","null","1","50","60","45","60","50","60","Processing speed","Memory (RAM)","",""
"","","","","","rating_trial_setup","html-keyboard-response","37","705094","0.0-3.0-0.17","124","1","2025-04-11 15:51:45","bb671e3ae32f654b8954ea4c4635f915","","Mozilla/5.0 (Macintosh; Intel Mac OS X 10_15_7) AppleWebKit/537.36 (KHTML, like Gecko) Chrome/135.0.0.0 Safari/537.36","Macintosh","Chrome","135.0.0.0","OS X","10_15_7","https://hz8g1ckzuq.cognition.run/","en-US,en;q=0.9","prjxtwdkjj394sf","30","[""Asian""]","No","Male","1554146.400000006","null","","<p></p>","null","rating","dct","attraction_1","2","microwave ovens","null","null","null","null","null","null","2","","","","","","","","","",""
"","","","","","rating_trial","survey-html-form","38","731736","0.0-3.0-1.17","124","1","2025-04-11 15:51:45","bb671e3ae32f654b8954ea4c4635f915","","Mozilla/5.0 (Macintosh; Intel Mac OS X 10_15_7) AppleWebKit/537.36 (KHTML, like Gecko) Chrome/135.0.0.0 Safari/537.36","Macintosh","Chrome","135.0.0.0","OS X","10_15_7","https://hz8g1ckzuq.cognition.run/","en-US,en;q=0.9","prjxtwdkjj394sf","30","[""Asian""]","No","Male","1554146.400000006","26641","","","{""price_1"":""99"",""price_2"":""79"",""price_3"":""99""}","rating","dct","attraction_1","2","microwave ovens","null","null","null","null","null","null","2","50","60","45","60","50","60","Warranty","Cooking power","",""
"","","","","","rating_trial_setup","html-keyboard-response","39","732038","0.0-3.0-0.18","124","1","2025-04-11 15:51:45","bb671e3ae32f654b8954ea4c4635f915","","Mozilla/5.0 (Macintosh; Intel Mac OS X 10_15_7) AppleWebKit/537.36 (KHTML, like Gecko) Chrome/135.0.0.0 Safari/537.36","Macintosh","Chrome","135.0.0.0","OS X","10_15_7","https://hz8g1ckzuq.cognition.run/","en-US,en;q=0.9","prjxtwdkjj394sf","30","[""Asian""]","No","Male","1554146.400000006","null","","<p></p>","null","rating","tcd","attraction_2","1","washing machines","null","null","null","null","null","null","1","","","","","","","","","",""
"","","","","","rating_trial","survey-html-form","40","751265","0.0-3.0-1.18","124","1","2025-04-11 15:51:45","bb671e3ae32f654b8954ea4c4635f915","","Mozilla/5.0 (Macintosh; Intel Mac OS X 10_15_7) AppleWebKit/537.36 (KHTML, like Gecko) Chrome/135.0.0.0 Safari/537.36","Macintosh","Chrome","135.0.0.0","OS X","10_15_7","https://hz8g1ckzuq.cognition.run/","en-US,en;q=0.9","prjxtwdkjj394sf","30","[""Asian""]","No","Male","1554146.400000006","19225","","","{""price_1"":""499"",""price_2"":""499"",""price_3"":""499""}","rating","tcd","attraction_2","1","washing machines","null","null","null","null","null","null","1","60","50","60","50","60","40","Average lifespan","Energy savings","",""
"","","","","","rating_trial_setup","html-keyboard-response","41","751567","0.0-3.0-0.19","124","1","2025-04-11 15:51:45","bb671e3ae32f654b8954ea4c4635f915","","Mozilla/5.0 (Macintosh; Intel Mac OS X 10_15_7) AppleWebKit/537.36 (KHTML, like Gecko) Chrome/135.0.0.0 Safari/537.36","Macintosh","Chrome","135.0.0.0","OS X","10_15_7","https://hz8g1ckzuq.cognition.run/","en-US,en;q=0.9","prjxtwdkjj394sf","30","[""Asian""]","No","Male","1554146.400000006","null","","<p></p>","null","rating","ctd","repulsion_1","1","microwave ovens","null","null","null","null","null","null","1","","","","","","","","","",""
"","","","","","rating_trial","survey-html-form","42","759560","0.0-3.0-1.19","124","1","2025-04-11 15:51:45","bb671e3ae32f654b8954ea4c4635f915","","Mozilla/5.0 (Macintosh; Intel Mac OS X 10_15_7) AppleWebKit/537.36 (KHTML, like Gecko) Chrome/135.0.0.0 Safari/537.36","Macintosh","Chrome","135.0.0.0","OS X","10_15_7","https://hz8g1ckzuq.cognition.run/","en-US,en;q=0.9","prjxtwdkjj394sf","30","[""Asian""]","No","Male","1554146.400000006","7991","","","{""price_1"":""89"",""price_2"":""79"",""price_3"":""69""}","rating","ctd","repulsion_1","1","microwave ovens","null","null","null","null","null","null","1","100","90","100","30","40","25","Warranty","Cooking power","",""
"","","","","","rating_trial_setup","html-keyboard-response","43","759862","0.0-3.0-0.20","124","1","2025-04-11 15:51:45","bb671e3ae32f654b8954ea4c4635f915","","Mozilla/5.0 (Macintosh; Intel Mac OS X 10_15_7) AppleWebKit/537.36 (KHTML, like Gecko) Chrome/135.0.0.0 Safari/537.36","Macintosh","Chrome","135.0.0.0","OS X","10_15_7","https://hz8g1ckzuq.cognition.run/","en-US,en;q=0.9","prjxtwdkjj394sf","30","[""Asian""]","No","Male","1554146.400000006","null","","<p></p>","null","rating","dct","attraction_1","2","washing machines","null","null","null","null","null","null","2","","","","","","","","","",""
"","","","","","rating_trial","survey-html-form","44","764900","0.0-3.0-1.20","124","1","2025-04-11 15:51:45","bb671e3ae32f654b8954ea4c4635f915","","Mozilla/5.0 (Macintosh; Intel Mac OS X 10_15_7) AppleWebKit/537.36 (KHTML, like Gecko) Chrome/135.0.0.0 Safari/537.36","Macintosh","Chrome","135.0.0.0","OS X","10_15_7","https://hz8g1ckzuq.cognition.run/","en-US,en;q=0.9","prjxtwdkjj394sf","30","[""Asian""]","No","Male","1554146.400000006","5036","","","{""price_1"":""499"",""price_2"":""499"",""price_3"":""499""}","rating","dct","attraction_1","2","washing machines","null","null","null","null","null","null","2","50","60","45","60","50","60","Average lifespan","Energy savings","",""
"","","","","","rating_trial_setup","html-keyboard-response","45","765201","0.0-3.0-0.21","124","1","2025-04-11 15:51:45","bb671e3ae32f654b8954ea4c4635f915","","Mozilla/5.0 (Macintosh; Intel Mac OS X 10_15_7) AppleWebKit/537.36 (KHTML, like Gecko) Chrome/135.0.0.0 Safari/537.36","Macintosh","Chrome","135.0.0.0","OS X","10_15_7","https://hz8g1ckzuq.cognition.run/","en-US,en;q=0.9","prjxtwdkjj394sf","30","[""Asian""]","No","Male","1554146.400000006","null","","<p></p>","null","rating","dct","repulsion_1","1","laptops","null","null","null","null","null","null","1","","","","","","","","","",""
"","","","","","rating_trial","survey-html-form","46","778808","0.0-3.0-1.21","124","1","2025-04-11 15:51:45","bb671e3ae32f654b8954ea4c4635f915","","Mozilla/5.0 (Macintosh; Intel Mac OS X 10_15_7) AppleWebKit/537.36 (KHTML, like Gecko) Chrome/135.0.0.0 Safari/537.36","Macintosh","Chrome","135.0.0.0","OS X","10_15_7","https://hz8g1ckzuq.cognition.run/","en-US,en;q=0.9","prjxtwdkjj394sf","30","[""Asian""]","No","Male","1554146.400000006","13604","","","{""price_1"":""349"",""price_2"":""399"",""price_3"":""349""}","rating","dct","repulsion_1","1","laptops","null","null","null","null","null","null","1","100","90","100","30","40","25","Processing speed","Memory (RAM)","",""
"","","","","","rating_trial_setup","html-keyboard-response","47","779110","0.0-3.0-0.22","124","1","2025-04-11 15:51:45","bb671e3ae32f654b8954ea4c4635f915","","Mozilla/5.0 (Macintosh; Intel Mac OS X 10_15_7) AppleWebKit/537.36 (KHTML, like Gecko) Chrome/135.0.0.0 Safari/537.36","Macintosh","Chrome","135.0.0.0","OS X","10_15_7","https://hz8g1ckzuq.cognition.run/","en-US,en;q=0.9","prjxtwdkjj394sf","30","[""Asian""]","No","Male","1554146.400000006","null","","<p></p>","null","rating","dtc","repulsion_2","2","washing machines","null","null","null","null","null","null","1","","","","","","","","","",""
"","","","","","rating_trial","survey-html-form","48","827727","0.0-3.0-1.22","124","1","2025-04-11 15:51:45","bb671e3ae32f654b8954ea4c4635f915","","Mozilla/5.0 (Macintosh; Intel Mac OS X 10_15_7) AppleWebKit/537.36 (KHTML, like Gecko) Chrome/135.0.0.0 Safari/537.36","Macintosh","Chrome","135.0.0.0","OS X","10_15_7","https://hz8g1ckzuq.cognition.run/","en-US,en;q=0.9","prjxtwdkjj394sf","30","[""Asian""]","No","Male","1554146.400000006","48615","","","{""price_1"":""399"",""price_2"":""349"",""price_3"":""499""}","rating","dtc","repulsion_2","2","washing machines","null","null","null","null","null","null","1","30","40","20","100","90","100","Average lifespan","Energy savings","",""
"","","","","","rating_trial_setup","html-keyboard-response","49","828028","0.0-3.0-0.23","124","1","2025-04-11 15:51:45","bb671e3ae32f654b8954ea4c4635f915","","Mozilla/5.0 (Macintosh; Intel Mac OS X 10_15_7) AppleWebKit/537.36 (KHTML, like Gecko) Chrome/135.0.0.0 Safari/537.36","Macintosh","Chrome","135.0.0.0","OS X","10_15_7","https://hz8g1ckzuq.cognition.run/","en-US,en;q=0.9","prjxtwdkjj394sf","30","[""Asian""]","No","Male","1554146.400000006","null","","<p></p>","null","rating","tdc","repulsion_2","2","microwave ovens","null","null","null","null","null","null","2","","","","","","","","","",""
"","","","","","rating_trial","survey-html-form","50","838019","0.0-3.0-1.23","124","1","2025-04-11 15:51:45","bb671e3ae32f654b8954ea4c4635f915","","Mozilla/5.0 (Macintosh; Intel Mac OS X 10_15_7) AppleWebKit/537.36 (KHTML, like Gecko) Chrome/135.0.0.0 Safari/537.36","Macintosh","Chrome","135.0.0.0","OS X","10_15_7","https://hz8g1ckzuq.cognition.run/","en-US,en;q=0.9","prjxtwdkjj394sf","30","[""Asian""]","No","Male","1554146.400000006","9990","","","{""price_1"":""99"",""price_2"":""99"",""price_3"":""89""}","rating","tdc","repulsion_2","2","microwave ovens","null","null","null","null","null","null","2","30","40","20","100","90","100","Warranty","Cooking power","",""
"","","","","","rating_trial_setup","html-keyboard-response","51","838321","0.0-3.0-0.24","124","1","2025-04-11 15:51:45","bb671e3ae32f654b8954ea4c4635f915","","Mozilla/5.0 (Macintosh; Intel Mac OS X 10_15_7) AppleWebKit/537.36 (KHTML, like Gecko) Chrome/135.0.0.0 Safari/537.36","Macintosh","Chrome","135.0.0.0","OS X","10_15_7","https://hz8g1ckzuq.cognition.run/","en-US,en;q=0.9","prjxtwdkjj394sf","30","[""Asian""]","No","Male","1554146.400000006","null","","<p></p>","null","rating","tcd","attraction_2","2","washing machines","null","null","null","null","null","null","1","","","","","","","","","",""
"","","","","","rating_trial","survey-html-form","52","842248","0.0-3.0-1.24","124","1","2025-04-11 15:51:45","bb671e3ae32f654b8954ea4c4635f915","","Mozilla/5.0 (Macintosh; Intel Mac OS X 10_15_7) AppleWebKit/537.36 (KHTML, like Gecko) Chrome/135.0.0.0 Safari/537.36","Macintosh","Chrome","135.0.0.0","OS X","10_15_7","https://hz8g1ckzuq.cognition.run/","en-US,en;q=0.9","prjxtwdkjj394sf","30","[""Asian""]","No","Male","1554146.400000006","3925","","","{""price_1"":""499"",""price_2"":""499"",""price_3"":""499""}","rating","tcd","attraction_2","2","washing machines","null","null","null","null","null","null","1","50","60","40","60","50","60","Average lifespan","Energy savings","",""
"","","","","","rating_trial_setup","html-keyboard-response","53","842551","0.0-3.0-0.25","124","1","2025-04-11 15:51:45","bb671e3ae32f654b8954ea4c4635f915","","Mozilla/5.0 (Macintosh; Intel Mac OS X 10_15_7) AppleWebKit/537.36 (KHTML, like Gecko) Chrome/135.0.0.0 Safari/537.36","Macintosh","Chrome","135.0.0.0","OS X","10_15_7","https://hz8g1ckzuq.cognition.run/","en-US,en;q=0.9","prjxtwdkjj394sf","30","[""Asian""]","No","Male","1554146.400000006","null","","<p></p>","null","rating","ctd","attraction_2","1","televisions","null","null","null","null","null","null","1","","","","","","","","","",""
"","","","","","rating_trial","survey-html-form","54","849659","0.0-3.0-1.25","124","1","2025-04-11 15:51:45","bb671e3ae32f654b8954ea4c4635f915","","Mozilla/5.0 (Macintosh; Intel Mac OS X 10_15_7) AppleWebKit/537.36 (KHTML, like Gecko) Chrome/135.0.0.0 Safari/537.36","Macintosh","Chrome","135.0.0.0","OS X","10_15_7","https://hz8g1ckzuq.cognition.run/","en-US,en;q=0.9","prjxtwdkjj394sf","30","[""Asian""]","No","Male","1554146.400000006","7107","","","{""price_1"":""199"",""price_2"":""199"",""price_3"":""199""}","rating","ctd","attraction_2","1","televisions","null","null","null","null","null","null","1","60","50","60","50","60","40","Screen size","Average lifespan","",""
"","","","","","rating_trial_setup","html-keyboard-response","55","849962","0.0-3.0-0.26","124","1","2025-04-11 15:51:45","bb671e3ae32f654b8954ea4c4635f915","","Mozilla/5.0 (Macintosh; Intel Mac OS X 10_15_7) AppleWebKit/537.36 (KHTML, like Gecko) Chrome/135.0.0.0 Safari/537.36","Macintosh","Chrome","135.0.0.0","OS X","10_15_7","https://hz8g1ckzuq.cognition.run/","en-US,en;q=0.9","prjxtwdkjj394sf","30","[""Asian""]","No","Male","1554146.400000006","null","","<p></p>","null","rating","wbw","catch","null","televisions","95","80","40","30","40","35","2","","","","","","","","","",""
"","","","","","rating_trial","survey-html-form","56","860318","0.0-3.0-1.26","124","1","2025-04-11 15:51:45","bb671e3ae32f654b8954ea4c4635f915","","Mozilla/5.0 (Macintosh; Intel Mac OS X 10_15_7) AppleWebKit/537.36 (KHTML, like Gecko) Chrome/135.0.0.0 Safari/537.36","Macintosh","Chrome","135.0.0.0","OS X","10_15_7","https://hz8g1ckzuq.cognition.run/","en-US,en;q=0.9","prjxtwdkjj394sf","30","[""Asian""]","No","Male","1554146.400000006","10355","","","{""price_1"":""149"",""price_2"":""220"",""price_3"":""149""}","rating","wbw","catch","null","televisions","95","80","40","30","40","35","2","null","null","null","null","null","null","Screen size","Average lifespan","",""
"","","","","","rating_trial_setup","html-keyboard-response","57","860620","0.0-3.0-0.27","124","1","2025-04-11 15:51:45","bb671e3ae32f654b8954ea4c4635f915","","Mozilla/5.0 (Macintosh; Intel Mac OS X 10_15_7) AppleWebKit/537.36 (KHTML, like Gecko) Chrome/135.0.0.0 Safari/537.36","Macintosh","Chrome","135.0.0.0","OS X","10_15_7","https://hz8g1ckzuq.cognition.run/","en-US,en;q=0.9","prjxtwdkjj394sf","30","[""Asian""]","No","Male","1554146.400000006","null","","<p></p>","null","rating","cdt","attraction_1","2","televisions","null","null","null","null","null","null","2","","","","","","","","","",""
"","","","","","rating_trial","survey-html-form","58","865307","0.0-3.0-1.27","124","1","2025-04-11 15:51:45","bb671e3ae32f654b8954ea4c4635f915","","Mozilla/5.0 (Macintosh; Intel Mac OS X 10_15_7) AppleWebKit/537.36 (KHTML, like Gecko) Chrome/135.0.0.0 Safari/537.36","Macintosh","Chrome","135.0.0.0","OS X","10_15_7","https://hz8g1ckzuq.cognition.run/","en-US,en;q=0.9","prjxtwdkjj394sf","30","[""Asian""]","No","Male","1554146.400000006","4686","","","{""price_1"":""199"",""price_2"":""199"",""price_3"":""199""}","rating","cdt","attraction_1","2","televisions","null","null","null","null","null","null","2","50","60","45","60","50","60","Screen size","Average lifespan","",""
"","","","","","rating_trial_setup","html-keyboard-response","59","865610","0.0-3.0-0.28","124","1","2025-04-11 15:51:45","bb671e3ae32f654b8954ea4c4635f915","","Mozilla/5.0 (Macintosh; Intel Mac OS X 10_15_7) AppleWebKit/537.36 (KHTML, like Gecko) Chrome/135.0.0.0 Safari/537.36","Macintosh","Chrome","135.0.0.0","OS X","10_15_7","https://hz8g1ckzuq.cognition.run/","en-US,en;q=0.9","prjxtwdkjj394sf","30","[""Asian""]","No","Male","1554146.400000006","null","","<p></p>","null","rating","dct","repulsion_2","2","laptops","null","null","null","null","null","null","1","","","","","","","","","",""
"","","","","","rating_trial","survey-html-form","60","879117","0.0-3.0-1.28","124","1","2025-04-11 15:51:45","bb671e3ae32f654b8954ea4c4635f915","","Mozilla/5.0 (Macintosh; Intel Mac OS X 10_15_7) AppleWebKit/537.36 (KHTML, like Gecko) Chrome/135.0.0.0 Safari/537.36","Macintosh","Chrome","135.0.0.0","OS X","10_15_7","https://hz8g1ckzuq.cognition.run/","en-US,en;q=0.9","prjxtwdkjj394sf","30","[""Asian""]","No","Male","1554146.400000006","13505","","","{""price_1"":""349"",""price_2"":""399"",""price_3"":""379""}","rating","dct","repulsion_2","2","laptops","null","null","null","null","null","null","1","30","40","20","100","90","100","Processing speed","Memory (RAM)","",""
"","","","","","rating_trial_setup","html-keyboard-response","61","879419","0.0-3.0-0.29","124","1","2025-04-11 15:51:45","bb671e3ae32f654b8954ea4c4635f915","","Mozilla/5.0 (Macintosh; Intel Mac OS X 10_15_7) AppleWebKit/537.36 (KHTML, like Gecko) Chrome/135.0.0.0 Safari/537.36","Macintosh","Chrome","135.0.0.0","OS X","10_15_7","https://hz8g1ckzuq.cognition.run/","en-US,en;q=0.9","prjxtwdkjj394sf","30","[""Asian""]","No","Male","1554146.400000006","null","","<p></p>","null","rating","ctd","repulsion_1","2","televisions","null","null","null","null","null","null","2","","","","","","","","","",""
"","","","","","rating_trial","survey-html-form","62","886757","0.0-3.0-1.29","124","1","2025-04-11 15:51:45","bb671e3ae32f654b8954ea4c4635f915","","Mozilla/5.0 (Macintosh; Intel Mac OS X 10_15_7) AppleWebKit/537.36 (KHTML, like Gecko) Chrome/135.0.0.0 Safari/537.36","Macintosh","Chrome","135.0.0.0","OS X","10_15_7","https://hz8g1ckzuq.cognition.run/","en-US,en;q=0.9","prjxtwdkjj394sf","30","[""Asian""]","No","Male","1554146.400000006","7336","","","{""price_1"":""149"",""price_2"":""129"",""price_3"":""119""}","rating","ctd","repulsion_1","2","televisions","null","null","null","null","null","null","2","30","40","25","100","90","100","Screen size","Average lifespan","",""
"","","","","","rating_trial_setup","html-keyboard-response","63","887058","0.0-3.0-0.30","124","1","2025-04-11 15:51:45","bb671e3ae32f654b8954ea4c4635f915","","Mozilla/5.0 (Macintosh; Intel Mac OS X 10_15_7) AppleWebKit/537.36 (KHTML, like Gecko) Chrome/135.0.0.0 Safari/537.36","Macintosh","Chrome","135.0.0.0","OS X","10_15_7","https://hz8g1ckzuq.cognition.run/","en-US,en;q=0.9","prjxtwdkjj394sf","30","[""Asian""]","No","Male","1554146.400000006","null","","<p></p>","null","rating","bww","catch","null","laptops","55","65","20","5","15","35","1","","","","","","","","","",""
"","","","","","rating_trial","survey-html-form","64","947862","0.0-3.0-1.30","124","1","2025-04-11 15:51:45","bb671e3ae32f654b8954ea4c4635f915","","Mozilla/5.0 (Macintosh; Intel Mac OS X 10_15_7) AppleWebKit/537.36 (KHTML, like Gecko) Chrome/135.0.0.0 Safari/537.36","Macintosh","Chrome","135.0.0.0","OS X","10_15_7","https://hz8g1ckzuq.cognition.run/","en-US,en;q=0.9","prjxtwdkjj394sf","30","[""Asian""]","No","Male","1554146.400000006","60802","","","{""price_1"":""399"",""price_2"":""199"",""price_3"":""249""}","rating","bww","catch","null","laptops","55","65","20","5","15","35","1","null","null","null","null","null","null","Processing speed","Memory (RAM)","",""
"","","","","","rating_trial_setup","html-keyboard-response","65","948163","0.0-3.0-0.31","124","1","2025-04-11 15:51:45","bb671e3ae32f654b8954ea4c4635f915","","Mozilla/5.0 (Macintosh; Intel Mac OS X 10_15_7) AppleWebKit/537.36 (KHTML, like Gecko) Chrome/135.0.0.0 Safari/537.36","Macintosh","Chrome","135.0.0.0","OS X","10_15_7","https://hz8g1ckzuq.cognition.run/","en-US,en;q=0.9","prjxtwdkjj394sf","30","[""Asian""]","No","Male","1554146.400000006","null","","<p></p>","null","rating","dtc","repulsion_1","1","televisions","null","null","null","null","null","null","1","","","","","","","","","",""
"","","","","","rating_trial","survey-html-form","66","978570","0.0-3.0-1.31","124","1","2025-04-11 15:51:45","bb671e3ae32f654b8954ea4c4635f915","","Mozilla/5.0 (Macintosh; Intel Mac OS X 10_15_7) AppleWebKit/537.36 (KHTML, like Gecko) Chrome/135.0.0.0 Safari/537.36","Macintosh","Chrome","135.0.0.0","OS X","10_15_7","https://hz8g1ckzuq.cognition.run/","en-US,en;q=0.9","prjxtwdkjj394sf","30","[""Asian""]","No","Male","1554146.400000006","30405","","","{""price_1"":""299"",""price_2"":""399"",""price_3"":""399""}","rating","dtc","repulsion_1","1","televisions","null","null","null","null","null","null","1","100","90","100","30","40","25","Screen size","Average lifespan","",""
"","","","","","rating_trial_setup","html-keyboard-response","67","978872","0.0-3.0-0.32","124","1","2025-04-11 15:51:45","bb671e3ae32f654b8954ea4c4635f915","","Mozilla/5.0 (Macintosh; Intel Mac OS X 10_15_7) AppleWebKit/537.36 (KHTML, like Gecko) Chrome/135.0.0.0 Safari/537.36","Macintosh","Chrome","135.0.0.0","OS X","10_15_7","https://hz8g1ckzuq.cognition.run/","en-US,en;q=0.9","prjxtwdkjj394sf","30","[""Asian""]","No","Male","1554146.400000006","null","","<p></p>","null","rating","tdc","repulsion_1","2","washing machines","null","null","null","null","null","null","1","","","","","","","","","",""
"","","","","","rating_trial","survey-html-form","68","991520","0.0-3.0-1.32","124","1","2025-04-11 15:51:45","bb671e3ae32f654b8954ea4c4635f915","","Mozilla/5.0 (Macintosh; Intel Mac OS X 10_15_7) AppleWebKit/537.36 (KHTML, like Gecko) Chrome/135.0.0.0 Safari/537.36","Macintosh","Chrome","135.0.0.0","OS X","10_15_7","https://hz8g1ckzuq.cognition.run/","en-US,en;q=0.9","prjxtwdkjj394sf","30","[""Asian""]","No","Male","1554146.400000006","12645","","","{""price_1"":""449"",""price_2"":""449"",""price_3"":""499""}","rating","tdc","repulsion_1","2","washing machines","null","null","null","null","null","null","1","30","40","25","100","90","100","Average lifespan","Energy savings","",""
"","","","","","rating_trial_setup","html-keyboard-response","69","991822","0.0-3.0-0.33","124","1","2025-04-11 15:51:45","bb671e3ae32f654b8954ea4c4635f915","","Mozilla/5.0 (Macintosh; Intel Mac OS X 10_15_7) AppleWebKit/537.36 (KHTML, like Gecko) Chrome/135.0.0.0 Safari/537.36","Macintosh","Chrome","135.0.0.0","OS X","10_15_7","https://hz8g1ckzuq.cognition.run/","en-US,en;q=0.9","prjxtwdkjj394sf","30","[""Asian""]","No","Male","1554146.400000006","null","","<p></p>","null","rating","wbw","catch","null","washing machines","85","50","20","50","10","15","2","","","","","","","","","",""
"","","","","","rating_trial","survey-html-form","70","1139175","0.0-3.0-1.33","124","1","2025-04-11 15:51:45","bb671e3ae32f654b8954ea4c4635f915","","Mozilla/5.0 (Macintosh; Intel Mac OS X 10_15_7) AppleWebKit/537.36 (KHTML, like Gecko) Chrome/135.0.0.0 Safari/537.36","Macintosh","Chrome","135.0.0.0","OS X","10_15_7","https://hz8g1ckzuq.cognition.run/","en-US,en;q=0.9","prjxtwdkjj394sf","30","[""Asian""]","No","Male","1554146.400000006","147350","","","{""price_1"":""499"",""price_2"":""599"",""price_3"":""349""}","rating","wbw","catch","null","washing machines","85","50","20","50","10","15","2","null","null","null","null","null","null","Average lifespan","Energy savings","",""
"","","","","","rating_trial_setup","html-keyboard-response","71","1139478","0.0-3.0-0.34","124","1","2025-04-11 15:51:45","bb671e3ae32f654b8954ea4c4635f915","","Mozilla/5.0 (Macintosh; Intel Mac OS X 10_15_7) AppleWebKit/537.36 (KHTML, like Gecko) Chrome/135.0.0.0 Safari/537.36","Macintosh","Chrome","135.0.0.0","OS X","10_15_7","https://hz8g1ckzuq.cognition.run/","en-US,en;q=0.9","prjxtwdkjj394sf","30","[""Asian""]","No","Male","1554146.400000006","null","","<p></p>","null","rating","cdt","repulsion_1","2","laptops","null","null","null","null","null","null","2","","","","","","","","","",""
"","","","","","rating_trial","survey-html-form","72","1154368","0.0-3.0-1.34","124","1","2025-04-11 15:51:45","bb671e3ae32f654b8954ea4c4635f915","","Mozilla/5.0 (Macintosh; Intel Mac OS X 10_15_7) AppleWebKit/537.36 (KHTML, like Gecko) Chrome/135.0.0.0 Safari/537.36","Macintosh","Chrome","135.0.0.0","OS X","10_15_7","https://hz8g1ckzuq.cognition.run/","en-US,en;q=0.9","prjxtwdkjj394sf","30","[""Asian""]","No","Male","1554146.400000006","14888","","","{""price_1"":""399"",""price_2"":""349"",""price_3"":""349""}","rating","cdt","repulsion_1","2","laptops","null","null","null","null","null","null","2","30","40","25","100","90","100","Processing speed","Memory (RAM)","",""
"","","","","","rating_trial_setup","html-keyboard-response","73","1154671","0.0-3.0-0.35","124","1","2025-04-11 15:51:45","bb671e3ae32f654b8954ea4c4635f915","","Mozilla/5.0 (Macintosh; Intel Mac OS X 10_15_7) AppleWebKit/537.36 (KHTML, like Gecko) Chrome/135.0.0.0 Safari/537.36","Macintosh","Chrome","135.0.0.0","OS X","10_15_7","https://hz8g1ckzuq.cognition.run/","en-US,en;q=0.9","prjxtwdkjj394sf","30","[""Asian""]","No","Male","1554146.400000006","null","","<p></p>","null","rating","wbw","catch","null","washing machines","75","95","40","40","30","15","2","","","","","","","","","",""
"","","","","","rating_trial","survey-html-form","74","1174058","0.0-3.0-1.35","124","1","2025-04-11 15:51:45","bb671e3ae32f654b8954ea4c4635f915","","Mozilla/5.0 (Macintosh; Intel Mac OS X 10_15_7) AppleWebKit/537.36 (KHTML, like Gecko) Chrome/135.0.0.0 Safari/537.36","Macintosh","Chrome","135.0.0.0","OS X","10_15_7","https://hz8g1ckzuq.cognition.run/","en-US,en;q=0.9","prjxtwdkjj394sf","30","[""Asian""]","No","Male","1554146.400000006","19385","","","{""price_1"":""399"",""price_2"":""599"",""price_3"":""299""}","rating","wbw","catch","null","washing machines","75","95","40","40","30","15","2","null","null","null","null","null","null","Average lifespan","Energy savings","",""
"","","","","","rating_trial_setup","html-keyboard-response","75","1174361","0.0-3.0-0.36","124","1","2025-04-11 15:51:45","bb671e3ae32f654b8954ea4c4635f915","","Mozilla/5.0 (Macintosh; Intel Mac OS X 10_15_7) AppleWebKit/537.36 (KHTML, like Gecko) Chrome/135.0.0.0 Safari/537.36","Macintosh","Chrome","135.0.0.0","OS X","10_15_7","https://hz8g1ckzuq.cognition.run/","en-US,en;q=0.9","prjxtwdkjj394sf","30","[""Asian""]","No","Male","1554146.400000006","null","","<p></p>","null","rating","tdc","attraction_2","2","laptops","null","null","null","null","null","null","2","","","","","","","","","",""
"","","","","","rating_trial","survey-html-form","76","1234888","0.0-3.0-1.36","124","1","2025-04-11 15:51:45","bb671e3ae32f654b8954ea4c4635f915","","Mozilla/5.0 (Macintosh; Intel Mac OS X 10_15_7) AppleWebKit/537.36 (KHTML, like Gecko) Chrome/135.0.0.0 Safari/537.36","Macintosh","Chrome","135.0.0.0","OS X","10_15_7","https://hz8g1ckzuq.cognition.run/","en-US,en;q=0.9","prjxtwdkjj394sf","30","[""Asian""]","No","Male","1554146.400000006","60524","","","{""price_1"":""399"",""price_2"":""399"",""price_3"":""399""}","rating","tdc","attraction_2","2","laptops","null","null","null","null","null","null","2","50","60","40","60","50","60","Processing speed","Memory (RAM)","",""
"","","","","","rating_trial_setup","html-keyboard-response","77","1235190","0.0-3.0-0.37","124","1","2025-04-11 15:51:45","bb671e3ae32f654b8954ea4c4635f915","","Mozilla/5.0 (Macintosh; Intel Mac OS X 10_15_7) AppleWebKit/537.36 (KHTML, like Gecko) Chrome/135.0.0.0 Safari/537.36","Macintosh","Chrome","135.0.0.0","OS X","10_15_7","https://hz8g1ckzuq.cognition.run/","en-US,en;q=0.9","prjxtwdkjj394sf","30","[""Asian""]","No","Male","1554146.400000006","null","","<p></p>","null","rating","wbw","catch","null","microwave ovens","80","85","10","10","10","25","1","","","","","","","","","",""
"","","","","","rating_trial","survey-html-form","78","1244670","0.0-3.0-1.37","124","1","2025-04-11 15:51:45","bb671e3ae32f654b8954ea4c4635f915","","Mozilla/5.0 (Macintosh; Intel Mac OS X 10_15_7) AppleWebKit/537.36 (KHTML, like Gecko) Chrome/135.0.0.0 Safari/537.36","Macintosh","Chrome","135.0.0.0","OS X","10_15_7","https://hz8g1ckzuq.cognition.run/","en-US,en;q=0.9","prjxtwdkjj394sf","30","[""Asian""]","No","Male","1554146.400000006","9477","","","{""price_1"":""49"",""price_2"":""99"",""price_3"":""49""}","rating","wbw","catch","null","microwave ovens","80","85","10","10","10","25","1","null","null","null","null","null","null","Warranty","Cooking power","",""
"","","","","","rating_trial_setup","html-keyboard-response","79","1244971","0.0-3.0-0.38","124","1","2025-04-11 15:51:45","bb671e3ae32f654b8954ea4c4635f915","","Mozilla/5.0 (Macintosh; Intel Mac OS X 10_15_7) AppleWebKit/537.36 (KHTML, like Gecko) Chrome/135.0.0.0 Safari/537.36","Macintosh","Chrome","135.0.0.0","OS X","10_15_7","https://hz8g1ckzuq.cognition.run/","en-US,en;q=0.9","prjxtwdkjj394sf","30","[""Asian""]","No","Male","1554146.400000006","null","","<p></p>","null","rating","dct","attraction_2","2","microwave ovens","null","null","null","null","null","null","1","","","","","","","","","",""
"","","","","","rating_trial","survey-html-form","80","1251675","0.0-3.0-1.38","124","1","2025-04-11 15:51:45","bb671e3ae32f654b8954ea4c4635f915","","Mozilla/5.0 (Macintosh; Intel Mac OS X 10_15_7) AppleWebKit/537.36 (KHTML, like Gecko) Chrome/135.0.0.0 Safari/537.36","Macintosh","Chrome","135.0.0.0","OS X","10_15_7","https://hz8g1ckzuq.cognition.run/","en-US,en;q=0.9","prjxtwdkjj394sf","30","[""Asian""]","No","Male","1554146.400000006","6701","","","{""price_1"":""79"",""price_2"":""79"",""price_3"":""79""}","rating","dct","attraction_2","2","microwave ovens","null","null","null","null","null","null","1","50","60","40","60","50","60","Warranty","Cooking power","",""
"","","","","","rating_trial_setup","html-keyboard-response","81","1251977","0.0-3.0-0.39","124","1","2025-04-11 15:51:45","bb671e3ae32f654b8954ea4c4635f915","","Mozilla/5.0 (Macintosh; Intel Mac OS X 10_15_7) AppleWebKit/537.36 (KHTML, like Gecko) Chrome/135.0.0.0 Safari/537.36","Macintosh","Chrome","135.0.0.0","OS X","10_15_7","https://hz8g1ckzuq.cognition.run/","en-US,en;q=0.9","prjxtwdkjj394sf","30","[""Asian""]","No","Male","1554146.400000006","null","","<p></p>","null","rating","cdt","repulsion_1","2","microwave ovens","null","null","null","null","null","null","2","","","","","","","","","",""
"","","","","","rating_trial","survey-html-form","82","1256575","0.0-3.0-1.39","124","1","2025-04-11 15:51:45","bb671e3ae32f654b8954ea4c4635f915","","Mozilla/5.0 (Macintosh; Intel Mac OS X 10_15_7) AppleWebKit/537.36 (KHTML, like Gecko) Chrome/135.0.0.0 Safari/537.36","Macintosh","Chrome","135.0.0.0","OS X","10_15_7","https://hz8g1ckzuq.cognition.run/","en-US,en;q=0.9","prjxtwdkjj394sf","30","[""Asian""]","No","Male","1554146.400000006","4595","","","{""price_1"":""99"",""price_2"":""99"",""price_3"":""99""}","rating","cdt","repulsion_1","2","microwave ovens","null","null","null","null","null","null","2","30","40","25","100","90","100","Warranty","Cooking power","",""
"","","","","","","instructions","83","1337662","0.0-4.0","124","1","2025-04-11 15:51:45","bb671e3ae32f654b8954ea4c4635f915","","Mozilla/5.0 (Macintosh; Intel Mac OS X 10_15_7) AppleWebKit/537.36 (KHTML, like Gecko) Chrome/135.0.0.0 Safari/537.36","Macintosh","Chrome","135.0.0.0","OS X","10_15_7","https://hz8g1ckzuq.cognition.run/","en-US,en;q=0.9","prjxtwdkjj394sf","30","[""Asian""]","No","Male","1554146.400000006","81085","[{""page_index"":0,""viewing_time"":973},{""page_index"":1,""viewing_time"":652},{""page_index"":2,""viewing_time"":1443},{""page_index"":3,""viewing_time"":1443},{""page_index"":4,""viewing_time"":1203},{""page_index"":5,""viewing_time"":1123},{""page_index"":6,""viewing_time"":72545},{""page_index"":7,""viewing_time"":1702}]","","","","","","","","","","","","","","","","","","","","","","","",""
"","","","","","choice_trial_setup","html-keyboard-response","84","1337968","0.0-5.0-0.0","124","1","2025-04-11 15:51:45","bb671e3ae32f654b8954ea4c4635f915","","Mozilla/5.0 (Macintosh; Intel Mac OS X 10_15_7) AppleWebKit/537.36 (KHTML, like Gecko) Chrome/135.0.0.0 Safari/537.36","Macintosh","Chrome","135.0.0.0","OS X","10_15_7","https://hz8g1ckzuq.cognition.run/","en-US,en;q=0.9","prjxtwdkjj394sf","30","[""Asian""]","No","Male","1554146.400000006","null","","<p></p>","null","choice","dct","repulsion_1","1","laptops","null","null","null","null","null","null","2","","","","","","","","","",""
"","","","","","choice_trial","survey-html-form","85","1344548","0.0-5.0-1.0","124","1","2025-04-11 15:51:45","bb671e3ae32f654b8954ea4c4635f915","","Mozilla/5.0 (Macintosh; Intel Mac OS X 10_15_7) AppleWebKit/537.36 (KHTML, like Gecko) Chrome/135.0.0.0 Safari/537.36","Macintosh","Chrome","135.0.0.0","OS X","10_15_7","https://hz8g1ckzuq.cognition.run/","en-US,en;q=0.9","prjxtwdkjj394sf","30","[""Asian""]","No","Male","1554146.400000006","6571","","","{""product_choice"":""B""}","choice","dct","repulsion_1","1","laptops","null","null","null","null","null","null","2","100","90","100","30","40","25","Processing speed","Memory (RAM)","",""
"","","","","","choice_trial_setup","html-keyboard-response","86","1344852","0.0-5.0-0.1","124","1","2025-04-11 15:51:45","bb671e3ae32f654b8954ea4c4635f915","","Mozilla/5.0 (Macintosh; Intel Mac OS X 10_15_7) AppleWebKit/537.36 (KHTML, like Gecko) Chrome/135.0.0.0 Safari/537.36","Macintosh","Chrome","135.0.0.0","OS X","10_15_7","https://hz8g1ckzuq.cognition.run/","en-US,en;q=0.9","prjxtwdkjj394sf","30","[""Asian""]","No","Male","1554146.400000006","null","","<p></p>","null","choice","wwb","catch","null","washing machines","55","60","40","10","20","45","2","","","","","","","","","",""
"","","","","","choice_trial","survey-html-form","87","1347592","0.0-5.0-1.1","124","1","2025-04-11 15:51:45","bb671e3ae32f654b8954ea4c4635f915","","Mozilla/5.0 (Macintosh; Intel Mac OS X 10_15_7) AppleWebKit/537.36 (KHTML, like Gecko) Chrome/135.0.0.0 Safari/537.36","Macintosh","Chrome","135.0.0.0","OS X","10_15_7","https://hz8g1ckzuq.cognition.run/","en-US,en;q=0.9","prjxtwdkjj394sf","30","[""Asian""]","No","Male","1554146.400000006","2736","","","{""product_choice"":""C""}","choice","wwb","catch","null","washing machines","55","60","40","10","20","45","2","null","null","null","null","null","null","Average lifespan","Energy savings","",""
"","","","","","choice_trial_setup","html-keyboard-response","88","1347894","0.0-5.0-0.2","124","1","2025-04-11 15:51:45","bb671e3ae32f654b8954ea4c4635f915","","Mozilla/5.0 (Macintosh; Intel Mac OS X 10_15_7) AppleWebKit/537.36 (KHTML, like Gecko) Chrome/135.0.0.0 Safari/537.36","Macintosh","Chrome","135.0.0.0","OS X","10_15_7","https://hz8g1ckzuq.cognition.run/","en-US,en;q=0.9","prjxtwdkjj394sf","30","[""Asian""]","No","Male","1554146.400000006","null","","<p></p>","null","choice","wbw","catch","null","laptops","65","90","30","45","20","45","2","","","","","","","","","",""
"","","","","","choice_trial","survey-html-form","89","1350378","0.0-5.0-1.2","124","1","2025-04-11 15:51:45","bb671e3ae32f654b8954ea4c4635f915","","Mozilla/5.0 (Macintosh; Intel Mac OS X 10_15_7) AppleWebKit/537.36 (KHTML, like Gecko) Chrome/135.0.0.0 Safari/537.36","Macintosh","Chrome","135.0.0.0","OS X","10_15_7","https://hz8g1ckzuq.cognition.run/","en-US,en;q=0.9","prjxtwdkjj394sf","30","[""Asian""]","No","Male","1554146.400000006","2478","","","{""product_choice"":""B""}","choice","wbw","catch","null","laptops","65","90","30","45","20","45","2","null","null","null","null","null","null","Processing speed","Memory (RAM)","",""
"","","","","","choice_trial_setup","html-keyboard-response","90","1350682","0.0-5.0-0.3","124","1","2025-04-11 15:51:45","bb671e3ae32f654b8954ea4c4635f915","","Mozilla/5.0 (Macintosh; Intel Mac OS X 10_15_7) AppleWebKit/537.36 (KHTML, like Gecko) Chrome/135.0.0.0 Safari/537.36","Macintosh","Chrome","135.0.0.0","OS X","10_15_7","https://hz8g1ckzuq.cognition.run/","en-US,en;q=0.9","prjxtwdkjj394sf","30","[""Asian""]","No","Male","1554146.400000006","null","","<p></p>","null","choice","cdt","repulsion_1","1","washing machines","null","null","null","null","null","null","1","","","","","","","","","",""
"","","","","","choice_trial","survey-html-form","91","1353371","0.0-5.0-1.3","124","1","2025-04-11 15:51:45","bb671e3ae32f654b8954ea4c4635f915","","Mozilla/5.0 (Macintosh; Intel Mac OS X 10_15_7) AppleWebKit/537.36 (KHTML, like Gecko) Chrome/135.0.0.0 Safari/537.36","Macintosh","Chrome","135.0.0.0","OS X","10_15_7","https://hz8g1ckzuq.cognition.run/","en-US,en;q=0.9","prjxtwdkjj394sf","30","[""Asian""]","No","Male","1554146.400000006","2684","","","{""product_choice"":""A""}","choice","cdt","repulsion_1","1","washing machines","null","null","null","null","null","null","1","100","90","100","30","40","25","Average lifespan","Energy savings","",""
"","","","","","choice_trial_setup","html-keyboard-response","92","1353675","0.0-5.0-0.4","124","1","2025-04-11 15:51:45","bb671e3ae32f654b8954ea4c4635f915","","Mozilla/5.0 (Macintosh; Intel Mac OS X 10_15_7) AppleWebKit/537.36 (KHTML, like Gecko) Chrome/135.0.0.0 Safari/537.36","Macintosh","Chrome","135.0.0.0","OS X","10_15_7","https://hz8g1ckzuq.cognition.run/","en-US,en;q=0.9","prjxtwdkjj394sf","30","[""Asian""]","No","Male","1554146.400000006","null","","<p></p>","null","choice","wwb","catch","null","televisions","75","65","50","25","45","5","1","","","","","","","","","",""
"","","","","","choice_trial","survey-html-form","93","1355976","0.0-5.0-1.4","124","1","2025-04-11 15:51:45","bb671e3ae32f654b8954ea4c4635f915","","Mozilla/5.0 (Macintosh; Intel Mac OS X 10_15_7) AppleWebKit/537.36 (KHTML, like Gecko) Chrome/135.0.0.0 Safari/537.36","Macintosh","Chrome","135.0.0.0","OS X","10_15_7","https://hz8g1ckzuq.cognition.run/","en-US,en;q=0.9","prjxtwdkjj394sf","30","[""Asian""]","No","Male","1554146.400000006","2298","","","{""product_choice"":""C""}","choice","wwb","catch","null","televisions","75","65","50","25","45","5","1","null","null","null","null","null","null","Screen size","Average lifespan","",""
"","","","","","choice_trial_setup","html-keyboard-response","94","1356280","0.0-5.0-0.5","124","1","2025-04-11 15:51:45","bb671e3ae32f654b8954ea4c4635f915","","Mozilla/5.0 (Macintosh; Intel Mac OS X 10_15_7) AppleWebKit/537.36 (KHTML, like Gecko) Chrome/135.0.0.0 Safari/537.36","Macintosh","Chrome","135.0.0.0","OS X","10_15_7","https://hz8g1ckzuq.cognition.run/","en-US,en;q=0.9","prjxtwdkjj394sf","30","[""Asian""]","No","Male","1554146.400000006","null","","<p></p>","null","choice","wbw","catch","null","microwave ovens","50","95","10","10","10","45","1","","","","","","","","","",""
"","","","","","choice_trial","survey-html-form","95","1358823","0.0-5.0-1.5","124","1","2025-04-11 15:51:45","bb671e3ae32f654b8954ea4c4635f915","","Mozilla/5.0 (Macintosh; Intel Mac OS X 10_15_7) AppleWebKit/537.36 (KHTML, like Gecko) Chrome/135.0.0.0 Safari/537.36","Macintosh","Chrome","135.0.0.0","OS X","10_15_7","https://hz8g1ckzuq.cognition.run/","en-US,en;q=0.9","prjxtwdkjj394sf","30","[""Asian""]","No","Male","1554146.400000006","2539","","","{""product_choice"":""B""}","choice","wbw","catch","null","microwave ovens","50","95","10","10","10","45","1","null","null","null","null","null","null","Warranty","Cooking power","",""
"","","","","","choice_trial_setup","html-keyboard-response","96","1359128","0.0-5.0-0.6","124","1","2025-04-11 15:51:45","bb671e3ae32f654b8954ea4c4635f915","","Mozilla/5.0 (Macintosh; Intel Mac OS X 10_15_7) AppleWebKit/537.36 (KHTML, like Gecko) Chrome/135.0.0.0 Safari/537.36","Macintosh","Chrome","135.0.0.0","OS X","10_15_7","https://hz8g1ckzuq.cognition.run/","en-US,en;q=0.9","prjxtwdkjj394sf","30","[""Asian""]","No","Male","1554146.400000006","null","","<p></p>","null","choice","tdc","repulsion_2","2","microwave ovens","null","null","null","null","null","null","1","","","","","","","","","",""
"","","","","","choice_trial","survey-html-form","97","1364469","0.0-5.0-1.6","124","1","2025-04-11 15:51:45","bb671e3ae32f654b8954ea4c4635f915","","Mozilla/5.0 (Macintosh; Intel Mac OS X 10_15_7) AppleWebKit/537.36 (KHTML, like Gecko) Chrome/135.0.0.0 Safari/537.36","Macintosh","Chrome","135.0.0.0","OS X","10_15_7","https://hz8g1ckzuq.cognition.run/","en-US,en;q=0.9","prjxtwdkjj394sf","30","[""Asian""]","No","Male","1554146.400000006","5337","","","{""product_choice"":""A""}","choice","tdc","repulsion_2","2","microwave ovens","null","null","null","null","null","null","1","30","40","20","100","90","100","Warranty","Cooking power","",""
"","","","","","choice_trial_setup","html-keyboard-response","98","1364774","0.0-5.0-0.7","124","1","2025-04-11 15:51:45","bb671e3ae32f654b8954ea4c4635f915","","Mozilla/5.0 (Macintosh; Intel Mac OS X 10_15_7) AppleWebKit/537.36 (KHTML, like Gecko) Chrome/135.0.0.0 Safari/537.36","Macintosh","Chrome","135.0.0.0","OS X","10_15_7","https://hz8g1ckzuq.cognition.run/","en-US,en;q=0.9","prjxtwdkjj394sf","30","[""Asian""]","No","Male","1554146.400000006","null","","<p></p>","null","choice","tcd","repulsion_2","2","washing machines","null","null","null","null","null","null","2","","","","","","","","","",""
"","","","","","choice_trial","survey-html-form","99","1368145","0.0-5.0-1.7","124","1","2025-04-11 15:51:45","bb671e3ae32f654b8954ea4c4635f915","","Mozilla/5.0 (Macintosh; Intel Mac OS X 10_15_7) AppleWebKit/537.36 (KHTML, like Gecko) Chrome/135.0.0.0 Safari/537.36","Macintosh","Chrome","135.0.0.0","OS X","10_15_7","https://hz8g1ckzuq.cognition.run/","en-US,en;q=0.9","prjxtwdkjj394sf","30","[""Asian""]","No","Male","1554146.400000006","3369","","","{""product_choice"":""A""}","choice","tcd","repulsion_2","2","washing machines","null","null","null","null","null","null","2","30","40","20","100","90","100","Average lifespan","Energy savings","",""
"","","","","","choice_trial_setup","html-keyboard-response","100","1368451","0.0-5.0-0.8","124","1","2025-04-11 15:51:45","bb671e3ae32f654b8954ea4c4635f915","","Mozilla/5.0 (Macintosh; Intel Mac OS X 10_15_7) AppleWebKit/537.36 (KHTML, like Gecko) Chrome/135.0.0.0 Safari/537.36","Macintosh","Chrome","135.0.0.0","OS X","10_15_7","https://hz8g1ckzuq.cognition.run/","en-US,en;q=0.9","prjxtwdkjj394sf","30","[""Asian""]","No","Male","1554146.400000006","null","","<p></p>","null","choice","dct","attraction_2","2","laptops","null","null","null","null","null","null","2","","","","","","","","","",""
"","","","","","choice_trial","survey-html-form","101","1402243","0.0-5.0-1.8","124","1","2025-04-11 15:51:45","bb671e3ae32f654b8954ea4c4635f915","","Mozilla/5.0 (Macintosh; Intel Mac OS X 10_15_7) AppleWebKit/537.36 (KHTML, like Gecko) Chrome/135.0.0.0 Safari/537.36","Macintosh","Chrome","135.0.0.0","OS X","10_15_7","https://hz8g1ckzuq.cognition.run/","en-US,en;q=0.9","prjxtwdkjj394sf","30","[""Asian""]","No","Male","1554146.400000006","33785","","","{""product_choice"":""B""}","choice","dct","attraction_2","2","laptops","null","null","null","null","null","null","2","50","60","40","60","50","60","Processing speed","Memory (RAM)","",""
"","","","","","choice_trial_setup","html-keyboard-response","102","1402548","0.0-5.0-0.9","124","1","2025-04-11 15:51:45","bb671e3ae32f654b8954ea4c4635f915","","Mozilla/5.0 (Macintosh; Intel Mac OS X 10_15_7) AppleWebKit/537.36 (KHTML, like Gecko) Chrome/135.0.0.0 Safari/537.36","Macintosh","Chrome","135.0.0.0","OS X","10_15_7","https://hz8g1ckzuq.cognition.run/","en-US,en;q=0.9","prjxtwdkjj394sf","30","[""Asian""]","No","Male","1554146.400000006","null","","<p></p>","null","choice","dtc","attraction_1","1","televisions","null","null","null","null","null","null","2","","","","","","","","","",""
"","","","","","choice_trial","survey-html-form","103","1405907","0.0-5.0-1.9","124","1","2025-04-11 15:51:45","bb671e3ae32f654b8954ea4c4635f915","","Mozilla/5.0 (Macintosh; Intel Mac OS X 10_15_7) AppleWebKit/537.36 (KHTML, like Gecko) Chrome/135.0.0.0 Safari/537.36","Macintosh","Chrome","135.0.0.0","OS X","10_15_7","https://hz8g1ckzuq.cognition.run/","en-US,en;q=0.9","prjxtwdkjj394sf","30","[""Asian""]","No","Male","1554146.400000006","3351","","","{""product_choice"":""B""}","choice","dtc","attraction_1","1","televisions","null","null","null","null","null","null","2","60","50","60","50","60","45","Screen size","Average lifespan","",""
"","","","","","choice_trial_setup","html-keyboard-response","104","1406211","0.0-5.0-0.10","124","1","2025-04-11 15:51:45","bb671e3ae32f654b8954ea4c4635f915","","Mozilla/5.0 (Macintosh; Intel Mac OS X 10_15_7) AppleWebKit/537.36 (KHTML, like Gecko) Chrome/135.0.0.0 Safari/537.36","Macintosh","Chrome","135.0.0.0","OS X","10_15_7","https://hz8g1ckzuq.cognition.run/","en-US,en;q=0.9","prjxtwdkjj394sf","30","[""Asian""]","No","Male","1554146.400000006","null","","<p></p>","null","choice","cdt","attraction_2","1","washing machines","null","null","null","null","null","null","1","","","","","","","","","",""
"","","","","","choice_trial","survey-html-form","105","1408478","0.0-5.0-1.10","124","1","2025-04-11 15:51:45","bb671e3ae32f654b8954ea4c4635f915","","Mozilla/5.0 (Macintosh; Intel Mac OS X 10_15_7) AppleWebKit/537.36 (KHTML, like Gecko) Chrome/135.0.0.0 Safari/537.36","Macintosh","Chrome","135.0.0.0","OS X","10_15_7","https://hz8g1ckzuq.cognition.run/","en-US,en;q=0.9","prjxtwdkjj394sf","30","[""Asian""]","No","Male","1554146.400000006","2260","","","{""product_choice"":""A""}","choice","cdt","attraction_2","1","washing machines","null","null","null","null","null","null","1","60","50","60","50","60","40","Average lifespan","Energy savings","",""
"","","","","","choice_trial_setup","html-keyboard-response","106","1408783","0.0-5.0-0.11","124","1","2025-04-11 15:51:45","bb671e3ae32f654b8954ea4c4635f915","","Mozilla/5.0 (Macintosh; Intel Mac OS X 10_15_7) AppleWebKit/537.36 (KHTML, like Gecko) Chrome/135.0.0.0 Safari/537.36","Macintosh","Chrome","135.0.0.0","OS X","10_15_7","https://hz8g1ckzuq.cognition.run/","en-US,en;q=0.9","prjxtwdkjj394sf","30","[""Asian""]","No","Male","1554146.400000006","null","","<p></p>","null","choice","cdt","attraction_1","2","microwave ovens","null","null","null","null","null","null","2","","","","","","","","","",""
"","","","","","choice_trial","survey-html-form","107","1411147","0.0-5.0-1.11","124","1","2025-04-11 15:51:45","bb671e3ae32f654b8954ea4c4635f915","","Mozilla/5.0 (Macintosh; Intel Mac OS X 10_15_7) AppleWebKit/537.36 (KHTML, like Gecko) Chrome/135.0.0.0 Safari/537.36","Macintosh","Chrome","135.0.0.0","OS X","10_15_7","https://hz8g1ckzuq.cognition.run/","en-US,en;q=0.9","prjxtwdkjj394sf","30","[""Asian""]","No","Male","1554146.400000006","2359","","","{""product_choice"":""C""}","choice","cdt","attraction_1","2","microwave ovens","null","null","null","null","null","null","2","50","60","45","60","50","60","Warranty","Cooking power","",""
"","","","","","choice_trial_setup","html-keyboard-response","108","1411451","0.0-5.0-0.12","124","1","2025-04-11 15:51:45","bb671e3ae32f654b8954ea4c4635f915","","Mozilla/5.0 (Macintosh; Intel Mac OS X 10_15_7) AppleWebKit/537.36 (KHTML, like Gecko) Chrome/135.0.0.0 Safari/537.36","Macintosh","Chrome","135.0.0.0","OS X","10_15_7","https://hz8g1ckzuq.cognition.run/","en-US,en;q=0.9","prjxtwdkjj394sf","30","[""Asian""]","No","Male","1554146.400000006","null","","<p></p>","null","choice","bww","catch","null","washing machines","90","70","35","35","30","20","2","","","","","","","","","",""
"","","","","","choice_trial","survey-html-form","109","1413413","0.0-5.0-1.12","124","1","2025-04-11 15:51:45","bb671e3ae32f654b8954ea4c4635f915","","Mozilla/5.0 (Macintosh; Intel Mac OS X 10_15_7) AppleWebKit/537.36 (KHTML, like Gecko) Chrome/135.0.0.0 Safari/537.36","Macintosh","Chrome","135.0.0.0","OS X","10_15_7","https://hz8g1ckzuq.cognition.run/","en-US,en;q=0.9","prjxtwdkjj394sf","30","[""Asian""]","No","Male","1554146.400000006","1957","","","{""product_choice"":""A""}","choice","bww","catch","null","washing machines","90","70","35","35","30","20","2","null","null","null","null","null","null","Average lifespan","Energy savings","",""
"","","","","","choice_trial_setup","html-keyboard-response","110","1413718","0.0-5.0-0.13","124","1","2025-04-11 15:51:45","bb671e3ae32f654b8954ea4c4635f915","","Mozilla/5.0 (Macintosh; Intel Mac OS X 10_15_7) AppleWebKit/537.36 (KHTML, like Gecko) Chrome/135.0.0.0 Safari/537.36","Macintosh","Chrome","135.0.0.0","OS X","10_15_7","https://hz8g1ckzuq.cognition.run/","en-US,en;q=0.9","prjxtwdkjj394sf","30","[""Asian""]","No","Male","1554146.400000006","null","","<p></p>","null","choice","tcd","attraction_2","2","microwave ovens","null","null","null","null","null","null","1","","","","","","","","","",""
"","","","","","choice_trial","survey-html-form","111","1416519","0.0-5.0-1.13","124","1","2025-04-11 15:51:45","bb671e3ae32f654b8954ea4c4635f915","","Mozilla/5.0 (Macintosh; Intel Mac OS X 10_15_7) AppleWebKit/537.36 (KHTML, like Gecko) Chrome/135.0.0.0 Safari/537.36","Macintosh","Chrome","135.0.0.0","OS X","10_15_7","https://hz8g1ckzuq.cognition.run/","en-US,en;q=0.9","prjxtwdkjj394sf","30","[""Asian""]","No","Male","1554146.400000006","2797","","","{""product_choice"":""A""}","choice","tcd","attraction_2","2","microwave ovens","null","null","null","null","null","null","1","50","60","40","60","50","60","Warranty","Cooking power","",""
"","","","","","choice_trial_setup","html-keyboard-response","112","1416825","0.0-5.0-0.14","124","1","2025-04-11 15:51:45","bb671e3ae32f654b8954ea4c4635f915","","Mozilla/5.0 (Macintosh; Intel Mac OS X 10_15_7) AppleWebKit/537.36 (KHTML, like Gecko) Chrome/135.0.0.0 Safari/537.36","Macintosh","Chrome","135.0.0.0","OS X","10_15_7","https://hz8g1ckzuq.cognition.run/","en-US,en;q=0.9","prjxtwdkjj394sf","30","[""Asian""]","No","Male","1554146.400000006","null","","<p></p>","null","choice","dct","repulsion_2","2","televisions","null","null","null","null","null","null","2","","","","","","","","","",""
"","","","","","choice_trial","survey-html-form","113","1419560","0.0-5.0-1.14","124","1","2025-04-11 15:51:45","bb671e3ae32f654b8954ea4c4635f915","","Mozilla/5.0 (Macintosh; Intel Mac OS X 10_15_7) AppleWebKit/537.36 (KHTML, like Gecko) Chrome/135.0.0.0 Safari/537.36","Macintosh","Chrome","135.0.0.0","OS X","10_15_7","https://hz8g1ckzuq.cognition.run/","en-US,en;q=0.9","prjxtwdkjj394sf","30","[""Asian""]","No","Male","1554146.400000006","2731","","","{""product_choice"":""B""}","choice","dct","repulsion_2","2","televisions","null","null","null","null","null","null","2","30","40","20","100","90","100","Screen size","Average lifespan","",""
"","","","","","choice_trial_setup","html-keyboard-response","114","1419864","0.0-5.0-0.15","124","1","2025-04-11 15:51:45","bb671e3ae32f654b8954ea4c4635f915","","Mozilla/5.0 (Macintosh; Intel Mac OS X 10_15_7) AppleWebKit/537.36 (KHTML, like Gecko) Chrome/135.0.0.0 Safari/537.36","Macintosh","Chrome","135.0.0.0","OS X","10_15_7","https://hz8g1ckzuq.cognition.run/","en-US,en;q=0.9","prjxtwdkjj394sf","30","[""Asian""]","No","Male","1554146.400000006","null","","<p></p>","null","choice","dtc","attraction_1","2","washing machines","null","null","null","null","null","null","2","","","","","","","","","",""
"","","","","","choice_trial","survey-html-form","115","1422604","0.0-5.0-1.15","124","1","2025-04-11 15:51:45","bb671e3ae32f654b8954ea4c4635f915","","Mozilla/5.0 (Macintosh; Intel Mac OS X 10_15_7) AppleWebKit/537.36 (KHTML, like Gecko) Chrome/135.0.0.0 Safari/537.36","Macintosh","Chrome","135.0.0.0","OS X","10_15_7","https://hz8g1ckzuq.cognition.run/","en-US,en;q=0.9","prjxtwdkjj394sf","30","[""Asian""]","No","Male","1554146.400000006","2733","","","{""product_choice"":""B""}","choice","dtc","attraction_1","2","washing machines","null","null","null","null","null","null","2","50","60","45","60","50","60","Average lifespan","Energy savings","",""
"","","","","","choice_trial_setup","html-keyboard-response","116","1422910","0.0-5.0-0.16","124","1","2025-04-11 15:51:45","bb671e3ae32f654b8954ea4c4635f915","","Mozilla/5.0 (Macintosh; Intel Mac OS X 10_15_7) AppleWebKit/537.36 (KHTML, like Gecko) Chrome/135.0.0.0 Safari/537.36","Macintosh","Chrome","135.0.0.0","OS X","10_15_7","https://hz8g1ckzuq.cognition.run/","en-US,en;q=0.9","prjxtwdkjj394sf","30","[""Asian""]","No","Male","1554146.400000006","null","","<p></p>","null","choice","tcd","repulsion_2","1","washing machines","null","null","null","null","null","null","1","","","","","","","","","",""
"","","","","","choice_trial","survey-html-form","117","1428570","0.0-5.0-1.16","124","1","2025-04-11 15:51:45","bb671e3ae32f654b8954ea4c4635f915","","Mozilla/5.0 (Macintosh; Intel Mac OS X 10_15_7) AppleWebKit/537.36 (KHTML, like Gecko) Chrome/135.0.0.0 Safari/537.36","Macintosh","Chrome","135.0.0.0","OS X","10_15_7","https://hz8g1ckzuq.cognition.run/","en-US,en;q=0.9","prjxtwdkjj394sf","30","[""Asian""]","No","Male","1554146.400000006","5655","","","{""product_choice"":""B""}","choice","tcd","repulsion_2","1","washing machines","null","null","null","null","null","null","1","100","90","100","30","40","20","Average lifespan","Energy savings","",""
"","","","","","choice_trial_setup","html-keyboard-response","118","1428875","0.0-5.0-0.17","124","1","2025-04-11 15:51:45","bb671e3ae32f654b8954ea4c4635f915","","Mozilla/5.0 (Macintosh; Intel Mac OS X 10_15_7) AppleWebKit/537.36 (KHTML, like Gecko) Chrome/135.0.0.0 Safari/537.36","Macintosh","Chrome","135.0.0.0","OS X","10_15_7","https://hz8g1ckzuq.cognition.run/","en-US,en;q=0.9","prjxtwdkjj394sf","30","[""Asian""]","No","Male","1554146.400000006","null","","<p></p>","null","choice","ctd","attraction_2","2","washing machines","null","null","null","null","null","null","2","","","","","","","","","",""
"","","","","","choice_trial","survey-html-form","119","1431883","0.0-5.0-1.17","124","1","2025-04-11 15:51:45","bb671e3ae32f654b8954ea4c4635f915","","Mozilla/5.0 (Macintosh; Intel Mac OS X 10_15_7) AppleWebKit/537.36 (KHTML, like Gecko) Chrome/135.0.0.0 Safari/537.36","Macintosh","Chrome","135.0.0.0","OS X","10_15_7","https://hz8g1ckzuq.cognition.run/","en-US,en;q=0.9","prjxtwdkjj394sf","30","[""Asian""]","No","Male","1554146.400000006","3002","","","{""product_choice"":""B""}","choice","ctd","attraction_2","2","washing machines","null","null","null","null","null","null","2","50","60","40","60","50","60","Average lifespan","Energy savings","",""
"","","","","","choice_trial_setup","html-keyboard-response","120","1432189","0.0-5.0-0.18","124","1","2025-04-11 15:51:45","bb671e3ae32f654b8954ea4c4635f915","","Mozilla/5.0 (Macintosh; Intel Mac OS X 10_15_7) AppleWebKit/537.36 (KHTML, like Gecko) Chrome/135.0.0.0 Safari/537.36","Macintosh","Chrome","135.0.0.0","OS X","10_15_7","https://hz8g1ckzuq.cognition.run/","en-US,en;q=0.9","prjxtwdkjj394sf","30","[""Asian""]","No","Male","1554146.400000006","null","","<p></p>","null","choice","dtc","attraction_2","1","microwave ovens","null","null","null","null","null","null","2","","","","","","","","","",""
"","","","","","choice_trial","survey-html-form","121","1436229","0.0-5.0-1.18","124","1","2025-04-11 15:51:45","bb671e3ae32f654b8954ea4c4635f915","","Mozilla/5.0 (Macintosh; Intel Mac OS X 10_15_7) AppleWebKit/537.36 (KHTML, like Gecko) Chrome/135.0.0.0 Safari/537.36","Macintosh","Chrome","135.0.0.0","OS X","10_15_7","https://hz8g1ckzuq.cognition.run/","en-US,en;q=0.9","prjxtwdkjj394sf","30","[""Asian""]","No","Male","1554146.400000006","4035","","","{""product_choice"":""C""}","choice","dtc","attraction_2","1","microwave ovens","null","null","null","null","null","null","2","60","50","60","50","60","40","Warranty","Cooking power","",""
"","","","","","choice_trial_setup","html-keyboard-response","122","1436534","0.0-5.0-0.19","124","1","2025-04-11 15:51:45","bb671e3ae32f654b8954ea4c4635f915","","Mozilla/5.0 (Macintosh; Intel Mac OS X 10_15_7) AppleWebKit/537.36 (KHTML, like Gecko) Chrome/135.0.0.0 Safari/537.36","Macintosh","Chrome","135.0.0.0","OS X","10_15_7","https://hz8g1ckzuq.cognition.run/","en-US,en;q=0.9","prjxtwdkjj394sf","30","[""Asian""]","No","Male","1554146.400000006","null","","<p></p>","null","choice","tcd","attraction_2","1","laptops","null","null","null","null","null","null","1","","","","","","","","","",""
"","","","","","choice_trial","survey-html-form","123","1441390","0.0-5.0-1.19","124","1","2025-04-11 15:51:45","bb671e3ae32f654b8954ea4c4635f915","","Mozilla/5.0 (Macintosh; Intel Mac OS X 10_15_7) AppleWebKit/537.36 (KHTML, like Gecko) Chrome/135.0.0.0 Safari/537.36","Macintosh","Chrome","135.0.0.0","OS X","10_15_7","https://hz8g1ckzuq.cognition.run/","en-US,en;q=0.9","prjxtwdkjj394sf","30","[""Asian""]","No","Male","1554146.400000006","4851","","","{""product_choice"":""B""}","choice","tcd","attraction_2","1","laptops","null","null","null","null","null","null","1","60","50","60","50","60","40","Processing speed","Memory (RAM)","",""
"","","","","","choice_trial_setup","html-keyboard-response","124","1441696","0.0-5.0-0.20","124","1","2025-04-11 15:51:45","bb671e3ae32f654b8954ea4c4635f915","","Mozilla/5.0 (Macintosh; Intel Mac OS X 10_15_7) AppleWebKit/537.36 (KHTML, like Gecko) Chrome/135.0.0.0 Safari/537.36","Macintosh","Chrome","135.0.0.0","OS X","10_15_7","https://hz8g1ckzuq.cognition.run/","en-US,en;q=0.9","prjxtwdkjj394sf","30","[""Asian""]","No","Male","1554146.400000006","null","","<p></p>","null","choice","tdc","attraction_1","1","laptops","null","null","null","null","null","null","2","","","","","","","","","",""
"","","","","","choice_trial","survey-html-form","125","1444375","0.0-5.0-1.20","124","1","2025-04-11 15:51:45","bb671e3ae32f654b8954ea4c4635f915","","Mozilla/5.0 (Macintosh; Intel Mac OS X 10_15_7) AppleWebKit/537.36 (KHTML, like Gecko) Chrome/135.0.0.0 Safari/537.36","Macintosh","Chrome","135.0.0.0","OS X","10_15_7","https://hz8g1ckzuq.cognition.run/","en-US,en;q=0.9","prjxtwdkjj394sf","30","[""Asian""]","No","Male","1554146.400000006","2670","","","{""product_choice"":""A""}","choice","tdc","attraction_1","1","laptops","null","null","null","null","null","null","2","60","50","60","50","60","45","Processing speed","Memory (RAM)","",""
"","","","","","choice_trial_setup","html-keyboard-response","126","1444680","0.0-5.0-0.21","124","1","2025-04-11 15:51:45","bb671e3ae32f654b8954ea4c4635f915","","Mozilla/5.0 (Macintosh; Intel Mac OS X 10_15_7) AppleWebKit/537.36 (KHTML, like Gecko) Chrome/135.0.0.0 Safari/537.36","Macintosh","Chrome","135.0.0.0","OS X","10_15_7","https://hz8g1ckzuq.cognition.run/","en-US,en;q=0.9","prjxtwdkjj394sf","30","[""Asian""]","No","Male","1554146.400000006","null","","<p></p>","null","choice","tcd","attraction_2","2","televisions","null","null","null","null","null","null","2","","","","","","","","","",""
"","","","","","choice_trial","survey-html-form","127","1447095","0.0-5.0-1.21","124","1","2025-04-11 15:51:45","bb671e3ae32f654b8954ea4c4635f915","","Mozilla/5.0 (Macintosh; Intel Mac OS X 10_15_7) AppleWebKit/537.36 (KHTML, like Gecko) Chrome/135.0.0.0 Safari/537.36","Macintosh","Chrome","135.0.0.0","OS X","10_15_7","https://hz8g1ckzuq.cognition.run/","en-US,en;q=0.9","prjxtwdkjj394sf","30","[""Asian""]","No","Male","1554146.400000006","2410","","","{""product_choice"":""B""}","choice","tcd","attraction_2","2","televisions","null","null","null","null","null","null","2","50","60","40","60","50","60","Screen size","Average lifespan","",""
"","","","","","choice_trial_setup","html-keyboard-response","128","1447402","0.0-5.0-0.22","124","1","2025-04-11 15:51:45","bb671e3ae32f654b8954ea4c4635f915","","Mozilla/5.0 (Macintosh; Intel Mac OS X 10_15_7) AppleWebKit/537.36 (KHTML, like Gecko) Chrome/135.0.0.0 Safari/537.36","Macintosh","Chrome","135.0.0.0","OS X","10_15_7","https://hz8g1ckzuq.cognition.run/","en-US,en;q=0.9","prjxtwdkjj394sf","30","[""Asian""]","No","Male","1554146.400000006","null","","<p></p>","null","choice","bww","catch","null","televisions","65","90","50","50","10","40","2","","","","","","","","","",""
"","","","","","choice_trial","survey-html-form","129","1449382","0.0-5.0-1.22","124","1","2025-04-11 15:51:45","bb671e3ae32f654b8954ea4c4635f915","","Mozilla/5.0 (Macintosh; Intel Mac OS X 10_15_7) AppleWebKit/537.36 (KHTML, like Gecko) Chrome/135.0.0.0 Safari/537.36","Macintosh","Chrome","135.0.0.0","OS X","10_15_7","https://hz8g1ckzuq.cognition.run/","en-US,en;q=0.9","prjxtwdkjj394sf","30","[""Asian""]","No","Male","1554146.400000006","1975","","","{""product_choice"":""A""}","choice","bww","catch","null","televisions","65","90","50","50","10","40","2","null","null","null","null","null","null","Screen size","Average lifespan","",""
"","","","","","choice_trial_setup","html-keyboard-response","130","1449689","0.0-5.0-0.23","124","1","2025-04-11 15:51:45","bb671e3ae32f654b8954ea4c4635f915","","Mozilla/5.0 (Macintosh; Intel Mac OS X 10_15_7) AppleWebKit/537.36 (KHTML, like Gecko) Chrome/135.0.0.0 Safari/537.36","Macintosh","Chrome","135.0.0.0","OS X","10_15_7","https://hz8g1ckzuq.cognition.run/","en-US,en;q=0.9","prjxtwdkjj394sf","30","[""Asian""]","No","Male","1554146.400000006","null","","<p></p>","null","choice","dtc","repulsion_1","1","televisions","null","null","null","null","null","null","2","","","","","","","","","",""
"","","","","","choice_trial","survey-html-form","131","1453291","0.0-5.0-1.23","124","1","2025-04-11 15:51:45","bb671e3ae32f654b8954ea4c4635f915","","Mozilla/5.0 (Macintosh; Intel Mac OS X 10_15_7) AppleWebKit/537.36 (KHTML, like Gecko) Chrome/135.0.0.0 Safari/537.36","Macintosh","Chrome","135.0.0.0","OS X","10_15_7","https://hz8g1ckzuq.cognition.run/","en-US,en;q=0.9","prjxtwdkjj394sf","30","[""Asian""]","No","Male","1554146.400000006","3599","","","{""product_choice"":""B""}","choice","dtc","repulsion_1","1","televisions","null","null","null","null","null","null","2","100","90","100","30","40","25","Screen size","Average lifespan","",""
"","","","","","choice_trial_setup","html-keyboard-response","132","1453596","0.0-5.0-0.24","124","1","2025-04-11 15:51:45","bb671e3ae32f654b8954ea4c4635f915","","Mozilla/5.0 (Macintosh; Intel Mac OS X 10_15_7) AppleWebKit/537.36 (KHTML, like Gecko) Chrome/135.0.0.0 Safari/537.36","Macintosh","Chrome","135.0.0.0","OS X","10_15_7","https://hz8g1ckzuq.cognition.run/","en-US,en;q=0.9","prjxtwdkjj394sf","30","[""Asian""]","No","Male","1554146.400000006","null","","<p></p>","null","choice","cdt","attraction_1","2","laptops","null","null","null","null","null","null","1","","","","","","","","","",""
"","","","","","choice_trial","survey-html-form","133","1455895","0.0-5.0-1.24","124","1","2025-04-11 15:51:45","bb671e3ae32f654b8954ea4c4635f915","","Mozilla/5.0 (Macintosh; Intel Mac OS X 10_15_7) AppleWebKit/537.36 (KHTML, like Gecko) Chrome/135.0.0.0 Safari/537.36","Macintosh","Chrome","135.0.0.0","OS X","10_15_7","https://hz8g1ckzuq.cognition.run/","en-US,en;q=0.9","prjxtwdkjj394sf","30","[""Asian""]","No","Male","1554146.400000006","2296","","","{""product_choice"":""A""}","choice","cdt","attraction_1","2","laptops","null","null","null","null","null","null","1","50","60","45","60","50","60","Processing speed","Memory (RAM)","",""
"","","","","","choice_trial_setup","html-keyboard-response","134","1456201","0.0-5.0-0.25","124","1","2025-04-11 15:51:45","bb671e3ae32f654b8954ea4c4635f915","","Mozilla/5.0 (Macintosh; Intel Mac OS X 10_15_7) AppleWebKit/537.36 (KHTML, like Gecko) Chrome/135.0.0.0 Safari/537.36","Macintosh","Chrome","135.0.0.0","OS X","10_15_7","https://hz8g1ckzuq.cognition.run/","en-US,en;q=0.9","prjxtwdkjj394sf","30","[""Asian""]","No","Male","1554146.400000006","null","","<p></p>","null","choice","ctd","repulsion_2","1","microwave ovens","null","null","null","null","null","null","2","","","","","","","","","",""
"","","","","","choice_trial","survey-html-form","135","1458853","0.0-5.0-1.25","124","1","2025-04-11 15:51:45","bb671e3ae32f654b8954ea4c4635f915","","Mozilla/5.0 (Macintosh; Intel Mac OS X 10_15_7) AppleWebKit/537.36 (KHTML, like Gecko) Chrome/135.0.0.0 Safari/537.36","Macintosh","Chrome","135.0.0.0","OS X","10_15_7","https://hz8g1ckzuq.cognition.run/","en-US,en;q=0.9","prjxtwdkjj394sf","30","[""Asian""]","No","Male","1554146.400000006","2645","","","{""product_choice"":""A""}","choice","ctd","repulsion_2","1","microwave ovens","null","null","null","null","null","null","2","100","90","100","30","40","20","Warranty","Cooking power","",""
"","","","","","choice_trial_setup","html-keyboard-response","136","1459157","0.0-5.0-0.26","124","1","2025-04-11 15:51:45","bb671e3ae32f654b8954ea4c4635f915","","Mozilla/5.0 (Macintosh; Intel Mac OS X 10_15_7) AppleWebKit/537.36 (KHTML, like Gecko) Chrome/135.0.0.0 Safari/537.36","Macintosh","Chrome","135.0.0.0","OS X","10_15_7","https://hz8g1ckzuq.cognition.run/","en-US,en;q=0.9","prjxtwdkjj394sf","30","[""Asian""]","No","Male","1554146.400000006","null","","<p></p>","null","choice","ctd","repulsion_2","1","laptops","null","null","null","null","null","null","1","","","","","","","","","",""
"","","","","","choice_trial","survey-html-form","137","1461830","0.0-5.0-1.26","124","1","2025-04-11 15:51:45","bb671e3ae32f654b8954ea4c4635f915","","Mozilla/5.0 (Macintosh; Intel Mac OS X 10_15_7) AppleWebKit/537.36 (KHTML, like Gecko) Chrome/135.0.0.0 Safari/537.36","Macintosh","Chrome","135.0.0.0","OS X","10_15_7","https://hz8g1ckzuq.cognition.run/","en-US,en;q=0.9","prjxtwdkjj394sf","30","[""Asian""]","No","Male","1554146.400000006","2663","","","{""product_choice"":""A""}","choice","ctd","repulsion_2","1","laptops","null","null","null","null","null","null","1","100","90","100","30","40","20","Processing speed","Memory (RAM)","",""
"","","","","","choice_trial_setup","html-keyboard-response","138","1462134","0.0-5.0-0.27","124","1","2025-04-11 15:51:45","bb671e3ae32f654b8954ea4c4635f915","","Mozilla/5.0 (Macintosh; Intel Mac OS X 10_15_7) AppleWebKit/537.36 (KHTML, like Gecko) Chrome/135.0.0.0 Safari/537.36","Macintosh","Chrome","135.0.0.0","OS X","10_15_7","https://hz8g1ckzuq.cognition.run/","en-US,en;q=0.9","prjxtwdkjj394sf","30","[""Asian""]","No","Male","1554146.400000006","null","","<p></p>","null","choice","tdc","attraction_1","1","washing machines","null","null","null","null","null","null","1","","","","","","","","","",""
"","","","","","choice_trial","survey-html-form","139","1465558","0.0-5.0-1.27","124","1","2025-04-11 15:51:45","bb671e3ae32f654b8954ea4c4635f915","","Mozilla/5.0 (Macintosh; Intel Mac OS X 10_15_7) AppleWebKit/537.36 (KHTML, like Gecko) Chrome/135.0.0.0 Safari/537.36","Macintosh","Chrome","135.0.0.0","OS X","10_15_7","https://hz8g1ckzuq.cognition.run/","en-US,en;q=0.9","prjxtwdkjj394sf","30","[""Asian""]","No","Male","1554146.400000006","3417","","","{""product_choice"":""C""}","choice","tdc","attraction_1","1","washing machines","null","null","null","null","null","null","1","60","50","60","50","60","45","Average lifespan","Energy savings","",""
"","","","","","choice_trial_setup","html-keyboard-response","140","1465864","0.0-5.0-0.28","124","1","2025-04-11 15:51:45","bb671e3ae32f654b8954ea4c4635f915","","Mozilla/5.0 (Macintosh; Intel Mac OS X 10_15_7) AppleWebKit/537.36 (KHTML, like Gecko) Chrome/135.0.0.0 Safari/537.36","Macintosh","Chrome","135.0.0.0","OS X","10_15_7","https://hz8g1ckzuq.cognition.run/","en-US,en;q=0.9","prjxtwdkjj394sf","30","[""Asian""]","No","Male","1554146.400000006","null","","<p></p>","null","choice","dtc","repulsion_1","1","microwave ovens","null","null","null","null","null","null","2","","","","","","","","","",""
"","","","","","choice_trial","survey-html-form","141","1469098","0.0-5.0-1.28","124","1","2025-04-11 15:51:45","bb671e3ae32f654b8954ea4c4635f915","","Mozilla/5.0 (Macintosh; Intel Mac OS X 10_15_7) AppleWebKit/537.36 (KHTML, like Gecko) Chrome/135.0.0.0 Safari/537.36","Macintosh","Chrome","135.0.0.0","OS X","10_15_7","https://hz8g1ckzuq.cognition.run/","en-US,en;q=0.9","prjxtwdkjj394sf","30","[""Asian""]","No","Male","1554146.400000006","3228","","","{""product_choice"":""C""}","choice","dtc","repulsion_1","1","microwave ovens","null","null","null","null","null","null","2","100","90","100","30","40","25","Warranty","Cooking power","",""
"","","","","","choice_trial_setup","html-keyboard-response","142","1469405","0.0-5.0-0.29","124","1","2025-04-11 15:51:45","bb671e3ae32f654b8954ea4c4635f915","","Mozilla/5.0 (Macintosh; Intel Mac OS X 10_15_7) AppleWebKit/537.36 (KHTML, like Gecko) Chrome/135.0.0.0 Safari/537.36","Macintosh","Chrome","135.0.0.0","OS X","10_15_7","https://hz8g1ckzuq.cognition.run/","en-US,en;q=0.9","prjxtwdkjj394sf","30","[""Asian""]","No","Male","1554146.400000006","null","","<p></p>","null","choice","cdt","repulsion_1","2","laptops","null","null","null","null","null","null","1","","","","","","","","","",""
"","","","","","choice_trial","survey-html-form","143","1471748","0.0-5.0-1.29","124","1","2025-04-11 15:51:45","bb671e3ae32f654b8954ea4c4635f915","","Mozilla/5.0 (Macintosh; Intel Mac OS X 10_15_7) AppleWebKit/537.36 (KHTML, like Gecko) Chrome/135.0.0.0 Safari/537.36","Macintosh","Chrome","135.0.0.0","OS X","10_15_7","https://hz8g1ckzuq.cognition.run/","en-US,en;q=0.9","prjxtwdkjj394sf","30","[""Asian""]","No","Male","1554146.400000006","2337","","","{""product_choice"":""A""}","choice","cdt","repulsion_1","2","laptops","null","null","null","null","null","null","1","30","40","25","100","90","100","Processing speed","Memory (RAM)","",""
"","","","","","choice_trial_setup","html-keyboard-response","144","1472054","0.0-5.0-0.30","124","1","2025-04-11 15:51:45","bb671e3ae32f654b8954ea4c4635f915","","Mozilla/5.0 (Macintosh; Intel Mac OS X 10_15_7) AppleWebKit/537.36 (KHTML, like Gecko) Chrome/135.0.0.0 Safari/537.36","Macintosh","Chrome","135.0.0.0","OS X","10_15_7","https://hz8g1ckzuq.cognition.run/","en-US,en;q=0.9","prjxtwdkjj394sf","30","[""Asian""]","No","Male","1554146.400000006","null","","<p></p>","null","choice","bww","catch","null","microwave ovens","90","65","15","50","10","10","2","","","","","","","","","",""
"","","","","","choice_trial","survey-html-form","145","1473971","0.0-5.0-1.30","124","1","2025-04-11 15:51:45","bb671e3ae32f654b8954ea4c4635f915","","Mozilla/5.0 (Macintosh; Intel Mac OS X 10_15_7) AppleWebKit/537.36 (KHTML, like Gecko) Chrome/135.0.0.0 Safari/537.36","Macintosh","Chrome","135.0.0.0","OS X","10_15_7","https://hz8g1ckzuq.cognition.run/","en-US,en;q=0.9","prjxtwdkjj394sf","30","[""Asian""]","No","Male","1554146.400000006","1911","","","{""product_choice"":""A""}","choice","bww","catch","null","microwave ovens","90","65","15","50","10","10","2","null","null","null","null","null","null","Warranty","Cooking power","",""
"","","","","","choice_trial_setup","html-keyboard-response","146","1474276","0.0-5.0-0.31","124","1","2025-04-11 15:51:45","bb671e3ae32f654b8954ea4c4635f915","","Mozilla/5.0 (Macintosh; Intel Mac OS X 10_15_7) AppleWebKit/537.36 (KHTML, like Gecko) Chrome/135.0.0.0 Safari/537.36","Macintosh","Chrome","135.0.0.0","OS X","10_15_7","https://hz8g1ckzuq.cognition.run/","en-US,en;q=0.9","prjxtwdkjj394sf","30","[""Asian""]","No","Male","1554146.400000006","null","","<p></p>","null","choice","cdt","repulsion_1","2","microwave ovens","null","null","null","null","null","null","1","","","","","","","","","",""
"","","","","","choice_trial","survey-html-form","147","1477327","0.0-5.0-1.31","124","1","2025-04-11 15:51:45","bb671e3ae32f654b8954ea4c4635f915","","Mozilla/5.0 (Macintosh; Intel Mac OS X 10_15_7) AppleWebKit/537.36 (KHTML, like Gecko) Chrome/135.0.0.0 Safari/537.36","Macintosh","Chrome","135.0.0.0","OS X","10_15_7","https://hz8g1ckzuq.cognition.run/","en-US,en;q=0.9","prjxtwdkjj394sf","30","[""Asian""]","No","Male","1554146.400000006","3045","","","{""product_choice"":""C""}","choice","cdt","repulsion_1","2","microwave ovens","null","null","null","null","null","null","1","30","40","25","100","90","100","Warranty","Cooking power","",""
"","","","","","choice_trial_setup","html-keyboard-response","148","1477633","0.0-5.0-0.32","124","1","2025-04-11 15:51:45","bb671e3ae32f654b8954ea4c4635f915","","Mozilla/5.0 (Macintosh; Intel Mac OS X 10_15_7) AppleWebKit/537.36 (KHTML, like Gecko) Chrome/135.0.0.0 Safari/537.36","Macintosh","Chrome","135.0.0.0","OS X","10_15_7","https://hz8g1ckzuq.cognition.run/","en-US,en;q=0.9","prjxtwdkjj394sf","30","[""Asian""]","No","Male","1554146.400000006","null","","<p></p>","null","choice","dtc","attraction_1","1","microwave ovens","null","null","null","null","null","null","1","","","","","","","","","",""
"","","","","","choice_trial","survey-html-form","149","1481766","0.0-5.0-1.32","124","1","2025-04-11 15:51:45","bb671e3ae32f654b8954ea4c4635f915","","Mozilla/5.0 (Macintosh; Intel Mac OS X 10_15_7) AppleWebKit/537.36 (KHTML, like Gecko) Chrome/135.0.0.0 Safari/537.36","Macintosh","Chrome","135.0.0.0","OS X","10_15_7","https://hz8g1ckzuq.cognition.run/","en-US,en;q=0.9","prjxtwdkjj394sf","30","[""Asian""]","No","Male","1554146.400000006","4130","","","{""product_choice"":""C""}","choice","dtc","attraction_1","1","microwave ovens","null","null","null","null","null","null","1","60","50","60","50","60","45","Warranty","Cooking power","",""
"","","","","","choice_trial_setup","html-keyboard-response","150","1482072","0.0-5.0-0.33","124","1","2025-04-11 15:51:45","bb671e3ae32f654b8954ea4c4635f915","","Mozilla/5.0 (Macintosh; Intel Mac OS X 10_15_7) AppleWebKit/537.36 (KHTML, like Gecko) Chrome/135.0.0.0 Safari/537.36","Macintosh","Chrome","135.0.0.0","OS X","10_15_7","https://hz8g1ckzuq.cognition.run/","en-US,en;q=0.9","prjxtwdkjj394sf","30","[""Asian""]","No","Male","1554146.400000006","null","","<p></p>","null","choice","tdc","repulsion_1","2","washing machines","null","null","null","null","null","null","2","","","","","","","","","",""
"","","","","","choice_trial","survey-html-form","151","1487497","0.0-5.0-1.33","124","1","2025-04-11 15:51:45","bb671e3ae32f654b8954ea4c4635f915","","Mozilla/5.0 (Macintosh; Intel Mac OS X 10_15_7) AppleWebKit/537.36 (KHTML, like Gecko) Chrome/135.0.0.0 Safari/537.36","Macintosh","Chrome","135.0.0.0","OS X","10_15_7","https://hz8g1ckzuq.cognition.run/","en-US,en;q=0.9","prjxtwdkjj394sf","30","[""Asian""]","No","Male","1554146.400000006","5422","","","{""product_choice"":""A""}","choice","tdc","repulsion_1","2","washing machines","null","null","null","null","null","null","2","30","40","25","100","90","100","Average lifespan","Energy savings","",""
"","","","","","choice_trial_setup","html-keyboard-response","152","1487802","0.0-5.0-0.34","124","1","2025-04-11 15:51:45","bb671e3ae32f654b8954ea4c4635f915","","Mozilla/5.0 (Macintosh; Intel Mac OS X 10_15_7) AppleWebKit/537.36 (KHTML, like Gecko) Chrome/135.0.0.0 Safari/537.36","Macintosh","Chrome","135.0.0.0","OS X","10_15_7","https://hz8g1ckzuq.cognition.run/","en-US,en;q=0.9","prjxtwdkjj394sf","30","[""Asian""]","No","Male","1554146.400000006","null","","<p></p>","null","choice","cdt","attraction_1","2","televisions","null","null","null","null","null","null","2","","","","","","","","","",""
"","","","","","choice_trial","survey-html-form","153","1491433","0.0-5.0-1.34","124","1","2025-04-11 15:51:45","bb671e3ae32f654b8954ea4c4635f915","","Mozilla/5.0 (Macintosh; Intel Mac OS X 10_15_7) AppleWebKit/537.36 (KHTML, like Gecko) Chrome/135.0.0.0 Safari/537.36","Macintosh","Chrome","135.0.0.0","OS X","10_15_7","https://hz8g1ckzuq.cognition.run/","en-US,en;q=0.9","prjxtwdkjj394sf","30","[""Asian""]","No","Male","1554146.400000006","3624","","","{""product_choice"":""A""}","choice","cdt","attraction_1","2","televisions","null","null","null","null","null","null","2","50","60","45","60","50","60","Screen size","Average lifespan","",""
"","","","","","choice_trial_setup","html-keyboard-response","154","1491740","0.0-5.0-0.35","124","1","2025-04-11 15:51:45","bb671e3ae32f654b8954ea4c4635f915","","Mozilla/5.0 (Macintosh; Intel Mac OS X 10_15_7) AppleWebKit/537.36 (KHTML, like Gecko) Chrome/135.0.0.0 Safari/537.36","Macintosh","Chrome","135.0.0.0","OS X","10_15_7","https://hz8g1ckzuq.cognition.run/","en-US,en;q=0.9","prjxtwdkjj394sf","30","[""Asian""]","No","Male","1554146.400000006","null","","<p></p>","null","choice","ctd","repulsion_2","2","laptops","null","null","null","null","null","null","2","","","","","","","","","",""
"","","","","","choice_trial","survey-html-form","155","1494276","0.0-5.0-1.35","124","1","2025-04-11 15:51:45","bb671e3ae32f654b8954ea4c4635f915","","Mozilla/5.0 (Macintosh; Intel Mac OS X 10_15_7) AppleWebKit/537.36 (KHTML, like Gecko) Chrome/135.0.0.0 Safari/537.36","Macintosh","Chrome","135.0.0.0","OS X","10_15_7","https://hz8g1ckzuq.cognition.run/","en-US,en;q=0.9","prjxtwdkjj394sf","30","[""Asian""]","No","Male","1554146.400000006","2530","","","{""product_choice"":""A""}","choice","ctd","repulsion_2","2","laptops","null","null","null","null","null","null","2","30","40","20","100","90","100","Processing speed","Memory (RAM)","",""
