"success","timeout","failed_images","failed_audio","failed_video","screen_id","trial_type","trial_index","time_elapsed","internal_node_id","run_id","condition","recorded_at","source_code_version","ip","user_agent","device","browser","browser_version","platform","platform_version","referer","accept_language","ppt_id","rt","view_history","stimulus","response","phase","order","effect","t_high","category","d1_best","d2_best","d1_worst1","d2_worst1","d1_worst2","d2_worst2","first_dim","d1_t","d1_c","d1_d","d2_t","d2_c","d2_d","d1_name","d2_name"
"true","false","[]","[]","[]","img preload","preload","0","3568","0.0-0.0","125","1","2025-04-11 15:53:52","bb671e3ae32f654b8954ea4c4635f915","","Mozilla/5.0 (Windows NT 10.0; Win64; x64) AppleWebKit/537.36 (KHTML, like Gecko) Chrome/134.0.0.0 Safari/537.36","WebKit","Chrome","134.0.0.0","Windows","10.0","https://hz8g1ckzuq.cognition.run/","en-US,en;q=0.9","v236g6u58pbmtal","","","","","","","","","","","","","","","","","","","","","","","",""
"true","","","","","","fullscreen","1","6726","0.0-1.0","125","1","2025-04-11 15:53:52","bb671e3ae32f654b8954ea4c4635f915","","Mozilla/5.0 (Windows NT 10.0; Win64; x64) AppleWebKit/537.36 (KHTML, like Gecko) Chrome/134.0.0.0 Safari/537.36","WebKit","Chrome","134.0.0.0","Windows","10.0","https://hz8g1ckzuq.cognition.run/","en-US,en;q=0.9","v236g6u58pbmtal","2122","","","","","","","","","","","","","","","","","","","","","","",""
"","","","","","","instructions","2","19015","0.0-2.0","125","1","2025-04-11 15:53:52","bb671e3ae32f654b8954ea4c4635f915","","Mozilla/5.0 (Windows NT 10.0; Win64; x64) AppleWebKit/537.36 (KHTML, like Gecko) Chrome/134.0.0.0 Safari/537.36","WebKit","Chrome","134.0.0.0","Windows","10.0","https://hz8g1ckzuq.cognition.run/","en-US,en;q=0.9","v236g6u58pbmtal","12288","[{""page_index"":0,""viewing_time"":1102},{""page_index"":1,""viewing_time"":678},{""page_index"":2,""viewing_time"":2064},{""page_index"":3,""viewing_time"":1413},{""page_index"":4,""viewing_time"":639},{""page_index"":5,""viewing_time"":593},{""page_index"":6,""viewing_time"":511},{""page_index"":7,""viewing_time"":3265},{""page_index"":8,""viewing_time"":1078},{""page_index"":9,""viewing_time"":946}]","","","","","","","","","","","","","","","","","","","","","",""
"","","","","","rating_trial_setup","html-keyboard-response","3","19336","0.0-3.0-0.0","125","1","2025-04-11 15:53:52","bb671e3ae32f654b8954ea4c4635f915","","Mozilla/5.0 (Windows NT 10.0; Win64; x64) AppleWebKit/537.36 (KHTML, like Gecko) Chrome/134.0.0.0 Safari/537.36","WebKit","Chrome","134.0.0.0","Windows","10.0","https://hz8g1ckzuq.cognition.run/","en-US,en;q=0.9","v236g6u58pbmtal","null","","<p></p>","null","rating","wbw","catch","null","laptops","50","75","45","35","50","45","1","","","","","","","",""
"","","","","","rating_trial","survey-html-form","4","33380","0.0-3.0-1.0","125","1","2025-04-11 15:53:52","bb671e3ae32f654b8954ea4c4635f915","","Mozilla/5.0 (Windows NT 10.0; Win64; x64) AppleWebKit/537.36 (KHTML, like Gecko) Chrome/134.0.0.0 Safari/537.36","WebKit","Chrome","134.0.0.0","Windows","10.0","https://hz8g1ckzuq.cognition.run/","en-US,en;q=0.9","v236g6u58pbmtal","14010","","","{""price_1"":""200"",""price_2"":""200"",""price_3"":""3450""}","rating","wbw","catch","null","laptops","50","75","45","35","50","45","1","null","null","null","null","null","null","Processing speed","Memory (RAM)"
"","","","","","rating_trial_setup","html-keyboard-response","5","33682","0.0-3.0-0.1","125","1","2025-04-11 15:53:52","bb671e3ae32f654b8954ea4c4635f915","","Mozilla/5.0 (Windows NT 10.0; Win64; x64) AppleWebKit/537.36 (KHTML, like Gecko) Chrome/134.0.0.0 Safari/537.36","WebKit","Chrome","134.0.0.0","Windows","10.0","https://hz8g1ckzuq.cognition.run/","en-US,en;q=0.9","v236g6u58pbmtal","null","","<p></p>","null","rating","tcd","attraction_2","1","laptops","null","null","null","null","null","null","2","","","","","","","",""
"","","","","","rating_trial","survey-html-form","6","47892","0.0-3.0-1.1","125","1","2025-04-11 15:53:52","bb671e3ae32f654b8954ea4c4635f915","","Mozilla/5.0 (Windows NT 10.0; Win64; x64) AppleWebKit/537.36 (KHTML, like Gecko) Chrome/134.0.0.0 Safari/537.36","WebKit","Chrome","134.0.0.0","Windows","10.0","https://hz8g1ckzuq.cognition.run/","en-US,en;q=0.9","v236g6u58pbmtal","14208","","","{""price_1"":""560"",""price_2"":""650"",""price_3"":""460""}","rating","tcd","attraction_2","1","laptops","null","null","null","null","null","null","2","60","50","60","50","60","40","Processing speed","Memory (RAM)"
"","","","","","rating_trial_setup","html-keyboard-response","7","48194","0.0-3.0-0.2","125","1","2025-04-11 15:53:52","bb671e3ae32f654b8954ea4c4635f915","","Mozilla/5.0 (Windows NT 10.0; Win64; x64) AppleWebKit/537.36 (KHTML, like Gecko) Chrome/134.0.0.0 Safari/537.36","WebKit","Chrome","134.0.0.0","Windows","10.0","https://hz8g1ckzuq.cognition.run/","en-US,en;q=0.9","v236g6u58pbmtal","null","","<p></p>","null","rating","cdt","attraction_2","2","televisions","null","null","null","null","null","null","1","","","","","","","",""
"","","","","","rating_trial","survey-html-form","8","61668","0.0-3.0-1.2","125","1","2025-04-11 15:53:52","bb671e3ae32f654b8954ea4c4635f915","","Mozilla/5.0 (Windows NT 10.0; Win64; x64) AppleWebKit/537.36 (KHTML, like Gecko) Chrome/134.0.0.0 Safari/537.36","WebKit","Chrome","134.0.0.0","Windows","10.0","https://hz8g1ckzuq.cognition.run/","en-US,en;q=0.9","v236g6u58pbmtal","13471","","","{""price_1"":""560"",""price_2"":""460"",""price_3"":""560""}","rating","cdt","attraction_2","2","televisions","null","null","null","null","null","null","1","50","60","40","60","50","60","Screen size","Average lifespan"
"","","","","","rating_trial_setup","html-keyboard-response","9","61970","0.0-3.0-0.3","125","1","2025-04-11 15:53:52","bb671e3ae32f654b8954ea4c4635f915","","Mozilla/5.0 (Windows NT 10.0; Win64; x64) AppleWebKit/537.36 (KHTML, like Gecko) Chrome/134.0.0.0 Safari/537.36","WebKit","Chrome","134.0.0.0","Windows","10.0","https://hz8g1ckzuq.cognition.run/","en-US,en;q=0.9","v236g6u58pbmtal","null","","<p></p>","null","rating","dct","attraction_1","2","televisions","null","null","null","null","null","null","1","","","","","","","",""
"","","","","","rating_trial","survey-html-form","10","73428","0.0-3.0-1.3","125","1","2025-04-11 15:53:52","bb671e3ae32f654b8954ea4c4635f915","","Mozilla/5.0 (Windows NT 10.0; Win64; x64) AppleWebKit/537.36 (KHTML, like Gecko) Chrome/134.0.0.0 Safari/537.36","WebKit","Chrome","134.0.0.0","Windows","10.0","https://hz8g1ckzuq.cognition.run/","en-US,en;q=0.9","v236g6u58pbmtal","11455","","","{""price_1"":""456"",""price_2"":""650"",""price_3"":""560""}","rating","dct","attraction_1","2","televisions","null","null","null","null","null","null","1","50","60","45","60","50","60","Screen size","Average lifespan"
"","","","","","rating_trial_setup","html-keyboard-response","11","73730","0.0-3.0-0.4","125","1","2025-04-11 15:53:52","bb671e3ae32f654b8954ea4c4635f915","","Mozilla/5.0 (Windows NT 10.0; Win64; x64) AppleWebKit/537.36 (KHTML, like Gecko) Chrome/134.0.0.0 Safari/537.36","WebKit","Chrome","134.0.0.0","Windows","10.0","https://hz8g1ckzuq.cognition.run/","en-US,en;q=0.9","v236g6u58pbmtal","null","","<p></p>","null","rating","tdc","attraction_2","1","televisions","null","null","null","null","null","null","2","","","","","","","",""
"","","","","","rating_trial","survey-html-form","12","85831","0.0-3.0-1.4","125","1","2025-04-11 15:53:52","bb671e3ae32f654b8954ea4c4635f915","","Mozilla/5.0 (Windows NT 10.0; Win64; x64) AppleWebKit/537.36 (KHTML, like Gecko) Chrome/134.0.0.0 Safari/537.36","WebKit","Chrome","134.0.0.0","Windows","10.0","https://hz8g1ckzuq.cognition.run/","en-US,en;q=0.9","v236g6u58pbmtal","12097","","","{""price_1"":""560"",""price_2"":""460"",""price_3"":""650""}","rating","tdc","attraction_2","1","televisions","null","null","null","null","null","null","2","60","50","60","50","60","40","Screen size","Average lifespan"
"","","","","","rating_trial_setup","html-keyboard-response","13","86133","0.0-3.0-0.5","125","1","2025-04-11 15:53:52","bb671e3ae32f654b8954ea4c4635f915","","Mozilla/5.0 (Windows NT 10.0; Win64; x64) AppleWebKit/537.36 (KHTML, like Gecko) Chrome/134.0.0.0 Safari/537.36","WebKit","Chrome","134.0.0.0","Windows","10.0","https://hz8g1ckzuq.cognition.run/","en-US,en;q=0.9","v236g6u58pbmtal","null","","<p></p>","null","rating","ctd","attraction_2","1","washing machines","null","null","null","null","null","null","1","","","","","","","",""
"","","","","","rating_trial","survey-html-form","14","99182","0.0-3.0-1.5","125","1","2025-04-11 15:53:52","bb671e3ae32f654b8954ea4c4635f915","","Mozilla/5.0 (Windows NT 10.0; Win64; x64) AppleWebKit/537.36 (KHTML, like Gecko) Chrome/134.0.0.0 Safari/537.36","WebKit","Chrome","134.0.0.0","Windows","10.0","https://hz8g1ckzuq.cognition.run/","en-US,en;q=0.9","v236g6u58pbmtal","13045","","","{""price_1"":""5060"",""price_2"":""699"",""price_3"":""640""}","rating","ctd","attraction_2","1","washing machines","null","null","null","null","null","null","1","60","50","60","50","60","40","Average lifespan","Energy savings"
"","","","","","rating_trial_setup","html-keyboard-response","15","99485","0.0-3.0-0.6","125","1","2025-04-11 15:53:52","bb671e3ae32f654b8954ea4c4635f915","","Mozilla/5.0 (Windows NT 10.0; Win64; x64) AppleWebKit/537.36 (KHTML, like Gecko) Chrome/134.0.0.0 Safari/537.36","WebKit","Chrome","134.0.0.0","Windows","10.0","https://hz8g1ckzuq.cognition.run/","en-US,en;q=0.9","v236g6u58pbmtal","null","","<p></p>","null","rating","tdc","repulsion_1","1","microwave ovens","null","null","null","null","null","null","1","","","","","","","",""
"","","","","","rating_trial","survey-html-form","16","110719","0.0-3.0-1.6","125","1","2025-04-11 15:53:52","bb671e3ae32f654b8954ea4c4635f915","","Mozilla/5.0 (Windows NT 10.0; Win64; x64) AppleWebKit/537.36 (KHTML, like Gecko) Chrome/134.0.0.0 Safari/537.36","WebKit","Chrome","134.0.0.0","Windows","10.0","https://hz8g1ckzuq.cognition.run/","en-US,en;q=0.9","v236g6u58pbmtal","11233","","","{""price_1"":""230"",""price_2"":""22350"",""price_3"":""899""}","rating","tdc","repulsion_1","1","microwave ovens","null","null","null","null","null","null","1","100","90","100","30","40","25","Warranty","Cooking power"
"","","","","","rating_trial_setup","html-keyboard-response","17","111021","0.0-3.0-0.7","125","1","2025-04-11 15:53:52","bb671e3ae32f654b8954ea4c4635f915","","Mozilla/5.0 (Windows NT 10.0; Win64; x64) AppleWebKit/537.36 (KHTML, like Gecko) Chrome/134.0.0.0 Safari/537.36","WebKit","Chrome","134.0.0.0","Windows","10.0","https://hz8g1ckzuq.cognition.run/","en-US,en;q=0.9","v236g6u58pbmtal","null","","<p></p>","null","rating","ctd","repulsion_2","1","washing machines","null","null","null","null","null","null","2","","","","","","","",""
"","","","","","rating_trial","survey-html-form","18","120830","0.0-3.0-1.7","125","1","2025-04-11 15:53:52","bb671e3ae32f654b8954ea4c4635f915","","Mozilla/5.0 (Windows NT 10.0; Win64; x64) AppleWebKit/537.36 (KHTML, like Gecko) Chrome/134.0.0.0 Safari/537.36","WebKit","Chrome","134.0.0.0","Windows","10.0","https://hz8g1ckzuq.cognition.run/","en-US,en;q=0.9","v236g6u58pbmtal","9804","","","{""price_1"":""498"",""price_2"":""310"",""price_3"":""210""}","rating","ctd","repulsion_2","1","washing machines","null","null","null","null","null","null","2","100","90","100","30","40","20","Average lifespan","Energy savings"
"","","","","","rating_trial_setup","html-keyboard-response","19","121133","0.0-3.0-0.8","125","1","2025-04-11 15:53:52","bb671e3ae32f654b8954ea4c4635f915","","Mozilla/5.0 (Windows NT 10.0; Win64; x64) AppleWebKit/537.36 (KHTML, like Gecko) Chrome/134.0.0.0 Safari/537.36","WebKit","Chrome","134.0.0.0","Windows","10.0","https://hz8g1ckzuq.cognition.run/","en-US,en;q=0.9","v236g6u58pbmtal","null","","<p></p>","null","rating","dtc","repulsion_2","1","laptops","null","null","null","null","null","null","2","","","","","","","",""
"","","","","","rating_trial","survey-html-form","20","133804","0.0-3.0-1.8","125","1","2025-04-11 15:53:52","bb671e3ae32f654b8954ea4c4635f915","","Mozilla/5.0 (Windows NT 10.0; Win64; x64) AppleWebKit/537.36 (KHTML, like Gecko) Chrome/134.0.0.0 Safari/537.36","WebKit","Chrome","134.0.0.0","Windows","10.0","https://hz8g1ckzuq.cognition.run/","en-US,en;q=0.9","v236g6u58pbmtal","12668","","","{""price_1"":""210"",""price_2"":""310"",""price_3"":""490""}","rating","dtc","repulsion_2","1","laptops","null","null","null","null","null","null","2","100","90","100","30","40","20","Processing speed","Memory (RAM)"
"","","","","","rating_trial_setup","html-keyboard-response","21","134107","0.0-3.0-0.9","125","1","2025-04-11 15:53:52","bb671e3ae32f654b8954ea4c4635f915","","Mozilla/5.0 (Windows NT 10.0; Win64; x64) AppleWebKit/537.36 (KHTML, like Gecko) Chrome/134.0.0.0 Safari/537.36","WebKit","Chrome","134.0.0.0","Windows","10.0","https://hz8g1ckzuq.cognition.run/","en-US,en;q=0.9","v236g6u58pbmtal","null","","<p></p>","null","rating","wbw","catch","null","microwave ovens","95","50","35","25","10","50","1","","","","","","","",""
"","","","","","rating_trial","survey-html-form","22","151317","0.0-3.0-1.9","125","1","2025-04-11 15:53:52","bb671e3ae32f654b8954ea4c4635f915","","Mozilla/5.0 (Windows NT 10.0; Win64; x64) AppleWebKit/537.36 (KHTML, like Gecko) Chrome/134.0.0.0 Safari/537.36","WebKit","Chrome","134.0.0.0","Windows","10.0","https://hz8g1ckzuq.cognition.run/","en-US,en;q=0.9","v236g6u58pbmtal","17207","","","{""price_1"":""350"",""price_2"":""950"",""price_3"":""150""}","rating","wbw","catch","null","microwave ovens","95","50","35","25","10","50","1","null","null","null","null","null","null","Warranty","Cooking power"
"","","","","","rating_trial_setup","html-keyboard-response","23","151621","0.0-3.0-0.10","125","1","2025-04-11 15:53:52","bb671e3ae32f654b8954ea4c4635f915","","Mozilla/5.0 (Windows NT 10.0; Win64; x64) AppleWebKit/537.36 (KHTML, like Gecko) Chrome/134.0.0.0 Safari/537.36","WebKit","Chrome","134.0.0.0","Windows","10.0","https://hz8g1ckzuq.cognition.run/","en-US,en;q=0.9","v236g6u58pbmtal","null","","<p></p>","null","rating","ctd","attraction_1","1","televisions","null","null","null","null","null","null","2","","","","","","","",""
"","","","","","rating_trial","survey-html-form","24","158319","0.0-3.0-1.10","125","1","2025-04-11 15:53:52","bb671e3ae32f654b8954ea4c4635f915","","Mozilla/5.0 (Windows NT 10.0; Win64; x64) AppleWebKit/537.36 (KHTML, like Gecko) Chrome/134.0.0.0 Safari/537.36","WebKit","Chrome","134.0.0.0","Windows","10.0","https://hz8g1ckzuq.cognition.run/","en-US,en;q=0.9","v236g6u58pbmtal","6694","","","{""price_1"":""565"",""price_2"":""567"",""price_3"":""657""}","rating","ctd","attraction_1","1","televisions","null","null","null","null","null","null","2","60","50","60","50","60","45","Screen size","Average lifespan"
"","","","","","rating_trial_setup","html-keyboard-response","25","158622","0.0-3.0-0.11","125","1","2025-04-11 15:53:52","bb671e3ae32f654b8954ea4c4635f915","","Mozilla/5.0 (Windows NT 10.0; Win64; x64) AppleWebKit/537.36 (KHTML, like Gecko) Chrome/134.0.0.0 Safari/537.36","WebKit","Chrome","134.0.0.0","Windows","10.0","https://hz8g1ckzuq.cognition.run/","en-US,en;q=0.9","v236g6u58pbmtal","null","","<p></p>","null","rating","ctd","repulsion_1","2","laptops","null","null","null","null","null","null","1","","","","","","","",""
"","","","","","rating_trial","survey-html-form","26","169309","0.0-3.0-1.11","125","1","2025-04-11 15:53:52","bb671e3ae32f654b8954ea4c4635f915","","Mozilla/5.0 (Windows NT 10.0; Win64; x64) AppleWebKit/537.36 (KHTML, like Gecko) Chrome/134.0.0.0 Safari/537.36","WebKit","Chrome","134.0.0.0","Windows","10.0","https://hz8g1ckzuq.cognition.run/","en-US,en;q=0.9","v236g6u58pbmtal","10685","","","{""price_1"":""332"",""price_2"":""235"",""price_3"":""245""}","rating","ctd","repulsion_1","2","laptops","null","null","null","null","null","null","1","30","40","25","100","90","100","Processing speed","Memory (RAM)"
"","","","","","rating_trial_setup","html-keyboard-response","27","169613","0.0-3.0-0.12","125","1","2025-04-11 15:53:52","bb671e3ae32f654b8954ea4c4635f915","","Mozilla/5.0 (Windows NT 10.0; Win64; x64) AppleWebKit/537.36 (KHTML, like Gecko) Chrome/134.0.0.0 Safari/537.36","WebKit","Chrome","134.0.0.0","Windows","10.0","https://hz8g1ckzuq.cognition.run/","en-US,en;q=0.9","v236g6u58pbmtal","null","","<p></p>","null","rating","tcd","repulsion_1","1","televisions","null","null","null","null","null","null","1","","","","","","","",""
"","","","","","rating_trial","survey-html-form","28","177415","0.0-3.0-1.12","125","1","2025-04-11 15:53:52","bb671e3ae32f654b8954ea4c4635f915","","Mozilla/5.0 (Windows NT 10.0; Win64; x64) AppleWebKit/537.36 (KHTML, like Gecko) Chrome/134.0.0.0 Safari/537.36","WebKit","Chrome","134.0.0.0","Windows","10.0","https://hz8g1ckzuq.cognition.run/","en-US,en;q=0.9","v236g6u58pbmtal","7799","","","{""price_1"":""346"",""price_2"":""324"",""price_3"":""125""}","rating","tcd","repulsion_1","1","televisions","null","null","null","null","null","null","1","100","90","100","30","40","25","Screen size","Average lifespan"
"","","","","","rating_trial_setup","html-keyboard-response","29","177717","0.0-3.0-0.13","125","1","2025-04-11 15:53:52","bb671e3ae32f654b8954ea4c4635f915","","Mozilla/5.0 (Windows NT 10.0; Win64; x64) AppleWebKit/537.36 (KHTML, like Gecko) Chrome/134.0.0.0 Safari/537.36","WebKit","Chrome","134.0.0.0","Windows","10.0","https://hz8g1ckzuq.cognition.run/","en-US,en;q=0.9","v236g6u58pbmtal","null","","<p></p>","null","rating","dct","attraction_1","1","washing machines","null","null","null","null","null","null","2","","","","","","","",""
"","","","","","rating_trial","survey-html-form","30","190727","0.0-3.0-1.13","125","1","2025-04-11 15:53:52","bb671e3ae32f654b8954ea4c4635f915","","Mozilla/5.0 (Windows NT 10.0; Win64; x64) AppleWebKit/537.36 (KHTML, like Gecko) Chrome/134.0.0.0 Safari/537.36","WebKit","Chrome","134.0.0.0","Windows","10.0","https://hz8g1ckzuq.cognition.run/","en-US,en;q=0.9","v236g6u58pbmtal","13008","","","{""price_1"":""456"",""price_2"":""650"",""price_3"":""560""}","rating","dct","attraction_1","1","washing machines","null","null","null","null","null","null","2","60","50","60","50","60","45","Average lifespan","Energy savings"
"","","","","","rating_trial_setup","html-keyboard-response","31","191029","0.0-3.0-0.14","125","1","2025-04-11 15:53:52","bb671e3ae32f654b8954ea4c4635f915","","Mozilla/5.0 (Windows NT 10.0; Win64; x64) AppleWebKit/537.36 (KHTML, like Gecko) Chrome/134.0.0.0 Safari/537.36","WebKit","Chrome","134.0.0.0","Windows","10.0","https://hz8g1ckzuq.cognition.run/","en-US,en;q=0.9","v236g6u58pbmtal","null","","<p></p>","null","rating","wwb","catch","null","televisions","65","55","15","25","50","50","1","","","","","","","",""
"","","","","","rating_trial","survey-html-form","32","209335","0.0-3.0-1.14","125","1","2025-04-11 15:53:52","bb671e3ae32f654b8954ea4c4635f915","","Mozilla/5.0 (Windows NT 10.0; Win64; x64) AppleWebKit/537.36 (KHTML, like Gecko) Chrome/134.0.0.0 Safari/537.36","WebKit","Chrome","134.0.0.0","Windows","10.0","https://hz8g1ckzuq.cognition.run/","en-US,en;q=0.9","v236g6u58pbmtal","18302","","","{""price_1"":""1525"",""price_2"":""5060"",""price_3"":""655""}","rating","wwb","catch","null","televisions","65","55","15","25","50","50","1","null","null","null","null","null","null","Screen size","Average lifespan"
"","","","","","rating_trial_setup","html-keyboard-response","33","209638","0.0-3.0-0.15","125","1","2025-04-11 15:53:52","bb671e3ae32f654b8954ea4c4635f915","","Mozilla/5.0 (Windows NT 10.0; Win64; x64) AppleWebKit/537.36 (KHTML, like Gecko) Chrome/134.0.0.0 Safari/537.36","WebKit","Chrome","134.0.0.0","Windows","10.0","https://hz8g1ckzuq.cognition.run/","en-US,en;q=0.9","v236g6u58pbmtal","null","","<p></p>","null","rating","cdt","attraction_2","2","laptops","null","null","null","null","null","null","2","","","","","","","",""
"","","","","","rating_trial","survey-html-form","34","217433","0.0-3.0-1.15","125","1","2025-04-11 15:53:52","bb671e3ae32f654b8954ea4c4635f915","","Mozilla/5.0 (Windows NT 10.0; Win64; x64) AppleWebKit/537.36 (KHTML, like Gecko) Chrome/134.0.0.0 Safari/537.36","WebKit","Chrome","134.0.0.0","Windows","10.0","https://hz8g1ckzuq.cognition.run/","en-US,en;q=0.9","v236g6u58pbmtal","7791","","","{""price_1"":""5070"",""price_2"":""456"",""price_3"":""464""}","rating","cdt","attraction_2","2","laptops","null","null","null","null","null","null","2","50","60","40","60","50","60","Processing speed","Memory (RAM)"
"","","","","","rating_trial_setup","html-keyboard-response","35","217736","0.0-3.0-0.16","125","1","2025-04-11 15:53:52","bb671e3ae32f654b8954ea4c4635f915","","Mozilla/5.0 (Windows NT 10.0; Win64; x64) AppleWebKit/537.36 (KHTML, like Gecko) Chrome/134.0.0.0 Safari/537.36","WebKit","Chrome","134.0.0.0","Windows","10.0","https://hz8g1ckzuq.cognition.run/","en-US,en;q=0.9","v236g6u58pbmtal","null","","<p></p>","null","rating","cdt","repulsion_1","2","microwave ovens","null","null","null","null","null","null","1","","","","","","","",""
"","","","","","rating_trial","survey-html-form","36","222575","0.0-3.0-1.16","125","1","2025-04-11 15:53:52","bb671e3ae32f654b8954ea4c4635f915","","Mozilla/5.0 (Windows NT 10.0; Win64; x64) AppleWebKit/537.36 (KHTML, like Gecko) Chrome/134.0.0.0 Safari/537.36","WebKit","Chrome","134.0.0.0","Windows","10.0","https://hz8g1ckzuq.cognition.run/","en-US,en;q=0.9","v236g6u58pbmtal","4836","","","{""price_1"":""243"",""price_2"":""243"",""price_3"":""3556""}","rating","cdt","repulsion_1","2","microwave ovens","null","null","null","null","null","null","1","30","40","25","100","90","100","Warranty","Cooking power"
"","","","","","rating_trial_setup","html-keyboard-response","37","222878","0.0-3.0-0.17","125","1","2025-04-11 15:53:52","bb671e3ae32f654b8954ea4c4635f915","","Mozilla/5.0 (Windows NT 10.0; Win64; x64) AppleWebKit/537.36 (KHTML, like Gecko) Chrome/134.0.0.0 Safari/537.36","WebKit","Chrome","134.0.0.0","Windows","10.0","https://hz8g1ckzuq.cognition.run/","en-US,en;q=0.9","v236g6u58pbmtal","null","","<p></p>","null","rating","tdc","repulsion_1","2","televisions","null","null","null","null","null","null","1","","","","","","","",""
"","","","","","rating_trial","survey-html-form","38","227783","0.0-3.0-1.17","125","1","2025-04-11 15:53:52","bb671e3ae32f654b8954ea4c4635f915","","Mozilla/5.0 (Windows NT 10.0; Win64; x64) AppleWebKit/537.36 (KHTML, like Gecko) Chrome/134.0.0.0 Safari/537.36","WebKit","Chrome","134.0.0.0","Windows","10.0","https://hz8g1ckzuq.cognition.run/","en-US,en;q=0.9","v236g6u58pbmtal","4903","","","{""price_1"":""654"",""price_2"":""354"",""price_3"":""355""}","rating","tdc","repulsion_1","2","televisions","null","null","null","null","null","null","1","30","40","25","100","90","100","Screen size","Average lifespan"
"","","","","","rating_trial_setup","html-keyboard-response","39","228086","0.0-3.0-0.18","125","1","2025-04-11 15:53:52","bb671e3ae32f654b8954ea4c4635f915","","Mozilla/5.0 (Windows NT 10.0; Win64; x64) AppleWebKit/537.36 (KHTML, like Gecko) Chrome/134.0.0.0 Safari/537.36","WebKit","Chrome","134.0.0.0","Windows","10.0","https://hz8g1ckzuq.cognition.run/","en-US,en;q=0.9","v236g6u58pbmtal","null","","<p></p>","null","rating","dct","repulsion_2","2","microwave ovens","null","null","null","null","null","null","1","","","","","","","",""