"success","timeout","failed_images","failed_audio","failed_video","screen_id","trial_type","trial_index","time_elapsed","internal_node_id","run_id","condition","recorded_at","source_code_version","ip","user_agent","device","browser","browser_version","platform","platform_version","referer","accept_language","ppt_id","age","race","ethnicity","gender","exp_duration","rt","view_history","stimulus","response","phase","order","effect","t_high","category","d1_best","d2_best","d1_worst1","d2_worst1","d1_worst2","d2_worst2","first_dim","d1_t","d1_c","d1_d","d2_t","d2_c","d2_d","d1_name","d2_name","strategy_response","question_order"
"true","false","[]","[]","[]","img preload","preload","0","4736","0.0-0.0","128","1","2025-04-11 16:18:35","bb671e3ae32f654b8954ea4c4635f915","","Mozilla/5.0 (Windows NT 10.0; WOW64) AppleWebKit/537.36 (KHTML, like Gecko) Chrome/130.0.0.0 Safari/537.36","WebKit","Chrome","130.0.0.0","Windows","10.0","https://hz8g1ckzuq.cognition.run/","en,en-US;q=0.9;q=0.9","y8f6nxc0tfb9539","61","[""White""]","No","Female","2874715.399999976","","","","","","","","","","","","","","","","","","","","","","","","","",""
"true","","","","","","fullscreen","1","281682","0.0-1.0","128","1","2025-04-11 16:18:35","bb671e3ae32f654b8954ea4c4635f915","","Mozilla/5.0 (Windows NT 10.0; WOW64) AppleWebKit/537.36 (KHTML, like Gecko) Chrome/130.0.0.0 Safari/537.36","WebKit","Chrome","130.0.0.0","Windows","10.0","https://hz8g1ckzuq.cognition.run/","en,en-US;q=0.9;q=0.9","y8f6nxc0tfb9539","61","[""White""]","No","Female","2874715.399999976","275919","","","","","","","","","","","","","","","","","","","","","","","","",""
"","","","","","","instructions","2","533252","0.0-2.0","128","1","2025-04-11 16:18:35","bb671e3ae32f654b8954ea4c4635f915","","Mozilla/5.0 (Windows NT 10.0; WOW64) AppleWebKit/537.36 (KHTML, like Gecko) Chrome/130.0.0.0 Safari/537.36","WebKit","Chrome","130.0.0.0","Windows","10.0","https://hz8g1ckzuq.cognition.run/","en,en-US;q=0.9;q=0.9","y8f6nxc0tfb9539","61","[""White""]","No","Female","2874715.399999976","251568","[{""page_index"":0,""viewing_time"":27030},{""page_index"":1,""viewing_time"":32515},{""page_index"":2,""viewing_time"":13454},{""page_index"":3,""viewing_time"":20859},{""page_index"":4,""viewing_time"":37752},{""page_index"":5,""viewing_time"":9426},{""page_index"":6,""viewing_time"":30044},{""page_index"":7,""viewing_time"":56328},{""page_index"":8,""viewing_time"":13467},{""page_index"":9,""viewing_time"":10691}]","","","","","","","","","","","","","","","","","","","","","","","",""
"","","","","","rating_trial_setup","html-keyboard-response","3","533572","0.0-3.0-0.0","128","1","2025-04-11 16:18:35","bb671e3ae32f654b8954ea4c4635f915","","Mozilla/5.0 (Windows NT 10.0; WOW64) AppleWebKit/537.36 (KHTML, like Gecko) Chrome/130.0.0.0 Safari/537.36","WebKit","Chrome","130.0.0.0","Windows","10.0","https://hz8g1ckzuq.cognition.run/","en,en-US;q=0.9;q=0.9","y8f6nxc0tfb9539","61","[""White""]","No","Female","2874715.399999976","null","","<p></p>","null","rating","tcd","attraction_2","2","washing machines","null","null","null","null","null","null","1","","","","","","","","","",""
"","","","","","rating_trial","survey-html-form","4","972551","0.0-3.0-1.0","128","1","2025-04-11 16:18:35","bb671e3ae32f654b8954ea4c4635f915","","Mozilla/5.0 (Windows NT 10.0; WOW64) AppleWebKit/537.36 (KHTML, like Gecko) Chrome/130.0.0.0 Safari/537.36","WebKit","Chrome","130.0.0.0","Windows","10.0","https://hz8g1ckzuq.cognition.run/","en,en-US;q=0.9;q=0.9","y8f6nxc0tfb9539","61","[""White""]","No","Female","2874715.399999976","438977","","","{""price_1"":""110"",""price_2"":""90"",""price_3"":""81""}","rating","tcd","attraction_2","2","washing machines","null","null","null","null","null","null","1","50","60","40","60","50","60","Average lifespan","Energy savings","",""
"","","","","","rating_trial_setup","html-keyboard-response","5","972854","0.0-3.0-0.1","128","1","2025-04-11 16:18:35","bb671e3ae32f654b8954ea4c4635f915","","Mozilla/5.0 (Windows NT 10.0; WOW64) AppleWebKit/537.36 (KHTML, like Gecko) Chrome/130.0.0.0 Safari/537.36","WebKit","Chrome","130.0.0.0","Windows","10.0","https://hz8g1ckzuq.cognition.run/","en,en-US;q=0.9;q=0.9","y8f6nxc0tfb9539","61","[""White""]","No","Female","2874715.399999976","null","","<p></p>","null","rating","dtc","repulsion_1","1","washing machines","null","null","null","null","null","null","2","","","","","","","","","",""
"","","","","","rating_trial","survey-html-form","6","998467","0.0-3.0-1.1","128","1","2025-04-11 16:18:35","bb671e3ae32f654b8954ea4c4635f915","","Mozilla/5.0 (Windows NT 10.0; WOW64) AppleWebKit/537.36 (KHTML, like Gecko) Chrome/130.0.0.0 Safari/537.36","WebKit","Chrome","130.0.0.0","Windows","10.0","https://hz8g1ckzuq.cognition.run/","en,en-US;q=0.9;q=0.9","y8f6nxc0tfb9539","61","[""White""]","No","Female","2874715.399999976","25610","","","{""price_1"":""120"",""price_2"":""110"",""price_3"":""80""}","rating","dtc","repulsion_1","1","washing machines","null","null","null","null","null","null","2","100","90","100","30","40","25","Average lifespan","Energy savings","",""
"","","","","","rating_trial_setup","html-keyboard-response","7","998769","0.0-3.0-0.2","128","1","2025-04-11 16:18:35","bb671e3ae32f654b8954ea4c4635f915","","Mozilla/5.0 (Windows NT 10.0; WOW64) AppleWebKit/537.36 (KHTML, like Gecko) Chrome/130.0.0.0 Safari/537.36","WebKit","Chrome","130.0.0.0","Windows","10.0","https://hz8g1ckzuq.cognition.run/","en,en-US;q=0.9;q=0.9","y8f6nxc0tfb9539","61","[""White""]","No","Female","2874715.399999976","null","","<p></p>","null","rating","tdc","attraction_1","2","laptops","null","null","null","null","null","null","1","","","","","","","","","",""
"","","","","","rating_trial","survey-html-form","8","1020063","0.0-3.0-1.2","128","1","2025-04-11 16:18:35","bb671e3ae32f654b8954ea4c4635f915","","Mozilla/5.0 (Windows NT 10.0; WOW64) AppleWebKit/537.36 (KHTML, like Gecko) Chrome/130.0.0.0 Safari/537.36","WebKit","Chrome","130.0.0.0","Windows","10.0","https://hz8g1ckzuq.cognition.run/","en,en-US;q=0.9;q=0.9","y8f6nxc0tfb9539","61","[""White""]","No","Female","2874715.399999976","21290","","","{""price_1"":""250"",""price_2"":""230"",""price_3"":""200""}","rating","tdc","attraction_1","2","laptops","null","null","null","null","null","null","1","50","60","45","60","50","60","Processing speed","Memory (RAM)","",""
"","","","","","rating_trial_setup","html-keyboard-response","9","1020365","0.0-3.0-0.3","128","1","2025-04-11 16:18:35","bb671e3ae32f654b8954ea4c4635f915","","Mozilla/5.0 (Windows NT 10.0; WOW64) AppleWebKit/537.36 (KHTML, like Gecko) Chrome/130.0.0.0 Safari/537.36","WebKit","Chrome","130.0.0.0","Windows","10.0","https://hz8g1ckzuq.cognition.run/","en,en-US;q=0.9;q=0.9","y8f6nxc0tfb9539","61","[""White""]","No","Female","2874715.399999976","null","","<p></p>","null","rating","tcd","repulsion_1","2","televisions","null","null","null","null","null","null","2","","","","","","","","","",""
"","","","","","rating_trial","survey-html-form","10","1042248","0.0-3.0-1.3","128","1","2025-04-11 16:18:35","bb671e3ae32f654b8954ea4c4635f915","","Mozilla/5.0 (Windows NT 10.0; WOW64) AppleWebKit/537.36 (KHTML, like Gecko) Chrome/130.0.0.0 Safari/537.36","WebKit","Chrome","130.0.0.0","Windows","10.0","https://hz8g1ckzuq.cognition.run/","en,en-US;q=0.9;q=0.9","y8f6nxc0tfb9539","61","[""White""]","No","Female","2874715.399999976","21878","","","{""price_1"":""180"",""price_2"":""150"",""price_3"":""110""}","rating","tcd","repulsion_1","2","televisions","null","null","null","null","null","null","2","30","40","25","100","90","100","Screen size","Average lifespan","",""
"","","","","","rating_trial_setup","html-keyboard-response","11","1042551","0.0-3.0-0.4","128","1","2025-04-11 16:18:35","bb671e3ae32f654b8954ea4c4635f915","","Mozilla/5.0 (Windows NT 10.0; WOW64) AppleWebKit/537.36 (KHTML, like Gecko) Chrome/130.0.0.0 Safari/537.36","WebKit","Chrome","130.0.0.0","Windows","10.0","https://hz8g1ckzuq.cognition.run/","en,en-US;q=0.9;q=0.9","y8f6nxc0tfb9539","61","[""White""]","No","Female","2874715.399999976","null","","<p></p>","null","rating","dct","repulsion_2","2","washing machines","null","null","null","null","null","null","2","","","","","","","","","",""
"","","","","","rating_trial","survey-html-form","12","1060263","0.0-3.0-1.4","128","1","2025-04-11 16:18:35","bb671e3ae32f654b8954ea4c4635f915","","Mozilla/5.0 (Windows NT 10.0; WOW64) AppleWebKit/537.36 (KHTML, like Gecko) Chrome/130.0.0.0 Safari/537.36","WebKit","Chrome","130.0.0.0","Windows","10.0","https://hz8g1ckzuq.cognition.run/","en,en-US;q=0.9;q=0.9","y8f6nxc0tfb9539","61","[""White""]","No","Female","2874715.399999976","17707","","","{""price_1"":""180"",""price_2"":""150"",""price_3"":""110""}","rating","dct","repulsion_2","2","washing machines","null","null","null","null","null","null","2","30","40","20","100","90","100","Average lifespan","Energy savings","",""
"","","","","","rating_trial_setup","html-keyboard-response","13","1060566","0.0-3.0-0.5","128","1","2025-04-11 16:18:35","bb671e3ae32f654b8954ea4c4635f915","","Mozilla/5.0 (Windows NT 10.0; WOW64) AppleWebKit/537.36 (KHTML, like Gecko) Chrome/130.0.0.0 Safari/537.36","WebKit","Chrome","130.0.0.0","Windows","10.0","https://hz8g1ckzuq.cognition.run/","en,en-US;q=0.9;q=0.9","y8f6nxc0tfb9539","61","[""White""]","No","Female","2874715.399999976","null","","<p></p>","null","rating","ctd","attraction_1","1","microwave ovens","null","null","null","null","null","null","1","","","","","","","","","",""
"","","","","","rating_trial","survey-html-form","14","1082155","0.0-3.0-1.5","128","1","2025-04-11 16:18:35","bb671e3ae32f654b8954ea4c4635f915","","Mozilla/5.0 (Windows NT 10.0; WOW64) AppleWebKit/537.36 (KHTML, like Gecko) Chrome/130.0.0.0 Safari/537.36","WebKit","Chrome","130.0.0.0","Windows","10.0","https://hz8g1ckzuq.cognition.run/","en,en-US;q=0.9;q=0.9","y8f6nxc0tfb9539","61","[""White""]","No","Female","2874715.399999976","21584","","","{""price_1"":""80"",""price_2"":""70"",""price_3"":""50""}","rating","ctd","attraction_1","1","microwave ovens","null","null","null","null","null","null","1","60","50","60","50","60","45","Warranty","Cooking power","",""
"","","","","","rating_trial_setup","html-keyboard-response","15","1082457","0.0-3.0-0.6","128","1","2025-04-11 16:18:35","bb671e3ae32f654b8954ea4c4635f915","","Mozilla/5.0 (Windows NT 10.0; WOW64) AppleWebKit/537.36 (KHTML, like Gecko) Chrome/130.0.0.0 Safari/537.36","WebKit","Chrome","130.0.0.0","Windows","10.0","https://hz8g1ckzuq.cognition.run/","en,en-US;q=0.9;q=0.9","y8f6nxc0tfb9539","61","[""White""]","No","Female","2874715.399999976","null","","<p></p>","null","rating","wwb","catch","null","microwave ovens","95","60","15","15","30","45","2","","","","","","","","","",""
"","","","","","rating_trial","survey-html-form","16","1099790","0.0-3.0-1.6","128","1","2025-04-11 16:18:35","bb671e3ae32f654b8954ea4c4635f915","","Mozilla/5.0 (Windows NT 10.0; WOW64) AppleWebKit/537.36 (KHTML, like Gecko) Chrome/130.0.0.0 Safari/537.36","WebKit","Chrome","130.0.0.0","Windows","10.0","https://hz8g1ckzuq.cognition.run/","en,en-US;q=0.9;q=0.9","y8f6nxc0tfb9539","61","[""White""]","No","Female","2874715.399999976","17328","","","{""price_1"":""55"",""price_2"":""69"",""price_3"":""60""}","rating","wwb","catch","null","microwave ovens","95","60","15","15","30","45","2","null","null","null","null","null","null","Warranty","Cooking power","",""
"","","","","","rating_trial_setup","html-keyboard-response","17","1100094","0.0-3.0-0.7","128","1","2025-04-11 16:18:35","bb671e3ae32f654b8954ea4c4635f915","","Mozilla/5.0 (Windows NT 10.0; WOW64) AppleWebKit/537.36 (KHTML, like Gecko) Chrome/130.0.0.0 Safari/537.36","WebKit","Chrome","130.0.0.0","Windows","10.0","https://hz8g1ckzuq.cognition.run/","en,en-US;q=0.9;q=0.9","y8f6nxc0tfb9539","61","[""White""]","No","Female","2874715.399999976","null","","<p></p>","null","rating","tcd","repulsion_1","1","microwave ovens","null","null","null","null","null","null","2","","","","","","","","","",""
"","","","","","rating_trial","survey-html-form","18","1119116","0.0-3.0-1.7","128","1","2025-04-11 16:18:35","bb671e3ae32f654b8954ea4c4635f915","","Mozilla/5.0 (Windows NT 10.0; WOW64) AppleWebKit/537.36 (KHTML, like Gecko) Chrome/130.0.0.0 Safari/537.36","WebKit","Chrome","130.0.0.0","Windows","10.0","https://hz8g1ckzuq.cognition.run/","en,en-US;q=0.9;q=0.9","y8f6nxc0tfb9539","61","[""White""]","No","Female","2874715.399999976","19020","","","{""price_1"":""80"",""price_2"":""68"",""price_3"":""80""}","rating","tcd","repulsion_1","1","microwave ovens","null","null","null","null","null","null","2","100","90","100","30","40","25","Warranty","Cooking power","",""
"","","","","","rating_trial_setup","html-keyboard-response","19","1119434","0.0-3.0-0.8","128","1","2025-04-11 16:18:35","bb671e3ae32f654b8954ea4c4635f915","","Mozilla/5.0 (Windows NT 10.0; WOW64) AppleWebKit/537.36 (KHTML, like Gecko) Chrome/130.0.0.0 Safari/537.36","WebKit","Chrome","130.0.0.0","Windows","10.0","https://hz8g1ckzuq.cognition.run/","en,en-US;q=0.9;q=0.9","y8f6nxc0tfb9539","61","[""White""]","No","Female","2874715.399999976","null","","<p></p>","null","rating","dct","repulsion_2","1","laptops","null","null","null","null","null","null","1","","","","","","","","","",""
"","","","","","rating_trial","survey-html-form","20","1147397","0.0-3.0-1.8","128","1","2025-04-11 16:18:35","bb671e3ae32f654b8954ea4c4635f915","","Mozilla/5.0 (Windows NT 10.0; WOW64) AppleWebKit/537.36 (KHTML, like Gecko) Chrome/130.0.0.0 Safari/537.36","WebKit","Chrome","130.0.0.0","Windows","10.0","https://hz8g1ckzuq.cognition.run/","en,en-US;q=0.9;q=0.9","y8f6nxc0tfb9539","61","[""White""]","No","Female","2874715.399999976","27958","","","{""price_1"":""180"",""price_2"":""250"",""price_3"":""210""}","rating","dct","repulsion_2","1","laptops","null","null","null","null","null","null","1","100","90","100","30","40","20","Processing speed","Memory (RAM)","",""
"","","","","","rating_trial_setup","html-keyboard-response","21","1147700","0.0-3.0-0.9","128","1","2025-04-11 16:18:35","bb671e3ae32f654b8954ea4c4635f915","","Mozilla/5.0 (Windows NT 10.0; WOW64) AppleWebKit/537.36 (KHTML, like Gecko) Chrome/130.0.0.0 Safari/537.36","WebKit","Chrome","130.0.0.0","Windows","10.0","https://hz8g1ckzuq.cognition.run/","en,en-US;q=0.9;q=0.9","y8f6nxc0tfb9539","61","[""White""]","No","Female","2874715.399999976","null","","<p></p>","null","rating","cdt","repulsion_2","1","microwave ovens","null","null","null","null","null","null","1","","","","","","","","","",""
"","","","","","rating_trial","survey-html-form","22","1162981","0.0-3.0-1.9","128","1","2025-04-11 16:18:35","bb671e3ae32f654b8954ea4c4635f915","","Mozilla/5.0 (Windows NT 10.0; WOW64) AppleWebKit/537.36 (KHTML, like Gecko) Chrome/130.0.0.0 Safari/537.36","WebKit","Chrome","130.0.0.0","Windows","10.0","https://hz8g1ckzuq.cognition.run/","en,en-US;q=0.9;q=0.9","y8f6nxc0tfb9539","61","[""White""]","No","Female","2874715.399999976","15277","","","{""price_1"":""100"",""price_2"":""80"",""price_3"":""60""}","rating","cdt","repulsion_2","1","microwave ovens","null","null","null","null","null","null","1","100","90","100","30","40","20","Warranty","Cooking power","",""
"","","","","","rating_trial_setup","html-keyboard-response","23","1163284","0.0-3.0-0.10","128","1","2025-04-11 16:18:35","bb671e3ae32f654b8954ea4c4635f915","","Mozilla/5.0 (Windows NT 10.0; WOW64) AppleWebKit/537.36 (KHTML, like Gecko) Chrome/130.0.0.0 Safari/537.36","WebKit","Chrome","130.0.0.0","Windows","10.0","https://hz8g1ckzuq.cognition.run/","en,en-US;q=0.9;q=0.9","y8f6nxc0tfb9539","61","[""White""]","No","Female","2874715.399999976","null","","<p></p>","null","rating","ctd","repulsion_2","1","televisions","null","null","null","null","null","null","2","","","","","","","","","",""
"","","","","","rating_trial","survey-html-form","24","1185405","0.0-3.0-1.10","128","1","2025-04-11 16:18:35","bb671e3ae32f654b8954ea4c4635f915","","Mozilla/5.0 (Windows NT 10.0; WOW64) AppleWebKit/537.36 (KHTML, like Gecko) Chrome/130.0.0.0 Safari/537.36","WebKit","Chrome","130.0.0.0","Windows","10.0","https://hz8g1ckzuq.cognition.run/","en,en-US;q=0.9;q=0.9","y8f6nxc0tfb9539","61","[""White""]","No","Female","2874715.399999976","22116","","","{""price_1"":""139"",""price_2"":""120"",""price_3"":""230""}","rating","ctd","repulsion_2","1","televisions","null","null","null","null","null","null","2","100","90","100","30","40","20","Screen size","Average lifespan","",""
"","","","","","rating_trial_setup","html-keyboard-response","25","1185708","0.0-3.0-0.11","128","1","2025-04-11 16:18:35","bb671e3ae32f654b8954ea4c4635f915","","Mozilla/5.0 (Windows NT 10.0; WOW64) AppleWebKit/537.36 (KHTML, like Gecko) Chrome/130.0.0.0 Safari/537.36","WebKit","Chrome","130.0.0.0","Windows","10.0","https://hz8g1ckzuq.cognition.run/","en,en-US;q=0.9;q=0.9","y8f6nxc0tfb9539","61","[""White""]","No","Female","2874715.399999976","null","","<p></p>","null","rating","dct","repulsion_2","2","televisions","null","null","null","null","null","null","1","","","","","","","","","",""
"","","","","","rating_trial","survey-html-form","26","1200630","0.0-3.0-1.11","128","1","2025-04-11 16:18:35","bb671e3ae32f654b8954ea4c4635f915","","Mozilla/5.0 (Windows NT 10.0; WOW64) AppleWebKit/537.36 (KHTML, like Gecko) Chrome/130.0.0.0 Safari/537.36","WebKit","Chrome","130.0.0.0","Windows","10.0","https://hz8g1ckzuq.cognition.run/","en,en-US;q=0.9;q=0.9","y8f6nxc0tfb9539","61","[""White""]","No","Female","2874715.399999976","14917","","","{""price_1"":""200"",""price_2"":""210"",""price_3"":""180""}","rating","dct","repulsion_2","2","televisions","null","null","null","null","null","null","1","30","40","20","100","90","100","Screen size","Average lifespan","",""
"","","","","","rating_trial_setup","html-keyboard-response","27","1200934","0.0-3.0-0.12","128","1","2025-04-11 16:18:35","bb671e3ae32f654b8954ea4c4635f915","","Mozilla/5.0 (Windows NT 10.0; WOW64) AppleWebKit/537.36 (KHTML, like Gecko) Chrome/130.0.0.0 Safari/537.36","WebKit","Chrome","130.0.0.0","Windows","10.0","https://hz8g1ckzuq.cognition.run/","en,en-US;q=0.9;q=0.9","y8f6nxc0tfb9539","61","[""White""]","No","Female","2874715.399999976","null","","<p></p>","null","rating","tdc","attraction_2","1","microwave ovens","null","null","null","null","null","null","1","","","","","","","","","",""
"","","","","","rating_trial","survey-html-form","28","1223207","0.0-3.0-1.12","128","1","2025-04-11 16:18:35","bb671e3ae32f654b8954ea4c4635f915","","Mozilla/5.0 (Windows NT 10.0; WOW64) AppleWebKit/537.36 (KHTML, like Gecko) Chrome/130.0.0.0 Safari/537.36","WebKit","Chrome","130.0.0.0","Windows","10.0","https://hz8g1ckzuq.cognition.run/","en,en-US;q=0.9;q=0.9","y8f6nxc0tfb9539","61","[""White""]","No","Female","2874715.399999976","22268","","","{""price_1"":""189"",""price_2"":""150"",""price_3"":""140""}","rating","tdc","attraction_2","1","microwave ovens","null","null","null","null","null","null","1","60","50","60","50","60","40","Warranty","Cooking power","",""
"","","","","","rating_trial_setup","html-keyboard-response","29","1223510","0.0-3.0-0.13","128","1","2025-04-11 16:18:35","bb671e3ae32f654b8954ea4c4635f915","","Mozilla/5.0 (Windows NT 10.0; WOW64) AppleWebKit/537.36 (KHTML, like Gecko) Chrome/130.0.0.0 Safari/537.36","WebKit","Chrome","130.0.0.0","Windows","10.0","https://hz8g1ckzuq.cognition.run/","en,en-US;q=0.9;q=0.9","y8f6nxc0tfb9539","61","[""White""]","No","Female","2874715.399999976","null","","<p></p>","null","rating","bww","catch","null","televisions","70","80","5","10","45","50","2","","","","","","","","","",""
"","","","","","rating_trial","survey-html-form","30","1241959","0.0-3.0-1.13","128","1","2025-04-11 16:18:35","bb671e3ae32f654b8954ea4c4635f915","","Mozilla/5.0 (Windows NT 10.0; WOW64) AppleWebKit/537.36 (KHTML, like Gecko) Chrome/130.0.0.0 Safari/537.36","WebKit","Chrome","130.0.0.0","Windows","10.0","https://hz8g1ckzuq.cognition.run/","en,en-US;q=0.9;q=0.9","y8f6nxc0tfb9539","61","[""White""]","No","Female","2874715.399999976","18443","","","{""price_1"":""259"",""price_2"":""200"",""price_3"":""189""}","rating","bww","catch","null","televisions","70","80","5","10","45","50","2","null","null","null","null","null","null","Screen size","Average lifespan","",""
"","","","","","rating_trial_setup","html-keyboard-response","31","1242262","0.0-3.0-0.14","128","1","2025-04-11 16:18:35","bb671e3ae32f654b8954ea4c4635f915","","Mozilla/5.0 (Windows NT 10.0; WOW64) AppleWebKit/537.36 (KHTML, like Gecko) Chrome/130.0.0.0 Safari/537.36","WebKit","Chrome","130.0.0.0","Windows","10.0","https://hz8g1ckzuq.cognition.run/","en,en-US;q=0.9;q=0.9","y8f6nxc0tfb9539","61","[""White""]","No","Female","2874715.399999976","null","","<p></p>","null","rating","dtc","attraction_1","1","televisions","null","null","null","null","null","null","1","","","","","","","","","",""
"","","","","","rating_trial","survey-html-form","32","1261821","0.0-3.0-1.14","128","1","2025-04-11 16:18:35","bb671e3ae32f654b8954ea4c4635f915","","Mozilla/5.0 (Windows NT 10.0; WOW64) AppleWebKit/537.36 (KHTML, like Gecko) Chrome/130.0.0.0 Safari/537.36","WebKit","Chrome","130.0.0.0","Windows","10.0","https://hz8g1ckzuq.cognition.run/","en,en-US;q=0.9;q=0.9","y8f6nxc0tfb9539","61","[""White""]","No","Female","2874715.399999976","19554","","","{""price_1"":""300"",""price_2"":""280"",""price_3"":""250""}","rating","dtc","attraction_1","1","televisions","null","null","null","null","null","null","1","60","50","60","50","60","45","Screen size","Average lifespan","",""
"","","","","","rating_trial_setup","html-keyboard-response","33","1262124","0.0-3.0-0.15","128","1","2025-04-11 16:18:35","bb671e3ae32f654b8954ea4c4635f915","","Mozilla/5.0 (Windows NT 10.0; WOW64) AppleWebKit/537.36 (KHTML, like Gecko) Chrome/130.0.0.0 Safari/537.36","WebKit","Chrome","130.0.0.0","Windows","10.0","https://hz8g1ckzuq.cognition.run/","en,en-US;q=0.9;q=0.9","y8f6nxc0tfb9539","61","[""White""]","No","Female","2874715.399999976","null","","<p></p>","null","rating","tdc","repulsion_1","2","microwave ovens","null","null","null","null","null","null","2","","","","","","","","","",""
"","","","","","rating_trial","survey-html-form","34","1285615","0.0-3.0-1.15","128","1","2025-04-11 16:18:35","bb671e3ae32f654b8954ea4c4635f915","","Mozilla/5.0 (Windows NT 10.0; WOW64) AppleWebKit/537.36 (KHTML, like Gecko) Chrome/130.0.0.0 Safari/537.36","WebKit","Chrome","130.0.0.0","Windows","10.0","https://hz8g1ckzuq.cognition.run/","en,en-US;q=0.9;q=0.9","y8f6nxc0tfb9539","61","[""White""]","No","Female","2874715.399999976","23486","","","{""price_1"":""170"",""price_2"":""150"",""price_3"":""120""}","rating","tdc","repulsion_1","2","microwave ovens","null","null","null","null","null","null","2","30","40","25","100","90","100","Warranty","Cooking power","",""
"","","","","","rating_trial_setup","html-keyboard-response","35","1285917","0.0-3.0-0.16","128","1","2025-04-11 16:18:35","bb671e3ae32f654b8954ea4c4635f915","","Mozilla/5.0 (Windows NT 10.0; WOW64) AppleWebKit/537.36 (KHTML, like Gecko) Chrome/130.0.0.0 Safari/537.36","WebKit","Chrome","130.0.0.0","Windows","10.0","https://hz8g1ckzuq.cognition.run/","en,en-US;q=0.9;q=0.9","y8f6nxc0tfb9539","61","[""White""]","No","Female","2874715.399999976","null","","<p></p>","null","rating","ctd","repulsion_2","1","washing machines","null","null","null","null","null","null","1","","","","","","","","","",""
"","","","","","rating_trial","survey-html-form","36","1304493","0.0-3.0-1.16","128","1","2025-04-11 16:18:35","bb671e3ae32f654b8954ea4c4635f915","","Mozilla/5.0 (Windows NT 10.0; WOW64) AppleWebKit/537.36 (KHTML, like Gecko) Chrome/130.0.0.0 Safari/537.36","WebKit","Chrome","130.0.0.0","Windows","10.0","https://hz8g1ckzuq.cognition.run/","en,en-US;q=0.9;q=0.9","y8f6nxc0tfb9539","61","[""White""]","No","Female","2874715.399999976","18570","","","{""price_1"":""169"",""price_2"":""160"",""price_3"":""120""}","rating","ctd","repulsion_2","1","washing machines","null","null","null","null","null","null","1","100","90","100","30","40","20","Average lifespan","Energy savings","",""
"","","","","","rating_trial_setup","html-keyboard-response","37","1304797","0.0-3.0-0.17","128","1","2025-04-11 16:18:35","bb671e3ae32f654b8954ea4c4635f915","","Mozilla/5.0 (Windows NT 10.0; WOW64) AppleWebKit/537.36 (KHTML, like Gecko) Chrome/130.0.0.0 Safari/537.36","WebKit","Chrome","130.0.0.0","Windows","10.0","https://hz8g1ckzuq.cognition.run/","en,en-US;q=0.9;q=0.9","y8f6nxc0tfb9539","61","[""White""]","No","Female","2874715.399999976","null","","<p></p>","null","rating","dtc","attraction_2","2","laptops","null","null","null","null","null","null","2","","","","","","","","","",""
"","","","","","rating_trial","survey-html-form","38","1324052","0.0-3.0-1.17","128","1","2025-04-11 16:18:35","bb671e3ae32f654b8954ea4c4635f915","","Mozilla/5.0 (Windows NT 10.0; WOW64) AppleWebKit/537.36 (KHTML, like Gecko) Chrome/130.0.0.0 Safari/537.36","WebKit","Chrome","130.0.0.0","Windows","10.0","https://hz8g1ckzuq.cognition.run/","en,en-US;q=0.9;q=0.9","y8f6nxc0tfb9539","61","[""White""]","No","Female","2874715.399999976","19251","","","{""price_1"":""160"",""price_2"":""180"",""price_3"":""200""}","rating","dtc","attraction_2","2","laptops","null","null","null","null","null","null","2","50","60","40","60","50","60","Processing speed","Memory (RAM)","",""
"","","","","","rating_trial_setup","html-keyboard-response","39","1324356","0.0-3.0-0.18","128","1","2025-04-11 16:18:35","bb671e3ae32f654b8954ea4c4635f915","","Mozilla/5.0 (Windows NT 10.0; WOW64) AppleWebKit/537.36 (KHTML, like Gecko) Chrome/130.0.0.0 Safari/537.36","WebKit","Chrome","130.0.0.0","Windows","10.0","https://hz8g1ckzuq.cognition.run/","en,en-US;q=0.9;q=0.9","y8f6nxc0tfb9539","61","[""White""]","No","Female","2874715.399999976","null","","<p></p>","null","rating","tcd","attraction_2","1","washing machines","null","null","null","null","null","null","2","","","","","","","","","",""
"","","","","","rating_trial","survey-html-form","40","1343020","0.0-3.0-1.18","128","1","2025-04-11 16:18:35","bb671e3ae32f654b8954ea4c4635f915","","Mozilla/5.0 (Windows NT 10.0; WOW64) AppleWebKit/537.36 (KHTML, like Gecko) Chrome/130.0.0.0 Safari/537.36","WebKit","Chrome","130.0.0.0","Windows","10.0","https://hz8g1ckzuq.cognition.run/","en,en-US;q=0.9;q=0.9","y8f6nxc0tfb9539","61","[""White""]","No","Female","2874715.399999976","18659","","","{""price_1"":""259"",""price_2"":""239"",""price_3"":""200""}","rating","tcd","attraction_2","1","washing machines","null","null","null","null","null","null","2","60","50","60","50","60","40","Average lifespan","Energy savings","",""
"","","","","","rating_trial_setup","html-keyboard-response","41","1343324","0.0-3.0-0.19","128","1","2025-04-11 16:18:35","bb671e3ae32f654b8954ea4c4635f915","","Mozilla/5.0 (Windows NT 10.0; WOW64) AppleWebKit/537.36 (KHTML, like Gecko) Chrome/130.0.0.0 Safari/537.36","WebKit","Chrome","130.0.0.0","Windows","10.0","https://hz8g1ckzuq.cognition.run/","en,en-US;q=0.9;q=0.9","y8f6nxc0tfb9539","61","[""White""]","No","Female","2874715.399999976","null","","<p></p>","null","rating","tdc","repulsion_1","2","laptops","null","null","null","null","null","null","2","","","","","","","","","",""
"","","","","","rating_trial","survey-html-form","42","1359587","0.0-3.0-1.19","128","1","2025-04-11 16:18:35","bb671e3ae32f654b8954ea4c4635f915","","Mozilla/5.0 (Windows NT 10.0; WOW64) AppleWebKit/537.36 (KHTML, like Gecko) Chrome/130.0.0.0 Safari/537.36","WebKit","Chrome","130.0.0.0","Windows","10.0","https://hz8g1ckzuq.cognition.run/","en,en-US;q=0.9;q=0.9","y8f6nxc0tfb9539","61","[""White""]","No","Female","2874715.399999976","16256","","","{""price_1"":""200"",""price_2"":""300"",""price_3"":""1500""}","rating","tdc","repulsion_1","2","laptops","null","null","null","null","null","null","2","30","40","25","100","90","100","Processing speed","Memory (RAM)","",""
"","","","","","rating_trial_setup","html-keyboard-response","43","1359889","0.0-3.0-0.20","128","1","2025-04-11 16:18:35","bb671e3ae32f654b8954ea4c4635f915","","Mozilla/5.0 (Windows NT 10.0; WOW64) AppleWebKit/537.36 (KHTML, like Gecko) Chrome/130.0.0.0 Safari/537.36","WebKit","Chrome","130.0.0.0","Windows","10.0","https://hz8g1ckzuq.cognition.run/","en,en-US;q=0.9;q=0.9","y8f6nxc0tfb9539","61","[""White""]","No","Female","2874715.399999976","null","","<p></p>","null","rating","bww","catch","null","microwave ovens","55","95","40","5","30","25","2","","","","","","","","","",""
"","","","","","rating_trial","survey-html-form","44","1381237","0.0-3.0-1.20","128","1","2025-04-11 16:18:35","bb671e3ae32f654b8954ea4c4635f915","","Mozilla/5.0 (Windows NT 10.0; WOW64) AppleWebKit/537.36 (KHTML, like Gecko) Chrome/130.0.0.0 Safari/537.36","WebKit","Chrome","130.0.0.0","Windows","10.0","https://hz8g1ckzuq.cognition.run/","en,en-US;q=0.9;q=0.9","y8f6nxc0tfb9539","61","[""White""]","No","Female","2874715.399999976","21342","","","{""price_1"":""300"",""price_2"":""250"",""price_3"":""189""}","rating","bww","catch","null","microwave ovens","55","95","40","5","30","25","2","null","null","null","null","null","null","Warranty","Cooking power","",""
"","","","","","rating_trial_setup","html-keyboard-response","45","1381541","0.0-3.0-0.21","128","1","2025-04-11 16:18:35","bb671e3ae32f654b8954ea4c4635f915","","Mozilla/5.0 (Windows NT 10.0; WOW64) AppleWebKit/537.36 (KHTML, like Gecko) Chrome/130.0.0.0 Safari/537.36","WebKit","Chrome","130.0.0.0","Windows","10.0","https://hz8g1ckzuq.cognition.run/","en,en-US;q=0.9;q=0.9","y8f6nxc0tfb9539","61","[""White""]","No","Female","2874715.399999976","null","","<p></p>","null","rating","cdt","repulsion_1","1","laptops","null","null","null","null","null","null","1","","","","","","","","","",""
"","","","","","rating_trial","survey-html-form","46","1397815","0.0-3.0-1.21","128","1","2025-04-11 16:18:35","bb671e3ae32f654b8954ea4c4635f915","","Mozilla/5.0 (Windows NT 10.0; WOW64) AppleWebKit/537.36 (KHTML, like Gecko) Chrome/130.0.0.0 Safari/537.36","WebKit","Chrome","130.0.0.0","Windows","10.0","https://hz8g1ckzuq.cognition.run/","en,en-US;q=0.9;q=0.9","y8f6nxc0tfb9539","61","[""White""]","No","Female","2874715.399999976","16266","","","{""price_1"":""359"",""price_2"":""300"",""price_3"":""260""}","rating","cdt","repulsion_1","1","laptops","null","null","null","null","null","null","1","100","90","100","30","40","25","Processing speed","Memory (RAM)","",""
"","","","","","rating_trial_setup","html-keyboard-response","47","1398119","0.0-3.0-0.22","128","1","2025-04-11 16:18:35","bb671e3ae32f654b8954ea4c4635f915","","Mozilla/5.0 (Windows NT 10.0; WOW64) AppleWebKit/537.36 (KHTML, like Gecko) Chrome/130.0.0.0 Safari/537.36","WebKit","Chrome","130.0.0.0","Windows","10.0","https://hz8g1ckzuq.cognition.run/","en,en-US;q=0.9;q=0.9","y8f6nxc0tfb9539","61","[""White""]","No","Female","2874715.399999976","null","","<p></p>","null","rating","bww","catch","null","laptops","85","70","5","40","40","10","1","","","","","","","","","",""
"","","","","","rating_trial","survey-html-form","48","1442986","0.0-3.0-1.22","128","1","2025-04-11 16:18:35","bb671e3ae32f654b8954ea4c4635f915","","Mozilla/5.0 (Windows NT 10.0; WOW64) AppleWebKit/537.36 (KHTML, like Gecko) Chrome/130.0.0.0 Safari/537.36","WebKit","Chrome","130.0.0.0","Windows","10.0","https://hz8g1ckzuq.cognition.run/","en,en-US;q=0.9;q=0.9","y8f6nxc0tfb9539","61","[""White""]","No","Female","2874715.399999976","44864","","","{""price_1"":""220"",""price_2"":""150"",""price_3"":""300""}","rating","bww","catch","null","laptops","85","70","5","40","40","10","1","null","null","null","null","null","null","Processing speed","Memory (RAM)","",""
"","","","","","rating_trial_setup","html-keyboard-response","49","1443289","0.0-3.0-0.23","128","1","2025-04-11 16:18:35","bb671e3ae32f654b8954ea4c4635f915","","Mozilla/5.0 (Windows NT 10.0; WOW64) AppleWebKit/537.36 (KHTML, like Gecko) Chrome/130.0.0.0 Safari/537.36","WebKit","Chrome","130.0.0.0","Windows","10.0","https://hz8g1ckzuq.cognition.run/","en,en-US;q=0.9;q=0.9","y8f6nxc0tfb9539","61","[""White""]","No","Female","2874715.399999976","null","","<p></p>","null","rating","tdc","attraction_2","1","televisions","null","null","null","null","null","null","2","","","","","","","","","",""
"","","","","","rating_trial","survey-html-form","50","1457198","0.0-3.0-1.23","128","1","2025-04-11 16:18:35","bb671e3ae32f654b8954ea4c4635f915","","Mozilla/5.0 (Windows NT 10.0; WOW64) AppleWebKit/537.36 (KHTML, like Gecko) Chrome/130.0.0.0 Safari/537.36","WebKit","Chrome","130.0.0.0","Windows","10.0","https://hz8g1ckzuq.cognition.run/","en,en-US;q=0.9;q=0.9","y8f6nxc0tfb9539","61","[""White""]","No","Female","2874715.399999976","13905","","","{""price_1"":""300"",""price_2"":""250"",""price_3"":""200""}","rating","tdc","attraction_2","1","televisions","null","null","null","null","null","null","2","60","50","60","50","60","40","Screen size","Average lifespan","",""
"","","","","","rating_trial_setup","html-keyboard-response","51","1457502","0.0-3.0-0.24","128","1","2025-04-11 16:18:35","bb671e3ae32f654b8954ea4c4635f915","","Mozilla/5.0 (Windows NT 10.0; WOW64) AppleWebKit/537.36 (KHTML, like Gecko) Chrome/130.0.0.0 Safari/537.36","WebKit","Chrome","130.0.0.0","Windows","10.0","https://hz8g1ckzuq.cognition.run/","en,en-US;q=0.9;q=0.9","y8f6nxc0tfb9539","61","[""White""]","No","Female","2874715.399999976","null","","<p></p>","null","rating","dct","repulsion_2","2","microwave ovens","null","null","null","null","null","null","1","","","","","","","","","",""
"","","","","","rating_trial","survey-html-form","52","1485972","0.0-3.0-1.24","128","1","2025-04-11 16:18:35","bb671e3ae32f654b8954ea4c4635f915","","Mozilla/5.0 (Windows NT 10.0; WOW64) AppleWebKit/537.36 (KHTML, like Gecko) Chrome/130.0.0.0 Safari/537.36","WebKit","Chrome","130.0.0.0","Windows","10.0","https://hz8g1ckzuq.cognition.run/","en,en-US;q=0.9;q=0.9","y8f6nxc0tfb9539","61","[""White""]","No","Female","2874715.399999976","28463","","","{""price_1"":""300"",""price_2"":""250"",""price_3"":""200""}","rating","dct","repulsion_2","2","microwave ovens","null","null","null","null","null","null","1","30","40","20","100","90","100","Warranty","Cooking power","",""
"","","","","","rating_trial_setup","html-keyboard-response","53","1486275","0.0-3.0-0.25","128","1","2025-04-11 16:18:35","bb671e3ae32f654b8954ea4c4635f915","","Mozilla/5.0 (Windows NT 10.0; WOW64) AppleWebKit/537.36 (KHTML, like Gecko) Chrome/130.0.0.0 Safari/537.36","WebKit","Chrome","130.0.0.0","Windows","10.0","https://hz8g1ckzuq.cognition.run/","en,en-US;q=0.9;q=0.9","y8f6nxc0tfb9539","61","[""White""]","No","Female","2874715.399999976","null","","<p></p>","null","rating","wwb","catch","null","washing machines","90","80","10","50","30","30","1","","","","","","","","","",""
"","","","","","rating_trial","survey-html-form","54","1502331","0.0-3.0-1.25","128","1","2025-04-11 16:18:35","bb671e3ae32f654b8954ea4c4635f915","","Mozilla/5.0 (Windows NT 10.0; WOW64) AppleWebKit/537.36 (KHTML, like Gecko) Chrome/130.0.0.0 Safari/537.36","WebKit","Chrome","130.0.0.0","Windows","10.0","https://hz8g1ckzuq.cognition.run/","en,en-US;q=0.9;q=0.9","y8f6nxc0tfb9539","61","[""White""]","No","Female","2874715.399999976","16049","","","{""price_1"":""300"",""price_2"":""250"",""price_3"":""200""}","rating","wwb","catch","null","washing machines","90","80","10","50","30","30","1","null","null","null","null","null","null","Average lifespan","Energy savings","",""
"","","","","","rating_trial_setup","html-keyboard-response","55","1502634","0.0-3.0-0.26","128","1","2025-04-11 16:18:35","bb671e3ae32f654b8954ea4c4635f915","","Mozilla/5.0 (Windows NT 10.0; WOW64) AppleWebKit/537.36 (KHTML, like Gecko) Chrome/130.0.0.0 Safari/537.36","WebKit","Chrome","130.0.0.0","Windows","10.0","https://hz8g1ckzuq.cognition.run/","en,en-US;q=0.9;q=0.9","y8f6nxc0tfb9539","61","[""White""]","No","Female","2874715.399999976","null","","<p></p>","null","rating","dtc","repulsion_1","1","televisions","null","null","null","null","null","null","1","","","","","","","","","",""
"","","","","","rating_trial","survey-html-form","56","1519707","0.0-3.0-1.26","128","1","2025-04-11 16:18:35","bb671e3ae32f654b8954ea4c4635f915","","Mozilla/5.0 (Windows NT 10.0; WOW64) AppleWebKit/537.36 (KHTML, like Gecko) Chrome/130.0.0.0 Safari/537.36","WebKit","Chrome","130.0.0.0","Windows","10.0","https://hz8g1ckzuq.cognition.run/","en,en-US;q=0.9;q=0.9","y8f6nxc0tfb9539","61","[""White""]","No","Female","2874715.399999976","17067","","","{""price_1"":""230"",""price_2"":""200"",""price_3"":""180""}","rating","dtc","repulsion_1","1","televisions","null","null","null","null","null","null","1","100","90","100","30","40","25","Screen size","Average lifespan","",""
"","","","","","rating_trial_setup","html-keyboard-response","57","1520011","0.0-3.0-0.27","128","1","2025-04-11 16:18:35","bb671e3ae32f654b8954ea4c4635f915","","Mozilla/5.0 (Windows NT 10.0; WOW64) AppleWebKit/537.36 (KHTML, like Gecko) Chrome/130.0.0.0 Safari/537.36","WebKit","Chrome","130.0.0.0","Windows","10.0","https://hz8g1ckzuq.cognition.run/","en,en-US;q=0.9;q=0.9","y8f6nxc0tfb9539","61","[""White""]","No","Female","2874715.399999976","null","","<p></p>","null","rating","tcd","attraction_1","2","microwave ovens","null","null","null","null","null","null","2","","","","","","","","","",""
"","","","","","rating_trial","survey-html-form","58","1543132","0.0-3.0-1.27","128","1","2025-04-11 16:18:35","bb671e3ae32f654b8954ea4c4635f915","","Mozilla/5.0 (Windows NT 10.0; WOW64) AppleWebKit/537.36 (KHTML, like Gecko) Chrome/130.0.0.0 Safari/537.36","WebKit","Chrome","130.0.0.0","Windows","10.0","https://hz8g1ckzuq.cognition.run/","en,en-US;q=0.9;q=0.9","y8f6nxc0tfb9539","61","[""White""]","No","Female","2874715.399999976","23113","","","{""price_1"":""110"",""price_2"":""80"",""price_3"":""090""}","rating","tcd","attraction_1","2","microwave ovens","null","null","null","null","null","null","2","50","60","45","60","50","60","Warranty","Cooking power","",""
"","","","","","rating_trial_setup","html-keyboard-response","59","1543435","0.0-3.0-0.28","128","1","2025-04-11 16:18:35","bb671e3ae32f654b8954ea4c4635f915","","Mozilla/5.0 (Windows NT 10.0; WOW64) AppleWebKit/537.36 (KHTML, like Gecko) Chrome/130.0.0.0 Safari/537.36","WebKit","Chrome","130.0.0.0","Windows","10.0","https://hz8g1ckzuq.cognition.run/","en,en-US;q=0.9;q=0.9","y8f6nxc0tfb9539","61","[""White""]","No","Female","2874715.399999976","null","","<p></p>","null","rating","wwb","catch","null","televisions","90","70","50","40","30","20","1","","","","","","","","","",""
"","","","","","rating_trial","survey-html-form","60","1560911","0.0-3.0-1.28","128","1","2025-04-11 16:18:35","bb671e3ae32f654b8954ea4c4635f915","","Mozilla/5.0 (Windows NT 10.0; WOW64) AppleWebKit/537.36 (KHTML, like Gecko) Chrome/130.0.0.0 Safari/537.36","WebKit","Chrome","130.0.0.0","Windows","10.0","https://hz8g1ckzuq.cognition.run/","en,en-US;q=0.9;q=0.9","y8f6nxc0tfb9539","61","[""White""]","No","Female","2874715.399999976","17469","","","{""price_1"":""240"",""price_2"":""200"",""price_3"":""300""}","rating","wwb","catch","null","televisions","90","70","50","40","30","20","1","null","null","null","null","null","null","Screen size","Average lifespan","",""
"","","","","","rating_trial_setup","html-keyboard-response","61","1561214","0.0-3.0-0.29","128","1","2025-04-11 16:18:35","bb671e3ae32f654b8954ea4c4635f915","","Mozilla/5.0 (Windows NT 10.0; WOW64) AppleWebKit/537.36 (KHTML, like Gecko) Chrome/130.0.0.0 Safari/537.36","WebKit","Chrome","130.0.0.0","Windows","10.0","https://hz8g1ckzuq.cognition.run/","en,en-US;q=0.9;q=0.9","y8f6nxc0tfb9539","61","[""White""]","No","Female","2874715.399999976","null","","<p></p>","null","rating","cdt","attraction_2","1","laptops","null","null","null","null","null","null","1","","","","","","","","","",""
"","","","","","rating_trial","survey-html-form","62","1579741","0.0-3.0-1.29","128","1","2025-04-11 16:18:35","bb671e3ae32f654b8954ea4c4635f915","","Mozilla/5.0 (Windows NT 10.0; WOW64) AppleWebKit/537.36 (KHTML, like Gecko) Chrome/130.0.0.0 Safari/537.36","WebKit","Chrome","130.0.0.0","Windows","10.0","https://hz8g1ckzuq.cognition.run/","en,en-US;q=0.9;q=0.9","y8f6nxc0tfb9539","61","[""White""]","No","Female","2874715.399999976","18522","","","{""price_1"":""400"",""price_2"":""350"",""price_3"":""300""}","rating","cdt","attraction_2","1","laptops","null","null","null","null","null","null","1","60","50","60","50","60","40","Processing speed","Memory (RAM)","",""
"","","","","","rating_trial_setup","html-keyboard-response","63","1580045","0.0-3.0-0.30","128","1","2025-04-11 16:18:35","bb671e3ae32f654b8954ea4c4635f915","","Mozilla/5.0 (Windows NT 10.0; WOW64) AppleWebKit/537.36 (KHTML, like Gecko) Chrome/130.0.0.0 Safari/537.36","WebKit","Chrome","130.0.0.0","Windows","10.0","https://hz8g1ckzuq.cognition.run/","en,en-US;q=0.9;q=0.9","y8f6nxc0tfb9539","61","[""White""]","No","Female","2874715.399999976","null","","<p></p>","null","rating","wbw","catch","null","laptops","95","80","40","45","10","35","2","","","","","","","","","",""
"","","","","","rating_trial","survey-html-form","64","1593212","0.0-3.0-1.30","128","1","2025-04-11 16:18:35","bb671e3ae32f654b8954ea4c4635f915","","Mozilla/5.0 (Windows NT 10.0; WOW64) AppleWebKit/537.36 (KHTML, like Gecko) Chrome/130.0.0.0 Safari/537.36","WebKit","Chrome","130.0.0.0","Windows","10.0","https://hz8g1ckzuq.cognition.run/","en,en-US;q=0.9;q=0.9","y8f6nxc0tfb9539","61","[""White""]","No","Female","2874715.399999976","13160","","","{""price_1"":""400"",""price_2"":""450"",""price_3"":""300""}","rating","wbw","catch","null","laptops","95","80","40","45","10","35","2","null","null","null","null","null","null","Processing speed","Memory (RAM)","",""
"","","","","","rating_trial_setup","html-keyboard-response","65","1593517","0.0-3.0-0.31","128","1","2025-04-11 16:18:35","bb671e3ae32f654b8954ea4c4635f915","","Mozilla/5.0 (Windows NT 10.0; WOW64) AppleWebKit/537.36 (KHTML, like Gecko) Chrome/130.0.0.0 Safari/537.36","WebKit","Chrome","130.0.0.0","Windows","10.0","https://hz8g1ckzuq.cognition.run/","en,en-US;q=0.9;q=0.9","y8f6nxc0tfb9539","61","[""White""]","No","Female","2874715.399999976","null","","<p></p>","null","rating","tcd","attraction_1","2","televisions","null","null","null","null","null","null","1","","","","","","","","","",""
"","","","","","rating_trial","survey-html-form","66","1646478","0.0-3.0-1.31","128","1","2025-04-11 16:18:35","bb671e3ae32f654b8954ea4c4635f915","","Mozilla/5.0 (Windows NT 10.0; WOW64) AppleWebKit/537.36 (KHTML, like Gecko) Chrome/130.0.0.0 Safari/537.36","WebKit","Chrome","130.0.0.0","Windows","10.0","https://hz8g1ckzuq.cognition.run/","en,en-US;q=0.9;q=0.9","y8f6nxc0tfb9539","61","[""White""]","No","Female","2874715.399999976","52955","","","{""price_1"":""400"",""price_2"":""300"",""price_3"":""350""}","rating","tcd","attraction_1","2","televisions","null","null","null","null","null","null","1","50","60","45","60","50","60","Screen size","Average lifespan","",""
"","","","","","rating_trial_setup","html-keyboard-response","67","1646783","0.0-3.0-0.32","128","1","2025-04-11 16:18:35","bb671e3ae32f654b8954ea4c4635f915","","Mozilla/5.0 (Windows NT 10.0; WOW64) AppleWebKit/537.36 (KHTML, like Gecko) Chrome/130.0.0.0 Safari/537.36","WebKit","Chrome","130.0.0.0","Windows","10.0","https://hz8g1ckzuq.cognition.run/","en,en-US;q=0.9;q=0.9","y8f6nxc0tfb9539","61","[""White""]","No","Female","2874715.399999976","null","","<p></p>","null","rating","ctd","repulsion_2","2","laptops","null","null","null","null","null","null","2","","","","","","","","","",""
"","","","","","rating_trial","survey-html-form","68","1661584","0.0-3.0-1.32","128","1","2025-04-11 16:18:35","bb671e3ae32f654b8954ea4c4635f915","","Mozilla/5.0 (Windows NT 10.0; WOW64) AppleWebKit/537.36 (KHTML, like Gecko) Chrome/130.0.0.0 Safari/537.36","WebKit","Chrome","130.0.0.0","Windows","10.0","https://hz8g1ckzuq.cognition.run/","en,en-US;q=0.9;q=0.9","y8f6nxc0tfb9539","61","[""White""]","No","Female","2874715.399999976","14797","","","{""price_1"":""500"",""price_2"":""400"",""price_3"":""390""}","rating","ctd","repulsion_2","2","laptops","null","null","null","null","null","null","2","30","40","20","100","90","100","Processing speed","Memory (RAM)","",""
"","","","","","rating_trial_setup","html-keyboard-response","69","1661888","0.0-3.0-0.33","128","1","2025-04-11 16:18:35","bb671e3ae32f654b8954ea4c4635f915","","Mozilla/5.0 (Windows NT 10.0; WOW64) AppleWebKit/537.36 (KHTML, like Gecko) Chrome/130.0.0.0 Safari/537.36","WebKit","Chrome","130.0.0.0","Windows","10.0","https://hz8g1ckzuq.cognition.run/","en,en-US;q=0.9;q=0.9","y8f6nxc0tfb9539","61","[""White""]","No","Female","2874715.399999976","null","","<p></p>","null","rating","dtc","attraction_1","1","washing machines","null","null","null","null","null","null","2","","","","","","","","","",""
"","","","","","rating_trial","survey-html-form","70","1677086","0.0-3.0-1.33","128","1","2025-04-11 16:18:35","bb671e3ae32f654b8954ea4c4635f915","","Mozilla/5.0 (Windows NT 10.0; WOW64) AppleWebKit/537.36 (KHTML, like Gecko) Chrome/130.0.0.0 Safari/537.36","WebKit","Chrome","130.0.0.0","Windows","10.0","https://hz8g1ckzuq.cognition.run/","en,en-US;q=0.9;q=0.9","y8f6nxc0tfb9539","61","[""White""]","No","Female","2874715.399999976","15189","","","{""price_1"":""200"",""price_2"":""180"",""price_3"":""150""}","rating","dtc","attraction_1","1","washing machines","null","null","null","null","null","null","2","60","50","60","50","60","45","Average lifespan","Energy savings","",""
"","","","","","rating_trial_setup","html-keyboard-response","71","1677391","0.0-3.0-0.34","128","1","2025-04-11 16:18:35","bb671e3ae32f654b8954ea4c4635f915","","Mozilla/5.0 (Windows NT 10.0; WOW64) AppleWebKit/537.36 (KHTML, like Gecko) Chrome/130.0.0.0 Safari/537.36","WebKit","Chrome","130.0.0.0","Windows","10.0","https://hz8g1ckzuq.cognition.run/","en,en-US;q=0.9;q=0.9","y8f6nxc0tfb9539","61","[""White""]","No","Female","2874715.399999976","null","","<p></p>","null","rating","dct","attraction_2","2","microwave ovens","null","null","null","null","null","null","1","","","","","","","","","",""
"","","","","","rating_trial","survey-html-form","72","1692530","0.0-3.0-1.34","128","1","2025-04-11 16:18:35","bb671e3ae32f654b8954ea4c4635f915","","Mozilla/5.0 (Windows NT 10.0; WOW64) AppleWebKit/537.36 (KHTML, like Gecko) Chrome/130.0.0.0 Safari/537.36","WebKit","Chrome","130.0.0.0","Windows","10.0","https://hz8g1ckzuq.cognition.run/","en,en-US;q=0.9;q=0.9","y8f6nxc0tfb9539","61","[""White""]","No","Female","2874715.399999976","15132","","","{""price_1"":""70"",""price_2"":""60"",""price_3"":""90""}","rating","dct","attraction_2","2","microwave ovens","null","null","null","null","null","null","1","50","60","40","60","50","60","Warranty","Cooking power","",""
"","","","","","rating_trial_setup","html-keyboard-response","73","1692834","0.0-3.0-0.35","128","1","2025-04-11 16:18:35","bb671e3ae32f654b8954ea4c4635f915","","Mozilla/5.0 (Windows NT 10.0; WOW64) AppleWebKit/537.36 (KHTML, like Gecko) Chrome/130.0.0.0 Safari/537.36","WebKit","Chrome","130.0.0.0","Windows","10.0","https://hz8g1ckzuq.cognition.run/","en,en-US;q=0.9;q=0.9","y8f6nxc0tfb9539","61","[""White""]","No","Female","2874715.399999976","null","","<p></p>","null","rating","dtc","attraction_2","2","televisions","null","null","null","null","null","null","2","","","","","","","","","",""
"","","","","","rating_trial","survey-html-form","74","1837859","0.0-3.0-1.35","128","1","2025-04-11 16:18:35","bb671e3ae32f654b8954ea4c4635f915","","Mozilla/5.0 (Windows NT 10.0; WOW64) AppleWebKit/537.36 (KHTML, like Gecko) Chrome/130.0.0.0 Safari/537.36","WebKit","Chrome","130.0.0.0","Windows","10.0","https://hz8g1ckzuq.cognition.run/","en,en-US;q=0.9;q=0.9","y8f6nxc0tfb9539","61","[""White""]","No","Female","2874715.399999976","145017","","","{""price_1"":""300"",""price_2"":""280"",""price_3"":""250""}","rating","dtc","attraction_2","2","televisions","null","null","null","null","null","null","2","50","60","40","60","50","60","Screen size","Average lifespan","",""
"","","","","","rating_trial_setup","html-keyboard-response","75","1838164","0.0-3.0-0.36","128","1","2025-04-11 16:18:35","bb671e3ae32f654b8954ea4c4635f915","","Mozilla/5.0 (Windows NT 10.0; WOW64) AppleWebKit/537.36 (KHTML, like Gecko) Chrome/130.0.0.0 Safari/537.36","WebKit","Chrome","130.0.0.0","Windows","10.0","https://hz8g1ckzuq.cognition.run/","en,en-US;q=0.9;q=0.9","y8f6nxc0tfb9539","61","[""White""]","No","Female","2874715.399999976","null","","<p></p>","null","rating","tcd","repulsion_1","2","washing machines","null","null","null","null","null","null","1","","","","","","","","","",""
"","","","","","rating_trial","survey-html-form","76","1864154","0.0-3.0-1.36","128","1","2025-04-11 16:18:35","bb671e3ae32f654b8954ea4c4635f915","","Mozilla/5.0 (Windows NT 10.0; WOW64) AppleWebKit/537.36 (KHTML, like Gecko) Chrome/130.0.0.0 Safari/537.36","WebKit","Chrome","130.0.0.0","Windows","10.0","https://hz8g1ckzuq.cognition.run/","en,en-US;q=0.9;q=0.9","y8f6nxc0tfb9539","61","[""White""]","No","Female","2874715.399999976","25976","","","{""price_1"":""200"",""price_2"":""230"",""price_3"":""180""}","rating","tcd","repulsion_1","2","washing machines","null","null","null","null","null","null","1","30","40","25","100","90","100","Average lifespan","Energy savings","",""
"","","","","","rating_trial_setup","html-keyboard-response","77","1864459","0.0-3.0-0.37","128","1","2025-04-11 16:18:35","bb671e3ae32f654b8954ea4c4635f915","","Mozilla/5.0 (Windows NT 10.0; WOW64) AppleWebKit/537.36 (KHTML, like Gecko) Chrome/130.0.0.0 Safari/537.36","WebKit","Chrome","130.0.0.0","Windows","10.0","https://hz8g1ckzuq.cognition.run/","en,en-US;q=0.9;q=0.9","y8f6nxc0tfb9539","61","[""White""]","No","Female","2874715.399999976","null","","<p></p>","null","rating","wwb","catch","null","washing machines","85","80","5","10","50","35","1","","","","","","","","","",""
"","","","","","rating_trial","survey-html-form","78","1878201","0.0-3.0-1.37","128","1","2025-04-11 16:18:35","bb671e3ae32f654b8954ea4c4635f915","","Mozilla/5.0 (Windows NT 10.0; WOW64) AppleWebKit/537.36 (KHTML, like Gecko) Chrome/130.0.0.0 Safari/537.36","WebKit","Chrome","130.0.0.0","Windows","10.0","https://hz8g1ckzuq.cognition.run/","en,en-US;q=0.9;q=0.9","y8f6nxc0tfb9539","61","[""White""]","No","Female","2874715.399999976","13732","","","{""price_1"":""300"",""price_2"":""200"",""price_3"":""280""}","rating","wwb","catch","null","washing machines","85","80","5","10","50","35","1","null","null","null","null","null","null","Average lifespan","Energy savings","",""
"","","","","","rating_trial_setup","html-keyboard-response","79","1878506","0.0-3.0-0.38","128","1","2025-04-11 16:18:35","bb671e3ae32f654b8954ea4c4635f915","","Mozilla/5.0 (Windows NT 10.0; WOW64) AppleWebKit/537.36 (KHTML, like Gecko) Chrome/130.0.0.0 Safari/537.36","WebKit","Chrome","130.0.0.0","Windows","10.0","https://hz8g1ckzuq.cognition.run/","en,en-US;q=0.9;q=0.9","y8f6nxc0tfb9539","61","[""White""]","No","Female","2874715.399999976","null","","<p></p>","null","rating","cdt","attraction_1","1","laptops","null","null","null","null","null","null","2","","","","","","","","","",""
"","","","","","rating_trial","survey-html-form","80","1889584","0.0-3.0-1.38","128","1","2025-04-11 16:18:35","bb671e3ae32f654b8954ea4c4635f915","","Mozilla/5.0 (Windows NT 10.0; WOW64) AppleWebKit/537.36 (KHTML, like Gecko) Chrome/130.0.0.0 Safari/537.36","WebKit","Chrome","130.0.0.0","Windows","10.0","https://hz8g1ckzuq.cognition.run/","en,en-US;q=0.9;q=0.9","y8f6nxc0tfb9539","61","[""White""]","No","Female","2874715.399999976","11073","","","{""price_1"":""300"",""price_2"":""400"",""price_3"":""500""}","rating","cdt","attraction_1","1","laptops","null","null","null","null","null","null","2","60","50","60","50","60","45","Processing speed","Memory (RAM)","",""
"","","","","","rating_trial_setup","html-keyboard-response","81","1889889","0.0-3.0-0.39","128","1","2025-04-11 16:18:35","bb671e3ae32f654b8954ea4c4635f915","","Mozilla/5.0 (Windows NT 10.0; WOW64) AppleWebKit/537.36 (KHTML, like Gecko) Chrome/130.0.0.0 Safari/537.36","WebKit","Chrome","130.0.0.0","Windows","10.0","https://hz8g1ckzuq.cognition.run/","en,en-US;q=0.9;q=0.9","y8f6nxc0tfb9539","61","[""White""]","No","Female","2874715.399999976","null","","<p></p>","null","rating","cdt","attraction_1","2","washing machines","null","null","null","null","null","null","1","","","","","","","","","",""
"","","","","","rating_trial","survey-html-form","82","1903324","0.0-3.0-1.39","128","1","2025-04-11 16:18:35","bb671e3ae32f654b8954ea4c4635f915","","Mozilla/5.0 (Windows NT 10.0; WOW64) AppleWebKit/537.36 (KHTML, like Gecko) Chrome/130.0.0.0 Safari/537.36","WebKit","Chrome","130.0.0.0","Windows","10.0","https://hz8g1ckzuq.cognition.run/","en,en-US;q=0.9;q=0.9","y8f6nxc0tfb9539","61","[""White""]","No","Female","2874715.399999976","13419","","","{""price_1"":""300"",""price_2"":""200"",""price_3"":""240""}","rating","cdt","attraction_1","2","washing machines","null","null","null","null","null","null","1","50","60","45","60","50","60","Average lifespan","Energy savings","",""
"","","","","","","instructions","83","2385259","0.0-4.0","128","1","2025-04-11 16:18:35","bb671e3ae32f654b8954ea4c4635f915","","Mozilla/5.0 (Windows NT 10.0; WOW64) AppleWebKit/537.36 (KHTML, like Gecko) Chrome/130.0.0.0 Safari/537.36","WebKit","Chrome","130.0.0.0","Windows","10.0","https://hz8g1ckzuq.cognition.run/","en,en-US;q=0.9;q=0.9","y8f6nxc0tfb9539","61","[""White""]","No","Female","2874715.399999976","481931","[{""page_index"":0,""viewing_time"":5084},{""page_index"":1,""viewing_time"":3117},{""page_index"":2,""viewing_time"":426415},{""page_index"":3,""viewing_time"":7155},{""page_index"":4,""viewing_time"":18934},{""page_index"":5,""viewing_time"":2418},{""page_index"":6,""viewing_time"":13616},{""page_index"":7,""viewing_time"":5192}]","","","","","","","","","","","","","","","","","","","","","","","",""
"","","","","","choice_trial_setup","html-keyboard-response","84","2385564","0.0-5.0-0.0","128","1","2025-04-11 16:18:35","bb671e3ae32f654b8954ea4c4635f915","","Mozilla/5.0 (Windows NT 10.0; WOW64) AppleWebKit/537.36 (KHTML, like Gecko) Chrome/130.0.0.0 Safari/537.36","WebKit","Chrome","130.0.0.0","Windows","10.0","https://hz8g1ckzuq.cognition.run/","en,en-US;q=0.9;q=0.9","y8f6nxc0tfb9539","61","[""White""]","No","Female","2874715.399999976","null","","<p></p>","null","choice","ctd","attraction_1","1","washing machines","null","null","null","null","null","null","1","","","","","","","","","",""
"","","","","","choice_trial","survey-html-form","85","2394669","0.0-5.0-1.0","128","1","2025-04-11 16:18:35","bb671e3ae32f654b8954ea4c4635f915","","Mozilla/5.0 (Windows NT 10.0; WOW64) AppleWebKit/537.36 (KHTML, like Gecko) Chrome/130.0.0.0 Safari/537.36","WebKit","Chrome","130.0.0.0","Windows","10.0","https://hz8g1ckzuq.cognition.run/","en,en-US;q=0.9;q=0.9","y8f6nxc0tfb9539","61","[""White""]","No","Female","2874715.399999976","9094","","","{""product_choice"":""B""}","choice","ctd","attraction_1","1","washing machines","null","null","null","null","null","null","1","60","50","60","50","60","45","Average lifespan","Energy savings","",""
"","","","","","choice_trial_setup","html-keyboard-response","86","2394974","0.0-5.0-0.1","128","1","2025-04-11 16:18:35","bb671e3ae32f654b8954ea4c4635f915","","Mozilla/5.0 (Windows NT 10.0; WOW64) AppleWebKit/537.36 (KHTML, like Gecko) Chrome/130.0.0.0 Safari/537.36","WebKit","Chrome","130.0.0.0","Windows","10.0","https://hz8g1ckzuq.cognition.run/","en,en-US;q=0.9;q=0.9","y8f6nxc0tfb9539","61","[""White""]","No","Female","2874715.399999976","null","","<p></p>","null","choice","dtc","attraction_2","2","laptops","null","null","null","null","null","null","1","","","","","","","","","",""
"","","","","","choice_trial","survey-html-form","87","2398919","0.0-5.0-1.1","128","1","2025-04-11 16:18:35","bb671e3ae32f654b8954ea4c4635f915","","Mozilla/5.0 (Windows NT 10.0; WOW64) AppleWebKit/537.36 (KHTML, like Gecko) Chrome/130.0.0.0 Safari/537.36","WebKit","Chrome","130.0.0.0","Windows","10.0","https://hz8g1ckzuq.cognition.run/","en,en-US;q=0.9;q=0.9","y8f6nxc0tfb9539","61","[""White""]","No","Female","2874715.399999976","3936","","","{""product_choice"":""A""}","choice","dtc","attraction_2","2","laptops","null","null","null","null","null","null","1","50","60","40","60","50","60","Processing speed","Memory (RAM)","",""
"","","","","","choice_trial_setup","html-keyboard-response","88","2399223","0.0-5.0-0.2","128","1","2025-04-11 16:18:35","bb671e3ae32f654b8954ea4c4635f915","","Mozilla/5.0 (Windows NT 10.0; WOW64) AppleWebKit/537.36 (KHTML, like Gecko) Chrome/130.0.0.0 Safari/537.36","WebKit","Chrome","130.0.0.0","Windows","10.0","https://hz8g1ckzuq.cognition.run/","en,en-US;q=0.9;q=0.9","y8f6nxc0tfb9539","61","[""White""]","No","Female","2874715.399999976","null","","<p></p>","null","choice","tdc","attraction_1","2","microwave ovens","null","null","null","null","null","null","1","","","","","","","","","",""
"","","","","","choice_trial","survey-html-form","89","2403184","0.0-5.0-1.2","128","1","2025-04-11 16:18:35","bb671e3ae32f654b8954ea4c4635f915","","Mozilla/5.0 (Windows NT 10.0; WOW64) AppleWebKit/537.36 (KHTML, like Gecko) Chrome/130.0.0.0 Safari/537.36","WebKit","Chrome","130.0.0.0","Windows","10.0","https://hz8g1ckzuq.cognition.run/","en,en-US;q=0.9;q=0.9","y8f6nxc0tfb9539","61","[""White""]","No","Female","2874715.399999976","3956","","","{""product_choice"":""C""}","choice","tdc","attraction_1","2","microwave ovens","null","null","null","null","null","null","1","50","60","45","60","50","60","Warranty","Cooking power","",""
"","","","","","choice_trial_setup","html-keyboard-response","90","2403488","0.0-5.0-0.3","128","1","2025-04-11 16:18:35","bb671e3ae32f654b8954ea4c4635f915","","Mozilla/5.0 (Windows NT 10.0; WOW64) AppleWebKit/537.36 (KHTML, like Gecko) Chrome/130.0.0.0 Safari/537.36","WebKit","Chrome","130.0.0.0","Windows","10.0","https://hz8g1ckzuq.cognition.run/","en,en-US;q=0.9;q=0.9","y8f6nxc0tfb9539","61","[""White""]","No","Female","2874715.399999976","null","","<p></p>","null","choice","tcd","attraction_1","2","televisions","null","null","null","null","null","null","2","","","","","","","","","",""
"","","","","","choice_trial","survey-html-form","91","2408490","0.0-5.0-1.3","128","1","2025-04-11 16:18:35","bb671e3ae32f654b8954ea4c4635f915","","Mozilla/5.0 (Windows NT 10.0; WOW64) AppleWebKit/537.36 (KHTML, like Gecko) Chrome/130.0.0.0 Safari/537.36","WebKit","Chrome","130.0.0.0","Windows","10.0","https://hz8g1ckzuq.cognition.run/","en,en-US;q=0.9;q=0.9","y8f6nxc0tfb9539","61","[""White""]","No","Female","2874715.399999976","4991","","","{""product_choice"":""B""}","choice","tcd","attraction_1","2","televisions","null","null","null","null","null","null","2","50","60","45","60","50","60","Screen size","Average lifespan","",""
"","","","","","choice_trial_setup","html-keyboard-response","92","2408794","0.0-5.0-0.4","128","1","2025-04-11 16:18:35","bb671e3ae32f654b8954ea4c4635f915","","Mozilla/5.0 (Windows NT 10.0; WOW64) AppleWebKit/537.36 (KHTML, like Gecko) Chrome/130.0.0.0 Safari/537.36","WebKit","Chrome","130.0.0.0","Windows","10.0","https://hz8g1ckzuq.cognition.run/","en,en-US;q=0.9;q=0.9","y8f6nxc0tfb9539","61","[""White""]","No","Female","2874715.399999976","null","","<p></p>","null","choice","cdt","attraction_1","2","laptops","null","null","null","null","null","null","1","","","","","","","","","",""
"","","","","","choice_trial","survey-html-form","93","2412635","0.0-5.0-1.4","128","1","2025-04-11 16:18:35","bb671e3ae32f654b8954ea4c4635f915","","Mozilla/5.0 (Windows NT 10.0; WOW64) AppleWebKit/537.36 (KHTML, like Gecko) Chrome/130.0.0.0 Safari/537.36","WebKit","Chrome","130.0.0.0","Windows","10.0","https://hz8g1ckzuq.cognition.run/","en,en-US;q=0.9;q=0.9","y8f6nxc0tfb9539","61","[""White""]","No","Female","2874715.399999976","3837","","","{""product_choice"":""A""}","choice","cdt","attraction_1","2","laptops","null","null","null","null","null","null","1","50","60","45","60","50","60","Processing speed","Memory (RAM)","",""
"","","","","","choice_trial_setup","html-keyboard-response","94","2412940","0.0-5.0-0.5","128","1","2025-04-11 16:18:35","bb671e3ae32f654b8954ea4c4635f915","","Mozilla/5.0 (Windows NT 10.0; WOW64) AppleWebKit/537.36 (KHTML, like Gecko) Chrome/130.0.0.0 Safari/537.36","WebKit","Chrome","130.0.0.0","Windows","10.0","https://hz8g1ckzuq.cognition.run/","en,en-US;q=0.9;q=0.9","y8f6nxc0tfb9539","61","[""White""]","No","Female","2874715.399999976","null","","<p></p>","null","choice","tcd","repulsion_1","1","televisions","null","null","null","null","null","null","2","","","","","","","","","",""
"","","","","","choice_trial","survey-html-form","95","2444866","0.0-5.0-1.5","128","1","2025-04-11 16:18:35","bb671e3ae32f654b8954ea4c4635f915","","Mozilla/5.0 (Windows NT 10.0; WOW64) AppleWebKit/537.36 (KHTML, like Gecko) Chrome/130.0.0.0 Safari/537.36","WebKit","Chrome","130.0.0.0","Windows","10.0","https://hz8g1ckzuq.cognition.run/","en,en-US;q=0.9;q=0.9","y8f6nxc0tfb9539","61","[""White""]","No","Female","2874715.399999976","31917","","","{""product_choice"":""B""}","choice","tcd","repulsion_1","1","televisions","null","null","null","null","null","null","2","100","90","100","30","40","25","Screen size","Average lifespan","",""
"","","","","","choice_trial_setup","html-keyboard-response","96","2445172","0.0-5.0-0.6","128","1","2025-04-11 16:18:35","bb671e3ae32f654b8954ea4c4635f915","","Mozilla/5.0 (Windows NT 10.0; WOW64) AppleWebKit/537.36 (KHTML, like Gecko) Chrome/130.0.0.0 Safari/537.36","WebKit","Chrome","130.0.0.0","Windows","10.0","https://hz8g1ckzuq.cognition.run/","en,en-US;q=0.9;q=0.9","y8f6nxc0tfb9539","61","[""White""]","No","Female","2874715.399999976","null","","<p></p>","null","choice","dtc","repulsion_1","1","washing machines","null","null","null","null","null","null","1","","","","","","","","","",""
"","","","","","choice_trial","survey-html-form","97","2448815","0.0-5.0-1.6","128","1","2025-04-11 16:18:35","bb671e3ae32f654b8954ea4c4635f915","","Mozilla/5.0 (Windows NT 10.0; WOW64) AppleWebKit/537.36 (KHTML, like Gecko) Chrome/130.0.0.0 Safari/537.36","WebKit","Chrome","130.0.0.0","Windows","10.0","https://hz8g1ckzuq.cognition.run/","en,en-US;q=0.9;q=0.9","y8f6nxc0tfb9539","61","[""White""]","No","Female","2874715.399999976","3637","","","{""product_choice"":""C""}","choice","dtc","repulsion_1","1","washing machines","null","null","null","null","null","null","1","100","90","100","30","40","25","Average lifespan","Energy savings","",""
"","","","","","choice_trial_setup","html-keyboard-response","98","2449119","0.0-5.0-0.7","128","1","2025-04-11 16:18:35","bb671e3ae32f654b8954ea4c4635f915","","Mozilla/5.0 (Windows NT 10.0; WOW64) AppleWebKit/537.36 (KHTML, like Gecko) Chrome/130.0.0.0 Safari/537.36","WebKit","Chrome","130.0.0.0","Windows","10.0","https://hz8g1ckzuq.cognition.run/","en,en-US;q=0.9;q=0.9","y8f6nxc0tfb9539","61","[""White""]","No","Female","2874715.399999976","null","","<p></p>","null","choice","wwb","catch","null","televisions","80","60","40","35","15","10","2","","","","","","","","","",""
"","","","","","choice_trial","survey-html-form","99","2452881","0.0-5.0-1.7","128","1","2025-04-11 16:18:35","bb671e3ae32f654b8954ea4c4635f915","","Mozilla/5.0 (Windows NT 10.0; WOW64) AppleWebKit/537.36 (KHTML, like Gecko) Chrome/130.0.0.0 Safari/537.36","WebKit","Chrome","130.0.0.0","Windows","10.0","https://hz8g1ckzuq.cognition.run/","en,en-US;q=0.9;q=0.9","y8f6nxc0tfb9539","61","[""White""]","No","Female","2874715.399999976","3751","","","{""product_choice"":""B""}","choice","wwb","catch","null","televisions","80","60","40","35","15","10","2","null","null","null","null","null","null","Screen size","Average lifespan","",""
"","","","","","choice_trial_setup","html-keyboard-response","100","2453193","0.0-5.0-0.8","128","1","2025-04-11 16:18:35","bb671e3ae32f654b8954ea4c4635f915","","Mozilla/5.0 (Windows NT 10.0; WOW64) AppleWebKit/537.36 (KHTML, like Gecko) Chrome/130.0.0.0 Safari/537.36","WebKit","Chrome","130.0.0.0","Windows","10.0","https://hz8g1ckzuq.cognition.run/","en,en-US;q=0.9;q=0.9","y8f6nxc0tfb9539","61","[""White""]","No","Female","2874715.399999976","null","","<p></p>","null","choice","tcd","repulsion_1","2","washing machines","null","null","null","null","null","null","1","","","","","","","","","",""
"","","","","","choice_trial","survey-html-form","101","2456785","0.0-5.0-1.8","128","1","2025-04-11 16:18:35","bb671e3ae32f654b8954ea4c4635f915","","Mozilla/5.0 (Windows NT 10.0; WOW64) AppleWebKit/537.36 (KHTML, like Gecko) Chrome/130.0.0.0 Safari/537.36","WebKit","Chrome","130.0.0.0","Windows","10.0","https://hz8g1ckzuq.cognition.run/","en,en-US;q=0.9;q=0.9","y8f6nxc0tfb9539","61","[""White""]","No","Female","2874715.399999976","3587","","","{""product_choice"":""C""}","choice","tcd","repulsion_1","2","washing machines","null","null","null","null","null","null","1","30","40","25","100","90","100","Average lifespan","Energy savings","",""
"","","","","","choice_trial_setup","html-keyboard-response","102","2457089","0.0-5.0-0.9","128","1","2025-04-11 16:18:35","bb671e3ae32f654b8954ea4c4635f915","","Mozilla/5.0 (Windows NT 10.0; WOW64) AppleWebKit/537.36 (KHTML, like Gecko) Chrome/130.0.0.0 Safari/537.36","WebKit","Chrome","130.0.0.0","Windows","10.0","https://hz8g1ckzuq.cognition.run/","en,en-US;q=0.9;q=0.9","y8f6nxc0tfb9539","61","[""White""]","No","Female","2874715.399999976","null","","<p></p>","null","choice","dtc","attraction_1","1","laptops","null","null","null","null","null","null","1","","","","","","","","","",""
"","","","","","choice_trial","survey-html-form","103","2460931","0.0-5.0-1.9","128","1","2025-04-11 16:18:35","bb671e3ae32f654b8954ea4c4635f915","","Mozilla/5.0 (Windows NT 10.0; WOW64) AppleWebKit/537.36 (KHTML, like Gecko) Chrome/130.0.0.0 Safari/537.36","WebKit","Chrome","130.0.0.0","Windows","10.0","https://hz8g1ckzuq.cognition.run/","en,en-US;q=0.9;q=0.9","y8f6nxc0tfb9539","61","[""White""]","No","Female","2874715.399999976","3832","","","{""product_choice"":""A""}","choice","dtc","attraction_1","1","laptops","null","null","null","null","null","null","1","60","50","60","50","60","45","Processing speed","Memory (RAM)","",""
"","","","","","choice_trial_setup","html-keyboard-response","104","2461236","0.0-5.0-0.10","128","1","2025-04-11 16:18:35","bb671e3ae32f654b8954ea4c4635f915","","Mozilla/5.0 (Windows NT 10.0; WOW64) AppleWebKit/537.36 (KHTML, like Gecko) Chrome/130.0.0.0 Safari/537.36","WebKit","Chrome","130.0.0.0","Windows","10.0","https://hz8g1ckzuq.cognition.run/","en,en-US;q=0.9;q=0.9","y8f6nxc0tfb9539","61","[""White""]","No","Female","2874715.399999976","null","","<p></p>","null","choice","bww","catch","null","televisions","90","75","20","25","25","5","2","","","","","","","","","",""
"","","","","","choice_trial","survey-html-form","105","2465697","0.0-5.0-1.10","128","1","2025-04-11 16:18:35","bb671e3ae32f654b8954ea4c4635f915","","Mozilla/5.0 (Windows NT 10.0; WOW64) AppleWebKit/537.36 (KHTML, like Gecko) Chrome/130.0.0.0 Safari/537.36","WebKit","Chrome","130.0.0.0","Windows","10.0","https://hz8g1ckzuq.cognition.run/","en,en-US;q=0.9;q=0.9","y8f6nxc0tfb9539","61","[""White""]","No","Female","2874715.399999976","4456","","","{""product_choice"":""B""}","choice","bww","catch","null","televisions","90","75","20","25","25","5","2","null","null","null","null","null","null","Screen size","Average lifespan","",""
"","","","","","choice_trial_setup","html-keyboard-response","106","2466001","0.0-5.0-0.11","128","1","2025-04-11 16:18:35","bb671e3ae32f654b8954ea4c4635f915","","Mozilla/5.0 (Windows NT 10.0; WOW64) AppleWebKit/537.36 (KHTML, like Gecko) Chrome/130.0.0.0 Safari/537.36","WebKit","Chrome","130.0.0.0","Windows","10.0","https://hz8g1ckzuq.cognition.run/","en,en-US;q=0.9;q=0.9","y8f6nxc0tfb9539","61","[""White""]","No","Female","2874715.399999976","null","","<p></p>","null","choice","cdt","attraction_2","2","microwave ovens","null","null","null","null","null","null","1","","","","","","","","","",""
"","","","","","choice_trial","survey-html-form","107","2468988","0.0-5.0-1.11","128","1","2025-04-11 16:18:35","bb671e3ae32f654b8954ea4c4635f915","","Mozilla/5.0 (Windows NT 10.0; WOW64) AppleWebKit/537.36 (KHTML, like Gecko) Chrome/130.0.0.0 Safari/537.36","WebKit","Chrome","130.0.0.0","Windows","10.0","https://hz8g1ckzuq.cognition.run/","en,en-US;q=0.9;q=0.9","y8f6nxc0tfb9539","61","[""White""]","No","Female","2874715.399999976","2980","","","{""product_choice"":""C""}","choice","cdt","attraction_2","2","microwave ovens","null","null","null","null","null","null","1","50","60","40","60","50","60","Warranty","Cooking power","",""
"","","","","","choice_trial_setup","html-keyboard-response","108","2469294","0.0-5.0-0.12","128","1","2025-04-11 16:18:35","bb671e3ae32f654b8954ea4c4635f915","","Mozilla/5.0 (Windows NT 10.0; WOW64) AppleWebKit/537.36 (KHTML, like Gecko) Chrome/130.0.0.0 Safari/537.36","WebKit","Chrome","130.0.0.0","Windows","10.0","https://hz8g1ckzuq.cognition.run/","en,en-US;q=0.9;q=0.9","y8f6nxc0tfb9539","61","[""White""]","No","Female","2874715.399999976","null","","<p></p>","null","choice","ctd","attraction_1","1","televisions","null","null","null","null","null","null","1","","","","","","","","","",""
"","","","","","choice_trial","survey-html-form","109","2472114","0.0-5.0-1.12","128","1","2025-04-11 16:18:35","bb671e3ae32f654b8954ea4c4635f915","","Mozilla/5.0 (Windows NT 10.0; WOW64) AppleWebKit/537.36 (KHTML, like Gecko) Chrome/130.0.0.0 Safari/537.36","WebKit","Chrome","130.0.0.0","Windows","10.0","https://hz8g1ckzuq.cognition.run/","en,en-US;q=0.9;q=0.9","y8f6nxc0tfb9539","61","[""White""]","No","Female","2874715.399999976","2811","","","{""product_choice"":""A""}","choice","ctd","attraction_1","1","televisions","null","null","null","null","null","null","1","60","50","60","50","60","45","Screen size","Average lifespan","",""
"","","","","","choice_trial_setup","html-keyboard-response","110","2472419","0.0-5.0-0.13","128","1","2025-04-11 16:18:35","bb671e3ae32f654b8954ea4c4635f915","","Mozilla/5.0 (Windows NT 10.0; WOW64) AppleWebKit/537.36 (KHTML, like Gecko) Chrome/130.0.0.0 Safari/537.36","WebKit","Chrome","130.0.0.0","Windows","10.0","https://hz8g1ckzuq.cognition.run/","en,en-US;q=0.9;q=0.9","y8f6nxc0tfb9539","61","[""White""]","No","Female","2874715.399999976","null","","<p></p>","null","choice","dtc","repulsion_2","1","televisions","null","null","null","null","null","null","2","","","","","","","","","",""
"","","","","","choice_trial","survey-html-form","111","2476584","0.0-5.0-1.13","128","1","2025-04-11 16:18:35","bb671e3ae32f654b8954ea4c4635f915","","Mozilla/5.0 (Windows NT 10.0; WOW64) AppleWebKit/537.36 (KHTML, like Gecko) Chrome/130.0.0.0 Safari/537.36","WebKit","Chrome","130.0.0.0","Windows","10.0","https://hz8g1ckzuq.cognition.run/","en,en-US;q=0.9;q=0.9","y8f6nxc0tfb9539","61","[""White""]","No","Female","2874715.399999976","4155","","","{""product_choice"":""B""}","choice","dtc","repulsion_2","1","televisions","null","null","null","null","null","null","2","100","90","100","30","40","20","Screen size","Average lifespan","",""
"","","","","","choice_trial_setup","html-keyboard-response","112","2476899","0.0-5.0-0.14","128","1","2025-04-11 16:18:35","bb671e3ae32f654b8954ea4c4635f915","","Mozilla/5.0 (Windows NT 10.0; WOW64) AppleWebKit/537.36 (KHTML, like Gecko) Chrome/130.0.0.0 Safari/537.36","WebKit","Chrome","130.0.0.0","Windows","10.0","https://hz8g1ckzuq.cognition.run/","en,en-US;q=0.9;q=0.9","y8f6nxc0tfb9539","61","[""White""]","No","Female","2874715.399999976","null","","<p></p>","null","choice","cdt","attraction_2","1","washing machines","null","null","null","null","null","null","1","","","","","","","","","",""
"","","","","","choice_trial","survey-html-form","113","2480259","0.0-5.0-1.14","128","1","2025-04-11 16:18:35","bb671e3ae32f654b8954ea4c4635f915","","Mozilla/5.0 (Windows NT 10.0; WOW64) AppleWebKit/537.36 (KHTML, like Gecko) Chrome/130.0.0.0 Safari/537.36","WebKit","Chrome","130.0.0.0","Windows","10.0","https://hz8g1ckzuq.cognition.run/","en,en-US;q=0.9;q=0.9","y8f6nxc0tfb9539","61","[""White""]","No","Female","2874715.399999976","3352","","","{""product_choice"":""C""}","choice","cdt","attraction_2","1","washing machines","null","null","null","null","null","null","1","60","50","60","50","60","40","Average lifespan","Energy savings","",""
"","","","","","choice_trial_setup","html-keyboard-response","114","2480565","0.0-5.0-0.15","128","1","2025-04-11 16:18:35","bb671e3ae32f654b8954ea4c4635f915","","Mozilla/5.0 (Windows NT 10.0; WOW64) AppleWebKit/537.36 (KHTML, like Gecko) Chrome/130.0.0.0 Safari/537.36","WebKit","Chrome","130.0.0.0","Windows","10.0","https://hz8g1ckzuq.cognition.run/","en,en-US;q=0.9;q=0.9","y8f6nxc0tfb9539","61","[""White""]","No","Female","2874715.399999976","null","","<p></p>","null","choice","tdc","repulsion_2","2","washing machines","null","null","null","null","null","null","2","","","","","","","","","",""
"","","","","","choice_trial","survey-html-form","115","2511641","0.0-5.0-1.15","128","1","2025-04-11 16:18:35","bb671e3ae32f654b8954ea4c4635f915","","Mozilla/5.0 (Windows NT 10.0; WOW64) AppleWebKit/537.36 (KHTML, like Gecko) Chrome/130.0.0.0 Safari/537.36","WebKit","Chrome","130.0.0.0","Windows","10.0","https://hz8g1ckzuq.cognition.run/","en,en-US;q=0.9;q=0.9","y8f6nxc0tfb9539","61","[""White""]","No","Female","2874715.399999976","31064","","","{""product_choice"":""B""}","choice","tdc","repulsion_2","2","washing machines","null","null","null","null","null","null","2","30","40","20","100","90","100","Average lifespan","Energy savings","",""
"","","","","","choice_trial_setup","html-keyboard-response","116","2511946","0.0-5.0-0.16","128","1","2025-04-11 16:18:35","bb671e3ae32f654b8954ea4c4635f915","","Mozilla/5.0 (Windows NT 10.0; WOW64) AppleWebKit/537.36 (KHTML, like Gecko) Chrome/130.0.0.0 Safari/537.36","WebKit","Chrome","130.0.0.0","Windows","10.0","https://hz8g1ckzuq.cognition.run/","en,en-US;q=0.9;q=0.9","y8f6nxc0tfb9539","61","[""White""]","No","Female","2874715.399999976","null","","<p></p>","null","choice","cdt","repulsion_2","2","televisions","null","null","null","null","null","null","1","","","","","","","","","",""
"","","","","","choice_trial","survey-html-form","117","2569357","0.0-5.0-1.16","128","1","2025-04-11 16:18:35","bb671e3ae32f654b8954ea4c4635f915","","Mozilla/5.0 (Windows NT 10.0; WOW64) AppleWebKit/537.36 (KHTML, like Gecko) Chrome/130.0.0.0 Safari/537.36","WebKit","Chrome","130.0.0.0","Windows","10.0","https://hz8g1ckzuq.cognition.run/","en,en-US;q=0.9;q=0.9","y8f6nxc0tfb9539","61","[""White""]","No","Female","2874715.399999976","57400","","","{""product_choice"":""B""}","choice","cdt","repulsion_2","2","televisions","null","null","null","null","null","null","1","30","40","20","100","90","100","Screen size","Average lifespan","",""
"","","","","","choice_trial_setup","html-keyboard-response","118","2569661","0.0-5.0-0.17","128","1","2025-04-11 16:18:35","bb671e3ae32f654b8954ea4c4635f915","","Mozilla/5.0 (Windows NT 10.0; WOW64) AppleWebKit/537.36 (KHTML, like Gecko) Chrome/130.0.0.0 Safari/537.36","WebKit","Chrome","130.0.0.0","Windows","10.0","https://hz8g1ckzuq.cognition.run/","en,en-US;q=0.9;q=0.9","y8f6nxc0tfb9539","61","[""White""]","No","Female","2874715.399999976","null","","<p></p>","null","choice","wwb","catch","null","laptops","85","75","10","25","5","30","1","","","","","","","","","",""
"","","","","","choice_trial","survey-html-form","119","2575254","0.0-5.0-1.17","128","1","2025-04-11 16:18:35","bb671e3ae32f654b8954ea4c4635f915","","Mozilla/5.0 (Windows NT 10.0; WOW64) AppleWebKit/537.36 (KHTML, like Gecko) Chrome/130.0.0.0 Safari/537.36","WebKit","Chrome","130.0.0.0","Windows","10.0","https://hz8g1ckzuq.cognition.run/","en,en-US;q=0.9;q=0.9","y8f6nxc0tfb9539","61","[""White""]","No","Female","2874715.399999976","5581","","","{""product_choice"":""A""}","choice","wwb","catch","null","laptops","85","75","10","25","5","30","1","null","null","null","null","null","null","Processing speed","Memory (RAM)","",""
"","","","","","choice_trial_setup","html-keyboard-response","120","2575560","0.0-5.0-0.18","128","1","2025-04-11 16:18:35","bb671e3ae32f654b8954ea4c4635f915","","Mozilla/5.0 (Windows NT 10.0; WOW64) AppleWebKit/537.36 (KHTML, like Gecko) Chrome/130.0.0.0 Safari/537.36","WebKit","Chrome","130.0.0.0","Windows","10.0","https://hz8g1ckzuq.cognition.run/","en,en-US;q=0.9;q=0.9","y8f6nxc0tfb9539","61","[""White""]","No","Female","2874715.399999976","null","","<p></p>","null","choice","ctd","attraction_2","1","microwave ovens","null","null","null","null","null","null","1","","","","","","","","","",""
"","","","","","choice_trial","survey-html-form","121","2586476","0.0-5.0-1.18","128","1","2025-04-11 16:18:35","bb671e3ae32f654b8954ea4c4635f915","","Mozilla/5.0 (Windows NT 10.0; WOW64) AppleWebKit/537.36 (KHTML, like Gecko) Chrome/130.0.0.0 Safari/537.36","WebKit","Chrome","130.0.0.0","Windows","10.0","https://hz8g1ckzuq.cognition.run/","en,en-US;q=0.9;q=0.9","y8f6nxc0tfb9539","61","[""White""]","No","Female","2874715.399999976","10909","","","{""product_choice"":""A""}","choice","ctd","attraction_2","1","microwave ovens","null","null","null","null","null","null","1","60","50","60","50","60","40","Warranty","Cooking power","",""
"","","","","","choice_trial_setup","html-keyboard-response","122","2586782","0.0-5.0-0.19","128","1","2025-04-11 16:18:35","bb671e3ae32f654b8954ea4c4635f915","","Mozilla/5.0 (Windows NT 10.0; WOW64) AppleWebKit/537.36 (KHTML, like Gecko) Chrome/130.0.0.0 Safari/537.36","WebKit","Chrome","130.0.0.0","Windows","10.0","https://hz8g1ckzuq.cognition.run/","en,en-US;q=0.9;q=0.9","y8f6nxc0tfb9539","61","[""White""]","No","Female","2874715.399999976","null","","<p></p>","null","choice","dtc","repulsion_2","2","microwave ovens","null","null","null","null","null","null","2","","","","","","","","","",""
"","","","","","choice_trial","survey-html-form","123","2589973","0.0-5.0-1.19","128","1","2025-04-11 16:18:35","bb671e3ae32f654b8954ea4c4635f915","","Mozilla/5.0 (Windows NT 10.0; WOW64) AppleWebKit/537.36 (KHTML, like Gecko) Chrome/130.0.0.0 Safari/537.36","WebKit","Chrome","130.0.0.0","Windows","10.0","https://hz8g1ckzuq.cognition.run/","en,en-US;q=0.9;q=0.9","y8f6nxc0tfb9539","61","[""White""]","No","Female","2874715.399999976","3179","","","{""product_choice"":""C""}","choice","dtc","repulsion_2","2","microwave ovens","null","null","null","null","null","null","2","30","40","20","100","90","100","Warranty","Cooking power","",""
"","","","","","choice_trial_setup","html-keyboard-response","124","2590278","0.0-5.0-0.20","128","1","2025-04-11 16:18:35","bb671e3ae32f654b8954ea4c4635f915","","Mozilla/5.0 (Windows NT 10.0; WOW64) AppleWebKit/537.36 (KHTML, like Gecko) Chrome/130.0.0.0 Safari/537.36","WebKit","Chrome","130.0.0.0","Windows","10.0","https://hz8g1ckzuq.cognition.run/","en,en-US;q=0.9;q=0.9","y8f6nxc0tfb9539","61","[""White""]","No","Female","2874715.399999976","null","","<p></p>","null","choice","dct","repulsion_2","1","microwave ovens","null","null","null","null","null","null","1","","","","","","","","","",""
"","","","","","choice_trial","survey-html-form","125","2594293","0.0-5.0-1.20","128","1","2025-04-11 16:18:35","bb671e3ae32f654b8954ea4c4635f915","","Mozilla/5.0 (Windows NT 10.0; WOW64) AppleWebKit/537.36 (KHTML, like Gecko) Chrome/130.0.0.0 Safari/537.36","WebKit","Chrome","130.0.0.0","Windows","10.0","https://hz8g1ckzuq.cognition.run/","en,en-US;q=0.9;q=0.9","y8f6nxc0tfb9539","61","[""White""]","No","Female","2874715.399999976","4003","","","{""product_choice"":""A""}","choice","dct","repulsion_2","1","microwave ovens","null","null","null","null","null","null","1","100","90","100","30","40","20","Warranty","Cooking power","",""
"","","","","","choice_trial_setup","html-keyboard-response","126","2594597","0.0-5.0-0.21","128","1","2025-04-11 16:18:35","bb671e3ae32f654b8954ea4c4635f915","","Mozilla/5.0 (Windows NT 10.0; WOW64) AppleWebKit/537.36 (KHTML, like Gecko) Chrome/130.0.0.0 Safari/537.36","WebKit","Chrome","130.0.0.0","Windows","10.0","https://hz8g1ckzuq.cognition.run/","en,en-US;q=0.9;q=0.9","y8f6nxc0tfb9539","61","[""White""]","No","Female","2874715.399999976","null","","<p></p>","null","choice","wbw","catch","null","microwave ovens","60","60","20","25","25","10","2","","","","","","","","","",""
"","","","","","choice_trial","survey-html-form","127","2597376","0.0-5.0-1.21","128","1","2025-04-11 16:18:35","bb671e3ae32f654b8954ea4c4635f915","","Mozilla/5.0 (Windows NT 10.0; WOW64) AppleWebKit/537.36 (KHTML, like Gecko) Chrome/130.0.0.0 Safari/537.36","WebKit","Chrome","130.0.0.0","Windows","10.0","https://hz8g1ckzuq.cognition.run/","en,en-US;q=0.9;q=0.9","y8f6nxc0tfb9539","61","[""White""]","No","Female","2874715.399999976","2772","","","{""product_choice"":""C""}","choice","wbw","catch","null","microwave ovens","60","60","20","25","25","10","2","null","null","null","null","null","null","Warranty","Cooking power","",""
"","","","","","choice_trial_setup","html-keyboard-response","128","2597680","0.0-5.0-0.22","128","1","2025-04-11 16:18:35","bb671e3ae32f654b8954ea4c4635f915","","Mozilla/5.0 (Windows NT 10.0; WOW64) AppleWebKit/537.36 (KHTML, like Gecko) Chrome/130.0.0.0 Safari/537.36","WebKit","Chrome","130.0.0.0","Windows","10.0","https://hz8g1ckzuq.cognition.run/","en,en-US;q=0.9;q=0.9","y8f6nxc0tfb9539","61","[""White""]","No","Female","2874715.399999976","null","","<p></p>","null","choice","dtc","attraction_2","1","laptops","null","null","null","null","null","null","1","","","","","","","","","",""
"","","","","","choice_trial","survey-html-form","129","2601002","0.0-5.0-1.22","128","1","2025-04-11 16:18:35","bb671e3ae32f654b8954ea4c4635f915","","Mozilla/5.0 (Windows NT 10.0; WOW64) AppleWebKit/537.36 (KHTML, like Gecko) Chrome/130.0.0.0 Safari/537.36","WebKit","Chrome","130.0.0.0","Windows","10.0","https://hz8g1ckzuq.cognition.run/","en,en-US;q=0.9;q=0.9","y8f6nxc0tfb9539","61","[""White""]","No","Female","2874715.399999976","3310","","","{""product_choice"":""A""}","choice","dtc","attraction_2","1","laptops","null","null","null","null","null","null","1","60","50","60","50","60","40","Processing speed","Memory (RAM)","",""
"","","","","","choice_trial_setup","html-keyboard-response","130","2601309","0.0-5.0-0.23","128","1","2025-04-11 16:18:35","bb671e3ae32f654b8954ea4c4635f915","","Mozilla/5.0 (Windows NT 10.0; WOW64) AppleWebKit/537.36 (KHTML, like Gecko) Chrome/130.0.0.0 Safari/537.36","WebKit","Chrome","130.0.0.0","Windows","10.0","https://hz8g1ckzuq.cognition.run/","en,en-US;q=0.9;q=0.9","y8f6nxc0tfb9539","61","[""White""]","No","Female","2874715.399999976","null","","<p></p>","null","choice","tdc","attraction_2","1","televisions","null","null","null","null","null","null","2","","","","","","","","","",""
"","","","","","choice_trial","survey-html-form","131","2604278","0.0-5.0-1.23","128","1","2025-04-11 16:18:35","bb671e3ae32f654b8954ea4c4635f915","","Mozilla/5.0 (Windows NT 10.0; WOW64) AppleWebKit/537.36 (KHTML, like Gecko) Chrome/130.0.0.0 Safari/537.36","WebKit","Chrome","130.0.0.0","Windows","10.0","https://hz8g1ckzuq.cognition.run/","en,en-US;q=0.9;q=0.9","y8f6nxc0tfb9539","61","[""White""]","No","Female","2874715.399999976","2954","","","{""product_choice"":""B""}","choice","tdc","attraction_2","1","televisions","null","null","null","null","null","null","2","60","50","60","50","60","40","Screen size","Average lifespan","",""
"","","","","","choice_trial_setup","html-keyboard-response","132","2604583","0.0-5.0-0.24","128","1","2025-04-11 16:18:35","bb671e3ae32f654b8954ea4c4635f915","","Mozilla/5.0 (Windows NT 10.0; WOW64) AppleWebKit/537.36 (KHTML, like Gecko) Chrome/130.0.0.0 Safari/537.36","WebKit","Chrome","130.0.0.0","Windows","10.0","https://hz8g1ckzuq.cognition.run/","en,en-US;q=0.9;q=0.9","y8f6nxc0tfb9539","61","[""White""]","No","Female","2874715.399999976","null","","<p></p>","null","choice","wbw","catch","null","washing machines","55","50","45","50","20","5","2","","","","","","","","","",""
"","","","","","choice_trial","survey-html-form","133","2607510","0.0-5.0-1.24","128","1","2025-04-11 16:18:35","bb671e3ae32f654b8954ea4c4635f915","","Mozilla/5.0 (Windows NT 10.0; WOW64) AppleWebKit/537.36 (KHTML, like Gecko) Chrome/130.0.0.0 Safari/537.36","WebKit","Chrome","130.0.0.0","Windows","10.0","https://hz8g1ckzuq.cognition.run/","en,en-US;q=0.9;q=0.9","y8f6nxc0tfb9539","61","[""White""]","No","Female","2874715.399999976","2920","","","{""product_choice"":""A""}","choice","wbw","catch","null","washing machines","55","50","45","50","20","5","2","null","null","null","null","null","null","Average lifespan","Energy savings","",""
"","","","","","choice_trial_setup","html-keyboard-response","134","2607818","0.0-5.0-0.25","128","1","2025-04-11 16:18:35","bb671e3ae32f654b8954ea4c4635f915","","Mozilla/5.0 (Windows NT 10.0; WOW64) AppleWebKit/537.36 (KHTML, like Gecko) Chrome/130.0.0.0 Safari/537.36","WebKit","Chrome","130.0.0.0","Windows","10.0","https://hz8g1ckzuq.cognition.run/","en,en-US;q=0.9;q=0.9","y8f6nxc0tfb9539","61","[""White""]","No","Female","2874715.399999976","null","","<p></p>","null","choice","bww","catch","null","microwave ovens","70","65","45","35","45","5","2","","","","","","","","","",""
"","","","","","choice_trial","survey-html-form","135","2610535","0.0-5.0-1.25","128","1","2025-04-11 16:18:35","bb671e3ae32f654b8954ea4c4635f915","","Mozilla/5.0 (Windows NT 10.0; WOW64) AppleWebKit/537.36 (KHTML, like Gecko) Chrome/130.0.0.0 Safari/537.36","WebKit","Chrome","130.0.0.0","Windows","10.0","https://hz8g1ckzuq.cognition.run/","en,en-US;q=0.9;q=0.9","y8f6nxc0tfb9539","61","[""White""]","No","Female","2874715.399999976","2703","","","{""product_choice"":""B""}","choice","bww","catch","null","microwave ovens","70","65","45","35","45","5","2","null","null","null","null","null","null","Warranty","Cooking power","",""
"","","","","","choice_trial_setup","html-keyboard-response","136","2610841","0.0-5.0-0.26","128","1","2025-04-11 16:18:35","bb671e3ae32f654b8954ea4c4635f915","","Mozilla/5.0 (Windows NT 10.0; WOW64) AppleWebKit/537.36 (KHTML, like Gecko) Chrome/130.0.0.0 Safari/537.36","WebKit","Chrome","130.0.0.0","Windows","10.0","https://hz8g1ckzuq.cognition.run/","en,en-US;q=0.9;q=0.9","y8f6nxc0tfb9539","61","[""White""]","No","Female","2874715.399999976","null","","<p></p>","null","choice","cdt","attraction_1","2","washing machines","null","null","null","null","null","null","1","","","","","","","","","",""
"","","","","","choice_trial","survey-html-form","137","2621830","0.0-5.0-1.26","128","1","2025-04-11 16:18:35","bb671e3ae32f654b8954ea4c4635f915","","Mozilla/5.0 (Windows NT 10.0; WOW64) AppleWebKit/537.36 (KHTML, like Gecko) Chrome/130.0.0.0 Safari/537.36","WebKit","Chrome","130.0.0.0","Windows","10.0","https://hz8g1ckzuq.cognition.run/","en,en-US;q=0.9;q=0.9","y8f6nxc0tfb9539","61","[""White""]","No","Female","2874715.399999976","10978","","","{""product_choice"":""A""}","choice","cdt","attraction_1","2","washing machines","null","null","null","null","null","null","1","50","60","45","60","50","60","Average lifespan","Energy savings","",""
"","","","","","choice_trial_setup","html-keyboard-response","138","2622136","0.0-5.0-0.27","128","1","2025-04-11 16:18:35","bb671e3ae32f654b8954ea4c4635f915","","Mozilla/5.0 (Windows NT 10.0; WOW64) AppleWebKit/537.36 (KHTML, like Gecko) Chrome/130.0.0.0 Safari/537.36","WebKit","Chrome","130.0.0.0","Windows","10.0","https://hz8g1ckzuq.cognition.run/","en,en-US;q=0.9;q=0.9","y8f6nxc0tfb9539","61","[""White""]","No","Female","2874715.399999976","null","","<p></p>","null","choice","wbw","catch","null","washing machines","70","55","35","25","50","25","1","","","","","","","","","",""
"","","","","","choice_trial","survey-html-form","139","2630216","0.0-5.0-1.27","128","1","2025-04-11 16:18:35","bb671e3ae32f654b8954ea4c4635f915","","Mozilla/5.0 (Windows NT 10.0; WOW64) AppleWebKit/537.36 (KHTML, like Gecko) Chrome/130.0.0.0 Safari/537.36","WebKit","Chrome","130.0.0.0","Windows","10.0","https://hz8g1ckzuq.cognition.run/","en,en-US;q=0.9;q=0.9","y8f6nxc0tfb9539","61","[""White""]","No","Female","2874715.399999976","8066","","","{""product_choice"":""B""}","choice","wbw","catch","null","washing machines","70","55","35","25","50","25","1","null","null","null","null","null","null","Average lifespan","Energy savings","",""
"","","","","","choice_trial_setup","html-keyboard-response","140","2630521","0.0-5.0-0.28","128","1","2025-04-11 16:18:35","bb671e3ae32f654b8954ea4c4635f915","","Mozilla/5.0 (Windows NT 10.0; WOW64) AppleWebKit/537.36 (KHTML, like Gecko) Chrome/130.0.0.0 Safari/537.36","WebKit","Chrome","130.0.0.0","Windows","10.0","https://hz8g1ckzuq.cognition.run/","en,en-US;q=0.9;q=0.9","y8f6nxc0tfb9539","61","[""White""]","No","Female","2874715.399999976","null","","<p></p>","null","choice","tcd","attraction_1","1","microwave ovens","null","null","null","null","null","null","2","","","","","","","","","",""
"","","","","","choice_trial","survey-html-form","141","2637083","0.0-5.0-1.28","128","1","2025-04-11 16:18:35","bb671e3ae32f654b8954ea4c4635f915","","Mozilla/5.0 (Windows NT 10.0; WOW64) AppleWebKit/537.36 (KHTML, like Gecko) Chrome/130.0.0.0 Safari/537.36","WebKit","Chrome","130.0.0.0","Windows","10.0","https://hz8g1ckzuq.cognition.run/","en,en-US;q=0.9;q=0.9","y8f6nxc0tfb9539","61","[""White""]","No","Female","2874715.399999976","6550","","","{""product_choice"":""B""}","choice","tcd","attraction_1","1","microwave ovens","null","null","null","null","null","null","2","60","50","60","50","60","45","Warranty","Cooking power","",""
"","","","","","choice_trial_setup","html-keyboard-response","142","2637388","0.0-5.0-0.29","128","1","2025-04-11 16:18:35","bb671e3ae32f654b8954ea4c4635f915","","Mozilla/5.0 (Windows NT 10.0; WOW64) AppleWebKit/537.36 (KHTML, like Gecko) Chrome/130.0.0.0 Safari/537.36","WebKit","Chrome","130.0.0.0","Windows","10.0","https://hz8g1ckzuq.cognition.run/","en,en-US;q=0.9;q=0.9","y8f6nxc0tfb9539","61","[""White""]","No","Female","2874715.399999976","null","","<p></p>","null","choice","tdc","repulsion_1","1","laptops","null","null","null","null","null","null","1","","","","","","","","","",""
"","","","","","choice_trial","survey-html-form","143","2641401","0.0-5.0-1.29","128","1","2025-04-11 16:18:35","bb671e3ae32f654b8954ea4c4635f915","","Mozilla/5.0 (Windows NT 10.0; WOW64) AppleWebKit/537.36 (KHTML, like Gecko) Chrome/130.0.0.0 Safari/537.36","WebKit","Chrome","130.0.0.0","Windows","10.0","https://hz8g1ckzuq.cognition.run/","en,en-US;q=0.9;q=0.9","y8f6nxc0tfb9539","61","[""White""]","No","Female","2874715.399999976","3999","","","{""product_choice"":""A""}","choice","tdc","repulsion_1","1","laptops","null","null","null","null","null","null","1","100","90","100","30","40","25","Processing speed","Memory (RAM)","",""
"","","","","","choice_trial_setup","html-keyboard-response","144","2641707","0.0-5.0-0.30","128","1","2025-04-11 16:18:35","bb671e3ae32f654b8954ea4c4635f915","","Mozilla/5.0 (Windows NT 10.0; WOW64) AppleWebKit/537.36 (KHTML, like Gecko) Chrome/130.0.0.0 Safari/537.36","WebKit","Chrome","130.0.0.0","Windows","10.0","https://hz8g1ckzuq.cognition.run/","en,en-US;q=0.9;q=0.9","y8f6nxc0tfb9539","61","[""White""]","No","Female","2874715.399999976","null","","<p></p>","null","choice","dct","repulsion_2","1","washing machines","null","null","null","null","null","null","1","","","","","","","","","",""
"","","","","","choice_trial","survey-html-form","145","2655475","0.0-5.0-1.30","128","1","2025-04-11 16:18:35","bb671e3ae32f654b8954ea4c4635f915","","Mozilla/5.0 (Windows NT 10.0; WOW64) AppleWebKit/537.36 (KHTML, like Gecko) Chrome/130.0.0.0 Safari/537.36","WebKit","Chrome","130.0.0.0","Windows","10.0","https://hz8g1ckzuq.cognition.run/","en,en-US;q=0.9;q=0.9","y8f6nxc0tfb9539","61","[""White""]","No","Female","2874715.399999976","13755","","","{""product_choice"":""B""}","choice","dct","repulsion_2","1","washing machines","null","null","null","null","null","null","1","100","90","100","30","40","20","Average lifespan","Energy savings","",""
"","","","","","choice_trial_setup","html-keyboard-response","146","2655783","0.0-5.0-0.31","128","1","2025-04-11 16:18:35","bb671e3ae32f654b8954ea4c4635f915","","Mozilla/5.0 (Windows NT 10.0; WOW64) AppleWebKit/537.36 (KHTML, like Gecko) Chrome/130.0.0.0 Safari/537.36","WebKit","Chrome","130.0.0.0","Windows","10.0","https://hz8g1ckzuq.cognition.run/","en,en-US;q=0.9;q=0.9","y8f6nxc0tfb9539","61","[""White""]","No","Female","2874715.399999976","null","","<p></p>","null","choice","dct","repulsion_1","1","microwave ovens","null","null","null","null","null","null","1","","","","","","","","","",""
"","","","","","choice_trial","survey-html-form","147","2664744","0.0-5.0-1.31","128","1","2025-04-11 16:18:35","bb671e3ae32f654b8954ea4c4635f915","","Mozilla/5.0 (Windows NT 10.0; WOW64) AppleWebKit/537.36 (KHTML, like Gecko) Chrome/130.0.0.0 Safari/537.36","WebKit","Chrome","130.0.0.0","Windows","10.0","https://hz8g1ckzuq.cognition.run/","en,en-US;q=0.9;q=0.9","y8f6nxc0tfb9539","61","[""White""]","No","Female","2874715.399999976","8949","","","{""product_choice"":""A""}","choice","dct","repulsion_1","1","microwave ovens","null","null","null","null","null","null","1","100","90","100","30","40","25","Warranty","Cooking power","",""
"","","","","","choice_trial_setup","html-keyboard-response","148","2665049","0.0-5.0-0.32","128","1","2025-04-11 16:18:35","bb671e3ae32f654b8954ea4c4635f915","","Mozilla/5.0 (Windows NT 10.0; WOW64) AppleWebKit/537.36 (KHTML, like Gecko) Chrome/130.0.0.0 Safari/537.36","WebKit","Chrome","130.0.0.0","Windows","10.0","https://hz8g1ckzuq.cognition.run/","en,en-US;q=0.9;q=0.9","y8f6nxc0tfb9539","61","[""White""]","No","Female","2874715.399999976","null","","<p></p>","null","choice","wbw","catch","null","laptops","55","85","20","45","20","5","2","","","","","","","","","",""
"","","","","","choice_trial","survey-html-form","149","2678116","0.0-5.0-1.32","128","1","2025-04-11 16:18:35","bb671e3ae32f654b8954ea4c4635f915","","Mozilla/5.0 (Windows NT 10.0; WOW64) AppleWebKit/537.36 (KHTML, like Gecko) Chrome/130.0.0.0 Safari/537.36","WebKit","Chrome","130.0.0.0","Windows","10.0","https://hz8g1ckzuq.cognition.run/","en,en-US;q=0.9;q=0.9","y8f6nxc0tfb9539","61","[""White""]","No","Female","2874715.399999976","13052","","","{""product_choice"":""B""}","choice","wbw","catch","null","laptops","55","85","20","45","20","5","2","null","null","null","null","null","null","Processing speed","Memory (RAM)","",""
"","","","","","choice_trial_setup","html-keyboard-response","150","2678423","0.0-5.0-0.33","128","1","2025-04-11 16:18:35","bb671e3ae32f654b8954ea4c4635f915","","Mozilla/5.0 (Windows NT 10.0; WOW64) AppleWebKit/537.36 (KHTML, like Gecko) Chrome/130.0.0.0 Safari/537.36","WebKit","Chrome","130.0.0.0","Windows","10.0","https://hz8g1ckzuq.cognition.run/","en,en-US;q=0.9;q=0.9","y8f6nxc0tfb9539","61","[""White""]","No","Female","2874715.399999976","null","","<p></p>","null","choice","dct","repulsion_2","1","laptops","null","null","null","null","null","null","2","","","","","","","","","",""
"","","","","","choice_trial","survey-html-form","151","2682769","0.0-5.0-1.33","128","1","2025-04-11 16:18:35","bb671e3ae32f654b8954ea4c4635f915","","Mozilla/5.0 (Windows NT 10.0; WOW64) AppleWebKit/537.36 (KHTML, like Gecko) Chrome/130.0.0.0 Safari/537.36","WebKit","Chrome","130.0.0.0","Windows","10.0","https://hz8g1ckzuq.cognition.run/","en,en-US;q=0.9;q=0.9","y8f6nxc0tfb9539","61","[""White""]","No","Female","2874715.399999976","4332","","","{""product_choice"":""B""}","choice","dct","repulsion_2","1","laptops","null","null","null","null","null","null","2","100","90","100","30","40","20","Processing speed","Memory (RAM)","",""
"","","","","","choice_trial_setup","html-keyboard-response","152","2683076","0.0-5.0-0.34","128","1","2025-04-11 16:18:35","bb671e3ae32f654b8954ea4c4635f915","","Mozilla/5.0 (Windows NT 10.0; WOW64) AppleWebKit/537.36 (KHTML, like Gecko) Chrome/130.0.0.0 Safari/537.36","WebKit","Chrome","130.0.0.0","Windows","10.0","https://hz8g1ckzuq.cognition.run/","en,en-US;q=0.9;q=0.9","y8f6nxc0tfb9539","61","[""White""]","No","Female","2874715.399999976","null","","<p></p>","null","choice","dct","attraction_2","2","televisions","null","null","null","null","null","null","2","","","","","","","","","",""
"","","","","","choice_trial","survey-html-form","153","2688251","0.0-5.0-1.34","128","1","2025-04-11 16:18:35","bb671e3ae32f654b8954ea4c4635f915","","Mozilla/5.0 (Windows NT 10.0; WOW64) AppleWebKit/537.36 (KHTML, like Gecko) Chrome/130.0.0.0 Safari/537.36","WebKit","Chrome","130.0.0.0","Windows","10.0","https://hz8g1ckzuq.cognition.run/","en,en-US;q=0.9;q=0.9","y8f6nxc0tfb9539","61","[""White""]","No","Female","2874715.399999976","5162","","","{""product_choice"":""A""}","choice","dct","attraction_2","2","televisions","null","null","null","null","null","null","2","50","60","40","60","50","60","Screen size","Average lifespan","",""
"","","","","","choice_trial_setup","html-keyboard-response","154","2688557","0.0-5.0-0.35","128","1","2025-04-11 16:18:35","bb671e3ae32f654b8954ea4c4635f915","","Mozilla/5.0 (Windows NT 10.0; WOW64) AppleWebKit/537.36 (KHTML, like Gecko) Chrome/130.0.0.0 Safari/537.36","WebKit","Chrome","130.0.0.0","Windows","10.0","https://hz8g1ckzuq.cognition.run/","en,en-US;q=0.9;q=0.9","y8f6nxc0tfb9539","61","[""White""]","No","Female","2874715.399999976","null","","<p></p>","null","choice","tcd","repulsion_1","2","laptops","null","null","null","null","null","null","1","","","","","","","","","",""
"","","","","","choice_trial","survey-html-form","155","2692601","0.0-5.0-1.35","128","1","2025-04-11 16:18:35","bb671e3ae32f654b8954ea4c4635f915","","Mozilla/5.0 (Windows NT 10.0; WOW64) AppleWebKit/537.36 (KHTML, like Gecko) Chrome/130.0.0.0 Safari/537.36","WebKit","Chrome","130.0.0.0","Windows","10.0","https://hz8g1ckzuq.cognition.run/","en,en-US;q=0.9;q=0.9","y8f6nxc0tfb9539","61","[""White""]","No","Female","2874715.399999976","4031","","","{""product_choice"":""B""}","choice","tcd","repulsion_1","2","laptops","null","null","null","null","null","null","1","30","40","25","100","90","100","Processing speed","Memory (RAM)","",""
"","","","","","choice_trial_setup","html-keyboard-response","156","2692908","0.0-5.0-0.36","128","1","2025-04-11 16:18:35","bb671e3ae32f654b8954ea4c4635f915","","Mozilla/5.0 (Windows NT 10.0; WOW64) AppleWebKit/537.36 (KHTML, like Gecko) Chrome/130.0.0.0 Safari/537.36","WebKit","Chrome","130.0.0.0","Windows","10.0","https://hz8g1ckzuq.cognition.run/","en,en-US;q=0.9;q=0.9","y8f6nxc0tfb9539","61","[""White""]","No","Female","2874715.399999976","null","","<p></p>","null","choice","tcd","repulsion_1","2","televisions","null","null","null","null","null","null","2","","","","","","","","","",""
