"success","timeout","failed_images","failed_audio","failed_video","screen_id","trial_type","trial_index","time_elapsed","internal_node_id","run_id","condition","recorded_at","source_code_version","ip","user_agent","device","browser","browser_version","platform","platform_version","referer","accept_language","ppt_id","age","race","ethnicity","gender","exp_duration","rt","view_history","stimulus","response","phase","order","effect","t_high","category","d1_best","d2_best","d1_worst1","d2_worst1","d1_worst2","d2_worst2","first_dim","d1_t","d1_c","d1_d","d2_t","d2_c","d2_d","d1_name","d2_name","strategy_response","question_order"
"true","false","[]","[]","[]","img preload","preload","0","6089","0.0-0.0","130","1","2025-04-11 16:31:03","bb671e3ae32f654b8954ea4c4635f915","","Mozilla/5.0 (Windows NT 10.0; Win64; x64) AppleWebKit/537.36 (KHTML, like Gecko) Chrome/132.0.0.0 Safari/537.36","WebKit","Chrome","132.0.0.0","Windows","10.0","https://hz8g1ckzuq.cognition.run/","en-US,en;q=0.9","ggqpbz5v5ug6osz","34","[""White""]","No","Female","1963280.400000006","","","","","","","","","","","","","","","","","","","","","","","","","",""
"true","","","","","","fullscreen","1","11682","0.0-1.0","130","1","2025-04-11 16:31:03","bb671e3ae32f654b8954ea4c4635f915","","Mozilla/5.0 (Windows NT 10.0; Win64; x64) AppleWebKit/537.36 (KHTML, like Gecko) Chrome/132.0.0.0 Safari/537.36","WebKit","Chrome","132.0.0.0","Windows","10.0","https://hz8g1ckzuq.cognition.run/","en-US,en;q=0.9","ggqpbz5v5ug6osz","34","[""White""]","No","Female","1963280.400000006","4571","","","","","","","","","","","","","","","","","","","","","","","","",""
"","","","","","","instructions","2","167060","0.0-2.0","130","1","2025-04-11 16:31:03","bb671e3ae32f654b8954ea4c4635f915","","Mozilla/5.0 (Windows NT 10.0; Win64; x64) AppleWebKit/537.36 (KHTML, like Gecko) Chrome/132.0.0.0 Safari/537.36","WebKit","Chrome","132.0.0.0","Windows","10.0","https://hz8g1ckzuq.cognition.run/","en-US,en;q=0.9","ggqpbz5v5ug6osz","34","[""White""]","No","Female","1963280.400000006","155375","[{""page_index"":0,""viewing_time"":2621},{""page_index"":1,""viewing_time"":9779},{""page_index"":2,""viewing_time"":9629},{""page_index"":3,""viewing_time"":10309},{""page_index"":4,""viewing_time"":18309},{""page_index"":5,""viewing_time"":13591},{""page_index"":6,""viewing_time"":12396},{""page_index"":7,""viewing_time"":33335},{""page_index"":8,""viewing_time"":35679},{""page_index"":9,""viewing_time"":9726}]","","","","","","","","","","","","","","","","","","","","","","","",""
"","","","","","rating_trial_setup","html-keyboard-response","3","167368","0.0-3.0-0.0","130","1","2025-04-11 16:31:03","bb671e3ae32f654b8954ea4c4635f915","","Mozilla/5.0 (Windows NT 10.0; Win64; x64) AppleWebKit/537.36 (KHTML, like Gecko) Chrome/132.0.0.0 Safari/537.36","WebKit","Chrome","132.0.0.0","Windows","10.0","https://hz8g1ckzuq.cognition.run/","en-US,en;q=0.9","ggqpbz5v5ug6osz","34","[""White""]","No","Female","1963280.400000006","null","","<p></p>","null","rating","ctd","repulsion_2","1","washing machines","null","null","null","null","null","null","2","","","","","","","","","",""
"","","","","","rating_trial","survey-html-form","4","238874","0.0-3.0-1.0","130","1","2025-04-11 16:31:03","bb671e3ae32f654b8954ea4c4635f915","","Mozilla/5.0 (Windows NT 10.0; Win64; x64) AppleWebKit/537.36 (KHTML, like Gecko) Chrome/132.0.0.0 Safari/537.36","WebKit","Chrome","132.0.0.0","Windows","10.0","https://hz8g1ckzuq.cognition.run/","en-US,en;q=0.9","ggqpbz5v5ug6osz","34","[""White""]","No","Female","1963280.400000006","71498","","","{""price_1"":""500"",""price_2"":""450"",""price_3"":""380""}","rating","ctd","repulsion_2","1","washing machines","null","null","null","null","null","null","2","100","90","100","30","40","20","Average lifespan","Energy savings","",""
"","","","","","rating_trial_setup","html-keyboard-response","5","239178","0.0-3.0-0.1","130","1","2025-04-11 16:31:03","bb671e3ae32f654b8954ea4c4635f915","","Mozilla/5.0 (Windows NT 10.0; Win64; x64) AppleWebKit/537.36 (KHTML, like Gecko) Chrome/132.0.0.0 Safari/537.36","WebKit","Chrome","132.0.0.0","Windows","10.0","https://hz8g1ckzuq.cognition.run/","en-US,en;q=0.9","ggqpbz5v5ug6osz","34","[""White""]","No","Female","1963280.400000006","null","","<p></p>","null","rating","dct","attraction_2","1","microwave ovens","null","null","null","null","null","null","2","","","","","","","","","",""
"","","","","","rating_trial","survey-html-form","6","273407","0.0-3.0-1.1","130","1","2025-04-11 16:31:03","bb671e3ae32f654b8954ea4c4635f915","","Mozilla/5.0 (Windows NT 10.0; Win64; x64) AppleWebKit/537.36 (KHTML, like Gecko) Chrome/132.0.0.0 Safari/537.36","WebKit","Chrome","132.0.0.0","Windows","10.0","https://hz8g1ckzuq.cognition.run/","en-US,en;q=0.9","ggqpbz5v5ug6osz","34","[""White""]","No","Female","1963280.400000006","34225","","","{""price_1"":""250"",""price_2"":""300"",""price_3"":""320""}","rating","dct","attraction_2","1","microwave ovens","null","null","null","null","null","null","2","60","50","60","50","60","40","Warranty","Cooking power","",""
"","","","","","rating_trial_setup","html-keyboard-response","7","273724","0.0-3.0-0.2","130","1","2025-04-11 16:31:03","bb671e3ae32f654b8954ea4c4635f915","","Mozilla/5.0 (Windows NT 10.0; Win64; x64) AppleWebKit/537.36 (KHTML, like Gecko) Chrome/132.0.0.0 Safari/537.36","WebKit","Chrome","132.0.0.0","Windows","10.0","https://hz8g1ckzuq.cognition.run/","en-US,en;q=0.9","ggqpbz5v5ug6osz","34","[""White""]","No","Female","1963280.400000006","null","","<p></p>","null","rating","wwb","catch","null","laptops","70","55","35","10","20","10","1","","","","","","","","","",""
"","","","","","rating_trial","survey-html-form","8","325413","0.0-3.0-1.2","130","1","2025-04-11 16:31:03","bb671e3ae32f654b8954ea4c4635f915","","Mozilla/5.0 (Windows NT 10.0; Win64; x64) AppleWebKit/537.36 (KHTML, like Gecko) Chrome/132.0.0.0 Safari/537.36","WebKit","Chrome","132.0.0.0","Windows","10.0","https://hz8g1ckzuq.cognition.run/","en-US,en;q=0.9","ggqpbz5v5ug6osz","34","[""White""]","No","Female","1963280.400000006","51685","","","{""price_1"":""200"",""price_2"":""180"",""price_3"":""300""}","rating","wwb","catch","null","laptops","70","55","35","10","20","10","1","null","null","null","null","null","null","Processing speed","Memory (RAM)","",""
"","","","","","rating_trial_setup","html-keyboard-response","9","325727","0.0-3.0-0.3","130","1","2025-04-11 16:31:03","bb671e3ae32f654b8954ea4c4635f915","","Mozilla/5.0 (Windows NT 10.0; Win64; x64) AppleWebKit/537.36 (KHTML, like Gecko) Chrome/132.0.0.0 Safari/537.36","WebKit","Chrome","132.0.0.0","Windows","10.0","https://hz8g1ckzuq.cognition.run/","en-US,en;q=0.9","ggqpbz5v5ug6osz","34","[""White""]","No","Female","1963280.400000006","null","","<p></p>","null","rating","tdc","repulsion_2","2","microwave ovens","null","null","null","null","null","null","1","","","","","","","","","",""
"","","","","","rating_trial","survey-html-form","10","355855","0.0-3.0-1.3","130","1","2025-04-11 16:31:03","bb671e3ae32f654b8954ea4c4635f915","","Mozilla/5.0 (Windows NT 10.0; Win64; x64) AppleWebKit/537.36 (KHTML, like Gecko) Chrome/132.0.0.0 Safari/537.36","WebKit","Chrome","132.0.0.0","Windows","10.0","https://hz8g1ckzuq.cognition.run/","en-US,en;q=0.9","ggqpbz5v5ug6osz","34","[""White""]","No","Female","1963280.400000006","30124","","","{""price_1"":""300"",""price_2"":""280"",""price_3"":""320""}","rating","tdc","repulsion_2","2","microwave ovens","null","null","null","null","null","null","1","30","40","20","100","90","100","Warranty","Cooking power","",""
"","","","","","rating_trial_setup","html-keyboard-response","11","356160","0.0-3.0-0.4","130","1","2025-04-11 16:31:03","bb671e3ae32f654b8954ea4c4635f915","","Mozilla/5.0 (Windows NT 10.0; Win64; x64) AppleWebKit/537.36 (KHTML, like Gecko) Chrome/132.0.0.0 Safari/537.36","WebKit","Chrome","132.0.0.0","Windows","10.0","https://hz8g1ckzuq.cognition.run/","en-US,en;q=0.9","ggqpbz5v5ug6osz","34","[""White""]","No","Female","1963280.400000006","null","","<p></p>","null","rating","wbw","catch","null","washing machines","75","95","45","30","25","45","2","","","","","","","","","",""
"","","","","","rating_trial","survey-html-form","12","386440","0.0-3.0-1.4","130","1","2025-04-11 16:31:03","bb671e3ae32f654b8954ea4c4635f915","","Mozilla/5.0 (Windows NT 10.0; Win64; x64) AppleWebKit/537.36 (KHTML, like Gecko) Chrome/132.0.0.0 Safari/537.36","WebKit","Chrome","132.0.0.0","Windows","10.0","https://hz8g1ckzuq.cognition.run/","en-US,en;q=0.9","ggqpbz5v5ug6osz","34","[""White""]","No","Female","1963280.400000006","30276","","","{""price_1"":""350"",""price_2"":""550"",""price_3"":""350""}","rating","wbw","catch","null","washing machines","75","95","45","30","25","45","2","null","null","null","null","null","null","Average lifespan","Energy savings","",""
"","","","","","rating_trial_setup","html-keyboard-response","13","386760","0.0-3.0-0.5","130","1","2025-04-11 16:31:03","bb671e3ae32f654b8954ea4c4635f915","","Mozilla/5.0 (Windows NT 10.0; Win64; x64) AppleWebKit/537.36 (KHTML, like Gecko) Chrome/132.0.0.0 Safari/537.36","WebKit","Chrome","132.0.0.0","Windows","10.0","https://hz8g1ckzuq.cognition.run/","en-US,en;q=0.9","ggqpbz5v5ug6osz","34","[""White""]","No","Female","1963280.400000006","null","","<p></p>","null","rating","tdc","repulsion_1","2","televisions","null","null","null","null","null","null","1","","","","","","","","","",""
"","","","","","rating_trial","survey-html-form","14","409067","0.0-3.0-1.5","130","1","2025-04-11 16:31:03","bb671e3ae32f654b8954ea4c4635f915","","Mozilla/5.0 (Windows NT 10.0; Win64; x64) AppleWebKit/537.36 (KHTML, like Gecko) Chrome/132.0.0.0 Safari/537.36","WebKit","Chrome","132.0.0.0","Windows","10.0","https://hz8g1ckzuq.cognition.run/","en-US,en;q=0.9","ggqpbz5v5ug6osz","34","[""White""]","No","Female","1963280.400000006","22301","","","{""price_1"":""300"",""price_2"":""280"",""price_3"":""350""}","rating","tdc","repulsion_1","2","televisions","null","null","null","null","null","null","1","30","40","25","100","90","100","Screen size","Average lifespan","",""
"","","","","","rating_trial_setup","html-keyboard-response","15","409379","0.0-3.0-0.6","130","1","2025-04-11 16:31:03","bb671e3ae32f654b8954ea4c4635f915","","Mozilla/5.0 (Windows NT 10.0; Win64; x64) AppleWebKit/537.36 (KHTML, like Gecko) Chrome/132.0.0.0 Safari/537.36","WebKit","Chrome","132.0.0.0","Windows","10.0","https://hz8g1ckzuq.cognition.run/","en-US,en;q=0.9","ggqpbz5v5ug6osz","34","[""White""]","No","Female","1963280.400000006","null","","<p></p>","null","rating","ctd","attraction_2","2","televisions","null","null","null","null","null","null","2","","","","","","","","","",""
"","","","","","rating_trial","survey-html-form","16","426678","0.0-3.0-1.6","130","1","2025-04-11 16:31:03","bb671e3ae32f654b8954ea4c4635f915","","Mozilla/5.0 (Windows NT 10.0; Win64; x64) AppleWebKit/537.36 (KHTML, like Gecko) Chrome/132.0.0.0 Safari/537.36","WebKit","Chrome","132.0.0.0","Windows","10.0","https://hz8g1ckzuq.cognition.run/","en-US,en;q=0.9","ggqpbz5v5ug6osz","34","[""White""]","No","Female","1963280.400000006","17294","","","{""price_1"":""380"",""price_2"":""380"",""price_3"":""300""}","rating","ctd","attraction_2","2","televisions","null","null","null","null","null","null","2","50","60","40","60","50","60","Screen size","Average lifespan","",""
"","","","","","rating_trial_setup","html-keyboard-response","17","426991","0.0-3.0-0.7","130","1","2025-04-11 16:31:03","bb671e3ae32f654b8954ea4c4635f915","","Mozilla/5.0 (Windows NT 10.0; Win64; x64) AppleWebKit/537.36 (KHTML, like Gecko) Chrome/132.0.0.0 Safari/537.36","WebKit","Chrome","132.0.0.0","Windows","10.0","https://hz8g1ckzuq.cognition.run/","en-US,en;q=0.9","ggqpbz5v5ug6osz","34","[""White""]","No","Female","1963280.400000006","null","","<p></p>","null","rating","cdt","attraction_2","1","washing machines","null","null","null","null","null","null","2","","","","","","","","","",""
"","","","","","rating_trial","survey-html-form","18","458173","0.0-3.0-1.7","130","1","2025-04-11 16:31:03","bb671e3ae32f654b8954ea4c4635f915","","Mozilla/5.0 (Windows NT 10.0; Win64; x64) AppleWebKit/537.36 (KHTML, like Gecko) Chrome/132.0.0.0 Safari/537.36","WebKit","Chrome","132.0.0.0","Windows","10.0","https://hz8g1ckzuq.cognition.run/","en-US,en;q=0.9","ggqpbz5v5ug6osz","34","[""White""]","No","Female","1963280.400000006","31177","","","{""price_1"":""480"",""price_2"":""400"",""price_3"":""480""}","rating","cdt","attraction_2","1","washing machines","null","null","null","null","null","null","2","60","50","60","50","60","40","Average lifespan","Energy savings","",""
"","","","","","rating_trial_setup","html-keyboard-response","19","458479","0.0-3.0-0.8","130","1","2025-04-11 16:31:03","bb671e3ae32f654b8954ea4c4635f915","","Mozilla/5.0 (Windows NT 10.0; Win64; x64) AppleWebKit/537.36 (KHTML, like Gecko) Chrome/132.0.0.0 Safari/537.36","WebKit","Chrome","132.0.0.0","Windows","10.0","https://hz8g1ckzuq.cognition.run/","en-US,en;q=0.9","ggqpbz5v5ug6osz","34","[""White""]","No","Female","1963280.400000006","null","","<p></p>","null","rating","wwb","catch","null","televisions","60","95","20","20","30","15","1","","","","","","","","","",""
"","","","","","rating_trial","survey-html-form","20","477921","0.0-3.0-1.8","130","1","2025-04-11 16:31:03","bb671e3ae32f654b8954ea4c4635f915","","Mozilla/5.0 (Windows NT 10.0; Win64; x64) AppleWebKit/537.36 (KHTML, like Gecko) Chrome/132.0.0.0 Safari/537.36","WebKit","Chrome","132.0.0.0","Windows","10.0","https://hz8g1ckzuq.cognition.run/","en-US,en;q=0.9","ggqpbz5v5ug6osz","34","[""White""]","No","Female","1963280.400000006","19436","","","{""price_1"":""200"",""price_2"":""150"",""price_3"":""350""}","rating","wwb","catch","null","televisions","60","95","20","20","30","15","1","null","null","null","null","null","null","Screen size","Average lifespan","",""
"","","","","","rating_trial_setup","html-keyboard-response","21","478236","0.0-3.0-0.9","130","1","2025-04-11 16:31:03","bb671e3ae32f654b8954ea4c4635f915","","Mozilla/5.0 (Windows NT 10.0; Win64; x64) AppleWebKit/537.36 (KHTML, like Gecko) Chrome/132.0.0.0 Safari/537.36","WebKit","Chrome","132.0.0.0","Windows","10.0","https://hz8g1ckzuq.cognition.run/","en-US,en;q=0.9","ggqpbz5v5ug6osz","34","[""White""]","No","Female","1963280.400000006","null","","<p></p>","null","rating","ctd","attraction_1","1","washing machines","null","null","null","null","null","null","1","","","","","","","","","",""
"","","","","","rating_trial","survey-html-form","22","501063","0.0-3.0-1.9","130","1","2025-04-11 16:31:03","bb671e3ae32f654b8954ea4c4635f915","","Mozilla/5.0 (Windows NT 10.0; Win64; x64) AppleWebKit/537.36 (KHTML, like Gecko) Chrome/132.0.0.0 Safari/537.36","WebKit","Chrome","132.0.0.0","Windows","10.0","https://hz8g1ckzuq.cognition.run/","en-US,en;q=0.9","ggqpbz5v5ug6osz","34","[""White""]","No","Female","1963280.400000006","22822","","","{""price_1"":""450"",""price_2"":""480"",""price_3"":""470""}","rating","ctd","attraction_1","1","washing machines","null","null","null","null","null","null","1","60","50","60","50","60","45","Average lifespan","Energy savings","",""
"","","","","","rating_trial_setup","html-keyboard-response","23","501383","0.0-3.0-0.10","130","1","2025-04-11 16:31:03","bb671e3ae32f654b8954ea4c4635f915","","Mozilla/5.0 (Windows NT 10.0; Win64; x64) AppleWebKit/537.36 (KHTML, like Gecko) Chrome/132.0.0.0 Safari/537.36","WebKit","Chrome","132.0.0.0","Windows","10.0","https://hz8g1ckzuq.cognition.run/","en-US,en;q=0.9","ggqpbz5v5ug6osz","34","[""White""]","No","Female","1963280.400000006","null","","<p></p>","null","rating","dtc","attraction_1","1","laptops","null","null","null","null","null","null","2","","","","","","","","","",""
"","","","","","rating_trial","survey-html-form","24","516511","0.0-3.0-1.10","130","1","2025-04-11 16:31:03","bb671e3ae32f654b8954ea4c4635f915","","Mozilla/5.0 (Windows NT 10.0; Win64; x64) AppleWebKit/537.36 (KHTML, like Gecko) Chrome/132.0.0.0 Safari/537.36","WebKit","Chrome","132.0.0.0","Windows","10.0","https://hz8g1ckzuq.cognition.run/","en-US,en;q=0.9","ggqpbz5v5ug6osz","34","[""White""]","No","Female","1963280.400000006","15123","","","{""price_1"":""250"",""price_2"":""300"",""price_3"":""300""}","rating","dtc","attraction_1","1","laptops","null","null","null","null","null","null","2","60","50","60","50","60","45","Processing speed","Memory (RAM)","",""
"","","","","","rating_trial_setup","html-keyboard-response","25","516825","0.0-3.0-0.11","130","1","2025-04-11 16:31:03","bb671e3ae32f654b8954ea4c4635f915","","Mozilla/5.0 (Windows NT 10.0; Win64; x64) AppleWebKit/537.36 (KHTML, like Gecko) Chrome/132.0.0.0 Safari/537.36","WebKit","Chrome","132.0.0.0","Windows","10.0","https://hz8g1ckzuq.cognition.run/","en-US,en;q=0.9","ggqpbz5v5ug6osz","34","[""White""]","No","Female","1963280.400000006","null","","<p></p>","null","rating","bww","catch","null","laptops","60","50","50","5","20","25","2","","","","","","","","","",""
"","","","","","rating_trial","survey-html-form","26","538197","0.0-3.0-1.11","130","1","2025-04-11 16:31:03","bb671e3ae32f654b8954ea4c4635f915","","Mozilla/5.0 (Windows NT 10.0; Win64; x64) AppleWebKit/537.36 (KHTML, like Gecko) Chrome/132.0.0.0 Safari/537.36","WebKit","Chrome","132.0.0.0","Windows","10.0","https://hz8g1ckzuq.cognition.run/","en-US,en;q=0.9","ggqpbz5v5ug6osz","34","[""White""]","No","Female","1963280.400000006","21367","","","{""price_1"":""300"",""price_2"":""100"",""price_3"":""100""}","rating","bww","catch","null","laptops","60","50","50","5","20","25","2","null","null","null","null","null","null","Processing speed","Memory (RAM)","",""
"","","","","","rating_trial_setup","html-keyboard-response","27","538514","0.0-3.0-0.12","130","1","2025-04-11 16:31:03","bb671e3ae32f654b8954ea4c4635f915","","Mozilla/5.0 (Windows NT 10.0; Win64; x64) AppleWebKit/537.36 (KHTML, like Gecko) Chrome/132.0.0.0 Safari/537.36","WebKit","Chrome","132.0.0.0","Windows","10.0","https://hz8g1ckzuq.cognition.run/","en-US,en;q=0.9","ggqpbz5v5ug6osz","34","[""White""]","No","Female","1963280.400000006","null","","<p></p>","null","rating","ctd","repulsion_1","1","laptops","null","null","null","null","null","null","1","","","","","","","","","",""
"","","","","","rating_trial","survey-html-form","28","555058","0.0-3.0-1.12","130","1","2025-04-11 16:31:03","bb671e3ae32f654b8954ea4c4635f915","","Mozilla/5.0 (Windows NT 10.0; Win64; x64) AppleWebKit/537.36 (KHTML, like Gecko) Chrome/132.0.0.0 Safari/537.36","WebKit","Chrome","132.0.0.0","Windows","10.0","https://hz8g1ckzuq.cognition.run/","en-US,en;q=0.9","ggqpbz5v5ug6osz","34","[""White""]","No","Female","1963280.400000006","16539","","","{""price_1"":""200"",""price_2"":""200"",""price_3"":""180""}","rating","ctd","repulsion_1","1","laptops","null","null","null","null","null","null","1","100","90","100","30","40","25","Processing speed","Memory (RAM)","",""
"","","","","","rating_trial_setup","html-keyboard-response","29","555373","0.0-3.0-0.13","130","1","2025-04-11 16:31:03","bb671e3ae32f654b8954ea4c4635f915","","Mozilla/5.0 (Windows NT 10.0; Win64; x64) AppleWebKit/537.36 (KHTML, like Gecko) Chrome/132.0.0.0 Safari/537.36","WebKit","Chrome","132.0.0.0","Windows","10.0","https://hz8g1ckzuq.cognition.run/","en-US,en;q=0.9","ggqpbz5v5ug6osz","34","[""White""]","No","Female","1963280.400000006","null","","<p></p>","null","rating","dtc","repulsion_1","2","laptops","null","null","null","null","null","null","1","","","","","","","","","",""
"","","","","","rating_trial","survey-html-form","30","575947","0.0-3.0-1.13","130","1","2025-04-11 16:31:03","bb671e3ae32f654b8954ea4c4635f915","","Mozilla/5.0 (Windows NT 10.0; Win64; x64) AppleWebKit/537.36 (KHTML, like Gecko) Chrome/132.0.0.0 Safari/537.36","WebKit","Chrome","132.0.0.0","Windows","10.0","https://hz8g1ckzuq.cognition.run/","en-US,en;q=0.9","ggqpbz5v5ug6osz","34","[""White""]","No","Female","1963280.400000006","20569","","","{""price_1"":""100"",""price_2"":""130"",""price_3"":""200""}","rating","dtc","repulsion_1","2","laptops","null","null","null","null","null","null","1","30","40","25","100","90","100","Processing speed","Memory (RAM)","",""
"","","","","","rating_trial_setup","html-keyboard-response","31","576261","0.0-3.0-0.14","130","1","2025-04-11 16:31:03","bb671e3ae32f654b8954ea4c4635f915","","Mozilla/5.0 (Windows NT 10.0; Win64; x64) AppleWebKit/537.36 (KHTML, like Gecko) Chrome/132.0.0.0 Safari/537.36","WebKit","Chrome","132.0.0.0","Windows","10.0","https://hz8g1ckzuq.cognition.run/","en-US,en;q=0.9","ggqpbz5v5ug6osz","34","[""White""]","No","Female","1963280.400000006","null","","<p></p>","null","rating","dtc","repulsion_2","1","microwave ovens","null","null","null","null","null","null","2","","","","","","","","","",""
"","","","","","rating_trial","survey-html-form","32","602476","0.0-3.0-1.14","130","1","2025-04-11 16:31:03","bb671e3ae32f654b8954ea4c4635f915","","Mozilla/5.0 (Windows NT 10.0; Win64; x64) AppleWebKit/537.36 (KHTML, like Gecko) Chrome/132.0.0.0 Safari/537.36","WebKit","Chrome","132.0.0.0","Windows","10.0","https://hz8g1ckzuq.cognition.run/","en-US,en;q=0.9","ggqpbz5v5ug6osz","34","[""White""]","No","Female","1963280.400000006","26210","","","{""price_1"":""250"",""price_2"":""280"",""price_3"":""300""}","rating","dtc","repulsion_2","1","microwave ovens","null","null","null","null","null","null","2","100","90","100","30","40","20","Warranty","Cooking power","",""
"","","","","","rating_trial_setup","html-keyboard-response","33","602798","0.0-3.0-0.15","130","1","2025-04-11 16:31:03","bb671e3ae32f654b8954ea4c4635f915","","Mozilla/5.0 (Windows NT 10.0; Win64; x64) AppleWebKit/537.36 (KHTML, like Gecko) Chrome/132.0.0.0 Safari/537.36","WebKit","Chrome","132.0.0.0","Windows","10.0","https://hz8g1ckzuq.cognition.run/","en-US,en;q=0.9","ggqpbz5v5ug6osz","34","[""White""]","No","Female","1963280.400000006","null","","<p></p>","null","rating","tdc","repulsion_1","1","microwave ovens","null","null","null","null","null","null","1","","","","","","","","","",""
"","","","","","rating_trial","survey-html-form","34","627675","0.0-3.0-1.15","130","1","2025-04-11 16:31:03","bb671e3ae32f654b8954ea4c4635f915","","Mozilla/5.0 (Windows NT 10.0; Win64; x64) AppleWebKit/537.36 (KHTML, like Gecko) Chrome/132.0.0.0 Safari/537.36","WebKit","Chrome","132.0.0.0","Windows","10.0","https://hz8g1ckzuq.cognition.run/","en-US,en;q=0.9","ggqpbz5v5ug6osz","34","[""White""]","No","Female","1963280.400000006","24871","","","{""price_1"":""250"",""price_2"":""230"",""price_3"":""280""}","rating","tdc","repulsion_1","1","microwave ovens","null","null","null","null","null","null","1","100","90","100","30","40","25","Warranty","Cooking power","",""
"","","","","","rating_trial_setup","html-keyboard-response","35","627987","0.0-3.0-0.16","130","1","2025-04-11 16:31:03","bb671e3ae32f654b8954ea4c4635f915","","Mozilla/5.0 (Windows NT 10.0; Win64; x64) AppleWebKit/537.36 (KHTML, like Gecko) Chrome/132.0.0.0 Safari/537.36","WebKit","Chrome","132.0.0.0","Windows","10.0","https://hz8g1ckzuq.cognition.run/","en-US,en;q=0.9","ggqpbz5v5ug6osz","34","[""White""]","No","Female","1963280.400000006","null","","<p></p>","null","rating","tdc","attraction_2","1","televisions","null","null","null","null","null","null","2","","","","","","","","","",""
"","","","","","rating_trial","survey-html-form","36","650440","0.0-3.0-1.16","130","1","2025-04-11 16:31:03","bb671e3ae32f654b8954ea4c4635f915","","Mozilla/5.0 (Windows NT 10.0; Win64; x64) AppleWebKit/537.36 (KHTML, like Gecko) Chrome/132.0.0.0 Safari/537.36","WebKit","Chrome","132.0.0.0","Windows","10.0","https://hz8g1ckzuq.cognition.run/","en-US,en;q=0.9","ggqpbz5v5ug6osz","34","[""White""]","No","Female","1963280.400000006","22447","","","{""price_1"":""200"",""price_2"":""180"",""price_3"":""200""}","rating","tdc","attraction_2","1","televisions","null","null","null","null","null","null","2","60","50","60","50","60","40","Screen size","Average lifespan","",""
"","","","","","rating_trial_setup","html-keyboard-response","37","650760","0.0-3.0-0.17","130","1","2025-04-11 16:31:03","bb671e3ae32f654b8954ea4c4635f915","","Mozilla/5.0 (Windows NT 10.0; Win64; x64) AppleWebKit/537.36 (KHTML, like Gecko) Chrome/132.0.0.0 Safari/537.36","WebKit","Chrome","132.0.0.0","Windows","10.0","https://hz8g1ckzuq.cognition.run/","en-US,en;q=0.9","ggqpbz5v5ug6osz","34","[""White""]","No","Female","1963280.400000006","null","","<p></p>","null","rating","tcd","attraction_1","1","microwave ovens","null","null","null","null","null","null","2","","","","","","","","","",""
"","","","","","rating_trial","survey-html-form","38","672736","0.0-3.0-1.17","130","1","2025-04-11 16:31:03","bb671e3ae32f654b8954ea4c4635f915","","Mozilla/5.0 (Windows NT 10.0; Win64; x64) AppleWebKit/537.36 (KHTML, like Gecko) Chrome/132.0.0.0 Safari/537.36","WebKit","Chrome","132.0.0.0","Windows","10.0","https://hz8g1ckzuq.cognition.run/","en-US,en;q=0.9","ggqpbz5v5ug6osz","34","[""White""]","No","Female","1963280.400000006","21970","","","{""price_1"":""250"",""price_2"":""300"",""price_3"":""250""}","rating","tcd","attraction_1","1","microwave ovens","null","null","null","null","null","null","2","60","50","60","50","60","45","Warranty","Cooking power","",""
"","","","","","rating_trial_setup","html-keyboard-response","39","673058","0.0-3.0-0.18","130","1","2025-04-11 16:31:03","bb671e3ae32f654b8954ea4c4635f915","","Mozilla/5.0 (Windows NT 10.0; Win64; x64) AppleWebKit/537.36 (KHTML, like Gecko) Chrome/132.0.0.0 Safari/537.36","WebKit","Chrome","132.0.0.0","Windows","10.0","https://hz8g1ckzuq.cognition.run/","en-US,en;q=0.9","ggqpbz5v5ug6osz","34","[""White""]","No","Female","1963280.400000006","null","","<p></p>","null","rating","dct","attraction_1","2","laptops","null","null","null","null","null","null","2","","","","","","","","","",""
"","","","","","rating_trial","survey-html-form","40","693177","0.0-3.0-1.18","130","1","2025-04-11 16:31:03","bb671e3ae32f654b8954ea4c4635f915","","Mozilla/5.0 (Windows NT 10.0; Win64; x64) AppleWebKit/537.36 (KHTML, like Gecko) Chrome/132.0.0.0 Safari/537.36","WebKit","Chrome","132.0.0.0","Windows","10.0","https://hz8g1ckzuq.cognition.run/","en-US,en;q=0.9","ggqpbz5v5ug6osz","34","[""White""]","No","Female","1963280.400000006","20113","","","{""price_1"":""250"",""price_2"":""250"",""price_3"":""280""}","rating","dct","attraction_1","2","laptops","null","null","null","null","null","null","2","50","60","45","60","50","60","Processing speed","Memory (RAM)","",""
"","","","","","rating_trial_setup","html-keyboard-response","41","693501","0.0-3.0-0.19","130","1","2025-04-11 16:31:03","bb671e3ae32f654b8954ea4c4635f915","","Mozilla/5.0 (Windows NT 10.0; Win64; x64) AppleWebKit/537.36 (KHTML, like Gecko) Chrome/132.0.0.0 Safari/537.36","WebKit","Chrome","132.0.0.0","Windows","10.0","https://hz8g1ckzuq.cognition.run/","en-US,en;q=0.9","ggqpbz5v5ug6osz","34","[""White""]","No","Female","1963280.400000006","null","","<p></p>","null","rating","ctd","repulsion_1","2","washing machines","null","null","null","null","null","null","2","","","","","","","","","",""
"","","","","","rating_trial","survey-html-form","42","708137","0.0-3.0-1.19","130","1","2025-04-11 16:31:03","bb671e3ae32f654b8954ea4c4635f915","","Mozilla/5.0 (Windows NT 10.0; Win64; x64) AppleWebKit/537.36 (KHTML, like Gecko) Chrome/132.0.0.0 Safari/537.36","WebKit","Chrome","132.0.0.0","Windows","10.0","https://hz8g1ckzuq.cognition.run/","en-US,en;q=0.9","ggqpbz5v5ug6osz","34","[""White""]","No","Female","1963280.400000006","14629","","","{""price_1"":""480"",""price_2"":""450"",""price_3"":""400""}","rating","ctd","repulsion_1","2","washing machines","null","null","null","null","null","null","2","30","40","25","100","90","100","Average lifespan","Energy savings","",""
"","","","","","rating_trial_setup","html-keyboard-response","43","708453","0.0-3.0-0.20","130","1","2025-04-11 16:31:03","bb671e3ae32f654b8954ea4c4635f915","","Mozilla/5.0 (Windows NT 10.0; Win64; x64) AppleWebKit/537.36 (KHTML, like Gecko) Chrome/132.0.0.0 Safari/537.36","WebKit","Chrome","132.0.0.0","Windows","10.0","https://hz8g1ckzuq.cognition.run/","en-US,en;q=0.9","ggqpbz5v5ug6osz","34","[""White""]","No","Female","1963280.400000006","null","","<p></p>","null","rating","ctd","repulsion_2","2","laptops","null","null","null","null","null","null","2","","","","","","","","","",""
"","","","","","rating_trial","survey-html-form","44","727841","0.0-3.0-1.20","130","1","2025-04-11 16:31:03","bb671e3ae32f654b8954ea4c4635f915","","Mozilla/5.0 (Windows NT 10.0; Win64; x64) AppleWebKit/537.36 (KHTML, like Gecko) Chrome/132.0.0.0 Safari/537.36","WebKit","Chrome","132.0.0.0","Windows","10.0","https://hz8g1ckzuq.cognition.run/","en-US,en;q=0.9","ggqpbz5v5ug6osz","34","[""White""]","No","Female","1963280.400000006","19381","","","{""price_1"":""200"",""price_2"":""180"",""price_3"":""170""}","rating","ctd","repulsion_2","2","laptops","null","null","null","null","null","null","2","30","40","20","100","90","100","Processing speed","Memory (RAM)","",""
"","","","","","rating_trial_setup","html-keyboard-response","45","728150","0.0-3.0-0.21","130","1","2025-04-11 16:31:03","bb671e3ae32f654b8954ea4c4635f915","","Mozilla/5.0 (Windows NT 10.0; Win64; x64) AppleWebKit/537.36 (KHTML, like Gecko) Chrome/132.0.0.0 Safari/537.36","WebKit","Chrome","132.0.0.0","Windows","10.0","https://hz8g1ckzuq.cognition.run/","en-US,en;q=0.9","ggqpbz5v5ug6osz","34","[""White""]","No","Female","1963280.400000006","null","","<p></p>","null","rating","ctd","attraction_1","2","washing machines","null","null","null","null","null","null","1","","","","","","","","","",""
"","","","","","rating_trial","survey-html-form","46","749676","0.0-3.0-1.21","130","1","2025-04-11 16:31:03","bb671e3ae32f654b8954ea4c4635f915","","Mozilla/5.0 (Windows NT 10.0; Win64; x64) AppleWebKit/537.36 (KHTML, like Gecko) Chrome/132.0.0.0 Safari/537.36","WebKit","Chrome","132.0.0.0","Windows","10.0","https://hz8g1ckzuq.cognition.run/","en-US,en;q=0.9","ggqpbz5v5ug6osz","34","[""White""]","No","Female","1963280.400000006","21519","","","{""price_1"":""480"",""price_2"":""470"",""price_3"":""450""}","rating","ctd","attraction_1","2","washing machines","null","null","null","null","null","null","1","50","60","45","60","50","60","Average lifespan","Energy savings","",""
"","","","","","rating_trial_setup","html-keyboard-response","47","749993","0.0-3.0-0.22","130","1","2025-04-11 16:31:03","bb671e3ae32f654b8954ea4c4635f915","","Mozilla/5.0 (Windows NT 10.0; Win64; x64) AppleWebKit/537.36 (KHTML, like Gecko) Chrome/132.0.0.0 Safari/537.36","WebKit","Chrome","132.0.0.0","Windows","10.0","https://hz8g1ckzuq.cognition.run/","en-US,en;q=0.9","ggqpbz5v5ug6osz","34","[""White""]","No","Female","1963280.400000006","null","","<p></p>","null","rating","cdt","repulsion_1","1","washing machines","null","null","null","null","null","null","1","","","","","","","","","",""
"","","","","","rating_trial","survey-html-form","48","787188","0.0-3.0-1.22","130","1","2025-04-11 16:31:03","bb671e3ae32f654b8954ea4c4635f915","","Mozilla/5.0 (Windows NT 10.0; Win64; x64) AppleWebKit/537.36 (KHTML, like Gecko) Chrome/132.0.0.0 Safari/537.36","WebKit","Chrome","132.0.0.0","Windows","10.0","https://hz8g1ckzuq.cognition.run/","en-US,en;q=0.9","ggqpbz5v5ug6osz","34","[""White""]","No","Female","1963280.400000006","37187","","","{""price_1"":""500"",""price_2"":""500"",""price_3"":""520""}","rating","cdt","repulsion_1","1","washing machines","null","null","null","null","null","null","1","100","90","100","30","40","25","Average lifespan","Energy savings","",""
"","","","","","rating_trial_setup","html-keyboard-response","49","787505","0.0-3.0-0.23","130","1","2025-04-11 16:31:03","bb671e3ae32f654b8954ea4c4635f915","","Mozilla/5.0 (Windows NT 10.0; Win64; x64) AppleWebKit/537.36 (KHTML, like Gecko) Chrome/132.0.0.0 Safari/537.36","WebKit","Chrome","132.0.0.0","Windows","10.0","https://hz8g1ckzuq.cognition.run/","en-US,en;q=0.9","ggqpbz5v5ug6osz","34","[""White""]","No","Female","1963280.400000006","null","","<p></p>","null","rating","bww","catch","null","televisions","95","50","30","40","5","15","2","","","","","","","","","",""
"","","","","","rating_trial","survey-html-form","50","812037","0.0-3.0-1.23","130","1","2025-04-11 16:31:03","bb671e3ae32f654b8954ea4c4635f915","","Mozilla/5.0 (Windows NT 10.0; Win64; x64) AppleWebKit/537.36 (KHTML, like Gecko) Chrome/132.0.0.0 Safari/537.36","WebKit","Chrome","132.0.0.0","Windows","10.0","https://hz8g1ckzuq.cognition.run/","en-US,en;q=0.9","ggqpbz5v5ug6osz","34","[""White""]","No","Female","1963280.400000006","24524","","","{""price_1"":""250"",""price_2"":""200"",""price_3"":""100""}","rating","bww","catch","null","televisions","95","50","30","40","5","15","2","null","null","null","null","null","null","Screen size","Average lifespan","",""
"","","","","","rating_trial_setup","html-keyboard-response","51","812359","0.0-3.0-0.24","130","1","2025-04-11 16:31:03","bb671e3ae32f654b8954ea4c4635f915","","Mozilla/5.0 (Windows NT 10.0; Win64; x64) AppleWebKit/537.36 (KHTML, like Gecko) Chrome/132.0.0.0 Safari/537.36","WebKit","Chrome","132.0.0.0","Windows","10.0","https://hz8g1ckzuq.cognition.run/","en-US,en;q=0.9","ggqpbz5v5ug6osz","34","[""White""]","No","Female","1963280.400000006","null","","<p></p>","null","rating","tdc","attraction_1","1","televisions","null","null","null","null","null","null","1","","","","","","","","","",""
"","","","","","rating_trial","survey-html-form","52","837981","0.0-3.0-1.24","130","1","2025-04-11 16:31:03","bb671e3ae32f654b8954ea4c4635f915","","Mozilla/5.0 (Windows NT 10.0; Win64; x64) AppleWebKit/537.36 (KHTML, like Gecko) Chrome/132.0.0.0 Safari/537.36","WebKit","Chrome","132.0.0.0","Windows","10.0","https://hz8g1ckzuq.cognition.run/","en-US,en;q=0.9","ggqpbz5v5ug6osz","34","[""White""]","No","Female","1963280.400000006","25613","","","{""price_1"":""250"",""price_2"":""230"",""price_3"":""250""}","rating","tdc","attraction_1","1","televisions","null","null","null","null","null","null","1","60","50","60","50","60","45","Screen size","Average lifespan","",""
"","","","","","rating_trial_setup","html-keyboard-response","53","838306","0.0-3.0-0.25","130","1","2025-04-11 16:31:03","bb671e3ae32f654b8954ea4c4635f915","","Mozilla/5.0 (Windows NT 10.0; Win64; x64) AppleWebKit/537.36 (KHTML, like Gecko) Chrome/132.0.0.0 Safari/537.36","WebKit","Chrome","132.0.0.0","Windows","10.0","https://hz8g1ckzuq.cognition.run/","en-US,en;q=0.9","ggqpbz5v5ug6osz","34","[""White""]","No","Female","1963280.400000006","null","","<p></p>","null","rating","dtc","repulsion_2","1","laptops","null","null","null","null","null","null","2","","","","","","","","","",""
"","","","","","rating_trial","survey-html-form","54","862275","0.0-3.0-1.25","130","1","2025-04-11 16:31:03","bb671e3ae32f654b8954ea4c4635f915","","Mozilla/5.0 (Windows NT 10.0; Win64; x64) AppleWebKit/537.36 (KHTML, like Gecko) Chrome/132.0.0.0 Safari/537.36","WebKit","Chrome","132.0.0.0","Windows","10.0","https://hz8g1ckzuq.cognition.run/","en-US,en;q=0.9","ggqpbz5v5ug6osz","34","[""White""]","No","Female","1963280.400000006","23962","","","{""price_1"":""230"",""price_2"":""250"",""price_3"":""280""}","rating","dtc","repulsion_2","1","laptops","null","null","null","null","null","null","2","100","90","100","30","40","20","Processing speed","Memory (RAM)","",""
"","","","","","rating_trial_setup","html-keyboard-response","55","862583","0.0-3.0-0.26","130","1","2025-04-11 16:31:03","bb671e3ae32f654b8954ea4c4635f915","","Mozilla/5.0 (Windows NT 10.0; Win64; x64) AppleWebKit/537.36 (KHTML, like Gecko) Chrome/132.0.0.0 Safari/537.36","WebKit","Chrome","132.0.0.0","Windows","10.0","https://hz8g1ckzuq.cognition.run/","en-US,en;q=0.9","ggqpbz5v5ug6osz","34","[""White""]","No","Female","1963280.400000006","null","","<p></p>","null","rating","cdt","repulsion_1","1","televisions","null","null","null","null","null","null","2","","","","","","","","","",""
"","","","","","rating_trial","survey-html-form","56","883815","0.0-3.0-1.26","130","1","2025-04-11 16:31:03","bb671e3ae32f654b8954ea4c4635f915","","Mozilla/5.0 (Windows NT 10.0; Win64; x64) AppleWebKit/537.36 (KHTML, like Gecko) Chrome/132.0.0.0 Safari/537.36","WebKit","Chrome","132.0.0.0","Windows","10.0","https://hz8g1ckzuq.cognition.run/","en-US,en;q=0.9","ggqpbz5v5ug6osz","34","[""White""]","No","Female","1963280.400000006","21224","","","{""price_1"":""230"",""price_2"":""200"",""price_3"":""220""}","rating","cdt","repulsion_1","1","televisions","null","null","null","null","null","null","2","100","90","100","30","40","25","Screen size","Average lifespan","",""
"","","","","","rating_trial_setup","html-keyboard-response","57","884123","0.0-3.0-0.27","130","1","2025-04-11 16:31:03","bb671e3ae32f654b8954ea4c4635f915","","Mozilla/5.0 (Windows NT 10.0; Win64; x64) AppleWebKit/537.36 (KHTML, like Gecko) Chrome/132.0.0.0 Safari/537.36","WebKit","Chrome","132.0.0.0","Windows","10.0","https://hz8g1ckzuq.cognition.run/","en-US,en;q=0.9","ggqpbz5v5ug6osz","34","[""White""]","No","Female","1963280.400000006","null","","<p></p>","null","rating","bww","catch","null","microwave ovens","85","85","25","35","25","15","1","","","","","","","","","",""
"","","","","","rating_trial","survey-html-form","58","903344","0.0-3.0-1.27","130","1","2025-04-11 16:31:03","bb671e3ae32f654b8954ea4c4635f915","","Mozilla/5.0 (Windows NT 10.0; Win64; x64) AppleWebKit/537.36 (KHTML, like Gecko) Chrome/132.0.0.0 Safari/537.36","WebKit","Chrome","132.0.0.0","Windows","10.0","https://hz8g1ckzuq.cognition.run/","en-US,en;q=0.9","ggqpbz5v5ug6osz","34","[""White""]","No","Female","1963280.400000006","19214","","","{""price_1"":""300"",""price_2"":""200"",""price_3"":""180""}","rating","bww","catch","null","microwave ovens","85","85","25","35","25","15","1","null","null","null","null","null","null","Warranty","Cooking power","",""
"","","","","","rating_trial_setup","html-keyboard-response","59","903656","0.0-3.0-0.28","130","1","2025-04-11 16:31:03","bb671e3ae32f654b8954ea4c4635f915","","Mozilla/5.0 (Windows NT 10.0; Win64; x64) AppleWebKit/537.36 (KHTML, like Gecko) Chrome/132.0.0.0 Safari/537.36","WebKit","Chrome","132.0.0.0","Windows","10.0","https://hz8g1ckzuq.cognition.run/","en-US,en;q=0.9","ggqpbz5v5ug6osz","34","[""White""]","No","Female","1963280.400000006","null","","<p></p>","null","rating","dct","repulsion_1","2","microwave ovens","null","null","null","null","null","null","1","","","","","","","","","",""
"","","","","","rating_trial","survey-html-form","60","919785","0.0-3.0-1.28","130","1","2025-04-11 16:31:03","bb671e3ae32f654b8954ea4c4635f915","","Mozilla/5.0 (Windows NT 10.0; Win64; x64) AppleWebKit/537.36 (KHTML, like Gecko) Chrome/132.0.0.0 Safari/537.36","WebKit","Chrome","132.0.0.0","Windows","10.0","https://hz8g1ckzuq.cognition.run/","en-US,en;q=0.9","ggqpbz5v5ug6osz","34","[""White""]","No","Female","1963280.400000006","16121","","","{""price_1"":""200"",""price_2"":""250"",""price_3"":""220""}","rating","dct","repulsion_1","2","microwave ovens","null","null","null","null","null","null","1","30","40","25","100","90","100","Warranty","Cooking power","",""
"","","","","","rating_trial_setup","html-keyboard-response","61","920102","0.0-3.0-0.29","130","1","2025-04-11 16:31:03","bb671e3ae32f654b8954ea4c4635f915","","Mozilla/5.0 (Windows NT 10.0; Win64; x64) AppleWebKit/537.36 (KHTML, like Gecko) Chrome/132.0.0.0 Safari/537.36","WebKit","Chrome","132.0.0.0","Windows","10.0","https://hz8g1ckzuq.cognition.run/","en-US,en;q=0.9","ggqpbz5v5ug6osz","34","[""White""]","No","Female","1963280.400000006","null","","<p></p>","null","rating","dtc","repulsion_2","2","washing machines","null","null","null","null","null","null","2","","","","","","","","","",""
"","","","","","rating_trial","survey-html-form","62","940406","0.0-3.0-1.29","130","1","2025-04-11 16:31:03","bb671e3ae32f654b8954ea4c4635f915","","Mozilla/5.0 (Windows NT 10.0; Win64; x64) AppleWebKit/537.36 (KHTML, like Gecko) Chrome/132.0.0.0 Safari/537.36","WebKit","Chrome","132.0.0.0","Windows","10.0","https://hz8g1ckzuq.cognition.run/","en-US,en;q=0.9","ggqpbz5v5ug6osz","34","[""White""]","No","Female","1963280.400000006","20296","","","{""price_1"":""400"",""price_2"":""420"",""price_3"":""500""}","rating","dtc","repulsion_2","2","washing machines","null","null","null","null","null","null","2","30","40","20","100","90","100","Average lifespan","Energy savings","",""
"","","","","","rating_trial_setup","html-keyboard-response","63","940731","0.0-3.0-0.30","130","1","2025-04-11 16:31:03","bb671e3ae32f654b8954ea4c4635f915","","Mozilla/5.0 (Windows NT 10.0; Win64; x64) AppleWebKit/537.36 (KHTML, like Gecko) Chrome/132.0.0.0 Safari/537.36","WebKit","Chrome","132.0.0.0","Windows","10.0","https://hz8g1ckzuq.cognition.run/","en-US,en;q=0.9","ggqpbz5v5ug6osz","34","[""White""]","No","Female","1963280.400000006","null","","<p></p>","null","rating","tdc","attraction_2","1","laptops","null","null","null","null","null","null","2","","","","","","","","","",""
"","","","","","rating_trial","survey-html-form","64","956902","0.0-3.0-1.30","130","1","2025-04-11 16:31:03","bb671e3ae32f654b8954ea4c4635f915","","Mozilla/5.0 (Windows NT 10.0; Win64; x64) AppleWebKit/537.36 (KHTML, like Gecko) Chrome/132.0.0.0 Safari/537.36","WebKit","Chrome","132.0.0.0","Windows","10.0","https://hz8g1ckzuq.cognition.run/","en-US,en;q=0.9","ggqpbz5v5ug6osz","34","[""White""]","No","Female","1963280.400000006","16163","","","{""price_1"":""250"",""price_2"":""240"",""price_3"":""250""}","rating","tdc","attraction_2","1","laptops","null","null","null","null","null","null","2","60","50","60","50","60","40","Processing speed","Memory (RAM)","",""
"","","","","","rating_trial_setup","html-keyboard-response","65","957225","0.0-3.0-0.31","130","1","2025-04-11 16:31:03","bb671e3ae32f654b8954ea4c4635f915","","Mozilla/5.0 (Windows NT 10.0; Win64; x64) AppleWebKit/537.36 (KHTML, like Gecko) Chrome/132.0.0.0 Safari/537.36","WebKit","Chrome","132.0.0.0","Windows","10.0","https://hz8g1ckzuq.cognition.run/","en-US,en;q=0.9","ggqpbz5v5ug6osz","34","[""White""]","No","Female","1963280.400000006","null","","<p></p>","null","rating","ctd","repulsion_2","1","televisions","null","null","null","null","null","null","2","","","","","","","","","",""
"","","","","","rating_trial","survey-html-form","66","1001853","0.0-3.0-1.31","130","1","2025-04-11 16:31:03","bb671e3ae32f654b8954ea4c4635f915","","Mozilla/5.0 (Windows NT 10.0; Win64; x64) AppleWebKit/537.36 (KHTML, like Gecko) Chrome/132.0.0.0 Safari/537.36","WebKit","Chrome","132.0.0.0","Windows","10.0","https://hz8g1ckzuq.cognition.run/","en-US,en;q=0.9","ggqpbz5v5ug6osz","34","[""White""]","No","Female","1963280.400000006","44620","","","{""price_1"":""250"",""price_2"":""230"",""price_3"":""200""}","rating","ctd","repulsion_2","1","televisions","null","null","null","null","null","null","2","100","90","100","30","40","20","Screen size","Average lifespan","",""
"","","","","","rating_trial_setup","html-keyboard-response","67","1002165","0.0-3.0-0.32","130","1","2025-04-11 16:31:03","bb671e3ae32f654b8954ea4c4635f915","","Mozilla/5.0 (Windows NT 10.0; Win64; x64) AppleWebKit/537.36 (KHTML, like Gecko) Chrome/132.0.0.0 Safari/537.36","WebKit","Chrome","132.0.0.0","Windows","10.0","https://hz8g1ckzuq.cognition.run/","en-US,en;q=0.9","ggqpbz5v5ug6osz","34","[""White""]","No","Female","1963280.400000006","null","","<p></p>","null","rating","tcd","attraction_2","2","microwave ovens","null","null","null","null","null","null","1","","","","","","","","","",""
"","","","","","rating_trial","survey-html-form","68","1018033","0.0-3.0-1.32","130","1","2025-04-11 16:31:03","bb671e3ae32f654b8954ea4c4635f915","","Mozilla/5.0 (Windows NT 10.0; Win64; x64) AppleWebKit/537.36 (KHTML, like Gecko) Chrome/132.0.0.0 Safari/537.36","WebKit","Chrome","132.0.0.0","Windows","10.0","https://hz8g1ckzuq.cognition.run/","en-US,en;q=0.9","ggqpbz5v5ug6osz","34","[""White""]","No","Female","1963280.400000006","15861","","","{""price_1"":""300"",""price_2"":""320"",""price_3"":""280""}","rating","tcd","attraction_2","2","microwave ovens","null","null","null","null","null","null","1","50","60","40","60","50","60","Warranty","Cooking power","",""
"","","","","","rating_trial_setup","html-keyboard-response","69","1018359","0.0-3.0-0.33","130","1","2025-04-11 16:31:03","bb671e3ae32f654b8954ea4c4635f915","","Mozilla/5.0 (Windows NT 10.0; Win64; x64) AppleWebKit/537.36 (KHTML, like Gecko) Chrome/132.0.0.0 Safari/537.36","WebKit","Chrome","132.0.0.0","Windows","10.0","https://hz8g1ckzuq.cognition.run/","en-US,en;q=0.9","ggqpbz5v5ug6osz","34","[""White""]","No","Female","1963280.400000006","null","","<p></p>","null","rating","wbw","catch","null","microwave ovens","90","90","40","10","10","10","2","","","","","","","","","",""
"","","","","","rating_trial","survey-html-form","70","1032904","0.0-3.0-1.33","130","1","2025-04-11 16:31:03","bb671e3ae32f654b8954ea4c4635f915","","Mozilla/5.0 (Windows NT 10.0; Win64; x64) AppleWebKit/537.36 (KHTML, like Gecko) Chrome/132.0.0.0 Safari/537.36","WebKit","Chrome","132.0.0.0","Windows","10.0","https://hz8g1ckzuq.cognition.run/","en-US,en;q=0.9","ggqpbz5v5ug6osz","34","[""White""]","No","Female","1963280.400000006","14536","","","{""price_1"":""250"",""price_2"":""350"",""price_3"":""150""}","rating","wbw","catch","null","microwave ovens","90","90","40","10","10","10","2","null","null","null","null","null","null","Warranty","Cooking power","",""
"","","","","","rating_trial_setup","html-keyboard-response","71","1033228","0.0-3.0-0.34","130","1","2025-04-11 16:31:03","bb671e3ae32f654b8954ea4c4635f915","","Mozilla/5.0 (Windows NT 10.0; Win64; x64) AppleWebKit/537.36 (KHTML, like Gecko) Chrome/132.0.0.0 Safari/537.36","WebKit","Chrome","132.0.0.0","Windows","10.0","https://hz8g1ckzuq.cognition.run/","en-US,en;q=0.9","ggqpbz5v5ug6osz","34","[""White""]","No","Female","1963280.400000006","null","","<p></p>","null","rating","ctd","attraction_2","2","laptops","null","null","null","null","null","null","2","","","","","","","","","",""
"","","","","","rating_trial","survey-html-form","72","1056082","0.0-3.0-1.34","130","1","2025-04-11 16:31:03","bb671e3ae32f654b8954ea4c4635f915","","Mozilla/5.0 (Windows NT 10.0; Win64; x64) AppleWebKit/537.36 (KHTML, like Gecko) Chrome/132.0.0.0 Safari/537.36","WebKit","Chrome","132.0.0.0","Windows","10.0","https://hz8g1ckzuq.cognition.run/","en-US,en;q=0.9","ggqpbz5v5ug6osz","34","[""White""]","No","Female","1963280.400000006","22845","","","{""price_1"":""200"",""price_2"":""220"",""price_3"":""210""}","rating","ctd","attraction_2","2","laptops","null","null","null","null","null","null","2","50","60","40","60","50","60","Processing speed","Memory (RAM)","",""
"","","","","","rating_trial_setup","html-keyboard-response","73","1056392","0.0-3.0-0.35","130","1","2025-04-11 16:31:03","bb671e3ae32f654b8954ea4c4635f915","","Mozilla/5.0 (Windows NT 10.0; Win64; x64) AppleWebKit/537.36 (KHTML, like Gecko) Chrome/132.0.0.0 Safari/537.36","WebKit","Chrome","132.0.0.0","Windows","10.0","https://hz8g1ckzuq.cognition.run/","en-US,en;q=0.9","ggqpbz5v5ug6osz","34","[""White""]","No","Female","1963280.400000006","null","","<p></p>","null","rating","ctd","attraction_1","2","televisions","null","null","null","null","null","null","2","","","","","","","","","",""
"","","","","","rating_trial","survey-html-form","74","1072223","0.0-3.0-1.35","130","1","2025-04-11 16:31:03","bb671e3ae32f654b8954ea4c4635f915","","Mozilla/5.0 (Windows NT 10.0; Win64; x64) AppleWebKit/537.36 (KHTML, like Gecko) Chrome/132.0.0.0 Safari/537.36","WebKit","Chrome","132.0.0.0","Windows","10.0","https://hz8g1ckzuq.cognition.run/","en-US,en;q=0.9","ggqpbz5v5ug6osz","34","[""White""]","No","Female","1963280.400000006","15820","","","{""price_1"":""250"",""price_2"":""280"",""price_3"":""260""}","rating","ctd","attraction_1","2","televisions","null","null","null","null","null","null","2","50","60","45","60","50","60","Screen size","Average lifespan","",""
"","","","","","rating_trial_setup","html-keyboard-response","75","1072532","0.0-3.0-0.36","130","1","2025-04-11 16:31:03","bb671e3ae32f654b8954ea4c4635f915","","Mozilla/5.0 (Windows NT 10.0; Win64; x64) AppleWebKit/537.36 (KHTML, like Gecko) Chrome/132.0.0.0 Safari/537.36","WebKit","Chrome","132.0.0.0","Windows","10.0","https://hz8g1ckzuq.cognition.run/","en-US,en;q=0.9","ggqpbz5v5ug6osz","34","[""White""]","No","Female","1963280.400000006","null","","<p></p>","null","rating","tcd","attraction_2","2","washing machines","null","null","null","null","null","null","2","","","","","","","","","",""
"","","","","","rating_trial","survey-html-form","76","1093358","0.0-3.0-1.36","130","1","2025-04-11 16:31:03","bb671e3ae32f654b8954ea4c4635f915","","Mozilla/5.0 (Windows NT 10.0; Win64; x64) AppleWebKit/537.36 (KHTML, like Gecko) Chrome/132.0.0.0 Safari/537.36","WebKit","Chrome","132.0.0.0","Windows","10.0","https://hz8g1ckzuq.cognition.run/","en-US,en;q=0.9","ggqpbz5v5ug6osz","34","[""White""]","No","Female","1963280.400000006","20818","","","{""price_1"":""500"",""price_2"":""480"",""price_3"":""480""}","rating","tcd","attraction_2","2","washing machines","null","null","null","null","null","null","2","50","60","40","60","50","60","Average lifespan","Energy savings","",""
"","","","","","rating_trial_setup","html-keyboard-response","77","1093670","0.0-3.0-0.37","130","1","2025-04-11 16:31:03","bb671e3ae32f654b8954ea4c4635f915","","Mozilla/5.0 (Windows NT 10.0; Win64; x64) AppleWebKit/537.36 (KHTML, like Gecko) Chrome/132.0.0.0 Safari/537.36","WebKit","Chrome","132.0.0.0","Windows","10.0","https://hz8g1ckzuq.cognition.run/","en-US,en;q=0.9","ggqpbz5v5ug6osz","34","[""White""]","No","Female","1963280.400000006","null","","<p></p>","null","rating","ctd","attraction_1","2","microwave ovens","null","null","null","null","null","null","2","","","","","","","","","",""
"","","","","","rating_trial","survey-html-form","78","1112296","0.0-3.0-1.37","130","1","2025-04-11 16:31:03","bb671e3ae32f654b8954ea4c4635f915","","Mozilla/5.0 (Windows NT 10.0; Win64; x64) AppleWebKit/537.36 (KHTML, like Gecko) Chrome/132.0.0.0 Safari/537.36","WebKit","Chrome","132.0.0.0","Windows","10.0","https://hz8g1ckzuq.cognition.run/","en-US,en;q=0.9","ggqpbz5v5ug6osz","34","[""White""]","No","Female","1963280.400000006","18615","","","{""price_1"":""300"",""price_2"":""280"",""price_3"":""300""}","rating","ctd","attraction_1","2","microwave ovens","null","null","null","null","null","null","2","50","60","45","60","50","60","Warranty","Cooking power","",""
"","","","","","rating_trial_setup","html-keyboard-response","79","1112609","0.0-3.0-0.38","130","1","2025-04-11 16:31:03","bb671e3ae32f654b8954ea4c4635f915","","Mozilla/5.0 (Windows NT 10.0; Win64; x64) AppleWebKit/537.36 (KHTML, like Gecko) Chrome/132.0.0.0 Safari/537.36","WebKit","Chrome","132.0.0.0","Windows","10.0","https://hz8g1ckzuq.cognition.run/","en-US,en;q=0.9","ggqpbz5v5ug6osz","34","[""White""]","No","Female","1963280.400000006","null","","<p></p>","null","rating","dct","repulsion_2","2","televisions","null","null","null","null","null","null","2","","","","","","","","","",""
"","","","","","rating_trial","survey-html-form","80","1127107","0.0-3.0-1.38","130","1","2025-04-11 16:31:03","bb671e3ae32f654b8954ea4c4635f915","","Mozilla/5.0 (Windows NT 10.0; Win64; x64) AppleWebKit/537.36 (KHTML, like Gecko) Chrome/132.0.0.0 Safari/537.36","WebKit","Chrome","132.0.0.0","Windows","10.0","https://hz8g1ckzuq.cognition.run/","en-US,en;q=0.9","ggqpbz5v5ug6osz","34","[""White""]","No","Female","1963280.400000006","14488","","","{""price_1"":""250"",""price_2"":""250"",""price_3"":""280""}","rating","dct","repulsion_2","2","televisions","null","null","null","null","null","null","2","30","40","20","100","90","100","Screen size","Average lifespan","",""
"","","","","","rating_trial_setup","html-keyboard-response","81","1127419","0.0-3.0-0.39","130","1","2025-04-11 16:31:03","bb671e3ae32f654b8954ea4c4635f915","","Mozilla/5.0 (Windows NT 10.0; Win64; x64) AppleWebKit/537.36 (KHTML, like Gecko) Chrome/132.0.0.0 Safari/537.36","WebKit","Chrome","132.0.0.0","Windows","10.0","https://hz8g1ckzuq.cognition.run/","en-US,en;q=0.9","ggqpbz5v5ug6osz","34","[""White""]","No","Female","1963280.400000006","null","","<p></p>","null","rating","wbw","catch","null","washing machines","80","70","20","45","30","30","1","","","","","","","","","",""
"","","","","","rating_trial","survey-html-form","82","1139780","0.0-3.0-1.39","130","1","2025-04-11 16:31:03","bb671e3ae32f654b8954ea4c4635f915","","Mozilla/5.0 (Windows NT 10.0; Win64; x64) AppleWebKit/537.36 (KHTML, like Gecko) Chrome/132.0.0.0 Safari/537.36","WebKit","Chrome","132.0.0.0","Windows","10.0","https://hz8g1ckzuq.cognition.run/","en-US,en;q=0.9","ggqpbz5v5ug6osz","34","[""White""]","No","Female","1963280.400000006","12350","","","{""price_1"":""400"",""price_2"":""500"",""price_3"":""350""}","rating","wbw","catch","null","washing machines","80","70","20","45","30","30","1","null","null","null","null","null","null","Average lifespan","Energy savings","",""
"","","","","","","instructions","83","1196853","0.0-4.0","130","1","2025-04-11 16:31:03","bb671e3ae32f654b8954ea4c4635f915","","Mozilla/5.0 (Windows NT 10.0; Win64; x64) AppleWebKit/537.36 (KHTML, like Gecko) Chrome/132.0.0.0 Safari/537.36","WebKit","Chrome","132.0.0.0","Windows","10.0","https://hz8g1ckzuq.cognition.run/","en-US,en;q=0.9","ggqpbz5v5ug6osz","34","[""White""]","No","Female","1963280.400000006","57063","[{""page_index"":0,""viewing_time"":2655},{""page_index"":1,""viewing_time"":2414},{""page_index"":2,""viewing_time"":4756},{""page_index"":3,""viewing_time"":9389},{""page_index"":4,""viewing_time"":10173},{""page_index"":5,""viewing_time"":7510},{""page_index"":6,""viewing_time"":10717},{""page_index"":7,""viewing_time"":9448}]","","","","","","","","","","","","","","","","","","","","","","","",""
"","","","","","choice_trial_setup","html-keyboard-response","84","1197164","0.0-5.0-0.0","130","1","2025-04-11 16:31:03","bb671e3ae32f654b8954ea4c4635f915","","Mozilla/5.0 (Windows NT 10.0; Win64; x64) AppleWebKit/537.36 (KHTML, like Gecko) Chrome/132.0.0.0 Safari/537.36","WebKit","Chrome","132.0.0.0","Windows","10.0","https://hz8g1ckzuq.cognition.run/","en-US,en;q=0.9","ggqpbz5v5ug6osz","34","[""White""]","No","Female","1963280.400000006","null","","<p></p>","null","choice","bww","catch","null","washing machines","70","60","5","20","35","50","1","","","","","","","","","",""
"","","","","","choice_trial","survey-html-form","85","1207532","0.0-5.0-1.0","130","1","2025-04-11 16:31:03","bb671e3ae32f654b8954ea4c4635f915","","Mozilla/5.0 (Windows NT 10.0; Win64; x64) AppleWebKit/537.36 (KHTML, like Gecko) Chrome/132.0.0.0 Safari/537.36","WebKit","Chrome","132.0.0.0","Windows","10.0","https://hz8g1ckzuq.cognition.run/","en-US,en;q=0.9","ggqpbz5v5ug6osz","34","[""White""]","No","Female","1963280.400000006","10355","","","{""product_choice"":""A""}","choice","bww","catch","null","washing machines","70","60","5","20","35","50","1","null","null","null","null","null","null","Average lifespan","Energy savings","",""
"","","","","","choice_trial_setup","html-keyboard-response","86","1207848","0.0-5.0-0.1","130","1","2025-04-11 16:31:03","bb671e3ae32f654b8954ea4c4635f915","","Mozilla/5.0 (Windows NT 10.0; Win64; x64) AppleWebKit/537.36 (KHTML, like Gecko) Chrome/132.0.0.0 Safari/537.36","WebKit","Chrome","132.0.0.0","Windows","10.0","https://hz8g1ckzuq.cognition.run/","en-US,en;q=0.9","ggqpbz5v5ug6osz","34","[""White""]","No","Female","1963280.400000006","null","","<p></p>","null","choice","dtc","repulsion_1","1","televisions","null","null","null","null","null","null","1","","","","","","","","","",""
"","","","","","choice_trial","survey-html-form","87","1213476","0.0-5.0-1.1","130","1","2025-04-11 16:31:03","bb671e3ae32f654b8954ea4c4635f915","","Mozilla/5.0 (Windows NT 10.0; Win64; x64) AppleWebKit/537.36 (KHTML, like Gecko) Chrome/132.0.0.0 Safari/537.36","WebKit","Chrome","132.0.0.0","Windows","10.0","https://hz8g1ckzuq.cognition.run/","en-US,en;q=0.9","ggqpbz5v5ug6osz","34","[""White""]","No","Female","1963280.400000006","5618","","","{""product_choice"":""C""}","choice","dtc","repulsion_1","1","televisions","null","null","null","null","null","null","1","100","90","100","30","40","25","Screen size","Average lifespan","",""
"","","","","","choice_trial_setup","html-keyboard-response","88","1213792","0.0-5.0-0.2","130","1","2025-04-11 16:31:03","bb671e3ae32f654b8954ea4c4635f915","","Mozilla/5.0 (Windows NT 10.0; Win64; x64) AppleWebKit/537.36 (KHTML, like Gecko) Chrome/132.0.0.0 Safari/537.36","WebKit","Chrome","132.0.0.0","Windows","10.0","https://hz8g1ckzuq.cognition.run/","en-US,en;q=0.9","ggqpbz5v5ug6osz","34","[""White""]","No","Female","1963280.400000006","null","","<p></p>","null","choice","dtc","repulsion_2","2","televisions","null","null","null","null","null","null","2","","","","","","","","","",""
"","","","","","choice_trial","survey-html-form","89","1220826","0.0-5.0-1.2","130","1","2025-04-11 16:31:03","bb671e3ae32f654b8954ea4c4635f915","","Mozilla/5.0 (Windows NT 10.0; Win64; x64) AppleWebKit/537.36 (KHTML, like Gecko) Chrome/132.0.0.0 Safari/537.36","WebKit","Chrome","132.0.0.0","Windows","10.0","https://hz8g1ckzuq.cognition.run/","en-US,en;q=0.9","ggqpbz5v5ug6osz","34","[""White""]","No","Female","1963280.400000006","7024","","","{""product_choice"":""C""}","choice","dtc","repulsion_2","2","televisions","null","null","null","null","null","null","2","30","40","20","100","90","100","Screen size","Average lifespan","",""
"","","","","","choice_trial_setup","html-keyboard-response","90","1221151","0.0-5.0-0.3","130","1","2025-04-11 16:31:03","bb671e3ae32f654b8954ea4c4635f915","","Mozilla/5.0 (Windows NT 10.0; Win64; x64) AppleWebKit/537.36 (KHTML, like Gecko) Chrome/132.0.0.0 Safari/537.36","WebKit","Chrome","132.0.0.0","Windows","10.0","https://hz8g1ckzuq.cognition.run/","en-US,en;q=0.9","ggqpbz5v5ug6osz","34","[""White""]","No","Female","1963280.400000006","null","","<p></p>","null","choice","dct","attraction_1","1","televisions","null","null","null","null","null","null","1","","","","","","","","","",""
"","","","","","choice_trial","survey-html-form","91","1230191","0.0-5.0-1.3","130","1","2025-04-11 16:31:03","bb671e3ae32f654b8954ea4c4635f915","","Mozilla/5.0 (Windows NT 10.0; Win64; x64) AppleWebKit/537.36 (KHTML, like Gecko) Chrome/132.0.0.0 Safari/537.36","WebKit","Chrome","132.0.0.0","Windows","10.0","https://hz8g1ckzuq.cognition.run/","en-US,en;q=0.9","ggqpbz5v5ug6osz","34","[""White""]","No","Female","1963280.400000006","9031","","","{""product_choice"":""B""}","choice","dct","attraction_1","1","televisions","null","null","null","null","null","null","1","60","50","60","50","60","45","Screen size","Average lifespan","",""
"","","","","","choice_trial_setup","html-keyboard-response","92","1230507","0.0-5.0-0.4","130","1","2025-04-11 16:31:03","bb671e3ae32f654b8954ea4c4635f915","","Mozilla/5.0 (Windows NT 10.0; Win64; x64) AppleWebKit/537.36 (KHTML, like Gecko) Chrome/132.0.0.0 Safari/537.36","WebKit","Chrome","132.0.0.0","Windows","10.0","https://hz8g1ckzuq.cognition.run/","en-US,en;q=0.9","ggqpbz5v5ug6osz","34","[""White""]","No","Female","1963280.400000006","null","","<p></p>","null","choice","tcd","attraction_2","1","microwave ovens","null","null","null","null","null","null","1","","","","","","","","","",""
"","","","","","choice_trial","survey-html-form","93","1238879","0.0-5.0-1.4","130","1","2025-04-11 16:31:03","bb671e3ae32f654b8954ea4c4635f915","","Mozilla/5.0 (Windows NT 10.0; Win64; x64) AppleWebKit/537.36 (KHTML, like Gecko) Chrome/132.0.0.0 Safari/537.36","WebKit","Chrome","132.0.0.0","Windows","10.0","https://hz8g1ckzuq.cognition.run/","en-US,en;q=0.9","ggqpbz5v5ug6osz","34","[""White""]","No","Female","1963280.400000006","8361","","","{""product_choice"":""B""}","choice","tcd","attraction_2","1","microwave ovens","null","null","null","null","null","null","1","60","50","60","50","60","40","Warranty","Cooking power","",""
"","","","","","choice_trial_setup","html-keyboard-response","94","1239204","0.0-5.0-0.5","130","1","2025-04-11 16:31:03","bb671e3ae32f654b8954ea4c4635f915","","Mozilla/5.0 (Windows NT 10.0; Win64; x64) AppleWebKit/537.36 (KHTML, like Gecko) Chrome/132.0.0.0 Safari/537.36","WebKit","Chrome","132.0.0.0","Windows","10.0","https://hz8g1ckzuq.cognition.run/","en-US,en;q=0.9","ggqpbz5v5ug6osz","34","[""White""]","No","Female","1963280.400000006","null","","<p></p>","null","choice","tdc","attraction_1","2","laptops","null","null","null","null","null","null","2","","","","","","","","","",""
"","","","","","choice_trial","survey-html-form","95","1247982","0.0-5.0-1.5","130","1","2025-04-11 16:31:03","bb671e3ae32f654b8954ea4c4635f915","","Mozilla/5.0 (Windows NT 10.0; Win64; x64) AppleWebKit/537.36 (KHTML, like Gecko) Chrome/132.0.0.0 Safari/537.36","WebKit","Chrome","132.0.0.0","Windows","10.0","https://hz8g1ckzuq.cognition.run/","en-US,en;q=0.9","ggqpbz5v5ug6osz","34","[""White""]","No","Female","1963280.400000006","8766","","","{""product_choice"":""C""}","choice","tdc","attraction_1","2","laptops","null","null","null","null","null","null","2","50","60","45","60","50","60","Processing speed","Memory (RAM)","",""
"","","","","","choice_trial_setup","html-keyboard-response","96","1248296","0.0-5.0-0.6","130","1","2025-04-11 16:31:03","bb671e3ae32f654b8954ea4c4635f915","","Mozilla/5.0 (Windows NT 10.0; Win64; x64) AppleWebKit/537.36 (KHTML, like Gecko) Chrome/132.0.0.0 Safari/537.36","WebKit","Chrome","132.0.0.0","Windows","10.0","https://hz8g1ckzuq.cognition.run/","en-US,en;q=0.9","ggqpbz5v5ug6osz","34","[""White""]","No","Female","1963280.400000006","null","","<p></p>","null","choice","wbw","catch","null","washing machines","90","50","5","25","30","5","2","","","","","","","","","",""
"","","","","","choice_trial","survey-html-form","97","1253272","0.0-5.0-1.6","130","1","2025-04-11 16:31:03","bb671e3ae32f654b8954ea4c4635f915","","Mozilla/5.0 (Windows NT 10.0; Win64; x64) AppleWebKit/537.36 (KHTML, like Gecko) Chrome/132.0.0.0 Safari/537.36","WebKit","Chrome","132.0.0.0","Windows","10.0","https://hz8g1ckzuq.cognition.run/","en-US,en;q=0.9","ggqpbz5v5ug6osz","34","[""White""]","No","Female","1963280.400000006","4965","","","{""product_choice"":""B""}","choice","wbw","catch","null","washing machines","90","50","5","25","30","5","2","null","null","null","null","null","null","Average lifespan","Energy savings","",""
"","","","","","choice_trial_setup","html-keyboard-response","98","1253599","0.0-5.0-0.7","130","1","2025-04-11 16:31:03","bb671e3ae32f654b8954ea4c4635f915","","Mozilla/5.0 (Windows NT 10.0; Win64; x64) AppleWebKit/537.36 (KHTML, like Gecko) Chrome/132.0.0.0 Safari/537.36","WebKit","Chrome","132.0.0.0","Windows","10.0","https://hz8g1ckzuq.cognition.run/","en-US,en;q=0.9","ggqpbz5v5ug6osz","34","[""White""]","No","Female","1963280.400000006","null","","<p></p>","null","choice","wwb","catch","null","televisions","60","75","40","15","50","20","2","","","","","","","","","",""
"","","","","","choice_trial","survey-html-form","99","1259501","0.0-5.0-1.7","130","1","2025-04-11 16:31:03","bb671e3ae32f654b8954ea4c4635f915","","Mozilla/5.0 (Windows NT 10.0; Win64; x64) AppleWebKit/537.36 (KHTML, like Gecko) Chrome/132.0.0.0 Safari/537.36","WebKit","Chrome","132.0.0.0","Windows","10.0","https://hz8g1ckzuq.cognition.run/","en-US,en;q=0.9","ggqpbz5v5ug6osz","34","[""White""]","No","Female","1963280.400000006","5891","","","{""product_choice"":""C""}","choice","wwb","catch","null","televisions","60","75","40","15","50","20","2","null","null","null","null","null","null","Screen size","Average lifespan","",""
"","","","","","choice_trial_setup","html-keyboard-response","100","1259816","0.0-5.0-0.8","130","1","2025-04-11 16:31:03","bb671e3ae32f654b8954ea4c4635f915","","Mozilla/5.0 (Windows NT 10.0; Win64; x64) AppleWebKit/537.36 (KHTML, like Gecko) Chrome/132.0.0.0 Safari/537.36","WebKit","Chrome","132.0.0.0","Windows","10.0","https://hz8g1ckzuq.cognition.run/","en-US,en;q=0.9","ggqpbz5v5ug6osz","34","[""White""]","No","Female","1963280.400000006","null","","<p></p>","null","choice","tcd","repulsion_1","2","washing machines","null","null","null","null","null","null","1","","","","","","","","","",""
"","","","","","choice_trial","survey-html-form","101","1267644","0.0-5.0-1.8","130","1","2025-04-11 16:31:03","bb671e3ae32f654b8954ea4c4635f915","","Mozilla/5.0 (Windows NT 10.0; Win64; x64) AppleWebKit/537.36 (KHTML, like Gecko) Chrome/132.0.0.0 Safari/537.36","WebKit","Chrome","132.0.0.0","Windows","10.0","https://hz8g1ckzuq.cognition.run/","en-US,en;q=0.9","ggqpbz5v5ug6osz","34","[""White""]","No","Female","1963280.400000006","7817","","","{""product_choice"":""B""}","choice","tcd","repulsion_1","2","washing machines","null","null","null","null","null","null","1","30","40","25","100","90","100","Average lifespan","Energy savings","",""
"","","","","","choice_trial_setup","html-keyboard-response","102","1267963","0.0-5.0-0.9","130","1","2025-04-11 16:31:03","bb671e3ae32f654b8954ea4c4635f915","","Mozilla/5.0 (Windows NT 10.0; Win64; x64) AppleWebKit/537.36 (KHTML, like Gecko) Chrome/132.0.0.0 Safari/537.36","WebKit","Chrome","132.0.0.0","Windows","10.0","https://hz8g1ckzuq.cognition.run/","en-US,en;q=0.9","ggqpbz5v5ug6osz","34","[""White""]","No","Female","1963280.400000006","null","","<p></p>","null","choice","ctd","repulsion_1","1","laptops","null","null","null","null","null","null","2","","","","","","","","","",""
"","","","","","choice_trial","survey-html-form","103","1280499","0.0-5.0-1.9","130","1","2025-04-11 16:31:03","bb671e3ae32f654b8954ea4c4635f915","","Mozilla/5.0 (Windows NT 10.0; Win64; x64) AppleWebKit/537.36 (KHTML, like Gecko) Chrome/132.0.0.0 Safari/537.36","WebKit","Chrome","132.0.0.0","Windows","10.0","https://hz8g1ckzuq.cognition.run/","en-US,en;q=0.9","ggqpbz5v5ug6osz","34","[""White""]","No","Female","1963280.400000006","12526","","","{""product_choice"":""B""}","choice","ctd","repulsion_1","1","laptops","null","null","null","null","null","null","2","100","90","100","30","40","25","Processing speed","Memory (RAM)","",""
"","","","","","choice_trial_setup","html-keyboard-response","104","1280817","0.0-5.0-0.10","130","1","2025-04-11 16:31:03","bb671e3ae32f654b8954ea4c4635f915","","Mozilla/5.0 (Windows NT 10.0; Win64; x64) AppleWebKit/537.36 (KHTML, like Gecko) Chrome/132.0.0.0 Safari/537.36","WebKit","Chrome","132.0.0.0","Windows","10.0","https://hz8g1ckzuq.cognition.run/","en-US,en;q=0.9","ggqpbz5v5ug6osz","34","[""White""]","No","Female","1963280.400000006","null","","<p></p>","null","choice","dct","attraction_2","1","laptops","null","null","null","null","null","null","2","","","","","","","","","",""
"","","","","","choice_trial","survey-html-form","105","1292887","0.0-5.0-1.10","130","1","2025-04-11 16:31:03","bb671e3ae32f654b8954ea4c4635f915","","Mozilla/5.0 (Windows NT 10.0; Win64; x64) AppleWebKit/537.36 (KHTML, like Gecko) Chrome/132.0.0.0 Safari/537.36","WebKit","Chrome","132.0.0.0","Windows","10.0","https://hz8g1ckzuq.cognition.run/","en-US,en;q=0.9","ggqpbz5v5ug6osz","34","[""White""]","No","Female","1963280.400000006","12060","","","{""product_choice"":""C""}","choice","dct","attraction_2","1","laptops","null","null","null","null","null","null","2","60","50","60","50","60","40","Processing speed","Memory (RAM)","",""
"","","","","","choice_trial_setup","html-keyboard-response","106","1293208","0.0-5.0-0.11","130","1","2025-04-11 16:31:03","bb671e3ae32f654b8954ea4c4635f915","","Mozilla/5.0 (Windows NT 10.0; Win64; x64) AppleWebKit/537.36 (KHTML, like Gecko) Chrome/132.0.0.0 Safari/537.36","WebKit","Chrome","132.0.0.0","Windows","10.0","https://hz8g1ckzuq.cognition.run/","en-US,en;q=0.9","ggqpbz5v5ug6osz","34","[""White""]","No","Female","1963280.400000006","null","","<p></p>","null","choice","wwb","catch","null","laptops","65","90","50","10","35","15","2","","","","","","","","","",""
"","","","","","choice_trial","survey-html-form","107","1299636","0.0-5.0-1.11","130","1","2025-04-11 16:31:03","bb671e3ae32f654b8954ea4c4635f915","","Mozilla/5.0 (Windows NT 10.0; Win64; x64) AppleWebKit/537.36 (KHTML, like Gecko) Chrome/132.0.0.0 Safari/537.36","WebKit","Chrome","132.0.0.0","Windows","10.0","https://hz8g1ckzuq.cognition.run/","en-US,en;q=0.9","ggqpbz5v5ug6osz","34","[""White""]","No","Female","1963280.400000006","6416","","","{""product_choice"":""C""}","choice","wwb","catch","null","laptops","65","90","50","10","35","15","2","null","null","null","null","null","null","Processing speed","Memory (RAM)","",""
"","","","","","choice_trial_setup","html-keyboard-response","108","1299957","0.0-5.0-0.12","130","1","2025-04-11 16:31:03","bb671e3ae32f654b8954ea4c4635f915","","Mozilla/5.0 (Windows NT 10.0; Win64; x64) AppleWebKit/537.36 (KHTML, like Gecko) Chrome/132.0.0.0 Safari/537.36","WebKit","Chrome","132.0.0.0","Windows","10.0","https://hz8g1ckzuq.cognition.run/","en-US,en;q=0.9","ggqpbz5v5ug6osz","34","[""White""]","No","Female","1963280.400000006","null","","<p></p>","null","choice","dct","attraction_2","2","laptops","null","null","null","null","null","null","1","","","","","","","","","",""
"","","","","","choice_trial","survey-html-form","109","1306660","0.0-5.0-1.12","130","1","2025-04-11 16:31:03","bb671e3ae32f654b8954ea4c4635f915","","Mozilla/5.0 (Windows NT 10.0; Win64; x64) AppleWebKit/537.36 (KHTML, like Gecko) Chrome/132.0.0.0 Safari/537.36","WebKit","Chrome","132.0.0.0","Windows","10.0","https://hz8g1ckzuq.cognition.run/","en-US,en;q=0.9","ggqpbz5v5ug6osz","34","[""White""]","No","Female","1963280.400000006","6691","","","{""product_choice"":""B""}","choice","dct","attraction_2","2","laptops","null","null","null","null","null","null","1","50","60","40","60","50","60","Processing speed","Memory (RAM)","",""
"","","","","","choice_trial_setup","html-keyboard-response","110","1306976","0.0-5.0-0.13","130","1","2025-04-11 16:31:03","bb671e3ae32f654b8954ea4c4635f915","","Mozilla/5.0 (Windows NT 10.0; Win64; x64) AppleWebKit/537.36 (KHTML, like Gecko) Chrome/132.0.0.0 Safari/537.36","WebKit","Chrome","132.0.0.0","Windows","10.0","https://hz8g1ckzuq.cognition.run/","en-US,en;q=0.9","ggqpbz5v5ug6osz","34","[""White""]","No","Female","1963280.400000006","null","","<p></p>","null","choice","ctd","attraction_1","1","laptops","null","null","null","null","null","null","1","","","","","","","","","",""
"","","","","","choice_trial","survey-html-form","111","1319563","0.0-5.0-1.13","130","1","2025-04-11 16:31:03","bb671e3ae32f654b8954ea4c4635f915","","Mozilla/5.0 (Windows NT 10.0; Win64; x64) AppleWebKit/537.36 (KHTML, like Gecko) Chrome/132.0.0.0 Safari/537.36","WebKit","Chrome","132.0.0.0","Windows","10.0","https://hz8g1ckzuq.cognition.run/","en-US,en;q=0.9","ggqpbz5v5ug6osz","34","[""White""]","No","Female","1963280.400000006","12575","","","{""product_choice"":""B""}","choice","ctd","attraction_1","1","laptops","null","null","null","null","null","null","1","60","50","60","50","60","45","Processing speed","Memory (RAM)","",""
"","","","","","choice_trial_setup","html-keyboard-response","112","1319890","0.0-5.0-0.14","130","1","2025-04-11 16:31:03","bb671e3ae32f654b8954ea4c4635f915","","Mozilla/5.0 (Windows NT 10.0; Win64; x64) AppleWebKit/537.36 (KHTML, like Gecko) Chrome/132.0.0.0 Safari/537.36","WebKit","Chrome","132.0.0.0","Windows","10.0","https://hz8g1ckzuq.cognition.run/","en-US,en;q=0.9","ggqpbz5v5ug6osz","34","[""White""]","No","Female","1963280.400000006","null","","<p></p>","null","choice","dtc","attraction_2","2","washing machines","null","null","null","null","null","null","2","","","","","","","","","",""
"","","","","","choice_trial","survey-html-form","113","1326996","0.0-5.0-1.14","130","1","2025-04-11 16:31:03","bb671e3ae32f654b8954ea4c4635f915","","Mozilla/5.0 (Windows NT 10.0; Win64; x64) AppleWebKit/537.36 (KHTML, like Gecko) Chrome/132.0.0.0 Safari/537.36","WebKit","Chrome","132.0.0.0","Windows","10.0","https://hz8g1ckzuq.cognition.run/","en-US,en;q=0.9","ggqpbz5v5ug6osz","34","[""White""]","No","Female","1963280.400000006","7093","","","{""product_choice"":""B""}","choice","dtc","attraction_2","2","washing machines","null","null","null","null","null","null","2","50","60","40","60","50","60","Average lifespan","Energy savings","",""
"","","","","","choice_trial_setup","html-keyboard-response","114","1327316","0.0-5.0-0.15","130","1","2025-04-11 16:31:03","bb671e3ae32f654b8954ea4c4635f915","","Mozilla/5.0 (Windows NT 10.0; Win64; x64) AppleWebKit/537.36 (KHTML, like Gecko) Chrome/132.0.0.0 Safari/537.36","WebKit","Chrome","132.0.0.0","Windows","10.0","https://hz8g1ckzuq.cognition.run/","en-US,en;q=0.9","ggqpbz5v5ug6osz","34","[""White""]","No","Female","1963280.400000006","null","","<p></p>","null","choice","tdc","attraction_1","2","microwave ovens","null","null","null","null","null","null","1","","","","","","","","","",""
"","","","","","choice_trial","survey-html-form","115","1334309","0.0-5.0-1.15","130","1","2025-04-11 16:31:03","bb671e3ae32f654b8954ea4c4635f915","","Mozilla/5.0 (Windows NT 10.0; Win64; x64) AppleWebKit/537.36 (KHTML, like Gecko) Chrome/132.0.0.0 Safari/537.36","WebKit","Chrome","132.0.0.0","Windows","10.0","https://hz8g1ckzuq.cognition.run/","en-US,en;q=0.9","ggqpbz5v5ug6osz","34","[""White""]","No","Female","1963280.400000006","6977","","","{""product_choice"":""C""}","choice","tdc","attraction_1","2","microwave ovens","null","null","null","null","null","null","1","50","60","45","60","50","60","Warranty","Cooking power","",""
"","","","","","choice_trial_setup","html-keyboard-response","116","1334628","0.0-5.0-0.16","130","1","2025-04-11 16:31:03","bb671e3ae32f654b8954ea4c4635f915","","Mozilla/5.0 (Windows NT 10.0; Win64; x64) AppleWebKit/537.36 (KHTML, like Gecko) Chrome/132.0.0.0 Safari/537.36","WebKit","Chrome","132.0.0.0","Windows","10.0","https://hz8g1ckzuq.cognition.run/","en-US,en;q=0.9","ggqpbz5v5ug6osz","34","[""White""]","No","Female","1963280.400000006","null","","<p></p>","null","choice","ctd","attraction_2","1","washing machines","null","null","null","null","null","null","1","","","","","","","","","",""
"","","","","","choice_trial","survey-html-form","117","1343406","0.0-5.0-1.16","130","1","2025-04-11 16:31:03","bb671e3ae32f654b8954ea4c4635f915","","Mozilla/5.0 (Windows NT 10.0; Win64; x64) AppleWebKit/537.36 (KHTML, like Gecko) Chrome/132.0.0.0 Safari/537.36","WebKit","Chrome","132.0.0.0","Windows","10.0","https://hz8g1ckzuq.cognition.run/","en-US,en;q=0.9","ggqpbz5v5ug6osz","34","[""White""]","No","Female","1963280.400000006","8764","","","{""product_choice"":""A""}","choice","ctd","attraction_2","1","washing machines","null","null","null","null","null","null","1","60","50","60","50","60","40","Average lifespan","Energy savings","",""
"","","","","","choice_trial_setup","html-keyboard-response","118","1343721","0.0-5.0-0.17","130","1","2025-04-11 16:31:03","bb671e3ae32f654b8954ea4c4635f915","","Mozilla/5.0 (Windows NT 10.0; Win64; x64) AppleWebKit/537.36 (KHTML, like Gecko) Chrome/132.0.0.0 Safari/537.36","WebKit","Chrome","132.0.0.0","Windows","10.0","https://hz8g1ckzuq.cognition.run/","en-US,en;q=0.9","ggqpbz5v5ug6osz","34","[""White""]","No","Female","1963280.400000006","null","","<p></p>","null","choice","dtc","repulsion_2","2","washing machines","null","null","null","null","null","null","2","","","","","","","","","",""
"","","","","","choice_trial","survey-html-form","119","1348556","0.0-5.0-1.17","130","1","2025-04-11 16:31:03","bb671e3ae32f654b8954ea4c4635f915","","Mozilla/5.0 (Windows NT 10.0; Win64; x64) AppleWebKit/537.36 (KHTML, like Gecko) Chrome/132.0.0.0 Safari/537.36","WebKit","Chrome","132.0.0.0","Windows","10.0","https://hz8g1ckzuq.cognition.run/","en-US,en;q=0.9","ggqpbz5v5ug6osz","34","[""White""]","No","Female","1963280.400000006","4821","","","{""product_choice"":""C""}","choice","dtc","repulsion_2","2","washing machines","null","null","null","null","null","null","2","30","40","20","100","90","100","Average lifespan","Energy savings","",""
"","","","","","choice_trial_setup","html-keyboard-response","120","1348874","0.0-5.0-0.18","130","1","2025-04-11 16:31:03","bb671e3ae32f654b8954ea4c4635f915","","Mozilla/5.0 (Windows NT 10.0; Win64; x64) AppleWebKit/537.36 (KHTML, like Gecko) Chrome/132.0.0.0 Safari/537.36","WebKit","Chrome","132.0.0.0","Windows","10.0","https://hz8g1ckzuq.cognition.run/","en-US,en;q=0.9","ggqpbz5v5ug6osz","34","[""White""]","No","Female","1963280.400000006","null","","<p></p>","null","choice","wwb","catch","null","televisions","85","55","20","30","25","35","2","","","","","","","","","",""
"","","","","","choice_trial","survey-html-form","121","1353103","0.0-5.0-1.18","130","1","2025-04-11 16:31:03","bb671e3ae32f654b8954ea4c4635f915","","Mozilla/5.0 (Windows NT 10.0; Win64; x64) AppleWebKit/537.36 (KHTML, like Gecko) Chrome/132.0.0.0 Safari/537.36","WebKit","Chrome","132.0.0.0","Windows","10.0","https://hz8g1ckzuq.cognition.run/","en-US,en;q=0.9","ggqpbz5v5ug6osz","34","[""White""]","No","Female","1963280.400000006","4216","","","{""product_choice"":""C""}","choice","wwb","catch","null","televisions","85","55","20","30","25","35","2","null","null","null","null","null","null","Screen size","Average lifespan","",""
"","","","","","choice_trial_setup","html-keyboard-response","122","1353424","0.0-5.0-0.19","130","1","2025-04-11 16:31:03","bb671e3ae32f654b8954ea4c4635f915","","Mozilla/5.0 (Windows NT 10.0; Win64; x64) AppleWebKit/537.36 (KHTML, like Gecko) Chrome/132.0.0.0 Safari/537.36","WebKit","Chrome","132.0.0.0","Windows","10.0","https://hz8g1ckzuq.cognition.run/","en-US,en;q=0.9","ggqpbz5v5ug6osz","34","[""White""]","No","Female","1963280.400000006","null","","<p></p>","null","choice","wwb","catch","null","microwave ovens","95","80","35","45","35","30","2","","","","","","","","","",""
"","","","","","choice_trial","survey-html-form","123","1357575","0.0-5.0-1.19","130","1","2025-04-11 16:31:03","bb671e3ae32f654b8954ea4c4635f915","","Mozilla/5.0 (Windows NT 10.0; Win64; x64) AppleWebKit/537.36 (KHTML, like Gecko) Chrome/132.0.0.0 Safari/537.36","WebKit","Chrome","132.0.0.0","Windows","10.0","https://hz8g1ckzuq.cognition.run/","en-US,en;q=0.9","ggqpbz5v5ug6osz","34","[""White""]","No","Female","1963280.400000006","4139","","","{""product_choice"":""C""}","choice","wwb","catch","null","microwave ovens","95","80","35","45","35","30","2","null","null","null","null","null","null","Warranty","Cooking power","",""
"","","","","","choice_trial_setup","html-keyboard-response","124","1357889","0.0-5.0-0.20","130","1","2025-04-11 16:31:03","bb671e3ae32f654b8954ea4c4635f915","","Mozilla/5.0 (Windows NT 10.0; Win64; x64) AppleWebKit/537.36 (KHTML, like Gecko) Chrome/132.0.0.0 Safari/537.36","WebKit","Chrome","132.0.0.0","Windows","10.0","https://hz8g1ckzuq.cognition.run/","en-US,en;q=0.9","ggqpbz5v5ug6osz","34","[""White""]","No","Female","1963280.400000006","null","","<p></p>","null","choice","tcd","attraction_2","2","microwave ovens","null","null","null","null","null","null","2","","","","","","","","","",""
"","","","","","choice_trial","survey-html-form","125","1366763","0.0-5.0-1.20","130","1","2025-04-11 16:31:03","bb671e3ae32f654b8954ea4c4635f915","","Mozilla/5.0 (Windows NT 10.0; Win64; x64) AppleWebKit/537.36 (KHTML, like Gecko) Chrome/132.0.0.0 Safari/537.36","WebKit","Chrome","132.0.0.0","Windows","10.0","https://hz8g1ckzuq.cognition.run/","en-US,en;q=0.9","ggqpbz5v5ug6osz","34","[""White""]","No","Female","1963280.400000006","8861","","","{""product_choice"":""A""}","choice","tcd","attraction_2","2","microwave ovens","null","null","null","null","null","null","2","50","60","40","60","50","60","Warranty","Cooking power","",""
"","","","","","choice_trial_setup","html-keyboard-response","126","1367076","0.0-5.0-0.21","130","1","2025-04-11 16:31:03","bb671e3ae32f654b8954ea4c4635f915","","Mozilla/5.0 (Windows NT 10.0; Win64; x64) AppleWebKit/537.36 (KHTML, like Gecko) Chrome/132.0.0.0 Safari/537.36","WebKit","Chrome","132.0.0.0","Windows","10.0","https://hz8g1ckzuq.cognition.run/","en-US,en;q=0.9","ggqpbz5v5ug6osz","34","[""White""]","No","Female","1963280.400000006","null","","<p></p>","null","choice","tcd","repulsion_2","2","laptops","null","null","null","null","null","null","2","","","","","","","","","",""
"","","","","","choice_trial","survey-html-form","127","1374592","0.0-5.0-1.21","130","1","2025-04-11 16:31:03","bb671e3ae32f654b8954ea4c4635f915","","Mozilla/5.0 (Windows NT 10.0; Win64; x64) AppleWebKit/537.36 (KHTML, like Gecko) Chrome/132.0.0.0 Safari/537.36","WebKit","Chrome","132.0.0.0","Windows","10.0","https://hz8g1ckzuq.cognition.run/","en-US,en;q=0.9","ggqpbz5v5ug6osz","34","[""White""]","No","Female","1963280.400000006","7501","","","{""product_choice"":""B""}","choice","tcd","repulsion_2","2","laptops","null","null","null","null","null","null","2","30","40","20","100","90","100","Processing speed","Memory (RAM)","",""
"","","","","","choice_trial_setup","html-keyboard-response","128","1374905","0.0-5.0-0.22","130","1","2025-04-11 16:31:03","bb671e3ae32f654b8954ea4c4635f915","","Mozilla/5.0 (Windows NT 10.0; Win64; x64) AppleWebKit/537.36 (KHTML, like Gecko) Chrome/132.0.0.0 Safari/537.36","WebKit","Chrome","132.0.0.0","Windows","10.0","https://hz8g1ckzuq.cognition.run/","en-US,en;q=0.9","ggqpbz5v5ug6osz","34","[""White""]","No","Female","1963280.400000006","null","","<p></p>","null","choice","tcd","repulsion_1","2","laptops","null","null","null","null","null","null","1","","","","","","","","","",""
"","","","","","choice_trial","survey-html-form","129","1384171","0.0-5.0-1.22","130","1","2025-04-11 16:31:03","bb671e3ae32f654b8954ea4c4635f915","","Mozilla/5.0 (Windows NT 10.0; Win64; x64) AppleWebKit/537.36 (KHTML, like Gecko) Chrome/132.0.0.0 Safari/537.36","WebKit","Chrome","132.0.0.0","Windows","10.0","https://hz8g1ckzuq.cognition.run/","en-US,en;q=0.9","ggqpbz5v5ug6osz","34","[""White""]","No","Female","1963280.400000006","9253","","","{""product_choice"":""B""}","choice","tcd","repulsion_1","2","laptops","null","null","null","null","null","null","1","30","40","25","100","90","100","Processing speed","Memory (RAM)","",""
"","","","","","choice_trial_setup","html-keyboard-response","130","1384486","0.0-5.0-0.23","130","1","2025-04-11 16:31:03","bb671e3ae32f654b8954ea4c4635f915","","Mozilla/5.0 (Windows NT 10.0; Win64; x64) AppleWebKit/537.36 (KHTML, like Gecko) Chrome/132.0.0.0 Safari/537.36","WebKit","Chrome","132.0.0.0","Windows","10.0","https://hz8g1ckzuq.cognition.run/","en-US,en;q=0.9","ggqpbz5v5ug6osz","34","[""White""]","No","Female","1963280.400000006","null","","<p></p>","null","choice","cdt","attraction_1","2","washing machines","null","null","null","null","null","null","2","","","","","","","","","",""
"","","","","","choice_trial","survey-html-form","131","1390886","0.0-5.0-1.23","130","1","2025-04-11 16:31:03","bb671e3ae32f654b8954ea4c4635f915","","Mozilla/5.0 (Windows NT 10.0; Win64; x64) AppleWebKit/537.36 (KHTML, like Gecko) Chrome/132.0.0.0 Safari/537.36","WebKit","Chrome","132.0.0.0","Windows","10.0","https://hz8g1ckzuq.cognition.run/","en-US,en;q=0.9","ggqpbz5v5ug6osz","34","[""White""]","No","Female","1963280.400000006","6385","","","{""product_choice"":""C""}","choice","cdt","attraction_1","2","washing machines","null","null","null","null","null","null","2","50","60","45","60","50","60","Average lifespan","Energy savings","",""
"","","","","","choice_trial_setup","html-keyboard-response","132","1391209","0.0-5.0-0.24","130","1","2025-04-11 16:31:03","bb671e3ae32f654b8954ea4c4635f915","","Mozilla/5.0 (Windows NT 10.0; Win64; x64) AppleWebKit/537.36 (KHTML, like Gecko) Chrome/132.0.0.0 Safari/537.36","WebKit","Chrome","132.0.0.0","Windows","10.0","https://hz8g1ckzuq.cognition.run/","en-US,en;q=0.9","ggqpbz5v5ug6osz","34","[""White""]","No","Female","1963280.400000006","null","","<p></p>","null","choice","dct","repulsion_2","1","washing machines","null","null","null","null","null","null","2","","","","","","","","","",""
"","","","","","choice_trial","survey-html-form","133","1397711","0.0-5.0-1.24","130","1","2025-04-11 16:31:03","bb671e3ae32f654b8954ea4c4635f915","","Mozilla/5.0 (Windows NT 10.0; Win64; x64) AppleWebKit/537.36 (KHTML, like Gecko) Chrome/132.0.0.0 Safari/537.36","WebKit","Chrome","132.0.0.0","Windows","10.0","https://hz8g1ckzuq.cognition.run/","en-US,en;q=0.9","ggqpbz5v5ug6osz","34","[""White""]","No","Female","1963280.400000006","6491","","","{""product_choice"":""B""}","choice","dct","repulsion_2","1","washing machines","null","null","null","null","null","null","2","100","90","100","30","40","20","Average lifespan","Energy savings","",""
"","","","","","choice_trial_setup","html-keyboard-response","134","1398040","0.0-5.0-0.25","130","1","2025-04-11 16:31:03","bb671e3ae32f654b8954ea4c4635f915","","Mozilla/5.0 (Windows NT 10.0; Win64; x64) AppleWebKit/537.36 (KHTML, like Gecko) Chrome/132.0.0.0 Safari/537.36","WebKit","Chrome","132.0.0.0","Windows","10.0","https://hz8g1ckzuq.cognition.run/","en-US,en;q=0.9","ggqpbz5v5ug6osz","34","[""White""]","No","Female","1963280.400000006","null","","<p></p>","null","choice","wbw","catch","null","microwave ovens","65","55","35","50","30","40","1","","","","","","","","","",""
"","","","","","choice_trial","survey-html-form","135","1402767","0.0-5.0-1.25","130","1","2025-04-11 16:31:03","bb671e3ae32f654b8954ea4c4635f915","","Mozilla/5.0 (Windows NT 10.0; Win64; x64) AppleWebKit/537.36 (KHTML, like Gecko) Chrome/132.0.0.0 Safari/537.36","WebKit","Chrome","132.0.0.0","Windows","10.0","https://hz8g1ckzuq.cognition.run/","en-US,en;q=0.9","ggqpbz5v5ug6osz","34","[""White""]","No","Female","1963280.400000006","4714","","","{""product_choice"":""B""}","choice","wbw","catch","null","microwave ovens","65","55","35","50","30","40","1","null","null","null","null","null","null","Warranty","Cooking power","",""
"","","","","","choice_trial_setup","html-keyboard-response","136","1403089","0.0-5.0-0.26","130","1","2025-04-11 16:31:03","bb671e3ae32f654b8954ea4c4635f915","","Mozilla/5.0 (Windows NT 10.0; Win64; x64) AppleWebKit/537.36 (KHTML, like Gecko) Chrome/132.0.0.0 Safari/537.36","WebKit","Chrome","132.0.0.0","Windows","10.0","https://hz8g1ckzuq.cognition.run/","en-US,en;q=0.9","ggqpbz5v5ug6osz","34","[""White""]","No","Female","1963280.400000006","null","","<p></p>","null","choice","dtc","repulsion_2","1","laptops","null","null","null","null","null","null","2","","","","","","","","","",""
"","","","","","choice_trial","survey-html-form","137","1408355","0.0-5.0-1.26","130","1","2025-04-11 16:31:03","bb671e3ae32f654b8954ea4c4635f915","","Mozilla/5.0 (Windows NT 10.0; Win64; x64) AppleWebKit/537.36 (KHTML, like Gecko) Chrome/132.0.0.0 Safari/537.36","WebKit","Chrome","132.0.0.0","Windows","10.0","https://hz8g1ckzuq.cognition.run/","en-US,en;q=0.9","ggqpbz5v5ug6osz","34","[""White""]","No","Female","1963280.400000006","5252","","","{""product_choice"":""C""}","choice","dtc","repulsion_2","1","laptops","null","null","null","null","null","null","2","100","90","100","30","40","20","Processing speed","Memory (RAM)","",""
"","","","","","choice_trial_setup","html-keyboard-response","138","1408681","0.0-5.0-0.27","130","1","2025-04-11 16:31:03","bb671e3ae32f654b8954ea4c4635f915","","Mozilla/5.0 (Windows NT 10.0; Win64; x64) AppleWebKit/537.36 (KHTML, like Gecko) Chrome/132.0.0.0 Safari/537.36","WebKit","Chrome","132.0.0.0","Windows","10.0","https://hz8g1ckzuq.cognition.run/","en-US,en;q=0.9","ggqpbz5v5ug6osz","34","[""White""]","No","Female","1963280.400000006","null","","<p></p>","null","choice","tdc","attraction_1","1","microwave ovens","null","null","null","null","null","null","1","","","","","","","","","",""
"","","","","","choice_trial","survey-html-form","139","1417376","0.0-5.0-1.27","130","1","2025-04-11 16:31:03","bb671e3ae32f654b8954ea4c4635f915","","Mozilla/5.0 (Windows NT 10.0; Win64; x64) AppleWebKit/537.36 (KHTML, like Gecko) Chrome/132.0.0.0 Safari/537.36","WebKit","Chrome","132.0.0.0","Windows","10.0","https://hz8g1ckzuq.cognition.run/","en-US,en;q=0.9","ggqpbz5v5ug6osz","34","[""White""]","No","Female","1963280.400000006","8682","","","{""product_choice"":""C""}","choice","tdc","attraction_1","1","microwave ovens","null","null","null","null","null","null","1","60","50","60","50","60","45","Warranty","Cooking power","",""
"","","","","","choice_trial_setup","html-keyboard-response","140","1417694","0.0-5.0-0.28","130","1","2025-04-11 16:31:03","bb671e3ae32f654b8954ea4c4635f915","","Mozilla/5.0 (Windows NT 10.0; Win64; x64) AppleWebKit/537.36 (KHTML, like Gecko) Chrome/132.0.0.0 Safari/537.36","WebKit","Chrome","132.0.0.0","Windows","10.0","https://hz8g1ckzuq.cognition.run/","en-US,en;q=0.9","ggqpbz5v5ug6osz","34","[""White""]","No","Female","1963280.400000006","null","","<p></p>","null","choice","cdt","repulsion_1","2","televisions","null","null","null","null","null","null","2","","","","","","","","","",""
"","","","","","choice_trial","survey-html-form","141","1426614","0.0-5.0-1.28","130","1","2025-04-11 16:31:03","bb671e3ae32f654b8954ea4c4635f915","","Mozilla/5.0 (Windows NT 10.0; Win64; x64) AppleWebKit/537.36 (KHTML, like Gecko) Chrome/132.0.0.0 Safari/537.36","WebKit","Chrome","132.0.0.0","Windows","10.0","https://hz8g1ckzuq.cognition.run/","en-US,en;q=0.9","ggqpbz5v5ug6osz","34","[""White""]","No","Female","1963280.400000006","8905","","","{""product_choice"":""A""}","choice","cdt","repulsion_1","2","televisions","null","null","null","null","null","null","2","30","40","25","100","90","100","Screen size","Average lifespan","",""
"","","","","","choice_trial_setup","html-keyboard-response","142","1426937","0.0-5.0-0.29","130","1","2025-04-11 16:31:03","bb671e3ae32f654b8954ea4c4635f915","","Mozilla/5.0 (Windows NT 10.0; Win64; x64) AppleWebKit/537.36 (KHTML, like Gecko) Chrome/132.0.0.0 Safari/537.36","WebKit","Chrome","132.0.0.0","Windows","10.0","https://hz8g1ckzuq.cognition.run/","en-US,en;q=0.9","ggqpbz5v5ug6osz","34","[""White""]","No","Female","1963280.400000006","null","","<p></p>","null","choice","cdt","repulsion_1","1","microwave ovens","null","null","null","null","null","null","2","","","","","","","","","",""
"","","","","","choice_trial","survey-html-form","143","1436971","0.0-5.0-1.29","130","1","2025-04-11 16:31:03","bb671e3ae32f654b8954ea4c4635f915","","Mozilla/5.0 (Windows NT 10.0; Win64; x64) AppleWebKit/537.36 (KHTML, like Gecko) Chrome/132.0.0.0 Safari/537.36","WebKit","Chrome","132.0.0.0","Windows","10.0","https://hz8g1ckzuq.cognition.run/","en-US,en;q=0.9","ggqpbz5v5ug6osz","34","[""White""]","No","Female","1963280.400000006","10021","","","{""product_choice"":""A""}","choice","cdt","repulsion_1","1","microwave ovens","null","null","null","null","null","null","2","100","90","100","30","40","25","Warranty","Cooking power","",""
"","","","","","choice_trial_setup","html-keyboard-response","144","1437290","0.0-5.0-0.30","130","1","2025-04-11 16:31:03","bb671e3ae32f654b8954ea4c4635f915","","Mozilla/5.0 (Windows NT 10.0; Win64; x64) AppleWebKit/537.36 (KHTML, like Gecko) Chrome/132.0.0.0 Safari/537.36","WebKit","Chrome","132.0.0.0","Windows","10.0","https://hz8g1ckzuq.cognition.run/","en-US,en;q=0.9","ggqpbz5v5ug6osz","34","[""White""]","No","Female","1963280.400000006","null","","<p></p>","null","choice","tcd","attraction_1","2","televisions","null","null","null","null","null","null","1","","","","","","","","","",""
"","","","","","choice_trial","survey-html-form","145","1448446","0.0-5.0-1.30","130","1","2025-04-11 16:31:03","bb671e3ae32f654b8954ea4c4635f915","","Mozilla/5.0 (Windows NT 10.0; Win64; x64) AppleWebKit/537.36 (KHTML, like Gecko) Chrome/132.0.0.0 Safari/537.36","WebKit","Chrome","132.0.0.0","Windows","10.0","https://hz8g1ckzuq.cognition.run/","en-US,en;q=0.9","ggqpbz5v5ug6osz","34","[""White""]","No","Female","1963280.400000006","11141","","","{""product_choice"":""A""}","choice","tcd","attraction_1","2","televisions","null","null","null","null","null","null","1","50","60","45","60","50","60","Screen size","Average lifespan","",""
"","","","","","choice_trial_setup","html-keyboard-response","146","1448760","0.0-5.0-0.31","130","1","2025-04-11 16:31:03","bb671e3ae32f654b8954ea4c4635f915","","Mozilla/5.0 (Windows NT 10.0; Win64; x64) AppleWebKit/537.36 (KHTML, like Gecko) Chrome/132.0.0.0 Safari/537.36","WebKit","Chrome","132.0.0.0","Windows","10.0","https://hz8g1ckzuq.cognition.run/","en-US,en;q=0.9","ggqpbz5v5ug6osz","34","[""White""]","No","Female","1963280.400000006","null","","<p></p>","null","choice","ctd","repulsion_1","1","washing machines","null","null","null","null","null","null","2","","","","","","","","","",""
"","","","","","choice_trial","survey-html-form","147","1453703","0.0-5.0-1.31","130","1","2025-04-11 16:31:03","bb671e3ae32f654b8954ea4c4635f915","","Mozilla/5.0 (Windows NT 10.0; Win64; x64) AppleWebKit/537.36 (KHTML, like Gecko) Chrome/132.0.0.0 Safari/537.36","WebKit","Chrome","132.0.0.0","Windows","10.0","https://hz8g1ckzuq.cognition.run/","en-US,en;q=0.9","ggqpbz5v5ug6osz","34","[""White""]","No","Female","1963280.400000006","4929","","","{""product_choice"":""A""}","choice","ctd","repulsion_1","1","washing machines","null","null","null","null","null","null","2","100","90","100","30","40","25","Average lifespan","Energy savings","",""
"","","","","","choice_trial_setup","html-keyboard-response","148","1454019","0.0-5.0-0.32","130","1","2025-04-11 16:31:03","bb671e3ae32f654b8954ea4c4635f915","","Mozilla/5.0 (Windows NT 10.0; Win64; x64) AppleWebKit/537.36 (KHTML, like Gecko) Chrome/132.0.0.0 Safari/537.36","WebKit","Chrome","132.0.0.0","Windows","10.0","https://hz8g1ckzuq.cognition.run/","en-US,en;q=0.9","ggqpbz5v5ug6osz","34","[""White""]","No","Female","1963280.400000006","null","","<p></p>","null","choice","tcd","attraction_2","2","televisions","null","null","null","null","null","null","2","","","","","","","","","",""
"","","","","","choice_trial","survey-html-form","149","1458736","0.0-5.0-1.32","130","1","2025-04-11 16:31:03","bb671e3ae32f654b8954ea4c4635f915","","Mozilla/5.0 (Windows NT 10.0; Win64; x64) AppleWebKit/537.36 (KHTML, like Gecko) Chrome/132.0.0.0 Safari/537.36","WebKit","Chrome","132.0.0.0","Windows","10.0","https://hz8g1ckzuq.cognition.run/","en-US,en;q=0.9","ggqpbz5v5ug6osz","34","[""White""]","No","Female","1963280.400000006","4703","","","{""product_choice"":""A""}","choice","tcd","attraction_2","2","televisions","null","null","null","null","null","null","2","50","60","40","60","50","60","Screen size","Average lifespan","",""
"","","","","","choice_trial_setup","html-keyboard-response","150","1459058","0.0-5.0-0.33","130","1","2025-04-11 16:31:03","bb671e3ae32f654b8954ea4c4635f915","","Mozilla/5.0 (Windows NT 10.0; Win64; x64) AppleWebKit/537.36 (KHTML, like Gecko) Chrome/132.0.0.0 Safari/537.36","WebKit","Chrome","132.0.0.0","Windows","10.0","https://hz8g1ckzuq.cognition.run/","en-US,en;q=0.9","ggqpbz5v5ug6osz","34","[""White""]","No","Female","1963280.400000006","null","","<p></p>","null","choice","wwb","catch","null","laptops","60","95","10","50","10","10","1","","","","","","","","","",""
"","","","","","choice_trial","survey-html-form","151","1464904","0.0-5.0-1.33","130","1","2025-04-11 16:31:03","bb671e3ae32f654b8954ea4c4635f915","","Mozilla/5.0 (Windows NT 10.0; Win64; x64) AppleWebKit/537.36 (KHTML, like Gecko) Chrome/132.0.0.0 Safari/537.36","WebKit","Chrome","132.0.0.0","Windows","10.0","https://hz8g1ckzuq.cognition.run/","en-US,en;q=0.9","ggqpbz5v5ug6osz","34","[""White""]","No","Female","1963280.400000006","5832","","","{""product_choice"":""C""}","choice","wwb","catch","null","laptops","60","95","10","50","10","10","1","null","null","null","null","null","null","Processing speed","Memory (RAM)","",""
"","","","","","choice_trial_setup","html-keyboard-response","152","1465222","0.0-5.0-0.34","130","1","2025-04-11 16:31:03","bb671e3ae32f654b8954ea4c4635f915","","Mozilla/5.0 (Windows NT 10.0; Win64; x64) AppleWebKit/537.36 (KHTML, like Gecko) Chrome/132.0.0.0 Safari/537.36","WebKit","Chrome","132.0.0.0","Windows","10.0","https://hz8g1ckzuq.cognition.run/","en-US,en;q=0.9","ggqpbz5v5ug6osz","34","[""White""]","No","Female","1963280.400000006","null","","<p></p>","null","choice","tcd","attraction_1","1","washing machines","null","null","null","null","null","null","1","","","","","","","","","",""
"","","","","","choice_trial","survey-html-form","153","1473711","0.0-5.0-1.34","130","1","2025-04-11 16:31:03","bb671e3ae32f654b8954ea4c4635f915","","Mozilla/5.0 (Windows NT 10.0; Win64; x64) AppleWebKit/537.36 (KHTML, like Gecko) Chrome/132.0.0.0 Safari/537.36","WebKit","Chrome","132.0.0.0","Windows","10.0","https://hz8g1ckzuq.cognition.run/","en-US,en;q=0.9","ggqpbz5v5ug6osz","34","[""White""]","No","Female","1963280.400000006","8475","","","{""product_choice"":""B""}","choice","tcd","attraction_1","1","washing machines","null","null","null","null","null","null","1","60","50","60","50","60","45","Average lifespan","Energy savings","",""
"","","","","","choice_trial_setup","html-keyboard-response","154","1474039","0.0-5.0-0.35","130","1","2025-04-11 16:31:03","bb671e3ae32f654b8954ea4c4635f915","","Mozilla/5.0 (Windows NT 10.0; Win64; x64) AppleWebKit/537.36 (KHTML, like Gecko) Chrome/132.0.0.0 Safari/537.36","WebKit","Chrome","132.0.0.0","Windows","10.0","https://hz8g1ckzuq.cognition.run/","en-US,en;q=0.9","ggqpbz5v5ug6osz","34","[""White""]","No","Female","1963280.400000006","null","","<p></p>","null","choice","dct","repulsion_2","1","televisions","null","null","null","null","null","null","1","","","","","","","","","",""
"","","","","","choice_trial","survey-html-form","155","1478531","0.0-5.0-1.35","130","1","2025-04-11 16:31:03","bb671e3ae32f654b8954ea4c4635f915","","Mozilla/5.0 (Windows NT 10.0; Win64; x64) AppleWebKit/537.36 (KHTML, like Gecko) Chrome/132.0.0.0 Safari/537.36","WebKit","Chrome","132.0.0.0","Windows","10.0","https://hz8g1ckzuq.cognition.run/","en-US,en;q=0.9","ggqpbz5v5ug6osz","34","[""White""]","No","Female","1963280.400000006","4478","","","{""product_choice"":""B""}","choice","dct","repulsion_2","1","televisions","null","null","null","null","null","null","1","100","90","100","30","40","20","Screen size","Average lifespan","",""
"","","","","","choice_trial_setup","html-keyboard-response","156","1478852","0.0-5.0-0.36","130","1","2025-04-11 16:31:03","bb671e3ae32f654b8954ea4c4635f915","","Mozilla/5.0 (Windows NT 10.0; Win64; x64) AppleWebKit/537.36 (KHTML, like Gecko) Chrome/132.0.0.0 Safari/537.36","WebKit","Chrome","132.0.0.0","Windows","10.0","https://hz8g1ckzuq.cognition.run/","en-US,en;q=0.9","ggqpbz5v5ug6osz","34","[""White""]","No","Female","1963280.400000006","null","","<p></p>","null","choice","dtc","attraction_2","1","televisions","null","null","null","null","null","null","2","","","","","","","","","",""
"","","","","","choice_trial","survey-html-form","157","1491309","0.0-5.0-1.36","130","1","2025-04-11 16:31:03","bb671e3ae32f654b8954ea4c4635f915","","Mozilla/5.0 (Windows NT 10.0; Win64; x64) AppleWebKit/537.36 (KHTML, like Gecko) Chrome/132.0.0.0 Safari/537.36","WebKit","Chrome","132.0.0.0","Windows","10.0","https://hz8g1ckzuq.cognition.run/","en-US,en;q=0.9","ggqpbz5v5ug6osz","34","[""White""]","No","Female","1963280.400000006","12442","","","{""product_choice"":""C""}","choice","dtc","attraction_2","1","televisions","null","null","null","null","null","null","2","60","50","60","50","60","40","Screen size","Average lifespan","",""
