"success","timeout","failed_images","failed_audio","failed_video","screen_id","trial_type","trial_index","time_elapsed","internal_node_id","run_id","condition","recorded_at","source_code_version","ip","user_agent","device","browser","browser_version","platform","platform_version","referer","accept_language","ppt_id","age","race","ethnicity","gender","exp_duration","rt","view_history","stimulus","response","phase","order","effect","t_high","category","d1_best","d2_best","d1_worst1","d2_worst1","d1_worst2","d2_worst2","first_dim","d1_t","d1_c","d1_d","d2_t","d2_c","d2_d","d1_name","d2_name","strategy_response","question_order"
"true","false","[]","[]","[]","img preload","preload","0","3839","0.0-0.0","133","1","2025-04-14 14:01:36","bb671e3ae32f654b8954ea4c4635f915","","Mozilla/5.0 (Windows NT 10.0; Win64; x64) AppleWebKit/537.36 (KHTML, like Gecko) Chrome/126.0.0.0 Safari/537.36","WebKit","Chrome","126.0.0.0","Windows","10.0","https://hz8g1ckzuq.cognition.run/","en-US,en;q=0.9,zh-CN;q=0.8,zh;q=0.7","w3wjcj5pkb5crhz","41","[""White""]","No","Female","2063304.499999999","","","","","","","","","","","","","","","","","","","","","","","","","",""
"true","","","","","","fullscreen","1","46499","0.0-1.0","133","1","2025-04-14 14:01:36","bb671e3ae32f654b8954ea4c4635f915","","Mozilla/5.0 (Windows NT 10.0; Win64; x64) AppleWebKit/537.36 (KHTML, like Gecko) Chrome/126.0.0.0 Safari/537.36","WebKit","Chrome","126.0.0.0","Windows","10.0","https://hz8g1ckzuq.cognition.run/","en-US,en;q=0.9,zh-CN;q=0.8,zh;q=0.7","w3wjcj5pkb5crhz","41","[""White""]","No","Female","2063304.499999999","41650","","","","","","","","","","","","","","","","","","","","","","","","",""
"","","","","","","instructions","2","283863","0.0-2.0","133","1","2025-04-14 14:01:36","bb671e3ae32f654b8954ea4c4635f915","","Mozilla/5.0 (Windows NT 10.0; Win64; x64) AppleWebKit/537.36 (KHTML, like Gecko) Chrome/126.0.0.0 Safari/537.36","WebKit","Chrome","126.0.0.0","Windows","10.0","https://hz8g1ckzuq.cognition.run/","en-US,en;q=0.9,zh-CN;q=0.8,zh;q=0.7","w3wjcj5pkb5crhz","41","[""White""]","No","Female","2063304.499999999","237359","[{""page_index"":0,""viewing_time"":3312},{""page_index"":1,""viewing_time"":9354},{""page_index"":2,""viewing_time"":12080},{""page_index"":3,""viewing_time"":17165},{""page_index"":4,""viewing_time"":32123},{""page_index"":5,""viewing_time"":16371},{""page_index"":6,""viewing_time"":14595},{""page_index"":7,""viewing_time"":60561},{""page_index"":8,""viewing_time"":22969},{""page_index"":9,""viewing_time"":48829}]","","","","","","","","","","","","","","","","","","","","","","","",""
"","","","","","rating_trial_setup","html-keyboard-response","3","284168","0.0-3.0-0.0","133","1","2025-04-14 14:01:36","bb671e3ae32f654b8954ea4c4635f915","","Mozilla/5.0 (Windows NT 10.0; Win64; x64) AppleWebKit/537.36 (KHTML, like Gecko) Chrome/126.0.0.0 Safari/537.36","WebKit","Chrome","126.0.0.0","Windows","10.0","https://hz8g1ckzuq.cognition.run/","en-US,en;q=0.9,zh-CN;q=0.8,zh;q=0.7","w3wjcj5pkb5crhz","41","[""White""]","No","Female","2063304.499999999","null","","<p></p>","null","rating","cdt","repulsion_2","1","laptops","null","null","null","null","null","null","1","","","","","","","","","",""
"","","","","","rating_trial","survey-html-form","4","352821","0.0-3.0-1.0","133","1","2025-04-14 14:01:36","bb671e3ae32f654b8954ea4c4635f915","","Mozilla/5.0 (Windows NT 10.0; Win64; x64) AppleWebKit/537.36 (KHTML, like Gecko) Chrome/126.0.0.0 Safari/537.36","WebKit","Chrome","126.0.0.0","Windows","10.0","https://hz8g1ckzuq.cognition.run/","en-US,en;q=0.9,zh-CN;q=0.8,zh;q=0.7","w3wjcj5pkb5crhz","41","[""White""]","No","Female","2063304.499999999","68647","","","{""price_1"":""2000"",""price_2"":""1800"",""price_3"":""2100""}","rating","cdt","repulsion_2","1","laptops","null","null","null","null","null","null","1","100","90","100","30","40","20","Processing speed","Memory (RAM)","",""
"","","","","","rating_trial_setup","html-keyboard-response","5","353137","0.0-3.0-0.1","133","1","2025-04-14 14:01:36","bb671e3ae32f654b8954ea4c4635f915","","Mozilla/5.0 (Windows NT 10.0; Win64; x64) AppleWebKit/537.36 (KHTML, like Gecko) Chrome/126.0.0.0 Safari/537.36","WebKit","Chrome","126.0.0.0","Windows","10.0","https://hz8g1ckzuq.cognition.run/","en-US,en;q=0.9,zh-CN;q=0.8,zh;q=0.7","w3wjcj5pkb5crhz","41","[""White""]","No","Female","2063304.499999999","null","","<p></p>","null","rating","ctd","repulsion_1","2","microwave ovens","null","null","null","null","null","null","1","","","","","","","","","",""
"","","","","","rating_trial","survey-html-form","6","407343","0.0-3.0-1.1","133","1","2025-04-14 14:01:36","bb671e3ae32f654b8954ea4c4635f915","","Mozilla/5.0 (Windows NT 10.0; Win64; x64) AppleWebKit/537.36 (KHTML, like Gecko) Chrome/126.0.0.0 Safari/537.36","WebKit","Chrome","126.0.0.0","Windows","10.0","https://hz8g1ckzuq.cognition.run/","en-US,en;q=0.9,zh-CN;q=0.8,zh;q=0.7","w3wjcj5pkb5crhz","41","[""White""]","No","Female","2063304.499999999","54203","","","{""price_1"":""100"",""price_2"":""110"",""price_3"":""90""}","rating","ctd","repulsion_1","2","microwave ovens","null","null","null","null","null","null","1","30","40","25","100","90","100","Warranty","Cooking power","",""
"","","","","","rating_trial_setup","html-keyboard-response","7","407657","0.0-3.0-0.2","133","1","2025-04-14 14:01:36","bb671e3ae32f654b8954ea4c4635f915","","Mozilla/5.0 (Windows NT 10.0; Win64; x64) AppleWebKit/537.36 (KHTML, like Gecko) Chrome/126.0.0.0 Safari/537.36","WebKit","Chrome","126.0.0.0","Windows","10.0","https://hz8g1ckzuq.cognition.run/","en-US,en;q=0.9,zh-CN;q=0.8,zh;q=0.7","w3wjcj5pkb5crhz","41","[""White""]","No","Female","2063304.499999999","null","","<p></p>","null","rating","tdc","repulsion_2","2","televisions","null","null","null","null","null","null","1","","","","","","","","","",""
"","","","","","rating_trial","survey-html-form","8","471510","0.0-3.0-1.2","133","1","2025-04-14 14:01:36","bb671e3ae32f654b8954ea4c4635f915","","Mozilla/5.0 (Windows NT 10.0; Win64; x64) AppleWebKit/537.36 (KHTML, like Gecko) Chrome/126.0.0.0 Safari/537.36","WebKit","Chrome","126.0.0.0","Windows","10.0","https://hz8g1ckzuq.cognition.run/","en-US,en;q=0.9,zh-CN;q=0.8,zh;q=0.7","w3wjcj5pkb5crhz","41","[""White""]","No","Female","2063304.499999999","63850","","","{""price_1"":""300"",""price_2"":""250"",""price_3"":""350""}","rating","tdc","repulsion_2","2","televisions","null","null","null","null","null","null","1","30","40","20","100","90","100","Screen size","Average lifespan","",""
"","","","","","rating_trial_setup","html-keyboard-response","9","471816","0.0-3.0-0.3","133","1","2025-04-14 14:01:36","bb671e3ae32f654b8954ea4c4635f915","","Mozilla/5.0 (Windows NT 10.0; Win64; x64) AppleWebKit/537.36 (KHTML, like Gecko) Chrome/126.0.0.0 Safari/537.36","WebKit","Chrome","126.0.0.0","Windows","10.0","https://hz8g1ckzuq.cognition.run/","en-US,en;q=0.9,zh-CN;q=0.8,zh;q=0.7","w3wjcj5pkb5crhz","41","[""White""]","No","Female","2063304.499999999","null","","<p></p>","null","rating","dct","repulsion_1","2","laptops","null","null","null","null","null","null","1","","","","","","","","","",""
"","","","","","rating_trial","survey-html-form","10","536696","0.0-3.0-1.3","133","1","2025-04-14 14:01:36","bb671e3ae32f654b8954ea4c4635f915","","Mozilla/5.0 (Windows NT 10.0; Win64; x64) AppleWebKit/537.36 (KHTML, like Gecko) Chrome/126.0.0.0 Safari/537.36","WebKit","Chrome","126.0.0.0","Windows","10.0","https://hz8g1ckzuq.cognition.run/","en-US,en;q=0.9,zh-CN;q=0.8,zh;q=0.7","w3wjcj5pkb5crhz","41","[""White""]","No","Female","2063304.499999999","64876","","","{""price_1"":""2300"",""price_2"":""2200"",""price_3"":""2250""}","rating","dct","repulsion_1","2","laptops","null","null","null","null","null","null","1","30","40","25","100","90","100","Processing speed","Memory (RAM)","",""
"","","","","","rating_trial_setup","html-keyboard-response","11","537001","0.0-3.0-0.4","133","1","2025-04-14 14:01:36","bb671e3ae32f654b8954ea4c4635f915","","Mozilla/5.0 (Windows NT 10.0; Win64; x64) AppleWebKit/537.36 (KHTML, like Gecko) Chrome/126.0.0.0 Safari/537.36","WebKit","Chrome","126.0.0.0","Windows","10.0","https://hz8g1ckzuq.cognition.run/","en-US,en;q=0.9,zh-CN;q=0.8,zh;q=0.7","w3wjcj5pkb5crhz","41","[""White""]","No","Female","2063304.499999999","null","","<p></p>","null","rating","cdt","repulsion_2","1","microwave ovens","null","null","null","null","null","null","2","","","","","","","","","",""
"","","","","","rating_trial","survey-html-form","12","583740","0.0-3.0-1.4","133","1","2025-04-14 14:01:36","bb671e3ae32f654b8954ea4c4635f915","","Mozilla/5.0 (Windows NT 10.0; Win64; x64) AppleWebKit/537.36 (KHTML, like Gecko) Chrome/126.0.0.0 Safari/537.36","WebKit","Chrome","126.0.0.0","Windows","10.0","https://hz8g1ckzuq.cognition.run/","en-US,en;q=0.9,zh-CN;q=0.8,zh;q=0.7","w3wjcj5pkb5crhz","41","[""White""]","No","Female","2063304.499999999","46732","","","{""price_1"":""80"",""price_2"":""60"",""price_3"":""70""}","rating","cdt","repulsion_2","1","microwave ovens","null","null","null","null","null","null","2","100","90","100","30","40","20","Warranty","Cooking power","",""
"","","","","","rating_trial_setup","html-keyboard-response","13","584050","0.0-3.0-0.5","133","1","2025-04-14 14:01:36","bb671e3ae32f654b8954ea4c4635f915","","Mozilla/5.0 (Windows NT 10.0; Win64; x64) AppleWebKit/537.36 (KHTML, like Gecko) Chrome/126.0.0.0 Safari/537.36","WebKit","Chrome","126.0.0.0","Windows","10.0","https://hz8g1ckzuq.cognition.run/","en-US,en;q=0.9,zh-CN;q=0.8,zh;q=0.7","w3wjcj5pkb5crhz","41","[""White""]","No","Female","2063304.499999999","null","","<p></p>","null","rating","ctd","attraction_2","1","washing machines","null","null","null","null","null","null","2","","","","","","","","","",""
"","","","","","rating_trial","survey-html-form","14","633733","0.0-3.0-1.5","133","1","2025-04-14 14:01:36","bb671e3ae32f654b8954ea4c4635f915","","Mozilla/5.0 (Windows NT 10.0; Win64; x64) AppleWebKit/537.36 (KHTML, like Gecko) Chrome/126.0.0.0 Safari/537.36","WebKit","Chrome","126.0.0.0","Windows","10.0","https://hz8g1ckzuq.cognition.run/","en-US,en;q=0.9,zh-CN;q=0.8,zh;q=0.7","w3wjcj5pkb5crhz","41","[""White""]","No","Female","2063304.499999999","49679","","","{""price_1"":""1000"",""price_2"":""1100"",""price_3"":""900""}","rating","ctd","attraction_2","1","washing machines","null","null","null","null","null","null","2","60","50","60","50","60","40","Average lifespan","Energy savings","",""
"","","","","","rating_trial_setup","html-keyboard-response","15","634040","0.0-3.0-0.6","133","1","2025-04-14 14:01:36","bb671e3ae32f654b8954ea4c4635f915","","Mozilla/5.0 (Windows NT 10.0; Win64; x64) AppleWebKit/537.36 (KHTML, like Gecko) Chrome/126.0.0.0 Safari/537.36","WebKit","Chrome","126.0.0.0","Windows","10.0","https://hz8g1ckzuq.cognition.run/","en-US,en;q=0.9,zh-CN;q=0.8,zh;q=0.7","w3wjcj5pkb5crhz","41","[""White""]","No","Female","2063304.499999999","null","","<p></p>","null","rating","wwb","catch","null","microwave ovens","80","65","5","40","35","5","2","","","","","","","","","",""
"","","","","","rating_trial","survey-html-form","16","721769","0.0-3.0-1.6","133","1","2025-04-14 14:01:36","bb671e3ae32f654b8954ea4c4635f915","","Mozilla/5.0 (Windows NT 10.0; Win64; x64) AppleWebKit/537.36 (KHTML, like Gecko) Chrome/126.0.0.0 Safari/537.36","WebKit","Chrome","126.0.0.0","Windows","10.0","https://hz8g1ckzuq.cognition.run/","en-US,en;q=0.9,zh-CN;q=0.8,zh;q=0.7","w3wjcj5pkb5crhz","41","[""White""]","No","Female","2063304.499999999","87726","","","{""price_1"":""60"",""price_2"":""30"",""price_3"":""150""}","rating","wwb","catch","null","microwave ovens","80","65","5","40","35","5","2","null","null","null","null","null","null","Warranty","Cooking power","",""
"","","","","","rating_trial_setup","html-keyboard-response","17","722086","0.0-3.0-0.7","133","1","2025-04-14 14:01:36","bb671e3ae32f654b8954ea4c4635f915","","Mozilla/5.0 (Windows NT 10.0; Win64; x64) AppleWebKit/537.36 (KHTML, like Gecko) Chrome/126.0.0.0 Safari/537.36","WebKit","Chrome","126.0.0.0","Windows","10.0","https://hz8g1ckzuq.cognition.run/","en-US,en;q=0.9,zh-CN;q=0.8,zh;q=0.7","w3wjcj5pkb5crhz","41","[""White""]","No","Female","2063304.499999999","null","","<p></p>","null","rating","cdt","repulsion_1","2","televisions","null","null","null","null","null","null","1","","","","","","","","","",""
"","","","","","rating_trial","survey-html-form","18","776716","0.0-3.0-1.7","133","1","2025-04-14 14:01:36","bb671e3ae32f654b8954ea4c4635f915","","Mozilla/5.0 (Windows NT 10.0; Win64; x64) AppleWebKit/537.36 (KHTML, like Gecko) Chrome/126.0.0.0 Safari/537.36","WebKit","Chrome","126.0.0.0","Windows","10.0","https://hz8g1ckzuq.cognition.run/","en-US,en;q=0.9,zh-CN;q=0.8,zh;q=0.7","w3wjcj5pkb5crhz","41","[""White""]","No","Female","2063304.499999999","54626","","","{""price_1"":""600"",""price_2"":""500"",""price_3"":""550""}","rating","cdt","repulsion_1","2","televisions","null","null","null","null","null","null","1","30","40","25","100","90","100","Screen size","Average lifespan","",""
"","","","","","rating_trial_setup","html-keyboard-response","19","777021","0.0-3.0-0.8","133","1","2025-04-14 14:01:36","bb671e3ae32f654b8954ea4c4635f915","","Mozilla/5.0 (Windows NT 10.0; Win64; x64) AppleWebKit/537.36 (KHTML, like Gecko) Chrome/126.0.0.0 Safari/537.36","WebKit","Chrome","126.0.0.0","Windows","10.0","https://hz8g1ckzuq.cognition.run/","en-US,en;q=0.9,zh-CN;q=0.8,zh;q=0.7","w3wjcj5pkb5crhz","41","[""White""]","No","Female","2063304.499999999","null","","<p></p>","null","rating","ctd","attraction_2","2","microwave ovens","null","null","null","null","null","null","1","","","","","","","","","",""
"","","","","","rating_trial","survey-html-form","20","819116","0.0-3.0-1.8","133","1","2025-04-14 14:01:36","bb671e3ae32f654b8954ea4c4635f915","","Mozilla/5.0 (Windows NT 10.0; Win64; x64) AppleWebKit/537.36 (KHTML, like Gecko) Chrome/126.0.0.0 Safari/537.36","WebKit","Chrome","126.0.0.0","Windows","10.0","https://hz8g1ckzuq.cognition.run/","en-US,en;q=0.9,zh-CN;q=0.8,zh;q=0.7","w3wjcj5pkb5crhz","41","[""White""]","No","Female","2063304.499999999","42091","","","{""price_1"":""100"",""price_2"":""110"",""price_3"":""105""}","rating","ctd","attraction_2","2","microwave ovens","null","null","null","null","null","null","1","50","60","40","60","50","60","Warranty","Cooking power","",""
"","","","","","rating_trial_setup","html-keyboard-response","21","819426","0.0-3.0-0.9","133","1","2025-04-14 14:01:36","bb671e3ae32f654b8954ea4c4635f915","","Mozilla/5.0 (Windows NT 10.0; Win64; x64) AppleWebKit/537.36 (KHTML, like Gecko) Chrome/126.0.0.0 Safari/537.36","WebKit","Chrome","126.0.0.0","Windows","10.0","https://hz8g1ckzuq.cognition.run/","en-US,en;q=0.9,zh-CN;q=0.8,zh;q=0.7","w3wjcj5pkb5crhz","41","[""White""]","No","Female","2063304.499999999","null","","<p></p>","null","rating","wbw","catch","null","microwave ovens","95","75","25","35","40","25","2","","","","","","","","","",""
"","","","","","rating_trial","survey-html-form","22","859718","0.0-3.0-1.9","133","1","2025-04-14 14:01:36","bb671e3ae32f654b8954ea4c4635f915","","Mozilla/5.0 (Windows NT 10.0; Win64; x64) AppleWebKit/537.36 (KHTML, like Gecko) Chrome/126.0.0.0 Safari/537.36","WebKit","Chrome","126.0.0.0","Windows","10.0","https://hz8g1ckzuq.cognition.run/","en-US,en;q=0.9,zh-CN;q=0.8,zh;q=0.7","w3wjcj5pkb5crhz","41","[""White""]","No","Female","2063304.499999999","40288","","","{""price_1"":""50"",""price_2"":""100"",""price_3"":""40""}","rating","wbw","catch","null","microwave ovens","95","75","25","35","40","25","2","null","null","null","null","null","null","Warranty","Cooking power","",""
"","","","","","rating_trial_setup","html-keyboard-response","23","860027","0.0-3.0-0.10","133","1","2025-04-14 14:01:36","bb671e3ae32f654b8954ea4c4635f915","","Mozilla/5.0 (Windows NT 10.0; Win64; x64) AppleWebKit/537.36 (KHTML, like Gecko) Chrome/126.0.0.0 Safari/537.36","WebKit","Chrome","126.0.0.0","Windows","10.0","https://hz8g1ckzuq.cognition.run/","en-US,en;q=0.9,zh-CN;q=0.8,zh;q=0.7","w3wjcj5pkb5crhz","41","[""White""]","No","Female","2063304.499999999","null","","<p></p>","null","rating","tcd","repulsion_1","2","washing machines","null","null","null","null","null","null","2","","","","","","","","","",""
"","","","","","rating_trial","survey-html-form","24","884551","0.0-3.0-1.10","133","1","2025-04-14 14:01:36","bb671e3ae32f654b8954ea4c4635f915","","Mozilla/5.0 (Windows NT 10.0; Win64; x64) AppleWebKit/537.36 (KHTML, like Gecko) Chrome/126.0.0.0 Safari/537.36","WebKit","Chrome","126.0.0.0","Windows","10.0","https://hz8g1ckzuq.cognition.run/","en-US,en;q=0.9,zh-CN;q=0.8,zh;q=0.7","w3wjcj5pkb5crhz","41","[""White""]","No","Female","2063304.499999999","24520","","","{""price_1"":""800"",""price_2"":""700"",""price_3"":""900""}","rating","tcd","repulsion_1","2","washing machines","null","null","null","null","null","null","2","30","40","25","100","90","100","Average lifespan","Energy savings","",""
"","","","","","rating_trial_setup","html-keyboard-response","25","884854","0.0-3.0-0.11","133","1","2025-04-14 14:01:36","bb671e3ae32f654b8954ea4c4635f915","","Mozilla/5.0 (Windows NT 10.0; Win64; x64) AppleWebKit/537.36 (KHTML, like Gecko) Chrome/126.0.0.0 Safari/537.36","WebKit","Chrome","126.0.0.0","Windows","10.0","https://hz8g1ckzuq.cognition.run/","en-US,en;q=0.9,zh-CN;q=0.8,zh;q=0.7","w3wjcj5pkb5crhz","41","[""White""]","No","Female","2063304.499999999","null","","<p></p>","null","rating","cdt","attraction_1","1","microwave ovens","null","null","null","null","null","null","1","","","","","","","","","",""
"","","","","","rating_trial","survey-html-form","26","907053","0.0-3.0-1.11","133","1","2025-04-14 14:01:36","bb671e3ae32f654b8954ea4c4635f915","","Mozilla/5.0 (Windows NT 10.0; Win64; x64) AppleWebKit/537.36 (KHTML, like Gecko) Chrome/126.0.0.0 Safari/537.36","WebKit","Chrome","126.0.0.0","Windows","10.0","https://hz8g1ckzuq.cognition.run/","en-US,en;q=0.9,zh-CN;q=0.8,zh;q=0.7","w3wjcj5pkb5crhz","41","[""White""]","No","Female","2063304.499999999","22194","","","{""price_1"":""60"",""price_2"":""50"",""price_3"":""55""}","rating","cdt","attraction_1","1","microwave ovens","null","null","null","null","null","null","1","60","50","60","50","60","45","Warranty","Cooking power","",""
"","","","","","rating_trial_setup","html-keyboard-response","27","907366","0.0-3.0-0.12","133","1","2025-04-14 14:01:36","bb671e3ae32f654b8954ea4c4635f915","","Mozilla/5.0 (Windows NT 10.0; Win64; x64) AppleWebKit/537.36 (KHTML, like Gecko) Chrome/126.0.0.0 Safari/537.36","WebKit","Chrome","126.0.0.0","Windows","10.0","https://hz8g1ckzuq.cognition.run/","en-US,en;q=0.9,zh-CN;q=0.8,zh;q=0.7","w3wjcj5pkb5crhz","41","[""White""]","No","Female","2063304.499999999","null","","<p></p>","null","rating","wbw","catch","null","laptops","50","75","20","50","5","30","1","","","","","","","","","",""
"","","","","","rating_trial","survey-html-form","28","937476","0.0-3.0-1.12","133","1","2025-04-14 14:01:36","bb671e3ae32f654b8954ea4c4635f915","","Mozilla/5.0 (Windows NT 10.0; Win64; x64) AppleWebKit/537.36 (KHTML, like Gecko) Chrome/126.0.0.0 Safari/537.36","WebKit","Chrome","126.0.0.0","Windows","10.0","https://hz8g1ckzuq.cognition.run/","en-US,en;q=0.9,zh-CN;q=0.8,zh;q=0.7","w3wjcj5pkb5crhz","41","[""White""]","No","Female","2063304.499999999","30106","","","{""price_1"":""1500"",""price_2"":""1700"",""price_3"":""1200""}","rating","wbw","catch","null","laptops","50","75","20","50","5","30","1","null","null","null","null","null","null","Processing speed","Memory (RAM)","",""
"","","","","","rating_trial_setup","html-keyboard-response","29","937780","0.0-3.0-0.13","133","1","2025-04-14 14:01:36","bb671e3ae32f654b8954ea4c4635f915","","Mozilla/5.0 (Windows NT 10.0; Win64; x64) AppleWebKit/537.36 (KHTML, like Gecko) Chrome/126.0.0.0 Safari/537.36","WebKit","Chrome","126.0.0.0","Windows","10.0","https://hz8g1ckzuq.cognition.run/","en-US,en;q=0.9,zh-CN;q=0.8,zh;q=0.7","w3wjcj5pkb5crhz","41","[""White""]","No","Female","2063304.499999999","null","","<p></p>","null","rating","tcd","repulsion_1","1","laptops","null","null","null","null","null","null","2","","","","","","","","","",""
"","","","","","rating_trial","survey-html-form","30","971370","0.0-3.0-1.13","133","1","2025-04-14 14:01:36","bb671e3ae32f654b8954ea4c4635f915","","Mozilla/5.0 (Windows NT 10.0; Win64; x64) AppleWebKit/537.36 (KHTML, like Gecko) Chrome/126.0.0.0 Safari/537.36","WebKit","Chrome","126.0.0.0","Windows","10.0","https://hz8g1ckzuq.cognition.run/","en-US,en;q=0.9,zh-CN;q=0.8,zh;q=0.7","w3wjcj5pkb5crhz","41","[""White""]","No","Female","2063304.499999999","33586","","","{""price_1"":""1300"",""price_2"":""1200"",""price_3"":""1000""}","rating","tcd","repulsion_1","1","laptops","null","null","null","null","null","null","2","100","90","100","30","40","25","Processing speed","Memory (RAM)","",""
"","","","","","rating_trial_setup","html-keyboard-response","31","971673","0.0-3.0-0.14","133","1","2025-04-14 14:01:36","bb671e3ae32f654b8954ea4c4635f915","","Mozilla/5.0 (Windows NT 10.0; Win64; x64) AppleWebKit/537.36 (KHTML, like Gecko) Chrome/126.0.0.0 Safari/537.36","WebKit","Chrome","126.0.0.0","Windows","10.0","https://hz8g1ckzuq.cognition.run/","en-US,en;q=0.9,zh-CN;q=0.8,zh;q=0.7","w3wjcj5pkb5crhz","41","[""White""]","No","Female","2063304.499999999","null","","<p></p>","null","rating","dct","attraction_1","1","washing machines","null","null","null","null","null","null","2","","","","","","","","","",""
"","","","","","rating_trial","survey-html-form","32","1014476","0.0-3.0-1.14","133","1","2025-04-14 14:01:36","bb671e3ae32f654b8954ea4c4635f915","","Mozilla/5.0 (Windows NT 10.0; Win64; x64) AppleWebKit/537.36 (KHTML, like Gecko) Chrome/126.0.0.0 Safari/537.36","WebKit","Chrome","126.0.0.0","Windows","10.0","https://hz8g1ckzuq.cognition.run/","en-US,en;q=0.9,zh-CN;q=0.8,zh;q=0.7","w3wjcj5pkb5crhz","41","[""White""]","No","Female","2063304.499999999","42797","","","{""price_1"":""1000"",""price_2"":""1100"",""price_3"":""1200""}","rating","dct","attraction_1","1","washing machines","null","null","null","null","null","null","2","60","50","60","50","60","45","Average lifespan","Energy savings","",""
"","","","","","rating_trial_setup","html-keyboard-response","33","1014786","0.0-3.0-0.15","133","1","2025-04-14 14:01:36","bb671e3ae32f654b8954ea4c4635f915","","Mozilla/5.0 (Windows NT 10.0; Win64; x64) AppleWebKit/537.36 (KHTML, like Gecko) Chrome/126.0.0.0 Safari/537.36","WebKit","Chrome","126.0.0.0","Windows","10.0","https://hz8g1ckzuq.cognition.run/","en-US,en;q=0.9,zh-CN;q=0.8,zh;q=0.7","w3wjcj5pkb5crhz","41","[""White""]","No","Female","2063304.499999999","null","","<p></p>","null","rating","cdt","attraction_1","1","laptops","null","null","null","null","null","null","2","","","","","","","","","",""
"","","","","","rating_trial","survey-html-form","34","1031055","0.0-3.0-1.15","133","1","2025-04-14 14:01:36","bb671e3ae32f654b8954ea4c4635f915","","Mozilla/5.0 (Windows NT 10.0; Win64; x64) AppleWebKit/537.36 (KHTML, like Gecko) Chrome/126.0.0.0 Safari/537.36","WebKit","Chrome","126.0.0.0","Windows","10.0","https://hz8g1ckzuq.cognition.run/","en-US,en;q=0.9,zh-CN;q=0.8,zh;q=0.7","w3wjcj5pkb5crhz","41","[""White""]","No","Female","2063304.499999999","16264","","","{""price_1"":""1800"",""price_2"":""1500"",""price_3"":""1300""}","rating","cdt","attraction_1","1","laptops","null","null","null","null","null","null","2","60","50","60","50","60","45","Processing speed","Memory (RAM)","",""
"","","","","","rating_trial_setup","html-keyboard-response","35","1031358","0.0-3.0-0.16","133","1","2025-04-14 14:01:36","bb671e3ae32f654b8954ea4c4635f915","","Mozilla/5.0 (Windows NT 10.0; Win64; x64) AppleWebKit/537.36 (KHTML, like Gecko) Chrome/126.0.0.0 Safari/537.36","WebKit","Chrome","126.0.0.0","Windows","10.0","https://hz8g1ckzuq.cognition.run/","en-US,en;q=0.9,zh-CN;q=0.8,zh;q=0.7","w3wjcj5pkb5crhz","41","[""White""]","No","Female","2063304.499999999","null","","<p></p>","null","rating","cdt","attraction_2","1","laptops","null","null","null","null","null","null","1","","","","","","","","","",""
"","","","","","rating_trial","survey-html-form","36","1057149","0.0-3.0-1.16","133","1","2025-04-14 14:01:36","bb671e3ae32f654b8954ea4c4635f915","","Mozilla/5.0 (Windows NT 10.0; Win64; x64) AppleWebKit/537.36 (KHTML, like Gecko) Chrome/126.0.0.0 Safari/537.36","WebKit","Chrome","126.0.0.0","Windows","10.0","https://hz8g1ckzuq.cognition.run/","en-US,en;q=0.9,zh-CN;q=0.8,zh;q=0.7","w3wjcj5pkb5crhz","41","[""White""]","No","Female","2063304.499999999","25785","","","{""price_1"":""1600"",""price_2"":""1400"",""price_3"":""1500""}","rating","cdt","attraction_2","1","laptops","null","null","null","null","null","null","1","60","50","60","50","60","40","Processing speed","Memory (RAM)","",""
"","","","","","rating_trial_setup","html-keyboard-response","37","1057456","0.0-3.0-0.17","133","1","2025-04-14 14:01:36","bb671e3ae32f654b8954ea4c4635f915","","Mozilla/5.0 (Windows NT 10.0; Win64; x64) AppleWebKit/537.36 (KHTML, like Gecko) Chrome/126.0.0.0 Safari/537.36","WebKit","Chrome","126.0.0.0","Windows","10.0","https://hz8g1ckzuq.cognition.run/","en-US,en;q=0.9,zh-CN;q=0.8,zh;q=0.7","w3wjcj5pkb5crhz","41","[""White""]","No","Female","2063304.499999999","null","","<p></p>","null","rating","tdc","attraction_2","1","televisions","null","null","null","null","null","null","1","","","","","","","","","",""
"","","","","","rating_trial","survey-html-form","38","1077630","0.0-3.0-1.17","133","1","2025-04-14 14:01:36","bb671e3ae32f654b8954ea4c4635f915","","Mozilla/5.0 (Windows NT 10.0; Win64; x64) AppleWebKit/537.36 (KHTML, like Gecko) Chrome/126.0.0.0 Safari/537.36","WebKit","Chrome","126.0.0.0","Windows","10.0","https://hz8g1ckzuq.cognition.run/","en-US,en;q=0.9,zh-CN;q=0.8,zh;q=0.7","w3wjcj5pkb5crhz","41","[""White""]","No","Female","2063304.499999999","20169","","","{""price_1"":""800"",""price_2"":""700"",""price_3"":""600""}","rating","tdc","attraction_2","1","televisions","null","null","null","null","null","null","1","60","50","60","50","60","40","Screen size","Average lifespan","",""
"","","","","","rating_trial_setup","html-keyboard-response","39","1077935","0.0-3.0-0.18","133","1","2025-04-14 14:01:36","bb671e3ae32f654b8954ea4c4635f915","","Mozilla/5.0 (Windows NT 10.0; Win64; x64) AppleWebKit/537.36 (KHTML, like Gecko) Chrome/126.0.0.0 Safari/537.36","WebKit","Chrome","126.0.0.0","Windows","10.0","https://hz8g1ckzuq.cognition.run/","en-US,en;q=0.9,zh-CN;q=0.8,zh;q=0.7","w3wjcj5pkb5crhz","41","[""White""]","No","Female","2063304.499999999","null","","<p></p>","null","rating","tdc","repulsion_1","1","washing machines","null","null","null","null","null","null","2","","","","","","","","","",""
"","","","","","rating_trial","survey-html-form","40","1112285","0.0-3.0-1.18","133","1","2025-04-14 14:01:36","bb671e3ae32f654b8954ea4c4635f915","","Mozilla/5.0 (Windows NT 10.0; Win64; x64) AppleWebKit/537.36 (KHTML, like Gecko) Chrome/126.0.0.0 Safari/537.36","WebKit","Chrome","126.0.0.0","Windows","10.0","https://hz8g1ckzuq.cognition.run/","en-US,en;q=0.9,zh-CN;q=0.8,zh;q=0.7","w3wjcj5pkb5crhz","41","[""White""]","No","Female","2063304.499999999","34344","","","{""price_1"":""600"",""price_2"":""500"",""price_3"":""400""}","rating","tdc","repulsion_1","1","washing machines","null","null","null","null","null","null","2","100","90","100","30","40","25","Average lifespan","Energy savings","",""
"","","","","","rating_trial_setup","html-keyboard-response","41","1112592","0.0-3.0-0.19","133","1","2025-04-14 14:01:36","bb671e3ae32f654b8954ea4c4635f915","","Mozilla/5.0 (Windows NT 10.0; Win64; x64) AppleWebKit/537.36 (KHTML, like Gecko) Chrome/126.0.0.0 Safari/537.36","WebKit","Chrome","126.0.0.0","Windows","10.0","https://hz8g1ckzuq.cognition.run/","en-US,en;q=0.9,zh-CN;q=0.8,zh;q=0.7","w3wjcj5pkb5crhz","41","[""White""]","No","Female","2063304.499999999","null","","<p></p>","null","rating","cdt","repulsion_2","1","televisions","null","null","null","null","null","null","1","","","","","","","","","",""
"","","","","","rating_trial","survey-html-form","42","1133519","0.0-3.0-1.19","133","1","2025-04-14 14:01:36","bb671e3ae32f654b8954ea4c4635f915","","Mozilla/5.0 (Windows NT 10.0; Win64; x64) AppleWebKit/537.36 (KHTML, like Gecko) Chrome/126.0.0.0 Safari/537.36","WebKit","Chrome","126.0.0.0","Windows","10.0","https://hz8g1ckzuq.cognition.run/","en-US,en;q=0.9,zh-CN;q=0.8,zh;q=0.7","w3wjcj5pkb5crhz","41","[""White""]","No","Female","2063304.499999999","20921","","","{""price_1"":""800"",""price_2"":""1000"",""price_3"":""1100""}","rating","cdt","repulsion_2","1","televisions","null","null","null","null","null","null","1","100","90","100","30","40","20","Screen size","Average lifespan","",""
"","","","","","rating_trial_setup","html-keyboard-response","43","1133829","0.0-3.0-0.20","133","1","2025-04-14 14:01:36","bb671e3ae32f654b8954ea4c4635f915","","Mozilla/5.0 (Windows NT 10.0; Win64; x64) AppleWebKit/537.36 (KHTML, like Gecko) Chrome/126.0.0.0 Safari/537.36","WebKit","Chrome","126.0.0.0","Windows","10.0","https://hz8g1ckzuq.cognition.run/","en-US,en;q=0.9,zh-CN;q=0.8,zh;q=0.7","w3wjcj5pkb5crhz","41","[""White""]","No","Female","2063304.499999999","null","","<p></p>","null","rating","ctd","repulsion_1","1","televisions","null","null","null","null","null","null","1","","","","","","","","","",""
"","","","","","rating_trial","survey-html-form","44","1156687","0.0-3.0-1.20","133","1","2025-04-14 14:01:36","bb671e3ae32f654b8954ea4c4635f915","","Mozilla/5.0 (Windows NT 10.0; Win64; x64) AppleWebKit/537.36 (KHTML, like Gecko) Chrome/126.0.0.0 Safari/537.36","WebKit","Chrome","126.0.0.0","Windows","10.0","https://hz8g1ckzuq.cognition.run/","en-US,en;q=0.9,zh-CN;q=0.8,zh;q=0.7","w3wjcj5pkb5crhz","41","[""White""]","No","Female","2063304.499999999","22853","","","{""price_1"":""800"",""price_2"":""1100"",""price_3"":""1000""}","rating","ctd","repulsion_1","1","televisions","null","null","null","null","null","null","1","100","90","100","30","40","25","Screen size","Average lifespan","",""
"","","","","","rating_trial_setup","html-keyboard-response","45","1157004","0.0-3.0-0.21","133","1","2025-04-14 14:01:36","bb671e3ae32f654b8954ea4c4635f915","","Mozilla/5.0 (Windows NT 10.0; Win64; x64) AppleWebKit/537.36 (KHTML, like Gecko) Chrome/126.0.0.0 Safari/537.36","WebKit","Chrome","126.0.0.0","Windows","10.0","https://hz8g1ckzuq.cognition.run/","en-US,en;q=0.9,zh-CN;q=0.8,zh;q=0.7","w3wjcj5pkb5crhz","41","[""White""]","No","Female","2063304.499999999","null","","<p></p>","null","rating","dct","attraction_2","1","microwave ovens","null","null","null","null","null","null","1","","","","","","","","","",""
"","","","","","rating_trial","survey-html-form","46","1180937","0.0-3.0-1.21","133","1","2025-04-14 14:01:36","bb671e3ae32f654b8954ea4c4635f915","","Mozilla/5.0 (Windows NT 10.0; Win64; x64) AppleWebKit/537.36 (KHTML, like Gecko) Chrome/126.0.0.0 Safari/537.36","WebKit","Chrome","126.0.0.0","Windows","10.0","https://hz8g1ckzuq.cognition.run/","en-US,en;q=0.9,zh-CN;q=0.8,zh;q=0.7","w3wjcj5pkb5crhz","41","[""White""]","No","Female","2063304.499999999","23928","","","{""price_1"":""60"",""price_2"":""80"",""price_3"":""70""}","rating","dct","attraction_2","1","microwave ovens","null","null","null","null","null","null","1","60","50","60","50","60","40","Warranty","Cooking power","",""
"","","","","","rating_trial_setup","html-keyboard-response","47","1181241","0.0-3.0-0.22","133","1","2025-04-14 14:01:36","bb671e3ae32f654b8954ea4c4635f915","","Mozilla/5.0 (Windows NT 10.0; Win64; x64) AppleWebKit/537.36 (KHTML, like Gecko) Chrome/126.0.0.0 Safari/537.36","WebKit","Chrome","126.0.0.0","Windows","10.0","https://hz8g1ckzuq.cognition.run/","en-US,en;q=0.9,zh-CN;q=0.8,zh;q=0.7","w3wjcj5pkb5crhz","41","[""White""]","No","Female","2063304.499999999","null","","<p></p>","null","rating","ctd","attraction_1","2","televisions","null","null","null","null","null","null","2","","","","","","","","","",""
"","","","","","rating_trial","survey-html-form","48","1204229","0.0-3.0-1.22","133","1","2025-04-14 14:01:36","bb671e3ae32f654b8954ea4c4635f915","","Mozilla/5.0 (Windows NT 10.0; Win64; x64) AppleWebKit/537.36 (KHTML, like Gecko) Chrome/126.0.0.0 Safari/537.36","WebKit","Chrome","126.0.0.0","Windows","10.0","https://hz8g1ckzuq.cognition.run/","en-US,en;q=0.9,zh-CN;q=0.8,zh;q=0.7","w3wjcj5pkb5crhz","41","[""White""]","No","Female","2063304.499999999","22978","","","{""price_1"":""700"",""price_2"":""800"",""price_3"":""750""}","rating","ctd","attraction_1","2","televisions","null","null","null","null","null","null","2","50","60","45","60","50","60","Screen size","Average lifespan","",""
"","","","","","rating_trial_setup","html-keyboard-response","49","1204532","0.0-3.0-0.23","133","1","2025-04-14 14:01:36","bb671e3ae32f654b8954ea4c4635f915","","Mozilla/5.0 (Windows NT 10.0; Win64; x64) AppleWebKit/537.36 (KHTML, like Gecko) Chrome/126.0.0.0 Safari/537.36","WebKit","Chrome","126.0.0.0","Windows","10.0","https://hz8g1ckzuq.cognition.run/","en-US,en;q=0.9,zh-CN;q=0.8,zh;q=0.7","w3wjcj5pkb5crhz","41","[""White""]","No","Female","2063304.499999999","null","","<p></p>","null","rating","dct","attraction_2","2","laptops","null","null","null","null","null","null","2","","","","","","","","","",""
"","","","","","rating_trial","survey-html-form","50","1237940","0.0-3.0-1.23","133","1","2025-04-14 14:01:36","bb671e3ae32f654b8954ea4c4635f915","","Mozilla/5.0 (Windows NT 10.0; Win64; x64) AppleWebKit/537.36 (KHTML, like Gecko) Chrome/126.0.0.0 Safari/537.36","WebKit","Chrome","126.0.0.0","Windows","10.0","https://hz8g1ckzuq.cognition.run/","en-US,en;q=0.9,zh-CN;q=0.8,zh;q=0.7","w3wjcj5pkb5crhz","41","[""White""]","No","Female","2063304.499999999","33404","","","{""price_1"":""1800"",""price_2"":""1600"",""price_3"":""1700""}","rating","dct","attraction_2","2","laptops","null","null","null","null","null","null","2","50","60","40","60","50","60","Processing speed","Memory (RAM)","",""
"","","","","","rating_trial_setup","html-keyboard-response","51","1238245","0.0-3.0-0.24","133","1","2025-04-14 14:01:36","bb671e3ae32f654b8954ea4c4635f915","","Mozilla/5.0 (Windows NT 10.0; Win64; x64) AppleWebKit/537.36 (KHTML, like Gecko) Chrome/126.0.0.0 Safari/537.36","WebKit","Chrome","126.0.0.0","Windows","10.0","https://hz8g1ckzuq.cognition.run/","en-US,en;q=0.9,zh-CN;q=0.8,zh;q=0.7","w3wjcj5pkb5crhz","41","[""White""]","No","Female","2063304.499999999","null","","<p></p>","null","rating","bww","catch","null","televisions","60","55","45","30","10","45","2","","","","","","","","","",""
"","","","","","rating_trial","survey-html-form","52","1264799","0.0-3.0-1.24","133","1","2025-04-14 14:01:36","bb671e3ae32f654b8954ea4c4635f915","","Mozilla/5.0 (Windows NT 10.0; Win64; x64) AppleWebKit/537.36 (KHTML, like Gecko) Chrome/126.0.0.0 Safari/537.36","WebKit","Chrome","126.0.0.0","Windows","10.0","https://hz8g1ckzuq.cognition.run/","en-US,en;q=0.9,zh-CN;q=0.8,zh;q=0.7","w3wjcj5pkb5crhz","41","[""White""]","No","Female","2063304.499999999","26547","","","{""price_1"":""800"",""price_2"":""600"",""price_3"":""500""}","rating","bww","catch","null","televisions","60","55","45","30","10","45","2","null","null","null","null","null","null","Screen size","Average lifespan","",""
"","","","","","rating_trial_setup","html-keyboard-response","53","1265105","0.0-3.0-0.25","133","1","2025-04-14 14:01:36","bb671e3ae32f654b8954ea4c4635f915","","Mozilla/5.0 (Windows NT 10.0; Win64; x64) AppleWebKit/537.36 (KHTML, like Gecko) Chrome/126.0.0.0 Safari/537.36","WebKit","Chrome","126.0.0.0","Windows","10.0","https://hz8g1ckzuq.cognition.run/","en-US,en;q=0.9,zh-CN;q=0.8,zh;q=0.7","w3wjcj5pkb5crhz","41","[""White""]","No","Female","2063304.499999999","null","","<p></p>","null","rating","wwb","catch","null","laptops","90","55","35","5","30","10","1","","","","","","","","","",""
"","","","","","rating_trial","survey-html-form","54","1310203","0.0-3.0-1.25","133","1","2025-04-14 14:01:36","bb671e3ae32f654b8954ea4c4635f915","","Mozilla/5.0 (Windows NT 10.0; Win64; x64) AppleWebKit/537.36 (KHTML, like Gecko) Chrome/126.0.0.0 Safari/537.36","WebKit","Chrome","126.0.0.0","Windows","10.0","https://hz8g1ckzuq.cognition.run/","en-US,en;q=0.9,zh-CN;q=0.8,zh;q=0.7","w3wjcj5pkb5crhz","41","[""White""]","No","Female","2063304.499999999","45091","","","{""price_1"":""500"",""price_2"":""600"",""price_3"":""1000""}","rating","wwb","catch","null","laptops","90","55","35","5","30","10","1","null","null","null","null","null","null","Processing speed","Memory (RAM)","",""
"","","","","","rating_trial_setup","html-keyboard-response","55","1310509","0.0-3.0-0.26","133","1","2025-04-14 14:01:36","bb671e3ae32f654b8954ea4c4635f915","","Mozilla/5.0 (Windows NT 10.0; Win64; x64) AppleWebKit/537.36 (KHTML, like Gecko) Chrome/126.0.0.0 Safari/537.36","WebKit","Chrome","126.0.0.0","Windows","10.0","https://hz8g1ckzuq.cognition.run/","en-US,en;q=0.9,zh-CN;q=0.8,zh;q=0.7","w3wjcj5pkb5crhz","41","[""White""]","No","Female","2063304.499999999","null","","<p></p>","null","rating","ctd","repulsion_2","2","laptops","null","null","null","null","null","null","1","","","","","","","","","",""
"","","","","","rating_trial","survey-html-form","56","1326402","0.0-3.0-1.26","133","1","2025-04-14 14:01:36","bb671e3ae32f654b8954ea4c4635f915","","Mozilla/5.0 (Windows NT 10.0; Win64; x64) AppleWebKit/537.36 (KHTML, like Gecko) Chrome/126.0.0.0 Safari/537.36","WebKit","Chrome","126.0.0.0","Windows","10.0","https://hz8g1ckzuq.cognition.run/","en-US,en;q=0.9,zh-CN;q=0.8,zh;q=0.7","w3wjcj5pkb5crhz","41","[""White""]","No","Female","2063304.499999999","15887","","","{""price_1"":""1800"",""price_2"":""2000"",""price_3"":""1900""}","rating","ctd","repulsion_2","2","laptops","null","null","null","null","null","null","1","30","40","20","100","90","100","Processing speed","Memory (RAM)","",""
"","","","","","rating_trial_setup","html-keyboard-response","57","1326708","0.0-3.0-0.27","133","1","2025-04-14 14:01:36","bb671e3ae32f654b8954ea4c4635f915","","Mozilla/5.0 (Windows NT 10.0; Win64; x64) AppleWebKit/537.36 (KHTML, like Gecko) Chrome/126.0.0.0 Safari/537.36","WebKit","Chrome","126.0.0.0","Windows","10.0","https://hz8g1ckzuq.cognition.run/","en-US,en;q=0.9,zh-CN;q=0.8,zh;q=0.7","w3wjcj5pkb5crhz","41","[""White""]","No","Female","2063304.499999999","null","","<p></p>","null","rating","cdt","attraction_1","1","televisions","null","null","null","null","null","null","1","","","","","","","","","",""
"","","","","","rating_trial","survey-html-form","58","1343416","0.0-3.0-1.27","133","1","2025-04-14 14:01:36","bb671e3ae32f654b8954ea4c4635f915","","Mozilla/5.0 (Windows NT 10.0; Win64; x64) AppleWebKit/537.36 (KHTML, like Gecko) Chrome/126.0.0.0 Safari/537.36","WebKit","Chrome","126.0.0.0","Windows","10.0","https://hz8g1ckzuq.cognition.run/","en-US,en;q=0.9,zh-CN;q=0.8,zh;q=0.7","w3wjcj5pkb5crhz","41","[""White""]","No","Female","2063304.499999999","16703","","","{""price_1"":""600"",""price_2"":""700"",""price_3"":""800""}","rating","cdt","attraction_1","1","televisions","null","null","null","null","null","null","1","60","50","60","50","60","45","Screen size","Average lifespan","",""
"","","","","","rating_trial_setup","html-keyboard-response","59","1343726","0.0-3.0-0.28","133","1","2025-04-14 14:01:36","bb671e3ae32f654b8954ea4c4635f915","","Mozilla/5.0 (Windows NT 10.0; Win64; x64) AppleWebKit/537.36 (KHTML, like Gecko) Chrome/126.0.0.0 Safari/537.36","WebKit","Chrome","126.0.0.0","Windows","10.0","https://hz8g1ckzuq.cognition.run/","en-US,en;q=0.9,zh-CN;q=0.8,zh;q=0.7","w3wjcj5pkb5crhz","41","[""White""]","No","Female","2063304.499999999","null","","<p></p>","null","rating","dct","repulsion_2","1","washing machines","null","null","null","null","null","null","1","","","","","","","","","",""
"","","","","","rating_trial","survey-html-form","60","1363543","0.0-3.0-1.28","133","1","2025-04-14 14:01:36","bb671e3ae32f654b8954ea4c4635f915","","Mozilla/5.0 (Windows NT 10.0; Win64; x64) AppleWebKit/537.36 (KHTML, like Gecko) Chrome/126.0.0.0 Safari/537.36","WebKit","Chrome","126.0.0.0","Windows","10.0","https://hz8g1ckzuq.cognition.run/","en-US,en;q=0.9,zh-CN;q=0.8,zh;q=0.7","w3wjcj5pkb5crhz","41","[""White""]","No","Female","2063304.499999999","19812","","","{""price_1"":""600"",""price_2"":""500"",""price_3"":""550""}","rating","dct","repulsion_2","1","washing machines","null","null","null","null","null","null","1","100","90","100","30","40","20","Average lifespan","Energy savings","",""
"","","","","","rating_trial_setup","html-keyboard-response","61","1363851","0.0-3.0-0.29","133","1","2025-04-14 14:01:36","bb671e3ae32f654b8954ea4c4635f915","","Mozilla/5.0 (Windows NT 10.0; Win64; x64) AppleWebKit/537.36 (KHTML, like Gecko) Chrome/126.0.0.0 Safari/537.36","WebKit","Chrome","126.0.0.0","Windows","10.0","https://hz8g1ckzuq.cognition.run/","en-US,en;q=0.9,zh-CN;q=0.8,zh;q=0.7","w3wjcj5pkb5crhz","41","[""White""]","No","Female","2063304.499999999","null","","<p></p>","null","rating","wwb","catch","null","washing machines","75","95","40","15","45","20","1","","","","","","","","","",""
"","","","","","rating_trial","survey-html-form","62","1386829","0.0-3.0-1.29","133","1","2025-04-14 14:01:36","bb671e3ae32f654b8954ea4c4635f915","","Mozilla/5.0 (Windows NT 10.0; Win64; x64) AppleWebKit/537.36 (KHTML, like Gecko) Chrome/126.0.0.0 Safari/537.36","WebKit","Chrome","126.0.0.0","Windows","10.0","https://hz8g1ckzuq.cognition.run/","en-US,en;q=0.9,zh-CN;q=0.8,zh;q=0.7","w3wjcj5pkb5crhz","41","[""White""]","No","Female","2063304.499999999","22972","","","{""price_1"":""200"",""price_2"":""220"",""price_3"":""500""}","rating","wwb","catch","null","washing machines","75","95","40","15","45","20","1","null","null","null","null","null","null","Average lifespan","Energy savings","",""
"","","","","","rating_trial_setup","html-keyboard-response","63","1387138","0.0-3.0-0.30","133","1","2025-04-14 14:01:36","bb671e3ae32f654b8954ea4c4635f915","","Mozilla/5.0 (Windows NT 10.0; Win64; x64) AppleWebKit/537.36 (KHTML, like Gecko) Chrome/126.0.0.0 Safari/537.36","WebKit","Chrome","126.0.0.0","Windows","10.0","https://hz8g1ckzuq.cognition.run/","en-US,en;q=0.9,zh-CN;q=0.8,zh;q=0.7","w3wjcj5pkb5crhz","41","[""White""]","No","Female","2063304.499999999","null","","<p></p>","null","rating","ctd","repulsion_2","2","washing machines","null","null","null","null","null","null","1","","","","","","","","","",""
"","","","","","rating_trial","survey-html-form","64","1409326","0.0-3.0-1.30","133","1","2025-04-14 14:01:36","bb671e3ae32f654b8954ea4c4635f915","","Mozilla/5.0 (Windows NT 10.0; Win64; x64) AppleWebKit/537.36 (KHTML, like Gecko) Chrome/126.0.0.0 Safari/537.36","WebKit","Chrome","126.0.0.0","Windows","10.0","https://hz8g1ckzuq.cognition.run/","en-US,en;q=0.9,zh-CN;q=0.8,zh;q=0.7","w3wjcj5pkb5crhz","41","[""White""]","No","Female","2063304.499999999","22182","","","{""price_1"":""600"",""price_2"":""700"",""price_3"":""650""}","rating","ctd","repulsion_2","2","washing machines","null","null","null","null","null","null","1","30","40","20","100","90","100","Average lifespan","Energy savings","",""
"","","","","","rating_trial_setup","html-keyboard-response","65","1409631","0.0-3.0-0.31","133","1","2025-04-14 14:01:36","bb671e3ae32f654b8954ea4c4635f915","","Mozilla/5.0 (Windows NT 10.0; Win64; x64) AppleWebKit/537.36 (KHTML, like Gecko) Chrome/126.0.0.0 Safari/537.36","WebKit","Chrome","126.0.0.0","Windows","10.0","https://hz8g1ckzuq.cognition.run/","en-US,en;q=0.9,zh-CN;q=0.8,zh;q=0.7","w3wjcj5pkb5crhz","41","[""White""]","No","Female","2063304.499999999","null","","<p></p>","null","rating","tcd","repulsion_1","1","microwave ovens","null","null","null","null","null","null","2","","","","","","","","","",""
"","","","","","rating_trial","survey-html-form","66","1456841","0.0-3.0-1.31","133","1","2025-04-14 14:01:36","bb671e3ae32f654b8954ea4c4635f915","","Mozilla/5.0 (Windows NT 10.0; Win64; x64) AppleWebKit/537.36 (KHTML, like Gecko) Chrome/126.0.0.0 Safari/537.36","WebKit","Chrome","126.0.0.0","Windows","10.0","https://hz8g1ckzuq.cognition.run/","en-US,en;q=0.9,zh-CN;q=0.8,zh;q=0.7","w3wjcj5pkb5crhz","41","[""White""]","No","Female","2063304.499999999","47204","","","{""price_1"":""60"",""price_2"":""70"",""price_3"":""50""}","rating","tcd","repulsion_1","1","microwave ovens","null","null","null","null","null","null","2","100","90","100","30","40","25","Warranty","Cooking power","",""
"","","","","","rating_trial_setup","html-keyboard-response","67","1457149","0.0-3.0-0.32","133","1","2025-04-14 14:01:36","bb671e3ae32f654b8954ea4c4635f915","","Mozilla/5.0 (Windows NT 10.0; Win64; x64) AppleWebKit/537.36 (KHTML, like Gecko) Chrome/126.0.0.0 Safari/537.36","WebKit","Chrome","126.0.0.0","Windows","10.0","https://hz8g1ckzuq.cognition.run/","en-US,en;q=0.9,zh-CN;q=0.8,zh;q=0.7","w3wjcj5pkb5crhz","41","[""White""]","No","Female","2063304.499999999","null","","<p></p>","null","rating","wwb","catch","null","washing machines","80","60","25","35","20","15","1","","","","","","","","","",""
"","","","","","rating_trial","survey-html-form","68","1498482","0.0-3.0-1.32","133","1","2025-04-14 14:01:36","bb671e3ae32f654b8954ea4c4635f915","","Mozilla/5.0 (Windows NT 10.0; Win64; x64) AppleWebKit/537.36 (KHTML, like Gecko) Chrome/126.0.0.0 Safari/537.36","WebKit","Chrome","126.0.0.0","Windows","10.0","https://hz8g1ckzuq.cognition.run/","en-US,en;q=0.9,zh-CN;q=0.8,zh;q=0.7","w3wjcj5pkb5crhz","41","[""White""]","No","Female","2063304.499999999","41326","","","{""price_1"":""400"",""price_2"":""300"",""price_3"":""800""}","rating","wwb","catch","null","washing machines","80","60","25","35","20","15","1","null","null","null","null","null","null","Average lifespan","Energy savings","",""
"","","","","","rating_trial_setup","html-keyboard-response","69","1498800","0.0-3.0-0.33","133","1","2025-04-14 14:01:36","bb671e3ae32f654b8954ea4c4635f915","","Mozilla/5.0 (Windows NT 10.0; Win64; x64) AppleWebKit/537.36 (KHTML, like Gecko) Chrome/126.0.0.0 Safari/537.36","WebKit","Chrome","126.0.0.0","Windows","10.0","https://hz8g1ckzuq.cognition.run/","en-US,en;q=0.9,zh-CN;q=0.8,zh;q=0.7","w3wjcj5pkb5crhz","41","[""White""]","No","Female","2063304.499999999","null","","<p></p>","null","rating","tdc","attraction_2","2","televisions","null","null","null","null","null","null","1","","","","","","","","","",""
"","","","","","rating_trial","survey-html-form","70","1519854","0.0-3.0-1.33","133","1","2025-04-14 14:01:36","bb671e3ae32f654b8954ea4c4635f915","","Mozilla/5.0 (Windows NT 10.0; Win64; x64) AppleWebKit/537.36 (KHTML, like Gecko) Chrome/126.0.0.0 Safari/537.36","WebKit","Chrome","126.0.0.0","Windows","10.0","https://hz8g1ckzuq.cognition.run/","en-US,en;q=0.9,zh-CN;q=0.8,zh;q=0.7","w3wjcj5pkb5crhz","41","[""White""]","No","Female","2063304.499999999","21046","","","{""price_1"":""600"",""price_2"":""500"",""price_3"":""700""}","rating","tdc","attraction_2","2","televisions","null","null","null","null","null","null","1","50","60","40","60","50","60","Screen size","Average lifespan","",""
"","","","","","rating_trial_setup","html-keyboard-response","71","1520161","0.0-3.0-0.34","133","1","2025-04-14 14:01:36","bb671e3ae32f654b8954ea4c4635f915","","Mozilla/5.0 (Windows NT 10.0; Win64; x64) AppleWebKit/537.36 (KHTML, like Gecko) Chrome/126.0.0.0 Safari/537.36","WebKit","Chrome","126.0.0.0","Windows","10.0","https://hz8g1ckzuq.cognition.run/","en-US,en;q=0.9,zh-CN;q=0.8,zh;q=0.7","w3wjcj5pkb5crhz","41","[""White""]","No","Female","2063304.499999999","null","","<p></p>","null","rating","dtc","repulsion_2","2","microwave ovens","null","null","null","null","null","null","1","","","","","","","","","",""
"","","","","","rating_trial","survey-html-form","72","1537414","0.0-3.0-1.34","133","1","2025-04-14 14:01:36","bb671e3ae32f654b8954ea4c4635f915","","Mozilla/5.0 (Windows NT 10.0; Win64; x64) AppleWebKit/537.36 (KHTML, like Gecko) Chrome/126.0.0.0 Safari/537.36","WebKit","Chrome","126.0.0.0","Windows","10.0","https://hz8g1ckzuq.cognition.run/","en-US,en;q=0.9,zh-CN;q=0.8,zh;q=0.7","w3wjcj5pkb5crhz","41","[""White""]","No","Female","2063304.499999999","17247","","","{""price_1"":""100"",""price_2"":""110"",""price_3"":""90""}","rating","dtc","repulsion_2","2","microwave ovens","null","null","null","null","null","null","1","30","40","20","100","90","100","Warranty","Cooking power","",""
"","","","","","rating_trial_setup","html-keyboard-response","73","1537721","0.0-3.0-0.35","133","1","2025-04-14 14:01:36","bb671e3ae32f654b8954ea4c4635f915","","Mozilla/5.0 (Windows NT 10.0; Win64; x64) AppleWebKit/537.36 (KHTML, like Gecko) Chrome/126.0.0.0 Safari/537.36","WebKit","Chrome","126.0.0.0","Windows","10.0","https://hz8g1ckzuq.cognition.run/","en-US,en;q=0.9,zh-CN;q=0.8,zh;q=0.7","w3wjcj5pkb5crhz","41","[""White""]","No","Female","2063304.499999999","null","","<p></p>","null","rating","cdt","attraction_2","2","washing machines","null","null","null","null","null","null","2","","","","","","","","","",""
"","","","","","rating_trial","survey-html-form","74","1559075","0.0-3.0-1.35","133","1","2025-04-14 14:01:36","bb671e3ae32f654b8954ea4c4635f915","","Mozilla/5.0 (Windows NT 10.0; Win64; x64) AppleWebKit/537.36 (KHTML, like Gecko) Chrome/126.0.0.0 Safari/537.36","WebKit","Chrome","126.0.0.0","Windows","10.0","https://hz8g1ckzuq.cognition.run/","en-US,en;q=0.9,zh-CN;q=0.8,zh;q=0.7","w3wjcj5pkb5crhz","41","[""White""]","No","Female","2063304.499999999","21348","","","{""price_1"":""600"",""price_2"":""500"",""price_3"":""550""}","rating","cdt","attraction_2","2","washing machines","null","null","null","null","null","null","2","50","60","40","60","50","60","Average lifespan","Energy savings","",""
"","","","","","rating_trial_setup","html-keyboard-response","75","1559379","0.0-3.0-0.36","133","1","2025-04-14 14:01:36","bb671e3ae32f654b8954ea4c4635f915","","Mozilla/5.0 (Windows NT 10.0; Win64; x64) AppleWebKit/537.36 (KHTML, like Gecko) Chrome/126.0.0.0 Safari/537.36","WebKit","Chrome","126.0.0.0","Windows","10.0","https://hz8g1ckzuq.cognition.run/","en-US,en;q=0.9,zh-CN;q=0.8,zh;q=0.7","w3wjcj5pkb5crhz","41","[""White""]","No","Female","2063304.499999999","null","","<p></p>","null","rating","wwb","catch","null","televisions","70","80","45","20","40","25","2","","","","","","","","","",""
"","","","","","rating_trial","survey-html-form","76","1588636","0.0-3.0-1.36","133","1","2025-04-14 14:01:36","bb671e3ae32f654b8954ea4c4635f915","","Mozilla/5.0 (Windows NT 10.0; Win64; x64) AppleWebKit/537.36 (KHTML, like Gecko) Chrome/126.0.0.0 Safari/537.36","WebKit","Chrome","126.0.0.0","Windows","10.0","https://hz8g1ckzuq.cognition.run/","en-US,en;q=0.9,zh-CN;q=0.8,zh;q=0.7","w3wjcj5pkb5crhz","41","[""White""]","No","Female","2063304.499999999","29250","","","{""price_1"":""600"",""price_2"":""500"",""price_3"":""700""}","rating","wwb","catch","null","televisions","70","80","45","20","40","25","2","null","null","null","null","null","null","Screen size","Average lifespan","",""
"","","","","","rating_trial_setup","html-keyboard-response","77","1588944","0.0-3.0-0.37","133","1","2025-04-14 14:01:36","bb671e3ae32f654b8954ea4c4635f915","","Mozilla/5.0 (Windows NT 10.0; Win64; x64) AppleWebKit/537.36 (KHTML, like Gecko) Chrome/126.0.0.0 Safari/537.36","WebKit","Chrome","126.0.0.0","Windows","10.0","https://hz8g1ckzuq.cognition.run/","en-US,en;q=0.9,zh-CN;q=0.8,zh;q=0.7","w3wjcj5pkb5crhz","41","[""White""]","No","Female","2063304.499999999","null","","<p></p>","null","rating","dct","attraction_1","2","microwave ovens","null","null","null","null","null","null","2","","","","","","","","","",""
"","","","","","rating_trial","survey-html-form","78","1604281","0.0-3.0-1.37","133","1","2025-04-14 14:01:36","bb671e3ae32f654b8954ea4c4635f915","","Mozilla/5.0 (Windows NT 10.0; Win64; x64) AppleWebKit/537.36 (KHTML, like Gecko) Chrome/126.0.0.0 Safari/537.36","WebKit","Chrome","126.0.0.0","Windows","10.0","https://hz8g1ckzuq.cognition.run/","en-US,en;q=0.9,zh-CN;q=0.8,zh;q=0.7","w3wjcj5pkb5crhz","41","[""White""]","No","Female","2063304.499999999","15331","","","{""price_1"":""60"",""price_2"":""70"",""price_3"":""65""}","rating","dct","attraction_1","2","microwave ovens","null","null","null","null","null","null","2","50","60","45","60","50","60","Warranty","Cooking power","",""
"","","","","","rating_trial_setup","html-keyboard-response","79","1604586","0.0-3.0-0.38","133","1","2025-04-14 14:01:36","bb671e3ae32f654b8954ea4c4635f915","","Mozilla/5.0 (Windows NT 10.0; Win64; x64) AppleWebKit/537.36 (KHTML, like Gecko) Chrome/126.0.0.0 Safari/537.36","WebKit","Chrome","126.0.0.0","Windows","10.0","https://hz8g1ckzuq.cognition.run/","en-US,en;q=0.9,zh-CN;q=0.8,zh;q=0.7","w3wjcj5pkb5crhz","41","[""White""]","No","Female","2063304.499999999","null","","<p></p>","null","rating","cdt","attraction_1","2","washing machines","null","null","null","null","null","null","2","","","","","","","","","",""
"","","","","","rating_trial","survey-html-form","80","1620618","0.0-3.0-1.38","133","1","2025-04-14 14:01:36","bb671e3ae32f654b8954ea4c4635f915","","Mozilla/5.0 (Windows NT 10.0; Win64; x64) AppleWebKit/537.36 (KHTML, like Gecko) Chrome/126.0.0.0 Safari/537.36","WebKit","Chrome","126.0.0.0","Windows","10.0","https://hz8g1ckzuq.cognition.run/","en-US,en;q=0.9,zh-CN;q=0.8,zh;q=0.7","w3wjcj5pkb5crhz","41","[""White""]","No","Female","2063304.499999999","16025","","","{""price_1"":""500"",""price_2"":""400"",""price_3"":""450""}","rating","cdt","attraction_1","2","washing machines","null","null","null","null","null","null","2","50","60","45","60","50","60","Average lifespan","Energy savings","",""
"","","","","","rating_trial_setup","html-keyboard-response","81","1620924","0.0-3.0-0.39","133","1","2025-04-14 14:01:36","bb671e3ae32f654b8954ea4c4635f915","","Mozilla/5.0 (Windows NT 10.0; Win64; x64) AppleWebKit/537.36 (KHTML, like Gecko) Chrome/126.0.0.0 Safari/537.36","WebKit","Chrome","126.0.0.0","Windows","10.0","https://hz8g1ckzuq.cognition.run/","en-US,en;q=0.9,zh-CN;q=0.8,zh;q=0.7","w3wjcj5pkb5crhz","41","[""White""]","No","Female","2063304.499999999","null","","<p></p>","null","rating","cdt","attraction_1","2","laptops","null","null","null","null","null","null","2","","","","","","","","","",""
"","","","","","rating_trial","survey-html-form","82","1661317","0.0-3.0-1.39","133","1","2025-04-14 14:01:36","bb671e3ae32f654b8954ea4c4635f915","","Mozilla/5.0 (Windows NT 10.0; Win64; x64) AppleWebKit/537.36 (KHTML, like Gecko) Chrome/126.0.0.0 Safari/537.36","WebKit","Chrome","126.0.0.0","Windows","10.0","https://hz8g1ckzuq.cognition.run/","en-US,en;q=0.9,zh-CN;q=0.8,zh;q=0.7","w3wjcj5pkb5crhz","41","[""White""]","No","Female","2063304.499999999","40385","","","{""price_1"":""1500"",""price_2"":""1200"",""price_3"":""1400""}","rating","cdt","attraction_1","2","laptops","null","null","null","null","null","null","2","50","60","45","60","50","60","Processing speed","Memory (RAM)","",""
"","","","","","","instructions","83","1725226","0.0-4.0","133","1","2025-04-14 14:01:36","bb671e3ae32f654b8954ea4c4635f915","","Mozilla/5.0 (Windows NT 10.0; Win64; x64) AppleWebKit/537.36 (KHTML, like Gecko) Chrome/126.0.0.0 Safari/537.36","WebKit","Chrome","126.0.0.0","Windows","10.0","https://hz8g1ckzuq.cognition.run/","en-US,en;q=0.9,zh-CN;q=0.8,zh;q=0.7","w3wjcj5pkb5crhz","41","[""White""]","No","Female","2063304.499999999","63905","[{""page_index"":0,""viewing_time"":2214},{""page_index"":1,""viewing_time"":2696},{""page_index"":2,""viewing_time"":6853},{""page_index"":3,""viewing_time"":4527},{""page_index"":4,""viewing_time"":5618},{""page_index"":5,""viewing_time"":5240},{""page_index"":6,""viewing_time"":32416},{""page_index"":7,""viewing_time"":4342}]","","","","","","","","","","","","","","","","","","","","","","","",""
"","","","","","choice_trial_setup","html-keyboard-response","84","1725531","0.0-5.0-0.0","133","1","2025-04-14 14:01:36","bb671e3ae32f654b8954ea4c4635f915","","Mozilla/5.0 (Windows NT 10.0; Win64; x64) AppleWebKit/537.36 (KHTML, like Gecko) Chrome/126.0.0.0 Safari/537.36","WebKit","Chrome","126.0.0.0","Windows","10.0","https://hz8g1ckzuq.cognition.run/","en-US,en;q=0.9,zh-CN;q=0.8,zh;q=0.7","w3wjcj5pkb5crhz","41","[""White""]","No","Female","2063304.499999999","null","","<p></p>","null","choice","tcd","repulsion_2","2","microwave ovens","null","null","null","null","null","null","1","","","","","","","","","",""
"","","","","","choice_trial","survey-html-form","85","1734109","0.0-5.0-1.0","133","1","2025-04-14 14:01:36","bb671e3ae32f654b8954ea4c4635f915","","Mozilla/5.0 (Windows NT 10.0; Win64; x64) AppleWebKit/537.36 (KHTML, like Gecko) Chrome/126.0.0.0 Safari/537.36","WebKit","Chrome","126.0.0.0","Windows","10.0","https://hz8g1ckzuq.cognition.run/","en-US,en;q=0.9,zh-CN;q=0.8,zh;q=0.7","w3wjcj5pkb5crhz","41","[""White""]","No","Female","2063304.499999999","8570","","","{""product_choice"":""B""}","choice","tcd","repulsion_2","2","microwave ovens","null","null","null","null","null","null","1","30","40","20","100","90","100","Warranty","Cooking power","",""
"","","","","","choice_trial_setup","html-keyboard-response","86","1734427","0.0-5.0-0.1","133","1","2025-04-14 14:01:36","bb671e3ae32f654b8954ea4c4635f915","","Mozilla/5.0 (Windows NT 10.0; Win64; x64) AppleWebKit/537.36 (KHTML, like Gecko) Chrome/126.0.0.0 Safari/537.36","WebKit","Chrome","126.0.0.0","Windows","10.0","https://hz8g1ckzuq.cognition.run/","en-US,en;q=0.9,zh-CN;q=0.8,zh;q=0.7","w3wjcj5pkb5crhz","41","[""White""]","No","Female","2063304.499999999","null","","<p></p>","null","choice","tcd","attraction_2","2","microwave ovens","null","null","null","null","null","null","2","","","","","","","","","",""
"","","","","","choice_trial","survey-html-form","87","1740897","0.0-5.0-1.1","133","1","2025-04-14 14:01:36","bb671e3ae32f654b8954ea4c4635f915","","Mozilla/5.0 (Windows NT 10.0; Win64; x64) AppleWebKit/537.36 (KHTML, like Gecko) Chrome/126.0.0.0 Safari/537.36","WebKit","Chrome","126.0.0.0","Windows","10.0","https://hz8g1ckzuq.cognition.run/","en-US,en;q=0.9,zh-CN;q=0.8,zh;q=0.7","w3wjcj5pkb5crhz","41","[""White""]","No","Female","2063304.499999999","6463","","","{""product_choice"":""B""}","choice","tcd","attraction_2","2","microwave ovens","null","null","null","null","null","null","2","50","60","40","60","50","60","Warranty","Cooking power","",""
"","","","","","choice_trial_setup","html-keyboard-response","88","1741203","0.0-5.0-0.2","133","1","2025-04-14 14:01:36","bb671e3ae32f654b8954ea4c4635f915","","Mozilla/5.0 (Windows NT 10.0; Win64; x64) AppleWebKit/537.36 (KHTML, like Gecko) Chrome/126.0.0.0 Safari/537.36","WebKit","Chrome","126.0.0.0","Windows","10.0","https://hz8g1ckzuq.cognition.run/","en-US,en;q=0.9,zh-CN;q=0.8,zh;q=0.7","w3wjcj5pkb5crhz","41","[""White""]","No","Female","2063304.499999999","null","","<p></p>","null","choice","wbw","catch","null","washing machines","80","90","25","50","20","40","2","","","","","","","","","",""
"","","","","","choice_trial","survey-html-form","89","1754281","0.0-5.0-1.2","133","1","2025-04-14 14:01:36","bb671e3ae32f654b8954ea4c4635f915","","Mozilla/5.0 (Windows NT 10.0; Win64; x64) AppleWebKit/537.36 (KHTML, like Gecko) Chrome/126.0.0.0 Safari/537.36","WebKit","Chrome","126.0.0.0","Windows","10.0","https://hz8g1ckzuq.cognition.run/","en-US,en;q=0.9,zh-CN;q=0.8,zh;q=0.7","w3wjcj5pkb5crhz","41","[""White""]","No","Female","2063304.499999999","13065","","","{""product_choice"":""B""}","choice","wbw","catch","null","washing machines","80","90","25","50","20","40","2","null","null","null","null","null","null","Average lifespan","Energy savings","",""
"","","","","","choice_trial_setup","html-keyboard-response","90","1754588","0.0-5.0-0.3","133","1","2025-04-14 14:01:36","bb671e3ae32f654b8954ea4c4635f915","","Mozilla/5.0 (Windows NT 10.0; Win64; x64) AppleWebKit/537.36 (KHTML, like Gecko) Chrome/126.0.0.0 Safari/537.36","WebKit","Chrome","126.0.0.0","Windows","10.0","https://hz8g1ckzuq.cognition.run/","en-US,en;q=0.9,zh-CN;q=0.8,zh;q=0.7","w3wjcj5pkb5crhz","41","[""White""]","No","Female","2063304.499999999","null","","<p></p>","null","choice","cdt","repulsion_2","1","laptops","null","null","null","null","null","null","1","","","","","","","","","",""
"","","","","","choice_trial","survey-html-form","91","1759619","0.0-5.0-1.3","133","1","2025-04-14 14:01:36","bb671e3ae32f654b8954ea4c4635f915","","Mozilla/5.0 (Windows NT 10.0; Win64; x64) AppleWebKit/537.36 (KHTML, like Gecko) Chrome/126.0.0.0 Safari/537.36","WebKit","Chrome","126.0.0.0","Windows","10.0","https://hz8g1ckzuq.cognition.run/","en-US,en;q=0.9,zh-CN;q=0.8,zh;q=0.7","w3wjcj5pkb5crhz","41","[""White""]","No","Female","2063304.499999999","5024","","","{""product_choice"":""A""}","choice","cdt","repulsion_2","1","laptops","null","null","null","null","null","null","1","100","90","100","30","40","20","Processing speed","Memory (RAM)","",""
"","","","","","choice_trial_setup","html-keyboard-response","92","1759923","0.0-5.0-0.4","133","1","2025-04-14 14:01:36","bb671e3ae32f654b8954ea4c4635f915","","Mozilla/5.0 (Windows NT 10.0; Win64; x64) AppleWebKit/537.36 (KHTML, like Gecko) Chrome/126.0.0.0 Safari/537.36","WebKit","Chrome","126.0.0.0","Windows","10.0","https://hz8g1ckzuq.cognition.run/","en-US,en;q=0.9,zh-CN;q=0.8,zh;q=0.7","w3wjcj5pkb5crhz","41","[""White""]","No","Female","2063304.499999999","null","","<p></p>","null","choice","wwb","catch","null","microwave ovens","85","50","30","50","35","15","2","","","","","","","","","",""
"","","","","","choice_trial","survey-html-form","93","1765899","0.0-5.0-1.4","133","1","2025-04-14 14:01:36","bb671e3ae32f654b8954ea4c4635f915","","Mozilla/5.0 (Windows NT 10.0; Win64; x64) AppleWebKit/537.36 (KHTML, like Gecko) Chrome/126.0.0.0 Safari/537.36","WebKit","Chrome","126.0.0.0","Windows","10.0","https://hz8g1ckzuq.cognition.run/","en-US,en;q=0.9,zh-CN;q=0.8,zh;q=0.7","w3wjcj5pkb5crhz","41","[""White""]","No","Female","2063304.499999999","5968","","","{""product_choice"":""C""}","choice","wwb","catch","null","microwave ovens","85","50","30","50","35","15","2","null","null","null","null","null","null","Warranty","Cooking power","",""
"","","","","","choice_trial_setup","html-keyboard-response","94","1766207","0.0-5.0-0.5","133","1","2025-04-14 14:01:36","bb671e3ae32f654b8954ea4c4635f915","","Mozilla/5.0 (Windows NT 10.0; Win64; x64) AppleWebKit/537.36 (KHTML, like Gecko) Chrome/126.0.0.0 Safari/537.36","WebKit","Chrome","126.0.0.0","Windows","10.0","https://hz8g1ckzuq.cognition.run/","en-US,en;q=0.9,zh-CN;q=0.8,zh;q=0.7","w3wjcj5pkb5crhz","41","[""White""]","No","Female","2063304.499999999","null","","<p></p>","null","choice","bww","catch","null","televisions","70","95","5","45","35","10","1","","","","","","","","","",""
"","","","","","choice_trial","survey-html-form","95","1771753","0.0-5.0-1.5","133","1","2025-04-14 14:01:36","bb671e3ae32f654b8954ea4c4635f915","","Mozilla/5.0 (Windows NT 10.0; Win64; x64) AppleWebKit/537.36 (KHTML, like Gecko) Chrome/126.0.0.0 Safari/537.36","WebKit","Chrome","126.0.0.0","Windows","10.0","https://hz8g1ckzuq.cognition.run/","en-US,en;q=0.9,zh-CN;q=0.8,zh;q=0.7","w3wjcj5pkb5crhz","41","[""White""]","No","Female","2063304.499999999","5528","","","{""product_choice"":""A""}","choice","bww","catch","null","televisions","70","95","5","45","35","10","1","null","null","null","null","null","null","Screen size","Average lifespan","",""
"","","","","","choice_trial_setup","html-keyboard-response","96","1772059","0.0-5.0-0.6","133","1","2025-04-14 14:01:36","bb671e3ae32f654b8954ea4c4635f915","","Mozilla/5.0 (Windows NT 10.0; Win64; x64) AppleWebKit/537.36 (KHTML, like Gecko) Chrome/126.0.0.0 Safari/537.36","WebKit","Chrome","126.0.0.0","Windows","10.0","https://hz8g1ckzuq.cognition.run/","en-US,en;q=0.9,zh-CN;q=0.8,zh;q=0.7","w3wjcj5pkb5crhz","41","[""White""]","No","Female","2063304.499999999","null","","<p></p>","null","choice","tcd","attraction_1","1","laptops","null","null","null","null","null","null","1","","","","","","","","","",""
"","","","","","choice_trial","survey-html-form","97","1775426","0.0-5.0-1.6","133","1","2025-04-14 14:01:36","bb671e3ae32f654b8954ea4c4635f915","","Mozilla/5.0 (Windows NT 10.0; Win64; x64) AppleWebKit/537.36 (KHTML, like Gecko) Chrome/126.0.0.0 Safari/537.36","WebKit","Chrome","126.0.0.0","Windows","10.0","https://hz8g1ckzuq.cognition.run/","en-US,en;q=0.9,zh-CN;q=0.8,zh;q=0.7","w3wjcj5pkb5crhz","41","[""White""]","No","Female","2063304.499999999","3359","","","{""product_choice"":""B""}","choice","tcd","attraction_1","1","laptops","null","null","null","null","null","null","1","60","50","60","50","60","45","Processing speed","Memory (RAM)","",""
"","","","","","choice_trial_setup","html-keyboard-response","98","1775731","0.0-5.0-0.7","133","1","2025-04-14 14:01:36","bb671e3ae32f654b8954ea4c4635f915","","Mozilla/5.0 (Windows NT 10.0; Win64; x64) AppleWebKit/537.36 (KHTML, like Gecko) Chrome/126.0.0.0 Safari/537.36","WebKit","Chrome","126.0.0.0","Windows","10.0","https://hz8g1ckzuq.cognition.run/","en-US,en;q=0.9,zh-CN;q=0.8,zh;q=0.7","w3wjcj5pkb5crhz","41","[""White""]","No","Female","2063304.499999999","null","","<p></p>","null","choice","wwb","catch","null","microwave ovens","65","75","20","10","30","50","1","","","","","","","","","",""
"","","","","","choice_trial","survey-html-form","99","1781038","0.0-5.0-1.7","133","1","2025-04-14 14:01:36","bb671e3ae32f654b8954ea4c4635f915","","Mozilla/5.0 (Windows NT 10.0; Win64; x64) AppleWebKit/537.36 (KHTML, like Gecko) Chrome/126.0.0.0 Safari/537.36","WebKit","Chrome","126.0.0.0","Windows","10.0","https://hz8g1ckzuq.cognition.run/","en-US,en;q=0.9,zh-CN;q=0.8,zh;q=0.7","w3wjcj5pkb5crhz","41","[""White""]","No","Female","2063304.499999999","5301","","","{""product_choice"":""C""}","choice","wwb","catch","null","microwave ovens","65","75","20","10","30","50","1","null","null","null","null","null","null","Warranty","Cooking power","",""
"","","","","","choice_trial_setup","html-keyboard-response","100","1781344","0.0-5.0-0.8","133","1","2025-04-14 14:01:36","bb671e3ae32f654b8954ea4c4635f915","","Mozilla/5.0 (Windows NT 10.0; Win64; x64) AppleWebKit/537.36 (KHTML, like Gecko) Chrome/126.0.0.0 Safari/537.36","WebKit","Chrome","126.0.0.0","Windows","10.0","https://hz8g1ckzuq.cognition.run/","en-US,en;q=0.9,zh-CN;q=0.8,zh;q=0.7","w3wjcj5pkb5crhz","41","[""White""]","No","Female","2063304.499999999","null","","<p></p>","null","choice","dtc","attraction_1","2","washing machines","null","null","null","null","null","null","2","","","","","","","","","",""
"","","","","","choice_trial","survey-html-form","101","1788998","0.0-5.0-1.8","133","1","2025-04-14 14:01:36","bb671e3ae32f654b8954ea4c4635f915","","Mozilla/5.0 (Windows NT 10.0; Win64; x64) AppleWebKit/537.36 (KHTML, like Gecko) Chrome/126.0.0.0 Safari/537.36","WebKit","Chrome","126.0.0.0","Windows","10.0","https://hz8g1ckzuq.cognition.run/","en-US,en;q=0.9,zh-CN;q=0.8,zh;q=0.7","w3wjcj5pkb5crhz","41","[""White""]","No","Female","2063304.499999999","7644","","","{""product_choice"":""C""}","choice","dtc","attraction_1","2","washing machines","null","null","null","null","null","null","2","50","60","45","60","50","60","Average lifespan","Energy savings","",""
"","","","","","choice_trial_setup","html-keyboard-response","102","1789304","0.0-5.0-0.9","133","1","2025-04-14 14:01:36","bb671e3ae32f654b8954ea4c4635f915","","Mozilla/5.0 (Windows NT 10.0; Win64; x64) AppleWebKit/537.36 (KHTML, like Gecko) Chrome/126.0.0.0 Safari/537.36","WebKit","Chrome","126.0.0.0","Windows","10.0","https://hz8g1ckzuq.cognition.run/","en-US,en;q=0.9,zh-CN;q=0.8,zh;q=0.7","w3wjcj5pkb5crhz","41","[""White""]","No","Female","2063304.499999999","null","","<p></p>","null","choice","tcd","attraction_2","2","laptops","null","null","null","null","null","null","1","","","","","","","","","",""
"","","","","","choice_trial","survey-html-form","103","1792511","0.0-5.0-1.9","133","1","2025-04-14 14:01:36","bb671e3ae32f654b8954ea4c4635f915","","Mozilla/5.0 (Windows NT 10.0; Win64; x64) AppleWebKit/537.36 (KHTML, like Gecko) Chrome/126.0.0.0 Safari/537.36","WebKit","Chrome","126.0.0.0","Windows","10.0","https://hz8g1ckzuq.cognition.run/","en-US,en;q=0.9,zh-CN;q=0.8,zh;q=0.7","w3wjcj5pkb5crhz","41","[""White""]","No","Female","2063304.499999999","3199","","","{""product_choice"":""B""}","choice","tcd","attraction_2","2","laptops","null","null","null","null","null","null","1","50","60","40","60","50","60","Processing speed","Memory (RAM)","",""
"","","","","","choice_trial_setup","html-keyboard-response","104","1792815","0.0-5.0-0.10","133","1","2025-04-14 14:01:36","bb671e3ae32f654b8954ea4c4635f915","","Mozilla/5.0 (Windows NT 10.0; Win64; x64) AppleWebKit/537.36 (KHTML, like Gecko) Chrome/126.0.0.0 Safari/537.36","WebKit","Chrome","126.0.0.0","Windows","10.0","https://hz8g1ckzuq.cognition.run/","en-US,en;q=0.9,zh-CN;q=0.8,zh;q=0.7","w3wjcj5pkb5crhz","41","[""White""]","No","Female","2063304.499999999","null","","<p></p>","null","choice","dtc","repulsion_1","2","laptops","null","null","null","null","null","null","1","","","","","","","","","",""
"","","","","","choice_trial","survey-html-form","105","1801521","0.0-5.0-1.10","133","1","2025-04-14 14:01:36","bb671e3ae32f654b8954ea4c4635f915","","Mozilla/5.0 (Windows NT 10.0; Win64; x64) AppleWebKit/537.36 (KHTML, like Gecko) Chrome/126.0.0.0 Safari/537.36","WebKit","Chrome","126.0.0.0","Windows","10.0","https://hz8g1ckzuq.cognition.run/","en-US,en;q=0.9,zh-CN;q=0.8,zh;q=0.7","w3wjcj5pkb5crhz","41","[""White""]","No","Female","2063304.499999999","8697","","","{""product_choice"":""C""}","choice","dtc","repulsion_1","2","laptops","null","null","null","null","null","null","1","30","40","25","100","90","100","Processing speed","Memory (RAM)","",""
"","","","","","choice_trial_setup","html-keyboard-response","106","1801827","0.0-5.0-0.11","133","1","2025-04-14 14:01:36","bb671e3ae32f654b8954ea4c4635f915","","Mozilla/5.0 (Windows NT 10.0; Win64; x64) AppleWebKit/537.36 (KHTML, like Gecko) Chrome/126.0.0.0 Safari/537.36","WebKit","Chrome","126.0.0.0","Windows","10.0","https://hz8g1ckzuq.cognition.run/","en-US,en;q=0.9,zh-CN;q=0.8,zh;q=0.7","w3wjcj5pkb5crhz","41","[""White""]","No","Female","2063304.499999999","null","","<p></p>","null","choice","tcd","repulsion_2","1","televisions","null","null","null","null","null","null","1","","","","","","","","","",""
"","","","","","choice_trial","survey-html-form","107","1807948","0.0-5.0-1.11","133","1","2025-04-14 14:01:36","bb671e3ae32f654b8954ea4c4635f915","","Mozilla/5.0 (Windows NT 10.0; Win64; x64) AppleWebKit/537.36 (KHTML, like Gecko) Chrome/126.0.0.0 Safari/537.36","WebKit","Chrome","126.0.0.0","Windows","10.0","https://hz8g1ckzuq.cognition.run/","en-US,en;q=0.9,zh-CN;q=0.8,zh;q=0.7","w3wjcj5pkb5crhz","41","[""White""]","No","Female","2063304.499999999","6111","","","{""product_choice"":""B""}","choice","tcd","repulsion_2","1","televisions","null","null","null","null","null","null","1","100","90","100","30","40","20","Screen size","Average lifespan","",""
"","","","","","choice_trial_setup","html-keyboard-response","108","1808252","0.0-5.0-0.12","133","1","2025-04-14 14:01:36","bb671e3ae32f654b8954ea4c4635f915","","Mozilla/5.0 (Windows NT 10.0; Win64; x64) AppleWebKit/537.36 (KHTML, like Gecko) Chrome/126.0.0.0 Safari/537.36","WebKit","Chrome","126.0.0.0","Windows","10.0","https://hz8g1ckzuq.cognition.run/","en-US,en;q=0.9,zh-CN;q=0.8,zh;q=0.7","w3wjcj5pkb5crhz","41","[""White""]","No","Female","2063304.499999999","null","","<p></p>","null","choice","dtc","attraction_2","2","televisions","null","null","null","null","null","null","2","","","","","","","","","",""
"","","","","","choice_trial","survey-html-form","109","1813647","0.0-5.0-1.12","133","1","2025-04-14 14:01:36","bb671e3ae32f654b8954ea4c4635f915","","Mozilla/5.0 (Windows NT 10.0; Win64; x64) AppleWebKit/537.36 (KHTML, like Gecko) Chrome/126.0.0.0 Safari/537.36","WebKit","Chrome","126.0.0.0","Windows","10.0","https://hz8g1ckzuq.cognition.run/","en-US,en;q=0.9,zh-CN;q=0.8,zh;q=0.7","w3wjcj5pkb5crhz","41","[""White""]","No","Female","2063304.499999999","5389","","","{""product_choice"":""B""}","choice","dtc","attraction_2","2","televisions","null","null","null","null","null","null","2","50","60","40","60","50","60","Screen size","Average lifespan","",""
"","","","","","choice_trial_setup","html-keyboard-response","110","1813952","0.0-5.0-0.13","133","1","2025-04-14 14:01:36","bb671e3ae32f654b8954ea4c4635f915","","Mozilla/5.0 (Windows NT 10.0; Win64; x64) AppleWebKit/537.36 (KHTML, like Gecko) Chrome/126.0.0.0 Safari/537.36","WebKit","Chrome","126.0.0.0","Windows","10.0","https://hz8g1ckzuq.cognition.run/","en-US,en;q=0.9,zh-CN;q=0.8,zh;q=0.7","w3wjcj5pkb5crhz","41","[""White""]","No","Female","2063304.499999999","null","","<p></p>","null","choice","tdc","attraction_2","2","washing machines","null","null","null","null","null","null","2","","","","","","","","","",""
"","","","","","choice_trial","survey-html-form","111","1819146","0.0-5.0-1.13","133","1","2025-04-14 14:01:36","bb671e3ae32f654b8954ea4c4635f915","","Mozilla/5.0 (Windows NT 10.0; Win64; x64) AppleWebKit/537.36 (KHTML, like Gecko) Chrome/126.0.0.0 Safari/537.36","WebKit","Chrome","126.0.0.0","Windows","10.0","https://hz8g1ckzuq.cognition.run/","en-US,en;q=0.9,zh-CN;q=0.8,zh;q=0.7","w3wjcj5pkb5crhz","41","[""White""]","No","Female","2063304.499999999","5182","","","{""product_choice"":""B""}","choice","tdc","attraction_2","2","washing machines","null","null","null","null","null","null","2","50","60","40","60","50","60","Average lifespan","Energy savings","",""
"","","","","","choice_trial_setup","html-keyboard-response","112","1819453","0.0-5.0-0.14","133","1","2025-04-14 14:01:36","bb671e3ae32f654b8954ea4c4635f915","","Mozilla/5.0 (Windows NT 10.0; Win64; x64) AppleWebKit/537.36 (KHTML, like Gecko) Chrome/126.0.0.0 Safari/537.36","WebKit","Chrome","126.0.0.0","Windows","10.0","https://hz8g1ckzuq.cognition.run/","en-US,en;q=0.9,zh-CN;q=0.8,zh;q=0.7","w3wjcj5pkb5crhz","41","[""White""]","No","Female","2063304.499999999","null","","<p></p>","null","choice","cdt","repulsion_2","1","washing machines","null","null","null","null","null","null","2","","","","","","","","","",""
"","","","","","choice_trial","survey-html-form","113","1824418","0.0-5.0-1.14","133","1","2025-04-14 14:01:36","bb671e3ae32f654b8954ea4c4635f915","","Mozilla/5.0 (Windows NT 10.0; Win64; x64) AppleWebKit/537.36 (KHTML, like Gecko) Chrome/126.0.0.0 Safari/537.36","WebKit","Chrome","126.0.0.0","Windows","10.0","https://hz8g1ckzuq.cognition.run/","en-US,en;q=0.9,zh-CN;q=0.8,zh;q=0.7","w3wjcj5pkb5crhz","41","[""White""]","No","Female","2063304.499999999","4953","","","{""product_choice"":""A""}","choice","cdt","repulsion_2","1","washing machines","null","null","null","null","null","null","2","100","90","100","30","40","20","Average lifespan","Energy savings","",""
"","","","","","choice_trial_setup","html-keyboard-response","114","1824724","0.0-5.0-0.15","133","1","2025-04-14 14:01:36","bb671e3ae32f654b8954ea4c4635f915","","Mozilla/5.0 (Windows NT 10.0; Win64; x64) AppleWebKit/537.36 (KHTML, like Gecko) Chrome/126.0.0.0 Safari/537.36","WebKit","Chrome","126.0.0.0","Windows","10.0","https://hz8g1ckzuq.cognition.run/","en-US,en;q=0.9,zh-CN;q=0.8,zh;q=0.7","w3wjcj5pkb5crhz","41","[""White""]","No","Female","2063304.499999999","null","","<p></p>","null","choice","tdc","attraction_1","1","microwave ovens","null","null","null","null","null","null","1","","","","","","","","","",""
"","","","","","choice_trial","survey-html-form","115","1828322","0.0-5.0-1.15","133","1","2025-04-14 14:01:36","bb671e3ae32f654b8954ea4c4635f915","","Mozilla/5.0 (Windows NT 10.0; Win64; x64) AppleWebKit/537.36 (KHTML, like Gecko) Chrome/126.0.0.0 Safari/537.36","WebKit","Chrome","126.0.0.0","Windows","10.0","https://hz8g1ckzuq.cognition.run/","en-US,en;q=0.9,zh-CN;q=0.8,zh;q=0.7","w3wjcj5pkb5crhz","41","[""White""]","No","Female","2063304.499999999","3583","","","{""product_choice"":""A""}","choice","tdc","attraction_1","1","microwave ovens","null","null","null","null","null","null","1","60","50","60","50","60","45","Warranty","Cooking power","",""
"","","","","","choice_trial_setup","html-keyboard-response","116","1828632","0.0-5.0-0.16","133","1","2025-04-14 14:01:36","bb671e3ae32f654b8954ea4c4635f915","","Mozilla/5.0 (Windows NT 10.0; Win64; x64) AppleWebKit/537.36 (KHTML, like Gecko) Chrome/126.0.0.0 Safari/537.36","WebKit","Chrome","126.0.0.0","Windows","10.0","https://hz8g1ckzuq.cognition.run/","en-US,en;q=0.9,zh-CN;q=0.8,zh;q=0.7","w3wjcj5pkb5crhz","41","[""White""]","No","Female","2063304.499999999","null","","<p></p>","null","choice","ctd","repulsion_1","2","washing machines","null","null","null","null","null","null","2","","","","","","","","","",""
"","","","","","choice_trial","survey-html-form","117","1836099","0.0-5.0-1.16","133","1","2025-04-14 14:01:36","bb671e3ae32f654b8954ea4c4635f915","","Mozilla/5.0 (Windows NT 10.0; Win64; x64) AppleWebKit/537.36 (KHTML, like Gecko) Chrome/126.0.0.0 Safari/537.36","WebKit","Chrome","126.0.0.0","Windows","10.0","https://hz8g1ckzuq.cognition.run/","en-US,en;q=0.9,zh-CN;q=0.8,zh;q=0.7","w3wjcj5pkb5crhz","41","[""White""]","No","Female","2063304.499999999","7457","","","{""product_choice"":""B""}","choice","ctd","repulsion_1","2","washing machines","null","null","null","null","null","null","2","30","40","25","100","90","100","Average lifespan","Energy savings","",""
"","","","","","choice_trial_setup","html-keyboard-response","118","1836410","0.0-5.0-0.17","133","1","2025-04-14 14:01:36","bb671e3ae32f654b8954ea4c4635f915","","Mozilla/5.0 (Windows NT 10.0; Win64; x64) AppleWebKit/537.36 (KHTML, like Gecko) Chrome/126.0.0.0 Safari/537.36","WebKit","Chrome","126.0.0.0","Windows","10.0","https://hz8g1ckzuq.cognition.run/","en-US,en;q=0.9,zh-CN;q=0.8,zh;q=0.7","w3wjcj5pkb5crhz","41","[""White""]","No","Female","2063304.499999999","null","","<p></p>","null","choice","dct","repulsion_2","2","televisions","null","null","null","null","null","null","1","","","","","","","","","",""
"","","","","","choice_trial","survey-html-form","119","1842524","0.0-5.0-1.17","133","1","2025-04-14 14:01:36","bb671e3ae32f654b8954ea4c4635f915","","Mozilla/5.0 (Windows NT 10.0; Win64; x64) AppleWebKit/537.36 (KHTML, like Gecko) Chrome/126.0.0.0 Safari/537.36","WebKit","Chrome","126.0.0.0","Windows","10.0","https://hz8g1ckzuq.cognition.run/","en-US,en;q=0.9,zh-CN;q=0.8,zh;q=0.7","w3wjcj5pkb5crhz","41","[""White""]","No","Female","2063304.499999999","6106","","","{""product_choice"":""B""}","choice","dct","repulsion_2","2","televisions","null","null","null","null","null","null","1","30","40","20","100","90","100","Screen size","Average lifespan","",""
"","","","","","choice_trial_setup","html-keyboard-response","120","1842841","0.0-5.0-0.18","133","1","2025-04-14 14:01:36","bb671e3ae32f654b8954ea4c4635f915","","Mozilla/5.0 (Windows NT 10.0; Win64; x64) AppleWebKit/537.36 (KHTML, like Gecko) Chrome/126.0.0.0 Safari/537.36","WebKit","Chrome","126.0.0.0","Windows","10.0","https://hz8g1ckzuq.cognition.run/","en-US,en;q=0.9,zh-CN;q=0.8,zh;q=0.7","w3wjcj5pkb5crhz","41","[""White""]","No","Female","2063304.499999999","null","","<p></p>","null","choice","tdc","attraction_1","1","washing machines","null","null","null","null","null","null","2","","","","","","","","","",""
"","","","","","choice_trial","survey-html-form","121","1848360","0.0-5.0-1.18","133","1","2025-04-14 14:01:36","bb671e3ae32f654b8954ea4c4635f915","","Mozilla/5.0 (Windows NT 10.0; Win64; x64) AppleWebKit/537.36 (KHTML, like Gecko) Chrome/126.0.0.0 Safari/537.36","WebKit","Chrome","126.0.0.0","Windows","10.0","https://hz8g1ckzuq.cognition.run/","en-US,en;q=0.9,zh-CN;q=0.8,zh;q=0.7","w3wjcj5pkb5crhz","41","[""White""]","No","Female","2063304.499999999","5510","","","{""product_choice"":""B""}","choice","tdc","attraction_1","1","washing machines","null","null","null","null","null","null","2","60","50","60","50","60","45","Average lifespan","Energy savings","",""
"","","","","","choice_trial_setup","html-keyboard-response","122","1848679","0.0-5.0-0.19","133","1","2025-04-14 14:01:36","bb671e3ae32f654b8954ea4c4635f915","","Mozilla/5.0 (Windows NT 10.0; Win64; x64) AppleWebKit/537.36 (KHTML, like Gecko) Chrome/126.0.0.0 Safari/537.36","WebKit","Chrome","126.0.0.0","Windows","10.0","https://hz8g1ckzuq.cognition.run/","en-US,en;q=0.9,zh-CN;q=0.8,zh;q=0.7","w3wjcj5pkb5crhz","41","[""White""]","No","Female","2063304.499999999","null","","<p></p>","null","choice","ctd","attraction_2","1","microwave ovens","null","null","null","null","null","null","2","","","","","","","","","",""
"","","","","","choice_trial","survey-html-form","123","1851181","0.0-5.0-1.19","133","1","2025-04-14 14:01:36","bb671e3ae32f654b8954ea4c4635f915","","Mozilla/5.0 (Windows NT 10.0; Win64; x64) AppleWebKit/537.36 (KHTML, like Gecko) Chrome/126.0.0.0 Safari/537.36","WebKit","Chrome","126.0.0.0","Windows","10.0","https://hz8g1ckzuq.cognition.run/","en-US,en;q=0.9,zh-CN;q=0.8,zh;q=0.7","w3wjcj5pkb5crhz","41","[""White""]","No","Female","2063304.499999999","2493","","","{""product_choice"":""A""}","choice","ctd","attraction_2","1","microwave ovens","null","null","null","null","null","null","2","60","50","60","50","60","40","Warranty","Cooking power","",""
"","","","","","choice_trial_setup","html-keyboard-response","124","1851488","0.0-5.0-0.20","133","1","2025-04-14 14:01:36","bb671e3ae32f654b8954ea4c4635f915","","Mozilla/5.0 (Windows NT 10.0; Win64; x64) AppleWebKit/537.36 (KHTML, like Gecko) Chrome/126.0.0.0 Safari/537.36","WebKit","Chrome","126.0.0.0","Windows","10.0","https://hz8g1ckzuq.cognition.run/","en-US,en;q=0.9,zh-CN;q=0.8,zh;q=0.7","w3wjcj5pkb5crhz","41","[""White""]","No","Female","2063304.499999999","null","","<p></p>","null","choice","ctd","repulsion_1","1","laptops","null","null","null","null","null","null","2","","","","","","","","","",""
"","","","","","choice_trial","survey-html-form","125","1860431","0.0-5.0-1.20","133","1","2025-04-14 14:01:36","bb671e3ae32f654b8954ea4c4635f915","","Mozilla/5.0 (Windows NT 10.0; Win64; x64) AppleWebKit/537.36 (KHTML, like Gecko) Chrome/126.0.0.0 Safari/537.36","WebKit","Chrome","126.0.0.0","Windows","10.0","https://hz8g1ckzuq.cognition.run/","en-US,en;q=0.9,zh-CN;q=0.8,zh;q=0.7","w3wjcj5pkb5crhz","41","[""White""]","No","Female","2063304.499999999","8928","","","{""product_choice"":""B""}","choice","ctd","repulsion_1","1","laptops","null","null","null","null","null","null","2","100","90","100","30","40","25","Processing speed","Memory (RAM)","",""
"","","","","","choice_trial_setup","html-keyboard-response","126","1860739","0.0-5.0-0.21","133","1","2025-04-14 14:01:36","bb671e3ae32f654b8954ea4c4635f915","","Mozilla/5.0 (Windows NT 10.0; Win64; x64) AppleWebKit/537.36 (KHTML, like Gecko) Chrome/126.0.0.0 Safari/537.36","WebKit","Chrome","126.0.0.0","Windows","10.0","https://hz8g1ckzuq.cognition.run/","en-US,en;q=0.9,zh-CN;q=0.8,zh;q=0.7","w3wjcj5pkb5crhz","41","[""White""]","No","Female","2063304.499999999","null","","<p></p>","null","choice","tdc","repulsion_2","2","washing machines","null","null","null","null","null","null","2","","","","","","","","","",""
"","","","","","choice_trial","survey-html-form","127","1866000","0.0-5.0-1.21","133","1","2025-04-14 14:01:36","bb671e3ae32f654b8954ea4c4635f915","","Mozilla/5.0 (Windows NT 10.0; Win64; x64) AppleWebKit/537.36 (KHTML, like Gecko) Chrome/126.0.0.0 Safari/537.36","WebKit","Chrome","126.0.0.0","Windows","10.0","https://hz8g1ckzuq.cognition.run/","en-US,en;q=0.9,zh-CN;q=0.8,zh;q=0.7","w3wjcj5pkb5crhz","41","[""White""]","No","Female","2063304.499999999","5252","","","{""product_choice"":""C""}","choice","tdc","repulsion_2","2","washing machines","null","null","null","null","null","null","2","30","40","20","100","90","100","Average lifespan","Energy savings","",""
"","","","","","choice_trial_setup","html-keyboard-response","128","1866309","0.0-5.0-0.22","133","1","2025-04-14 14:01:36","bb671e3ae32f654b8954ea4c4635f915","","Mozilla/5.0 (Windows NT 10.0; Win64; x64) AppleWebKit/537.36 (KHTML, like Gecko) Chrome/126.0.0.0 Safari/537.36","WebKit","Chrome","126.0.0.0","Windows","10.0","https://hz8g1ckzuq.cognition.run/","en-US,en;q=0.9,zh-CN;q=0.8,zh;q=0.7","w3wjcj5pkb5crhz","41","[""White""]","No","Female","2063304.499999999","null","","<p></p>","null","choice","dct","repulsion_1","2","televisions","null","null","null","null","null","null","1","","","","","","","","","",""
"","","","","","choice_trial","survey-html-form","129","1871649","0.0-5.0-1.22","133","1","2025-04-14 14:01:36","bb671e3ae32f654b8954ea4c4635f915","","Mozilla/5.0 (Windows NT 10.0; Win64; x64) AppleWebKit/537.36 (KHTML, like Gecko) Chrome/126.0.0.0 Safari/537.36","WebKit","Chrome","126.0.0.0","Windows","10.0","https://hz8g1ckzuq.cognition.run/","en-US,en;q=0.9,zh-CN;q=0.8,zh;q=0.7","w3wjcj5pkb5crhz","41","[""White""]","No","Female","2063304.499999999","5323","","","{""product_choice"":""C""}","choice","dct","repulsion_1","2","televisions","null","null","null","null","null","null","1","30","40","25","100","90","100","Screen size","Average lifespan","",""
"","","","","","choice_trial_setup","html-keyboard-response","130","1871960","0.0-5.0-0.23","133","1","2025-04-14 14:01:36","bb671e3ae32f654b8954ea4c4635f915","","Mozilla/5.0 (Windows NT 10.0; Win64; x64) AppleWebKit/537.36 (KHTML, like Gecko) Chrome/126.0.0.0 Safari/537.36","WebKit","Chrome","126.0.0.0","Windows","10.0","https://hz8g1ckzuq.cognition.run/","en-US,en;q=0.9,zh-CN;q=0.8,zh;q=0.7","w3wjcj5pkb5crhz","41","[""White""]","No","Female","2063304.499999999","null","","<p></p>","null","choice","wwb","catch","null","washing machines","50","50","40","10","5","45","2","","","","","","","","","",""
"","","","","","choice_trial","survey-html-form","131","1880849","0.0-5.0-1.23","133","1","2025-04-14 14:01:36","bb671e3ae32f654b8954ea4c4635f915","","Mozilla/5.0 (Windows NT 10.0; Win64; x64) AppleWebKit/537.36 (KHTML, like Gecko) Chrome/126.0.0.0 Safari/537.36","WebKit","Chrome","126.0.0.0","Windows","10.0","https://hz8g1ckzuq.cognition.run/","en-US,en;q=0.9,zh-CN;q=0.8,zh;q=0.7","w3wjcj5pkb5crhz","41","[""White""]","No","Female","2063304.499999999","8876","","","{""product_choice"":""C""}","choice","wwb","catch","null","washing machines","50","50","40","10","5","45","2","null","null","null","null","null","null","Average lifespan","Energy savings","",""
"","","","","","choice_trial_setup","html-keyboard-response","132","1881158","0.0-5.0-0.24","133","1","2025-04-14 14:01:36","bb671e3ae32f654b8954ea4c4635f915","","Mozilla/5.0 (Windows NT 10.0; Win64; x64) AppleWebKit/537.36 (KHTML, like Gecko) Chrome/126.0.0.0 Safari/537.36","WebKit","Chrome","126.0.0.0","Windows","10.0","https://hz8g1ckzuq.cognition.run/","en-US,en;q=0.9,zh-CN;q=0.8,zh;q=0.7","w3wjcj5pkb5crhz","41","[""White""]","No","Female","2063304.499999999","null","","<p></p>","null","choice","ctd","repulsion_1","1","microwave ovens","null","null","null","null","null","null","1","","","","","","","","","",""
"","","","","","choice_trial","survey-html-form","133","1887876","0.0-5.0-1.24","133","1","2025-04-14 14:01:36","bb671e3ae32f654b8954ea4c4635f915","","Mozilla/5.0 (Windows NT 10.0; Win64; x64) AppleWebKit/537.36 (KHTML, like Gecko) Chrome/126.0.0.0 Safari/537.36","WebKit","Chrome","126.0.0.0","Windows","10.0","https://hz8g1ckzuq.cognition.run/","en-US,en;q=0.9,zh-CN;q=0.8,zh;q=0.7","w3wjcj5pkb5crhz","41","[""White""]","No","Female","2063304.499999999","6710","","","{""product_choice"":""A""}","choice","ctd","repulsion_1","1","microwave ovens","null","null","null","null","null","null","1","100","90","100","30","40","25","Warranty","Cooking power","",""
"","","","","","choice_trial_setup","html-keyboard-response","134","1888191","0.0-5.0-0.25","133","1","2025-04-14 14:01:36","bb671e3ae32f654b8954ea4c4635f915","","Mozilla/5.0 (Windows NT 10.0; Win64; x64) AppleWebKit/537.36 (KHTML, like Gecko) Chrome/126.0.0.0 Safari/537.36","WebKit","Chrome","126.0.0.0","Windows","10.0","https://hz8g1ckzuq.cognition.run/","en-US,en;q=0.9,zh-CN;q=0.8,zh;q=0.7","w3wjcj5pkb5crhz","41","[""White""]","No","Female","2063304.499999999","null","","<p></p>","null","choice","tcd","repulsion_1","1","washing machines","null","null","null","null","null","null","2","","","","","","","","","",""
"","","","","","choice_trial","survey-html-form","135","1894142","0.0-5.0-1.25","133","1","2025-04-14 14:01:36","bb671e3ae32f654b8954ea4c4635f915","","Mozilla/5.0 (Windows NT 10.0; Win64; x64) AppleWebKit/537.36 (KHTML, like Gecko) Chrome/126.0.0.0 Safari/537.36","WebKit","Chrome","126.0.0.0","Windows","10.0","https://hz8g1ckzuq.cognition.run/","en-US,en;q=0.9,zh-CN;q=0.8,zh;q=0.7","w3wjcj5pkb5crhz","41","[""White""]","No","Female","2063304.499999999","5939","","","{""product_choice"":""B""}","choice","tcd","repulsion_1","1","washing machines","null","null","null","null","null","null","2","100","90","100","30","40","25","Average lifespan","Energy savings","",""
"","","","","","choice_trial_setup","html-keyboard-response","136","1894449","0.0-5.0-0.26","133","1","2025-04-14 14:01:36","bb671e3ae32f654b8954ea4c4635f915","","Mozilla/5.0 (Windows NT 10.0; Win64; x64) AppleWebKit/537.36 (KHTML, like Gecko) Chrome/126.0.0.0 Safari/537.36","WebKit","Chrome","126.0.0.0","Windows","10.0","https://hz8g1ckzuq.cognition.run/","en-US,en;q=0.9,zh-CN;q=0.8,zh;q=0.7","w3wjcj5pkb5crhz","41","[""White""]","No","Female","2063304.499999999","null","","<p></p>","null","choice","dtc","attraction_1","2","laptops","null","null","null","null","null","null","1","","","","","","","","","",""
"","","","","","choice_trial","survey-html-form","137","1901470","0.0-5.0-1.26","133","1","2025-04-14 14:01:36","bb671e3ae32f654b8954ea4c4635f915","","Mozilla/5.0 (Windows NT 10.0; Win64; x64) AppleWebKit/537.36 (KHTML, like Gecko) Chrome/126.0.0.0 Safari/537.36","WebKit","Chrome","126.0.0.0","Windows","10.0","https://hz8g1ckzuq.cognition.run/","en-US,en;q=0.9,zh-CN;q=0.8,zh;q=0.7","w3wjcj5pkb5crhz","41","[""White""]","No","Female","2063304.499999999","7003","","","{""product_choice"":""C""}","choice","dtc","attraction_1","2","laptops","null","null","null","null","null","null","1","50","60","45","60","50","60","Processing speed","Memory (RAM)","",""
"","","","","","choice_trial_setup","html-keyboard-response","138","1901782","0.0-5.0-0.27","133","1","2025-04-14 14:01:36","bb671e3ae32f654b8954ea4c4635f915","","Mozilla/5.0 (Windows NT 10.0; Win64; x64) AppleWebKit/537.36 (KHTML, like Gecko) Chrome/126.0.0.0 Safari/537.36","WebKit","Chrome","126.0.0.0","Windows","10.0","https://hz8g1ckzuq.cognition.run/","en-US,en;q=0.9,zh-CN;q=0.8,zh;q=0.7","w3wjcj5pkb5crhz","41","[""White""]","No","Female","2063304.499999999","null","","<p></p>","null","choice","dct","attraction_2","1","laptops","null","null","null","null","null","null","2","","","","","","","","","",""
"","","","","","choice_trial","survey-html-form","139","1909683","0.0-5.0-1.27","133","1","2025-04-14 14:01:36","bb671e3ae32f654b8954ea4c4635f915","","Mozilla/5.0 (Windows NT 10.0; Win64; x64) AppleWebKit/537.36 (KHTML, like Gecko) Chrome/126.0.0.0 Safari/537.36","WebKit","Chrome","126.0.0.0","Windows","10.0","https://hz8g1ckzuq.cognition.run/","en-US,en;q=0.9,zh-CN;q=0.8,zh;q=0.7","w3wjcj5pkb5crhz","41","[""White""]","No","Female","2063304.499999999","7891","","","{""product_choice"":""C""}","choice","dct","attraction_2","1","laptops","null","null","null","null","null","null","2","60","50","60","50","60","40","Processing speed","Memory (RAM)","",""
"","","","","","choice_trial_setup","html-keyboard-response","140","1909991","0.0-5.0-0.28","133","1","2025-04-14 14:01:36","bb671e3ae32f654b8954ea4c4635f915","","Mozilla/5.0 (Windows NT 10.0; Win64; x64) AppleWebKit/537.36 (KHTML, like Gecko) Chrome/126.0.0.0 Safari/537.36","WebKit","Chrome","126.0.0.0","Windows","10.0","https://hz8g1ckzuq.cognition.run/","en-US,en;q=0.9,zh-CN;q=0.8,zh;q=0.7","w3wjcj5pkb5crhz","41","[""White""]","No","Female","2063304.499999999","null","","<p></p>","null","choice","tdc","attraction_2","1","washing machines","null","null","null","null","null","null","1","","","","","","","","","",""
"","","","","","choice_trial","survey-html-form","141","1915665","0.0-5.0-1.28","133","1","2025-04-14 14:01:36","bb671e3ae32f654b8954ea4c4635f915","","Mozilla/5.0 (Windows NT 10.0; Win64; x64) AppleWebKit/537.36 (KHTML, like Gecko) Chrome/126.0.0.0 Safari/537.36","WebKit","Chrome","126.0.0.0","Windows","10.0","https://hz8g1ckzuq.cognition.run/","en-US,en;q=0.9,zh-CN;q=0.8,zh;q=0.7","w3wjcj5pkb5crhz","41","[""White""]","No","Female","2063304.499999999","5666","","","{""product_choice"":""C""}","choice","tdc","attraction_2","1","washing machines","null","null","null","null","null","null","1","60","50","60","50","60","40","Average lifespan","Energy savings","",""
"","","","","","choice_trial_setup","html-keyboard-response","142","1915973","0.0-5.0-0.29","133","1","2025-04-14 14:01:36","bb671e3ae32f654b8954ea4c4635f915","","Mozilla/5.0 (Windows NT 10.0; Win64; x64) AppleWebKit/537.36 (KHTML, like Gecko) Chrome/126.0.0.0 Safari/537.36","WebKit","Chrome","126.0.0.0","Windows","10.0","https://hz8g1ckzuq.cognition.run/","en-US,en;q=0.9,zh-CN;q=0.8,zh;q=0.7","w3wjcj5pkb5crhz","41","[""White""]","No","Female","2063304.499999999","null","","<p></p>","null","choice","dtc","attraction_1","2","televisions","null","null","null","null","null","null","1","","","","","","","","","",""
"","","","","","choice_trial","survey-html-form","143","1919041","0.0-5.0-1.29","133","1","2025-04-14 14:01:36","bb671e3ae32f654b8954ea4c4635f915","","Mozilla/5.0 (Windows NT 10.0; Win64; x64) AppleWebKit/537.36 (KHTML, like Gecko) Chrome/126.0.0.0 Safari/537.36","WebKit","Chrome","126.0.0.0","Windows","10.0","https://hz8g1ckzuq.cognition.run/","en-US,en;q=0.9,zh-CN;q=0.8,zh;q=0.7","w3wjcj5pkb5crhz","41","[""White""]","No","Female","2063304.499999999","3060","","","{""product_choice"":""C""}","choice","dtc","attraction_1","2","televisions","null","null","null","null","null","null","1","50","60","45","60","50","60","Screen size","Average lifespan","",""
"","","","","","choice_trial_setup","html-keyboard-response","144","1919361","0.0-5.0-0.30","133","1","2025-04-14 14:01:36","bb671e3ae32f654b8954ea4c4635f915","","Mozilla/5.0 (Windows NT 10.0; Win64; x64) AppleWebKit/537.36 (KHTML, like Gecko) Chrome/126.0.0.0 Safari/537.36","WebKit","Chrome","126.0.0.0","Windows","10.0","https://hz8g1ckzuq.cognition.run/","en-US,en;q=0.9,zh-CN;q=0.8,zh;q=0.7","w3wjcj5pkb5crhz","41","[""White""]","No","Female","2063304.499999999","null","","<p></p>","null","choice","ctd","repulsion_2","1","microwave ovens","null","null","null","null","null","null","2","","","","","","","","","",""
"","","","","","choice_trial","survey-html-form","145","1925022","0.0-5.0-1.30","133","1","2025-04-14 14:01:36","bb671e3ae32f654b8954ea4c4635f915","","Mozilla/5.0 (Windows NT 10.0; Win64; x64) AppleWebKit/537.36 (KHTML, like Gecko) Chrome/126.0.0.0 Safari/537.36","WebKit","Chrome","126.0.0.0","Windows","10.0","https://hz8g1ckzuq.cognition.run/","en-US,en;q=0.9,zh-CN;q=0.8,zh;q=0.7","w3wjcj5pkb5crhz","41","[""White""]","No","Female","2063304.499999999","5650","","","{""product_choice"":""A""}","choice","ctd","repulsion_2","1","microwave ovens","null","null","null","null","null","null","2","100","90","100","30","40","20","Warranty","Cooking power","",""
"","","","","","choice_trial_setup","html-keyboard-response","146","1925329","0.0-5.0-0.31","133","1","2025-04-14 14:01:36","bb671e3ae32f654b8954ea4c4635f915","","Mozilla/5.0 (Windows NT 10.0; Win64; x64) AppleWebKit/537.36 (KHTML, like Gecko) Chrome/126.0.0.0 Safari/537.36","WebKit","Chrome","126.0.0.0","Windows","10.0","https://hz8g1ckzuq.cognition.run/","en-US,en;q=0.9,zh-CN;q=0.8,zh;q=0.7","w3wjcj5pkb5crhz","41","[""White""]","No","Female","2063304.499999999","null","","<p></p>","null","choice","tcd","repulsion_2","2","laptops","null","null","null","null","null","null","1","","","","","","","","","",""
"","","","","","choice_trial","survey-html-form","147","1930274","0.0-5.0-1.31","133","1","2025-04-14 14:01:36","bb671e3ae32f654b8954ea4c4635f915","","Mozilla/5.0 (Windows NT 10.0; Win64; x64) AppleWebKit/537.36 (KHTML, like Gecko) Chrome/126.0.0.0 Safari/537.36","WebKit","Chrome","126.0.0.0","Windows","10.0","https://hz8g1ckzuq.cognition.run/","en-US,en;q=0.9,zh-CN;q=0.8,zh;q=0.7","w3wjcj5pkb5crhz","41","[""White""]","No","Female","2063304.499999999","4925","","","{""product_choice"":""B""}","choice","tcd","repulsion_2","2","laptops","null","null","null","null","null","null","1","30","40","20","100","90","100","Processing speed","Memory (RAM)","",""
"","","","","","choice_trial_setup","html-keyboard-response","148","1930582","0.0-5.0-0.32","133","1","2025-04-14 14:01:36","bb671e3ae32f654b8954ea4c4635f915","","Mozilla/5.0 (Windows NT 10.0; Win64; x64) AppleWebKit/537.36 (KHTML, like Gecko) Chrome/126.0.0.0 Safari/537.36","WebKit","Chrome","126.0.0.0","Windows","10.0","https://hz8g1ckzuq.cognition.run/","en-US,en;q=0.9,zh-CN;q=0.8,zh;q=0.7","w3wjcj5pkb5crhz","41","[""White""]","No","Female","2063304.499999999","null","","<p></p>","null","choice","wwb","catch","null","televisions","85","60","35","15","20","20","2","","","","","","","","","",""
"","","","","","choice_trial","survey-html-form","149","1936993","0.0-5.0-1.32","133","1","2025-04-14 14:01:36","bb671e3ae32f654b8954ea4c4635f915","","Mozilla/5.0 (Windows NT 10.0; Win64; x64) AppleWebKit/537.36 (KHTML, like Gecko) Chrome/126.0.0.0 Safari/537.36","WebKit","Chrome","126.0.0.0","Windows","10.0","https://hz8g1ckzuq.cognition.run/","en-US,en;q=0.9,zh-CN;q=0.8,zh;q=0.7","w3wjcj5pkb5crhz","41","[""White""]","No","Female","2063304.499999999","6398","","","{""product_choice"":""C""}","choice","wwb","catch","null","televisions","85","60","35","15","20","20","2","null","null","null","null","null","null","Screen size","Average lifespan","",""
"","","","","","choice_trial_setup","html-keyboard-response","150","1937302","0.0-5.0-0.33","133","1","2025-04-14 14:01:36","bb671e3ae32f654b8954ea4c4635f915","","Mozilla/5.0 (Windows NT 10.0; Win64; x64) AppleWebKit/537.36 (KHTML, like Gecko) Chrome/126.0.0.0 Safari/537.36","WebKit","Chrome","126.0.0.0","Windows","10.0","https://hz8g1ckzuq.cognition.run/","en-US,en;q=0.9,zh-CN;q=0.8,zh;q=0.7","w3wjcj5pkb5crhz","41","[""White""]","No","Female","2063304.499999999","null","","<p></p>","null","choice","cdt","attraction_1","1","televisions","null","null","null","null","null","null","1","","","","","","","","","",""
"","","","","","choice_trial","survey-html-form","151","1941458","0.0-5.0-1.33","133","1","2025-04-14 14:01:36","bb671e3ae32f654b8954ea4c4635f915","","Mozilla/5.0 (Windows NT 10.0; Win64; x64) AppleWebKit/537.36 (KHTML, like Gecko) Chrome/126.0.0.0 Safari/537.36","WebKit","Chrome","126.0.0.0","Windows","10.0","https://hz8g1ckzuq.cognition.run/","en-US,en;q=0.9,zh-CN;q=0.8,zh;q=0.7","w3wjcj5pkb5crhz","41","[""White""]","No","Female","2063304.499999999","4147","","","{""product_choice"":""C""}","choice","cdt","attraction_1","1","televisions","null","null","null","null","null","null","1","60","50","60","50","60","45","Screen size","Average lifespan","",""
