"success","timeout","failed_images","failed_audio","failed_video","screen_id","trial_type","trial_index","time_elapsed","internal_node_id","run_id","condition","recorded_at","source_code_version","ip","user_agent","device","browser","browser_version","platform","platform_version","referer","accept_language","ppt_id","age","race","ethnicity","gender","exp_duration","rt","view_history","stimulus","response","phase","order","effect","t_high","category","d1_best","d2_best","d1_worst1","d2_worst1","d1_worst2","d2_worst2","first_dim","d1_t","d1_c","d1_d","d2_t","d2_c","d2_d","d1_name","d2_name","strategy_response","question_order"
"true","false","[]","[]","[]","img preload","preload","0","6893","0.0-0.0","135","1","2025-04-14 14:10:30","bb671e3ae32f654b8954ea4c4635f915","","Mozilla/5.0 (Windows NT 11.0; Win64; x64) AppleWebKit/537.36 (KHTML, like Gecko) Chrome/131.0.0.0 Safari/537.36","WebKit","Chrome","131.0.0.0","Windows","11.0","https://hz8g1ckzuq.cognition.run/","en,en-US;q=0.9","1qlpsxuh26gtmuv","22","[""White""]","No","Female","3508196.100000024","","","","","","","","","","","","","","","","","","","","","","","","","",""
"true","","","","","","fullscreen","1","17743","0.0-1.0","135","1","2025-04-14 14:10:30","bb671e3ae32f654b8954ea4c4635f915","","Mozilla/5.0 (Windows NT 11.0; Win64; x64) AppleWebKit/537.36 (KHTML, like Gecko) Chrome/131.0.0.0 Safari/537.36","WebKit","Chrome","131.0.0.0","Windows","11.0","https://hz8g1ckzuq.cognition.run/","en,en-US;q=0.9","1qlpsxuh26gtmuv","22","[""White""]","No","Female","3508196.100000024","9833","","","","","","","","","","","","","","","","","","","","","","","","",""
"","","","","","","instructions","2","222653","0.0-2.0","135","1","2025-04-14 14:10:30","bb671e3ae32f654b8954ea4c4635f915","","Mozilla/5.0 (Windows NT 11.0; Win64; x64) AppleWebKit/537.36 (KHTML, like Gecko) Chrome/131.0.0.0 Safari/537.36","WebKit","Chrome","131.0.0.0","Windows","11.0","https://hz8g1ckzuq.cognition.run/","en,en-US;q=0.9","1qlpsxuh26gtmuv","22","[""White""]","No","Female","3508196.100000024","204904","[{""page_index"":0,""viewing_time"":3497},{""page_index"":1,""viewing_time"":16717},{""page_index"":2,""viewing_time"":8483},{""page_index"":3,""viewing_time"":15480},{""page_index"":4,""viewing_time"":23028},{""page_index"":5,""viewing_time"":3155},{""page_index"":4,""viewing_time"":4835},{""page_index"":5,""viewing_time"":9812},{""page_index"":6,""viewing_time"":9766},{""page_index"":7,""viewing_time"":63863},{""page_index"":8,""viewing_time"":34401},{""page_index"":9,""viewing_time"":11866}]","","","","","","","","","","","","","","","","","","","","","","","",""
"","","","","","rating_trial_setup","html-keyboard-response","3","222979","0.0-3.0-0.0","135","1","2025-04-14 14:10:30","bb671e3ae32f654b8954ea4c4635f915","","Mozilla/5.0 (Windows NT 11.0; Win64; x64) AppleWebKit/537.36 (KHTML, like Gecko) Chrome/131.0.0.0 Safari/537.36","WebKit","Chrome","131.0.0.0","Windows","11.0","https://hz8g1ckzuq.cognition.run/","en,en-US;q=0.9","1qlpsxuh26gtmuv","22","[""White""]","No","Female","3508196.100000024","null","","<p></p>","null","rating","dtc","attraction_1","2","laptops","null","null","null","null","null","null","2","","","","","","","","","",""
"","","","","","rating_trial","survey-html-form","4","678162","0.0-3.0-1.0","135","1","2025-04-14 14:10:30","bb671e3ae32f654b8954ea4c4635f915","","Mozilla/5.0 (Windows NT 11.0; Win64; x64) AppleWebKit/537.36 (KHTML, like Gecko) Chrome/131.0.0.0 Safari/537.36","WebKit","Chrome","131.0.0.0","Windows","11.0","https://hz8g1ckzuq.cognition.run/","en,en-US;q=0.9","1qlpsxuh26gtmuv","22","[""White""]","No","Female","3508196.100000024","455163","","","{""price_1"":""1000"",""price_2"":""1200"",""price_3"":""900""}","rating","dtc","attraction_1","2","laptops","null","null","null","null","null","null","2","50","60","45","60","50","60","Processing speed","Memory (RAM)","",""
"","","","","","rating_trial_setup","html-keyboard-response","5","678471","0.0-3.0-0.1","135","1","2025-04-14 14:10:30","bb671e3ae32f654b8954ea4c4635f915","","Mozilla/5.0 (Windows NT 11.0; Win64; x64) AppleWebKit/537.36 (KHTML, like Gecko) Chrome/131.0.0.0 Safari/537.36","WebKit","Chrome","131.0.0.0","Windows","11.0","https://hz8g1ckzuq.cognition.run/","en,en-US;q=0.9","1qlpsxuh26gtmuv","22","[""White""]","No","Female","3508196.100000024","null","","<p></p>","null","rating","tdc","repulsion_1","1","microwave ovens","null","null","null","null","null","null","2","","","","","","","","","",""
"","","","","","rating_trial","survey-html-form","6","805024","0.0-3.0-1.1","135","1","2025-04-14 14:10:30","bb671e3ae32f654b8954ea4c4635f915","","Mozilla/5.0 (Windows NT 11.0; Win64; x64) AppleWebKit/537.36 (KHTML, like Gecko) Chrome/131.0.0.0 Safari/537.36","WebKit","Chrome","131.0.0.0","Windows","11.0","https://hz8g1ckzuq.cognition.run/","en,en-US;q=0.9","1qlpsxuh26gtmuv","22","[""White""]","No","Female","3508196.100000024","126545","","","{""price_1"":""50"",""price_2"":""45"",""price_3"":""60""}","rating","tdc","repulsion_1","1","microwave ovens","null","null","null","null","null","null","2","100","90","100","30","40","25","Warranty","Cooking power","",""
"","","","","","rating_trial_setup","html-keyboard-response","7","805337","0.0-3.0-0.2","135","1","2025-04-14 14:10:30","bb671e3ae32f654b8954ea4c4635f915","","Mozilla/5.0 (Windows NT 11.0; Win64; x64) AppleWebKit/537.36 (KHTML, like Gecko) Chrome/131.0.0.0 Safari/537.36","WebKit","Chrome","131.0.0.0","Windows","11.0","https://hz8g1ckzuq.cognition.run/","en,en-US;q=0.9","1qlpsxuh26gtmuv","22","[""White""]","No","Female","3508196.100000024","null","","<p></p>","null","rating","dtc","repulsion_2","2","washing machines","null","null","null","null","null","null","1","","","","","","","","","",""
"","","","","","rating_trial","survey-html-form","8","1037067","0.0-3.0-1.2","135","1","2025-04-14 14:10:30","bb671e3ae32f654b8954ea4c4635f915","","Mozilla/5.0 (Windows NT 11.0; Win64; x64) AppleWebKit/537.36 (KHTML, like Gecko) Chrome/131.0.0.0 Safari/537.36","WebKit","Chrome","131.0.0.0","Windows","11.0","https://hz8g1ckzuq.cognition.run/","en,en-US;q=0.9","1qlpsxuh26gtmuv","22","[""White""]","No","Female","3508196.100000024","231720","","","{""price_1"":""450"",""price_2"":""600"",""price_3"":""750""}","rating","dtc","repulsion_2","2","washing machines","null","null","null","null","null","null","1","30","40","20","100","90","100","Average lifespan","Energy savings","",""
"","","","","","rating_trial_setup","html-keyboard-response","9","1037381","0.0-3.0-0.3","135","1","2025-04-14 14:10:30","bb671e3ae32f654b8954ea4c4635f915","","Mozilla/5.0 (Windows NT 11.0; Win64; x64) AppleWebKit/537.36 (KHTML, like Gecko) Chrome/131.0.0.0 Safari/537.36","WebKit","Chrome","131.0.0.0","Windows","11.0","https://hz8g1ckzuq.cognition.run/","en,en-US;q=0.9","1qlpsxuh26gtmuv","22","[""White""]","No","Female","3508196.100000024","null","","<p></p>","null","rating","cdt","repulsion_1","2","washing machines","null","null","null","null","null","null","1","","","","","","","","","",""
"","","","","","rating_trial","survey-html-form","10","1230657","0.0-3.0-1.3","135","1","2025-04-14 14:10:30","bb671e3ae32f654b8954ea4c4635f915","","Mozilla/5.0 (Windows NT 11.0; Win64; x64) AppleWebKit/537.36 (KHTML, like Gecko) Chrome/131.0.0.0 Safari/537.36","WebKit","Chrome","131.0.0.0","Windows","11.0","https://hz8g1ckzuq.cognition.run/","en,en-US;q=0.9","1qlpsxuh26gtmuv","22","[""White""]","No","Female","3508196.100000024","193261","","","{""price_1"":""75"",""price_2"":""600"",""price_3"":""650""}","rating","cdt","repulsion_1","2","washing machines","null","null","null","null","null","null","1","30","40","25","100","90","100","Average lifespan","Energy savings","",""
"","","","","","rating_trial_setup","html-keyboard-response","11","1230977","0.0-3.0-0.4","135","1","2025-04-14 14:10:30","bb671e3ae32f654b8954ea4c4635f915","","Mozilla/5.0 (Windows NT 11.0; Win64; x64) AppleWebKit/537.36 (KHTML, like Gecko) Chrome/131.0.0.0 Safari/537.36","WebKit","Chrome","131.0.0.0","Windows","11.0","https://hz8g1ckzuq.cognition.run/","en,en-US;q=0.9","1qlpsxuh26gtmuv","22","[""White""]","No","Female","3508196.100000024","null","","<p></p>","null","rating","tcd","attraction_1","2","microwave ovens","null","null","null","null","null","null","2","","","","","","","","","",""
"","","","","","rating_trial","survey-html-form","12","1606337","0.0-3.0-1.4","135","1","2025-04-14 14:10:30","bb671e3ae32f654b8954ea4c4635f915","","Mozilla/5.0 (Windows NT 11.0; Win64; x64) AppleWebKit/537.36 (KHTML, like Gecko) Chrome/131.0.0.0 Safari/537.36","WebKit","Chrome","131.0.0.0","Windows","11.0","https://hz8g1ckzuq.cognition.run/","en,en-US;q=0.9","1qlpsxuh26gtmuv","22","[""White""]","No","Female","3508196.100000024","375351","","","{""price_1"":""80"",""price_2"":""60"",""price_3"":""90""}","rating","tcd","attraction_1","2","microwave ovens","null","null","null","null","null","null","2","50","60","45","60","50","60","Warranty","Cooking power","",""
"","","","","","rating_trial_setup","html-keyboard-response","13","1606656","0.0-3.0-0.5","135","1","2025-04-14 14:10:30","bb671e3ae32f654b8954ea4c4635f915","","Mozilla/5.0 (Windows NT 11.0; Win64; x64) AppleWebKit/537.36 (KHTML, like Gecko) Chrome/131.0.0.0 Safari/537.36","WebKit","Chrome","131.0.0.0","Windows","11.0","https://hz8g1ckzuq.cognition.run/","en,en-US;q=0.9","1qlpsxuh26gtmuv","22","[""White""]","No","Female","3508196.100000024","null","","<p></p>","null","rating","bww","catch","null","washing machines","65","50","10","45","50","50","1","","","","","","","","","",""
"","","","","","rating_trial","survey-html-form","14","1773582","0.0-3.0-1.5","135","1","2025-04-14 14:10:30","bb671e3ae32f654b8954ea4c4635f915","","Mozilla/5.0 (Windows NT 11.0; Win64; x64) AppleWebKit/537.36 (KHTML, like Gecko) Chrome/131.0.0.0 Safari/537.36","WebKit","Chrome","131.0.0.0","Windows","11.0","https://hz8g1ckzuq.cognition.run/","en,en-US;q=0.9","1qlpsxuh26gtmuv","22","[""White""]","No","Female","3508196.100000024","166912","","","{""price_1"":""850"",""price_2"":""400"",""price_3"":""650""}","rating","bww","catch","null","washing machines","65","50","10","45","50","50","1","null","null","null","null","null","null","Average lifespan","Energy savings","",""
"","","","","","rating_trial_setup","html-keyboard-response","15","1773895","0.0-3.0-0.6","135","1","2025-04-14 14:10:30","bb671e3ae32f654b8954ea4c4635f915","","Mozilla/5.0 (Windows NT 11.0; Win64; x64) AppleWebKit/537.36 (KHTML, like Gecko) Chrome/131.0.0.0 Safari/537.36","WebKit","Chrome","131.0.0.0","Windows","11.0","https://hz8g1ckzuq.cognition.run/","en,en-US;q=0.9","1qlpsxuh26gtmuv","22","[""White""]","No","Female","3508196.100000024","null","","<p></p>","null","rating","dct","repulsion_1","2","televisions","null","null","null","null","null","null","2","","","","","","","","","",""
"","","","","","rating_trial","survey-html-form","16","1958119","0.0-3.0-1.6","135","1","2025-04-14 14:10:30","bb671e3ae32f654b8954ea4c4635f915","","Mozilla/5.0 (Windows NT 11.0; Win64; x64) AppleWebKit/537.36 (KHTML, like Gecko) Chrome/131.0.0.0 Safari/537.36","WebKit","Chrome","131.0.0.0","Windows","11.0","https://hz8g1ckzuq.cognition.run/","en,en-US;q=0.9","1qlpsxuh26gtmuv","22","[""White""]","No","Female","3508196.100000024","184212","","","{""price_1"":""450"",""price_2"":""600"",""price_3"":""650""}","rating","dct","repulsion_1","2","televisions","null","null","null","null","null","null","2","30","40","25","100","90","100","Screen size","Average lifespan","",""
"","","","","","rating_trial_setup","html-keyboard-response","17","1958437","0.0-3.0-0.7","135","1","2025-04-14 14:10:30","bb671e3ae32f654b8954ea4c4635f915","","Mozilla/5.0 (Windows NT 11.0; Win64; x64) AppleWebKit/537.36 (KHTML, like Gecko) Chrome/131.0.0.0 Safari/537.36","WebKit","Chrome","131.0.0.0","Windows","11.0","https://hz8g1ckzuq.cognition.run/","en,en-US;q=0.9","1qlpsxuh26gtmuv","22","[""White""]","No","Female","3508196.100000024","null","","<p></p>","null","rating","tdc","attraction_1","1","televisions","null","null","null","null","null","null","2","","","","","","","","","",""
"","","","","","rating_trial","survey-html-form","18","2052648","0.0-3.0-1.7","135","1","2025-04-14 14:10:30","bb671e3ae32f654b8954ea4c4635f915","","Mozilla/5.0 (Windows NT 11.0; Win64; x64) AppleWebKit/537.36 (KHTML, like Gecko) Chrome/131.0.0.0 Safari/537.36","WebKit","Chrome","131.0.0.0","Windows","11.0","https://hz8g1ckzuq.cognition.run/","en,en-US;q=0.9","1qlpsxuh26gtmuv","22","[""White""]","No","Female","3508196.100000024","94200","","","{""price_1"":""750"",""price_2"":""600"",""price_3"":""500""}","rating","tdc","attraction_1","1","televisions","null","null","null","null","null","null","2","60","50","60","50","60","45","Screen size","Average lifespan","",""
"","","","","","rating_trial_setup","html-keyboard-response","19","2052963","0.0-3.0-0.8","135","1","2025-04-14 14:10:30","bb671e3ae32f654b8954ea4c4635f915","","Mozilla/5.0 (Windows NT 11.0; Win64; x64) AppleWebKit/537.36 (KHTML, like Gecko) Chrome/131.0.0.0 Safari/537.36","WebKit","Chrome","131.0.0.0","Windows","11.0","https://hz8g1ckzuq.cognition.run/","en,en-US;q=0.9","1qlpsxuh26gtmuv","22","[""White""]","No","Female","3508196.100000024","null","","<p></p>","null","rating","dtc","repulsion_2","2","microwave ovens","null","null","null","null","null","null","1","","","","","","","","","",""
"","","","","","rating_trial","survey-html-form","20","2081609","0.0-3.0-1.8","135","1","2025-04-14 14:10:30","bb671e3ae32f654b8954ea4c4635f915","","Mozilla/5.0 (Windows NT 11.0; Win64; x64) AppleWebKit/537.36 (KHTML, like Gecko) Chrome/131.0.0.0 Safari/537.36","WebKit","Chrome","131.0.0.0","Windows","11.0","https://hz8g1ckzuq.cognition.run/","en,en-US;q=0.9","1qlpsxuh26gtmuv","22","[""White""]","No","Female","3508196.100000024","28636","","","{""price_1"":""100"",""price_2"":""130"",""price_3"":""120""}","rating","dtc","repulsion_2","2","microwave ovens","null","null","null","null","null","null","1","30","40","20","100","90","100","Warranty","Cooking power","",""
"","","","","","rating_trial_setup","html-keyboard-response","21","2081930","0.0-3.0-0.9","135","1","2025-04-14 14:10:30","bb671e3ae32f654b8954ea4c4635f915","","Mozilla/5.0 (Windows NT 11.0; Win64; x64) AppleWebKit/537.36 (KHTML, like Gecko) Chrome/131.0.0.0 Safari/537.36","WebKit","Chrome","131.0.0.0","Windows","11.0","https://hz8g1ckzuq.cognition.run/","en,en-US;q=0.9","1qlpsxuh26gtmuv","22","[""White""]","No","Female","3508196.100000024","null","","<p></p>","null","rating","wwb","catch","null","laptops","90","75","45","5","50","20","2","","","","","","","","","",""
"","","","","","rating_trial","survey-html-form","22","2131050","0.0-3.0-1.9","135","1","2025-04-14 14:10:30","bb671e3ae32f654b8954ea4c4635f915","","Mozilla/5.0 (Windows NT 11.0; Win64; x64) AppleWebKit/537.36 (KHTML, like Gecko) Chrome/131.0.0.0 Safari/537.36","WebKit","Chrome","131.0.0.0","Windows","11.0","https://hz8g1ckzuq.cognition.run/","en,en-US;q=0.9","1qlpsxuh26gtmuv","22","[""White""]","No","Female","3508196.100000024","49105","","","{""price_1"":""150"",""price_2"":""250"",""price_3"":""350""}","rating","wwb","catch","null","laptops","90","75","45","5","50","20","2","null","null","null","null","null","null","Processing speed","Memory (RAM)","",""
"","","","","","rating_trial_setup","html-keyboard-response","23","2131373","0.0-3.0-0.10","135","1","2025-04-14 14:10:30","bb671e3ae32f654b8954ea4c4635f915","","Mozilla/5.0 (Windows NT 11.0; Win64; x64) AppleWebKit/537.36 (KHTML, like Gecko) Chrome/131.0.0.0 Safari/537.36","WebKit","Chrome","131.0.0.0","Windows","11.0","https://hz8g1ckzuq.cognition.run/","en,en-US;q=0.9","1qlpsxuh26gtmuv","22","[""White""]","No","Female","3508196.100000024","null","","<p></p>","null","rating","wwb","catch","null","televisions","65","70","50","20","25","10","1","","","","","","","","","",""
"","","","","","rating_trial","survey-html-form","24","2192477","0.0-3.0-1.10","135","1","2025-04-14 14:10:30","bb671e3ae32f654b8954ea4c4635f915","","Mozilla/5.0 (Windows NT 11.0; Win64; x64) AppleWebKit/537.36 (KHTML, like Gecko) Chrome/131.0.0.0 Safari/537.36","WebKit","Chrome","131.0.0.0","Windows","11.0","https://hz8g1ckzuq.cognition.run/","en,en-US;q=0.9","1qlpsxuh26gtmuv","22","[""White""]","No","Female","3508196.100000024","61091","","","{""price_1"":""300"",""price_2"":""250"",""price_3"":""400""}","rating","wwb","catch","null","televisions","65","70","50","20","25","10","1","null","null","null","null","null","null","Screen size","Average lifespan","",""
"","","","","","rating_trial_setup","html-keyboard-response","25","2192792","0.0-3.0-0.11","135","1","2025-04-14 14:10:30","bb671e3ae32f654b8954ea4c4635f915","","Mozilla/5.0 (Windows NT 11.0; Win64; x64) AppleWebKit/537.36 (KHTML, like Gecko) Chrome/131.0.0.0 Safari/537.36","WebKit","Chrome","131.0.0.0","Windows","11.0","https://hz8g1ckzuq.cognition.run/","en,en-US;q=0.9","1qlpsxuh26gtmuv","22","[""White""]","No","Female","3508196.100000024","null","","<p></p>","null","rating","dtc","attraction_2","2","laptops","null","null","null","null","null","null","1","","","","","","","","","",""
"","","","","","rating_trial","survey-html-form","26","2229566","0.0-3.0-1.11","135","1","2025-04-14 14:10:30","bb671e3ae32f654b8954ea4c4635f915","","Mozilla/5.0 (Windows NT 11.0; Win64; x64) AppleWebKit/537.36 (KHTML, like Gecko) Chrome/131.0.0.0 Safari/537.36","WebKit","Chrome","131.0.0.0","Windows","11.0","https://hz8g1ckzuq.cognition.run/","en,en-US;q=0.9","1qlpsxuh26gtmuv","22","[""White""]","No","Female","3508196.100000024","36763","","","{""price_1"":""500"",""price_2"":""700"",""price_3"":""800""}","rating","dtc","attraction_2","2","laptops","null","null","null","null","null","null","1","50","60","40","60","50","60","Processing speed","Memory (RAM)","",""
"","","","","","rating_trial_setup","html-keyboard-response","27","2229881","0.0-3.0-0.12","135","1","2025-04-14 14:10:30","bb671e3ae32f654b8954ea4c4635f915","","Mozilla/5.0 (Windows NT 11.0; Win64; x64) AppleWebKit/537.36 (KHTML, like Gecko) Chrome/131.0.0.0 Safari/537.36","WebKit","Chrome","131.0.0.0","Windows","11.0","https://hz8g1ckzuq.cognition.run/","en,en-US;q=0.9","1qlpsxuh26gtmuv","22","[""White""]","No","Female","3508196.100000024","null","","<p></p>","null","rating","dtc","repulsion_2","1","washing machines","null","null","null","null","null","null","1","","","","","","","","","",""
"","","","","","rating_trial","survey-html-form","28","2294802","0.0-3.0-1.12","135","1","2025-04-14 14:10:30","bb671e3ae32f654b8954ea4c4635f915","","Mozilla/5.0 (Windows NT 11.0; Win64; x64) AppleWebKit/537.36 (KHTML, like Gecko) Chrome/131.0.0.0 Safari/537.36","WebKit","Chrome","131.0.0.0","Windows","11.0","https://hz8g1ckzuq.cognition.run/","en,en-US;q=0.9","1qlpsxuh26gtmuv","22","[""White""]","No","Female","3508196.100000024","64911","","","{""price_1"":""300"",""price_2"":""400"",""price_3"":""450""}","rating","dtc","repulsion_2","1","washing machines","null","null","null","null","null","null","1","100","90","100","30","40","20","Average lifespan","Energy savings","",""
"","","","","","rating_trial_setup","html-keyboard-response","29","2295124","0.0-3.0-0.13","135","1","2025-04-14 14:10:30","bb671e3ae32f654b8954ea4c4635f915","","Mozilla/5.0 (Windows NT 11.0; Win64; x64) AppleWebKit/537.36 (KHTML, like Gecko) Chrome/131.0.0.0 Safari/537.36","WebKit","Chrome","131.0.0.0","Windows","11.0","https://hz8g1ckzuq.cognition.run/","en,en-US;q=0.9","1qlpsxuh26gtmuv","22","[""White""]","No","Female","3508196.100000024","null","","<p></p>","null","rating","dtc","repulsion_2","2","laptops","null","null","null","null","null","null","2","","","","","","","","","",""
"","","","","","rating_trial","survey-html-form","30","2327035","0.0-3.0-1.13","135","1","2025-04-14 14:10:30","bb671e3ae32f654b8954ea4c4635f915","","Mozilla/5.0 (Windows NT 11.0; Win64; x64) AppleWebKit/537.36 (KHTML, like Gecko) Chrome/131.0.0.0 Safari/537.36","WebKit","Chrome","131.0.0.0","Windows","11.0","https://hz8g1ckzuq.cognition.run/","en,en-US;q=0.9","1qlpsxuh26gtmuv","22","[""White""]","No","Female","3508196.100000024","31900","","","{""price_1"":""900"",""price_2"":""1000"",""price_3"":""850""}","rating","dtc","repulsion_2","2","laptops","null","null","null","null","null","null","2","30","40","20","100","90","100","Processing speed","Memory (RAM)","",""
"","","","","","rating_trial_setup","html-keyboard-response","31","2327354","0.0-3.0-0.14","135","1","2025-04-14 14:10:30","bb671e3ae32f654b8954ea4c4635f915","","Mozilla/5.0 (Windows NT 11.0; Win64; x64) AppleWebKit/537.36 (KHTML, like Gecko) Chrome/131.0.0.0 Safari/537.36","WebKit","Chrome","131.0.0.0","Windows","11.0","https://hz8g1ckzuq.cognition.run/","en,en-US;q=0.9","1qlpsxuh26gtmuv","22","[""White""]","No","Female","3508196.100000024","null","","<p></p>","null","rating","tdc","attraction_1","2","televisions","null","null","null","null","null","null","1","","","","","","","","","",""
"","","","","","rating_trial","survey-html-form","32","2355689","0.0-3.0-1.14","135","1","2025-04-14 14:10:30","bb671e3ae32f654b8954ea4c4635f915","","Mozilla/5.0 (Windows NT 11.0; Win64; x64) AppleWebKit/537.36 (KHTML, like Gecko) Chrome/131.0.0.0 Safari/537.36","WebKit","Chrome","131.0.0.0","Windows","11.0","https://hz8g1ckzuq.cognition.run/","en,en-US;q=0.9","1qlpsxuh26gtmuv","22","[""White""]","No","Female","3508196.100000024","28324","","","{""price_1"":""600"",""price_2"":""550"",""price_3"":""700""}","rating","tdc","attraction_1","2","televisions","null","null","null","null","null","null","1","50","60","45","60","50","60","Screen size","Average lifespan","",""
"","","","","","rating_trial_setup","html-keyboard-response","33","2356009","0.0-3.0-0.15","135","1","2025-04-14 14:10:30","bb671e3ae32f654b8954ea4c4635f915","","Mozilla/5.0 (Windows NT 11.0; Win64; x64) AppleWebKit/537.36 (KHTML, like Gecko) Chrome/131.0.0.0 Safari/537.36","WebKit","Chrome","131.0.0.0","Windows","11.0","https://hz8g1ckzuq.cognition.run/","en,en-US;q=0.9","1qlpsxuh26gtmuv","22","[""White""]","No","Female","3508196.100000024","null","","<p></p>","null","rating","cdt","attraction_2","2","washing machines","null","null","null","null","null","null","2","","","","","","","","","",""
"","","","","","rating_trial","survey-html-form","34","2393730","0.0-3.0-1.15","135","1","2025-04-14 14:10:30","bb671e3ae32f654b8954ea4c4635f915","","Mozilla/5.0 (Windows NT 11.0; Win64; x64) AppleWebKit/537.36 (KHTML, like Gecko) Chrome/131.0.0.0 Safari/537.36","WebKit","Chrome","131.0.0.0","Windows","11.0","https://hz8g1ckzuq.cognition.run/","en,en-US;q=0.9","1qlpsxuh26gtmuv","22","[""White""]","No","Female","3508196.100000024","37703","","","{""price_1"":""800"",""price_2"":""600"",""price_3"":""700""}","rating","cdt","attraction_2","2","washing machines","null","null","null","null","null","null","2","50","60","40","60","50","60","Average lifespan","Energy savings","",""
"","","","","","rating_trial_setup","html-keyboard-response","35","2394047","0.0-3.0-0.16","135","1","2025-04-14 14:10:30","bb671e3ae32f654b8954ea4c4635f915","","Mozilla/5.0 (Windows NT 11.0; Win64; x64) AppleWebKit/537.36 (KHTML, like Gecko) Chrome/131.0.0.0 Safari/537.36","WebKit","Chrome","131.0.0.0","Windows","11.0","https://hz8g1ckzuq.cognition.run/","en,en-US;q=0.9","1qlpsxuh26gtmuv","22","[""White""]","No","Female","3508196.100000024","null","","<p></p>","null","rating","dct","repulsion_1","1","televisions","null","null","null","null","null","null","1","","","","","","","","","",""
"","","","","","rating_trial","survey-html-form","36","2416464","0.0-3.0-1.16","135","1","2025-04-14 14:10:30","bb671e3ae32f654b8954ea4c4635f915","","Mozilla/5.0 (Windows NT 11.0; Win64; x64) AppleWebKit/537.36 (KHTML, like Gecko) Chrome/131.0.0.0 Safari/537.36","WebKit","Chrome","131.0.0.0","Windows","11.0","https://hz8g1ckzuq.cognition.run/","en,en-US;q=0.9","1qlpsxuh26gtmuv","22","[""White""]","No","Female","3508196.100000024","22402","","","{""price_1"":""700"",""price_2"":""1100"",""price_3"":""800""}","rating","dct","repulsion_1","1","televisions","null","null","null","null","null","null","1","100","90","100","30","40","25","Screen size","Average lifespan","",""
"","","","","","rating_trial_setup","html-keyboard-response","37","2416786","0.0-3.0-0.17","135","1","2025-04-14 14:10:30","bb671e3ae32f654b8954ea4c4635f915","","Mozilla/5.0 (Windows NT 11.0; Win64; x64) AppleWebKit/537.36 (KHTML, like Gecko) Chrome/131.0.0.0 Safari/537.36","WebKit","Chrome","131.0.0.0","Windows","11.0","https://hz8g1ckzuq.cognition.run/","en,en-US;q=0.9","1qlpsxuh26gtmuv","22","[""White""]","No","Female","3508196.100000024","null","","<p></p>","null","rating","tdc","attraction_2","2","televisions","null","null","null","null","null","null","2","","","","","","","","","",""
"","","","","","rating_trial","survey-html-form","38","2438952","0.0-3.0-1.17","135","1","2025-04-14 14:10:30","bb671e3ae32f654b8954ea4c4635f915","","Mozilla/5.0 (Windows NT 11.0; Win64; x64) AppleWebKit/537.36 (KHTML, like Gecko) Chrome/131.0.0.0 Safari/537.36","WebKit","Chrome","131.0.0.0","Windows","11.0","https://hz8g1ckzuq.cognition.run/","en,en-US;q=0.9","1qlpsxuh26gtmuv","22","[""White""]","No","Female","3508196.100000024","22152","","","{""price_1"":""900"",""price_2"":""800"",""price_3"":""700""}","rating","tdc","attraction_2","2","televisions","null","null","null","null","null","null","2","50","60","40","60","50","60","Screen size","Average lifespan","",""
"","","","","","rating_trial_setup","html-keyboard-response","39","2439269","0.0-3.0-0.18","135","1","2025-04-14 14:10:30","bb671e3ae32f654b8954ea4c4635f915","","Mozilla/5.0 (Windows NT 11.0; Win64; x64) AppleWebKit/537.36 (KHTML, like Gecko) Chrome/131.0.0.0 Safari/537.36","WebKit","Chrome","131.0.0.0","Windows","11.0","https://hz8g1ckzuq.cognition.run/","en,en-US;q=0.9","1qlpsxuh26gtmuv","22","[""White""]","No","Female","3508196.100000024","null","","<p></p>","null","rating","tdc","attraction_2","1","washing machines","null","null","null","null","null","null","2","","","","","","","","","",""
"","","","","","rating_trial","survey-html-form","40","2459169","0.0-3.0-1.18","135","1","2025-04-14 14:10:30","bb671e3ae32f654b8954ea4c4635f915","","Mozilla/5.0 (Windows NT 11.0; Win64; x64) AppleWebKit/537.36 (KHTML, like Gecko) Chrome/131.0.0.0 Safari/537.36","WebKit","Chrome","131.0.0.0","Windows","11.0","https://hz8g1ckzuq.cognition.run/","en,en-US;q=0.9","1qlpsxuh26gtmuv","22","[""White""]","No","Female","3508196.100000024","19888","","","{""price_1"":""600"",""price_2"":""700"",""price_3"":""750""}","rating","tdc","attraction_2","1","washing machines","null","null","null","null","null","null","2","60","50","60","50","60","40","Average lifespan","Energy savings","",""
"","","","","","rating_trial_setup","html-keyboard-response","41","2459492","0.0-3.0-0.19","135","1","2025-04-14 14:10:30","bb671e3ae32f654b8954ea4c4635f915","","Mozilla/5.0 (Windows NT 11.0; Win64; x64) AppleWebKit/537.36 (KHTML, like Gecko) Chrome/131.0.0.0 Safari/537.36","WebKit","Chrome","131.0.0.0","Windows","11.0","https://hz8g1ckzuq.cognition.run/","en,en-US;q=0.9","1qlpsxuh26gtmuv","22","[""White""]","No","Female","3508196.100000024","null","","<p></p>","null","rating","wbw","catch","null","microwave ovens","85","65","5","15","35","20","2","","","","","","","","","",""
"","","","","","rating_trial","survey-html-form","42","2517505","0.0-3.0-1.19","135","1","2025-04-14 14:10:30","bb671e3ae32f654b8954ea4c4635f915","","Mozilla/5.0 (Windows NT 11.0; Win64; x64) AppleWebKit/537.36 (KHTML, like Gecko) Chrome/131.0.0.0 Safari/537.36","WebKit","Chrome","131.0.0.0","Windows","11.0","https://hz8g1ckzuq.cognition.run/","en,en-US;q=0.9","1qlpsxuh26gtmuv","22","[""White""]","No","Female","3508196.100000024","57999","","","{""price_1"":""250"",""price_2"":""500"",""price_3"":""400""}","rating","wbw","catch","null","microwave ovens","85","65","5","15","35","20","2","null","null","null","null","null","null","Warranty","Cooking power","",""
"","","","","","rating_trial_setup","html-keyboard-response","43","2517830","0.0-3.0-0.20","135","1","2025-04-14 14:10:30","bb671e3ae32f654b8954ea4c4635f915","","Mozilla/5.0 (Windows NT 11.0; Win64; x64) AppleWebKit/537.36 (KHTML, like Gecko) Chrome/131.0.0.0 Safari/537.36","WebKit","Chrome","131.0.0.0","Windows","11.0","https://hz8g1ckzuq.cognition.run/","en,en-US;q=0.9","1qlpsxuh26gtmuv","22","[""White""]","No","Female","3508196.100000024","null","","<p></p>","null","rating","tcd","repulsion_2","1","televisions","null","null","null","null","null","null","1","","","","","","","","","",""
"","","","","","rating_trial","survey-html-form","44","2547086","0.0-3.0-1.20","135","1","2025-04-14 14:10:30","bb671e3ae32f654b8954ea4c4635f915","","Mozilla/5.0 (Windows NT 11.0; Win64; x64) AppleWebKit/537.36 (KHTML, like Gecko) Chrome/131.0.0.0 Safari/537.36","WebKit","Chrome","131.0.0.0","Windows","11.0","https://hz8g1ckzuq.cognition.run/","en,en-US;q=0.9","1qlpsxuh26gtmuv","22","[""White""]","No","Female","3508196.100000024","29242","","","{""price_1"":""700"",""price_2"":""600"",""price_3"":""550""}","rating","tcd","repulsion_2","1","televisions","null","null","null","null","null","null","1","100","90","100","30","40","20","Screen size","Average lifespan","",""
"","","","","","rating_trial_setup","html-keyboard-response","45","2547405","0.0-3.0-0.21","135","1","2025-04-14 14:10:30","bb671e3ae32f654b8954ea4c4635f915","","Mozilla/5.0 (Windows NT 11.0; Win64; x64) AppleWebKit/537.36 (KHTML, like Gecko) Chrome/131.0.0.0 Safari/537.36","WebKit","Chrome","131.0.0.0","Windows","11.0","https://hz8g1ckzuq.cognition.run/","en,en-US;q=0.9","1qlpsxuh26gtmuv","22","[""White""]","No","Female","3508196.100000024","null","","<p></p>","null","rating","dtc","attraction_2","1","televisions","null","null","null","null","null","null","1","","","","","","","","","",""
"","","","","","rating_trial","survey-html-form","46","2567621","0.0-3.0-1.21","135","1","2025-04-14 14:10:30","bb671e3ae32f654b8954ea4c4635f915","","Mozilla/5.0 (Windows NT 11.0; Win64; x64) AppleWebKit/537.36 (KHTML, like Gecko) Chrome/131.0.0.0 Safari/537.36","WebKit","Chrome","131.0.0.0","Windows","11.0","https://hz8g1ckzuq.cognition.run/","en,en-US;q=0.9","1qlpsxuh26gtmuv","22","[""White""]","No","Female","3508196.100000024","20203","","","{""price_1"":""800"",""price_2"":""700"",""price_3"":""750""}","rating","dtc","attraction_2","1","televisions","null","null","null","null","null","null","1","60","50","60","50","60","40","Screen size","Average lifespan","",""
"","","","","","rating_trial_setup","html-keyboard-response","47","2567942","0.0-3.0-0.22","135","1","2025-04-14 14:10:30","bb671e3ae32f654b8954ea4c4635f915","","Mozilla/5.0 (Windows NT 11.0; Win64; x64) AppleWebKit/537.36 (KHTML, like Gecko) Chrome/131.0.0.0 Safari/537.36","WebKit","Chrome","131.0.0.0","Windows","11.0","https://hz8g1ckzuq.cognition.run/","en,en-US;q=0.9","1qlpsxuh26gtmuv","22","[""White""]","No","Female","3508196.100000024","null","","<p></p>","null","rating","bww","catch","null","microwave ovens","85","80","5","45","50","5","2","","","","","","","","","",""
"","","","","","rating_trial","survey-html-form","48","2603877","0.0-3.0-1.22","135","1","2025-04-14 14:10:30","bb671e3ae32f654b8954ea4c4635f915","","Mozilla/5.0 (Windows NT 11.0; Win64; x64) AppleWebKit/537.36 (KHTML, like Gecko) Chrome/131.0.0.0 Safari/537.36","WebKit","Chrome","131.0.0.0","Windows","11.0","https://hz8g1ckzuq.cognition.run/","en,en-US;q=0.9","1qlpsxuh26gtmuv","22","[""White""]","No","Female","3508196.100000024","35922","","","{""price_1"":""600"",""price_2"":""450"",""price_3"":""300""}","rating","bww","catch","null","microwave ovens","85","80","5","45","50","5","2","null","null","null","null","null","null","Warranty","Cooking power","",""
"","","","","","rating_trial_setup","html-keyboard-response","49","2604207","0.0-3.0-0.23","135","1","2025-04-14 14:10:30","bb671e3ae32f654b8954ea4c4635f915","","Mozilla/5.0 (Windows NT 11.0; Win64; x64) AppleWebKit/537.36 (KHTML, like Gecko) Chrome/131.0.0.0 Safari/537.36","WebKit","Chrome","131.0.0.0","Windows","11.0","https://hz8g1ckzuq.cognition.run/","en,en-US;q=0.9","1qlpsxuh26gtmuv","22","[""White""]","No","Female","3508196.100000024","null","","<p></p>","null","rating","wbw","catch","null","washing machines","55","90","35","40","40","10","1","","","","","","","","","",""
"","","","","","rating_trial","survey-html-form","50","2622012","0.0-3.0-1.23","135","1","2025-04-14 14:10:30","bb671e3ae32f654b8954ea4c4635f915","","Mozilla/5.0 (Windows NT 11.0; Win64; x64) AppleWebKit/537.36 (KHTML, like Gecko) Chrome/131.0.0.0 Safari/537.36","WebKit","Chrome","131.0.0.0","Windows","11.0","https://hz8g1ckzuq.cognition.run/","en,en-US;q=0.9","1qlpsxuh26gtmuv","22","[""White""]","No","Female","3508196.100000024","17793","","","{""price_1"":""700"",""price_2"":""800"",""price_3"":""750""}","rating","wbw","catch","null","washing machines","55","90","35","40","40","10","1","null","null","null","null","null","null","Average lifespan","Energy savings","",""
"","","","","","rating_trial_setup","html-keyboard-response","51","2622338","0.0-3.0-0.24","135","1","2025-04-14 14:10:30","bb671e3ae32f654b8954ea4c4635f915","","Mozilla/5.0 (Windows NT 11.0; Win64; x64) AppleWebKit/537.36 (KHTML, like Gecko) Chrome/131.0.0.0 Safari/537.36","WebKit","Chrome","131.0.0.0","Windows","11.0","https://hz8g1ckzuq.cognition.run/","en,en-US;q=0.9","1qlpsxuh26gtmuv","22","[""White""]","No","Female","3508196.100000024","null","","<p></p>","null","rating","dtc","repulsion_1","1","washing machines","null","null","null","null","null","null","2","","","","","","","","","",""
"","","","","","rating_trial","survey-html-form","52","2638881","0.0-3.0-1.24","135","1","2025-04-14 14:10:30","bb671e3ae32f654b8954ea4c4635f915","","Mozilla/5.0 (Windows NT 11.0; Win64; x64) AppleWebKit/537.36 (KHTML, like Gecko) Chrome/131.0.0.0 Safari/537.36","WebKit","Chrome","131.0.0.0","Windows","11.0","https://hz8g1ckzuq.cognition.run/","en,en-US;q=0.9","1qlpsxuh26gtmuv","22","[""White""]","No","Female","3508196.100000024","16529","","","{""price_1"":""600"",""price_2"":""750"",""price_3"":""950""}","rating","dtc","repulsion_1","1","washing machines","null","null","null","null","null","null","2","100","90","100","30","40","25","Average lifespan","Energy savings","",""
"","","","","","rating_trial_setup","html-keyboard-response","53","2639207","0.0-3.0-0.25","135","1","2025-04-14 14:10:30","bb671e3ae32f654b8954ea4c4635f915","","Mozilla/5.0 (Windows NT 11.0; Win64; x64) AppleWebKit/537.36 (KHTML, like Gecko) Chrome/131.0.0.0 Safari/537.36","WebKit","Chrome","131.0.0.0","Windows","11.0","https://hz8g1ckzuq.cognition.run/","en,en-US;q=0.9","1qlpsxuh26gtmuv","22","[""White""]","No","Female","3508196.100000024","null","","<p></p>","null","rating","bww","catch","null","laptops","85","70","50","10","25","30","1","","","","","","","","","",""
"","","","","","rating_trial","survey-html-form","54","2662542","0.0-3.0-1.25","135","1","2025-04-14 14:10:30","bb671e3ae32f654b8954ea4c4635f915","","Mozilla/5.0 (Windows NT 11.0; Win64; x64) AppleWebKit/537.36 (KHTML, like Gecko) Chrome/131.0.0.0 Safari/537.36","WebKit","Chrome","131.0.0.0","Windows","11.0","https://hz8g1ckzuq.cognition.run/","en,en-US;q=0.9","1qlpsxuh26gtmuv","22","[""White""]","No","Female","3508196.100000024","23324","","","{""price_1"":""1200"",""price_2"":""900"",""price_3"":""700""}","rating","bww","catch","null","laptops","85","70","50","10","25","30","1","null","null","null","null","null","null","Processing speed","Memory (RAM)","",""
"","","","","","rating_trial_setup","html-keyboard-response","55","2662860","0.0-3.0-0.26","135","1","2025-04-14 14:10:30","bb671e3ae32f654b8954ea4c4635f915","","Mozilla/5.0 (Windows NT 11.0; Win64; x64) AppleWebKit/537.36 (KHTML, like Gecko) Chrome/131.0.0.0 Safari/537.36","WebKit","Chrome","131.0.0.0","Windows","11.0","https://hz8g1ckzuq.cognition.run/","en,en-US;q=0.9","1qlpsxuh26gtmuv","22","[""White""]","No","Female","3508196.100000024","null","","<p></p>","null","rating","tcd","attraction_2","2","microwave ovens","null","null","null","null","null","null","2","","","","","","","","","",""
"","","","","","rating_trial","survey-html-form","56","2685313","0.0-3.0-1.26","135","1","2025-04-14 14:10:30","bb671e3ae32f654b8954ea4c4635f915","","Mozilla/5.0 (Windows NT 11.0; Win64; x64) AppleWebKit/537.36 (KHTML, like Gecko) Chrome/131.0.0.0 Safari/537.36","WebKit","Chrome","131.0.0.0","Windows","11.0","https://hz8g1ckzuq.cognition.run/","en,en-US;q=0.9","1qlpsxuh26gtmuv","22","[""White""]","No","Female","3508196.100000024","22439","","","{""price_1"":""700"",""price_2"":""650"",""price_3"":""450""}","rating","tcd","attraction_2","2","microwave ovens","null","null","null","null","null","null","2","50","60","40","60","50","60","Warranty","Cooking power","",""
"","","","","","rating_trial_setup","html-keyboard-response","57","2685632","0.0-3.0-0.27","135","1","2025-04-14 14:10:30","bb671e3ae32f654b8954ea4c4635f915","","Mozilla/5.0 (Windows NT 11.0; Win64; x64) AppleWebKit/537.36 (KHTML, like Gecko) Chrome/131.0.0.0 Safari/537.36","WebKit","Chrome","131.0.0.0","Windows","11.0","https://hz8g1ckzuq.cognition.run/","en,en-US;q=0.9","1qlpsxuh26gtmuv","22","[""White""]","No","Female","3508196.100000024","null","","<p></p>","null","rating","dtc","attraction_2","1","laptops","null","null","null","null","null","null","1","","","","","","","","","",""
"","","","","","rating_trial","survey-html-form","58","2703139","0.0-3.0-1.27","135","1","2025-04-14 14:10:30","bb671e3ae32f654b8954ea4c4635f915","","Mozilla/5.0 (Windows NT 11.0; Win64; x64) AppleWebKit/537.36 (KHTML, like Gecko) Chrome/131.0.0.0 Safari/537.36","WebKit","Chrome","131.0.0.0","Windows","11.0","https://hz8g1ckzuq.cognition.run/","en,en-US;q=0.9","1qlpsxuh26gtmuv","22","[""White""]","No","Female","3508196.100000024","17491","","","{""price_1"":""1000"",""price_2"":""900"",""price_3"":""750""}","rating","dtc","attraction_2","1","laptops","null","null","null","null","null","null","1","60","50","60","50","60","40","Processing speed","Memory (RAM)","",""
"","","","","","rating_trial_setup","html-keyboard-response","59","2703458","0.0-3.0-0.28","135","1","2025-04-14 14:10:30","bb671e3ae32f654b8954ea4c4635f915","","Mozilla/5.0 (Windows NT 11.0; Win64; x64) AppleWebKit/537.36 (KHTML, like Gecko) Chrome/131.0.0.0 Safari/537.36","WebKit","Chrome","131.0.0.0","Windows","11.0","https://hz8g1ckzuq.cognition.run/","en,en-US;q=0.9","1qlpsxuh26gtmuv","22","[""White""]","No","Female","3508196.100000024","null","","<p></p>","null","rating","cdt","repulsion_1","2","laptops","null","null","null","null","null","null","1","","","","","","","","","",""
"","","","","","rating_trial","survey-html-form","60","2734825","0.0-3.0-1.28","135","1","2025-04-14 14:10:30","bb671e3ae32f654b8954ea4c4635f915","","Mozilla/5.0 (Windows NT 11.0; Win64; x64) AppleWebKit/537.36 (KHTML, like Gecko) Chrome/131.0.0.0 Safari/537.36","WebKit","Chrome","131.0.0.0","Windows","11.0","https://hz8g1ckzuq.cognition.run/","en,en-US;q=0.9","1qlpsxuh26gtmuv","22","[""White""]","No","Female","3508196.100000024","31354","","","{""price_1"":""1300"",""price_2"":""1000"",""price_3"":""900""}","rating","cdt","repulsion_1","2","laptops","null","null","null","null","null","null","1","30","40","25","100","90","100","Processing speed","Memory (RAM)","",""
"","","","","","rating_trial_setup","html-keyboard-response","61","2735148","0.0-3.0-0.29","135","1","2025-04-14 14:10:30","bb671e3ae32f654b8954ea4c4635f915","","Mozilla/5.0 (Windows NT 11.0; Win64; x64) AppleWebKit/537.36 (KHTML, like Gecko) Chrome/131.0.0.0 Safari/537.36","WebKit","Chrome","131.0.0.0","Windows","11.0","https://hz8g1ckzuq.cognition.run/","en,en-US;q=0.9","1qlpsxuh26gtmuv","22","[""White""]","No","Female","3508196.100000024","null","","<p></p>","null","rating","dtc","attraction_1","1","microwave ovens","null","null","null","null","null","null","1","","","","","","","","","",""
"","","","","","rating_trial","survey-html-form","62","2759664","0.0-3.0-1.29","135","1","2025-04-14 14:10:30","bb671e3ae32f654b8954ea4c4635f915","","Mozilla/5.0 (Windows NT 11.0; Win64; x64) AppleWebKit/537.36 (KHTML, like Gecko) Chrome/131.0.0.0 Safari/537.36","WebKit","Chrome","131.0.0.0","Windows","11.0","https://hz8g1ckzuq.cognition.run/","en,en-US;q=0.9","1qlpsxuh26gtmuv","22","[""White""]","No","Female","3508196.100000024","24501","","","{""price_1"":""700"",""price_2"":""550"",""price_3"":""600""}","rating","dtc","attraction_1","1","microwave ovens","null","null","null","null","null","null","1","60","50","60","50","60","45","Warranty","Cooking power","",""
"","","","","","rating_trial_setup","html-keyboard-response","63","2759986","0.0-3.0-0.30","135","1","2025-04-14 14:10:30","bb671e3ae32f654b8954ea4c4635f915","","Mozilla/5.0 (Windows NT 11.0; Win64; x64) AppleWebKit/537.36 (KHTML, like Gecko) Chrome/131.0.0.0 Safari/537.36","WebKit","Chrome","131.0.0.0","Windows","11.0","https://hz8g1ckzuq.cognition.run/","en,en-US;q=0.9","1qlpsxuh26gtmuv","22","[""White""]","No","Female","3508196.100000024","null","","<p></p>","null","rating","cdt","repulsion_2","2","televisions","null","null","null","null","null","null","2","","","","","","","","","",""
"","","","","","rating_trial","survey-html-form","64","2780791","0.0-3.0-1.30","135","1","2025-04-14 14:10:30","bb671e3ae32f654b8954ea4c4635f915","","Mozilla/5.0 (Windows NT 11.0; Win64; x64) AppleWebKit/537.36 (KHTML, like Gecko) Chrome/131.0.0.0 Safari/537.36","WebKit","Chrome","131.0.0.0","Windows","11.0","https://hz8g1ckzuq.cognition.run/","en,en-US;q=0.9","1qlpsxuh26gtmuv","22","[""White""]","No","Female","3508196.100000024","20789","","","{""price_1"":""700"",""price_2"":""850"",""price_3"":""950""}","rating","cdt","repulsion_2","2","televisions","null","null","null","null","null","null","2","30","40","20","100","90","100","Screen size","Average lifespan","",""
"","","","","","rating_trial_setup","html-keyboard-response","65","2781110","0.0-3.0-0.31","135","1","2025-04-14 14:10:30","bb671e3ae32f654b8954ea4c4635f915","","Mozilla/5.0 (Windows NT 11.0; Win64; x64) AppleWebKit/537.36 (KHTML, like Gecko) Chrome/131.0.0.0 Safari/537.36","WebKit","Chrome","131.0.0.0","Windows","11.0","https://hz8g1ckzuq.cognition.run/","en,en-US;q=0.9","1qlpsxuh26gtmuv","22","[""White""]","No","Female","3508196.100000024","null","","<p></p>","null","rating","ctd","attraction_1","1","laptops","null","null","null","null","null","null","1","","","","","","","","","",""
"","","","","","rating_trial","survey-html-form","66","2824804","0.0-3.0-1.31","135","1","2025-04-14 14:10:30","bb671e3ae32f654b8954ea4c4635f915","","Mozilla/5.0 (Windows NT 11.0; Win64; x64) AppleWebKit/537.36 (KHTML, like Gecko) Chrome/131.0.0.0 Safari/537.36","WebKit","Chrome","131.0.0.0","Windows","11.0","https://hz8g1ckzuq.cognition.run/","en,en-US;q=0.9","1qlpsxuh26gtmuv","22","[""White""]","No","Female","3508196.100000024","43677","","","{""price_1"":""1200"",""price_2"":""1000"",""price_3"":""850""}","rating","ctd","attraction_1","1","laptops","null","null","null","null","null","null","1","60","50","60","50","60","45","Processing speed","Memory (RAM)","",""
"","","","","","rating_trial_setup","html-keyboard-response","67","2825124","0.0-3.0-0.32","135","1","2025-04-14 14:10:30","bb671e3ae32f654b8954ea4c4635f915","","Mozilla/5.0 (Windows NT 11.0; Win64; x64) AppleWebKit/537.36 (KHTML, like Gecko) Chrome/131.0.0.0 Safari/537.36","WebKit","Chrome","131.0.0.0","Windows","11.0","https://hz8g1ckzuq.cognition.run/","en,en-US;q=0.9","1qlpsxuh26gtmuv","22","[""White""]","No","Female","3508196.100000024","null","","<p></p>","null","rating","tcd","attraction_1","2","washing machines","null","null","null","null","null","null","1","","","","","","","","","",""
"","","","","","rating_trial","survey-html-form","68","2847816","0.0-3.0-1.32","135","1","2025-04-14 14:10:30","bb671e3ae32f654b8954ea4c4635f915","","Mozilla/5.0 (Windows NT 11.0; Win64; x64) AppleWebKit/537.36 (KHTML, like Gecko) Chrome/131.0.0.0 Safari/537.36","WebKit","Chrome","131.0.0.0","Windows","11.0","https://hz8g1ckzuq.cognition.run/","en,en-US;q=0.9","1qlpsxuh26gtmuv","22","[""White""]","No","Female","3508196.100000024","22678","","","{""price_1"":""950"",""price_2"":""800"",""price_3"":""850""}","rating","tcd","attraction_1","2","washing machines","null","null","null","null","null","null","1","50","60","45","60","50","60","Average lifespan","Energy savings","",""
"","","","","","rating_trial_setup","html-keyboard-response","69","2848143","0.0-3.0-0.33","135","1","2025-04-14 14:10:30","bb671e3ae32f654b8954ea4c4635f915","","Mozilla/5.0 (Windows NT 11.0; Win64; x64) AppleWebKit/537.36 (KHTML, like Gecko) Chrome/131.0.0.0 Safari/537.36","WebKit","Chrome","131.0.0.0","Windows","11.0","https://hz8g1ckzuq.cognition.run/","en,en-US;q=0.9","1qlpsxuh26gtmuv","22","[""White""]","No","Female","3508196.100000024","null","","<p></p>","null","rating","tdc","repulsion_1","1","laptops","null","null","null","null","null","null","1","","","","","","","","","",""
"","","","","","rating_trial","survey-html-form","70","2864788","0.0-3.0-1.33","135","1","2025-04-14 14:10:30","bb671e3ae32f654b8954ea4c4635f915","","Mozilla/5.0 (Windows NT 11.0; Win64; x64) AppleWebKit/537.36 (KHTML, like Gecko) Chrome/131.0.0.0 Safari/537.36","WebKit","Chrome","131.0.0.0","Windows","11.0","https://hz8g1ckzuq.cognition.run/","en,en-US;q=0.9","1qlpsxuh26gtmuv","22","[""White""]","No","Female","3508196.100000024","16627","","","{""price_1"":""1300"",""price_2"":""1200"",""price_3"":""900""}","rating","tdc","repulsion_1","1","laptops","null","null","null","null","null","null","1","100","90","100","30","40","25","Processing speed","Memory (RAM)","",""
"","","","","","rating_trial_setup","html-keyboard-response","71","2865112","0.0-3.0-0.34","135","1","2025-04-14 14:10:30","bb671e3ae32f654b8954ea4c4635f915","","Mozilla/5.0 (Windows NT 11.0; Win64; x64) AppleWebKit/537.36 (KHTML, like Gecko) Chrome/131.0.0.0 Safari/537.36","WebKit","Chrome","131.0.0.0","Windows","11.0","https://hz8g1ckzuq.cognition.run/","en,en-US;q=0.9","1qlpsxuh26gtmuv","22","[""White""]","No","Female","3508196.100000024","null","","<p></p>","null","rating","tdc","attraction_1","1","washing machines","null","null","null","null","null","null","2","","","","","","","","","",""
"","","","","","rating_trial","survey-html-form","72","2883421","0.0-3.0-1.34","135","1","2025-04-14 14:10:30","bb671e3ae32f654b8954ea4c4635f915","","Mozilla/5.0 (Windows NT 11.0; Win64; x64) AppleWebKit/537.36 (KHTML, like Gecko) Chrome/131.0.0.0 Safari/537.36","WebKit","Chrome","131.0.0.0","Windows","11.0","https://hz8g1ckzuq.cognition.run/","en,en-US;q=0.9","1qlpsxuh26gtmuv","22","[""White""]","No","Female","3508196.100000024","18291","","","{""price_1"":""900"",""price_2"":""800"",""price_3"":""1000""}","rating","tdc","attraction_1","1","washing machines","null","null","null","null","null","null","2","60","50","60","50","60","45","Average lifespan","Energy savings","",""
"","","","","","rating_trial_setup","html-keyboard-response","73","2883738","0.0-3.0-0.35","135","1","2025-04-14 14:10:30","bb671e3ae32f654b8954ea4c4635f915","","Mozilla/5.0 (Windows NT 11.0; Win64; x64) AppleWebKit/537.36 (KHTML, like Gecko) Chrome/131.0.0.0 Safari/537.36","WebKit","Chrome","131.0.0.0","Windows","11.0","https://hz8g1ckzuq.cognition.run/","en,en-US;q=0.9","1qlpsxuh26gtmuv","22","[""White""]","No","Female","3508196.100000024","null","","<p></p>","null","rating","cdt","repulsion_2","1","microwave ovens","null","null","null","null","null","null","2","","","","","","","","","",""
"","","","","","rating_trial","survey-html-form","74","2899487","0.0-3.0-1.35","135","1","2025-04-14 14:10:30","bb671e3ae32f654b8954ea4c4635f915","","Mozilla/5.0 (Windows NT 11.0; Win64; x64) AppleWebKit/537.36 (KHTML, like Gecko) Chrome/131.0.0.0 Safari/537.36","WebKit","Chrome","131.0.0.0","Windows","11.0","https://hz8g1ckzuq.cognition.run/","en,en-US;q=0.9","1qlpsxuh26gtmuv","22","[""White""]","No","Female","3508196.100000024","15734","","","{""price_1"":""700"",""price_2"":""600"",""price_3"":""650""}","rating","cdt","repulsion_2","1","microwave ovens","null","null","null","null","null","null","2","100","90","100","30","40","20","Warranty","Cooking power","",""
"","","","","","rating_trial_setup","html-keyboard-response","75","2899809","0.0-3.0-0.36","135","1","2025-04-14 14:10:30","bb671e3ae32f654b8954ea4c4635f915","","Mozilla/5.0 (Windows NT 11.0; Win64; x64) AppleWebKit/537.36 (KHTML, like Gecko) Chrome/131.0.0.0 Safari/537.36","WebKit","Chrome","131.0.0.0","Windows","11.0","https://hz8g1ckzuq.cognition.run/","en,en-US;q=0.9","1qlpsxuh26gtmuv","22","[""White""]","No","Female","3508196.100000024","null","","<p></p>","null","rating","tcd","repulsion_2","1","laptops","null","null","null","null","null","null","2","","","","","","","","","",""
"","","","","","rating_trial","survey-html-form","76","2930243","0.0-3.0-1.36","135","1","2025-04-14 14:10:30","bb671e3ae32f654b8954ea4c4635f915","","Mozilla/5.0 (Windows NT 11.0; Win64; x64) AppleWebKit/537.36 (KHTML, like Gecko) Chrome/131.0.0.0 Safari/537.36","WebKit","Chrome","131.0.0.0","Windows","11.0","https://hz8g1ckzuq.cognition.run/","en,en-US;q=0.9","1qlpsxuh26gtmuv","22","[""White""]","No","Female","3508196.100000024","30412","","","{""price_1"":""1000"",""price_2"":""1300"",""price_3"":""1200""}","rating","tcd","repulsion_2","1","laptops","null","null","null","null","null","null","2","100","90","100","30","40","20","Processing speed","Memory (RAM)","",""
"","","","","","rating_trial_setup","html-keyboard-response","77","2930560","0.0-3.0-0.37","135","1","2025-04-14 14:10:30","bb671e3ae32f654b8954ea4c4635f915","","Mozilla/5.0 (Windows NT 11.0; Win64; x64) AppleWebKit/537.36 (KHTML, like Gecko) Chrome/131.0.0.0 Safari/537.36","WebKit","Chrome","131.0.0.0","Windows","11.0","https://hz8g1ckzuq.cognition.run/","en,en-US;q=0.9","1qlpsxuh26gtmuv","22","[""White""]","No","Female","3508196.100000024","null","","<p></p>","null","rating","cdt","repulsion_1","2","microwave ovens","null","null","null","null","null","null","1","","","","","","","","","",""
"","","","","","rating_trial","survey-html-form","78","2972331","0.0-3.0-1.37","135","1","2025-04-14 14:10:30","bb671e3ae32f654b8954ea4c4635f915","","Mozilla/5.0 (Windows NT 11.0; Win64; x64) AppleWebKit/537.36 (KHTML, like Gecko) Chrome/131.0.0.0 Safari/537.36","WebKit","Chrome","131.0.0.0","Windows","11.0","https://hz8g1ckzuq.cognition.run/","en,en-US;q=0.9","1qlpsxuh26gtmuv","22","[""White""]","No","Female","3508196.100000024","41752","","","{""price_1"":""700"",""price_2"":""650"",""price_3"":""600""}","rating","cdt","repulsion_1","2","microwave ovens","null","null","null","null","null","null","1","30","40","25","100","90","100","Warranty","Cooking power","",""
"","","","","","rating_trial_setup","html-keyboard-response","79","2972653","0.0-3.0-0.38","135","1","2025-04-14 14:10:30","bb671e3ae32f654b8954ea4c4635f915","","Mozilla/5.0 (Windows NT 11.0; Win64; x64) AppleWebKit/537.36 (KHTML, like Gecko) Chrome/131.0.0.0 Safari/537.36","WebKit","Chrome","131.0.0.0","Windows","11.0","https://hz8g1ckzuq.cognition.run/","en,en-US;q=0.9","1qlpsxuh26gtmuv","22","[""White""]","No","Female","3508196.100000024","null","","<p></p>","null","rating","tdc","attraction_2","1","microwave ovens","null","null","null","null","null","null","1","","","","","","","","","",""
"","","","","","rating_trial","survey-html-form","80","2998688","0.0-3.0-1.38","135","1","2025-04-14 14:10:30","bb671e3ae32f654b8954ea4c4635f915","","Mozilla/5.0 (Windows NT 11.0; Win64; x64) AppleWebKit/537.36 (KHTML, like Gecko) Chrome/131.0.0.0 Safari/537.36","WebKit","Chrome","131.0.0.0","Windows","11.0","https://hz8g1ckzuq.cognition.run/","en,en-US;q=0.9","1qlpsxuh26gtmuv","22","[""White""]","No","Female","3508196.100000024","26018","","","{""price_1"":""700"",""price_2"":""650"",""price_3"":""750""}","rating","tdc","attraction_2","1","microwave ovens","null","null","null","null","null","null","1","60","50","60","50","60","40","Warranty","Cooking power","",""
"","","","","","rating_trial_setup","html-keyboard-response","81","2999016","0.0-3.0-0.39","135","1","2025-04-14 14:10:30","bb671e3ae32f654b8954ea4c4635f915","","Mozilla/5.0 (Windows NT 11.0; Win64; x64) AppleWebKit/537.36 (KHTML, like Gecko) Chrome/131.0.0.0 Safari/537.36","WebKit","Chrome","131.0.0.0","Windows","11.0","https://hz8g1ckzuq.cognition.run/","en,en-US;q=0.9","1qlpsxuh26gtmuv","22","[""White""]","No","Female","3508196.100000024","null","","<p></p>","null","rating","wbw","catch","null","televisions","65","65","50","50","20","30","2","","","","","","","","","",""
"","","","","","rating_trial","survey-html-form","82","3023954","0.0-3.0-1.39","135","1","2025-04-14 14:10:30","bb671e3ae32f654b8954ea4c4635f915","","Mozilla/5.0 (Windows NT 11.0; Win64; x64) AppleWebKit/537.36 (KHTML, like Gecko) Chrome/131.0.0.0 Safari/537.36","WebKit","Chrome","131.0.0.0","Windows","11.0","https://hz8g1ckzuq.cognition.run/","en,en-US;q=0.9","1qlpsxuh26gtmuv","22","[""White""]","No","Female","3508196.100000024","24920","","","{""price_1"":""800"",""price_2"":""900"",""price_3"":""750""}","rating","wbw","catch","null","televisions","65","65","50","50","20","30","2","null","null","null","null","null","null","Screen size","Average lifespan","",""
"","","","","","","instructions","83","3095972","0.0-4.0","135","1","2025-04-14 14:10:30","bb671e3ae32f654b8954ea4c4635f915","","Mozilla/5.0 (Windows NT 11.0; Win64; x64) AppleWebKit/537.36 (KHTML, like Gecko) Chrome/131.0.0.0 Safari/537.36","WebKit","Chrome","131.0.0.0","Windows","11.0","https://hz8g1ckzuq.cognition.run/","en,en-US;q=0.9","1qlpsxuh26gtmuv","22","[""White""]","No","Female","3508196.100000024","71997","[{""page_index"":0,""viewing_time"":3118},{""page_index"":1,""viewing_time"":1831},{""page_index"":2,""viewing_time"":5778},{""page_index"":3,""viewing_time"":6904},{""page_index"":4,""viewing_time"":1766},{""page_index"":5,""viewing_time"":830},{""page_index"":6,""viewing_time"":6695},{""page_index"":7,""viewing_time"":45075}]","","","","","","","","","","","","","","","","","","","","","","","",""
"","","","","","choice_trial_setup","html-keyboard-response","84","3096300","0.0-5.0-0.0","135","1","2025-04-14 14:10:30","bb671e3ae32f654b8954ea4c4635f915","","Mozilla/5.0 (Windows NT 11.0; Win64; x64) AppleWebKit/537.36 (KHTML, like Gecko) Chrome/131.0.0.0 Safari/537.36","WebKit","Chrome","131.0.0.0","Windows","11.0","https://hz8g1ckzuq.cognition.run/","en,en-US;q=0.9","1qlpsxuh26gtmuv","22","[""White""]","No","Female","3508196.100000024","null","","<p></p>","null","choice","ctd","attraction_2","2","microwave ovens","null","null","null","null","null","null","1","","","","","","","","","",""
"","","","","","choice_trial","survey-html-form","85","3112827","0.0-5.0-1.0","135","1","2025-04-14 14:10:30","bb671e3ae32f654b8954ea4c4635f915","","Mozilla/5.0 (Windows NT 11.0; Win64; x64) AppleWebKit/537.36 (KHTML, like Gecko) Chrome/131.0.0.0 Safari/537.36","WebKit","Chrome","131.0.0.0","Windows","11.0","https://hz8g1ckzuq.cognition.run/","en,en-US;q=0.9","1qlpsxuh26gtmuv","22","[""White""]","No","Female","3508196.100000024","16506","","","{""product_choice"":""A""}","choice","ctd","attraction_2","2","microwave ovens","null","null","null","null","null","null","1","50","60","40","60","50","60","Warranty","Cooking power","",""
"","","","","","choice_trial_setup","html-keyboard-response","86","3113153","0.0-5.0-0.1","135","1","2025-04-14 14:10:30","bb671e3ae32f654b8954ea4c4635f915","","Mozilla/5.0 (Windows NT 11.0; Win64; x64) AppleWebKit/537.36 (KHTML, like Gecko) Chrome/131.0.0.0 Safari/537.36","WebKit","Chrome","131.0.0.0","Windows","11.0","https://hz8g1ckzuq.cognition.run/","en,en-US;q=0.9","1qlpsxuh26gtmuv","22","[""White""]","No","Female","3508196.100000024","null","","<p></p>","null","choice","tcd","attraction_2","1","laptops","null","null","null","null","null","null","2","","","","","","","","","",""
"","","","","","choice_trial","survey-html-form","87","3117988","0.0-5.0-1.1","135","1","2025-04-14 14:10:30","bb671e3ae32f654b8954ea4c4635f915","","Mozilla/5.0 (Windows NT 11.0; Win64; x64) AppleWebKit/537.36 (KHTML, like Gecko) Chrome/131.0.0.0 Safari/537.36","WebKit","Chrome","131.0.0.0","Windows","11.0","https://hz8g1ckzuq.cognition.run/","en,en-US;q=0.9","1qlpsxuh26gtmuv","22","[""White""]","No","Female","3508196.100000024","4805","","","{""product_choice"":""A""}","choice","tcd","attraction_2","1","laptops","null","null","null","null","null","null","2","60","50","60","50","60","40","Processing speed","Memory (RAM)","",""
"","","","","","choice_trial_setup","html-keyboard-response","88","3118312","0.0-5.0-0.2","135","1","2025-04-14 14:10:30","bb671e3ae32f654b8954ea4c4635f915","","Mozilla/5.0 (Windows NT 11.0; Win64; x64) AppleWebKit/537.36 (KHTML, like Gecko) Chrome/131.0.0.0 Safari/537.36","WebKit","Chrome","131.0.0.0","Windows","11.0","https://hz8g1ckzuq.cognition.run/","en,en-US;q=0.9","1qlpsxuh26gtmuv","22","[""White""]","No","Female","3508196.100000024","null","","<p></p>","null","choice","ctd","attraction_2","1","washing machines","null","null","null","null","null","null","1","","","","","","","","","",""
"","","","","","choice_trial","survey-html-form","89","3121878","0.0-5.0-1.2","135","1","2025-04-14 14:10:30","bb671e3ae32f654b8954ea4c4635f915","","Mozilla/5.0 (Windows NT 11.0; Win64; x64) AppleWebKit/537.36 (KHTML, like Gecko) Chrome/131.0.0.0 Safari/537.36","WebKit","Chrome","131.0.0.0","Windows","11.0","https://hz8g1ckzuq.cognition.run/","en,en-US;q=0.9","1qlpsxuh26gtmuv","22","[""White""]","No","Female","3508196.100000024","3550","","","{""product_choice"":""A""}","choice","ctd","attraction_2","1","washing machines","null","null","null","null","null","null","1","60","50","60","50","60","40","Average lifespan","Energy savings","",""
"","","","","","choice_trial_setup","html-keyboard-response","90","3122201","0.0-5.0-0.3","135","1","2025-04-14 14:10:30","bb671e3ae32f654b8954ea4c4635f915","","Mozilla/5.0 (Windows NT 11.0; Win64; x64) AppleWebKit/537.36 (KHTML, like Gecko) Chrome/131.0.0.0 Safari/537.36","WebKit","Chrome","131.0.0.0","Windows","11.0","https://hz8g1ckzuq.cognition.run/","en,en-US;q=0.9","1qlpsxuh26gtmuv","22","[""White""]","No","Female","3508196.100000024","null","","<p></p>","null","choice","cdt","repulsion_2","2","washing machines","null","null","null","null","null","null","1","","","","","","","","","",""
"","","","","","choice_trial","survey-html-form","91","3125879","0.0-5.0-1.3","135","1","2025-04-14 14:10:30","bb671e3ae32f654b8954ea4c4635f915","","Mozilla/5.0 (Windows NT 11.0; Win64; x64) AppleWebKit/537.36 (KHTML, like Gecko) Chrome/131.0.0.0 Safari/537.36","WebKit","Chrome","131.0.0.0","Windows","11.0","https://hz8g1ckzuq.cognition.run/","en,en-US;q=0.9","1qlpsxuh26gtmuv","22","[""White""]","No","Female","3508196.100000024","3660","","","{""product_choice"":""B""}","choice","cdt","repulsion_2","2","washing machines","null","null","null","null","null","null","1","30","40","20","100","90","100","Average lifespan","Energy savings","",""
"","","","","","choice_trial_setup","html-keyboard-response","92","3126204","0.0-5.0-0.4","135","1","2025-04-14 14:10:30","bb671e3ae32f654b8954ea4c4635f915","","Mozilla/5.0 (Windows NT 11.0; Win64; x64) AppleWebKit/537.36 (KHTML, like Gecko) Chrome/131.0.0.0 Safari/537.36","WebKit","Chrome","131.0.0.0","Windows","11.0","https://hz8g1ckzuq.cognition.run/","en,en-US;q=0.9","1qlpsxuh26gtmuv","22","[""White""]","No","Female","3508196.100000024","null","","<p></p>","null","choice","cdt","repulsion_1","1","microwave ovens","null","null","null","null","null","null","1","","","","","","","","","",""
"","","","","","choice_trial","survey-html-form","93","3128728","0.0-5.0-1.4","135","1","2025-04-14 14:10:30","bb671e3ae32f654b8954ea4c4635f915","","Mozilla/5.0 (Windows NT 11.0; Win64; x64) AppleWebKit/537.36 (KHTML, like Gecko) Chrome/131.0.0.0 Safari/537.36","WebKit","Chrome","131.0.0.0","Windows","11.0","https://hz8g1ckzuq.cognition.run/","en,en-US;q=0.9","1qlpsxuh26gtmuv","22","[""White""]","No","Female","3508196.100000024","2505","","","{""product_choice"":""B""}","choice","cdt","repulsion_1","1","microwave ovens","null","null","null","null","null","null","1","100","90","100","30","40","25","Warranty","Cooking power","",""
"","","","","","choice_trial_setup","html-keyboard-response","94","3129054","0.0-5.0-0.5","135","1","2025-04-14 14:10:30","bb671e3ae32f654b8954ea4c4635f915","","Mozilla/5.0 (Windows NT 11.0; Win64; x64) AppleWebKit/537.36 (KHTML, like Gecko) Chrome/131.0.0.0 Safari/537.36","WebKit","Chrome","131.0.0.0","Windows","11.0","https://hz8g1ckzuq.cognition.run/","en,en-US;q=0.9","1qlpsxuh26gtmuv","22","[""White""]","No","Female","3508196.100000024","null","","<p></p>","null","choice","ctd","repulsion_2","2","laptops","null","null","null","null","null","null","2","","","","","","","","","",""
"","","","","","choice_trial","survey-html-form","95","3134514","0.0-5.0-1.5","135","1","2025-04-14 14:10:30","bb671e3ae32f654b8954ea4c4635f915","","Mozilla/5.0 (Windows NT 11.0; Win64; x64) AppleWebKit/537.36 (KHTML, like Gecko) Chrome/131.0.0.0 Safari/537.36","WebKit","Chrome","131.0.0.0","Windows","11.0","https://hz8g1ckzuq.cognition.run/","en,en-US;q=0.9","1qlpsxuh26gtmuv","22","[""White""]","No","Female","3508196.100000024","5435","","","{""product_choice"":""B""}","choice","ctd","repulsion_2","2","laptops","null","null","null","null","null","null","2","30","40","20","100","90","100","Processing speed","Memory (RAM)","",""
"","","","","","choice_trial_setup","html-keyboard-response","96","3134836","0.0-5.0-0.6","135","1","2025-04-14 14:10:30","bb671e3ae32f654b8954ea4c4635f915","","Mozilla/5.0 (Windows NT 11.0; Win64; x64) AppleWebKit/537.36 (KHTML, like Gecko) Chrome/131.0.0.0 Safari/537.36","WebKit","Chrome","131.0.0.0","Windows","11.0","https://hz8g1ckzuq.cognition.run/","en,en-US;q=0.9","1qlpsxuh26gtmuv","22","[""White""]","No","Female","3508196.100000024","null","","<p></p>","null","choice","wbw","catch","null","laptops","80","80","35","45","35","25","1","","","","","","","","","",""
"","","","","","choice_trial","survey-html-form","97","3144273","0.0-5.0-1.6","135","1","2025-04-14 14:10:30","bb671e3ae32f654b8954ea4c4635f915","","Mozilla/5.0 (Windows NT 11.0; Win64; x64) AppleWebKit/537.36 (KHTML, like Gecko) Chrome/131.0.0.0 Safari/537.36","WebKit","Chrome","131.0.0.0","Windows","11.0","https://hz8g1ckzuq.cognition.run/","en,en-US;q=0.9","1qlpsxuh26gtmuv","22","[""White""]","No","Female","3508196.100000024","9399","","","{""product_choice"":""B""}","choice","wbw","catch","null","laptops","80","80","35","45","35","25","1","null","null","null","null","null","null","Processing speed","Memory (RAM)","",""
"","","","","","choice_trial_setup","html-keyboard-response","98","3144593","0.0-5.0-0.7","135","1","2025-04-14 14:10:30","bb671e3ae32f654b8954ea4c4635f915","","Mozilla/5.0 (Windows NT 11.0; Win64; x64) AppleWebKit/537.36 (KHTML, like Gecko) Chrome/131.0.0.0 Safari/537.36","WebKit","Chrome","131.0.0.0","Windows","11.0","https://hz8g1ckzuq.cognition.run/","en,en-US;q=0.9","1qlpsxuh26gtmuv","22","[""White""]","No","Female","3508196.100000024","null","","<p></p>","null","choice","cdt","repulsion_2","1","microwave ovens","null","null","null","null","null","null","2","","","","","","","","","",""
"","","","","","choice_trial","survey-html-form","99","3152244","0.0-5.0-1.7","135","1","2025-04-14 14:10:30","bb671e3ae32f654b8954ea4c4635f915","","Mozilla/5.0 (Windows NT 11.0; Win64; x64) AppleWebKit/537.36 (KHTML, like Gecko) Chrome/131.0.0.0 Safari/537.36","WebKit","Chrome","131.0.0.0","Windows","11.0","https://hz8g1ckzuq.cognition.run/","en,en-US;q=0.9","1qlpsxuh26gtmuv","22","[""White""]","No","Female","3508196.100000024","7633","","","{""product_choice"":""C""}","choice","cdt","repulsion_2","1","microwave ovens","null","null","null","null","null","null","2","100","90","100","30","40","20","Warranty","Cooking power","",""
"","","","","","choice_trial_setup","html-keyboard-response","100","3152567","0.0-5.0-0.8","135","1","2025-04-14 14:10:30","bb671e3ae32f654b8954ea4c4635f915","","Mozilla/5.0 (Windows NT 11.0; Win64; x64) AppleWebKit/537.36 (KHTML, like Gecko) Chrome/131.0.0.0 Safari/537.36","WebKit","Chrome","131.0.0.0","Windows","11.0","https://hz8g1ckzuq.cognition.run/","en,en-US;q=0.9","1qlpsxuh26gtmuv","22","[""White""]","No","Female","3508196.100000024","null","","<p></p>","null","choice","dtc","attraction_1","1","laptops","null","null","null","null","null","null","1","","","","","","","","","",""
"","","","","","choice_trial","survey-html-form","101","3158598","0.0-5.0-1.8","135","1","2025-04-14 14:10:30","bb671e3ae32f654b8954ea4c4635f915","","Mozilla/5.0 (Windows NT 11.0; Win64; x64) AppleWebKit/537.36 (KHTML, like Gecko) Chrome/131.0.0.0 Safari/537.36","WebKit","Chrome","131.0.0.0","Windows","11.0","https://hz8g1ckzuq.cognition.run/","en,en-US;q=0.9","1qlpsxuh26gtmuv","22","[""White""]","No","Female","3508196.100000024","6013","","","{""product_choice"":""B""}","choice","dtc","attraction_1","1","laptops","null","null","null","null","null","null","1","60","50","60","50","60","45","Processing speed","Memory (RAM)","",""
"","","","","","choice_trial_setup","html-keyboard-response","102","3158932","0.0-5.0-0.9","135","1","2025-04-14 14:10:30","bb671e3ae32f654b8954ea4c4635f915","","Mozilla/5.0 (Windows NT 11.0; Win64; x64) AppleWebKit/537.36 (KHTML, like Gecko) Chrome/131.0.0.0 Safari/537.36","WebKit","Chrome","131.0.0.0","Windows","11.0","https://hz8g1ckzuq.cognition.run/","en,en-US;q=0.9","1qlpsxuh26gtmuv","22","[""White""]","No","Female","3508196.100000024","null","","<p></p>","null","choice","dtc","repulsion_1","2","televisions","null","null","null","null","null","null","2","","","","","","","","","",""
"","","","","","choice_trial","survey-html-form","103","3164400","0.0-5.0-1.9","135","1","2025-04-14 14:10:30","bb671e3ae32f654b8954ea4c4635f915","","Mozilla/5.0 (Windows NT 11.0; Win64; x64) AppleWebKit/537.36 (KHTML, like Gecko) Chrome/131.0.0.0 Safari/537.36","WebKit","Chrome","131.0.0.0","Windows","11.0","https://hz8g1ckzuq.cognition.run/","en,en-US;q=0.9","1qlpsxuh26gtmuv","22","[""White""]","No","Female","3508196.100000024","5444","","","{""product_choice"":""C""}","choice","dtc","repulsion_1","2","televisions","null","null","null","null","null","null","2","30","40","25","100","90","100","Screen size","Average lifespan","",""
"","","","","","choice_trial_setup","html-keyboard-response","104","3164710","0.0-5.0-0.10","135","1","2025-04-14 14:10:30","bb671e3ae32f654b8954ea4c4635f915","","Mozilla/5.0 (Windows NT 11.0; Win64; x64) AppleWebKit/537.36 (KHTML, like Gecko) Chrome/131.0.0.0 Safari/537.36","WebKit","Chrome","131.0.0.0","Windows","11.0","https://hz8g1ckzuq.cognition.run/","en,en-US;q=0.9","1qlpsxuh26gtmuv","22","[""White""]","No","Female","3508196.100000024","null","","<p></p>","null","choice","wbw","catch","null","televisions","60","65","50","40","10","25","1","","","","","","","","","",""
"","","","","","choice_trial","survey-html-form","105","3171427","0.0-5.0-1.10","135","1","2025-04-14 14:10:30","bb671e3ae32f654b8954ea4c4635f915","","Mozilla/5.0 (Windows NT 11.0; Win64; x64) AppleWebKit/537.36 (KHTML, like Gecko) Chrome/131.0.0.0 Safari/537.36","WebKit","Chrome","131.0.0.0","Windows","11.0","https://hz8g1ckzuq.cognition.run/","en,en-US;q=0.9","1qlpsxuh26gtmuv","22","[""White""]","No","Female","3508196.100000024","6698","","","{""product_choice"":""B""}","choice","wbw","catch","null","televisions","60","65","50","40","10","25","1","null","null","null","null","null","null","Screen size","Average lifespan","",""
"","","","","","choice_trial_setup","html-keyboard-response","106","3171755","0.0-5.0-0.11","135","1","2025-04-14 14:10:30","bb671e3ae32f654b8954ea4c4635f915","","Mozilla/5.0 (Windows NT 11.0; Win64; x64) AppleWebKit/537.36 (KHTML, like Gecko) Chrome/131.0.0.0 Safari/537.36","WebKit","Chrome","131.0.0.0","Windows","11.0","https://hz8g1ckzuq.cognition.run/","en,en-US;q=0.9","1qlpsxuh26gtmuv","22","[""White""]","No","Female","3508196.100000024","null","","<p></p>","null","choice","wwb","catch","null","microwave ovens","65","95","20","40","5","10","1","","","","","","","","","",""
"","","","","","choice_trial","survey-html-form","107","3176558","0.0-5.0-1.11","135","1","2025-04-14 14:10:30","bb671e3ae32f654b8954ea4c4635f915","","Mozilla/5.0 (Windows NT 11.0; Win64; x64) AppleWebKit/537.36 (KHTML, like Gecko) Chrome/131.0.0.0 Safari/537.36","WebKit","Chrome","131.0.0.0","Windows","11.0","https://hz8g1ckzuq.cognition.run/","en,en-US;q=0.9","1qlpsxuh26gtmuv","22","[""White""]","No","Female","3508196.100000024","4785","","","{""product_choice"":""C""}","choice","wwb","catch","null","microwave ovens","65","95","20","40","5","10","1","null","null","null","null","null","null","Warranty","Cooking power","",""
"","","","","","choice_trial_setup","html-keyboard-response","108","3176868","0.0-5.0-0.12","135","1","2025-04-14 14:10:30","bb671e3ae32f654b8954ea4c4635f915","","Mozilla/5.0 (Windows NT 11.0; Win64; x64) AppleWebKit/537.36 (KHTML, like Gecko) Chrome/131.0.0.0 Safari/537.36","WebKit","Chrome","131.0.0.0","Windows","11.0","https://hz8g1ckzuq.cognition.run/","en,en-US;q=0.9","1qlpsxuh26gtmuv","22","[""White""]","No","Female","3508196.100000024","null","","<p></p>","null","choice","ctd","repulsion_1","2","washing machines","null","null","null","null","null","null","1","","","","","","","","","",""
"","","","","","choice_trial","survey-html-form","109","3183004","0.0-5.0-1.12","135","1","2025-04-14 14:10:30","bb671e3ae32f654b8954ea4c4635f915","","Mozilla/5.0 (Windows NT 11.0; Win64; x64) AppleWebKit/537.36 (KHTML, like Gecko) Chrome/131.0.0.0 Safari/537.36","WebKit","Chrome","131.0.0.0","Windows","11.0","https://hz8g1ckzuq.cognition.run/","en,en-US;q=0.9","1qlpsxuh26gtmuv","22","[""White""]","No","Female","3508196.100000024","6116","","","{""product_choice"":""B""}","choice","ctd","repulsion_1","2","washing machines","null","null","null","null","null","null","1","30","40","25","100","90","100","Average lifespan","Energy savings","",""
"","","","","","choice_trial_setup","html-keyboard-response","110","3183335","0.0-5.0-0.13","135","1","2025-04-14 14:10:30","bb671e3ae32f654b8954ea4c4635f915","","Mozilla/5.0 (Windows NT 11.0; Win64; x64) AppleWebKit/537.36 (KHTML, like Gecko) Chrome/131.0.0.0 Safari/537.36","WebKit","Chrome","131.0.0.0","Windows","11.0","https://hz8g1ckzuq.cognition.run/","en,en-US;q=0.9","1qlpsxuh26gtmuv","22","[""White""]","No","Female","3508196.100000024","null","","<p></p>","null","choice","dct","attraction_2","2","washing machines","null","null","null","null","null","null","1","","","","","","","","","",""
"","","","","","choice_trial","survey-html-form","111","3190695","0.0-5.0-1.13","135","1","2025-04-14 14:10:30","bb671e3ae32f654b8954ea4c4635f915","","Mozilla/5.0 (Windows NT 11.0; Win64; x64) AppleWebKit/537.36 (KHTML, like Gecko) Chrome/131.0.0.0 Safari/537.36","WebKit","Chrome","131.0.0.0","Windows","11.0","https://hz8g1ckzuq.cognition.run/","en,en-US;q=0.9","1qlpsxuh26gtmuv","22","[""White""]","No","Female","3508196.100000024","7341","","","{""product_choice"":""C""}","choice","dct","attraction_2","2","washing machines","null","null","null","null","null","null","1","50","60","40","60","50","60","Average lifespan","Energy savings","",""
"","","","","","choice_trial_setup","html-keyboard-response","112","3191023","0.0-5.0-0.14","135","1","2025-04-14 14:10:30","bb671e3ae32f654b8954ea4c4635f915","","Mozilla/5.0 (Windows NT 11.0; Win64; x64) AppleWebKit/537.36 (KHTML, like Gecko) Chrome/131.0.0.0 Safari/537.36","WebKit","Chrome","131.0.0.0","Windows","11.0","https://hz8g1ckzuq.cognition.run/","en,en-US;q=0.9","1qlpsxuh26gtmuv","22","[""White""]","No","Female","3508196.100000024","null","","<p></p>","null","choice","tcd","attraction_2","1","televisions","null","null","null","null","null","null","2","","","","","","","","","",""
"","","","","","choice_trial","survey-html-form","113","3198861","0.0-5.0-1.14","135","1","2025-04-14 14:10:30","bb671e3ae32f654b8954ea4c4635f915","","Mozilla/5.0 (Windows NT 11.0; Win64; x64) AppleWebKit/537.36 (KHTML, like Gecko) Chrome/131.0.0.0 Safari/537.36","WebKit","Chrome","131.0.0.0","Windows","11.0","https://hz8g1ckzuq.cognition.run/","en,en-US;q=0.9","1qlpsxuh26gtmuv","22","[""White""]","No","Female","3508196.100000024","7819","","","{""product_choice"":""B""}","choice","tcd","attraction_2","1","televisions","null","null","null","null","null","null","2","60","50","60","50","60","40","Screen size","Average lifespan","",""
"","","","","","choice_trial_setup","html-keyboard-response","114","3199181","0.0-5.0-0.15","135","1","2025-04-14 14:10:30","bb671e3ae32f654b8954ea4c4635f915","","Mozilla/5.0 (Windows NT 11.0; Win64; x64) AppleWebKit/537.36 (KHTML, like Gecko) Chrome/131.0.0.0 Safari/537.36","WebKit","Chrome","131.0.0.0","Windows","11.0","https://hz8g1ckzuq.cognition.run/","en,en-US;q=0.9","1qlpsxuh26gtmuv","22","[""White""]","No","Female","3508196.100000024","null","","<p></p>","null","choice","wwb","catch","null","microwave ovens","95","95","25","15","45","40","1","","","","","","","","","",""
"","","","","","choice_trial","survey-html-form","115","3202489","0.0-5.0-1.15","135","1","2025-04-14 14:10:30","bb671e3ae32f654b8954ea4c4635f915","","Mozilla/5.0 (Windows NT 11.0; Win64; x64) AppleWebKit/537.36 (KHTML, like Gecko) Chrome/131.0.0.0 Safari/537.36","WebKit","Chrome","131.0.0.0","Windows","11.0","https://hz8g1ckzuq.cognition.run/","en,en-US;q=0.9","1qlpsxuh26gtmuv","22","[""White""]","No","Female","3508196.100000024","3291","","","{""product_choice"":""B""}","choice","wwb","catch","null","microwave ovens","95","95","25","15","45","40","1","null","null","null","null","null","null","Warranty","Cooking power","",""
"","","","","","choice_trial_setup","html-keyboard-response","116","3202812","0.0-5.0-0.16","135","1","2025-04-14 14:10:30","bb671e3ae32f654b8954ea4c4635f915","","Mozilla/5.0 (Windows NT 11.0; Win64; x64) AppleWebKit/537.36 (KHTML, like Gecko) Chrome/131.0.0.0 Safari/537.36","WebKit","Chrome","131.0.0.0","Windows","11.0","https://hz8g1ckzuq.cognition.run/","en,en-US;q=0.9","1qlpsxuh26gtmuv","22","[""White""]","No","Female","3508196.100000024","null","","<p></p>","null","choice","cdt","attraction_1","2","laptops","null","null","null","null","null","null","1","","","","","","","","","",""
"","","","","","choice_trial","survey-html-form","117","3209573","0.0-5.0-1.16","135","1","2025-04-14 14:10:30","bb671e3ae32f654b8954ea4c4635f915","","Mozilla/5.0 (Windows NT 11.0; Win64; x64) AppleWebKit/537.36 (KHTML, like Gecko) Chrome/131.0.0.0 Safari/537.36","WebKit","Chrome","131.0.0.0","Windows","11.0","https://hz8g1ckzuq.cognition.run/","en,en-US;q=0.9","1qlpsxuh26gtmuv","22","[""White""]","No","Female","3508196.100000024","6742","","","{""product_choice"":""A""}","choice","cdt","attraction_1","2","laptops","null","null","null","null","null","null","1","50","60","45","60","50","60","Processing speed","Memory (RAM)","",""
"","","","","","choice_trial_setup","html-keyboard-response","118","3209908","0.0-5.0-0.17","135","1","2025-04-14 14:10:30","bb671e3ae32f654b8954ea4c4635f915","","Mozilla/5.0 (Windows NT 11.0; Win64; x64) AppleWebKit/537.36 (KHTML, like Gecko) Chrome/131.0.0.0 Safari/537.36","WebKit","Chrome","131.0.0.0","Windows","11.0","https://hz8g1ckzuq.cognition.run/","en,en-US;q=0.9","1qlpsxuh26gtmuv","22","[""White""]","No","Female","3508196.100000024","null","","<p></p>","null","choice","wwb","catch","null","washing machines","85","75","35","45","30","15","2","","","","","","","","","",""
"","","","","","choice_trial","survey-html-form","119","3214675","0.0-5.0-1.17","135","1","2025-04-14 14:10:30","bb671e3ae32f654b8954ea4c4635f915","","Mozilla/5.0 (Windows NT 11.0; Win64; x64) AppleWebKit/537.36 (KHTML, like Gecko) Chrome/131.0.0.0 Safari/537.36","WebKit","Chrome","131.0.0.0","Windows","11.0","https://hz8g1ckzuq.cognition.run/","en,en-US;q=0.9","1qlpsxuh26gtmuv","22","[""White""]","No","Female","3508196.100000024","4743","","","{""product_choice"":""C""}","choice","wwb","catch","null","washing machines","85","75","35","45","30","15","2","null","null","null","null","null","null","Average lifespan","Energy savings","",""
"","","","","","choice_trial_setup","html-keyboard-response","120","3215003","0.0-5.0-0.18","135","1","2025-04-14 14:10:30","bb671e3ae32f654b8954ea4c4635f915","","Mozilla/5.0 (Windows NT 11.0; Win64; x64) AppleWebKit/537.36 (KHTML, like Gecko) Chrome/131.0.0.0 Safari/537.36","WebKit","Chrome","131.0.0.0","Windows","11.0","https://hz8g1ckzuq.cognition.run/","en,en-US;q=0.9","1qlpsxuh26gtmuv","22","[""White""]","No","Female","3508196.100000024","null","","<p></p>","null","choice","tcd","attraction_1","2","microwave ovens","null","null","null","null","null","null","1","","","","","","","","","",""
"","","","","","choice_trial","survey-html-form","121","3218974","0.0-5.0-1.18","135","1","2025-04-14 14:10:30","bb671e3ae32f654b8954ea4c4635f915","","Mozilla/5.0 (Windows NT 11.0; Win64; x64) AppleWebKit/537.36 (KHTML, like Gecko) Chrome/131.0.0.0 Safari/537.36","WebKit","Chrome","131.0.0.0","Windows","11.0","https://hz8g1ckzuq.cognition.run/","en,en-US;q=0.9","1qlpsxuh26gtmuv","22","[""White""]","No","Female","3508196.100000024","3951","","","{""product_choice"":""B""}","choice","tcd","attraction_1","2","microwave ovens","null","null","null","null","null","null","1","50","60","45","60","50","60","Warranty","Cooking power","",""
"","","","","","choice_trial_setup","html-keyboard-response","122","3219301","0.0-5.0-0.19","135","1","2025-04-14 14:10:30","bb671e3ae32f654b8954ea4c4635f915","","Mozilla/5.0 (Windows NT 11.0; Win64; x64) AppleWebKit/537.36 (KHTML, like Gecko) Chrome/131.0.0.0 Safari/537.36","WebKit","Chrome","131.0.0.0","Windows","11.0","https://hz8g1ckzuq.cognition.run/","en,en-US;q=0.9","1qlpsxuh26gtmuv","22","[""White""]","No","Female","3508196.100000024","null","","<p></p>","null","choice","cdt","attraction_1","2","washing machines","null","null","null","null","null","null","1","","","","","","","","","",""
"","","","","","choice_trial","survey-html-form","123","3229705","0.0-5.0-1.19","135","1","2025-04-14 14:10:30","bb671e3ae32f654b8954ea4c4635f915","","Mozilla/5.0 (Windows NT 11.0; Win64; x64) AppleWebKit/537.36 (KHTML, like Gecko) Chrome/131.0.0.0 Safari/537.36","WebKit","Chrome","131.0.0.0","Windows","11.0","https://hz8g1ckzuq.cognition.run/","en,en-US;q=0.9","1qlpsxuh26gtmuv","22","[""White""]","No","Female","3508196.100000024","10382","","","{""product_choice"":""A""}","choice","cdt","attraction_1","2","washing machines","null","null","null","null","null","null","1","50","60","45","60","50","60","Average lifespan","Energy savings","",""
"","","","","","choice_trial_setup","html-keyboard-response","124","3230038","0.0-5.0-0.20","135","1","2025-04-14 14:10:30","bb671e3ae32f654b8954ea4c4635f915","","Mozilla/5.0 (Windows NT 11.0; Win64; x64) AppleWebKit/537.36 (KHTML, like Gecko) Chrome/131.0.0.0 Safari/537.36","WebKit","Chrome","131.0.0.0","Windows","11.0","https://hz8g1ckzuq.cognition.run/","en,en-US;q=0.9","1qlpsxuh26gtmuv","22","[""White""]","No","Female","3508196.100000024","null","","<p></p>","null","choice","tdc","repulsion_1","1","televisions","null","null","null","null","null","null","2","","","","","","","","","",""
"","","","","","choice_trial","survey-html-form","125","3243489","0.0-5.0-1.20","135","1","2025-04-14 14:10:30","bb671e3ae32f654b8954ea4c4635f915","","Mozilla/5.0 (Windows NT 11.0; Win64; x64) AppleWebKit/537.36 (KHTML, like Gecko) Chrome/131.0.0.0 Safari/537.36","WebKit","Chrome","131.0.0.0","Windows","11.0","https://hz8g1ckzuq.cognition.run/","en,en-US;q=0.9","1qlpsxuh26gtmuv","22","[""White""]","No","Female","3508196.100000024","13429","","","{""product_choice"":""B""}","choice","tdc","repulsion_1","1","televisions","null","null","null","null","null","null","2","100","90","100","30","40","25","Screen size","Average lifespan","",""
"","","","","","choice_trial_setup","html-keyboard-response","126","3243811","0.0-5.0-0.21","135","1","2025-04-14 14:10:30","bb671e3ae32f654b8954ea4c4635f915","","Mozilla/5.0 (Windows NT 11.0; Win64; x64) AppleWebKit/537.36 (KHTML, like Gecko) Chrome/131.0.0.0 Safari/537.36","WebKit","Chrome","131.0.0.0","Windows","11.0","https://hz8g1ckzuq.cognition.run/","en,en-US;q=0.9","1qlpsxuh26gtmuv","22","[""White""]","No","Female","3508196.100000024","null","","<p></p>","null","choice","dct","attraction_2","2","laptops","null","null","null","null","null","null","2","","","","","","","","","",""
"","","","","","choice_trial","survey-html-form","127","3249638","0.0-5.0-1.21","135","1","2025-04-14 14:10:30","bb671e3ae32f654b8954ea4c4635f915","","Mozilla/5.0 (Windows NT 11.0; Win64; x64) AppleWebKit/537.36 (KHTML, like Gecko) Chrome/131.0.0.0 Safari/537.36","WebKit","Chrome","131.0.0.0","Windows","11.0","https://hz8g1ckzuq.cognition.run/","en,en-US;q=0.9","1qlpsxuh26gtmuv","22","[""White""]","No","Female","3508196.100000024","5819","","","{""product_choice"":""B""}","choice","dct","attraction_2","2","laptops","null","null","null","null","null","null","2","50","60","40","60","50","60","Processing speed","Memory (RAM)","",""
"","","","","","choice_trial_setup","html-keyboard-response","128","3249953","0.0-5.0-0.22","135","1","2025-04-14 14:10:30","bb671e3ae32f654b8954ea4c4635f915","","Mozilla/5.0 (Windows NT 11.0; Win64; x64) AppleWebKit/537.36 (KHTML, like Gecko) Chrome/131.0.0.0 Safari/537.36","WebKit","Chrome","131.0.0.0","Windows","11.0","https://hz8g1ckzuq.cognition.run/","en,en-US;q=0.9","1qlpsxuh26gtmuv","22","[""White""]","No","Female","3508196.100000024","null","","<p></p>","null","choice","ctd","repulsion_2","1","televisions","null","null","null","null","null","null","2","","","","","","","","","",""
"","","","","","choice_trial","survey-html-form","129","3254082","0.0-5.0-1.22","135","1","2025-04-14 14:10:30","bb671e3ae32f654b8954ea4c4635f915","","Mozilla/5.0 (Windows NT 11.0; Win64; x64) AppleWebKit/537.36 (KHTML, like Gecko) Chrome/131.0.0.0 Safari/537.36","WebKit","Chrome","131.0.0.0","Windows","11.0","https://hz8g1ckzuq.cognition.run/","en,en-US;q=0.9","1qlpsxuh26gtmuv","22","[""White""]","No","Female","3508196.100000024","4119","","","{""product_choice"":""A""}","choice","ctd","repulsion_2","1","televisions","null","null","null","null","null","null","2","100","90","100","30","40","20","Screen size","Average lifespan","",""
"","","","","","choice_trial_setup","html-keyboard-response","130","3254403","0.0-5.0-0.23","135","1","2025-04-14 14:10:30","bb671e3ae32f654b8954ea4c4635f915","","Mozilla/5.0 (Windows NT 11.0; Win64; x64) AppleWebKit/537.36 (KHTML, like Gecko) Chrome/131.0.0.0 Safari/537.36","WebKit","Chrome","131.0.0.0","Windows","11.0","https://hz8g1ckzuq.cognition.run/","en,en-US;q=0.9","1qlpsxuh26gtmuv","22","[""White""]","No","Female","3508196.100000024","null","","<p></p>","null","choice","ctd","repulsion_2","1","laptops","null","null","null","null","null","null","1","","","","","","","","","",""
"","","","","","choice_trial","survey-html-form","131","3260758","0.0-5.0-1.23","135","1","2025-04-14 14:10:30","bb671e3ae32f654b8954ea4c4635f915","","Mozilla/5.0 (Windows NT 11.0; Win64; x64) AppleWebKit/537.36 (KHTML, like Gecko) Chrome/131.0.0.0 Safari/537.36","WebKit","Chrome","131.0.0.0","Windows","11.0","https://hz8g1ckzuq.cognition.run/","en,en-US;q=0.9","1qlpsxuh26gtmuv","22","[""White""]","No","Female","3508196.100000024","6336","","","{""product_choice"":""B""}","choice","ctd","repulsion_2","1","laptops","null","null","null","null","null","null","1","100","90","100","30","40","20","Processing speed","Memory (RAM)","",""
"","","","","","choice_trial_setup","html-keyboard-response","132","3261088","0.0-5.0-0.24","135","1","2025-04-14 14:10:30","bb671e3ae32f654b8954ea4c4635f915","","Mozilla/5.0 (Windows NT 11.0; Win64; x64) AppleWebKit/537.36 (KHTML, like Gecko) Chrome/131.0.0.0 Safari/537.36","WebKit","Chrome","131.0.0.0","Windows","11.0","https://hz8g1ckzuq.cognition.run/","en,en-US;q=0.9","1qlpsxuh26gtmuv","22","[""White""]","No","Female","3508196.100000024","null","","<p></p>","null","choice","bww","catch","null","washing machines","70","95","35","15","40","30","1","","","","","","","","","",""
"","","","","","choice_trial","survey-html-form","133","3274405","0.0-5.0-1.24","135","1","2025-04-14 14:10:30","bb671e3ae32f654b8954ea4c4635f915","","Mozilla/5.0 (Windows NT 11.0; Win64; x64) AppleWebKit/537.36 (KHTML, like Gecko) Chrome/131.0.0.0 Safari/537.36","WebKit","Chrome","131.0.0.0","Windows","11.0","https://hz8g1ckzuq.cognition.run/","en,en-US;q=0.9","1qlpsxuh26gtmuv","22","[""White""]","No","Female","3508196.100000024","13285","","","{""product_choice"":""A""}","choice","bww","catch","null","washing machines","70","95","35","15","40","30","1","null","null","null","null","null","null","Average lifespan","Energy savings","",""
"","","","","","choice_trial_setup","html-keyboard-response","134","3274748","0.0-5.0-0.25","135","1","2025-04-14 14:10:30","bb671e3ae32f654b8954ea4c4635f915","","Mozilla/5.0 (Windows NT 11.0; Win64; x64) AppleWebKit/537.36 (KHTML, like Gecko) Chrome/131.0.0.0 Safari/537.36","WebKit","Chrome","131.0.0.0","Windows","11.0","https://hz8g1ckzuq.cognition.run/","en,en-US;q=0.9","1qlpsxuh26gtmuv","22","[""White""]","No","Female","3508196.100000024","null","","<p></p>","null","choice","tdc","repulsion_2","2","microwave ovens","null","null","null","null","null","null","2","","","","","","","","","",""
"","","","","","choice_trial","survey-html-form","135","3283560","0.0-5.0-1.25","135","1","2025-04-14 14:10:30","bb671e3ae32f654b8954ea4c4635f915","","Mozilla/5.0 (Windows NT 11.0; Win64; x64) AppleWebKit/537.36 (KHTML, like Gecko) Chrome/131.0.0.0 Safari/537.36","WebKit","Chrome","131.0.0.0","Windows","11.0","https://hz8g1ckzuq.cognition.run/","en,en-US;q=0.9","1qlpsxuh26gtmuv","22","[""White""]","No","Female","3508196.100000024","8787","","","{""product_choice"":""A""}","choice","tdc","repulsion_2","2","microwave ovens","null","null","null","null","null","null","2","30","40","20","100","90","100","Warranty","Cooking power","",""
"","","","","","choice_trial_setup","html-keyboard-response","136","3283889","0.0-5.0-0.26","135","1","2025-04-14 14:10:30","bb671e3ae32f654b8954ea4c4635f915","","Mozilla/5.0 (Windows NT 11.0; Win64; x64) AppleWebKit/537.36 (KHTML, like Gecko) Chrome/131.0.0.0 Safari/537.36","WebKit","Chrome","131.0.0.0","Windows","11.0","https://hz8g1ckzuq.cognition.run/","en,en-US;q=0.9","1qlpsxuh26gtmuv","22","[""White""]","No","Female","3508196.100000024","null","","<p></p>","null","choice","wbw","catch","null","televisions","90","80","5","40","50","5","2","","","","","","","","","",""
"","","","","","choice_trial","survey-html-form","137","3292396","0.0-5.0-1.26","135","1","2025-04-14 14:10:30","bb671e3ae32f654b8954ea4c4635f915","","Mozilla/5.0 (Windows NT 11.0; Win64; x64) AppleWebKit/537.36 (KHTML, like Gecko) Chrome/131.0.0.0 Safari/537.36","WebKit","Chrome","131.0.0.0","Windows","11.0","https://hz8g1ckzuq.cognition.run/","en,en-US;q=0.9","1qlpsxuh26gtmuv","22","[""White""]","No","Female","3508196.100000024","8468","","","{""product_choice"":""B""}","choice","wbw","catch","null","televisions","90","80","5","40","50","5","2","null","null","null","null","null","null","Screen size","Average lifespan","",""
"","","","","","choice_trial_setup","html-keyboard-response","138","3292729","0.0-5.0-0.27","135","1","2025-04-14 14:10:30","bb671e3ae32f654b8954ea4c4635f915","","Mozilla/5.0 (Windows NT 11.0; Win64; x64) AppleWebKit/537.36 (KHTML, like Gecko) Chrome/131.0.0.0 Safari/537.36","WebKit","Chrome","131.0.0.0","Windows","11.0","https://hz8g1ckzuq.cognition.run/","en,en-US;q=0.9","1qlpsxuh26gtmuv","22","[""White""]","No","Female","3508196.100000024","null","","<p></p>","null","choice","tdc","repulsion_2","2","televisions","null","null","null","null","null","null","1","","","","","","","","","",""
"","","","","","choice_trial","survey-html-form","139","3296892","0.0-5.0-1.27","135","1","2025-04-14 14:10:30","bb671e3ae32f654b8954ea4c4635f915","","Mozilla/5.0 (Windows NT 11.0; Win64; x64) AppleWebKit/537.36 (KHTML, like Gecko) Chrome/131.0.0.0 Safari/537.36","WebKit","Chrome","131.0.0.0","Windows","11.0","https://hz8g1ckzuq.cognition.run/","en,en-US;q=0.9","1qlpsxuh26gtmuv","22","[""White""]","No","Female","3508196.100000024","4137","","","{""product_choice"":""A""}","choice","tdc","repulsion_2","2","televisions","null","null","null","null","null","null","1","30","40","20","100","90","100","Screen size","Average lifespan","",""
"","","","","","choice_trial_setup","html-keyboard-response","140","3297237","0.0-5.0-0.28","135","1","2025-04-14 14:10:30","bb671e3ae32f654b8954ea4c4635f915","","Mozilla/5.0 (Windows NT 11.0; Win64; x64) AppleWebKit/537.36 (KHTML, like Gecko) Chrome/131.0.0.0 Safari/537.36","WebKit","Chrome","131.0.0.0","Windows","11.0","https://hz8g1ckzuq.cognition.run/","en,en-US;q=0.9","1qlpsxuh26gtmuv","22","[""White""]","No","Female","3508196.100000024","null","","<p></p>","null","choice","tcd","attraction_1","1","washing machines","null","null","null","null","null","null","1","","","","","","","","","",""
"","","","","","choice_trial","survey-html-form","141","3301435","0.0-5.0-1.28","135","1","2025-04-14 14:10:30","bb671e3ae32f654b8954ea4c4635f915","","Mozilla/5.0 (Windows NT 11.0; Win64; x64) AppleWebKit/537.36 (KHTML, like Gecko) Chrome/131.0.0.0 Safari/537.36","WebKit","Chrome","131.0.0.0","Windows","11.0","https://hz8g1ckzuq.cognition.run/","en,en-US;q=0.9","1qlpsxuh26gtmuv","22","[""White""]","No","Female","3508196.100000024","4171","","","{""product_choice"":""B""}","choice","tcd","attraction_1","1","washing machines","null","null","null","null","null","null","1","60","50","60","50","60","45","Average lifespan","Energy savings","",""
"","","","","","choice_trial_setup","html-keyboard-response","142","3301769","0.0-5.0-0.29","135","1","2025-04-14 14:10:30","bb671e3ae32f654b8954ea4c4635f915","","Mozilla/5.0 (Windows NT 11.0; Win64; x64) AppleWebKit/537.36 (KHTML, like Gecko) Chrome/131.0.0.0 Safari/537.36","WebKit","Chrome","131.0.0.0","Windows","11.0","https://hz8g1ckzuq.cognition.run/","en,en-US;q=0.9","1qlpsxuh26gtmuv","22","[""White""]","No","Female","3508196.100000024","null","","<p></p>","null","choice","tdc","attraction_1","2","televisions","null","null","null","null","null","null","2","","","","","","","","","",""
"","","","","","choice_trial","survey-html-form","143","3307447","0.0-5.0-1.29","135","1","2025-04-14 14:10:30","bb671e3ae32f654b8954ea4c4635f915","","Mozilla/5.0 (Windows NT 11.0; Win64; x64) AppleWebKit/537.36 (KHTML, like Gecko) Chrome/131.0.0.0 Safari/537.36","WebKit","Chrome","131.0.0.0","Windows","11.0","https://hz8g1ckzuq.cognition.run/","en,en-US;q=0.9","1qlpsxuh26gtmuv","22","[""White""]","No","Female","3508196.100000024","5650","","","{""product_choice"":""A""}","choice","tdc","attraction_1","2","televisions","null","null","null","null","null","null","2","50","60","45","60","50","60","Screen size","Average lifespan","",""
"","","","","","choice_trial_setup","html-keyboard-response","144","3307804","0.0-5.0-0.30","135","1","2025-04-14 14:10:30","bb671e3ae32f654b8954ea4c4635f915","","Mozilla/5.0 (Windows NT 11.0; Win64; x64) AppleWebKit/537.36 (KHTML, like Gecko) Chrome/131.0.0.0 Safari/537.36","WebKit","Chrome","131.0.0.0","Windows","11.0","https://hz8g1ckzuq.cognition.run/","en,en-US;q=0.9","1qlpsxuh26gtmuv","22","[""White""]","No","Female","3508196.100000024","null","","<p></p>","null","choice","tdc","repulsion_1","1","laptops","null","null","null","null","null","null","2","","","","","","","","","",""
"","","","","","choice_trial","survey-html-form","145","3315613","0.0-5.0-1.30","135","1","2025-04-14 14:10:30","bb671e3ae32f654b8954ea4c4635f915","","Mozilla/5.0 (Windows NT 11.0; Win64; x64) AppleWebKit/537.36 (KHTML, like Gecko) Chrome/131.0.0.0 Safari/537.36","WebKit","Chrome","131.0.0.0","Windows","11.0","https://hz8g1ckzuq.cognition.run/","en,en-US;q=0.9","1qlpsxuh26gtmuv","22","[""White""]","No","Female","3508196.100000024","7783","","","{""product_choice"":""C""}","choice","tdc","repulsion_1","1","laptops","null","null","null","null","null","null","2","100","90","100","30","40","25","Processing speed","Memory (RAM)","",""
"","","","","","choice_trial_setup","html-keyboard-response","146","3315946","0.0-5.0-0.31","135","1","2025-04-14 14:10:30","bb671e3ae32f654b8954ea4c4635f915","","Mozilla/5.0 (Windows NT 11.0; Win64; x64) AppleWebKit/537.36 (KHTML, like Gecko) Chrome/131.0.0.0 Safari/537.36","WebKit","Chrome","131.0.0.0","Windows","11.0","https://hz8g1ckzuq.cognition.run/","en,en-US;q=0.9","1qlpsxuh26gtmuv","22","[""White""]","No","Female","3508196.100000024","null","","<p></p>","null","choice","ctd","attraction_1","1","televisions","null","null","null","null","null","null","1","","","","","","","","","",""
"","","","","","choice_trial","survey-html-form","147","3324484","0.0-5.0-1.31","135","1","2025-04-14 14:10:30","bb671e3ae32f654b8954ea4c4635f915","","Mozilla/5.0 (Windows NT 11.0; Win64; x64) AppleWebKit/537.36 (KHTML, like Gecko) Chrome/131.0.0.0 Safari/537.36","WebKit","Chrome","131.0.0.0","Windows","11.0","https://hz8g1ckzuq.cognition.run/","en,en-US;q=0.9","1qlpsxuh26gtmuv","22","[""White""]","No","Female","3508196.100000024","8513","","","{""product_choice"":""A""}","choice","ctd","attraction_1","1","televisions","null","null","null","null","null","null","1","60","50","60","50","60","45","Screen size","Average lifespan","",""
"","","","","","choice_trial_setup","html-keyboard-response","148","3324822","0.0-5.0-0.32","135","1","2025-04-14 14:10:30","bb671e3ae32f654b8954ea4c4635f915","","Mozilla/5.0 (Windows NT 11.0; Win64; x64) AppleWebKit/537.36 (KHTML, like Gecko) Chrome/131.0.0.0 Safari/537.36","WebKit","Chrome","131.0.0.0","Windows","11.0","https://hz8g1ckzuq.cognition.run/","en,en-US;q=0.9","1qlpsxuh26gtmuv","22","[""White""]","No","Female","3508196.100000024","null","","<p></p>","null","choice","cdt","repulsion_1","2","laptops","null","null","null","null","null","null","1","","","","","","","","","",""
"","","","","","choice_trial","survey-html-form","149","3335632","0.0-5.0-1.32","135","1","2025-04-14 14:10:30","bb671e3ae32f654b8954ea4c4635f915","","Mozilla/5.0 (Windows NT 11.0; Win64; x64) AppleWebKit/537.36 (KHTML, like Gecko) Chrome/131.0.0.0 Safari/537.36","WebKit","Chrome","131.0.0.0","Windows","11.0","https://hz8g1ckzuq.cognition.run/","en,en-US;q=0.9","1qlpsxuh26gtmuv","22","[""White""]","No","Female","3508196.100000024","10783","","","{""product_choice"":""A""}","choice","cdt","repulsion_1","2","laptops","null","null","null","null","null","null","1","30","40","25","100","90","100","Processing speed","Memory (RAM)","",""
"","","","","","choice_trial_setup","html-keyboard-response","150","3335976","0.0-5.0-0.33","135","1","2025-04-14 14:10:30","bb671e3ae32f654b8954ea4c4635f915","","Mozilla/5.0 (Windows NT 11.0; Win64; x64) AppleWebKit/537.36 (KHTML, like Gecko) Chrome/131.0.0.0 Safari/537.36","WebKit","Chrome","131.0.0.0","Windows","11.0","https://hz8g1ckzuq.cognition.run/","en,en-US;q=0.9","1qlpsxuh26gtmuv","22","[""White""]","No","Female","3508196.100000024","null","","<p></p>","null","choice","tdc","repulsion_2","1","washing machines","null","null","null","null","null","null","1","","","","","","","","","",""
"","","","","","choice_trial","survey-html-form","151","3342944","0.0-5.0-1.33","135","1","2025-04-14 14:10:30","bb671e3ae32f654b8954ea4c4635f915","","Mozilla/5.0 (Windows NT 11.0; Win64; x64) AppleWebKit/537.36 (KHTML, like Gecko) Chrome/131.0.0.0 Safari/537.36","WebKit","Chrome","131.0.0.0","Windows","11.0","https://hz8g1ckzuq.cognition.run/","en,en-US;q=0.9","1qlpsxuh26gtmuv","22","[""White""]","No","Female","3508196.100000024","6926","","","{""product_choice"":""C""}","choice","tdc","repulsion_2","1","washing machines","null","null","null","null","null","null","1","100","90","100","30","40","20","Average lifespan","Energy savings","",""
"","","","","","choice_trial_setup","html-keyboard-response","152","3343276","0.0-5.0-0.34","135","1","2025-04-14 14:10:30","bb671e3ae32f654b8954ea4c4635f915","","Mozilla/5.0 (Windows NT 11.0; Win64; x64) AppleWebKit/537.36 (KHTML, like Gecko) Chrome/131.0.0.0 Safari/537.36","WebKit","Chrome","131.0.0.0","Windows","11.0","https://hz8g1ckzuq.cognition.run/","en,en-US;q=0.9","1qlpsxuh26gtmuv","22","[""White""]","No","Female","3508196.100000024","null","","<p></p>","null","choice","tcd","repulsion_1","2","microwave ovens","null","null","null","null","null","null","2","","","","","","","","","",""
"","","","","","choice_trial","survey-html-form","153","3354988","0.0-5.0-1.34","135","1","2025-04-14 14:10:30","bb671e3ae32f654b8954ea4c4635f915","","Mozilla/5.0 (Windows NT 11.0; Win64; x64) AppleWebKit/537.36 (KHTML, like Gecko) Chrome/131.0.0.0 Safari/537.36","WebKit","Chrome","131.0.0.0","Windows","11.0","https://hz8g1ckzuq.cognition.run/","en,en-US;q=0.9","1qlpsxuh26gtmuv","22","[""White""]","No","Female","3508196.100000024","11685","","","{""product_choice"":""A""}","choice","tcd","repulsion_1","2","microwave ovens","null","null","null","null","null","null","2","30","40","25","100","90","100","Warranty","Cooking power","",""
"","","","","","choice_trial_setup","html-keyboard-response","154","3355335","0.0-5.0-0.35","135","1","2025-04-14 14:10:30","bb671e3ae32f654b8954ea4c4635f915","","Mozilla/5.0 (Windows NT 11.0; Win64; x64) AppleWebKit/537.36 (KHTML, like Gecko) Chrome/131.0.0.0 Safari/537.36","WebKit","Chrome","131.0.0.0","Windows","11.0","https://hz8g1ckzuq.cognition.run/","en,en-US;q=0.9","1qlpsxuh26gtmuv","22","[""White""]","No","Female","3508196.100000024","null","","<p></p>","null","choice","wwb","catch","null","laptops","90","60","25","40","10","45","1","","","","","","","","","",""
"","","","","","choice_trial","survey-html-form","155","3362132","0.0-5.0-1.35","135","1","2025-04-14 14:10:30","bb671e3ae32f654b8954ea4c4635f915","","Mozilla/5.0 (Windows NT 11.0; Win64; x64) AppleWebKit/537.36 (KHTML, like Gecko) Chrome/131.0.0.0 Safari/537.36","WebKit","Chrome","131.0.0.0","Windows","11.0","https://hz8g1ckzuq.cognition.run/","en,en-US;q=0.9","1qlpsxuh26gtmuv","22","[""White""]","No","Female","3508196.100000024","6769","","","{""product_choice"":""C""}","choice","wwb","catch","null","laptops","90","60","25","40","10","45","1","null","null","null","null","null","null","Processing speed","Memory (RAM)","",""
"","","","","","choice_trial_setup","html-keyboard-response","156","3362467","0.0-5.0-0.36","135","1","2025-04-14 14:10:30","bb671e3ae32f654b8954ea4c4635f915","","Mozilla/5.0 (Windows NT 11.0; Win64; x64) AppleWebKit/537.36 (KHTML, like Gecko) Chrome/131.0.0.0 Safari/537.36","WebKit","Chrome","131.0.0.0","Windows","11.0","https://hz8g1ckzuq.cognition.run/","en,en-US;q=0.9","1qlpsxuh26gtmuv","22","[""White""]","No","Female","3508196.100000024","null","","<p></p>","null","choice","ctd","repulsion_1","1","washing machines","null","null","null","null","null","null","2","","","","","","","","","",""
