"success","timeout","failed_images","failed_audio","failed_video","screen_id","trial_type","trial_index","time_elapsed","internal_node_id","run_id","condition","recorded_at","source_code_version","ip","user_agent","device","browser","browser_version","platform","platform_version","referer","accept_language","ppt_id","age","race","ethnicity","gender","exp_duration","rt","view_history","stimulus","response","phase","order","effect","t_high","category","d1_best","d2_best","d1_worst1","d2_worst1","d1_worst2","d2_worst2","first_dim","d1_t","d1_c","d1_d","d2_t","d2_c","d2_d","d1_name","d2_name","strategy_response","question_order"
"true","false","[]","[]","[]","img preload","preload","0","126","0.0-0.0","137","1","2025-04-14 14:11:15","bb671e3ae32f654b8954ea4c4635f915","","Mozilla/5.0 (Macintosh; Intel Mac OS X 10_15_7) AppleWebKit/605.1.15 (KHTML, like Gecko) Version/18.4 Safari/605.1.15","Macintosh","Safari","18.4","OS X","10_15_7","https://hz8g1ckzuq.cognition.run/","en-US,en;q=0.9","uwozac8dq9trjct","21","[""Black or African-American""]","No","Male","2484660","","","","","","","","","","","","","","","","","","","","","","","","","",""
"true","","","","","","fullscreen","1","2368","0.0-1.0","137","1","2025-04-14 14:11:15","bb671e3ae32f654b8954ea4c4635f915","","Mozilla/5.0 (Macintosh; Intel Mac OS X 10_15_7) AppleWebKit/605.1.15 (KHTML, like Gecko) Version/18.4 Safari/605.1.15","Macintosh","Safari","18.4","OS X","10_15_7","https://hz8g1ckzuq.cognition.run/","en-US,en;q=0.9","uwozac8dq9trjct","21","[""Black or African-American""]","No","Male","2484660","1238","","","","","","","","","","","","","","","","","","","","","","","","",""
"","","","","","","instructions","2","56318","0.0-2.0","137","1","2025-04-14 14:11:15","bb671e3ae32f654b8954ea4c4635f915","","Mozilla/5.0 (Macintosh; Intel Mac OS X 10_15_7) AppleWebKit/605.1.15 (KHTML, like Gecko) Version/18.4 Safari/605.1.15","Macintosh","Safari","18.4","OS X","10_15_7","https://hz8g1ckzuq.cognition.run/","en-US,en;q=0.9","uwozac8dq9trjct","21","[""Black or African-American""]","No","Male","2484660","53948","[{""page_index"":0,""viewing_time"":963},{""page_index"":1,""viewing_time"":1651},{""page_index"":2,""viewing_time"":1083},{""page_index"":3,""viewing_time"":1549},{""page_index"":4,""viewing_time"":12717},{""page_index"":5,""viewing_time"":5238},{""page_index"":6,""viewing_time"":4829},{""page_index"":7,""viewing_time"":14983},{""page_index"":8,""viewing_time"":5783},{""page_index"":9,""viewing_time"":5151}]","","","","","","","","","","","","","","","","","","","","","","","",""
"","","","","","rating_trial_setup","html-keyboard-response","3","56622","0.0-3.0-0.0","137","1","2025-04-14 14:11:15","bb671e3ae32f654b8954ea4c4635f915","","Mozilla/5.0 (Macintosh; Intel Mac OS X 10_15_7) AppleWebKit/605.1.15 (KHTML, like Gecko) Version/18.4 Safari/605.1.15","Macintosh","Safari","18.4","OS X","10_15_7","https://hz8g1ckzuq.cognition.run/","en-US,en;q=0.9","uwozac8dq9trjct","21","[""Black or African-American""]","No","Male","2484660","null","","<p></p>","null","rating","dtc","repulsion_2","2","televisions","null","null","null","null","null","null","2","","","","","","","","","",""
"","","","","","rating_trial","survey-html-form","4","92819","0.0-3.0-1.0","137","1","2025-04-14 14:11:15","bb671e3ae32f654b8954ea4c4635f915","","Mozilla/5.0 (Macintosh; Intel Mac OS X 10_15_7) AppleWebKit/605.1.15 (KHTML, like Gecko) Version/18.4 Safari/605.1.15","Macintosh","Safari","18.4","OS X","10_15_7","https://hz8g1ckzuq.cognition.run/","en-US,en;q=0.9","uwozac8dq9trjct","21","[""Black or African-American""]","No","Male","2484660","36191","","","{""price_1"":""250"",""price_2"":""300"",""price_3"":""450""}","rating","dtc","repulsion_2","2","televisions","null","null","null","null","null","null","2","30","40","20","100","90","100","Screen size","Average lifespan","",""
"","","","","","rating_trial_setup","html-keyboard-response","5","93122","0.0-3.0-0.1","137","1","2025-04-14 14:11:15","bb671e3ae32f654b8954ea4c4635f915","","Mozilla/5.0 (Macintosh; Intel Mac OS X 10_15_7) AppleWebKit/605.1.15 (KHTML, like Gecko) Version/18.4 Safari/605.1.15","Macintosh","Safari","18.4","OS X","10_15_7","https://hz8g1ckzuq.cognition.run/","en-US,en;q=0.9","uwozac8dq9trjct","21","[""Black or African-American""]","No","Male","2484660","null","","<p></p>","null","rating","dtc","repulsion_1","1","televisions","null","null","null","null","null","null","1","","","","","","","","","",""
"","","","","","rating_trial","survey-html-form","6","125102","0.0-3.0-1.1","137","1","2025-04-14 14:11:15","bb671e3ae32f654b8954ea4c4635f915","","Mozilla/5.0 (Macintosh; Intel Mac OS X 10_15_7) AppleWebKit/605.1.15 (KHTML, like Gecko) Version/18.4 Safari/605.1.15","Macintosh","Safari","18.4","OS X","10_15_7","https://hz8g1ckzuq.cognition.run/","en-US,en;q=0.9","uwozac8dq9trjct","21","[""Black or African-American""]","No","Male","2484660","31976","","","{""price_1"":""200"",""price_2"":""275"",""price_3"":""400""}","rating","dtc","repulsion_1","1","televisions","null","null","null","null","null","null","1","100","90","100","30","40","25","Screen size","Average lifespan","",""
"","","","","","rating_trial_setup","html-keyboard-response","7","125406","0.0-3.0-0.2","137","1","2025-04-14 14:11:15","bb671e3ae32f654b8954ea4c4635f915","","Mozilla/5.0 (Macintosh; Intel Mac OS X 10_15_7) AppleWebKit/605.1.15 (KHTML, like Gecko) Version/18.4 Safari/605.1.15","Macintosh","Safari","18.4","OS X","10_15_7","https://hz8g1ckzuq.cognition.run/","en-US,en;q=0.9","uwozac8dq9trjct","21","[""Black or African-American""]","No","Male","2484660","null","","<p></p>","null","rating","tdc","repulsion_2","2","washing machines","null","null","null","null","null","null","1","","","","","","","","","",""
"","","","","","rating_trial","survey-html-form","8","245085","0.0-3.0-1.2","137","1","2025-04-14 14:11:15","bb671e3ae32f654b8954ea4c4635f915","","Mozilla/5.0 (Macintosh; Intel Mac OS X 10_15_7) AppleWebKit/605.1.15 (KHTML, like Gecko) Version/18.4 Safari/605.1.15","Macintosh","Safari","18.4","OS X","10_15_7","https://hz8g1ckzuq.cognition.run/","en-US,en;q=0.9","uwozac8dq9trjct","21","[""Black or African-American""]","No","Male","2484660","119676","","","{""price_1"":""200"",""price_2"":""150"",""price_3"":""400""}","rating","tdc","repulsion_2","2","washing machines","null","null","null","null","null","null","1","30","40","20","100","90","100","Average lifespan","Energy savings","",""
"","","","","","rating_trial_setup","html-keyboard-response","9","245388","0.0-3.0-0.3","137","1","2025-04-14 14:11:15","bb671e3ae32f654b8954ea4c4635f915","","Mozilla/5.0 (Macintosh; Intel Mac OS X 10_15_7) AppleWebKit/605.1.15 (KHTML, like Gecko) Version/18.4 Safari/605.1.15","Macintosh","Safari","18.4","OS X","10_15_7","https://hz8g1ckzuq.cognition.run/","en-US,en;q=0.9","uwozac8dq9trjct","21","[""Black or African-American""]","No","Male","2484660","null","","<p></p>","null","rating","wbw","catch","null","laptops","65","75","5","40","25","15","1","","","","","","","","","",""
"","","","","","rating_trial","survey-html-form","10","314684","0.0-3.0-1.3","137","1","2025-04-14 14:11:15","bb671e3ae32f654b8954ea4c4635f915","","Mozilla/5.0 (Macintosh; Intel Mac OS X 10_15_7) AppleWebKit/605.1.15 (KHTML, like Gecko) Version/18.4 Safari/605.1.15","Macintosh","Safari","18.4","OS X","10_15_7","https://hz8g1ckzuq.cognition.run/","en-US,en;q=0.9","uwozac8dq9trjct","21","[""Black or African-American""]","No","Male","2484660","69292","","","{""price_1"":""150"",""price_2"":""450"",""price_3"":""100""}","rating","wbw","catch","null","laptops","65","75","5","40","25","15","1","null","null","null","null","null","null","Processing speed","Memory (RAM)","",""
"","","","","","rating_trial_setup","html-keyboard-response","11","314987","0.0-3.0-0.4","137","1","2025-04-14 14:11:15","bb671e3ae32f654b8954ea4c4635f915","","Mozilla/5.0 (Macintosh; Intel Mac OS X 10_15_7) AppleWebKit/605.1.15 (KHTML, like Gecko) Version/18.4 Safari/605.1.15","Macintosh","Safari","18.4","OS X","10_15_7","https://hz8g1ckzuq.cognition.run/","en-US,en;q=0.9","uwozac8dq9trjct","21","[""Black or African-American""]","No","Male","2484660","null","","<p></p>","null","rating","bww","catch","null","washing machines","95","50","35","45","45","45","1","","","","","","","","","",""
"","","","","","rating_trial","survey-html-form","12","364568","0.0-3.0-1.4","137","1","2025-04-14 14:11:15","bb671e3ae32f654b8954ea4c4635f915","","Mozilla/5.0 (Macintosh; Intel Mac OS X 10_15_7) AppleWebKit/605.1.15 (KHTML, like Gecko) Version/18.4 Safari/605.1.15","Macintosh","Safari","18.4","OS X","10_15_7","https://hz8g1ckzuq.cognition.run/","en-US,en;q=0.9","uwozac8dq9trjct","21","[""Black or African-American""]","No","Male","2484660","49577","","","{""price_1"":""450"",""price_2"":""250"",""price_3"":""300""}","rating","bww","catch","null","washing machines","95","50","35","45","45","45","1","null","null","null","null","null","null","Average lifespan","Energy savings","",""
"","","","","","rating_trial_setup","html-keyboard-response","13","364871","0.0-3.0-0.5","137","1","2025-04-14 14:11:15","bb671e3ae32f654b8954ea4c4635f915","","Mozilla/5.0 (Macintosh; Intel Mac OS X 10_15_7) AppleWebKit/605.1.15 (KHTML, like Gecko) Version/18.4 Safari/605.1.15","Macintosh","Safari","18.4","OS X","10_15_7","https://hz8g1ckzuq.cognition.run/","en-US,en;q=0.9","uwozac8dq9trjct","21","[""Black or African-American""]","No","Male","2484660","null","","<p></p>","null","rating","dct","attraction_1","2","televisions","null","null","null","null","null","null","2","","","","","","","","","",""
"","","","","","rating_trial","survey-html-form","14","437651","0.0-3.0-1.5","137","1","2025-04-14 14:11:15","bb671e3ae32f654b8954ea4c4635f915","","Mozilla/5.0 (Macintosh; Intel Mac OS X 10_15_7) AppleWebKit/605.1.15 (KHTML, like Gecko) Version/18.4 Safari/605.1.15","Macintosh","Safari","18.4","OS X","10_15_7","https://hz8g1ckzuq.cognition.run/","en-US,en;q=0.9","uwozac8dq9trjct","21","[""Black or African-American""]","No","Male","2484660","72776","","","{""price_1"":""250"",""price_2"":""400"",""price_3"":""300""}","rating","dct","attraction_1","2","televisions","null","null","null","null","null","null","2","50","60","45","60","50","60","Screen size","Average lifespan","",""
"","","","","","rating_trial_setup","html-keyboard-response","15","437954","0.0-3.0-0.6","137","1","2025-04-14 14:11:15","bb671e3ae32f654b8954ea4c4635f915","","Mozilla/5.0 (Macintosh; Intel Mac OS X 10_15_7) AppleWebKit/605.1.15 (KHTML, like Gecko) Version/18.4 Safari/605.1.15","Macintosh","Safari","18.4","OS X","10_15_7","https://hz8g1ckzuq.cognition.run/","en-US,en;q=0.9","uwozac8dq9trjct","21","[""Black or African-American""]","No","Male","2484660","null","","<p></p>","null","rating","cdt","repulsion_1","2","washing machines","null","null","null","null","null","null","1","","","","","","","","","",""
"","","","","","rating_trial","survey-html-form","16","461784","0.0-3.0-1.6","137","1","2025-04-14 14:11:15","bb671e3ae32f654b8954ea4c4635f915","","Mozilla/5.0 (Macintosh; Intel Mac OS X 10_15_7) AppleWebKit/605.1.15 (KHTML, like Gecko) Version/18.4 Safari/605.1.15","Macintosh","Safari","18.4","OS X","10_15_7","https://hz8g1ckzuq.cognition.run/","en-US,en;q=0.9","uwozac8dq9trjct","21","[""Black or African-American""]","No","Male","2484660","23827","","","{""price_1"":""500"",""price_2"":""350"",""price_3"":""400""}","rating","cdt","repulsion_1","2","washing machines","null","null","null","null","null","null","1","30","40","25","100","90","100","Average lifespan","Energy savings","",""
"","","","","","rating_trial_setup","html-keyboard-response","17","462088","0.0-3.0-0.7","137","1","2025-04-14 14:11:15","bb671e3ae32f654b8954ea4c4635f915","","Mozilla/5.0 (Macintosh; Intel Mac OS X 10_15_7) AppleWebKit/605.1.15 (KHTML, like Gecko) Version/18.4 Safari/605.1.15","Macintosh","Safari","18.4","OS X","10_15_7","https://hz8g1ckzuq.cognition.run/","en-US,en;q=0.9","uwozac8dq9trjct","21","[""Black or African-American""]","No","Male","2484660","null","","<p></p>","null","rating","cdt","repulsion_1","2","laptops","null","null","null","null","null","null","2","","","","","","","","","",""
"","","","","","rating_trial","survey-html-form","18","596976","0.0-3.0-1.7","137","1","2025-04-14 14:11:15","bb671e3ae32f654b8954ea4c4635f915","","Mozilla/5.0 (Macintosh; Intel Mac OS X 10_15_7) AppleWebKit/605.1.15 (KHTML, like Gecko) Version/18.4 Safari/605.1.15","Macintosh","Safari","18.4","OS X","10_15_7","https://hz8g1ckzuq.cognition.run/","en-US,en;q=0.9","uwozac8dq9trjct","21","[""Black or African-American""]","No","Male","2484660","134880","","","{""price_1"":""500"",""price_2"":""300"",""price_3"":""400""}","rating","cdt","repulsion_1","2","laptops","null","null","null","null","null","null","2","30","40","25","100","90","100","Processing speed","Memory (RAM)","",""
"","","","","","rating_trial_setup","html-keyboard-response","19","597291","0.0-3.0-0.8","137","1","2025-04-14 14:11:15","bb671e3ae32f654b8954ea4c4635f915","","Mozilla/5.0 (Macintosh; Intel Mac OS X 10_15_7) AppleWebKit/605.1.15 (KHTML, like Gecko) Version/18.4 Safari/605.1.15","Macintosh","Safari","18.4","OS X","10_15_7","https://hz8g1ckzuq.cognition.run/","en-US,en;q=0.9","uwozac8dq9trjct","21","[""Black or African-American""]","No","Male","2484660","null","","<p></p>","null","rating","dct","repulsion_1","1","microwave ovens","null","null","null","null","null","null","1","","","","","","","","","",""
"","","","","","rating_trial","survey-html-form","20","628684","0.0-3.0-1.8","137","1","2025-04-14 14:11:15","bb671e3ae32f654b8954ea4c4635f915","","Mozilla/5.0 (Macintosh; Intel Mac OS X 10_15_7) AppleWebKit/605.1.15 (KHTML, like Gecko) Version/18.4 Safari/605.1.15","Macintosh","Safari","18.4","OS X","10_15_7","https://hz8g1ckzuq.cognition.run/","en-US,en;q=0.9","uwozac8dq9trjct","21","[""Black or African-American""]","No","Male","2484660","31382","","","{""price_1"":""100"",""price_2"":""250"",""price_3"":""150""}","rating","dct","repulsion_1","1","microwave ovens","null","null","null","null","null","null","1","100","90","100","30","40","25","Warranty","Cooking power","",""
"","","","","","rating_trial_setup","html-keyboard-response","21","628989","0.0-3.0-0.9","137","1","2025-04-14 14:11:15","bb671e3ae32f654b8954ea4c4635f915","","Mozilla/5.0 (Macintosh; Intel Mac OS X 10_15_7) AppleWebKit/605.1.15 (KHTML, like Gecko) Version/18.4 Safari/605.1.15","Macintosh","Safari","18.4","OS X","10_15_7","https://hz8g1ckzuq.cognition.run/","en-US,en;q=0.9","uwozac8dq9trjct","21","[""Black or African-American""]","No","Male","2484660","null","","<p></p>","null","rating","tdc","attraction_1","1","televisions","null","null","null","null","null","null","1","","","","","","","","","",""
"","","","","","rating_trial","survey-html-form","22","675584","0.0-3.0-1.9","137","1","2025-04-14 14:11:15","bb671e3ae32f654b8954ea4c4635f915","","Mozilla/5.0 (Macintosh; Intel Mac OS X 10_15_7) AppleWebKit/605.1.15 (KHTML, like Gecko) Version/18.4 Safari/605.1.15","Macintosh","Safari","18.4","OS X","10_15_7","https://hz8g1ckzuq.cognition.run/","en-US,en;q=0.9","uwozac8dq9trjct","21","[""Black or African-American""]","No","Male","2484660","46586","","","{""price_1"":""450"",""price_2"":""400"",""price_3"":""350""}","rating","tdc","attraction_1","1","televisions","null","null","null","null","null","null","1","60","50","60","50","60","45","Screen size","Average lifespan","",""
"","","","","","rating_trial_setup","html-keyboard-response","23","675888","0.0-3.0-0.10","137","1","2025-04-14 14:11:15","bb671e3ae32f654b8954ea4c4635f915","","Mozilla/5.0 (Macintosh; Intel Mac OS X 10_15_7) AppleWebKit/605.1.15 (KHTML, like Gecko) Version/18.4 Safari/605.1.15","Macintosh","Safari","18.4","OS X","10_15_7","https://hz8g1ckzuq.cognition.run/","en-US,en;q=0.9","uwozac8dq9trjct","21","[""Black or African-American""]","No","Male","2484660","null","","<p></p>","null","rating","dtc","attraction_2","2","washing machines","null","null","null","null","null","null","2","","","","","","","","","",""
"","","","","","rating_trial","survey-html-form","24","727751","0.0-3.0-1.10","137","1","2025-04-14 14:11:15","bb671e3ae32f654b8954ea4c4635f915","","Mozilla/5.0 (Macintosh; Intel Mac OS X 10_15_7) AppleWebKit/605.1.15 (KHTML, like Gecko) Version/18.4 Safari/605.1.15","Macintosh","Safari","18.4","OS X","10_15_7","https://hz8g1ckzuq.cognition.run/","en-US,en;q=0.9","uwozac8dq9trjct","21","[""Black or African-American""]","No","Male","2484660","51859","","","{""price_1"":""200"",""price_2"":""300"",""price_3"":""250""}","rating","dtc","attraction_2","2","washing machines","null","null","null","null","null","null","2","50","60","40","60","50","60","Average lifespan","Energy savings","",""
"","","","","","rating_trial_setup","html-keyboard-response","25","728054","0.0-3.0-0.11","137","1","2025-04-14 14:11:15","bb671e3ae32f654b8954ea4c4635f915","","Mozilla/5.0 (Macintosh; Intel Mac OS X 10_15_7) AppleWebKit/605.1.15 (KHTML, like Gecko) Version/18.4 Safari/605.1.15","Macintosh","Safari","18.4","OS X","10_15_7","https://hz8g1ckzuq.cognition.run/","en-US,en;q=0.9","uwozac8dq9trjct","21","[""Black or African-American""]","No","Male","2484660","null","","<p></p>","null","rating","tcd","repulsion_1","1","washing machines","null","null","null","null","null","null","1","","","","","","","","","",""
"","","","","","rating_trial","survey-html-form","26","757033","0.0-3.0-1.11","137","1","2025-04-14 14:11:15","bb671e3ae32f654b8954ea4c4635f915","","Mozilla/5.0 (Macintosh; Intel Mac OS X 10_15_7) AppleWebKit/605.1.15 (KHTML, like Gecko) Version/18.4 Safari/605.1.15","Macintosh","Safari","18.4","OS X","10_15_7","https://hz8g1ckzuq.cognition.run/","en-US,en;q=0.9","uwozac8dq9trjct","21","[""Black or African-American""]","No","Male","2484660","28974","","","{""price_1"":""300"",""price_2"":""360"",""price_3"":""250""}","rating","tcd","repulsion_1","1","washing machines","null","null","null","null","null","null","1","100","90","100","30","40","25","Average lifespan","Energy savings","",""
"","","","","","rating_trial_setup","html-keyboard-response","27","757337","0.0-3.0-0.12","137","1","2025-04-14 14:11:15","bb671e3ae32f654b8954ea4c4635f915","","Mozilla/5.0 (Macintosh; Intel Mac OS X 10_15_7) AppleWebKit/605.1.15 (KHTML, like Gecko) Version/18.4 Safari/605.1.15","Macintosh","Safari","18.4","OS X","10_15_7","https://hz8g1ckzuq.cognition.run/","en-US,en;q=0.9","uwozac8dq9trjct","21","[""Black or African-American""]","No","Male","2484660","null","","<p></p>","null","rating","dtc","attraction_2","1","laptops","null","null","null","null","null","null","2","","","","","","","","","",""
"","","","","","rating_trial","survey-html-form","28","789301","0.0-3.0-1.12","137","1","2025-04-14 14:11:15","bb671e3ae32f654b8954ea4c4635f915","","Mozilla/5.0 (Macintosh; Intel Mac OS X 10_15_7) AppleWebKit/605.1.15 (KHTML, like Gecko) Version/18.4 Safari/605.1.15","Macintosh","Safari","18.4","OS X","10_15_7","https://hz8g1ckzuq.cognition.run/","en-US,en;q=0.9","uwozac8dq9trjct","21","[""Black or African-American""]","No","Male","2484660","31959","","","{""price_1"":""350"",""price_2"":""450"",""price_3"":""500""}","rating","dtc","attraction_2","1","laptops","null","null","null","null","null","null","2","60","50","60","50","60","40","Processing speed","Memory (RAM)","",""
"","","","","","rating_trial_setup","html-keyboard-response","29","789604","0.0-3.0-0.13","137","1","2025-04-14 14:11:15","bb671e3ae32f654b8954ea4c4635f915","","Mozilla/5.0 (Macintosh; Intel Mac OS X 10_15_7) AppleWebKit/605.1.15 (KHTML, like Gecko) Version/18.4 Safari/605.1.15","Macintosh","Safari","18.4","OS X","10_15_7","https://hz8g1ckzuq.cognition.run/","en-US,en;q=0.9","uwozac8dq9trjct","21","[""Black or African-American""]","No","Male","2484660","null","","<p></p>","null","rating","tdc","attraction_1","1","washing machines","null","null","null","null","null","null","2","","","","","","","","","",""
"","","","","","rating_trial","survey-html-form","30","821249","0.0-3.0-1.13","137","1","2025-04-14 14:11:15","bb671e3ae32f654b8954ea4c4635f915","","Mozilla/5.0 (Macintosh; Intel Mac OS X 10_15_7) AppleWebKit/605.1.15 (KHTML, like Gecko) Version/18.4 Safari/605.1.15","Macintosh","Safari","18.4","OS X","10_15_7","https://hz8g1ckzuq.cognition.run/","en-US,en;q=0.9","uwozac8dq9trjct","21","[""Black or African-American""]","No","Male","2484660","31641","","","{""price_1"":""300"",""price_2"":""250"",""price_3"":""360""}","rating","tdc","attraction_1","1","washing machines","null","null","null","null","null","null","2","60","50","60","50","60","45","Average lifespan","Energy savings","",""
"","","","","","rating_trial_setup","html-keyboard-response","31","821553","0.0-3.0-0.14","137","1","2025-04-14 14:11:15","bb671e3ae32f654b8954ea4c4635f915","","Mozilla/5.0 (Macintosh; Intel Mac OS X 10_15_7) AppleWebKit/605.1.15 (KHTML, like Gecko) Version/18.4 Safari/605.1.15","Macintosh","Safari","18.4","OS X","10_15_7","https://hz8g1ckzuq.cognition.run/","en-US,en;q=0.9","uwozac8dq9trjct","21","[""Black or African-American""]","No","Male","2484660","null","","<p></p>","null","rating","cdt","attraction_2","1","televisions","null","null","null","null","null","null","1","","","","","","","","","",""
"","","","","","rating_trial","survey-html-form","32","922471","0.0-3.0-1.14","137","1","2025-04-14 14:11:15","bb671e3ae32f654b8954ea4c4635f915","","Mozilla/5.0 (Macintosh; Intel Mac OS X 10_15_7) AppleWebKit/605.1.15 (KHTML, like Gecko) Version/18.4 Safari/605.1.15","Macintosh","Safari","18.4","OS X","10_15_7","https://hz8g1ckzuq.cognition.run/","en-US,en;q=0.9","uwozac8dq9trjct","21","[""Black or African-American""]","No","Male","2484660","100925","","","{""price_1"":""400"",""price_2"":""350"",""price_3"":""450""}","rating","cdt","attraction_2","1","televisions","null","null","null","null","null","null","1","60","50","60","50","60","40","Screen size","Average lifespan","",""
"","","","","","rating_trial_setup","html-keyboard-response","33","922775","0.0-3.0-0.15","137","1","2025-04-14 14:11:15","bb671e3ae32f654b8954ea4c4635f915","","Mozilla/5.0 (Macintosh; Intel Mac OS X 10_15_7) AppleWebKit/605.1.15 (KHTML, like Gecko) Version/18.4 Safari/605.1.15","Macintosh","Safari","18.4","OS X","10_15_7","https://hz8g1ckzuq.cognition.run/","en-US,en;q=0.9","uwozac8dq9trjct","21","[""Black or African-American""]","No","Male","2484660","null","","<p></p>","null","rating","wbw","catch","null","microwave ovens","80","50","20","50","5","15","1","","","","","","","","","",""
"","","","","","rating_trial","survey-html-form","34","969124","0.0-3.0-1.15","137","1","2025-04-14 14:11:15","bb671e3ae32f654b8954ea4c4635f915","","Mozilla/5.0 (Macintosh; Intel Mac OS X 10_15_7) AppleWebKit/605.1.15 (KHTML, like Gecko) Version/18.4 Safari/605.1.15","Macintosh","Safari","18.4","OS X","10_15_7","https://hz8g1ckzuq.cognition.run/","en-US,en;q=0.9","uwozac8dq9trjct","21","[""Black or African-American""]","No","Male","2484660","46359","","","{""price_1"":""100"",""price_2"":""150"",""price_3"":""50""}","rating","wbw","catch","null","microwave ovens","80","50","20","50","5","15","1","null","null","null","null","null","null","Warranty","Cooking power","",""
"","","","","","rating_trial_setup","html-keyboard-response","35","969427","0.0-3.0-0.16","137","1","2025-04-14 14:11:15","bb671e3ae32f654b8954ea4c4635f915","","Mozilla/5.0 (Macintosh; Intel Mac OS X 10_15_7) AppleWebKit/605.1.15 (KHTML, like Gecko) Version/18.4 Safari/605.1.15","Macintosh","Safari","18.4","OS X","10_15_7","https://hz8g1ckzuq.cognition.run/","en-US,en;q=0.9","uwozac8dq9trjct","21","[""Black or African-American""]","No","Male","2484660","null","","<p></p>","null","rating","tcd","attraction_2","1","microwave ovens","null","null","null","null","null","null","2","","","","","","","","","",""
"","","","","","rating_trial","survey-html-form","36","1017705","0.0-3.0-1.16","137","1","2025-04-14 14:11:15","bb671e3ae32f654b8954ea4c4635f915","","Mozilla/5.0 (Macintosh; Intel Mac OS X 10_15_7) AppleWebKit/605.1.15 (KHTML, like Gecko) Version/18.4 Safari/605.1.15","Macintosh","Safari","18.4","OS X","10_15_7","https://hz8g1ckzuq.cognition.run/","en-US,en;q=0.9","uwozac8dq9trjct","21","[""Black or African-American""]","No","Male","2484660","48276","","","{""price_1"":""150"",""price_2"":""200"",""price_3"":""100""}","rating","tcd","attraction_2","1","microwave ovens","null","null","null","null","null","null","2","60","50","60","50","60","40","Warranty","Cooking power","",""
"","","","","","rating_trial_setup","html-keyboard-response","37","1018010","0.0-3.0-0.17","137","1","2025-04-14 14:11:15","bb671e3ae32f654b8954ea4c4635f915","","Mozilla/5.0 (Macintosh; Intel Mac OS X 10_15_7) AppleWebKit/605.1.15 (KHTML, like Gecko) Version/18.4 Safari/605.1.15","Macintosh","Safari","18.4","OS X","10_15_7","https://hz8g1ckzuq.cognition.run/","en-US,en;q=0.9","uwozac8dq9trjct","21","[""Black or African-American""]","No","Male","2484660","null","","<p></p>","null","rating","wbw","catch","null","laptops","90","60","10","15","50","15","1","","","","","","","","","",""
"","","","","","rating_trial","survey-html-form","38","1086106","0.0-3.0-1.17","137","1","2025-04-14 14:11:15","bb671e3ae32f654b8954ea4c4635f915","","Mozilla/5.0 (Macintosh; Intel Mac OS X 10_15_7) AppleWebKit/605.1.15 (KHTML, like Gecko) Version/18.4 Safari/605.1.15","Macintosh","Safari","18.4","OS X","10_15_7","https://hz8g1ckzuq.cognition.run/","en-US,en;q=0.9","uwozac8dq9trjct","21","[""Black or African-American""]","No","Male","2484660","68092","","","{""price_1"":""100"",""price_2"":""750"",""price_3"":""300""}","rating","wbw","catch","null","laptops","90","60","10","15","50","15","1","null","null","null","null","null","null","Processing speed","Memory (RAM)","",""
"","","","","","rating_trial_setup","html-keyboard-response","39","1086410","0.0-3.0-0.18","137","1","2025-04-14 14:11:15","bb671e3ae32f654b8954ea4c4635f915","","Mozilla/5.0 (Macintosh; Intel Mac OS X 10_15_7) AppleWebKit/605.1.15 (KHTML, like Gecko) Version/18.4 Safari/605.1.15","Macintosh","Safari","18.4","OS X","10_15_7","https://hz8g1ckzuq.cognition.run/","en-US,en;q=0.9","uwozac8dq9trjct","21","[""Black or African-American""]","No","Male","2484660","null","","<p></p>","null","rating","tdc","attraction_2","2","laptops","null","null","null","null","null","null","2","","","","","","","","","",""
"","","","","","rating_trial","survey-html-form","40","1129403","0.0-3.0-1.18","137","1","2025-04-14 14:11:15","bb671e3ae32f654b8954ea4c4635f915","","Mozilla/5.0 (Macintosh; Intel Mac OS X 10_15_7) AppleWebKit/605.1.15 (KHTML, like Gecko) Version/18.4 Safari/605.1.15","Macintosh","Safari","18.4","OS X","10_15_7","https://hz8g1ckzuq.cognition.run/","en-US,en;q=0.9","uwozac8dq9trjct","21","[""Black or African-American""]","No","Male","2484660","42988","","","{""price_1"":""450"",""price_2"":""400"",""price_3"":""500""}","rating","tdc","attraction_2","2","laptops","null","null","null","null","null","null","2","50","60","40","60","50","60","Processing speed","Memory (RAM)","",""
"","","","","","rating_trial_setup","html-keyboard-response","41","1129707","0.0-3.0-0.19","137","1","2025-04-14 14:11:15","bb671e3ae32f654b8954ea4c4635f915","","Mozilla/5.0 (Macintosh; Intel Mac OS X 10_15_7) AppleWebKit/605.1.15 (KHTML, like Gecko) Version/18.4 Safari/605.1.15","Macintosh","Safari","18.4","OS X","10_15_7","https://hz8g1ckzuq.cognition.run/","en-US,en;q=0.9","uwozac8dq9trjct","21","[""Black or African-American""]","No","Male","2484660","null","","<p></p>","null","rating","dtc","repulsion_1","2","microwave ovens","null","null","null","null","null","null","1","","","","","","","","","",""
"","","","","","rating_trial","survey-html-form","42","1155037","0.0-3.0-1.19","137","1","2025-04-14 14:11:15","bb671e3ae32f654b8954ea4c4635f915","","Mozilla/5.0 (Macintosh; Intel Mac OS X 10_15_7) AppleWebKit/605.1.15 (KHTML, like Gecko) Version/18.4 Safari/605.1.15","Macintosh","Safari","18.4","OS X","10_15_7","https://hz8g1ckzuq.cognition.run/","en-US,en;q=0.9","uwozac8dq9trjct","21","[""Black or African-American""]","No","Male","2484660","25326","","","{""price_1"":""250"",""price_2"":""300"",""price_3"":""400""}","rating","dtc","repulsion_1","2","microwave ovens","null","null","null","null","null","null","1","30","40","25","100","90","100","Warranty","Cooking power","",""
"","","","","","rating_trial_setup","html-keyboard-response","43","1155341","0.0-3.0-0.20","137","1","2025-04-14 14:11:15","bb671e3ae32f654b8954ea4c4635f915","","Mozilla/5.0 (Macintosh; Intel Mac OS X 10_15_7) AppleWebKit/605.1.15 (KHTML, like Gecko) Version/18.4 Safari/605.1.15","Macintosh","Safari","18.4","OS X","10_15_7","https://hz8g1ckzuq.cognition.run/","en-US,en;q=0.9","uwozac8dq9trjct","21","[""Black or African-American""]","No","Male","2484660","null","","<p></p>","null","rating","bww","catch","null","televisions","90","90","15","35","30","25","1","","","","","","","","","",""
"","","","","","rating_trial","survey-html-form","44","1199419","0.0-3.0-1.20","137","1","2025-04-14 14:11:15","bb671e3ae32f654b8954ea4c4635f915","","Mozilla/5.0 (Macintosh; Intel Mac OS X 10_15_7) AppleWebKit/605.1.15 (KHTML, like Gecko) Version/18.4 Safari/605.1.15","Macintosh","Safari","18.4","OS X","10_15_7","https://hz8g1ckzuq.cognition.run/","en-US,en;q=0.9","uwozac8dq9trjct","21","[""Black or African-American""]","No","Male","2484660","44073","","","{""price_1"":""1000"",""price_2"":""150"",""price_3"":""300""}","rating","bww","catch","null","televisions","90","90","15","35","30","25","1","null","null","null","null","null","null","Screen size","Average lifespan","",""
"","","","","","rating_trial_setup","html-keyboard-response","45","1199723","0.0-3.0-0.21","137","1","2025-04-14 14:11:15","bb671e3ae32f654b8954ea4c4635f915","","Mozilla/5.0 (Macintosh; Intel Mac OS X 10_15_7) AppleWebKit/605.1.15 (KHTML, like Gecko) Version/18.4 Safari/605.1.15","Macintosh","Safari","18.4","OS X","10_15_7","https://hz8g1ckzuq.cognition.run/","en-US,en;q=0.9","uwozac8dq9trjct","21","[""Black or African-American""]","No","Male","2484660","null","","<p></p>","null","rating","ctd","repulsion_2","1","washing machines","null","null","null","null","null","null","1","","","","","","","","","",""
"","","","","","rating_trial","survey-html-form","46","1284734","0.0-3.0-1.21","137","1","2025-04-14 14:11:15","bb671e3ae32f654b8954ea4c4635f915","","Mozilla/5.0 (Macintosh; Intel Mac OS X 10_15_7) AppleWebKit/605.1.15 (KHTML, like Gecko) Version/18.4 Safari/605.1.15","Macintosh","Safari","18.4","OS X","10_15_7","https://hz8g1ckzuq.cognition.run/","en-US,en;q=0.9","uwozac8dq9trjct","21","[""Black or African-American""]","No","Male","2484660","85006","","","{""price_1"":""350"",""price_2"":""300"",""price_3"":""200""}","rating","ctd","repulsion_2","1","washing machines","null","null","null","null","null","null","1","100","90","100","30","40","20","Average lifespan","Energy savings","",""
"","","","","","rating_trial_setup","html-keyboard-response","47","1285039","0.0-3.0-0.22","137","1","2025-04-14 14:11:15","bb671e3ae32f654b8954ea4c4635f915","","Mozilla/5.0 (Macintosh; Intel Mac OS X 10_15_7) AppleWebKit/605.1.15 (KHTML, like Gecko) Version/18.4 Safari/605.1.15","Macintosh","Safari","18.4","OS X","10_15_7","https://hz8g1ckzuq.cognition.run/","en-US,en;q=0.9","uwozac8dq9trjct","21","[""Black or African-American""]","No","Male","2484660","null","","<p></p>","null","rating","cdt","attraction_1","1","laptops","null","null","null","null","null","null","2","","","","","","","","","",""
"","","","","","rating_trial","survey-html-form","48","1576516","0.0-3.0-1.22","137","1","2025-04-14 14:11:15","bb671e3ae32f654b8954ea4c4635f915","","Mozilla/5.0 (Macintosh; Intel Mac OS X 10_15_7) AppleWebKit/605.1.15 (KHTML, like Gecko) Version/18.4 Safari/605.1.15","Macintosh","Safari","18.4","OS X","10_15_7","https://hz8g1ckzuq.cognition.run/","en-US,en;q=0.9","uwozac8dq9trjct","21","[""Black or African-American""]","No","Male","2484660","291475","","","{""price_1"":""500"",""price_2"":""350"",""price_3"":""400""}","rating","cdt","attraction_1","1","laptops","null","null","null","null","null","null","2","60","50","60","50","60","45","Processing speed","Memory (RAM)","",""
"","","","","","rating_trial_setup","html-keyboard-response","49","1576822","0.0-3.0-0.23","137","1","2025-04-14 14:11:15","bb671e3ae32f654b8954ea4c4635f915","","Mozilla/5.0 (Macintosh; Intel Mac OS X 10_15_7) AppleWebKit/605.1.15 (KHTML, like Gecko) Version/18.4 Safari/605.1.15","Macintosh","Safari","18.4","OS X","10_15_7","https://hz8g1ckzuq.cognition.run/","en-US,en;q=0.9","uwozac8dq9trjct","21","[""Black or African-American""]","No","Male","2484660","null","","<p></p>","null","rating","bww","catch","null","microwave ovens","75","65","25","30","50","25","2","","","","","","","","","",""
"","","","","","rating_trial","survey-html-form","50","1676912","0.0-3.0-1.23","137","1","2025-04-14 14:11:15","bb671e3ae32f654b8954ea4c4635f915","","Mozilla/5.0 (Macintosh; Intel Mac OS X 10_15_7) AppleWebKit/605.1.15 (KHTML, like Gecko) Version/18.4 Safari/605.1.15","Macintosh","Safari","18.4","OS X","10_15_7","https://hz8g1ckzuq.cognition.run/","en-US,en;q=0.9","uwozac8dq9trjct","21","[""Black or African-American""]","No","Male","2484660","100086","","","{""price_1"":""350"",""price_2"":""150"",""price_3"":""100""}","rating","bww","catch","null","microwave ovens","75","65","25","30","50","25","2","null","null","null","null","null","null","Warranty","Cooking power","",""
"","","","","","rating_trial_setup","html-keyboard-response","51","1677216","0.0-3.0-0.24","137","1","2025-04-14 14:11:15","bb671e3ae32f654b8954ea4c4635f915","","Mozilla/5.0 (Macintosh; Intel Mac OS X 10_15_7) AppleWebKit/605.1.15 (KHTML, like Gecko) Version/18.4 Safari/605.1.15","Macintosh","Safari","18.4","OS X","10_15_7","https://hz8g1ckzuq.cognition.run/","en-US,en;q=0.9","uwozac8dq9trjct","21","[""Black or African-American""]","No","Male","2484660","null","","<p></p>","null","rating","tcd","repulsion_1","1","laptops","null","null","null","null","null","null","1","","","","","","","","","",""
"","","","","","rating_trial","survey-html-form","52","1705396","0.0-3.0-1.24","137","1","2025-04-14 14:11:15","bb671e3ae32f654b8954ea4c4635f915","","Mozilla/5.0 (Macintosh; Intel Mac OS X 10_15_7) AppleWebKit/605.1.15 (KHTML, like Gecko) Version/18.4 Safari/605.1.15","Macintosh","Safari","18.4","OS X","10_15_7","https://hz8g1ckzuq.cognition.run/","en-US,en;q=0.9","uwozac8dq9trjct","21","[""Black or African-American""]","No","Male","2484660","28174","","","{""price_1"":""700"",""price_2"":""750"",""price_3"":""650""}","rating","tcd","repulsion_1","1","laptops","null","null","null","null","null","null","1","100","90","100","30","40","25","Processing speed","Memory (RAM)","",""
"","","","","","rating_trial_setup","html-keyboard-response","53","1705700","0.0-3.0-0.25","137","1","2025-04-14 14:11:15","bb671e3ae32f654b8954ea4c4635f915","","Mozilla/5.0 (Macintosh; Intel Mac OS X 10_15_7) AppleWebKit/605.1.15 (KHTML, like Gecko) Version/18.4 Safari/605.1.15","Macintosh","Safari","18.4","OS X","10_15_7","https://hz8g1ckzuq.cognition.run/","en-US,en;q=0.9","uwozac8dq9trjct","21","[""Black or African-American""]","No","Male","2484660","null","","<p></p>","null","rating","dtc","repulsion_2","2","microwave ovens","null","null","null","null","null","null","1","","","","","","","","","",""
"","","","","","rating_trial","survey-html-form","54","1732911","0.0-3.0-1.25","137","1","2025-04-14 14:11:15","bb671e3ae32f654b8954ea4c4635f915","","Mozilla/5.0 (Macintosh; Intel Mac OS X 10_15_7) AppleWebKit/605.1.15 (KHTML, like Gecko) Version/18.4 Safari/605.1.15","Macintosh","Safari","18.4","OS X","10_15_7","https://hz8g1ckzuq.cognition.run/","en-US,en;q=0.9","uwozac8dq9trjct","21","[""Black or African-American""]","No","Male","2484660","27207","","","{""price_1"":""500"",""price_2"":""550"",""price_3"":""600""}","rating","dtc","repulsion_2","2","microwave ovens","null","null","null","null","null","null","1","30","40","20","100","90","100","Warranty","Cooking power","",""
"","","","","","rating_trial_setup","html-keyboard-response","55","1733215","0.0-3.0-0.26","137","1","2025-04-14 14:11:15","bb671e3ae32f654b8954ea4c4635f915","","Mozilla/5.0 (Macintosh; Intel Mac OS X 10_15_7) AppleWebKit/605.1.15 (KHTML, like Gecko) Version/18.4 Safari/605.1.15","Macintosh","Safari","18.4","OS X","10_15_7","https://hz8g1ckzuq.cognition.run/","en-US,en;q=0.9","uwozac8dq9trjct","21","[""Black or African-American""]","No","Male","2484660","null","","<p></p>","null","rating","dct","attraction_1","2","washing machines","null","null","null","null","null","null","1","","","","","","","","","",""
"","","","","","rating_trial","survey-html-form","56","1771527","0.0-3.0-1.26","137","1","2025-04-14 14:11:15","bb671e3ae32f654b8954ea4c4635f915","","Mozilla/5.0 (Macintosh; Intel Mac OS X 10_15_7) AppleWebKit/605.1.15 (KHTML, like Gecko) Version/18.4 Safari/605.1.15","Macintosh","Safari","18.4","OS X","10_15_7","https://hz8g1ckzuq.cognition.run/","en-US,en;q=0.9","uwozac8dq9trjct","21","[""Black or African-American""]","No","Male","2484660","38307","","","{""price_1"":""300"",""price_2"":""400"",""price_3"":""350""}","rating","dct","attraction_1","2","washing machines","null","null","null","null","null","null","1","50","60","45","60","50","60","Average lifespan","Energy savings","",""
"","","","","","rating_trial_setup","html-keyboard-response","57","1771831","0.0-3.0-0.27","137","1","2025-04-14 14:11:15","bb671e3ae32f654b8954ea4c4635f915","","Mozilla/5.0 (Macintosh; Intel Mac OS X 10_15_7) AppleWebKit/605.1.15 (KHTML, like Gecko) Version/18.4 Safari/605.1.15","Macintosh","Safari","18.4","OS X","10_15_7","https://hz8g1ckzuq.cognition.run/","en-US,en;q=0.9","uwozac8dq9trjct","21","[""Black or African-American""]","No","Male","2484660","null","","<p></p>","null","rating","tcd","attraction_1","2","microwave ovens","null","null","null","null","null","null","2","","","","","","","","","",""
"","","","","","rating_trial","survey-html-form","58","1818860","0.0-3.0-1.27","137","1","2025-04-14 14:11:15","bb671e3ae32f654b8954ea4c4635f915","","Mozilla/5.0 (Macintosh; Intel Mac OS X 10_15_7) AppleWebKit/605.1.15 (KHTML, like Gecko) Version/18.4 Safari/605.1.15","Macintosh","Safari","18.4","OS X","10_15_7","https://hz8g1ckzuq.cognition.run/","en-US,en;q=0.9","uwozac8dq9trjct","21","[""Black or African-American""]","No","Male","2484660","47023","","","{""price_1"":""250"",""price_2"":""200"",""price_3"":""150""}","rating","tcd","attraction_1","2","microwave ovens","null","null","null","null","null","null","2","50","60","45","60","50","60","Warranty","Cooking power","",""
"","","","","","rating_trial_setup","html-keyboard-response","59","1819164","0.0-3.0-0.28","137","1","2025-04-14 14:11:15","bb671e3ae32f654b8954ea4c4635f915","","Mozilla/5.0 (Macintosh; Intel Mac OS X 10_15_7) AppleWebKit/605.1.15 (KHTML, like Gecko) Version/18.4 Safari/605.1.15","Macintosh","Safari","18.4","OS X","10_15_7","https://hz8g1ckzuq.cognition.run/","en-US,en;q=0.9","uwozac8dq9trjct","21","[""Black or African-American""]","No","Male","2484660","null","","<p></p>","null","rating","bww","catch","null","televisions","95","60","15","10","25","5","2","","","","","","","","","",""
"","","","","","rating_trial","survey-html-form","60","1850260","0.0-3.0-1.28","137","1","2025-04-14 14:11:15","bb671e3ae32f654b8954ea4c4635f915","","Mozilla/5.0 (Macintosh; Intel Mac OS X 10_15_7) AppleWebKit/605.1.15 (KHTML, like Gecko) Version/18.4 Safari/605.1.15","Macintosh","Safari","18.4","OS X","10_15_7","https://hz8g1ckzuq.cognition.run/","en-US,en;q=0.9","uwozac8dq9trjct","21","[""Black or African-American""]","No","Male","2484660","31083","","","{""price_1"":""800"",""price_2"":""100"",""price_3"":""150""}","rating","bww","catch","null","televisions","95","60","15","10","25","5","2","null","null","null","null","null","null","Screen size","Average lifespan","",""
"","","","","","rating_trial_setup","html-keyboard-response","61","1850565","0.0-3.0-0.29","137","1","2025-04-14 14:11:15","bb671e3ae32f654b8954ea4c4635f915","","Mozilla/5.0 (Macintosh; Intel Mac OS X 10_15_7) AppleWebKit/605.1.15 (KHTML, like Gecko) Version/18.4 Safari/605.1.15","Macintosh","Safari","18.4","OS X","10_15_7","https://hz8g1ckzuq.cognition.run/","en-US,en;q=0.9","uwozac8dq9trjct","21","[""Black or African-American""]","No","Male","2484660","null","","<p></p>","null","rating","tcd","repulsion_2","1","laptops","null","null","null","null","null","null","2","","","","","","","","","",""
"","","","","","rating_trial","survey-html-form","62","1913958","0.0-3.0-1.29","137","1","2025-04-14 14:11:15","bb671e3ae32f654b8954ea4c4635f915","","Mozilla/5.0 (Macintosh; Intel Mac OS X 10_15_7) AppleWebKit/605.1.15 (KHTML, like Gecko) Version/18.4 Safari/605.1.15","Macintosh","Safari","18.4","OS X","10_15_7","https://hz8g1ckzuq.cognition.run/","en-US,en;q=0.9","uwozac8dq9trjct","21","[""Black or African-American""]","No","Male","2484660","63390","","","{""price_1"":""600"",""price_2"":""700"",""price_3"":""400""}","rating","tcd","repulsion_2","1","laptops","null","null","null","null","null","null","2","100","90","100","30","40","20","Processing speed","Memory (RAM)","",""
"","","","","","rating_trial_setup","html-keyboard-response","63","1914261","0.0-3.0-0.30","137","1","2025-04-14 14:11:15","bb671e3ae32f654b8954ea4c4635f915","","Mozilla/5.0 (Macintosh; Intel Mac OS X 10_15_7) AppleWebKit/605.1.15 (KHTML, like Gecko) Version/18.4 Safari/605.1.15","Macintosh","Safari","18.4","OS X","10_15_7","https://hz8g1ckzuq.cognition.run/","en-US,en;q=0.9","uwozac8dq9trjct","21","[""Black or African-American""]","No","Male","2484660","null","","<p></p>","null","rating","cdt","repulsion_2","1","microwave ovens","null","null","null","null","null","null","2","","","","","","","","","",""
"","","","","","rating_trial","survey-html-form","64","1927743","0.0-3.0-1.30","137","1","2025-04-14 14:11:15","bb671e3ae32f654b8954ea4c4635f915","","Mozilla/5.0 (Macintosh; Intel Mac OS X 10_15_7) AppleWebKit/605.1.15 (KHTML, like Gecko) Version/18.4 Safari/605.1.15","Macintosh","Safari","18.4","OS X","10_15_7","https://hz8g1ckzuq.cognition.run/","en-US,en;q=0.9","uwozac8dq9trjct","21","[""Black or African-American""]","No","Male","2484660","13476","","","{""price_1"":""200"",""price_2"":""100"",""price_3"":""150""}","rating","cdt","repulsion_2","1","microwave ovens","null","null","null","null","null","null","2","100","90","100","30","40","20","Warranty","Cooking power","",""
"","","","","","rating_trial_setup","html-keyboard-response","65","1928047","0.0-3.0-0.31","137","1","2025-04-14 14:11:15","bb671e3ae32f654b8954ea4c4635f915","","Mozilla/5.0 (Macintosh; Intel Mac OS X 10_15_7) AppleWebKit/605.1.15 (KHTML, like Gecko) Version/18.4 Safari/605.1.15","Macintosh","Safari","18.4","OS X","10_15_7","https://hz8g1ckzuq.cognition.run/","en-US,en;q=0.9","uwozac8dq9trjct","21","[""Black or African-American""]","No","Male","2484660","null","","<p></p>","null","rating","tcd","attraction_2","1","washing machines","null","null","null","null","null","null","2","","","","","","","","","",""
"","","","","","rating_trial","survey-html-form","66","1945808","0.0-3.0-1.31","137","1","2025-04-14 14:11:15","bb671e3ae32f654b8954ea4c4635f915","","Mozilla/5.0 (Macintosh; Intel Mac OS X 10_15_7) AppleWebKit/605.1.15 (KHTML, like Gecko) Version/18.4 Safari/605.1.15","Macintosh","Safari","18.4","OS X","10_15_7","https://hz8g1ckzuq.cognition.run/","en-US,en;q=0.9","uwozac8dq9trjct","21","[""Black or African-American""]","No","Male","2484660","17756","","","{""price_1"":""250"",""price_2"":""300"",""price_3"":""200""}","rating","tcd","attraction_2","1","washing machines","null","null","null","null","null","null","2","60","50","60","50","60","40","Average lifespan","Energy savings","",""
"","","","","","rating_trial_setup","html-keyboard-response","67","1946112","0.0-3.0-0.32","137","1","2025-04-14 14:11:15","bb671e3ae32f654b8954ea4c4635f915","","Mozilla/5.0 (Macintosh; Intel Mac OS X 10_15_7) AppleWebKit/605.1.15 (KHTML, like Gecko) Version/18.4 Safari/605.1.15","Macintosh","Safari","18.4","OS X","10_15_7","https://hz8g1ckzuq.cognition.run/","en-US,en;q=0.9","uwozac8dq9trjct","21","[""Black or African-American""]","No","Male","2484660","null","","<p></p>","null","rating","cdt","attraction_2","2","microwave ovens","null","null","null","null","null","null","1","","","","","","","","","",""
"","","","","","rating_trial","survey-html-form","68","1960625","0.0-3.0-1.32","137","1","2025-04-14 14:11:15","bb671e3ae32f654b8954ea4c4635f915","","Mozilla/5.0 (Macintosh; Intel Mac OS X 10_15_7) AppleWebKit/605.1.15 (KHTML, like Gecko) Version/18.4 Safari/605.1.15","Macintosh","Safari","18.4","OS X","10_15_7","https://hz8g1ckzuq.cognition.run/","en-US,en;q=0.9","uwozac8dq9trjct","21","[""Black or African-American""]","No","Male","2484660","14507","","","{""price_1"":""300"",""price_2"":""150"",""price_3"":""200""}","rating","cdt","attraction_2","2","microwave ovens","null","null","null","null","null","null","1","50","60","40","60","50","60","Warranty","Cooking power","",""
"","","","","","rating_trial_setup","html-keyboard-response","69","1960929","0.0-3.0-0.33","137","1","2025-04-14 14:11:15","bb671e3ae32f654b8954ea4c4635f915","","Mozilla/5.0 (Macintosh; Intel Mac OS X 10_15_7) AppleWebKit/605.1.15 (KHTML, like Gecko) Version/18.4 Safari/605.1.15","Macintosh","Safari","18.4","OS X","10_15_7","https://hz8g1ckzuq.cognition.run/","en-US,en;q=0.9","uwozac8dq9trjct","21","[""Black or African-American""]","No","Male","2484660","null","","<p></p>","null","rating","tdc","repulsion_2","2","laptops","null","null","null","null","null","null","1","","","","","","","","","",""
"","","","","","rating_trial","survey-html-form","70","1990142","0.0-3.0-1.33","137","1","2025-04-14 14:11:15","bb671e3ae32f654b8954ea4c4635f915","","Mozilla/5.0 (Macintosh; Intel Mac OS X 10_15_7) AppleWebKit/605.1.15 (KHTML, like Gecko) Version/18.4 Safari/605.1.15","Macintosh","Safari","18.4","OS X","10_15_7","https://hz8g1ckzuq.cognition.run/","en-US,en;q=0.9","uwozac8dq9trjct","21","[""Black or African-American""]","No","Male","2484660","29208","","","{""price_1"":""300"",""price_2"":""250"",""price_3"":""400""}","rating","tdc","repulsion_2","2","laptops","null","null","null","null","null","null","1","30","40","20","100","90","100","Processing speed","Memory (RAM)","",""
"","","","","","rating_trial_setup","html-keyboard-response","71","1990446","0.0-3.0-0.34","137","1","2025-04-14 14:11:15","bb671e3ae32f654b8954ea4c4635f915","","Mozilla/5.0 (Macintosh; Intel Mac OS X 10_15_7) AppleWebKit/605.1.15 (KHTML, like Gecko) Version/18.4 Safari/605.1.15","Macintosh","Safari","18.4","OS X","10_15_7","https://hz8g1ckzuq.cognition.run/","en-US,en;q=0.9","uwozac8dq9trjct","21","[""Black or African-American""]","No","Male","2484660","null","","<p></p>","null","rating","dct","attraction_1","2","laptops","null","null","null","null","null","null","1","","","","","","","","","",""
"","","","","","rating_trial","survey-html-form","72","2005390","0.0-3.0-1.34","137","1","2025-04-14 14:11:15","bb671e3ae32f654b8954ea4c4635f915","","Mozilla/5.0 (Macintosh; Intel Mac OS X 10_15_7) AppleWebKit/605.1.15 (KHTML, like Gecko) Version/18.4 Safari/605.1.15","Macintosh","Safari","18.4","OS X","10_15_7","https://hz8g1ckzuq.cognition.run/","en-US,en;q=0.9","uwozac8dq9trjct","21","[""Black or African-American""]","No","Male","2484660","14938","","","{""price_1"":""300"",""price_2"":""500"",""price_3"":""450""}","rating","dct","attraction_1","2","laptops","null","null","null","null","null","null","1","50","60","45","60","50","60","Processing speed","Memory (RAM)","",""
"","","","","","rating_trial_setup","html-keyboard-response","73","2005694","0.0-3.0-0.35","137","1","2025-04-14 14:11:15","bb671e3ae32f654b8954ea4c4635f915","","Mozilla/5.0 (Macintosh; Intel Mac OS X 10_15_7) AppleWebKit/605.1.15 (KHTML, like Gecko) Version/18.4 Safari/605.1.15","Macintosh","Safari","18.4","OS X","10_15_7","https://hz8g1ckzuq.cognition.run/","en-US,en;q=0.9","uwozac8dq9trjct","21","[""Black or African-American""]","No","Male","2484660","null","","<p></p>","null","rating","dtc","attraction_1","1","microwave ovens","null","null","null","null","null","null","2","","","","","","","","","",""
"","","","","","rating_trial","survey-html-form","74","2026906","0.0-3.0-1.35","137","1","2025-04-14 14:11:15","bb671e3ae32f654b8954ea4c4635f915","","Mozilla/5.0 (Macintosh; Intel Mac OS X 10_15_7) AppleWebKit/605.1.15 (KHTML, like Gecko) Version/18.4 Safari/605.1.15","Macintosh","Safari","18.4","OS X","10_15_7","https://hz8g1ckzuq.cognition.run/","en-US,en;q=0.9","uwozac8dq9trjct","21","[""Black or African-American""]","No","Male","2484660","21207","","","{""price_1"":""150"",""price_2"":""200"",""price_3"":""275""}","rating","dtc","attraction_1","1","microwave ovens","null","null","null","null","null","null","2","60","50","60","50","60","45","Warranty","Cooking power","",""
"","","","","","rating_trial_setup","html-keyboard-response","75","2027211","0.0-3.0-0.36","137","1","2025-04-14 14:11:15","bb671e3ae32f654b8954ea4c4635f915","","Mozilla/5.0 (Macintosh; Intel Mac OS X 10_15_7) AppleWebKit/605.1.15 (KHTML, like Gecko) Version/18.4 Safari/605.1.15","Macintosh","Safari","18.4","OS X","10_15_7","https://hz8g1ckzuq.cognition.run/","en-US,en;q=0.9","uwozac8dq9trjct","21","[""Black or African-American""]","No","Male","2484660","null","","<p></p>","null","rating","tcd","attraction_2","2","televisions","null","null","null","null","null","null","2","","","","","","","","","",""
"","","","","","rating_trial","survey-html-form","76","2060456","0.0-3.0-1.36","137","1","2025-04-14 14:11:15","bb671e3ae32f654b8954ea4c4635f915","","Mozilla/5.0 (Macintosh; Intel Mac OS X 10_15_7) AppleWebKit/605.1.15 (KHTML, like Gecko) Version/18.4 Safari/605.1.15","Macintosh","Safari","18.4","OS X","10_15_7","https://hz8g1ckzuq.cognition.run/","en-US,en;q=0.9","uwozac8dq9trjct","21","[""Black or African-American""]","No","Male","2484660","33239","","","{""price_1"":""300"",""price_2"":""350"",""price_3"":""250""}","rating","tcd","attraction_2","2","televisions","null","null","null","null","null","null","2","50","60","40","60","50","60","Screen size","Average lifespan","",""
"","","","","","rating_trial_setup","html-keyboard-response","77","2060760","0.0-3.0-0.37","137","1","2025-04-14 14:11:15","bb671e3ae32f654b8954ea4c4635f915","","Mozilla/5.0 (Macintosh; Intel Mac OS X 10_15_7) AppleWebKit/605.1.15 (KHTML, like Gecko) Version/18.4 Safari/605.1.15","Macintosh","Safari","18.4","OS X","10_15_7","https://hz8g1ckzuq.cognition.run/","en-US,en;q=0.9","uwozac8dq9trjct","21","[""Black or African-American""]","No","Male","2484660","null","","<p></p>","null","rating","cdt","repulsion_1","2","televisions","null","null","null","null","null","null","1","","","","","","","","","",""
"","","","","","rating_trial","survey-html-form","78","2078956","0.0-3.0-1.37","137","1","2025-04-14 14:11:15","bb671e3ae32f654b8954ea4c4635f915","","Mozilla/5.0 (Macintosh; Intel Mac OS X 10_15_7) AppleWebKit/605.1.15 (KHTML, like Gecko) Version/18.4 Safari/605.1.15","Macintosh","Safari","18.4","OS X","10_15_7","https://hz8g1ckzuq.cognition.run/","en-US,en;q=0.9","uwozac8dq9trjct","21","[""Black or African-American""]","No","Male","2484660","18191","","","{""price_1"":""450"",""price_2"":""350"",""price_3"":""400""}","rating","cdt","repulsion_1","2","televisions","null","null","null","null","null","null","1","30","40","25","100","90","100","Screen size","Average lifespan","",""
"","","","","","rating_trial_setup","html-keyboard-response","79","2079261","0.0-3.0-0.38","137","1","2025-04-14 14:11:15","bb671e3ae32f654b8954ea4c4635f915","","Mozilla/5.0 (Macintosh; Intel Mac OS X 10_15_7) AppleWebKit/605.1.15 (KHTML, like Gecko) Version/18.4 Safari/605.1.15","Macintosh","Safari","18.4","OS X","10_15_7","https://hz8g1ckzuq.cognition.run/","en-US,en;q=0.9","uwozac8dq9trjct","21","[""Black or African-American""]","No","Male","2484660","null","","<p></p>","null","rating","wbw","catch","null","washing machines","60","85","30","35","5","20","2","","","","","","","","","",""
"","","","","","rating_trial","survey-html-form","80","2094841","0.0-3.0-1.38","137","1","2025-04-14 14:11:15","bb671e3ae32f654b8954ea4c4635f915","","Mozilla/5.0 (Macintosh; Intel Mac OS X 10_15_7) AppleWebKit/605.1.15 (KHTML, like Gecko) Version/18.4 Safari/605.1.15","Macintosh","Safari","18.4","OS X","10_15_7","https://hz8g1ckzuq.cognition.run/","en-US,en;q=0.9","uwozac8dq9trjct","21","[""Black or African-American""]","No","Male","2484660","15575","","","{""price_1"":""150"",""price_2"":""300"",""price_3"":""100""}","rating","wbw","catch","null","washing machines","60","85","30","35","5","20","2","null","null","null","null","null","null","Average lifespan","Energy savings","",""
"","","","","","rating_trial_setup","html-keyboard-response","81","2095147","0.0-3.0-0.39","137","1","2025-04-14 14:11:15","bb671e3ae32f654b8954ea4c4635f915","","Mozilla/5.0 (Macintosh; Intel Mac OS X 10_15_7) AppleWebKit/605.1.15 (KHTML, like Gecko) Version/18.4 Safari/605.1.15","Macintosh","Safari","18.4","OS X","10_15_7","https://hz8g1ckzuq.cognition.run/","en-US,en;q=0.9","uwozac8dq9trjct","21","[""Black or African-American""]","No","Male","2484660","null","","<p></p>","null","rating","dtc","repulsion_2","1","televisions","null","null","null","null","null","null","1","","","","","","","","","",""
"","","","","","rating_trial","survey-html-form","82","2138990","0.0-3.0-1.39","137","1","2025-04-14 14:11:15","bb671e3ae32f654b8954ea4c4635f915","","Mozilla/5.0 (Macintosh; Intel Mac OS X 10_15_7) AppleWebKit/605.1.15 (KHTML, like Gecko) Version/18.4 Safari/605.1.15","Macintosh","Safari","18.4","OS X","10_15_7","https://hz8g1ckzuq.cognition.run/","en-US,en;q=0.9","uwozac8dq9trjct","21","[""Black or African-American""]","No","Male","2484660","43836","","","{""price_1"":""500"",""price_2"":""600"",""price_3"":""750""}","rating","dtc","repulsion_2","1","televisions","null","null","null","null","null","null","1","100","90","100","30","40","20","Screen size","Average lifespan","",""
"","","","","","","instructions","83","2168386","0.0-4.0","137","1","2025-04-14 14:11:15","bb671e3ae32f654b8954ea4c4635f915","","Mozilla/5.0 (Macintosh; Intel Mac OS X 10_15_7) AppleWebKit/605.1.15 (KHTML, like Gecko) Version/18.4 Safari/605.1.15","Macintosh","Safari","18.4","OS X","10_15_7","https://hz8g1ckzuq.cognition.run/","en-US,en;q=0.9","uwozac8dq9trjct","21","[""Black or African-American""]","No","Male","2484660","29393","[{""page_index"":0,""viewing_time"":1309},{""page_index"":1,""viewing_time"":884},{""page_index"":2,""viewing_time"":1382},{""page_index"":3,""viewing_time"":1618},{""page_index"":4,""viewing_time"":1883},{""page_index"":5,""viewing_time"":867},{""page_index"":6,""viewing_time"":18483},{""page_index"":7,""viewing_time"":2966}]","","","","","","","","","","","","","","","","","","","","","","","",""
"","","","","","choice_trial_setup","html-keyboard-response","84","2168692","0.0-5.0-0.0","137","1","2025-04-14 14:11:15","bb671e3ae32f654b8954ea4c4635f915","","Mozilla/5.0 (Macintosh; Intel Mac OS X 10_15_7) AppleWebKit/605.1.15 (KHTML, like Gecko) Version/18.4 Safari/605.1.15","Macintosh","Safari","18.4","OS X","10_15_7","https://hz8g1ckzuq.cognition.run/","en-US,en;q=0.9","uwozac8dq9trjct","21","[""Black or African-American""]","No","Male","2484660","null","","<p></p>","null","choice","dtc","attraction_2","1","microwave ovens","null","null","null","null","null","null","1","","","","","","","","","",""
"","","","","","choice_trial","survey-html-form","85","2176240","0.0-5.0-1.0","137","1","2025-04-14 14:11:15","bb671e3ae32f654b8954ea4c4635f915","","Mozilla/5.0 (Macintosh; Intel Mac OS X 10_15_7) AppleWebKit/605.1.15 (KHTML, like Gecko) Version/18.4 Safari/605.1.15","Macintosh","Safari","18.4","OS X","10_15_7","https://hz8g1ckzuq.cognition.run/","en-US,en;q=0.9","uwozac8dq9trjct","21","[""Black or African-American""]","No","Male","2484660","7540","","","{""product_choice"":""C""}","choice","dtc","attraction_2","1","microwave ovens","null","null","null","null","null","null","1","60","50","60","50","60","40","Warranty","Cooking power","",""
"","","","","","choice_trial_setup","html-keyboard-response","86","2176545","0.0-5.0-0.1","137","1","2025-04-14 14:11:15","bb671e3ae32f654b8954ea4c4635f915","","Mozilla/5.0 (Macintosh; Intel Mac OS X 10_15_7) AppleWebKit/605.1.15 (KHTML, like Gecko) Version/18.4 Safari/605.1.15","Macintosh","Safari","18.4","OS X","10_15_7","https://hz8g1ckzuq.cognition.run/","en-US,en;q=0.9","uwozac8dq9trjct","21","[""Black or African-American""]","No","Male","2484660","null","","<p></p>","null","choice","wbw","catch","null","washing machines","50","75","20","40","15","15","2","","","","","","","","","",""
"","","","","","choice_trial","survey-html-form","87","2180055","0.0-5.0-1.1","137","1","2025-04-14 14:11:15","bb671e3ae32f654b8954ea4c4635f915","","Mozilla/5.0 (Macintosh; Intel Mac OS X 10_15_7) AppleWebKit/605.1.15 (KHTML, like Gecko) Version/18.4 Safari/605.1.15","Macintosh","Safari","18.4","OS X","10_15_7","https://hz8g1ckzuq.cognition.run/","en-US,en;q=0.9","uwozac8dq9trjct","21","[""Black or African-American""]","No","Male","2484660","3502","","","{""product_choice"":""B""}","choice","wbw","catch","null","washing machines","50","75","20","40","15","15","2","null","null","null","null","null","null","Average lifespan","Energy savings","",""
"","","","","","choice_trial_setup","html-keyboard-response","88","2180360","0.0-5.0-0.2","137","1","2025-04-14 14:11:15","bb671e3ae32f654b8954ea4c4635f915","","Mozilla/5.0 (Macintosh; Intel Mac OS X 10_15_7) AppleWebKit/605.1.15 (KHTML, like Gecko) Version/18.4 Safari/605.1.15","Macintosh","Safari","18.4","OS X","10_15_7","https://hz8g1ckzuq.cognition.run/","en-US,en;q=0.9","uwozac8dq9trjct","21","[""Black or African-American""]","No","Male","2484660","null","","<p></p>","null","choice","ctd","attraction_1","1","washing machines","null","null","null","null","null","null","2","","","","","","","","","",""
"","","","","","choice_trial","survey-html-form","89","2187821","0.0-5.0-1.2","137","1","2025-04-14 14:11:15","bb671e3ae32f654b8954ea4c4635f915","","Mozilla/5.0 (Macintosh; Intel Mac OS X 10_15_7) AppleWebKit/605.1.15 (KHTML, like Gecko) Version/18.4 Safari/605.1.15","Macintosh","Safari","18.4","OS X","10_15_7","https://hz8g1ckzuq.cognition.run/","en-US,en;q=0.9","uwozac8dq9trjct","21","[""Black or African-American""]","No","Male","2484660","7456","","","{""product_choice"":""A""}","choice","ctd","attraction_1","1","washing machines","null","null","null","null","null","null","2","60","50","60","50","60","45","Average lifespan","Energy savings","",""
"","","","","","choice_trial_setup","html-keyboard-response","90","2188126","0.0-5.0-0.3","137","1","2025-04-14 14:11:15","bb671e3ae32f654b8954ea4c4635f915","","Mozilla/5.0 (Macintosh; Intel Mac OS X 10_15_7) AppleWebKit/605.1.15 (KHTML, like Gecko) Version/18.4 Safari/605.1.15","Macintosh","Safari","18.4","OS X","10_15_7","https://hz8g1ckzuq.cognition.run/","en-US,en;q=0.9","uwozac8dq9trjct","21","[""Black or African-American""]","No","Male","2484660","null","","<p></p>","null","choice","tdc","repulsion_1","1","microwave ovens","null","null","null","null","null","null","2","","","","","","","","","",""
"","","","","","choice_trial","survey-html-form","91","2191054","0.0-5.0-1.3","137","1","2025-04-14 14:11:15","bb671e3ae32f654b8954ea4c4635f915","","Mozilla/5.0 (Macintosh; Intel Mac OS X 10_15_7) AppleWebKit/605.1.15 (KHTML, like Gecko) Version/18.4 Safari/605.1.15","Macintosh","Safari","18.4","OS X","10_15_7","https://hz8g1ckzuq.cognition.run/","en-US,en;q=0.9","uwozac8dq9trjct","21","[""Black or African-American""]","No","Male","2484660","2921","","","{""product_choice"":""C""}","choice","tdc","repulsion_1","1","microwave ovens","null","null","null","null","null","null","2","100","90","100","30","40","25","Warranty","Cooking power","",""
"","","","","","choice_trial_setup","html-keyboard-response","92","2191358","0.0-5.0-0.4","137","1","2025-04-14 14:11:15","bb671e3ae32f654b8954ea4c4635f915","","Mozilla/5.0 (Macintosh; Intel Mac OS X 10_15_7) AppleWebKit/605.1.15 (KHTML, like Gecko) Version/18.4 Safari/605.1.15","Macintosh","Safari","18.4","OS X","10_15_7","https://hz8g1ckzuq.cognition.run/","en-US,en;q=0.9","uwozac8dq9trjct","21","[""Black or African-American""]","No","Male","2484660","null","","<p></p>","null","choice","dtc","attraction_1","2","televisions","null","null","null","null","null","null","1","","","","","","","","","",""
"","","","","","choice_trial","survey-html-form","93","2197238","0.0-5.0-1.4","137","1","2025-04-14 14:11:15","bb671e3ae32f654b8954ea4c4635f915","","Mozilla/5.0 (Macintosh; Intel Mac OS X 10_15_7) AppleWebKit/605.1.15 (KHTML, like Gecko) Version/18.4 Safari/605.1.15","Macintosh","Safari","18.4","OS X","10_15_7","https://hz8g1ckzuq.cognition.run/","en-US,en;q=0.9","uwozac8dq9trjct","21","[""Black or African-American""]","No","Male","2484660","5875","","","{""product_choice"":""B""}","choice","dtc","attraction_1","2","televisions","null","null","null","null","null","null","1","50","60","45","60","50","60","Screen size","Average lifespan","",""
"","","","","","choice_trial_setup","html-keyboard-response","94","2197542","0.0-5.0-0.5","137","1","2025-04-14 14:11:15","bb671e3ae32f654b8954ea4c4635f915","","Mozilla/5.0 (Macintosh; Intel Mac OS X 10_15_7) AppleWebKit/605.1.15 (KHTML, like Gecko) Version/18.4 Safari/605.1.15","Macintosh","Safari","18.4","OS X","10_15_7","https://hz8g1ckzuq.cognition.run/","en-US,en;q=0.9","uwozac8dq9trjct","21","[""Black or African-American""]","No","Male","2484660","null","","<p></p>","null","choice","dct","repulsion_2","2","laptops","null","null","null","null","null","null","2","","","","","","","","","",""
"","","","","","choice_trial","survey-html-form","95","2202373","0.0-5.0-1.5","137","1","2025-04-14 14:11:15","bb671e3ae32f654b8954ea4c4635f915","","Mozilla/5.0 (Macintosh; Intel Mac OS X 10_15_7) AppleWebKit/605.1.15 (KHTML, like Gecko) Version/18.4 Safari/605.1.15","Macintosh","Safari","18.4","OS X","10_15_7","https://hz8g1ckzuq.cognition.run/","en-US,en;q=0.9","uwozac8dq9trjct","21","[""Black or African-American""]","No","Male","2484660","4824","","","{""product_choice"":""B""}","choice","dct","repulsion_2","2","laptops","null","null","null","null","null","null","2","30","40","20","100","90","100","Processing speed","Memory (RAM)","",""
"","","","","","choice_trial_setup","html-keyboard-response","96","2202679","0.0-5.0-0.6","137","1","2025-04-14 14:11:15","bb671e3ae32f654b8954ea4c4635f915","","Mozilla/5.0 (Macintosh; Intel Mac OS X 10_15_7) AppleWebKit/605.1.15 (KHTML, like Gecko) Version/18.4 Safari/605.1.15","Macintosh","Safari","18.4","OS X","10_15_7","https://hz8g1ckzuq.cognition.run/","en-US,en;q=0.9","uwozac8dq9trjct","21","[""Black or African-American""]","No","Male","2484660","null","","<p></p>","null","choice","bww","catch","null","microwave ovens","65","85","5","20","5","10","2","","","","","","","","","",""
"","","","","","choice_trial","survey-html-form","97","2204988","0.0-5.0-1.6","137","1","2025-04-14 14:11:15","bb671e3ae32f654b8954ea4c4635f915","","Mozilla/5.0 (Macintosh; Intel Mac OS X 10_15_7) AppleWebKit/605.1.15 (KHTML, like Gecko) Version/18.4 Safari/605.1.15","Macintosh","Safari","18.4","OS X","10_15_7","https://hz8g1ckzuq.cognition.run/","en-US,en;q=0.9","uwozac8dq9trjct","21","[""Black or African-American""]","No","Male","2484660","2303","","","{""product_choice"":""A""}","choice","bww","catch","null","microwave ovens","65","85","5","20","5","10","2","null","null","null","null","null","null","Warranty","Cooking power","",""
"","","","","","choice_trial_setup","html-keyboard-response","98","2205293","0.0-5.0-0.7","137","1","2025-04-14 14:11:15","bb671e3ae32f654b8954ea4c4635f915","","Mozilla/5.0 (Macintosh; Intel Mac OS X 10_15_7) AppleWebKit/605.1.15 (KHTML, like Gecko) Version/18.4 Safari/605.1.15","Macintosh","Safari","18.4","OS X","10_15_7","https://hz8g1ckzuq.cognition.run/","en-US,en;q=0.9","uwozac8dq9trjct","21","[""Black or African-American""]","No","Male","2484660","null","","<p></p>","null","choice","tcd","attraction_2","2","washing machines","null","null","null","null","null","null","1","","","","","","","","","",""
"","","","","","choice_trial","survey-html-form","99","2211154","0.0-5.0-1.7","137","1","2025-04-14 14:11:15","bb671e3ae32f654b8954ea4c4635f915","","Mozilla/5.0 (Macintosh; Intel Mac OS X 10_15_7) AppleWebKit/605.1.15 (KHTML, like Gecko) Version/18.4 Safari/605.1.15","Macintosh","Safari","18.4","OS X","10_15_7","https://hz8g1ckzuq.cognition.run/","en-US,en;q=0.9","uwozac8dq9trjct","21","[""Black or African-American""]","No","Male","2484660","5855","","","{""product_choice"":""A""}","choice","tcd","attraction_2","2","washing machines","null","null","null","null","null","null","1","50","60","40","60","50","60","Average lifespan","Energy savings","",""
"","","","","","choice_trial_setup","html-keyboard-response","100","2211459","0.0-5.0-0.8","137","1","2025-04-14 14:11:15","bb671e3ae32f654b8954ea4c4635f915","","Mozilla/5.0 (Macintosh; Intel Mac OS X 10_15_7) AppleWebKit/605.1.15 (KHTML, like Gecko) Version/18.4 Safari/605.1.15","Macintosh","Safari","18.4","OS X","10_15_7","https://hz8g1ckzuq.cognition.run/","en-US,en;q=0.9","uwozac8dq9trjct","21","[""Black or African-American""]","No","Male","2484660","null","","<p></p>","null","choice","ctd","repulsion_1","2","laptops","null","null","null","null","null","null","2","","","","","","","","","",""
"","","","","","choice_trial","survey-html-form","101","2215654","0.0-5.0-1.8","137","1","2025-04-14 14:11:15","bb671e3ae32f654b8954ea4c4635f915","","Mozilla/5.0 (Macintosh; Intel Mac OS X 10_15_7) AppleWebKit/605.1.15 (KHTML, like Gecko) Version/18.4 Safari/605.1.15","Macintosh","Safari","18.4","OS X","10_15_7","https://hz8g1ckzuq.cognition.run/","en-US,en;q=0.9","uwozac8dq9trjct","21","[""Black or African-American""]","No","Male","2484660","4189","","","{""product_choice"":""A""}","choice","ctd","repulsion_1","2","laptops","null","null","null","null","null","null","2","30","40","25","100","90","100","Processing speed","Memory (RAM)","",""
"","","","","","choice_trial_setup","html-keyboard-response","102","2215959","0.0-5.0-0.9","137","1","2025-04-14 14:11:15","bb671e3ae32f654b8954ea4c4635f915","","Mozilla/5.0 (Macintosh; Intel Mac OS X 10_15_7) AppleWebKit/605.1.15 (KHTML, like Gecko) Version/18.4 Safari/605.1.15","Macintosh","Safari","18.4","OS X","10_15_7","https://hz8g1ckzuq.cognition.run/","en-US,en;q=0.9","uwozac8dq9trjct","21","[""Black or African-American""]","No","Male","2484660","null","","<p></p>","null","choice","bww","catch","null","laptops","80","50","45","50","25","25","2","","","","","","","","","",""
"","","","","","choice_trial","survey-html-form","103","2220287","0.0-5.0-1.9","137","1","2025-04-14 14:11:15","bb671e3ae32f654b8954ea4c4635f915","","Mozilla/5.0 (Macintosh; Intel Mac OS X 10_15_7) AppleWebKit/605.1.15 (KHTML, like Gecko) Version/18.4 Safari/605.1.15","Macintosh","Safari","18.4","OS X","10_15_7","https://hz8g1ckzuq.cognition.run/","en-US,en;q=0.9","uwozac8dq9trjct","21","[""Black or African-American""]","No","Male","2484660","4321","","","{""product_choice"":""A""}","choice","bww","catch","null","laptops","80","50","45","50","25","25","2","null","null","null","null","null","null","Processing speed","Memory (RAM)","",""
"","","","","","choice_trial_setup","html-keyboard-response","104","2220590","0.0-5.0-0.10","137","1","2025-04-14 14:11:15","bb671e3ae32f654b8954ea4c4635f915","","Mozilla/5.0 (Macintosh; Intel Mac OS X 10_15_7) AppleWebKit/605.1.15 (KHTML, like Gecko) Version/18.4 Safari/605.1.15","Macintosh","Safari","18.4","OS X","10_15_7","https://hz8g1ckzuq.cognition.run/","en-US,en;q=0.9","uwozac8dq9trjct","21","[""Black or African-American""]","No","Male","2484660","null","","<p></p>","null","choice","tcd","repulsion_1","1","televisions","null","null","null","null","null","null","1","","","","","","","","","",""
"","","","","","choice_trial","survey-html-form","105","2229455","0.0-5.0-1.10","137","1","2025-04-14 14:11:15","bb671e3ae32f654b8954ea4c4635f915","","Mozilla/5.0 (Macintosh; Intel Mac OS X 10_15_7) AppleWebKit/605.1.15 (KHTML, like Gecko) Version/18.4 Safari/605.1.15","Macintosh","Safari","18.4","OS X","10_15_7","https://hz8g1ckzuq.cognition.run/","en-US,en;q=0.9","uwozac8dq9trjct","21","[""Black or African-American""]","No","Male","2484660","8859","","","{""product_choice"":""B""}","choice","tcd","repulsion_1","1","televisions","null","null","null","null","null","null","1","100","90","100","30","40","25","Screen size","Average lifespan","",""
"","","","","","choice_trial_setup","html-keyboard-response","106","2229759","0.0-5.0-0.11","137","1","2025-04-14 14:11:15","bb671e3ae32f654b8954ea4c4635f915","","Mozilla/5.0 (Macintosh; Intel Mac OS X 10_15_7) AppleWebKit/605.1.15 (KHTML, like Gecko) Version/18.4 Safari/605.1.15","Macintosh","Safari","18.4","OS X","10_15_7","https://hz8g1ckzuq.cognition.run/","en-US,en;q=0.9","uwozac8dq9trjct","21","[""Black or African-American""]","No","Male","2484660","null","","<p></p>","null","choice","tdc","repulsion_2","1","televisions","null","null","null","null","null","null","1","","","","","","","","","",""
"","","","","","choice_trial","survey-html-form","107","2235905","0.0-5.0-1.11","137","1","2025-04-14 14:11:15","bb671e3ae32f654b8954ea4c4635f915","","Mozilla/5.0 (Macintosh; Intel Mac OS X 10_15_7) AppleWebKit/605.1.15 (KHTML, like Gecko) Version/18.4 Safari/605.1.15","Macintosh","Safari","18.4","OS X","10_15_7","https://hz8g1ckzuq.cognition.run/","en-US,en;q=0.9","uwozac8dq9trjct","21","[""Black or African-American""]","No","Male","2484660","6137","","","{""product_choice"":""C""}","choice","tdc","repulsion_2","1","televisions","null","null","null","null","null","null","1","100","90","100","30","40","20","Screen size","Average lifespan","",""
"","","","","","choice_trial_setup","html-keyboard-response","108","2236210","0.0-5.0-0.12","137","1","2025-04-14 14:11:15","bb671e3ae32f654b8954ea4c4635f915","","Mozilla/5.0 (Macintosh; Intel Mac OS X 10_15_7) AppleWebKit/605.1.15 (KHTML, like Gecko) Version/18.4 Safari/605.1.15","Macintosh","Safari","18.4","OS X","10_15_7","https://hz8g1ckzuq.cognition.run/","en-US,en;q=0.9","uwozac8dq9trjct","21","[""Black or African-American""]","No","Male","2484660","null","","<p></p>","null","choice","dct","attraction_2","2","televisions","null","null","null","null","null","null","1","","","","","","","","","",""
"","","","","","choice_trial","survey-html-form","109","2245404","0.0-5.0-1.12","137","1","2025-04-14 14:11:15","bb671e3ae32f654b8954ea4c4635f915","","Mozilla/5.0 (Macintosh; Intel Mac OS X 10_15_7) AppleWebKit/605.1.15 (KHTML, like Gecko) Version/18.4 Safari/605.1.15","Macintosh","Safari","18.4","OS X","10_15_7","https://hz8g1ckzuq.cognition.run/","en-US,en;q=0.9","uwozac8dq9trjct","21","[""Black or African-American""]","No","Male","2484660","9187","","","{""product_choice"":""B""}","choice","dct","attraction_2","2","televisions","null","null","null","null","null","null","1","50","60","40","60","50","60","Screen size","Average lifespan","",""
"","","","","","choice_trial_setup","html-keyboard-response","110","2245710","0.0-5.0-0.13","137","1","2025-04-14 14:11:15","bb671e3ae32f654b8954ea4c4635f915","","Mozilla/5.0 (Macintosh; Intel Mac OS X 10_15_7) AppleWebKit/605.1.15 (KHTML, like Gecko) Version/18.4 Safari/605.1.15","Macintosh","Safari","18.4","OS X","10_15_7","https://hz8g1ckzuq.cognition.run/","en-US,en;q=0.9","uwozac8dq9trjct","21","[""Black or African-American""]","No","Male","2484660","null","","<p></p>","null","choice","tdc","repulsion_1","2","microwave ovens","null","null","null","null","null","null","1","","","","","","","","","",""
"","","","","","choice_trial","survey-html-form","111","2253752","0.0-5.0-1.13","137","1","2025-04-14 14:11:15","bb671e3ae32f654b8954ea4c4635f915","","Mozilla/5.0 (Macintosh; Intel Mac OS X 10_15_7) AppleWebKit/605.1.15 (KHTML, like Gecko) Version/18.4 Safari/605.1.15","Macintosh","Safari","18.4","OS X","10_15_7","https://hz8g1ckzuq.cognition.run/","en-US,en;q=0.9","uwozac8dq9trjct","21","[""Black or African-American""]","No","Male","2484660","8037","","","{""product_choice"":""A""}","choice","tdc","repulsion_1","2","microwave ovens","null","null","null","null","null","null","1","30","40","25","100","90","100","Warranty","Cooking power","",""
"","","","","","choice_trial_setup","html-keyboard-response","112","2254056","0.0-5.0-0.14","137","1","2025-04-14 14:11:15","bb671e3ae32f654b8954ea4c4635f915","","Mozilla/5.0 (Macintosh; Intel Mac OS X 10_15_7) AppleWebKit/605.1.15 (KHTML, like Gecko) Version/18.4 Safari/605.1.15","Macintosh","Safari","18.4","OS X","10_15_7","https://hz8g1ckzuq.cognition.run/","en-US,en;q=0.9","uwozac8dq9trjct","21","[""Black or African-American""]","No","Male","2484660","null","","<p></p>","null","choice","wwb","catch","null","microwave ovens","55","80","35","45","50","50","1","","","","","","","","","",""
"","","","","","choice_trial","survey-html-form","113","2257386","0.0-5.0-1.14","137","1","2025-04-14 14:11:15","bb671e3ae32f654b8954ea4c4635f915","","Mozilla/5.0 (Macintosh; Intel Mac OS X 10_15_7) AppleWebKit/605.1.15 (KHTML, like Gecko) Version/18.4 Safari/605.1.15","Macintosh","Safari","18.4","OS X","10_15_7","https://hz8g1ckzuq.cognition.run/","en-US,en;q=0.9","uwozac8dq9trjct","21","[""Black or African-American""]","No","Male","2484660","3322","","","{""product_choice"":""C""}","choice","wwb","catch","null","microwave ovens","55","80","35","45","50","50","1","null","null","null","null","null","null","Warranty","Cooking power","",""
"","","","","","choice_trial_setup","html-keyboard-response","114","2257690","0.0-5.0-0.15","137","1","2025-04-14 14:11:15","bb671e3ae32f654b8954ea4c4635f915","","Mozilla/5.0 (Macintosh; Intel Mac OS X 10_15_7) AppleWebKit/605.1.15 (KHTML, like Gecko) Version/18.4 Safari/605.1.15","Macintosh","Safari","18.4","OS X","10_15_7","https://hz8g1ckzuq.cognition.run/","en-US,en;q=0.9","uwozac8dq9trjct","21","[""Black or African-American""]","No","Male","2484660","null","","<p></p>","null","choice","dct","attraction_1","1","televisions","null","null","null","null","null","null","2","","","","","","","","","",""
"","","","","","choice_trial","survey-html-form","115","2263319","0.0-5.0-1.15","137","1","2025-04-14 14:11:15","bb671e3ae32f654b8954ea4c4635f915","","Mozilla/5.0 (Macintosh; Intel Mac OS X 10_15_7) AppleWebKit/605.1.15 (KHTML, like Gecko) Version/18.4 Safari/605.1.15","Macintosh","Safari","18.4","OS X","10_15_7","https://hz8g1ckzuq.cognition.run/","en-US,en;q=0.9","uwozac8dq9trjct","21","[""Black or African-American""]","No","Male","2484660","5622","","","{""product_choice"":""C""}","choice","dct","attraction_1","1","televisions","null","null","null","null","null","null","2","60","50","60","50","60","45","Screen size","Average lifespan","",""
"","","","","","choice_trial_setup","html-keyboard-response","116","2263623","0.0-5.0-0.16","137","1","2025-04-14 14:11:15","bb671e3ae32f654b8954ea4c4635f915","","Mozilla/5.0 (Macintosh; Intel Mac OS X 10_15_7) AppleWebKit/605.1.15 (KHTML, like Gecko) Version/18.4 Safari/605.1.15","Macintosh","Safari","18.4","OS X","10_15_7","https://hz8g1ckzuq.cognition.run/","en-US,en;q=0.9","uwozac8dq9trjct","21","[""Black or African-American""]","No","Male","2484660","null","","<p></p>","null","choice","dct","repulsion_2","1","laptops","null","null","null","null","null","null","2","","","","","","","","","",""
"","","","","","choice_trial","survey-html-form","117","2270722","0.0-5.0-1.16","137","1","2025-04-14 14:11:15","bb671e3ae32f654b8954ea4c4635f915","","Mozilla/5.0 (Macintosh; Intel Mac OS X 10_15_7) AppleWebKit/605.1.15 (KHTML, like Gecko) Version/18.4 Safari/605.1.15","Macintosh","Safari","18.4","OS X","10_15_7","https://hz8g1ckzuq.cognition.run/","en-US,en;q=0.9","uwozac8dq9trjct","21","[""Black or African-American""]","No","Male","2484660","7091","","","{""product_choice"":""B""}","choice","dct","repulsion_2","1","laptops","null","null","null","null","null","null","2","100","90","100","30","40","20","Processing speed","Memory (RAM)","",""
"","","","","","choice_trial_setup","html-keyboard-response","118","2271028","0.0-5.0-0.17","137","1","2025-04-14 14:11:15","bb671e3ae32f654b8954ea4c4635f915","","Mozilla/5.0 (Macintosh; Intel Mac OS X 10_15_7) AppleWebKit/605.1.15 (KHTML, like Gecko) Version/18.4 Safari/605.1.15","Macintosh","Safari","18.4","OS X","10_15_7","https://hz8g1ckzuq.cognition.run/","en-US,en;q=0.9","uwozac8dq9trjct","21","[""Black or African-American""]","No","Male","2484660","null","","<p></p>","null","choice","dtc","attraction_1","2","washing machines","null","null","null","null","null","null","2","","","","","","","","","",""
"","","","","","choice_trial","survey-html-form","119","2278671","0.0-5.0-1.17","137","1","2025-04-14 14:11:15","bb671e3ae32f654b8954ea4c4635f915","","Mozilla/5.0 (Macintosh; Intel Mac OS X 10_15_7) AppleWebKit/605.1.15 (KHTML, like Gecko) Version/18.4 Safari/605.1.15","Macintosh","Safari","18.4","OS X","10_15_7","https://hz8g1ckzuq.cognition.run/","en-US,en;q=0.9","uwozac8dq9trjct","21","[""Black or African-American""]","No","Male","2484660","7635","","","{""product_choice"":""B""}","choice","dtc","attraction_1","2","washing machines","null","null","null","null","null","null","2","50","60","45","60","50","60","Average lifespan","Energy savings","",""
"","","","","","choice_trial_setup","html-keyboard-response","120","2278976","0.0-5.0-0.18","137","1","2025-04-14 14:11:15","bb671e3ae32f654b8954ea4c4635f915","","Mozilla/5.0 (Macintosh; Intel Mac OS X 10_15_7) AppleWebKit/605.1.15 (KHTML, like Gecko) Version/18.4 Safari/605.1.15","Macintosh","Safari","18.4","OS X","10_15_7","https://hz8g1ckzuq.cognition.run/","en-US,en;q=0.9","uwozac8dq9trjct","21","[""Black or African-American""]","No","Male","2484660","null","","<p></p>","null","choice","dct","repulsion_1","2","washing machines","null","null","null","null","null","null","2","","","","","","","","","",""
"","","","","","choice_trial","survey-html-form","121","2294438","0.0-5.0-1.18","137","1","2025-04-14 14:11:15","bb671e3ae32f654b8954ea4c4635f915","","Mozilla/5.0 (Macintosh; Intel Mac OS X 10_15_7) AppleWebKit/605.1.15 (KHTML, like Gecko) Version/18.4 Safari/605.1.15","Macintosh","Safari","18.4","OS X","10_15_7","https://hz8g1ckzuq.cognition.run/","en-US,en;q=0.9","uwozac8dq9trjct","21","[""Black or African-American""]","No","Male","2484660","15453","","","{""product_choice"":""B""}","choice","dct","repulsion_1","2","washing machines","null","null","null","null","null","null","2","30","40","25","100","90","100","Average lifespan","Energy savings","",""
"","","","","","choice_trial_setup","html-keyboard-response","122","2294744","0.0-5.0-0.19","137","1","2025-04-14 14:11:15","bb671e3ae32f654b8954ea4c4635f915","","Mozilla/5.0 (Macintosh; Intel Mac OS X 10_15_7) AppleWebKit/605.1.15 (KHTML, like Gecko) Version/18.4 Safari/605.1.15","Macintosh","Safari","18.4","OS X","10_15_7","https://hz8g1ckzuq.cognition.run/","en-US,en;q=0.9","uwozac8dq9trjct","21","[""Black or African-American""]","No","Male","2484660","null","","<p></p>","null","choice","cdt","attraction_1","2","microwave ovens","null","null","null","null","null","null","1","","","","","","","","","",""
"","","","","","choice_trial","survey-html-form","123","2300186","0.0-5.0-1.19","137","1","2025-04-14 14:11:15","bb671e3ae32f654b8954ea4c4635f915","","Mozilla/5.0 (Macintosh; Intel Mac OS X 10_15_7) AppleWebKit/605.1.15 (KHTML, like Gecko) Version/18.4 Safari/605.1.15","Macintosh","Safari","18.4","OS X","10_15_7","https://hz8g1ckzuq.cognition.run/","en-US,en;q=0.9","uwozac8dq9trjct","21","[""Black or African-American""]","No","Male","2484660","5435","","","{""product_choice"":""C""}","choice","cdt","attraction_1","2","microwave ovens","null","null","null","null","null","null","1","50","60","45","60","50","60","Warranty","Cooking power","",""
"","","","","","choice_trial_setup","html-keyboard-response","124","2300490","0.0-5.0-0.20","137","1","2025-04-14 14:11:15","bb671e3ae32f654b8954ea4c4635f915","","Mozilla/5.0 (Macintosh; Intel Mac OS X 10_15_7) AppleWebKit/605.1.15 (KHTML, like Gecko) Version/18.4 Safari/605.1.15","Macintosh","Safari","18.4","OS X","10_15_7","https://hz8g1ckzuq.cognition.run/","en-US,en;q=0.9","uwozac8dq9trjct","21","[""Black or African-American""]","No","Male","2484660","null","","<p></p>","null","choice","dtc","attraction_2","1","washing machines","null","null","null","null","null","null","2","","","","","","","","","",""
"","","","","","choice_trial","survey-html-form","125","2308869","0.0-5.0-1.20","137","1","2025-04-14 14:11:15","bb671e3ae32f654b8954ea4c4635f915","","Mozilla/5.0 (Macintosh; Intel Mac OS X 10_15_7) AppleWebKit/605.1.15 (KHTML, like Gecko) Version/18.4 Safari/605.1.15","Macintosh","Safari","18.4","OS X","10_15_7","https://hz8g1ckzuq.cognition.run/","en-US,en;q=0.9","uwozac8dq9trjct","21","[""Black or African-American""]","No","Male","2484660","8371","","","{""product_choice"":""C""}","choice","dtc","attraction_2","1","washing machines","null","null","null","null","null","null","2","60","50","60","50","60","40","Average lifespan","Energy savings","",""
"","","","","","choice_trial_setup","html-keyboard-response","126","2309173","0.0-5.0-0.21","137","1","2025-04-14 14:11:15","bb671e3ae32f654b8954ea4c4635f915","","Mozilla/5.0 (Macintosh; Intel Mac OS X 10_15_7) AppleWebKit/605.1.15 (KHTML, like Gecko) Version/18.4 Safari/605.1.15","Macintosh","Safari","18.4","OS X","10_15_7","https://hz8g1ckzuq.cognition.run/","en-US,en;q=0.9","uwozac8dq9trjct","21","[""Black or African-American""]","No","Male","2484660","null","","<p></p>","null","choice","tcd","attraction_1","1","laptops","null","null","null","null","null","null","1","","","","","","","","","",""
"","","","","","choice_trial","survey-html-form","127","2314371","0.0-5.0-1.21","137","1","2025-04-14 14:11:15","bb671e3ae32f654b8954ea4c4635f915","","Mozilla/5.0 (Macintosh; Intel Mac OS X 10_15_7) AppleWebKit/605.1.15 (KHTML, like Gecko) Version/18.4 Safari/605.1.15","Macintosh","Safari","18.4","OS X","10_15_7","https://hz8g1ckzuq.cognition.run/","en-US,en;q=0.9","uwozac8dq9trjct","21","[""Black or African-American""]","No","Male","2484660","5191","","","{""product_choice"":""A""}","choice","tcd","attraction_1","1","laptops","null","null","null","null","null","null","1","60","50","60","50","60","45","Processing speed","Memory (RAM)","",""
"","","","","","choice_trial_setup","html-keyboard-response","128","2314676","0.0-5.0-0.22","137","1","2025-04-14 14:11:15","bb671e3ae32f654b8954ea4c4635f915","","Mozilla/5.0 (Macintosh; Intel Mac OS X 10_15_7) AppleWebKit/605.1.15 (KHTML, like Gecko) Version/18.4 Safari/605.1.15","Macintosh","Safari","18.4","OS X","10_15_7","https://hz8g1ckzuq.cognition.run/","en-US,en;q=0.9","uwozac8dq9trjct","21","[""Black or African-American""]","No","Male","2484660","null","","<p></p>","null","choice","dct","repulsion_1","2","televisions","null","null","null","null","null","null","2","","","","","","","","","",""
"","","","","","choice_trial","survey-html-form","129","2322118","0.0-5.0-1.22","137","1","2025-04-14 14:11:15","bb671e3ae32f654b8954ea4c4635f915","","Mozilla/5.0 (Macintosh; Intel Mac OS X 10_15_7) AppleWebKit/605.1.15 (KHTML, like Gecko) Version/18.4 Safari/605.1.15","Macintosh","Safari","18.4","OS X","10_15_7","https://hz8g1ckzuq.cognition.run/","en-US,en;q=0.9","uwozac8dq9trjct","21","[""Black or African-American""]","No","Male","2484660","7435","","","{""product_choice"":""B""}","choice","dct","repulsion_1","2","televisions","null","null","null","null","null","null","2","30","40","25","100","90","100","Screen size","Average lifespan","",""
"","","","","","choice_trial_setup","html-keyboard-response","130","2322426","0.0-5.0-0.23","137","1","2025-04-14 14:11:15","bb671e3ae32f654b8954ea4c4635f915","","Mozilla/5.0 (Macintosh; Intel Mac OS X 10_15_7) AppleWebKit/605.1.15 (KHTML, like Gecko) Version/18.4 Safari/605.1.15","Macintosh","Safari","18.4","OS X","10_15_7","https://hz8g1ckzuq.cognition.run/","en-US,en;q=0.9","uwozac8dq9trjct","21","[""Black or African-American""]","No","Male","2484660","null","","<p></p>","null","choice","wwb","catch","null","televisions","70","95","5","30","25","10","1","","","","","","","","","",""
"","","","","","choice_trial","survey-html-form","131","2328807","0.0-5.0-1.23","137","1","2025-04-14 14:11:15","bb671e3ae32f654b8954ea4c4635f915","","Mozilla/5.0 (Macintosh; Intel Mac OS X 10_15_7) AppleWebKit/605.1.15 (KHTML, like Gecko) Version/18.4 Safari/605.1.15","Macintosh","Safari","18.4","OS X","10_15_7","https://hz8g1ckzuq.cognition.run/","en-US,en;q=0.9","uwozac8dq9trjct","21","[""Black or African-American""]","No","Male","2484660","6372","","","{""product_choice"":""C""}","choice","wwb","catch","null","televisions","70","95","5","30","25","10","1","null","null","null","null","null","null","Screen size","Average lifespan","",""
"","","","","","choice_trial_setup","html-keyboard-response","132","2329112","0.0-5.0-0.24","137","1","2025-04-14 14:11:15","bb671e3ae32f654b8954ea4c4635f915","","Mozilla/5.0 (Macintosh; Intel Mac OS X 10_15_7) AppleWebKit/605.1.15 (KHTML, like Gecko) Version/18.4 Safari/605.1.15","Macintosh","Safari","18.4","OS X","10_15_7","https://hz8g1ckzuq.cognition.run/","en-US,en;q=0.9","uwozac8dq9trjct","21","[""Black or African-American""]","No","Male","2484660","null","","<p></p>","null","choice","cdt","attraction_2","1","laptops","null","null","null","null","null","null","1","","","","","","","","","",""
"","","","","","choice_trial","survey-html-form","133","2334170","0.0-5.0-1.24","137","1","2025-04-14 14:11:15","bb671e3ae32f654b8954ea4c4635f915","","Mozilla/5.0 (Macintosh; Intel Mac OS X 10_15_7) AppleWebKit/605.1.15 (KHTML, like Gecko) Version/18.4 Safari/605.1.15","Macintosh","Safari","18.4","OS X","10_15_7","https://hz8g1ckzuq.cognition.run/","en-US,en;q=0.9","uwozac8dq9trjct","21","[""Black or African-American""]","No","Male","2484660","5051","","","{""product_choice"":""C""}","choice","cdt","attraction_2","1","laptops","null","null","null","null","null","null","1","60","50","60","50","60","40","Processing speed","Memory (RAM)","",""
"","","","","","choice_trial_setup","html-keyboard-response","134","2334476","0.0-5.0-0.25","137","1","2025-04-14 14:11:15","bb671e3ae32f654b8954ea4c4635f915","","Mozilla/5.0 (Macintosh; Intel Mac OS X 10_15_7) AppleWebKit/605.1.15 (KHTML, like Gecko) Version/18.4 Safari/605.1.15","Macintosh","Safari","18.4","OS X","10_15_7","https://hz8g1ckzuq.cognition.run/","en-US,en;q=0.9","uwozac8dq9trjct","21","[""Black or African-American""]","No","Male","2484660","null","","<p></p>","null","choice","tcd","repulsion_1","1","washing machines","null","null","null","null","null","null","2","","","","","","","","","",""
"","","","","","choice_trial","survey-html-form","135","2339351","0.0-5.0-1.25","137","1","2025-04-14 14:11:15","bb671e3ae32f654b8954ea4c4635f915","","Mozilla/5.0 (Macintosh; Intel Mac OS X 10_15_7) AppleWebKit/605.1.15 (KHTML, like Gecko) Version/18.4 Safari/605.1.15","Macintosh","Safari","18.4","OS X","10_15_7","https://hz8g1ckzuq.cognition.run/","en-US,en;q=0.9","uwozac8dq9trjct","21","[""Black or African-American""]","No","Male","2484660","4868","","","{""product_choice"":""B""}","choice","tcd","repulsion_1","1","washing machines","null","null","null","null","null","null","2","100","90","100","30","40","25","Average lifespan","Energy savings","",""
"","","","","","choice_trial_setup","html-keyboard-response","136","2339654","0.0-5.0-0.26","137","1","2025-04-14 14:11:15","bb671e3ae32f654b8954ea4c4635f915","","Mozilla/5.0 (Macintosh; Intel Mac OS X 10_15_7) AppleWebKit/605.1.15 (KHTML, like Gecko) Version/18.4 Safari/605.1.15","Macintosh","Safari","18.4","OS X","10_15_7","https://hz8g1ckzuq.cognition.run/","en-US,en;q=0.9","uwozac8dq9trjct","21","[""Black or African-American""]","No","Male","2484660","null","","<p></p>","null","choice","tdc","repulsion_2","1","washing machines","null","null","null","null","null","null","1","","","","","","","","","",""
"","","","","","choice_trial","survey-html-form","137","2343085","0.0-5.0-1.26","137","1","2025-04-14 14:11:15","bb671e3ae32f654b8954ea4c4635f915","","Mozilla/5.0 (Macintosh; Intel Mac OS X 10_15_7) AppleWebKit/605.1.15 (KHTML, like Gecko) Version/18.4 Safari/605.1.15","Macintosh","Safari","18.4","OS X","10_15_7","https://hz8g1ckzuq.cognition.run/","en-US,en;q=0.9","uwozac8dq9trjct","21","[""Black or African-American""]","No","Male","2484660","3423","","","{""product_choice"":""C""}","choice","tdc","repulsion_2","1","washing machines","null","null","null","null","null","null","1","100","90","100","30","40","20","Average lifespan","Energy savings","",""
"","","","","","choice_trial_setup","html-keyboard-response","138","2343391","0.0-5.0-0.27","137","1","2025-04-14 14:11:15","bb671e3ae32f654b8954ea4c4635f915","","Mozilla/5.0 (Macintosh; Intel Mac OS X 10_15_7) AppleWebKit/605.1.15 (KHTML, like Gecko) Version/18.4 Safari/605.1.15","Macintosh","Safari","18.4","OS X","10_15_7","https://hz8g1ckzuq.cognition.run/","en-US,en;q=0.9","uwozac8dq9trjct","21","[""Black or African-American""]","No","Male","2484660","null","","<p></p>","null","choice","bww","catch","null","laptops","90","75","20","15","35","50","2","","","","","","","","","",""
"","","","","","choice_trial","survey-html-form","139","2346552","0.0-5.0-1.27","137","1","2025-04-14 14:11:15","bb671e3ae32f654b8954ea4c4635f915","","Mozilla/5.0 (Macintosh; Intel Mac OS X 10_15_7) AppleWebKit/605.1.15 (KHTML, like Gecko) Version/18.4 Safari/605.1.15","Macintosh","Safari","18.4","OS X","10_15_7","https://hz8g1ckzuq.cognition.run/","en-US,en;q=0.9","uwozac8dq9trjct","21","[""Black or African-American""]","No","Male","2484660","3153","","","{""product_choice"":""A""}","choice","bww","catch","null","laptops","90","75","20","15","35","50","2","null","null","null","null","null","null","Processing speed","Memory (RAM)","",""
"","","","","","choice_trial_setup","html-keyboard-response","140","2346858","0.0-5.0-0.28","137","1","2025-04-14 14:11:15","bb671e3ae32f654b8954ea4c4635f915","","Mozilla/5.0 (Macintosh; Intel Mac OS X 10_15_7) AppleWebKit/605.1.15 (KHTML, like Gecko) Version/18.4 Safari/605.1.15","Macintosh","Safari","18.4","OS X","10_15_7","https://hz8g1ckzuq.cognition.run/","en-US,en;q=0.9","uwozac8dq9trjct","21","[""Black or African-American""]","No","Male","2484660","null","","<p></p>","null","choice","wbw","catch","null","washing machines","75","90","25","30","45","45","1","","","","","","","","","",""
"","","","","","choice_trial","survey-html-form","141","2352318","0.0-5.0-1.28","137","1","2025-04-14 14:11:15","bb671e3ae32f654b8954ea4c4635f915","","Mozilla/5.0 (Macintosh; Intel Mac OS X 10_15_7) AppleWebKit/605.1.15 (KHTML, like Gecko) Version/18.4 Safari/605.1.15","Macintosh","Safari","18.4","OS X","10_15_7","https://hz8g1ckzuq.cognition.run/","en-US,en;q=0.9","uwozac8dq9trjct","21","[""Black or African-American""]","No","Male","2484660","5454","","","{""product_choice"":""B""}","choice","wbw","catch","null","washing machines","75","90","25","30","45","45","1","null","null","null","null","null","null","Average lifespan","Energy savings","",""
"","","","","","choice_trial_setup","html-keyboard-response","142","2352624","0.0-5.0-0.29","137","1","2025-04-14 14:11:15","bb671e3ae32f654b8954ea4c4635f915","","Mozilla/5.0 (Macintosh; Intel Mac OS X 10_15_7) AppleWebKit/605.1.15 (KHTML, like Gecko) Version/18.4 Safari/605.1.15","Macintosh","Safari","18.4","OS X","10_15_7","https://hz8g1ckzuq.cognition.run/","en-US,en;q=0.9","uwozac8dq9trjct","21","[""Black or African-American""]","No","Male","2484660","null","","<p></p>","null","choice","wbw","catch","null","televisions","90","90","45","25","10","30","1","","","","","","","","","",""
"","","","","","choice_trial","survey-html-form","143","2356385","0.0-5.0-1.29","137","1","2025-04-14 14:11:15","bb671e3ae32f654b8954ea4c4635f915","","Mozilla/5.0 (Macintosh; Intel Mac OS X 10_15_7) AppleWebKit/605.1.15 (KHTML, like Gecko) Version/18.4 Safari/605.1.15","Macintosh","Safari","18.4","OS X","10_15_7","https://hz8g1ckzuq.cognition.run/","en-US,en;q=0.9","uwozac8dq9trjct","21","[""Black or African-American""]","No","Male","2484660","3753","","","{""product_choice"":""B""}","choice","wbw","catch","null","televisions","90","90","45","25","10","30","1","null","null","null","null","null","null","Screen size","Average lifespan","",""
"","","","","","choice_trial_setup","html-keyboard-response","144","2356694","0.0-5.0-0.30","137","1","2025-04-14 14:11:15","bb671e3ae32f654b8954ea4c4635f915","","Mozilla/5.0 (Macintosh; Intel Mac OS X 10_15_7) AppleWebKit/605.1.15 (KHTML, like Gecko) Version/18.4 Safari/605.1.15","Macintosh","Safari","18.4","OS X","10_15_7","https://hz8g1ckzuq.cognition.run/","en-US,en;q=0.9","uwozac8dq9trjct","21","[""Black or African-American""]","No","Male","2484660","null","","<p></p>","null","choice","tcd","repulsion_2","2","televisions","null","null","null","null","null","null","2","","","","","","","","","",""
"","","","","","choice_trial","survey-html-form","145","2361568","0.0-5.0-1.30","137","1","2025-04-14 14:11:15","bb671e3ae32f654b8954ea4c4635f915","","Mozilla/5.0 (Macintosh; Intel Mac OS X 10_15_7) AppleWebKit/605.1.15 (KHTML, like Gecko) Version/18.4 Safari/605.1.15","Macintosh","Safari","18.4","OS X","10_15_7","https://hz8g1ckzuq.cognition.run/","en-US,en;q=0.9","uwozac8dq9trjct","21","[""Black or African-American""]","No","Male","2484660","4867","","","{""product_choice"":""B""}","choice","tcd","repulsion_2","2","televisions","null","null","null","null","null","null","2","30","40","20","100","90","100","Screen size","Average lifespan","",""
"","","","","","choice_trial_setup","html-keyboard-response","146","2361873","0.0-5.0-0.31","137","1","2025-04-14 14:11:15","bb671e3ae32f654b8954ea4c4635f915","","Mozilla/5.0 (Macintosh; Intel Mac OS X 10_15_7) AppleWebKit/605.1.15 (KHTML, like Gecko) Version/18.4 Safari/605.1.15","Macintosh","Safari","18.4","OS X","10_15_7","https://hz8g1ckzuq.cognition.run/","en-US,en;q=0.9","uwozac8dq9trjct","21","[""Black or African-American""]","No","Male","2484660","null","","<p></p>","null","choice","dtc","repulsion_2","2","washing machines","null","null","null","null","null","null","1","","","","","","","","","",""
"","","","","","choice_trial","survey-html-form","147","2366069","0.0-5.0-1.31","137","1","2025-04-14 14:11:15","bb671e3ae32f654b8954ea4c4635f915","","Mozilla/5.0 (Macintosh; Intel Mac OS X 10_15_7) AppleWebKit/605.1.15 (KHTML, like Gecko) Version/18.4 Safari/605.1.15","Macintosh","Safari","18.4","OS X","10_15_7","https://hz8g1ckzuq.cognition.run/","en-US,en;q=0.9","uwozac8dq9trjct","21","[""Black or African-American""]","No","Male","2484660","4188","","","{""product_choice"":""C""}","choice","dtc","repulsion_2","2","washing machines","null","null","null","null","null","null","1","30","40","20","100","90","100","Average lifespan","Energy savings","",""
"","","","","","choice_trial_setup","html-keyboard-response","148","2366375","0.0-5.0-0.32","137","1","2025-04-14 14:11:15","bb671e3ae32f654b8954ea4c4635f915","","Mozilla/5.0 (Macintosh; Intel Mac OS X 10_15_7) AppleWebKit/605.1.15 (KHTML, like Gecko) Version/18.4 Safari/605.1.15","Macintosh","Safari","18.4","OS X","10_15_7","https://hz8g1ckzuq.cognition.run/","en-US,en;q=0.9","uwozac8dq9trjct","21","[""Black or African-American""]","No","Male","2484660","null","","<p></p>","null","choice","cdt","attraction_2","2","laptops","null","null","null","null","null","null","2","","","","","","","","","",""
"","","","","","choice_trial","survey-html-form","149","2373502","0.0-5.0-1.32","137","1","2025-04-14 14:11:15","bb671e3ae32f654b8954ea4c4635f915","","Mozilla/5.0 (Macintosh; Intel Mac OS X 10_15_7) AppleWebKit/605.1.15 (KHTML, like Gecko) Version/18.4 Safari/605.1.15","Macintosh","Safari","18.4","OS X","10_15_7","https://hz8g1ckzuq.cognition.run/","en-US,en;q=0.9","uwozac8dq9trjct","21","[""Black or African-American""]","No","Male","2484660","7120","","","{""product_choice"":""A""}","choice","cdt","attraction_2","2","laptops","null","null","null","null","null","null","2","50","60","40","60","50","60","Processing speed","Memory (RAM)","",""
"","","","","","choice_trial_setup","html-keyboard-response","150","2373807","0.0-5.0-0.33","137","1","2025-04-14 14:11:15","bb671e3ae32f654b8954ea4c4635f915","","Mozilla/5.0 (Macintosh; Intel Mac OS X 10_15_7) AppleWebKit/605.1.15 (KHTML, like Gecko) Version/18.4 Safari/605.1.15","Macintosh","Safari","18.4","OS X","10_15_7","https://hz8g1ckzuq.cognition.run/","en-US,en;q=0.9","uwozac8dq9trjct","21","[""Black or African-American""]","No","Male","2484660","null","","<p></p>","null","choice","dtc","attraction_1","1","microwave ovens","null","null","null","null","null","null","2","","","","","","","","","",""
"","","","","","choice_trial","survey-html-form","151","2390553","0.0-5.0-1.33","137","1","2025-04-14 14:11:15","bb671e3ae32f654b8954ea4c4635f915","","Mozilla/5.0 (Macintosh; Intel Mac OS X 10_15_7) AppleWebKit/605.1.15 (KHTML, like Gecko) Version/18.4 Safari/605.1.15","Macintosh","Safari","18.4","OS X","10_15_7","https://hz8g1ckzuq.cognition.run/","en-US,en;q=0.9","uwozac8dq9trjct","21","[""Black or African-American""]","No","Male","2484660","16739","","","{""product_choice"":""C""}","choice","dtc","attraction_1","1","microwave ovens","null","null","null","null","null","null","2","60","50","60","50","60","45","Warranty","Cooking power","",""
"","","","","","choice_trial_setup","html-keyboard-response","152","2390858","0.0-5.0-0.34","137","1","2025-04-14 14:11:15","bb671e3ae32f654b8954ea4c4635f915","","Mozilla/5.0 (Macintosh; Intel Mac OS X 10_15_7) AppleWebKit/605.1.15 (KHTML, like Gecko) Version/18.4 Safari/605.1.15","Macintosh","Safari","18.4","OS X","10_15_7","https://hz8g1ckzuq.cognition.run/","en-US,en;q=0.9","uwozac8dq9trjct","21","[""Black or African-American""]","No","Male","2484660","null","","<p></p>","null","choice","dtc","repulsion_1","1","laptops","null","null","null","null","null","null","2","","","","","","","","","",""
"","","","","","choice_trial","survey-html-form","153","2395418","0.0-5.0-1.34","137","1","2025-04-14 14:11:15","bb671e3ae32f654b8954ea4c4635f915","","Mozilla/5.0 (Macintosh; Intel Mac OS X 10_15_7) AppleWebKit/605.1.15 (KHTML, like Gecko) Version/18.4 Safari/605.1.15","Macintosh","Safari","18.4","OS X","10_15_7","https://hz8g1ckzuq.cognition.run/","en-US,en;q=0.9","uwozac8dq9trjct","21","[""Black or African-American""]","No","Male","2484660","4550","","","{""product_choice"":""C""}","choice","dtc","repulsion_1","1","laptops","null","null","null","null","null","null","2","100","90","100","30","40","25","Processing speed","Memory (RAM)","",""
"","","","","","choice_trial_setup","html-keyboard-response","154","2395728","0.0-5.0-0.35","137","1","2025-04-14 14:11:15","bb671e3ae32f654b8954ea4c4635f915","","Mozilla/5.0 (Macintosh; Intel Mac OS X 10_15_7) AppleWebKit/605.1.15 (KHTML, like Gecko) Version/18.4 Safari/605.1.15","Macintosh","Safari","18.4","OS X","10_15_7","https://hz8g1ckzuq.cognition.run/","en-US,en;q=0.9","uwozac8dq9trjct","21","[""Black or African-American""]","No","Male","2484660","null","","<p></p>","null","choice","tdc","attraction_1","2","laptops","null","null","null","null","null","null","1","","","","","","","","","",""
