"success","timeout","failed_images","failed_audio","failed_video","screen_id","trial_type","trial_index","time_elapsed","internal_node_id","run_id","condition","recorded_at","source_code_version","ip","user_agent","device","browser","browser_version","platform","platform_version","referer","accept_language","ppt_id","age","race","ethnicity","gender","exp_duration","rt","view_history","stimulus","response","phase","order","effect","t_high","category","d1_best","d2_best","d1_worst1","d2_worst1","d1_worst2","d2_worst2","first_dim","d1_t","d1_c","d1_d","d2_t","d2_c","d2_d","d1_name","d2_name","strategy_response","question_order"
"true","false","[]","[]","[]","img preload","preload","0","3266","0.0-0.0","141","1","2025-04-14 14:12:52","bb671e3ae32f654b8954ea4c4635f915","","Mozilla/5.0 (Windows NT 10.0; Win64; x64; rv:133.0) Gecko/20100101 Firefox/133.0","","Firefox","133.0","Windows","10.0","https://hz8g1ckzuq.cognition.run/","en-US,en;q=0.5","p2y8xxmdqbmvcrl","35","[""Black or African-American""]","No","Male","838493","","","","","","","","","","","","","","","","","","","","","","","","","",""
"true","","","","","","fullscreen","1","7399","0.0-1.0","141","1","2025-04-14 14:12:52","bb671e3ae32f654b8954ea4c4635f915","","Mozilla/5.0 (Windows NT 10.0; Win64; x64; rv:133.0) Gecko/20100101 Firefox/133.0","","Firefox","133.0","Windows","10.0","https://hz8g1ckzuq.cognition.run/","en-US,en;q=0.5","p2y8xxmdqbmvcrl","35","[""Black or African-American""]","No","Male","838493","3094","","","","","","","","","","","","","","","","","","","","","","","","",""
"","","","","","","instructions","2","48572","0.0-2.0","141","1","2025-04-14 14:12:52","bb671e3ae32f654b8954ea4c4635f915","","Mozilla/5.0 (Windows NT 10.0; Win64; x64; rv:133.0) Gecko/20100101 Firefox/133.0","","Firefox","133.0","Windows","10.0","https://hz8g1ckzuq.cognition.run/","en-US,en;q=0.5","p2y8xxmdqbmvcrl","35","[""Black or African-American""]","No","Male","838493","41169","[{""page_index"":0,""viewing_time"":1057},{""page_index"":1,""viewing_time"":2185},{""page_index"":2,""viewing_time"":2351},{""page_index"":3,""viewing_time"":3824},{""page_index"":4,""viewing_time"":5625},{""page_index"":5,""viewing_time"":5743},{""page_index"":6,""viewing_time"":5583},{""page_index"":7,""viewing_time"":5721},{""page_index"":8,""viewing_time"":6001},{""page_index"":9,""viewing_time"":3079}]","","","","","","","","","","","","","","","","","","","","","","","",""
"","","","","","rating_trial_setup","html-keyboard-response","3","48882","0.0-3.0-0.0","141","1","2025-04-14 14:12:52","bb671e3ae32f654b8954ea4c4635f915","","Mozilla/5.0 (Windows NT 10.0; Win64; x64; rv:133.0) Gecko/20100101 Firefox/133.0","","Firefox","133.0","Windows","10.0","https://hz8g1ckzuq.cognition.run/","en-US,en;q=0.5","p2y8xxmdqbmvcrl","35","[""Black or African-American""]","No","Male","838493","null","","<p></p>","null","rating","ctd","attraction_1","1","televisions","null","null","null","null","null","null","2","","","","","","","","","",""
"","","","","","rating_trial","survey-html-form","4","68061","0.0-3.0-1.0","141","1","2025-04-14 14:12:52","bb671e3ae32f654b8954ea4c4635f915","","Mozilla/5.0 (Windows NT 10.0; Win64; x64; rv:133.0) Gecko/20100101 Firefox/133.0","","Firefox","133.0","Windows","10.0","https://hz8g1ckzuq.cognition.run/","en-US,en;q=0.5","p2y8xxmdqbmvcrl","35","[""Black or African-American""]","No","Male","838493","19177","","","{""price_1"":""200"",""price_2"":""150"",""price_3"":""140""}","rating","ctd","attraction_1","1","televisions","null","null","null","null","null","null","2","60","50","60","50","60","45","Screen size","Average lifespan","",""
"","","","","","rating_trial_setup","html-keyboard-response","5","68374","0.0-3.0-0.1","141","1","2025-04-14 14:12:52","bb671e3ae32f654b8954ea4c4635f915","","Mozilla/5.0 (Windows NT 10.0; Win64; x64; rv:133.0) Gecko/20100101 Firefox/133.0","","Firefox","133.0","Windows","10.0","https://hz8g1ckzuq.cognition.run/","en-US,en;q=0.5","p2y8xxmdqbmvcrl","35","[""Black or African-American""]","No","Male","838493","null","","<p></p>","null","rating","dtc","attraction_1","2","laptops","null","null","null","null","null","null","1","","","","","","","","","",""
"","","","","","rating_trial","survey-html-form","6","78228","0.0-3.0-1.1","141","1","2025-04-14 14:12:52","bb671e3ae32f654b8954ea4c4635f915","","Mozilla/5.0 (Windows NT 10.0; Win64; x64; rv:133.0) Gecko/20100101 Firefox/133.0","","Firefox","133.0","Windows","10.0","https://hz8g1ckzuq.cognition.run/","en-US,en;q=0.5","p2y8xxmdqbmvcrl","35","[""Black or African-American""]","No","Male","838493","9850","","","{""price_1"":""200"",""price_2"":""400"",""price_3"":""450""}","rating","dtc","attraction_1","2","laptops","null","null","null","null","null","null","1","50","60","45","60","50","60","Processing speed","Memory (RAM)","",""
"","","","","","rating_trial_setup","html-keyboard-response","7","78532","0.0-3.0-0.2","141","1","2025-04-14 14:12:52","bb671e3ae32f654b8954ea4c4635f915","","Mozilla/5.0 (Windows NT 10.0; Win64; x64; rv:133.0) Gecko/20100101 Firefox/133.0","","Firefox","133.0","Windows","10.0","https://hz8g1ckzuq.cognition.run/","en-US,en;q=0.5","p2y8xxmdqbmvcrl","35","[""Black or African-American""]","No","Male","838493","null","","<p></p>","null","rating","tdc","repulsion_1","2","washing machines","null","null","null","null","null","null","1","","","","","","","","","",""
"","","","","","rating_trial","survey-html-form","8","93588","0.0-3.0-1.2","141","1","2025-04-14 14:12:52","bb671e3ae32f654b8954ea4c4635f915","","Mozilla/5.0 (Windows NT 10.0; Win64; x64; rv:133.0) Gecko/20100101 Firefox/133.0","","Firefox","133.0","Windows","10.0","https://hz8g1ckzuq.cognition.run/","en-US,en;q=0.5","p2y8xxmdqbmvcrl","35","[""Black or African-American""]","No","Male","838493","15053","","","{""price_1"":""400"",""price_2"":""300"",""price_3"":""350""}","rating","tdc","repulsion_1","2","washing machines","null","null","null","null","null","null","1","30","40","25","100","90","100","Average lifespan","Energy savings","",""
"","","","","","rating_trial_setup","html-keyboard-response","9","93903","0.0-3.0-0.3","141","1","2025-04-14 14:12:52","bb671e3ae32f654b8954ea4c4635f915","","Mozilla/5.0 (Windows NT 10.0; Win64; x64; rv:133.0) Gecko/20100101 Firefox/133.0","","Firefox","133.0","Windows","10.0","https://hz8g1ckzuq.cognition.run/","en-US,en;q=0.5","p2y8xxmdqbmvcrl","35","[""Black or African-American""]","No","Male","838493","null","","<p></p>","null","rating","dtc","repulsion_2","1","washing machines","null","null","null","null","null","null","2","","","","","","","","","",""
"","","","","","rating_trial","survey-html-form","10","104204","0.0-3.0-1.3","141","1","2025-04-14 14:12:52","bb671e3ae32f654b8954ea4c4635f915","","Mozilla/5.0 (Windows NT 10.0; Win64; x64; rv:133.0) Gecko/20100101 Firefox/133.0","","Firefox","133.0","Windows","10.0","https://hz8g1ckzuq.cognition.run/","en-US,en;q=0.5","p2y8xxmdqbmvcrl","35","[""Black or African-American""]","No","Male","838493","10298","","","{""price_1"":""200"",""price_2"":""300"",""price_3"":""350""}","rating","dtc","repulsion_2","1","washing machines","null","null","null","null","null","null","2","100","90","100","30","40","20","Average lifespan","Energy savings","",""
"","","","","","rating_trial_setup","html-keyboard-response","11","104516","0.0-3.0-0.4","141","1","2025-04-14 14:12:52","bb671e3ae32f654b8954ea4c4635f915","","Mozilla/5.0 (Windows NT 10.0; Win64; x64; rv:133.0) Gecko/20100101 Firefox/133.0","","Firefox","133.0","Windows","10.0","https://hz8g1ckzuq.cognition.run/","en-US,en;q=0.5","p2y8xxmdqbmvcrl","35","[""Black or African-American""]","No","Male","838493","null","","<p></p>","null","rating","dtc","repulsion_1","1","laptops","null","null","null","null","null","null","2","","","","","","","","","",""
"","","","","","rating_trial","survey-html-form","12","131214","0.0-3.0-1.4","141","1","2025-04-14 14:12:52","bb671e3ae32f654b8954ea4c4635f915","","Mozilla/5.0 (Windows NT 10.0; Win64; x64; rv:133.0) Gecko/20100101 Firefox/133.0","","Firefox","133.0","Windows","10.0","https://hz8g1ckzuq.cognition.run/","en-US,en;q=0.5","p2y8xxmdqbmvcrl","35","[""Black or African-American""]","No","Male","838493","26694","","","{""price_1"":""400"",""price_2"":""200"",""price_3"":""250""}","rating","dtc","repulsion_1","1","laptops","null","null","null","null","null","null","2","100","90","100","30","40","25","Processing speed","Memory (RAM)","",""
"","","","","","rating_trial_setup","html-keyboard-response","13","131521","0.0-3.0-0.5","141","1","2025-04-14 14:12:52","bb671e3ae32f654b8954ea4c4635f915","","Mozilla/5.0 (Windows NT 10.0; Win64; x64; rv:133.0) Gecko/20100101 Firefox/133.0","","Firefox","133.0","Windows","10.0","https://hz8g1ckzuq.cognition.run/","en-US,en;q=0.5","p2y8xxmdqbmvcrl","35","[""Black or African-American""]","No","Male","838493","null","","<p></p>","null","rating","dct","attraction_2","1","laptops","null","null","null","null","null","null","1","","","","","","","","","",""
"","","","","","rating_trial","survey-html-form","14","155012","0.0-3.0-1.5","141","1","2025-04-14 14:12:52","bb671e3ae32f654b8954ea4c4635f915","","Mozilla/5.0 (Windows NT 10.0; Win64; x64; rv:133.0) Gecko/20100101 Firefox/133.0","","Firefox","133.0","Windows","10.0","https://hz8g1ckzuq.cognition.run/","en-US,en;q=0.5","p2y8xxmdqbmvcrl","35","[""Black or African-American""]","No","Male","838493","23487","","","{""price_1"":""500"",""price_2"":""400"",""price_3"":""300""}","rating","dct","attraction_2","1","laptops","null","null","null","null","null","null","1","60","50","60","50","60","40","Processing speed","Memory (RAM)","",""
"","","","","","rating_trial_setup","html-keyboard-response","15","155315","0.0-3.0-0.6","141","1","2025-04-14 14:12:52","bb671e3ae32f654b8954ea4c4635f915","","Mozilla/5.0 (Windows NT 10.0; Win64; x64; rv:133.0) Gecko/20100101 Firefox/133.0","","Firefox","133.0","Windows","10.0","https://hz8g1ckzuq.cognition.run/","en-US,en;q=0.5","p2y8xxmdqbmvcrl","35","[""Black or African-American""]","No","Male","838493","null","","<p></p>","null","rating","cdt","attraction_1","1","washing machines","null","null","null","null","null","null","2","","","","","","","","","",""
"","","","","","rating_trial","survey-html-form","16","164812","0.0-3.0-1.6","141","1","2025-04-14 14:12:52","bb671e3ae32f654b8954ea4c4635f915","","Mozilla/5.0 (Windows NT 10.0; Win64; x64; rv:133.0) Gecko/20100101 Firefox/133.0","","Firefox","133.0","Windows","10.0","https://hz8g1ckzuq.cognition.run/","en-US,en;q=0.5","p2y8xxmdqbmvcrl","35","[""Black or African-American""]","No","Male","838493","9495","","","{""price_1"":""400"",""price_2"":""300"",""price_3"":""200""}","rating","cdt","attraction_1","1","washing machines","null","null","null","null","null","null","2","60","50","60","50","60","45","Average lifespan","Energy savings","",""
"","","","","","rating_trial_setup","html-keyboard-response","17","165127","0.0-3.0-0.7","141","1","2025-04-14 14:12:52","bb671e3ae32f654b8954ea4c4635f915","","Mozilla/5.0 (Windows NT 10.0; Win64; x64; rv:133.0) Gecko/20100101 Firefox/133.0","","Firefox","133.0","Windows","10.0","https://hz8g1ckzuq.cognition.run/","en-US,en;q=0.5","p2y8xxmdqbmvcrl","35","[""Black or African-American""]","No","Male","838493","null","","<p></p>","null","rating","wbw","catch","null","microwave ovens","60","75","10","50","25","10","1","","","","","","","","","",""
"","","","","","rating_trial","survey-html-form","18","182052","0.0-3.0-1.7","141","1","2025-04-14 14:12:52","bb671e3ae32f654b8954ea4c4635f915","","Mozilla/5.0 (Windows NT 10.0; Win64; x64; rv:133.0) Gecko/20100101 Firefox/133.0","","Firefox","133.0","Windows","10.0","https://hz8g1ckzuq.cognition.run/","en-US,en;q=0.5","p2y8xxmdqbmvcrl","35","[""Black or African-American""]","No","Male","838493","16921","","","{""price_1"":""300"",""price_2"":""500"",""price_3"":""400""}","rating","wbw","catch","null","microwave ovens","60","75","10","50","25","10","1","null","null","null","null","null","null","Warranty","Cooking power","",""
"","","","","","rating_trial_setup","html-keyboard-response","19","182368","0.0-3.0-0.8","141","1","2025-04-14 14:12:52","bb671e3ae32f654b8954ea4c4635f915","","Mozilla/5.0 (Windows NT 10.0; Win64; x64; rv:133.0) Gecko/20100101 Firefox/133.0","","Firefox","133.0","Windows","10.0","https://hz8g1ckzuq.cognition.run/","en-US,en;q=0.5","p2y8xxmdqbmvcrl","35","[""Black or African-American""]","No","Male","838493","null","","<p></p>","null","rating","wbw","catch","null","laptops","50","55","25","45","50","50","1","","","","","","","","","",""
"","","","","","rating_trial","survey-html-form","20","209397","0.0-3.0-1.8","141","1","2025-04-14 14:12:52","bb671e3ae32f654b8954ea4c4635f915","","Mozilla/5.0 (Windows NT 10.0; Win64; x64; rv:133.0) Gecko/20100101 Firefox/133.0","","Firefox","133.0","Windows","10.0","https://hz8g1ckzuq.cognition.run/","en-US,en;q=0.5","p2y8xxmdqbmvcrl","35","[""Black or African-American""]","No","Male","838493","27025","","","{""price_1"":""400"",""price_2"":""500"",""price_3"":""450""}","rating","wbw","catch","null","laptops","50","55","25","45","50","50","1","null","null","null","null","null","null","Processing speed","Memory (RAM)","",""
"","","","","","rating_trial_setup","html-keyboard-response","21","209702","0.0-3.0-0.9","141","1","2025-04-14 14:12:52","bb671e3ae32f654b8954ea4c4635f915","","Mozilla/5.0 (Windows NT 10.0; Win64; x64; rv:133.0) Gecko/20100101 Firefox/133.0","","Firefox","133.0","Windows","10.0","https://hz8g1ckzuq.cognition.run/","en-US,en;q=0.5","p2y8xxmdqbmvcrl","35","[""Black or African-American""]","No","Male","838493","null","","<p></p>","null","rating","wwb","catch","null","microwave ovens","95","75","45","20","10","5","1","","","","","","","","","",""
"","","","","","rating_trial","survey-html-form","22","254397","0.0-3.0-1.9","141","1","2025-04-14 14:12:52","bb671e3ae32f654b8954ea4c4635f915","","Mozilla/5.0 (Windows NT 10.0; Win64; x64; rv:133.0) Gecko/20100101 Firefox/133.0","","Firefox","133.0","Windows","10.0","https://hz8g1ckzuq.cognition.run/","en-US,en;q=0.5","p2y8xxmdqbmvcrl","35","[""Black or African-American""]","No","Male","838493","44690","","","{""price_1"":""200"",""price_2"":""140"",""price_3"":""350""}","rating","wwb","catch","null","microwave ovens","95","75","45","20","10","5","1","null","null","null","null","null","null","Warranty","Cooking power","",""
"","","","","","rating_trial_setup","html-keyboard-response","23","254711","0.0-3.0-0.10","141","1","2025-04-14 14:12:52","bb671e3ae32f654b8954ea4c4635f915","","Mozilla/5.0 (Windows NT 10.0; Win64; x64; rv:133.0) Gecko/20100101 Firefox/133.0","","Firefox","133.0","Windows","10.0","https://hz8g1ckzuq.cognition.run/","en-US,en;q=0.5","p2y8xxmdqbmvcrl","35","[""Black or African-American""]","No","Male","838493","null","","<p></p>","null","rating","cdt","attraction_1","2","microwave ovens","null","null","null","null","null","null","1","","","","","","","","","",""
"","","","","","rating_trial","survey-html-form","24","267934","0.0-3.0-1.10","141","1","2025-04-14 14:12:52","bb671e3ae32f654b8954ea4c4635f915","","Mozilla/5.0 (Windows NT 10.0; Win64; x64; rv:133.0) Gecko/20100101 Firefox/133.0","","Firefox","133.0","Windows","10.0","https://hz8g1ckzuq.cognition.run/","en-US,en;q=0.5","p2y8xxmdqbmvcrl","35","[""Black or African-American""]","No","Male","838493","13219","","","{""price_1"":""500"",""price_2"":""400"",""price_3"":""300""}","rating","cdt","attraction_1","2","microwave ovens","null","null","null","null","null","null","1","50","60","45","60","50","60","Warranty","Cooking power","",""
"","","","","","rating_trial_setup","html-keyboard-response","25","268247","0.0-3.0-0.11","141","1","2025-04-14 14:12:52","bb671e3ae32f654b8954ea4c4635f915","","Mozilla/5.0 (Windows NT 10.0; Win64; x64; rv:133.0) Gecko/20100101 Firefox/133.0","","Firefox","133.0","Windows","10.0","https://hz8g1ckzuq.cognition.run/","en-US,en;q=0.5","p2y8xxmdqbmvcrl","35","[""Black or African-American""]","No","Male","838493","null","","<p></p>","null","rating","tcd","attraction_2","1","washing machines","null","null","null","null","null","null","2","","","","","","","","","",""
"","","","","","rating_trial","survey-html-form","26","277765","0.0-3.0-1.11","141","1","2025-04-14 14:12:52","bb671e3ae32f654b8954ea4c4635f915","","Mozilla/5.0 (Windows NT 10.0; Win64; x64; rv:133.0) Gecko/20100101 Firefox/133.0","","Firefox","133.0","Windows","10.0","https://hz8g1ckzuq.cognition.run/","en-US,en;q=0.5","p2y8xxmdqbmvcrl","35","[""Black or African-American""]","No","Male","838493","9516","","","{""price_1"":""400"",""price_2"":""300"",""price_3"":""200""}","rating","tcd","attraction_2","1","washing machines","null","null","null","null","null","null","2","60","50","60","50","60","40","Average lifespan","Energy savings","",""
"","","","","","rating_trial_setup","html-keyboard-response","27","278074","0.0-3.0-0.12","141","1","2025-04-14 14:12:52","bb671e3ae32f654b8954ea4c4635f915","","Mozilla/5.0 (Windows NT 10.0; Win64; x64; rv:133.0) Gecko/20100101 Firefox/133.0","","Firefox","133.0","Windows","10.0","https://hz8g1ckzuq.cognition.run/","en-US,en;q=0.5","p2y8xxmdqbmvcrl","35","[""Black or African-American""]","No","Male","838493","null","","<p></p>","null","rating","wbw","catch","null","washing machines","70","50","10","30","10","25","2","","","","","","","","","",""
"","","","","","rating_trial","survey-html-form","28","288061","0.0-3.0-1.12","141","1","2025-04-14 14:12:52","bb671e3ae32f654b8954ea4c4635f915","","Mozilla/5.0 (Windows NT 10.0; Win64; x64; rv:133.0) Gecko/20100101 Firefox/133.0","","Firefox","133.0","Windows","10.0","https://hz8g1ckzuq.cognition.run/","en-US,en;q=0.5","p2y8xxmdqbmvcrl","35","[""Black or African-American""]","No","Male","838493","9982","","","{""price_1"":""200"",""price_2"":""400"",""price_3"":""300""}","rating","wbw","catch","null","washing machines","70","50","10","30","10","25","2","null","null","null","null","null","null","Average lifespan","Energy savings","",""
"","","","","","rating_trial_setup","html-keyboard-response","29","288364","0.0-3.0-0.13","141","1","2025-04-14 14:12:52","bb671e3ae32f654b8954ea4c4635f915","","Mozilla/5.0 (Windows NT 10.0; Win64; x64; rv:133.0) Gecko/20100101 Firefox/133.0","","Firefox","133.0","Windows","10.0","https://hz8g1ckzuq.cognition.run/","en-US,en;q=0.5","p2y8xxmdqbmvcrl","35","[""Black or African-American""]","No","Male","838493","null","","<p></p>","null","rating","ctd","repulsion_1","1","televisions","null","null","null","null","null","null","2","","","","","","","","","",""
"","","","","","rating_trial","survey-html-form","30","303365","0.0-3.0-1.13","141","1","2025-04-14 14:12:52","bb671e3ae32f654b8954ea4c4635f915","","Mozilla/5.0 (Windows NT 10.0; Win64; x64; rv:133.0) Gecko/20100101 Firefox/133.0","","Firefox","133.0","Windows","10.0","https://hz8g1ckzuq.cognition.run/","en-US,en;q=0.5","p2y8xxmdqbmvcrl","35","[""Black or African-American""]","No","Male","838493","14995","","","{""price_1"":""400"",""price_2"":""500"",""price_3"":""350""}","rating","ctd","repulsion_1","1","televisions","null","null","null","null","null","null","2","100","90","100","30","40","25","Screen size","Average lifespan","",""
"","","","","","rating_trial_setup","html-keyboard-response","31","303671","0.0-3.0-0.14","141","1","2025-04-14 14:12:52","bb671e3ae32f654b8954ea4c4635f915","","Mozilla/5.0 (Windows NT 10.0; Win64; x64; rv:133.0) Gecko/20100101 Firefox/133.0","","Firefox","133.0","Windows","10.0","https://hz8g1ckzuq.cognition.run/","en-US,en;q=0.5","p2y8xxmdqbmvcrl","35","[""Black or African-American""]","No","Male","838493","null","","<p></p>","null","rating","cdt","repulsion_1","1","microwave ovens","null","null","null","null","null","null","2","","","","","","","","","",""
"","","","","","rating_trial","survey-html-form","32","314637","0.0-3.0-1.14","141","1","2025-04-14 14:12:52","bb671e3ae32f654b8954ea4c4635f915","","Mozilla/5.0 (Windows NT 10.0; Win64; x64; rv:133.0) Gecko/20100101 Firefox/133.0","","Firefox","133.0","Windows","10.0","https://hz8g1ckzuq.cognition.run/","en-US,en;q=0.5","p2y8xxmdqbmvcrl","35","[""Black or African-American""]","No","Male","838493","10959","","","{""price_1"":""300"",""price_2"":""200"",""price_3"":""200""}","rating","cdt","repulsion_1","1","microwave ovens","null","null","null","null","null","null","2","100","90","100","30","40","25","Warranty","Cooking power","",""
"","","","","","rating_trial_setup","html-keyboard-response","33","314943","0.0-3.0-0.15","141","1","2025-04-14 14:12:52","bb671e3ae32f654b8954ea4c4635f915","","Mozilla/5.0 (Windows NT 10.0; Win64; x64; rv:133.0) Gecko/20100101 Firefox/133.0","","Firefox","133.0","Windows","10.0","https://hz8g1ckzuq.cognition.run/","en-US,en;q=0.5","p2y8xxmdqbmvcrl","35","[""Black or African-American""]","No","Male","838493","null","","<p></p>","null","rating","wbw","catch","null","televisions","75","55","5","15","50","30","2","","","","","","","","","",""
"","","","","","rating_trial","survey-html-form","34","331509","0.0-3.0-1.15","141","1","2025-04-14 14:12:52","bb671e3ae32f654b8954ea4c4635f915","","Mozilla/5.0 (Windows NT 10.0; Win64; x64; rv:133.0) Gecko/20100101 Firefox/133.0","","Firefox","133.0","Windows","10.0","https://hz8g1ckzuq.cognition.run/","en-US,en;q=0.5","p2y8xxmdqbmvcrl","35","[""Black or African-American""]","No","Male","838493","16559","","","{""price_1"":""100"",""price_2"":""400"",""price_3"":""300""}","rating","wbw","catch","null","televisions","75","55","5","15","50","30","2","null","null","null","null","null","null","Screen size","Average lifespan","",""
"","","","","","rating_trial_setup","html-keyboard-response","35","331826","0.0-3.0-0.16","141","1","2025-04-14 14:12:52","bb671e3ae32f654b8954ea4c4635f915","","Mozilla/5.0 (Windows NT 10.0; Win64; x64; rv:133.0) Gecko/20100101 Firefox/133.0","","Firefox","133.0","Windows","10.0","https://hz8g1ckzuq.cognition.run/","en-US,en;q=0.5","p2y8xxmdqbmvcrl","35","[""Black or African-American""]","No","Male","838493","null","","<p></p>","null","rating","tdc","attraction_2","1","microwave ovens","null","null","null","null","null","null","1","","","","","","","","","",""
"","","","","","rating_trial","survey-html-form","36","346788","0.0-3.0-1.16","141","1","2025-04-14 14:12:52","bb671e3ae32f654b8954ea4c4635f915","","Mozilla/5.0 (Windows NT 10.0; Win64; x64; rv:133.0) Gecko/20100101 Firefox/133.0","","Firefox","133.0","Windows","10.0","https://hz8g1ckzuq.cognition.run/","en-US,en;q=0.5","p2y8xxmdqbmvcrl","35","[""Black or African-American""]","No","Male","838493","14958","","","{""price_1"":""200"",""price_2"":""100"",""price_3"":""200""}","rating","tdc","attraction_2","1","microwave ovens","null","null","null","null","null","null","1","60","50","60","50","60","40","Warranty","Cooking power","",""
"","","","","","rating_trial_setup","html-keyboard-response","37","347100","0.0-3.0-0.17","141","1","2025-04-14 14:12:52","bb671e3ae32f654b8954ea4c4635f915","","Mozilla/5.0 (Windows NT 10.0; Win64; x64; rv:133.0) Gecko/20100101 Firefox/133.0","","Firefox","133.0","Windows","10.0","https://hz8g1ckzuq.cognition.run/","en-US,en;q=0.5","p2y8xxmdqbmvcrl","35","[""Black or African-American""]","No","Male","838493","null","","<p></p>","null","rating","dct","repulsion_1","2","microwave ovens","null","null","null","null","null","null","2","","","","","","","","","",""
"","","","","","rating_trial","survey-html-form","38","362381","0.0-3.0-1.17","141","1","2025-04-14 14:12:52","bb671e3ae32f654b8954ea4c4635f915","","Mozilla/5.0 (Windows NT 10.0; Win64; x64; rv:133.0) Gecko/20100101 Firefox/133.0","","Firefox","133.0","Windows","10.0","https://hz8g1ckzuq.cognition.run/","en-US,en;q=0.5","p2y8xxmdqbmvcrl","35","[""Black or African-American""]","No","Male","838493","15278","","","{""price_1"":""200"",""price_2"":""100"",""price_3"":""100""}","rating","dct","repulsion_1","2","microwave ovens","null","null","null","null","null","null","2","30","40","25","100","90","100","Warranty","Cooking power","",""
"","","","","","rating_trial_setup","html-keyboard-response","39","362696","0.0-3.0-0.18","141","1","2025-04-14 14:12:52","bb671e3ae32f654b8954ea4c4635f915","","Mozilla/5.0 (Windows NT 10.0; Win64; x64; rv:133.0) Gecko/20100101 Firefox/133.0","","Firefox","133.0","Windows","10.0","https://hz8g1ckzuq.cognition.run/","en-US,en;q=0.5","p2y8xxmdqbmvcrl","35","[""Black or African-American""]","No","Male","838493","null","","<p></p>","null","rating","cdt","attraction_2","2","laptops","null","null","null","null","null","null","2","","","","","","","","","",""
"","","","","","rating_trial","survey-html-form","40","371260","0.0-3.0-1.18","141","1","2025-04-14 14:12:52","bb671e3ae32f654b8954ea4c4635f915","","Mozilla/5.0 (Windows NT 10.0; Win64; x64; rv:133.0) Gecko/20100101 Firefox/133.0","","Firefox","133.0","Windows","10.0","https://hz8g1ckzuq.cognition.run/","en-US,en;q=0.5","p2y8xxmdqbmvcrl","35","[""Black or African-American""]","No","Male","838493","8560","","","{""price_1"":""400"",""price_2"":""200"",""price_3"":""300""}","rating","cdt","attraction_2","2","laptops","null","null","null","null","null","null","2","50","60","40","60","50","60","Processing speed","Memory (RAM)","",""
"","","","","","rating_trial_setup","html-keyboard-response","41","371565","0.0-3.0-0.19","141","1","2025-04-14 14:12:52","bb671e3ae32f654b8954ea4c4635f915","","Mozilla/5.0 (Windows NT 10.0; Win64; x64; rv:133.0) Gecko/20100101 Firefox/133.0","","Firefox","133.0","Windows","10.0","https://hz8g1ckzuq.cognition.run/","en-US,en;q=0.5","p2y8xxmdqbmvcrl","35","[""Black or African-American""]","No","Male","838493","null","","<p></p>","null","rating","cdt","attraction_2","1","televisions","null","null","null","null","null","null","2","","","","","","","","","",""
"","","","","","rating_trial","survey-html-form","42","379917","0.0-3.0-1.19","141","1","2025-04-14 14:12:52","bb671e3ae32f654b8954ea4c4635f915","","Mozilla/5.0 (Windows NT 10.0; Win64; x64; rv:133.0) Gecko/20100101 Firefox/133.0","","Firefox","133.0","Windows","10.0","https://hz8g1ckzuq.cognition.run/","en-US,en;q=0.5","p2y8xxmdqbmvcrl","35","[""Black or African-American""]","No","Male","838493","8349","","","{""price_1"":""500"",""price_2"":""300"",""price_3"":""200""}","rating","cdt","attraction_2","1","televisions","null","null","null","null","null","null","2","60","50","60","50","60","40","Screen size","Average lifespan","",""
"","","","","","rating_trial_setup","html-keyboard-response","43","380235","0.0-3.0-0.20","141","1","2025-04-14 14:12:52","bb671e3ae32f654b8954ea4c4635f915","","Mozilla/5.0 (Windows NT 10.0; Win64; x64; rv:133.0) Gecko/20100101 Firefox/133.0","","Firefox","133.0","Windows","10.0","https://hz8g1ckzuq.cognition.run/","en-US,en;q=0.5","p2y8xxmdqbmvcrl","35","[""Black or African-American""]","No","Male","838493","null","","<p></p>","null","rating","cdt","repulsion_2","1","televisions","null","null","null","null","null","null","1","","","","","","","","","",""
"","","","","","rating_trial","survey-html-form","44","387716","0.0-3.0-1.20","141","1","2025-04-14 14:12:52","bb671e3ae32f654b8954ea4c4635f915","","Mozilla/5.0 (Windows NT 10.0; Win64; x64; rv:133.0) Gecko/20100101 Firefox/133.0","","Firefox","133.0","Windows","10.0","https://hz8g1ckzuq.cognition.run/","en-US,en;q=0.5","p2y8xxmdqbmvcrl","35","[""Black or African-American""]","No","Male","838493","7475","","","{""price_1"":""400"",""price_2"":""500"",""price_3"":""500""}","rating","cdt","repulsion_2","1","televisions","null","null","null","null","null","null","1","100","90","100","30","40","20","Screen size","Average lifespan","",""
"","","","","","rating_trial_setup","html-keyboard-response","45","388020","0.0-3.0-0.21","141","1","2025-04-14 14:12:52","bb671e3ae32f654b8954ea4c4635f915","","Mozilla/5.0 (Windows NT 10.0; Win64; x64; rv:133.0) Gecko/20100101 Firefox/133.0","","Firefox","133.0","Windows","10.0","https://hz8g1ckzuq.cognition.run/","en-US,en;q=0.5","p2y8xxmdqbmvcrl","35","[""Black or African-American""]","No","Male","838493","null","","<p></p>","null","rating","cdt","repulsion_1","1","washing machines","null","null","null","null","null","null","2","","","","","","","","","",""
"","","","","","rating_trial","survey-html-form","46","399109","0.0-3.0-1.21","141","1","2025-04-14 14:12:52","bb671e3ae32f654b8954ea4c4635f915","","Mozilla/5.0 (Windows NT 10.0; Win64; x64; rv:133.0) Gecko/20100101 Firefox/133.0","","Firefox","133.0","Windows","10.0","https://hz8g1ckzuq.cognition.run/","en-US,en;q=0.5","p2y8xxmdqbmvcrl","35","[""Black or African-American""]","No","Male","838493","11082","","","{""price_1"":""200"",""price_2"":""400"",""price_3"":""300""}","rating","cdt","repulsion_1","1","washing machines","null","null","null","null","null","null","2","100","90","100","30","40","25","Average lifespan","Energy savings","",""
"","","","","","rating_trial_setup","html-keyboard-response","47","399424","0.0-3.0-0.22","141","1","2025-04-14 14:12:52","bb671e3ae32f654b8954ea4c4635f915","","Mozilla/5.0 (Windows NT 10.0; Win64; x64; rv:133.0) Gecko/20100101 Firefox/133.0","","Firefox","133.0","Windows","10.0","https://hz8g1ckzuq.cognition.run/","en-US,en;q=0.5","p2y8xxmdqbmvcrl","35","[""Black or African-American""]","No","Male","838493","null","","<p></p>","null","rating","tcd","repulsion_2","1","microwave ovens","null","null","null","null","null","null","2","","","","","","","","","",""
"","","","","","rating_trial","survey-html-form","48","421677","0.0-3.0-1.22","141","1","2025-04-14 14:12:52","bb671e3ae32f654b8954ea4c4635f915","","Mozilla/5.0 (Windows NT 10.0; Win64; x64; rv:133.0) Gecko/20100101 Firefox/133.0","","Firefox","133.0","Windows","10.0","https://hz8g1ckzuq.cognition.run/","en-US,en;q=0.5","p2y8xxmdqbmvcrl","35","[""Black or African-American""]","No","Male","838493","22247","","","{""price_1"":""300"",""price_2"":""400"",""price_3"":""200""}","rating","tcd","repulsion_2","1","microwave ovens","null","null","null","null","null","null","2","100","90","100","30","40","20","Warranty","Cooking power","",""
"","","","","","rating_trial_setup","html-keyboard-response","49","421986","0.0-3.0-0.23","141","1","2025-04-14 14:12:52","bb671e3ae32f654b8954ea4c4635f915","","Mozilla/5.0 (Windows NT 10.0; Win64; x64; rv:133.0) Gecko/20100101 Firefox/133.0","","Firefox","133.0","Windows","10.0","https://hz8g1ckzuq.cognition.run/","en-US,en;q=0.5","p2y8xxmdqbmvcrl","35","[""Black or African-American""]","No","Male","838493","null","","<p></p>","null","rating","dct","repulsion_2","1","laptops","null","null","null","null","null","null","2","","","","","","","","","",""
"","","","","","rating_trial","survey-html-form","50","429557","0.0-3.0-1.23","141","1","2025-04-14 14:12:52","bb671e3ae32f654b8954ea4c4635f915","","Mozilla/5.0 (Windows NT 10.0; Win64; x64; rv:133.0) Gecko/20100101 Firefox/133.0","","Firefox","133.0","Windows","10.0","https://hz8g1ckzuq.cognition.run/","en-US,en;q=0.5","p2y8xxmdqbmvcrl","35","[""Black or African-American""]","No","Male","838493","7565","","","{""price_1"":""300"",""price_2"":""400"",""price_3"":""200""}","rating","dct","repulsion_2","1","laptops","null","null","null","null","null","null","2","100","90","100","30","40","20","Processing speed","Memory (RAM)","",""
"","","","","","rating_trial_setup","html-keyboard-response","51","429865","0.0-3.0-0.24","141","1","2025-04-14 14:12:52","bb671e3ae32f654b8954ea4c4635f915","","Mozilla/5.0 (Windows NT 10.0; Win64; x64; rv:133.0) Gecko/20100101 Firefox/133.0","","Firefox","133.0","Windows","10.0","https://hz8g1ckzuq.cognition.run/","en-US,en;q=0.5","p2y8xxmdqbmvcrl","35","[""Black or African-American""]","No","Male","838493","null","","<p></p>","null","rating","tcd","attraction_1","1","laptops","null","null","null","null","null","null","1","","","","","","","","","",""
"","","","","","rating_trial","survey-html-form","52","442452","0.0-3.0-1.24","141","1","2025-04-14 14:12:52","bb671e3ae32f654b8954ea4c4635f915","","Mozilla/5.0 (Windows NT 10.0; Win64; x64; rv:133.0) Gecko/20100101 Firefox/133.0","","Firefox","133.0","Windows","10.0","https://hz8g1ckzuq.cognition.run/","en-US,en;q=0.5","p2y8xxmdqbmvcrl","35","[""Black or African-American""]","No","Male","838493","12581","","","{""price_1"":""400"",""price_2"":""300"",""price_3"":""200""}","rating","tcd","attraction_1","1","laptops","null","null","null","null","null","null","1","60","50","60","50","60","45","Processing speed","Memory (RAM)","",""
"","","","","","rating_trial_setup","html-keyboard-response","53","442769","0.0-3.0-0.25","141","1","2025-04-14 14:12:52","bb671e3ae32f654b8954ea4c4635f915","","Mozilla/5.0 (Windows NT 10.0; Win64; x64; rv:133.0) Gecko/20100101 Firefox/133.0","","Firefox","133.0","Windows","10.0","https://hz8g1ckzuq.cognition.run/","en-US,en;q=0.5","p2y8xxmdqbmvcrl","35","[""Black or African-American""]","No","Male","838493","null","","<p></p>","null","rating","dct","repulsion_2","2","microwave ovens","null","null","null","null","null","null","2","","","","","","","","","",""
"","","","","","rating_trial","survey-html-form","54","452765","0.0-3.0-1.25","141","1","2025-04-14 14:12:52","bb671e3ae32f654b8954ea4c4635f915","","Mozilla/5.0 (Windows NT 10.0; Win64; x64; rv:133.0) Gecko/20100101 Firefox/133.0","","Firefox","133.0","Windows","10.0","https://hz8g1ckzuq.cognition.run/","en-US,en;q=0.5","p2y8xxmdqbmvcrl","35","[""Black or African-American""]","No","Male","838493","9989","","","{""price_1"":""400"",""price_2"":""200"",""price_3"":""300""}","rating","dct","repulsion_2","2","microwave ovens","null","null","null","null","null","null","2","30","40","20","100","90","100","Warranty","Cooking power","",""
"","","","","","rating_trial_setup","html-keyboard-response","55","453069","0.0-3.0-0.26","141","1","2025-04-14 14:12:52","bb671e3ae32f654b8954ea4c4635f915","","Mozilla/5.0 (Windows NT 10.0; Win64; x64; rv:133.0) Gecko/20100101 Firefox/133.0","","Firefox","133.0","Windows","10.0","https://hz8g1ckzuq.cognition.run/","en-US,en;q=0.5","p2y8xxmdqbmvcrl","35","[""Black or African-American""]","No","Male","838493","null","","<p></p>","null","rating","bww","catch","null","laptops","65","95","45","35","5","45","1","","","","","","","","","",""
"","","","","","rating_trial","survey-html-form","56","468764","0.0-3.0-1.26","141","1","2025-04-14 14:12:52","bb671e3ae32f654b8954ea4c4635f915","","Mozilla/5.0 (Windows NT 10.0; Win64; x64; rv:133.0) Gecko/20100101 Firefox/133.0","","Firefox","133.0","Windows","10.0","https://hz8g1ckzuq.cognition.run/","en-US,en;q=0.5","p2y8xxmdqbmvcrl","35","[""Black or African-American""]","No","Male","838493","15686","","","{""price_1"":""300"",""price_2"":""200"",""price_3"":""200""}","rating","bww","catch","null","laptops","65","95","45","35","5","45","1","null","null","null","null","null","null","Processing speed","Memory (RAM)","",""
"","","","","","rating_trial_setup","html-keyboard-response","57","469077","0.0-3.0-0.27","141","1","2025-04-14 14:12:52","bb671e3ae32f654b8954ea4c4635f915","","Mozilla/5.0 (Windows NT 10.0; Win64; x64; rv:133.0) Gecko/20100101 Firefox/133.0","","Firefox","133.0","Windows","10.0","https://hz8g1ckzuq.cognition.run/","en-US,en;q=0.5","p2y8xxmdqbmvcrl","35","[""Black or African-American""]","No","Male","838493","null","","<p></p>","null","rating","dtc","attraction_1","2","televisions","null","null","null","null","null","null","1","","","","","","","","","",""
"","","","","","rating_trial","survey-html-form","58","482228","0.0-3.0-1.27","141","1","2025-04-14 14:12:52","bb671e3ae32f654b8954ea4c4635f915","","Mozilla/5.0 (Windows NT 10.0; Win64; x64; rv:133.0) Gecko/20100101 Firefox/133.0","","Firefox","133.0","Windows","10.0","https://hz8g1ckzuq.cognition.run/","en-US,en;q=0.5","p2y8xxmdqbmvcrl","35","[""Black or African-American""]","No","Male","838493","13147","","","{""price_1"":""200"",""price_2"":""200"",""price_3"":""150""}","rating","dtc","attraction_1","2","televisions","null","null","null","null","null","null","1","50","60","45","60","50","60","Screen size","Average lifespan","",""
"","","","","","rating_trial_setup","html-keyboard-response","59","482532","0.0-3.0-0.28","141","1","2025-04-14 14:12:52","bb671e3ae32f654b8954ea4c4635f915","","Mozilla/5.0 (Windows NT 10.0; Win64; x64; rv:133.0) Gecko/20100101 Firefox/133.0","","Firefox","133.0","Windows","10.0","https://hz8g1ckzuq.cognition.run/","en-US,en;q=0.5","p2y8xxmdqbmvcrl","35","[""Black or African-American""]","No","Male","838493","null","","<p></p>","null","rating","wbw","catch","null","washing machines","55","80","35","15","35","50","2","","","","","","","","","",""
"","","","","","rating_trial","survey-html-form","60","494685","0.0-3.0-1.28","141","1","2025-04-14 14:12:52","bb671e3ae32f654b8954ea4c4635f915","","Mozilla/5.0 (Windows NT 10.0; Win64; x64; rv:133.0) Gecko/20100101 Firefox/133.0","","Firefox","133.0","Windows","10.0","https://hz8g1ckzuq.cognition.run/","en-US,en;q=0.5","p2y8xxmdqbmvcrl","35","[""Black or African-American""]","No","Male","838493","12147","","","{""price_1"":""150"",""price_2"":""350"",""price_3"":""150""}","rating","wbw","catch","null","washing machines","55","80","35","15","35","50","2","null","null","null","null","null","null","Average lifespan","Energy savings","",""
"","","","","","rating_trial_setup","html-keyboard-response","61","495000","0.0-3.0-0.29","141","1","2025-04-14 14:12:52","bb671e3ae32f654b8954ea4c4635f915","","Mozilla/5.0 (Windows NT 10.0; Win64; x64; rv:133.0) Gecko/20100101 Firefox/133.0","","Firefox","133.0","Windows","10.0","https://hz8g1ckzuq.cognition.run/","en-US,en;q=0.5","p2y8xxmdqbmvcrl","35","[""Black or African-American""]","No","Male","838493","null","","<p></p>","null","rating","ctd","attraction_2","2","microwave ovens","null","null","null","null","null","null","1","","","","","","","","","",""
"","","","","","rating_trial","survey-html-form","62","503589","0.0-3.0-1.29","141","1","2025-04-14 14:12:52","bb671e3ae32f654b8954ea4c4635f915","","Mozilla/5.0 (Windows NT 10.0; Win64; x64; rv:133.0) Gecko/20100101 Firefox/133.0","","Firefox","133.0","Windows","10.0","https://hz8g1ckzuq.cognition.run/","en-US,en;q=0.5","p2y8xxmdqbmvcrl","35","[""Black or African-American""]","No","Male","838493","8582","","","{""price_1"":""600"",""price_2"":""200"",""price_3"":""400""}","rating","ctd","attraction_2","2","microwave ovens","null","null","null","null","null","null","1","50","60","40","60","50","60","Warranty","Cooking power","",""
"","","","","","rating_trial_setup","html-keyboard-response","63","503897","0.0-3.0-0.30","141","1","2025-04-14 14:12:52","bb671e3ae32f654b8954ea4c4635f915","","Mozilla/5.0 (Windows NT 10.0; Win64; x64; rv:133.0) Gecko/20100101 Firefox/133.0","","Firefox","133.0","Windows","10.0","https://hz8g1ckzuq.cognition.run/","en-US,en;q=0.5","p2y8xxmdqbmvcrl","35","[""Black or African-American""]","No","Male","838493","null","","<p></p>","null","rating","cdt","repulsion_2","2","washing machines","null","null","null","null","null","null","1","","","","","","","","","",""
"","","","","","rating_trial","survey-html-form","64","511780","0.0-3.0-1.30","141","1","2025-04-14 14:12:52","bb671e3ae32f654b8954ea4c4635f915","","Mozilla/5.0 (Windows NT 10.0; Win64; x64; rv:133.0) Gecko/20100101 Firefox/133.0","","Firefox","133.0","Windows","10.0","https://hz8g1ckzuq.cognition.run/","en-US,en;q=0.5","p2y8xxmdqbmvcrl","35","[""Black or African-American""]","No","Male","838493","7873","","","{""price_1"":""400"",""price_2"":""400"",""price_3"":""200""}","rating","cdt","repulsion_2","2","washing machines","null","null","null","null","null","null","1","30","40","20","100","90","100","Average lifespan","Energy savings","",""
"","","","","","rating_trial_setup","html-keyboard-response","65","512085","0.0-3.0-0.31","141","1","2025-04-14 14:12:52","bb671e3ae32f654b8954ea4c4635f915","","Mozilla/5.0 (Windows NT 10.0; Win64; x64; rv:133.0) Gecko/20100101 Firefox/133.0","","Firefox","133.0","Windows","10.0","https://hz8g1ckzuq.cognition.run/","en-US,en;q=0.5","p2y8xxmdqbmvcrl","35","[""Black or African-American""]","No","Male","838493","null","","<p></p>","null","rating","dtc","repulsion_2","2","laptops","null","null","null","null","null","null","1","","","","","","","","","",""
"","","","","","rating_trial","survey-html-form","66","519596","0.0-3.0-1.31","141","1","2025-04-14 14:12:52","bb671e3ae32f654b8954ea4c4635f915","","Mozilla/5.0 (Windows NT 10.0; Win64; x64; rv:133.0) Gecko/20100101 Firefox/133.0","","Firefox","133.0","Windows","10.0","https://hz8g1ckzuq.cognition.run/","en-US,en;q=0.5","p2y8xxmdqbmvcrl","35","[""Black or African-American""]","No","Male","838493","7507","","","{""price_1"":""400"",""price_2"":""300"",""price_3"":""200""}","rating","dtc","repulsion_2","2","laptops","null","null","null","null","null","null","1","30","40","20","100","90","100","Processing speed","Memory (RAM)","",""
"","","","","","rating_trial_setup","html-keyboard-response","67","519913","0.0-3.0-0.32","141","1","2025-04-14 14:12:52","bb671e3ae32f654b8954ea4c4635f915","","Mozilla/5.0 (Windows NT 10.0; Win64; x64; rv:133.0) Gecko/20100101 Firefox/133.0","","Firefox","133.0","Windows","10.0","https://hz8g1ckzuq.cognition.run/","en-US,en;q=0.5","p2y8xxmdqbmvcrl","35","[""Black or African-American""]","No","Male","838493","null","","<p></p>","null","rating","tdc","repulsion_2","2","televisions","null","null","null","null","null","null","2","","","","","","","","","",""
"","","","","","rating_trial","survey-html-form","68","529490","0.0-3.0-1.32","141","1","2025-04-14 14:12:52","bb671e3ae32f654b8954ea4c4635f915","","Mozilla/5.0 (Windows NT 10.0; Win64; x64; rv:133.0) Gecko/20100101 Firefox/133.0","","Firefox","133.0","Windows","10.0","https://hz8g1ckzuq.cognition.run/","en-US,en;q=0.5","p2y8xxmdqbmvcrl","35","[""Black or African-American""]","No","Male","838493","9574","","","{""price_1"":""300"",""price_2"":""300"",""price_3"":""200""}","rating","tdc","repulsion_2","2","televisions","null","null","null","null","null","null","2","30","40","20","100","90","100","Screen size","Average lifespan","",""
"","","","","","rating_trial_setup","html-keyboard-response","69","529815","0.0-3.0-0.33","141","1","2025-04-14 14:12:52","bb671e3ae32f654b8954ea4c4635f915","","Mozilla/5.0 (Windows NT 10.0; Win64; x64; rv:133.0) Gecko/20100101 Firefox/133.0","","Firefox","133.0","Windows","10.0","https://hz8g1ckzuq.cognition.run/","en-US,en;q=0.5","p2y8xxmdqbmvcrl","35","[""Black or African-American""]","No","Male","838493","null","","<p></p>","null","rating","wwb","catch","null","televisions","75","80","20","25","25","50","1","","","","","","","","","",""
"","","","","","rating_trial","survey-html-form","70","539780","0.0-3.0-1.33","141","1","2025-04-14 14:12:52","bb671e3ae32f654b8954ea4c4635f915","","Mozilla/5.0 (Windows NT 10.0; Win64; x64; rv:133.0) Gecko/20100101 Firefox/133.0","","Firefox","133.0","Windows","10.0","https://hz8g1ckzuq.cognition.run/","en-US,en;q=0.5","p2y8xxmdqbmvcrl","35","[""Black or African-American""]","No","Male","838493","9960","","","{""price_1"":""400"",""price_2"":""600"",""price_3"":""700""}","rating","wwb","catch","null","televisions","75","80","20","25","25","50","1","null","null","null","null","null","null","Screen size","Average lifespan","",""
"","","","","","rating_trial_setup","html-keyboard-response","71","540100","0.0-3.0-0.34","141","1","2025-04-14 14:12:52","bb671e3ae32f654b8954ea4c4635f915","","Mozilla/5.0 (Windows NT 10.0; Win64; x64; rv:133.0) Gecko/20100101 Firefox/133.0","","Firefox","133.0","Windows","10.0","https://hz8g1ckzuq.cognition.run/","en-US,en;q=0.5","p2y8xxmdqbmvcrl","35","[""Black or African-American""]","No","Male","838493","null","","<p></p>","null","rating","cdt","repulsion_1","2","televisions","null","null","null","null","null","null","1","","","","","","","","","",""
"","","","","","rating_trial","survey-html-form","72","548981","0.0-3.0-1.34","141","1","2025-04-14 14:12:52","bb671e3ae32f654b8954ea4c4635f915","","Mozilla/5.0 (Windows NT 10.0; Win64; x64; rv:133.0) Gecko/20100101 Firefox/133.0","","Firefox","133.0","Windows","10.0","https://hz8g1ckzuq.cognition.run/","en-US,en;q=0.5","p2y8xxmdqbmvcrl","35","[""Black or African-American""]","No","Male","838493","8873","","","{""price_1"":""400"",""price_2"":""500"",""price_3"":""600""}","rating","cdt","repulsion_1","2","televisions","null","null","null","null","null","null","1","30","40","25","100","90","100","Screen size","Average lifespan","",""
"","","","","","rating_trial_setup","html-keyboard-response","73","549293","0.0-3.0-0.35","141","1","2025-04-14 14:12:52","bb671e3ae32f654b8954ea4c4635f915","","Mozilla/5.0 (Windows NT 10.0; Win64; x64; rv:133.0) Gecko/20100101 Firefox/133.0","","Firefox","133.0","Windows","10.0","https://hz8g1ckzuq.cognition.run/","en-US,en;q=0.5","p2y8xxmdqbmvcrl","35","[""Black or African-American""]","No","Male","838493","null","","<p></p>","null","rating","dct","repulsion_1","2","laptops","null","null","null","null","null","null","2","","","","","","","","","",""
"","","","","","rating_trial","survey-html-form","74","567966","0.0-3.0-1.35","141","1","2025-04-14 14:12:52","bb671e3ae32f654b8954ea4c4635f915","","Mozilla/5.0 (Windows NT 10.0; Win64; x64; rv:133.0) Gecko/20100101 Firefox/133.0","","Firefox","133.0","Windows","10.0","https://hz8g1ckzuq.cognition.run/","en-US,en;q=0.5","p2y8xxmdqbmvcrl","35","[""Black or African-American""]","No","Male","838493","18666","","","{""price_1"":""200"",""price_2"":""300"",""price_3"":""400""}","rating","dct","repulsion_1","2","laptops","null","null","null","null","null","null","2","30","40","25","100","90","100","Processing speed","Memory (RAM)","",""
"","","","","","rating_trial_setup","html-keyboard-response","75","568274","0.0-3.0-0.36","141","1","2025-04-14 14:12:52","bb671e3ae32f654b8954ea4c4635f915","","Mozilla/5.0 (Windows NT 10.0; Win64; x64; rv:133.0) Gecko/20100101 Firefox/133.0","","Firefox","133.0","Windows","10.0","https://hz8g1ckzuq.cognition.run/","en-US,en;q=0.5","p2y8xxmdqbmvcrl","35","[""Black or African-American""]","No","Male","838493","null","","<p></p>","null","rating","ctd","attraction_2","2","televisions","null","null","null","null","null","null","2","","","","","","","","","",""
"","","","","","rating_trial","survey-html-form","76","585380","0.0-3.0-1.36","141","1","2025-04-14 14:12:52","bb671e3ae32f654b8954ea4c4635f915","","Mozilla/5.0 (Windows NT 10.0; Win64; x64; rv:133.0) Gecko/20100101 Firefox/133.0","","Firefox","133.0","Windows","10.0","https://hz8g1ckzuq.cognition.run/","en-US,en;q=0.5","p2y8xxmdqbmvcrl","35","[""Black or African-American""]","No","Male","838493","17099","","","{""price_1"":""500"",""price_2"":""400"",""price_3"":""500""}","rating","ctd","attraction_2","2","televisions","null","null","null","null","null","null","2","50","60","40","60","50","60","Screen size","Average lifespan","",""
"","","","","","rating_trial_setup","html-keyboard-response","77","585688","0.0-3.0-0.37","141","1","2025-04-14 14:12:52","bb671e3ae32f654b8954ea4c4635f915","","Mozilla/5.0 (Windows NT 10.0; Win64; x64; rv:133.0) Gecko/20100101 Firefox/133.0","","Firefox","133.0","Windows","10.0","https://hz8g1ckzuq.cognition.run/","en-US,en;q=0.5","p2y8xxmdqbmvcrl","35","[""Black or African-American""]","No","Male","838493","null","","<p></p>","null","rating","tcd","attraction_1","2","washing machines","null","null","null","null","null","null","1","","","","","","","","","",""
"","","","","","rating_trial","survey-html-form","78","602836","0.0-3.0-1.37","141","1","2025-04-14 14:12:52","bb671e3ae32f654b8954ea4c4635f915","","Mozilla/5.0 (Windows NT 10.0; Win64; x64; rv:133.0) Gecko/20100101 Firefox/133.0","","Firefox","133.0","Windows","10.0","https://hz8g1ckzuq.cognition.run/","en-US,en;q=0.5","p2y8xxmdqbmvcrl","35","[""Black or African-American""]","No","Male","838493","17141","","","{""price_1"":""400"",""price_2"":""300"",""price_3"":""200""}","rating","tcd","attraction_1","2","washing machines","null","null","null","null","null","null","1","50","60","45","60","50","60","Average lifespan","Energy savings","",""
"","","","","","rating_trial_setup","html-keyboard-response","79","603149","0.0-3.0-0.38","141","1","2025-04-14 14:12:52","bb671e3ae32f654b8954ea4c4635f915","","Mozilla/5.0 (Windows NT 10.0; Win64; x64; rv:133.0) Gecko/20100101 Firefox/133.0","","Firefox","133.0","Windows","10.0","https://hz8g1ckzuq.cognition.run/","en-US,en;q=0.5","p2y8xxmdqbmvcrl","35","[""Black or African-American""]","No","Male","838493","null","","<p></p>","null","rating","cdt","attraction_2","2","washing machines","null","null","null","null","null","null","2","","","","","","","","","",""
"","","","","","rating_trial","survey-html-form","80","614940","0.0-3.0-1.38","141","1","2025-04-14 14:12:52","bb671e3ae32f654b8954ea4c4635f915","","Mozilla/5.0 (Windows NT 10.0; Win64; x64; rv:133.0) Gecko/20100101 Firefox/133.0","","Firefox","133.0","Windows","10.0","https://hz8g1ckzuq.cognition.run/","en-US,en;q=0.5","p2y8xxmdqbmvcrl","35","[""Black or African-American""]","No","Male","838493","11784","","","{""price_1"":""300"",""price_2"":""200"",""price_3"":""400""}","rating","cdt","attraction_2","2","washing machines","null","null","null","null","null","null","2","50","60","40","60","50","60","Average lifespan","Energy savings","",""
"","","","","","rating_trial_setup","html-keyboard-response","81","615245","0.0-3.0-0.39","141","1","2025-04-14 14:12:52","bb671e3ae32f654b8954ea4c4635f915","","Mozilla/5.0 (Windows NT 10.0; Win64; x64; rv:133.0) Gecko/20100101 Firefox/133.0","","Firefox","133.0","Windows","10.0","https://hz8g1ckzuq.cognition.run/","en-US,en;q=0.5","p2y8xxmdqbmvcrl","35","[""Black or African-American""]","No","Male","838493","null","","<p></p>","null","rating","ctd","attraction_1","1","microwave ovens","null","null","null","null","null","null","2","","","","","","","","","",""
"","","","","","rating_trial","survey-html-form","82","624971","0.0-3.0-1.39","141","1","2025-04-14 14:12:52","bb671e3ae32f654b8954ea4c4635f915","","Mozilla/5.0 (Windows NT 10.0; Win64; x64; rv:133.0) Gecko/20100101 Firefox/133.0","","Firefox","133.0","Windows","10.0","https://hz8g1ckzuq.cognition.run/","en-US,en;q=0.5","p2y8xxmdqbmvcrl","35","[""Black or African-American""]","No","Male","838493","9719","","","{""price_1"":""400"",""price_2"":""300"",""price_3"":""200""}","rating","ctd","attraction_1","1","microwave ovens","null","null","null","null","null","null","2","60","50","60","50","60","45","Warranty","Cooking power","",""
"","","","","","","instructions","83","643612","0.0-4.0","141","1","2025-04-14 14:12:52","bb671e3ae32f654b8954ea4c4635f915","","Mozilla/5.0 (Windows NT 10.0; Win64; x64; rv:133.0) Gecko/20100101 Firefox/133.0","","Firefox","133.0","Windows","10.0","https://hz8g1ckzuq.cognition.run/","en-US,en;q=0.5","p2y8xxmdqbmvcrl","35","[""Black or African-American""]","No","Male","838493","18639","[{""page_index"":0,""viewing_time"":1542},{""page_index"":1,""viewing_time"":1064},{""page_index"":2,""viewing_time"":1775},{""page_index"":3,""viewing_time"":1824},{""page_index"":4,""viewing_time"":1593},{""page_index"":5,""viewing_time"":1312},{""page_index"":6,""viewing_time"":5657},{""page_index"":7,""viewing_time"":3872}]","","","","","","","","","","","","","","","","","","","","","","","",""
"","","","","","choice_trial_setup","html-keyboard-response","84","643929","0.0-5.0-0.0","141","1","2025-04-14 14:12:52","bb671e3ae32f654b8954ea4c4635f915","","Mozilla/5.0 (Windows NT 10.0; Win64; x64; rv:133.0) Gecko/20100101 Firefox/133.0","","Firefox","133.0","Windows","10.0","https://hz8g1ckzuq.cognition.run/","en-US,en;q=0.5","p2y8xxmdqbmvcrl","35","[""Black or African-American""]","No","Male","838493","null","","<p></p>","null","choice","bww","catch","null","microwave ovens","80","65","15","10","15","50","1","","","","","","","","","",""
"","","","","","choice_trial","survey-html-form","85","649484","0.0-5.0-1.0","141","1","2025-04-14 14:12:52","bb671e3ae32f654b8954ea4c4635f915","","Mozilla/5.0 (Windows NT 10.0; Win64; x64; rv:133.0) Gecko/20100101 Firefox/133.0","","Firefox","133.0","Windows","10.0","https://hz8g1ckzuq.cognition.run/","en-US,en;q=0.5","p2y8xxmdqbmvcrl","35","[""Black or African-American""]","No","Male","838493","5551","","","{""product_choice"":""A""}","choice","bww","catch","null","microwave ovens","80","65","15","10","15","50","1","null","null","null","null","null","null","Warranty","Cooking power","",""
"","","","","","choice_trial_setup","html-keyboard-response","86","649796","0.0-5.0-0.1","141","1","2025-04-14 14:12:52","bb671e3ae32f654b8954ea4c4635f915","","Mozilla/5.0 (Windows NT 10.0; Win64; x64; rv:133.0) Gecko/20100101 Firefox/133.0","","Firefox","133.0","Windows","10.0","https://hz8g1ckzuq.cognition.run/","en-US,en;q=0.5","p2y8xxmdqbmvcrl","35","[""Black or African-American""]","No","Male","838493","null","","<p></p>","null","choice","dtc","repulsion_1","2","laptops","null","null","null","null","null","null","2","","","","","","","","","",""
"","","","","","choice_trial","survey-html-form","87","653333","0.0-5.0-1.1","141","1","2025-04-14 14:12:52","bb671e3ae32f654b8954ea4c4635f915","","Mozilla/5.0 (Windows NT 10.0; Win64; x64; rv:133.0) Gecko/20100101 Firefox/133.0","","Firefox","133.0","Windows","10.0","https://hz8g1ckzuq.cognition.run/","en-US,en;q=0.5","p2y8xxmdqbmvcrl","35","[""Black or African-American""]","No","Male","838493","3529","","","{""product_choice"":""B""}","choice","dtc","repulsion_1","2","laptops","null","null","null","null","null","null","2","30","40","25","100","90","100","Processing speed","Memory (RAM)","",""
"","","","","","choice_trial_setup","html-keyboard-response","88","653639","0.0-5.0-0.2","141","1","2025-04-14 14:12:52","bb671e3ae32f654b8954ea4c4635f915","","Mozilla/5.0 (Windows NT 10.0; Win64; x64; rv:133.0) Gecko/20100101 Firefox/133.0","","Firefox","133.0","Windows","10.0","https://hz8g1ckzuq.cognition.run/","en-US,en;q=0.5","p2y8xxmdqbmvcrl","35","[""Black or African-American""]","No","Male","838493","null","","<p></p>","null","choice","cdt","attraction_2","2","laptops","null","null","null","null","null","null","2","","","","","","","","","",""
"","","","","","choice_trial","survey-html-form","89","658589","0.0-5.0-1.2","141","1","2025-04-14 14:12:52","bb671e3ae32f654b8954ea4c4635f915","","Mozilla/5.0 (Windows NT 10.0; Win64; x64; rv:133.0) Gecko/20100101 Firefox/133.0","","Firefox","133.0","Windows","10.0","https://hz8g1ckzuq.cognition.run/","en-US,en;q=0.5","p2y8xxmdqbmvcrl","35","[""Black or African-American""]","No","Male","838493","4938","","","{""product_choice"":""C""}","choice","cdt","attraction_2","2","laptops","null","null","null","null","null","null","2","50","60","40","60","50","60","Processing speed","Memory (RAM)","",""
"","","","","","choice_trial_setup","html-keyboard-response","90","658892","0.0-5.0-0.3","141","1","2025-04-14 14:12:52","bb671e3ae32f654b8954ea4c4635f915","","Mozilla/5.0 (Windows NT 10.0; Win64; x64; rv:133.0) Gecko/20100101 Firefox/133.0","","Firefox","133.0","Windows","10.0","https://hz8g1ckzuq.cognition.run/","en-US,en;q=0.5","p2y8xxmdqbmvcrl","35","[""Black or African-American""]","No","Male","838493","null","","<p></p>","null","choice","dct","attraction_1","1","televisions","null","null","null","null","null","null","2","","","","","","","","","",""
"","","","","","choice_trial","survey-html-form","91","663053","0.0-5.0-1.3","141","1","2025-04-14 14:12:52","bb671e3ae32f654b8954ea4c4635f915","","Mozilla/5.0 (Windows NT 10.0; Win64; x64; rv:133.0) Gecko/20100101 Firefox/133.0","","Firefox","133.0","Windows","10.0","https://hz8g1ckzuq.cognition.run/","en-US,en;q=0.5","p2y8xxmdqbmvcrl","35","[""Black or African-American""]","No","Male","838493","4153","","","{""product_choice"":""B""}","choice","dct","attraction_1","1","televisions","null","null","null","null","null","null","2","60","50","60","50","60","45","Screen size","Average lifespan","",""
"","","","","","choice_trial_setup","html-keyboard-response","92","663361","0.0-5.0-0.4","141","1","2025-04-14 14:12:52","bb671e3ae32f654b8954ea4c4635f915","","Mozilla/5.0 (Windows NT 10.0; Win64; x64; rv:133.0) Gecko/20100101 Firefox/133.0","","Firefox","133.0","Windows","10.0","https://hz8g1ckzuq.cognition.run/","en-US,en;q=0.5","p2y8xxmdqbmvcrl","35","[""Black or African-American""]","No","Male","838493","null","","<p></p>","null","choice","tdc","repulsion_2","1","washing machines","null","null","null","null","null","null","1","","","","","","","","","",""
"","","","","","choice_trial","survey-html-form","93","667165","0.0-5.0-1.4","141","1","2025-04-14 14:12:52","bb671e3ae32f654b8954ea4c4635f915","","Mozilla/5.0 (Windows NT 10.0; Win64; x64; rv:133.0) Gecko/20100101 Firefox/133.0","","Firefox","133.0","Windows","10.0","https://hz8g1ckzuq.cognition.run/","en-US,en;q=0.5","p2y8xxmdqbmvcrl","35","[""Black or African-American""]","No","Male","838493","3800","","","{""product_choice"":""A""}","choice","tdc","repulsion_2","1","washing machines","null","null","null","null","null","null","1","100","90","100","30","40","20","Average lifespan","Energy savings","",""
"","","","","","choice_trial_setup","html-keyboard-response","94","667470","0.0-5.0-0.5","141","1","2025-04-14 14:12:52","bb671e3ae32f654b8954ea4c4635f915","","Mozilla/5.0 (Windows NT 10.0; Win64; x64; rv:133.0) Gecko/20100101 Firefox/133.0","","Firefox","133.0","Windows","10.0","https://hz8g1ckzuq.cognition.run/","en-US,en;q=0.5","p2y8xxmdqbmvcrl","35","[""Black or African-American""]","No","Male","838493","null","","<p></p>","null","choice","tdc","repulsion_1","1","microwave ovens","null","null","null","null","null","null","1","","","","","","","","","",""
"","","","","","choice_trial","survey-html-form","95","670685","0.0-5.0-1.5","141","1","2025-04-14 14:12:52","bb671e3ae32f654b8954ea4c4635f915","","Mozilla/5.0 (Windows NT 10.0; Win64; x64; rv:133.0) Gecko/20100101 Firefox/133.0","","Firefox","133.0","Windows","10.0","https://hz8g1ckzuq.cognition.run/","en-US,en;q=0.5","p2y8xxmdqbmvcrl","35","[""Black or African-American""]","No","Male","838493","3212","","","{""product_choice"":""C""}","choice","tdc","repulsion_1","1","microwave ovens","null","null","null","null","null","null","1","100","90","100","30","40","25","Warranty","Cooking power","",""
"","","","","","choice_trial_setup","html-keyboard-response","96","670991","0.0-5.0-0.6","141","1","2025-04-14 14:12:52","bb671e3ae32f654b8954ea4c4635f915","","Mozilla/5.0 (Windows NT 10.0; Win64; x64; rv:133.0) Gecko/20100101 Firefox/133.0","","Firefox","133.0","Windows","10.0","https://hz8g1ckzuq.cognition.run/","en-US,en;q=0.5","p2y8xxmdqbmvcrl","35","[""Black or African-American""]","No","Male","838493","null","","<p></p>","null","choice","tcd","attraction_1","2","televisions","null","null","null","null","null","null","1","","","","","","","","","",""
"","","","","","choice_trial","survey-html-form","97","678052","0.0-5.0-1.6","141","1","2025-04-14 14:12:52","bb671e3ae32f654b8954ea4c4635f915","","Mozilla/5.0 (Windows NT 10.0; Win64; x64; rv:133.0) Gecko/20100101 Firefox/133.0","","Firefox","133.0","Windows","10.0","https://hz8g1ckzuq.cognition.run/","en-US,en;q=0.5","p2y8xxmdqbmvcrl","35","[""Black or African-American""]","No","Male","838493","7054","","","{""product_choice"":""B""}","choice","tcd","attraction_1","2","televisions","null","null","null","null","null","null","1","50","60","45","60","50","60","Screen size","Average lifespan","",""
"","","","","","choice_trial_setup","html-keyboard-response","98","678356","0.0-5.0-0.7","141","1","2025-04-14 14:12:52","bb671e3ae32f654b8954ea4c4635f915","","Mozilla/5.0 (Windows NT 10.0; Win64; x64; rv:133.0) Gecko/20100101 Firefox/133.0","","Firefox","133.0","Windows","10.0","https://hz8g1ckzuq.cognition.run/","en-US,en;q=0.5","p2y8xxmdqbmvcrl","35","[""Black or African-American""]","No","Male","838493","null","","<p></p>","null","choice","dtc","repulsion_2","2","televisions","null","null","null","null","null","null","2","","","","","","","","","",""
"","","","","","choice_trial","survey-html-form","99","681892","0.0-5.0-1.7","141","1","2025-04-14 14:12:52","bb671e3ae32f654b8954ea4c4635f915","","Mozilla/5.0 (Windows NT 10.0; Win64; x64; rv:133.0) Gecko/20100101 Firefox/133.0","","Firefox","133.0","Windows","10.0","https://hz8g1ckzuq.cognition.run/","en-US,en;q=0.5","p2y8xxmdqbmvcrl","35","[""Black or African-American""]","No","Male","838493","3527","","","{""product_choice"":""B""}","choice","dtc","repulsion_2","2","televisions","null","null","null","null","null","null","2","30","40","20","100","90","100","Screen size","Average lifespan","",""
"","","","","","choice_trial_setup","html-keyboard-response","100","682202","0.0-5.0-0.8","141","1","2025-04-14 14:12:52","bb671e3ae32f654b8954ea4c4635f915","","Mozilla/5.0 (Windows NT 10.0; Win64; x64; rv:133.0) Gecko/20100101 Firefox/133.0","","Firefox","133.0","Windows","10.0","https://hz8g1ckzuq.cognition.run/","en-US,en;q=0.5","p2y8xxmdqbmvcrl","35","[""Black or African-American""]","No","Male","838493","null","","<p></p>","null","choice","cdt","repulsion_2","1","microwave ovens","null","null","null","null","null","null","1","","","","","","","","","",""
"","","","","","choice_trial","survey-html-form","101","686444","0.0-5.0-1.8","141","1","2025-04-14 14:12:52","bb671e3ae32f654b8954ea4c4635f915","","Mozilla/5.0 (Windows NT 10.0; Win64; x64; rv:133.0) Gecko/20100101 Firefox/133.0","","Firefox","133.0","Windows","10.0","https://hz8g1ckzuq.cognition.run/","en-US,en;q=0.5","p2y8xxmdqbmvcrl","35","[""Black or African-American""]","No","Male","838493","4233","","","{""product_choice"":""A""}","choice","cdt","repulsion_2","1","microwave ovens","null","null","null","null","null","null","1","100","90","100","30","40","20","Warranty","Cooking power","",""
"","","","","","choice_trial_setup","html-keyboard-response","102","686758","0.0-5.0-0.9","141","1","2025-04-14 14:12:52","bb671e3ae32f654b8954ea4c4635f915","","Mozilla/5.0 (Windows NT 10.0; Win64; x64; rv:133.0) Gecko/20100101 Firefox/133.0","","Firefox","133.0","Windows","10.0","https://hz8g1ckzuq.cognition.run/","en-US,en;q=0.5","p2y8xxmdqbmvcrl","35","[""Black or African-American""]","No","Male","838493","null","","<p></p>","null","choice","tdc","repulsion_1","1","laptops","null","null","null","null","null","null","2","","","","","","","","","",""
"","","","","","choice_trial","survey-html-form","103","689644","0.0-5.0-1.9","141","1","2025-04-14 14:12:52","bb671e3ae32f654b8954ea4c4635f915","","Mozilla/5.0 (Windows NT 10.0; Win64; x64; rv:133.0) Gecko/20100101 Firefox/133.0","","Firefox","133.0","Windows","10.0","https://hz8g1ckzuq.cognition.run/","en-US,en;q=0.5","p2y8xxmdqbmvcrl","35","[""Black or African-American""]","No","Male","838493","2875","","","{""product_choice"":""A""}","choice","tdc","repulsion_1","1","laptops","null","null","null","null","null","null","2","100","90","100","30","40","25","Processing speed","Memory (RAM)","",""
"","","","","","choice_trial_setup","html-keyboard-response","104","689962","0.0-5.0-0.10","141","1","2025-04-14 14:12:52","bb671e3ae32f654b8954ea4c4635f915","","Mozilla/5.0 (Windows NT 10.0; Win64; x64; rv:133.0) Gecko/20100101 Firefox/133.0","","Firefox","133.0","Windows","10.0","https://hz8g1ckzuq.cognition.run/","en-US,en;q=0.5","p2y8xxmdqbmvcrl","35","[""Black or African-American""]","No","Male","838493","null","","<p></p>","null","choice","wwb","catch","null","laptops","55","60","25","5","10","45","2","","","","","","","","","",""
"","","","","","choice_trial","survey-html-form","105","692627","0.0-5.0-1.10","141","1","2025-04-14 14:12:52","bb671e3ae32f654b8954ea4c4635f915","","Mozilla/5.0 (Windows NT 10.0; Win64; x64; rv:133.0) Gecko/20100101 Firefox/133.0","","Firefox","133.0","Windows","10.0","https://hz8g1ckzuq.cognition.run/","en-US,en;q=0.5","p2y8xxmdqbmvcrl","35","[""Black or African-American""]","No","Male","838493","2657","","","{""product_choice"":""C""}","choice","wwb","catch","null","laptops","55","60","25","5","10","45","2","null","null","null","null","null","null","Processing speed","Memory (RAM)","",""
"","","","","","choice_trial_setup","html-keyboard-response","106","692933","0.0-5.0-0.11","141","1","2025-04-14 14:12:52","bb671e3ae32f654b8954ea4c4635f915","","Mozilla/5.0 (Windows NT 10.0; Win64; x64; rv:133.0) Gecko/20100101 Firefox/133.0","","Firefox","133.0","Windows","10.0","https://hz8g1ckzuq.cognition.run/","en-US,en;q=0.5","p2y8xxmdqbmvcrl","35","[""Black or African-American""]","No","Male","838493","null","","<p></p>","null","choice","dct","attraction_2","1","televisions","null","null","null","null","null","null","1","","","","","","","","","",""
"","","","","","choice_trial","survey-html-form","107","697332","0.0-5.0-1.11","141","1","2025-04-14 14:12:52","bb671e3ae32f654b8954ea4c4635f915","","Mozilla/5.0 (Windows NT 10.0; Win64; x64; rv:133.0) Gecko/20100101 Firefox/133.0","","Firefox","133.0","Windows","10.0","https://hz8g1ckzuq.cognition.run/","en-US,en;q=0.5","p2y8xxmdqbmvcrl","35","[""Black or African-American""]","No","Male","838493","4392","","","{""product_choice"":""C""}","choice","dct","attraction_2","1","televisions","null","null","null","null","null","null","1","60","50","60","50","60","40","Screen size","Average lifespan","",""
"","","","","","choice_trial_setup","html-keyboard-response","108","697651","0.0-5.0-0.12","141","1","2025-04-14 14:12:52","bb671e3ae32f654b8954ea4c4635f915","","Mozilla/5.0 (Windows NT 10.0; Win64; x64; rv:133.0) Gecko/20100101 Firefox/133.0","","Firefox","133.0","Windows","10.0","https://hz8g1ckzuq.cognition.run/","en-US,en;q=0.5","p2y8xxmdqbmvcrl","35","[""Black or African-American""]","No","Male","838493","null","","<p></p>","null","choice","cdt","attraction_2","1","laptops","null","null","null","null","null","null","2","","","","","","","","","",""
"","","","","","choice_trial","survey-html-form","109","701148","0.0-5.0-1.12","141","1","2025-04-14 14:12:52","bb671e3ae32f654b8954ea4c4635f915","","Mozilla/5.0 (Windows NT 10.0; Win64; x64; rv:133.0) Gecko/20100101 Firefox/133.0","","Firefox","133.0","Windows","10.0","https://hz8g1ckzuq.cognition.run/","en-US,en;q=0.5","p2y8xxmdqbmvcrl","35","[""Black or African-American""]","No","Male","838493","3490","","","{""product_choice"":""A""}","choice","cdt","attraction_2","1","laptops","null","null","null","null","null","null","2","60","50","60","50","60","40","Processing speed","Memory (RAM)","",""
"","","","","","choice_trial_setup","html-keyboard-response","110","701463","0.0-5.0-0.13","141","1","2025-04-14 14:12:52","bb671e3ae32f654b8954ea4c4635f915","","Mozilla/5.0 (Windows NT 10.0; Win64; x64; rv:133.0) Gecko/20100101 Firefox/133.0","","Firefox","133.0","Windows","10.0","https://hz8g1ckzuq.cognition.run/","en-US,en;q=0.5","p2y8xxmdqbmvcrl","35","[""Black or African-American""]","No","Male","838493","null","","<p></p>","null","choice","cdt","repulsion_2","2","washing machines","null","null","null","null","null","null","2","","","","","","","","","",""
"","","","","","choice_trial","survey-html-form","111","705075","0.0-5.0-1.13","141","1","2025-04-14 14:12:52","bb671e3ae32f654b8954ea4c4635f915","","Mozilla/5.0 (Windows NT 10.0; Win64; x64; rv:133.0) Gecko/20100101 Firefox/133.0","","Firefox","133.0","Windows","10.0","https://hz8g1ckzuq.cognition.run/","en-US,en;q=0.5","p2y8xxmdqbmvcrl","35","[""Black or African-American""]","No","Male","838493","3606","","","{""product_choice"":""C""}","choice","cdt","repulsion_2","2","washing machines","null","null","null","null","null","null","2","30","40","20","100","90","100","Average lifespan","Energy savings","",""
"","","","","","choice_trial_setup","html-keyboard-response","112","705381","0.0-5.0-0.14","141","1","2025-04-14 14:12:52","bb671e3ae32f654b8954ea4c4635f915","","Mozilla/5.0 (Windows NT 10.0; Win64; x64; rv:133.0) Gecko/20100101 Firefox/133.0","","Firefox","133.0","Windows","10.0","https://hz8g1ckzuq.cognition.run/","en-US,en;q=0.5","p2y8xxmdqbmvcrl","35","[""Black or African-American""]","No","Male","838493","null","","<p></p>","null","choice","tcd","attraction_2","1","washing machines","null","null","null","null","null","null","2","","","","","","","","","",""
"","","","","","choice_trial","survey-html-form","113","709813","0.0-5.0-1.14","141","1","2025-04-14 14:12:52","bb671e3ae32f654b8954ea4c4635f915","","Mozilla/5.0 (Windows NT 10.0; Win64; x64; rv:133.0) Gecko/20100101 Firefox/133.0","","Firefox","133.0","Windows","10.0","https://hz8g1ckzuq.cognition.run/","en-US,en;q=0.5","p2y8xxmdqbmvcrl","35","[""Black or African-American""]","No","Male","838493","4419","","","{""product_choice"":""C""}","choice","tcd","attraction_2","1","washing machines","null","null","null","null","null","null","2","60","50","60","50","60","40","Average lifespan","Energy savings","",""
"","","","","","choice_trial_setup","html-keyboard-response","114","710126","0.0-5.0-0.15","141","1","2025-04-14 14:12:52","bb671e3ae32f654b8954ea4c4635f915","","Mozilla/5.0 (Windows NT 10.0; Win64; x64; rv:133.0) Gecko/20100101 Firefox/133.0","","Firefox","133.0","Windows","10.0","https://hz8g1ckzuq.cognition.run/","en-US,en;q=0.5","p2y8xxmdqbmvcrl","35","[""Black or African-American""]","No","Male","838493","null","","<p></p>","null","choice","cdt","repulsion_2","2","microwave ovens","null","null","null","null","null","null","1","","","","","","","","","",""
"","","","","","choice_trial","survey-html-form","115","716213","0.0-5.0-1.15","141","1","2025-04-14 14:12:52","bb671e3ae32f654b8954ea4c4635f915","","Mozilla/5.0 (Windows NT 10.0; Win64; x64; rv:133.0) Gecko/20100101 Firefox/133.0","","Firefox","133.0","Windows","10.0","https://hz8g1ckzuq.cognition.run/","en-US,en;q=0.5","p2y8xxmdqbmvcrl","35","[""Black or African-American""]","No","Male","838493","6079","","","{""product_choice"":""A""}","choice","cdt","repulsion_2","2","microwave ovens","null","null","null","null","null","null","1","30","40","20","100","90","100","Warranty","Cooking power","",""
"","","","","","choice_trial_setup","html-keyboard-response","116","716528","0.0-5.0-0.16","141","1","2025-04-14 14:12:52","bb671e3ae32f654b8954ea4c4635f915","","Mozilla/5.0 (Windows NT 10.0; Win64; x64; rv:133.0) Gecko/20100101 Firefox/133.0","","Firefox","133.0","Windows","10.0","https://hz8g1ckzuq.cognition.run/","en-US,en;q=0.5","p2y8xxmdqbmvcrl","35","[""Black or African-American""]","No","Male","838493","null","","<p></p>","null","choice","dct","repulsion_2","1","televisions","null","null","null","null","null","null","1","","","","","","","","","",""
"","","","","","choice_trial","survey-html-form","117","719948","0.0-5.0-1.16","141","1","2025-04-14 14:12:52","bb671e3ae32f654b8954ea4c4635f915","","Mozilla/5.0 (Windows NT 10.0; Win64; x64; rv:133.0) Gecko/20100101 Firefox/133.0","","Firefox","133.0","Windows","10.0","https://hz8g1ckzuq.cognition.run/","en-US,en;q=0.5","p2y8xxmdqbmvcrl","35","[""Black or African-American""]","No","Male","838493","3412","","","{""product_choice"":""C""}","choice","dct","repulsion_2","1","televisions","null","null","null","null","null","null","1","100","90","100","30","40","20","Screen size","Average lifespan","",""
"","","","","","choice_trial_setup","html-keyboard-response","118","720258","0.0-5.0-0.17","141","1","2025-04-14 14:12:52","bb671e3ae32f654b8954ea4c4635f915","","Mozilla/5.0 (Windows NT 10.0; Win64; x64; rv:133.0) Gecko/20100101 Firefox/133.0","","Firefox","133.0","Windows","10.0","https://hz8g1ckzuq.cognition.run/","en-US,en;q=0.5","p2y8xxmdqbmvcrl","35","[""Black or African-American""]","No","Male","838493","null","","<p></p>","null","choice","dct","attraction_2","1","microwave ovens","null","null","null","null","null","null","1","","","","","","","","","",""
"","","","","","choice_trial","survey-html-form","119","724677","0.0-5.0-1.17","141","1","2025-04-14 14:12:52","bb671e3ae32f654b8954ea4c4635f915","","Mozilla/5.0 (Windows NT 10.0; Win64; x64; rv:133.0) Gecko/20100101 Firefox/133.0","","Firefox","133.0","Windows","10.0","https://hz8g1ckzuq.cognition.run/","en-US,en;q=0.5","p2y8xxmdqbmvcrl","35","[""Black or African-American""]","No","Male","838493","4411","","","{""product_choice"":""C""}","choice","dct","attraction_2","1","microwave ovens","null","null","null","null","null","null","1","60","50","60","50","60","40","Warranty","Cooking power","",""
"","","","","","choice_trial_setup","html-keyboard-response","120","724991","0.0-5.0-0.18","141","1","2025-04-14 14:12:52","bb671e3ae32f654b8954ea4c4635f915","","Mozilla/5.0 (Windows NT 10.0; Win64; x64; rv:133.0) Gecko/20100101 Firefox/133.0","","Firefox","133.0","Windows","10.0","https://hz8g1ckzuq.cognition.run/","en-US,en;q=0.5","p2y8xxmdqbmvcrl","35","[""Black or African-American""]","No","Male","838493","null","","<p></p>","null","choice","tcd","attraction_1","2","laptops","null","null","null","null","null","null","2","","","","","","","","","",""
"","","","","","choice_trial","survey-html-form","121","728501","0.0-5.0-1.18","141","1","2025-04-14 14:12:52","bb671e3ae32f654b8954ea4c4635f915","","Mozilla/5.0 (Windows NT 10.0; Win64; x64; rv:133.0) Gecko/20100101 Firefox/133.0","","Firefox","133.0","Windows","10.0","https://hz8g1ckzuq.cognition.run/","en-US,en;q=0.5","p2y8xxmdqbmvcrl","35","[""Black or African-American""]","No","Male","838493","3502","","","{""product_choice"":""A""}","choice","tcd","attraction_1","2","laptops","null","null","null","null","null","null","2","50","60","45","60","50","60","Processing speed","Memory (RAM)","",""
"","","","","","choice_trial_setup","html-keyboard-response","122","728806","0.0-5.0-0.19","141","1","2025-04-14 14:12:52","bb671e3ae32f654b8954ea4c4635f915","","Mozilla/5.0 (Windows NT 10.0; Win64; x64; rv:133.0) Gecko/20100101 Firefox/133.0","","Firefox","133.0","Windows","10.0","https://hz8g1ckzuq.cognition.run/","en-US,en;q=0.5","p2y8xxmdqbmvcrl","35","[""Black or African-American""]","No","Male","838493","null","","<p></p>","null","choice","dtc","attraction_1","1","washing machines","null","null","null","null","null","null","1","","","","","","","","","",""
"","","","","","choice_trial","survey-html-form","123","733460","0.0-5.0-1.19","141","1","2025-04-14 14:12:52","bb671e3ae32f654b8954ea4c4635f915","","Mozilla/5.0 (Windows NT 10.0; Win64; x64; rv:133.0) Gecko/20100101 Firefox/133.0","","Firefox","133.0","Windows","10.0","https://hz8g1ckzuq.cognition.run/","en-US,en;q=0.5","p2y8xxmdqbmvcrl","35","[""Black or African-American""]","No","Male","838493","4642","","","{""product_choice"":""A""}","choice","dtc","attraction_1","1","washing machines","null","null","null","null","null","null","1","60","50","60","50","60","45","Average lifespan","Energy savings","",""
"","","","","","choice_trial_setup","html-keyboard-response","124","733777","0.0-5.0-0.20","141","1","2025-04-14 14:12:52","bb671e3ae32f654b8954ea4c4635f915","","Mozilla/5.0 (Windows NT 10.0; Win64; x64; rv:133.0) Gecko/20100101 Firefox/133.0","","Firefox","133.0","Windows","10.0","https://hz8g1ckzuq.cognition.run/","en-US,en;q=0.5","p2y8xxmdqbmvcrl","35","[""Black or African-American""]","No","Male","838493","null","","<p></p>","null","choice","dtc","attraction_1","2","washing machines","null","null","null","null","null","null","2","","","","","","","","","",""
"","","","","","choice_trial","survey-html-form","125","738395","0.0-5.0-1.20","141","1","2025-04-14 14:12:52","bb671e3ae32f654b8954ea4c4635f915","","Mozilla/5.0 (Windows NT 10.0; Win64; x64; rv:133.0) Gecko/20100101 Firefox/133.0","","Firefox","133.0","Windows","10.0","https://hz8g1ckzuq.cognition.run/","en-US,en;q=0.5","p2y8xxmdqbmvcrl","35","[""Black or African-American""]","No","Male","838493","4610","","","{""product_choice"":""B""}","choice","dtc","attraction_1","2","washing machines","null","null","null","null","null","null","2","50","60","45","60","50","60","Average lifespan","Energy savings","",""
"","","","","","choice_trial_setup","html-keyboard-response","126","738714","0.0-5.0-0.21","141","1","2025-04-14 14:12:52","bb671e3ae32f654b8954ea4c4635f915","","Mozilla/5.0 (Windows NT 10.0; Win64; x64; rv:133.0) Gecko/20100101 Firefox/133.0","","Firefox","133.0","Windows","10.0","https://hz8g1ckzuq.cognition.run/","en-US,en;q=0.5","p2y8xxmdqbmvcrl","35","[""Black or African-American""]","No","Male","838493","null","","<p></p>","null","choice","bww","catch","null","televisions","70","60","35","45","10","50","2","","","","","","","","","",""
"","","","","","choice_trial","survey-html-form","127","741357","0.0-5.0-1.21","141","1","2025-04-14 14:12:52","bb671e3ae32f654b8954ea4c4635f915","","Mozilla/5.0 (Windows NT 10.0; Win64; x64; rv:133.0) Gecko/20100101 Firefox/133.0","","Firefox","133.0","Windows","10.0","https://hz8g1ckzuq.cognition.run/","en-US,en;q=0.5","p2y8xxmdqbmvcrl","35","[""Black or African-American""]","No","Male","838493","2625","","","{""product_choice"":""A""}","choice","bww","catch","null","televisions","70","60","35","45","10","50","2","null","null","null","null","null","null","Screen size","Average lifespan","",""
"","","","","","choice_trial_setup","html-keyboard-response","128","741667","0.0-5.0-0.22","141","1","2025-04-14 14:12:52","bb671e3ae32f654b8954ea4c4635f915","","Mozilla/5.0 (Windows NT 10.0; Win64; x64; rv:133.0) Gecko/20100101 Firefox/133.0","","Firefox","133.0","Windows","10.0","https://hz8g1ckzuq.cognition.run/","en-US,en;q=0.5","p2y8xxmdqbmvcrl","35","[""Black or African-American""]","No","Male","838493","null","","<p></p>","null","choice","cdt","repulsion_1","2","microwave ovens","null","null","null","null","null","null","1","","","","","","","","","",""
"","","","","","choice_trial","survey-html-form","129","745244","0.0-5.0-1.22","141","1","2025-04-14 14:12:52","bb671e3ae32f654b8954ea4c4635f915","","Mozilla/5.0 (Windows NT 10.0; Win64; x64; rv:133.0) Gecko/20100101 Firefox/133.0","","Firefox","133.0","Windows","10.0","https://hz8g1ckzuq.cognition.run/","en-US,en;q=0.5","p2y8xxmdqbmvcrl","35","[""Black or African-American""]","No","Male","838493","3563","","","{""product_choice"":""A""}","choice","cdt","repulsion_1","2","microwave ovens","null","null","null","null","null","null","1","30","40","25","100","90","100","Warranty","Cooking power","",""
"","","","","","choice_trial_setup","html-keyboard-response","130","745562","0.0-5.0-0.23","141","1","2025-04-14 14:12:52","bb671e3ae32f654b8954ea4c4635f915","","Mozilla/5.0 (Windows NT 10.0; Win64; x64; rv:133.0) Gecko/20100101 Firefox/133.0","","Firefox","133.0","Windows","10.0","https://hz8g1ckzuq.cognition.run/","en-US,en;q=0.5","p2y8xxmdqbmvcrl","35","[""Black or African-American""]","No","Male","838493","null","","<p></p>","null","choice","tdc","attraction_1","1","microwave ovens","null","null","null","null","null","null","2","","","","","","","","","",""
"","","","","","choice_trial","survey-html-form","131","749995","0.0-5.0-1.23","141","1","2025-04-14 14:12:52","bb671e3ae32f654b8954ea4c4635f915","","Mozilla/5.0 (Windows NT 10.0; Win64; x64; rv:133.0) Gecko/20100101 Firefox/133.0","","Firefox","133.0","Windows","10.0","https://hz8g1ckzuq.cognition.run/","en-US,en;q=0.5","p2y8xxmdqbmvcrl","35","[""Black or African-American""]","No","Male","838493","4427","","","{""product_choice"":""C""}","choice","tdc","attraction_1","1","microwave ovens","null","null","null","null","null","null","2","60","50","60","50","60","45","Warranty","Cooking power","",""
"","","","","","choice_trial_setup","html-keyboard-response","132","750314","0.0-5.0-0.24","141","1","2025-04-14 14:12:52","bb671e3ae32f654b8954ea4c4635f915","","Mozilla/5.0 (Windows NT 10.0; Win64; x64; rv:133.0) Gecko/20100101 Firefox/133.0","","Firefox","133.0","Windows","10.0","https://hz8g1ckzuq.cognition.run/","en-US,en;q=0.5","p2y8xxmdqbmvcrl","35","[""Black or African-American""]","No","Male","838493","null","","<p></p>","null","choice","dct","attraction_1","2","microwave ovens","null","null","null","null","null","null","2","","","","","","","","","",""
"","","","","","choice_trial","survey-html-form","133","753013","0.0-5.0-1.24","141","1","2025-04-14 14:12:52","bb671e3ae32f654b8954ea4c4635f915","","Mozilla/5.0 (Windows NT 10.0; Win64; x64; rv:133.0) Gecko/20100101 Firefox/133.0","","Firefox","133.0","Windows","10.0","https://hz8g1ckzuq.cognition.run/","en-US,en;q=0.5","p2y8xxmdqbmvcrl","35","[""Black or African-American""]","No","Male","838493","2691","","","{""product_choice"":""A""}","choice","dct","attraction_1","2","microwave ovens","null","null","null","null","null","null","2","50","60","45","60","50","60","Warranty","Cooking power","",""
"","","","","","choice_trial_setup","html-keyboard-response","134","753331","0.0-5.0-0.25","141","1","2025-04-14 14:12:52","bb671e3ae32f654b8954ea4c4635f915","","Mozilla/5.0 (Windows NT 10.0; Win64; x64; rv:133.0) Gecko/20100101 Firefox/133.0","","Firefox","133.0","Windows","10.0","https://hz8g1ckzuq.cognition.run/","en-US,en;q=0.5","p2y8xxmdqbmvcrl","35","[""Black or African-American""]","No","Male","838493","null","","<p></p>","null","choice","wwb","catch","null","laptops","70","50","45","40","20","50","1","","","","","","","","","",""
"","","","","","choice_trial","survey-html-form","135","757804","0.0-5.0-1.25","141","1","2025-04-14 14:12:52","bb671e3ae32f654b8954ea4c4635f915","","Mozilla/5.0 (Windows NT 10.0; Win64; x64; rv:133.0) Gecko/20100101 Firefox/133.0","","Firefox","133.0","Windows","10.0","https://hz8g1ckzuq.cognition.run/","en-US,en;q=0.5","p2y8xxmdqbmvcrl","35","[""Black or African-American""]","No","Male","838493","4460","","","{""product_choice"":""C""}","choice","wwb","catch","null","laptops","70","50","45","40","20","50","1","null","null","null","null","null","null","Processing speed","Memory (RAM)","",""
"","","","","","choice_trial_setup","html-keyboard-response","136","758120","0.0-5.0-0.26","141","1","2025-04-14 14:12:52","bb671e3ae32f654b8954ea4c4635f915","","Mozilla/5.0 (Windows NT 10.0; Win64; x64; rv:133.0) Gecko/20100101 Firefox/133.0","","Firefox","133.0","Windows","10.0","https://hz8g1ckzuq.cognition.run/","en-US,en;q=0.5","p2y8xxmdqbmvcrl","35","[""Black or African-American""]","No","Male","838493","null","","<p></p>","null","choice","bww","catch","null","microwave ovens","75","75","25","5","25","40","1","","","","","","","","","",""
"","","","","","choice_trial","survey-html-form","137","760588","0.0-5.0-1.26","141","1","2025-04-14 14:12:52","bb671e3ae32f654b8954ea4c4635f915","","Mozilla/5.0 (Windows NT 10.0; Win64; x64; rv:133.0) Gecko/20100101 Firefox/133.0","","Firefox","133.0","Windows","10.0","https://hz8g1ckzuq.cognition.run/","en-US,en;q=0.5","p2y8xxmdqbmvcrl","35","[""Black or African-American""]","No","Male","838493","2460","","","{""product_choice"":""A""}","choice","bww","catch","null","microwave ovens","75","75","25","5","25","40","1","null","null","null","null","null","null","Warranty","Cooking power","",""
"","","","","","choice_trial_setup","html-keyboard-response","138","760907","0.0-5.0-0.27","141","1","2025-04-14 14:12:52","bb671e3ae32f654b8954ea4c4635f915","","Mozilla/5.0 (Windows NT 10.0; Win64; x64; rv:133.0) Gecko/20100101 Firefox/133.0","","Firefox","133.0","Windows","10.0","https://hz8g1ckzuq.cognition.run/","en-US,en;q=0.5","p2y8xxmdqbmvcrl","35","[""Black or African-American""]","No","Male","838493","null","","<p></p>","null","choice","dtc","repulsion_1","2","washing machines","null","null","null","null","null","null","2","","","","","","","","","",""
"","","","","","choice_trial","survey-html-form","139","765412","0.0-5.0-1.27","141","1","2025-04-14 14:12:52","bb671e3ae32f654b8954ea4c4635f915","","Mozilla/5.0 (Windows NT 10.0; Win64; x64; rv:133.0) Gecko/20100101 Firefox/133.0","","Firefox","133.0","Windows","10.0","https://hz8g1ckzuq.cognition.run/","en-US,en;q=0.5","p2y8xxmdqbmvcrl","35","[""Black or African-American""]","No","Male","838493","4496","","","{""product_choice"":""B""}","choice","dtc","repulsion_1","2","washing machines","null","null","null","null","null","null","2","30","40","25","100","90","100","Average lifespan","Energy savings","",""
"","","","","","choice_trial_setup","html-keyboard-response","140","765733","0.0-5.0-0.28","141","1","2025-04-14 14:12:52","bb671e3ae32f654b8954ea4c4635f915","","Mozilla/5.0 (Windows NT 10.0; Win64; x64; rv:133.0) Gecko/20100101 Firefox/133.0","","Firefox","133.0","Windows","10.0","https://hz8g1ckzuq.cognition.run/","en-US,en;q=0.5","p2y8xxmdqbmvcrl","35","[""Black or African-American""]","No","Male","838493","null","","<p></p>","null","choice","tdc","attraction_1","1","laptops","null","null","null","null","null","null","2","","","","","","","","","",""
"","","","","","choice_trial","survey-html-form","141","768683","0.0-5.0-1.28","141","1","2025-04-14 14:12:52","bb671e3ae32f654b8954ea4c4635f915","","Mozilla/5.0 (Windows NT 10.0; Win64; x64; rv:133.0) Gecko/20100101 Firefox/133.0","","Firefox","133.0","Windows","10.0","https://hz8g1ckzuq.cognition.run/","en-US,en;q=0.5","p2y8xxmdqbmvcrl","35","[""Black or African-American""]","No","Male","838493","2939","","","{""product_choice"":""C""}","choice","tdc","attraction_1","1","laptops","null","null","null","null","null","null","2","60","50","60","50","60","45","Processing speed","Memory (RAM)","",""
"","","","","","choice_trial_setup","html-keyboard-response","142","768990","0.0-5.0-0.29","141","1","2025-04-14 14:12:52","bb671e3ae32f654b8954ea4c4635f915","","Mozilla/5.0 (Windows NT 10.0; Win64; x64; rv:133.0) Gecko/20100101 Firefox/133.0","","Firefox","133.0","Windows","10.0","https://hz8g1ckzuq.cognition.run/","en-US,en;q=0.5","p2y8xxmdqbmvcrl","35","[""Black or African-American""]","No","Male","838493","null","","<p></p>","null","choice","wbw","catch","null","washing machines","95","75","5","45","5","30","1","","","","","","","","","",""
"","","","","","choice_trial","survey-html-form","143","771396","0.0-5.0-1.29","141","1","2025-04-14 14:12:52","bb671e3ae32f654b8954ea4c4635f915","","Mozilla/5.0 (Windows NT 10.0; Win64; x64; rv:133.0) Gecko/20100101 Firefox/133.0","","Firefox","133.0","Windows","10.0","https://hz8g1ckzuq.cognition.run/","en-US,en;q=0.5","p2y8xxmdqbmvcrl","35","[""Black or African-American""]","No","Male","838493","2395","","","{""product_choice"":""B""}","choice","wbw","catch","null","washing machines","95","75","5","45","5","30","1","null","null","null","null","null","null","Average lifespan","Energy savings","",""
"","","","","","choice_trial_setup","html-keyboard-response","144","771703","0.0-5.0-0.30","141","1","2025-04-14 14:12:52","bb671e3ae32f654b8954ea4c4635f915","","Mozilla/5.0 (Windows NT 10.0; Win64; x64; rv:133.0) Gecko/20100101 Firefox/133.0","","Firefox","133.0","Windows","10.0","https://hz8g1ckzuq.cognition.run/","en-US,en;q=0.5","p2y8xxmdqbmvcrl","35","[""Black or African-American""]","No","Male","838493","null","","<p></p>","null","choice","tcd","attraction_2","2","microwave ovens","null","null","null","null","null","null","1","","","","","","","","","",""
"","","","","","choice_trial","survey-html-form","145","774700","0.0-5.0-1.30","141","1","2025-04-14 14:12:52","bb671e3ae32f654b8954ea4c4635f915","","Mozilla/5.0 (Windows NT 10.0; Win64; x64; rv:133.0) Gecko/20100101 Firefox/133.0","","Firefox","133.0","Windows","10.0","https://hz8g1ckzuq.cognition.run/","en-US,en;q=0.5","p2y8xxmdqbmvcrl","35","[""Black or African-American""]","No","Male","838493","2983","","","{""product_choice"":""B""}","choice","tcd","attraction_2","2","microwave ovens","null","null","null","null","null","null","1","50","60","40","60","50","60","Warranty","Cooking power","",""
"","","","","","choice_trial_setup","html-keyboard-response","146","775010","0.0-5.0-0.31","141","1","2025-04-14 14:12:52","bb671e3ae32f654b8954ea4c4635f915","","Mozilla/5.0 (Windows NT 10.0; Win64; x64; rv:133.0) Gecko/20100101 Firefox/133.0","","Firefox","133.0","Windows","10.0","https://hz8g1ckzuq.cognition.run/","en-US,en;q=0.5","p2y8xxmdqbmvcrl","35","[""Black or African-American""]","No","Male","838493","null","","<p></p>","null","choice","ctd","repulsion_2","2","laptops","null","null","null","null","null","null","2","","","","","","","","","",""
"","","","","","choice_trial","survey-html-form","147","777796","0.0-5.0-1.31","141","1","2025-04-14 14:12:52","bb671e3ae32f654b8954ea4c4635f915","","Mozilla/5.0 (Windows NT 10.0; Win64; x64; rv:133.0) Gecko/20100101 Firefox/133.0","","Firefox","133.0","Windows","10.0","https://hz8g1ckzuq.cognition.run/","en-US,en;q=0.5","p2y8xxmdqbmvcrl","35","[""Black or African-American""]","No","Male","838493","2780","","","{""product_choice"":""B""}","choice","ctd","repulsion_2","2","laptops","null","null","null","null","null","null","2","30","40","20","100","90","100","Processing speed","Memory (RAM)","",""
"","","","","","choice_trial_setup","html-keyboard-response","148","778105","0.0-5.0-0.32","141","1","2025-04-14 14:12:52","bb671e3ae32f654b8954ea4c4635f915","","Mozilla/5.0 (Windows NT 10.0; Win64; x64; rv:133.0) Gecko/20100101 Firefox/133.0","","Firefox","133.0","Windows","10.0","https://hz8g1ckzuq.cognition.run/","en-US,en;q=0.5","p2y8xxmdqbmvcrl","35","[""Black or African-American""]","No","Male","838493","null","","<p></p>","null","choice","dct","repulsion_1","1","washing machines","null","null","null","null","null","null","2","","","","","","","","","",""
"","","","","","choice_trial","survey-html-form","149","783325","0.0-5.0-1.32","141","1","2025-04-14 14:12:52","bb671e3ae32f654b8954ea4c4635f915","","Mozilla/5.0 (Windows NT 10.0; Win64; x64; rv:133.0) Gecko/20100101 Firefox/133.0","","Firefox","133.0","Windows","10.0","https://hz8g1ckzuq.cognition.run/","en-US,en;q=0.5","p2y8xxmdqbmvcrl","35","[""Black or African-American""]","No","Male","838493","5213","","","{""product_choice"":""B""}","choice","dct","repulsion_1","1","washing machines","null","null","null","null","null","null","2","100","90","100","30","40","25","Average lifespan","Energy savings","",""
"","","","","","choice_trial_setup","html-keyboard-response","150","783645","0.0-5.0-0.33","141","1","2025-04-14 14:12:52","bb671e3ae32f654b8954ea4c4635f915","","Mozilla/5.0 (Windows NT 10.0; Win64; x64; rv:133.0) Gecko/20100101 Firefox/133.0","","Firefox","133.0","Windows","10.0","https://hz8g1ckzuq.cognition.run/","en-US,en;q=0.5","p2y8xxmdqbmvcrl","35","[""Black or African-American""]","No","Male","838493","null","","<p></p>","null","choice","dct","repulsion_1","2","televisions","null","null","null","null","null","null","1","","","","","","","","","",""
"","","","","","choice_trial","survey-html-form","151","787789","0.0-5.0-1.33","141","1","2025-04-14 14:12:52","bb671e3ae32f654b8954ea4c4635f915","","Mozilla/5.0 (Windows NT 10.0; Win64; x64; rv:133.0) Gecko/20100101 Firefox/133.0","","Firefox","133.0","Windows","10.0","https://hz8g1ckzuq.cognition.run/","en-US,en;q=0.5","p2y8xxmdqbmvcrl","35","[""Black or African-American""]","No","Male","838493","4133","","","{""product_choice"":""B""}","choice","dct","repulsion_1","2","televisions","null","null","null","null","null","null","1","30","40","25","100","90","100","Screen size","Average lifespan","",""
"","","","","","choice_trial_setup","html-keyboard-response","152","788105","0.0-5.0-0.34","141","1","2025-04-14 14:12:52","bb671e3ae32f654b8954ea4c4635f915","","Mozilla/5.0 (Windows NT 10.0; Win64; x64; rv:133.0) Gecko/20100101 Firefox/133.0","","Firefox","133.0","Windows","10.0","https://hz8g1ckzuq.cognition.run/","en-US,en;q=0.5","p2y8xxmdqbmvcrl","35","[""Black or African-American""]","No","Male","838493","null","","<p></p>","null","choice","cdt","repulsion_2","1","laptops","null","null","null","null","null","null","2","","","","","","","","","",""
"","","","","","choice_trial","survey-html-form","153","792491","0.0-5.0-1.34","141","1","2025-04-14 14:12:52","bb671e3ae32f654b8954ea4c4635f915","","Mozilla/5.0 (Windows NT 10.0; Win64; x64; rv:133.0) Gecko/20100101 Firefox/133.0","","Firefox","133.0","Windows","10.0","https://hz8g1ckzuq.cognition.run/","en-US,en;q=0.5","p2y8xxmdqbmvcrl","35","[""Black or African-American""]","No","Male","838493","4377","","","{""product_choice"":""A""}","choice","cdt","repulsion_2","1","laptops","null","null","null","null","null","null","2","100","90","100","30","40","20","Processing speed","Memory (RAM)","",""
"","","","","","choice_trial_setup","html-keyboard-response","154","792804","0.0-5.0-0.35","141","1","2025-04-14 14:12:52","bb671e3ae32f654b8954ea4c4635f915","","Mozilla/5.0 (Windows NT 10.0; Win64; x64; rv:133.0) Gecko/20100101 Firefox/133.0","","Firefox","133.0","Windows","10.0","https://hz8g1ckzuq.cognition.run/","en-US,en;q=0.5","p2y8xxmdqbmvcrl","35","[""Black or African-American""]","No","Male","838493","null","","<p></p>","null","choice","bww","catch","null","washing machines","85","80","50","50","40","15","1","","","","","","","","","",""
"","","","","","choice_trial","survey-html-form","155","795740","0.0-5.0-1.35","141","1","2025-04-14 14:12:52","bb671e3ae32f654b8954ea4c4635f915","","Mozilla/5.0 (Windows NT 10.0; Win64; x64; rv:133.0) Gecko/20100101 Firefox/133.0","","Firefox","133.0","Windows","10.0","https://hz8g1ckzuq.cognition.run/","en-US,en;q=0.5","p2y8xxmdqbmvcrl","35","[""Black or African-American""]","No","Male","838493","2918","","","{""product_choice"":""A""}","choice","bww","catch","null","washing machines","85","80","50","50","40","15","1","null","null","null","null","null","null","Average lifespan","Energy savings","",""
"","","","","","choice_trial_setup","html-keyboard-response","156","796054","0.0-5.0-0.36","141","1","2025-04-14 14:12:52","bb671e3ae32f654b8954ea4c4635f915","","Mozilla/5.0 (Windows NT 10.0; Win64; x64; rv:133.0) Gecko/20100101 Firefox/133.0","","Firefox","133.0","Windows","10.0","https://hz8g1ckzuq.cognition.run/","en-US,en;q=0.5","p2y8xxmdqbmvcrl","35","[""Black or African-American""]","No","Male","838493","null","","<p></p>","null","choice","dct","attraction_2","2","washing machines","null","null","null","null","null","null","2","","","","","","","","","",""
"","","","","","choice_trial","survey-html-form","157","799491","0.0-5.0-1.36","141","1","2025-04-14 14:12:52","bb671e3ae32f654b8954ea4c4635f915","","Mozilla/5.0 (Windows NT 10.0; Win64; x64; rv:133.0) Gecko/20100101 Firefox/133.0","","Firefox","133.0","Windows","10.0","https://hz8g1ckzuq.cognition.run/","en-US,en;q=0.5","p2y8xxmdqbmvcrl","35","[""Black or African-American""]","No","Male","838493","3425","","","{""product_choice"":""C""}","choice","dct","attraction_2","2","washing machines","null","null","null","null","null","null","2","50","60","40","60","50","60","Average lifespan","Energy savings","",""
"","","","","","choice_trial_setup","html-keyboard-response","158","799811","0.0-5.0-0.37","141","1","2025-04-14 14:12:52","bb671e3ae32f654b8954ea4c4635f915","","Mozilla/5.0 (Windows NT 10.0; Win64; x64; rv:133.0) Gecko/20100101 Firefox/133.0","","Firefox","133.0","Windows","10.0","https://hz8g1ckzuq.cognition.run/","en-US,en;q=0.5","p2y8xxmdqbmvcrl","35","[""Black or African-American""]","No","Male","838493","null","","<p></p>","null","choice","dct","attraction_2","2","televisions","null","null","null","null","null","null","1","","","","","","","","","",""
"","","","","","choice_trial","survey-html-form","159","804396","0.0-5.0-1.37","141","1","2025-04-14 14:12:52","bb671e3ae32f654b8954ea4c4635f915","","Mozilla/5.0 (Windows NT 10.0; Win64; x64; rv:133.0) Gecko/20100101 Firefox/133.0","","Firefox","133.0","Windows","10.0","https://hz8g1ckzuq.cognition.run/","en-US,en;q=0.5","p2y8xxmdqbmvcrl","35","[""Black or African-American""]","No","Male","838493","4574","","","{""product_choice"":""B""}","choice","dct","attraction_2","2","televisions","null","null","null","null","null","null","1","50","60","40","60","50","60","Screen size","Average lifespan","",""
"","","","","","choice_trial_setup","html-keyboard-response","160","804711","0.0-5.0-0.38","141","1","2025-04-14 14:12:52","bb671e3ae32f654b8954ea4c4635f915","","Mozilla/5.0 (Windows NT 10.0; Win64; x64; rv:133.0) Gecko/20100101 Firefox/133.0","","Firefox","133.0","Windows","10.0","https://hz8g1ckzuq.cognition.run/","en-US,en;q=0.5","p2y8xxmdqbmvcrl","35","[""Black or African-American""]","No","Male","838493","null","","<p></p>","null","choice","tdc","repulsion_1","1","televisions","null","null","null","null","null","null","1","","","","","","","","","",""
"","","","","","choice_trial","survey-html-form","161","807452","0.0-5.0-1.38","141","1","2025-04-14 14:12:52","bb671e3ae32f654b8954ea4c4635f915","","Mozilla/5.0 (Windows NT 10.0; Win64; x64; rv:133.0) Gecko/20100101 Firefox/133.0","","Firefox","133.0","Windows","10.0","https://hz8g1ckzuq.cognition.run/","en-US,en;q=0.5","p2y8xxmdqbmvcrl","35","[""Black or African-American""]","No","Male","838493","2735","","","{""product_choice"":""A""}","choice","tdc","repulsion_1","1","televisions","null","null","null","null","null","null","1","100","90","100","30","40","25","Screen size","Average lifespan","",""
"","","","","","choice_trial_setup","html-keyboard-response","162","807768","0.0-5.0-0.39","141","1","2025-04-14 14:12:52","bb671e3ae32f654b8954ea4c4635f915","","Mozilla/5.0 (Windows NT 10.0; Win64; x64; rv:133.0) Gecko/20100101 Firefox/133.0","","Firefox","133.0","Windows","10.0","https://hz8g1ckzuq.cognition.run/","en-US,en;q=0.5","p2y8xxmdqbmvcrl","35","[""Black or African-American""]","No","Male","838493","null","","<p></p>","null","choice","wwb","catch","null","televisions","85","80","15","5","10","35","2","","","","","","","","","",""
"","","","","","choice_trial","survey-html-form","163","811972","0.0-5.0-1.39","141","1","2025-04-14 14:12:52","bb671e3ae32f654b8954ea4c4635f915","","Mozilla/5.0 (Windows NT 10.0; Win64; x64; rv:133.0) Gecko/20100101 Firefox/133.0","","Firefox","133.0","Windows","10.0","https://hz8g1ckzuq.cognition.run/","en-US,en;q=0.5","p2y8xxmdqbmvcrl","35","[""Black or African-American""]","No","Male","838493","4199","","","{""product_choice"":""C""}","choice","wwb","catch","null","televisions","85","80","15","5","10","35","2","null","null","null","null","null","null","Screen size","Average lifespan","",""
"","","","","","","html-button-response","164","813924","0.0-6.0","141","1","2025-04-14 14:12:52","bb671e3ae32f654b8954ea4c4635f915","","Mozilla/5.0 (Windows NT 10.0; Win64; x64; rv:133.0) Gecko/20100101 Firefox/133.0","","Firefox","133.0","Windows","10.0","https://hz8g1ckzuq.cognition.run/","en-US,en;q=0.5","p2y8xxmdqbmvcrl","35","[""Black or African-American""]","No","Male","838493","1947","","<p> <b>Thank you for your patience!</b></p><p>  The study will be done after completing a brief form. </p>","0","","","","","","","","","","","","","","","","","","","","","",""
"","","","","","","survey-text","165","831268","0.0-7.0","141","1","2025-04-14 14:12:52","bb671e3ae32f654b8954ea4c4635f915","","Mozilla/5.0 (Windows NT 10.0; Win64; x64; rv:133.0) Gecko/20100101 Firefox/133.0","","Firefox","133.0","Windows","10.0","https://hz8g1ckzuq.cognition.run/","en-US,en;q=0.5","p2y8xxmdqbmvcrl","35","[""Black or African-American""]","No","Male","838493","17328","","","{""Q0"":""I was careful and patient with the study""}","","","","","","","","","","","","","","","","","","","","","I was careful and patient with the study",""
"","","","","","","survey-text","166","833573","0.0-8.0","141","1","2025-04-14 14:12:52","bb671e3ae32f654b8954ea4c4635f915","","Mozilla/5.0 (Windows NT 10.0; Win64; x64; rv:133.0) Gecko/20100101 Firefox/133.0","","Firefox","133.0","Windows","10.0","https://hz8g1ckzuq.cognition.run/","en-US,en;q=0.5","p2y8xxmdqbmvcrl","35","[""Black or African-American""]","No","Male","838493","2298","","","{""Q0"":""35""}","","","","","","","","","","","","","","","","","","","","","",""
