"success","timeout","failed_images","failed_audio","failed_video","screen_id","trial_type","trial_index","time_elapsed","internal_node_id","run_id","condition","recorded_at","source_code_version","ip","user_agent","device","browser","browser_version","platform","platform_version","referer","accept_language","ppt_id","age","race","ethnicity","gender","exp_duration","rt","view_history","stimulus","response","phase","order","effect","t_high","category","d1_best","d2_best","d1_worst1","d2_worst1","d1_worst2","d2_worst2","first_dim","d1_t","d1_c","d1_d","d2_t","d2_c","d2_d","d1_name","d2_name","strategy_response","question_order"
"true","false","[]","[]","[]","img preload","preload","0","3611","0.0-0.0","142","1","2025-04-14 14:13:21","bb671e3ae32f654b8954ea4c4635f915","","Mozilla/5.0 (Macintosh; Intel Mac OS X 10_15_7) AppleWebKit/537.36 (KHTML, like Gecko) Chrome/134.0.0.0 Safari/537.36","Macintosh","Chrome","134.0.0.0","OS X","10_15_7","https://hz8g1ckzuq.cognition.run/","en-US,en;q=0.9","l6p1eko58psoh13","56","[""White""]","No","Male","2386307","","","","","","","","","","","","","","","","","","","","","","","","","",""
"true","","","","","","fullscreen","1","15607","0.0-1.0","142","1","2025-04-14 14:13:21","bb671e3ae32f654b8954ea4c4635f915","","Mozilla/5.0 (Macintosh; Intel Mac OS X 10_15_7) AppleWebKit/537.36 (KHTML, like Gecko) Chrome/134.0.0.0 Safari/537.36","Macintosh","Chrome","134.0.0.0","OS X","10_15_7","https://hz8g1ckzuq.cognition.run/","en-US,en;q=0.9","l6p1eko58psoh13","56","[""White""]","No","Male","2386307","10991","","","","","","","","","","","","","","","","","","","","","","","","",""
"","","","","","","instructions","2","361967","0.0-2.0","142","1","2025-04-14 14:13:21","bb671e3ae32f654b8954ea4c4635f915","","Mozilla/5.0 (Macintosh; Intel Mac OS X 10_15_7) AppleWebKit/537.36 (KHTML, like Gecko) Chrome/134.0.0.0 Safari/537.36","Macintosh","Chrome","134.0.0.0","OS X","10_15_7","https://hz8g1ckzuq.cognition.run/","en-US,en;q=0.9","l6p1eko58psoh13","56","[""White""]","No","Male","2386307","346364","[{""page_index"":0,""viewing_time"":4562},{""page_index"":1,""viewing_time"":9477},{""page_index"":2,""viewing_time"":94901},{""page_index"":3,""viewing_time"":7528},{""page_index"":4,""viewing_time"":21400},{""page_index"":5,""viewing_time"":18539},{""page_index"":6,""viewing_time"":85704},{""page_index"":7,""viewing_time"":57488},{""page_index"":8,""viewing_time"":37195},{""page_index"":9,""viewing_time"":9570}]","","","","","","","","","","","","","","","","","","","","","","","",""
"","","","","","rating_trial_setup","html-keyboard-response","3","362284","0.0-3.0-0.0","142","1","2025-04-14 14:13:21","bb671e3ae32f654b8954ea4c4635f915","","Mozilla/5.0 (Macintosh; Intel Mac OS X 10_15_7) AppleWebKit/537.36 (KHTML, like Gecko) Chrome/134.0.0.0 Safari/537.36","Macintosh","Chrome","134.0.0.0","OS X","10_15_7","https://hz8g1ckzuq.cognition.run/","en-US,en;q=0.9","l6p1eko58psoh13","56","[""White""]","No","Male","2386307","null","","<p></p>","null","rating","ctd","repulsion_2","2","laptops","null","null","null","null","null","null","2","","","","","","","","","",""
"","","","","","rating_trial","survey-html-form","4","420957","0.0-3.0-1.0","142","1","2025-04-14 14:13:21","bb671e3ae32f654b8954ea4c4635f915","","Mozilla/5.0 (Macintosh; Intel Mac OS X 10_15_7) AppleWebKit/537.36 (KHTML, like Gecko) Chrome/134.0.0.0 Safari/537.36","Macintosh","Chrome","134.0.0.0","OS X","10_15_7","https://hz8g1ckzuq.cognition.run/","en-US,en;q=0.9","l6p1eko58psoh13","56","[""White""]","No","Male","2386307","58661","","","{""price_1"":""500"",""price_2"":""450"",""price_3"":""400""}","rating","ctd","repulsion_2","2","laptops","null","null","null","null","null","null","2","30","40","20","100","90","100","Processing speed","Memory (RAM)","",""
"","","","","","rating_trial_setup","html-keyboard-response","5","421261","0.0-3.0-0.1","142","1","2025-04-14 14:13:21","bb671e3ae32f654b8954ea4c4635f915","","Mozilla/5.0 (Macintosh; Intel Mac OS X 10_15_7) AppleWebKit/537.36 (KHTML, like Gecko) Chrome/134.0.0.0 Safari/537.36","Macintosh","Chrome","134.0.0.0","OS X","10_15_7","https://hz8g1ckzuq.cognition.run/","en-US,en;q=0.9","l6p1eko58psoh13","56","[""White""]","No","Male","2386307","null","","<p></p>","null","rating","ctd","repulsion_1","2","televisions","null","null","null","null","null","null","2","","","","","","","","","",""
"","","","","","rating_trial","survey-html-form","6","478482","0.0-3.0-1.1","142","1","2025-04-14 14:13:21","bb671e3ae32f654b8954ea4c4635f915","","Mozilla/5.0 (Macintosh; Intel Mac OS X 10_15_7) AppleWebKit/537.36 (KHTML, like Gecko) Chrome/134.0.0.0 Safari/537.36","Macintosh","Chrome","134.0.0.0","OS X","10_15_7","https://hz8g1ckzuq.cognition.run/","en-US,en;q=0.9","l6p1eko58psoh13","56","[""White""]","No","Male","2386307","57219","","","{""price_1"":""300"",""price_2"":""300"",""price_3"":""200""}","rating","ctd","repulsion_1","2","televisions","null","null","null","null","null","null","2","30","40","25","100","90","100","Screen size","Average lifespan","",""
"","","","","","rating_trial_setup","html-keyboard-response","7","478786","0.0-3.0-0.2","142","1","2025-04-14 14:13:21","bb671e3ae32f654b8954ea4c4635f915","","Mozilla/5.0 (Macintosh; Intel Mac OS X 10_15_7) AppleWebKit/537.36 (KHTML, like Gecko) Chrome/134.0.0.0 Safari/537.36","Macintosh","Chrome","134.0.0.0","OS X","10_15_7","https://hz8g1ckzuq.cognition.run/","en-US,en;q=0.9","l6p1eko58psoh13","56","[""White""]","No","Male","2386307","null","","<p></p>","null","rating","dct","repulsion_2","2","televisions","null","null","null","null","null","null","1","","","","","","","","","",""
"","","","","","rating_trial","survey-html-form","8","540610","0.0-3.0-1.2","142","1","2025-04-14 14:13:21","bb671e3ae32f654b8954ea4c4635f915","","Mozilla/5.0 (Macintosh; Intel Mac OS X 10_15_7) AppleWebKit/537.36 (KHTML, like Gecko) Chrome/134.0.0.0 Safari/537.36","Macintosh","Chrome","134.0.0.0","OS X","10_15_7","https://hz8g1ckzuq.cognition.run/","en-US,en;q=0.9","l6p1eko58psoh13","56","[""White""]","No","Male","2386307","61762","","","{""price_1"":""250"",""price_2"":""300"",""price_3"":""300""}","rating","dct","repulsion_2","2","televisions","null","null","null","null","null","null","1","30","40","20","100","90","100","Screen size","Average lifespan","",""
"","","","","","rating_trial_setup","html-keyboard-response","9","540915","0.0-3.0-0.3","142","1","2025-04-14 14:13:21","bb671e3ae32f654b8954ea4c4635f915","","Mozilla/5.0 (Macintosh; Intel Mac OS X 10_15_7) AppleWebKit/537.36 (KHTML, like Gecko) Chrome/134.0.0.0 Safari/537.36","Macintosh","Chrome","134.0.0.0","OS X","10_15_7","https://hz8g1ckzuq.cognition.run/","en-US,en;q=0.9","l6p1eko58psoh13","56","[""White""]","No","Male","2386307","null","","<p></p>","null","rating","bww","catch","null","washing machines","70","65","10","50","10","15","1","","","","","","","","","",""
"","","","","","rating_trial","survey-html-form","10","597830","0.0-3.0-1.3","142","1","2025-04-14 14:13:21","bb671e3ae32f654b8954ea4c4635f915","","Mozilla/5.0 (Macintosh; Intel Mac OS X 10_15_7) AppleWebKit/537.36 (KHTML, like Gecko) Chrome/134.0.0.0 Safari/537.36","Macintosh","Chrome","134.0.0.0","OS X","10_15_7","https://hz8g1ckzuq.cognition.run/","en-US,en;q=0.9","l6p1eko58psoh13","56","[""White""]","No","Male","2386307","56912","","","{""price_1"":""450"",""price_2"":""200"",""price_3"":""100""}","rating","bww","catch","null","washing machines","70","65","10","50","10","15","1","null","null","null","null","null","null","Average lifespan","Energy savings","",""
"","","","","","rating_trial_setup","html-keyboard-response","11","598134","0.0-3.0-0.4","142","1","2025-04-14 14:13:21","bb671e3ae32f654b8954ea4c4635f915","","Mozilla/5.0 (Macintosh; Intel Mac OS X 10_15_7) AppleWebKit/537.36 (KHTML, like Gecko) Chrome/134.0.0.0 Safari/537.36","Macintosh","Chrome","134.0.0.0","OS X","10_15_7","https://hz8g1ckzuq.cognition.run/","en-US,en;q=0.9","l6p1eko58psoh13","56","[""White""]","No","Male","2386307","null","","<p></p>","null","rating","tdc","repulsion_2","1","televisions","null","null","null","null","null","null","1","","","","","","","","","",""
"","","","","","rating_trial","survey-html-form","12","625329","0.0-3.0-1.4","142","1","2025-04-14 14:13:21","bb671e3ae32f654b8954ea4c4635f915","","Mozilla/5.0 (Macintosh; Intel Mac OS X 10_15_7) AppleWebKit/537.36 (KHTML, like Gecko) Chrome/134.0.0.0 Safari/537.36","Macintosh","Chrome","134.0.0.0","OS X","10_15_7","https://hz8g1ckzuq.cognition.run/","en-US,en;q=0.9","l6p1eko58psoh13","56","[""White""]","No","Male","2386307","27193","","","{""price_1"":""300"",""price_2"":""250"",""price_3"":""300""}","rating","tdc","repulsion_2","1","televisions","null","null","null","null","null","null","1","100","90","100","30","40","20","Screen size","Average lifespan","",""
"","","","","","rating_trial_setup","html-keyboard-response","13","625632","0.0-3.0-0.5","142","1","2025-04-14 14:13:21","bb671e3ae32f654b8954ea4c4635f915","","Mozilla/5.0 (Macintosh; Intel Mac OS X 10_15_7) AppleWebKit/537.36 (KHTML, like Gecko) Chrome/134.0.0.0 Safari/537.36","Macintosh","Chrome","134.0.0.0","OS X","10_15_7","https://hz8g1ckzuq.cognition.run/","en-US,en;q=0.9","l6p1eko58psoh13","56","[""White""]","No","Male","2386307","null","","<p></p>","null","rating","cdt","attraction_2","2","microwave ovens","null","null","null","null","null","null","1","","","","","","","","","",""
"","","","","","rating_trial","survey-html-form","14","713324","0.0-3.0-1.5","142","1","2025-04-14 14:13:21","bb671e3ae32f654b8954ea4c4635f915","","Mozilla/5.0 (Macintosh; Intel Mac OS X 10_15_7) AppleWebKit/537.36 (KHTML, like Gecko) Chrome/134.0.0.0 Safari/537.36","Macintosh","Chrome","134.0.0.0","OS X","10_15_7","https://hz8g1ckzuq.cognition.run/","en-US,en;q=0.9","l6p1eko58psoh13","56","[""White""]","No","Male","2386307","87690","","","{""price_1"":""180"",""price_2"":""200"",""price_3"":""220""}","rating","cdt","attraction_2","2","microwave ovens","null","null","null","null","null","null","1","50","60","40","60","50","60","Warranty","Cooking power","",""
"","","","","","rating_trial_setup","html-keyboard-response","15","713626","0.0-3.0-0.6","142","1","2025-04-14 14:13:21","bb671e3ae32f654b8954ea4c4635f915","","Mozilla/5.0 (Macintosh; Intel Mac OS X 10_15_7) AppleWebKit/537.36 (KHTML, like Gecko) Chrome/134.0.0.0 Safari/537.36","Macintosh","Chrome","134.0.0.0","OS X","10_15_7","https://hz8g1ckzuq.cognition.run/","en-US,en;q=0.9","l6p1eko58psoh13","56","[""White""]","No","Male","2386307","null","","<p></p>","null","rating","wwb","catch","null","microwave ovens","55","55","5","30","5","15","2","","","","","","","","","",""
"","","","","","rating_trial","survey-html-form","16","771081","0.0-3.0-1.6","142","1","2025-04-14 14:13:21","bb671e3ae32f654b8954ea4c4635f915","","Mozilla/5.0 (Macintosh; Intel Mac OS X 10_15_7) AppleWebKit/537.36 (KHTML, like Gecko) Chrome/134.0.0.0 Safari/537.36","Macintosh","Chrome","134.0.0.0","OS X","10_15_7","https://hz8g1ckzuq.cognition.run/","en-US,en;q=0.9","l6p1eko58psoh13","56","[""White""]","No","Male","2386307","57453","","","{""price_1"":""120"",""price_2"":""80"",""price_3"":""200""}","rating","wwb","catch","null","microwave ovens","55","55","5","30","5","15","2","null","null","null","null","null","null","Warranty","Cooking power","",""
"","","","","","rating_trial_setup","html-keyboard-response","17","771384","0.0-3.0-0.7","142","1","2025-04-14 14:13:21","bb671e3ae32f654b8954ea4c4635f915","","Mozilla/5.0 (Macintosh; Intel Mac OS X 10_15_7) AppleWebKit/537.36 (KHTML, like Gecko) Chrome/134.0.0.0 Safari/537.36","Macintosh","Chrome","134.0.0.0","OS X","10_15_7","https://hz8g1ckzuq.cognition.run/","en-US,en;q=0.9","l6p1eko58psoh13","56","[""White""]","No","Male","2386307","null","","<p></p>","null","rating","bww","catch","null","microwave ovens","50","65","35","35","35","45","2","","","","","","","","","",""
"","","","","","rating_trial","survey-html-form","18","808371","0.0-3.0-1.7","142","1","2025-04-14 14:13:21","bb671e3ae32f654b8954ea4c4635f915","","Mozilla/5.0 (Macintosh; Intel Mac OS X 10_15_7) AppleWebKit/537.36 (KHTML, like Gecko) Chrome/134.0.0.0 Safari/537.36","Macintosh","Chrome","134.0.0.0","OS X","10_15_7","https://hz8g1ckzuq.cognition.run/","en-US,en;q=0.9","l6p1eko58psoh13","56","[""White""]","No","Male","2386307","36985","","","{""price_1"":""250"",""price_2"":""180"",""price_3"":""200""}","rating","bww","catch","null","microwave ovens","50","65","35","35","35","45","2","null","null","null","null","null","null","Warranty","Cooking power","",""
"","","","","","rating_trial_setup","html-keyboard-response","19","808674","0.0-3.0-0.8","142","1","2025-04-14 14:13:21","bb671e3ae32f654b8954ea4c4635f915","","Mozilla/5.0 (Macintosh; Intel Mac OS X 10_15_7) AppleWebKit/537.36 (KHTML, like Gecko) Chrome/134.0.0.0 Safari/537.36","Macintosh","Chrome","134.0.0.0","OS X","10_15_7","https://hz8g1ckzuq.cognition.run/","en-US,en;q=0.9","l6p1eko58psoh13","56","[""White""]","No","Male","2386307","null","","<p></p>","null","rating","tcd","repulsion_1","1","laptops","null","null","null","null","null","null","2","","","","","","","","","",""
"","","","","","rating_trial","survey-html-form","20","864433","0.0-3.0-1.8","142","1","2025-04-14 14:13:21","bb671e3ae32f654b8954ea4c4635f915","","Mozilla/5.0 (Macintosh; Intel Mac OS X 10_15_7) AppleWebKit/537.36 (KHTML, like Gecko) Chrome/134.0.0.0 Safari/537.36","Macintosh","Chrome","134.0.0.0","OS X","10_15_7","https://hz8g1ckzuq.cognition.run/","en-US,en;q=0.9","l6p1eko58psoh13","56","[""White""]","No","Male","2386307","55756","","","{""price_1"":""300"",""price_2"":""300"",""price_3"":""280""}","rating","tcd","repulsion_1","1","laptops","null","null","null","null","null","null","2","100","90","100","30","40","25","Processing speed","Memory (RAM)","",""
"","","","","","rating_trial_setup","html-keyboard-response","21","864737","0.0-3.0-0.9","142","1","2025-04-14 14:13:21","bb671e3ae32f654b8954ea4c4635f915","","Mozilla/5.0 (Macintosh; Intel Mac OS X 10_15_7) AppleWebKit/537.36 (KHTML, like Gecko) Chrome/134.0.0.0 Safari/537.36","Macintosh","Chrome","134.0.0.0","OS X","10_15_7","https://hz8g1ckzuq.cognition.run/","en-US,en;q=0.9","l6p1eko58psoh13","56","[""White""]","No","Male","2386307","null","","<p></p>","null","rating","ctd","attraction_2","2","laptops","null","null","null","null","null","null","1","","","","","","","","","",""
"","","","","","rating_trial","survey-html-form","22","907783","0.0-3.0-1.9","142","1","2025-04-14 14:13:21","bb671e3ae32f654b8954ea4c4635f915","","Mozilla/5.0 (Macintosh; Intel Mac OS X 10_15_7) AppleWebKit/537.36 (KHTML, like Gecko) Chrome/134.0.0.0 Safari/537.36","Macintosh","Chrome","134.0.0.0","OS X","10_15_7","https://hz8g1ckzuq.cognition.run/","en-US,en;q=0.9","l6p1eko58psoh13","56","[""White""]","No","Male","2386307","43042","","","{""price_1"":""350"",""price_2"":""350"",""price_3"":""320""}","rating","ctd","attraction_2","2","laptops","null","null","null","null","null","null","1","50","60","40","60","50","60","Processing speed","Memory (RAM)","",""
"","","","","","rating_trial_setup","html-keyboard-response","23","908089","0.0-3.0-0.10","142","1","2025-04-14 14:13:21","bb671e3ae32f654b8954ea4c4635f915","","Mozilla/5.0 (Macintosh; Intel Mac OS X 10_15_7) AppleWebKit/537.36 (KHTML, like Gecko) Chrome/134.0.0.0 Safari/537.36","Macintosh","Chrome","134.0.0.0","OS X","10_15_7","https://hz8g1ckzuq.cognition.run/","en-US,en;q=0.9","l6p1eko58psoh13","56","[""White""]","No","Male","2386307","null","","<p></p>","null","rating","cdt","attraction_2","2","washing machines","null","null","null","null","null","null","2","","","","","","","","","",""
"","","","","","rating_trial","survey-html-form","24","964125","0.0-3.0-1.10","142","1","2025-04-14 14:13:21","bb671e3ae32f654b8954ea4c4635f915","","Mozilla/5.0 (Macintosh; Intel Mac OS X 10_15_7) AppleWebKit/537.36 (KHTML, like Gecko) Chrome/134.0.0.0 Safari/537.36","Macintosh","Chrome","134.0.0.0","OS X","10_15_7","https://hz8g1ckzuq.cognition.run/","en-US,en;q=0.9","l6p1eko58psoh13","56","[""White""]","No","Male","2386307","56034","","","{""price_1"":""400"",""price_2"":""380"",""price_3"":""400""}","rating","cdt","attraction_2","2","washing machines","null","null","null","null","null","null","2","50","60","40","60","50","60","Average lifespan","Energy savings","",""
"","","","","","rating_trial_setup","html-keyboard-response","25","964429","0.0-3.0-0.11","142","1","2025-04-14 14:13:21","bb671e3ae32f654b8954ea4c4635f915","","Mozilla/5.0 (Macintosh; Intel Mac OS X 10_15_7) AppleWebKit/537.36 (KHTML, like Gecko) Chrome/134.0.0.0 Safari/537.36","Macintosh","Chrome","134.0.0.0","OS X","10_15_7","https://hz8g1ckzuq.cognition.run/","en-US,en;q=0.9","l6p1eko58psoh13","56","[""White""]","No","Male","2386307","null","","<p></p>","null","rating","cdt","repulsion_2","1","microwave ovens","null","null","null","null","null","null","1","","","","","","","","","",""
"","","","","","rating_trial","survey-html-form","26","997974","0.0-3.0-1.11","142","1","2025-04-14 14:13:21","bb671e3ae32f654b8954ea4c4635f915","","Mozilla/5.0 (Macintosh; Intel Mac OS X 10_15_7) AppleWebKit/537.36 (KHTML, like Gecko) Chrome/134.0.0.0 Safari/537.36","Macintosh","Chrome","134.0.0.0","OS X","10_15_7","https://hz8g1ckzuq.cognition.run/","en-US,en;q=0.9","l6p1eko58psoh13","56","[""White""]","No","Male","2386307","33542","","","{""price_1"":""180"",""price_2"":""160"",""price_3"":""180""}","rating","cdt","repulsion_2","1","microwave ovens","null","null","null","null","null","null","1","100","90","100","30","40","20","Warranty","Cooking power","",""
"","","","","","rating_trial_setup","html-keyboard-response","27","998277","0.0-3.0-0.12","142","1","2025-04-14 14:13:21","bb671e3ae32f654b8954ea4c4635f915","","Mozilla/5.0 (Macintosh; Intel Mac OS X 10_15_7) AppleWebKit/537.36 (KHTML, like Gecko) Chrome/134.0.0.0 Safari/537.36","Macintosh","Chrome","134.0.0.0","OS X","10_15_7","https://hz8g1ckzuq.cognition.run/","en-US,en;q=0.9","l6p1eko58psoh13","56","[""White""]","No","Male","2386307","null","","<p></p>","null","rating","tdc","attraction_2","2","televisions","null","null","null","null","null","null","2","","","","","","","","","",""
"","","","","","rating_trial","survey-html-form","28","1069724","0.0-3.0-1.12","142","1","2025-04-14 14:13:21","bb671e3ae32f654b8954ea4c4635f915","","Mozilla/5.0 (Macintosh; Intel Mac OS X 10_15_7) AppleWebKit/537.36 (KHTML, like Gecko) Chrome/134.0.0.0 Safari/537.36","Macintosh","Chrome","134.0.0.0","OS X","10_15_7","https://hz8g1ckzuq.cognition.run/","en-US,en;q=0.9","l6p1eko58psoh13","56","[""White""]","No","Male","2386307","71445","","","{""price_1"":""300"",""price_2"":""280"",""price_3"":""300""}","rating","tdc","attraction_2","2","televisions","null","null","null","null","null","null","2","50","60","40","60","50","60","Screen size","Average lifespan","",""
"","","","","","rating_trial_setup","html-keyboard-response","29","1070027","0.0-3.0-0.13","142","1","2025-04-14 14:13:21","bb671e3ae32f654b8954ea4c4635f915","","Mozilla/5.0 (Macintosh; Intel Mac OS X 10_15_7) AppleWebKit/537.36 (KHTML, like Gecko) Chrome/134.0.0.0 Safari/537.36","Macintosh","Chrome","134.0.0.0","OS X","10_15_7","https://hz8g1ckzuq.cognition.run/","en-US,en;q=0.9","l6p1eko58psoh13","56","[""White""]","No","Male","2386307","null","","<p></p>","null","rating","tcd","attraction_2","1","microwave ovens","null","null","null","null","null","null","2","","","","","","","","","",""
"","","","","","rating_trial","survey-html-form","30","1102913","0.0-3.0-1.13","142","1","2025-04-14 14:13:21","bb671e3ae32f654b8954ea4c4635f915","","Mozilla/5.0 (Macintosh; Intel Mac OS X 10_15_7) AppleWebKit/537.36 (KHTML, like Gecko) Chrome/134.0.0.0 Safari/537.36","Macintosh","Chrome","134.0.0.0","OS X","10_15_7","https://hz8g1ckzuq.cognition.run/","en-US,en;q=0.9","l6p1eko58psoh13","56","[""White""]","No","Male","2386307","32884","","","{""price_1"":""200"",""price_2"":""200"",""price_3"":""180""}","rating","tcd","attraction_2","1","microwave ovens","null","null","null","null","null","null","2","60","50","60","50","60","40","Warranty","Cooking power","",""
"","","","","","rating_trial_setup","html-keyboard-response","31","1103217","0.0-3.0-0.14","142","1","2025-04-14 14:13:21","bb671e3ae32f654b8954ea4c4635f915","","Mozilla/5.0 (Macintosh; Intel Mac OS X 10_15_7) AppleWebKit/537.36 (KHTML, like Gecko) Chrome/134.0.0.0 Safari/537.36","Macintosh","Chrome","134.0.0.0","OS X","10_15_7","https://hz8g1ckzuq.cognition.run/","en-US,en;q=0.9","l6p1eko58psoh13","56","[""White""]","No","Male","2386307","null","","<p></p>","null","rating","dtc","attraction_1","2","microwave ovens","null","null","null","null","null","null","2","","","","","","","","","",""
"","","","","","rating_trial","survey-html-form","32","1142903","0.0-3.0-1.14","142","1","2025-04-14 14:13:21","bb671e3ae32f654b8954ea4c4635f915","","Mozilla/5.0 (Macintosh; Intel Mac OS X 10_15_7) AppleWebKit/537.36 (KHTML, like Gecko) Chrome/134.0.0.0 Safari/537.36","Macintosh","Chrome","134.0.0.0","OS X","10_15_7","https://hz8g1ckzuq.cognition.run/","en-US,en;q=0.9","l6p1eko58psoh13","56","[""White""]","No","Male","2386307","39684","","","{""price_1"":""180"",""price_2"":""200"",""price_3"":""200""}","rating","dtc","attraction_1","2","microwave ovens","null","null","null","null","null","null","2","50","60","45","60","50","60","Warranty","Cooking power","",""
"","","","","","rating_trial_setup","html-keyboard-response","33","1143209","0.0-3.0-0.15","142","1","2025-04-14 14:13:21","bb671e3ae32f654b8954ea4c4635f915","","Mozilla/5.0 (Macintosh; Intel Mac OS X 10_15_7) AppleWebKit/537.36 (KHTML, like Gecko) Chrome/134.0.0.0 Safari/537.36","Macintosh","Chrome","134.0.0.0","OS X","10_15_7","https://hz8g1ckzuq.cognition.run/","en-US,en;q=0.9","l6p1eko58psoh13","56","[""White""]","No","Male","2386307","null","","<p></p>","null","rating","bww","catch","null","laptops","60","50","50","20","5","20","1","","","","","","","","","",""
"","","","","","rating_trial","survey-html-form","34","1184358","0.0-3.0-1.15","142","1","2025-04-14 14:13:21","bb671e3ae32f654b8954ea4c4635f915","","Mozilla/5.0 (Macintosh; Intel Mac OS X 10_15_7) AppleWebKit/537.36 (KHTML, like Gecko) Chrome/134.0.0.0 Safari/537.36","Macintosh","Chrome","134.0.0.0","OS X","10_15_7","https://hz8g1ckzuq.cognition.run/","en-US,en;q=0.9","l6p1eko58psoh13","56","[""White""]","No","Male","2386307","41146","","","{""price_1"":""400"",""price_2"":""250"",""price_3"":""120""}","rating","bww","catch","null","laptops","60","50","50","20","5","20","1","null","null","null","null","null","null","Processing speed","Memory (RAM)","",""
"","","","","","rating_trial_setup","html-keyboard-response","35","1184662","0.0-3.0-0.16","142","1","2025-04-14 14:13:21","bb671e3ae32f654b8954ea4c4635f915","","Mozilla/5.0 (Macintosh; Intel Mac OS X 10_15_7) AppleWebKit/537.36 (KHTML, like Gecko) Chrome/134.0.0.0 Safari/537.36","Macintosh","Chrome","134.0.0.0","OS X","10_15_7","https://hz8g1ckzuq.cognition.run/","en-US,en;q=0.9","l6p1eko58psoh13","56","[""White""]","No","Male","2386307","null","","<p></p>","null","rating","ctd","attraction_1","1","televisions","null","null","null","null","null","null","2","","","","","","","","","",""
"","","","","","rating_trial","survey-html-form","36","1208348","0.0-3.0-1.16","142","1","2025-04-14 14:13:21","bb671e3ae32f654b8954ea4c4635f915","","Mozilla/5.0 (Macintosh; Intel Mac OS X 10_15_7) AppleWebKit/537.36 (KHTML, like Gecko) Chrome/134.0.0.0 Safari/537.36","Macintosh","Chrome","134.0.0.0","OS X","10_15_7","https://hz8g1ckzuq.cognition.run/","en-US,en;q=0.9","l6p1eko58psoh13","56","[""White""]","No","Male","2386307","23681","","","{""price_1"":""300"",""price_2"":""300"",""price_3"":""280""}","rating","ctd","attraction_1","1","televisions","null","null","null","null","null","null","2","60","50","60","50","60","45","Screen size","Average lifespan","",""
"","","","","","rating_trial_setup","html-keyboard-response","37","1208652","0.0-3.0-0.17","142","1","2025-04-14 14:13:21","bb671e3ae32f654b8954ea4c4635f915","","Mozilla/5.0 (Macintosh; Intel Mac OS X 10_15_7) AppleWebKit/537.36 (KHTML, like Gecko) Chrome/134.0.0.0 Safari/537.36","Macintosh","Chrome","134.0.0.0","OS X","10_15_7","https://hz8g1ckzuq.cognition.run/","en-US,en;q=0.9","l6p1eko58psoh13","56","[""White""]","No","Male","2386307","null","","<p></p>","null","rating","tcd","repulsion_2","2","washing machines","null","null","null","null","null","null","2","","","","","","","","","",""
"","","","","","rating_trial","survey-html-form","38","1345708","0.0-3.0-1.17","142","1","2025-04-14 14:13:21","bb671e3ae32f654b8954ea4c4635f915","","Mozilla/5.0 (Macintosh; Intel Mac OS X 10_15_7) AppleWebKit/537.36 (KHTML, like Gecko) Chrome/134.0.0.0 Safari/537.36","Macintosh","Chrome","134.0.0.0","OS X","10_15_7","https://hz8g1ckzuq.cognition.run/","en-US,en;q=0.9","l6p1eko58psoh13","56","[""White""]","No","Male","2386307","137054","","","{""price_1"":""450"",""price_2"":""450"",""price_3"":""400""}","rating","tcd","repulsion_2","2","washing machines","null","null","null","null","null","null","2","30","40","20","100","90","100","Average lifespan","Energy savings","",""
"","","","","","rating_trial_setup","html-keyboard-response","39","1346012","0.0-3.0-0.18","142","1","2025-04-14 14:13:21","bb671e3ae32f654b8954ea4c4635f915","","Mozilla/5.0 (Macintosh; Intel Mac OS X 10_15_7) AppleWebKit/537.36 (KHTML, like Gecko) Chrome/134.0.0.0 Safari/537.36","Macintosh","Chrome","134.0.0.0","OS X","10_15_7","https://hz8g1ckzuq.cognition.run/","en-US,en;q=0.9","l6p1eko58psoh13","56","[""White""]","No","Male","2386307","null","","<p></p>","null","rating","tcd","repulsion_1","1","televisions","null","null","null","null","null","null","1","","","","","","","","","",""
"","","","","","rating_trial","survey-html-form","40","1365490","0.0-3.0-1.18","142","1","2025-04-14 14:13:21","bb671e3ae32f654b8954ea4c4635f915","","Mozilla/5.0 (Macintosh; Intel Mac OS X 10_15_7) AppleWebKit/537.36 (KHTML, like Gecko) Chrome/134.0.0.0 Safari/537.36","Macintosh","Chrome","134.0.0.0","OS X","10_15_7","https://hz8g1ckzuq.cognition.run/","en-US,en;q=0.9","l6p1eko58psoh13","56","[""White""]","No","Male","2386307","19474","","","{""price_1"":""300"",""price_2"":""300"",""price_3"":""280""}","rating","tcd","repulsion_1","1","televisions","null","null","null","null","null","null","1","100","90","100","30","40","25","Screen size","Average lifespan","",""
"","","","","","rating_trial_setup","html-keyboard-response","41","1365794","0.0-3.0-0.19","142","1","2025-04-14 14:13:21","bb671e3ae32f654b8954ea4c4635f915","","Mozilla/5.0 (Macintosh; Intel Mac OS X 10_15_7) AppleWebKit/537.36 (KHTML, like Gecko) Chrome/134.0.0.0 Safari/537.36","Macintosh","Chrome","134.0.0.0","OS X","10_15_7","https://hz8g1ckzuq.cognition.run/","en-US,en;q=0.9","l6p1eko58psoh13","56","[""White""]","No","Male","2386307","null","","<p></p>","null","rating","cdt","attraction_1","2","laptops","null","null","null","null","null","null","1","","","","","","","","","",""
"","","","","","rating_trial","survey-html-form","42","1381109","0.0-3.0-1.19","142","1","2025-04-14 14:13:21","bb671e3ae32f654b8954ea4c4635f915","","Mozilla/5.0 (Macintosh; Intel Mac OS X 10_15_7) AppleWebKit/537.36 (KHTML, like Gecko) Chrome/134.0.0.0 Safari/537.36","Macintosh","Chrome","134.0.0.0","OS X","10_15_7","https://hz8g1ckzuq.cognition.run/","en-US,en;q=0.9","l6p1eko58psoh13","56","[""White""]","No","Male","2386307","15313","","","{""price_1"":""400"",""price_2"":""350"",""price_3"":""400""}","rating","cdt","attraction_1","2","laptops","null","null","null","null","null","null","1","50","60","45","60","50","60","Processing speed","Memory (RAM)","",""
"","","","","","rating_trial_setup","html-keyboard-response","43","1381413","0.0-3.0-0.20","142","1","2025-04-14 14:13:21","bb671e3ae32f654b8954ea4c4635f915","","Mozilla/5.0 (Macintosh; Intel Mac OS X 10_15_7) AppleWebKit/537.36 (KHTML, like Gecko) Chrome/134.0.0.0 Safari/537.36","Macintosh","Chrome","134.0.0.0","OS X","10_15_7","https://hz8g1ckzuq.cognition.run/","en-US,en;q=0.9","l6p1eko58psoh13","56","[""White""]","No","Male","2386307","null","","<p></p>","null","rating","bww","catch","null","washing machines","75","70","15","20","10","10","2","","","","","","","","","",""
"","","","","","rating_trial","survey-html-form","44","1415812","0.0-3.0-1.20","142","1","2025-04-14 14:13:21","bb671e3ae32f654b8954ea4c4635f915","","Mozilla/5.0 (Macintosh; Intel Mac OS X 10_15_7) AppleWebKit/537.36 (KHTML, like Gecko) Chrome/134.0.0.0 Safari/537.36","Macintosh","Chrome","134.0.0.0","OS X","10_15_7","https://hz8g1ckzuq.cognition.run/","en-US,en;q=0.9","l6p1eko58psoh13","56","[""White""]","No","Male","2386307","34397","","","{""price_1"":""450"",""price_2"":""150"",""price_3"":""100""}","rating","bww","catch","null","washing machines","75","70","15","20","10","10","2","null","null","null","null","null","null","Average lifespan","Energy savings","",""
"","","","","","rating_trial_setup","html-keyboard-response","45","1416116","0.0-3.0-0.21","142","1","2025-04-14 14:13:21","bb671e3ae32f654b8954ea4c4635f915","","Mozilla/5.0 (Macintosh; Intel Mac OS X 10_15_7) AppleWebKit/537.36 (KHTML, like Gecko) Chrome/134.0.0.0 Safari/537.36","Macintosh","Chrome","134.0.0.0","OS X","10_15_7","https://hz8g1ckzuq.cognition.run/","en-US,en;q=0.9","l6p1eko58psoh13","56","[""White""]","No","Male","2386307","null","","<p></p>","null","rating","dct","repulsion_2","2","microwave ovens","null","null","null","null","null","null","1","","","","","","","","","",""
"","","","","","rating_trial","survey-html-form","46","1436488","0.0-3.0-1.21","142","1","2025-04-14 14:13:21","bb671e3ae32f654b8954ea4c4635f915","","Mozilla/5.0 (Macintosh; Intel Mac OS X 10_15_7) AppleWebKit/537.36 (KHTML, like Gecko) Chrome/134.0.0.0 Safari/537.36","Macintosh","Chrome","134.0.0.0","OS X","10_15_7","https://hz8g1ckzuq.cognition.run/","en-US,en;q=0.9","l6p1eko58psoh13","56","[""White""]","No","Male","2386307","20228","","","{""price_1"":""180"",""price_2"":""200"",""price_3"":""200""}","rating","dct","repulsion_2","2","microwave ovens","null","null","null","null","null","null","1","30","40","20","100","90","100","Warranty","Cooking power","",""
"","","","","","rating_trial_setup","html-keyboard-response","47","1436792","0.0-3.0-0.22","142","1","2025-04-14 14:13:21","bb671e3ae32f654b8954ea4c4635f915","","Mozilla/5.0 (Macintosh; Intel Mac OS X 10_15_7) AppleWebKit/537.36 (KHTML, like Gecko) Chrome/134.0.0.0 Safari/537.36","Macintosh","Chrome","134.0.0.0","OS X","10_15_7","https://hz8g1ckzuq.cognition.run/","en-US,en;q=0.9","l6p1eko58psoh13","56","[""White""]","No","Male","2386307","null","","<p></p>","null","rating","dtc","attraction_1","1","microwave ovens","null","null","null","null","null","null","1","","","","","","","","","",""
"","","","","","rating_trial","survey-html-form","48","1452887","0.0-3.0-1.22","142","1","2025-04-14 14:13:21","bb671e3ae32f654b8954ea4c4635f915","","Mozilla/5.0 (Macintosh; Intel Mac OS X 10_15_7) AppleWebKit/537.36 (KHTML, like Gecko) Chrome/134.0.0.0 Safari/537.36","Macintosh","Chrome","134.0.0.0","OS X","10_15_7","https://hz8g1ckzuq.cognition.run/","en-US,en;q=0.9","l6p1eko58psoh13","56","[""White""]","No","Male","2386307","16091","","","{""price_1"":""180"",""price_2"":""200"",""price_3"":""200""}","rating","dtc","attraction_1","1","microwave ovens","null","null","null","null","null","null","1","60","50","60","50","60","45","Warranty","Cooking power","",""
"","","","","","rating_trial_setup","html-keyboard-response","49","1453190","0.0-3.0-0.23","142","1","2025-04-14 14:13:21","bb671e3ae32f654b8954ea4c4635f915","","Mozilla/5.0 (Macintosh; Intel Mac OS X 10_15_7) AppleWebKit/537.36 (KHTML, like Gecko) Chrome/134.0.0.0 Safari/537.36","Macintosh","Chrome","134.0.0.0","OS X","10_15_7","https://hz8g1ckzuq.cognition.run/","en-US,en;q=0.9","l6p1eko58psoh13","56","[""White""]","No","Male","2386307","null","","<p></p>","null","rating","tdc","repulsion_1","2","microwave ovens","null","null","null","null","null","null","1","","","","","","","","","",""
"","","","","","rating_trial","survey-html-form","50","1468909","0.0-3.0-1.23","142","1","2025-04-14 14:13:21","bb671e3ae32f654b8954ea4c4635f915","","Mozilla/5.0 (Macintosh; Intel Mac OS X 10_15_7) AppleWebKit/537.36 (KHTML, like Gecko) Chrome/134.0.0.0 Safari/537.36","Macintosh","Chrome","134.0.0.0","OS X","10_15_7","https://hz8g1ckzuq.cognition.run/","en-US,en;q=0.9","l6p1eko58psoh13","56","[""White""]","No","Male","2386307","15715","","","{""price_1"":""200"",""price_2"":""180"",""price_3"":""200""}","rating","tdc","repulsion_1","2","microwave ovens","null","null","null","null","null","null","1","30","40","25","100","90","100","Warranty","Cooking power","",""
"","","","","","rating_trial_setup","html-keyboard-response","51","1469214","0.0-3.0-0.24","142","1","2025-04-14 14:13:21","bb671e3ae32f654b8954ea4c4635f915","","Mozilla/5.0 (Macintosh; Intel Mac OS X 10_15_7) AppleWebKit/537.36 (KHTML, like Gecko) Chrome/134.0.0.0 Safari/537.36","Macintosh","Chrome","134.0.0.0","OS X","10_15_7","https://hz8g1ckzuq.cognition.run/","en-US,en;q=0.9","l6p1eko58psoh13","56","[""White""]","No","Male","2386307","null","","<p></p>","null","rating","dtc","repulsion_2","1","laptops","null","null","null","null","null","null","2","","","","","","","","","",""
"","","","","","rating_trial","survey-html-form","52","1493190","0.0-3.0-1.24","142","1","2025-04-14 14:13:21","bb671e3ae32f654b8954ea4c4635f915","","Mozilla/5.0 (Macintosh; Intel Mac OS X 10_15_7) AppleWebKit/537.36 (KHTML, like Gecko) Chrome/134.0.0.0 Safari/537.36","Macintosh","Chrome","134.0.0.0","OS X","10_15_7","https://hz8g1ckzuq.cognition.run/","en-US,en;q=0.9","l6p1eko58psoh13","56","[""White""]","No","Male","2386307","23972","","","{""price_1"":""380"",""price_2"":""400"",""price_3"":""400""}","rating","dtc","repulsion_2","1","laptops","null","null","null","null","null","null","2","100","90","100","30","40","20","Processing speed","Memory (RAM)","",""
"","","","","","rating_trial_setup","html-keyboard-response","53","1493496","0.0-3.0-0.25","142","1","2025-04-14 14:13:21","bb671e3ae32f654b8954ea4c4635f915","","Mozilla/5.0 (Macintosh; Intel Mac OS X 10_15_7) AppleWebKit/537.36 (KHTML, like Gecko) Chrome/134.0.0.0 Safari/537.36","Macintosh","Chrome","134.0.0.0","OS X","10_15_7","https://hz8g1ckzuq.cognition.run/","en-US,en;q=0.9","l6p1eko58psoh13","56","[""White""]","No","Male","2386307","null","","<p></p>","null","rating","wbw","catch","null","televisions","70","85","25","20","45","10","1","","","","","","","","","",""
"","","","","","rating_trial","survey-html-form","54","1522563","0.0-3.0-1.25","142","1","2025-04-14 14:13:21","bb671e3ae32f654b8954ea4c4635f915","","Mozilla/5.0 (Macintosh; Intel Mac OS X 10_15_7) AppleWebKit/537.36 (KHTML, like Gecko) Chrome/134.0.0.0 Safari/537.36","Macintosh","Chrome","134.0.0.0","OS X","10_15_7","https://hz8g1ckzuq.cognition.run/","en-US,en;q=0.9","l6p1eko58psoh13","56","[""White""]","No","Male","2386307","29064","","","{""price_1"":""100"",""price_2"":""300"",""price_3"":""150""}","rating","wbw","catch","null","televisions","70","85","25","20","45","10","1","null","null","null","null","null","null","Screen size","Average lifespan","",""
"","","","","","rating_trial_setup","html-keyboard-response","55","1522867","0.0-3.0-0.26","142","1","2025-04-14 14:13:21","bb671e3ae32f654b8954ea4c4635f915","","Mozilla/5.0 (Macintosh; Intel Mac OS X 10_15_7) AppleWebKit/537.36 (KHTML, like Gecko) Chrome/134.0.0.0 Safari/537.36","Macintosh","Chrome","134.0.0.0","OS X","10_15_7","https://hz8g1ckzuq.cognition.run/","en-US,en;q=0.9","l6p1eko58psoh13","56","[""White""]","No","Male","2386307","null","","<p></p>","null","rating","ctd","attraction_1","2","televisions","null","null","null","null","null","null","1","","","","","","","","","",""
"","","","","","rating_trial","survey-html-form","56","1538534","0.0-3.0-1.26","142","1","2025-04-14 14:13:21","bb671e3ae32f654b8954ea4c4635f915","","Mozilla/5.0 (Macintosh; Intel Mac OS X 10_15_7) AppleWebKit/537.36 (KHTML, like Gecko) Chrome/134.0.0.0 Safari/537.36","Macintosh","Chrome","134.0.0.0","OS X","10_15_7","https://hz8g1ckzuq.cognition.run/","en-US,en;q=0.9","l6p1eko58psoh13","56","[""White""]","No","Male","2386307","15664","","","{""price_1"":""300"",""price_2"":""300"",""price_3"":""280""}","rating","ctd","attraction_1","2","televisions","null","null","null","null","null","null","1","50","60","45","60","50","60","Screen size","Average lifespan","",""
"","","","","","rating_trial_setup","html-keyboard-response","57","1538837","0.0-3.0-0.27","142","1","2025-04-14 14:13:21","bb671e3ae32f654b8954ea4c4635f915","","Mozilla/5.0 (Macintosh; Intel Mac OS X 10_15_7) AppleWebKit/537.36 (KHTML, like Gecko) Chrome/134.0.0.0 Safari/537.36","Macintosh","Chrome","134.0.0.0","OS X","10_15_7","https://hz8g1ckzuq.cognition.run/","en-US,en;q=0.9","l6p1eko58psoh13","56","[""White""]","No","Male","2386307","null","","<p></p>","null","rating","cdt","repulsion_1","1","microwave ovens","null","null","null","null","null","null","2","","","","","","","","","",""
"","","","","","rating_trial","survey-html-form","58","1600449","0.0-3.0-1.27","142","1","2025-04-14 14:13:21","bb671e3ae32f654b8954ea4c4635f915","","Mozilla/5.0 (Macintosh; Intel Mac OS X 10_15_7) AppleWebKit/537.36 (KHTML, like Gecko) Chrome/134.0.0.0 Safari/537.36","Macintosh","Chrome","134.0.0.0","OS X","10_15_7","https://hz8g1ckzuq.cognition.run/","en-US,en;q=0.9","l6p1eko58psoh13","56","[""White""]","No","Male","2386307","61607","","","{""price_1"":""200"",""price_2"":""180"",""price_3"":""200""}","rating","cdt","repulsion_1","1","microwave ovens","null","null","null","null","null","null","2","100","90","100","30","40","25","Warranty","Cooking power","",""
"","","","","","rating_trial_setup","html-keyboard-response","59","1600753","0.0-3.0-0.28","142","1","2025-04-14 14:13:21","bb671e3ae32f654b8954ea4c4635f915","","Mozilla/5.0 (Macintosh; Intel Mac OS X 10_15_7) AppleWebKit/537.36 (KHTML, like Gecko) Chrome/134.0.0.0 Safari/537.36","Macintosh","Chrome","134.0.0.0","OS X","10_15_7","https://hz8g1ckzuq.cognition.run/","en-US,en;q=0.9","l6p1eko58psoh13","56","[""White""]","No","Male","2386307","null","","<p></p>","null","rating","tdc","attraction_2","1","washing machines","null","null","null","null","null","null","1","","","","","","","","","",""
"","","","","","rating_trial","survey-html-form","60","1614347","0.0-3.0-1.28","142","1","2025-04-14 14:13:21","bb671e3ae32f654b8954ea4c4635f915","","Mozilla/5.0 (Macintosh; Intel Mac OS X 10_15_7) AppleWebKit/537.36 (KHTML, like Gecko) Chrome/134.0.0.0 Safari/537.36","Macintosh","Chrome","134.0.0.0","OS X","10_15_7","https://hz8g1ckzuq.cognition.run/","en-US,en;q=0.9","l6p1eko58psoh13","56","[""White""]","No","Male","2386307","13590","","","{""price_1"":""400"",""price_2"":""350"",""price_3"":""400""}","rating","tdc","attraction_2","1","washing machines","null","null","null","null","null","null","1","60","50","60","50","60","40","Average lifespan","Energy savings","",""
"","","","","","rating_trial_setup","html-keyboard-response","61","1614651","0.0-3.0-0.29","142","1","2025-04-14 14:13:21","bb671e3ae32f654b8954ea4c4635f915","","Mozilla/5.0 (Macintosh; Intel Mac OS X 10_15_7) AppleWebKit/537.36 (KHTML, like Gecko) Chrome/134.0.0.0 Safari/537.36","Macintosh","Chrome","134.0.0.0","OS X","10_15_7","https://hz8g1ckzuq.cognition.run/","en-US,en;q=0.9","l6p1eko58psoh13","56","[""White""]","No","Male","2386307","null","","<p></p>","null","rating","dct","attraction_2","1","televisions","null","null","null","null","null","null","2","","","","","","","","","",""
"","","","","","rating_trial","survey-html-form","62","1632562","0.0-3.0-1.29","142","1","2025-04-14 14:13:21","bb671e3ae32f654b8954ea4c4635f915","","Mozilla/5.0 (Macintosh; Intel Mac OS X 10_15_7) AppleWebKit/537.36 (KHTML, like Gecko) Chrome/134.0.0.0 Safari/537.36","Macintosh","Chrome","134.0.0.0","OS X","10_15_7","https://hz8g1ckzuq.cognition.run/","en-US,en;q=0.9","l6p1eko58psoh13","56","[""White""]","No","Male","2386307","17907","","","{""price_1"":""280"",""price_2"":""300"",""price_3"":""300""}","rating","dct","attraction_2","1","televisions","null","null","null","null","null","null","2","60","50","60","50","60","40","Screen size","Average lifespan","",""
"","","","","","rating_trial_setup","html-keyboard-response","63","1632868","0.0-3.0-0.30","142","1","2025-04-14 14:13:21","bb671e3ae32f654b8954ea4c4635f915","","Mozilla/5.0 (Macintosh; Intel Mac OS X 10_15_7) AppleWebKit/537.36 (KHTML, like Gecko) Chrome/134.0.0.0 Safari/537.36","Macintosh","Chrome","134.0.0.0","OS X","10_15_7","https://hz8g1ckzuq.cognition.run/","en-US,en;q=0.9","l6p1eko58psoh13","56","[""White""]","No","Male","2386307","null","","<p></p>","null","rating","tdc","repulsion_2","1","washing machines","null","null","null","null","null","null","1","","","","","","","","","",""
"","","","","","rating_trial","survey-html-form","64","1647025","0.0-3.0-1.30","142","1","2025-04-14 14:13:21","bb671e3ae32f654b8954ea4c4635f915","","Mozilla/5.0 (Macintosh; Intel Mac OS X 10_15_7) AppleWebKit/537.36 (KHTML, like Gecko) Chrome/134.0.0.0 Safari/537.36","Macintosh","Chrome","134.0.0.0","OS X","10_15_7","https://hz8g1ckzuq.cognition.run/","en-US,en;q=0.9","l6p1eko58psoh13","56","[""White""]","No","Male","2386307","14153","","","{""price_1"":""400"",""price_2"":""350"",""price_3"":""400""}","rating","tdc","repulsion_2","1","washing machines","null","null","null","null","null","null","1","100","90","100","30","40","20","Average lifespan","Energy savings","",""
"","","","","","rating_trial_setup","html-keyboard-response","65","1647329","0.0-3.0-0.31","142","1","2025-04-14 14:13:21","bb671e3ae32f654b8954ea4c4635f915","","Mozilla/5.0 (Macintosh; Intel Mac OS X 10_15_7) AppleWebKit/537.36 (KHTML, like Gecko) Chrome/134.0.0.0 Safari/537.36","Macintosh","Chrome","134.0.0.0","OS X","10_15_7","https://hz8g1ckzuq.cognition.run/","en-US,en;q=0.9","l6p1eko58psoh13","56","[""White""]","No","Male","2386307","null","","<p></p>","null","rating","tdc","attraction_1","1","washing machines","null","null","null","null","null","null","2","","","","","","","","","",""
"","","","","","rating_trial","survey-html-form","66","1663726","0.0-3.0-1.31","142","1","2025-04-14 14:13:21","bb671e3ae32f654b8954ea4c4635f915","","Mozilla/5.0 (Macintosh; Intel Mac OS X 10_15_7) AppleWebKit/537.36 (KHTML, like Gecko) Chrome/134.0.0.0 Safari/537.36","Macintosh","Chrome","134.0.0.0","OS X","10_15_7","https://hz8g1ckzuq.cognition.run/","en-US,en;q=0.9","l6p1eko58psoh13","56","[""White""]","No","Male","2386307","16392","","","{""price_1"":""400"",""price_2"":""380"",""price_3"":""400""}","rating","tdc","attraction_1","1","washing machines","null","null","null","null","null","null","2","60","50","60","50","60","45","Average lifespan","Energy savings","",""
"","","","","","rating_trial_setup","html-keyboard-response","67","1664030","0.0-3.0-0.32","142","1","2025-04-14 14:13:21","bb671e3ae32f654b8954ea4c4635f915","","Mozilla/5.0 (Macintosh; Intel Mac OS X 10_15_7) AppleWebKit/537.36 (KHTML, like Gecko) Chrome/134.0.0.0 Safari/537.36","Macintosh","Chrome","134.0.0.0","OS X","10_15_7","https://hz8g1ckzuq.cognition.run/","en-US,en;q=0.9","l6p1eko58psoh13","56","[""White""]","No","Male","2386307","null","","<p></p>","null","rating","tdc","repulsion_1","2","washing machines","null","null","null","null","null","null","1","","","","","","","","","",""
"","","","","","rating_trial","survey-html-form","68","1682032","0.0-3.0-1.32","142","1","2025-04-14 14:13:21","bb671e3ae32f654b8954ea4c4635f915","","Mozilla/5.0 (Macintosh; Intel Mac OS X 10_15_7) AppleWebKit/537.36 (KHTML, like Gecko) Chrome/134.0.0.0 Safari/537.36","Macintosh","Chrome","134.0.0.0","OS X","10_15_7","https://hz8g1ckzuq.cognition.run/","en-US,en;q=0.9","l6p1eko58psoh13","56","[""White""]","No","Male","2386307","17999","","","{""price_1"":""450"",""price_2"":""400"",""price_3"":""450""}","rating","tdc","repulsion_1","2","washing machines","null","null","null","null","null","null","1","30","40","25","100","90","100","Average lifespan","Energy savings","",""
"","","","","","rating_trial_setup","html-keyboard-response","69","1682336","0.0-3.0-0.33","142","1","2025-04-14 14:13:21","bb671e3ae32f654b8954ea4c4635f915","","Mozilla/5.0 (Macintosh; Intel Mac OS X 10_15_7) AppleWebKit/537.36 (KHTML, like Gecko) Chrome/134.0.0.0 Safari/537.36","Macintosh","Chrome","134.0.0.0","OS X","10_15_7","https://hz8g1ckzuq.cognition.run/","en-US,en;q=0.9","l6p1eko58psoh13","56","[""White""]","No","Male","2386307","null","","<p></p>","null","rating","dct","repulsion_1","1","washing machines","null","null","null","null","null","null","2","","","","","","","","","",""
"","","","","","rating_trial","survey-html-form","70","1696621","0.0-3.0-1.33","142","1","2025-04-14 14:13:21","bb671e3ae32f654b8954ea4c4635f915","","Mozilla/5.0 (Macintosh; Intel Mac OS X 10_15_7) AppleWebKit/537.36 (KHTML, like Gecko) Chrome/134.0.0.0 Safari/537.36","Macintosh","Chrome","134.0.0.0","OS X","10_15_7","https://hz8g1ckzuq.cognition.run/","en-US,en;q=0.9","l6p1eko58psoh13","56","[""White""]","No","Male","2386307","14281","","","{""price_1"":""400"",""price_2"":""450"",""price_3"":""450""}","rating","dct","repulsion_1","1","washing machines","null","null","null","null","null","null","2","100","90","100","30","40","25","Average lifespan","Energy savings","",""
"","","","","","rating_trial_setup","html-keyboard-response","71","1696927","0.0-3.0-0.34","142","1","2025-04-14 14:13:21","bb671e3ae32f654b8954ea4c4635f915","","Mozilla/5.0 (Macintosh; Intel Mac OS X 10_15_7) AppleWebKit/537.36 (KHTML, like Gecko) Chrome/134.0.0.0 Safari/537.36","Macintosh","Chrome","134.0.0.0","OS X","10_15_7","https://hz8g1ckzuq.cognition.run/","en-US,en;q=0.9","l6p1eko58psoh13","56","[""White""]","No","Male","2386307","null","","<p></p>","null","rating","wwb","catch","null","laptops","75","85","35","25","30","40","1","","","","","","","","","",""
"","","","","","rating_trial","survey-html-form","72","1716209","0.0-3.0-1.34","142","1","2025-04-14 14:13:21","bb671e3ae32f654b8954ea4c4635f915","","Mozilla/5.0 (Macintosh; Intel Mac OS X 10_15_7) AppleWebKit/537.36 (KHTML, like Gecko) Chrome/134.0.0.0 Safari/537.36","Macintosh","Chrome","134.0.0.0","OS X","10_15_7","https://hz8g1ckzuq.cognition.run/","en-US,en;q=0.9","l6p1eko58psoh13","56","[""White""]","No","Male","2386307","19278","","","{""price_1"":""150"",""price_2"":""200"",""price_3"":""450""}","rating","wwb","catch","null","laptops","75","85","35","25","30","40","1","null","null","null","null","null","null","Processing speed","Memory (RAM)","",""
"","","","","","rating_trial_setup","html-keyboard-response","73","1716514","0.0-3.0-0.35","142","1","2025-04-14 14:13:21","bb671e3ae32f654b8954ea4c4635f915","","Mozilla/5.0 (Macintosh; Intel Mac OS X 10_15_7) AppleWebKit/537.36 (KHTML, like Gecko) Chrome/134.0.0.0 Safari/537.36","Macintosh","Chrome","134.0.0.0","OS X","10_15_7","https://hz8g1ckzuq.cognition.run/","en-US,en;q=0.9","l6p1eko58psoh13","56","[""White""]","No","Male","2386307","null","","<p></p>","null","rating","wbw","catch","null","televisions","80","85","40","30","40","10","1","","","","","","","","","",""
"","","","","","rating_trial","survey-html-form","74","1744521","0.0-3.0-1.35","142","1","2025-04-14 14:13:21","bb671e3ae32f654b8954ea4c4635f915","","Mozilla/5.0 (Macintosh; Intel Mac OS X 10_15_7) AppleWebKit/537.36 (KHTML, like Gecko) Chrome/134.0.0.0 Safari/537.36","Macintosh","Chrome","134.0.0.0","OS X","10_15_7","https://hz8g1ckzuq.cognition.run/","en-US,en;q=0.9","l6p1eko58psoh13","56","[""White""]","No","Male","2386307","28003","","","{""price_1"":""150"",""price_2"":""320"",""price_3"":""120""}","rating","wbw","catch","null","televisions","80","85","40","30","40","10","1","null","null","null","null","null","null","Screen size","Average lifespan","",""
"","","","","","rating_trial_setup","html-keyboard-response","75","1744829","0.0-3.0-0.36","142","1","2025-04-14 14:13:21","bb671e3ae32f654b8954ea4c4635f915","","Mozilla/5.0 (Macintosh; Intel Mac OS X 10_15_7) AppleWebKit/537.36 (KHTML, like Gecko) Chrome/134.0.0.0 Safari/537.36","Macintosh","Chrome","134.0.0.0","OS X","10_15_7","https://hz8g1ckzuq.cognition.run/","en-US,en;q=0.9","l6p1eko58psoh13","56","[""White""]","No","Male","2386307","null","","<p></p>","null","rating","cdt","attraction_1","2","washing machines","null","null","null","null","null","null","1","","","","","","","","","",""
"","","","","","rating_trial","survey-html-form","76","1758240","0.0-3.0-1.36","142","1","2025-04-14 14:13:21","bb671e3ae32f654b8954ea4c4635f915","","Mozilla/5.0 (Macintosh; Intel Mac OS X 10_15_7) AppleWebKit/537.36 (KHTML, like Gecko) Chrome/134.0.0.0 Safari/537.36","Macintosh","Chrome","134.0.0.0","OS X","10_15_7","https://hz8g1ckzuq.cognition.run/","en-US,en;q=0.9","l6p1eko58psoh13","56","[""White""]","No","Male","2386307","13407","","","{""price_1"":""400"",""price_2"":""380"",""price_3"":""400""}","rating","cdt","attraction_1","2","washing machines","null","null","null","null","null","null","1","50","60","45","60","50","60","Average lifespan","Energy savings","",""
"","","","","","rating_trial_setup","html-keyboard-response","77","1758545","0.0-3.0-0.37","142","1","2025-04-14 14:13:21","bb671e3ae32f654b8954ea4c4635f915","","Mozilla/5.0 (Macintosh; Intel Mac OS X 10_15_7) AppleWebKit/537.36 (KHTML, like Gecko) Chrome/134.0.0.0 Safari/537.36","Macintosh","Chrome","134.0.0.0","OS X","10_15_7","https://hz8g1ckzuq.cognition.run/","en-US,en;q=0.9","l6p1eko58psoh13","56","[""White""]","No","Male","2386307","null","","<p></p>","null","rating","tdc","repulsion_1","2","laptops","null","null","null","null","null","null","2","","","","","","","","","",""
"","","","","","rating_trial","survey-html-form","78","1773962","0.0-3.0-1.37","142","1","2025-04-14 14:13:21","bb671e3ae32f654b8954ea4c4635f915","","Mozilla/5.0 (Macintosh; Intel Mac OS X 10_15_7) AppleWebKit/537.36 (KHTML, like Gecko) Chrome/134.0.0.0 Safari/537.36","Macintosh","Chrome","134.0.0.0","OS X","10_15_7","https://hz8g1ckzuq.cognition.run/","en-US,en;q=0.9","l6p1eko58psoh13","56","[""White""]","No","Male","2386307","15412","","","{""price_1"":""400"",""price_2"":""380"",""price_3"":""400""}","rating","tdc","repulsion_1","2","laptops","null","null","null","null","null","null","2","30","40","25","100","90","100","Processing speed","Memory (RAM)","",""
"","","","","","rating_trial_setup","html-keyboard-response","79","1774267","0.0-3.0-0.38","142","1","2025-04-14 14:13:21","bb671e3ae32f654b8954ea4c4635f915","","Mozilla/5.0 (Macintosh; Intel Mac OS X 10_15_7) AppleWebKit/537.36 (KHTML, like Gecko) Chrome/134.0.0.0 Safari/537.36","Macintosh","Chrome","134.0.0.0","OS X","10_15_7","https://hz8g1ckzuq.cognition.run/","en-US,en;q=0.9","l6p1eko58psoh13","56","[""White""]","No","Male","2386307","null","","<p></p>","null","rating","tdc","attraction_2","1","laptops","null","null","null","null","null","null","1","","","","","","","","","",""
"","","","","","rating_trial","survey-html-form","80","1793501","0.0-3.0-1.38","142","1","2025-04-14 14:13:21","bb671e3ae32f654b8954ea4c4635f915","","Mozilla/5.0 (Macintosh; Intel Mac OS X 10_15_7) AppleWebKit/537.36 (KHTML, like Gecko) Chrome/134.0.0.0 Safari/537.36","Macintosh","Chrome","134.0.0.0","OS X","10_15_7","https://hz8g1ckzuq.cognition.run/","en-US,en;q=0.9","l6p1eko58psoh13","56","[""White""]","No","Male","2386307","19230","","","{""price_1"":""400"",""price_2"":""250"",""price_3"":""400""}","rating","tdc","attraction_2","1","laptops","null","null","null","null","null","null","1","60","50","60","50","60","40","Processing speed","Memory (RAM)","",""
"","","","","","rating_trial_setup","html-keyboard-response","81","1793806","0.0-3.0-0.39","142","1","2025-04-14 14:13:21","bb671e3ae32f654b8954ea4c4635f915","","Mozilla/5.0 (Macintosh; Intel Mac OS X 10_15_7) AppleWebKit/537.36 (KHTML, like Gecko) Chrome/134.0.0.0 Safari/537.36","Macintosh","Chrome","134.0.0.0","OS X","10_15_7","https://hz8g1ckzuq.cognition.run/","en-US,en;q=0.9","l6p1eko58psoh13","56","[""White""]","No","Male","2386307","null","","<p></p>","null","rating","ctd","attraction_1","1","laptops","null","null","null","null","null","null","1","","","","","","","","","",""
"","","","","","rating_trial","survey-html-form","82","1806329","0.0-3.0-1.39","142","1","2025-04-14 14:13:21","bb671e3ae32f654b8954ea4c4635f915","","Mozilla/5.0 (Macintosh; Intel Mac OS X 10_15_7) AppleWebKit/537.36 (KHTML, like Gecko) Chrome/134.0.0.0 Safari/537.36","Macintosh","Chrome","134.0.0.0","OS X","10_15_7","https://hz8g1ckzuq.cognition.run/","en-US,en;q=0.9","l6p1eko58psoh13","56","[""White""]","No","Male","2386307","12517","","","{""price_1"":""400"",""price_2"":""400"",""price_3"":""280""}","rating","ctd","attraction_1","1","laptops","null","null","null","null","null","null","1","60","50","60","50","60","45","Processing speed","Memory (RAM)","",""
"","","","","","","instructions","83","1861035","0.0-4.0","142","1","2025-04-14 14:13:21","bb671e3ae32f654b8954ea4c4635f915","","Mozilla/5.0 (Macintosh; Intel Mac OS X 10_15_7) AppleWebKit/537.36 (KHTML, like Gecko) Chrome/134.0.0.0 Safari/537.36","Macintosh","Chrome","134.0.0.0","OS X","10_15_7","https://hz8g1ckzuq.cognition.run/","en-US,en;q=0.9","l6p1eko58psoh13","56","[""White""]","No","Male","2386307","54702","[{""page_index"":0,""viewing_time"":2279},{""page_index"":1,""viewing_time"":4608},{""page_index"":2,""viewing_time"":5031},{""page_index"":3,""viewing_time"":6822},{""page_index"":4,""viewing_time"":11472},{""page_index"":5,""viewing_time"":9184},{""page_index"":6,""viewing_time"":4742},{""page_index"":7,""viewing_time"":10564}]","","","","","","","","","","","","","","","","","","","","","","","",""
"","","","","","choice_trial_setup","html-keyboard-response","84","1861344","0.0-5.0-0.0","142","1","2025-04-14 14:13:21","bb671e3ae32f654b8954ea4c4635f915","","Mozilla/5.0 (Macintosh; Intel Mac OS X 10_15_7) AppleWebKit/537.36 (KHTML, like Gecko) Chrome/134.0.0.0 Safari/537.36","Macintosh","Chrome","134.0.0.0","OS X","10_15_7","https://hz8g1ckzuq.cognition.run/","en-US,en;q=0.9","l6p1eko58psoh13","56","[""White""]","No","Male","2386307","null","","<p></p>","null","choice","tcd","repulsion_1","1","televisions","null","null","null","null","null","null","2","","","","","","","","","",""
"","","","","","choice_trial","survey-html-form","85","1874129","0.0-5.0-1.0","142","1","2025-04-14 14:13:21","bb671e3ae32f654b8954ea4c4635f915","","Mozilla/5.0 (Macintosh; Intel Mac OS X 10_15_7) AppleWebKit/537.36 (KHTML, like Gecko) Chrome/134.0.0.0 Safari/537.36","Macintosh","Chrome","134.0.0.0","OS X","10_15_7","https://hz8g1ckzuq.cognition.run/","en-US,en;q=0.9","l6p1eko58psoh13","56","[""White""]","No","Male","2386307","12780","","","{""product_choice"":""A""}","choice","tcd","repulsion_1","1","televisions","null","null","null","null","null","null","2","100","90","100","30","40","25","Screen size","Average lifespan","",""
"","","","","","choice_trial_setup","html-keyboard-response","86","1874435","0.0-5.0-0.1","142","1","2025-04-14 14:13:21","bb671e3ae32f654b8954ea4c4635f915","","Mozilla/5.0 (Macintosh; Intel Mac OS X 10_15_7) AppleWebKit/537.36 (KHTML, like Gecko) Chrome/134.0.0.0 Safari/537.36","Macintosh","Chrome","134.0.0.0","OS X","10_15_7","https://hz8g1ckzuq.cognition.run/","en-US,en;q=0.9","l6p1eko58psoh13","56","[""White""]","No","Male","2386307","null","","<p></p>","null","choice","cdt","repulsion_2","1","microwave ovens","null","null","null","null","null","null","1","","","","","","","","","",""
"","","","","","choice_trial","survey-html-form","87","1890384","0.0-5.0-1.1","142","1","2025-04-14 14:13:21","bb671e3ae32f654b8954ea4c4635f915","","Mozilla/5.0 (Macintosh; Intel Mac OS X 10_15_7) AppleWebKit/537.36 (KHTML, like Gecko) Chrome/134.0.0.0 Safari/537.36","Macintosh","Chrome","134.0.0.0","OS X","10_15_7","https://hz8g1ckzuq.cognition.run/","en-US,en;q=0.9","l6p1eko58psoh13","56","[""White""]","No","Male","2386307","15945","","","{""product_choice"":""A""}","choice","cdt","repulsion_2","1","microwave ovens","null","null","null","null","null","null","1","100","90","100","30","40","20","Warranty","Cooking power","",""
"","","","","","choice_trial_setup","html-keyboard-response","88","1890689","0.0-5.0-0.2","142","1","2025-04-14 14:13:21","bb671e3ae32f654b8954ea4c4635f915","","Mozilla/5.0 (Macintosh; Intel Mac OS X 10_15_7) AppleWebKit/537.36 (KHTML, like Gecko) Chrome/134.0.0.0 Safari/537.36","Macintosh","Chrome","134.0.0.0","OS X","10_15_7","https://hz8g1ckzuq.cognition.run/","en-US,en;q=0.9","l6p1eko58psoh13","56","[""White""]","No","Male","2386307","null","","<p></p>","null","choice","wwb","catch","null","laptops","50","60","20","5","30","25","2","","","","","","","","","",""
"","","","","","choice_trial","survey-html-form","89","1904803","0.0-5.0-1.2","142","1","2025-04-14 14:13:21","bb671e3ae32f654b8954ea4c4635f915","","Mozilla/5.0 (Macintosh; Intel Mac OS X 10_15_7) AppleWebKit/537.36 (KHTML, like Gecko) Chrome/134.0.0.0 Safari/537.36","Macintosh","Chrome","134.0.0.0","OS X","10_15_7","https://hz8g1ckzuq.cognition.run/","en-US,en;q=0.9","l6p1eko58psoh13","56","[""White""]","No","Male","2386307","14106","","","{""product_choice"":""C""}","choice","wwb","catch","null","laptops","50","60","20","5","30","25","2","null","null","null","null","null","null","Processing speed","Memory (RAM)","",""
"","","","","","choice_trial_setup","html-keyboard-response","90","1905108","0.0-5.0-0.3","142","1","2025-04-14 14:13:21","bb671e3ae32f654b8954ea4c4635f915","","Mozilla/5.0 (Macintosh; Intel Mac OS X 10_15_7) AppleWebKit/537.36 (KHTML, like Gecko) Chrome/134.0.0.0 Safari/537.36","Macintosh","Chrome","134.0.0.0","OS X","10_15_7","https://hz8g1ckzuq.cognition.run/","en-US,en;q=0.9","l6p1eko58psoh13","56","[""White""]","No","Male","2386307","null","","<p></p>","null","choice","tdc","repulsion_2","1","washing machines","null","null","null","null","null","null","1","","","","","","","","","",""
"","","","","","choice_trial","survey-html-form","91","1916479","0.0-5.0-1.3","142","1","2025-04-14 14:13:21","bb671e3ae32f654b8954ea4c4635f915","","Mozilla/5.0 (Macintosh; Intel Mac OS X 10_15_7) AppleWebKit/537.36 (KHTML, like Gecko) Chrome/134.0.0.0 Safari/537.36","Macintosh","Chrome","134.0.0.0","OS X","10_15_7","https://hz8g1ckzuq.cognition.run/","en-US,en;q=0.9","l6p1eko58psoh13","56","[""White""]","No","Male","2386307","11365","","","{""product_choice"":""C""}","choice","tdc","repulsion_2","1","washing machines","null","null","null","null","null","null","1","100","90","100","30","40","20","Average lifespan","Energy savings","",""
"","","","","","choice_trial_setup","html-keyboard-response","92","1916786","0.0-5.0-0.4","142","1","2025-04-14 14:13:21","bb671e3ae32f654b8954ea4c4635f915","","Mozilla/5.0 (Macintosh; Intel Mac OS X 10_15_7) AppleWebKit/537.36 (KHTML, like Gecko) Chrome/134.0.0.0 Safari/537.36","Macintosh","Chrome","134.0.0.0","OS X","10_15_7","https://hz8g1ckzuq.cognition.run/","en-US,en;q=0.9","l6p1eko58psoh13","56","[""White""]","No","Male","2386307","null","","<p></p>","null","choice","dtc","repulsion_1","2","laptops","null","null","null","null","null","null","1","","","","","","","","","",""
"","","","","","choice_trial","survey-html-form","93","1927543","0.0-5.0-1.4","142","1","2025-04-14 14:13:21","bb671e3ae32f654b8954ea4c4635f915","","Mozilla/5.0 (Macintosh; Intel Mac OS X 10_15_7) AppleWebKit/537.36 (KHTML, like Gecko) Chrome/134.0.0.0 Safari/537.36","Macintosh","Chrome","134.0.0.0","OS X","10_15_7","https://hz8g1ckzuq.cognition.run/","en-US,en;q=0.9","l6p1eko58psoh13","56","[""White""]","No","Male","2386307","10752","","","{""product_choice"":""C""}","choice","dtc","repulsion_1","2","laptops","null","null","null","null","null","null","1","30","40","25","100","90","100","Processing speed","Memory (RAM)","",""
"","","","","","choice_trial_setup","html-keyboard-response","94","1927848","0.0-5.0-0.5","142","1","2025-04-14 14:13:21","bb671e3ae32f654b8954ea4c4635f915","","Mozilla/5.0 (Macintosh; Intel Mac OS X 10_15_7) AppleWebKit/537.36 (KHTML, like Gecko) Chrome/134.0.0.0 Safari/537.36","Macintosh","Chrome","134.0.0.0","OS X","10_15_7","https://hz8g1ckzuq.cognition.run/","en-US,en;q=0.9","l6p1eko58psoh13","56","[""White""]","No","Male","2386307","null","","<p></p>","null","choice","dct","repulsion_1","2","washing machines","null","null","null","null","null","null","2","","","","","","","","","",""
"","","","","","choice_trial","survey-html-form","95","1944627","0.0-5.0-1.5","142","1","2025-04-14 14:13:21","bb671e3ae32f654b8954ea4c4635f915","","Mozilla/5.0 (Macintosh; Intel Mac OS X 10_15_7) AppleWebKit/537.36 (KHTML, like Gecko) Chrome/134.0.0.0 Safari/537.36","Macintosh","Chrome","134.0.0.0","OS X","10_15_7","https://hz8g1ckzuq.cognition.run/","en-US,en;q=0.9","l6p1eko58psoh13","56","[""White""]","No","Male","2386307","16774","","","{""product_choice"":""C""}","choice","dct","repulsion_1","2","washing machines","null","null","null","null","null","null","2","30","40","25","100","90","100","Average lifespan","Energy savings","",""
"","","","","","choice_trial_setup","html-keyboard-response","96","1944932","0.0-5.0-0.6","142","1","2025-04-14 14:13:21","bb671e3ae32f654b8954ea4c4635f915","","Mozilla/5.0 (Macintosh; Intel Mac OS X 10_15_7) AppleWebKit/537.36 (KHTML, like Gecko) Chrome/134.0.0.0 Safari/537.36","Macintosh","Chrome","134.0.0.0","OS X","10_15_7","https://hz8g1ckzuq.cognition.run/","en-US,en;q=0.9","l6p1eko58psoh13","56","[""White""]","No","Male","2386307","null","","<p></p>","null","choice","tcd","attraction_1","2","televisions","null","null","null","null","null","null","2","","","","","","","","","",""
"","","","","","choice_trial","survey-html-form","97","1963776","0.0-5.0-1.6","142","1","2025-04-14 14:13:21","bb671e3ae32f654b8954ea4c4635f915","","Mozilla/5.0 (Macintosh; Intel Mac OS X 10_15_7) AppleWebKit/537.36 (KHTML, like Gecko) Chrome/134.0.0.0 Safari/537.36","Macintosh","Chrome","134.0.0.0","OS X","10_15_7","https://hz8g1ckzuq.cognition.run/","en-US,en;q=0.9","l6p1eko58psoh13","56","[""White""]","No","Male","2386307","18839","","","{""product_choice"":""B""}","choice","tcd","attraction_1","2","televisions","null","null","null","null","null","null","2","50","60","45","60","50","60","Screen size","Average lifespan","",""
"","","","","","choice_trial_setup","html-keyboard-response","98","1964081","0.0-5.0-0.7","142","1","2025-04-14 14:13:21","bb671e3ae32f654b8954ea4c4635f915","","Mozilla/5.0 (Macintosh; Intel Mac OS X 10_15_7) AppleWebKit/537.36 (KHTML, like Gecko) Chrome/134.0.0.0 Safari/537.36","Macintosh","Chrome","134.0.0.0","OS X","10_15_7","https://hz8g1ckzuq.cognition.run/","en-US,en;q=0.9","l6p1eko58psoh13","56","[""White""]","No","Male","2386307","null","","<p></p>","null","choice","dct","repulsion_2","2","microwave ovens","null","null","null","null","null","null","2","","","","","","","","","",""
"","","","","","choice_trial","survey-html-form","99","1970141","0.0-5.0-1.7","142","1","2025-04-14 14:13:21","bb671e3ae32f654b8954ea4c4635f915","","Mozilla/5.0 (Macintosh; Intel Mac OS X 10_15_7) AppleWebKit/537.36 (KHTML, like Gecko) Chrome/134.0.0.0 Safari/537.36","Macintosh","Chrome","134.0.0.0","OS X","10_15_7","https://hz8g1ckzuq.cognition.run/","en-US,en;q=0.9","l6p1eko58psoh13","56","[""White""]","No","Male","2386307","6055","","","{""product_choice"":""C""}","choice","dct","repulsion_2","2","microwave ovens","null","null","null","null","null","null","2","30","40","20","100","90","100","Warranty","Cooking power","",""
"","","","","","choice_trial_setup","html-keyboard-response","100","1970450","0.0-5.0-0.8","142","1","2025-04-14 14:13:21","bb671e3ae32f654b8954ea4c4635f915","","Mozilla/5.0 (Macintosh; Intel Mac OS X 10_15_7) AppleWebKit/537.36 (KHTML, like Gecko) Chrome/134.0.0.0 Safari/537.36","Macintosh","Chrome","134.0.0.0","OS X","10_15_7","https://hz8g1ckzuq.cognition.run/","en-US,en;q=0.9","l6p1eko58psoh13","56","[""White""]","No","Male","2386307","null","","<p></p>","null","choice","dct","attraction_2","2","washing machines","null","null","null","null","null","null","1","","","","","","","","","",""
"","","","","","choice_trial","survey-html-form","101","1984849","0.0-5.0-1.8","142","1","2025-04-14 14:13:21","bb671e3ae32f654b8954ea4c4635f915","","Mozilla/5.0 (Macintosh; Intel Mac OS X 10_15_7) AppleWebKit/537.36 (KHTML, like Gecko) Chrome/134.0.0.0 Safari/537.36","Macintosh","Chrome","134.0.0.0","OS X","10_15_7","https://hz8g1ckzuq.cognition.run/","en-US,en;q=0.9","l6p1eko58psoh13","56","[""White""]","No","Male","2386307","14394","","","{""product_choice"":""C""}","choice","dct","attraction_2","2","washing machines","null","null","null","null","null","null","1","50","60","40","60","50","60","Average lifespan","Energy savings","",""
"","","","","","choice_trial_setup","html-keyboard-response","102","1985158","0.0-5.0-0.9","142","1","2025-04-14 14:13:21","bb671e3ae32f654b8954ea4c4635f915","","Mozilla/5.0 (Macintosh; Intel Mac OS X 10_15_7) AppleWebKit/537.36 (KHTML, like Gecko) Chrome/134.0.0.0 Safari/537.36","Macintosh","Chrome","134.0.0.0","OS X","10_15_7","https://hz8g1ckzuq.cognition.run/","en-US,en;q=0.9","l6p1eko58psoh13","56","[""White""]","No","Male","2386307","null","","<p></p>","null","choice","tcd","repulsion_2","2","televisions","null","null","null","null","null","null","1","","","","","","","","","",""
"","","","","","choice_trial","survey-html-form","103","1999269","0.0-5.0-1.9","142","1","2025-04-14 14:13:21","bb671e3ae32f654b8954ea4c4635f915","","Mozilla/5.0 (Macintosh; Intel Mac OS X 10_15_7) AppleWebKit/537.36 (KHTML, like Gecko) Chrome/134.0.0.0 Safari/537.36","Macintosh","Chrome","134.0.0.0","OS X","10_15_7","https://hz8g1ckzuq.cognition.run/","en-US,en;q=0.9","l6p1eko58psoh13","56","[""White""]","No","Male","2386307","14106","","","{""product_choice"":""B""}","choice","tcd","repulsion_2","2","televisions","null","null","null","null","null","null","1","30","40","20","100","90","100","Screen size","Average lifespan","",""
"","","","","","choice_trial_setup","html-keyboard-response","104","1999574","0.0-5.0-0.10","142","1","2025-04-14 14:13:21","bb671e3ae32f654b8954ea4c4635f915","","Mozilla/5.0 (Macintosh; Intel Mac OS X 10_15_7) AppleWebKit/537.36 (KHTML, like Gecko) Chrome/134.0.0.0 Safari/537.36","Macintosh","Chrome","134.0.0.0","OS X","10_15_7","https://hz8g1ckzuq.cognition.run/","en-US,en;q=0.9","l6p1eko58psoh13","56","[""White""]","No","Male","2386307","null","","<p></p>","null","choice","dtc","attraction_1","1","laptops","null","null","null","null","null","null","1","","","","","","","","","",""
"","","","","","choice_trial","survey-html-form","105","2007475","0.0-5.0-1.10","142","1","2025-04-14 14:13:21","bb671e3ae32f654b8954ea4c4635f915","","Mozilla/5.0 (Macintosh; Intel Mac OS X 10_15_7) AppleWebKit/537.36 (KHTML, like Gecko) Chrome/134.0.0.0 Safari/537.36","Macintosh","Chrome","134.0.0.0","OS X","10_15_7","https://hz8g1ckzuq.cognition.run/","en-US,en;q=0.9","l6p1eko58psoh13","56","[""White""]","No","Male","2386307","7895","","","{""product_choice"":""B""}","choice","dtc","attraction_1","1","laptops","null","null","null","null","null","null","1","60","50","60","50","60","45","Processing speed","Memory (RAM)","",""
"","","","","","choice_trial_setup","html-keyboard-response","106","2007781","0.0-5.0-0.11","142","1","2025-04-14 14:13:21","bb671e3ae32f654b8954ea4c4635f915","","Mozilla/5.0 (Macintosh; Intel Mac OS X 10_15_7) AppleWebKit/537.36 (KHTML, like Gecko) Chrome/134.0.0.0 Safari/537.36","Macintosh","Chrome","134.0.0.0","OS X","10_15_7","https://hz8g1ckzuq.cognition.run/","en-US,en;q=0.9","l6p1eko58psoh13","56","[""White""]","No","Male","2386307","null","","<p></p>","null","choice","wbw","catch","null","microwave ovens","50","60","35","20","30","5","1","","","","","","","","","",""
"","","","","","choice_trial","survey-html-form","107","2014933","0.0-5.0-1.11","142","1","2025-04-14 14:13:21","bb671e3ae32f654b8954ea4c4635f915","","Mozilla/5.0 (Macintosh; Intel Mac OS X 10_15_7) AppleWebKit/537.36 (KHTML, like Gecko) Chrome/134.0.0.0 Safari/537.36","Macintosh","Chrome","134.0.0.0","OS X","10_15_7","https://hz8g1ckzuq.cognition.run/","en-US,en;q=0.9","l6p1eko58psoh13","56","[""White""]","No","Male","2386307","7145","","","{""product_choice"":""B""}","choice","wbw","catch","null","microwave ovens","50","60","35","20","30","5","1","null","null","null","null","null","null","Warranty","Cooking power","",""
"","","","","","choice_trial_setup","html-keyboard-response","108","2015240","0.0-5.0-0.12","142","1","2025-04-14 14:13:21","bb671e3ae32f654b8954ea4c4635f915","","Mozilla/5.0 (Macintosh; Intel Mac OS X 10_15_7) AppleWebKit/537.36 (KHTML, like Gecko) Chrome/134.0.0.0 Safari/537.36","Macintosh","Chrome","134.0.0.0","OS X","10_15_7","https://hz8g1ckzuq.cognition.run/","en-US,en;q=0.9","l6p1eko58psoh13","56","[""White""]","No","Male","2386307","null","","<p></p>","null","choice","dct","attraction_1","1","microwave ovens","null","null","null","null","null","null","1","","","","","","","","","",""
"","","","","","choice_trial","survey-html-form","109","2022125","0.0-5.0-1.12","142","1","2025-04-14 14:13:21","bb671e3ae32f654b8954ea4c4635f915","","Mozilla/5.0 (Macintosh; Intel Mac OS X 10_15_7) AppleWebKit/537.36 (KHTML, like Gecko) Chrome/134.0.0.0 Safari/537.36","Macintosh","Chrome","134.0.0.0","OS X","10_15_7","https://hz8g1ckzuq.cognition.run/","en-US,en;q=0.9","l6p1eko58psoh13","56","[""White""]","No","Male","2386307","6879","","","{""product_choice"":""B""}","choice","dct","attraction_1","1","microwave ovens","null","null","null","null","null","null","1","60","50","60","50","60","45","Warranty","Cooking power","",""
"","","","","","choice_trial_setup","html-keyboard-response","110","2022432","0.0-5.0-0.13","142","1","2025-04-14 14:13:21","bb671e3ae32f654b8954ea4c4635f915","","Mozilla/5.0 (Macintosh; Intel Mac OS X 10_15_7) AppleWebKit/537.36 (KHTML, like Gecko) Chrome/134.0.0.0 Safari/537.36","Macintosh","Chrome","134.0.0.0","OS X","10_15_7","https://hz8g1ckzuq.cognition.run/","en-US,en;q=0.9","l6p1eko58psoh13","56","[""White""]","No","Male","2386307","null","","<p></p>","null","choice","dct","repulsion_2","2","laptops","null","null","null","null","null","null","1","","","","","","","","","",""
"","","","","","choice_trial","survey-html-form","111","2027624","0.0-5.0-1.13","142","1","2025-04-14 14:13:21","bb671e3ae32f654b8954ea4c4635f915","","Mozilla/5.0 (Macintosh; Intel Mac OS X 10_15_7) AppleWebKit/537.36 (KHTML, like Gecko) Chrome/134.0.0.0 Safari/537.36","Macintosh","Chrome","134.0.0.0","OS X","10_15_7","https://hz8g1ckzuq.cognition.run/","en-US,en;q=0.9","l6p1eko58psoh13","56","[""White""]","No","Male","2386307","5185","","","{""product_choice"":""B""}","choice","dct","repulsion_2","2","laptops","null","null","null","null","null","null","1","30","40","20","100","90","100","Processing speed","Memory (RAM)","",""
"","","","","","choice_trial_setup","html-keyboard-response","112","2027931","0.0-5.0-0.14","142","1","2025-04-14 14:13:21","bb671e3ae32f654b8954ea4c4635f915","","Mozilla/5.0 (Macintosh; Intel Mac OS X 10_15_7) AppleWebKit/537.36 (KHTML, like Gecko) Chrome/134.0.0.0 Safari/537.36","Macintosh","Chrome","134.0.0.0","OS X","10_15_7","https://hz8g1ckzuq.cognition.run/","en-US,en;q=0.9","l6p1eko58psoh13","56","[""White""]","No","Male","2386307","null","","<p></p>","null","choice","ctd","attraction_2","2","televisions","null","null","null","null","null","null","2","","","","","","","","","",""
"","","","","","choice_trial","survey-html-form","113","2033770","0.0-5.0-1.14","142","1","2025-04-14 14:13:21","bb671e3ae32f654b8954ea4c4635f915","","Mozilla/5.0 (Macintosh; Intel Mac OS X 10_15_7) AppleWebKit/537.36 (KHTML, like Gecko) Chrome/134.0.0.0 Safari/537.36","Macintosh","Chrome","134.0.0.0","OS X","10_15_7","https://hz8g1ckzuq.cognition.run/","en-US,en;q=0.9","l6p1eko58psoh13","56","[""White""]","No","Male","2386307","5835","","","{""product_choice"":""A""}","choice","ctd","attraction_2","2","televisions","null","null","null","null","null","null","2","50","60","40","60","50","60","Screen size","Average lifespan","",""
"","","","","","choice_trial_setup","html-keyboard-response","114","2034075","0.0-5.0-0.15","142","1","2025-04-14 14:13:21","bb671e3ae32f654b8954ea4c4635f915","","Mozilla/5.0 (Macintosh; Intel Mac OS X 10_15_7) AppleWebKit/537.36 (KHTML, like Gecko) Chrome/134.0.0.0 Safari/537.36","Macintosh","Chrome","134.0.0.0","OS X","10_15_7","https://hz8g1ckzuq.cognition.run/","en-US,en;q=0.9","l6p1eko58psoh13","56","[""White""]","No","Male","2386307","null","","<p></p>","null","choice","dtc","repulsion_1","2","microwave ovens","null","null","null","null","null","null","2","","","","","","","","","",""
"","","","","","choice_trial","survey-html-form","115","2038342","0.0-5.0-1.15","142","1","2025-04-14 14:13:21","bb671e3ae32f654b8954ea4c4635f915","","Mozilla/5.0 (Macintosh; Intel Mac OS X 10_15_7) AppleWebKit/537.36 (KHTML, like Gecko) Chrome/134.0.0.0 Safari/537.36","Macintosh","Chrome","134.0.0.0","OS X","10_15_7","https://hz8g1ckzuq.cognition.run/","en-US,en;q=0.9","l6p1eko58psoh13","56","[""White""]","No","Male","2386307","4262","","","{""product_choice"":""B""}","choice","dtc","repulsion_1","2","microwave ovens","null","null","null","null","null","null","2","30","40","25","100","90","100","Warranty","Cooking power","",""
"","","","","","choice_trial_setup","html-keyboard-response","116","2038652","0.0-5.0-0.16","142","1","2025-04-14 14:13:21","bb671e3ae32f654b8954ea4c4635f915","","Mozilla/5.0 (Macintosh; Intel Mac OS X 10_15_7) AppleWebKit/537.36 (KHTML, like Gecko) Chrome/134.0.0.0 Safari/537.36","Macintosh","Chrome","134.0.0.0","OS X","10_15_7","https://hz8g1ckzuq.cognition.run/","en-US,en;q=0.9","l6p1eko58psoh13","56","[""White""]","No","Male","2386307","null","","<p></p>","null","choice","wwb","catch","null","washing machines","60","75","20","50","40","30","1","","","","","","","","","",""
"","","","","","choice_trial","survey-html-form","117","2054949","0.0-5.0-1.16","142","1","2025-04-14 14:13:21","bb671e3ae32f654b8954ea4c4635f915","","Mozilla/5.0 (Macintosh; Intel Mac OS X 10_15_7) AppleWebKit/537.36 (KHTML, like Gecko) Chrome/134.0.0.0 Safari/537.36","Macintosh","Chrome","134.0.0.0","OS X","10_15_7","https://hz8g1ckzuq.cognition.run/","en-US,en;q=0.9","l6p1eko58psoh13","56","[""White""]","No","Male","2386307","16291","","","{""product_choice"":""C""}","choice","wwb","catch","null","washing machines","60","75","20","50","40","30","1","null","null","null","null","null","null","Average lifespan","Energy savings","",""
"","","","","","choice_trial_setup","html-keyboard-response","118","2055258","0.0-5.0-0.17","142","1","2025-04-14 14:13:21","bb671e3ae32f654b8954ea4c4635f915","","Mozilla/5.0 (Macintosh; Intel Mac OS X 10_15_7) AppleWebKit/537.36 (KHTML, like Gecko) Chrome/134.0.0.0 Safari/537.36","Macintosh","Chrome","134.0.0.0","OS X","10_15_7","https://hz8g1ckzuq.cognition.run/","en-US,en;q=0.9","l6p1eko58psoh13","56","[""White""]","No","Male","2386307","null","","<p></p>","null","choice","tdc","attraction_2","1","televisions","null","null","null","null","null","null","1","","","","","","","","","",""
"","","","","","choice_trial","survey-html-form","119","2070047","0.0-5.0-1.17","142","1","2025-04-14 14:13:21","bb671e3ae32f654b8954ea4c4635f915","","Mozilla/5.0 (Macintosh; Intel Mac OS X 10_15_7) AppleWebKit/537.36 (KHTML, like Gecko) Chrome/134.0.0.0 Safari/537.36","Macintosh","Chrome","134.0.0.0","OS X","10_15_7","https://hz8g1ckzuq.cognition.run/","en-US,en;q=0.9","l6p1eko58psoh13","56","[""White""]","No","Male","2386307","14783","","","{""product_choice"":""A""}","choice","tdc","attraction_2","1","televisions","null","null","null","null","null","null","1","60","50","60","50","60","40","Screen size","Average lifespan","",""
"","","","","","choice_trial_setup","html-keyboard-response","120","2070354","0.0-5.0-0.18","142","1","2025-04-14 14:13:21","bb671e3ae32f654b8954ea4c4635f915","","Mozilla/5.0 (Macintosh; Intel Mac OS X 10_15_7) AppleWebKit/537.36 (KHTML, like Gecko) Chrome/134.0.0.0 Safari/537.36","Macintosh","Chrome","134.0.0.0","OS X","10_15_7","https://hz8g1ckzuq.cognition.run/","en-US,en;q=0.9","l6p1eko58psoh13","56","[""White""]","No","Male","2386307","null","","<p></p>","null","choice","cdt","repulsion_1","1","microwave ovens","null","null","null","null","null","null","1","","","","","","","","","",""
"","","","","","choice_trial","survey-html-form","121","2081180","0.0-5.0-1.18","142","1","2025-04-14 14:13:21","bb671e3ae32f654b8954ea4c4635f915","","Mozilla/5.0 (Macintosh; Intel Mac OS X 10_15_7) AppleWebKit/537.36 (KHTML, like Gecko) Chrome/134.0.0.0 Safari/537.36","Macintosh","Chrome","134.0.0.0","OS X","10_15_7","https://hz8g1ckzuq.cognition.run/","en-US,en;q=0.9","l6p1eko58psoh13","56","[""White""]","No","Male","2386307","10820","","","{""product_choice"":""A""}","choice","cdt","repulsion_1","1","microwave ovens","null","null","null","null","null","null","1","100","90","100","30","40","25","Warranty","Cooking power","",""
"","","","","","choice_trial_setup","html-keyboard-response","122","2081486","0.0-5.0-0.19","142","1","2025-04-14 14:13:21","bb671e3ae32f654b8954ea4c4635f915","","Mozilla/5.0 (Macintosh; Intel Mac OS X 10_15_7) AppleWebKit/537.36 (KHTML, like Gecko) Chrome/134.0.0.0 Safari/537.36","Macintosh","Chrome","134.0.0.0","OS X","10_15_7","https://hz8g1ckzuq.cognition.run/","en-US,en;q=0.9","l6p1eko58psoh13","56","[""White""]","No","Male","2386307","null","","<p></p>","null","choice","tcd","attraction_2","1","laptops","null","null","null","null","null","null","2","","","","","","","","","",""
"","","","","","choice_trial","survey-html-form","123","2091652","0.0-5.0-1.19","142","1","2025-04-14 14:13:21","bb671e3ae32f654b8954ea4c4635f915","","Mozilla/5.0 (Macintosh; Intel Mac OS X 10_15_7) AppleWebKit/537.36 (KHTML, like Gecko) Chrome/134.0.0.0 Safari/537.36","Macintosh","Chrome","134.0.0.0","OS X","10_15_7","https://hz8g1ckzuq.cognition.run/","en-US,en;q=0.9","l6p1eko58psoh13","56","[""White""]","No","Male","2386307","10162","","","{""product_choice"":""A""}","choice","tcd","attraction_2","1","laptops","null","null","null","null","null","null","2","60","50","60","50","60","40","Processing speed","Memory (RAM)","",""
"","","","","","choice_trial_setup","html-keyboard-response","124","2091963","0.0-5.0-0.20","142","1","2025-04-14 14:13:21","bb671e3ae32f654b8954ea4c4635f915","","Mozilla/5.0 (Macintosh; Intel Mac OS X 10_15_7) AppleWebKit/537.36 (KHTML, like Gecko) Chrome/134.0.0.0 Safari/537.36","Macintosh","Chrome","134.0.0.0","OS X","10_15_7","https://hz8g1ckzuq.cognition.run/","en-US,en;q=0.9","l6p1eko58psoh13","56","[""White""]","No","Male","2386307","null","","<p></p>","null","choice","wwb","catch","null","microwave ovens","75","90","30","35","5","5","1","","","","","","","","","",""
"","","","","","choice_trial","survey-html-form","125","2101376","0.0-5.0-1.20","142","1","2025-04-14 14:13:21","bb671e3ae32f654b8954ea4c4635f915","","Mozilla/5.0 (Macintosh; Intel Mac OS X 10_15_7) AppleWebKit/537.36 (KHTML, like Gecko) Chrome/134.0.0.0 Safari/537.36","Macintosh","Chrome","134.0.0.0","OS X","10_15_7","https://hz8g1ckzuq.cognition.run/","en-US,en;q=0.9","l6p1eko58psoh13","56","[""White""]","No","Male","2386307","9407","","","{""product_choice"":""C""}","choice","wwb","catch","null","microwave ovens","75","90","30","35","5","5","1","null","null","null","null","null","null","Warranty","Cooking power","",""
"","","","","","choice_trial_setup","html-keyboard-response","126","2101685","0.0-5.0-0.21","142","1","2025-04-14 14:13:21","bb671e3ae32f654b8954ea4c4635f915","","Mozilla/5.0 (Macintosh; Intel Mac OS X 10_15_7) AppleWebKit/537.36 (KHTML, like Gecko) Chrome/134.0.0.0 Safari/537.36","Macintosh","Chrome","134.0.0.0","OS X","10_15_7","https://hz8g1ckzuq.cognition.run/","en-US,en;q=0.9","l6p1eko58psoh13","56","[""White""]","No","Male","2386307","null","","<p></p>","null","choice","tcd","repulsion_1","1","washing machines","null","null","null","null","null","null","2","","","","","","","","","",""
"","","","","","choice_trial","survey-html-form","127","2110572","0.0-5.0-1.21","142","1","2025-04-14 14:13:21","bb671e3ae32f654b8954ea4c4635f915","","Mozilla/5.0 (Macintosh; Intel Mac OS X 10_15_7) AppleWebKit/537.36 (KHTML, like Gecko) Chrome/134.0.0.0 Safari/537.36","Macintosh","Chrome","134.0.0.0","OS X","10_15_7","https://hz8g1ckzuq.cognition.run/","en-US,en;q=0.9","l6p1eko58psoh13","56","[""White""]","No","Male","2386307","8881","","","{""product_choice"":""B""}","choice","tcd","repulsion_1","1","washing machines","null","null","null","null","null","null","2","100","90","100","30","40","25","Average lifespan","Energy savings","",""
"","","","","","choice_trial_setup","html-keyboard-response","128","2110878","0.0-5.0-0.22","142","1","2025-04-14 14:13:21","bb671e3ae32f654b8954ea4c4635f915","","Mozilla/5.0 (Macintosh; Intel Mac OS X 10_15_7) AppleWebKit/537.36 (KHTML, like Gecko) Chrome/134.0.0.0 Safari/537.36","Macintosh","Chrome","134.0.0.0","OS X","10_15_7","https://hz8g1ckzuq.cognition.run/","en-US,en;q=0.9","l6p1eko58psoh13","56","[""White""]","No","Male","2386307","null","","<p></p>","null","choice","tcd","attraction_1","1","washing machines","null","null","null","null","null","null","1","","","","","","","","","",""
"","","","","","choice_trial","survey-html-form","129","2119425","0.0-5.0-1.22","142","1","2025-04-14 14:13:21","bb671e3ae32f654b8954ea4c4635f915","","Mozilla/5.0 (Macintosh; Intel Mac OS X 10_15_7) AppleWebKit/537.36 (KHTML, like Gecko) Chrome/134.0.0.0 Safari/537.36","Macintosh","Chrome","134.0.0.0","OS X","10_15_7","https://hz8g1ckzuq.cognition.run/","en-US,en;q=0.9","l6p1eko58psoh13","56","[""White""]","No","Male","2386307","8541","","","{""product_choice"":""B""}","choice","tcd","attraction_1","1","washing machines","null","null","null","null","null","null","1","60","50","60","50","60","45","Average lifespan","Energy savings","",""
"","","","","","choice_trial_setup","html-keyboard-response","130","2119732","0.0-5.0-0.23","142","1","2025-04-14 14:13:21","bb671e3ae32f654b8954ea4c4635f915","","Mozilla/5.0 (Macintosh; Intel Mac OS X 10_15_7) AppleWebKit/537.36 (KHTML, like Gecko) Chrome/134.0.0.0 Safari/537.36","Macintosh","Chrome","134.0.0.0","OS X","10_15_7","https://hz8g1ckzuq.cognition.run/","en-US,en;q=0.9","l6p1eko58psoh13","56","[""White""]","No","Male","2386307","null","","<p></p>","null","choice","tdc","attraction_2","2","microwave ovens","null","null","null","null","null","null","2","","","","","","","","","",""
"","","","","","choice_trial","survey-html-form","131","2128357","0.0-5.0-1.23","142","1","2025-04-14 14:13:21","bb671e3ae32f654b8954ea4c4635f915","","Mozilla/5.0 (Macintosh; Intel Mac OS X 10_15_7) AppleWebKit/537.36 (KHTML, like Gecko) Chrome/134.0.0.0 Safari/537.36","Macintosh","Chrome","134.0.0.0","OS X","10_15_7","https://hz8g1ckzuq.cognition.run/","en-US,en;q=0.9","l6p1eko58psoh13","56","[""White""]","No","Male","2386307","8619","","","{""product_choice"":""A""}","choice","tdc","attraction_2","2","microwave ovens","null","null","null","null","null","null","2","50","60","40","60","50","60","Warranty","Cooking power","",""
"","","","","","choice_trial_setup","html-keyboard-response","132","2128664","0.0-5.0-0.24","142","1","2025-04-14 14:13:21","bb671e3ae32f654b8954ea4c4635f915","","Mozilla/5.0 (Macintosh; Intel Mac OS X 10_15_7) AppleWebKit/537.36 (KHTML, like Gecko) Chrome/134.0.0.0 Safari/537.36","Macintosh","Chrome","134.0.0.0","OS X","10_15_7","https://hz8g1ckzuq.cognition.run/","en-US,en;q=0.9","l6p1eko58psoh13","56","[""White""]","No","Male","2386307","null","","<p></p>","null","choice","cdt","attraction_1","2","microwave ovens","null","null","null","null","null","null","2","","","","","","","","","",""
"","","","","","choice_trial","survey-html-form","133","2134646","0.0-5.0-1.24","142","1","2025-04-14 14:13:21","bb671e3ae32f654b8954ea4c4635f915","","Mozilla/5.0 (Macintosh; Intel Mac OS X 10_15_7) AppleWebKit/537.36 (KHTML, like Gecko) Chrome/134.0.0.0 Safari/537.36","Macintosh","Chrome","134.0.0.0","OS X","10_15_7","https://hz8g1ckzuq.cognition.run/","en-US,en;q=0.9","l6p1eko58psoh13","56","[""White""]","No","Male","2386307","5975","","","{""product_choice"":""C""}","choice","cdt","attraction_1","2","microwave ovens","null","null","null","null","null","null","2","50","60","45","60","50","60","Warranty","Cooking power","",""
"","","","","","choice_trial_setup","html-keyboard-response","134","2134952","0.0-5.0-0.25","142","1","2025-04-14 14:13:21","bb671e3ae32f654b8954ea4c4635f915","","Mozilla/5.0 (Macintosh; Intel Mac OS X 10_15_7) AppleWebKit/537.36 (KHTML, like Gecko) Chrome/134.0.0.0 Safari/537.36","Macintosh","Chrome","134.0.0.0","OS X","10_15_7","https://hz8g1ckzuq.cognition.run/","en-US,en;q=0.9","l6p1eko58psoh13","56","[""White""]","No","Male","2386307","null","","<p></p>","null","choice","dtc","attraction_1","2","laptops","null","null","null","null","null","null","2","","","","","","","","","",""
"","","","","","choice_trial","survey-html-form","135","2140704","0.0-5.0-1.25","142","1","2025-04-14 14:13:21","bb671e3ae32f654b8954ea4c4635f915","","Mozilla/5.0 (Macintosh; Intel Mac OS X 10_15_7) AppleWebKit/537.36 (KHTML, like Gecko) Chrome/134.0.0.0 Safari/537.36","Macintosh","Chrome","134.0.0.0","OS X","10_15_7","https://hz8g1ckzuq.cognition.run/","en-US,en;q=0.9","l6p1eko58psoh13","56","[""White""]","No","Male","2386307","5746","","","{""product_choice"":""C""}","choice","dtc","attraction_1","2","laptops","null","null","null","null","null","null","2","50","60","45","60","50","60","Processing speed","Memory (RAM)","",""
"","","","","","choice_trial_setup","html-keyboard-response","136","2141010","0.0-5.0-0.26","142","1","2025-04-14 14:13:21","bb671e3ae32f654b8954ea4c4635f915","","Mozilla/5.0 (Macintosh; Intel Mac OS X 10_15_7) AppleWebKit/537.36 (KHTML, like Gecko) Chrome/134.0.0.0 Safari/537.36","Macintosh","Chrome","134.0.0.0","OS X","10_15_7","https://hz8g1ckzuq.cognition.run/","en-US,en;q=0.9","l6p1eko58psoh13","56","[""White""]","No","Male","2386307","null","","<p></p>","null","choice","tcd","repulsion_1","2","televisions","null","null","null","null","null","null","1","","","","","","","","","",""
"","","","","","choice_trial","survey-html-form","137","2146801","0.0-5.0-1.26","142","1","2025-04-14 14:13:21","bb671e3ae32f654b8954ea4c4635f915","","Mozilla/5.0 (Macintosh; Intel Mac OS X 10_15_7) AppleWebKit/537.36 (KHTML, like Gecko) Chrome/134.0.0.0 Safari/537.36","Macintosh","Chrome","134.0.0.0","OS X","10_15_7","https://hz8g1ckzuq.cognition.run/","en-US,en;q=0.9","l6p1eko58psoh13","56","[""White""]","No","Male","2386307","5784","","","{""product_choice"":""B""}","choice","tcd","repulsion_1","2","televisions","null","null","null","null","null","null","1","30","40","25","100","90","100","Screen size","Average lifespan","",""
"","","","","","choice_trial_setup","html-keyboard-response","138","2147108","0.0-5.0-0.27","142","1","2025-04-14 14:13:21","bb671e3ae32f654b8954ea4c4635f915","","Mozilla/5.0 (Macintosh; Intel Mac OS X 10_15_7) AppleWebKit/537.36 (KHTML, like Gecko) Chrome/134.0.0.0 Safari/537.36","Macintosh","Chrome","134.0.0.0","OS X","10_15_7","https://hz8g1ckzuq.cognition.run/","en-US,en;q=0.9","l6p1eko58psoh13","56","[""White""]","No","Male","2386307","null","","<p></p>","null","choice","dct","attraction_1","1","televisions","null","null","null","null","null","null","1","","","","","","","","","",""
"","","","","","choice_trial","survey-html-form","139","2153025","0.0-5.0-1.27","142","1","2025-04-14 14:13:21","bb671e3ae32f654b8954ea4c4635f915","","Mozilla/5.0 (Macintosh; Intel Mac OS X 10_15_7) AppleWebKit/537.36 (KHTML, like Gecko) Chrome/134.0.0.0 Safari/537.36","Macintosh","Chrome","134.0.0.0","OS X","10_15_7","https://hz8g1ckzuq.cognition.run/","en-US,en;q=0.9","l6p1eko58psoh13","56","[""White""]","No","Male","2386307","5911","","","{""product_choice"":""C""}","choice","dct","attraction_1","1","televisions","null","null","null","null","null","null","1","60","50","60","50","60","45","Screen size","Average lifespan","",""
"","","","","","choice_trial_setup","html-keyboard-response","140","2153332","0.0-5.0-0.28","142","1","2025-04-14 14:13:21","bb671e3ae32f654b8954ea4c4635f915","","Mozilla/5.0 (Macintosh; Intel Mac OS X 10_15_7) AppleWebKit/537.36 (KHTML, like Gecko) Chrome/134.0.0.0 Safari/537.36","Macintosh","Chrome","134.0.0.0","OS X","10_15_7","https://hz8g1ckzuq.cognition.run/","en-US,en;q=0.9","l6p1eko58psoh13","56","[""White""]","No","Male","2386307","null","","<p></p>","null","choice","wbw","catch","null","televisions","85","60","40","35","5","15","2","","","","","","","","","",""
"","","","","","choice_trial","survey-html-form","141","2159654","0.0-5.0-1.28","142","1","2025-04-14 14:13:21","bb671e3ae32f654b8954ea4c4635f915","","Mozilla/5.0 (Macintosh; Intel Mac OS X 10_15_7) AppleWebKit/537.36 (KHTML, like Gecko) Chrome/134.0.0.0 Safari/537.36","Macintosh","Chrome","134.0.0.0","OS X","10_15_7","https://hz8g1ckzuq.cognition.run/","en-US,en;q=0.9","l6p1eko58psoh13","56","[""White""]","No","Male","2386307","6315","","","{""product_choice"":""B""}","choice","wbw","catch","null","televisions","85","60","40","35","5","15","2","null","null","null","null","null","null","Screen size","Average lifespan","",""
"","","","","","choice_trial_setup","html-keyboard-response","142","2159962","0.0-5.0-0.29","142","1","2025-04-14 14:13:21","bb671e3ae32f654b8954ea4c4635f915","","Mozilla/5.0 (Macintosh; Intel Mac OS X 10_15_7) AppleWebKit/537.36 (KHTML, like Gecko) Chrome/134.0.0.0 Safari/537.36","Macintosh","Chrome","134.0.0.0","OS X","10_15_7","https://hz8g1ckzuq.cognition.run/","en-US,en;q=0.9","l6p1eko58psoh13","56","[""White""]","No","Male","2386307","null","","<p></p>","null","choice","tcd","attraction_2","1","microwave ovens","null","null","null","null","null","null","1","","","","","","","","","",""
"","","","","","choice_trial","survey-html-form","143","2166494","0.0-5.0-1.29","142","1","2025-04-14 14:13:21","bb671e3ae32f654b8954ea4c4635f915","","Mozilla/5.0 (Macintosh; Intel Mac OS X 10_15_7) AppleWebKit/537.36 (KHTML, like Gecko) Chrome/134.0.0.0 Safari/537.36","Macintosh","Chrome","134.0.0.0","OS X","10_15_7","https://hz8g1ckzuq.cognition.run/","en-US,en;q=0.9","l6p1eko58psoh13","56","[""White""]","No","Male","2386307","6527","","","{""product_choice"":""B""}","choice","tcd","attraction_2","1","microwave ovens","null","null","null","null","null","null","1","60","50","60","50","60","40","Warranty","Cooking power","",""
"","","","","","choice_trial_setup","html-keyboard-response","144","2166801","0.0-5.0-0.30","142","1","2025-04-14 14:13:21","bb671e3ae32f654b8954ea4c4635f915","","Mozilla/5.0 (Macintosh; Intel Mac OS X 10_15_7) AppleWebKit/537.36 (KHTML, like Gecko) Chrome/134.0.0.0 Safari/537.36","Macintosh","Chrome","134.0.0.0","OS X","10_15_7","https://hz8g1ckzuq.cognition.run/","en-US,en;q=0.9","l6p1eko58psoh13","56","[""White""]","No","Male","2386307","null","","<p></p>","null","choice","cdt","repulsion_2","2","washing machines","null","null","null","null","null","null","2","","","","","","","","","",""
"","","","","","choice_trial","survey-html-form","145","2176670","0.0-5.0-1.30","142","1","2025-04-14 14:13:21","bb671e3ae32f654b8954ea4c4635f915","","Mozilla/5.0 (Macintosh; Intel Mac OS X 10_15_7) AppleWebKit/537.36 (KHTML, like Gecko) Chrome/134.0.0.0 Safari/537.36","Macintosh","Chrome","134.0.0.0","OS X","10_15_7","https://hz8g1ckzuq.cognition.run/","en-US,en;q=0.9","l6p1eko58psoh13","56","[""White""]","No","Male","2386307","9862","","","{""product_choice"":""C""}","choice","cdt","repulsion_2","2","washing machines","null","null","null","null","null","null","2","30","40","20","100","90","100","Average lifespan","Energy savings","",""
"","","","","","choice_trial_setup","html-keyboard-response","146","2176977","0.0-5.0-0.31","142","1","2025-04-14 14:13:21","bb671e3ae32f654b8954ea4c4635f915","","Mozilla/5.0 (Macintosh; Intel Mac OS X 10_15_7) AppleWebKit/537.36 (KHTML, like Gecko) Chrome/134.0.0.0 Safari/537.36","Macintosh","Chrome","134.0.0.0","OS X","10_15_7","https://hz8g1ckzuq.cognition.run/","en-US,en;q=0.9","l6p1eko58psoh13","56","[""White""]","No","Male","2386307","null","","<p></p>","null","choice","ctd","repulsion_2","1","laptops","null","null","null","null","null","null","1","","","","","","","","","",""
"","","","","","choice_trial","survey-html-form","147","2202165","0.0-5.0-1.31","142","1","2025-04-14 14:13:21","bb671e3ae32f654b8954ea4c4635f915","","Mozilla/5.0 (Macintosh; Intel Mac OS X 10_15_7) AppleWebKit/537.36 (KHTML, like Gecko) Chrome/134.0.0.0 Safari/537.36","Macintosh","Chrome","134.0.0.0","OS X","10_15_7","https://hz8g1ckzuq.cognition.run/","en-US,en;q=0.9","l6p1eko58psoh13","56","[""White""]","No","Male","2386307","25182","","","{""product_choice"":""B""}","choice","ctd","repulsion_2","1","laptops","null","null","null","null","null","null","1","100","90","100","30","40","20","Processing speed","Memory (RAM)","",""
"","","","","","choice_trial_setup","html-keyboard-response","148","2202473","0.0-5.0-0.32","142","1","2025-04-14 14:13:21","bb671e3ae32f654b8954ea4c4635f915","","Mozilla/5.0 (Macintosh; Intel Mac OS X 10_15_7) AppleWebKit/537.36 (KHTML, like Gecko) Chrome/134.0.0.0 Safari/537.36","Macintosh","Chrome","134.0.0.0","OS X","10_15_7","https://hz8g1ckzuq.cognition.run/","en-US,en;q=0.9","l6p1eko58psoh13","56","[""White""]","No","Male","2386307","null","","<p></p>","null","choice","wwb","catch","null","televisions","70","65","40","10","20","40","1","","","","","","","","","",""
"","","","","","choice_trial","survey-html-form","149","2206429","0.0-5.0-1.32","142","1","2025-04-14 14:13:21","bb671e3ae32f654b8954ea4c4635f915","","Mozilla/5.0 (Macintosh; Intel Mac OS X 10_15_7) AppleWebKit/537.36 (KHTML, like Gecko) Chrome/134.0.0.0 Safari/537.36","Macintosh","Chrome","134.0.0.0","OS X","10_15_7","https://hz8g1ckzuq.cognition.run/","en-US,en;q=0.9","l6p1eko58psoh13","56","[""White""]","No","Male","2386307","3950","","","{""product_choice"":""C""}","choice","wwb","catch","null","televisions","70","65","40","10","20","40","1","null","null","null","null","null","null","Screen size","Average lifespan","",""
"","","","","","choice_trial_setup","html-keyboard-response","150","2206738","0.0-5.0-0.33","142","1","2025-04-14 14:13:21","bb671e3ae32f654b8954ea4c4635f915","","Mozilla/5.0 (Macintosh; Intel Mac OS X 10_15_7) AppleWebKit/537.36 (KHTML, like Gecko) Chrome/134.0.0.0 Safari/537.36","Macintosh","Chrome","134.0.0.0","OS X","10_15_7","https://hz8g1ckzuq.cognition.run/","en-US,en;q=0.9","l6p1eko58psoh13","56","[""White""]","No","Male","2386307","null","","<p></p>","null","choice","tcd","attraction_2","2","laptops","null","null","null","null","null","null","1","","","","","","","","","",""
"","","","","","choice_trial","survey-html-form","151","2211946","0.0-5.0-1.33","142","1","2025-04-14 14:13:21","bb671e3ae32f654b8954ea4c4635f915","","Mozilla/5.0 (Macintosh; Intel Mac OS X 10_15_7) AppleWebKit/537.36 (KHTML, like Gecko) Chrome/134.0.0.0 Safari/537.36","Macintosh","Chrome","134.0.0.0","OS X","10_15_7","https://hz8g1ckzuq.cognition.run/","en-US,en;q=0.9","l6p1eko58psoh13","56","[""White""]","No","Male","2386307","5200","","","{""product_choice"":""B""}","choice","tcd","attraction_2","2","laptops","null","null","null","null","null","null","1","50","60","40","60","50","60","Processing speed","Memory (RAM)","",""
"","","","","","choice_trial_setup","html-keyboard-response","152","2212254","0.0-5.0-0.34","142","1","2025-04-14 14:13:21","bb671e3ae32f654b8954ea4c4635f915","","Mozilla/5.0 (Macintosh; Intel Mac OS X 10_15_7) AppleWebKit/537.36 (KHTML, like Gecko) Chrome/134.0.0.0 Safari/537.36","Macintosh","Chrome","134.0.0.0","OS X","10_15_7","https://hz8g1ckzuq.cognition.run/","en-US,en;q=0.9","l6p1eko58psoh13","56","[""White""]","No","Male","2386307","null","","<p></p>","null","choice","wbw","catch","null","laptops","80","75","50","15","10","20","1","","","","","","","","","",""
"","","","","","choice_trial","survey-html-form","153","2217130","0.0-5.0-1.34","142","1","2025-04-14 14:13:21","bb671e3ae32f654b8954ea4c4635f915","","Mozilla/5.0 (Macintosh; Intel Mac OS X 10_15_7) AppleWebKit/537.36 (KHTML, like Gecko) Chrome/134.0.0.0 Safari/537.36","Macintosh","Chrome","134.0.0.0","OS X","10_15_7","https://hz8g1ckzuq.cognition.run/","en-US,en;q=0.9","l6p1eko58psoh13","56","[""White""]","No","Male","2386307","4868","","","{""product_choice"":""B""}","choice","wbw","catch","null","laptops","80","75","50","15","10","20","1","null","null","null","null","null","null","Processing speed","Memory (RAM)","",""
"","","","","","choice_trial_setup","html-keyboard-response","154","2217439","0.0-5.0-0.35","142","1","2025-04-14 14:13:21","bb671e3ae32f654b8954ea4c4635f915","","Mozilla/5.0 (Macintosh; Intel Mac OS X 10_15_7) AppleWebKit/537.36 (KHTML, like Gecko) Chrome/134.0.0.0 Safari/537.36","Macintosh","Chrome","134.0.0.0","OS X","10_15_7","https://hz8g1ckzuq.cognition.run/","en-US,en;q=0.9","l6p1eko58psoh13","56","[""White""]","No","Male","2386307","null","","<p></p>","null","choice","dtc","attraction_1","2","washing machines","null","null","null","null","null","null","2","","","","","","","","","",""
"","","","","","choice_trial","survey-html-form","155","2223765","0.0-5.0-1.35","142","1","2025-04-14 14:13:21","bb671e3ae32f654b8954ea4c4635f915","","Mozilla/5.0 (Macintosh; Intel Mac OS X 10_15_7) AppleWebKit/537.36 (KHTML, like Gecko) Chrome/134.0.0.0 Safari/537.36","Macintosh","Chrome","134.0.0.0","OS X","10_15_7","https://hz8g1ckzuq.cognition.run/","en-US,en;q=0.9","l6p1eko58psoh13","56","[""White""]","No","Male","2386307","6318","","","{""product_choice"":""B""}","choice","dtc","attraction_1","2","washing machines","null","null","null","null","null","null","2","50","60","45","60","50","60","Average lifespan","Energy savings","",""
"","","","","","choice_trial_setup","html-keyboard-response","156","2224072","0.0-5.0-0.36","142","1","2025-04-14 14:13:21","bb671e3ae32f654b8954ea4c4635f915","","Mozilla/5.0 (Macintosh; Intel Mac OS X 10_15_7) AppleWebKit/537.36 (KHTML, like Gecko) Chrome/134.0.0.0 Safari/537.36","Macintosh","Chrome","134.0.0.0","OS X","10_15_7","https://hz8g1ckzuq.cognition.run/","en-US,en;q=0.9","l6p1eko58psoh13","56","[""White""]","No","Male","2386307","null","","<p></p>","null","choice","bww","catch","null","washing machines","80","55","20","30","5","35","1","","","","","","","","","",""
"","","","","","choice_trial","survey-html-form","157","2228250","0.0-5.0-1.36","142","1","2025-04-14 14:13:21","bb671e3ae32f654b8954ea4c4635f915","","Mozilla/5.0 (Macintosh; Intel Mac OS X 10_15_7) AppleWebKit/537.36 (KHTML, like Gecko) Chrome/134.0.0.0 Safari/537.36","Macintosh","Chrome","134.0.0.0","OS X","10_15_7","https://hz8g1ckzuq.cognition.run/","en-US,en;q=0.9","l6p1eko58psoh13","56","[""White""]","No","Male","2386307","4172","","","{""product_choice"":""A""}","choice","bww","catch","null","washing machines","80","55","20","30","5","35","1","null","null","null","null","null","null","Average lifespan","Energy savings","",""
