"success","timeout","failed_images","failed_audio","failed_video","screen_id","trial_type","trial_index","time_elapsed","internal_node_id","run_id","condition","recorded_at","source_code_version","ip","user_agent","device","browser","browser_version","platform","platform_version","referer","accept_language","ppt_id","age","race","ethnicity","gender","exp_duration","rt","view_history","stimulus","response","phase","order","effect","t_high","category","d1_best","d2_best","d1_worst1","d2_worst1","d1_worst2","d2_worst2","first_dim","d1_t","d1_c","d1_d","d2_t","d2_c","d2_d","d1_name","d2_name","strategy_response","question_order"
"true","false","[]","[]","[]","img preload","preload","0","721","0.0-0.0","143","1","2025-04-14 14:13:23","bb671e3ae32f654b8954ea4c4635f915","","Mozilla/5.0 (Macintosh; Intel Mac OS X 10_15_7) AppleWebKit/537.36 (KHTML, like Gecko) Chrome/133.0.0.0 Safari/537.36","Macintosh","Chrome","133.0.0.0","OS X","10_15_7","https://hz8g1ckzuq.cognition.run/","en-US,en;q=0.9","hpx5zb71o41wv7h","29","[""White""]","Yes","Female","2309571.699999988","","","","","","","","","","","","","","","","","","","","","","","","","",""
"true","","","","","","fullscreen","1","7353","0.0-1.0","143","1","2025-04-14 14:13:23","bb671e3ae32f654b8954ea4c4635f915","","Mozilla/5.0 (Macintosh; Intel Mac OS X 10_15_7) AppleWebKit/537.36 (KHTML, like Gecko) Chrome/133.0.0.0 Safari/537.36","Macintosh","Chrome","133.0.0.0","OS X","10_15_7","https://hz8g1ckzuq.cognition.run/","en-US,en;q=0.9","hpx5zb71o41wv7h","29","[""White""]","Yes","Female","2309571.699999988","5629","","","","","","","","","","","","","","","","","","","","","","","","",""
"","","","","","","instructions","2","171681","0.0-2.0","143","1","2025-04-14 14:13:23","bb671e3ae32f654b8954ea4c4635f915","","Mozilla/5.0 (Macintosh; Intel Mac OS X 10_15_7) AppleWebKit/537.36 (KHTML, like Gecko) Chrome/133.0.0.0 Safari/537.36","Macintosh","Chrome","133.0.0.0","OS X","10_15_7","https://hz8g1ckzuq.cognition.run/","en-US,en;q=0.9","hpx5zb71o41wv7h","29","[""White""]","Yes","Female","2309571.699999988","164327","[{""page_index"":0,""viewing_time"":4207},{""page_index"":1,""viewing_time"":6847},{""page_index"":2,""viewing_time"":5168},{""page_index"":3,""viewing_time"":5296},{""page_index"":4,""viewing_time"":39280},{""page_index"":5,""viewing_time"":4967},{""page_index"":6,""viewing_time"":18319},{""page_index"":7,""viewing_time"":65183},{""page_index"":8,""viewing_time"":10379},{""page_index"":9,""viewing_time"":4681}]","","","","","","","","","","","","","","","","","","","","","","","",""
"","","","","","rating_trial_setup","html-keyboard-response","3","171985","0.0-3.0-0.0","143","1","2025-04-14 14:13:23","bb671e3ae32f654b8954ea4c4635f915","","Mozilla/5.0 (Macintosh; Intel Mac OS X 10_15_7) AppleWebKit/537.36 (KHTML, like Gecko) Chrome/133.0.0.0 Safari/537.36","Macintosh","Chrome","133.0.0.0","OS X","10_15_7","https://hz8g1ckzuq.cognition.run/","en-US,en;q=0.9","hpx5zb71o41wv7h","29","[""White""]","Yes","Female","2309571.699999988","null","","<p></p>","null","rating","tdc","attraction_1","1","laptops","null","null","null","null","null","null","1","","","","","","","","","",""
"","","","","","rating_trial","survey-html-form","4","207600","0.0-3.0-1.0","143","1","2025-04-14 14:13:23","bb671e3ae32f654b8954ea4c4635f915","","Mozilla/5.0 (Macintosh; Intel Mac OS X 10_15_7) AppleWebKit/537.36 (KHTML, like Gecko) Chrome/133.0.0.0 Safari/537.36","Macintosh","Chrome","133.0.0.0","OS X","10_15_7","https://hz8g1ckzuq.cognition.run/","en-US,en;q=0.9","hpx5zb71o41wv7h","29","[""White""]","Yes","Female","2309571.699999988","35612","","","{""price_1"":""125"",""price_2"":""100"",""price_3"":""145""}","rating","tdc","attraction_1","1","laptops","null","null","null","null","null","null","1","60","50","60","50","60","45","Processing speed","Memory (RAM)","",""
"","","","","","rating_trial_setup","html-keyboard-response","5","207903","0.0-3.0-0.1","143","1","2025-04-14 14:13:23","bb671e3ae32f654b8954ea4c4635f915","","Mozilla/5.0 (Macintosh; Intel Mac OS X 10_15_7) AppleWebKit/537.36 (KHTML, like Gecko) Chrome/133.0.0.0 Safari/537.36","Macintosh","Chrome","133.0.0.0","OS X","10_15_7","https://hz8g1ckzuq.cognition.run/","en-US,en;q=0.9","hpx5zb71o41wv7h","29","[""White""]","Yes","Female","2309571.699999988","null","","<p></p>","null","rating","tcd","attraction_1","2","microwave ovens","null","null","null","null","null","null","1","","","","","","","","","",""
"","","","","","rating_trial","survey-html-form","6","262581","0.0-3.0-1.1","143","1","2025-04-14 14:13:23","bb671e3ae32f654b8954ea4c4635f915","","Mozilla/5.0 (Macintosh; Intel Mac OS X 10_15_7) AppleWebKit/537.36 (KHTML, like Gecko) Chrome/133.0.0.0 Safari/537.36","Macintosh","Chrome","133.0.0.0","OS X","10_15_7","https://hz8g1ckzuq.cognition.run/","en-US,en;q=0.9","hpx5zb71o41wv7h","29","[""White""]","Yes","Female","2309571.699999988","54677","","","{""price_1"":""70"",""price_2"":""50"",""price_3"":""80""}","rating","tcd","attraction_1","2","microwave ovens","null","null","null","null","null","null","1","50","60","45","60","50","60","Warranty","Cooking power","",""
"","","","","","rating_trial_setup","html-keyboard-response","7","262883","0.0-3.0-0.2","143","1","2025-04-14 14:13:23","bb671e3ae32f654b8954ea4c4635f915","","Mozilla/5.0 (Macintosh; Intel Mac OS X 10_15_7) AppleWebKit/537.36 (KHTML, like Gecko) Chrome/133.0.0.0 Safari/537.36","Macintosh","Chrome","133.0.0.0","OS X","10_15_7","https://hz8g1ckzuq.cognition.run/","en-US,en;q=0.9","hpx5zb71o41wv7h","29","[""White""]","Yes","Female","2309571.699999988","null","","<p></p>","null","rating","tcd","repulsion_2","2","washing machines","null","null","null","null","null","null","1","","","","","","","","","",""
"","","","","","rating_trial","survey-html-form","8","311557","0.0-3.0-1.2","143","1","2025-04-14 14:13:23","bb671e3ae32f654b8954ea4c4635f915","","Mozilla/5.0 (Macintosh; Intel Mac OS X 10_15_7) AppleWebKit/537.36 (KHTML, like Gecko) Chrome/133.0.0.0 Safari/537.36","Macintosh","Chrome","133.0.0.0","OS X","10_15_7","https://hz8g1ckzuq.cognition.run/","en-US,en;q=0.9","hpx5zb71o41wv7h","29","[""White""]","Yes","Female","2309571.699999988","48672","","","{""price_1"":""150"",""price_2"":""200"",""price_3"":""130""}","rating","tcd","repulsion_2","2","washing machines","null","null","null","null","null","null","1","30","40","20","100","90","100","Average lifespan","Energy savings","",""
"","","","","","rating_trial_setup","html-keyboard-response","9","311860","0.0-3.0-0.3","143","1","2025-04-14 14:13:23","bb671e3ae32f654b8954ea4c4635f915","","Mozilla/5.0 (Macintosh; Intel Mac OS X 10_15_7) AppleWebKit/537.36 (KHTML, like Gecko) Chrome/133.0.0.0 Safari/537.36","Macintosh","Chrome","133.0.0.0","OS X","10_15_7","https://hz8g1ckzuq.cognition.run/","en-US,en;q=0.9","hpx5zb71o41wv7h","29","[""White""]","Yes","Female","2309571.699999988","null","","<p></p>","null","rating","wbw","catch","null","laptops","80","50","15","30","35","5","2","","","","","","","","","",""
"","","","","","rating_trial","survey-html-form","10","360975","0.0-3.0-1.3","143","1","2025-04-14 14:13:23","bb671e3ae32f654b8954ea4c4635f915","","Mozilla/5.0 (Macintosh; Intel Mac OS X 10_15_7) AppleWebKit/537.36 (KHTML, like Gecko) Chrome/133.0.0.0 Safari/537.36","Macintosh","Chrome","133.0.0.0","OS X","10_15_7","https://hz8g1ckzuq.cognition.run/","en-US,en;q=0.9","hpx5zb71o41wv7h","29","[""White""]","Yes","Female","2309571.699999988","49113","","","{""price_1"":""80"",""price_2"":""150"",""price_3"":""50""}","rating","wbw","catch","null","laptops","80","50","15","30","35","5","2","null","null","null","null","null","null","Processing speed","Memory (RAM)","",""
"","","","","","rating_trial_setup","html-keyboard-response","11","361276","0.0-3.0-0.4","143","1","2025-04-14 14:13:23","bb671e3ae32f654b8954ea4c4635f915","","Mozilla/5.0 (Macintosh; Intel Mac OS X 10_15_7) AppleWebKit/537.36 (KHTML, like Gecko) Chrome/133.0.0.0 Safari/537.36","Macintosh","Chrome","133.0.0.0","OS X","10_15_7","https://hz8g1ckzuq.cognition.run/","en-US,en;q=0.9","hpx5zb71o41wv7h","29","[""White""]","Yes","Female","2309571.699999988","null","","<p></p>","null","rating","dct","repulsion_1","2","laptops","null","null","null","null","null","null","1","","","","","","","","","",""
"","","","","","rating_trial","survey-html-form","12","386400","0.0-3.0-1.4","143","1","2025-04-14 14:13:23","bb671e3ae32f654b8954ea4c4635f915","","Mozilla/5.0 (Macintosh; Intel Mac OS X 10_15_7) AppleWebKit/537.36 (KHTML, like Gecko) Chrome/133.0.0.0 Safari/537.36","Macintosh","Chrome","133.0.0.0","OS X","10_15_7","https://hz8g1ckzuq.cognition.run/","en-US,en;q=0.9","hpx5zb71o41wv7h","29","[""White""]","Yes","Female","2309571.699999988","25122","","","{""price_1"":""100"",""price_2"":""170"",""price_3"":""130""}","rating","dct","repulsion_1","2","laptops","null","null","null","null","null","null","1","30","40","25","100","90","100","Processing speed","Memory (RAM)","",""
"","","","","","rating_trial_setup","html-keyboard-response","13","386703","0.0-3.0-0.5","143","1","2025-04-14 14:13:23","bb671e3ae32f654b8954ea4c4635f915","","Mozilla/5.0 (Macintosh; Intel Mac OS X 10_15_7) AppleWebKit/537.36 (KHTML, like Gecko) Chrome/133.0.0.0 Safari/537.36","Macintosh","Chrome","133.0.0.0","OS X","10_15_7","https://hz8g1ckzuq.cognition.run/","en-US,en;q=0.9","hpx5zb71o41wv7h","29","[""White""]","Yes","Female","2309571.699999988","null","","<p></p>","null","rating","tcd","repulsion_2","2","microwave ovens","null","null","null","null","null","null","2","","","","","","","","","",""
"","","","","","rating_trial","survey-html-form","14","416634","0.0-3.0-1.5","143","1","2025-04-14 14:13:23","bb671e3ae32f654b8954ea4c4635f915","","Mozilla/5.0 (Macintosh; Intel Mac OS X 10_15_7) AppleWebKit/537.36 (KHTML, like Gecko) Chrome/133.0.0.0 Safari/537.36","Macintosh","Chrome","133.0.0.0","OS X","10_15_7","https://hz8g1ckzuq.cognition.run/","en-US,en;q=0.9","hpx5zb71o41wv7h","29","[""White""]","Yes","Female","2309571.699999988","29929","","","{""price_1"":""85"",""price_2"":""120"",""price_3"":""65""}","rating","tcd","repulsion_2","2","microwave ovens","null","null","null","null","null","null","2","30","40","20","100","90","100","Warranty","Cooking power","",""
"","","","","","rating_trial_setup","html-keyboard-response","15","416937","0.0-3.0-0.6","143","1","2025-04-14 14:13:23","bb671e3ae32f654b8954ea4c4635f915","","Mozilla/5.0 (Macintosh; Intel Mac OS X 10_15_7) AppleWebKit/537.36 (KHTML, like Gecko) Chrome/133.0.0.0 Safari/537.36","Macintosh","Chrome","133.0.0.0","OS X","10_15_7","https://hz8g1ckzuq.cognition.run/","en-US,en;q=0.9","hpx5zb71o41wv7h","29","[""White""]","Yes","Female","2309571.699999988","null","","<p></p>","null","rating","dtc","attraction_1","1","microwave ovens","null","null","null","null","null","null","1","","","","","","","","","",""
"","","","","","rating_trial","survey-html-form","16","491498","0.0-3.0-1.6","143","1","2025-04-14 14:13:23","bb671e3ae32f654b8954ea4c4635f915","","Mozilla/5.0 (Macintosh; Intel Mac OS X 10_15_7) AppleWebKit/537.36 (KHTML, like Gecko) Chrome/133.0.0.0 Safari/537.36","Macintosh","Chrome","133.0.0.0","OS X","10_15_7","https://hz8g1ckzuq.cognition.run/","en-US,en;q=0.9","hpx5zb71o41wv7h","29","[""White""]","Yes","Female","2309571.699999988","74560","","","{""price_1"":""70"",""price_2"":""90"",""price_3"":""120""}","rating","dtc","attraction_1","1","microwave ovens","null","null","null","null","null","null","1","60","50","60","50","60","45","Warranty","Cooking power","",""
"","","","","","rating_trial_setup","html-keyboard-response","17","491802","0.0-3.0-0.7","143","1","2025-04-14 14:13:23","bb671e3ae32f654b8954ea4c4635f915","","Mozilla/5.0 (Macintosh; Intel Mac OS X 10_15_7) AppleWebKit/537.36 (KHTML, like Gecko) Chrome/133.0.0.0 Safari/537.36","Macintosh","Chrome","133.0.0.0","OS X","10_15_7","https://hz8g1ckzuq.cognition.run/","en-US,en;q=0.9","hpx5zb71o41wv7h","29","[""White""]","Yes","Female","2309571.699999988","null","","<p></p>","null","rating","wbw","catch","null","microwave ovens","60","85","20","15","25","10","1","","","","","","","","","",""
"","","","","","rating_trial","survey-html-form","18","522814","0.0-3.0-1.7","143","1","2025-04-14 14:13:23","bb671e3ae32f654b8954ea4c4635f915","","Mozilla/5.0 (Macintosh; Intel Mac OS X 10_15_7) AppleWebKit/537.36 (KHTML, like Gecko) Chrome/133.0.0.0 Safari/537.36","Macintosh","Chrome","133.0.0.0","OS X","10_15_7","https://hz8g1ckzuq.cognition.run/","en-US,en;q=0.9","hpx5zb71o41wv7h","29","[""White""]","Yes","Female","2309571.699999988","31010","","","{""price_1"":""80"",""price_2"":""120"",""price_3"":""65""}","rating","wbw","catch","null","microwave ovens","60","85","20","15","25","10","1","null","null","null","null","null","null","Warranty","Cooking power","",""
"","","","","","rating_trial_setup","html-keyboard-response","19","523116","0.0-3.0-0.8","143","1","2025-04-14 14:13:23","bb671e3ae32f654b8954ea4c4635f915","","Mozilla/5.0 (Macintosh; Intel Mac OS X 10_15_7) AppleWebKit/537.36 (KHTML, like Gecko) Chrome/133.0.0.0 Safari/537.36","Macintosh","Chrome","133.0.0.0","OS X","10_15_7","https://hz8g1ckzuq.cognition.run/","en-US,en;q=0.9","hpx5zb71o41wv7h","29","[""White""]","Yes","Female","2309571.699999988","null","","<p></p>","null","rating","dct","repulsion_2","2","laptops","null","null","null","null","null","null","1","","","","","","","","","",""
"","","","","","rating_trial","survey-html-form","20","552593","0.0-3.0-1.8","143","1","2025-04-14 14:13:23","bb671e3ae32f654b8954ea4c4635f915","","Mozilla/5.0 (Macintosh; Intel Mac OS X 10_15_7) AppleWebKit/537.36 (KHTML, like Gecko) Chrome/133.0.0.0 Safari/537.36","Macintosh","Chrome","133.0.0.0","OS X","10_15_7","https://hz8g1ckzuq.cognition.run/","en-US,en;q=0.9","hpx5zb71o41wv7h","29","[""White""]","Yes","Female","2309571.699999988","29474","","","{""price_1"":""85"",""price_2"":""150"",""price_3"":""120""}","rating","dct","repulsion_2","2","laptops","null","null","null","null","null","null","1","30","40","20","100","90","100","Processing speed","Memory (RAM)","",""
"","","","","","rating_trial_setup","html-keyboard-response","21","552895","0.0-3.0-0.9","143","1","2025-04-14 14:13:23","bb671e3ae32f654b8954ea4c4635f915","","Mozilla/5.0 (Macintosh; Intel Mac OS X 10_15_7) AppleWebKit/537.36 (KHTML, like Gecko) Chrome/133.0.0.0 Safari/537.36","Macintosh","Chrome","133.0.0.0","OS X","10_15_7","https://hz8g1ckzuq.cognition.run/","en-US,en;q=0.9","hpx5zb71o41wv7h","29","[""White""]","Yes","Female","2309571.699999988","null","","<p></p>","null","rating","dct","repulsion_1","2","microwave ovens","null","null","null","null","null","null","2","","","","","","","","","",""
"","","","","","rating_trial","survey-html-form","22","622853","0.0-3.0-1.9","143","1","2025-04-14 14:13:23","bb671e3ae32f654b8954ea4c4635f915","","Mozilla/5.0 (Macintosh; Intel Mac OS X 10_15_7) AppleWebKit/537.36 (KHTML, like Gecko) Chrome/133.0.0.0 Safari/537.36","Macintosh","Chrome","133.0.0.0","OS X","10_15_7","https://hz8g1ckzuq.cognition.run/","en-US,en;q=0.9","hpx5zb71o41wv7h","29","[""White""]","Yes","Female","2309571.699999988","69955","","","{""price_1"":""80"",""price_2"":""110"",""price_3"":""129""}","rating","dct","repulsion_1","2","microwave ovens","null","null","null","null","null","null","2","30","40","25","100","90","100","Warranty","Cooking power","",""
"","","","","","rating_trial_setup","html-keyboard-response","23","623156","0.0-3.0-0.10","143","1","2025-04-14 14:13:23","bb671e3ae32f654b8954ea4c4635f915","","Mozilla/5.0 (Macintosh; Intel Mac OS X 10_15_7) AppleWebKit/537.36 (KHTML, like Gecko) Chrome/133.0.0.0 Safari/537.36","Macintosh","Chrome","133.0.0.0","OS X","10_15_7","https://hz8g1ckzuq.cognition.run/","en-US,en;q=0.9","hpx5zb71o41wv7h","29","[""White""]","Yes","Female","2309571.699999988","null","","<p></p>","null","rating","cdt","repulsion_2","1","microwave ovens","null","null","null","null","null","null","1","","","","","","","","","",""
"","","","","","rating_trial","survey-html-form","24","699014","0.0-3.0-1.10","143","1","2025-04-14 14:13:23","bb671e3ae32f654b8954ea4c4635f915","","Mozilla/5.0 (Macintosh; Intel Mac OS X 10_15_7) AppleWebKit/537.36 (KHTML, like Gecko) Chrome/133.0.0.0 Safari/537.36","Macintosh","Chrome","133.0.0.0","OS X","10_15_7","https://hz8g1ckzuq.cognition.run/","en-US,en;q=0.9","hpx5zb71o41wv7h","29","[""White""]","Yes","Female","2309571.699999988","75855","","","{""price_1"":""90"",""price_2"":""130"",""price_3"":""150""}","rating","cdt","repulsion_2","1","microwave ovens","null","null","null","null","null","null","1","100","90","100","30","40","20","Warranty","Cooking power","",""
"","","","","","rating_trial_setup","html-keyboard-response","25","699318","0.0-3.0-0.11","143","1","2025-04-14 14:13:23","bb671e3ae32f654b8954ea4c4635f915","","Mozilla/5.0 (Macintosh; Intel Mac OS X 10_15_7) AppleWebKit/537.36 (KHTML, like Gecko) Chrome/133.0.0.0 Safari/537.36","Macintosh","Chrome","133.0.0.0","OS X","10_15_7","https://hz8g1ckzuq.cognition.run/","en-US,en;q=0.9","hpx5zb71o41wv7h","29","[""White""]","Yes","Female","2309571.699999988","null","","<p></p>","null","rating","tdc","repulsion_2","1","washing machines","null","null","null","null","null","null","2","","","","","","","","","",""
"","","","","","rating_trial","survey-html-form","26","729490","0.0-3.0-1.11","143","1","2025-04-14 14:13:23","bb671e3ae32f654b8954ea4c4635f915","","Mozilla/5.0 (Macintosh; Intel Mac OS X 10_15_7) AppleWebKit/537.36 (KHTML, like Gecko) Chrome/133.0.0.0 Safari/537.36","Macintosh","Chrome","133.0.0.0","OS X","10_15_7","https://hz8g1ckzuq.cognition.run/","en-US,en;q=0.9","hpx5zb71o41wv7h","29","[""White""]","Yes","Female","2309571.699999988","30186","","","{""price_1"":""300"",""price_2"":""200"",""price_3"":""375""}","rating","tdc","repulsion_2","1","washing machines","null","null","null","null","null","null","2","100","90","100","30","40","20","Average lifespan","Energy savings","",""
"","","","","","rating_trial_setup","html-keyboard-response","27","729792","0.0-3.0-0.12","143","1","2025-04-14 14:13:23","bb671e3ae32f654b8954ea4c4635f915","","Mozilla/5.0 (Macintosh; Intel Mac OS X 10_15_7) AppleWebKit/537.36 (KHTML, like Gecko) Chrome/133.0.0.0 Safari/537.36","Macintosh","Chrome","133.0.0.0","OS X","10_15_7","https://hz8g1ckzuq.cognition.run/","en-US,en;q=0.9","hpx5zb71o41wv7h","29","[""White""]","Yes","Female","2309571.699999988","null","","<p></p>","null","rating","ctd","attraction_2","2","laptops","null","null","null","null","null","null","1","","","","","","","","","",""
"","","","","","rating_trial","survey-html-form","28","816173","0.0-3.0-1.12","143","1","2025-04-14 14:13:23","bb671e3ae32f654b8954ea4c4635f915","","Mozilla/5.0 (Macintosh; Intel Mac OS X 10_15_7) AppleWebKit/537.36 (KHTML, like Gecko) Chrome/133.0.0.0 Safari/537.36","Macintosh","Chrome","133.0.0.0","OS X","10_15_7","https://hz8g1ckzuq.cognition.run/","en-US,en;q=0.9","hpx5zb71o41wv7h","29","[""White""]","Yes","Female","2309571.699999988","86388","","","{""price_1"":""500"",""price_2"":""700"",""price_3"":""300""}","rating","ctd","attraction_2","2","laptops","null","null","null","null","null","null","1","50","60","40","60","50","60","Processing speed","Memory (RAM)","",""
"","","","","","rating_trial_setup","html-keyboard-response","29","816476","0.0-3.0-0.13","143","1","2025-04-14 14:13:23","bb671e3ae32f654b8954ea4c4635f915","","Mozilla/5.0 (Macintosh; Intel Mac OS X 10_15_7) AppleWebKit/537.36 (KHTML, like Gecko) Chrome/133.0.0.0 Safari/537.36","Macintosh","Chrome","133.0.0.0","OS X","10_15_7","https://hz8g1ckzuq.cognition.run/","en-US,en;q=0.9","hpx5zb71o41wv7h","29","[""White""]","Yes","Female","2309571.699999988","null","","<p></p>","null","rating","tdc","attraction_2","2","televisions","null","null","null","null","null","null","1","","","","","","","","","",""
"","","","","","rating_trial","survey-html-form","30","872965","0.0-3.0-1.13","143","1","2025-04-14 14:13:23","bb671e3ae32f654b8954ea4c4635f915","","Mozilla/5.0 (Macintosh; Intel Mac OS X 10_15_7) AppleWebKit/537.36 (KHTML, like Gecko) Chrome/133.0.0.0 Safari/537.36","Macintosh","Chrome","133.0.0.0","OS X","10_15_7","https://hz8g1ckzuq.cognition.run/","en-US,en;q=0.9","hpx5zb71o41wv7h","29","[""White""]","Yes","Female","2309571.699999988","56487","","","{""price_1"":""600"",""price_2"":""400"",""price_3"":""800""}","rating","tdc","attraction_2","2","televisions","null","null","null","null","null","null","1","50","60","40","60","50","60","Screen size","Average lifespan","",""
"","","","","","rating_trial_setup","html-keyboard-response","31","873268","0.0-3.0-0.14","143","1","2025-04-14 14:13:23","bb671e3ae32f654b8954ea4c4635f915","","Mozilla/5.0 (Macintosh; Intel Mac OS X 10_15_7) AppleWebKit/537.36 (KHTML, like Gecko) Chrome/133.0.0.0 Safari/537.36","Macintosh","Chrome","133.0.0.0","OS X","10_15_7","https://hz8g1ckzuq.cognition.run/","en-US,en;q=0.9","hpx5zb71o41wv7h","29","[""White""]","Yes","Female","2309571.699999988","null","","<p></p>","null","rating","wwb","catch","null","laptops","85","75","10","10","25","10","1","","","","","","","","","",""
"","","","","","rating_trial","survey-html-form","32","896813","0.0-3.0-1.14","143","1","2025-04-14 14:13:23","bb671e3ae32f654b8954ea4c4635f915","","Mozilla/5.0 (Macintosh; Intel Mac OS X 10_15_7) AppleWebKit/537.36 (KHTML, like Gecko) Chrome/133.0.0.0 Safari/537.36","Macintosh","Chrome","133.0.0.0","OS X","10_15_7","https://hz8g1ckzuq.cognition.run/","en-US,en;q=0.9","hpx5zb71o41wv7h","29","[""White""]","Yes","Female","2309571.699999988","23543","","","{""price_1"":""50"",""price_2"":""80"",""price_3"":""900""}","rating","wwb","catch","null","laptops","85","75","10","10","25","10","1","null","null","null","null","null","null","Processing speed","Memory (RAM)","",""
"","","","","","rating_trial_setup","html-keyboard-response","33","897116","0.0-3.0-0.15","143","1","2025-04-14 14:13:23","bb671e3ae32f654b8954ea4c4635f915","","Mozilla/5.0 (Macintosh; Intel Mac OS X 10_15_7) AppleWebKit/537.36 (KHTML, like Gecko) Chrome/133.0.0.0 Safari/537.36","Macintosh","Chrome","133.0.0.0","OS X","10_15_7","https://hz8g1ckzuq.cognition.run/","en-US,en;q=0.9","hpx5zb71o41wv7h","29","[""White""]","Yes","Female","2309571.699999988","null","","<p></p>","null","rating","cdt","attraction_2","1","microwave ovens","null","null","null","null","null","null","1","","","","","","","","","",""
"","","","","","rating_trial","survey-html-form","34","914921","0.0-3.0-1.15","143","1","2025-04-14 14:13:23","bb671e3ae32f654b8954ea4c4635f915","","Mozilla/5.0 (Macintosh; Intel Mac OS X 10_15_7) AppleWebKit/537.36 (KHTML, like Gecko) Chrome/133.0.0.0 Safari/537.36","Macintosh","Chrome","133.0.0.0","OS X","10_15_7","https://hz8g1ckzuq.cognition.run/","en-US,en;q=0.9","hpx5zb71o41wv7h","29","[""White""]","Yes","Female","2309571.699999988","17802","","","{""price_1"":""100"",""price_2"":""250"",""price_3"":""400""}","rating","cdt","attraction_2","1","microwave ovens","null","null","null","null","null","null","1","60","50","60","50","60","40","Warranty","Cooking power","",""
"","","","","","rating_trial_setup","html-keyboard-response","35","915224","0.0-3.0-0.16","143","1","2025-04-14 14:13:23","bb671e3ae32f654b8954ea4c4635f915","","Mozilla/5.0 (Macintosh; Intel Mac OS X 10_15_7) AppleWebKit/537.36 (KHTML, like Gecko) Chrome/133.0.0.0 Safari/537.36","Macintosh","Chrome","133.0.0.0","OS X","10_15_7","https://hz8g1ckzuq.cognition.run/","en-US,en;q=0.9","hpx5zb71o41wv7h","29","[""White""]","Yes","Female","2309571.699999988","null","","<p></p>","null","rating","cdt","repulsion_1","1","televisions","null","null","null","null","null","null","2","","","","","","","","","",""
"","","","","","rating_trial","survey-html-form","36","959191","0.0-3.0-1.16","143","1","2025-04-14 14:13:23","bb671e3ae32f654b8954ea4c4635f915","","Mozilla/5.0 (Macintosh; Intel Mac OS X 10_15_7) AppleWebKit/537.36 (KHTML, like Gecko) Chrome/133.0.0.0 Safari/537.36","Macintosh","Chrome","133.0.0.0","OS X","10_15_7","https://hz8g1ckzuq.cognition.run/","en-US,en;q=0.9","hpx5zb71o41wv7h","29","[""White""]","Yes","Female","2309571.699999988","43965","","","{""price_1"":""900"",""price_2"":""650"",""price_3"":""799""}","rating","cdt","repulsion_1","1","televisions","null","null","null","null","null","null","2","100","90","100","30","40","25","Screen size","Average lifespan","",""
"","","","","","rating_trial_setup","html-keyboard-response","37","959493","0.0-3.0-0.17","143","1","2025-04-14 14:13:23","bb671e3ae32f654b8954ea4c4635f915","","Mozilla/5.0 (Macintosh; Intel Mac OS X 10_15_7) AppleWebKit/537.36 (KHTML, like Gecko) Chrome/133.0.0.0 Safari/537.36","Macintosh","Chrome","133.0.0.0","OS X","10_15_7","https://hz8g1ckzuq.cognition.run/","en-US,en;q=0.9","hpx5zb71o41wv7h","29","[""White""]","Yes","Female","2309571.699999988","null","","<p></p>","null","rating","ctd","attraction_1","2","washing machines","null","null","null","null","null","null","1","","","","","","","","","",""
"","","","","","rating_trial","survey-html-form","38","975289","0.0-3.0-1.17","143","1","2025-04-14 14:13:23","bb671e3ae32f654b8954ea4c4635f915","","Mozilla/5.0 (Macintosh; Intel Mac OS X 10_15_7) AppleWebKit/537.36 (KHTML, like Gecko) Chrome/133.0.0.0 Safari/537.36","Macintosh","Chrome","133.0.0.0","OS X","10_15_7","https://hz8g1ckzuq.cognition.run/","en-US,en;q=0.9","hpx5zb71o41wv7h","29","[""White""]","Yes","Female","2309571.699999988","15793","","","{""price_1"":""200"",""price_2"":""450"",""price_3"":""300""}","rating","ctd","attraction_1","2","washing machines","null","null","null","null","null","null","1","50","60","45","60","50","60","Average lifespan","Energy savings","",""
"","","","","","rating_trial_setup","html-keyboard-response","39","975591","0.0-3.0-0.18","143","1","2025-04-14 14:13:23","bb671e3ae32f654b8954ea4c4635f915","","Mozilla/5.0 (Macintosh; Intel Mac OS X 10_15_7) AppleWebKit/537.36 (KHTML, like Gecko) Chrome/133.0.0.0 Safari/537.36","Macintosh","Chrome","133.0.0.0","OS X","10_15_7","https://hz8g1ckzuq.cognition.run/","en-US,en;q=0.9","hpx5zb71o41wv7h","29","[""White""]","Yes","Female","2309571.699999988","null","","<p></p>","null","rating","wbw","catch","null","washing machines","60","50","35","35","20","35","1","","","","","","","","","",""
"","","","","","rating_trial","survey-html-form","40","986859","0.0-3.0-1.18","143","1","2025-04-14 14:13:23","bb671e3ae32f654b8954ea4c4635f915","","Mozilla/5.0 (Macintosh; Intel Mac OS X 10_15_7) AppleWebKit/537.36 (KHTML, like Gecko) Chrome/133.0.0.0 Safari/537.36","Macintosh","Chrome","133.0.0.0","OS X","10_15_7","https://hz8g1ckzuq.cognition.run/","en-US,en;q=0.9","hpx5zb71o41wv7h","29","[""White""]","Yes","Female","2309571.699999988","11266","","","{""price_1"":""250"",""price_2"":""600"",""price_3"":""100""}","rating","wbw","catch","null","washing machines","60","50","35","35","20","35","1","null","null","null","null","null","null","Average lifespan","Energy savings","",""
"","","","","","rating_trial_setup","html-keyboard-response","41","987162","0.0-3.0-0.19","143","1","2025-04-14 14:13:23","bb671e3ae32f654b8954ea4c4635f915","","Mozilla/5.0 (Macintosh; Intel Mac OS X 10_15_7) AppleWebKit/537.36 (KHTML, like Gecko) Chrome/133.0.0.0 Safari/537.36","Macintosh","Chrome","133.0.0.0","OS X","10_15_7","https://hz8g1ckzuq.cognition.run/","en-US,en;q=0.9","hpx5zb71o41wv7h","29","[""White""]","Yes","Female","2309571.699999988","null","","<p></p>","null","rating","ctd","attraction_1","2","televisions","null","null","null","null","null","null","2","","","","","","","","","",""
"","","","","","rating_trial","survey-html-form","42","1003821","0.0-3.0-1.19","143","1","2025-04-14 14:13:23","bb671e3ae32f654b8954ea4c4635f915","","Mozilla/5.0 (Macintosh; Intel Mac OS X 10_15_7) AppleWebKit/537.36 (KHTML, like Gecko) Chrome/133.0.0.0 Safari/537.36","Macintosh","Chrome","133.0.0.0","OS X","10_15_7","https://hz8g1ckzuq.cognition.run/","en-US,en;q=0.9","hpx5zb71o41wv7h","29","[""White""]","Yes","Female","2309571.699999988","16658","","","{""price_1"":""600"",""price_2"":""800"",""price_3"":""450""}","rating","ctd","attraction_1","2","televisions","null","null","null","null","null","null","2","50","60","45","60","50","60","Screen size","Average lifespan","",""
"","","","","","rating_trial_setup","html-keyboard-response","43","1004124","0.0-3.0-0.20","143","1","2025-04-14 14:13:23","bb671e3ae32f654b8954ea4c4635f915","","Mozilla/5.0 (Macintosh; Intel Mac OS X 10_15_7) AppleWebKit/537.36 (KHTML, like Gecko) Chrome/133.0.0.0 Safari/537.36","Macintosh","Chrome","133.0.0.0","OS X","10_15_7","https://hz8g1ckzuq.cognition.run/","en-US,en;q=0.9","hpx5zb71o41wv7h","29","[""White""]","Yes","Female","2309571.699999988","null","","<p></p>","null","rating","tdc","attraction_1","1","televisions","null","null","null","null","null","null","2","","","","","","","","","",""
"","","","","","rating_trial","survey-html-form","44","1111880","0.0-3.0-1.20","143","1","2025-04-14 14:13:23","bb671e3ae32f654b8954ea4c4635f915","","Mozilla/5.0 (Macintosh; Intel Mac OS X 10_15_7) AppleWebKit/537.36 (KHTML, like Gecko) Chrome/133.0.0.0 Safari/537.36","Macintosh","Chrome","133.0.0.0","OS X","10_15_7","https://hz8g1ckzuq.cognition.run/","en-US,en;q=0.9","hpx5zb71o41wv7h","29","[""White""]","Yes","Female","2309571.699999988","107756","","","{""price_1"":""500"",""price_2"":""300"",""price_3"":""700""}","rating","tdc","attraction_1","1","televisions","null","null","null","null","null","null","2","60","50","60","50","60","45","Screen size","Average lifespan","",""
"","","","","","rating_trial_setup","html-keyboard-response","45","1112184","0.0-3.0-0.21","143","1","2025-04-14 14:13:23","bb671e3ae32f654b8954ea4c4635f915","","Mozilla/5.0 (Macintosh; Intel Mac OS X 10_15_7) AppleWebKit/537.36 (KHTML, like Gecko) Chrome/133.0.0.0 Safari/537.36","Macintosh","Chrome","133.0.0.0","OS X","10_15_7","https://hz8g1ckzuq.cognition.run/","en-US,en;q=0.9","hpx5zb71o41wv7h","29","[""White""]","Yes","Female","2309571.699999988","null","","<p></p>","null","rating","tdc","attraction_2","1","laptops","null","null","null","null","null","null","2","","","","","","","","","",""
"","","","","","rating_trial","survey-html-form","46","1128032","0.0-3.0-1.21","143","1","2025-04-14 14:13:23","bb671e3ae32f654b8954ea4c4635f915","","Mozilla/5.0 (Macintosh; Intel Mac OS X 10_15_7) AppleWebKit/537.36 (KHTML, like Gecko) Chrome/133.0.0.0 Safari/537.36","Macintosh","Chrome","133.0.0.0","OS X","10_15_7","https://hz8g1ckzuq.cognition.run/","en-US,en;q=0.9","hpx5zb71o41wv7h","29","[""White""]","Yes","Female","2309571.699999988","15845","","","{""price_1"":""800"",""price_2"":""500"",""price_3"":""1000""}","rating","tdc","attraction_2","1","laptops","null","null","null","null","null","null","2","60","50","60","50","60","40","Processing speed","Memory (RAM)","",""
"","","","","","rating_trial_setup","html-keyboard-response","47","1128336","0.0-3.0-0.22","143","1","2025-04-14 14:13:23","bb671e3ae32f654b8954ea4c4635f915","","Mozilla/5.0 (Macintosh; Intel Mac OS X 10_15_7) AppleWebKit/537.36 (KHTML, like Gecko) Chrome/133.0.0.0 Safari/537.36","Macintosh","Chrome","133.0.0.0","OS X","10_15_7","https://hz8g1ckzuq.cognition.run/","en-US,en;q=0.9","hpx5zb71o41wv7h","29","[""White""]","Yes","Female","2309571.699999988","null","","<p></p>","null","rating","tcd","attraction_1","2","laptops","null","null","null","null","null","null","1","","","","","","","","","",""
"","","","","","rating_trial","survey-html-form","48","1165899","0.0-3.0-1.22","143","1","2025-04-14 14:13:23","bb671e3ae32f654b8954ea4c4635f915","","Mozilla/5.0 (Macintosh; Intel Mac OS X 10_15_7) AppleWebKit/537.36 (KHTML, like Gecko) Chrome/133.0.0.0 Safari/537.36","Macintosh","Chrome","133.0.0.0","OS X","10_15_7","https://hz8g1ckzuq.cognition.run/","en-US,en;q=0.9","hpx5zb71o41wv7h","29","[""White""]","Yes","Female","2309571.699999988","37561","","","{""price_1"":""600"",""price_2"":""800"",""price_3"":""450""}","rating","tcd","attraction_1","2","laptops","null","null","null","null","null","null","1","50","60","45","60","50","60","Processing speed","Memory (RAM)","",""
"","","","","","rating_trial_setup","html-keyboard-response","49","1166202","0.0-3.0-0.23","143","1","2025-04-14 14:13:23","bb671e3ae32f654b8954ea4c4635f915","","Mozilla/5.0 (Macintosh; Intel Mac OS X 10_15_7) AppleWebKit/537.36 (KHTML, like Gecko) Chrome/133.0.0.0 Safari/537.36","Macintosh","Chrome","133.0.0.0","OS X","10_15_7","https://hz8g1ckzuq.cognition.run/","en-US,en;q=0.9","hpx5zb71o41wv7h","29","[""White""]","Yes","Female","2309571.699999988","null","","<p></p>","null","rating","dtc","repulsion_1","2","washing machines","null","null","null","null","null","null","2","","","","","","","","","",""
"","","","","","rating_trial","survey-html-form","50","1184319","0.0-3.0-1.23","143","1","2025-04-14 14:13:23","bb671e3ae32f654b8954ea4c4635f915","","Mozilla/5.0 (Macintosh; Intel Mac OS X 10_15_7) AppleWebKit/537.36 (KHTML, like Gecko) Chrome/133.0.0.0 Safari/537.36","Macintosh","Chrome","133.0.0.0","OS X","10_15_7","https://hz8g1ckzuq.cognition.run/","en-US,en;q=0.9","hpx5zb71o41wv7h","29","[""White""]","Yes","Female","2309571.699999988","18114","","","{""price_1"":""600"",""price_2"":""800"",""price_3"":""1000""}","rating","dtc","repulsion_1","2","washing machines","null","null","null","null","null","null","2","30","40","25","100","90","100","Average lifespan","Energy savings","",""
"","","","","","rating_trial_setup","html-keyboard-response","51","1184622","0.0-3.0-0.24","143","1","2025-04-14 14:13:23","bb671e3ae32f654b8954ea4c4635f915","","Mozilla/5.0 (Macintosh; Intel Mac OS X 10_15_7) AppleWebKit/537.36 (KHTML, like Gecko) Chrome/133.0.0.0 Safari/537.36","Macintosh","Chrome","133.0.0.0","OS X","10_15_7","https://hz8g1ckzuq.cognition.run/","en-US,en;q=0.9","hpx5zb71o41wv7h","29","[""White""]","Yes","Female","2309571.699999988","null","","<p></p>","null","rating","tdc","repulsion_1","1","washing machines","null","null","null","null","null","null","1","","","","","","","","","",""
"","","","","","rating_trial","survey-html-form","52","1205561","0.0-3.0-1.24","143","1","2025-04-14 14:13:23","bb671e3ae32f654b8954ea4c4635f915","","Mozilla/5.0 (Macintosh; Intel Mac OS X 10_15_7) AppleWebKit/537.36 (KHTML, like Gecko) Chrome/133.0.0.0 Safari/537.36","Macintosh","Chrome","133.0.0.0","OS X","10_15_7","https://hz8g1ckzuq.cognition.run/","en-US,en;q=0.9","hpx5zb71o41wv7h","29","[""White""]","Yes","Female","2309571.699999988","20936","","","{""price_1"":""500"",""price_2"":""400"",""price_3"":""200""}","rating","tdc","repulsion_1","1","washing machines","null","null","null","null","null","null","1","100","90","100","30","40","25","Average lifespan","Energy savings","",""
"","","","","","rating_trial_setup","html-keyboard-response","53","1205863","0.0-3.0-0.25","143","1","2025-04-14 14:13:23","bb671e3ae32f654b8954ea4c4635f915","","Mozilla/5.0 (Macintosh; Intel Mac OS X 10_15_7) AppleWebKit/537.36 (KHTML, like Gecko) Chrome/133.0.0.0 Safari/537.36","Macintosh","Chrome","133.0.0.0","OS X","10_15_7","https://hz8g1ckzuq.cognition.run/","en-US,en;q=0.9","hpx5zb71o41wv7h","29","[""White""]","Yes","Female","2309571.699999988","null","","<p></p>","null","rating","cdt","repulsion_2","1","laptops","null","null","null","null","null","null","1","","","","","","","","","",""
"","","","","","rating_trial","survey-html-form","54","1227521","0.0-3.0-1.25","143","1","2025-04-14 14:13:23","bb671e3ae32f654b8954ea4c4635f915","","Mozilla/5.0 (Macintosh; Intel Mac OS X 10_15_7) AppleWebKit/537.36 (KHTML, like Gecko) Chrome/133.0.0.0 Safari/537.36","Macintosh","Chrome","133.0.0.0","OS X","10_15_7","https://hz8g1ckzuq.cognition.run/","en-US,en;q=0.9","hpx5zb71o41wv7h","29","[""White""]","Yes","Female","2309571.699999988","21655","","","{""price_1"":""500"",""price_2"":""600"",""price_3"":""750""}","rating","cdt","repulsion_2","1","laptops","null","null","null","null","null","null","1","100","90","100","30","40","20","Processing speed","Memory (RAM)","",""
"","","","","","rating_trial_setup","html-keyboard-response","55","1227825","0.0-3.0-0.26","143","1","2025-04-14 14:13:23","bb671e3ae32f654b8954ea4c4635f915","","Mozilla/5.0 (Macintosh; Intel Mac OS X 10_15_7) AppleWebKit/537.36 (KHTML, like Gecko) Chrome/133.0.0.0 Safari/537.36","Macintosh","Chrome","133.0.0.0","OS X","10_15_7","https://hz8g1ckzuq.cognition.run/","en-US,en;q=0.9","hpx5zb71o41wv7h","29","[""White""]","Yes","Female","2309571.699999988","null","","<p></p>","null","rating","wbw","catch","null","microwave ovens","70","75","5","50","25","35","1","","","","","","","","","",""
"","","","","","rating_trial","survey-html-form","56","1245354","0.0-3.0-1.26","143","1","2025-04-14 14:13:23","bb671e3ae32f654b8954ea4c4635f915","","Mozilla/5.0 (Macintosh; Intel Mac OS X 10_15_7) AppleWebKit/537.36 (KHTML, like Gecko) Chrome/133.0.0.0 Safari/537.36","Macintosh","Chrome","133.0.0.0","OS X","10_15_7","https://hz8g1ckzuq.cognition.run/","en-US,en;q=0.9","hpx5zb71o41wv7h","29","[""White""]","Yes","Female","2309571.699999988","17526","","","{""price_1"":""50"",""price_2"":""200"",""price_3"":""85""}","rating","wbw","catch","null","microwave ovens","70","75","5","50","25","35","1","null","null","null","null","null","null","Warranty","Cooking power","",""
"","","","","","rating_trial_setup","html-keyboard-response","57","1245657","0.0-3.0-0.27","143","1","2025-04-14 14:13:23","bb671e3ae32f654b8954ea4c4635f915","","Mozilla/5.0 (Macintosh; Intel Mac OS X 10_15_7) AppleWebKit/537.36 (KHTML, like Gecko) Chrome/133.0.0.0 Safari/537.36","Macintosh","Chrome","133.0.0.0","OS X","10_15_7","https://hz8g1ckzuq.cognition.run/","en-US,en;q=0.9","hpx5zb71o41wv7h","29","[""White""]","Yes","Female","2309571.699999988","null","","<p></p>","null","rating","ctd","attraction_2","2","microwave ovens","null","null","null","null","null","null","2","","","","","","","","","",""
"","","","","","rating_trial","survey-html-form","58","1268351","0.0-3.0-1.27","143","1","2025-04-14 14:13:23","bb671e3ae32f654b8954ea4c4635f915","","Mozilla/5.0 (Macintosh; Intel Mac OS X 10_15_7) AppleWebKit/537.36 (KHTML, like Gecko) Chrome/133.0.0.0 Safari/537.36","Macintosh","Chrome","133.0.0.0","OS X","10_15_7","https://hz8g1ckzuq.cognition.run/","en-US,en;q=0.9","hpx5zb71o41wv7h","29","[""White""]","Yes","Female","2309571.699999988","22691","","","{""price_1"":""150"",""price_2"":""300"",""price_3"":""200""}","rating","ctd","attraction_2","2","microwave ovens","null","null","null","null","null","null","2","50","60","40","60","50","60","Warranty","Cooking power","",""
"","","","","","rating_trial_setup","html-keyboard-response","59","1268654","0.0-3.0-0.28","143","1","2025-04-14 14:13:23","bb671e3ae32f654b8954ea4c4635f915","","Mozilla/5.0 (Macintosh; Intel Mac OS X 10_15_7) AppleWebKit/537.36 (KHTML, like Gecko) Chrome/133.0.0.0 Safari/537.36","Macintosh","Chrome","133.0.0.0","OS X","10_15_7","https://hz8g1ckzuq.cognition.run/","en-US,en;q=0.9","hpx5zb71o41wv7h","29","[""White""]","Yes","Female","2309571.699999988","null","","<p></p>","null","rating","bww","catch","null","televisions","55","65","15","25","50","15","1","","","","","","","","","",""
"","","","","","rating_trial","survey-html-form","60","1408740","0.0-3.0-1.28","143","1","2025-04-14 14:13:23","bb671e3ae32f654b8954ea4c4635f915","","Mozilla/5.0 (Macintosh; Intel Mac OS X 10_15_7) AppleWebKit/537.36 (KHTML, like Gecko) Chrome/133.0.0.0 Safari/537.36","Macintosh","Chrome","133.0.0.0","OS X","10_15_7","https://hz8g1ckzuq.cognition.run/","en-US,en;q=0.9","hpx5zb71o41wv7h","29","[""White""]","Yes","Female","2309571.699999988","140085","","","{""price_1"":""300"",""price_2"":""80"",""price_3"":""200""}","rating","bww","catch","null","televisions","55","65","15","25","50","15","1","null","null","null","null","null","null","Screen size","Average lifespan","",""
"","","","","","rating_trial_setup","html-keyboard-response","61","1409044","0.0-3.0-0.29","143","1","2025-04-14 14:13:23","bb671e3ae32f654b8954ea4c4635f915","","Mozilla/5.0 (Macintosh; Intel Mac OS X 10_15_7) AppleWebKit/537.36 (KHTML, like Gecko) Chrome/133.0.0.0 Safari/537.36","Macintosh","Chrome","133.0.0.0","OS X","10_15_7","https://hz8g1ckzuq.cognition.run/","en-US,en;q=0.9","hpx5zb71o41wv7h","29","[""White""]","Yes","Female","2309571.699999988","null","","<p></p>","null","rating","tdc","attraction_2","2","washing machines","null","null","null","null","null","null","1","","","","","","","","","",""
"","","","","","rating_trial","survey-html-form","62","1433762","0.0-3.0-1.29","143","1","2025-04-14 14:13:23","bb671e3ae32f654b8954ea4c4635f915","","Mozilla/5.0 (Macintosh; Intel Mac OS X 10_15_7) AppleWebKit/537.36 (KHTML, like Gecko) Chrome/133.0.0.0 Safari/537.36","Macintosh","Chrome","133.0.0.0","OS X","10_15_7","https://hz8g1ckzuq.cognition.run/","en-US,en;q=0.9","hpx5zb71o41wv7h","29","[""White""]","Yes","Female","2309571.699999988","24716","","","{""price_1"":""300"",""price_2"":""150"",""price_3"":""500""}","rating","tdc","attraction_2","2","washing machines","null","null","null","null","null","null","1","50","60","40","60","50","60","Average lifespan","Energy savings","",""
"","","","","","rating_trial_setup","html-keyboard-response","63","1434066","0.0-3.0-0.30","143","1","2025-04-14 14:13:23","bb671e3ae32f654b8954ea4c4635f915","","Mozilla/5.0 (Macintosh; Intel Mac OS X 10_15_7) AppleWebKit/537.36 (KHTML, like Gecko) Chrome/133.0.0.0 Safari/537.36","Macintosh","Chrome","133.0.0.0","OS X","10_15_7","https://hz8g1ckzuq.cognition.run/","en-US,en;q=0.9","hpx5zb71o41wv7h","29","[""White""]","Yes","Female","2309571.699999988","null","","<p></p>","null","rating","tdc","attraction_2","1","televisions","null","null","null","null","null","null","1","","","","","","","","","",""
"","","","","","rating_trial","survey-html-form","64","1511000","0.0-3.0-1.30","143","1","2025-04-14 14:13:23","bb671e3ae32f654b8954ea4c4635f915","","Mozilla/5.0 (Macintosh; Intel Mac OS X 10_15_7) AppleWebKit/537.36 (KHTML, like Gecko) Chrome/133.0.0.0 Safari/537.36","Macintosh","Chrome","133.0.0.0","OS X","10_15_7","https://hz8g1ckzuq.cognition.run/","en-US,en;q=0.9","hpx5zb71o41wv7h","29","[""White""]","Yes","Female","2309571.699999988","76932","","","{""price_1"":""200"",""price_2"":""100"",""price_3"":""350""}","rating","tdc","attraction_2","1","televisions","null","null","null","null","null","null","1","60","50","60","50","60","40","Screen size","Average lifespan","",""
"","","","","","rating_trial_setup","html-keyboard-response","65","1511304","0.0-3.0-0.31","143","1","2025-04-14 14:13:23","bb671e3ae32f654b8954ea4c4635f915","","Mozilla/5.0 (Macintosh; Intel Mac OS X 10_15_7) AppleWebKit/537.36 (KHTML, like Gecko) Chrome/133.0.0.0 Safari/537.36","Macintosh","Chrome","133.0.0.0","OS X","10_15_7","https://hz8g1ckzuq.cognition.run/","en-US,en;q=0.9","hpx5zb71o41wv7h","29","[""White""]","Yes","Female","2309571.699999988","null","","<p></p>","null","rating","tcd","repulsion_1","2","televisions","null","null","null","null","null","null","2","","","","","","","","","",""
"","","","","","rating_trial","survey-html-form","66","1533763","0.0-3.0-1.31","143","1","2025-04-14 14:13:23","bb671e3ae32f654b8954ea4c4635f915","","Mozilla/5.0 (Macintosh; Intel Mac OS X 10_15_7) AppleWebKit/537.36 (KHTML, like Gecko) Chrome/133.0.0.0 Safari/537.36","Macintosh","Chrome","133.0.0.0","OS X","10_15_7","https://hz8g1ckzuq.cognition.run/","en-US,en;q=0.9","hpx5zb71o41wv7h","29","[""White""]","Yes","Female","2309571.699999988","22455","","","{""price_1"":""250"",""price_2"":""400"",""price_3"":""600""}","rating","tcd","repulsion_1","2","televisions","null","null","null","null","null","null","2","30","40","25","100","90","100","Screen size","Average lifespan","",""
"","","","","","rating_trial_setup","html-keyboard-response","67","1534067","0.0-3.0-0.32","143","1","2025-04-14 14:13:23","bb671e3ae32f654b8954ea4c4635f915","","Mozilla/5.0 (Macintosh; Intel Mac OS X 10_15_7) AppleWebKit/537.36 (KHTML, like Gecko) Chrome/133.0.0.0 Safari/537.36","Macintosh","Chrome","133.0.0.0","OS X","10_15_7","https://hz8g1ckzuq.cognition.run/","en-US,en;q=0.9","hpx5zb71o41wv7h","29","[""White""]","Yes","Female","2309571.699999988","null","","<p></p>","null","rating","dtc","repulsion_2","2","televisions","null","null","null","null","null","null","1","","","","","","","","","",""
"","","","","","rating_trial","survey-html-form","68","1595581","0.0-3.0-1.32","143","1","2025-04-14 14:13:23","bb671e3ae32f654b8954ea4c4635f915","","Mozilla/5.0 (Macintosh; Intel Mac OS X 10_15_7) AppleWebKit/537.36 (KHTML, like Gecko) Chrome/133.0.0.0 Safari/537.36","Macintosh","Chrome","133.0.0.0","OS X","10_15_7","https://hz8g1ckzuq.cognition.run/","en-US,en;q=0.9","hpx5zb71o41wv7h","29","[""White""]","Yes","Female","2309571.699999988","61512","","","{""price_1"":""150"",""price_2"":""300"",""price_3"":""500""}","rating","dtc","repulsion_2","2","televisions","null","null","null","null","null","null","1","30","40","20","100","90","100","Screen size","Average lifespan","",""
"","","","","","rating_trial_setup","html-keyboard-response","69","1595885","0.0-3.0-0.33","143","1","2025-04-14 14:13:23","bb671e3ae32f654b8954ea4c4635f915","","Mozilla/5.0 (Macintosh; Intel Mac OS X 10_15_7) AppleWebKit/537.36 (KHTML, like Gecko) Chrome/133.0.0.0 Safari/537.36","Macintosh","Chrome","133.0.0.0","OS X","10_15_7","https://hz8g1ckzuq.cognition.run/","en-US,en;q=0.9","hpx5zb71o41wv7h","29","[""White""]","Yes","Female","2309571.699999988","null","","<p></p>","null","rating","dct","attraction_2","1","washing machines","null","null","null","null","null","null","2","","","","","","","","","",""
"","","","","","rating_trial","survey-html-form","70","1631428","0.0-3.0-1.33","143","1","2025-04-14 14:13:23","bb671e3ae32f654b8954ea4c4635f915","","Mozilla/5.0 (Macintosh; Intel Mac OS X 10_15_7) AppleWebKit/537.36 (KHTML, like Gecko) Chrome/133.0.0.0 Safari/537.36","Macintosh","Chrome","133.0.0.0","OS X","10_15_7","https://hz8g1ckzuq.cognition.run/","en-US,en;q=0.9","hpx5zb71o41wv7h","29","[""White""]","Yes","Female","2309571.699999988","35559","","","{""price_1"":""250"",""price_2"":""500"",""price_3"":""800""}","rating","dct","attraction_2","1","washing machines","null","null","null","null","null","null","2","60","50","60","50","60","40","Average lifespan","Energy savings","",""
"","","","","","rating_trial_setup","html-keyboard-response","71","1631732","0.0-3.0-0.34","143","1","2025-04-14 14:13:23","bb671e3ae32f654b8954ea4c4635f915","","Mozilla/5.0 (Macintosh; Intel Mac OS X 10_15_7) AppleWebKit/537.36 (KHTML, like Gecko) Chrome/133.0.0.0 Safari/537.36","Macintosh","Chrome","133.0.0.0","OS X","10_15_7","https://hz8g1ckzuq.cognition.run/","en-US,en;q=0.9","hpx5zb71o41wv7h","29","[""White""]","Yes","Female","2309571.699999988","null","","<p></p>","null","rating","dtc","repulsion_1","1","microwave ovens","null","null","null","null","null","null","2","","","","","","","","","",""
"","","","","","rating_trial","survey-html-form","72","1660837","0.0-3.0-1.34","143","1","2025-04-14 14:13:23","bb671e3ae32f654b8954ea4c4635f915","","Mozilla/5.0 (Macintosh; Intel Mac OS X 10_15_7) AppleWebKit/537.36 (KHTML, like Gecko) Chrome/133.0.0.0 Safari/537.36","Macintosh","Chrome","133.0.0.0","OS X","10_15_7","https://hz8g1ckzuq.cognition.run/","en-US,en;q=0.9","hpx5zb71o41wv7h","29","[""White""]","Yes","Female","2309571.699999988","29110","","","{""price_1"":""200"",""price_2"":""500"",""price_3"":""600""}","rating","dtc","repulsion_1","1","microwave ovens","null","null","null","null","null","null","2","100","90","100","30","40","25","Warranty","Cooking power","",""
"","","","","","rating_trial_setup","html-keyboard-response","73","1661141","0.0-3.0-0.35","143","1","2025-04-14 14:13:23","bb671e3ae32f654b8954ea4c4635f915","","Mozilla/5.0 (Macintosh; Intel Mac OS X 10_15_7) AppleWebKit/537.36 (KHTML, like Gecko) Chrome/133.0.0.0 Safari/537.36","Macintosh","Chrome","133.0.0.0","OS X","10_15_7","https://hz8g1ckzuq.cognition.run/","en-US,en;q=0.9","hpx5zb71o41wv7h","29","[""White""]","Yes","Female","2309571.699999988","null","","<p></p>","null","rating","tcd","attraction_1","1","washing machines","null","null","null","null","null","null","2","","","","","","","","","",""
"","","","","","rating_trial","survey-html-form","74","1673917","0.0-3.0-1.35","143","1","2025-04-14 14:13:23","bb671e3ae32f654b8954ea4c4635f915","","Mozilla/5.0 (Macintosh; Intel Mac OS X 10_15_7) AppleWebKit/537.36 (KHTML, like Gecko) Chrome/133.0.0.0 Safari/537.36","Macintosh","Chrome","133.0.0.0","OS X","10_15_7","https://hz8g1ckzuq.cognition.run/","en-US,en;q=0.9","hpx5zb71o41wv7h","29","[""White""]","Yes","Female","2309571.699999988","12774","","","{""price_1"":""400"",""price_2"":""700"",""price_3"":""650""}","rating","tcd","attraction_1","1","washing machines","null","null","null","null","null","null","2","60","50","60","50","60","45","Average lifespan","Energy savings","",""
"","","","","","rating_trial_setup","html-keyboard-response","75","1674221","0.0-3.0-0.36","143","1","2025-04-14 14:13:23","bb671e3ae32f654b8954ea4c4635f915","","Mozilla/5.0 (Macintosh; Intel Mac OS X 10_15_7) AppleWebKit/537.36 (KHTML, like Gecko) Chrome/133.0.0.0 Safari/537.36","Macintosh","Chrome","133.0.0.0","OS X","10_15_7","https://hz8g1ckzuq.cognition.run/","en-US,en;q=0.9","hpx5zb71o41wv7h","29","[""White""]","Yes","Female","2309571.699999988","null","","<p></p>","null","rating","wbw","catch","null","washing machines","60","90","50","30","35","5","2","","","","","","","","","",""
"","","","","","rating_trial","survey-html-form","76","1685000","0.0-3.0-1.36","143","1","2025-04-14 14:13:23","bb671e3ae32f654b8954ea4c4635f915","","Mozilla/5.0 (Macintosh; Intel Mac OS X 10_15_7) AppleWebKit/537.36 (KHTML, like Gecko) Chrome/133.0.0.0 Safari/537.36","Macintosh","Chrome","133.0.0.0","OS X","10_15_7","https://hz8g1ckzuq.cognition.run/","en-US,en;q=0.9","hpx5zb71o41wv7h","29","[""White""]","Yes","Female","2309571.699999988","10775","","","{""price_1"":""200"",""price_2"":""800"",""price_3"":""100""}","rating","wbw","catch","null","washing machines","60","90","50","30","35","5","2","null","null","null","null","null","null","Average lifespan","Energy savings","",""
"","","","","","rating_trial_setup","html-keyboard-response","77","1685303","0.0-3.0-0.37","143","1","2025-04-14 14:13:23","bb671e3ae32f654b8954ea4c4635f915","","Mozilla/5.0 (Macintosh; Intel Mac OS X 10_15_7) AppleWebKit/537.36 (KHTML, like Gecko) Chrome/133.0.0.0 Safari/537.36","Macintosh","Chrome","133.0.0.0","OS X","10_15_7","https://hz8g1ckzuq.cognition.run/","en-US,en;q=0.9","hpx5zb71o41wv7h","29","[""White""]","Yes","Female","2309571.699999988","null","","<p></p>","null","rating","bww","catch","null","televisions","60","55","40","15","30","50","2","","","","","","","","","",""
"","","","","","rating_trial","survey-html-form","78","1754128","0.0-3.0-1.37","143","1","2025-04-14 14:13:23","bb671e3ae32f654b8954ea4c4635f915","","Mozilla/5.0 (Macintosh; Intel Mac OS X 10_15_7) AppleWebKit/537.36 (KHTML, like Gecko) Chrome/133.0.0.0 Safari/537.36","Macintosh","Chrome","133.0.0.0","OS X","10_15_7","https://hz8g1ckzuq.cognition.run/","en-US,en;q=0.9","hpx5zb71o41wv7h","29","[""White""]","Yes","Female","2309571.699999988","68825","","","{""price_1"":""300"",""price_2"":""100"",""price_3"":""600""}","rating","bww","catch","null","televisions","60","55","40","15","30","50","2","null","null","null","null","null","null","Screen size","Average lifespan","",""
"","","","","","rating_trial_setup","html-keyboard-response","79","1754433","0.0-3.0-0.38","143","1","2025-04-14 14:13:23","bb671e3ae32f654b8954ea4c4635f915","","Mozilla/5.0 (Macintosh; Intel Mac OS X 10_15_7) AppleWebKit/537.36 (KHTML, like Gecko) Chrome/133.0.0.0 Safari/537.36","Macintosh","Chrome","133.0.0.0","OS X","10_15_7","https://hz8g1ckzuq.cognition.run/","en-US,en;q=0.9","hpx5zb71o41wv7h","29","[""White""]","Yes","Female","2309571.699999988","null","","<p></p>","null","rating","tcd","repulsion_2","1","televisions","null","null","null","null","null","null","2","","","","","","","","","",""
"","","","","","rating_trial","survey-html-form","80","1812796","0.0-3.0-1.38","143","1","2025-04-14 14:13:23","bb671e3ae32f654b8954ea4c4635f915","","Mozilla/5.0 (Macintosh; Intel Mac OS X 10_15_7) AppleWebKit/537.36 (KHTML, like Gecko) Chrome/133.0.0.0 Safari/537.36","Macintosh","Chrome","133.0.0.0","OS X","10_15_7","https://hz8g1ckzuq.cognition.run/","en-US,en;q=0.9","hpx5zb71o41wv7h","29","[""White""]","Yes","Female","2309571.699999988","58362","","","{""price_1"":""999"",""price_2"":""750"",""price_3"":""600""}","rating","tcd","repulsion_2","1","televisions","null","null","null","null","null","null","2","100","90","100","30","40","20","Screen size","Average lifespan","",""
"","","","","","rating_trial_setup","html-keyboard-response","81","1813101","0.0-3.0-0.39","143","1","2025-04-14 14:13:23","bb671e3ae32f654b8954ea4c4635f915","","Mozilla/5.0 (Macintosh; Intel Mac OS X 10_15_7) AppleWebKit/537.36 (KHTML, like Gecko) Chrome/133.0.0.0 Safari/537.36","Macintosh","Chrome","133.0.0.0","OS X","10_15_7","https://hz8g1ckzuq.cognition.run/","en-US,en;q=0.9","hpx5zb71o41wv7h","29","[""White""]","Yes","Female","2309571.699999988","null","","<p></p>","null","rating","cdt","repulsion_1","1","laptops","null","null","null","null","null","null","1","","","","","","","","","",""
"","","","","","rating_trial","survey-html-form","82","1834956","0.0-3.0-1.39","143","1","2025-04-14 14:13:23","bb671e3ae32f654b8954ea4c4635f915","","Mozilla/5.0 (Macintosh; Intel Mac OS X 10_15_7) AppleWebKit/537.36 (KHTML, like Gecko) Chrome/133.0.0.0 Safari/537.36","Macintosh","Chrome","133.0.0.0","OS X","10_15_7","https://hz8g1ckzuq.cognition.run/","en-US,en;q=0.9","hpx5zb71o41wv7h","29","[""White""]","Yes","Female","2309571.699999988","21853","","","{""price_1"":""800"",""price_2"":""500"",""price_3"":""650""}","rating","cdt","repulsion_1","1","laptops","null","null","null","null","null","null","1","100","90","100","30","40","25","Processing speed","Memory (RAM)","",""
"","","","","","","instructions","83","1874289","0.0-4.0","143","1","2025-04-14 14:13:23","bb671e3ae32f654b8954ea4c4635f915","","Mozilla/5.0 (Macintosh; Intel Mac OS X 10_15_7) AppleWebKit/537.36 (KHTML, like Gecko) Chrome/133.0.0.0 Safari/537.36","Macintosh","Chrome","133.0.0.0","OS X","10_15_7","https://hz8g1ckzuq.cognition.run/","en-US,en;q=0.9","hpx5zb71o41wv7h","29","[""White""]","Yes","Female","2309571.699999988","39331","[{""page_index"":0,""viewing_time"":3522},{""page_index"":1,""viewing_time"":1288},{""page_index"":2,""viewing_time"":3020},{""page_index"":3,""viewing_time"":3658},{""page_index"":4,""viewing_time"":2777},{""page_index"":5,""viewing_time"":3984},{""page_index"":6,""viewing_time"":15342},{""page_index"":7,""viewing_time"":5740}]","","","","","","","","","","","","","","","","","","","","","","","",""
"","","","","","choice_trial_setup","html-keyboard-response","84","1874593","0.0-5.0-0.0","143","1","2025-04-14 14:13:23","bb671e3ae32f654b8954ea4c4635f915","","Mozilla/5.0 (Macintosh; Intel Mac OS X 10_15_7) AppleWebKit/537.36 (KHTML, like Gecko) Chrome/133.0.0.0 Safari/537.36","Macintosh","Chrome","133.0.0.0","OS X","10_15_7","https://hz8g1ckzuq.cognition.run/","en-US,en;q=0.9","hpx5zb71o41wv7h","29","[""White""]","Yes","Female","2309571.699999988","null","","<p></p>","null","choice","dtc","repulsion_2","1","laptops","null","null","null","null","null","null","1","","","","","","","","","",""
"","","","","","choice_trial","survey-html-form","85","1880545","0.0-5.0-1.0","143","1","2025-04-14 14:13:23","bb671e3ae32f654b8954ea4c4635f915","","Mozilla/5.0 (Macintosh; Intel Mac OS X 10_15_7) AppleWebKit/537.36 (KHTML, like Gecko) Chrome/133.0.0.0 Safari/537.36","Macintosh","Chrome","133.0.0.0","OS X","10_15_7","https://hz8g1ckzuq.cognition.run/","en-US,en;q=0.9","hpx5zb71o41wv7h","29","[""White""]","Yes","Female","2309571.699999988","5948","","","{""product_choice"":""C""}","choice","dtc","repulsion_2","1","laptops","null","null","null","null","null","null","1","100","90","100","30","40","20","Processing speed","Memory (RAM)","",""
"","","","","","choice_trial_setup","html-keyboard-response","86","1880851","0.0-5.0-0.1","143","1","2025-04-14 14:13:23","bb671e3ae32f654b8954ea4c4635f915","","Mozilla/5.0 (Macintosh; Intel Mac OS X 10_15_7) AppleWebKit/537.36 (KHTML, like Gecko) Chrome/133.0.0.0 Safari/537.36","Macintosh","Chrome","133.0.0.0","OS X","10_15_7","https://hz8g1ckzuq.cognition.run/","en-US,en;q=0.9","hpx5zb71o41wv7h","29","[""White""]","Yes","Female","2309571.699999988","null","","<p></p>","null","choice","tdc","repulsion_1","1","washing machines","null","null","null","null","null","null","1","","","","","","","","","",""
"","","","","","choice_trial","survey-html-form","87","1893447","0.0-5.0-1.1","143","1","2025-04-14 14:13:23","bb671e3ae32f654b8954ea4c4635f915","","Mozilla/5.0 (Macintosh; Intel Mac OS X 10_15_7) AppleWebKit/537.36 (KHTML, like Gecko) Chrome/133.0.0.0 Safari/537.36","Macintosh","Chrome","133.0.0.0","OS X","10_15_7","https://hz8g1ckzuq.cognition.run/","en-US,en;q=0.9","hpx5zb71o41wv7h","29","[""White""]","Yes","Female","2309571.699999988","12593","","","{""product_choice"":""C""}","choice","tdc","repulsion_1","1","washing machines","null","null","null","null","null","null","1","100","90","100","30","40","25","Average lifespan","Energy savings","",""
"","","","","","choice_trial_setup","html-keyboard-response","88","1893752","0.0-5.0-0.2","143","1","2025-04-14 14:13:23","bb671e3ae32f654b8954ea4c4635f915","","Mozilla/5.0 (Macintosh; Intel Mac OS X 10_15_7) AppleWebKit/537.36 (KHTML, like Gecko) Chrome/133.0.0.0 Safari/537.36","Macintosh","Chrome","133.0.0.0","OS X","10_15_7","https://hz8g1ckzuq.cognition.run/","en-US,en;q=0.9","hpx5zb71o41wv7h","29","[""White""]","Yes","Female","2309571.699999988","null","","<p></p>","null","choice","dtc","repulsion_2","2","microwave ovens","null","null","null","null","null","null","2","","","","","","","","","",""
"","","","","","choice_trial","survey-html-form","89","1898294","0.0-5.0-1.2","143","1","2025-04-14 14:13:23","bb671e3ae32f654b8954ea4c4635f915","","Mozilla/5.0 (Macintosh; Intel Mac OS X 10_15_7) AppleWebKit/537.36 (KHTML, like Gecko) Chrome/133.0.0.0 Safari/537.36","Macintosh","Chrome","133.0.0.0","OS X","10_15_7","https://hz8g1ckzuq.cognition.run/","en-US,en;q=0.9","hpx5zb71o41wv7h","29","[""White""]","Yes","Female","2309571.699999988","4538","","","{""product_choice"":""B""}","choice","dtc","repulsion_2","2","microwave ovens","null","null","null","null","null","null","2","30","40","20","100","90","100","Warranty","Cooking power","",""
"","","","","","choice_trial_setup","html-keyboard-response","90","1898599","0.0-5.0-0.3","143","1","2025-04-14 14:13:23","bb671e3ae32f654b8954ea4c4635f915","","Mozilla/5.0 (Macintosh; Intel Mac OS X 10_15_7) AppleWebKit/537.36 (KHTML, like Gecko) Chrome/133.0.0.0 Safari/537.36","Macintosh","Chrome","133.0.0.0","OS X","10_15_7","https://hz8g1ckzuq.cognition.run/","en-US,en;q=0.9","hpx5zb71o41wv7h","29","[""White""]","Yes","Female","2309571.699999988","null","","<p></p>","null","choice","dct","attraction_1","1","washing machines","null","null","null","null","null","null","2","","","","","","","","","",""
"","","","","","choice_trial","survey-html-form","91","1906487","0.0-5.0-1.3","143","1","2025-04-14 14:13:23","bb671e3ae32f654b8954ea4c4635f915","","Mozilla/5.0 (Macintosh; Intel Mac OS X 10_15_7) AppleWebKit/537.36 (KHTML, like Gecko) Chrome/133.0.0.0 Safari/537.36","Macintosh","Chrome","133.0.0.0","OS X","10_15_7","https://hz8g1ckzuq.cognition.run/","en-US,en;q=0.9","hpx5zb71o41wv7h","29","[""White""]","Yes","Female","2309571.699999988","7884","","","{""product_choice"":""B""}","choice","dct","attraction_1","1","washing machines","null","null","null","null","null","null","2","60","50","60","50","60","45","Average lifespan","Energy savings","",""
"","","","","","choice_trial_setup","html-keyboard-response","92","1906790","0.0-5.0-0.4","143","1","2025-04-14 14:13:23","bb671e3ae32f654b8954ea4c4635f915","","Mozilla/5.0 (Macintosh; Intel Mac OS X 10_15_7) AppleWebKit/537.36 (KHTML, like Gecko) Chrome/133.0.0.0 Safari/537.36","Macintosh","Chrome","133.0.0.0","OS X","10_15_7","https://hz8g1ckzuq.cognition.run/","en-US,en;q=0.9","hpx5zb71o41wv7h","29","[""White""]","Yes","Female","2309571.699999988","null","","<p></p>","null","choice","wwb","catch","null","microwave ovens","95","65","35","15","30","40","1","","","","","","","","","",""
"","","","","","choice_trial","survey-html-form","93","1966713","0.0-5.0-1.4","143","1","2025-04-14 14:13:23","bb671e3ae32f654b8954ea4c4635f915","","Mozilla/5.0 (Macintosh; Intel Mac OS X 10_15_7) AppleWebKit/537.36 (KHTML, like Gecko) Chrome/133.0.0.0 Safari/537.36","Macintosh","Chrome","133.0.0.0","OS X","10_15_7","https://hz8g1ckzuq.cognition.run/","en-US,en;q=0.9","hpx5zb71o41wv7h","29","[""White""]","Yes","Female","2309571.699999988","59920","","","{""product_choice"":""C""}","choice","wwb","catch","null","microwave ovens","95","65","35","15","30","40","1","null","null","null","null","null","null","Warranty","Cooking power","",""
"","","","","","choice_trial_setup","html-keyboard-response","94","1967018","0.0-5.0-0.5","143","1","2025-04-14 14:13:23","bb671e3ae32f654b8954ea4c4635f915","","Mozilla/5.0 (Macintosh; Intel Mac OS X 10_15_7) AppleWebKit/537.36 (KHTML, like Gecko) Chrome/133.0.0.0 Safari/537.36","Macintosh","Chrome","133.0.0.0","OS X","10_15_7","https://hz8g1ckzuq.cognition.run/","en-US,en;q=0.9","hpx5zb71o41wv7h","29","[""White""]","Yes","Female","2309571.699999988","null","","<p></p>","null","choice","dtc","repulsion_1","2","microwave ovens","null","null","null","null","null","null","1","","","","","","","","","",""
"","","","","","choice_trial","survey-html-form","95","1985972","0.0-5.0-1.5","143","1","2025-04-14 14:13:23","bb671e3ae32f654b8954ea4c4635f915","","Mozilla/5.0 (Macintosh; Intel Mac OS X 10_15_7) AppleWebKit/537.36 (KHTML, like Gecko) Chrome/133.0.0.0 Safari/537.36","Macintosh","Chrome","133.0.0.0","OS X","10_15_7","https://hz8g1ckzuq.cognition.run/","en-US,en;q=0.9","hpx5zb71o41wv7h","29","[""White""]","Yes","Female","2309571.699999988","18949","","","{""product_choice"":""B""}","choice","dtc","repulsion_1","2","microwave ovens","null","null","null","null","null","null","1","30","40","25","100","90","100","Warranty","Cooking power","",""
"","","","","","choice_trial_setup","html-keyboard-response","96","1986275","0.0-5.0-0.6","143","1","2025-04-14 14:13:23","bb671e3ae32f654b8954ea4c4635f915","","Mozilla/5.0 (Macintosh; Intel Mac OS X 10_15_7) AppleWebKit/537.36 (KHTML, like Gecko) Chrome/133.0.0.0 Safari/537.36","Macintosh","Chrome","133.0.0.0","OS X","10_15_7","https://hz8g1ckzuq.cognition.run/","en-US,en;q=0.9","hpx5zb71o41wv7h","29","[""White""]","Yes","Female","2309571.699999988","null","","<p></p>","null","choice","cdt","repulsion_2","2","televisions","null","null","null","null","null","null","2","","","","","","","","","",""
"","","","","","choice_trial","survey-html-form","97","1993202","0.0-5.0-1.6","143","1","2025-04-14 14:13:23","bb671e3ae32f654b8954ea4c4635f915","","Mozilla/5.0 (Macintosh; Intel Mac OS X 10_15_7) AppleWebKit/537.36 (KHTML, like Gecko) Chrome/133.0.0.0 Safari/537.36","Macintosh","Chrome","133.0.0.0","OS X","10_15_7","https://hz8g1ckzuq.cognition.run/","en-US,en;q=0.9","hpx5zb71o41wv7h","29","[""White""]","Yes","Female","2309571.699999988","6923","","","{""product_choice"":""A""}","choice","cdt","repulsion_2","2","televisions","null","null","null","null","null","null","2","30","40","20","100","90","100","Screen size","Average lifespan","",""
"","","","","","choice_trial_setup","html-keyboard-response","98","1993507","0.0-5.0-0.7","143","1","2025-04-14 14:13:23","bb671e3ae32f654b8954ea4c4635f915","","Mozilla/5.0 (Macintosh; Intel Mac OS X 10_15_7) AppleWebKit/537.36 (KHTML, like Gecko) Chrome/133.0.0.0 Safari/537.36","Macintosh","Chrome","133.0.0.0","OS X","10_15_7","https://hz8g1ckzuq.cognition.run/","en-US,en;q=0.9","hpx5zb71o41wv7h","29","[""White""]","Yes","Female","2309571.699999988","null","","<p></p>","null","choice","bww","catch","null","laptops","65","90","15","40","30","45","2","","","","","","","","","",""
"","","","","","choice_trial","survey-html-form","99","2022291","0.0-5.0-1.7","143","1","2025-04-14 14:13:23","bb671e3ae32f654b8954ea4c4635f915","","Mozilla/5.0 (Macintosh; Intel Mac OS X 10_15_7) AppleWebKit/537.36 (KHTML, like Gecko) Chrome/133.0.0.0 Safari/537.36","Macintosh","Chrome","133.0.0.0","OS X","10_15_7","https://hz8g1ckzuq.cognition.run/","en-US,en;q=0.9","hpx5zb71o41wv7h","29","[""White""]","Yes","Female","2309571.699999988","28781","","","{""product_choice"":""A""}","choice","bww","catch","null","laptops","65","90","15","40","30","45","2","null","null","null","null","null","null","Processing speed","Memory (RAM)","",""
"","","","","","choice_trial_setup","html-keyboard-response","100","2022597","0.0-5.0-0.8","143","1","2025-04-14 14:13:23","bb671e3ae32f654b8954ea4c4635f915","","Mozilla/5.0 (Macintosh; Intel Mac OS X 10_15_7) AppleWebKit/537.36 (KHTML, like Gecko) Chrome/133.0.0.0 Safari/537.36","Macintosh","Chrome","133.0.0.0","OS X","10_15_7","https://hz8g1ckzuq.cognition.run/","en-US,en;q=0.9","hpx5zb71o41wv7h","29","[""White""]","Yes","Female","2309571.699999988","null","","<p></p>","null","choice","ctd","attraction_1","2","washing machines","null","null","null","null","null","null","1","","","","","","","","","",""
"","","","","","choice_trial","survey-html-form","101","2028593","0.0-5.0-1.8","143","1","2025-04-14 14:13:23","bb671e3ae32f654b8954ea4c4635f915","","Mozilla/5.0 (Macintosh; Intel Mac OS X 10_15_7) AppleWebKit/537.36 (KHTML, like Gecko) Chrome/133.0.0.0 Safari/537.36","Macintosh","Chrome","133.0.0.0","OS X","10_15_7","https://hz8g1ckzuq.cognition.run/","en-US,en;q=0.9","hpx5zb71o41wv7h","29","[""White""]","Yes","Female","2309571.699999988","5992","","","{""product_choice"":""B""}","choice","ctd","attraction_1","2","washing machines","null","null","null","null","null","null","1","50","60","45","60","50","60","Average lifespan","Energy savings","",""
"","","","","","choice_trial_setup","html-keyboard-response","102","2028898","0.0-5.0-0.9","143","1","2025-04-14 14:13:23","bb671e3ae32f654b8954ea4c4635f915","","Mozilla/5.0 (Macintosh; Intel Mac OS X 10_15_7) AppleWebKit/537.36 (KHTML, like Gecko) Chrome/133.0.0.0 Safari/537.36","Macintosh","Chrome","133.0.0.0","OS X","10_15_7","https://hz8g1ckzuq.cognition.run/","en-US,en;q=0.9","hpx5zb71o41wv7h","29","[""White""]","Yes","Female","2309571.699999988","null","","<p></p>","null","choice","ctd","attraction_1","1","televisions","null","null","null","null","null","null","2","","","","","","","","","",""
"","","","","","choice_trial","survey-html-form","103","2043770","0.0-5.0-1.9","143","1","2025-04-14 14:13:23","bb671e3ae32f654b8954ea4c4635f915","","Mozilla/5.0 (Macintosh; Intel Mac OS X 10_15_7) AppleWebKit/537.36 (KHTML, like Gecko) Chrome/133.0.0.0 Safari/537.36","Macintosh","Chrome","133.0.0.0","OS X","10_15_7","https://hz8g1ckzuq.cognition.run/","en-US,en;q=0.9","hpx5zb71o41wv7h","29","[""White""]","Yes","Female","2309571.699999988","14867","","","{""product_choice"":""B""}","choice","ctd","attraction_1","1","televisions","null","null","null","null","null","null","2","60","50","60","50","60","45","Screen size","Average lifespan","",""
"","","","","","choice_trial_setup","html-keyboard-response","104","2044075","0.0-5.0-0.10","143","1","2025-04-14 14:13:23","bb671e3ae32f654b8954ea4c4635f915","","Mozilla/5.0 (Macintosh; Intel Mac OS X 10_15_7) AppleWebKit/537.36 (KHTML, like Gecko) Chrome/133.0.0.0 Safari/537.36","Macintosh","Chrome","133.0.0.0","OS X","10_15_7","https://hz8g1ckzuq.cognition.run/","en-US,en;q=0.9","hpx5zb71o41wv7h","29","[""White""]","Yes","Female","2309571.699999988","null","","<p></p>","null","choice","dtc","attraction_1","2","televisions","null","null","null","null","null","null","2","","","","","","","","","",""
"","","","","","choice_trial","survey-html-form","105","2061068","0.0-5.0-1.10","143","1","2025-04-14 14:13:23","bb671e3ae32f654b8954ea4c4635f915","","Mozilla/5.0 (Macintosh; Intel Mac OS X 10_15_7) AppleWebKit/537.36 (KHTML, like Gecko) Chrome/133.0.0.0 Safari/537.36","Macintosh","Chrome","133.0.0.0","OS X","10_15_7","https://hz8g1ckzuq.cognition.run/","en-US,en;q=0.9","hpx5zb71o41wv7h","29","[""White""]","Yes","Female","2309571.699999988","16990","","","{""product_choice"":""B""}","choice","dtc","attraction_1","2","televisions","null","null","null","null","null","null","2","50","60","45","60","50","60","Screen size","Average lifespan","",""
"","","","","","choice_trial_setup","html-keyboard-response","106","2061373","0.0-5.0-0.11","143","1","2025-04-14 14:13:23","bb671e3ae32f654b8954ea4c4635f915","","Mozilla/5.0 (Macintosh; Intel Mac OS X 10_15_7) AppleWebKit/537.36 (KHTML, like Gecko) Chrome/133.0.0.0 Safari/537.36","Macintosh","Chrome","133.0.0.0","OS X","10_15_7","https://hz8g1ckzuq.cognition.run/","en-US,en;q=0.9","hpx5zb71o41wv7h","29","[""White""]","Yes","Female","2309571.699999988","null","","<p></p>","null","choice","tdc","repulsion_1","2","washing machines","null","null","null","null","null","null","1","","","","","","","","","",""
"","","","","","choice_trial","survey-html-form","107","2145415","0.0-5.0-1.11","143","1","2025-04-14 14:13:23","bb671e3ae32f654b8954ea4c4635f915","","Mozilla/5.0 (Macintosh; Intel Mac OS X 10_15_7) AppleWebKit/537.36 (KHTML, like Gecko) Chrome/133.0.0.0 Safari/537.36","Macintosh","Chrome","133.0.0.0","OS X","10_15_7","https://hz8g1ckzuq.cognition.run/","en-US,en;q=0.9","hpx5zb71o41wv7h","29","[""White""]","Yes","Female","2309571.699999988","84041","","","{""product_choice"":""C""}","choice","tdc","repulsion_1","2","washing machines","null","null","null","null","null","null","1","30","40","25","100","90","100","Average lifespan","Energy savings","",""
"","","","","","choice_trial_setup","html-keyboard-response","108","2145720","0.0-5.0-0.12","143","1","2025-04-14 14:13:23","bb671e3ae32f654b8954ea4c4635f915","","Mozilla/5.0 (Macintosh; Intel Mac OS X 10_15_7) AppleWebKit/537.36 (KHTML, like Gecko) Chrome/133.0.0.0 Safari/537.36","Macintosh","Chrome","133.0.0.0","OS X","10_15_7","https://hz8g1ckzuq.cognition.run/","en-US,en;q=0.9","hpx5zb71o41wv7h","29","[""White""]","Yes","Female","2309571.699999988","null","","<p></p>","null","choice","cdt","repulsion_2","1","washing machines","null","null","null","null","null","null","1","","","","","","","","","",""
"","","","","","choice_trial","survey-html-form","109","2150630","0.0-5.0-1.12","143","1","2025-04-14 14:13:23","bb671e3ae32f654b8954ea4c4635f915","","Mozilla/5.0 (Macintosh; Intel Mac OS X 10_15_7) AppleWebKit/537.36 (KHTML, like Gecko) Chrome/133.0.0.0 Safari/537.36","Macintosh","Chrome","133.0.0.0","OS X","10_15_7","https://hz8g1ckzuq.cognition.run/","en-US,en;q=0.9","hpx5zb71o41wv7h","29","[""White""]","Yes","Female","2309571.699999988","4905","","","{""product_choice"":""A""}","choice","cdt","repulsion_2","1","washing machines","null","null","null","null","null","null","1","100","90","100","30","40","20","Average lifespan","Energy savings","",""
"","","","","","choice_trial_setup","html-keyboard-response","110","2150936","0.0-5.0-0.13","143","1","2025-04-14 14:13:23","bb671e3ae32f654b8954ea4c4635f915","","Mozilla/5.0 (Macintosh; Intel Mac OS X 10_15_7) AppleWebKit/537.36 (KHTML, like Gecko) Chrome/133.0.0.0 Safari/537.36","Macintosh","Chrome","133.0.0.0","OS X","10_15_7","https://hz8g1ckzuq.cognition.run/","en-US,en;q=0.9","hpx5zb71o41wv7h","29","[""White""]","Yes","Female","2309571.699999988","null","","<p></p>","null","choice","dtc","attraction_1","1","laptops","null","null","null","null","null","null","2","","","","","","","","","",""
"","","","","","choice_trial","survey-html-form","111","2154972","0.0-5.0-1.13","143","1","2025-04-14 14:13:23","bb671e3ae32f654b8954ea4c4635f915","","Mozilla/5.0 (Macintosh; Intel Mac OS X 10_15_7) AppleWebKit/537.36 (KHTML, like Gecko) Chrome/133.0.0.0 Safari/537.36","Macintosh","Chrome","133.0.0.0","OS X","10_15_7","https://hz8g1ckzuq.cognition.run/","en-US,en;q=0.9","hpx5zb71o41wv7h","29","[""White""]","Yes","Female","2309571.699999988","4032","","","{""product_choice"":""B""}","choice","dtc","attraction_1","1","laptops","null","null","null","null","null","null","2","60","50","60","50","60","45","Processing speed","Memory (RAM)","",""
"","","","","","choice_trial_setup","html-keyboard-response","112","2155278","0.0-5.0-0.14","143","1","2025-04-14 14:13:23","bb671e3ae32f654b8954ea4c4635f915","","Mozilla/5.0 (Macintosh; Intel Mac OS X 10_15_7) AppleWebKit/537.36 (KHTML, like Gecko) Chrome/133.0.0.0 Safari/537.36","Macintosh","Chrome","133.0.0.0","OS X","10_15_7","https://hz8g1ckzuq.cognition.run/","en-US,en;q=0.9","hpx5zb71o41wv7h","29","[""White""]","Yes","Female","2309571.699999988","null","","<p></p>","null","choice","tcd","repulsion_2","1","televisions","null","null","null","null","null","null","1","","","","","","","","","",""
"","","","","","choice_trial","survey-html-form","113","2161426","0.0-5.0-1.14","143","1","2025-04-14 14:13:23","bb671e3ae32f654b8954ea4c4635f915","","Mozilla/5.0 (Macintosh; Intel Mac OS X 10_15_7) AppleWebKit/537.36 (KHTML, like Gecko) Chrome/133.0.0.0 Safari/537.36","Macintosh","Chrome","133.0.0.0","OS X","10_15_7","https://hz8g1ckzuq.cognition.run/","en-US,en;q=0.9","hpx5zb71o41wv7h","29","[""White""]","Yes","Female","2309571.699999988","6144","","","{""product_choice"":""B""}","choice","tcd","repulsion_2","1","televisions","null","null","null","null","null","null","1","100","90","100","30","40","20","Screen size","Average lifespan","",""
"","","","","","choice_trial_setup","html-keyboard-response","114","2161730","0.0-5.0-0.15","143","1","2025-04-14 14:13:23","bb671e3ae32f654b8954ea4c4635f915","","Mozilla/5.0 (Macintosh; Intel Mac OS X 10_15_7) AppleWebKit/537.36 (KHTML, like Gecko) Chrome/133.0.0.0 Safari/537.36","Macintosh","Chrome","133.0.0.0","OS X","10_15_7","https://hz8g1ckzuq.cognition.run/","en-US,en;q=0.9","hpx5zb71o41wv7h","29","[""White""]","Yes","Female","2309571.699999988","null","","<p></p>","null","choice","wwb","catch","null","televisions","80","95","15","30","35","50","1","","","","","","","","","",""
"","","","","","choice_trial","survey-html-form","115","2165862","0.0-5.0-1.15","143","1","2025-04-14 14:13:23","bb671e3ae32f654b8954ea4c4635f915","","Mozilla/5.0 (Macintosh; Intel Mac OS X 10_15_7) AppleWebKit/537.36 (KHTML, like Gecko) Chrome/133.0.0.0 Safari/537.36","Macintosh","Chrome","133.0.0.0","OS X","10_15_7","https://hz8g1ckzuq.cognition.run/","en-US,en;q=0.9","hpx5zb71o41wv7h","29","[""White""]","Yes","Female","2309571.699999988","4128","","","{""product_choice"":""C""}","choice","wwb","catch","null","televisions","80","95","15","30","35","50","1","null","null","null","null","null","null","Screen size","Average lifespan","",""
"","","","","","choice_trial_setup","html-keyboard-response","116","2166168","0.0-5.0-0.16","143","1","2025-04-14 14:13:23","bb671e3ae32f654b8954ea4c4635f915","","Mozilla/5.0 (Macintosh; Intel Mac OS X 10_15_7) AppleWebKit/537.36 (KHTML, like Gecko) Chrome/133.0.0.0 Safari/537.36","Macintosh","Chrome","133.0.0.0","OS X","10_15_7","https://hz8g1ckzuq.cognition.run/","en-US,en;q=0.9","hpx5zb71o41wv7h","29","[""White""]","Yes","Female","2309571.699999988","null","","<p></p>","null","choice","tdc","attraction_2","2","washing machines","null","null","null","null","null","null","1","","","","","","","","","",""
"","","","","","choice_trial","survey-html-form","117","2174163","0.0-5.0-1.16","143","1","2025-04-14 14:13:23","bb671e3ae32f654b8954ea4c4635f915","","Mozilla/5.0 (Macintosh; Intel Mac OS X 10_15_7) AppleWebKit/537.36 (KHTML, like Gecko) Chrome/133.0.0.0 Safari/537.36","Macintosh","Chrome","133.0.0.0","OS X","10_15_7","https://hz8g1ckzuq.cognition.run/","en-US,en;q=0.9","hpx5zb71o41wv7h","29","[""White""]","Yes","Female","2309571.699999988","7990","","","{""product_choice"":""C""}","choice","tdc","attraction_2","2","washing machines","null","null","null","null","null","null","1","50","60","40","60","50","60","Average lifespan","Energy savings","",""
"","","","","","choice_trial_setup","html-keyboard-response","118","2174468","0.0-5.0-0.17","143","1","2025-04-14 14:13:23","bb671e3ae32f654b8954ea4c4635f915","","Mozilla/5.0 (Macintosh; Intel Mac OS X 10_15_7) AppleWebKit/537.36 (KHTML, like Gecko) Chrome/133.0.0.0 Safari/537.36","Macintosh","Chrome","133.0.0.0","OS X","10_15_7","https://hz8g1ckzuq.cognition.run/","en-US,en;q=0.9","hpx5zb71o41wv7h","29","[""White""]","Yes","Female","2309571.699999988","null","","<p></p>","null","choice","ctd","attraction_2","2","microwave ovens","null","null","null","null","null","null","1","","","","","","","","","",""
"","","","","","choice_trial","survey-html-form","119","2177857","0.0-5.0-1.17","143","1","2025-04-14 14:13:23","bb671e3ae32f654b8954ea4c4635f915","","Mozilla/5.0 (Macintosh; Intel Mac OS X 10_15_7) AppleWebKit/537.36 (KHTML, like Gecko) Chrome/133.0.0.0 Safari/537.36","Macintosh","Chrome","133.0.0.0","OS X","10_15_7","https://hz8g1ckzuq.cognition.run/","en-US,en;q=0.9","hpx5zb71o41wv7h","29","[""White""]","Yes","Female","2309571.699999988","3384","","","{""product_choice"":""B""}","choice","ctd","attraction_2","2","microwave ovens","null","null","null","null","null","null","1","50","60","40","60","50","60","Warranty","Cooking power","",""
"","","","","","choice_trial_setup","html-keyboard-response","120","2178161","0.0-5.0-0.18","143","1","2025-04-14 14:13:23","bb671e3ae32f654b8954ea4c4635f915","","Mozilla/5.0 (Macintosh; Intel Mac OS X 10_15_7) AppleWebKit/537.36 (KHTML, like Gecko) Chrome/133.0.0.0 Safari/537.36","Macintosh","Chrome","133.0.0.0","OS X","10_15_7","https://hz8g1ckzuq.cognition.run/","en-US,en;q=0.9","hpx5zb71o41wv7h","29","[""White""]","Yes","Female","2309571.699999988","null","","<p></p>","null","choice","tdc","attraction_2","2","laptops","null","null","null","null","null","null","2","","","","","","","","","",""
"","","","","","choice_trial","survey-html-form","121","2180099","0.0-5.0-1.18","143","1","2025-04-14 14:13:23","bb671e3ae32f654b8954ea4c4635f915","","Mozilla/5.0 (Macintosh; Intel Mac OS X 10_15_7) AppleWebKit/537.36 (KHTML, like Gecko) Chrome/133.0.0.0 Safari/537.36","Macintosh","Chrome","133.0.0.0","OS X","10_15_7","https://hz8g1ckzuq.cognition.run/","en-US,en;q=0.9","hpx5zb71o41wv7h","29","[""White""]","Yes","Female","2309571.699999988","1934","","","{""product_choice"":""B""}","choice","tdc","attraction_2","2","laptops","null","null","null","null","null","null","2","50","60","40","60","50","60","Processing speed","Memory (RAM)","",""
"","","","","","choice_trial_setup","html-keyboard-response","122","2180404","0.0-5.0-0.19","143","1","2025-04-14 14:13:23","bb671e3ae32f654b8954ea4c4635f915","","Mozilla/5.0 (Macintosh; Intel Mac OS X 10_15_7) AppleWebKit/537.36 (KHTML, like Gecko) Chrome/133.0.0.0 Safari/537.36","Macintosh","Chrome","133.0.0.0","OS X","10_15_7","https://hz8g1ckzuq.cognition.run/","en-US,en;q=0.9","hpx5zb71o41wv7h","29","[""White""]","Yes","Female","2309571.699999988","null","","<p></p>","null","choice","tcd","repulsion_1","1","laptops","null","null","null","null","null","null","1","","","","","","","","","",""
"","","","","","choice_trial","survey-html-form","123","2184042","0.0-5.0-1.19","143","1","2025-04-14 14:13:23","bb671e3ae32f654b8954ea4c4635f915","","Mozilla/5.0 (Macintosh; Intel Mac OS X 10_15_7) AppleWebKit/537.36 (KHTML, like Gecko) Chrome/133.0.0.0 Safari/537.36","Macintosh","Chrome","133.0.0.0","OS X","10_15_7","https://hz8g1ckzuq.cognition.run/","en-US,en;q=0.9","hpx5zb71o41wv7h","29","[""White""]","Yes","Female","2309571.699999988","3633","","","{""product_choice"":""C""}","choice","tcd","repulsion_1","1","laptops","null","null","null","null","null","null","1","100","90","100","30","40","25","Processing speed","Memory (RAM)","",""
"","","","","","choice_trial_setup","html-keyboard-response","124","2184348","0.0-5.0-0.20","143","1","2025-04-14 14:13:23","bb671e3ae32f654b8954ea4c4635f915","","Mozilla/5.0 (Macintosh; Intel Mac OS X 10_15_7) AppleWebKit/537.36 (KHTML, like Gecko) Chrome/133.0.0.0 Safari/537.36","Macintosh","Chrome","133.0.0.0","OS X","10_15_7","https://hz8g1ckzuq.cognition.run/","en-US,en;q=0.9","hpx5zb71o41wv7h","29","[""White""]","Yes","Female","2309571.699999988","null","","<p></p>","null","choice","cdt","attraction_2","1","laptops","null","null","null","null","null","null","1","","","","","","","","","",""
"","","","","","choice_trial","survey-html-form","125","2186763","0.0-5.0-1.20","143","1","2025-04-14 14:13:23","bb671e3ae32f654b8954ea4c4635f915","","Mozilla/5.0 (Macintosh; Intel Mac OS X 10_15_7) AppleWebKit/537.36 (KHTML, like Gecko) Chrome/133.0.0.0 Safari/537.36","Macintosh","Chrome","133.0.0.0","OS X","10_15_7","https://hz8g1ckzuq.cognition.run/","en-US,en;q=0.9","hpx5zb71o41wv7h","29","[""White""]","Yes","Female","2309571.699999988","2410","","","{""product_choice"":""B""}","choice","cdt","attraction_2","1","laptops","null","null","null","null","null","null","1","60","50","60","50","60","40","Processing speed","Memory (RAM)","",""
"","","","","","choice_trial_setup","html-keyboard-response","126","2187069","0.0-5.0-0.21","143","1","2025-04-14 14:13:23","bb671e3ae32f654b8954ea4c4635f915","","Mozilla/5.0 (Macintosh; Intel Mac OS X 10_15_7) AppleWebKit/537.36 (KHTML, like Gecko) Chrome/133.0.0.0 Safari/537.36","Macintosh","Chrome","133.0.0.0","OS X","10_15_7","https://hz8g1ckzuq.cognition.run/","en-US,en;q=0.9","hpx5zb71o41wv7h","29","[""White""]","Yes","Female","2309571.699999988","null","","<p></p>","null","choice","dct","repulsion_1","1","televisions","null","null","null","null","null","null","2","","","","","","","","","",""
"","","","","","choice_trial","survey-html-form","127","2191880","0.0-5.0-1.21","143","1","2025-04-14 14:13:23","bb671e3ae32f654b8954ea4c4635f915","","Mozilla/5.0 (Macintosh; Intel Mac OS X 10_15_7) AppleWebKit/537.36 (KHTML, like Gecko) Chrome/133.0.0.0 Safari/537.36","Macintosh","Chrome","133.0.0.0","OS X","10_15_7","https://hz8g1ckzuq.cognition.run/","en-US,en;q=0.9","hpx5zb71o41wv7h","29","[""White""]","Yes","Female","2309571.699999988","4807","","","{""product_choice"":""B""}","choice","dct","repulsion_1","1","televisions","null","null","null","null","null","null","2","100","90","100","30","40","25","Screen size","Average lifespan","",""
"","","","","","choice_trial_setup","html-keyboard-response","128","2192186","0.0-5.0-0.22","143","1","2025-04-14 14:13:23","bb671e3ae32f654b8954ea4c4635f915","","Mozilla/5.0 (Macintosh; Intel Mac OS X 10_15_7) AppleWebKit/537.36 (KHTML, like Gecko) Chrome/133.0.0.0 Safari/537.36","Macintosh","Chrome","133.0.0.0","OS X","10_15_7","https://hz8g1ckzuq.cognition.run/","en-US,en;q=0.9","hpx5zb71o41wv7h","29","[""White""]","Yes","Female","2309571.699999988","null","","<p></p>","null","choice","dct","repulsion_1","2","laptops","null","null","null","null","null","null","1","","","","","","","","","",""
"","","","","","choice_trial","survey-html-form","129","2196413","0.0-5.0-1.22","143","1","2025-04-14 14:13:23","bb671e3ae32f654b8954ea4c4635f915","","Mozilla/5.0 (Macintosh; Intel Mac OS X 10_15_7) AppleWebKit/537.36 (KHTML, like Gecko) Chrome/133.0.0.0 Safari/537.36","Macintosh","Chrome","133.0.0.0","OS X","10_15_7","https://hz8g1ckzuq.cognition.run/","en-US,en;q=0.9","hpx5zb71o41wv7h","29","[""White""]","Yes","Female","2309571.699999988","4221","","","{""product_choice"":""C""}","choice","dct","repulsion_1","2","laptops","null","null","null","null","null","null","1","30","40","25","100","90","100","Processing speed","Memory (RAM)","",""
"","","","","","choice_trial_setup","html-keyboard-response","130","2196717","0.0-5.0-0.23","143","1","2025-04-14 14:13:23","bb671e3ae32f654b8954ea4c4635f915","","Mozilla/5.0 (Macintosh; Intel Mac OS X 10_15_7) AppleWebKit/537.36 (KHTML, like Gecko) Chrome/133.0.0.0 Safari/537.36","Macintosh","Chrome","133.0.0.0","OS X","10_15_7","https://hz8g1ckzuq.cognition.run/","en-US,en;q=0.9","hpx5zb71o41wv7h","29","[""White""]","Yes","Female","2309571.699999988","null","","<p></p>","null","choice","wwb","catch","null","washing machines","65","50","10","20","5","40","1","","","","","","","","","",""
"","","","","","choice_trial","survey-html-form","131","2200664","0.0-5.0-1.23","143","1","2025-04-14 14:13:23","bb671e3ae32f654b8954ea4c4635f915","","Mozilla/5.0 (Macintosh; Intel Mac OS X 10_15_7) AppleWebKit/537.36 (KHTML, like Gecko) Chrome/133.0.0.0 Safari/537.36","Macintosh","Chrome","133.0.0.0","OS X","10_15_7","https://hz8g1ckzuq.cognition.run/","en-US,en;q=0.9","hpx5zb71o41wv7h","29","[""White""]","Yes","Female","2309571.699999988","3941","","","{""product_choice"":""C""}","choice","wwb","catch","null","washing machines","65","50","10","20","5","40","1","null","null","null","null","null","null","Average lifespan","Energy savings","",""
"","","","","","choice_trial_setup","html-keyboard-response","132","2200969","0.0-5.0-0.24","143","1","2025-04-14 14:13:23","bb671e3ae32f654b8954ea4c4635f915","","Mozilla/5.0 (Macintosh; Intel Mac OS X 10_15_7) AppleWebKit/537.36 (KHTML, like Gecko) Chrome/133.0.0.0 Safari/537.36","Macintosh","Chrome","133.0.0.0","OS X","10_15_7","https://hz8g1ckzuq.cognition.run/","en-US,en;q=0.9","hpx5zb71o41wv7h","29","[""White""]","Yes","Female","2309571.699999988","null","","<p></p>","null","choice","dct","repulsion_2","2","laptops","null","null","null","null","null","null","1","","","","","","","","","",""
"","","","","","choice_trial","survey-html-form","133","2205918","0.0-5.0-1.24","143","1","2025-04-14 14:13:23","bb671e3ae32f654b8954ea4c4635f915","","Mozilla/5.0 (Macintosh; Intel Mac OS X 10_15_7) AppleWebKit/537.36 (KHTML, like Gecko) Chrome/133.0.0.0 Safari/537.36","Macintosh","Chrome","133.0.0.0","OS X","10_15_7","https://hz8g1ckzuq.cognition.run/","en-US,en;q=0.9","hpx5zb71o41wv7h","29","[""White""]","Yes","Female","2309571.699999988","4943","","","{""product_choice"":""B""}","choice","dct","repulsion_2","2","laptops","null","null","null","null","null","null","1","30","40","20","100","90","100","Processing speed","Memory (RAM)","",""
"","","","","","choice_trial_setup","html-keyboard-response","134","2206223","0.0-5.0-0.25","143","1","2025-04-14 14:13:23","bb671e3ae32f654b8954ea4c4635f915","","Mozilla/5.0 (Macintosh; Intel Mac OS X 10_15_7) AppleWebKit/537.36 (KHTML, like Gecko) Chrome/133.0.0.0 Safari/537.36","Macintosh","Chrome","133.0.0.0","OS X","10_15_7","https://hz8g1ckzuq.cognition.run/","en-US,en;q=0.9","hpx5zb71o41wv7h","29","[""White""]","Yes","Female","2309571.699999988","null","","<p></p>","null","choice","ctd","attraction_1","2","laptops","null","null","null","null","null","null","2","","","","","","","","","",""
"","","","","","choice_trial","survey-html-form","135","2208425","0.0-5.0-1.25","143","1","2025-04-14 14:13:23","bb671e3ae32f654b8954ea4c4635f915","","Mozilla/5.0 (Macintosh; Intel Mac OS X 10_15_7) AppleWebKit/537.36 (KHTML, like Gecko) Chrome/133.0.0.0 Safari/537.36","Macintosh","Chrome","133.0.0.0","OS X","10_15_7","https://hz8g1ckzuq.cognition.run/","en-US,en;q=0.9","hpx5zb71o41wv7h","29","[""White""]","Yes","Female","2309571.699999988","2197","","","{""product_choice"":""C""}","choice","ctd","attraction_1","2","laptops","null","null","null","null","null","null","2","50","60","45","60","50","60","Processing speed","Memory (RAM)","",""
"","","","","","choice_trial_setup","html-keyboard-response","136","2208731","0.0-5.0-0.26","143","1","2025-04-14 14:13:23","bb671e3ae32f654b8954ea4c4635f915","","Mozilla/5.0 (Macintosh; Intel Mac OS X 10_15_7) AppleWebKit/537.36 (KHTML, like Gecko) Chrome/133.0.0.0 Safari/537.36","Macintosh","Chrome","133.0.0.0","OS X","10_15_7","https://hz8g1ckzuq.cognition.run/","en-US,en;q=0.9","hpx5zb71o41wv7h","29","[""White""]","Yes","Female","2309571.699999988","null","","<p></p>","null","choice","tcd","repulsion_1","2","televisions","null","null","null","null","null","null","1","","","","","","","","","",""
"","","","","","choice_trial","survey-html-form","137","2210889","0.0-5.0-1.26","143","1","2025-04-14 14:13:23","bb671e3ae32f654b8954ea4c4635f915","","Mozilla/5.0 (Macintosh; Intel Mac OS X 10_15_7) AppleWebKit/537.36 (KHTML, like Gecko) Chrome/133.0.0.0 Safari/537.36","Macintosh","Chrome","133.0.0.0","OS X","10_15_7","https://hz8g1ckzuq.cognition.run/","en-US,en;q=0.9","hpx5zb71o41wv7h","29","[""White""]","Yes","Female","2309571.699999988","2152","","","{""product_choice"":""B""}","choice","tcd","repulsion_1","2","televisions","null","null","null","null","null","null","1","30","40","25","100","90","100","Screen size","Average lifespan","",""
"","","","","","choice_trial_setup","html-keyboard-response","138","2211195","0.0-5.0-0.27","143","1","2025-04-14 14:13:23","bb671e3ae32f654b8954ea4c4635f915","","Mozilla/5.0 (Macintosh; Intel Mac OS X 10_15_7) AppleWebKit/537.36 (KHTML, like Gecko) Chrome/133.0.0.0 Safari/537.36","Macintosh","Chrome","133.0.0.0","OS X","10_15_7","https://hz8g1ckzuq.cognition.run/","en-US,en;q=0.9","hpx5zb71o41wv7h","29","[""White""]","Yes","Female","2309571.699999988","null","","<p></p>","null","choice","bww","catch","null","washing machines","60","55","30","5","30","10","1","","","","","","","","","",""
"","","","","","choice_trial","survey-html-form","139","2213571","0.0-5.0-1.27","143","1","2025-04-14 14:13:23","bb671e3ae32f654b8954ea4c4635f915","","Mozilla/5.0 (Macintosh; Intel Mac OS X 10_15_7) AppleWebKit/537.36 (KHTML, like Gecko) Chrome/133.0.0.0 Safari/537.36","Macintosh","Chrome","133.0.0.0","OS X","10_15_7","https://hz8g1ckzuq.cognition.run/","en-US,en;q=0.9","hpx5zb71o41wv7h","29","[""White""]","Yes","Female","2309571.699999988","2372","","","{""product_choice"":""A""}","choice","bww","catch","null","washing machines","60","55","30","5","30","10","1","null","null","null","null","null","null","Average lifespan","Energy savings","",""
"","","","","","choice_trial_setup","html-keyboard-response","140","2213878","0.0-5.0-0.28","143","1","2025-04-14 14:13:23","bb671e3ae32f654b8954ea4c4635f915","","Mozilla/5.0 (Macintosh; Intel Mac OS X 10_15_7) AppleWebKit/537.36 (KHTML, like Gecko) Chrome/133.0.0.0 Safari/537.36","Macintosh","Chrome","133.0.0.0","OS X","10_15_7","https://hz8g1ckzuq.cognition.run/","en-US,en;q=0.9","hpx5zb71o41wv7h","29","[""White""]","Yes","Female","2309571.699999988","null","","<p></p>","null","choice","dtc","repulsion_2","1","microwave ovens","null","null","null","null","null","null","2","","","","","","","","","",""
"","","","","","choice_trial","survey-html-form","141","2216009","0.0-5.0-1.28","143","1","2025-04-14 14:13:23","bb671e3ae32f654b8954ea4c4635f915","","Mozilla/5.0 (Macintosh; Intel Mac OS X 10_15_7) AppleWebKit/537.36 (KHTML, like Gecko) Chrome/133.0.0.0 Safari/537.36","Macintosh","Chrome","133.0.0.0","OS X","10_15_7","https://hz8g1ckzuq.cognition.run/","en-US,en;q=0.9","hpx5zb71o41wv7h","29","[""White""]","Yes","Female","2309571.699999988","2126","","","{""product_choice"":""C""}","choice","dtc","repulsion_2","1","microwave ovens","null","null","null","null","null","null","2","100","90","100","30","40","20","Warranty","Cooking power","",""
"","","","","","choice_trial_setup","html-keyboard-response","142","2216314","0.0-5.0-0.29","143","1","2025-04-14 14:13:23","bb671e3ae32f654b8954ea4c4635f915","","Mozilla/5.0 (Macintosh; Intel Mac OS X 10_15_7) AppleWebKit/537.36 (KHTML, like Gecko) Chrome/133.0.0.0 Safari/537.36","Macintosh","Chrome","133.0.0.0","OS X","10_15_7","https://hz8g1ckzuq.cognition.run/","en-US,en;q=0.9","hpx5zb71o41wv7h","29","[""White""]","Yes","Female","2309571.699999988","null","","<p></p>","null","choice","wbw","catch","null","laptops","65","80","25","5","40","15","2","","","","","","","","","",""
"","","","","","choice_trial","survey-html-form","143","2219081","0.0-5.0-1.29","143","1","2025-04-14 14:13:23","bb671e3ae32f654b8954ea4c4635f915","","Mozilla/5.0 (Macintosh; Intel Mac OS X 10_15_7) AppleWebKit/537.36 (KHTML, like Gecko) Chrome/133.0.0.0 Safari/537.36","Macintosh","Chrome","133.0.0.0","OS X","10_15_7","https://hz8g1ckzuq.cognition.run/","en-US,en;q=0.9","hpx5zb71o41wv7h","29","[""White""]","Yes","Female","2309571.699999988","2761","","","{""product_choice"":""B""}","choice","wbw","catch","null","laptops","65","80","25","5","40","15","2","null","null","null","null","null","null","Processing speed","Memory (RAM)","",""
"","","","","","choice_trial_setup","html-keyboard-response","144","2219387","0.0-5.0-0.30","143","1","2025-04-14 14:13:23","bb671e3ae32f654b8954ea4c4635f915","","Mozilla/5.0 (Macintosh; Intel Mac OS X 10_15_7) AppleWebKit/537.36 (KHTML, like Gecko) Chrome/133.0.0.0 Safari/537.36","Macintosh","Chrome","133.0.0.0","OS X","10_15_7","https://hz8g1ckzuq.cognition.run/","en-US,en;q=0.9","hpx5zb71o41wv7h","29","[""White""]","Yes","Female","2309571.699999988","null","","<p></p>","null","choice","dtc","attraction_2","1","televisions","null","null","null","null","null","null","1","","","","","","","","","",""
"","","","","","choice_trial","survey-html-form","145","2223661","0.0-5.0-1.30","143","1","2025-04-14 14:13:23","bb671e3ae32f654b8954ea4c4635f915","","Mozilla/5.0 (Macintosh; Intel Mac OS X 10_15_7) AppleWebKit/537.36 (KHTML, like Gecko) Chrome/133.0.0.0 Safari/537.36","Macintosh","Chrome","133.0.0.0","OS X","10_15_7","https://hz8g1ckzuq.cognition.run/","en-US,en;q=0.9","hpx5zb71o41wv7h","29","[""White""]","Yes","Female","2309571.699999988","4269","","","{""product_choice"":""A""}","choice","dtc","attraction_2","1","televisions","null","null","null","null","null","null","1","60","50","60","50","60","40","Screen size","Average lifespan","",""
"","","","","","choice_trial_setup","html-keyboard-response","146","2223967","0.0-5.0-0.31","143","1","2025-04-14 14:13:23","bb671e3ae32f654b8954ea4c4635f915","","Mozilla/5.0 (Macintosh; Intel Mac OS X 10_15_7) AppleWebKit/537.36 (KHTML, like Gecko) Chrome/133.0.0.0 Safari/537.36","Macintosh","Chrome","133.0.0.0","OS X","10_15_7","https://hz8g1ckzuq.cognition.run/","en-US,en;q=0.9","hpx5zb71o41wv7h","29","[""White""]","Yes","Female","2309571.699999988","null","","<p></p>","null","choice","dtc","attraction_2","1","washing machines","null","null","null","null","null","null","2","","","","","","","","","",""
"","","","","","choice_trial","survey-html-form","147","2227685","0.0-5.0-1.31","143","1","2025-04-14 14:13:23","bb671e3ae32f654b8954ea4c4635f915","","Mozilla/5.0 (Macintosh; Intel Mac OS X 10_15_7) AppleWebKit/537.36 (KHTML, like Gecko) Chrome/133.0.0.0 Safari/537.36","Macintosh","Chrome","133.0.0.0","OS X","10_15_7","https://hz8g1ckzuq.cognition.run/","en-US,en;q=0.9","hpx5zb71o41wv7h","29","[""White""]","Yes","Female","2309571.699999988","3712","","","{""product_choice"":""A""}","choice","dtc","attraction_2","1","washing machines","null","null","null","null","null","null","2","60","50","60","50","60","40","Average lifespan","Energy savings","",""
"","","","","","choice_trial_setup","html-keyboard-response","148","2227991","0.0-5.0-0.32","143","1","2025-04-14 14:13:23","bb671e3ae32f654b8954ea4c4635f915","","Mozilla/5.0 (Macintosh; Intel Mac OS X 10_15_7) AppleWebKit/537.36 (KHTML, like Gecko) Chrome/133.0.0.0 Safari/537.36","Macintosh","Chrome","133.0.0.0","OS X","10_15_7","https://hz8g1ckzuq.cognition.run/","en-US,en;q=0.9","hpx5zb71o41wv7h","29","[""White""]","Yes","Female","2309571.699999988","null","","<p></p>","null","choice","cdt","attraction_1","2","microwave ovens","null","null","null","null","null","null","1","","","","","","","","","",""
"","","","","","choice_trial","survey-html-form","149","2230927","0.0-5.0-1.32","143","1","2025-04-14 14:13:23","bb671e3ae32f654b8954ea4c4635f915","","Mozilla/5.0 (Macintosh; Intel Mac OS X 10_15_7) AppleWebKit/537.36 (KHTML, like Gecko) Chrome/133.0.0.0 Safari/537.36","Macintosh","Chrome","133.0.0.0","OS X","10_15_7","https://hz8g1ckzuq.cognition.run/","en-US,en;q=0.9","hpx5zb71o41wv7h","29","[""White""]","Yes","Female","2309571.699999988","2931","","","{""product_choice"":""C""}","choice","cdt","attraction_1","2","microwave ovens","null","null","null","null","null","null","1","50","60","45","60","50","60","Warranty","Cooking power","",""
"","","","","","choice_trial_setup","html-keyboard-response","150","2231234","0.0-5.0-0.33","143","1","2025-04-14 14:13:23","bb671e3ae32f654b8954ea4c4635f915","","Mozilla/5.0 (Macintosh; Intel Mac OS X 10_15_7) AppleWebKit/537.36 (KHTML, like Gecko) Chrome/133.0.0.0 Safari/537.36","Macintosh","Chrome","133.0.0.0","OS X","10_15_7","https://hz8g1ckzuq.cognition.run/","en-US,en;q=0.9","hpx5zb71o41wv7h","29","[""White""]","Yes","Female","2309571.699999988","null","","<p></p>","null","choice","dtc","attraction_1","1","microwave ovens","null","null","null","null","null","null","2","","","","","","","","","",""
"","","","","","choice_trial","survey-html-form","151","2235341","0.0-5.0-1.33","143","1","2025-04-14 14:13:23","bb671e3ae32f654b8954ea4c4635f915","","Mozilla/5.0 (Macintosh; Intel Mac OS X 10_15_7) AppleWebKit/537.36 (KHTML, like Gecko) Chrome/133.0.0.0 Safari/537.36","Macintosh","Chrome","133.0.0.0","OS X","10_15_7","https://hz8g1ckzuq.cognition.run/","en-US,en;q=0.9","hpx5zb71o41wv7h","29","[""White""]","Yes","Female","2309571.699999988","4102","","","{""product_choice"":""A""}","choice","dtc","attraction_1","1","microwave ovens","null","null","null","null","null","null","2","60","50","60","50","60","45","Warranty","Cooking power","",""
"","","","","","choice_trial_setup","html-keyboard-response","152","2235647","0.0-5.0-0.34","143","1","2025-04-14 14:13:23","bb671e3ae32f654b8954ea4c4635f915","","Mozilla/5.0 (Macintosh; Intel Mac OS X 10_15_7) AppleWebKit/537.36 (KHTML, like Gecko) Chrome/133.0.0.0 Safari/537.36","Macintosh","Chrome","133.0.0.0","OS X","10_15_7","https://hz8g1ckzuq.cognition.run/","en-US,en;q=0.9","hpx5zb71o41wv7h","29","[""White""]","Yes","Female","2309571.699999988","null","","<p></p>","null","choice","tdc","attraction_2","1","microwave ovens","null","null","null","null","null","null","1","","","","","","","","","",""
"","","","","","choice_trial","survey-html-form","153","2237999","0.0-5.0-1.34","143","1","2025-04-14 14:13:23","bb671e3ae32f654b8954ea4c4635f915","","Mozilla/5.0 (Macintosh; Intel Mac OS X 10_15_7) AppleWebKit/537.36 (KHTML, like Gecko) Chrome/133.0.0.0 Safari/537.36","Macintosh","Chrome","133.0.0.0","OS X","10_15_7","https://hz8g1ckzuq.cognition.run/","en-US,en;q=0.9","hpx5zb71o41wv7h","29","[""White""]","Yes","Female","2309571.699999988","2347","","","{""product_choice"":""C""}","choice","tdc","attraction_2","1","microwave ovens","null","null","null","null","null","null","1","60","50","60","50","60","40","Warranty","Cooking power","",""
"","","","","","choice_trial_setup","html-keyboard-response","154","2238306","0.0-5.0-0.35","143","1","2025-04-14 14:13:23","bb671e3ae32f654b8954ea4c4635f915","","Mozilla/5.0 (Macintosh; Intel Mac OS X 10_15_7) AppleWebKit/537.36 (KHTML, like Gecko) Chrome/133.0.0.0 Safari/537.36","Macintosh","Chrome","133.0.0.0","OS X","10_15_7","https://hz8g1ckzuq.cognition.run/","en-US,en;q=0.9","hpx5zb71o41wv7h","29","[""White""]","Yes","Female","2309571.699999988","null","","<p></p>","null","choice","wwb","catch","null","televisions","60","65","35","5","10","35","2","","","","","","","","","",""
