"success","timeout","failed_images","failed_audio","failed_video","screen_id","trial_type","trial_index","time_elapsed","internal_node_id","run_id","condition","recorded_at","source_code_version","ip","user_agent","device","browser","browser_version","platform","platform_version","referer","accept_language","ppt_id","age","race","ethnicity","gender","exp_duration","rt","view_history","stimulus","response","phase","order","effect","t_high","category","d1_best","d2_best","d1_worst1","d2_worst1","d1_worst2","d2_worst2","first_dim","d1_t","d1_c","d1_d","d2_t","d2_c","d2_d","d1_name","d2_name","strategy_response","question_order"
"true","false","[]","[]","[]","img preload","preload","0","1201","0.0-0.0","144","1","2025-04-14 14:13:38","bb671e3ae32f654b8954ea4c4635f915","","Mozilla/5.0 (Windows NT 10.0; Win64; x64) AppleWebKit/537.36 (KHTML, like Gecko) Chrome/135.0.0.0 Safari/537.36 Edg/135.0.0.0","WebKit","Edge","135.0.0.0","Windows","10.0","https://hz8g1ckzuq.cognition.run/","en-US,en;q=0.9","zpnc27g0swy4u02","31","[""White""]","No","Male","1274140.5","","","","","","","","","","","","","","","","","","","","","","","","","",""
"true","","","","","","fullscreen","1","3422","0.0-1.0","144","1","2025-04-14 14:13:38","bb671e3ae32f654b8954ea4c4635f915","","Mozilla/5.0 (Windows NT 10.0; Win64; x64) AppleWebKit/537.36 (KHTML, like Gecko) Chrome/135.0.0.0 Safari/537.36 Edg/135.0.0.0","WebKit","Edge","135.0.0.0","Windows","10.0","https://hz8g1ckzuq.cognition.run/","en-US,en;q=0.9","zpnc27g0swy4u02","31","[""White""]","No","Male","1274140.5","1205","","","","","","","","","","","","","","","","","","","","","","","","",""
"","","","","","","instructions","2","50265","0.0-2.0","144","1","2025-04-14 14:13:38","bb671e3ae32f654b8954ea4c4635f915","","Mozilla/5.0 (Windows NT 10.0; Win64; x64) AppleWebKit/537.36 (KHTML, like Gecko) Chrome/135.0.0.0 Safari/537.36 Edg/135.0.0.0","WebKit","Edge","135.0.0.0","Windows","10.0","https://hz8g1ckzuq.cognition.run/","en-US,en;q=0.9","zpnc27g0swy4u02","31","[""White""]","No","Male","1274140.5","46842","[{""page_index"":0,""viewing_time"":1064},{""page_index"":1,""viewing_time"":2792},{""page_index"":2,""viewing_time"":3312},{""page_index"":3,""viewing_time"":3968},{""page_index"":4,""viewing_time"":5064},{""page_index"":5,""viewing_time"":6408},{""page_index"":6,""viewing_time"":3434},{""page_index"":7,""viewing_time"":12687},{""page_index"":8,""viewing_time"":5488},{""page_index"":9,""viewing_time"":2624}]","","","","","","","","","","","","","","","","","","","","","","","",""
"","","","","","rating_trial_setup","html-keyboard-response","3","50581","0.0-3.0-0.0","144","1","2025-04-14 14:13:38","bb671e3ae32f654b8954ea4c4635f915","","Mozilla/5.0 (Windows NT 10.0; Win64; x64) AppleWebKit/537.36 (KHTML, like Gecko) Chrome/135.0.0.0 Safari/537.36 Edg/135.0.0.0","WebKit","Edge","135.0.0.0","Windows","10.0","https://hz8g1ckzuq.cognition.run/","en-US,en;q=0.9","zpnc27g0swy4u02","31","[""White""]","No","Male","1274140.5","null","","<p></p>","null","rating","tdc","repulsion_2","1","microwave ovens","null","null","null","null","null","null","1","","","","","","","","","",""
"","","","","","rating_trial","survey-html-form","4","85339","0.0-3.0-1.0","144","1","2025-04-14 14:13:38","bb671e3ae32f654b8954ea4c4635f915","","Mozilla/5.0 (Windows NT 10.0; Win64; x64) AppleWebKit/537.36 (KHTML, like Gecko) Chrome/135.0.0.0 Safari/537.36 Edg/135.0.0.0","WebKit","Edge","135.0.0.0","Windows","10.0","https://hz8g1ckzuq.cognition.run/","en-US,en;q=0.9","zpnc27g0swy4u02","31","[""White""]","No","Male","1274140.5","34755","","","{""price_1"":""100"",""price_2"":""80"",""price_3"":""125""}","rating","tdc","repulsion_2","1","microwave ovens","null","null","null","null","null","null","1","100","90","100","30","40","20","Warranty","Cooking power","",""
"","","","","","rating_trial_setup","html-keyboard-response","5","85656","0.0-3.0-0.1","144","1","2025-04-14 14:13:38","bb671e3ae32f654b8954ea4c4635f915","","Mozilla/5.0 (Windows NT 10.0; Win64; x64) AppleWebKit/537.36 (KHTML, like Gecko) Chrome/135.0.0.0 Safari/537.36 Edg/135.0.0.0","WebKit","Edge","135.0.0.0","Windows","10.0","https://hz8g1ckzuq.cognition.run/","en-US,en;q=0.9","zpnc27g0swy4u02","31","[""White""]","No","Male","1274140.5","null","","<p></p>","null","rating","tcd","attraction_1","2","laptops","null","null","null","null","null","null","1","","","","","","","","","",""
"","","","","","rating_trial","survey-html-form","6","115179","0.0-3.0-1.1","144","1","2025-04-14 14:13:38","bb671e3ae32f654b8954ea4c4635f915","","Mozilla/5.0 (Windows NT 10.0; Win64; x64) AppleWebKit/537.36 (KHTML, like Gecko) Chrome/135.0.0.0 Safari/537.36 Edg/135.0.0.0","WebKit","Edge","135.0.0.0","Windows","10.0","https://hz8g1ckzuq.cognition.run/","en-US,en;q=0.9","zpnc27g0swy4u02","31","[""White""]","No","Male","1274140.5","29521","","","{""price_1"":""350"",""price_2"":""400"",""price_3"":""325""}","rating","tcd","attraction_1","2","laptops","null","null","null","null","null","null","1","50","60","45","60","50","60","Processing speed","Memory (RAM)","",""
"","","","","","rating_trial_setup","html-keyboard-response","7","115488","0.0-3.0-0.2","144","1","2025-04-14 14:13:38","bb671e3ae32f654b8954ea4c4635f915","","Mozilla/5.0 (Windows NT 10.0; Win64; x64) AppleWebKit/537.36 (KHTML, like Gecko) Chrome/135.0.0.0 Safari/537.36 Edg/135.0.0.0","WebKit","Edge","135.0.0.0","Windows","10.0","https://hz8g1ckzuq.cognition.run/","en-US,en;q=0.9","zpnc27g0swy4u02","31","[""White""]","No","Male","1274140.5","null","","<p></p>","null","rating","tdc","repulsion_1","2","microwave ovens","null","null","null","null","null","null","1","","","","","","","","","",""
"","","","","","rating_trial","survey-html-form","8","139028","0.0-3.0-1.2","144","1","2025-04-14 14:13:38","bb671e3ae32f654b8954ea4c4635f915","","Mozilla/5.0 (Windows NT 10.0; Win64; x64) AppleWebKit/537.36 (KHTML, like Gecko) Chrome/135.0.0.0 Safari/537.36 Edg/135.0.0.0","WebKit","Edge","135.0.0.0","Windows","10.0","https://hz8g1ckzuq.cognition.run/","en-US,en;q=0.9","zpnc27g0swy4u02","31","[""White""]","No","Male","1274140.5","23538","","","{""price_1"":""300"",""price_2"":""290"",""price_3"":""200""}","rating","tdc","repulsion_1","2","microwave ovens","null","null","null","null","null","null","1","30","40","25","100","90","100","Warranty","Cooking power","",""
"","","","","","rating_trial_setup","html-keyboard-response","9","139330","0.0-3.0-0.3","144","1","2025-04-14 14:13:38","bb671e3ae32f654b8954ea4c4635f915","","Mozilla/5.0 (Windows NT 10.0; Win64; x64) AppleWebKit/537.36 (KHTML, like Gecko) Chrome/135.0.0.0 Safari/537.36 Edg/135.0.0.0","WebKit","Edge","135.0.0.0","Windows","10.0","https://hz8g1ckzuq.cognition.run/","en-US,en;q=0.9","zpnc27g0swy4u02","31","[""White""]","No","Male","1274140.5","null","","<p></p>","null","rating","bww","catch","null","microwave ovens","95","55","15","25","45","35","1","","","","","","","","","",""
"","","","","","rating_trial","survey-html-form","10","159900","0.0-3.0-1.3","144","1","2025-04-14 14:13:38","bb671e3ae32f654b8954ea4c4635f915","","Mozilla/5.0 (Windows NT 10.0; Win64; x64) AppleWebKit/537.36 (KHTML, like Gecko) Chrome/135.0.0.0 Safari/537.36 Edg/135.0.0.0","WebKit","Edge","135.0.0.0","Windows","10.0","https://hz8g1ckzuq.cognition.run/","en-US,en;q=0.9","zpnc27g0swy4u02","31","[""White""]","No","Male","1274140.5","20568","","","{""price_1"":""150"",""price_2"":""75"",""price_3"":""90""}","rating","bww","catch","null","microwave ovens","95","55","15","25","45","35","1","null","null","null","null","null","null","Warranty","Cooking power","",""
"","","","","","rating_trial_setup","html-keyboard-response","11","160206","0.0-3.0-0.4","144","1","2025-04-14 14:13:38","bb671e3ae32f654b8954ea4c4635f915","","Mozilla/5.0 (Windows NT 10.0; Win64; x64) AppleWebKit/537.36 (KHTML, like Gecko) Chrome/135.0.0.0 Safari/537.36 Edg/135.0.0.0","WebKit","Edge","135.0.0.0","Windows","10.0","https://hz8g1ckzuq.cognition.run/","en-US,en;q=0.9","zpnc27g0swy4u02","31","[""White""]","No","Male","1274140.5","null","","<p></p>","null","rating","tdc","attraction_2","1","microwave ovens","null","null","null","null","null","null","1","","","","","","","","","",""
"","","","","","rating_trial","survey-html-form","12","179749","0.0-3.0-1.4","144","1","2025-04-14 14:13:38","bb671e3ae32f654b8954ea4c4635f915","","Mozilla/5.0 (Windows NT 10.0; Win64; x64) AppleWebKit/537.36 (KHTML, like Gecko) Chrome/135.0.0.0 Safari/537.36 Edg/135.0.0.0","WebKit","Edge","135.0.0.0","Windows","10.0","https://hz8g1ckzuq.cognition.run/","en-US,en;q=0.9","zpnc27g0swy4u02","31","[""White""]","No","Male","1274140.5","19541","","","{""price_1"":""175"",""price_2"":""125"",""price_3"":""150""}","rating","tdc","attraction_2","1","microwave ovens","null","null","null","null","null","null","1","60","50","60","50","60","40","Warranty","Cooking power","",""
"","","","","","rating_trial_setup","html-keyboard-response","13","180066","0.0-3.0-0.5","144","1","2025-04-14 14:13:38","bb671e3ae32f654b8954ea4c4635f915","","Mozilla/5.0 (Windows NT 10.0; Win64; x64) AppleWebKit/537.36 (KHTML, like Gecko) Chrome/135.0.0.0 Safari/537.36 Edg/135.0.0.0","WebKit","Edge","135.0.0.0","Windows","10.0","https://hz8g1ckzuq.cognition.run/","en-US,en;q=0.9","zpnc27g0swy4u02","31","[""White""]","No","Male","1274140.5","null","","<p></p>","null","rating","tdc","attraction_1","1","washing machines","null","null","null","null","null","null","2","","","","","","","","","",""
"","","","","","rating_trial","survey-html-form","14","198037","0.0-3.0-1.5","144","1","2025-04-14 14:13:38","bb671e3ae32f654b8954ea4c4635f915","","Mozilla/5.0 (Windows NT 10.0; Win64; x64) AppleWebKit/537.36 (KHTML, like Gecko) Chrome/135.0.0.0 Safari/537.36 Edg/135.0.0.0","WebKit","Edge","135.0.0.0","Windows","10.0","https://hz8g1ckzuq.cognition.run/","en-US,en;q=0.9","zpnc27g0swy4u02","31","[""White""]","No","Male","1274140.5","17969","","","{""price_1"":""1200"",""price_2"":""1150"",""price_3"":""1000""}","rating","tdc","attraction_1","1","washing machines","null","null","null","null","null","null","2","60","50","60","50","60","45","Average lifespan","Energy savings","",""
"","","","","","rating_trial_setup","html-keyboard-response","15","198340","0.0-3.0-0.6","144","1","2025-04-14 14:13:38","bb671e3ae32f654b8954ea4c4635f915","","Mozilla/5.0 (Windows NT 10.0; Win64; x64) AppleWebKit/537.36 (KHTML, like Gecko) Chrome/135.0.0.0 Safari/537.36 Edg/135.0.0.0","WebKit","Edge","135.0.0.0","Windows","10.0","https://hz8g1ckzuq.cognition.run/","en-US,en;q=0.9","zpnc27g0swy4u02","31","[""White""]","No","Male","1274140.5","null","","<p></p>","null","rating","ctd","repulsion_1","1","microwave ovens","null","null","null","null","null","null","1","","","","","","","","","",""
"","","","","","rating_trial","survey-html-form","16","213966","0.0-3.0-1.6","144","1","2025-04-14 14:13:38","bb671e3ae32f654b8954ea4c4635f915","","Mozilla/5.0 (Windows NT 10.0; Win64; x64) AppleWebKit/537.36 (KHTML, like Gecko) Chrome/135.0.0.0 Safari/537.36 Edg/135.0.0.0","WebKit","Edge","135.0.0.0","Windows","10.0","https://hz8g1ckzuq.cognition.run/","en-US,en;q=0.9","zpnc27g0swy4u02","31","[""White""]","No","Male","1274140.5","15624","","","{""price_1"":""125"",""price_2"":""90"",""price_3"":""80""}","rating","ctd","repulsion_1","1","microwave ovens","null","null","null","null","null","null","1","100","90","100","30","40","25","Warranty","Cooking power","",""
"","","","","","rating_trial_setup","html-keyboard-response","17","214274","0.0-3.0-0.7","144","1","2025-04-14 14:13:38","bb671e3ae32f654b8954ea4c4635f915","","Mozilla/5.0 (Windows NT 10.0; Win64; x64) AppleWebKit/537.36 (KHTML, like Gecko) Chrome/135.0.0.0 Safari/537.36 Edg/135.0.0.0","WebKit","Edge","135.0.0.0","Windows","10.0","https://hz8g1ckzuq.cognition.run/","en-US,en;q=0.9","zpnc27g0swy4u02","31","[""White""]","No","Male","1274140.5","null","","<p></p>","null","rating","ctd","repulsion_1","1","laptops","null","null","null","null","null","null","2","","","","","","","","","",""
"","","","","","rating_trial","survey-html-form","18","248583","0.0-3.0-1.7","144","1","2025-04-14 14:13:38","bb671e3ae32f654b8954ea4c4635f915","","Mozilla/5.0 (Windows NT 10.0; Win64; x64) AppleWebKit/537.36 (KHTML, like Gecko) Chrome/135.0.0.0 Safari/537.36 Edg/135.0.0.0","WebKit","Edge","135.0.0.0","Windows","10.0","https://hz8g1ckzuq.cognition.run/","en-US,en;q=0.9","zpnc27g0swy4u02","31","[""White""]","No","Male","1274140.5","34306","","","{""price_1"":""200"",""price_2"":""275"",""price_3"":""250""}","rating","ctd","repulsion_1","1","laptops","null","null","null","null","null","null","2","100","90","100","30","40","25","Processing speed","Memory (RAM)","",""
"","","","","","rating_trial_setup","html-keyboard-response","19","248889","0.0-3.0-0.8","144","1","2025-04-14 14:13:38","bb671e3ae32f654b8954ea4c4635f915","","Mozilla/5.0 (Windows NT 10.0; Win64; x64) AppleWebKit/537.36 (KHTML, like Gecko) Chrome/135.0.0.0 Safari/537.36 Edg/135.0.0.0","WebKit","Edge","135.0.0.0","Windows","10.0","https://hz8g1ckzuq.cognition.run/","en-US,en;q=0.9","zpnc27g0swy4u02","31","[""White""]","No","Male","1274140.5","null","","<p></p>","null","rating","tcd","attraction_2","1","televisions","null","null","null","null","null","null","1","","","","","","","","","",""
"","","","","","rating_trial","survey-html-form","20","272006","0.0-3.0-1.8","144","1","2025-04-14 14:13:38","bb671e3ae32f654b8954ea4c4635f915","","Mozilla/5.0 (Windows NT 10.0; Win64; x64) AppleWebKit/537.36 (KHTML, like Gecko) Chrome/135.0.0.0 Safari/537.36 Edg/135.0.0.0","WebKit","Edge","135.0.0.0","Windows","10.0","https://hz8g1ckzuq.cognition.run/","en-US,en;q=0.9","zpnc27g0swy4u02","31","[""White""]","No","Male","1274140.5","23115","","","{""price_1"":""325"",""price_2"":""260"",""price_3"":""300""}","rating","tcd","attraction_2","1","televisions","null","null","null","null","null","null","1","60","50","60","50","60","40","Screen size","Average lifespan","",""
"","","","","","rating_trial_setup","html-keyboard-response","21","272313","0.0-3.0-0.9","144","1","2025-04-14 14:13:38","bb671e3ae32f654b8954ea4c4635f915","","Mozilla/5.0 (Windows NT 10.0; Win64; x64) AppleWebKit/537.36 (KHTML, like Gecko) Chrome/135.0.0.0 Safari/537.36 Edg/135.0.0.0","WebKit","Edge","135.0.0.0","Windows","10.0","https://hz8g1ckzuq.cognition.run/","en-US,en;q=0.9","zpnc27g0swy4u02","31","[""White""]","No","Male","1274140.5","null","","<p></p>","null","rating","tcd","repulsion_2","1","televisions","null","null","null","null","null","null","1","","","","","","","","","",""
"","","","","","rating_trial","survey-html-form","22","298303","0.0-3.0-1.9","144","1","2025-04-14 14:13:38","bb671e3ae32f654b8954ea4c4635f915","","Mozilla/5.0 (Windows NT 10.0; Win64; x64) AppleWebKit/537.36 (KHTML, like Gecko) Chrome/135.0.0.0 Safari/537.36 Edg/135.0.0.0","WebKit","Edge","135.0.0.0","Windows","10.0","https://hz8g1ckzuq.cognition.run/","en-US,en;q=0.9","zpnc27g0swy4u02","31","[""White""]","No","Male","1274140.5","25987","","","{""price_1"":""800"",""price_2"":""700"",""price_3"":""775""}","rating","tcd","repulsion_2","1","televisions","null","null","null","null","null","null","1","100","90","100","30","40","20","Screen size","Average lifespan","",""
"","","","","","rating_trial_setup","html-keyboard-response","23","298616","0.0-3.0-0.10","144","1","2025-04-14 14:13:38","bb671e3ae32f654b8954ea4c4635f915","","Mozilla/5.0 (Windows NT 10.0; Win64; x64) AppleWebKit/537.36 (KHTML, like Gecko) Chrome/135.0.0.0 Safari/537.36 Edg/135.0.0.0","WebKit","Edge","135.0.0.0","Windows","10.0","https://hz8g1ckzuq.cognition.run/","en-US,en;q=0.9","zpnc27g0swy4u02","31","[""White""]","No","Male","1274140.5","null","","<p></p>","null","rating","tdc","repulsion_2","2","washing machines","null","null","null","null","null","null","2","","","","","","","","","",""
"","","","","","rating_trial","survey-html-form","24","323017","0.0-3.0-1.10","144","1","2025-04-14 14:13:38","bb671e3ae32f654b8954ea4c4635f915","","Mozilla/5.0 (Windows NT 10.0; Win64; x64) AppleWebKit/537.36 (KHTML, like Gecko) Chrome/135.0.0.0 Safari/537.36 Edg/135.0.0.0","WebKit","Edge","135.0.0.0","Windows","10.0","https://hz8g1ckzuq.cognition.run/","en-US,en;q=0.9","zpnc27g0swy4u02","31","[""White""]","No","Male","1274140.5","24399","","","{""price_1"":""1200"",""price_2"":""1150"",""price_3"":""1000""}","rating","tdc","repulsion_2","2","washing machines","null","null","null","null","null","null","2","30","40","20","100","90","100","Average lifespan","Energy savings","",""
"","","","","","rating_trial_setup","html-keyboard-response","25","323328","0.0-3.0-0.11","144","1","2025-04-14 14:13:38","bb671e3ae32f654b8954ea4c4635f915","","Mozilla/5.0 (Windows NT 10.0; Win64; x64) AppleWebKit/537.36 (KHTML, like Gecko) Chrome/135.0.0.0 Safari/537.36 Edg/135.0.0.0","WebKit","Edge","135.0.0.0","Windows","10.0","https://hz8g1ckzuq.cognition.run/","en-US,en;q=0.9","zpnc27g0swy4u02","31","[""White""]","No","Male","1274140.5","null","","<p></p>","null","rating","dtc","repulsion_2","2","televisions","null","null","null","null","null","null","2","","","","","","","","","",""
"","","","","","rating_trial","survey-html-form","26","355985","0.0-3.0-1.11","144","1","2025-04-14 14:13:38","bb671e3ae32f654b8954ea4c4635f915","","Mozilla/5.0 (Windows NT 10.0; Win64; x64) AppleWebKit/537.36 (KHTML, like Gecko) Chrome/135.0.0.0 Safari/537.36 Edg/135.0.0.0","WebKit","Edge","135.0.0.0","Windows","10.0","https://hz8g1ckzuq.cognition.run/","en-US,en;q=0.9","zpnc27g0swy4u02","31","[""White""]","No","Male","1274140.5","32655","","","{""price_1"":""250"",""price_2"":""350"",""price_3"":""400""}","rating","dtc","repulsion_2","2","televisions","null","null","null","null","null","null","2","30","40","20","100","90","100","Screen size","Average lifespan","",""
"","","","","","rating_trial_setup","html-keyboard-response","27","356293","0.0-3.0-0.12","144","1","2025-04-14 14:13:38","bb671e3ae32f654b8954ea4c4635f915","","Mozilla/5.0 (Windows NT 10.0; Win64; x64) AppleWebKit/537.36 (KHTML, like Gecko) Chrome/135.0.0.0 Safari/537.36 Edg/135.0.0.0","WebKit","Edge","135.0.0.0","Windows","10.0","https://hz8g1ckzuq.cognition.run/","en-US,en;q=0.9","zpnc27g0swy4u02","31","[""White""]","No","Male","1274140.5","null","","<p></p>","null","rating","ctd","attraction_1","1","televisions","null","null","null","null","null","null","1","","","","","","","","","",""
"","","","","","rating_trial","survey-html-form","28","372209","0.0-3.0-1.12","144","1","2025-04-14 14:13:38","bb671e3ae32f654b8954ea4c4635f915","","Mozilla/5.0 (Windows NT 10.0; Win64; x64) AppleWebKit/537.36 (KHTML, like Gecko) Chrome/135.0.0.0 Safari/537.36 Edg/135.0.0.0","WebKit","Edge","135.0.0.0","Windows","10.0","https://hz8g1ckzuq.cognition.run/","en-US,en;q=0.9","zpnc27g0swy4u02","31","[""White""]","No","Male","1274140.5","15913","","","{""price_1"":""250"",""price_2"":""350"",""price_3"":""300""}","rating","ctd","attraction_1","1","televisions","null","null","null","null","null","null","1","60","50","60","50","60","45","Screen size","Average lifespan","",""
"","","","","","rating_trial_setup","html-keyboard-response","29","372515","0.0-3.0-0.13","144","1","2025-04-14 14:13:38","bb671e3ae32f654b8954ea4c4635f915","","Mozilla/5.0 (Windows NT 10.0; Win64; x64) AppleWebKit/537.36 (KHTML, like Gecko) Chrome/135.0.0.0 Safari/537.36 Edg/135.0.0.0","WebKit","Edge","135.0.0.0","Windows","10.0","https://hz8g1ckzuq.cognition.run/","en-US,en;q=0.9","zpnc27g0swy4u02","31","[""White""]","No","Male","1274140.5","null","","<p></p>","null","rating","dct","repulsion_1","1","washing machines","null","null","null","null","null","null","1","","","","","","","","","",""
"","","","","","rating_trial","survey-html-form","30","395346","0.0-3.0-1.13","144","1","2025-04-14 14:13:38","bb671e3ae32f654b8954ea4c4635f915","","Mozilla/5.0 (Windows NT 10.0; Win64; x64) AppleWebKit/537.36 (KHTML, like Gecko) Chrome/135.0.0.0 Safari/537.36 Edg/135.0.0.0","WebKit","Edge","135.0.0.0","Windows","10.0","https://hz8g1ckzuq.cognition.run/","en-US,en;q=0.9","zpnc27g0swy4u02","31","[""White""]","No","Male","1274140.5","22829","","","{""price_1"":""1000"",""price_2"":""1100"",""price_3"":""1150""}","rating","dct","repulsion_1","1","washing machines","null","null","null","null","null","null","1","100","90","100","30","40","25","Average lifespan","Energy savings","",""
"","","","","","rating_trial_setup","html-keyboard-response","31","395654","0.0-3.0-0.14","144","1","2025-04-14 14:13:38","bb671e3ae32f654b8954ea4c4635f915","","Mozilla/5.0 (Windows NT 10.0; Win64; x64) AppleWebKit/537.36 (KHTML, like Gecko) Chrome/135.0.0.0 Safari/537.36 Edg/135.0.0.0","WebKit","Edge","135.0.0.0","Windows","10.0","https://hz8g1ckzuq.cognition.run/","en-US,en;q=0.9","zpnc27g0swy4u02","31","[""White""]","No","Male","1274140.5","null","","<p></p>","null","rating","bww","catch","null","televisions","85","50","40","10","10","10","1","","","","","","","","","",""
"","","","","","rating_trial","survey-html-form","32","422850","0.0-3.0-1.14","144","1","2025-04-14 14:13:38","bb671e3ae32f654b8954ea4c4635f915","","Mozilla/5.0 (Windows NT 10.0; Win64; x64) AppleWebKit/537.36 (KHTML, like Gecko) Chrome/135.0.0.0 Safari/537.36 Edg/135.0.0.0","WebKit","Edge","135.0.0.0","Windows","10.0","https://hz8g1ckzuq.cognition.run/","en-US,en;q=0.9","zpnc27g0swy4u02","31","[""White""]","No","Male","1274140.5","27194","","","{""price_1"":""350"",""price_2"":""150"",""price_3"":""75""}","rating","bww","catch","null","televisions","85","50","40","10","10","10","1","null","null","null","null","null","null","Screen size","Average lifespan","",""
"","","","","","rating_trial_setup","html-keyboard-response","33","423163","0.0-3.0-0.15","144","1","2025-04-14 14:13:38","bb671e3ae32f654b8954ea4c4635f915","","Mozilla/5.0 (Windows NT 10.0; Win64; x64) AppleWebKit/537.36 (KHTML, like Gecko) Chrome/135.0.0.0 Safari/537.36 Edg/135.0.0.0","WebKit","Edge","135.0.0.0","Windows","10.0","https://hz8g1ckzuq.cognition.run/","en-US,en;q=0.9","zpnc27g0swy4u02","31","[""White""]","No","Male","1274140.5","null","","<p></p>","null","rating","dtc","attraction_2","2","microwave ovens","null","null","null","null","null","null","1","","","","","","","","","",""
"","","","","","rating_trial","survey-html-form","34","454499","0.0-3.0-1.15","144","1","2025-04-14 14:13:38","bb671e3ae32f654b8954ea4c4635f915","","Mozilla/5.0 (Windows NT 10.0; Win64; x64) AppleWebKit/537.36 (KHTML, like Gecko) Chrome/135.0.0.0 Safari/537.36 Edg/135.0.0.0","WebKit","Edge","135.0.0.0","Windows","10.0","https://hz8g1ckzuq.cognition.run/","en-US,en;q=0.9","zpnc27g0swy4u02","31","[""White""]","No","Male","1274140.5","31333","","","{""price_1"":""190"",""price_2"":""200"",""price_3"":""175""}","rating","dtc","attraction_2","2","microwave ovens","null","null","null","null","null","null","1","50","60","40","60","50","60","Warranty","Cooking power","",""
"","","","","","rating_trial_setup","html-keyboard-response","35","454802","0.0-3.0-0.16","144","1","2025-04-14 14:13:38","bb671e3ae32f654b8954ea4c4635f915","","Mozilla/5.0 (Windows NT 10.0; Win64; x64) AppleWebKit/537.36 (KHTML, like Gecko) Chrome/135.0.0.0 Safari/537.36 Edg/135.0.0.0","WebKit","Edge","135.0.0.0","Windows","10.0","https://hz8g1ckzuq.cognition.run/","en-US,en;q=0.9","zpnc27g0swy4u02","31","[""White""]","No","Male","1274140.5","null","","<p></p>","null","rating","cdt","repulsion_1","2","televisions","null","null","null","null","null","null","1","","","","","","","","","",""
"","","","","","rating_trial","survey-html-form","36","472547","0.0-3.0-1.16","144","1","2025-04-14 14:13:38","bb671e3ae32f654b8954ea4c4635f915","","Mozilla/5.0 (Windows NT 10.0; Win64; x64) AppleWebKit/537.36 (KHTML, like Gecko) Chrome/135.0.0.0 Safari/537.36 Edg/135.0.0.0","WebKit","Edge","135.0.0.0","Windows","10.0","https://hz8g1ckzuq.cognition.run/","en-US,en;q=0.9","zpnc27g0swy4u02","31","[""White""]","No","Male","1274140.5","17743","","","{""price_1"":""300"",""price_2"":""200"",""price_3"":""225""}","rating","cdt","repulsion_1","2","televisions","null","null","null","null","null","null","1","30","40","25","100","90","100","Screen size","Average lifespan","",""
"","","","","","rating_trial_setup","html-keyboard-response","37","472850","0.0-3.0-0.17","144","1","2025-04-14 14:13:38","bb671e3ae32f654b8954ea4c4635f915","","Mozilla/5.0 (Windows NT 10.0; Win64; x64) AppleWebKit/537.36 (KHTML, like Gecko) Chrome/135.0.0.0 Safari/537.36 Edg/135.0.0.0","WebKit","Edge","135.0.0.0","Windows","10.0","https://hz8g1ckzuq.cognition.run/","en-US,en;q=0.9","zpnc27g0swy4u02","31","[""White""]","No","Male","1274140.5","null","","<p></p>","null","rating","dtc","attraction_2","2","laptops","null","null","null","null","null","null","2","","","","","","","","","",""
"","","","","","rating_trial","survey-html-form","38","505605","0.0-3.0-1.17","144","1","2025-04-14 14:13:38","bb671e3ae32f654b8954ea4c4635f915","","Mozilla/5.0 (Windows NT 10.0; Win64; x64) AppleWebKit/537.36 (KHTML, like Gecko) Chrome/135.0.0.0 Safari/537.36 Edg/135.0.0.0","WebKit","Edge","135.0.0.0","Windows","10.0","https://hz8g1ckzuq.cognition.run/","en-US,en;q=0.9","zpnc27g0swy4u02","31","[""White""]","No","Male","1274140.5","32753","","","{""price_1"":""350"",""price_2"":""500"",""price_3"":""600""}","rating","dtc","attraction_2","2","laptops","null","null","null","null","null","null","2","50","60","40","60","50","60","Processing speed","Memory (RAM)","",""
"","","","","","rating_trial_setup","html-keyboard-response","39","505917","0.0-3.0-0.18","144","1","2025-04-14 14:13:38","bb671e3ae32f654b8954ea4c4635f915","","Mozilla/5.0 (Windows NT 10.0; Win64; x64) AppleWebKit/537.36 (KHTML, like Gecko) Chrome/135.0.0.0 Safari/537.36 Edg/135.0.0.0","WebKit","Edge","135.0.0.0","Windows","10.0","https://hz8g1ckzuq.cognition.run/","en-US,en;q=0.9","zpnc27g0swy4u02","31","[""White""]","No","Male","1274140.5","null","","<p></p>","null","rating","dct","attraction_1","2","washing machines","null","null","null","null","null","null","2","","","","","","","","","",""
"","","","","","rating_trial","survey-html-form","40","527629","0.0-3.0-1.18","144","1","2025-04-14 14:13:38","bb671e3ae32f654b8954ea4c4635f915","","Mozilla/5.0 (Windows NT 10.0; Win64; x64) AppleWebKit/537.36 (KHTML, like Gecko) Chrome/135.0.0.0 Safari/537.36 Edg/135.0.0.0","WebKit","Edge","135.0.0.0","Windows","10.0","https://hz8g1ckzuq.cognition.run/","en-US,en;q=0.9","zpnc27g0swy4u02","31","[""White""]","No","Male","1274140.5","21710","","","{""price_1"":""600"",""price_2"":""850"",""price_3"":""800""}","rating","dct","attraction_1","2","washing machines","null","null","null","null","null","null","2","50","60","45","60","50","60","Average lifespan","Energy savings","",""
"","","","","","rating_trial_setup","html-keyboard-response","41","527945","0.0-3.0-0.19","144","1","2025-04-14 14:13:38","bb671e3ae32f654b8954ea4c4635f915","","Mozilla/5.0 (Windows NT 10.0; Win64; x64) AppleWebKit/537.36 (KHTML, like Gecko) Chrome/135.0.0.0 Safari/537.36 Edg/135.0.0.0","WebKit","Edge","135.0.0.0","Windows","10.0","https://hz8g1ckzuq.cognition.run/","en-US,en;q=0.9","zpnc27g0swy4u02","31","[""White""]","No","Male","1274140.5","null","","<p></p>","null","rating","tdc","repulsion_2","1","washing machines","null","null","null","null","null","null","1","","","","","","","","","",""
"","","","","","rating_trial","survey-html-form","42","552950","0.0-3.0-1.19","144","1","2025-04-14 14:13:38","bb671e3ae32f654b8954ea4c4635f915","","Mozilla/5.0 (Windows NT 10.0; Win64; x64) AppleWebKit/537.36 (KHTML, like Gecko) Chrome/135.0.0.0 Safari/537.36 Edg/135.0.0.0","WebKit","Edge","135.0.0.0","Windows","10.0","https://hz8g1ckzuq.cognition.run/","en-US,en;q=0.9","zpnc27g0swy4u02","31","[""White""]","No","Male","1274140.5","25002","","","{""price_1"":""700"",""price_2"":""650"",""price_3"":""900""}","rating","tdc","repulsion_2","1","washing machines","null","null","null","null","null","null","1","100","90","100","30","40","20","Average lifespan","Energy savings","",""
"","","","","","rating_trial_setup","html-keyboard-response","43","553254","0.0-3.0-0.20","144","1","2025-04-14 14:13:38","bb671e3ae32f654b8954ea4c4635f915","","Mozilla/5.0 (Windows NT 10.0; Win64; x64) AppleWebKit/537.36 (KHTML, like Gecko) Chrome/135.0.0.0 Safari/537.36 Edg/135.0.0.0","WebKit","Edge","135.0.0.0","Windows","10.0","https://hz8g1ckzuq.cognition.run/","en-US,en;q=0.9","zpnc27g0swy4u02","31","[""White""]","No","Male","1274140.5","null","","<p></p>","null","rating","ctd","attraction_1","1","laptops","null","null","null","null","null","null","1","","","","","","","","","",""
"","","","","","rating_trial","survey-html-form","44","573382","0.0-3.0-1.20","144","1","2025-04-14 14:13:38","bb671e3ae32f654b8954ea4c4635f915","","Mozilla/5.0 (Windows NT 10.0; Win64; x64) AppleWebKit/537.36 (KHTML, like Gecko) Chrome/135.0.0.0 Safari/537.36 Edg/135.0.0.0","WebKit","Edge","135.0.0.0","Windows","10.0","https://hz8g1ckzuq.cognition.run/","en-US,en;q=0.9","zpnc27g0swy4u02","31","[""White""]","No","Male","1274140.5","20126","","","{""price_1"":""600"",""price_2"":""700"",""price_3"":""650""}","rating","ctd","attraction_1","1","laptops","null","null","null","null","null","null","1","60","50","60","50","60","45","Processing speed","Memory (RAM)","",""
"","","","","","rating_trial_setup","html-keyboard-response","45","573686","0.0-3.0-0.21","144","1","2025-04-14 14:13:38","bb671e3ae32f654b8954ea4c4635f915","","Mozilla/5.0 (Windows NT 10.0; Win64; x64) AppleWebKit/537.36 (KHTML, like Gecko) Chrome/135.0.0.0 Safari/537.36 Edg/135.0.0.0","WebKit","Edge","135.0.0.0","Windows","10.0","https://hz8g1ckzuq.cognition.run/","en-US,en;q=0.9","zpnc27g0swy4u02","31","[""White""]","No","Male","1274140.5","null","","<p></p>","null","rating","wbw","catch","null","laptops","55","85","25","20","30","40","1","","","","","","","","","",""
"","","","","","rating_trial","survey-html-form","46","593926","0.0-3.0-1.21","144","1","2025-04-14 14:13:38","bb671e3ae32f654b8954ea4c4635f915","","Mozilla/5.0 (Windows NT 10.0; Win64; x64) AppleWebKit/537.36 (KHTML, like Gecko) Chrome/135.0.0.0 Safari/537.36 Edg/135.0.0.0","WebKit","Edge","135.0.0.0","Windows","10.0","https://hz8g1ckzuq.cognition.run/","en-US,en;q=0.9","zpnc27g0swy4u02","31","[""White""]","No","Male","1274140.5","20238","","","{""price_1"":""150"",""price_2"":""400"",""price_3"":""225""}","rating","wbw","catch","null","laptops","55","85","25","20","30","40","1","null","null","null","null","null","null","Processing speed","Memory (RAM)","",""
"","","","","","rating_trial_setup","html-keyboard-response","47","594232","0.0-3.0-0.22","144","1","2025-04-14 14:13:38","bb671e3ae32f654b8954ea4c4635f915","","Mozilla/5.0 (Windows NT 10.0; Win64; x64) AppleWebKit/537.36 (KHTML, like Gecko) Chrome/135.0.0.0 Safari/537.36 Edg/135.0.0.0","WebKit","Edge","135.0.0.0","Windows","10.0","https://hz8g1ckzuq.cognition.run/","en-US,en;q=0.9","zpnc27g0swy4u02","31","[""White""]","No","Male","1274140.5","null","","<p></p>","null","rating","wwb","catch","null","microwave ovens","70","55","50","5","50","20","2","","","","","","","","","",""
"","","","","","rating_trial","survey-html-form","48","621728","0.0-3.0-1.22","144","1","2025-04-14 14:13:38","bb671e3ae32f654b8954ea4c4635f915","","Mozilla/5.0 (Windows NT 10.0; Win64; x64) AppleWebKit/537.36 (KHTML, like Gecko) Chrome/135.0.0.0 Safari/537.36 Edg/135.0.0.0","WebKit","Edge","135.0.0.0","Windows","10.0","https://hz8g1ckzuq.cognition.run/","en-US,en;q=0.9","zpnc27g0swy4u02","31","[""White""]","No","Male","1274140.5","27494","","","{""price_1"":""45"",""price_2"":""90"",""price_3"":""150""}","rating","wwb","catch","null","microwave ovens","70","55","50","5","50","20","2","null","null","null","null","null","null","Warranty","Cooking power","",""
"","","","","","rating_trial_setup","html-keyboard-response","49","622044","0.0-3.0-0.23","144","1","2025-04-14 14:13:38","bb671e3ae32f654b8954ea4c4635f915","","Mozilla/5.0 (Windows NT 10.0; Win64; x64) AppleWebKit/537.36 (KHTML, like Gecko) Chrome/135.0.0.0 Safari/537.36 Edg/135.0.0.0","WebKit","Edge","135.0.0.0","Windows","10.0","https://hz8g1ckzuq.cognition.run/","en-US,en;q=0.9","zpnc27g0swy4u02","31","[""White""]","No","Male","1274140.5","null","","<p></p>","null","rating","tcd","repulsion_2","1","laptops","null","null","null","null","null","null","1","","","","","","","","","",""
"","","","","","rating_trial","survey-html-form","50","647527","0.0-3.0-1.23","144","1","2025-04-14 14:13:38","bb671e3ae32f654b8954ea4c4635f915","","Mozilla/5.0 (Windows NT 10.0; Win64; x64) AppleWebKit/537.36 (KHTML, like Gecko) Chrome/135.0.0.0 Safari/537.36 Edg/135.0.0.0","WebKit","Edge","135.0.0.0","Windows","10.0","https://hz8g1ckzuq.cognition.run/","en-US,en;q=0.9","zpnc27g0swy4u02","31","[""White""]","No","Male","1274140.5","25481","","","{""price_1"":""650"",""price_2"":""600"",""price_3"":""625""}","rating","tcd","repulsion_2","1","laptops","null","null","null","null","null","null","1","100","90","100","30","40","20","Processing speed","Memory (RAM)","",""
"","","","","","rating_trial_setup","html-keyboard-response","51","647842","0.0-3.0-0.24","144","1","2025-04-14 14:13:38","bb671e3ae32f654b8954ea4c4635f915","","Mozilla/5.0 (Windows NT 10.0; Win64; x64) AppleWebKit/537.36 (KHTML, like Gecko) Chrome/135.0.0.0 Safari/537.36 Edg/135.0.0.0","WebKit","Edge","135.0.0.0","Windows","10.0","https://hz8g1ckzuq.cognition.run/","en-US,en;q=0.9","zpnc27g0swy4u02","31","[""White""]","No","Male","1274140.5","null","","<p></p>","null","rating","cdt","attraction_2","1","washing machines","null","null","null","null","null","null","2","","","","","","","","","",""
"","","","","","rating_trial","survey-html-form","52","681337","0.0-3.0-1.24","144","1","2025-04-14 14:13:38","bb671e3ae32f654b8954ea4c4635f915","","Mozilla/5.0 (Windows NT 10.0; Win64; x64) AppleWebKit/537.36 (KHTML, like Gecko) Chrome/135.0.0.0 Safari/537.36 Edg/135.0.0.0","WebKit","Edge","135.0.0.0","Windows","10.0","https://hz8g1ckzuq.cognition.run/","en-US,en;q=0.9","zpnc27g0swy4u02","31","[""White""]","No","Male","1274140.5","33492","","","{""price_1"":""900"",""price_2"":""875"",""price_3"":""925""}","rating","cdt","attraction_2","1","washing machines","null","null","null","null","null","null","2","60","50","60","50","60","40","Average lifespan","Energy savings","",""
"","","","","","rating_trial_setup","html-keyboard-response","53","681640","0.0-3.0-0.25","144","1","2025-04-14 14:13:38","bb671e3ae32f654b8954ea4c4635f915","","Mozilla/5.0 (Windows NT 10.0; Win64; x64) AppleWebKit/537.36 (KHTML, like Gecko) Chrome/135.0.0.0 Safari/537.36 Edg/135.0.0.0","WebKit","Edge","135.0.0.0","Windows","10.0","https://hz8g1ckzuq.cognition.run/","en-US,en;q=0.9","zpnc27g0swy4u02","31","[""White""]","No","Male","1274140.5","null","","<p></p>","null","rating","tdc","attraction_2","1","laptops","null","null","null","null","null","null","1","","","","","","","","","",""
"","","","","","rating_trial","survey-html-form","54","713529","0.0-3.0-1.25","144","1","2025-04-14 14:13:38","bb671e3ae32f654b8954ea4c4635f915","","Mozilla/5.0 (Windows NT 10.0; Win64; x64) AppleWebKit/537.36 (KHTML, like Gecko) Chrome/135.0.0.0 Safari/537.36 Edg/135.0.0.0","WebKit","Edge","135.0.0.0","Windows","10.0","https://hz8g1ckzuq.cognition.run/","en-US,en;q=0.9","zpnc27g0swy4u02","31","[""White""]","No","Male","1274140.5","31886","","","{""price_1"":""400"",""price_2"":""375"",""price_3"":""350""}","rating","tdc","attraction_2","1","laptops","null","null","null","null","null","null","1","60","50","60","50","60","40","Processing speed","Memory (RAM)","",""
"","","","","","rating_trial_setup","html-keyboard-response","55","713836","0.0-3.0-0.26","144","1","2025-04-14 14:13:38","bb671e3ae32f654b8954ea4c4635f915","","Mozilla/5.0 (Windows NT 10.0; Win64; x64) AppleWebKit/537.36 (KHTML, like Gecko) Chrome/135.0.0.0 Safari/537.36 Edg/135.0.0.0","WebKit","Edge","135.0.0.0","Windows","10.0","https://hz8g1ckzuq.cognition.run/","en-US,en;q=0.9","zpnc27g0swy4u02","31","[""White""]","No","Male","1274140.5","null","","<p></p>","null","rating","bww","catch","null","televisions","90","70","30","35","5","5","2","","","","","","","","","",""
"","","","","","rating_trial","survey-html-form","56","731490","0.0-3.0-1.26","144","1","2025-04-14 14:13:38","bb671e3ae32f654b8954ea4c4635f915","","Mozilla/5.0 (Windows NT 10.0; Win64; x64) AppleWebKit/537.36 (KHTML, like Gecko) Chrome/135.0.0.0 Safari/537.36 Edg/135.0.0.0","WebKit","Edge","135.0.0.0","Windows","10.0","https://hz8g1ckzuq.cognition.run/","en-US,en;q=0.9","zpnc27g0swy4u02","31","[""White""]","No","Male","1274140.5","17652","","","{""price_1"":""700"",""price_2"":""200"",""price_3"":""75""}","rating","bww","catch","null","televisions","90","70","30","35","5","5","2","null","null","null","null","null","null","Screen size","Average lifespan","",""
"","","","","","rating_trial_setup","html-keyboard-response","57","731798","0.0-3.0-0.27","144","1","2025-04-14 14:13:38","bb671e3ae32f654b8954ea4c4635f915","","Mozilla/5.0 (Windows NT 10.0; Win64; x64) AppleWebKit/537.36 (KHTML, like Gecko) Chrome/135.0.0.0 Safari/537.36 Edg/135.0.0.0","WebKit","Edge","135.0.0.0","Windows","10.0","https://hz8g1ckzuq.cognition.run/","en-US,en;q=0.9","zpnc27g0swy4u02","31","[""White""]","No","Male","1274140.5","null","","<p></p>","null","rating","dct","attraction_2","2","televisions","null","null","null","null","null","null","2","","","","","","","","","",""
"","","","","","rating_trial","survey-html-form","58","747066","0.0-3.0-1.27","144","1","2025-04-14 14:13:38","bb671e3ae32f654b8954ea4c4635f915","","Mozilla/5.0 (Windows NT 10.0; Win64; x64) AppleWebKit/537.36 (KHTML, like Gecko) Chrome/135.0.0.0 Safari/537.36 Edg/135.0.0.0","WebKit","Edge","135.0.0.0","Windows","10.0","https://hz8g1ckzuq.cognition.run/","en-US,en;q=0.9","zpnc27g0swy4u02","31","[""White""]","No","Male","1274140.5","15265","","","{""price_1"":""375"",""price_2"":""500"",""price_3"":""400""}","rating","dct","attraction_2","2","televisions","null","null","null","null","null","null","2","50","60","40","60","50","60","Screen size","Average lifespan","",""
"","","","","","rating_trial_setup","html-keyboard-response","59","747380","0.0-3.0-0.28","144","1","2025-04-14 14:13:38","bb671e3ae32f654b8954ea4c4635f915","","Mozilla/5.0 (Windows NT 10.0; Win64; x64) AppleWebKit/537.36 (KHTML, like Gecko) Chrome/135.0.0.0 Safari/537.36 Edg/135.0.0.0","WebKit","Edge","135.0.0.0","Windows","10.0","https://hz8g1ckzuq.cognition.run/","en-US,en;q=0.9","zpnc27g0swy4u02","31","[""White""]","No","Male","1274140.5","null","","<p></p>","null","rating","dtc","repulsion_2","2","laptops","null","null","null","null","null","null","1","","","","","","","","","",""
"","","","","","rating_trial","survey-html-form","60","789683","0.0-3.0-1.28","144","1","2025-04-14 14:13:38","bb671e3ae32f654b8954ea4c4635f915","","Mozilla/5.0 (Windows NT 10.0; Win64; x64) AppleWebKit/537.36 (KHTML, like Gecko) Chrome/135.0.0.0 Safari/537.36 Edg/135.0.0.0","WebKit","Edge","135.0.0.0","Windows","10.0","https://hz8g1ckzuq.cognition.run/","en-US,en;q=0.9","zpnc27g0swy4u02","31","[""White""]","No","Male","1274140.5","42301","","","{""price_1"":""150"",""price_2"":""200"",""price_3"":""250""}","rating","dtc","repulsion_2","2","laptops","null","null","null","null","null","null","1","30","40","20","100","90","100","Processing speed","Memory (RAM)","",""
"","","","","","rating_trial_setup","html-keyboard-response","61","789986","0.0-3.0-0.29","144","1","2025-04-14 14:13:38","bb671e3ae32f654b8954ea4c4635f915","","Mozilla/5.0 (Windows NT 10.0; Win64; x64) AppleWebKit/537.36 (KHTML, like Gecko) Chrome/135.0.0.0 Safari/537.36 Edg/135.0.0.0","WebKit","Edge","135.0.0.0","Windows","10.0","https://hz8g1ckzuq.cognition.run/","en-US,en;q=0.9","zpnc27g0swy4u02","31","[""White""]","No","Male","1274140.5","null","","<p></p>","null","rating","cdt","repulsion_2","2","microwave ovens","null","null","null","null","null","null","1","","","","","","","","","",""
"","","","","","rating_trial","survey-html-form","62","806052","0.0-3.0-1.29","144","1","2025-04-14 14:13:38","bb671e3ae32f654b8954ea4c4635f915","","Mozilla/5.0 (Windows NT 10.0; Win64; x64) AppleWebKit/537.36 (KHTML, like Gecko) Chrome/135.0.0.0 Safari/537.36 Edg/135.0.0.0","WebKit","Edge","135.0.0.0","Windows","10.0","https://hz8g1ckzuq.cognition.run/","en-US,en;q=0.9","zpnc27g0swy4u02","31","[""White""]","No","Male","1274140.5","16062","","","{""price_1"":""250"",""price_2"":""300"",""price_3"":""325""}","rating","cdt","repulsion_2","2","microwave ovens","null","null","null","null","null","null","1","30","40","20","100","90","100","Warranty","Cooking power","",""
"","","","","","rating_trial_setup","html-keyboard-response","63","806369","0.0-3.0-0.30","144","1","2025-04-14 14:13:38","bb671e3ae32f654b8954ea4c4635f915","","Mozilla/5.0 (Windows NT 10.0; Win64; x64) AppleWebKit/537.36 (KHTML, like Gecko) Chrome/135.0.0.0 Safari/537.36 Edg/135.0.0.0","WebKit","Edge","135.0.0.0","Windows","10.0","https://hz8g1ckzuq.cognition.run/","en-US,en;q=0.9","zpnc27g0swy4u02","31","[""White""]","No","Male","1274140.5","null","","<p></p>","null","rating","wbw","catch","null","laptops","60","65","35","15","35","5","1","","","","","","","","","",""
"","","","","","rating_trial","survey-html-form","64","825308","0.0-3.0-1.30","144","1","2025-04-14 14:13:38","bb671e3ae32f654b8954ea4c4635f915","","Mozilla/5.0 (Windows NT 10.0; Win64; x64) AppleWebKit/537.36 (KHTML, like Gecko) Chrome/135.0.0.0 Safari/537.36 Edg/135.0.0.0","WebKit","Edge","135.0.0.0","Windows","10.0","https://hz8g1ckzuq.cognition.run/","en-US,en;q=0.9","zpnc27g0swy4u02","31","[""White""]","No","Male","1274140.5","18936","","","{""price_1"":""225"",""price_2"":""500"",""price_3"":""200""}","rating","wbw","catch","null","laptops","60","65","35","15","35","5","1","null","null","null","null","null","null","Processing speed","Memory (RAM)","",""
"","","","","","rating_trial_setup","html-keyboard-response","65","825619","0.0-3.0-0.31","144","1","2025-04-14 14:13:38","bb671e3ae32f654b8954ea4c4635f915","","Mozilla/5.0 (Windows NT 10.0; Win64; x64) AppleWebKit/537.36 (KHTML, like Gecko) Chrome/135.0.0.0 Safari/537.36 Edg/135.0.0.0","WebKit","Edge","135.0.0.0","Windows","10.0","https://hz8g1ckzuq.cognition.run/","en-US,en;q=0.9","zpnc27g0swy4u02","31","[""White""]","No","Male","1274140.5","null","","<p></p>","null","rating","wbw","catch","null","washing machines","55","55","10","45","15","35","1","","","","","","","","","",""
"","","","","","rating_trial","survey-html-form","66","840804","0.0-3.0-1.31","144","1","2025-04-14 14:13:38","bb671e3ae32f654b8954ea4c4635f915","","Mozilla/5.0 (Windows NT 10.0; Win64; x64) AppleWebKit/537.36 (KHTML, like Gecko) Chrome/135.0.0.0 Safari/537.36 Edg/135.0.0.0","WebKit","Edge","135.0.0.0","Windows","10.0","https://hz8g1ckzuq.cognition.run/","en-US,en;q=0.9","zpnc27g0swy4u02","31","[""White""]","No","Male","1274140.5","15182","","","{""price_1"":""475"",""price_2"":""500"",""price_3"":""300""}","rating","wbw","catch","null","washing machines","55","55","10","45","15","35","1","null","null","null","null","null","null","Average lifespan","Energy savings","",""
"","","","","","rating_trial_setup","html-keyboard-response","67","841115","0.0-3.0-0.32","144","1","2025-04-14 14:13:38","bb671e3ae32f654b8954ea4c4635f915","","Mozilla/5.0 (Windows NT 10.0; Win64; x64) AppleWebKit/537.36 (KHTML, like Gecko) Chrome/135.0.0.0 Safari/537.36 Edg/135.0.0.0","WebKit","Edge","135.0.0.0","Windows","10.0","https://hz8g1ckzuq.cognition.run/","en-US,en;q=0.9","zpnc27g0swy4u02","31","[""White""]","No","Male","1274140.5","null","","<p></p>","null","rating","tdc","attraction_1","1","microwave ovens","null","null","null","null","null","null","2","","","","","","","","","",""
"","","","","","rating_trial","survey-html-form","68","861085","0.0-3.0-1.32","144","1","2025-04-14 14:13:38","bb671e3ae32f654b8954ea4c4635f915","","Mozilla/5.0 (Windows NT 10.0; Win64; x64) AppleWebKit/537.36 (KHTML, like Gecko) Chrome/135.0.0.0 Safari/537.36 Edg/135.0.0.0","WebKit","Edge","135.0.0.0","Windows","10.0","https://hz8g1ckzuq.cognition.run/","en-US,en;q=0.9","zpnc27g0swy4u02","31","[""White""]","No","Male","1274140.5","19966","","","{""price_1"":""175"",""price_2"":""150"",""price_3"":""225""}","rating","tdc","attraction_1","1","microwave ovens","null","null","null","null","null","null","2","60","50","60","50","60","45","Warranty","Cooking power","",""
"","","","","","rating_trial_setup","html-keyboard-response","69","861393","0.0-3.0-0.33","144","1","2025-04-14 14:13:38","bb671e3ae32f654b8954ea4c4635f915","","Mozilla/5.0 (Windows NT 10.0; Win64; x64) AppleWebKit/537.36 (KHTML, like Gecko) Chrome/135.0.0.0 Safari/537.36 Edg/135.0.0.0","WebKit","Edge","135.0.0.0","Windows","10.0","https://hz8g1ckzuq.cognition.run/","en-US,en;q=0.9","zpnc27g0swy4u02","31","[""White""]","No","Male","1274140.5","null","","<p></p>","null","rating","tcd","repulsion_1","2","washing machines","null","null","null","null","null","null","2","","","","","","","","","",""
"","","","","","rating_trial","survey-html-form","70","898465","0.0-3.0-1.33","144","1","2025-04-14 14:13:38","bb671e3ae32f654b8954ea4c4635f915","","Mozilla/5.0 (Windows NT 10.0; Win64; x64) AppleWebKit/537.36 (KHTML, like Gecko) Chrome/135.0.0.0 Safari/537.36 Edg/135.0.0.0","WebKit","Edge","135.0.0.0","Windows","10.0","https://hz8g1ckzuq.cognition.run/","en-US,en;q=0.9","zpnc27g0swy4u02","31","[""White""]","No","Male","1274140.5","37068","","","{""price_1"":""400"",""price_2"":""450"",""price_3"":""350""}","rating","tcd","repulsion_1","2","washing machines","null","null","null","null","null","null","2","30","40","25","100","90","100","Average lifespan","Energy savings","",""
"","","","","","rating_trial_setup","html-keyboard-response","71","898770","0.0-3.0-0.34","144","1","2025-04-14 14:13:38","bb671e3ae32f654b8954ea4c4635f915","","Mozilla/5.0 (Windows NT 10.0; Win64; x64) AppleWebKit/537.36 (KHTML, like Gecko) Chrome/135.0.0.0 Safari/537.36 Edg/135.0.0.0","WebKit","Edge","135.0.0.0","Windows","10.0","https://hz8g1ckzuq.cognition.run/","en-US,en;q=0.9","zpnc27g0swy4u02","31","[""White""]","No","Male","1274140.5","null","","<p></p>","null","rating","wbw","catch","null","washing machines","90","50","50","35","15","45","2","","","","","","","","","",""
"","","","","","rating_trial","survey-html-form","72","924082","0.0-3.0-1.34","144","1","2025-04-14 14:13:38","bb671e3ae32f654b8954ea4c4635f915","","Mozilla/5.0 (Windows NT 10.0; Win64; x64) AppleWebKit/537.36 (KHTML, like Gecko) Chrome/135.0.0.0 Safari/537.36 Edg/135.0.0.0","WebKit","Edge","135.0.0.0","Windows","10.0","https://hz8g1ckzuq.cognition.run/","en-US,en;q=0.9","zpnc27g0swy4u02","31","[""White""]","No","Male","1274140.5","25309","","","{""price_1"":""500"",""price_2"":""1000"",""price_3"":""400""}","rating","wbw","catch","null","washing machines","90","50","50","35","15","45","2","null","null","null","null","null","null","Average lifespan","Energy savings","",""
"","","","","","rating_trial_setup","html-keyboard-response","73","924401","0.0-3.0-0.35","144","1","2025-04-14 14:13:38","bb671e3ae32f654b8954ea4c4635f915","","Mozilla/5.0 (Windows NT 10.0; Win64; x64) AppleWebKit/537.36 (KHTML, like Gecko) Chrome/135.0.0.0 Safari/537.36 Edg/135.0.0.0","WebKit","Edge","135.0.0.0","Windows","10.0","https://hz8g1ckzuq.cognition.run/","en-US,en;q=0.9","zpnc27g0swy4u02","31","[""White""]","No","Male","1274140.5","null","","<p></p>","null","rating","tcd","attraction_2","2","washing machines","null","null","null","null","null","null","2","","","","","","","","","",""
"","","","","","rating_trial","survey-html-form","74","953372","0.0-3.0-1.35","144","1","2025-04-14 14:13:38","bb671e3ae32f654b8954ea4c4635f915","","Mozilla/5.0 (Windows NT 10.0; Win64; x64) AppleWebKit/537.36 (KHTML, like Gecko) Chrome/135.0.0.0 Safari/537.36 Edg/135.0.0.0","WebKit","Edge","135.0.0.0","Windows","10.0","https://hz8g1ckzuq.cognition.run/","en-US,en;q=0.9","zpnc27g0swy4u02","31","[""White""]","No","Male","1274140.5","28967","","","{""price_1"":""500"",""price_2"":""600"",""price_3"":""450""}","rating","tcd","attraction_2","2","washing machines","null","null","null","null","null","null","2","50","60","40","60","50","60","Average lifespan","Energy savings","",""
"","","","","","rating_trial_setup","html-keyboard-response","75","953685","0.0-3.0-0.36","144","1","2025-04-14 14:13:38","bb671e3ae32f654b8954ea4c4635f915","","Mozilla/5.0 (Windows NT 10.0; Win64; x64) AppleWebKit/537.36 (KHTML, like Gecko) Chrome/135.0.0.0 Safari/537.36 Edg/135.0.0.0","WebKit","Edge","135.0.0.0","Windows","10.0","https://hz8g1ckzuq.cognition.run/","en-US,en;q=0.9","zpnc27g0swy4u02","31","[""White""]","No","Male","1274140.5","null","","<p></p>","null","rating","dct","attraction_1","2","televisions","null","null","null","null","null","null","1","","","","","","","","","",""
"","","","","","rating_trial","survey-html-form","76","976516","0.0-3.0-1.36","144","1","2025-04-14 14:13:38","bb671e3ae32f654b8954ea4c4635f915","","Mozilla/5.0 (Windows NT 10.0; Win64; x64) AppleWebKit/537.36 (KHTML, like Gecko) Chrome/135.0.0.0 Safari/537.36 Edg/135.0.0.0","WebKit","Edge","135.0.0.0","Windows","10.0","https://hz8g1ckzuq.cognition.run/","en-US,en;q=0.9","zpnc27g0swy4u02","31","[""White""]","No","Male","1274140.5","22828","","","{""price_1"":""350"",""price_2"":""600"",""price_3"":""400""}","rating","dct","attraction_1","2","televisions","null","null","null","null","null","null","1","50","60","45","60","50","60","Screen size","Average lifespan","",""
"","","","","","rating_trial_setup","html-keyboard-response","77","976830","0.0-3.0-0.37","144","1","2025-04-14 14:13:38","bb671e3ae32f654b8954ea4c4635f915","","Mozilla/5.0 (Windows NT 10.0; Win64; x64) AppleWebKit/537.36 (KHTML, like Gecko) Chrome/135.0.0.0 Safari/537.36 Edg/135.0.0.0","WebKit","Edge","135.0.0.0","Windows","10.0","https://hz8g1ckzuq.cognition.run/","en-US,en;q=0.9","zpnc27g0swy4u02","31","[""White""]","No","Male","1274140.5","null","","<p></p>","null","rating","cdt","attraction_1","2","microwave ovens","null","null","null","null","null","null","1","","","","","","","","","",""
"","","","","","rating_trial","survey-html-form","78","991252","0.0-3.0-1.37","144","1","2025-04-14 14:13:38","bb671e3ae32f654b8954ea4c4635f915","","Mozilla/5.0 (Windows NT 10.0; Win64; x64) AppleWebKit/537.36 (KHTML, like Gecko) Chrome/135.0.0.0 Safari/537.36 Edg/135.0.0.0","WebKit","Edge","135.0.0.0","Windows","10.0","https://hz8g1ckzuq.cognition.run/","en-US,en;q=0.9","zpnc27g0swy4u02","31","[""White""]","No","Male","1274140.5","14418","","","{""price_1"":""150"",""price_2"":""200"",""price_3"":""225""}","rating","cdt","attraction_1","2","microwave ovens","null","null","null","null","null","null","1","50","60","45","60","50","60","Warranty","Cooking power","",""
"","","","","","rating_trial_setup","html-keyboard-response","79","991561","0.0-3.0-0.38","144","1","2025-04-14 14:13:38","bb671e3ae32f654b8954ea4c4635f915","","Mozilla/5.0 (Windows NT 10.0; Win64; x64) AppleWebKit/537.36 (KHTML, like Gecko) Chrome/135.0.0.0 Safari/537.36 Edg/135.0.0.0","WebKit","Edge","135.0.0.0","Windows","10.0","https://hz8g1ckzuq.cognition.run/","en-US,en;q=0.9","zpnc27g0swy4u02","31","[""White""]","No","Male","1274140.5","null","","<p></p>","null","rating","tcd","repulsion_1","2","laptops","null","null","null","null","null","null","2","","","","","","","","","",""
"","","","","","rating_trial","survey-html-form","80","1006316","0.0-3.0-1.38","144","1","2025-04-14 14:13:38","bb671e3ae32f654b8954ea4c4635f915","","Mozilla/5.0 (Windows NT 10.0; Win64; x64) AppleWebKit/537.36 (KHTML, like Gecko) Chrome/135.0.0.0 Safari/537.36 Edg/135.0.0.0","WebKit","Edge","135.0.0.0","Windows","10.0","https://hz8g1ckzuq.cognition.run/","en-US,en;q=0.9","zpnc27g0swy4u02","31","[""White""]","No","Male","1274140.5","14752","","","{""price_1"":""350"",""price_2"":""400"",""price_3"":""300""}","rating","tcd","repulsion_1","2","laptops","null","null","null","null","null","null","2","30","40","25","100","90","100","Processing speed","Memory (RAM)","",""
"","","","","","rating_trial_setup","html-keyboard-response","81","1006624","0.0-3.0-0.39","144","1","2025-04-14 14:13:38","bb671e3ae32f654b8954ea4c4635f915","","Mozilla/5.0 (Windows NT 10.0; Win64; x64) AppleWebKit/537.36 (KHTML, like Gecko) Chrome/135.0.0.0 Safari/537.36 Edg/135.0.0.0","WebKit","Edge","135.0.0.0","Windows","10.0","https://hz8g1ckzuq.cognition.run/","en-US,en;q=0.9","zpnc27g0swy4u02","31","[""White""]","No","Male","1274140.5","null","","<p></p>","null","rating","cdt","repulsion_1","1","televisions","null","null","null","null","null","null","1","","","","","","","","","",""
"","","","","","rating_trial","survey-html-form","82","1026853","0.0-3.0-1.39","144","1","2025-04-14 14:13:38","bb671e3ae32f654b8954ea4c4635f915","","Mozilla/5.0 (Windows NT 10.0; Win64; x64) AppleWebKit/537.36 (KHTML, like Gecko) Chrome/135.0.0.0 Safari/537.36 Edg/135.0.0.0","WebKit","Edge","135.0.0.0","Windows","10.0","https://hz8g1ckzuq.cognition.run/","en-US,en;q=0.9","zpnc27g0swy4u02","31","[""White""]","No","Male","1274140.5","20225","","","{""price_1"":""675"",""price_2"":""700"",""price_3"":""725""}","rating","cdt","repulsion_1","1","televisions","null","null","null","null","null","null","1","100","90","100","30","40","25","Screen size","Average lifespan","",""
"","","","","","","instructions","83","1050333","0.0-4.0","144","1","2025-04-14 14:13:38","bb671e3ae32f654b8954ea4c4635f915","","Mozilla/5.0 (Windows NT 10.0; Win64; x64) AppleWebKit/537.36 (KHTML, like Gecko) Chrome/135.0.0.0 Safari/537.36 Edg/135.0.0.0","WebKit","Edge","135.0.0.0","Windows","10.0","https://hz8g1ckzuq.cognition.run/","en-US,en;q=0.9","zpnc27g0swy4u02","31","[""White""]","No","Male","1274140.5","23475","[{""page_index"":0,""viewing_time"":1546},{""page_index"":1,""viewing_time"":1056},{""page_index"":2,""viewing_time"":2129},{""page_index"":3,""viewing_time"":2688},{""page_index"":4,""viewing_time"":3911},{""page_index"":5,""viewing_time"":2456},{""page_index"":6,""viewing_time"":5248},{""page_index"":7,""viewing_time"":4441}]","","","","","","","","","","","","","","","","","","","","","","","",""
"","","","","","choice_trial_setup","html-keyboard-response","84","1050642","0.0-5.0-0.0","144","1","2025-04-14 14:13:38","bb671e3ae32f654b8954ea4c4635f915","","Mozilla/5.0 (Windows NT 10.0; Win64; x64) AppleWebKit/537.36 (KHTML, like Gecko) Chrome/135.0.0.0 Safari/537.36 Edg/135.0.0.0","WebKit","Edge","135.0.0.0","Windows","10.0","https://hz8g1ckzuq.cognition.run/","en-US,en;q=0.9","zpnc27g0swy4u02","31","[""White""]","No","Male","1274140.5","null","","<p></p>","null","choice","ctd","repulsion_2","1","laptops","null","null","null","null","null","null","2","","","","","","","","","",""
"","","","","","choice_trial","survey-html-form","85","1054861","0.0-5.0-1.0","144","1","2025-04-14 14:13:38","bb671e3ae32f654b8954ea4c4635f915","","Mozilla/5.0 (Windows NT 10.0; Win64; x64) AppleWebKit/537.36 (KHTML, like Gecko) Chrome/135.0.0.0 Safari/537.36 Edg/135.0.0.0","WebKit","Edge","135.0.0.0","Windows","10.0","https://hz8g1ckzuq.cognition.run/","en-US,en;q=0.9","zpnc27g0swy4u02","31","[""White""]","No","Male","1274140.5","4214","","","{""product_choice"":""B""}","choice","ctd","repulsion_2","1","laptops","null","null","null","null","null","null","2","100","90","100","30","40","20","Processing speed","Memory (RAM)","",""
"","","","","","choice_trial_setup","html-keyboard-response","86","1055166","0.0-5.0-0.1","144","1","2025-04-14 14:13:38","bb671e3ae32f654b8954ea4c4635f915","","Mozilla/5.0 (Windows NT 10.0; Win64; x64) AppleWebKit/537.36 (KHTML, like Gecko) Chrome/135.0.0.0 Safari/537.36 Edg/135.0.0.0","WebKit","Edge","135.0.0.0","Windows","10.0","https://hz8g1ckzuq.cognition.run/","en-US,en;q=0.9","zpnc27g0swy4u02","31","[""White""]","No","Male","1274140.5","null","","<p></p>","null","choice","dct","attraction_2","2","laptops","null","null","null","null","null","null","2","","","","","","","","","",""
"","","","","","choice_trial","survey-html-form","87","1058781","0.0-5.0-1.1","144","1","2025-04-14 14:13:38","bb671e3ae32f654b8954ea4c4635f915","","Mozilla/5.0 (Windows NT 10.0; Win64; x64) AppleWebKit/537.36 (KHTML, like Gecko) Chrome/135.0.0.0 Safari/537.36 Edg/135.0.0.0","WebKit","Edge","135.0.0.0","Windows","10.0","https://hz8g1ckzuq.cognition.run/","en-US,en;q=0.9","zpnc27g0swy4u02","31","[""White""]","No","Male","1274140.5","3611","","","{""product_choice"":""B""}","choice","dct","attraction_2","2","laptops","null","null","null","null","null","null","2","50","60","40","60","50","60","Processing speed","Memory (RAM)","",""
"","","","","","choice_trial_setup","html-keyboard-response","88","1059090","0.0-5.0-0.2","144","1","2025-04-14 14:13:38","bb671e3ae32f654b8954ea4c4635f915","","Mozilla/5.0 (Windows NT 10.0; Win64; x64) AppleWebKit/537.36 (KHTML, like Gecko) Chrome/135.0.0.0 Safari/537.36 Edg/135.0.0.0","WebKit","Edge","135.0.0.0","Windows","10.0","https://hz8g1ckzuq.cognition.run/","en-US,en;q=0.9","zpnc27g0swy4u02","31","[""White""]","No","Male","1274140.5","null","","<p></p>","null","choice","cdt","attraction_1","2","washing machines","null","null","null","null","null","null","2","","","","","","","","","",""
"","","","","","choice_trial","survey-html-form","89","1062853","0.0-5.0-1.2","144","1","2025-04-14 14:13:38","bb671e3ae32f654b8954ea4c4635f915","","Mozilla/5.0 (Windows NT 10.0; Win64; x64) AppleWebKit/537.36 (KHTML, like Gecko) Chrome/135.0.0.0 Safari/537.36 Edg/135.0.0.0","WebKit","Edge","135.0.0.0","Windows","10.0","https://hz8g1ckzuq.cognition.run/","en-US,en;q=0.9","zpnc27g0swy4u02","31","[""White""]","No","Male","1274140.5","3759","","","{""product_choice"":""A""}","choice","cdt","attraction_1","2","washing machines","null","null","null","null","null","null","2","50","60","45","60","50","60","Average lifespan","Energy savings","",""
"","","","","","choice_trial_setup","html-keyboard-response","90","1063167","0.0-5.0-0.3","144","1","2025-04-14 14:13:38","bb671e3ae32f654b8954ea4c4635f915","","Mozilla/5.0 (Windows NT 10.0; Win64; x64) AppleWebKit/537.36 (KHTML, like Gecko) Chrome/135.0.0.0 Safari/537.36 Edg/135.0.0.0","WebKit","Edge","135.0.0.0","Windows","10.0","https://hz8g1ckzuq.cognition.run/","en-US,en;q=0.9","zpnc27g0swy4u02","31","[""White""]","No","Male","1274140.5","null","","<p></p>","null","choice","cdt","attraction_1","1","washing machines","null","null","null","null","null","null","1","","","","","","","","","",""
"","","","","","choice_trial","survey-html-form","91","1066597","0.0-5.0-1.3","144","1","2025-04-14 14:13:38","bb671e3ae32f654b8954ea4c4635f915","","Mozilla/5.0 (Windows NT 10.0; Win64; x64) AppleWebKit/537.36 (KHTML, like Gecko) Chrome/135.0.0.0 Safari/537.36 Edg/135.0.0.0","WebKit","Edge","135.0.0.0","Windows","10.0","https://hz8g1ckzuq.cognition.run/","en-US,en;q=0.9","zpnc27g0swy4u02","31","[""White""]","No","Male","1274140.5","3427","","","{""product_choice"":""C""}","choice","cdt","attraction_1","1","washing machines","null","null","null","null","null","null","1","60","50","60","50","60","45","Average lifespan","Energy savings","",""
"","","","","","choice_trial_setup","html-keyboard-response","92","1066914","0.0-5.0-0.4","144","1","2025-04-14 14:13:38","bb671e3ae32f654b8954ea4c4635f915","","Mozilla/5.0 (Windows NT 10.0; Win64; x64) AppleWebKit/537.36 (KHTML, like Gecko) Chrome/135.0.0.0 Safari/537.36 Edg/135.0.0.0","WebKit","Edge","135.0.0.0","Windows","10.0","https://hz8g1ckzuq.cognition.run/","en-US,en;q=0.9","zpnc27g0swy4u02","31","[""White""]","No","Male","1274140.5","null","","<p></p>","null","choice","ctd","attraction_2","1","washing machines","null","null","null","null","null","null","2","","","","","","","","","",""
"","","","","","choice_trial","survey-html-form","93","1070557","0.0-5.0-1.4","144","1","2025-04-14 14:13:38","bb671e3ae32f654b8954ea4c4635f915","","Mozilla/5.0 (Windows NT 10.0; Win64; x64) AppleWebKit/537.36 (KHTML, like Gecko) Chrome/135.0.0.0 Safari/537.36 Edg/135.0.0.0","WebKit","Edge","135.0.0.0","Windows","10.0","https://hz8g1ckzuq.cognition.run/","en-US,en;q=0.9","zpnc27g0swy4u02","31","[""White""]","No","Male","1274140.5","3640","","","{""product_choice"":""B""}","choice","ctd","attraction_2","1","washing machines","null","null","null","null","null","null","2","60","50","60","50","60","40","Average lifespan","Energy savings","",""
"","","","","","choice_trial_setup","html-keyboard-response","94","1070866","0.0-5.0-0.5","144","1","2025-04-14 14:13:38","bb671e3ae32f654b8954ea4c4635f915","","Mozilla/5.0 (Windows NT 10.0; Win64; x64) AppleWebKit/537.36 (KHTML, like Gecko) Chrome/135.0.0.0 Safari/537.36 Edg/135.0.0.0","WebKit","Edge","135.0.0.0","Windows","10.0","https://hz8g1ckzuq.cognition.run/","en-US,en;q=0.9","zpnc27g0swy4u02","31","[""White""]","No","Male","1274140.5","null","","<p></p>","null","choice","dtc","repulsion_1","2","televisions","null","null","null","null","null","null","1","","","","","","","","","",""
"","","","","","choice_trial","survey-html-form","95","1075389","0.0-5.0-1.5","144","1","2025-04-14 14:13:38","bb671e3ae32f654b8954ea4c4635f915","","Mozilla/5.0 (Windows NT 10.0; Win64; x64) AppleWebKit/537.36 (KHTML, like Gecko) Chrome/135.0.0.0 Safari/537.36 Edg/135.0.0.0","WebKit","Edge","135.0.0.0","Windows","10.0","https://hz8g1ckzuq.cognition.run/","en-US,en;q=0.9","zpnc27g0swy4u02","31","[""White""]","No","Male","1274140.5","4519","","","{""product_choice"":""C""}","choice","dtc","repulsion_1","2","televisions","null","null","null","null","null","null","1","30","40","25","100","90","100","Screen size","Average lifespan","",""
"","","","","","choice_trial_setup","html-keyboard-response","96","1075704","0.0-5.0-0.6","144","1","2025-04-14 14:13:38","bb671e3ae32f654b8954ea4c4635f915","","Mozilla/5.0 (Windows NT 10.0; Win64; x64) AppleWebKit/537.36 (KHTML, like Gecko) Chrome/135.0.0.0 Safari/537.36 Edg/135.0.0.0","WebKit","Edge","135.0.0.0","Windows","10.0","https://hz8g1ckzuq.cognition.run/","en-US,en;q=0.9","zpnc27g0swy4u02","31","[""White""]","No","Male","1274140.5","null","","<p></p>","null","choice","tdc","repulsion_2","1","microwave ovens","null","null","null","null","null","null","1","","","","","","","","","",""
"","","","","","choice_trial","survey-html-form","97","1079237","0.0-5.0-1.6","144","1","2025-04-14 14:13:38","bb671e3ae32f654b8954ea4c4635f915","","Mozilla/5.0 (Windows NT 10.0; Win64; x64) AppleWebKit/537.36 (KHTML, like Gecko) Chrome/135.0.0.0 Safari/537.36 Edg/135.0.0.0","WebKit","Edge","135.0.0.0","Windows","10.0","https://hz8g1ckzuq.cognition.run/","en-US,en;q=0.9","zpnc27g0swy4u02","31","[""White""]","No","Male","1274140.5","3531","","","{""product_choice"":""C""}","choice","tdc","repulsion_2","1","microwave ovens","null","null","null","null","null","null","1","100","90","100","30","40","20","Warranty","Cooking power","",""
"","","","","","choice_trial_setup","html-keyboard-response","98","1079546","0.0-5.0-0.7","144","1","2025-04-14 14:13:38","bb671e3ae32f654b8954ea4c4635f915","","Mozilla/5.0 (Windows NT 10.0; Win64; x64) AppleWebKit/537.36 (KHTML, like Gecko) Chrome/135.0.0.0 Safari/537.36 Edg/135.0.0.0","WebKit","Edge","135.0.0.0","Windows","10.0","https://hz8g1ckzuq.cognition.run/","en-US,en;q=0.9","zpnc27g0swy4u02","31","[""White""]","No","Male","1274140.5","null","","<p></p>","null","choice","wwb","catch","null","microwave ovens","80","95","15","30","20","30","1","","","","","","","","","",""
"","","","","","choice_trial","survey-html-form","99","1084934","0.0-5.0-1.7","144","1","2025-04-14 14:13:38","bb671e3ae32f654b8954ea4c4635f915","","Mozilla/5.0 (Windows NT 10.0; Win64; x64) AppleWebKit/537.36 (KHTML, like Gecko) Chrome/135.0.0.0 Safari/537.36 Edg/135.0.0.0","WebKit","Edge","135.0.0.0","Windows","10.0","https://hz8g1ckzuq.cognition.run/","en-US,en;q=0.9","zpnc27g0swy4u02","31","[""White""]","No","Male","1274140.5","5383","","","{""product_choice"":""C""}","choice","wwb","catch","null","microwave ovens","80","95","15","30","20","30","1","null","null","null","null","null","null","Warranty","Cooking power","",""
"","","","","","choice_trial_setup","html-keyboard-response","100","1085252","0.0-5.0-0.8","144","1","2025-04-14 14:13:38","bb671e3ae32f654b8954ea4c4635f915","","Mozilla/5.0 (Windows NT 10.0; Win64; x64) AppleWebKit/537.36 (KHTML, like Gecko) Chrome/135.0.0.0 Safari/537.36 Edg/135.0.0.0","WebKit","Edge","135.0.0.0","Windows","10.0","https://hz8g1ckzuq.cognition.run/","en-US,en;q=0.9","zpnc27g0swy4u02","31","[""White""]","No","Male","1274140.5","null","","<p></p>","null","choice","cdt","attraction_2","1","televisions","null","null","null","null","null","null","2","","","","","","","","","",""
"","","","","","choice_trial","survey-html-form","101","1092710","0.0-5.0-1.8","144","1","2025-04-14 14:13:38","bb671e3ae32f654b8954ea4c4635f915","","Mozilla/5.0 (Windows NT 10.0; Win64; x64) AppleWebKit/537.36 (KHTML, like Gecko) Chrome/135.0.0.0 Safari/537.36 Edg/135.0.0.0","WebKit","Edge","135.0.0.0","Windows","10.0","https://hz8g1ckzuq.cognition.run/","en-US,en;q=0.9","zpnc27g0swy4u02","31","[""White""]","No","Male","1274140.5","7455","","","{""product_choice"":""C""}","choice","cdt","attraction_2","1","televisions","null","null","null","null","null","null","2","60","50","60","50","60","40","Screen size","Average lifespan","",""
"","","","","","choice_trial_setup","html-keyboard-response","102","1093026","0.0-5.0-0.9","144","1","2025-04-14 14:13:38","bb671e3ae32f654b8954ea4c4635f915","","Mozilla/5.0 (Windows NT 10.0; Win64; x64) AppleWebKit/537.36 (KHTML, like Gecko) Chrome/135.0.0.0 Safari/537.36 Edg/135.0.0.0","WebKit","Edge","135.0.0.0","Windows","10.0","https://hz8g1ckzuq.cognition.run/","en-US,en;q=0.9","zpnc27g0swy4u02","31","[""White""]","No","Male","1274140.5","null","","<p></p>","null","choice","dct","attraction_1","2","microwave ovens","null","null","null","null","null","null","1","","","","","","","","","",""
"","","","","","choice_trial","survey-html-form","103","1098398","0.0-5.0-1.9","144","1","2025-04-14 14:13:38","bb671e3ae32f654b8954ea4c4635f915","","Mozilla/5.0 (Windows NT 10.0; Win64; x64) AppleWebKit/537.36 (KHTML, like Gecko) Chrome/135.0.0.0 Safari/537.36 Edg/135.0.0.0","WebKit","Edge","135.0.0.0","Windows","10.0","https://hz8g1ckzuq.cognition.run/","en-US,en;q=0.9","zpnc27g0swy4u02","31","[""White""]","No","Male","1274140.5","5368","","","{""product_choice"":""C""}","choice","dct","attraction_1","2","microwave ovens","null","null","null","null","null","null","1","50","60","45","60","50","60","Warranty","Cooking power","",""
"","","","","","choice_trial_setup","html-keyboard-response","104","1098708","0.0-5.0-0.10","144","1","2025-04-14 14:13:38","bb671e3ae32f654b8954ea4c4635f915","","Mozilla/5.0 (Windows NT 10.0; Win64; x64) AppleWebKit/537.36 (KHTML, like Gecko) Chrome/135.0.0.0 Safari/537.36 Edg/135.0.0.0","WebKit","Edge","135.0.0.0","Windows","10.0","https://hz8g1ckzuq.cognition.run/","en-US,en;q=0.9","zpnc27g0swy4u02","31","[""White""]","No","Male","1274140.5","null","","<p></p>","null","choice","dtc","repulsion_2","2","televisions","null","null","null","null","null","null","1","","","","","","","","","",""
"","","","","","choice_trial","survey-html-form","105","1103446","0.0-5.0-1.10","144","1","2025-04-14 14:13:38","bb671e3ae32f654b8954ea4c4635f915","","Mozilla/5.0 (Windows NT 10.0; Win64; x64) AppleWebKit/537.36 (KHTML, like Gecko) Chrome/135.0.0.0 Safari/537.36 Edg/135.0.0.0","WebKit","Edge","135.0.0.0","Windows","10.0","https://hz8g1ckzuq.cognition.run/","en-US,en;q=0.9","zpnc27g0swy4u02","31","[""White""]","No","Male","1274140.5","4735","","","{""product_choice"":""C""}","choice","dtc","repulsion_2","2","televisions","null","null","null","null","null","null","1","30","40","20","100","90","100","Screen size","Average lifespan","",""
"","","","","","choice_trial_setup","html-keyboard-response","106","1103758","0.0-5.0-0.11","144","1","2025-04-14 14:13:38","bb671e3ae32f654b8954ea4c4635f915","","Mozilla/5.0 (Windows NT 10.0; Win64; x64) AppleWebKit/537.36 (KHTML, like Gecko) Chrome/135.0.0.0 Safari/537.36 Edg/135.0.0.0","WebKit","Edge","135.0.0.0","Windows","10.0","https://hz8g1ckzuq.cognition.run/","en-US,en;q=0.9","zpnc27g0swy4u02","31","[""White""]","No","Male","1274140.5","null","","<p></p>","null","choice","tcd","attraction_2","2","microwave ovens","null","null","null","null","null","null","1","","","","","","","","","",""
"","","","","","choice_trial","survey-html-form","107","1112671","0.0-5.0-1.11","144","1","2025-04-14 14:13:38","bb671e3ae32f654b8954ea4c4635f915","","Mozilla/5.0 (Windows NT 10.0; Win64; x64) AppleWebKit/537.36 (KHTML, like Gecko) Chrome/135.0.0.0 Safari/537.36 Edg/135.0.0.0","WebKit","Edge","135.0.0.0","Windows","10.0","https://hz8g1ckzuq.cognition.run/","en-US,en;q=0.9","zpnc27g0swy4u02","31","[""White""]","No","Male","1274140.5","8908","","","{""product_choice"":""A""}","choice","tcd","attraction_2","2","microwave ovens","null","null","null","null","null","null","1","50","60","40","60","50","60","Warranty","Cooking power","",""
"","","","","","choice_trial_setup","html-keyboard-response","108","1112990","0.0-5.0-0.12","144","1","2025-04-14 14:13:38","bb671e3ae32f654b8954ea4c4635f915","","Mozilla/5.0 (Windows NT 10.0; Win64; x64) AppleWebKit/537.36 (KHTML, like Gecko) Chrome/135.0.0.0 Safari/537.36 Edg/135.0.0.0","WebKit","Edge","135.0.0.0","Windows","10.0","https://hz8g1ckzuq.cognition.run/","en-US,en;q=0.9","zpnc27g0swy4u02","31","[""White""]","No","Male","1274140.5","null","","<p></p>","null","choice","dct","repulsion_2","2","microwave ovens","null","null","null","null","null","null","1","","","","","","","","","",""
"","","","","","choice_trial","survey-html-form","109","1117191","0.0-5.0-1.12","144","1","2025-04-14 14:13:38","bb671e3ae32f654b8954ea4c4635f915","","Mozilla/5.0 (Windows NT 10.0; Win64; x64) AppleWebKit/537.36 (KHTML, like Gecko) Chrome/135.0.0.0 Safari/537.36 Edg/135.0.0.0","WebKit","Edge","135.0.0.0","Windows","10.0","https://hz8g1ckzuq.cognition.run/","en-US,en;q=0.9","zpnc27g0swy4u02","31","[""White""]","No","Male","1274140.5","4197","","","{""product_choice"":""C""}","choice","dct","repulsion_2","2","microwave ovens","null","null","null","null","null","null","1","30","40","20","100","90","100","Warranty","Cooking power","",""
"","","","","","choice_trial_setup","html-keyboard-response","110","1117504","0.0-5.0-0.13","144","1","2025-04-14 14:13:38","bb671e3ae32f654b8954ea4c4635f915","","Mozilla/5.0 (Windows NT 10.0; Win64; x64) AppleWebKit/537.36 (KHTML, like Gecko) Chrome/135.0.0.0 Safari/537.36 Edg/135.0.0.0","WebKit","Edge","135.0.0.0","Windows","10.0","https://hz8g1ckzuq.cognition.run/","en-US,en;q=0.9","zpnc27g0swy4u02","31","[""White""]","No","Male","1274140.5","null","","<p></p>","null","choice","dtc","attraction_2","1","microwave ovens","null","null","null","null","null","null","1","","","","","","","","","",""
"","","","","","choice_trial","survey-html-form","111","1121247","0.0-5.0-1.13","144","1","2025-04-14 14:13:38","bb671e3ae32f654b8954ea4c4635f915","","Mozilla/5.0 (Windows NT 10.0; Win64; x64) AppleWebKit/537.36 (KHTML, like Gecko) Chrome/135.0.0.0 Safari/537.36 Edg/135.0.0.0","WebKit","Edge","135.0.0.0","Windows","10.0","https://hz8g1ckzuq.cognition.run/","en-US,en;q=0.9","zpnc27g0swy4u02","31","[""White""]","No","Male","1274140.5","3739","","","{""product_choice"":""C""}","choice","dtc","attraction_2","1","microwave ovens","null","null","null","null","null","null","1","60","50","60","50","60","40","Warranty","Cooking power","",""
"","","","","","choice_trial_setup","html-keyboard-response","112","1121555","0.0-5.0-0.14","144","1","2025-04-14 14:13:38","bb671e3ae32f654b8954ea4c4635f915","","Mozilla/5.0 (Windows NT 10.0; Win64; x64) AppleWebKit/537.36 (KHTML, like Gecko) Chrome/135.0.0.0 Safari/537.36 Edg/135.0.0.0","WebKit","Edge","135.0.0.0","Windows","10.0","https://hz8g1ckzuq.cognition.run/","en-US,en;q=0.9","zpnc27g0swy4u02","31","[""White""]","No","Male","1274140.5","null","","<p></p>","null","choice","ctd","repulsion_2","1","washing machines","null","null","null","null","null","null","2","","","","","","","","","",""
"","","","","","choice_trial","survey-html-form","113","1125231","0.0-5.0-1.14","144","1","2025-04-14 14:13:38","bb671e3ae32f654b8954ea4c4635f915","","Mozilla/5.0 (Windows NT 10.0; Win64; x64) AppleWebKit/537.36 (KHTML, like Gecko) Chrome/135.0.0.0 Safari/537.36 Edg/135.0.0.0","WebKit","Edge","135.0.0.0","Windows","10.0","https://hz8g1ckzuq.cognition.run/","en-US,en;q=0.9","zpnc27g0swy4u02","31","[""White""]","No","Male","1274140.5","3672","","","{""product_choice"":""B""}","choice","ctd","repulsion_2","1","washing machines","null","null","null","null","null","null","2","100","90","100","30","40","20","Average lifespan","Energy savings","",""
"","","","","","choice_trial_setup","html-keyboard-response","114","1125545","0.0-5.0-0.15","144","1","2025-04-14 14:13:38","bb671e3ae32f654b8954ea4c4635f915","","Mozilla/5.0 (Windows NT 10.0; Win64; x64) AppleWebKit/537.36 (KHTML, like Gecko) Chrome/135.0.0.0 Safari/537.36 Edg/135.0.0.0","WebKit","Edge","135.0.0.0","Windows","10.0","https://hz8g1ckzuq.cognition.run/","en-US,en;q=0.9","zpnc27g0swy4u02","31","[""White""]","No","Male","1274140.5","null","","<p></p>","null","choice","wbw","catch","null","televisions","50","55","15","40","50","30","1","","","","","","","","","",""
"","","","","","choice_trial","survey-html-form","115","1131815","0.0-5.0-1.15","144","1","2025-04-14 14:13:38","bb671e3ae32f654b8954ea4c4635f915","","Mozilla/5.0 (Windows NT 10.0; Win64; x64) AppleWebKit/537.36 (KHTML, like Gecko) Chrome/135.0.0.0 Safari/537.36 Edg/135.0.0.0","WebKit","Edge","135.0.0.0","Windows","10.0","https://hz8g1ckzuq.cognition.run/","en-US,en;q=0.9","zpnc27g0swy4u02","31","[""White""]","No","Male","1274140.5","6266","","","{""product_choice"":""B""}","choice","wbw","catch","null","televisions","50","55","15","40","50","30","1","null","null","null","null","null","null","Screen size","Average lifespan","",""
"","","","","","choice_trial_setup","html-keyboard-response","116","1132129","0.0-5.0-0.16","144","1","2025-04-14 14:13:38","bb671e3ae32f654b8954ea4c4635f915","","Mozilla/5.0 (Windows NT 10.0; Win64; x64) AppleWebKit/537.36 (KHTML, like Gecko) Chrome/135.0.0.0 Safari/537.36 Edg/135.0.0.0","WebKit","Edge","135.0.0.0","Windows","10.0","https://hz8g1ckzuq.cognition.run/","en-US,en;q=0.9","zpnc27g0swy4u02","31","[""White""]","No","Male","1274140.5","null","","<p></p>","null","choice","ctd","attraction_2","2","washing machines","null","null","null","null","null","null","1","","","","","","","","","",""
"","","","","","choice_trial","survey-html-form","117","1137135","0.0-5.0-1.16","144","1","2025-04-14 14:13:38","bb671e3ae32f654b8954ea4c4635f915","","Mozilla/5.0 (Windows NT 10.0; Win64; x64) AppleWebKit/537.36 (KHTML, like Gecko) Chrome/135.0.0.0 Safari/537.36 Edg/135.0.0.0","WebKit","Edge","135.0.0.0","Windows","10.0","https://hz8g1ckzuq.cognition.run/","en-US,en;q=0.9","zpnc27g0swy4u02","31","[""White""]","No","Male","1274140.5","5002","","","{""product_choice"":""A""}","choice","ctd","attraction_2","2","washing machines","null","null","null","null","null","null","1","50","60","40","60","50","60","Average lifespan","Energy savings","",""
"","","","","","choice_trial_setup","html-keyboard-response","118","1137451","0.0-5.0-0.17","144","1","2025-04-14 14:13:38","bb671e3ae32f654b8954ea4c4635f915","","Mozilla/5.0 (Windows NT 10.0; Win64; x64) AppleWebKit/537.36 (KHTML, like Gecko) Chrome/135.0.0.0 Safari/537.36 Edg/135.0.0.0","WebKit","Edge","135.0.0.0","Windows","10.0","https://hz8g1ckzuq.cognition.run/","en-US,en;q=0.9","zpnc27g0swy4u02","31","[""White""]","No","Male","1274140.5","null","","<p></p>","null","choice","ctd","repulsion_1","2","washing machines","null","null","null","null","null","null","1","","","","","","","","","",""
"","","","","","choice_trial","survey-html-form","119","1141943","0.0-5.0-1.17","144","1","2025-04-14 14:13:38","bb671e3ae32f654b8954ea4c4635f915","","Mozilla/5.0 (Windows NT 10.0; Win64; x64) AppleWebKit/537.36 (KHTML, like Gecko) Chrome/135.0.0.0 Safari/537.36 Edg/135.0.0.0","WebKit","Edge","135.0.0.0","Windows","10.0","https://hz8g1ckzuq.cognition.run/","en-US,en;q=0.9","zpnc27g0swy4u02","31","[""White""]","No","Male","1274140.5","4488","","","{""product_choice"":""A""}","choice","ctd","repulsion_1","2","washing machines","null","null","null","null","null","null","1","30","40","25","100","90","100","Average lifespan","Energy savings","",""
"","","","","","choice_trial_setup","html-keyboard-response","120","1142248","0.0-5.0-0.18","144","1","2025-04-14 14:13:38","bb671e3ae32f654b8954ea4c4635f915","","Mozilla/5.0 (Windows NT 10.0; Win64; x64) AppleWebKit/537.36 (KHTML, like Gecko) Chrome/135.0.0.0 Safari/537.36 Edg/135.0.0.0","WebKit","Edge","135.0.0.0","Windows","10.0","https://hz8g1ckzuq.cognition.run/","en-US,en;q=0.9","zpnc27g0swy4u02","31","[""White""]","No","Male","1274140.5","null","","<p></p>","null","choice","cdt","repulsion_1","1","microwave ovens","null","null","null","null","null","null","2","","","","","","","","","",""
"","","","","","choice_trial","survey-html-form","121","1146048","0.0-5.0-1.18","144","1","2025-04-14 14:13:38","bb671e3ae32f654b8954ea4c4635f915","","Mozilla/5.0 (Windows NT 10.0; Win64; x64) AppleWebKit/537.36 (KHTML, like Gecko) Chrome/135.0.0.0 Safari/537.36 Edg/135.0.0.0","WebKit","Edge","135.0.0.0","Windows","10.0","https://hz8g1ckzuq.cognition.run/","en-US,en;q=0.9","zpnc27g0swy4u02","31","[""White""]","No","Male","1274140.5","3795","","","{""product_choice"":""A""}","choice","cdt","repulsion_1","1","microwave ovens","null","null","null","null","null","null","2","100","90","100","30","40","25","Warranty","Cooking power","",""
"","","","","","choice_trial_setup","html-keyboard-response","122","1146356","0.0-5.0-0.19","144","1","2025-04-14 14:13:38","bb671e3ae32f654b8954ea4c4635f915","","Mozilla/5.0 (Windows NT 10.0; Win64; x64) AppleWebKit/537.36 (KHTML, like Gecko) Chrome/135.0.0.0 Safari/537.36 Edg/135.0.0.0","WebKit","Edge","135.0.0.0","Windows","10.0","https://hz8g1ckzuq.cognition.run/","en-US,en;q=0.9","zpnc27g0swy4u02","31","[""White""]","No","Male","1274140.5","null","","<p></p>","null","choice","cdt","attraction_1","2","laptops","null","null","null","null","null","null","1","","","","","","","","","",""
"","","","","","choice_trial","survey-html-form","123","1150689","0.0-5.0-1.19","144","1","2025-04-14 14:13:38","bb671e3ae32f654b8954ea4c4635f915","","Mozilla/5.0 (Windows NT 10.0; Win64; x64) AppleWebKit/537.36 (KHTML, like Gecko) Chrome/135.0.0.0 Safari/537.36 Edg/135.0.0.0","WebKit","Edge","135.0.0.0","Windows","10.0","https://hz8g1ckzuq.cognition.run/","en-US,en;q=0.9","zpnc27g0swy4u02","31","[""White""]","No","Male","1274140.5","4327","","","{""product_choice"":""A""}","choice","cdt","attraction_1","2","laptops","null","null","null","null","null","null","1","50","60","45","60","50","60","Processing speed","Memory (RAM)","",""
"","","","","","choice_trial_setup","html-keyboard-response","124","1151000","0.0-5.0-0.20","144","1","2025-04-14 14:13:38","bb671e3ae32f654b8954ea4c4635f915","","Mozilla/5.0 (Windows NT 10.0; Win64; x64) AppleWebKit/537.36 (KHTML, like Gecko) Chrome/135.0.0.0 Safari/537.36 Edg/135.0.0.0","WebKit","Edge","135.0.0.0","Windows","10.0","https://hz8g1ckzuq.cognition.run/","en-US,en;q=0.9","zpnc27g0swy4u02","31","[""White""]","No","Male","1274140.5","null","","<p></p>","null","choice","wbw","catch","null","washing machines","65","50","45","5","20","5","2","","","","","","","","","",""
"","","","","","choice_trial","survey-html-form","125","1153279","0.0-5.0-1.20","144","1","2025-04-14 14:13:38","bb671e3ae32f654b8954ea4c4635f915","","Mozilla/5.0 (Windows NT 10.0; Win64; x64) AppleWebKit/537.36 (KHTML, like Gecko) Chrome/135.0.0.0 Safari/537.36 Edg/135.0.0.0","WebKit","Edge","135.0.0.0","Windows","10.0","https://hz8g1ckzuq.cognition.run/","en-US,en;q=0.9","zpnc27g0swy4u02","31","[""White""]","No","Male","1274140.5","2275","","","{""product_choice"":""B""}","choice","wbw","catch","null","washing machines","65","50","45","5","20","5","2","null","null","null","null","null","null","Average lifespan","Energy savings","",""
"","","","","","choice_trial_setup","html-keyboard-response","126","1153592","0.0-5.0-0.21","144","1","2025-04-14 14:13:38","bb671e3ae32f654b8954ea4c4635f915","","Mozilla/5.0 (Windows NT 10.0; Win64; x64) AppleWebKit/537.36 (KHTML, like Gecko) Chrome/135.0.0.0 Safari/537.36 Edg/135.0.0.0","WebKit","Edge","135.0.0.0","Windows","10.0","https://hz8g1ckzuq.cognition.run/","en-US,en;q=0.9","zpnc27g0swy4u02","31","[""White""]","No","Male","1274140.5","null","","<p></p>","null","choice","bww","catch","null","televisions","95","95","5","15","45","20","2","","","","","","","","","",""
"","","","","","choice_trial","survey-html-form","127","1157623","0.0-5.0-1.21","144","1","2025-04-14 14:13:38","bb671e3ae32f654b8954ea4c4635f915","","Mozilla/5.0 (Windows NT 10.0; Win64; x64) AppleWebKit/537.36 (KHTML, like Gecko) Chrome/135.0.0.0 Safari/537.36 Edg/135.0.0.0","WebKit","Edge","135.0.0.0","Windows","10.0","https://hz8g1ckzuq.cognition.run/","en-US,en;q=0.9","zpnc27g0swy4u02","31","[""White""]","No","Male","1274140.5","4027","","","{""product_choice"":""A""}","choice","bww","catch","null","televisions","95","95","5","15","45","20","2","null","null","null","null","null","null","Screen size","Average lifespan","",""
"","","","","","choice_trial_setup","html-keyboard-response","128","1157932","0.0-5.0-0.22","144","1","2025-04-14 14:13:38","bb671e3ae32f654b8954ea4c4635f915","","Mozilla/5.0 (Windows NT 10.0; Win64; x64) AppleWebKit/537.36 (KHTML, like Gecko) Chrome/135.0.0.0 Safari/537.36 Edg/135.0.0.0","WebKit","Edge","135.0.0.0","Windows","10.0","https://hz8g1ckzuq.cognition.run/","en-US,en;q=0.9","zpnc27g0swy4u02","31","[""White""]","No","Male","1274140.5","null","","<p></p>","null","choice","cdt","attraction_1","1","televisions","null","null","null","null","null","null","1","","","","","","","","","",""
"","","","","","choice_trial","survey-html-form","129","1162159","0.0-5.0-1.22","144","1","2025-04-14 14:13:38","bb671e3ae32f654b8954ea4c4635f915","","Mozilla/5.0 (Windows NT 10.0; Win64; x64) AppleWebKit/537.36 (KHTML, like Gecko) Chrome/135.0.0.0 Safari/537.36 Edg/135.0.0.0","WebKit","Edge","135.0.0.0","Windows","10.0","https://hz8g1ckzuq.cognition.run/","en-US,en;q=0.9","zpnc27g0swy4u02","31","[""White""]","No","Male","1274140.5","4224","","","{""product_choice"":""C""}","choice","cdt","attraction_1","1","televisions","null","null","null","null","null","null","1","60","50","60","50","60","45","Screen size","Average lifespan","",""
"","","","","","choice_trial_setup","html-keyboard-response","130","1162473","0.0-5.0-0.23","144","1","2025-04-14 14:13:38","bb671e3ae32f654b8954ea4c4635f915","","Mozilla/5.0 (Windows NT 10.0; Win64; x64) AppleWebKit/537.36 (KHTML, like Gecko) Chrome/135.0.0.0 Safari/537.36 Edg/135.0.0.0","WebKit","Edge","135.0.0.0","Windows","10.0","https://hz8g1ckzuq.cognition.run/","en-US,en;q=0.9","zpnc27g0swy4u02","31","[""White""]","No","Male","1274140.5","null","","<p></p>","null","choice","ctd","attraction_2","2","televisions","null","null","null","null","null","null","1","","","","","","","","","",""
"","","","","","choice_trial","survey-html-form","131","1170447","0.0-5.0-1.23","144","1","2025-04-14 14:13:38","bb671e3ae32f654b8954ea4c4635f915","","Mozilla/5.0 (Windows NT 10.0; Win64; x64) AppleWebKit/537.36 (KHTML, like Gecko) Chrome/135.0.0.0 Safari/537.36 Edg/135.0.0.0","WebKit","Edge","135.0.0.0","Windows","10.0","https://hz8g1ckzuq.cognition.run/","en-US,en;q=0.9","zpnc27g0swy4u02","31","[""White""]","No","Male","1274140.5","7970","","","{""product_choice"":""A""}","choice","ctd","attraction_2","2","televisions","null","null","null","null","null","null","1","50","60","40","60","50","60","Screen size","Average lifespan","",""
"","","","","","choice_trial_setup","html-keyboard-response","132","1170752","0.0-5.0-0.24","144","1","2025-04-14 14:13:38","bb671e3ae32f654b8954ea4c4635f915","","Mozilla/5.0 (Windows NT 10.0; Win64; x64) AppleWebKit/537.36 (KHTML, like Gecko) Chrome/135.0.0.0 Safari/537.36 Edg/135.0.0.0","WebKit","Edge","135.0.0.0","Windows","10.0","https://hz8g1ckzuq.cognition.run/","en-US,en;q=0.9","zpnc27g0swy4u02","31","[""White""]","No","Male","1274140.5","null","","<p></p>","null","choice","dct","attraction_1","2","televisions","null","null","null","null","null","null","1","","","","","","","","","",""
"","","","","","choice_trial","survey-html-form","133","1174105","0.0-5.0-1.24","144","1","2025-04-14 14:13:38","bb671e3ae32f654b8954ea4c4635f915","","Mozilla/5.0 (Windows NT 10.0; Win64; x64) AppleWebKit/537.36 (KHTML, like Gecko) Chrome/135.0.0.0 Safari/537.36 Edg/135.0.0.0","WebKit","Edge","135.0.0.0","Windows","10.0","https://hz8g1ckzuq.cognition.run/","en-US,en;q=0.9","zpnc27g0swy4u02","31","[""White""]","No","Male","1274140.5","3349","","","{""product_choice"":""B""}","choice","dct","attraction_1","2","televisions","null","null","null","null","null","null","1","50","60","45","60","50","60","Screen size","Average lifespan","",""
"","","","","","choice_trial_setup","html-keyboard-response","134","1174416","0.0-5.0-0.25","144","1","2025-04-14 14:13:38","bb671e3ae32f654b8954ea4c4635f915","","Mozilla/5.0 (Windows NT 10.0; Win64; x64) AppleWebKit/537.36 (KHTML, like Gecko) Chrome/135.0.0.0 Safari/537.36 Edg/135.0.0.0","WebKit","Edge","135.0.0.0","Windows","10.0","https://hz8g1ckzuq.cognition.run/","en-US,en;q=0.9","zpnc27g0swy4u02","31","[""White""]","No","Male","1274140.5","null","","<p></p>","null","choice","cdt","repulsion_2","1","televisions","null","null","null","null","null","null","2","","","","","","","","","",""
"","","","","","choice_trial","survey-html-form","135","1178368","0.0-5.0-1.25","144","1","2025-04-14 14:13:38","bb671e3ae32f654b8954ea4c4635f915","","Mozilla/5.0 (Windows NT 10.0; Win64; x64) AppleWebKit/537.36 (KHTML, like Gecko) Chrome/135.0.0.0 Safari/537.36 Edg/135.0.0.0","WebKit","Edge","135.0.0.0","Windows","10.0","https://hz8g1ckzuq.cognition.run/","en-US,en;q=0.9","zpnc27g0swy4u02","31","[""White""]","No","Male","1274140.5","3948","","","{""product_choice"":""C""}","choice","cdt","repulsion_2","1","televisions","null","null","null","null","null","null","2","100","90","100","30","40","20","Screen size","Average lifespan","",""
"","","","","","choice_trial_setup","html-keyboard-response","136","1178689","0.0-5.0-0.26","144","1","2025-04-14 14:13:38","bb671e3ae32f654b8954ea4c4635f915","","Mozilla/5.0 (Windows NT 10.0; Win64; x64) AppleWebKit/537.36 (KHTML, like Gecko) Chrome/135.0.0.0 Safari/537.36 Edg/135.0.0.0","WebKit","Edge","135.0.0.0","Windows","10.0","https://hz8g1ckzuq.cognition.run/","en-US,en;q=0.9","zpnc27g0swy4u02","31","[""White""]","No","Male","1274140.5","null","","<p></p>","null","choice","ctd","repulsion_1","2","microwave ovens","null","null","null","null","null","null","2","","","","","","","","","",""
"","","","","","choice_trial","survey-html-form","137","1182047","0.0-5.0-1.26","144","1","2025-04-14 14:13:38","bb671e3ae32f654b8954ea4c4635f915","","Mozilla/5.0 (Windows NT 10.0; Win64; x64) AppleWebKit/537.36 (KHTML, like Gecko) Chrome/135.0.0.0 Safari/537.36 Edg/135.0.0.0","WebKit","Edge","135.0.0.0","Windows","10.0","https://hz8g1ckzuq.cognition.run/","en-US,en;q=0.9","zpnc27g0swy4u02","31","[""White""]","No","Male","1274140.5","3354","","","{""product_choice"":""B""}","choice","ctd","repulsion_1","2","microwave ovens","null","null","null","null","null","null","2","30","40","25","100","90","100","Warranty","Cooking power","",""
"","","","","","choice_trial_setup","html-keyboard-response","138","1182361","0.0-5.0-0.27","144","1","2025-04-14 14:13:38","bb671e3ae32f654b8954ea4c4635f915","","Mozilla/5.0 (Windows NT 10.0; Win64; x64) AppleWebKit/537.36 (KHTML, like Gecko) Chrome/135.0.0.0 Safari/537.36 Edg/135.0.0.0","WebKit","Edge","135.0.0.0","Windows","10.0","https://hz8g1ckzuq.cognition.run/","en-US,en;q=0.9","zpnc27g0swy4u02","31","[""White""]","No","Male","1274140.5","null","","<p></p>","null","choice","tcd","attraction_1","1","microwave ovens","null","null","null","null","null","null","2","","","","","","","","","",""
"","","","","","choice_trial","survey-html-form","139","1185048","0.0-5.0-1.27","144","1","2025-04-14 14:13:38","bb671e3ae32f654b8954ea4c4635f915","","Mozilla/5.0 (Windows NT 10.0; Win64; x64) AppleWebKit/537.36 (KHTML, like Gecko) Chrome/135.0.0.0 Safari/537.36 Edg/135.0.0.0","WebKit","Edge","135.0.0.0","Windows","10.0","https://hz8g1ckzuq.cognition.run/","en-US,en;q=0.9","zpnc27g0swy4u02","31","[""White""]","No","Male","1274140.5","2683","","","{""product_choice"":""B""}","choice","tcd","attraction_1","1","microwave ovens","null","null","null","null","null","null","2","60","50","60","50","60","45","Warranty","Cooking power","",""
"","","","","","choice_trial_setup","html-keyboard-response","140","1185359","0.0-5.0-0.28","144","1","2025-04-14 14:13:38","bb671e3ae32f654b8954ea4c4635f915","","Mozilla/5.0 (Windows NT 10.0; Win64; x64) AppleWebKit/537.36 (KHTML, like Gecko) Chrome/135.0.0.0 Safari/537.36 Edg/135.0.0.0","WebKit","Edge","135.0.0.0","Windows","10.0","https://hz8g1ckzuq.cognition.run/","en-US,en;q=0.9","zpnc27g0swy4u02","31","[""White""]","No","Male","1274140.5","null","","<p></p>","null","choice","wwb","catch","null","microwave ovens","75","90","35","10","30","10","1","","","","","","","","","",""
"","","","","","choice_trial","survey-html-form","141","1189392","0.0-5.0-1.28","144","1","2025-04-14 14:13:38","bb671e3ae32f654b8954ea4c4635f915","","Mozilla/5.0 (Windows NT 10.0; Win64; x64) AppleWebKit/537.36 (KHTML, like Gecko) Chrome/135.0.0.0 Safari/537.36 Edg/135.0.0.0","WebKit","Edge","135.0.0.0","Windows","10.0","https://hz8g1ckzuq.cognition.run/","en-US,en;q=0.9","zpnc27g0swy4u02","31","[""White""]","No","Male","1274140.5","4029","","","{""product_choice"":""C""}","choice","wwb","catch","null","microwave ovens","75","90","35","10","30","10","1","null","null","null","null","null","null","Warranty","Cooking power","",""
"","","","","","choice_trial_setup","html-keyboard-response","142","1189700","0.0-5.0-0.29","144","1","2025-04-14 14:13:38","bb671e3ae32f654b8954ea4c4635f915","","Mozilla/5.0 (Windows NT 10.0; Win64; x64) AppleWebKit/537.36 (KHTML, like Gecko) Chrome/135.0.0.0 Safari/537.36 Edg/135.0.0.0","WebKit","Edge","135.0.0.0","Windows","10.0","https://hz8g1ckzuq.cognition.run/","en-US,en;q=0.9","zpnc27g0swy4u02","31","[""White""]","No","Male","1274140.5","null","","<p></p>","null","choice","cdt","repulsion_1","2","laptops","null","null","null","null","null","null","2","","","","","","","","","",""
"","","","","","choice_trial","survey-html-form","143","1194936","0.0-5.0-1.29","144","1","2025-04-14 14:13:38","bb671e3ae32f654b8954ea4c4635f915","","Mozilla/5.0 (Windows NT 10.0; Win64; x64) AppleWebKit/537.36 (KHTML, like Gecko) Chrome/135.0.0.0 Safari/537.36 Edg/135.0.0.0","WebKit","Edge","135.0.0.0","Windows","10.0","https://hz8g1ckzuq.cognition.run/","en-US,en;q=0.9","zpnc27g0swy4u02","31","[""White""]","No","Male","1274140.5","5231","","","{""product_choice"":""A""}","choice","cdt","repulsion_1","2","laptops","null","null","null","null","null","null","2","30","40","25","100","90","100","Processing speed","Memory (RAM)","",""
"","","","","","choice_trial_setup","html-keyboard-response","144","1195241","0.0-5.0-0.30","144","1","2025-04-14 14:13:38","bb671e3ae32f654b8954ea4c4635f915","","Mozilla/5.0 (Windows NT 10.0; Win64; x64) AppleWebKit/537.36 (KHTML, like Gecko) Chrome/135.0.0.0 Safari/537.36 Edg/135.0.0.0","WebKit","Edge","135.0.0.0","Windows","10.0","https://hz8g1ckzuq.cognition.run/","en-US,en;q=0.9","zpnc27g0swy4u02","31","[""White""]","No","Male","1274140.5","null","","<p></p>","null","choice","tdc","repulsion_1","1","washing machines","null","null","null","null","null","null","2","","","","","","","","","",""
"","","","","","choice_trial","survey-html-form","145","1199521","0.0-5.0-1.30","144","1","2025-04-14 14:13:38","bb671e3ae32f654b8954ea4c4635f915","","Mozilla/5.0 (Windows NT 10.0; Win64; x64) AppleWebKit/537.36 (KHTML, like Gecko) Chrome/135.0.0.0 Safari/537.36 Edg/135.0.0.0","WebKit","Edge","135.0.0.0","Windows","10.0","https://hz8g1ckzuq.cognition.run/","en-US,en;q=0.9","zpnc27g0swy4u02","31","[""White""]","No","Male","1274140.5","4275","","","{""product_choice"":""A""}","choice","tdc","repulsion_1","1","washing machines","null","null","null","null","null","null","2","100","90","100","30","40","25","Average lifespan","Energy savings","",""
"","","","","","choice_trial_setup","html-keyboard-response","146","1199828","0.0-5.0-0.31","144","1","2025-04-14 14:13:38","bb671e3ae32f654b8954ea4c4635f915","","Mozilla/5.0 (Windows NT 10.0; Win64; x64) AppleWebKit/537.36 (KHTML, like Gecko) Chrome/135.0.0.0 Safari/537.36 Edg/135.0.0.0","WebKit","Edge","135.0.0.0","Windows","10.0","https://hz8g1ckzuq.cognition.run/","en-US,en;q=0.9","zpnc27g0swy4u02","31","[""White""]","No","Male","1274140.5","null","","<p></p>","null","choice","wwb","catch","null","laptops","75","60","15","10","25","15","1","","","","","","","","","",""
"","","","","","choice_trial","survey-html-form","147","1202289","0.0-5.0-1.31","144","1","2025-04-14 14:13:38","bb671e3ae32f654b8954ea4c4635f915","","Mozilla/5.0 (Windows NT 10.0; Win64; x64) AppleWebKit/537.36 (KHTML, like Gecko) Chrome/135.0.0.0 Safari/537.36 Edg/135.0.0.0","WebKit","Edge","135.0.0.0","Windows","10.0","https://hz8g1ckzuq.cognition.run/","en-US,en;q=0.9","zpnc27g0swy4u02","31","[""White""]","No","Male","1274140.5","2456","","","{""product_choice"":""C""}","choice","wwb","catch","null","laptops","75","60","15","10","25","15","1","null","null","null","null","null","null","Processing speed","Memory (RAM)","",""
"","","","","","choice_trial_setup","html-keyboard-response","148","1202597","0.0-5.0-0.32","144","1","2025-04-14 14:13:38","bb671e3ae32f654b8954ea4c4635f915","","Mozilla/5.0 (Windows NT 10.0; Win64; x64) AppleWebKit/537.36 (KHTML, like Gecko) Chrome/135.0.0.0 Safari/537.36 Edg/135.0.0.0","WebKit","Edge","135.0.0.0","Windows","10.0","https://hz8g1ckzuq.cognition.run/","en-US,en;q=0.9","zpnc27g0swy4u02","31","[""White""]","No","Male","1274140.5","null","","<p></p>","null","choice","wwb","catch","null","washing machines","55","80","20","50","15","50","1","","","","","","","","","",""
"","","","","","choice_trial","survey-html-form","149","1205800","0.0-5.0-1.32","144","1","2025-04-14 14:13:38","bb671e3ae32f654b8954ea4c4635f915","","Mozilla/5.0 (Windows NT 10.0; Win64; x64) AppleWebKit/537.36 (KHTML, like Gecko) Chrome/135.0.0.0 Safari/537.36 Edg/135.0.0.0","WebKit","Edge","135.0.0.0","Windows","10.0","https://hz8g1ckzuq.cognition.run/","en-US,en;q=0.9","zpnc27g0swy4u02","31","[""White""]","No","Male","1274140.5","3199","","","{""product_choice"":""C""}","choice","wwb","catch","null","washing machines","55","80","20","50","15","50","1","null","null","null","null","null","null","Average lifespan","Energy savings","",""
"","","","","","choice_trial_setup","html-keyboard-response","150","1206106","0.0-5.0-0.33","144","1","2025-04-14 14:13:38","bb671e3ae32f654b8954ea4c4635f915","","Mozilla/5.0 (Windows NT 10.0; Win64; x64) AppleWebKit/537.36 (KHTML, like Gecko) Chrome/135.0.0.0 Safari/537.36 Edg/135.0.0.0","WebKit","Edge","135.0.0.0","Windows","10.0","https://hz8g1ckzuq.cognition.run/","en-US,en;q=0.9","zpnc27g0swy4u02","31","[""White""]","No","Male","1274140.5","null","","<p></p>","null","choice","cdt","repulsion_2","2","laptops","null","null","null","null","null","null","1","","","","","","","","","",""
"","","","","","choice_trial","survey-html-form","151","1210537","0.0-5.0-1.33","144","1","2025-04-14 14:13:38","bb671e3ae32f654b8954ea4c4635f915","","Mozilla/5.0 (Windows NT 10.0; Win64; x64) AppleWebKit/537.36 (KHTML, like Gecko) Chrome/135.0.0.0 Safari/537.36 Edg/135.0.0.0","WebKit","Edge","135.0.0.0","Windows","10.0","https://hz8g1ckzuq.cognition.run/","en-US,en;q=0.9","zpnc27g0swy4u02","31","[""White""]","No","Male","1274140.5","4426","","","{""product_choice"":""A""}","choice","cdt","repulsion_2","2","laptops","null","null","null","null","null","null","1","30","40","20","100","90","100","Processing speed","Memory (RAM)","",""
"","","","","","choice_trial_setup","html-keyboard-response","152","1210849","0.0-5.0-0.34","144","1","2025-04-14 14:13:38","bb671e3ae32f654b8954ea4c4635f915","","Mozilla/5.0 (Windows NT 10.0; Win64; x64) AppleWebKit/537.36 (KHTML, like Gecko) Chrome/135.0.0.0 Safari/537.36 Edg/135.0.0.0","WebKit","Edge","135.0.0.0","Windows","10.0","https://hz8g1ckzuq.cognition.run/","en-US,en;q=0.9","zpnc27g0swy4u02","31","[""White""]","No","Male","1274140.5","null","","<p></p>","null","choice","tdc","attraction_2","1","laptops","null","null","null","null","null","null","2","","","","","","","","","",""
"","","","","","choice_trial","survey-html-form","153","1218817","0.0-5.0-1.34","144","1","2025-04-14 14:13:38","bb671e3ae32f654b8954ea4c4635f915","","Mozilla/5.0 (Windows NT 10.0; Win64; x64) AppleWebKit/537.36 (KHTML, like Gecko) Chrome/135.0.0.0 Safari/537.36 Edg/135.0.0.0","WebKit","Edge","135.0.0.0","Windows","10.0","https://hz8g1ckzuq.cognition.run/","en-US,en;q=0.9","zpnc27g0swy4u02","31","[""White""]","No","Male","1274140.5","7964","","","{""product_choice"":""A""}","choice","tdc","attraction_2","1","laptops","null","null","null","null","null","null","2","60","50","60","50","60","40","Processing speed","Memory (RAM)","",""
"","","","","","choice_trial_setup","html-keyboard-response","154","1219124","0.0-5.0-0.35","144","1","2025-04-14 14:13:38","bb671e3ae32f654b8954ea4c4635f915","","Mozilla/5.0 (Windows NT 10.0; Win64; x64) AppleWebKit/537.36 (KHTML, like Gecko) Chrome/135.0.0.0 Safari/537.36 Edg/135.0.0.0","WebKit","Edge","135.0.0.0","Windows","10.0","https://hz8g1ckzuq.cognition.run/","en-US,en;q=0.9","zpnc27g0swy4u02","31","[""White""]","No","Male","1274140.5","null","","<p></p>","null","choice","tdc","attraction_1","1","laptops","null","null","null","null","null","null","1","","","","","","","","","",""
"","","","","","choice_trial","survey-html-form","155","1224641","0.0-5.0-1.35","144","1","2025-04-14 14:13:38","bb671e3ae32f654b8954ea4c4635f915","","Mozilla/5.0 (Windows NT 10.0; Win64; x64) AppleWebKit/537.36 (KHTML, like Gecko) Chrome/135.0.0.0 Safari/537.36 Edg/135.0.0.0","WebKit","Edge","135.0.0.0","Windows","10.0","https://hz8g1ckzuq.cognition.run/","en-US,en;q=0.9","zpnc27g0swy4u02","31","[""White""]","No","Male","1274140.5","5512","","","{""product_choice"":""A""}","choice","tdc","attraction_1","1","laptops","null","null","null","null","null","null","1","60","50","60","50","60","45","Processing speed","Memory (RAM)","",""
"","","","","","choice_trial_setup","html-keyboard-response","156","1224956","0.0-5.0-0.36","144","1","2025-04-14 14:13:38","bb671e3ae32f654b8954ea4c4635f915","","Mozilla/5.0 (Windows NT 10.0; Win64; x64) AppleWebKit/537.36 (KHTML, like Gecko) Chrome/135.0.0.0 Safari/537.36 Edg/135.0.0.0","WebKit","Edge","135.0.0.0","Windows","10.0","https://hz8g1ckzuq.cognition.run/","en-US,en;q=0.9","zpnc27g0swy4u02","31","[""White""]","No","Male","1274140.5","null","","<p></p>","null","choice","bww","catch","null","laptops","60","85","20","15","45","35","2","","","","","","","","","",""
