"success","timeout","failed_images","failed_audio","failed_video","screen_id","trial_type","trial_index","time_elapsed","internal_node_id","run_id","condition","recorded_at","source_code_version","ip","user_agent","device","browser","browser_version","platform","platform_version","referer","accept_language","ppt_id","age","race","ethnicity","gender","exp_duration","rt","view_history","stimulus","response","phase","order","effect","t_high","category","d1_best","d2_best","d1_worst1","d2_worst1","d1_worst2","d2_worst2","first_dim","d1_t","d1_c","d1_d","d2_t","d2_c","d2_d","d1_name","d2_name","strategy_response","question_order"
"true","false","[]","[]","[]","img preload","preload","0","3728","0.0-0.0","146","1","2025-04-14 14:14:03","bb671e3ae32f654b8954ea4c4635f915","","Mozilla/5.0 (Windows NT 10.0; Win64; x64) AppleWebKit/537.36 (KHTML, like Gecko) Chrome/133.0.0.0 Safari/537.36","WebKit","Chrome","133.0.0.0","Windows","10.0","https://hz8g1ckzuq.cognition.run/","en-US,en;q=0.9","6y7qygcmhuxw9sv","59","[""White""]","No","Female","2749949.5","","","","","","","","","","","","","","","","","","","","","","","","","",""
"true","","","","","","fullscreen","1","21600","0.0-1.0","146","1","2025-04-14 14:14:03","bb671e3ae32f654b8954ea4c4635f915","","Mozilla/5.0 (Windows NT 10.0; Win64; x64) AppleWebKit/537.36 (KHTML, like Gecko) Chrome/133.0.0.0 Safari/537.36","WebKit","Chrome","133.0.0.0","Windows","10.0","https://hz8g1ckzuq.cognition.run/","en-US,en;q=0.9","6y7qygcmhuxw9sv","59","[""White""]","No","Female","2749949.5","16869","","","","","","","","","","","","","","","","","","","","","","","","",""
"","","","","","","instructions","2","209183","0.0-2.0","146","1","2025-04-14 14:14:03","bb671e3ae32f654b8954ea4c4635f915","","Mozilla/5.0 (Windows NT 10.0; Win64; x64) AppleWebKit/537.36 (KHTML, like Gecko) Chrome/133.0.0.0 Safari/537.36","WebKit","Chrome","133.0.0.0","Windows","10.0","https://hz8g1ckzuq.cognition.run/","en-US,en;q=0.9","6y7qygcmhuxw9sv","59","[""White""]","No","Female","2749949.5","187579","[{""page_index"":0,""viewing_time"":3347},{""page_index"":1,""viewing_time"":6712},{""page_index"":2,""viewing_time"":6224},{""page_index"":3,""viewing_time"":10376},{""page_index"":4,""viewing_time"":21680},{""page_index"":5,""viewing_time"":26776},{""page_index"":6,""viewing_time"":7408},{""page_index"":7,""viewing_time"":41584},{""page_index"":8,""viewing_time"":50192},{""page_index"":9,""viewing_time"":13280}]","","","","","","","","","","","","","","","","","","","","","","","",""
"","","","","","rating_trial_setup","html-keyboard-response","3","209486","0.0-3.0-0.0","146","1","2025-04-14 14:14:03","bb671e3ae32f654b8954ea4c4635f915","","Mozilla/5.0 (Windows NT 10.0; Win64; x64) AppleWebKit/537.36 (KHTML, like Gecko) Chrome/133.0.0.0 Safari/537.36","WebKit","Chrome","133.0.0.0","Windows","10.0","https://hz8g1ckzuq.cognition.run/","en-US,en;q=0.9","6y7qygcmhuxw9sv","59","[""White""]","No","Female","2749949.5","null","","<p></p>","null","rating","wwb","catch","null","laptops","65","80","25","30","35","45","2","","","","","","","","","",""
"","","","","","rating_trial","survey-html-form","4","254336","0.0-3.0-1.0","146","1","2025-04-14 14:14:03","bb671e3ae32f654b8954ea4c4635f915","","Mozilla/5.0 (Windows NT 10.0; Win64; x64) AppleWebKit/537.36 (KHTML, like Gecko) Chrome/133.0.0.0 Safari/537.36","WebKit","Chrome","133.0.0.0","Windows","10.0","https://hz8g1ckzuq.cognition.run/","en-US,en;q=0.9","6y7qygcmhuxw9sv","59","[""White""]","No","Female","2749949.5","44846","","","{""price_1"":""150"",""price_2"":""170"",""price_3"":""200""}","rating","wwb","catch","null","laptops","65","80","25","30","35","45","2","null","null","null","null","null","null","Processing speed","Memory (RAM)","",""
"","","","","","rating_trial_setup","html-keyboard-response","5","254640","0.0-3.0-0.1","146","1","2025-04-14 14:14:03","bb671e3ae32f654b8954ea4c4635f915","","Mozilla/5.0 (Windows NT 10.0; Win64; x64) AppleWebKit/537.36 (KHTML, like Gecko) Chrome/133.0.0.0 Safari/537.36","WebKit","Chrome","133.0.0.0","Windows","10.0","https://hz8g1ckzuq.cognition.run/","en-US,en;q=0.9","6y7qygcmhuxw9sv","59","[""White""]","No","Female","2749949.5","null","","<p></p>","null","rating","tdc","repulsion_2","1","microwave ovens","null","null","null","null","null","null","2","","","","","","","","","",""
"","","","","","rating_trial","survey-html-form","6","283279","0.0-3.0-1.1","146","1","2025-04-14 14:14:03","bb671e3ae32f654b8954ea4c4635f915","","Mozilla/5.0 (Windows NT 10.0; Win64; x64) AppleWebKit/537.36 (KHTML, like Gecko) Chrome/133.0.0.0 Safari/537.36","WebKit","Chrome","133.0.0.0","Windows","10.0","https://hz8g1ckzuq.cognition.run/","en-US,en;q=0.9","6y7qygcmhuxw9sv","59","[""White""]","No","Female","2749949.5","28635","","","{""price_1"":""87"",""price_2"":""95"",""price_3"":""100""}","rating","tdc","repulsion_2","1","microwave ovens","null","null","null","null","null","null","2","100","90","100","30","40","20","Warranty","Cooking power","",""
"","","","","","rating_trial_setup","html-keyboard-response","7","283582","0.0-3.0-0.2","146","1","2025-04-14 14:14:03","bb671e3ae32f654b8954ea4c4635f915","","Mozilla/5.0 (Windows NT 10.0; Win64; x64) AppleWebKit/537.36 (KHTML, like Gecko) Chrome/133.0.0.0 Safari/537.36","WebKit","Chrome","133.0.0.0","Windows","10.0","https://hz8g1ckzuq.cognition.run/","en-US,en;q=0.9","6y7qygcmhuxw9sv","59","[""White""]","No","Female","2749949.5","null","","<p></p>","null","rating","wbw","catch","null","laptops","90","75","40","15","35","50","2","","","","","","","","","",""
"","","","","","rating_trial","survey-html-form","8","310311","0.0-3.0-1.2","146","1","2025-04-14 14:14:03","bb671e3ae32f654b8954ea4c4635f915","","Mozilla/5.0 (Windows NT 10.0; Win64; x64) AppleWebKit/537.36 (KHTML, like Gecko) Chrome/133.0.0.0 Safari/537.36","WebKit","Chrome","133.0.0.0","Windows","10.0","https://hz8g1ckzuq.cognition.run/","en-US,en;q=0.9","6y7qygcmhuxw9sv","59","[""White""]","No","Female","2749949.5","26725","","","{""price_1"":""160"",""price_2"":""187"",""price_3"":""210""}","rating","wbw","catch","null","laptops","90","75","40","15","35","50","2","null","null","null","null","null","null","Processing speed","Memory (RAM)","",""
"","","","","","rating_trial_setup","html-keyboard-response","9","310614","0.0-3.0-0.3","146","1","2025-04-14 14:14:03","bb671e3ae32f654b8954ea4c4635f915","","Mozilla/5.0 (Windows NT 10.0; Win64; x64) AppleWebKit/537.36 (KHTML, like Gecko) Chrome/133.0.0.0 Safari/537.36","WebKit","Chrome","133.0.0.0","Windows","10.0","https://hz8g1ckzuq.cognition.run/","en-US,en;q=0.9","6y7qygcmhuxw9sv","59","[""White""]","No","Female","2749949.5","null","","<p></p>","null","rating","dtc","attraction_1","2","laptops","null","null","null","null","null","null","1","","","","","","","","","",""
"","","","","","rating_trial","survey-html-form","10","340936","0.0-3.0-1.3","146","1","2025-04-14 14:14:03","bb671e3ae32f654b8954ea4c4635f915","","Mozilla/5.0 (Windows NT 10.0; Win64; x64) AppleWebKit/537.36 (KHTML, like Gecko) Chrome/133.0.0.0 Safari/537.36","WebKit","Chrome","133.0.0.0","Windows","10.0","https://hz8g1ckzuq.cognition.run/","en-US,en;q=0.9","6y7qygcmhuxw9sv","59","[""White""]","No","Female","2749949.5","30318","","","{""price_1"":""180"",""price_2"":""190"",""price_3"":""200""}","rating","dtc","attraction_1","2","laptops","null","null","null","null","null","null","1","50","60","45","60","50","60","Processing speed","Memory (RAM)","",""
"","","","","","rating_trial_setup","html-keyboard-response","11","341239","0.0-3.0-0.4","146","1","2025-04-14 14:14:03","bb671e3ae32f654b8954ea4c4635f915","","Mozilla/5.0 (Windows NT 10.0; Win64; x64) AppleWebKit/537.36 (KHTML, like Gecko) Chrome/133.0.0.0 Safari/537.36","WebKit","Chrome","133.0.0.0","Windows","10.0","https://hz8g1ckzuq.cognition.run/","en-US,en;q=0.9","6y7qygcmhuxw9sv","59","[""White""]","No","Female","2749949.5","null","","<p></p>","null","rating","dct","attraction_1","1","televisions","null","null","null","null","null","null","1","","","","","","","","","",""
"","","","","","rating_trial","survey-html-form","12","377422","0.0-3.0-1.4","146","1","2025-04-14 14:14:03","bb671e3ae32f654b8954ea4c4635f915","","Mozilla/5.0 (Windows NT 10.0; Win64; x64) AppleWebKit/537.36 (KHTML, like Gecko) Chrome/133.0.0.0 Safari/537.36","WebKit","Chrome","133.0.0.0","Windows","10.0","https://hz8g1ckzuq.cognition.run/","en-US,en;q=0.9","6y7qygcmhuxw9sv","59","[""White""]","No","Female","2749949.5","36179","","","{""price_1"":""145"",""price_2"":""140"",""price_3"":""150""}","rating","dct","attraction_1","1","televisions","null","null","null","null","null","null","1","60","50","60","50","60","45","Screen size","Average lifespan","",""
"","","","","","rating_trial_setup","html-keyboard-response","13","377724","0.0-3.0-0.5","146","1","2025-04-14 14:14:03","bb671e3ae32f654b8954ea4c4635f915","","Mozilla/5.0 (Windows NT 10.0; Win64; x64) AppleWebKit/537.36 (KHTML, like Gecko) Chrome/133.0.0.0 Safari/537.36","WebKit","Chrome","133.0.0.0","Windows","10.0","https://hz8g1ckzuq.cognition.run/","en-US,en;q=0.9","6y7qygcmhuxw9sv","59","[""White""]","No","Female","2749949.5","null","","<p></p>","null","rating","cdt","attraction_1","2","washing machines","null","null","null","null","null","null","1","","","","","","","","","",""
"","","","","","rating_trial","survey-html-form","14","427631","0.0-3.0-1.5","146","1","2025-04-14 14:14:03","bb671e3ae32f654b8954ea4c4635f915","","Mozilla/5.0 (Windows NT 10.0; Win64; x64) AppleWebKit/537.36 (KHTML, like Gecko) Chrome/133.0.0.0 Safari/537.36","WebKit","Chrome","133.0.0.0","Windows","10.0","https://hz8g1ckzuq.cognition.run/","en-US,en;q=0.9","6y7qygcmhuxw9sv","59","[""White""]","No","Female","2749949.5","49902","","","{""price_1"":""350"",""price_2"":""310"",""price_3"":""360""}","rating","cdt","attraction_1","2","washing machines","null","null","null","null","null","null","1","50","60","45","60","50","60","Average lifespan","Energy savings","",""
"","","","","","rating_trial_setup","html-keyboard-response","15","427933","0.0-3.0-0.6","146","1","2025-04-14 14:14:03","bb671e3ae32f654b8954ea4c4635f915","","Mozilla/5.0 (Windows NT 10.0; Win64; x64) AppleWebKit/537.36 (KHTML, like Gecko) Chrome/133.0.0.0 Safari/537.36","WebKit","Chrome","133.0.0.0","Windows","10.0","https://hz8g1ckzuq.cognition.run/","en-US,en;q=0.9","6y7qygcmhuxw9sv","59","[""White""]","No","Female","2749949.5","null","","<p></p>","null","rating","dct","repulsion_1","1","microwave ovens","null","null","null","null","null","null","2","","","","","","","","","",""
"","","","","","rating_trial","survey-html-form","16","453631","0.0-3.0-1.6","146","1","2025-04-14 14:14:03","bb671e3ae32f654b8954ea4c4635f915","","Mozilla/5.0 (Windows NT 10.0; Win64; x64) AppleWebKit/537.36 (KHTML, like Gecko) Chrome/133.0.0.0 Safari/537.36","WebKit","Chrome","133.0.0.0","Windows","10.0","https://hz8g1ckzuq.cognition.run/","en-US,en;q=0.9","6y7qygcmhuxw9sv","59","[""White""]","No","Female","2749949.5","25693","","","{""price_1"":""85"",""price_2"":""100"",""price_3"":""97""}","rating","dct","repulsion_1","1","microwave ovens","null","null","null","null","null","null","2","100","90","100","30","40","25","Warranty","Cooking power","",""
"","","","","","rating_trial_setup","html-keyboard-response","17","453934","0.0-3.0-0.7","146","1","2025-04-14 14:14:03","bb671e3ae32f654b8954ea4c4635f915","","Mozilla/5.0 (Windows NT 10.0; Win64; x64) AppleWebKit/537.36 (KHTML, like Gecko) Chrome/133.0.0.0 Safari/537.36","WebKit","Chrome","133.0.0.0","Windows","10.0","https://hz8g1ckzuq.cognition.run/","en-US,en;q=0.9","6y7qygcmhuxw9sv","59","[""White""]","No","Female","2749949.5","null","","<p></p>","null","rating","cdt","attraction_2","2","microwave ovens","null","null","null","null","null","null","2","","","","","","","","","",""
"","","","","","rating_trial","survey-html-form","18","508686","0.0-3.0-1.7","146","1","2025-04-14 14:14:03","bb671e3ae32f654b8954ea4c4635f915","","Mozilla/5.0 (Windows NT 10.0; Win64; x64) AppleWebKit/537.36 (KHTML, like Gecko) Chrome/133.0.0.0 Safari/537.36","WebKit","Chrome","133.0.0.0","Windows","10.0","https://hz8g1ckzuq.cognition.run/","en-US,en;q=0.9","6y7qygcmhuxw9sv","59","[""White""]","No","Female","2749949.5","54748","","","{""price_1"":""80"",""price_2"":""85"",""price_3"":""90""}","rating","cdt","attraction_2","2","microwave ovens","null","null","null","null","null","null","2","50","60","40","60","50","60","Warranty","Cooking power","",""
"","","","","","rating_trial_setup","html-keyboard-response","19","508989","0.0-3.0-0.8","146","1","2025-04-14 14:14:03","bb671e3ae32f654b8954ea4c4635f915","","Mozilla/5.0 (Windows NT 10.0; Win64; x64) AppleWebKit/537.36 (KHTML, like Gecko) Chrome/133.0.0.0 Safari/537.36","WebKit","Chrome","133.0.0.0","Windows","10.0","https://hz8g1ckzuq.cognition.run/","en-US,en;q=0.9","6y7qygcmhuxw9sv","59","[""White""]","No","Female","2749949.5","null","","<p></p>","null","rating","bww","catch","null","washing machines","85","60","5","10","10","20","2","","","","","","","","","",""
"","","","","","rating_trial","survey-html-form","20","550511","0.0-3.0-1.8","146","1","2025-04-14 14:14:03","bb671e3ae32f654b8954ea4c4635f915","","Mozilla/5.0 (Windows NT 10.0; Win64; x64) AppleWebKit/537.36 (KHTML, like Gecko) Chrome/133.0.0.0 Safari/537.36","WebKit","Chrome","133.0.0.0","Windows","10.0","https://hz8g1ckzuq.cognition.run/","en-US,en;q=0.9","6y7qygcmhuxw9sv","59","[""White""]","No","Female","2749949.5","41519","","","{""price_1"":""320"",""price_2"":""270"",""price_3"":""280""}","rating","bww","catch","null","washing machines","85","60","5","10","10","20","2","null","null","null","null","null","null","Average lifespan","Energy savings","",""
"","","","","","rating_trial_setup","html-keyboard-response","21","550814","0.0-3.0-0.9","146","1","2025-04-14 14:14:03","bb671e3ae32f654b8954ea4c4635f915","","Mozilla/5.0 (Windows NT 10.0; Win64; x64) AppleWebKit/537.36 (KHTML, like Gecko) Chrome/133.0.0.0 Safari/537.36","WebKit","Chrome","133.0.0.0","Windows","10.0","https://hz8g1ckzuq.cognition.run/","en-US,en;q=0.9","6y7qygcmhuxw9sv","59","[""White""]","No","Female","2749949.5","null","","<p></p>","null","rating","cdt","repulsion_1","2","washing machines","null","null","null","null","null","null","2","","","","","","","","","",""
"","","","","","rating_trial","survey-html-form","22","629567","0.0-3.0-1.9","146","1","2025-04-14 14:14:03","bb671e3ae32f654b8954ea4c4635f915","","Mozilla/5.0 (Windows NT 10.0; Win64; x64) AppleWebKit/537.36 (KHTML, like Gecko) Chrome/133.0.0.0 Safari/537.36","WebKit","Chrome","133.0.0.0","Windows","10.0","https://hz8g1ckzuq.cognition.run/","en-US,en;q=0.9","6y7qygcmhuxw9sv","59","[""White""]","No","Female","2749949.5","78747","","","{""price_1"":""300"",""price_2"":""320"",""price_3"":""330""}","rating","cdt","repulsion_1","2","washing machines","null","null","null","null","null","null","2","30","40","25","100","90","100","Average lifespan","Energy savings","",""
"","","","","","rating_trial_setup","html-keyboard-response","23","629870","0.0-3.0-0.10","146","1","2025-04-14 14:14:03","bb671e3ae32f654b8954ea4c4635f915","","Mozilla/5.0 (Windows NT 10.0; Win64; x64) AppleWebKit/537.36 (KHTML, like Gecko) Chrome/133.0.0.0 Safari/537.36","WebKit","Chrome","133.0.0.0","Windows","10.0","https://hz8g1ckzuq.cognition.run/","en-US,en;q=0.9","6y7qygcmhuxw9sv","59","[""White""]","No","Female","2749949.5","null","","<p></p>","null","rating","tdc","attraction_2","1","washing machines","null","null","null","null","null","null","1","","","","","","","","","",""
"","","","","","rating_trial","survey-html-form","24","645031","0.0-3.0-1.10","146","1","2025-04-14 14:14:03","bb671e3ae32f654b8954ea4c4635f915","","Mozilla/5.0 (Windows NT 10.0; Win64; x64) AppleWebKit/537.36 (KHTML, like Gecko) Chrome/133.0.0.0 Safari/537.36","WebKit","Chrome","133.0.0.0","Windows","10.0","https://hz8g1ckzuq.cognition.run/","en-US,en;q=0.9","6y7qygcmhuxw9sv","59","[""White""]","No","Female","2749949.5","15155","","","{""price_1"":""320"",""price_2"":""310"",""price_3"":""310""}","rating","tdc","attraction_2","1","washing machines","null","null","null","null","null","null","1","60","50","60","50","60","40","Average lifespan","Energy savings","",""
"","","","","","rating_trial_setup","html-keyboard-response","25","645334","0.0-3.0-0.11","146","1","2025-04-14 14:14:03","bb671e3ae32f654b8954ea4c4635f915","","Mozilla/5.0 (Windows NT 10.0; Win64; x64) AppleWebKit/537.36 (KHTML, like Gecko) Chrome/133.0.0.0 Safari/537.36","WebKit","Chrome","133.0.0.0","Windows","10.0","https://hz8g1ckzuq.cognition.run/","en-US,en;q=0.9","6y7qygcmhuxw9sv","59","[""White""]","No","Female","2749949.5","null","","<p></p>","null","rating","ctd","repulsion_2","2","washing machines","null","null","null","null","null","null","1","","","","","","","","","",""
"","","","","","rating_trial","survey-html-form","26","680455","0.0-3.0-1.11","146","1","2025-04-14 14:14:03","bb671e3ae32f654b8954ea4c4635f915","","Mozilla/5.0 (Windows NT 10.0; Win64; x64) AppleWebKit/537.36 (KHTML, like Gecko) Chrome/133.0.0.0 Safari/537.36","WebKit","Chrome","133.0.0.0","Windows","10.0","https://hz8g1ckzuq.cognition.run/","en-US,en;q=0.9","6y7qygcmhuxw9sv","59","[""White""]","No","Female","2749949.5","35115","","","{""price_1"":""300"",""price_2"":""290"",""price_3"":""320""}","rating","ctd","repulsion_2","2","washing machines","null","null","null","null","null","null","1","30","40","20","100","90","100","Average lifespan","Energy savings","",""
"","","","","","rating_trial_setup","html-keyboard-response","27","680758","0.0-3.0-0.12","146","1","2025-04-14 14:14:03","bb671e3ae32f654b8954ea4c4635f915","","Mozilla/5.0 (Windows NT 10.0; Win64; x64) AppleWebKit/537.36 (KHTML, like Gecko) Chrome/133.0.0.0 Safari/537.36","WebKit","Chrome","133.0.0.0","Windows","10.0","https://hz8g1ckzuq.cognition.run/","en-US,en;q=0.9","6y7qygcmhuxw9sv","59","[""White""]","No","Female","2749949.5","null","","<p></p>","null","rating","ctd","repulsion_1","2","televisions","null","null","null","null","null","null","2","","","","","","","","","",""
"","","","","","rating_trial","survey-html-form","28","748127","0.0-3.0-1.12","146","1","2025-04-14 14:14:03","bb671e3ae32f654b8954ea4c4635f915","","Mozilla/5.0 (Windows NT 10.0; Win64; x64) AppleWebKit/537.36 (KHTML, like Gecko) Chrome/133.0.0.0 Safari/537.36","WebKit","Chrome","133.0.0.0","Windows","10.0","https://hz8g1ckzuq.cognition.run/","en-US,en;q=0.9","6y7qygcmhuxw9sv","59","[""White""]","No","Female","2749949.5","67364","","","{""price_1"":""170"",""price_2"":""150"",""price_3"":""150""}","rating","ctd","repulsion_1","2","televisions","null","null","null","null","null","null","2","30","40","25","100","90","100","Screen size","Average lifespan","",""
"","","","","","rating_trial_setup","html-keyboard-response","29","748431","0.0-3.0-0.13","146","1","2025-04-14 14:14:03","bb671e3ae32f654b8954ea4c4635f915","","Mozilla/5.0 (Windows NT 10.0; Win64; x64) AppleWebKit/537.36 (KHTML, like Gecko) Chrome/133.0.0.0 Safari/537.36","WebKit","Chrome","133.0.0.0","Windows","10.0","https://hz8g1ckzuq.cognition.run/","en-US,en;q=0.9","6y7qygcmhuxw9sv","59","[""White""]","No","Female","2749949.5","null","","<p></p>","null","rating","cdt","attraction_1","2","microwave ovens","null","null","null","null","null","null","1","","","","","","","","","",""
"","","","","","rating_trial","survey-html-form","30","763238","0.0-3.0-1.13","146","1","2025-04-14 14:14:03","bb671e3ae32f654b8954ea4c4635f915","","Mozilla/5.0 (Windows NT 10.0; Win64; x64) AppleWebKit/537.36 (KHTML, like Gecko) Chrome/133.0.0.0 Safari/537.36","WebKit","Chrome","133.0.0.0","Windows","10.0","https://hz8g1ckzuq.cognition.run/","en-US,en;q=0.9","6y7qygcmhuxw9sv","59","[""White""]","No","Female","2749949.5","14802","","","{""price_1"":""90"",""price_2"":""85"",""price_3"":""90""}","rating","cdt","attraction_1","2","microwave ovens","null","null","null","null","null","null","1","50","60","45","60","50","60","Warranty","Cooking power","",""
"","","","","","rating_trial_setup","html-keyboard-response","31","763541","0.0-3.0-0.14","146","1","2025-04-14 14:14:03","bb671e3ae32f654b8954ea4c4635f915","","Mozilla/5.0 (Windows NT 10.0; Win64; x64) AppleWebKit/537.36 (KHTML, like Gecko) Chrome/133.0.0.0 Safari/537.36","WebKit","Chrome","133.0.0.0","Windows","10.0","https://hz8g1ckzuq.cognition.run/","en-US,en;q=0.9","6y7qygcmhuxw9sv","59","[""White""]","No","Female","2749949.5","null","","<p></p>","null","rating","dct","repulsion_1","1","televisions","null","null","null","null","null","null","1","","","","","","","","","",""
"","","","","","rating_trial","survey-html-form","32","810590","0.0-3.0-1.14","146","1","2025-04-14 14:14:03","bb671e3ae32f654b8954ea4c4635f915","","Mozilla/5.0 (Windows NT 10.0; Win64; x64) AppleWebKit/537.36 (KHTML, like Gecko) Chrome/133.0.0.0 Safari/537.36","WebKit","Chrome","133.0.0.0","Windows","10.0","https://hz8g1ckzuq.cognition.run/","en-US,en;q=0.9","6y7qygcmhuxw9sv","59","[""White""]","No","Female","2749949.5","47044","","","{""price_1"":""170"",""price_2"":""150"",""price_3"":""170""}","rating","dct","repulsion_1","1","televisions","null","null","null","null","null","null","1","100","90","100","30","40","25","Screen size","Average lifespan","",""
"","","","","","rating_trial_setup","html-keyboard-response","33","810894","0.0-3.0-0.15","146","1","2025-04-14 14:14:03","bb671e3ae32f654b8954ea4c4635f915","","Mozilla/5.0 (Windows NT 10.0; Win64; x64) AppleWebKit/537.36 (KHTML, like Gecko) Chrome/133.0.0.0 Safari/537.36","WebKit","Chrome","133.0.0.0","Windows","10.0","https://hz8g1ckzuq.cognition.run/","en-US,en;q=0.9","6y7qygcmhuxw9sv","59","[""White""]","No","Female","2749949.5","null","","<p></p>","null","rating","dct","repulsion_2","1","televisions","null","null","null","null","null","null","1","","","","","","","","","",""
"","","","","","rating_trial","survey-html-form","34","833022","0.0-3.0-1.15","146","1","2025-04-14 14:14:03","bb671e3ae32f654b8954ea4c4635f915","","Mozilla/5.0 (Windows NT 10.0; Win64; x64) AppleWebKit/537.36 (KHTML, like Gecko) Chrome/133.0.0.0 Safari/537.36","WebKit","Chrome","133.0.0.0","Windows","10.0","https://hz8g1ckzuq.cognition.run/","en-US,en;q=0.9","6y7qygcmhuxw9sv","59","[""White""]","No","Female","2749949.5","22122","","","{""price_1"":""150"",""price_2"":""160"",""price_3"":""170""}","rating","dct","repulsion_2","1","televisions","null","null","null","null","null","null","1","100","90","100","30","40","20","Screen size","Average lifespan","",""
"","","","","","rating_trial_setup","html-keyboard-response","35","833325","0.0-3.0-0.16","146","1","2025-04-14 14:14:03","bb671e3ae32f654b8954ea4c4635f915","","Mozilla/5.0 (Windows NT 10.0; Win64; x64) AppleWebKit/537.36 (KHTML, like Gecko) Chrome/133.0.0.0 Safari/537.36","WebKit","Chrome","133.0.0.0","Windows","10.0","https://hz8g1ckzuq.cognition.run/","en-US,en;q=0.9","6y7qygcmhuxw9sv","59","[""White""]","No","Female","2749949.5","null","","<p></p>","null","rating","bww","catch","null","washing machines","65","60","20","10","35","50","1","","","","","","","","","",""
"","","","","","rating_trial","survey-html-form","36","884518","0.0-3.0-1.16","146","1","2025-04-14 14:14:03","bb671e3ae32f654b8954ea4c4635f915","","Mozilla/5.0 (Windows NT 10.0; Win64; x64) AppleWebKit/537.36 (KHTML, like Gecko) Chrome/133.0.0.0 Safari/537.36","WebKit","Chrome","133.0.0.0","Windows","10.0","https://hz8g1ckzuq.cognition.run/","en-US,en;q=0.9","6y7qygcmhuxw9sv","59","[""White""]","No","Female","2749949.5","51187","","","{""price_1"":""300"",""price_2"":""280"",""price_3"":""320""}","rating","bww","catch","null","washing machines","65","60","20","10","35","50","1","null","null","null","null","null","null","Average lifespan","Energy savings","",""
"","","","","","rating_trial_setup","html-keyboard-response","37","884823","0.0-3.0-0.17","146","1","2025-04-14 14:14:03","bb671e3ae32f654b8954ea4c4635f915","","Mozilla/5.0 (Windows NT 10.0; Win64; x64) AppleWebKit/537.36 (KHTML, like Gecko) Chrome/133.0.0.0 Safari/537.36","WebKit","Chrome","133.0.0.0","Windows","10.0","https://hz8g1ckzuq.cognition.run/","en-US,en;q=0.9","6y7qygcmhuxw9sv","59","[""White""]","No","Female","2749949.5","null","","<p></p>","null","rating","dtc","repulsion_2","2","laptops","null","null","null","null","null","null","1","","","","","","","","","",""
"","","","","","rating_trial","survey-html-form","38","933342","0.0-3.0-1.17","146","1","2025-04-14 14:14:03","bb671e3ae32f654b8954ea4c4635f915","","Mozilla/5.0 (Windows NT 10.0; Win64; x64) AppleWebKit/537.36 (KHTML, like Gecko) Chrome/133.0.0.0 Safari/537.36","WebKit","Chrome","133.0.0.0","Windows","10.0","https://hz8g1ckzuq.cognition.run/","en-US,en;q=0.9","6y7qygcmhuxw9sv","59","[""White""]","No","Female","2749949.5","48513","","","{""price_1"":""180"",""price_2"":""190"",""price_3"":""200""}","rating","dtc","repulsion_2","2","laptops","null","null","null","null","null","null","1","30","40","20","100","90","100","Processing speed","Memory (RAM)","",""
"","","","","","rating_trial_setup","html-keyboard-response","39","933646","0.0-3.0-0.18","146","1","2025-04-14 14:14:03","bb671e3ae32f654b8954ea4c4635f915","","Mozilla/5.0 (Windows NT 10.0; Win64; x64) AppleWebKit/537.36 (KHTML, like Gecko) Chrome/133.0.0.0 Safari/537.36","WebKit","Chrome","133.0.0.0","Windows","10.0","https://hz8g1ckzuq.cognition.run/","en-US,en;q=0.9","6y7qygcmhuxw9sv","59","[""White""]","No","Female","2749949.5","null","","<p></p>","null","rating","dtc","attraction_1","1","microwave ovens","null","null","null","null","null","null","1","","","","","","","","","",""
"","","","","","rating_trial","survey-html-form","40","948135","0.0-3.0-1.18","146","1","2025-04-14 14:14:03","bb671e3ae32f654b8954ea4c4635f915","","Mozilla/5.0 (Windows NT 10.0; Win64; x64) AppleWebKit/537.36 (KHTML, like Gecko) Chrome/133.0.0.0 Safari/537.36","WebKit","Chrome","133.0.0.0","Windows","10.0","https://hz8g1ckzuq.cognition.run/","en-US,en;q=0.9","6y7qygcmhuxw9sv","59","[""White""]","No","Female","2749949.5","14482","","","{""price_1"":""90"",""price_2"":""85"",""price_3"":""90""}","rating","dtc","attraction_1","1","microwave ovens","null","null","null","null","null","null","1","60","50","60","50","60","45","Warranty","Cooking power","",""
"","","","","","rating_trial_setup","html-keyboard-response","41","948437","0.0-3.0-0.19","146","1","2025-04-14 14:14:03","bb671e3ae32f654b8954ea4c4635f915","","Mozilla/5.0 (Windows NT 10.0; Win64; x64) AppleWebKit/537.36 (KHTML, like Gecko) Chrome/133.0.0.0 Safari/537.36","WebKit","Chrome","133.0.0.0","Windows","10.0","https://hz8g1ckzuq.cognition.run/","en-US,en;q=0.9","6y7qygcmhuxw9sv","59","[""White""]","No","Female","2749949.5","null","","<p></p>","null","rating","tdc","attraction_2","2","televisions","null","null","null","null","null","null","2","","","","","","","","","",""
"","","","","","rating_trial","survey-html-form","42","972398","0.0-3.0-1.19","146","1","2025-04-14 14:14:03","bb671e3ae32f654b8954ea4c4635f915","","Mozilla/5.0 (Windows NT 10.0; Win64; x64) AppleWebKit/537.36 (KHTML, like Gecko) Chrome/133.0.0.0 Safari/537.36","WebKit","Chrome","133.0.0.0","Windows","10.0","https://hz8g1ckzuq.cognition.run/","en-US,en;q=0.9","6y7qygcmhuxw9sv","59","[""White""]","No","Female","2749949.5","23954","","","{""price_1"":""160"",""price_2"":""147"",""price_3"":""160""}","rating","tdc","attraction_2","2","televisions","null","null","null","null","null","null","2","50","60","40","60","50","60","Screen size","Average lifespan","",""
"","","","","","rating_trial_setup","html-keyboard-response","43","972702","0.0-3.0-0.20","146","1","2025-04-14 14:14:03","bb671e3ae32f654b8954ea4c4635f915","","Mozilla/5.0 (Windows NT 10.0; Win64; x64) AppleWebKit/537.36 (KHTML, like Gecko) Chrome/133.0.0.0 Safari/537.36","WebKit","Chrome","133.0.0.0","Windows","10.0","https://hz8g1ckzuq.cognition.run/","en-US,en;q=0.9","6y7qygcmhuxw9sv","59","[""White""]","No","Female","2749949.5","null","","<p></p>","null","rating","tcd","attraction_1","1","washing machines","null","null","null","null","null","null","1","","","","","","","","","",""
"","","","","","rating_trial","survey-html-form","44","1002606","0.0-3.0-1.20","146","1","2025-04-14 14:14:03","bb671e3ae32f654b8954ea4c4635f915","","Mozilla/5.0 (Windows NT 10.0; Win64; x64) AppleWebKit/537.36 (KHTML, like Gecko) Chrome/133.0.0.0 Safari/537.36","WebKit","Chrome","133.0.0.0","Windows","10.0","https://hz8g1ckzuq.cognition.run/","en-US,en;q=0.9","6y7qygcmhuxw9sv","59","[""White""]","No","Female","2749949.5","29898","","","{""price_1"":""320"",""price_2"":""300"",""price_3"":""295""}","rating","tcd","attraction_1","1","washing machines","null","null","null","null","null","null","1","60","50","60","50","60","45","Average lifespan","Energy savings","",""
"","","","","","rating_trial_setup","html-keyboard-response","45","1002910","0.0-3.0-0.21","146","1","2025-04-14 14:14:03","bb671e3ae32f654b8954ea4c4635f915","","Mozilla/5.0 (Windows NT 10.0; Win64; x64) AppleWebKit/537.36 (KHTML, like Gecko) Chrome/133.0.0.0 Safari/537.36","WebKit","Chrome","133.0.0.0","Windows","10.0","https://hz8g1ckzuq.cognition.run/","en-US,en;q=0.9","6y7qygcmhuxw9sv","59","[""White""]","No","Female","2749949.5","null","","<p></p>","null","rating","bww","catch","null","televisions","50","95","10","45","40","10","1","","","","","","","","","",""
"","","","","","rating_trial","survey-html-form","46","1041462","0.0-3.0-1.21","146","1","2025-04-14 14:14:03","bb671e3ae32f654b8954ea4c4635f915","","Mozilla/5.0 (Windows NT 10.0; Win64; x64) AppleWebKit/537.36 (KHTML, like Gecko) Chrome/133.0.0.0 Safari/537.36","WebKit","Chrome","133.0.0.0","Windows","10.0","https://hz8g1ckzuq.cognition.run/","en-US,en;q=0.9","6y7qygcmhuxw9sv","59","[""White""]","No","Female","2749949.5","38546","","","{""price_1"":""170"",""price_2"":""110"",""price_3"":""130""}","rating","bww","catch","null","televisions","50","95","10","45","40","10","1","null","null","null","null","null","null","Screen size","Average lifespan","",""
"","","","","","rating_trial_setup","html-keyboard-response","47","1041767","0.0-3.0-0.22","146","1","2025-04-14 14:14:03","bb671e3ae32f654b8954ea4c4635f915","","Mozilla/5.0 (Windows NT 10.0; Win64; x64) AppleWebKit/537.36 (KHTML, like Gecko) Chrome/133.0.0.0 Safari/537.36","WebKit","Chrome","133.0.0.0","Windows","10.0","https://hz8g1ckzuq.cognition.run/","en-US,en;q=0.9","6y7qygcmhuxw9sv","59","[""White""]","No","Female","2749949.5","null","","<p></p>","null","rating","ctd","repulsion_2","1","laptops","null","null","null","null","null","null","2","","","","","","","","","",""
"","","","","","rating_trial","survey-html-form","48","1102742","0.0-3.0-1.22","146","1","2025-04-14 14:14:03","bb671e3ae32f654b8954ea4c4635f915","","Mozilla/5.0 (Windows NT 10.0; Win64; x64) AppleWebKit/537.36 (KHTML, like Gecko) Chrome/133.0.0.0 Safari/537.36","WebKit","Chrome","133.0.0.0","Windows","10.0","https://hz8g1ckzuq.cognition.run/","en-US,en;q=0.9","6y7qygcmhuxw9sv","59","[""White""]","No","Female","2749949.5","60967","","","{""price_1"":""180"",""price_2"":""170"",""price_3"":""180""}","rating","ctd","repulsion_2","1","laptops","null","null","null","null","null","null","2","100","90","100","30","40","20","Processing speed","Memory (RAM)","",""
"","","","","","rating_trial_setup","html-keyboard-response","49","1103046","0.0-3.0-0.23","146","1","2025-04-14 14:14:03","bb671e3ae32f654b8954ea4c4635f915","","Mozilla/5.0 (Windows NT 10.0; Win64; x64) AppleWebKit/537.36 (KHTML, like Gecko) Chrome/133.0.0.0 Safari/537.36","WebKit","Chrome","133.0.0.0","Windows","10.0","https://hz8g1ckzuq.cognition.run/","en-US,en;q=0.9","6y7qygcmhuxw9sv","59","[""White""]","No","Female","2749949.5","null","","<p></p>","null","rating","cdt","attraction_2","2","washing machines","null","null","null","null","null","null","2","","","","","","","","","",""
"","","","","","rating_trial","survey-html-form","50","1139998","0.0-3.0-1.23","146","1","2025-04-14 14:14:03","bb671e3ae32f654b8954ea4c4635f915","","Mozilla/5.0 (Windows NT 10.0; Win64; x64) AppleWebKit/537.36 (KHTML, like Gecko) Chrome/133.0.0.0 Safari/537.36","WebKit","Chrome","133.0.0.0","Windows","10.0","https://hz8g1ckzuq.cognition.run/","en-US,en;q=0.9","6y7qygcmhuxw9sv","59","[""White""]","No","Female","2749949.5","36948","","","{""price_1"":""300"",""price_2"":""290"",""price_3"":""310""}","rating","cdt","attraction_2","2","washing machines","null","null","null","null","null","null","2","50","60","40","60","50","60","Average lifespan","Energy savings","",""
"","","","","","rating_trial_setup","html-keyboard-response","51","1140302","0.0-3.0-0.24","146","1","2025-04-14 14:14:03","bb671e3ae32f654b8954ea4c4635f915","","Mozilla/5.0 (Windows NT 10.0; Win64; x64) AppleWebKit/537.36 (KHTML, like Gecko) Chrome/133.0.0.0 Safari/537.36","WebKit","Chrome","133.0.0.0","Windows","10.0","https://hz8g1ckzuq.cognition.run/","en-US,en;q=0.9","6y7qygcmhuxw9sv","59","[""White""]","No","Female","2749949.5","null","","<p></p>","null","rating","wbw","catch","null","televisions","55","55","10","30","45","5","2","","","","","","","","","",""
"","","","","","rating_trial","survey-html-form","52","1212390","0.0-3.0-1.24","146","1","2025-04-14 14:14:03","bb671e3ae32f654b8954ea4c4635f915","","Mozilla/5.0 (Windows NT 10.0; Win64; x64) AppleWebKit/537.36 (KHTML, like Gecko) Chrome/133.0.0.0 Safari/537.36","WebKit","Chrome","133.0.0.0","Windows","10.0","https://hz8g1ckzuq.cognition.run/","en-US,en;q=0.9","6y7qygcmhuxw9sv","59","[""White""]","No","Female","2749949.5","72081","","","{""price_1"":""110"",""price_2"":""180"",""price_3"":""140""}","rating","wbw","catch","null","televisions","55","55","10","30","45","5","2","null","null","null","null","null","null","Screen size","Average lifespan","",""
"","","","","","rating_trial_setup","html-keyboard-response","53","1212694","0.0-3.0-0.25","146","1","2025-04-14 14:14:03","bb671e3ae32f654b8954ea4c4635f915","","Mozilla/5.0 (Windows NT 10.0; Win64; x64) AppleWebKit/537.36 (KHTML, like Gecko) Chrome/133.0.0.0 Safari/537.36","WebKit","Chrome","133.0.0.0","Windows","10.0","https://hz8g1ckzuq.cognition.run/","en-US,en;q=0.9","6y7qygcmhuxw9sv","59","[""White""]","No","Female","2749949.5","null","","<p></p>","null","rating","ctd","repulsion_2","2","televisions","null","null","null","null","null","null","1","","","","","","","","","",""
"","","","","","rating_trial","survey-html-form","54","1229949","0.0-3.0-1.25","146","1","2025-04-14 14:14:03","bb671e3ae32f654b8954ea4c4635f915","","Mozilla/5.0 (Windows NT 10.0; Win64; x64) AppleWebKit/537.36 (KHTML, like Gecko) Chrome/133.0.0.0 Safari/537.36","WebKit","Chrome","133.0.0.0","Windows","10.0","https://hz8g1ckzuq.cognition.run/","en-US,en;q=0.9","6y7qygcmhuxw9sv","59","[""White""]","No","Female","2749949.5","17249","","","{""price_1"":""150"",""price_2"":""145"",""price_3"":""137""}","rating","ctd","repulsion_2","2","televisions","null","null","null","null","null","null","1","30","40","20","100","90","100","Screen size","Average lifespan","",""
"","","","","","rating_trial_setup","html-keyboard-response","55","1230254","0.0-3.0-0.26","146","1","2025-04-14 14:14:03","bb671e3ae32f654b8954ea4c4635f915","","Mozilla/5.0 (Windows NT 10.0; Win64; x64) AppleWebKit/537.36 (KHTML, like Gecko) Chrome/133.0.0.0 Safari/537.36","WebKit","Chrome","133.0.0.0","Windows","10.0","https://hz8g1ckzuq.cognition.run/","en-US,en;q=0.9","6y7qygcmhuxw9sv","59","[""White""]","No","Female","2749949.5","null","","<p></p>","null","rating","cdt","attraction_2","1","televisions","null","null","null","null","null","null","2","","","","","","","","","",""
"","","","","","rating_trial","survey-html-form","56","1261989","0.0-3.0-1.26","146","1","2025-04-14 14:14:03","bb671e3ae32f654b8954ea4c4635f915","","Mozilla/5.0 (Windows NT 10.0; Win64; x64) AppleWebKit/537.36 (KHTML, like Gecko) Chrome/133.0.0.0 Safari/537.36","WebKit","Chrome","133.0.0.0","Windows","10.0","https://hz8g1ckzuq.cognition.run/","en-US,en;q=0.9","6y7qygcmhuxw9sv","59","[""White""]","No","Female","2749949.5","31729","","","{""price_1"":""129"",""price_2"":""130"",""price_3"":""135""}","rating","cdt","attraction_2","1","televisions","null","null","null","null","null","null","2","60","50","60","50","60","40","Screen size","Average lifespan","",""
"","","","","","rating_trial_setup","html-keyboard-response","57","1262292","0.0-3.0-0.27","146","1","2025-04-14 14:14:03","bb671e3ae32f654b8954ea4c4635f915","","Mozilla/5.0 (Windows NT 10.0; Win64; x64) AppleWebKit/537.36 (KHTML, like Gecko) Chrome/133.0.0.0 Safari/537.36","WebKit","Chrome","133.0.0.0","Windows","10.0","https://hz8g1ckzuq.cognition.run/","en-US,en;q=0.9","6y7qygcmhuxw9sv","59","[""White""]","No","Female","2749949.5","null","","<p></p>","null","rating","wbw","catch","null","microwave ovens","75","90","30","40","35","25","2","","","","","","","","","",""
"","","","","","rating_trial","survey-html-form","58","1301622","0.0-3.0-1.27","146","1","2025-04-14 14:14:03","bb671e3ae32f654b8954ea4c4635f915","","Mozilla/5.0 (Windows NT 10.0; Win64; x64) AppleWebKit/537.36 (KHTML, like Gecko) Chrome/133.0.0.0 Safari/537.36","WebKit","Chrome","133.0.0.0","Windows","10.0","https://hz8g1ckzuq.cognition.run/","en-US,en;q=0.9","6y7qygcmhuxw9sv","59","[""White""]","No","Female","2749949.5","39321","","","{""price_1"":""80"",""price_2"":""90"",""price_3"":""70""}","rating","wbw","catch","null","microwave ovens","75","90","30","40","35","25","2","null","null","null","null","null","null","Warranty","Cooking power","",""
"","","","","","rating_trial_setup","html-keyboard-response","59","1301926","0.0-3.0-0.28","146","1","2025-04-14 14:14:03","bb671e3ae32f654b8954ea4c4635f915","","Mozilla/5.0 (Windows NT 10.0; Win64; x64) AppleWebKit/537.36 (KHTML, like Gecko) Chrome/133.0.0.0 Safari/537.36","WebKit","Chrome","133.0.0.0","Windows","10.0","https://hz8g1ckzuq.cognition.run/","en-US,en;q=0.9","6y7qygcmhuxw9sv","59","[""White""]","No","Female","2749949.5","null","","<p></p>","null","rating","ctd","repulsion_1","1","washing machines","null","null","null","null","null","null","1","","","","","","","","","",""
"","","","","","rating_trial","survey-html-form","60","1332326","0.0-3.0-1.28","146","1","2025-04-14 14:14:03","bb671e3ae32f654b8954ea4c4635f915","","Mozilla/5.0 (Windows NT 10.0; Win64; x64) AppleWebKit/537.36 (KHTML, like Gecko) Chrome/133.0.0.0 Safari/537.36","WebKit","Chrome","133.0.0.0","Windows","10.0","https://hz8g1ckzuq.cognition.run/","en-US,en;q=0.9","6y7qygcmhuxw9sv","59","[""White""]","No","Female","2749949.5","30392","","","{""price_1"":""310"",""price_2"":""315"",""price_3"":""310""}","rating","ctd","repulsion_1","1","washing machines","null","null","null","null","null","null","1","100","90","100","30","40","25","Average lifespan","Energy savings","",""
"","","","","","rating_trial_setup","html-keyboard-response","61","1332630","0.0-3.0-0.29","146","1","2025-04-14 14:14:03","bb671e3ae32f654b8954ea4c4635f915","","Mozilla/5.0 (Windows NT 10.0; Win64; x64) AppleWebKit/537.36 (KHTML, like Gecko) Chrome/133.0.0.0 Safari/537.36","WebKit","Chrome","133.0.0.0","Windows","10.0","https://hz8g1ckzuq.cognition.run/","en-US,en;q=0.9","6y7qygcmhuxw9sv","59","[""White""]","No","Female","2749949.5","null","","<p></p>","null","rating","cdt","attraction_2","1","laptops","null","null","null","null","null","null","1","","","","","","","","","",""
"","","","","","rating_trial","survey-html-form","62","1358358","0.0-3.0-1.29","146","1","2025-04-14 14:14:03","bb671e3ae32f654b8954ea4c4635f915","","Mozilla/5.0 (Windows NT 10.0; Win64; x64) AppleWebKit/537.36 (KHTML, like Gecko) Chrome/133.0.0.0 Safari/537.36","WebKit","Chrome","133.0.0.0","Windows","10.0","https://hz8g1ckzuq.cognition.run/","en-US,en;q=0.9","6y7qygcmhuxw9sv","59","[""White""]","No","Female","2749949.5","25719","","","{""price_1"":""150"",""price_2"":""155"",""price_3"":""160""}","rating","cdt","attraction_2","1","laptops","null","null","null","null","null","null","1","60","50","60","50","60","40","Processing speed","Memory (RAM)","",""
"","","","","","rating_trial_setup","html-keyboard-response","63","1358663","0.0-3.0-0.30","146","1","2025-04-14 14:14:03","bb671e3ae32f654b8954ea4c4635f915","","Mozilla/5.0 (Windows NT 10.0; Win64; x64) AppleWebKit/537.36 (KHTML, like Gecko) Chrome/133.0.0.0 Safari/537.36","WebKit","Chrome","133.0.0.0","Windows","10.0","https://hz8g1ckzuq.cognition.run/","en-US,en;q=0.9","6y7qygcmhuxw9sv","59","[""White""]","No","Female","2749949.5","null","","<p></p>","null","rating","dct","attraction_2","2","laptops","null","null","null","null","null","null","2","","","","","","","","","",""
"","","","","","rating_trial","survey-html-form","64","1389853","0.0-3.0-1.30","146","1","2025-04-14 14:14:03","bb671e3ae32f654b8954ea4c4635f915","","Mozilla/5.0 (Windows NT 10.0; Win64; x64) AppleWebKit/537.36 (KHTML, like Gecko) Chrome/133.0.0.0 Safari/537.36","WebKit","Chrome","133.0.0.0","Windows","10.0","https://hz8g1ckzuq.cognition.run/","en-US,en;q=0.9","6y7qygcmhuxw9sv","59","[""White""]","No","Female","2749949.5","31182","","","{""price_1"":""200"",""price_2"":""190"",""price_3"":""195""}","rating","dct","attraction_2","2","laptops","null","null","null","null","null","null","2","50","60","40","60","50","60","Processing speed","Memory (RAM)","",""
"","","","","","rating_trial_setup","html-keyboard-response","65","1390159","0.0-3.0-0.31","146","1","2025-04-14 14:14:03","bb671e3ae32f654b8954ea4c4635f915","","Mozilla/5.0 (Windows NT 10.0; Win64; x64) AppleWebKit/537.36 (KHTML, like Gecko) Chrome/133.0.0.0 Safari/537.36","WebKit","Chrome","133.0.0.0","Windows","10.0","https://hz8g1ckzuq.cognition.run/","en-US,en;q=0.9","6y7qygcmhuxw9sv","59","[""White""]","No","Female","2749949.5","null","","<p></p>","null","rating","tdc","attraction_2","1","microwave ovens","null","null","null","null","null","null","1","","","","","","","","","",""
"","","","","","rating_trial","survey-html-form","66","1404349","0.0-3.0-1.31","146","1","2025-04-14 14:14:03","bb671e3ae32f654b8954ea4c4635f915","","Mozilla/5.0 (Windows NT 10.0; Win64; x64) AppleWebKit/537.36 (KHTML, like Gecko) Chrome/133.0.0.0 Safari/537.36","WebKit","Chrome","133.0.0.0","Windows","10.0","https://hz8g1ckzuq.cognition.run/","en-US,en;q=0.9","6y7qygcmhuxw9sv","59","[""White""]","No","Female","2749949.5","14181","","","{""price_1"":""90"",""price_2"":""87"",""price_3"":""90""}","rating","tdc","attraction_2","1","microwave ovens","null","null","null","null","null","null","1","60","50","60","50","60","40","Warranty","Cooking power","",""
"","","","","","rating_trial_setup","html-keyboard-response","67","1404655","0.0-3.0-0.32","146","1","2025-04-14 14:14:03","bb671e3ae32f654b8954ea4c4635f915","","Mozilla/5.0 (Windows NT 10.0; Win64; x64) AppleWebKit/537.36 (KHTML, like Gecko) Chrome/133.0.0.0 Safari/537.36","WebKit","Chrome","133.0.0.0","Windows","10.0","https://hz8g1ckzuq.cognition.run/","en-US,en;q=0.9","6y7qygcmhuxw9sv","59","[""White""]","No","Female","2749949.5","null","","<p></p>","null","rating","ctd","repulsion_1","2","laptops","null","null","null","null","null","null","1","","","","","","","","","",""
"","","","","","rating_trial","survey-html-form","68","1432277","0.0-3.0-1.32","146","1","2025-04-14 14:14:03","bb671e3ae32f654b8954ea4c4635f915","","Mozilla/5.0 (Windows NT 10.0; Win64; x64) AppleWebKit/537.36 (KHTML, like Gecko) Chrome/133.0.0.0 Safari/537.36","WebKit","Chrome","133.0.0.0","Windows","10.0","https://hz8g1ckzuq.cognition.run/","en-US,en;q=0.9","6y7qygcmhuxw9sv","59","[""White""]","No","Female","2749949.5","27613","","","{""price_1"":""180"",""price_2"":""185"",""price_3"":""190""}","rating","ctd","repulsion_1","2","laptops","null","null","null","null","null","null","1","30","40","25","100","90","100","Processing speed","Memory (RAM)","",""
"","","","","","rating_trial_setup","html-keyboard-response","69","1432582","0.0-3.0-0.33","146","1","2025-04-14 14:14:03","bb671e3ae32f654b8954ea4c4635f915","","Mozilla/5.0 (Windows NT 10.0; Win64; x64) AppleWebKit/537.36 (KHTML, like Gecko) Chrome/133.0.0.0 Safari/537.36","WebKit","Chrome","133.0.0.0","Windows","10.0","https://hz8g1ckzuq.cognition.run/","en-US,en;q=0.9","6y7qygcmhuxw9sv","59","[""White""]","No","Female","2749949.5","null","","<p></p>","null","rating","wwb","catch","null","microwave ovens","55","65","40","40","35","45","2","","","","","","","","","",""
"","","","","","rating_trial","survey-html-form","70","1508549","0.0-3.0-1.33","146","1","2025-04-14 14:14:03","bb671e3ae32f654b8954ea4c4635f915","","Mozilla/5.0 (Windows NT 10.0; Win64; x64) AppleWebKit/537.36 (KHTML, like Gecko) Chrome/133.0.0.0 Safari/537.36","WebKit","Chrome","133.0.0.0","Windows","10.0","https://hz8g1ckzuq.cognition.run/","en-US,en;q=0.9","6y7qygcmhuxw9sv","59","[""White""]","No","Female","2749949.5","75958","","","{""price_1"":""90"",""price_2"":""85"",""price_3"":""95""}","rating","wwb","catch","null","microwave ovens","55","65","40","40","35","45","2","null","null","null","null","null","null","Warranty","Cooking power","",""
"","","","","","rating_trial_setup","html-keyboard-response","71","1508855","0.0-3.0-0.34","146","1","2025-04-14 14:14:03","bb671e3ae32f654b8954ea4c4635f915","","Mozilla/5.0 (Windows NT 10.0; Win64; x64) AppleWebKit/537.36 (KHTML, like Gecko) Chrome/133.0.0.0 Safari/537.36","WebKit","Chrome","133.0.0.0","Windows","10.0","https://hz8g1ckzuq.cognition.run/","en-US,en;q=0.9","6y7qygcmhuxw9sv","59","[""White""]","No","Female","2749949.5","null","","<p></p>","null","rating","tdc","repulsion_2","2","microwave ovens","null","null","null","null","null","null","2","","","","","","","","","",""
"","","","","","rating_trial","survey-html-form","72","1607133","0.0-3.0-1.34","146","1","2025-04-14 14:14:03","bb671e3ae32f654b8954ea4c4635f915","","Mozilla/5.0 (Windows NT 10.0; Win64; x64) AppleWebKit/537.36 (KHTML, like Gecko) Chrome/133.0.0.0 Safari/537.36","WebKit","Chrome","133.0.0.0","Windows","10.0","https://hz8g1ckzuq.cognition.run/","en-US,en;q=0.9","6y7qygcmhuxw9sv","59","[""White""]","No","Female","2749949.5","98269","","","{""price_1"":""90"",""price_2"":""85"",""price_3"":""90""}","rating","tdc","repulsion_2","2","microwave ovens","null","null","null","null","null","null","2","30","40","20","100","90","100","Warranty","Cooking power","",""
"","","","","","rating_trial_setup","html-keyboard-response","73","1607438","0.0-3.0-0.35","146","1","2025-04-14 14:14:03","bb671e3ae32f654b8954ea4c4635f915","","Mozilla/5.0 (Windows NT 10.0; Win64; x64) AppleWebKit/537.36 (KHTML, like Gecko) Chrome/133.0.0.0 Safari/537.36","WebKit","Chrome","133.0.0.0","Windows","10.0","https://hz8g1ckzuq.cognition.run/","en-US,en;q=0.9","6y7qygcmhuxw9sv","59","[""White""]","No","Female","2749949.5","null","","<p></p>","null","rating","dtc","attraction_1","2","televisions","null","null","null","null","null","null","1","","","","","","","","","",""
"","","","","","rating_trial","survey-html-form","74","1642077","0.0-3.0-1.35","146","1","2025-04-14 14:14:03","bb671e3ae32f654b8954ea4c4635f915","","Mozilla/5.0 (Windows NT 10.0; Win64; x64) AppleWebKit/537.36 (KHTML, like Gecko) Chrome/133.0.0.0 Safari/537.36","WebKit","Chrome","133.0.0.0","Windows","10.0","https://hz8g1ckzuq.cognition.run/","en-US,en;q=0.9","6y7qygcmhuxw9sv","59","[""White""]","No","Female","2749949.5","34630","","","{""price_1"":""160"",""price_2"":""170"",""price_3"":""178""}","rating","dtc","attraction_1","2","televisions","null","null","null","null","null","null","1","50","60","45","60","50","60","Screen size","Average lifespan","",""
"","","","","","rating_trial_setup","html-keyboard-response","75","1642383","0.0-3.0-0.36","146","1","2025-04-14 14:14:03","bb671e3ae32f654b8954ea4c4635f915","","Mozilla/5.0 (Windows NT 10.0; Win64; x64) AppleWebKit/537.36 (KHTML, like Gecko) Chrome/133.0.0.0 Safari/537.36","WebKit","Chrome","133.0.0.0","Windows","10.0","https://hz8g1ckzuq.cognition.run/","en-US,en;q=0.9","6y7qygcmhuxw9sv","59","[""White""]","No","Female","2749949.5","null","","<p></p>","null","rating","dct","repulsion_1","2","microwave ovens","null","null","null","null","null","null","2","","","","","","","","","",""
"","","","","","rating_trial","survey-html-form","76","1669109","0.0-3.0-1.36","146","1","2025-04-14 14:14:03","bb671e3ae32f654b8954ea4c4635f915","","Mozilla/5.0 (Windows NT 10.0; Win64; x64) AppleWebKit/537.36 (KHTML, like Gecko) Chrome/133.0.0.0 Safari/537.36","WebKit","Chrome","133.0.0.0","Windows","10.0","https://hz8g1ckzuq.cognition.run/","en-US,en;q=0.9","6y7qygcmhuxw9sv","59","[""White""]","No","Female","2749949.5","26717","","","{""price_1"":""90"",""price_2"":""85"",""price_3"":""90""}","rating","dct","repulsion_1","2","microwave ovens","null","null","null","null","null","null","2","30","40","25","100","90","100","Warranty","Cooking power","",""
"","","","","","rating_trial_setup","html-keyboard-response","77","1669414","0.0-3.0-0.37","146","1","2025-04-14 14:14:03","bb671e3ae32f654b8954ea4c4635f915","","Mozilla/5.0 (Windows NT 10.0; Win64; x64) AppleWebKit/537.36 (KHTML, like Gecko) Chrome/133.0.0.0 Safari/537.36","WebKit","Chrome","133.0.0.0","Windows","10.0","https://hz8g1ckzuq.cognition.run/","en-US,en;q=0.9","6y7qygcmhuxw9sv","59","[""White""]","No","Female","2749949.5","null","","<p></p>","null","rating","cdt","repulsion_2","1","washing machines","null","null","null","null","null","null","2","","","","","","","","","",""
"","","","","","rating_trial","survey-html-form","78","1693453","0.0-3.0-1.37","146","1","2025-04-14 14:14:03","bb671e3ae32f654b8954ea4c4635f915","","Mozilla/5.0 (Windows NT 10.0; Win64; x64) AppleWebKit/537.36 (KHTML, like Gecko) Chrome/133.0.0.0 Safari/537.36","WebKit","Chrome","133.0.0.0","Windows","10.0","https://hz8g1ckzuq.cognition.run/","en-US,en;q=0.9","6y7qygcmhuxw9sv","59","[""White""]","No","Female","2749949.5","24031","","","{""price_1"":""300"",""price_2"":""295"",""price_3"":""310""}","rating","cdt","repulsion_2","1","washing machines","null","null","null","null","null","null","2","100","90","100","30","40","20","Average lifespan","Energy savings","",""
"","","","","","rating_trial_setup","html-keyboard-response","79","1693759","0.0-3.0-0.38","146","1","2025-04-14 14:14:03","bb671e3ae32f654b8954ea4c4635f915","","Mozilla/5.0 (Windows NT 10.0; Win64; x64) AppleWebKit/537.36 (KHTML, like Gecko) Chrome/133.0.0.0 Safari/537.36","WebKit","Chrome","133.0.0.0","Windows","10.0","https://hz8g1ckzuq.cognition.run/","en-US,en;q=0.9","6y7qygcmhuxw9sv","59","[""White""]","No","Female","2749949.5","null","","<p></p>","null","rating","tdc","repulsion_1","1","laptops","null","null","null","null","null","null","1","","","","","","","","","",""
"","","","","","rating_trial","survey-html-form","80","1714725","0.0-3.0-1.38","146","1","2025-04-14 14:14:03","bb671e3ae32f654b8954ea4c4635f915","","Mozilla/5.0 (Windows NT 10.0; Win64; x64) AppleWebKit/537.36 (KHTML, like Gecko) Chrome/133.0.0.0 Safari/537.36","WebKit","Chrome","133.0.0.0","Windows","10.0","https://hz8g1ckzuq.cognition.run/","en-US,en;q=0.9","6y7qygcmhuxw9sv","59","[""White""]","No","Female","2749949.5","20961","","","{""price_1"":""180"",""price_2"":""175"",""price_3"":""178""}","rating","tdc","repulsion_1","1","laptops","null","null","null","null","null","null","1","100","90","100","30","40","25","Processing speed","Memory (RAM)","",""
"","","","","","rating_trial_setup","html-keyboard-response","81","1715031","0.0-3.0-0.39","146","1","2025-04-14 14:14:03","bb671e3ae32f654b8954ea4c4635f915","","Mozilla/5.0 (Windows NT 10.0; Win64; x64) AppleWebKit/537.36 (KHTML, like Gecko) Chrome/133.0.0.0 Safari/537.36","WebKit","Chrome","133.0.0.0","Windows","10.0","https://hz8g1ckzuq.cognition.run/","en-US,en;q=0.9","6y7qygcmhuxw9sv","59","[""White""]","No","Female","2749949.5","null","","<p></p>","null","rating","tcd","attraction_1","1","laptops","null","null","null","null","null","null","2","","","","","","","","","",""
"","","","","","rating_trial","survey-html-form","82","1765221","0.0-3.0-1.39","146","1","2025-04-14 14:14:03","bb671e3ae32f654b8954ea4c4635f915","","Mozilla/5.0 (Windows NT 10.0; Win64; x64) AppleWebKit/537.36 (KHTML, like Gecko) Chrome/133.0.0.0 Safari/537.36","WebKit","Chrome","133.0.0.0","Windows","10.0","https://hz8g1ckzuq.cognition.run/","en-US,en;q=0.9","6y7qygcmhuxw9sv","59","[""White""]","No","Female","2749949.5","50180","","","{""price_1"":""170"",""price_2"":""160"",""price_3"":""165""}","rating","tcd","attraction_1","1","laptops","null","null","null","null","null","null","2","60","50","60","50","60","45","Processing speed","Memory (RAM)","",""
"","","","","","","instructions","83","1903452","0.0-4.0","146","1","2025-04-14 14:14:03","bb671e3ae32f654b8954ea4c4635f915","","Mozilla/5.0 (Windows NT 10.0; Win64; x64) AppleWebKit/537.36 (KHTML, like Gecko) Chrome/133.0.0.0 Safari/537.36","WebKit","Chrome","133.0.0.0","Windows","10.0","https://hz8g1ckzuq.cognition.run/","en-US,en;q=0.9","6y7qygcmhuxw9sv","59","[""White""]","No","Female","2749949.5","138227","[{""page_index"":0,""viewing_time"":3354},{""page_index"":1,""viewing_time"":4136},{""page_index"":2,""viewing_time"":68840},{""page_index"":3,""viewing_time"":10752},{""page_index"":4,""viewing_time"":10127},{""page_index"":5,""viewing_time"":7625},{""page_index"":6,""viewing_time"":26216},{""page_index"":7,""viewing_time"":7176}]","","","","","","","","","","","","","","","","","","","","","","","",""
"","","","","","choice_trial_setup","html-keyboard-response","84","1903759","0.0-5.0-0.0","146","1","2025-04-14 14:14:03","bb671e3ae32f654b8954ea4c4635f915","","Mozilla/5.0 (Windows NT 10.0; Win64; x64) AppleWebKit/537.36 (KHTML, like Gecko) Chrome/133.0.0.0 Safari/537.36","WebKit","Chrome","133.0.0.0","Windows","10.0","https://hz8g1ckzuq.cognition.run/","en-US,en;q=0.9","6y7qygcmhuxw9sv","59","[""White""]","No","Female","2749949.5","null","","<p></p>","null","choice","tdc","repulsion_1","1","laptops","null","null","null","null","null","null","2","","","","","","","","","",""
"","","","","","choice_trial","survey-html-form","85","1913917","0.0-5.0-1.0","146","1","2025-04-14 14:14:03","bb671e3ae32f654b8954ea4c4635f915","","Mozilla/5.0 (Windows NT 10.0; Win64; x64) AppleWebKit/537.36 (KHTML, like Gecko) Chrome/133.0.0.0 Safari/537.36","WebKit","Chrome","133.0.0.0","Windows","10.0","https://hz8g1ckzuq.cognition.run/","en-US,en;q=0.9","6y7qygcmhuxw9sv","59","[""White""]","No","Female","2749949.5","10145","","","{""product_choice"":""C""}","choice","tdc","repulsion_1","1","laptops","null","null","null","null","null","null","2","100","90","100","30","40","25","Processing speed","Memory (RAM)","",""
"","","","","","choice_trial_setup","html-keyboard-response","86","1914223","0.0-5.0-0.1","146","1","2025-04-14 14:14:03","bb671e3ae32f654b8954ea4c4635f915","","Mozilla/5.0 (Windows NT 10.0; Win64; x64) AppleWebKit/537.36 (KHTML, like Gecko) Chrome/133.0.0.0 Safari/537.36","WebKit","Chrome","133.0.0.0","Windows","10.0","https://hz8g1ckzuq.cognition.run/","en-US,en;q=0.9","6y7qygcmhuxw9sv","59","[""White""]","No","Female","2749949.5","null","","<p></p>","null","choice","dct","repulsion_1","2","televisions","null","null","null","null","null","null","2","","","","","","","","","",""
"","","","","","choice_trial","survey-html-form","87","1922116","0.0-5.0-1.1","146","1","2025-04-14 14:14:03","bb671e3ae32f654b8954ea4c4635f915","","Mozilla/5.0 (Windows NT 10.0; Win64; x64) AppleWebKit/537.36 (KHTML, like Gecko) Chrome/133.0.0.0 Safari/537.36","WebKit","Chrome","133.0.0.0","Windows","10.0","https://hz8g1ckzuq.cognition.run/","en-US,en;q=0.9","6y7qygcmhuxw9sv","59","[""White""]","No","Female","2749949.5","7887","","","{""product_choice"":""B""}","choice","dct","repulsion_1","2","televisions","null","null","null","null","null","null","2","30","40","25","100","90","100","Screen size","Average lifespan","",""
"","","","","","choice_trial_setup","html-keyboard-response","88","1922422","0.0-5.0-0.2","146","1","2025-04-14 14:14:03","bb671e3ae32f654b8954ea4c4635f915","","Mozilla/5.0 (Windows NT 10.0; Win64; x64) AppleWebKit/537.36 (KHTML, like Gecko) Chrome/133.0.0.0 Safari/537.36","WebKit","Chrome","133.0.0.0","Windows","10.0","https://hz8g1ckzuq.cognition.run/","en-US,en;q=0.9","6y7qygcmhuxw9sv","59","[""White""]","No","Female","2749949.5","null","","<p></p>","null","choice","tdc","repulsion_1","1","televisions","null","null","null","null","null","null","1","","","","","","","","","",""
"","","","","","choice_trial","survey-html-form","89","1932740","0.0-5.0-1.2","146","1","2025-04-14 14:14:03","bb671e3ae32f654b8954ea4c4635f915","","Mozilla/5.0 (Windows NT 10.0; Win64; x64) AppleWebKit/537.36 (KHTML, like Gecko) Chrome/133.0.0.0 Safari/537.36","WebKit","Chrome","133.0.0.0","Windows","10.0","https://hz8g1ckzuq.cognition.run/","en-US,en;q=0.9","6y7qygcmhuxw9sv","59","[""White""]","No","Female","2749949.5","10307","","","{""product_choice"":""C""}","choice","tdc","repulsion_1","1","televisions","null","null","null","null","null","null","1","100","90","100","30","40","25","Screen size","Average lifespan","",""
"","","","","","choice_trial_setup","html-keyboard-response","90","1933045","0.0-5.0-0.3","146","1","2025-04-14 14:14:03","bb671e3ae32f654b8954ea4c4635f915","","Mozilla/5.0 (Windows NT 10.0; Win64; x64) AppleWebKit/537.36 (KHTML, like Gecko) Chrome/133.0.0.0 Safari/537.36","WebKit","Chrome","133.0.0.0","Windows","10.0","https://hz8g1ckzuq.cognition.run/","en-US,en;q=0.9","6y7qygcmhuxw9sv","59","[""White""]","No","Female","2749949.5","null","","<p></p>","null","choice","tcd","repulsion_2","2","washing machines","null","null","null","null","null","null","2","","","","","","","","","",""
"","","","","","choice_trial","survey-html-form","91","1973100","0.0-5.0-1.3","146","1","2025-04-14 14:14:03","bb671e3ae32f654b8954ea4c4635f915","","Mozilla/5.0 (Windows NT 10.0; Win64; x64) AppleWebKit/537.36 (KHTML, like Gecko) Chrome/133.0.0.0 Safari/537.36","WebKit","Chrome","133.0.0.0","Windows","10.0","https://hz8g1ckzuq.cognition.run/","en-US,en;q=0.9","6y7qygcmhuxw9sv","59","[""White""]","No","Female","2749949.5","40048","","","{""product_choice"":""B""}","choice","tcd","repulsion_2","2","washing machines","null","null","null","null","null","null","2","30","40","20","100","90","100","Average lifespan","Energy savings","",""
"","","","","","choice_trial_setup","html-keyboard-response","92","1973406","0.0-5.0-0.4","146","1","2025-04-14 14:14:03","bb671e3ae32f654b8954ea4c4635f915","","Mozilla/5.0 (Windows NT 10.0; Win64; x64) AppleWebKit/537.36 (KHTML, like Gecko) Chrome/133.0.0.0 Safari/537.36","WebKit","Chrome","133.0.0.0","Windows","10.0","https://hz8g1ckzuq.cognition.run/","en-US,en;q=0.9","6y7qygcmhuxw9sv","59","[""White""]","No","Female","2749949.5","null","","<p></p>","null","choice","ctd","attraction_1","1","laptops","null","null","null","null","null","null","2","","","","","","","","","",""
"","","","","","choice_trial","survey-html-form","93","1979676","0.0-5.0-1.4","146","1","2025-04-14 14:14:03","bb671e3ae32f654b8954ea4c4635f915","","Mozilla/5.0 (Windows NT 10.0; Win64; x64) AppleWebKit/537.36 (KHTML, like Gecko) Chrome/133.0.0.0 Safari/537.36","WebKit","Chrome","133.0.0.0","Windows","10.0","https://hz8g1ckzuq.cognition.run/","en-US,en;q=0.9","6y7qygcmhuxw9sv","59","[""White""]","No","Female","2749949.5","6262","","","{""product_choice"":""A""}","choice","ctd","attraction_1","1","laptops","null","null","null","null","null","null","2","60","50","60","50","60","45","Processing speed","Memory (RAM)","",""
"","","","","","choice_trial_setup","html-keyboard-response","94","1979983","0.0-5.0-0.5","146","1","2025-04-14 14:14:03","bb671e3ae32f654b8954ea4c4635f915","","Mozilla/5.0 (Windows NT 10.0; Win64; x64) AppleWebKit/537.36 (KHTML, like Gecko) Chrome/133.0.0.0 Safari/537.36","WebKit","Chrome","133.0.0.0","Windows","10.0","https://hz8g1ckzuq.cognition.run/","en-US,en;q=0.9","6y7qygcmhuxw9sv","59","[""White""]","No","Female","2749949.5","null","","<p></p>","null","choice","dct","repulsion_1","2","laptops","null","null","null","null","null","null","1","","","","","","","","","",""
"","","","","","choice_trial","survey-html-form","95","2012876","0.0-5.0-1.5","146","1","2025-04-14 14:14:03","bb671e3ae32f654b8954ea4c4635f915","","Mozilla/5.0 (Windows NT 10.0; Win64; x64) AppleWebKit/537.36 (KHTML, like Gecko) Chrome/133.0.0.0 Safari/537.36","WebKit","Chrome","133.0.0.0","Windows","10.0","https://hz8g1ckzuq.cognition.run/","en-US,en;q=0.9","6y7qygcmhuxw9sv","59","[""White""]","No","Female","2749949.5","32883","","","{""product_choice"":""C""}","choice","dct","repulsion_1","2","laptops","null","null","null","null","null","null","1","30","40","25","100","90","100","Processing speed","Memory (RAM)","",""
"","","","","","choice_trial_setup","html-keyboard-response","96","2013181","0.0-5.0-0.6","146","1","2025-04-14 14:14:03","bb671e3ae32f654b8954ea4c4635f915","","Mozilla/5.0 (Windows NT 10.0; Win64; x64) AppleWebKit/537.36 (KHTML, like Gecko) Chrome/133.0.0.0 Safari/537.36","WebKit","Chrome","133.0.0.0","Windows","10.0","https://hz8g1ckzuq.cognition.run/","en-US,en;q=0.9","6y7qygcmhuxw9sv","59","[""White""]","No","Female","2749949.5","null","","<p></p>","null","choice","cdt","repulsion_2","2","televisions","null","null","null","null","null","null","1","","","","","","","","","",""
"","","","","","choice_trial","survey-html-form","97","2019324","0.0-5.0-1.6","146","1","2025-04-14 14:14:03","bb671e3ae32f654b8954ea4c4635f915","","Mozilla/5.0 (Windows NT 10.0; Win64; x64) AppleWebKit/537.36 (KHTML, like Gecko) Chrome/133.0.0.0 Safari/537.36","WebKit","Chrome","133.0.0.0","Windows","10.0","https://hz8g1ckzuq.cognition.run/","en-US,en;q=0.9","6y7qygcmhuxw9sv","59","[""White""]","No","Female","2749949.5","6132","","","{""product_choice"":""A""}","choice","cdt","repulsion_2","2","televisions","null","null","null","null","null","null","1","30","40","20","100","90","100","Screen size","Average lifespan","",""
"","","","","","choice_trial_setup","html-keyboard-response","98","2019631","0.0-5.0-0.7","146","1","2025-04-14 14:14:03","bb671e3ae32f654b8954ea4c4635f915","","Mozilla/5.0 (Windows NT 10.0; Win64; x64) AppleWebKit/537.36 (KHTML, like Gecko) Chrome/133.0.0.0 Safari/537.36","WebKit","Chrome","133.0.0.0","Windows","10.0","https://hz8g1ckzuq.cognition.run/","en-US,en;q=0.9","6y7qygcmhuxw9sv","59","[""White""]","No","Female","2749949.5","null","","<p></p>","null","choice","dtc","repulsion_2","2","microwave ovens","null","null","null","null","null","null","2","","","","","","","","","",""
"","","","","","choice_trial","survey-html-form","99","2030188","0.0-5.0-1.7","146","1","2025-04-14 14:14:03","bb671e3ae32f654b8954ea4c4635f915","","Mozilla/5.0 (Windows NT 10.0; Win64; x64) AppleWebKit/537.36 (KHTML, like Gecko) Chrome/133.0.0.0 Safari/537.36","WebKit","Chrome","133.0.0.0","Windows","10.0","https://hz8g1ckzuq.cognition.run/","en-US,en;q=0.9","6y7qygcmhuxw9sv","59","[""White""]","No","Female","2749949.5","10549","","","{""product_choice"":""C""}","choice","dtc","repulsion_2","2","microwave ovens","null","null","null","null","null","null","2","30","40","20","100","90","100","Warranty","Cooking power","",""
"","","","","","choice_trial_setup","html-keyboard-response","100","2030494","0.0-5.0-0.8","146","1","2025-04-14 14:14:03","bb671e3ae32f654b8954ea4c4635f915","","Mozilla/5.0 (Windows NT 10.0; Win64; x64) AppleWebKit/537.36 (KHTML, like Gecko) Chrome/133.0.0.0 Safari/537.36","WebKit","Chrome","133.0.0.0","Windows","10.0","https://hz8g1ckzuq.cognition.run/","en-US,en;q=0.9","6y7qygcmhuxw9sv","59","[""White""]","No","Female","2749949.5","null","","<p></p>","null","choice","wbw","catch","null","laptops","95","75","45","20","40","20","1","","","","","","","","","",""
"","","","","","choice_trial","survey-html-form","101","2038964","0.0-5.0-1.8","146","1","2025-04-14 14:14:03","bb671e3ae32f654b8954ea4c4635f915","","Mozilla/5.0 (Windows NT 10.0; Win64; x64) AppleWebKit/537.36 (KHTML, like Gecko) Chrome/133.0.0.0 Safari/537.36","WebKit","Chrome","133.0.0.0","Windows","10.0","https://hz8g1ckzuq.cognition.run/","en-US,en;q=0.9","6y7qygcmhuxw9sv","59","[""White""]","No","Female","2749949.5","8455","","","{""product_choice"":""B""}","choice","wbw","catch","null","laptops","95","75","45","20","40","20","1","null","null","null","null","null","null","Processing speed","Memory (RAM)","",""
"","","","","","choice_trial_setup","html-keyboard-response","102","2039267","0.0-5.0-0.9","146","1","2025-04-14 14:14:03","bb671e3ae32f654b8954ea4c4635f915","","Mozilla/5.0 (Windows NT 10.0; Win64; x64) AppleWebKit/537.36 (KHTML, like Gecko) Chrome/133.0.0.0 Safari/537.36","WebKit","Chrome","133.0.0.0","Windows","10.0","https://hz8g1ckzuq.cognition.run/","en-US,en;q=0.9","6y7qygcmhuxw9sv","59","[""White""]","No","Female","2749949.5","null","","<p></p>","null","choice","cdt","attraction_1","1","washing machines","null","null","null","null","null","null","1","","","","","","","","","",""
"","","","","","choice_trial","survey-html-form","103","2104252","0.0-5.0-1.9","146","1","2025-04-14 14:14:03","bb671e3ae32f654b8954ea4c4635f915","","Mozilla/5.0 (Windows NT 10.0; Win64; x64) AppleWebKit/537.36 (KHTML, like Gecko) Chrome/133.0.0.0 Safari/537.36","WebKit","Chrome","133.0.0.0","Windows","10.0","https://hz8g1ckzuq.cognition.run/","en-US,en;q=0.9","6y7qygcmhuxw9sv","59","[""White""]","No","Female","2749949.5","64974","","","{""product_choice"":""C""}","choice","cdt","attraction_1","1","washing machines","null","null","null","null","null","null","1","60","50","60","50","60","45","Average lifespan","Energy savings","",""
"","","","","","choice_trial_setup","html-keyboard-response","104","2104558","0.0-5.0-0.10","146","1","2025-04-14 14:14:03","bb671e3ae32f654b8954ea4c4635f915","","Mozilla/5.0 (Windows NT 10.0; Win64; x64) AppleWebKit/537.36 (KHTML, like Gecko) Chrome/133.0.0.0 Safari/537.36","WebKit","Chrome","133.0.0.0","Windows","10.0","https://hz8g1ckzuq.cognition.run/","en-US,en;q=0.9","6y7qygcmhuxw9sv","59","[""White""]","No","Female","2749949.5","null","","<p></p>","null","choice","dct","repulsion_2","2","laptops","null","null","null","null","null","null","1","","","","","","","","","",""
"","","","","","choice_trial","survey-html-form","105","2113268","0.0-5.0-1.10","146","1","2025-04-14 14:14:03","bb671e3ae32f654b8954ea4c4635f915","","Mozilla/5.0 (Windows NT 10.0; Win64; x64) AppleWebKit/537.36 (KHTML, like Gecko) Chrome/133.0.0.0 Safari/537.36","WebKit","Chrome","133.0.0.0","Windows","10.0","https://hz8g1ckzuq.cognition.run/","en-US,en;q=0.9","6y7qygcmhuxw9sv","59","[""White""]","No","Female","2749949.5","8699","","","{""product_choice"":""C""}","choice","dct","repulsion_2","2","laptops","null","null","null","null","null","null","1","30","40","20","100","90","100","Processing speed","Memory (RAM)","",""
"","","","","","choice_trial_setup","html-keyboard-response","106","2113574","0.0-5.0-0.11","146","1","2025-04-14 14:14:03","bb671e3ae32f654b8954ea4c4635f915","","Mozilla/5.0 (Windows NT 10.0; Win64; x64) AppleWebKit/537.36 (KHTML, like Gecko) Chrome/133.0.0.0 Safari/537.36","WebKit","Chrome","133.0.0.0","Windows","10.0","https://hz8g1ckzuq.cognition.run/","en-US,en;q=0.9","6y7qygcmhuxw9sv","59","[""White""]","No","Female","2749949.5","null","","<p></p>","null","choice","tdc","repulsion_1","2","microwave ovens","null","null","null","null","null","null","2","","","","","","","","","",""
"","","","","","choice_trial","survey-html-form","107","2122532","0.0-5.0-1.11","146","1","2025-04-14 14:14:03","bb671e3ae32f654b8954ea4c4635f915","","Mozilla/5.0 (Windows NT 10.0; Win64; x64) AppleWebKit/537.36 (KHTML, like Gecko) Chrome/133.0.0.0 Safari/537.36","WebKit","Chrome","133.0.0.0","Windows","10.0","https://hz8g1ckzuq.cognition.run/","en-US,en;q=0.9","6y7qygcmhuxw9sv","59","[""White""]","No","Female","2749949.5","8947","","","{""product_choice"":""C""}","choice","tdc","repulsion_1","2","microwave ovens","null","null","null","null","null","null","2","30","40","25","100","90","100","Warranty","Cooking power","",""
"","","","","","choice_trial_setup","html-keyboard-response","108","2122838","0.0-5.0-0.12","146","1","2025-04-14 14:14:03","bb671e3ae32f654b8954ea4c4635f915","","Mozilla/5.0 (Windows NT 10.0; Win64; x64) AppleWebKit/537.36 (KHTML, like Gecko) Chrome/133.0.0.0 Safari/537.36","WebKit","Chrome","133.0.0.0","Windows","10.0","https://hz8g1ckzuq.cognition.run/","en-US,en;q=0.9","6y7qygcmhuxw9sv","59","[""White""]","No","Female","2749949.5","null","","<p></p>","null","choice","wbw","catch","null","televisions","70","60","30","15","35","10","1","","","","","","","","","",""
"","","","","","choice_trial","survey-html-form","109","2139020","0.0-5.0-1.12","146","1","2025-04-14 14:14:03","bb671e3ae32f654b8954ea4c4635f915","","Mozilla/5.0 (Windows NT 10.0; Win64; x64) AppleWebKit/537.36 (KHTML, like Gecko) Chrome/133.0.0.0 Safari/537.36","WebKit","Chrome","133.0.0.0","Windows","10.0","https://hz8g1ckzuq.cognition.run/","en-US,en;q=0.9","6y7qygcmhuxw9sv","59","[""White""]","No","Female","2749949.5","16175","","","{""product_choice"":""B""}","choice","wbw","catch","null","televisions","70","60","30","15","35","10","1","null","null","null","null","null","null","Screen size","Average lifespan","",""
"","","","","","choice_trial_setup","html-keyboard-response","110","2139327","0.0-5.0-0.13","146","1","2025-04-14 14:14:03","bb671e3ae32f654b8954ea4c4635f915","","Mozilla/5.0 (Windows NT 10.0; Win64; x64) AppleWebKit/537.36 (KHTML, like Gecko) Chrome/133.0.0.0 Safari/537.36","WebKit","Chrome","133.0.0.0","Windows","10.0","https://hz8g1ckzuq.cognition.run/","en-US,en;q=0.9","6y7qygcmhuxw9sv","59","[""White""]","No","Female","2749949.5","null","","<p></p>","null","choice","cdt","attraction_2","2","washing machines","null","null","null","null","null","null","2","","","","","","","","","",""
"","","","","","choice_trial","survey-html-form","111","2149492","0.0-5.0-1.13","146","1","2025-04-14 14:14:03","bb671e3ae32f654b8954ea4c4635f915","","Mozilla/5.0 (Windows NT 10.0; Win64; x64) AppleWebKit/537.36 (KHTML, like Gecko) Chrome/133.0.0.0 Safari/537.36","WebKit","Chrome","133.0.0.0","Windows","10.0","https://hz8g1ckzuq.cognition.run/","en-US,en;q=0.9","6y7qygcmhuxw9sv","59","[""White""]","No","Female","2749949.5","10160","","","{""product_choice"":""C""}","choice","cdt","attraction_2","2","washing machines","null","null","null","null","null","null","2","50","60","40","60","50","60","Average lifespan","Energy savings","",""
"","","","","","choice_trial_setup","html-keyboard-response","112","2149798","0.0-5.0-0.14","146","1","2025-04-14 14:14:03","bb671e3ae32f654b8954ea4c4635f915","","Mozilla/5.0 (Windows NT 10.0; Win64; x64) AppleWebKit/537.36 (KHTML, like Gecko) Chrome/133.0.0.0 Safari/537.36","WebKit","Chrome","133.0.0.0","Windows","10.0","https://hz8g1ckzuq.cognition.run/","en-US,en;q=0.9","6y7qygcmhuxw9sv","59","[""White""]","No","Female","2749949.5","null","","<p></p>","null","choice","ctd","attraction_1","1","microwave ovens","null","null","null","null","null","null","1","","","","","","","","","",""
"","","","","","choice_trial","survey-html-form","113","2163157","0.0-5.0-1.14","146","1","2025-04-14 14:14:03","bb671e3ae32f654b8954ea4c4635f915","","Mozilla/5.0 (Windows NT 10.0; Win64; x64) AppleWebKit/537.36 (KHTML, like Gecko) Chrome/133.0.0.0 Safari/537.36","WebKit","Chrome","133.0.0.0","Windows","10.0","https://hz8g1ckzuq.cognition.run/","en-US,en;q=0.9","6y7qygcmhuxw9sv","59","[""White""]","No","Female","2749949.5","13346","","","{""product_choice"":""B""}","choice","ctd","attraction_1","1","microwave ovens","null","null","null","null","null","null","1","60","50","60","50","60","45","Warranty","Cooking power","",""
"","","","","","choice_trial_setup","html-keyboard-response","114","2163463","0.0-5.0-0.15","146","1","2025-04-14 14:14:03","bb671e3ae32f654b8954ea4c4635f915","","Mozilla/5.0 (Windows NT 10.0; Win64; x64) AppleWebKit/537.36 (KHTML, like Gecko) Chrome/133.0.0.0 Safari/537.36","WebKit","Chrome","133.0.0.0","Windows","10.0","https://hz8g1ckzuq.cognition.run/","en-US,en;q=0.9","6y7qygcmhuxw9sv","59","[""White""]","No","Female","2749949.5","null","","<p></p>","null","choice","dct","attraction_1","2","televisions","null","null","null","null","null","null","2","","","","","","","","","",""
"","","","","","choice_trial","survey-html-form","115","2173572","0.0-5.0-1.15","146","1","2025-04-14 14:14:03","bb671e3ae32f654b8954ea4c4635f915","","Mozilla/5.0 (Windows NT 10.0; Win64; x64) AppleWebKit/537.36 (KHTML, like Gecko) Chrome/133.0.0.0 Safari/537.36","WebKit","Chrome","133.0.0.0","Windows","10.0","https://hz8g1ckzuq.cognition.run/","en-US,en;q=0.9","6y7qygcmhuxw9sv","59","[""White""]","No","Female","2749949.5","10102","","","{""product_choice"":""B""}","choice","dct","attraction_1","2","televisions","null","null","null","null","null","null","2","50","60","45","60","50","60","Screen size","Average lifespan","",""
"","","","","","choice_trial_setup","html-keyboard-response","116","2173879","0.0-5.0-0.16","146","1","2025-04-14 14:14:03","bb671e3ae32f654b8954ea4c4635f915","","Mozilla/5.0 (Windows NT 10.0; Win64; x64) AppleWebKit/537.36 (KHTML, like Gecko) Chrome/133.0.0.0 Safari/537.36","WebKit","Chrome","133.0.0.0","Windows","10.0","https://hz8g1ckzuq.cognition.run/","en-US,en;q=0.9","6y7qygcmhuxw9sv","59","[""White""]","No","Female","2749949.5","null","","<p></p>","null","choice","wbw","catch","null","microwave ovens","50","50","10","40","15","25","2","","","","","","","","","",""
"","","","","","choice_trial","survey-html-form","117","2196693","0.0-5.0-1.16","146","1","2025-04-14 14:14:03","bb671e3ae32f654b8954ea4c4635f915","","Mozilla/5.0 (Windows NT 10.0; Win64; x64) AppleWebKit/537.36 (KHTML, like Gecko) Chrome/133.0.0.0 Safari/537.36","WebKit","Chrome","133.0.0.0","Windows","10.0","https://hz8g1ckzuq.cognition.run/","en-US,en;q=0.9","6y7qygcmhuxw9sv","59","[""White""]","No","Female","2749949.5","22800","","","{""product_choice"":""B""}","choice","wbw","catch","null","microwave ovens","50","50","10","40","15","25","2","null","null","null","null","null","null","Warranty","Cooking power","",""
"","","","","","choice_trial_setup","html-keyboard-response","118","2196997","0.0-5.0-0.17","146","1","2025-04-14 14:14:03","bb671e3ae32f654b8954ea4c4635f915","","Mozilla/5.0 (Windows NT 10.0; Win64; x64) AppleWebKit/537.36 (KHTML, like Gecko) Chrome/133.0.0.0 Safari/537.36","WebKit","Chrome","133.0.0.0","Windows","10.0","https://hz8g1ckzuq.cognition.run/","en-US,en;q=0.9","6y7qygcmhuxw9sv","59","[""White""]","No","Female","2749949.5","null","","<p></p>","null","choice","dct","attraction_2","1","laptops","null","null","null","null","null","null","2","","","","","","","","","",""
"","","","","","choice_trial","survey-html-form","119","2209188","0.0-5.0-1.17","146","1","2025-04-14 14:14:03","bb671e3ae32f654b8954ea4c4635f915","","Mozilla/5.0 (Windows NT 10.0; Win64; x64) AppleWebKit/537.36 (KHTML, like Gecko) Chrome/133.0.0.0 Safari/537.36","WebKit","Chrome","133.0.0.0","Windows","10.0","https://hz8g1ckzuq.cognition.run/","en-US,en;q=0.9","6y7qygcmhuxw9sv","59","[""White""]","No","Female","2749949.5","12177","","","{""product_choice"":""B""}","choice","dct","attraction_2","1","laptops","null","null","null","null","null","null","2","60","50","60","50","60","40","Processing speed","Memory (RAM)","",""
"","","","","","choice_trial_setup","html-keyboard-response","120","2209494","0.0-5.0-0.18","146","1","2025-04-14 14:14:03","bb671e3ae32f654b8954ea4c4635f915","","Mozilla/5.0 (Windows NT 10.0; Win64; x64) AppleWebKit/537.36 (KHTML, like Gecko) Chrome/133.0.0.0 Safari/537.36","WebKit","Chrome","133.0.0.0","Windows","10.0","https://hz8g1ckzuq.cognition.run/","en-US,en;q=0.9","6y7qygcmhuxw9sv","59","[""White""]","No","Female","2749949.5","null","","<p></p>","null","choice","wbw","catch","null","washing machines","55","50","20","45","20","15","1","","","","","","","","","",""
"","","","","","choice_trial","survey-html-form","121","2220076","0.0-5.0-1.18","146","1","2025-04-14 14:14:03","bb671e3ae32f654b8954ea4c4635f915","","Mozilla/5.0 (Windows NT 10.0; Win64; x64) AppleWebKit/537.36 (KHTML, like Gecko) Chrome/133.0.0.0 Safari/537.36","WebKit","Chrome","133.0.0.0","Windows","10.0","https://hz8g1ckzuq.cognition.run/","en-US,en;q=0.9","6y7qygcmhuxw9sv","59","[""White""]","No","Female","2749949.5","10575","","","{""product_choice"":""B""}","choice","wbw","catch","null","washing machines","55","50","20","45","20","15","1","null","null","null","null","null","null","Average lifespan","Energy savings","",""
"","","","","","choice_trial_setup","html-keyboard-response","122","2220382","0.0-5.0-0.19","146","1","2025-04-14 14:14:03","bb671e3ae32f654b8954ea4c4635f915","","Mozilla/5.0 (Windows NT 10.0; Win64; x64) AppleWebKit/537.36 (KHTML, like Gecko) Chrome/133.0.0.0 Safari/537.36","WebKit","Chrome","133.0.0.0","Windows","10.0","https://hz8g1ckzuq.cognition.run/","en-US,en;q=0.9","6y7qygcmhuxw9sv","59","[""White""]","No","Female","2749949.5","null","","<p></p>","null","choice","dct","attraction_2","2","televisions","null","null","null","null","null","null","1","","","","","","","","","",""
"","","","","","choice_trial","survey-html-form","123","2232980","0.0-5.0-1.19","146","1","2025-04-14 14:14:03","bb671e3ae32f654b8954ea4c4635f915","","Mozilla/5.0 (Windows NT 10.0; Win64; x64) AppleWebKit/537.36 (KHTML, like Gecko) Chrome/133.0.0.0 Safari/537.36","WebKit","Chrome","133.0.0.0","Windows","10.0","https://hz8g1ckzuq.cognition.run/","en-US,en;q=0.9","6y7qygcmhuxw9sv","59","[""White""]","No","Female","2749949.5","12586","","","{""product_choice"":""B""}","choice","dct","attraction_2","2","televisions","null","null","null","null","null","null","1","50","60","40","60","50","60","Screen size","Average lifespan","",""
"","","","","","choice_trial_setup","html-keyboard-response","124","2233293","0.0-5.0-0.20","146","1","2025-04-14 14:14:03","bb671e3ae32f654b8954ea4c4635f915","","Mozilla/5.0 (Windows NT 10.0; Win64; x64) AppleWebKit/537.36 (KHTML, like Gecko) Chrome/133.0.0.0 Safari/537.36","WebKit","Chrome","133.0.0.0","Windows","10.0","https://hz8g1ckzuq.cognition.run/","en-US,en;q=0.9","6y7qygcmhuxw9sv","59","[""White""]","No","Female","2749949.5","null","","<p></p>","null","choice","cdt","attraction_2","1","televisions","null","null","null","null","null","null","1","","","","","","","","","",""
"","","","","","choice_trial","survey-html-form","125","2260036","0.0-5.0-1.20","146","1","2025-04-14 14:14:03","bb671e3ae32f654b8954ea4c4635f915","","Mozilla/5.0 (Windows NT 10.0; Win64; x64) AppleWebKit/537.36 (KHTML, like Gecko) Chrome/133.0.0.0 Safari/537.36","WebKit","Chrome","133.0.0.0","Windows","10.0","https://hz8g1ckzuq.cognition.run/","en-US,en;q=0.9","6y7qygcmhuxw9sv","59","[""White""]","No","Female","2749949.5","26729","","","{""product_choice"":""C""}","choice","cdt","attraction_2","1","televisions","null","null","null","null","null","null","1","60","50","60","50","60","40","Screen size","Average lifespan","",""
"","","","","","choice_trial_setup","html-keyboard-response","126","2260343","0.0-5.0-0.21","146","1","2025-04-14 14:14:03","bb671e3ae32f654b8954ea4c4635f915","","Mozilla/5.0 (Windows NT 10.0; Win64; x64) AppleWebKit/537.36 (KHTML, like Gecko) Chrome/133.0.0.0 Safari/537.36","WebKit","Chrome","133.0.0.0","Windows","10.0","https://hz8g1ckzuq.cognition.run/","en-US,en;q=0.9","6y7qygcmhuxw9sv","59","[""White""]","No","Female","2749949.5","null","","<p></p>","null","choice","bww","catch","null","microwave ovens","85","55","40","25","15","10","2","","","","","","","","","",""
"","","","","","choice_trial","survey-html-form","127","2265380","0.0-5.0-1.21","146","1","2025-04-14 14:14:03","bb671e3ae32f654b8954ea4c4635f915","","Mozilla/5.0 (Windows NT 10.0; Win64; x64) AppleWebKit/537.36 (KHTML, like Gecko) Chrome/133.0.0.0 Safari/537.36","WebKit","Chrome","133.0.0.0","Windows","10.0","https://hz8g1ckzuq.cognition.run/","en-US,en;q=0.9","6y7qygcmhuxw9sv","59","[""White""]","No","Female","2749949.5","5029","","","{""product_choice"":""A""}","choice","bww","catch","null","microwave ovens","85","55","40","25","15","10","2","null","null","null","null","null","null","Warranty","Cooking power","",""
"","","","","","choice_trial_setup","html-keyboard-response","128","2265687","0.0-5.0-0.22","146","1","2025-04-14 14:14:03","bb671e3ae32f654b8954ea4c4635f915","","Mozilla/5.0 (Windows NT 10.0; Win64; x64) AppleWebKit/537.36 (KHTML, like Gecko) Chrome/133.0.0.0 Safari/537.36","WebKit","Chrome","133.0.0.0","Windows","10.0","https://hz8g1ckzuq.cognition.run/","en-US,en;q=0.9","6y7qygcmhuxw9sv","59","[""White""]","No","Female","2749949.5","null","","<p></p>","null","choice","tcd","attraction_2","1","washing machines","null","null","null","null","null","null","1","","","","","","","","","",""
"","","","","","choice_trial","survey-html-form","129","2305188","0.0-5.0-1.22","146","1","2025-04-14 14:14:03","bb671e3ae32f654b8954ea4c4635f915","","Mozilla/5.0 (Windows NT 10.0; Win64; x64) AppleWebKit/537.36 (KHTML, like Gecko) Chrome/133.0.0.0 Safari/537.36","WebKit","Chrome","133.0.0.0","Windows","10.0","https://hz8g1ckzuq.cognition.run/","en-US,en;q=0.9","6y7qygcmhuxw9sv","59","[""White""]","No","Female","2749949.5","39497","","","{""product_choice"":""A""}","choice","tcd","attraction_2","1","washing machines","null","null","null","null","null","null","1","60","50","60","50","60","40","Average lifespan","Energy savings","",""
"","","","","","choice_trial_setup","html-keyboard-response","130","2305496","0.0-5.0-0.23","146","1","2025-04-14 14:14:03","bb671e3ae32f654b8954ea4c4635f915","","Mozilla/5.0 (Windows NT 10.0; Win64; x64) AppleWebKit/537.36 (KHTML, like Gecko) Chrome/133.0.0.0 Safari/537.36","WebKit","Chrome","133.0.0.0","Windows","10.0","https://hz8g1ckzuq.cognition.run/","en-US,en;q=0.9","6y7qygcmhuxw9sv","59","[""White""]","No","Female","2749949.5","null","","<p></p>","null","choice","dct","repulsion_1","1","microwave ovens","null","null","null","null","null","null","1","","","","","","","","","",""
"","","","","","choice_trial","survey-html-form","131","2434508","0.0-5.0-1.23","146","1","2025-04-14 14:14:03","bb671e3ae32f654b8954ea4c4635f915","","Mozilla/5.0 (Windows NT 10.0; Win64; x64) AppleWebKit/537.36 (KHTML, like Gecko) Chrome/133.0.0.0 Safari/537.36","WebKit","Chrome","133.0.0.0","Windows","10.0","https://hz8g1ckzuq.cognition.run/","en-US,en;q=0.9","6y7qygcmhuxw9sv","59","[""White""]","No","Female","2749949.5","128996","","","{""product_choice"":""B""}","choice","dct","repulsion_1","1","microwave ovens","null","null","null","null","null","null","1","100","90","100","30","40","25","Warranty","Cooking power","",""
"","","","","","choice_trial_setup","html-keyboard-response","132","2434815","0.0-5.0-0.24","146","1","2025-04-14 14:14:03","bb671e3ae32f654b8954ea4c4635f915","","Mozilla/5.0 (Windows NT 10.0; Win64; x64) AppleWebKit/537.36 (KHTML, like Gecko) Chrome/133.0.0.0 Safari/537.36","WebKit","Chrome","133.0.0.0","Windows","10.0","https://hz8g1ckzuq.cognition.run/","en-US,en;q=0.9","6y7qygcmhuxw9sv","59","[""White""]","No","Female","2749949.5","null","","<p></p>","null","choice","tdc","attraction_1","2","washing machines","null","null","null","null","null","null","1","","","","","","","","","",""
"","","","","","choice_trial","survey-html-form","133","2461132","0.0-5.0-1.24","146","1","2025-04-14 14:14:03","bb671e3ae32f654b8954ea4c4635f915","","Mozilla/5.0 (Windows NT 10.0; Win64; x64) AppleWebKit/537.36 (KHTML, like Gecko) Chrome/133.0.0.0 Safari/537.36","WebKit","Chrome","133.0.0.0","Windows","10.0","https://hz8g1ckzuq.cognition.run/","en-US,en;q=0.9","6y7qygcmhuxw9sv","59","[""White""]","No","Female","2749949.5","26303","","","{""product_choice"":""A""}","choice","tdc","attraction_1","2","washing machines","null","null","null","null","null","null","1","50","60","45","60","50","60","Average lifespan","Energy savings","",""
"","","","","","choice_trial_setup","html-keyboard-response","134","2461439","0.0-5.0-0.25","146","1","2025-04-14 14:14:03","bb671e3ae32f654b8954ea4c4635f915","","Mozilla/5.0 (Windows NT 10.0; Win64; x64) AppleWebKit/537.36 (KHTML, like Gecko) Chrome/133.0.0.0 Safari/537.36","WebKit","Chrome","133.0.0.0","Windows","10.0","https://hz8g1ckzuq.cognition.run/","en-US,en;q=0.9","6y7qygcmhuxw9sv","59","[""White""]","No","Female","2749949.5","null","","<p></p>","null","choice","tdc","repulsion_1","2","washing machines","null","null","null","null","null","null","1","","","","","","","","","",""
"","","","","","choice_trial","survey-html-form","135","2468692","0.0-5.0-1.25","146","1","2025-04-14 14:14:03","bb671e3ae32f654b8954ea4c4635f915","","Mozilla/5.0 (Windows NT 10.0; Win64; x64) AppleWebKit/537.36 (KHTML, like Gecko) Chrome/133.0.0.0 Safari/537.36","WebKit","Chrome","133.0.0.0","Windows","10.0","https://hz8g1ckzuq.cognition.run/","en-US,en;q=0.9","6y7qygcmhuxw9sv","59","[""White""]","No","Female","2749949.5","7249","","","{""product_choice"":""C""}","choice","tdc","repulsion_1","2","washing machines","null","null","null","null","null","null","1","30","40","25","100","90","100","Average lifespan","Energy savings","",""
"","","","","","choice_trial_setup","html-keyboard-response","136","2469001","0.0-5.0-0.26","146","1","2025-04-14 14:14:03","bb671e3ae32f654b8954ea4c4635f915","","Mozilla/5.0 (Windows NT 10.0; Win64; x64) AppleWebKit/537.36 (KHTML, like Gecko) Chrome/133.0.0.0 Safari/537.36","WebKit","Chrome","133.0.0.0","Windows","10.0","https://hz8g1ckzuq.cognition.run/","en-US,en;q=0.9","6y7qygcmhuxw9sv","59","[""White""]","No","Female","2749949.5","null","","<p></p>","null","choice","cdt","attraction_1","2","laptops","null","null","null","null","null","null","1","","","","","","","","","",""
"","","","","","choice_trial","survey-html-form","137","2487284","0.0-5.0-1.26","146","1","2025-04-14 14:14:03","bb671e3ae32f654b8954ea4c4635f915","","Mozilla/5.0 (Windows NT 10.0; Win64; x64) AppleWebKit/537.36 (KHTML, like Gecko) Chrome/133.0.0.0 Safari/537.36","WebKit","Chrome","133.0.0.0","Windows","10.0","https://hz8g1ckzuq.cognition.run/","en-US,en;q=0.9","6y7qygcmhuxw9sv","59","[""White""]","No","Female","2749949.5","18275","","","{""product_choice"":""C""}","choice","cdt","attraction_1","2","laptops","null","null","null","null","null","null","1","50","60","45","60","50","60","Processing speed","Memory (RAM)","",""
"","","","","","choice_trial_setup","html-keyboard-response","138","2487592","0.0-5.0-0.27","146","1","2025-04-14 14:14:03","bb671e3ae32f654b8954ea4c4635f915","","Mozilla/5.0 (Windows NT 10.0; Win64; x64) AppleWebKit/537.36 (KHTML, like Gecko) Chrome/133.0.0.0 Safari/537.36","WebKit","Chrome","133.0.0.0","Windows","10.0","https://hz8g1ckzuq.cognition.run/","en-US,en;q=0.9","6y7qygcmhuxw9sv","59","[""White""]","No","Female","2749949.5","null","","<p></p>","null","choice","tdc","attraction_1","1","televisions","null","null","null","null","null","null","2","","","","","","","","","",""
"","","","","","choice_trial","survey-html-form","139","2492300","0.0-5.0-1.27","146","1","2025-04-14 14:14:03","bb671e3ae32f654b8954ea4c4635f915","","Mozilla/5.0 (Windows NT 10.0; Win64; x64) AppleWebKit/537.36 (KHTML, like Gecko) Chrome/133.0.0.0 Safari/537.36","WebKit","Chrome","133.0.0.0","Windows","10.0","https://hz8g1ckzuq.cognition.run/","en-US,en;q=0.9","6y7qygcmhuxw9sv","59","[""White""]","No","Female","2749949.5","4692","","","{""product_choice"":""C""}","choice","tdc","attraction_1","1","televisions","null","null","null","null","null","null","2","60","50","60","50","60","45","Screen size","Average lifespan","",""
"","","","","","choice_trial_setup","html-keyboard-response","140","2492608","0.0-5.0-0.28","146","1","2025-04-14 14:14:03","bb671e3ae32f654b8954ea4c4635f915","","Mozilla/5.0 (Windows NT 10.0; Win64; x64) AppleWebKit/537.36 (KHTML, like Gecko) Chrome/133.0.0.0 Safari/537.36","WebKit","Chrome","133.0.0.0","Windows","10.0","https://hz8g1ckzuq.cognition.run/","en-US,en;q=0.9","6y7qygcmhuxw9sv","59","[""White""]","No","Female","2749949.5","null","","<p></p>","null","choice","dtc","repulsion_2","1","washing machines","null","null","null","null","null","null","1","","","","","","","","","",""
"","","","","","choice_trial","survey-html-form","141","2498252","0.0-5.0-1.28","146","1","2025-04-14 14:14:03","bb671e3ae32f654b8954ea4c4635f915","","Mozilla/5.0 (Windows NT 10.0; Win64; x64) AppleWebKit/537.36 (KHTML, like Gecko) Chrome/133.0.0.0 Safari/537.36","WebKit","Chrome","133.0.0.0","Windows","10.0","https://hz8g1ckzuq.cognition.run/","en-US,en;q=0.9","6y7qygcmhuxw9sv","59","[""White""]","No","Female","2749949.5","5633","","","{""product_choice"":""B""}","choice","dtc","repulsion_2","1","washing machines","null","null","null","null","null","null","1","100","90","100","30","40","20","Average lifespan","Energy savings","",""
"","","","","","choice_trial_setup","html-keyboard-response","142","2498557","0.0-5.0-0.29","146","1","2025-04-14 14:14:03","bb671e3ae32f654b8954ea4c4635f915","","Mozilla/5.0 (Windows NT 10.0; Win64; x64) AppleWebKit/537.36 (KHTML, like Gecko) Chrome/133.0.0.0 Safari/537.36","WebKit","Chrome","133.0.0.0","Windows","10.0","https://hz8g1ckzuq.cognition.run/","en-US,en;q=0.9","6y7qygcmhuxw9sv","59","[""White""]","No","Female","2749949.5","null","","<p></p>","null","choice","tdc","attraction_2","1","microwave ovens","null","null","null","null","null","null","1","","","","","","","","","",""
"","","","","","choice_trial","survey-html-form","143","2533019","0.0-5.0-1.29","146","1","2025-04-14 14:14:03","bb671e3ae32f654b8954ea4c4635f915","","Mozilla/5.0 (Windows NT 10.0; Win64; x64) AppleWebKit/537.36 (KHTML, like Gecko) Chrome/133.0.0.0 Safari/537.36","WebKit","Chrome","133.0.0.0","Windows","10.0","https://hz8g1ckzuq.cognition.run/","en-US,en;q=0.9","6y7qygcmhuxw9sv","59","[""White""]","No","Female","2749949.5","34456","","","{""product_choice"":""A""}","choice","tdc","attraction_2","1","microwave ovens","null","null","null","null","null","null","1","60","50","60","50","60","40","Warranty","Cooking power","",""
"","","","","","choice_trial_setup","html-keyboard-response","144","2533328","0.0-5.0-0.30","146","1","2025-04-14 14:14:03","bb671e3ae32f654b8954ea4c4635f915","","Mozilla/5.0 (Windows NT 10.0; Win64; x64) AppleWebKit/537.36 (KHTML, like Gecko) Chrome/133.0.0.0 Safari/537.36","WebKit","Chrome","133.0.0.0","Windows","10.0","https://hz8g1ckzuq.cognition.run/","en-US,en;q=0.9","6y7qygcmhuxw9sv","59","[""White""]","No","Female","2749949.5","null","","<p></p>","null","choice","wwb","catch","null","televisions","50","60","45","30","15","45","1","","","","","","","","","",""
"","","","","","choice_trial","survey-html-form","145","2538772","0.0-5.0-1.30","146","1","2025-04-14 14:14:03","bb671e3ae32f654b8954ea4c4635f915","","Mozilla/5.0 (Windows NT 10.0; Win64; x64) AppleWebKit/537.36 (KHTML, like Gecko) Chrome/133.0.0.0 Safari/537.36","WebKit","Chrome","133.0.0.0","Windows","10.0","https://hz8g1ckzuq.cognition.run/","en-US,en;q=0.9","6y7qygcmhuxw9sv","59","[""White""]","No","Female","2749949.5","5428","","","{""product_choice"":""C""}","choice","wwb","catch","null","televisions","50","60","45","30","15","45","1","null","null","null","null","null","null","Screen size","Average lifespan","",""
"","","","","","choice_trial_setup","html-keyboard-response","146","2539079","0.0-5.0-0.31","146","1","2025-04-14 14:14:03","bb671e3ae32f654b8954ea4c4635f915","","Mozilla/5.0 (Windows NT 10.0; Win64; x64) AppleWebKit/537.36 (KHTML, like Gecko) Chrome/133.0.0.0 Safari/537.36","WebKit","Chrome","133.0.0.0","Windows","10.0","https://hz8g1ckzuq.cognition.run/","en-US,en;q=0.9","6y7qygcmhuxw9sv","59","[""White""]","No","Female","2749949.5","null","","<p></p>","null","choice","bww","catch","null","laptops","70","65","5","30","50","35","1","","","","","","","","","",""
"","","","","","choice_trial","survey-html-form","147","2556139","0.0-5.0-1.31","146","1","2025-04-14 14:14:03","bb671e3ae32f654b8954ea4c4635f915","","Mozilla/5.0 (Windows NT 10.0; Win64; x64) AppleWebKit/537.36 (KHTML, like Gecko) Chrome/133.0.0.0 Safari/537.36","WebKit","Chrome","133.0.0.0","Windows","10.0","https://hz8g1ckzuq.cognition.run/","en-US,en;q=0.9","6y7qygcmhuxw9sv","59","[""White""]","No","Female","2749949.5","17049","","","{""product_choice"":""A""}","choice","bww","catch","null","laptops","70","65","5","30","50","35","1","null","null","null","null","null","null","Processing speed","Memory (RAM)","",""
"","","","","","choice_trial_setup","html-keyboard-response","148","2556447","0.0-5.0-0.32","146","1","2025-04-14 14:14:03","bb671e3ae32f654b8954ea4c4635f915","","Mozilla/5.0 (Windows NT 10.0; Win64; x64) AppleWebKit/537.36 (KHTML, like Gecko) Chrome/133.0.0.0 Safari/537.36","WebKit","Chrome","133.0.0.0","Windows","10.0","https://hz8g1ckzuq.cognition.run/","en-US,en;q=0.9","6y7qygcmhuxw9sv","59","[""White""]","No","Female","2749949.5","null","","<p></p>","null","choice","tcd","repulsion_2","1","laptops","null","null","null","null","null","null","2","","","","","","","","","",""
"","","","","","choice_trial","survey-html-form","149","2568516","0.0-5.0-1.32","146","1","2025-04-14 14:14:03","bb671e3ae32f654b8954ea4c4635f915","","Mozilla/5.0 (Windows NT 10.0; Win64; x64) AppleWebKit/537.36 (KHTML, like Gecko) Chrome/133.0.0.0 Safari/537.36","WebKit","Chrome","133.0.0.0","Windows","10.0","https://hz8g1ckzuq.cognition.run/","en-US,en;q=0.9","6y7qygcmhuxw9sv","59","[""White""]","No","Female","2749949.5","12063","","","{""product_choice"":""B""}","choice","tcd","repulsion_2","1","laptops","null","null","null","null","null","null","2","100","90","100","30","40","20","Processing speed","Memory (RAM)","",""
"","","","","","choice_trial_setup","html-keyboard-response","150","2568823","0.0-5.0-0.33","146","1","2025-04-14 14:14:03","bb671e3ae32f654b8954ea4c4635f915","","Mozilla/5.0 (Windows NT 10.0; Win64; x64) AppleWebKit/537.36 (KHTML, like Gecko) Chrome/133.0.0.0 Safari/537.36","WebKit","Chrome","133.0.0.0","Windows","10.0","https://hz8g1ckzuq.cognition.run/","en-US,en;q=0.9","6y7qygcmhuxw9sv","59","[""White""]","No","Female","2749949.5","null","","<p></p>","null","choice","tcd","repulsion_1","1","washing machines","null","null","null","null","null","null","2","","","","","","","","","",""
"","","","","","choice_trial","survey-html-form","151","2579259","0.0-5.0-1.33","146","1","2025-04-14 14:14:03","bb671e3ae32f654b8954ea4c4635f915","","Mozilla/5.0 (Windows NT 10.0; Win64; x64) AppleWebKit/537.36 (KHTML, like Gecko) Chrome/133.0.0.0 Safari/537.36","WebKit","Chrome","133.0.0.0","Windows","10.0","https://hz8g1ckzuq.cognition.run/","en-US,en;q=0.9","6y7qygcmhuxw9sv","59","[""White""]","No","Female","2749949.5","10427","","","{""product_choice"":""B""}","choice","tcd","repulsion_1","1","washing machines","null","null","null","null","null","null","2","100","90","100","30","40","25","Average lifespan","Energy savings","",""
"","","","","","choice_trial_setup","html-keyboard-response","152","2579567","0.0-5.0-0.34","146","1","2025-04-14 14:14:03","bb671e3ae32f654b8954ea4c4635f915","","Mozilla/5.0 (Windows NT 10.0; Win64; x64) AppleWebKit/537.36 (KHTML, like Gecko) Chrome/133.0.0.0 Safari/537.36","WebKit","Chrome","133.0.0.0","Windows","10.0","https://hz8g1ckzuq.cognition.run/","en-US,en;q=0.9","6y7qygcmhuxw9sv","59","[""White""]","No","Female","2749949.5","null","","<p></p>","null","choice","dct","repulsion_2","1","televisions","null","null","null","null","null","null","2","","","","","","","","","",""
"","","","","","choice_trial","survey-html-form","153","2589979","0.0-5.0-1.34","146","1","2025-04-14 14:14:03","bb671e3ae32f654b8954ea4c4635f915","","Mozilla/5.0 (Windows NT 10.0; Win64; x64) AppleWebKit/537.36 (KHTML, like Gecko) Chrome/133.0.0.0 Safari/537.36","WebKit","Chrome","133.0.0.0","Windows","10.0","https://hz8g1ckzuq.cognition.run/","en-US,en;q=0.9","6y7qygcmhuxw9sv","59","[""White""]","No","Female","2749949.5","10398","","","{""product_choice"":""B""}","choice","dct","repulsion_2","1","televisions","null","null","null","null","null","null","2","100","90","100","30","40","20","Screen size","Average lifespan","",""
"","","","","","choice_trial_setup","html-keyboard-response","154","2590287","0.0-5.0-0.35","146","1","2025-04-14 14:14:03","bb671e3ae32f654b8954ea4c4635f915","","Mozilla/5.0 (Windows NT 10.0; Win64; x64) AppleWebKit/537.36 (KHTML, like Gecko) Chrome/133.0.0.0 Safari/537.36","WebKit","Chrome","133.0.0.0","Windows","10.0","https://hz8g1ckzuq.cognition.run/","en-US,en;q=0.9","6y7qygcmhuxw9sv","59","[""White""]","No","Female","2749949.5","null","","<p></p>","null","choice","tcd","attraction_1","2","microwave ovens","null","null","null","null","null","null","2","","","","","","","","","",""
"","","","","","choice_trial","survey-html-form","155","2598083","0.0-5.0-1.35","146","1","2025-04-14 14:14:03","bb671e3ae32f654b8954ea4c4635f915","","Mozilla/5.0 (Windows NT 10.0; Win64; x64) AppleWebKit/537.36 (KHTML, like Gecko) Chrome/133.0.0.0 Safari/537.36","WebKit","Chrome","133.0.0.0","Windows","10.0","https://hz8g1ckzuq.cognition.run/","en-US,en;q=0.9","6y7qygcmhuxw9sv","59","[""White""]","No","Female","2749949.5","7783","","","{""product_choice"":""A""}","choice","tcd","attraction_1","2","microwave ovens","null","null","null","null","null","null","2","50","60","45","60","50","60","Warranty","Cooking power","",""
"","","","","","choice_trial_setup","html-keyboard-response","156","2598390","0.0-5.0-0.36","146","1","2025-04-14 14:14:03","bb671e3ae32f654b8954ea4c4635f915","","Mozilla/5.0 (Windows NT 10.0; Win64; x64) AppleWebKit/537.36 (KHTML, like Gecko) Chrome/133.0.0.0 Safari/537.36","WebKit","Chrome","133.0.0.0","Windows","10.0","https://hz8g1ckzuq.cognition.run/","en-US,en;q=0.9","6y7qygcmhuxw9sv","59","[""White""]","No","Female","2749949.5","null","","<p></p>","null","choice","tdc","attraction_2","2","microwave ovens","null","null","null","null","null","null","2","","","","","","","","","",""
"","","","","","choice_trial","survey-html-form","157","2603955","0.0-5.0-1.36","146","1","2025-04-14 14:14:03","bb671e3ae32f654b8954ea4c4635f915","","Mozilla/5.0 (Windows NT 10.0; Win64; x64) AppleWebKit/537.36 (KHTML, like Gecko) Chrome/133.0.0.0 Safari/537.36","WebKit","Chrome","133.0.0.0","Windows","10.0","https://hz8g1ckzuq.cognition.run/","en-US,en;q=0.9","6y7qygcmhuxw9sv","59","[""White""]","No","Female","2749949.5","5557","","","{""product_choice"":""A""}","choice","tdc","attraction_2","2","microwave ovens","null","null","null","null","null","null","2","50","60","40","60","50","60","Warranty","Cooking power","",""
"","","","","","choice_trial_setup","html-keyboard-response","158","2604264","0.0-5.0-0.37","146","1","2025-04-14 14:14:03","bb671e3ae32f654b8954ea4c4635f915","","Mozilla/5.0 (Windows NT 10.0; Win64; x64) AppleWebKit/537.36 (KHTML, like Gecko) Chrome/133.0.0.0 Safari/537.36","WebKit","Chrome","133.0.0.0","Windows","10.0","https://hz8g1ckzuq.cognition.run/","en-US,en;q=0.9","6y7qygcmhuxw9sv","59","[""White""]","No","Female","2749949.5","null","","<p></p>","null","choice","wbw","catch","null","washing machines","55","70","5","50","40","45","2","","","","","","","","","",""
"","","","","","choice_trial","survey-html-form","159","2611035","0.0-5.0-1.37","146","1","2025-04-14 14:14:03","bb671e3ae32f654b8954ea4c4635f915","","Mozilla/5.0 (Windows NT 10.0; Win64; x64) AppleWebKit/537.36 (KHTML, like Gecko) Chrome/133.0.0.0 Safari/537.36","WebKit","Chrome","133.0.0.0","Windows","10.0","https://hz8g1ckzuq.cognition.run/","en-US,en;q=0.9","6y7qygcmhuxw9sv","59","[""White""]","No","Female","2749949.5","6763","","","{""product_choice"":""B""}","choice","wbw","catch","null","washing machines","55","70","5","50","40","45","2","null","null","null","null","null","null","Average lifespan","Energy savings","",""
