"success","timeout","failed_images","failed_audio","failed_video","screen_id","trial_type","trial_index","time_elapsed","internal_node_id","run_id","condition","recorded_at","source_code_version","ip","user_agent","device","browser","browser_version","platform","platform_version","referer","accept_language","ppt_id","age","race","ethnicity","gender","exp_duration","rt","view_history","stimulus","response","phase","order","effect","t_high","category","d1_best","d2_best","d1_worst1","d2_worst1","d1_worst2","d2_worst2","first_dim","d1_t","d1_c","d1_d","d2_t","d2_c","d2_d","d1_name","d2_name","strategy_response","question_order"
"true","false","[]","[]","[]","img preload","preload","0","3979","0.0-0.0","150","1","2025-04-14 14:14:41","bb671e3ae32f654b8954ea4c4635f915","","Mozilla/5.0 (Windows NT 11.0; Win64; x64) AppleWebKit/537.36 (KHTML, like Gecko) Chrome/131.0.0.0 Safari/537.36","WebKit","Chrome","131.0.0.0","Windows","11.0","https://hz8g1ckzuq.cognition.run/","en,en-US;q=0.9","ya0twabdvbfdtyx","41","[""White""]","Yes","Female","505831.5","","","","","","","","","","","","","","","","","","","","","","","","","",""
"true","","","","","","fullscreen","1","15234","0.0-1.0","150","1","2025-04-14 14:14:41","bb671e3ae32f654b8954ea4c4635f915","","Mozilla/5.0 (Windows NT 11.0; Win64; x64) AppleWebKit/537.36 (KHTML, like Gecko) Chrome/131.0.0.0 Safari/537.36","WebKit","Chrome","131.0.0.0","Windows","11.0","https://hz8g1ckzuq.cognition.run/","en,en-US;q=0.9","ya0twabdvbfdtyx","41","[""White""]","Yes","Female","505831.5","10250","","","","","","","","","","","","","","","","","","","","","","","","",""
"","","","","","","instructions","2","68960","0.0-2.0","150","1","2025-04-14 14:14:41","bb671e3ae32f654b8954ea4c4635f915","","Mozilla/5.0 (Windows NT 11.0; Win64; x64) AppleWebKit/537.36 (KHTML, like Gecko) Chrome/131.0.0.0 Safari/537.36","WebKit","Chrome","131.0.0.0","Windows","11.0","https://hz8g1ckzuq.cognition.run/","en,en-US;q=0.9","ya0twabdvbfdtyx","41","[""White""]","Yes","Female","505831.5","53720","[{""page_index"":0,""viewing_time"":1191},{""page_index"":1,""viewing_time"":1096},{""page_index"":2,""viewing_time"":1000},{""page_index"":3,""viewing_time"":864},{""page_index"":4,""viewing_time"":1224},{""page_index"":5,""viewing_time"":760},{""page_index"":6,""viewing_time"":1240},{""page_index"":7,""viewing_time"":24048},{""page_index"":8,""viewing_time"":21024},{""page_index"":9,""viewing_time"":1272}]","","","","","","","","","","","","","","","","","","","","","","","",""
"","","","","","rating_trial_setup","html-keyboard-response","3","69265","0.0-3.0-0.0","150","1","2025-04-14 14:14:41","bb671e3ae32f654b8954ea4c4635f915","","Mozilla/5.0 (Windows NT 11.0; Win64; x64) AppleWebKit/537.36 (KHTML, like Gecko) Chrome/131.0.0.0 Safari/537.36","WebKit","Chrome","131.0.0.0","Windows","11.0","https://hz8g1ckzuq.cognition.run/","en,en-US;q=0.9","ya0twabdvbfdtyx","41","[""White""]","Yes","Female","505831.5","null","","<p></p>","null","rating","tcd","attraction_1","1","microwave ovens","null","null","null","null","null","null","1","","","","","","","","","",""
"","","","","","rating_trial","survey-html-form","4","83457","0.0-3.0-1.0","150","1","2025-04-14 14:14:41","bb671e3ae32f654b8954ea4c4635f915","","Mozilla/5.0 (Windows NT 11.0; Win64; x64) AppleWebKit/537.36 (KHTML, like Gecko) Chrome/131.0.0.0 Safari/537.36","WebKit","Chrome","131.0.0.0","Windows","11.0","https://hz8g1ckzuq.cognition.run/","en,en-US;q=0.9","ya0twabdvbfdtyx","41","[""White""]","Yes","Female","505831.5","14179","","","{""price_1"":""30"",""price_2"":""23"",""price_3"":""2""}","rating","tcd","attraction_1","1","microwave ovens","null","null","null","null","null","null","1","60","50","60","50","60","45","Warranty","Cooking power","",""
"","","","","","rating_trial_setup","html-keyboard-response","5","83759","0.0-3.0-0.1","150","1","2025-04-14 14:14:41","bb671e3ae32f654b8954ea4c4635f915","","Mozilla/5.0 (Windows NT 11.0; Win64; x64) AppleWebKit/537.36 (KHTML, like Gecko) Chrome/131.0.0.0 Safari/537.36","WebKit","Chrome","131.0.0.0","Windows","11.0","https://hz8g1ckzuq.cognition.run/","en,en-US;q=0.9","ya0twabdvbfdtyx","41","[""White""]","Yes","Female","505831.5","null","","<p></p>","null","rating","wwb","catch","null","televisions","95","80","20","15","30","15","1","","","","","","","","","",""
"","","","","","rating_trial","survey-html-form","6","88840","0.0-3.0-1.1","150","1","2025-04-14 14:14:41","bb671e3ae32f654b8954ea4c4635f915","","Mozilla/5.0 (Windows NT 11.0; Win64; x64) AppleWebKit/537.36 (KHTML, like Gecko) Chrome/131.0.0.0 Safari/537.36","WebKit","Chrome","131.0.0.0","Windows","11.0","https://hz8g1ckzuq.cognition.run/","en,en-US;q=0.9","ya0twabdvbfdtyx","41","[""White""]","Yes","Female","505831.5","5075","","","{""price_1"":""22"",""price_2"":""33"",""price_3"":""22""}","rating","wwb","catch","null","televisions","95","80","20","15","30","15","1","null","null","null","null","null","null","Screen size","Average lifespan","",""
"","","","","","rating_trial_setup","html-keyboard-response","7","89143","0.0-3.0-0.2","150","1","2025-04-14 14:14:41","bb671e3ae32f654b8954ea4c4635f915","","Mozilla/5.0 (Windows NT 11.0; Win64; x64) AppleWebKit/537.36 (KHTML, like Gecko) Chrome/131.0.0.0 Safari/537.36","WebKit","Chrome","131.0.0.0","Windows","11.0","https://hz8g1ckzuq.cognition.run/","en,en-US;q=0.9","ya0twabdvbfdtyx","41","[""White""]","Yes","Female","505831.5","null","","<p></p>","null","rating","cdt","attraction_1","1","laptops","null","null","null","null","null","null","1","","","","","","","","","",""
"","","","","","rating_trial","survey-html-form","8","93043","0.0-3.0-1.2","150","1","2025-04-14 14:14:41","bb671e3ae32f654b8954ea4c4635f915","","Mozilla/5.0 (Windows NT 11.0; Win64; x64) AppleWebKit/537.36 (KHTML, like Gecko) Chrome/131.0.0.0 Safari/537.36","WebKit","Chrome","131.0.0.0","Windows","11.0","https://hz8g1ckzuq.cognition.run/","en,en-US;q=0.9","ya0twabdvbfdtyx","41","[""White""]","Yes","Female","505831.5","3891","","","{""price_1"":""22"",""price_2"":""33"",""price_3"":""22""}","rating","cdt","attraction_1","1","laptops","null","null","null","null","null","null","1","60","50","60","50","60","45","Processing speed","Memory (RAM)","",""
"","","","","","rating_trial_setup","html-keyboard-response","9","93344","0.0-3.0-0.3","150","1","2025-04-14 14:14:41","bb671e3ae32f654b8954ea4c4635f915","","Mozilla/5.0 (Windows NT 11.0; Win64; x64) AppleWebKit/537.36 (KHTML, like Gecko) Chrome/131.0.0.0 Safari/537.36","WebKit","Chrome","131.0.0.0","Windows","11.0","https://hz8g1ckzuq.cognition.run/","en,en-US;q=0.9","ya0twabdvbfdtyx","41","[""White""]","Yes","Female","505831.5","null","","<p></p>","null","rating","bww","catch","null","laptops","50","95","45","45","40","25","2","","","","","","","","","",""
"","","","","","rating_trial","survey-html-form","10","97730","0.0-3.0-1.3","150","1","2025-04-14 14:14:41","bb671e3ae32f654b8954ea4c4635f915","","Mozilla/5.0 (Windows NT 11.0; Win64; x64) AppleWebKit/537.36 (KHTML, like Gecko) Chrome/131.0.0.0 Safari/537.36","WebKit","Chrome","131.0.0.0","Windows","11.0","https://hz8g1ckzuq.cognition.run/","en,en-US;q=0.9","ya0twabdvbfdtyx","41","[""White""]","Yes","Female","505831.5","4383","","","{""price_1"":""54"",""price_2"":""22"",""price_3"":""44""}","rating","bww","catch","null","laptops","50","95","45","45","40","25","2","null","null","null","null","null","null","Processing speed","Memory (RAM)","",""
"","","","","","rating_trial_setup","html-keyboard-response","11","98031","0.0-3.0-0.4","150","1","2025-04-14 14:14:41","bb671e3ae32f654b8954ea4c4635f915","","Mozilla/5.0 (Windows NT 11.0; Win64; x64) AppleWebKit/537.36 (KHTML, like Gecko) Chrome/131.0.0.0 Safari/537.36","WebKit","Chrome","131.0.0.0","Windows","11.0","https://hz8g1ckzuq.cognition.run/","en,en-US;q=0.9","ya0twabdvbfdtyx","41","[""White""]","Yes","Female","505831.5","null","","<p></p>","null","rating","dtc","attraction_1","2","microwave ovens","null","null","null","null","null","null","1","","","","","","","","","",""
"","","","","","rating_trial","survey-html-form","12","102464","0.0-3.0-1.4","150","1","2025-04-14 14:14:41","bb671e3ae32f654b8954ea4c4635f915","","Mozilla/5.0 (Windows NT 11.0; Win64; x64) AppleWebKit/537.36 (KHTML, like Gecko) Chrome/131.0.0.0 Safari/537.36","WebKit","Chrome","131.0.0.0","Windows","11.0","https://hz8g1ckzuq.cognition.run/","en,en-US;q=0.9","ya0twabdvbfdtyx","41","[""White""]","Yes","Female","505831.5","4429","","","{""price_1"":""22"",""price_2"":""44"",""price_3"":""22""}","rating","dtc","attraction_1","2","microwave ovens","null","null","null","null","null","null","1","50","60","45","60","50","60","Warranty","Cooking power","",""
"","","","","","rating_trial_setup","html-keyboard-response","13","102767","0.0-3.0-0.5","150","1","2025-04-14 14:14:41","bb671e3ae32f654b8954ea4c4635f915","","Mozilla/5.0 (Windows NT 11.0; Win64; x64) AppleWebKit/537.36 (KHTML, like Gecko) Chrome/131.0.0.0 Safari/537.36","WebKit","Chrome","131.0.0.0","Windows","11.0","https://hz8g1ckzuq.cognition.run/","en,en-US;q=0.9","ya0twabdvbfdtyx","41","[""White""]","Yes","Female","505831.5","null","","<p></p>","null","rating","dtc","attraction_2","1","microwave ovens","null","null","null","null","null","null","2","","","","","","","","","",""
"","","","","","rating_trial","survey-html-form","14","109610","0.0-3.0-1.5","150","1","2025-04-14 14:14:41","bb671e3ae32f654b8954ea4c4635f915","","Mozilla/5.0 (Windows NT 11.0; Win64; x64) AppleWebKit/537.36 (KHTML, like Gecko) Chrome/131.0.0.0 Safari/537.36","WebKit","Chrome","131.0.0.0","Windows","11.0","https://hz8g1ckzuq.cognition.run/","en,en-US;q=0.9","ya0twabdvbfdtyx","41","[""White""]","Yes","Female","505831.5","6836","","","{""price_1"":""33"",""price_2"":""33"",""price_3"":""44""}","rating","dtc","attraction_2","1","microwave ovens","null","null","null","null","null","null","2","60","50","60","50","60","40","Warranty","Cooking power","",""
"","","","","","rating_trial_setup","html-keyboard-response","15","109913","0.0-3.0-0.6","150","1","2025-04-14 14:14:41","bb671e3ae32f654b8954ea4c4635f915","","Mozilla/5.0 (Windows NT 11.0; Win64; x64) AppleWebKit/537.36 (KHTML, like Gecko) Chrome/131.0.0.0 Safari/537.36","WebKit","Chrome","131.0.0.0","Windows","11.0","https://hz8g1ckzuq.cognition.run/","en,en-US;q=0.9","ya0twabdvbfdtyx","41","[""White""]","Yes","Female","505831.5","null","","<p></p>","null","rating","wbw","catch","null","televisions","95","70","5","40","30","5","1","","","","","","","","","",""
"","","","","","rating_trial","survey-html-form","16","113953","0.0-3.0-1.6","150","1","2025-04-14 14:14:41","bb671e3ae32f654b8954ea4c4635f915","","Mozilla/5.0 (Windows NT 11.0; Win64; x64) AppleWebKit/537.36 (KHTML, like Gecko) Chrome/131.0.0.0 Safari/537.36","WebKit","Chrome","131.0.0.0","Windows","11.0","https://hz8g1ckzuq.cognition.run/","en,en-US;q=0.9","ya0twabdvbfdtyx","41","[""White""]","Yes","Female","505831.5","4029","","","{""price_1"":""33"",""price_2"":""22"",""price_3"":""66""}","rating","wbw","catch","null","televisions","95","70","5","40","30","5","1","null","null","null","null","null","null","Screen size","Average lifespan","",""
"","","","","","rating_trial_setup","html-keyboard-response","17","114256","0.0-3.0-0.7","150","1","2025-04-14 14:14:41","bb671e3ae32f654b8954ea4c4635f915","","Mozilla/5.0 (Windows NT 11.0; Win64; x64) AppleWebKit/537.36 (KHTML, like Gecko) Chrome/131.0.0.0 Safari/537.36","WebKit","Chrome","131.0.0.0","Windows","11.0","https://hz8g1ckzuq.cognition.run/","en,en-US;q=0.9","ya0twabdvbfdtyx","41","[""White""]","Yes","Female","505831.5","null","","<p></p>","null","rating","dct","repulsion_1","1","washing machines","null","null","null","null","null","null","2","","","","","","","","","",""
"","","","","","rating_trial","survey-html-form","18","121369","0.0-3.0-1.7","150","1","2025-04-14 14:14:41","bb671e3ae32f654b8954ea4c4635f915","","Mozilla/5.0 (Windows NT 11.0; Win64; x64) AppleWebKit/537.36 (KHTML, like Gecko) Chrome/131.0.0.0 Safari/537.36","WebKit","Chrome","131.0.0.0","Windows","11.0","https://hz8g1ckzuq.cognition.run/","en,en-US;q=0.9","ya0twabdvbfdtyx","41","[""White""]","Yes","Female","505831.5","7108","","","{""price_1"":""22"",""price_2"":""22"",""price_3"":""77""}","rating","dct","repulsion_1","1","washing machines","null","null","null","null","null","null","2","100","90","100","30","40","25","Average lifespan","Energy savings","",""
"","","","","","rating_trial_setup","html-keyboard-response","19","121671","0.0-3.0-0.8","150","1","2025-04-14 14:14:41","bb671e3ae32f654b8954ea4c4635f915","","Mozilla/5.0 (Windows NT 11.0; Win64; x64) AppleWebKit/537.36 (KHTML, like Gecko) Chrome/131.0.0.0 Safari/537.36","WebKit","Chrome","131.0.0.0","Windows","11.0","https://hz8g1ckzuq.cognition.run/","en,en-US;q=0.9","ya0twabdvbfdtyx","41","[""White""]","Yes","Female","505831.5","null","","<p></p>","null","rating","bww","catch","null","laptops","75","60","15","45","35","15","2","","","","","","","","","",""
"","","","","","rating_trial","survey-html-form","20","125920","0.0-3.0-1.8","150","1","2025-04-14 14:14:41","bb671e3ae32f654b8954ea4c4635f915","","Mozilla/5.0 (Windows NT 11.0; Win64; x64) AppleWebKit/537.36 (KHTML, like Gecko) Chrome/131.0.0.0 Safari/537.36","WebKit","Chrome","131.0.0.0","Windows","11.0","https://hz8g1ckzuq.cognition.run/","en,en-US;q=0.9","ya0twabdvbfdtyx","41","[""White""]","Yes","Female","505831.5","4241","","","{""price_1"":""33"",""price_2"":""66"",""price_3"":""222""}","rating","bww","catch","null","laptops","75","60","15","45","35","15","2","null","null","null","null","null","null","Processing speed","Memory (RAM)","",""
"","","","","","rating_trial_setup","html-keyboard-response","21","126222","0.0-3.0-0.9","150","1","2025-04-14 14:14:41","bb671e3ae32f654b8954ea4c4635f915","","Mozilla/5.0 (Windows NT 11.0; Win64; x64) AppleWebKit/537.36 (KHTML, like Gecko) Chrome/131.0.0.0 Safari/537.36","WebKit","Chrome","131.0.0.0","Windows","11.0","https://hz8g1ckzuq.cognition.run/","en,en-US;q=0.9","ya0twabdvbfdtyx","41","[""White""]","Yes","Female","505831.5","null","","<p></p>","null","rating","wbw","catch","null","washing machines","85","90","50","25","10","30","2","","","","","","","","","",""
"","","","","","rating_trial","survey-html-form","22","129272","0.0-3.0-1.9","150","1","2025-04-14 14:14:41","bb671e3ae32f654b8954ea4c4635f915","","Mozilla/5.0 (Windows NT 11.0; Win64; x64) AppleWebKit/537.36 (KHTML, like Gecko) Chrome/131.0.0.0 Safari/537.36","WebKit","Chrome","131.0.0.0","Windows","11.0","https://hz8g1ckzuq.cognition.run/","en,en-US;q=0.9","ya0twabdvbfdtyx","41","[""White""]","Yes","Female","505831.5","3042","","","{""price_1"":""22"",""price_2"":""55"",""price_3"":""22""}","rating","wbw","catch","null","washing machines","85","90","50","25","10","30","2","null","null","null","null","null","null","Average lifespan","Energy savings","",""
"","","","","","rating_trial_setup","html-keyboard-response","23","129575","0.0-3.0-0.10","150","1","2025-04-14 14:14:41","bb671e3ae32f654b8954ea4c4635f915","","Mozilla/5.0 (Windows NT 11.0; Win64; x64) AppleWebKit/537.36 (KHTML, like Gecko) Chrome/131.0.0.0 Safari/537.36","WebKit","Chrome","131.0.0.0","Windows","11.0","https://hz8g1ckzuq.cognition.run/","en,en-US;q=0.9","ya0twabdvbfdtyx","41","[""White""]","Yes","Female","505831.5","null","","<p></p>","null","rating","tcd","attraction_1","2","washing machines","null","null","null","null","null","null","2","","","","","","","","","",""
"","","","","","rating_trial","survey-html-form","24","134186","0.0-3.0-1.10","150","1","2025-04-14 14:14:41","bb671e3ae32f654b8954ea4c4635f915","","Mozilla/5.0 (Windows NT 11.0; Win64; x64) AppleWebKit/537.36 (KHTML, like Gecko) Chrome/131.0.0.0 Safari/537.36","WebKit","Chrome","131.0.0.0","Windows","11.0","https://hz8g1ckzuq.cognition.run/","en,en-US;q=0.9","ya0twabdvbfdtyx","41","[""White""]","Yes","Female","505831.5","4603","","","{""price_1"":""335"",""price_2"":""55"",""price_3"":""55""}","rating","tcd","attraction_1","2","washing machines","null","null","null","null","null","null","2","50","60","45","60","50","60","Average lifespan","Energy savings","",""
"","","","","","rating_trial_setup","html-keyboard-response","25","134488","0.0-3.0-0.11","150","1","2025-04-14 14:14:41","bb671e3ae32f654b8954ea4c4635f915","","Mozilla/5.0 (Windows NT 11.0; Win64; x64) AppleWebKit/537.36 (KHTML, like Gecko) Chrome/131.0.0.0 Safari/537.36","WebKit","Chrome","131.0.0.0","Windows","11.0","https://hz8g1ckzuq.cognition.run/","en,en-US;q=0.9","ya0twabdvbfdtyx","41","[""White""]","Yes","Female","505831.5","null","","<p></p>","null","rating","cdt","repulsion_2","2","televisions","null","null","null","null","null","null","1","","","","","","","","","",""
"","","","","","rating_trial","survey-html-form","26","139392","0.0-3.0-1.11","150","1","2025-04-14 14:14:41","bb671e3ae32f654b8954ea4c4635f915","","Mozilla/5.0 (Windows NT 11.0; Win64; x64) AppleWebKit/537.36 (KHTML, like Gecko) Chrome/131.0.0.0 Safari/537.36","WebKit","Chrome","131.0.0.0","Windows","11.0","https://hz8g1ckzuq.cognition.run/","en,en-US;q=0.9","ya0twabdvbfdtyx","41","[""White""]","Yes","Female","505831.5","4902","","","{""price_1"":""22"",""price_2"":""22"",""price_3"":""77""}","rating","cdt","repulsion_2","2","televisions","null","null","null","null","null","null","1","30","40","20","100","90","100","Screen size","Average lifespan","",""
"","","","","","rating_trial_setup","html-keyboard-response","27","139694","0.0-3.0-0.12","150","1","2025-04-14 14:14:41","bb671e3ae32f654b8954ea4c4635f915","","Mozilla/5.0 (Windows NT 11.0; Win64; x64) AppleWebKit/537.36 (KHTML, like Gecko) Chrome/131.0.0.0 Safari/537.36","WebKit","Chrome","131.0.0.0","Windows","11.0","https://hz8g1ckzuq.cognition.run/","en,en-US;q=0.9","ya0twabdvbfdtyx","41","[""White""]","Yes","Female","505831.5","null","","<p></p>","null","rating","tcd","repulsion_1","2","televisions","null","null","null","null","null","null","2","","","","","","","","","",""
"","","","","","rating_trial","survey-html-form","28","149610","0.0-3.0-1.12","150","1","2025-04-14 14:14:41","bb671e3ae32f654b8954ea4c4635f915","","Mozilla/5.0 (Windows NT 11.0; Win64; x64) AppleWebKit/537.36 (KHTML, like Gecko) Chrome/131.0.0.0 Safari/537.36","WebKit","Chrome","131.0.0.0","Windows","11.0","https://hz8g1ckzuq.cognition.run/","en,en-US;q=0.9","ya0twabdvbfdtyx","41","[""White""]","Yes","Female","505831.5","9909","","","{""price_1"":""3"",""price_2"":""32"",""price_3"":""2""}","rating","tcd","repulsion_1","2","televisions","null","null","null","null","null","null","2","30","40","25","100","90","100","Screen size","Average lifespan","",""
"","","","","","rating_trial_setup","html-keyboard-response","29","149913","0.0-3.0-0.13","150","1","2025-04-14 14:14:41","bb671e3ae32f654b8954ea4c4635f915","","Mozilla/5.0 (Windows NT 11.0; Win64; x64) AppleWebKit/537.36 (KHTML, like Gecko) Chrome/131.0.0.0 Safari/537.36","WebKit","Chrome","131.0.0.0","Windows","11.0","https://hz8g1ckzuq.cognition.run/","en,en-US;q=0.9","ya0twabdvbfdtyx","41","[""White""]","Yes","Female","505831.5","null","","<p></p>","null","rating","tdc","repulsion_1","2","washing machines","null","null","null","null","null","null","1","","","","","","","","","",""
"","","","","","rating_trial","survey-html-form","30","154186","0.0-3.0-1.13","150","1","2025-04-14 14:14:41","bb671e3ae32f654b8954ea4c4635f915","","Mozilla/5.0 (Windows NT 11.0; Win64; x64) AppleWebKit/537.36 (KHTML, like Gecko) Chrome/131.0.0.0 Safari/537.36","WebKit","Chrome","131.0.0.0","Windows","11.0","https://hz8g1ckzuq.cognition.run/","en,en-US;q=0.9","ya0twabdvbfdtyx","41","[""White""]","Yes","Female","505831.5","4266","","","{""price_1"":""33"",""price_2"":""55"",""price_3"":""77""}","rating","tdc","repulsion_1","2","washing machines","null","null","null","null","null","null","1","30","40","25","100","90","100","Average lifespan","Energy savings","",""
"","","","","","rating_trial_setup","html-keyboard-response","31","154489","0.0-3.0-0.14","150","1","2025-04-14 14:14:41","bb671e3ae32f654b8954ea4c4635f915","","Mozilla/5.0 (Windows NT 11.0; Win64; x64) AppleWebKit/537.36 (KHTML, like Gecko) Chrome/131.0.0.0 Safari/537.36","WebKit","Chrome","131.0.0.0","Windows","11.0","https://hz8g1ckzuq.cognition.run/","en,en-US;q=0.9","ya0twabdvbfdtyx","41","[""White""]","Yes","Female","505831.5","null","","<p></p>","null","rating","cdt","repulsion_1","1","microwave ovens","null","null","null","null","null","null","1","","","","","","","","","",""
"","","","","","rating_trial","survey-html-form","32","162097","0.0-3.0-1.14","150","1","2025-04-14 14:14:41","bb671e3ae32f654b8954ea4c4635f915","","Mozilla/5.0 (Windows NT 11.0; Win64; x64) AppleWebKit/537.36 (KHTML, like Gecko) Chrome/131.0.0.0 Safari/537.36","WebKit","Chrome","131.0.0.0","Windows","11.0","https://hz8g1ckzuq.cognition.run/","en,en-US;q=0.9","ya0twabdvbfdtyx","41","[""White""]","Yes","Female","505831.5","7601","","","{""price_1"":""44"",""price_2"":""34"",""price_3"":""22""}","rating","cdt","repulsion_1","1","microwave ovens","null","null","null","null","null","null","1","100","90","100","30","40","25","Warranty","Cooking power","",""
"","","","","","rating_trial_setup","html-keyboard-response","33","162399","0.0-3.0-0.15","150","1","2025-04-14 14:14:41","bb671e3ae32f654b8954ea4c4635f915","","Mozilla/5.0 (Windows NT 11.0; Win64; x64) AppleWebKit/537.36 (KHTML, like Gecko) Chrome/131.0.0.0 Safari/537.36","WebKit","Chrome","131.0.0.0","Windows","11.0","https://hz8g1ckzuq.cognition.run/","en,en-US;q=0.9","ya0twabdvbfdtyx","41","[""White""]","Yes","Female","505831.5","null","","<p></p>","null","rating","wwb","catch","null","microwave ovens","50","95","30","35","20","10","2","","","","","","","","","",""
"","","","","","rating_trial","survey-html-form","34","168090","0.0-3.0-1.15","150","1","2025-04-14 14:14:41","bb671e3ae32f654b8954ea4c4635f915","","Mozilla/5.0 (Windows NT 11.0; Win64; x64) AppleWebKit/537.36 (KHTML, like Gecko) Chrome/131.0.0.0 Safari/537.36","WebKit","Chrome","131.0.0.0","Windows","11.0","https://hz8g1ckzuq.cognition.run/","en,en-US;q=0.9","ya0twabdvbfdtyx","41","[""White""]","Yes","Female","505831.5","5683","","","{""price_1"":""34"",""price_2"":""55"",""price_3"":""22""}","rating","wwb","catch","null","microwave ovens","50","95","30","35","20","10","2","null","null","null","null","null","null","Warranty","Cooking power","",""
"","","","","","rating_trial_setup","html-keyboard-response","35","168394","0.0-3.0-0.16","150","1","2025-04-14 14:14:41","bb671e3ae32f654b8954ea4c4635f915","","Mozilla/5.0 (Windows NT 11.0; Win64; x64) AppleWebKit/537.36 (KHTML, like Gecko) Chrome/131.0.0.0 Safari/537.36","WebKit","Chrome","131.0.0.0","Windows","11.0","https://hz8g1ckzuq.cognition.run/","en,en-US;q=0.9","ya0twabdvbfdtyx","41","[""White""]","Yes","Female","505831.5","null","","<p></p>","null","rating","tcd","attraction_1","1","washing machines","null","null","null","null","null","null","1","","","","","","","","","",""
"","","","","","rating_trial","survey-html-form","36","172416","0.0-3.0-1.16","150","1","2025-04-14 14:14:41","bb671e3ae32f654b8954ea4c4635f915","","Mozilla/5.0 (Windows NT 11.0; Win64; x64) AppleWebKit/537.36 (KHTML, like Gecko) Chrome/131.0.0.0 Safari/537.36","WebKit","Chrome","131.0.0.0","Windows","11.0","https://hz8g1ckzuq.cognition.run/","en,en-US;q=0.9","ya0twabdvbfdtyx","41","[""White""]","Yes","Female","505831.5","4020","","","{""price_1"":""22"",""price_2"":""44"",""price_3"":""22""}","rating","tcd","attraction_1","1","washing machines","null","null","null","null","null","null","1","60","50","60","50","60","45","Average lifespan","Energy savings","",""
"","","","","","rating_trial_setup","html-keyboard-response","37","172720","0.0-3.0-0.17","150","1","2025-04-14 14:14:41","bb671e3ae32f654b8954ea4c4635f915","","Mozilla/5.0 (Windows NT 11.0; Win64; x64) AppleWebKit/537.36 (KHTML, like Gecko) Chrome/131.0.0.0 Safari/537.36","WebKit","Chrome","131.0.0.0","Windows","11.0","https://hz8g1ckzuq.cognition.run/","en,en-US;q=0.9","ya0twabdvbfdtyx","41","[""White""]","Yes","Female","505831.5","null","","<p></p>","null","rating","cdt","repulsion_2","2","washing machines","null","null","null","null","null","null","2","","","","","","","","","",""
"","","","","","rating_trial","survey-html-form","38","176449","0.0-3.0-1.17","150","1","2025-04-14 14:14:41","bb671e3ae32f654b8954ea4c4635f915","","Mozilla/5.0 (Windows NT 11.0; Win64; x64) AppleWebKit/537.36 (KHTML, like Gecko) Chrome/131.0.0.0 Safari/537.36","WebKit","Chrome","131.0.0.0","Windows","11.0","https://hz8g1ckzuq.cognition.run/","en,en-US;q=0.9","ya0twabdvbfdtyx","41","[""White""]","Yes","Female","505831.5","3723","","","{""price_1"":""44"",""price_2"":""22"",""price_3"":""55""}","rating","cdt","repulsion_2","2","washing machines","null","null","null","null","null","null","2","30","40","20","100","90","100","Average lifespan","Energy savings","",""
"","","","","","rating_trial_setup","html-keyboard-response","39","176751","0.0-3.0-0.18","150","1","2025-04-14 14:14:41","bb671e3ae32f654b8954ea4c4635f915","","Mozilla/5.0 (Windows NT 11.0; Win64; x64) AppleWebKit/537.36 (KHTML, like Gecko) Chrome/131.0.0.0 Safari/537.36","WebKit","Chrome","131.0.0.0","Windows","11.0","https://hz8g1ckzuq.cognition.run/","en,en-US;q=0.9","ya0twabdvbfdtyx","41","[""White""]","Yes","Female","505831.5","null","","<p></p>","null","rating","tdc","attraction_2","2","microwave ovens","null","null","null","null","null","null","2","","","","","","","","","",""
"","","","","","rating_trial","survey-html-form","40","182008","0.0-3.0-1.18","150","1","2025-04-14 14:14:41","bb671e3ae32f654b8954ea4c4635f915","","Mozilla/5.0 (Windows NT 11.0; Win64; x64) AppleWebKit/537.36 (KHTML, like Gecko) Chrome/131.0.0.0 Safari/537.36","WebKit","Chrome","131.0.0.0","Windows","11.0","https://hz8g1ckzuq.cognition.run/","en,en-US;q=0.9","ya0twabdvbfdtyx","41","[""White""]","Yes","Female","505831.5","5249","","","{""price_1"":""22"",""price_2"":""88"",""price_3"":""22""}","rating","tdc","attraction_2","2","microwave ovens","null","null","null","null","null","null","2","50","60","40","60","50","60","Warranty","Cooking power","",""
"","","","","","rating_trial_setup","html-keyboard-response","41","182313","0.0-3.0-0.19","150","1","2025-04-14 14:14:41","bb671e3ae32f654b8954ea4c4635f915","","Mozilla/5.0 (Windows NT 11.0; Win64; x64) AppleWebKit/537.36 (KHTML, like Gecko) Chrome/131.0.0.0 Safari/537.36","WebKit","Chrome","131.0.0.0","Windows","11.0","https://hz8g1ckzuq.cognition.run/","en,en-US;q=0.9","ya0twabdvbfdtyx","41","[""White""]","Yes","Female","505831.5","null","","<p></p>","null","rating","tcd","repulsion_2","1","microwave ovens","null","null","null","null","null","null","1","","","","","","","","","",""
"","","","","","rating_trial","survey-html-form","42","189283","0.0-3.0-1.19","150","1","2025-04-14 14:14:41","bb671e3ae32f654b8954ea4c4635f915","","Mozilla/5.0 (Windows NT 11.0; Win64; x64) AppleWebKit/537.36 (KHTML, like Gecko) Chrome/131.0.0.0 Safari/537.36","WebKit","Chrome","131.0.0.0","Windows","11.0","https://hz8g1ckzuq.cognition.run/","en,en-US;q=0.9","ya0twabdvbfdtyx","41","[""White""]","Yes","Female","505831.5","6961","","","{""price_1"":""11"",""price_2"":""34"",""price_3"":""88""}","rating","tcd","repulsion_2","1","microwave ovens","null","null","null","null","null","null","1","100","90","100","30","40","20","Warranty","Cooking power","",""
"","","","","","rating_trial_setup","html-keyboard-response","43","189587","0.0-3.0-0.20","150","1","2025-04-14 14:14:41","bb671e3ae32f654b8954ea4c4635f915","","Mozilla/5.0 (Windows NT 11.0; Win64; x64) AppleWebKit/537.36 (KHTML, like Gecko) Chrome/131.0.0.0 Safari/537.36","WebKit","Chrome","131.0.0.0","Windows","11.0","https://hz8g1ckzuq.cognition.run/","en,en-US;q=0.9","ya0twabdvbfdtyx","41","[""White""]","Yes","Female","505831.5","null","","<p></p>","null","rating","dct","attraction_2","1","televisions","null","null","null","null","null","null","2","","","","","","","","","",""
"","","","","","rating_trial","survey-html-form","44","195649","0.0-3.0-1.20","150","1","2025-04-14 14:14:41","bb671e3ae32f654b8954ea4c4635f915","","Mozilla/5.0 (Windows NT 11.0; Win64; x64) AppleWebKit/537.36 (KHTML, like Gecko) Chrome/131.0.0.0 Safari/537.36","WebKit","Chrome","131.0.0.0","Windows","11.0","https://hz8g1ckzuq.cognition.run/","en,en-US;q=0.9","ya0twabdvbfdtyx","41","[""White""]","Yes","Female","505831.5","6053","","","{""price_1"":""22"",""price_2"":""44"",""price_3"":""55""}","rating","dct","attraction_2","1","televisions","null","null","null","null","null","null","2","60","50","60","50","60","40","Screen size","Average lifespan","",""
"","","","","","rating_trial_setup","html-keyboard-response","45","195953","0.0-3.0-0.21","150","1","2025-04-14 14:14:41","bb671e3ae32f654b8954ea4c4635f915","","Mozilla/5.0 (Windows NT 11.0; Win64; x64) AppleWebKit/537.36 (KHTML, like Gecko) Chrome/131.0.0.0 Safari/537.36","WebKit","Chrome","131.0.0.0","Windows","11.0","https://hz8g1ckzuq.cognition.run/","en,en-US;q=0.9","ya0twabdvbfdtyx","41","[""White""]","Yes","Female","505831.5","null","","<p></p>","null","rating","bww","catch","null","washing machines","55","95","45","10","15","20","1","","","","","","","","","",""
"","","","","","rating_trial","survey-html-form","46","203498","0.0-3.0-1.21","150","1","2025-04-14 14:14:41","bb671e3ae32f654b8954ea4c4635f915","","Mozilla/5.0 (Windows NT 11.0; Win64; x64) AppleWebKit/537.36 (KHTML, like Gecko) Chrome/131.0.0.0 Safari/537.36","WebKit","Chrome","131.0.0.0","Windows","11.0","https://hz8g1ckzuq.cognition.run/","en,en-US;q=0.9","ya0twabdvbfdtyx","41","[""White""]","Yes","Female","505831.5","7533","","","{""price_1"":""7"",""price_2"":""44"",""price_3"":""33""}","rating","bww","catch","null","washing machines","55","95","45","10","15","20","1","null","null","null","null","null","null","Average lifespan","Energy savings","",""
"","","","","","rating_trial_setup","html-keyboard-response","47","203801","0.0-3.0-0.22","150","1","2025-04-14 14:14:41","bb671e3ae32f654b8954ea4c4635f915","","Mozilla/5.0 (Windows NT 11.0; Win64; x64) AppleWebKit/537.36 (KHTML, like Gecko) Chrome/131.0.0.0 Safari/537.36","WebKit","Chrome","131.0.0.0","Windows","11.0","https://hz8g1ckzuq.cognition.run/","en,en-US;q=0.9","ya0twabdvbfdtyx","41","[""White""]","Yes","Female","505831.5","null","","<p></p>","null","rating","tdc","attraction_2","2","laptops","null","null","null","null","null","null","2","","","","","","","","","",""
"","","","","","rating_trial","survey-html-form","48","207769","0.0-3.0-1.22","150","1","2025-04-14 14:14:41","bb671e3ae32f654b8954ea4c4635f915","","Mozilla/5.0 (Windows NT 11.0; Win64; x64) AppleWebKit/537.36 (KHTML, like Gecko) Chrome/131.0.0.0 Safari/537.36","WebKit","Chrome","131.0.0.0","Windows","11.0","https://hz8g1ckzuq.cognition.run/","en,en-US;q=0.9","ya0twabdvbfdtyx","41","[""White""]","Yes","Female","505831.5","3958","","","{""price_1"":""33"",""price_2"":""33"",""price_3"":""22""}","rating","tdc","attraction_2","2","laptops","null","null","null","null","null","null","2","50","60","40","60","50","60","Processing speed","Memory (RAM)","",""
"","","","","","rating_trial_setup","html-keyboard-response","49","208072","0.0-3.0-0.23","150","1","2025-04-14 14:14:41","bb671e3ae32f654b8954ea4c4635f915","","Mozilla/5.0 (Windows NT 11.0; Win64; x64) AppleWebKit/537.36 (KHTML, like Gecko) Chrome/131.0.0.0 Safari/537.36","WebKit","Chrome","131.0.0.0","Windows","11.0","https://hz8g1ckzuq.cognition.run/","en,en-US;q=0.9","ya0twabdvbfdtyx","41","[""White""]","Yes","Female","505831.5","null","","<p></p>","null","rating","ctd","attraction_2","1","laptops","null","null","null","null","null","null","1","","","","","","","","","",""
"","","","","","rating_trial","survey-html-form","50","211361","0.0-3.0-1.23","150","1","2025-04-14 14:14:41","bb671e3ae32f654b8954ea4c4635f915","","Mozilla/5.0 (Windows NT 11.0; Win64; x64) AppleWebKit/537.36 (KHTML, like Gecko) Chrome/131.0.0.0 Safari/537.36","WebKit","Chrome","131.0.0.0","Windows","11.0","https://hz8g1ckzuq.cognition.run/","en,en-US;q=0.9","ya0twabdvbfdtyx","41","[""White""]","Yes","Female","505831.5","3278","","","{""price_1"":""22"",""price_2"":""44"",""price_3"":""33""}","rating","ctd","attraction_2","1","laptops","null","null","null","null","null","null","1","60","50","60","50","60","40","Processing speed","Memory (RAM)","",""
"","","","","","rating_trial_setup","html-keyboard-response","51","211664","0.0-3.0-0.24","150","1","2025-04-14 14:14:41","bb671e3ae32f654b8954ea4c4635f915","","Mozilla/5.0 (Windows NT 11.0; Win64; x64) AppleWebKit/537.36 (KHTML, like Gecko) Chrome/131.0.0.0 Safari/537.36","WebKit","Chrome","131.0.0.0","Windows","11.0","https://hz8g1ckzuq.cognition.run/","en,en-US;q=0.9","ya0twabdvbfdtyx","41","[""White""]","Yes","Female","505831.5","null","","<p></p>","null","rating","tcd","repulsion_1","1","laptops","null","null","null","null","null","null","2","","","","","","","","","",""
"","","","","","rating_trial","survey-html-form","52","215201","0.0-3.0-1.24","150","1","2025-04-14 14:14:41","bb671e3ae32f654b8954ea4c4635f915","","Mozilla/5.0 (Windows NT 11.0; Win64; x64) AppleWebKit/537.36 (KHTML, like Gecko) Chrome/131.0.0.0 Safari/537.36","WebKit","Chrome","131.0.0.0","Windows","11.0","https://hz8g1ckzuq.cognition.run/","en,en-US;q=0.9","ya0twabdvbfdtyx","41","[""White""]","Yes","Female","505831.5","3534","","","{""price_1"":""22"",""price_2"":""22"",""price_3"":""55""}","rating","tcd","repulsion_1","1","laptops","null","null","null","null","null","null","2","100","90","100","30","40","25","Processing speed","Memory (RAM)","",""
"","","","","","rating_trial_setup","html-keyboard-response","53","215504","0.0-3.0-0.25","150","1","2025-04-14 14:14:41","bb671e3ae32f654b8954ea4c4635f915","","Mozilla/5.0 (Windows NT 11.0; Win64; x64) AppleWebKit/537.36 (KHTML, like Gecko) Chrome/131.0.0.0 Safari/537.36","WebKit","Chrome","131.0.0.0","Windows","11.0","https://hz8g1ckzuq.cognition.run/","en,en-US;q=0.9","ya0twabdvbfdtyx","41","[""White""]","Yes","Female","505831.5","null","","<p></p>","null","rating","ctd","attraction_1","1","televisions","null","null","null","null","null","null","2","","","","","","","","","",""
"","","","","","rating_trial","survey-html-form","54","219417","0.0-3.0-1.25","150","1","2025-04-14 14:14:41","bb671e3ae32f654b8954ea4c4635f915","","Mozilla/5.0 (Windows NT 11.0; Win64; x64) AppleWebKit/537.36 (KHTML, like Gecko) Chrome/131.0.0.0 Safari/537.36","WebKit","Chrome","131.0.0.0","Windows","11.0","https://hz8g1ckzuq.cognition.run/","en,en-US;q=0.9","ya0twabdvbfdtyx","41","[""White""]","Yes","Female","505831.5","3909","","","{""price_1"":""33"",""price_2"":""77"",""price_3"":""22""}","rating","ctd","attraction_1","1","televisions","null","null","null","null","null","null","2","60","50","60","50","60","45","Screen size","Average lifespan","",""
"","","","","","rating_trial_setup","html-keyboard-response","55","219720","0.0-3.0-0.26","150","1","2025-04-14 14:14:41","bb671e3ae32f654b8954ea4c4635f915","","Mozilla/5.0 (Windows NT 11.0; Win64; x64) AppleWebKit/537.36 (KHTML, like Gecko) Chrome/131.0.0.0 Safari/537.36","WebKit","Chrome","131.0.0.0","Windows","11.0","https://hz8g1ckzuq.cognition.run/","en,en-US;q=0.9","ya0twabdvbfdtyx","41","[""White""]","Yes","Female","505831.5","null","","<p></p>","null","rating","ctd","repulsion_2","1","washing machines","null","null","null","null","null","null","1","","","","","","","","","",""
"","","","","","rating_trial","survey-html-form","56","224154","0.0-3.0-1.26","150","1","2025-04-14 14:14:41","bb671e3ae32f654b8954ea4c4635f915","","Mozilla/5.0 (Windows NT 11.0; Win64; x64) AppleWebKit/537.36 (KHTML, like Gecko) Chrome/131.0.0.0 Safari/537.36","WebKit","Chrome","131.0.0.0","Windows","11.0","https://hz8g1ckzuq.cognition.run/","en,en-US;q=0.9","ya0twabdvbfdtyx","41","[""White""]","Yes","Female","505831.5","4425","","","{""price_1"":""22"",""price_2"":""77"",""price_3"":""34""}","rating","ctd","repulsion_2","1","washing machines","null","null","null","null","null","null","1","100","90","100","30","40","20","Average lifespan","Energy savings","",""
"","","","","","rating_trial_setup","html-keyboard-response","57","224459","0.0-3.0-0.27","150","1","2025-04-14 14:14:41","bb671e3ae32f654b8954ea4c4635f915","","Mozilla/5.0 (Windows NT 11.0; Win64; x64) AppleWebKit/537.36 (KHTML, like Gecko) Chrome/131.0.0.0 Safari/537.36","WebKit","Chrome","131.0.0.0","Windows","11.0","https://hz8g1ckzuq.cognition.run/","en,en-US;q=0.9","ya0twabdvbfdtyx","41","[""White""]","Yes","Female","505831.5","null","","<p></p>","null","rating","tdc","attraction_2","2","washing machines","null","null","null","null","null","null","2","","","","","","","","","",""
"","","","","","rating_trial","survey-html-form","58","228416","0.0-3.0-1.27","150","1","2025-04-14 14:14:41","bb671e3ae32f654b8954ea4c4635f915","","Mozilla/5.0 (Windows NT 11.0; Win64; x64) AppleWebKit/537.36 (KHTML, like Gecko) Chrome/131.0.0.0 Safari/537.36","WebKit","Chrome","131.0.0.0","Windows","11.0","https://hz8g1ckzuq.cognition.run/","en,en-US;q=0.9","ya0twabdvbfdtyx","41","[""White""]","Yes","Female","505831.5","3947","","","{""price_1"":""22"",""price_2"":""44"",""price_3"":""33""}","rating","tdc","attraction_2","2","washing machines","null","null","null","null","null","null","2","50","60","40","60","50","60","Average lifespan","Energy savings","",""
"","","","","","rating_trial_setup","html-keyboard-response","59","228722","0.0-3.0-0.28","150","1","2025-04-14 14:14:41","bb671e3ae32f654b8954ea4c4635f915","","Mozilla/5.0 (Windows NT 11.0; Win64; x64) AppleWebKit/537.36 (KHTML, like Gecko) Chrome/131.0.0.0 Safari/537.36","WebKit","Chrome","131.0.0.0","Windows","11.0","https://hz8g1ckzuq.cognition.run/","en,en-US;q=0.9","ya0twabdvbfdtyx","41","[""White""]","Yes","Female","505831.5","null","","<p></p>","null","rating","ctd","repulsion_2","1","laptops","null","null","null","null","null","null","2","","","","","","","","","",""
"","","","","","rating_trial","survey-html-form","60","231832","0.0-3.0-1.28","150","1","2025-04-14 14:14:41","bb671e3ae32f654b8954ea4c4635f915","","Mozilla/5.0 (Windows NT 11.0; Win64; x64) AppleWebKit/537.36 (KHTML, like Gecko) Chrome/131.0.0.0 Safari/537.36","WebKit","Chrome","131.0.0.0","Windows","11.0","https://hz8g1ckzuq.cognition.run/","en,en-US;q=0.9","ya0twabdvbfdtyx","41","[""White""]","Yes","Female","505831.5","3100","","","{""price_1"":""33"",""price_2"":""22"",""price_3"":""22""}","rating","ctd","repulsion_2","1","laptops","null","null","null","null","null","null","2","100","90","100","30","40","20","Processing speed","Memory (RAM)","",""
"","","","","","rating_trial_setup","html-keyboard-response","61","232136","0.0-3.0-0.29","150","1","2025-04-14 14:14:41","bb671e3ae32f654b8954ea4c4635f915","","Mozilla/5.0 (Windows NT 11.0; Win64; x64) AppleWebKit/537.36 (KHTML, like Gecko) Chrome/131.0.0.0 Safari/537.36","WebKit","Chrome","131.0.0.0","Windows","11.0","https://hz8g1ckzuq.cognition.run/","en,en-US;q=0.9","ya0twabdvbfdtyx","41","[""White""]","Yes","Female","505831.5","null","","<p></p>","null","rating","wwb","catch","null","microwave ovens","85","60","35","35","5","50","2","","","","","","","","","",""
"","","","","","rating_trial","survey-html-form","62","238688","0.0-3.0-1.29","150","1","2025-04-14 14:14:41","bb671e3ae32f654b8954ea4c4635f915","","Mozilla/5.0 (Windows NT 11.0; Win64; x64) AppleWebKit/537.36 (KHTML, like Gecko) Chrome/131.0.0.0 Safari/537.36","WebKit","Chrome","131.0.0.0","Windows","11.0","https://hz8g1ckzuq.cognition.run/","en,en-US;q=0.9","ya0twabdvbfdtyx","41","[""White""]","Yes","Female","505831.5","6543","","","{""price_1"":""22"",""price_2"":""22"",""price_3"":""66""}","rating","wwb","catch","null","microwave ovens","85","60","35","35","5","50","2","null","null","null","null","null","null","Warranty","Cooking power","",""
"","","","","","rating_trial_setup","html-keyboard-response","63","238992","0.0-3.0-0.30","150","1","2025-04-14 14:14:41","bb671e3ae32f654b8954ea4c4635f915","","Mozilla/5.0 (Windows NT 11.0; Win64; x64) AppleWebKit/537.36 (KHTML, like Gecko) Chrome/131.0.0.0 Safari/537.36","WebKit","Chrome","131.0.0.0","Windows","11.0","https://hz8g1ckzuq.cognition.run/","en,en-US;q=0.9","ya0twabdvbfdtyx","41","[""White""]","Yes","Female","505831.5","null","","<p></p>","null","rating","tcd","attraction_2","1","washing machines","null","null","null","null","null","null","2","","","","","","","","","",""
"","","","","","rating_trial","survey-html-form","64","245665","0.0-3.0-1.30","150","1","2025-04-14 14:14:41","bb671e3ae32f654b8954ea4c4635f915","","Mozilla/5.0 (Windows NT 11.0; Win64; x64) AppleWebKit/537.36 (KHTML, like Gecko) Chrome/131.0.0.0 Safari/537.36","WebKit","Chrome","131.0.0.0","Windows","11.0","https://hz8g1ckzuq.cognition.run/","en,en-US;q=0.9","ya0twabdvbfdtyx","41","[""White""]","Yes","Female","505831.5","6669","","","{""price_1"":""78"",""price_2"":""33"",""price_3"":""55""}","rating","tcd","attraction_2","1","washing machines","null","null","null","null","null","null","2","60","50","60","50","60","40","Average lifespan","Energy savings","",""
"","","","","","rating_trial_setup","html-keyboard-response","65","245974","0.0-3.0-0.31","150","1","2025-04-14 14:14:41","bb671e3ae32f654b8954ea4c4635f915","","Mozilla/5.0 (Windows NT 11.0; Win64; x64) AppleWebKit/537.36 (KHTML, like Gecko) Chrome/131.0.0.0 Safari/537.36","WebKit","Chrome","131.0.0.0","Windows","11.0","https://hz8g1ckzuq.cognition.run/","en,en-US;q=0.9","ya0twabdvbfdtyx","41","[""White""]","Yes","Female","505831.5","null","","<p></p>","null","rating","dct","repulsion_1","2","microwave ovens","null","null","null","null","null","null","1","","","","","","","","","",""
"","","","","","rating_trial","survey-html-form","66","255792","0.0-3.0-1.31","150","1","2025-04-14 14:14:41","bb671e3ae32f654b8954ea4c4635f915","","Mozilla/5.0 (Windows NT 11.0; Win64; x64) AppleWebKit/537.36 (KHTML, like Gecko) Chrome/131.0.0.0 Safari/537.36","WebKit","Chrome","131.0.0.0","Windows","11.0","https://hz8g1ckzuq.cognition.run/","en,en-US;q=0.9","ya0twabdvbfdtyx","41","[""White""]","Yes","Female","505831.5","9808","","","{""price_1"":""22"",""price_2"":""33"",""price_3"":""77""}","rating","dct","repulsion_1","2","microwave ovens","null","null","null","null","null","null","1","30","40","25","100","90","100","Warranty","Cooking power","",""
"","","","","","rating_trial_setup","html-keyboard-response","67","256097","0.0-3.0-0.32","150","1","2025-04-14 14:14:41","bb671e3ae32f654b8954ea4c4635f915","","Mozilla/5.0 (Windows NT 11.0; Win64; x64) AppleWebKit/537.36 (KHTML, like Gecko) Chrome/131.0.0.0 Safari/537.36","WebKit","Chrome","131.0.0.0","Windows","11.0","https://hz8g1ckzuq.cognition.run/","en,en-US;q=0.9","ya0twabdvbfdtyx","41","[""White""]","Yes","Female","505831.5","null","","<p></p>","null","rating","tcd","repulsion_2","2","laptops","null","null","null","null","null","null","2","","","","","","","","","",""
"","","","","","rating_trial","survey-html-form","68","262594","0.0-3.0-1.32","150","1","2025-04-14 14:14:41","bb671e3ae32f654b8954ea4c4635f915","","Mozilla/5.0 (Windows NT 11.0; Win64; x64) AppleWebKit/537.36 (KHTML, like Gecko) Chrome/131.0.0.0 Safari/537.36","WebKit","Chrome","131.0.0.0","Windows","11.0","https://hz8g1ckzuq.cognition.run/","en,en-US;q=0.9","ya0twabdvbfdtyx","41","[""White""]","Yes","Female","505831.5","6483","","","{""price_1"":""33"",""price_2"":""33"",""price_3"":""22""}","rating","tcd","repulsion_2","2","laptops","null","null","null","null","null","null","2","30","40","20","100","90","100","Processing speed","Memory (RAM)","",""
"","","","","","rating_trial_setup","html-keyboard-response","69","262897","0.0-3.0-0.33","150","1","2025-04-14 14:14:41","bb671e3ae32f654b8954ea4c4635f915","","Mozilla/5.0 (Windows NT 11.0; Win64; x64) AppleWebKit/537.36 (KHTML, like Gecko) Chrome/131.0.0.0 Safari/537.36","WebKit","Chrome","131.0.0.0","Windows","11.0","https://hz8g1ckzuq.cognition.run/","en,en-US;q=0.9","ya0twabdvbfdtyx","41","[""White""]","Yes","Female","505831.5","null","","<p></p>","null","rating","cdt","repulsion_2","2","microwave ovens","null","null","null","null","null","null","2","","","","","","","","","",""
"","","","","","rating_trial","survey-html-form","70","267426","0.0-3.0-1.33","150","1","2025-04-14 14:14:41","bb671e3ae32f654b8954ea4c4635f915","","Mozilla/5.0 (Windows NT 11.0; Win64; x64) AppleWebKit/537.36 (KHTML, like Gecko) Chrome/131.0.0.0 Safari/537.36","WebKit","Chrome","131.0.0.0","Windows","11.0","https://hz8g1ckzuq.cognition.run/","en,en-US;q=0.9","ya0twabdvbfdtyx","41","[""White""]","Yes","Female","505831.5","4514","","","{""price_1"":""22"",""price_2"":""55"",""price_3"":""88""}","rating","cdt","repulsion_2","2","microwave ovens","null","null","null","null","null","null","2","30","40","20","100","90","100","Warranty","Cooking power","",""
"","","","","","rating_trial_setup","html-keyboard-response","71","267729","0.0-3.0-0.34","150","1","2025-04-14 14:14:41","bb671e3ae32f654b8954ea4c4635f915","","Mozilla/5.0 (Windows NT 11.0; Win64; x64) AppleWebKit/537.36 (KHTML, like Gecko) Chrome/131.0.0.0 Safari/537.36","WebKit","Chrome","131.0.0.0","Windows","11.0","https://hz8g1ckzuq.cognition.run/","en,en-US;q=0.9","ya0twabdvbfdtyx","41","[""White""]","Yes","Female","505831.5","null","","<p></p>","null","rating","tdc","attraction_1","2","televisions","null","null","null","null","null","null","2","","","","","","","","","",""
"","","","","","rating_trial","survey-html-form","72","273217","0.0-3.0-1.34","150","1","2025-04-14 14:14:41","bb671e3ae32f654b8954ea4c4635f915","","Mozilla/5.0 (Windows NT 11.0; Win64; x64) AppleWebKit/537.36 (KHTML, like Gecko) Chrome/131.0.0.0 Safari/537.36","WebKit","Chrome","131.0.0.0","Windows","11.0","https://hz8g1ckzuq.cognition.run/","en,en-US;q=0.9","ya0twabdvbfdtyx","41","[""White""]","Yes","Female","505831.5","5483","","","{""price_1"":""33"",""price_2"":""22"",""price_3"":""55""}","rating","tdc","attraction_1","2","televisions","null","null","null","null","null","null","2","50","60","45","60","50","60","Screen size","Average lifespan","",""
"","","","","","rating_trial_setup","html-keyboard-response","73","273523","0.0-3.0-0.35","150","1","2025-04-14 14:14:41","bb671e3ae32f654b8954ea4c4635f915","","Mozilla/5.0 (Windows NT 11.0; Win64; x64) AppleWebKit/537.36 (KHTML, like Gecko) Chrome/131.0.0.0 Safari/537.36","WebKit","Chrome","131.0.0.0","Windows","11.0","https://hz8g1ckzuq.cognition.run/","en,en-US;q=0.9","ya0twabdvbfdtyx","41","[""White""]","Yes","Female","505831.5","null","","<p></p>","null","rating","tcd","repulsion_1","2","laptops","null","null","null","null","null","null","2","","","","","","","","","",""
"","","","","","rating_trial","survey-html-form","74","277483","0.0-3.0-1.35","150","1","2025-04-14 14:14:41","bb671e3ae32f654b8954ea4c4635f915","","Mozilla/5.0 (Windows NT 11.0; Win64; x64) AppleWebKit/537.36 (KHTML, like Gecko) Chrome/131.0.0.0 Safari/537.36","WebKit","Chrome","131.0.0.0","Windows","11.0","https://hz8g1ckzuq.cognition.run/","en,en-US;q=0.9","ya0twabdvbfdtyx","41","[""White""]","Yes","Female","505831.5","3950","","","{""price_1"":""22"",""price_2"":""11"",""price_3"":""11""}","rating","tcd","repulsion_1","2","laptops","null","null","null","null","null","null","2","30","40","25","100","90","100","Processing speed","Memory (RAM)","",""
"","","","","","rating_trial_setup","html-keyboard-response","75","277786","0.0-3.0-0.36","150","1","2025-04-14 14:14:41","bb671e3ae32f654b8954ea4c4635f915","","Mozilla/5.0 (Windows NT 11.0; Win64; x64) AppleWebKit/537.36 (KHTML, like Gecko) Chrome/131.0.0.0 Safari/537.36","WebKit","Chrome","131.0.0.0","Windows","11.0","https://hz8g1ckzuq.cognition.run/","en,en-US;q=0.9","ya0twabdvbfdtyx","41","[""White""]","Yes","Female","505831.5","null","","<p></p>","null","rating","cdt","attraction_2","2","televisions","null","null","null","null","null","null","2","","","","","","","","","",""
"","","","","","rating_trial","survey-html-form","76","281929","0.0-3.0-1.36","150","1","2025-04-14 14:14:41","bb671e3ae32f654b8954ea4c4635f915","","Mozilla/5.0 (Windows NT 11.0; Win64; x64) AppleWebKit/537.36 (KHTML, like Gecko) Chrome/131.0.0.0 Safari/537.36","WebKit","Chrome","131.0.0.0","Windows","11.0","https://hz8g1ckzuq.cognition.run/","en,en-US;q=0.9","ya0twabdvbfdtyx","41","[""White""]","Yes","Female","505831.5","4132","","","{""price_1"":""11"",""price_2"":""66"",""price_3"":""88""}","rating","cdt","attraction_2","2","televisions","null","null","null","null","null","null","2","50","60","40","60","50","60","Screen size","Average lifespan","",""
"","","","","","rating_trial_setup","html-keyboard-response","77","282234","0.0-3.0-0.37","150","1","2025-04-14 14:14:41","bb671e3ae32f654b8954ea4c4635f915","","Mozilla/5.0 (Windows NT 11.0; Win64; x64) AppleWebKit/537.36 (KHTML, like Gecko) Chrome/131.0.0.0 Safari/537.36","WebKit","Chrome","131.0.0.0","Windows","11.0","https://hz8g1ckzuq.cognition.run/","en,en-US;q=0.9","ya0twabdvbfdtyx","41","[""White""]","Yes","Female","505831.5","null","","<p></p>","null","rating","ctd","repulsion_2","1","televisions","null","null","null","null","null","null","1","","","","","","","","","",""
"","","","","","rating_trial","survey-html-form","78","292009","0.0-3.0-1.37","150","1","2025-04-14 14:14:41","bb671e3ae32f654b8954ea4c4635f915","","Mozilla/5.0 (Windows NT 11.0; Win64; x64) AppleWebKit/537.36 (KHTML, like Gecko) Chrome/131.0.0.0 Safari/537.36","WebKit","Chrome","131.0.0.0","Windows","11.0","https://hz8g1ckzuq.cognition.run/","en,en-US;q=0.9","ya0twabdvbfdtyx","41","[""White""]","Yes","Female","505831.5","9767","","","{""price_1"":""55"",""price_2"":""11"",""price_3"":""77""}","rating","ctd","repulsion_2","1","televisions","null","null","null","null","null","null","1","100","90","100","30","40","20","Screen size","Average lifespan","",""
"","","","","","rating_trial_setup","html-keyboard-response","79","292313","0.0-3.0-0.38","150","1","2025-04-14 14:14:41","bb671e3ae32f654b8954ea4c4635f915","","Mozilla/5.0 (Windows NT 11.0; Win64; x64) AppleWebKit/537.36 (KHTML, like Gecko) Chrome/131.0.0.0 Safari/537.36","WebKit","Chrome","131.0.0.0","Windows","11.0","https://hz8g1ckzuq.cognition.run/","en,en-US;q=0.9","ya0twabdvbfdtyx","41","[""White""]","Yes","Female","505831.5","null","","<p></p>","null","rating","dct","attraction_1","2","laptops","null","null","null","null","null","null","2","","","","","","","","","",""
"","","","","","rating_trial","survey-html-form","80","300137","0.0-3.0-1.38","150","1","2025-04-14 14:14:41","bb671e3ae32f654b8954ea4c4635f915","","Mozilla/5.0 (Windows NT 11.0; Win64; x64) AppleWebKit/537.36 (KHTML, like Gecko) Chrome/131.0.0.0 Safari/537.36","WebKit","Chrome","131.0.0.0","Windows","11.0","https://hz8g1ckzuq.cognition.run/","en,en-US;q=0.9","ya0twabdvbfdtyx","41","[""White""]","Yes","Female","505831.5","7804","","","{""price_1"":""34"",""price_2"":""33"",""price_3"":""66""}","rating","dct","attraction_1","2","laptops","null","null","null","null","null","null","2","50","60","45","60","50","60","Processing speed","Memory (RAM)","",""
"","","","","","rating_trial_setup","html-keyboard-response","81","300442","0.0-3.0-0.39","150","1","2025-04-14 14:14:41","bb671e3ae32f654b8954ea4c4635f915","","Mozilla/5.0 (Windows NT 11.0; Win64; x64) AppleWebKit/537.36 (KHTML, like Gecko) Chrome/131.0.0.0 Safari/537.36","WebKit","Chrome","131.0.0.0","Windows","11.0","https://hz8g1ckzuq.cognition.run/","en,en-US;q=0.9","ya0twabdvbfdtyx","41","[""White""]","Yes","Female","505831.5","null","","<p></p>","null","rating","cdt","repulsion_1","1","televisions","null","null","null","null","null","null","2","","","","","","","","","",""
"","","","","","rating_trial","survey-html-form","82","305171","0.0-3.0-1.39","150","1","2025-04-14 14:14:41","bb671e3ae32f654b8954ea4c4635f915","","Mozilla/5.0 (Windows NT 11.0; Win64; x64) AppleWebKit/537.36 (KHTML, like Gecko) Chrome/131.0.0.0 Safari/537.36","WebKit","Chrome","131.0.0.0","Windows","11.0","https://hz8g1ckzuq.cognition.run/","en,en-US;q=0.9","ya0twabdvbfdtyx","41","[""White""]","Yes","Female","505831.5","4720","","","{""price_1"":""22"",""price_2"":""25"",""price_3"":""24""}","rating","cdt","repulsion_1","1","televisions","null","null","null","null","null","null","2","100","90","100","30","40","25","Screen size","Average lifespan","",""
"","","","","","","instructions","83","319008","0.0-4.0","150","1","2025-04-14 14:14:41","bb671e3ae32f654b8954ea4c4635f915","","Mozilla/5.0 (Windows NT 11.0; Win64; x64) AppleWebKit/537.36 (KHTML, like Gecko) Chrome/131.0.0.0 Safari/537.36","WebKit","Chrome","131.0.0.0","Windows","11.0","https://hz8g1ckzuq.cognition.run/","en,en-US;q=0.9","ya0twabdvbfdtyx","41","[""White""]","Yes","Female","505831.5","13835","[{""page_index"":0,""viewing_time"":2195},{""page_index"":1,""viewing_time"":952},{""page_index"":2,""viewing_time"":2048},{""page_index"":3,""viewing_time"":1016},{""page_index"":4,""viewing_time"":1312},{""page_index"":5,""viewing_time"":1016},{""page_index"":6,""viewing_time"":4409},{""page_index"":7,""viewing_time"":888}]","","","","","","","","","","","","","","","","","","","","","","","",""
"","","","","","choice_trial_setup","html-keyboard-response","84","319313","0.0-5.0-0.0","150","1","2025-04-14 14:14:41","bb671e3ae32f654b8954ea4c4635f915","","Mozilla/5.0 (Windows NT 11.0; Win64; x64) AppleWebKit/537.36 (KHTML, like Gecko) Chrome/131.0.0.0 Safari/537.36","WebKit","Chrome","131.0.0.0","Windows","11.0","https://hz8g1ckzuq.cognition.run/","en,en-US;q=0.9","ya0twabdvbfdtyx","41","[""White""]","Yes","Female","505831.5","null","","<p></p>","null","choice","tcd","attraction_2","2","televisions","null","null","null","null","null","null","2","","","","","","","","","",""
"","","","","","choice_trial","survey-html-form","85","324521","0.0-5.0-1.0","150","1","2025-04-14 14:14:41","bb671e3ae32f654b8954ea4c4635f915","","Mozilla/5.0 (Windows NT 11.0; Win64; x64) AppleWebKit/537.36 (KHTML, like Gecko) Chrome/131.0.0.0 Safari/537.36","WebKit","Chrome","131.0.0.0","Windows","11.0","https://hz8g1ckzuq.cognition.run/","en,en-US;q=0.9","ya0twabdvbfdtyx","41","[""White""]","Yes","Female","505831.5","5188","","","{""product_choice"":""A""}","choice","tcd","attraction_2","2","televisions","null","null","null","null","null","null","2","50","60","40","60","50","60","Screen size","Average lifespan","",""
"","","","","","choice_trial_setup","html-keyboard-response","86","324825","0.0-5.0-0.1","150","1","2025-04-14 14:14:41","bb671e3ae32f654b8954ea4c4635f915","","Mozilla/5.0 (Windows NT 11.0; Win64; x64) AppleWebKit/537.36 (KHTML, like Gecko) Chrome/131.0.0.0 Safari/537.36","WebKit","Chrome","131.0.0.0","Windows","11.0","https://hz8g1ckzuq.cognition.run/","en,en-US;q=0.9","ya0twabdvbfdtyx","41","[""White""]","Yes","Female","505831.5","null","","<p></p>","null","choice","bww","catch","null","washing machines","85","50","30","50","45","20","1","","","","","","","","","",""
"","","","","","choice_trial","survey-html-form","87","326848","0.0-5.0-1.1","150","1","2025-04-14 14:14:41","bb671e3ae32f654b8954ea4c4635f915","","Mozilla/5.0 (Windows NT 11.0; Win64; x64) AppleWebKit/537.36 (KHTML, like Gecko) Chrome/131.0.0.0 Safari/537.36","WebKit","Chrome","131.0.0.0","Windows","11.0","https://hz8g1ckzuq.cognition.run/","en,en-US;q=0.9","ya0twabdvbfdtyx","41","[""White""]","Yes","Female","505831.5","2003","","","{""product_choice"":""A""}","choice","bww","catch","null","washing machines","85","50","30","50","45","20","1","null","null","null","null","null","null","Average lifespan","Energy savings","",""
"","","","","","choice_trial_setup","html-keyboard-response","88","327153","0.0-5.0-0.2","150","1","2025-04-14 14:14:41","bb671e3ae32f654b8954ea4c4635f915","","Mozilla/5.0 (Windows NT 11.0; Win64; x64) AppleWebKit/537.36 (KHTML, like Gecko) Chrome/131.0.0.0 Safari/537.36","WebKit","Chrome","131.0.0.0","Windows","11.0","https://hz8g1ckzuq.cognition.run/","en,en-US;q=0.9","ya0twabdvbfdtyx","41","[""White""]","Yes","Female","505831.5","null","","<p></p>","null","choice","tcd","attraction_2","1","televisions","null","null","null","null","null","null","2","","","","","","","","","",""
"","","","","","choice_trial","survey-html-form","89","328456","0.0-5.0-1.2","150","1","2025-04-14 14:14:41","bb671e3ae32f654b8954ea4c4635f915","","Mozilla/5.0 (Windows NT 11.0; Win64; x64) AppleWebKit/537.36 (KHTML, like Gecko) Chrome/131.0.0.0 Safari/537.36","WebKit","Chrome","131.0.0.0","Windows","11.0","https://hz8g1ckzuq.cognition.run/","en,en-US;q=0.9","ya0twabdvbfdtyx","41","[""White""]","Yes","Female","505831.5","1298","","","{""product_choice"":""A""}","choice","tcd","attraction_2","1","televisions","null","null","null","null","null","null","2","60","50","60","50","60","40","Screen size","Average lifespan","",""
"","","","","","choice_trial_setup","html-keyboard-response","90","328759","0.0-5.0-0.3","150","1","2025-04-14 14:14:41","bb671e3ae32f654b8954ea4c4635f915","","Mozilla/5.0 (Windows NT 11.0; Win64; x64) AppleWebKit/537.36 (KHTML, like Gecko) Chrome/131.0.0.0 Safari/537.36","WebKit","Chrome","131.0.0.0","Windows","11.0","https://hz8g1ckzuq.cognition.run/","en,en-US;q=0.9","ya0twabdvbfdtyx","41","[""White""]","Yes","Female","505831.5","null","","<p></p>","null","choice","dct","repulsion_1","2","microwave ovens","null","null","null","null","null","null","2","","","","","","","","","",""
"","","","","","choice_trial","survey-html-form","91","330297","0.0-5.0-1.3","150","1","2025-04-14 14:14:41","bb671e3ae32f654b8954ea4c4635f915","","Mozilla/5.0 (Windows NT 11.0; Win64; x64) AppleWebKit/537.36 (KHTML, like Gecko) Chrome/131.0.0.0 Safari/537.36","WebKit","Chrome","131.0.0.0","Windows","11.0","https://hz8g1ckzuq.cognition.run/","en,en-US;q=0.9","ya0twabdvbfdtyx","41","[""White""]","Yes","Female","505831.5","1530","","","{""product_choice"":""B""}","choice","dct","repulsion_1","2","microwave ovens","null","null","null","null","null","null","2","30","40","25","100","90","100","Warranty","Cooking power","",""
"","","","","","choice_trial_setup","html-keyboard-response","92","330603","0.0-5.0-0.4","150","1","2025-04-14 14:14:41","bb671e3ae32f654b8954ea4c4635f915","","Mozilla/5.0 (Windows NT 11.0; Win64; x64) AppleWebKit/537.36 (KHTML, like Gecko) Chrome/131.0.0.0 Safari/537.36","WebKit","Chrome","131.0.0.0","Windows","11.0","https://hz8g1ckzuq.cognition.run/","en,en-US;q=0.9","ya0twabdvbfdtyx","41","[""White""]","Yes","Female","505831.5","null","","<p></p>","null","choice","cdt","attraction_1","1","washing machines","null","null","null","null","null","null","2","","","","","","","","","",""
"","","","","","choice_trial","survey-html-form","93","331769","0.0-5.0-1.4","150","1","2025-04-14 14:14:41","bb671e3ae32f654b8954ea4c4635f915","","Mozilla/5.0 (Windows NT 11.0; Win64; x64) AppleWebKit/537.36 (KHTML, like Gecko) Chrome/131.0.0.0 Safari/537.36","WebKit","Chrome","131.0.0.0","Windows","11.0","https://hz8g1ckzuq.cognition.run/","en,en-US;q=0.9","ya0twabdvbfdtyx","41","[""White""]","Yes","Female","505831.5","1151","","","{""product_choice"":""A""}","choice","cdt","attraction_1","1","washing machines","null","null","null","null","null","null","2","60","50","60","50","60","45","Average lifespan","Energy savings","",""
"","","","","","choice_trial_setup","html-keyboard-response","94","332074","0.0-5.0-0.5","150","1","2025-04-14 14:14:41","bb671e3ae32f654b8954ea4c4635f915","","Mozilla/5.0 (Windows NT 11.0; Win64; x64) AppleWebKit/537.36 (KHTML, like Gecko) Chrome/131.0.0.0 Safari/537.36","WebKit","Chrome","131.0.0.0","Windows","11.0","https://hz8g1ckzuq.cognition.run/","en,en-US;q=0.9","ya0twabdvbfdtyx","41","[""White""]","Yes","Female","505831.5","null","","<p></p>","null","choice","tcd","repulsion_1","1","televisions","null","null","null","null","null","null","1","","","","","","","","","",""
"","","","","","choice_trial","survey-html-form","95","333705","0.0-5.0-1.5","150","1","2025-04-14 14:14:41","bb671e3ae32f654b8954ea4c4635f915","","Mozilla/5.0 (Windows NT 11.0; Win64; x64) AppleWebKit/537.36 (KHTML, like Gecko) Chrome/131.0.0.0 Safari/537.36","WebKit","Chrome","131.0.0.0","Windows","11.0","https://hz8g1ckzuq.cognition.run/","en,en-US;q=0.9","ya0twabdvbfdtyx","41","[""White""]","Yes","Female","505831.5","1624","","","{""product_choice"":""A""}","choice","tcd","repulsion_1","1","televisions","null","null","null","null","null","null","1","100","90","100","30","40","25","Screen size","Average lifespan","",""
"","","","","","choice_trial_setup","html-keyboard-response","96","334009","0.0-5.0-0.6","150","1","2025-04-14 14:14:41","bb671e3ae32f654b8954ea4c4635f915","","Mozilla/5.0 (Windows NT 11.0; Win64; x64) AppleWebKit/537.36 (KHTML, like Gecko) Chrome/131.0.0.0 Safari/537.36","WebKit","Chrome","131.0.0.0","Windows","11.0","https://hz8g1ckzuq.cognition.run/","en,en-US;q=0.9","ya0twabdvbfdtyx","41","[""White""]","Yes","Female","505831.5","null","","<p></p>","null","choice","wbw","catch","null","televisions","65","80","40","25","10","20","1","","","","","","","","","",""
"","","","","","choice_trial","survey-html-form","97","336600","0.0-5.0-1.6","150","1","2025-04-14 14:14:41","bb671e3ae32f654b8954ea4c4635f915","","Mozilla/5.0 (Windows NT 11.0; Win64; x64) AppleWebKit/537.36 (KHTML, like Gecko) Chrome/131.0.0.0 Safari/537.36","WebKit","Chrome","131.0.0.0","Windows","11.0","https://hz8g1ckzuq.cognition.run/","en,en-US;q=0.9","ya0twabdvbfdtyx","41","[""White""]","Yes","Female","505831.5","2586","","","{""product_choice"":""A""}","choice","wbw","catch","null","televisions","65","80","40","25","10","20","1","null","null","null","null","null","null","Screen size","Average lifespan","",""
"","","","","","choice_trial_setup","html-keyboard-response","98","336904","0.0-5.0-0.7","150","1","2025-04-14 14:14:41","bb671e3ae32f654b8954ea4c4635f915","","Mozilla/5.0 (Windows NT 11.0; Win64; x64) AppleWebKit/537.36 (KHTML, like Gecko) Chrome/131.0.0.0 Safari/537.36","WebKit","Chrome","131.0.0.0","Windows","11.0","https://hz8g1ckzuq.cognition.run/","en,en-US;q=0.9","ya0twabdvbfdtyx","41","[""White""]","Yes","Female","505831.5","null","","<p></p>","null","choice","bww","catch","null","laptops","90","85","15","40","5","25","1","","","","","","","","","",""
"","","","","","choice_trial","survey-html-form","99","338248","0.0-5.0-1.7","150","1","2025-04-14 14:14:41","bb671e3ae32f654b8954ea4c4635f915","","Mozilla/5.0 (Windows NT 11.0; Win64; x64) AppleWebKit/537.36 (KHTML, like Gecko) Chrome/131.0.0.0 Safari/537.36","WebKit","Chrome","131.0.0.0","Windows","11.0","https://hz8g1ckzuq.cognition.run/","en,en-US;q=0.9","ya0twabdvbfdtyx","41","[""White""]","Yes","Female","505831.5","1326","","","{""product_choice"":""B""}","choice","bww","catch","null","laptops","90","85","15","40","5","25","1","null","null","null","null","null","null","Processing speed","Memory (RAM)","",""
"","","","","","choice_trial_setup","html-keyboard-response","100","338554","0.0-5.0-0.8","150","1","2025-04-14 14:14:41","bb671e3ae32f654b8954ea4c4635f915","","Mozilla/5.0 (Windows NT 11.0; Win64; x64) AppleWebKit/537.36 (KHTML, like Gecko) Chrome/131.0.0.0 Safari/537.36","WebKit","Chrome","131.0.0.0","Windows","11.0","https://hz8g1ckzuq.cognition.run/","en,en-US;q=0.9","ya0twabdvbfdtyx","41","[""White""]","Yes","Female","505831.5","null","","<p></p>","null","choice","dtc","attraction_2","1","washing machines","null","null","null","null","null","null","2","","","","","","","","","",""
"","","","","","choice_trial","survey-html-form","101","340265","0.0-5.0-1.8","150","1","2025-04-14 14:14:41","bb671e3ae32f654b8954ea4c4635f915","","Mozilla/5.0 (Windows NT 11.0; Win64; x64) AppleWebKit/537.36 (KHTML, like Gecko) Chrome/131.0.0.0 Safari/537.36","WebKit","Chrome","131.0.0.0","Windows","11.0","https://hz8g1ckzuq.cognition.run/","en,en-US;q=0.9","ya0twabdvbfdtyx","41","[""White""]","Yes","Female","505831.5","1696","","","{""product_choice"":""A""}","choice","dtc","attraction_2","1","washing machines","null","null","null","null","null","null","2","60","50","60","50","60","40","Average lifespan","Energy savings","",""
"","","","","","choice_trial_setup","html-keyboard-response","102","340572","0.0-5.0-0.9","150","1","2025-04-14 14:14:41","bb671e3ae32f654b8954ea4c4635f915","","Mozilla/5.0 (Windows NT 11.0; Win64; x64) AppleWebKit/537.36 (KHTML, like Gecko) Chrome/131.0.0.0 Safari/537.36","WebKit","Chrome","131.0.0.0","Windows","11.0","https://hz8g1ckzuq.cognition.run/","en,en-US;q=0.9","ya0twabdvbfdtyx","41","[""White""]","Yes","Female","505831.5","null","","<p></p>","null","choice","dtc","repulsion_2","2","televisions","null","null","null","null","null","null","2","","","","","","","","","",""
"","","","","","choice_trial","survey-html-form","103","344098","0.0-5.0-1.9","150","1","2025-04-14 14:14:41","bb671e3ae32f654b8954ea4c4635f915","","Mozilla/5.0 (Windows NT 11.0; Win64; x64) AppleWebKit/537.36 (KHTML, like Gecko) Chrome/131.0.0.0 Safari/537.36","WebKit","Chrome","131.0.0.0","Windows","11.0","https://hz8g1ckzuq.cognition.run/","en,en-US;q=0.9","ya0twabdvbfdtyx","41","[""White""]","Yes","Female","505831.5","3509","","","{""product_choice"":""A""}","choice","dtc","repulsion_2","2","televisions","null","null","null","null","null","null","2","30","40","20","100","90","100","Screen size","Average lifespan","",""
"","","","","","choice_trial_setup","html-keyboard-response","104","344402","0.0-5.0-0.10","150","1","2025-04-14 14:14:41","bb671e3ae32f654b8954ea4c4635f915","","Mozilla/5.0 (Windows NT 11.0; Win64; x64) AppleWebKit/537.36 (KHTML, like Gecko) Chrome/131.0.0.0 Safari/537.36","WebKit","Chrome","131.0.0.0","Windows","11.0","https://hz8g1ckzuq.cognition.run/","en,en-US;q=0.9","ya0twabdvbfdtyx","41","[""White""]","Yes","Female","505831.5","null","","<p></p>","null","choice","wbw","catch","null","laptops","75","60","10","5","45","30","1","","","","","","","","","",""
"","","","","","choice_trial","survey-html-form","105","345728","0.0-5.0-1.10","150","1","2025-04-14 14:14:41","bb671e3ae32f654b8954ea4c4635f915","","Mozilla/5.0 (Windows NT 11.0; Win64; x64) AppleWebKit/537.36 (KHTML, like Gecko) Chrome/131.0.0.0 Safari/537.36","WebKit","Chrome","131.0.0.0","Windows","11.0","https://hz8g1ckzuq.cognition.run/","en,en-US;q=0.9","ya0twabdvbfdtyx","41","[""White""]","Yes","Female","505831.5","1308","","","{""product_choice"":""B""}","choice","wbw","catch","null","laptops","75","60","10","5","45","30","1","null","null","null","null","null","null","Processing speed","Memory (RAM)","",""
"","","","","","choice_trial_setup","html-keyboard-response","106","346032","0.0-5.0-0.11","150","1","2025-04-14 14:14:41","bb671e3ae32f654b8954ea4c4635f915","","Mozilla/5.0 (Windows NT 11.0; Win64; x64) AppleWebKit/537.36 (KHTML, like Gecko) Chrome/131.0.0.0 Safari/537.36","WebKit","Chrome","131.0.0.0","Windows","11.0","https://hz8g1ckzuq.cognition.run/","en,en-US;q=0.9","ya0twabdvbfdtyx","41","[""White""]","Yes","Female","505831.5","null","","<p></p>","null","choice","tcd","attraction_2","1","laptops","null","null","null","null","null","null","2","","","","","","","","","",""
"","","","","","choice_trial","survey-html-form","107","347113","0.0-5.0-1.11","150","1","2025-04-14 14:14:41","bb671e3ae32f654b8954ea4c4635f915","","Mozilla/5.0 (Windows NT 11.0; Win64; x64) AppleWebKit/537.36 (KHTML, like Gecko) Chrome/131.0.0.0 Safari/537.36","WebKit","Chrome","131.0.0.0","Windows","11.0","https://hz8g1ckzuq.cognition.run/","en,en-US;q=0.9","ya0twabdvbfdtyx","41","[""White""]","Yes","Female","505831.5","1064","","","{""product_choice"":""A""}","choice","tcd","attraction_2","1","laptops","null","null","null","null","null","null","2","60","50","60","50","60","40","Processing speed","Memory (RAM)","",""
"","","","","","choice_trial_setup","html-keyboard-response","108","347417","0.0-5.0-0.12","150","1","2025-04-14 14:14:41","bb671e3ae32f654b8954ea4c4635f915","","Mozilla/5.0 (Windows NT 11.0; Win64; x64) AppleWebKit/537.36 (KHTML, like Gecko) Chrome/131.0.0.0 Safari/537.36","WebKit","Chrome","131.0.0.0","Windows","11.0","https://hz8g1ckzuq.cognition.run/","en,en-US;q=0.9","ya0twabdvbfdtyx","41","[""White""]","Yes","Female","505831.5","null","","<p></p>","null","choice","cdt","attraction_2","2","washing machines","null","null","null","null","null","null","1","","","","","","","","","",""
"","","","","","choice_trial","survey-html-form","109","348464","0.0-5.0-1.12","150","1","2025-04-14 14:14:41","bb671e3ae32f654b8954ea4c4635f915","","Mozilla/5.0 (Windows NT 11.0; Win64; x64) AppleWebKit/537.36 (KHTML, like Gecko) Chrome/131.0.0.0 Safari/537.36","WebKit","Chrome","131.0.0.0","Windows","11.0","https://hz8g1ckzuq.cognition.run/","en,en-US;q=0.9","ya0twabdvbfdtyx","41","[""White""]","Yes","Female","505831.5","1034","","","{""product_choice"":""A""}","choice","cdt","attraction_2","2","washing machines","null","null","null","null","null","null","1","50","60","40","60","50","60","Average lifespan","Energy savings","",""
"","","","","","choice_trial_setup","html-keyboard-response","110","348769","0.0-5.0-0.13","150","1","2025-04-14 14:14:41","bb671e3ae32f654b8954ea4c4635f915","","Mozilla/5.0 (Windows NT 11.0; Win64; x64) AppleWebKit/537.36 (KHTML, like Gecko) Chrome/131.0.0.0 Safari/537.36","WebKit","Chrome","131.0.0.0","Windows","11.0","https://hz8g1ckzuq.cognition.run/","en,en-US;q=0.9","ya0twabdvbfdtyx","41","[""White""]","Yes","Female","505831.5","null","","<p></p>","null","choice","bww","catch","null","microwave ovens","80","90","15","40","25","35","2","","","","","","","","","",""
"","","","","","choice_trial","survey-html-form","111","349938","0.0-5.0-1.13","150","1","2025-04-14 14:14:41","bb671e3ae32f654b8954ea4c4635f915","","Mozilla/5.0 (Windows NT 11.0; Win64; x64) AppleWebKit/537.36 (KHTML, like Gecko) Chrome/131.0.0.0 Safari/537.36","WebKit","Chrome","131.0.0.0","Windows","11.0","https://hz8g1ckzuq.cognition.run/","en,en-US;q=0.9","ya0twabdvbfdtyx","41","[""White""]","Yes","Female","505831.5","1151","","","{""product_choice"":""A""}","choice","bww","catch","null","microwave ovens","80","90","15","40","25","35","2","null","null","null","null","null","null","Warranty","Cooking power","",""
"","","","","","choice_trial_setup","html-keyboard-response","112","350243","0.0-5.0-0.14","150","1","2025-04-14 14:14:41","bb671e3ae32f654b8954ea4c4635f915","","Mozilla/5.0 (Windows NT 11.0; Win64; x64) AppleWebKit/537.36 (KHTML, like Gecko) Chrome/131.0.0.0 Safari/537.36","WebKit","Chrome","131.0.0.0","Windows","11.0","https://hz8g1ckzuq.cognition.run/","en,en-US;q=0.9","ya0twabdvbfdtyx","41","[""White""]","Yes","Female","505831.5","null","","<p></p>","null","choice","tdc","attraction_1","2","televisions","null","null","null","null","null","null","2","","","","","","","","","",""
"","","","","","choice_trial","survey-html-form","113","366241","0.0-5.0-1.14","150","1","2025-04-14 14:14:41","bb671e3ae32f654b8954ea4c4635f915","","Mozilla/5.0 (Windows NT 11.0; Win64; x64) AppleWebKit/537.36 (KHTML, like Gecko) Chrome/131.0.0.0 Safari/537.36","WebKit","Chrome","131.0.0.0","Windows","11.0","https://hz8g1ckzuq.cognition.run/","en,en-US;q=0.9","ya0twabdvbfdtyx","41","[""White""]","Yes","Female","505831.5","15981","","","{""product_choice"":""A""}","choice","tdc","attraction_1","2","televisions","null","null","null","null","null","null","2","50","60","45","60","50","60","Screen size","Average lifespan","",""
"","","","","","choice_trial_setup","html-keyboard-response","114","366545","0.0-5.0-0.15","150","1","2025-04-14 14:14:41","bb671e3ae32f654b8954ea4c4635f915","","Mozilla/5.0 (Windows NT 11.0; Win64; x64) AppleWebKit/537.36 (KHTML, like Gecko) Chrome/131.0.0.0 Safari/537.36","WebKit","Chrome","131.0.0.0","Windows","11.0","https://hz8g1ckzuq.cognition.run/","en,en-US;q=0.9","ya0twabdvbfdtyx","41","[""White""]","Yes","Female","505831.5","null","","<p></p>","null","choice","bww","catch","null","televisions","55","90","50","25","25","35","1","","","","","","","","","",""
"","","","","","choice_trial","survey-html-form","115","368609","0.0-5.0-1.15","150","1","2025-04-14 14:14:41","bb671e3ae32f654b8954ea4c4635f915","","Mozilla/5.0 (Windows NT 11.0; Win64; x64) AppleWebKit/537.36 (KHTML, like Gecko) Chrome/131.0.0.0 Safari/537.36","WebKit","Chrome","131.0.0.0","Windows","11.0","https://hz8g1ckzuq.cognition.run/","en,en-US;q=0.9","ya0twabdvbfdtyx","41","[""White""]","Yes","Female","505831.5","2055","","","{""product_choice"":""B""}","choice","bww","catch","null","televisions","55","90","50","25","25","35","1","null","null","null","null","null","null","Screen size","Average lifespan","",""
"","","","","","choice_trial_setup","html-keyboard-response","116","368913","0.0-5.0-0.16","150","1","2025-04-14 14:14:41","bb671e3ae32f654b8954ea4c4635f915","","Mozilla/5.0 (Windows NT 11.0; Win64; x64) AppleWebKit/537.36 (KHTML, like Gecko) Chrome/131.0.0.0 Safari/537.36","WebKit","Chrome","131.0.0.0","Windows","11.0","https://hz8g1ckzuq.cognition.run/","en,en-US;q=0.9","ya0twabdvbfdtyx","41","[""White""]","Yes","Female","505831.5","null","","<p></p>","null","choice","tcd","attraction_1","1","televisions","null","null","null","null","null","null","1","","","","","","","","","",""
"","","","","","choice_trial","survey-html-form","117","370080","0.0-5.0-1.16","150","1","2025-04-14 14:14:41","bb671e3ae32f654b8954ea4c4635f915","","Mozilla/5.0 (Windows NT 11.0; Win64; x64) AppleWebKit/537.36 (KHTML, like Gecko) Chrome/131.0.0.0 Safari/537.36","WebKit","Chrome","131.0.0.0","Windows","11.0","https://hz8g1ckzuq.cognition.run/","en,en-US;q=0.9","ya0twabdvbfdtyx","41","[""White""]","Yes","Female","505831.5","1150","","","{""product_choice"":""A""}","choice","tcd","attraction_1","1","televisions","null","null","null","null","null","null","1","60","50","60","50","60","45","Screen size","Average lifespan","",""
"","","","","","choice_trial_setup","html-keyboard-response","118","370385","0.0-5.0-0.17","150","1","2025-04-14 14:14:41","bb671e3ae32f654b8954ea4c4635f915","","Mozilla/5.0 (Windows NT 11.0; Win64; x64) AppleWebKit/537.36 (KHTML, like Gecko) Chrome/131.0.0.0 Safari/537.36","WebKit","Chrome","131.0.0.0","Windows","11.0","https://hz8g1ckzuq.cognition.run/","en,en-US;q=0.9","ya0twabdvbfdtyx","41","[""White""]","Yes","Female","505831.5","null","","<p></p>","null","choice","cdt","attraction_1","1","laptops","null","null","null","null","null","null","1","","","","","","","","","",""
"","","","","","choice_trial","survey-html-form","119","385136","0.0-5.0-1.17","150","1","2025-04-14 14:14:41","bb671e3ae32f654b8954ea4c4635f915","","Mozilla/5.0 (Windows NT 11.0; Win64; x64) AppleWebKit/537.36 (KHTML, like Gecko) Chrome/131.0.0.0 Safari/537.36","WebKit","Chrome","131.0.0.0","Windows","11.0","https://hz8g1ckzuq.cognition.run/","en,en-US;q=0.9","ya0twabdvbfdtyx","41","[""White""]","Yes","Female","505831.5","14747","","","{""product_choice"":""A""}","choice","cdt","attraction_1","1","laptops","null","null","null","null","null","null","1","60","50","60","50","60","45","Processing speed","Memory (RAM)","",""
"","","","","","choice_trial_setup","html-keyboard-response","120","385442","0.0-5.0-0.18","150","1","2025-04-14 14:14:41","bb671e3ae32f654b8954ea4c4635f915","","Mozilla/5.0 (Windows NT 11.0; Win64; x64) AppleWebKit/537.36 (KHTML, like Gecko) Chrome/131.0.0.0 Safari/537.36","WebKit","Chrome","131.0.0.0","Windows","11.0","https://hz8g1ckzuq.cognition.run/","en,en-US;q=0.9","ya0twabdvbfdtyx","41","[""White""]","Yes","Female","505831.5","null","","<p></p>","null","choice","tdc","repulsion_1","1","washing machines","null","null","null","null","null","null","2","","","","","","","","","",""
"","","","","","choice_trial","survey-html-form","121","386408","0.0-5.0-1.18","150","1","2025-04-14 14:14:41","bb671e3ae32f654b8954ea4c4635f915","","Mozilla/5.0 (Windows NT 11.0; Win64; x64) AppleWebKit/537.36 (KHTML, like Gecko) Chrome/131.0.0.0 Safari/537.36","WebKit","Chrome","131.0.0.0","Windows","11.0","https://hz8g1ckzuq.cognition.run/","en,en-US;q=0.9","ya0twabdvbfdtyx","41","[""White""]","Yes","Female","505831.5","955","","","{""product_choice"":""B""}","choice","tdc","repulsion_1","1","washing machines","null","null","null","null","null","null","2","100","90","100","30","40","25","Average lifespan","Energy savings","",""
"","","","","","choice_trial_setup","html-keyboard-response","122","386713","0.0-5.0-0.19","150","1","2025-04-14 14:14:41","bb671e3ae32f654b8954ea4c4635f915","","Mozilla/5.0 (Windows NT 11.0; Win64; x64) AppleWebKit/537.36 (KHTML, like Gecko) Chrome/131.0.0.0 Safari/537.36","WebKit","Chrome","131.0.0.0","Windows","11.0","https://hz8g1ckzuq.cognition.run/","en,en-US;q=0.9","ya0twabdvbfdtyx","41","[""White""]","Yes","Female","505831.5","null","","<p></p>","null","choice","tdc","repulsion_1","2","washing machines","null","null","null","null","null","null","2","","","","","","","","","",""
"","","","","","choice_trial","survey-html-form","123","387784","0.0-5.0-1.19","150","1","2025-04-14 14:14:41","bb671e3ae32f654b8954ea4c4635f915","","Mozilla/5.0 (Windows NT 11.0; Win64; x64) AppleWebKit/537.36 (KHTML, like Gecko) Chrome/131.0.0.0 Safari/537.36","WebKit","Chrome","131.0.0.0","Windows","11.0","https://hz8g1ckzuq.cognition.run/","en,en-US;q=0.9","ya0twabdvbfdtyx","41","[""White""]","Yes","Female","505831.5","1067","","","{""product_choice"":""A""}","choice","tdc","repulsion_1","2","washing machines","null","null","null","null","null","null","2","30","40","25","100","90","100","Average lifespan","Energy savings","",""
"","","","","","choice_trial_setup","html-keyboard-response","124","388092","0.0-5.0-0.20","150","1","2025-04-14 14:14:41","bb671e3ae32f654b8954ea4c4635f915","","Mozilla/5.0 (Windows NT 11.0; Win64; x64) AppleWebKit/537.36 (KHTML, like Gecko) Chrome/131.0.0.0 Safari/537.36","WebKit","Chrome","131.0.0.0","Windows","11.0","https://hz8g1ckzuq.cognition.run/","en,en-US;q=0.9","ya0twabdvbfdtyx","41","[""White""]","Yes","Female","505831.5","null","","<p></p>","null","choice","cdt","attraction_2","2","microwave ovens","null","null","null","null","null","null","2","","","","","","","","","",""
"","","","","","choice_trial","survey-html-form","125","389145","0.0-5.0-1.20","150","1","2025-04-14 14:14:41","bb671e3ae32f654b8954ea4c4635f915","","Mozilla/5.0 (Windows NT 11.0; Win64; x64) AppleWebKit/537.36 (KHTML, like Gecko) Chrome/131.0.0.0 Safari/537.36","WebKit","Chrome","131.0.0.0","Windows","11.0","https://hz8g1ckzuq.cognition.run/","en,en-US;q=0.9","ya0twabdvbfdtyx","41","[""White""]","Yes","Female","505831.5","1035","","","{""product_choice"":""A""}","choice","cdt","attraction_2","2","microwave ovens","null","null","null","null","null","null","2","50","60","40","60","50","60","Warranty","Cooking power","",""
"","","","","","choice_trial_setup","html-keyboard-response","126","389449","0.0-5.0-0.21","150","1","2025-04-14 14:14:41","bb671e3ae32f654b8954ea4c4635f915","","Mozilla/5.0 (Windows NT 11.0; Win64; x64) AppleWebKit/537.36 (KHTML, like Gecko) Chrome/131.0.0.0 Safari/537.36","WebKit","Chrome","131.0.0.0","Windows","11.0","https://hz8g1ckzuq.cognition.run/","en,en-US;q=0.9","ya0twabdvbfdtyx","41","[""White""]","Yes","Female","505831.5","null","","<p></p>","null","choice","cdt","repulsion_1","1","laptops","null","null","null","null","null","null","2","","","","","","","","","",""
"","","","","","choice_trial","survey-html-form","127","390768","0.0-5.0-1.21","150","1","2025-04-14 14:14:41","bb671e3ae32f654b8954ea4c4635f915","","Mozilla/5.0 (Windows NT 11.0; Win64; x64) AppleWebKit/537.36 (KHTML, like Gecko) Chrome/131.0.0.0 Safari/537.36","WebKit","Chrome","131.0.0.0","Windows","11.0","https://hz8g1ckzuq.cognition.run/","en,en-US;q=0.9","ya0twabdvbfdtyx","41","[""White""]","Yes","Female","505831.5","1312","","","{""product_choice"":""B""}","choice","cdt","repulsion_1","1","laptops","null","null","null","null","null","null","2","100","90","100","30","40","25","Processing speed","Memory (RAM)","",""
"","","","","","choice_trial_setup","html-keyboard-response","128","391076","0.0-5.0-0.22","150","1","2025-04-14 14:14:41","bb671e3ae32f654b8954ea4c4635f915","","Mozilla/5.0 (Windows NT 11.0; Win64; x64) AppleWebKit/537.36 (KHTML, like Gecko) Chrome/131.0.0.0 Safari/537.36","WebKit","Chrome","131.0.0.0","Windows","11.0","https://hz8g1ckzuq.cognition.run/","en,en-US;q=0.9","ya0twabdvbfdtyx","41","[""White""]","Yes","Female","505831.5","null","","<p></p>","null","choice","tcd","repulsion_1","2","televisions","null","null","null","null","null","null","1","","","","","","","","","",""
"","","","","","choice_trial","survey-html-form","129","392096","0.0-5.0-1.22","150","1","2025-04-14 14:14:41","bb671e3ae32f654b8954ea4c4635f915","","Mozilla/5.0 (Windows NT 11.0; Win64; x64) AppleWebKit/537.36 (KHTML, like Gecko) Chrome/131.0.0.0 Safari/537.36","WebKit","Chrome","131.0.0.0","Windows","11.0","https://hz8g1ckzuq.cognition.run/","en,en-US;q=0.9","ya0twabdvbfdtyx","41","[""White""]","Yes","Female","505831.5","1011","","","{""product_choice"":""A""}","choice","tcd","repulsion_1","2","televisions","null","null","null","null","null","null","1","30","40","25","100","90","100","Screen size","Average lifespan","",""
"","","","","","choice_trial_setup","html-keyboard-response","130","392402","0.0-5.0-0.23","150","1","2025-04-14 14:14:41","bb671e3ae32f654b8954ea4c4635f915","","Mozilla/5.0 (Windows NT 11.0; Win64; x64) AppleWebKit/537.36 (KHTML, like Gecko) Chrome/131.0.0.0 Safari/537.36","WebKit","Chrome","131.0.0.0","Windows","11.0","https://hz8g1ckzuq.cognition.run/","en,en-US;q=0.9","ya0twabdvbfdtyx","41","[""White""]","Yes","Female","505831.5","null","","<p></p>","null","choice","wwb","catch","null","microwave ovens","60","95","30","5","20","35","1","","","","","","","","","",""
"","","","","","choice_trial","survey-html-form","131","394376","0.0-5.0-1.23","150","1","2025-04-14 14:14:41","bb671e3ae32f654b8954ea4c4635f915","","Mozilla/5.0 (Windows NT 11.0; Win64; x64) AppleWebKit/537.36 (KHTML, like Gecko) Chrome/131.0.0.0 Safari/537.36","WebKit","Chrome","131.0.0.0","Windows","11.0","https://hz8g1ckzuq.cognition.run/","en,en-US;q=0.9","ya0twabdvbfdtyx","41","[""White""]","Yes","Female","505831.5","1954","","","{""product_choice"":""B""}","choice","wwb","catch","null","microwave ovens","60","95","30","5","20","35","1","null","null","null","null","null","null","Warranty","Cooking power","",""
"","","","","","choice_trial_setup","html-keyboard-response","132","394682","0.0-5.0-0.24","150","1","2025-04-14 14:14:41","bb671e3ae32f654b8954ea4c4635f915","","Mozilla/5.0 (Windows NT 11.0; Win64; x64) AppleWebKit/537.36 (KHTML, like Gecko) Chrome/131.0.0.0 Safari/537.36","WebKit","Chrome","131.0.0.0","Windows","11.0","https://hz8g1ckzuq.cognition.run/","en,en-US;q=0.9","ya0twabdvbfdtyx","41","[""White""]","Yes","Female","505831.5","null","","<p></p>","null","choice","tdc","repulsion_1","2","laptops","null","null","null","null","null","null","2","","","","","","","","","",""
"","","","","","choice_trial","survey-html-form","133","430458","0.0-5.0-1.24","150","1","2025-04-14 14:14:41","bb671e3ae32f654b8954ea4c4635f915","","Mozilla/5.0 (Windows NT 11.0; Win64; x64) AppleWebKit/537.36 (KHTML, like Gecko) Chrome/131.0.0.0 Safari/537.36","WebKit","Chrome","131.0.0.0","Windows","11.0","https://hz8g1ckzuq.cognition.run/","en,en-US;q=0.9","ya0twabdvbfdtyx","41","[""White""]","Yes","Female","505831.5","35746","","","{""product_choice"":""B""}","choice","tdc","repulsion_1","2","laptops","null","null","null","null","null","null","2","30","40","25","100","90","100","Processing speed","Memory (RAM)","",""
"","","","","","choice_trial_setup","html-keyboard-response","134","430764","0.0-5.0-0.25","150","1","2025-04-14 14:14:41","bb671e3ae32f654b8954ea4c4635f915","","Mozilla/5.0 (Windows NT 11.0; Win64; x64) AppleWebKit/537.36 (KHTML, like Gecko) Chrome/131.0.0.0 Safari/537.36","WebKit","Chrome","131.0.0.0","Windows","11.0","https://hz8g1ckzuq.cognition.run/","en,en-US;q=0.9","ya0twabdvbfdtyx","41","[""White""]","Yes","Female","505831.5","null","","<p></p>","null","choice","tcd","attraction_1","2","washing machines","null","null","null","null","null","null","2","","","","","","","","","",""
"","","","","","choice_trial","survey-html-form","135","433481","0.0-5.0-1.25","150","1","2025-04-14 14:14:41","bb671e3ae32f654b8954ea4c4635f915","","Mozilla/5.0 (Windows NT 11.0; Win64; x64) AppleWebKit/537.36 (KHTML, like Gecko) Chrome/131.0.0.0 Safari/537.36","WebKit","Chrome","131.0.0.0","Windows","11.0","https://hz8g1ckzuq.cognition.run/","en,en-US;q=0.9","ya0twabdvbfdtyx","41","[""White""]","Yes","Female","505831.5","2699","","","{""product_choice"":""A""}","choice","tcd","attraction_1","2","washing machines","null","null","null","null","null","null","2","50","60","45","60","50","60","Average lifespan","Energy savings","",""
"","","","","","choice_trial_setup","html-keyboard-response","136","433785","0.0-5.0-0.26","150","1","2025-04-14 14:14:41","bb671e3ae32f654b8954ea4c4635f915","","Mozilla/5.0 (Windows NT 11.0; Win64; x64) AppleWebKit/537.36 (KHTML, like Gecko) Chrome/131.0.0.0 Safari/537.36","WebKit","Chrome","131.0.0.0","Windows","11.0","https://hz8g1ckzuq.cognition.run/","en,en-US;q=0.9","ya0twabdvbfdtyx","41","[""White""]","Yes","Female","505831.5","null","","<p></p>","null","choice","bww","catch","null","washing machines","95","85","5","15","15","20","1","","","","","","","","","",""
"","","","","","choice_trial","survey-html-form","137","456913","0.0-5.0-1.26","150","1","2025-04-14 14:14:41","bb671e3ae32f654b8954ea4c4635f915","","Mozilla/5.0 (Windows NT 11.0; Win64; x64) AppleWebKit/537.36 (KHTML, like Gecko) Chrome/131.0.0.0 Safari/537.36","WebKit","Chrome","131.0.0.0","Windows","11.0","https://hz8g1ckzuq.cognition.run/","en,en-US;q=0.9","ya0twabdvbfdtyx","41","[""White""]","Yes","Female","505831.5","23110","","","{""product_choice"":""A""}","choice","bww","catch","null","washing machines","95","85","5","15","15","20","1","null","null","null","null","null","null","Average lifespan","Energy savings","",""
"","","","","","choice_trial_setup","html-keyboard-response","138","457220","0.0-5.0-0.27","150","1","2025-04-14 14:14:41","bb671e3ae32f654b8954ea4c4635f915","","Mozilla/5.0 (Windows NT 11.0; Win64; x64) AppleWebKit/537.36 (KHTML, like Gecko) Chrome/131.0.0.0 Safari/537.36","WebKit","Chrome","131.0.0.0","Windows","11.0","https://hz8g1ckzuq.cognition.run/","en,en-US;q=0.9","ya0twabdvbfdtyx","41","[""White""]","Yes","Female","505831.5","null","","<p></p>","null","choice","cdt","repulsion_2","1","televisions","null","null","null","null","null","null","2","","","","","","","","","",""
"","","","","","choice_trial","survey-html-form","139","460153","0.0-5.0-1.27","150","1","2025-04-14 14:14:41","bb671e3ae32f654b8954ea4c4635f915","","Mozilla/5.0 (Windows NT 11.0; Win64; x64) AppleWebKit/537.36 (KHTML, like Gecko) Chrome/131.0.0.0 Safari/537.36","WebKit","Chrome","131.0.0.0","Windows","11.0","https://hz8g1ckzuq.cognition.run/","en,en-US;q=0.9","ya0twabdvbfdtyx","41","[""White""]","Yes","Female","505831.5","2907","","","{""product_choice"":""A""}","choice","cdt","repulsion_2","1","televisions","null","null","null","null","null","null","2","100","90","100","30","40","20","Screen size","Average lifespan","",""
"","","","","","choice_trial_setup","html-keyboard-response","140","460461","0.0-5.0-0.28","150","1","2025-04-14 14:14:41","bb671e3ae32f654b8954ea4c4635f915","","Mozilla/5.0 (Windows NT 11.0; Win64; x64) AppleWebKit/537.36 (KHTML, like Gecko) Chrome/131.0.0.0 Safari/537.36","WebKit","Chrome","131.0.0.0","Windows","11.0","https://hz8g1ckzuq.cognition.run/","en,en-US;q=0.9","ya0twabdvbfdtyx","41","[""White""]","Yes","Female","505831.5","null","","<p></p>","null","choice","tdc","repulsion_2","2","washing machines","null","null","null","null","null","null","2","","","","","","","","","",""
"","","","","","choice_trial","survey-html-form","141","466656","0.0-5.0-1.28","150","1","2025-04-14 14:14:41","bb671e3ae32f654b8954ea4c4635f915","","Mozilla/5.0 (Windows NT 11.0; Win64; x64) AppleWebKit/537.36 (KHTML, like Gecko) Chrome/131.0.0.0 Safari/537.36","WebKit","Chrome","131.0.0.0","Windows","11.0","https://hz8g1ckzuq.cognition.run/","en,en-US;q=0.9","ya0twabdvbfdtyx","41","[""White""]","Yes","Female","505831.5","6179","","","{""product_choice"":""A""}","choice","tdc","repulsion_2","2","washing machines","null","null","null","null","null","null","2","30","40","20","100","90","100","Average lifespan","Energy savings","",""
"","","","","","choice_trial_setup","html-keyboard-response","142","466961","0.0-5.0-0.29","150","1","2025-04-14 14:14:41","bb671e3ae32f654b8954ea4c4635f915","","Mozilla/5.0 (Windows NT 11.0; Win64; x64) AppleWebKit/537.36 (KHTML, like Gecko) Chrome/131.0.0.0 Safari/537.36","WebKit","Chrome","131.0.0.0","Windows","11.0","https://hz8g1ckzuq.cognition.run/","en,en-US;q=0.9","ya0twabdvbfdtyx","41","[""White""]","Yes","Female","505831.5","null","","<p></p>","null","choice","tcd","attraction_1","1","microwave ovens","null","null","null","null","null","null","2","","","","","","","","","",""
"","","","","","choice_trial","survey-html-form","143","468849","0.0-5.0-1.29","150","1","2025-04-14 14:14:41","bb671e3ae32f654b8954ea4c4635f915","","Mozilla/5.0 (Windows NT 11.0; Win64; x64) AppleWebKit/537.36 (KHTML, like Gecko) Chrome/131.0.0.0 Safari/537.36","WebKit","Chrome","131.0.0.0","Windows","11.0","https://hz8g1ckzuq.cognition.run/","en,en-US;q=0.9","ya0twabdvbfdtyx","41","[""White""]","Yes","Female","505831.5","1871","","","{""product_choice"":""A""}","choice","tcd","attraction_1","1","microwave ovens","null","null","null","null","null","null","2","60","50","60","50","60","45","Warranty","Cooking power","",""
"","","","","","choice_trial_setup","html-keyboard-response","144","469154","0.0-5.0-0.30","150","1","2025-04-14 14:14:41","bb671e3ae32f654b8954ea4c4635f915","","Mozilla/5.0 (Windows NT 11.0; Win64; x64) AppleWebKit/537.36 (KHTML, like Gecko) Chrome/131.0.0.0 Safari/537.36","WebKit","Chrome","131.0.0.0","Windows","11.0","https://hz8g1ckzuq.cognition.run/","en,en-US;q=0.9","ya0twabdvbfdtyx","41","[""White""]","Yes","Female","505831.5","null","","<p></p>","null","choice","dct","attraction_1","2","microwave ovens","null","null","null","null","null","null","1","","","","","","","","","",""
"","","","","","choice_trial","survey-html-form","145","470592","0.0-5.0-1.30","150","1","2025-04-14 14:14:41","bb671e3ae32f654b8954ea4c4635f915","","Mozilla/5.0 (Windows NT 11.0; Win64; x64) AppleWebKit/537.36 (KHTML, like Gecko) Chrome/131.0.0.0 Safari/537.36","WebKit","Chrome","131.0.0.0","Windows","11.0","https://hz8g1ckzuq.cognition.run/","en,en-US;q=0.9","ya0twabdvbfdtyx","41","[""White""]","Yes","Female","505831.5","1418","","","{""product_choice"":""B""}","choice","dct","attraction_1","2","microwave ovens","null","null","null","null","null","null","1","50","60","45","60","50","60","Warranty","Cooking power","",""
"","","","","","choice_trial_setup","html-keyboard-response","146","470898","0.0-5.0-0.31","150","1","2025-04-14 14:14:41","bb671e3ae32f654b8954ea4c4635f915","","Mozilla/5.0 (Windows NT 11.0; Win64; x64) AppleWebKit/537.36 (KHTML, like Gecko) Chrome/131.0.0.0 Safari/537.36","WebKit","Chrome","131.0.0.0","Windows","11.0","https://hz8g1ckzuq.cognition.run/","en,en-US;q=0.9","ya0twabdvbfdtyx","41","[""White""]","Yes","Female","505831.5","null","","<p></p>","null","choice","cdt","attraction_1","2","laptops","null","null","null","null","null","null","2","","","","","","","","","",""
"","","","","","choice_trial","survey-html-form","147","472169","0.0-5.0-1.31","150","1","2025-04-14 14:14:41","bb671e3ae32f654b8954ea4c4635f915","","Mozilla/5.0 (Windows NT 11.0; Win64; x64) AppleWebKit/537.36 (KHTML, like Gecko) Chrome/131.0.0.0 Safari/537.36","WebKit","Chrome","131.0.0.0","Windows","11.0","https://hz8g1ckzuq.cognition.run/","en,en-US;q=0.9","ya0twabdvbfdtyx","41","[""White""]","Yes","Female","505831.5","1253","","","{""product_choice"":""A""}","choice","cdt","attraction_1","2","laptops","null","null","null","null","null","null","2","50","60","45","60","50","60","Processing speed","Memory (RAM)","",""
"","","","","","choice_trial_setup","html-keyboard-response","148","472474","0.0-5.0-0.32","150","1","2025-04-14 14:14:41","bb671e3ae32f654b8954ea4c4635f915","","Mozilla/5.0 (Windows NT 11.0; Win64; x64) AppleWebKit/537.36 (KHTML, like Gecko) Chrome/131.0.0.0 Safari/537.36","WebKit","Chrome","131.0.0.0","Windows","11.0","https://hz8g1ckzuq.cognition.run/","en,en-US;q=0.9","ya0twabdvbfdtyx","41","[""White""]","Yes","Female","505831.5","null","","<p></p>","null","choice","tdc","attraction_2","2","laptops","null","null","null","null","null","null","2","","","","","","","","","",""
"","","","","","choice_trial","survey-html-form","149","473673","0.0-5.0-1.32","150","1","2025-04-14 14:14:41","bb671e3ae32f654b8954ea4c4635f915","","Mozilla/5.0 (Windows NT 11.0; Win64; x64) AppleWebKit/537.36 (KHTML, like Gecko) Chrome/131.0.0.0 Safari/537.36","WebKit","Chrome","131.0.0.0","Windows","11.0","https://hz8g1ckzuq.cognition.run/","en,en-US;q=0.9","ya0twabdvbfdtyx","41","[""White""]","Yes","Female","505831.5","1182","","","{""product_choice"":""A""}","choice","tdc","attraction_2","2","laptops","null","null","null","null","null","null","2","50","60","40","60","50","60","Processing speed","Memory (RAM)","",""
"","","","","","choice_trial_setup","html-keyboard-response","150","473987","0.0-5.0-0.33","150","1","2025-04-14 14:14:41","bb671e3ae32f654b8954ea4c4635f915","","Mozilla/5.0 (Windows NT 11.0; Win64; x64) AppleWebKit/537.36 (KHTML, like Gecko) Chrome/131.0.0.0 Safari/537.36","WebKit","Chrome","131.0.0.0","Windows","11.0","https://hz8g1ckzuq.cognition.run/","en,en-US;q=0.9","ya0twabdvbfdtyx","41","[""White""]","Yes","Female","505831.5","null","","<p></p>","null","choice","dct","repulsion_2","1","washing machines","null","null","null","null","null","null","1","","","","","","","","","",""
"","","","","","choice_trial","survey-html-form","151","475953","0.0-5.0-1.33","150","1","2025-04-14 14:14:41","bb671e3ae32f654b8954ea4c4635f915","","Mozilla/5.0 (Windows NT 11.0; Win64; x64) AppleWebKit/537.36 (KHTML, like Gecko) Chrome/131.0.0.0 Safari/537.36","WebKit","Chrome","131.0.0.0","Windows","11.0","https://hz8g1ckzuq.cognition.run/","en,en-US;q=0.9","ya0twabdvbfdtyx","41","[""White""]","Yes","Female","505831.5","1947","","","{""product_choice"":""A""}","choice","dct","repulsion_2","1","washing machines","null","null","null","null","null","null","1","100","90","100","30","40","20","Average lifespan","Energy savings","",""
"","","","","","choice_trial_setup","html-keyboard-response","152","476259","0.0-5.0-0.34","150","1","2025-04-14 14:14:41","bb671e3ae32f654b8954ea4c4635f915","","Mozilla/5.0 (Windows NT 11.0; Win64; x64) AppleWebKit/537.36 (KHTML, like Gecko) Chrome/131.0.0.0 Safari/537.36","WebKit","Chrome","131.0.0.0","Windows","11.0","https://hz8g1ckzuq.cognition.run/","en,en-US;q=0.9","ya0twabdvbfdtyx","41","[""White""]","Yes","Female","505831.5","null","","<p></p>","null","choice","cdt","attraction_2","1","microwave ovens","null","null","null","null","null","null","1","","","","","","","","","",""
"","","","","","choice_trial","survey-html-form","153","478177","0.0-5.0-1.34","150","1","2025-04-14 14:14:41","bb671e3ae32f654b8954ea4c4635f915","","Mozilla/5.0 (Windows NT 11.0; Win64; x64) AppleWebKit/537.36 (KHTML, like Gecko) Chrome/131.0.0.0 Safari/537.36","WebKit","Chrome","131.0.0.0","Windows","11.0","https://hz8g1ckzuq.cognition.run/","en,en-US;q=0.9","ya0twabdvbfdtyx","41","[""White""]","Yes","Female","505831.5","1910","","","{""product_choice"":""A""}","choice","cdt","attraction_2","1","microwave ovens","null","null","null","null","null","null","1","60","50","60","50","60","40","Warranty","Cooking power","",""
"","","","","","choice_trial_setup","html-keyboard-response","154","478482","0.0-5.0-0.35","150","1","2025-04-14 14:14:41","bb671e3ae32f654b8954ea4c4635f915","","Mozilla/5.0 (Windows NT 11.0; Win64; x64) AppleWebKit/537.36 (KHTML, like Gecko) Chrome/131.0.0.0 Safari/537.36","WebKit","Chrome","131.0.0.0","Windows","11.0","https://hz8g1ckzuq.cognition.run/","en,en-US;q=0.9","ya0twabdvbfdtyx","41","[""White""]","Yes","Female","505831.5","null","","<p></p>","null","choice","cdt","repulsion_2","2","laptops","null","null","null","null","null","null","1","","","","","","","","","",""
"","","","","","choice_trial","survey-html-form","155","479617","0.0-5.0-1.35","150","1","2025-04-14 14:14:41","bb671e3ae32f654b8954ea4c4635f915","","Mozilla/5.0 (Windows NT 11.0; Win64; x64) AppleWebKit/537.36 (KHTML, like Gecko) Chrome/131.0.0.0 Safari/537.36","WebKit","Chrome","131.0.0.0","Windows","11.0","https://hz8g1ckzuq.cognition.run/","en,en-US;q=0.9","ya0twabdvbfdtyx","41","[""White""]","Yes","Female","505831.5","1130","","","{""product_choice"":""A""}","choice","cdt","repulsion_2","2","laptops","null","null","null","null","null","null","1","30","40","20","100","90","100","Processing speed","Memory (RAM)","",""
"","","","","","choice_trial_setup","html-keyboard-response","156","479923","0.0-5.0-0.36","150","1","2025-04-14 14:14:41","bb671e3ae32f654b8954ea4c4635f915","","Mozilla/5.0 (Windows NT 11.0; Win64; x64) AppleWebKit/537.36 (KHTML, like Gecko) Chrome/131.0.0.0 Safari/537.36","WebKit","Chrome","131.0.0.0","Windows","11.0","https://hz8g1ckzuq.cognition.run/","en,en-US;q=0.9","ya0twabdvbfdtyx","41","[""White""]","Yes","Female","505831.5","null","","<p></p>","null","choice","cdt","repulsion_2","1","laptops","null","null","null","null","null","null","1","","","","","","","","","",""
"","","","","","choice_trial","survey-html-form","157","482043","0.0-5.0-1.36","150","1","2025-04-14 14:14:41","bb671e3ae32f654b8954ea4c4635f915","","Mozilla/5.0 (Windows NT 11.0; Win64; x64) AppleWebKit/537.36 (KHTML, like Gecko) Chrome/131.0.0.0 Safari/537.36","WebKit","Chrome","131.0.0.0","Windows","11.0","https://hz8g1ckzuq.cognition.run/","en,en-US;q=0.9","ya0twabdvbfdtyx","41","[""White""]","Yes","Female","505831.5","2094","","","{""product_choice"":""A""}","choice","cdt","repulsion_2","1","laptops","null","null","null","null","null","null","1","100","90","100","30","40","20","Processing speed","Memory (RAM)","",""
"","","","","","choice_trial_setup","html-keyboard-response","158","482348","0.0-5.0-0.37","150","1","2025-04-14 14:14:41","bb671e3ae32f654b8954ea4c4635f915","","Mozilla/5.0 (Windows NT 11.0; Win64; x64) AppleWebKit/537.36 (KHTML, like Gecko) Chrome/131.0.0.0 Safari/537.36","WebKit","Chrome","131.0.0.0","Windows","11.0","https://hz8g1ckzuq.cognition.run/","en,en-US;q=0.9","ya0twabdvbfdtyx","41","[""White""]","Yes","Female","505831.5","null","","<p></p>","null","choice","tcd","repulsion_2","2","microwave ovens","null","null","null","null","null","null","1","","","","","","","","","",""
"","","","","","choice_trial","survey-html-form","159","484601","0.0-5.0-1.37","150","1","2025-04-14 14:14:41","bb671e3ae32f654b8954ea4c4635f915","","Mozilla/5.0 (Windows NT 11.0; Win64; x64) AppleWebKit/537.36 (KHTML, like Gecko) Chrome/131.0.0.0 Safari/537.36","WebKit","Chrome","131.0.0.0","Windows","11.0","https://hz8g1ckzuq.cognition.run/","en,en-US;q=0.9","ya0twabdvbfdtyx","41","[""White""]","Yes","Female","505831.5","2245","","","{""product_choice"":""A""}","choice","tcd","repulsion_2","2","microwave ovens","null","null","null","null","null","null","1","30","40","20","100","90","100","Warranty","Cooking power","",""
