"success","timeout","failed_images","failed_audio","failed_video","screen_id","trial_type","trial_index","time_elapsed","internal_node_id","run_id","condition","recorded_at","source_code_version","ip","user_agent","device","browser","browser_version","platform","platform_version","referer","accept_language","ppt_id","age","race","ethnicity","gender","exp_duration","rt","view_history","stimulus","response","phase","order","effect","t_high","category","d1_best","d2_best","d1_worst1","d2_worst1","d1_worst2","d2_worst2","first_dim","d1_t","d1_c","d1_d","d2_t","d2_c","d2_d","d1_name","d2_name","strategy_response","question_order"
"true","false","[]","[]","[]","img preload","preload","0","5443","0.0-0.0","155","1","2025-04-14 14:15:47","bb671e3ae32f654b8954ea4c4635f915","","Mozilla/5.0 (Windows NT 10.0; Win64; x64) AppleWebKit/537.36 (KHTML, like Gecko) Chrome/131.0.0.0 Safari/537.36","WebKit","Chrome","131.0.0.0","Windows","10.0","https://hz8g1ckzuq.cognition.run/","en-US,en;q=0.9","q5hxqzr761f88vm","26","[""Black or African-American""]","Yes","Female","2093794","","","","","","","","","","","","","","","","","","","","","","","","","",""
"true","","","","","","fullscreen","1","28081","0.0-1.0","155","1","2025-04-14 14:15:47","bb671e3ae32f654b8954ea4c4635f915","","Mozilla/5.0 (Windows NT 10.0; Win64; x64) AppleWebKit/537.36 (KHTML, like Gecko) Chrome/131.0.0.0 Safari/537.36","WebKit","Chrome","131.0.0.0","Windows","10.0","https://hz8g1ckzuq.cognition.run/","en-US,en;q=0.9","q5hxqzr761f88vm","26","[""Black or African-American""]","Yes","Female","2093794","21631","","","","","","","","","","","","","","","","","","","","","","","","",""
"","","","","","","instructions","2","72506","0.0-2.0","155","1","2025-04-14 14:15:47","bb671e3ae32f654b8954ea4c4635f915","","Mozilla/5.0 (Windows NT 10.0; Win64; x64) AppleWebKit/537.36 (KHTML, like Gecko) Chrome/131.0.0.0 Safari/537.36","WebKit","Chrome","131.0.0.0","Windows","10.0","https://hz8g1ckzuq.cognition.run/","en-US,en;q=0.9","q5hxqzr761f88vm","26","[""Black or African-American""]","Yes","Female","2093794","44423","[{""page_index"":0,""viewing_time"":2235},{""page_index"":1,""viewing_time"":13588},{""page_index"":2,""viewing_time"":2423},{""page_index"":3,""viewing_time"":3913},{""page_index"":4,""viewing_time"":6665},{""page_index"":5,""viewing_time"":3542},{""page_index"":6,""viewing_time"":1671},{""page_index"":7,""viewing_time"":5073},{""page_index"":8,""viewing_time"":3473},{""page_index"":9,""viewing_time"":1839}]","","","","","","","","","","","","","","","","","","","","","","","",""
"","","","","","rating_trial_setup","html-keyboard-response","3","72811","0.0-3.0-0.0","155","1","2025-04-14 14:15:47","bb671e3ae32f654b8954ea4c4635f915","","Mozilla/5.0 (Windows NT 10.0; Win64; x64) AppleWebKit/537.36 (KHTML, like Gecko) Chrome/131.0.0.0 Safari/537.36","WebKit","Chrome","131.0.0.0","Windows","10.0","https://hz8g1ckzuq.cognition.run/","en-US,en;q=0.9","q5hxqzr761f88vm","26","[""Black or African-American""]","Yes","Female","2093794","null","","<p></p>","null","rating","wbw","catch","null","washing machines","75","55","10","40","25","45","1","","","","","","","","","",""
"","","","","","rating_trial","survey-html-form","4","105758","0.0-3.0-1.0","155","1","2025-04-14 14:15:47","bb671e3ae32f654b8954ea4c4635f915","","Mozilla/5.0 (Windows NT 10.0; Win64; x64) AppleWebKit/537.36 (KHTML, like Gecko) Chrome/131.0.0.0 Safari/537.36","WebKit","Chrome","131.0.0.0","Windows","10.0","https://hz8g1ckzuq.cognition.run/","en-US,en;q=0.9","q5hxqzr761f88vm","26","[""Black or African-American""]","Yes","Female","2093794","32943","","","{""price_1"":""50"",""price_2"":""250"",""price_3"":""150""}","rating","wbw","catch","null","washing machines","75","55","10","40","25","45","1","null","null","null","null","null","null","Average lifespan","Energy savings","",""
"","","","","","rating_trial_setup","html-keyboard-response","5","106062","0.0-3.0-0.1","155","1","2025-04-14 14:15:47","bb671e3ae32f654b8954ea4c4635f915","","Mozilla/5.0 (Windows NT 10.0; Win64; x64) AppleWebKit/537.36 (KHTML, like Gecko) Chrome/131.0.0.0 Safari/537.36","WebKit","Chrome","131.0.0.0","Windows","10.0","https://hz8g1ckzuq.cognition.run/","en-US,en;q=0.9","q5hxqzr761f88vm","26","[""Black or African-American""]","Yes","Female","2093794","null","","<p></p>","null","rating","wwb","catch","null","microwave ovens","55","60","30","45","5","40","1","","","","","","","","","",""
"","","","","","rating_trial","survey-html-form","6","139018","0.0-3.0-1.1","155","1","2025-04-14 14:15:47","bb671e3ae32f654b8954ea4c4635f915","","Mozilla/5.0 (Windows NT 10.0; Win64; x64) AppleWebKit/537.36 (KHTML, like Gecko) Chrome/131.0.0.0 Safari/537.36","WebKit","Chrome","131.0.0.0","Windows","10.0","https://hz8g1ckzuq.cognition.run/","en-US,en;q=0.9","q5hxqzr761f88vm","26","[""Black or African-American""]","Yes","Female","2093794","32953","","","{""price_1"":""40"",""price_2"":""50"",""price_3"":""100""}","rating","wwb","catch","null","microwave ovens","55","60","30","45","5","40","1","null","null","null","null","null","null","Warranty","Cooking power","",""
"","","","","","rating_trial_setup","html-keyboard-response","7","139321","0.0-3.0-0.2","155","1","2025-04-14 14:15:47","bb671e3ae32f654b8954ea4c4635f915","","Mozilla/5.0 (Windows NT 10.0; Win64; x64) AppleWebKit/537.36 (KHTML, like Gecko) Chrome/131.0.0.0 Safari/537.36","WebKit","Chrome","131.0.0.0","Windows","10.0","https://hz8g1ckzuq.cognition.run/","en-US,en;q=0.9","q5hxqzr761f88vm","26","[""Black or African-American""]","Yes","Female","2093794","null","","<p></p>","null","rating","bww","catch","null","televisions","75","95","45","5","45","5","1","","","","","","","","","",""
"","","","","","rating_trial","survey-html-form","8","178252","0.0-3.0-1.2","155","1","2025-04-14 14:15:47","bb671e3ae32f654b8954ea4c4635f915","","Mozilla/5.0 (Windows NT 10.0; Win64; x64) AppleWebKit/537.36 (KHTML, like Gecko) Chrome/131.0.0.0 Safari/537.36","WebKit","Chrome","131.0.0.0","Windows","10.0","https://hz8g1ckzuq.cognition.run/","en-US,en;q=0.9","q5hxqzr761f88vm","26","[""Black or African-American""]","Yes","Female","2093794","38927","","","{""price_1"":""600"",""price_2"":""100"",""price_3"":""100""}","rating","bww","catch","null","televisions","75","95","45","5","45","5","1","null","null","null","null","null","null","Screen size","Average lifespan","",""
"","","","","","rating_trial_setup","html-keyboard-response","9","178555","0.0-3.0-0.3","155","1","2025-04-14 14:15:47","bb671e3ae32f654b8954ea4c4635f915","","Mozilla/5.0 (Windows NT 10.0; Win64; x64) AppleWebKit/537.36 (KHTML, like Gecko) Chrome/131.0.0.0 Safari/537.36","WebKit","Chrome","131.0.0.0","Windows","10.0","https://hz8g1ckzuq.cognition.run/","en-US,en;q=0.9","q5hxqzr761f88vm","26","[""Black or African-American""]","Yes","Female","2093794","null","","<p></p>","null","rating","wwb","catch","null","microwave ovens","85","55","20","15","35","5","1","","","","","","","","","",""
"","","","","","rating_trial","survey-html-form","10","218590","0.0-3.0-1.3","155","1","2025-04-14 14:15:47","bb671e3ae32f654b8954ea4c4635f915","","Mozilla/5.0 (Windows NT 10.0; Win64; x64) AppleWebKit/537.36 (KHTML, like Gecko) Chrome/131.0.0.0 Safari/537.36","WebKit","Chrome","131.0.0.0","Windows","10.0","https://hz8g1ckzuq.cognition.run/","en-US,en;q=0.9","q5hxqzr761f88vm","26","[""Black or African-American""]","Yes","Female","2093794","40031","","","{""price_1"":""50"",""price_2"":""20"",""price_3"":""150""}","rating","wwb","catch","null","microwave ovens","85","55","20","15","35","5","1","null","null","null","null","null","null","Warranty","Cooking power","",""
"","","","","","rating_trial_setup","html-keyboard-response","11","218892","0.0-3.0-0.4","155","1","2025-04-14 14:15:47","bb671e3ae32f654b8954ea4c4635f915","","Mozilla/5.0 (Windows NT 10.0; Win64; x64) AppleWebKit/537.36 (KHTML, like Gecko) Chrome/131.0.0.0 Safari/537.36","WebKit","Chrome","131.0.0.0","Windows","10.0","https://hz8g1ckzuq.cognition.run/","en-US,en;q=0.9","q5hxqzr761f88vm","26","[""Black or African-American""]","Yes","Female","2093794","null","","<p></p>","null","rating","tdc","attraction_2","2","televisions","null","null","null","null","null","null","2","","","","","","","","","",""
"","","","","","rating_trial","survey-html-form","12","245992","0.0-3.0-1.4","155","1","2025-04-14 14:15:47","bb671e3ae32f654b8954ea4c4635f915","","Mozilla/5.0 (Windows NT 10.0; Win64; x64) AppleWebKit/537.36 (KHTML, like Gecko) Chrome/131.0.0.0 Safari/537.36","WebKit","Chrome","131.0.0.0","Windows","10.0","https://hz8g1ckzuq.cognition.run/","en-US,en;q=0.9","q5hxqzr761f88vm","26","[""Black or African-American""]","Yes","Female","2093794","27097","","","{""price_1"":""500"",""price_2"":""400"",""price_3"":""500""}","rating","tdc","attraction_2","2","televisions","null","null","null","null","null","null","2","50","60","40","60","50","60","Screen size","Average lifespan","",""
"","","","","","rating_trial_setup","html-keyboard-response","13","246296","0.0-3.0-0.5","155","1","2025-04-14 14:15:47","bb671e3ae32f654b8954ea4c4635f915","","Mozilla/5.0 (Windows NT 10.0; Win64; x64) AppleWebKit/537.36 (KHTML, like Gecko) Chrome/131.0.0.0 Safari/537.36","WebKit","Chrome","131.0.0.0","Windows","10.0","https://hz8g1ckzuq.cognition.run/","en-US,en;q=0.9","q5hxqzr761f88vm","26","[""Black or African-American""]","Yes","Female","2093794","null","","<p></p>","null","rating","wwb","catch","null","laptops","75","75","15","45","30","5","2","","","","","","","","","",""
"","","","","","rating_trial","survey-html-form","14","274628","0.0-3.0-1.5","155","1","2025-04-14 14:15:47","bb671e3ae32f654b8954ea4c4635f915","","Mozilla/5.0 (Windows NT 10.0; Win64; x64) AppleWebKit/537.36 (KHTML, like Gecko) Chrome/131.0.0.0 Safari/537.36","WebKit","Chrome","131.0.0.0","Windows","10.0","https://hz8g1ckzuq.cognition.run/","en-US,en;q=0.9","q5hxqzr761f88vm","26","[""Black or African-American""]","Yes","Female","2093794","28328","","","{""price_1"":""200"",""price_2"":""100"",""price_3"":""500""}","rating","wwb","catch","null","laptops","75","75","15","45","30","5","2","null","null","null","null","null","null","Processing speed","Memory (RAM)","",""
"","","","","","rating_trial_setup","html-keyboard-response","15","274931","0.0-3.0-0.6","155","1","2025-04-14 14:15:47","bb671e3ae32f654b8954ea4c4635f915","","Mozilla/5.0 (Windows NT 10.0; Win64; x64) AppleWebKit/537.36 (KHTML, like Gecko) Chrome/131.0.0.0 Safari/537.36","WebKit","Chrome","131.0.0.0","Windows","10.0","https://hz8g1ckzuq.cognition.run/","en-US,en;q=0.9","q5hxqzr761f88vm","26","[""Black or African-American""]","Yes","Female","2093794","null","","<p></p>","null","rating","tdc","attraction_2","2","microwave ovens","null","null","null","null","null","null","1","","","","","","","","","",""
"","","","","","rating_trial","survey-html-form","16","293841","0.0-3.0-1.6","155","1","2025-04-14 14:15:47","bb671e3ae32f654b8954ea4c4635f915","","Mozilla/5.0 (Windows NT 10.0; Win64; x64) AppleWebKit/537.36 (KHTML, like Gecko) Chrome/131.0.0.0 Safari/537.36","WebKit","Chrome","131.0.0.0","Windows","10.0","https://hz8g1ckzuq.cognition.run/","en-US,en;q=0.9","q5hxqzr761f88vm","26","[""Black or African-American""]","Yes","Female","2093794","18907","","","{""price_1"":""200"",""price_2"":""180"",""price_3"":""200""}","rating","tdc","attraction_2","2","microwave ovens","null","null","null","null","null","null","1","50","60","40","60","50","60","Warranty","Cooking power","",""
"","","","","","rating_trial_setup","html-keyboard-response","17","294144","0.0-3.0-0.7","155","1","2025-04-14 14:15:47","bb671e3ae32f654b8954ea4c4635f915","","Mozilla/5.0 (Windows NT 10.0; Win64; x64) AppleWebKit/537.36 (KHTML, like Gecko) Chrome/131.0.0.0 Safari/537.36","WebKit","Chrome","131.0.0.0","Windows","10.0","https://hz8g1ckzuq.cognition.run/","en-US,en;q=0.9","q5hxqzr761f88vm","26","[""Black or African-American""]","Yes","Female","2093794","null","","<p></p>","null","rating","ctd","attraction_2","1","microwave ovens","null","null","null","null","null","null","2","","","","","","","","","",""
"","","","","","rating_trial","survey-html-form","18","328721","0.0-3.0-1.7","155","1","2025-04-14 14:15:47","bb671e3ae32f654b8954ea4c4635f915","","Mozilla/5.0 (Windows NT 10.0; Win64; x64) AppleWebKit/537.36 (KHTML, like Gecko) Chrome/131.0.0.0 Safari/537.36","WebKit","Chrome","131.0.0.0","Windows","10.0","https://hz8g1ckzuq.cognition.run/","en-US,en;q=0.9","q5hxqzr761f88vm","26","[""Black or African-American""]","Yes","Female","2093794","34575","","","{""price_1"":""200"",""price_2"":""200"",""price_3"":""190""}","rating","ctd","attraction_2","1","microwave ovens","null","null","null","null","null","null","2","60","50","60","50","60","40","Warranty","Cooking power","",""
"","","","","","rating_trial_setup","html-keyboard-response","19","329025","0.0-3.0-0.8","155","1","2025-04-14 14:15:47","bb671e3ae32f654b8954ea4c4635f915","","Mozilla/5.0 (Windows NT 10.0; Win64; x64) AppleWebKit/537.36 (KHTML, like Gecko) Chrome/131.0.0.0 Safari/537.36","WebKit","Chrome","131.0.0.0","Windows","10.0","https://hz8g1ckzuq.cognition.run/","en-US,en;q=0.9","q5hxqzr761f88vm","26","[""Black or African-American""]","Yes","Female","2093794","null","","<p></p>","null","rating","dct","repulsion_2","2","laptops","null","null","null","null","null","null","1","","","","","","","","","",""
"","","","","","rating_trial","survey-html-form","20","346656","0.0-3.0-1.8","155","1","2025-04-14 14:15:47","bb671e3ae32f654b8954ea4c4635f915","","Mozilla/5.0 (Windows NT 10.0; Win64; x64) AppleWebKit/537.36 (KHTML, like Gecko) Chrome/131.0.0.0 Safari/537.36","WebKit","Chrome","131.0.0.0","Windows","10.0","https://hz8g1ckzuq.cognition.run/","en-US,en;q=0.9","q5hxqzr761f88vm","26","[""Black or African-American""]","Yes","Female","2093794","17629","","","{""price_1"":""200"",""price_2"":""330"",""price_3"":""220""}","rating","dct","repulsion_2","2","laptops","null","null","null","null","null","null","1","30","40","20","100","90","100","Processing speed","Memory (RAM)","",""
"","","","","","rating_trial_setup","html-keyboard-response","21","346960","0.0-3.0-0.9","155","1","2025-04-14 14:15:47","bb671e3ae32f654b8954ea4c4635f915","","Mozilla/5.0 (Windows NT 10.0; Win64; x64) AppleWebKit/537.36 (KHTML, like Gecko) Chrome/131.0.0.0 Safari/537.36","WebKit","Chrome","131.0.0.0","Windows","10.0","https://hz8g1ckzuq.cognition.run/","en-US,en;q=0.9","q5hxqzr761f88vm","26","[""Black or African-American""]","Yes","Female","2093794","null","","<p></p>","null","rating","tdc","attraction_1","2","laptops","null","null","null","null","null","null","2","","","","","","","","","",""
"","","","","","rating_trial","survey-html-form","22","364574","0.0-3.0-1.9","155","1","2025-04-14 14:15:47","bb671e3ae32f654b8954ea4c4635f915","","Mozilla/5.0 (Windows NT 10.0; Win64; x64) AppleWebKit/537.36 (KHTML, like Gecko) Chrome/131.0.0.0 Safari/537.36","WebKit","Chrome","131.0.0.0","Windows","10.0","https://hz8g1ckzuq.cognition.run/","en-US,en;q=0.9","q5hxqzr761f88vm","26","[""Black or African-American""]","Yes","Female","2093794","17611","","","{""price_1"":""400"",""price_2"":""420"",""price_3"":""400""}","rating","tdc","attraction_1","2","laptops","null","null","null","null","null","null","2","50","60","45","60","50","60","Processing speed","Memory (RAM)","",""
"","","","","","rating_trial_setup","html-keyboard-response","23","364879","0.0-3.0-0.10","155","1","2025-04-14 14:15:47","bb671e3ae32f654b8954ea4c4635f915","","Mozilla/5.0 (Windows NT 10.0; Win64; x64) AppleWebKit/537.36 (KHTML, like Gecko) Chrome/131.0.0.0 Safari/537.36","WebKit","Chrome","131.0.0.0","Windows","10.0","https://hz8g1ckzuq.cognition.run/","en-US,en;q=0.9","q5hxqzr761f88vm","26","[""Black or African-American""]","Yes","Female","2093794","null","","<p></p>","null","rating","tcd","repulsion_2","1","laptops","null","null","null","null","null","null","1","","","","","","","","","",""
"","","","","","rating_trial","survey-html-form","24","393148","0.0-3.0-1.10","155","1","2025-04-14 14:15:47","bb671e3ae32f654b8954ea4c4635f915","","Mozilla/5.0 (Windows NT 10.0; Win64; x64) AppleWebKit/537.36 (KHTML, like Gecko) Chrome/131.0.0.0 Safari/537.36","WebKit","Chrome","131.0.0.0","Windows","10.0","https://hz8g1ckzuq.cognition.run/","en-US,en;q=0.9","q5hxqzr761f88vm","26","[""Black or African-American""]","Yes","Female","2093794","28265","","","{""price_1"":""200"",""price_2"":""300"",""price_3"":""210""}","rating","tcd","repulsion_2","1","laptops","null","null","null","null","null","null","1","100","90","100","30","40","20","Processing speed","Memory (RAM)","",""
"","","","","","rating_trial_setup","html-keyboard-response","25","393453","0.0-3.0-0.11","155","1","2025-04-14 14:15:47","bb671e3ae32f654b8954ea4c4635f915","","Mozilla/5.0 (Windows NT 10.0; Win64; x64) AppleWebKit/537.36 (KHTML, like Gecko) Chrome/131.0.0.0 Safari/537.36","WebKit","Chrome","131.0.0.0","Windows","10.0","https://hz8g1ckzuq.cognition.run/","en-US,en;q=0.9","q5hxqzr761f88vm","26","[""Black or African-American""]","Yes","Female","2093794","null","","<p></p>","null","rating","ctd","attraction_1","1","washing machines","null","null","null","null","null","null","2","","","","","","","","","",""
"","","","","","rating_trial","survey-html-form","26","426372","0.0-3.0-1.11","155","1","2025-04-14 14:15:47","bb671e3ae32f654b8954ea4c4635f915","","Mozilla/5.0 (Windows NT 10.0; Win64; x64) AppleWebKit/537.36 (KHTML, like Gecko) Chrome/131.0.0.0 Safari/537.36","WebKit","Chrome","131.0.0.0","Windows","10.0","https://hz8g1ckzuq.cognition.run/","en-US,en;q=0.9","q5hxqzr761f88vm","26","[""Black or African-American""]","Yes","Female","2093794","32916","","","{""price_1"":""250"",""price_2"":""250"",""price_3"":""200""}","rating","ctd","attraction_1","1","washing machines","null","null","null","null","null","null","2","60","50","60","50","60","45","Average lifespan","Energy savings","",""
"","","","","","rating_trial_setup","html-keyboard-response","27","426676","0.0-3.0-0.12","155","1","2025-04-14 14:15:47","bb671e3ae32f654b8954ea4c4635f915","","Mozilla/5.0 (Windows NT 10.0; Win64; x64) AppleWebKit/537.36 (KHTML, like Gecko) Chrome/131.0.0.0 Safari/537.36","WebKit","Chrome","131.0.0.0","Windows","10.0","https://hz8g1ckzuq.cognition.run/","en-US,en;q=0.9","q5hxqzr761f88vm","26","[""Black or African-American""]","Yes","Female","2093794","null","","<p></p>","null","rating","tdc","attraction_1","2","microwave ovens","null","null","null","null","null","null","2","","","","","","","","","",""
"","","","","","rating_trial","survey-html-form","28","450281","0.0-3.0-1.12","155","1","2025-04-14 14:15:47","bb671e3ae32f654b8954ea4c4635f915","","Mozilla/5.0 (Windows NT 10.0; Win64; x64) AppleWebKit/537.36 (KHTML, like Gecko) Chrome/131.0.0.0 Safari/537.36","WebKit","Chrome","131.0.0.0","Windows","10.0","https://hz8g1ckzuq.cognition.run/","en-US,en;q=0.9","q5hxqzr761f88vm","26","[""Black or African-American""]","Yes","Female","2093794","23602","","","{""price_1"":""200"",""price_2"":""180"",""price_3"":""200""}","rating","tdc","attraction_1","2","microwave ovens","null","null","null","null","null","null","2","50","60","45","60","50","60","Warranty","Cooking power","",""
"","","","","","rating_trial_setup","html-keyboard-response","29","450583","0.0-3.0-0.13","155","1","2025-04-14 14:15:47","bb671e3ae32f654b8954ea4c4635f915","","Mozilla/5.0 (Windows NT 10.0; Win64; x64) AppleWebKit/537.36 (KHTML, like Gecko) Chrome/131.0.0.0 Safari/537.36","WebKit","Chrome","131.0.0.0","Windows","10.0","https://hz8g1ckzuq.cognition.run/","en-US,en;q=0.9","q5hxqzr761f88vm","26","[""Black or African-American""]","Yes","Female","2093794","null","","<p></p>","null","rating","ctd","attraction_1","1","microwave ovens","null","null","null","null","null","null","2","","","","","","","","","",""
"","","","","","rating_trial","survey-html-form","30","474179","0.0-3.0-1.13","155","1","2025-04-14 14:15:47","bb671e3ae32f654b8954ea4c4635f915","","Mozilla/5.0 (Windows NT 10.0; Win64; x64) AppleWebKit/537.36 (KHTML, like Gecko) Chrome/131.0.0.0 Safari/537.36","WebKit","Chrome","131.0.0.0","Windows","10.0","https://hz8g1ckzuq.cognition.run/","en-US,en;q=0.9","q5hxqzr761f88vm","26","[""Black or African-American""]","Yes","Female","2093794","23593","","","{""price_1"":""200"",""price_2"":""190"",""price_3"":""160""}","rating","ctd","attraction_1","1","microwave ovens","null","null","null","null","null","null","2","60","50","60","50","60","45","Warranty","Cooking power","",""
"","","","","","rating_trial_setup","html-keyboard-response","31","474483","0.0-3.0-0.14","155","1","2025-04-14 14:15:47","bb671e3ae32f654b8954ea4c4635f915","","Mozilla/5.0 (Windows NT 10.0; Win64; x64) AppleWebKit/537.36 (KHTML, like Gecko) Chrome/131.0.0.0 Safari/537.36","WebKit","Chrome","131.0.0.0","Windows","10.0","https://hz8g1ckzuq.cognition.run/","en-US,en;q=0.9","q5hxqzr761f88vm","26","[""Black or African-American""]","Yes","Female","2093794","null","","<p></p>","null","rating","dtc","attraction_2","1","laptops","null","null","null","null","null","null","1","","","","","","","","","",""
"","","","","","rating_trial","survey-html-form","32","515253","0.0-3.0-1.14","155","1","2025-04-14 14:15:47","bb671e3ae32f654b8954ea4c4635f915","","Mozilla/5.0 (Windows NT 10.0; Win64; x64) AppleWebKit/537.36 (KHTML, like Gecko) Chrome/131.0.0.0 Safari/537.36","WebKit","Chrome","131.0.0.0","Windows","10.0","https://hz8g1ckzuq.cognition.run/","en-US,en;q=0.9","q5hxqzr761f88vm","26","[""Black or African-American""]","Yes","Female","2093794","40766","","","{""price_1"":""400"",""price_2"":""350"",""price_3"":""400""}","rating","dtc","attraction_2","1","laptops","null","null","null","null","null","null","1","60","50","60","50","60","40","Processing speed","Memory (RAM)","",""
"","","","","","rating_trial_setup","html-keyboard-response","33","515558","0.0-3.0-0.15","155","1","2025-04-14 14:15:47","bb671e3ae32f654b8954ea4c4635f915","","Mozilla/5.0 (Windows NT 10.0; Win64; x64) AppleWebKit/537.36 (KHTML, like Gecko) Chrome/131.0.0.0 Safari/537.36","WebKit","Chrome","131.0.0.0","Windows","10.0","https://hz8g1ckzuq.cognition.run/","en-US,en;q=0.9","q5hxqzr761f88vm","26","[""Black or African-American""]","Yes","Female","2093794","null","","<p></p>","null","rating","bww","catch","null","laptops","60","55","5","45","30","30","1","","","","","","","","","",""
"","","","","","rating_trial","survey-html-form","34","532268","0.0-3.0-1.15","155","1","2025-04-14 14:15:47","bb671e3ae32f654b8954ea4c4635f915","","Mozilla/5.0 (Windows NT 10.0; Win64; x64) AppleWebKit/537.36 (KHTML, like Gecko) Chrome/131.0.0.0 Safari/537.36","WebKit","Chrome","131.0.0.0","Windows","10.0","https://hz8g1ckzuq.cognition.run/","en-US,en;q=0.9","q5hxqzr761f88vm","26","[""Black or African-American""]","Yes","Female","2093794","16706","","","{""price_1"":""400"",""price_2"":""100"",""price_3"":""200""}","rating","bww","catch","null","laptops","60","55","5","45","30","30","1","null","null","null","null","null","null","Processing speed","Memory (RAM)","",""
"","","","","","rating_trial_setup","html-keyboard-response","35","532573","0.0-3.0-0.16","155","1","2025-04-14 14:15:47","bb671e3ae32f654b8954ea4c4635f915","","Mozilla/5.0 (Windows NT 10.0; Win64; x64) AppleWebKit/537.36 (KHTML, like Gecko) Chrome/131.0.0.0 Safari/537.36","WebKit","Chrome","131.0.0.0","Windows","10.0","https://hz8g1ckzuq.cognition.run/","en-US,en;q=0.9","q5hxqzr761f88vm","26","[""Black or African-American""]","Yes","Female","2093794","null","","<p></p>","null","rating","cdt","attraction_2","1","televisions","null","null","null","null","null","null","1","","","","","","","","","",""
"","","","","","rating_trial","survey-html-form","36","543990","0.0-3.0-1.16","155","1","2025-04-14 14:15:47","bb671e3ae32f654b8954ea4c4635f915","","Mozilla/5.0 (Windows NT 10.0; Win64; x64) AppleWebKit/537.36 (KHTML, like Gecko) Chrome/131.0.0.0 Safari/537.36","WebKit","Chrome","131.0.0.0","Windows","10.0","https://hz8g1ckzuq.cognition.run/","en-US,en;q=0.9","q5hxqzr761f88vm","26","[""Black or African-American""]","Yes","Female","2093794","11414","","","{""price_1"":""500"",""price_2"":""500"",""price_3"":""500""}","rating","cdt","attraction_2","1","televisions","null","null","null","null","null","null","1","60","50","60","50","60","40","Screen size","Average lifespan","",""
"","","","","","rating_trial_setup","html-keyboard-response","37","544295","0.0-3.0-0.17","155","1","2025-04-14 14:15:47","bb671e3ae32f654b8954ea4c4635f915","","Mozilla/5.0 (Windows NT 10.0; Win64; x64) AppleWebKit/537.36 (KHTML, like Gecko) Chrome/131.0.0.0 Safari/537.36","WebKit","Chrome","131.0.0.0","Windows","10.0","https://hz8g1ckzuq.cognition.run/","en-US,en;q=0.9","q5hxqzr761f88vm","26","[""Black or African-American""]","Yes","Female","2093794","null","","<p></p>","null","rating","dtc","repulsion_2","2","washing machines","null","null","null","null","null","null","1","","","","","","","","","",""
"","","","","","rating_trial","survey-html-form","38","570882","0.0-3.0-1.17","155","1","2025-04-14 14:15:47","bb671e3ae32f654b8954ea4c4635f915","","Mozilla/5.0 (Windows NT 10.0; Win64; x64) AppleWebKit/537.36 (KHTML, like Gecko) Chrome/131.0.0.0 Safari/537.36","WebKit","Chrome","131.0.0.0","Windows","10.0","https://hz8g1ckzuq.cognition.run/","en-US,en;q=0.9","q5hxqzr761f88vm","26","[""Black or African-American""]","Yes","Female","2093794","26584","","","{""price_1"":""230"",""price_2"":""250"",""price_3"":""400""}","rating","dtc","repulsion_2","2","washing machines","null","null","null","null","null","null","1","30","40","20","100","90","100","Average lifespan","Energy savings","",""
"","","","","","rating_trial_setup","html-keyboard-response","39","571189","0.0-3.0-0.18","155","1","2025-04-14 14:15:47","bb671e3ae32f654b8954ea4c4635f915","","Mozilla/5.0 (Windows NT 10.0; Win64; x64) AppleWebKit/537.36 (KHTML, like Gecko) Chrome/131.0.0.0 Safari/537.36","WebKit","Chrome","131.0.0.0","Windows","10.0","https://hz8g1ckzuq.cognition.run/","en-US,en;q=0.9","q5hxqzr761f88vm","26","[""Black or African-American""]","Yes","Female","2093794","null","","<p></p>","null","rating","dct","repulsion_1","1","televisions","null","null","null","null","null","null","2","","","","","","","","","",""
"","","","","","rating_trial","survey-html-form","40","705744","0.0-3.0-1.18","155","1","2025-04-14 14:15:47","bb671e3ae32f654b8954ea4c4635f915","","Mozilla/5.0 (Windows NT 10.0; Win64; x64) AppleWebKit/537.36 (KHTML, like Gecko) Chrome/131.0.0.0 Safari/537.36","WebKit","Chrome","131.0.0.0","Windows","10.0","https://hz8g1ckzuq.cognition.run/","en-US,en;q=0.9","q5hxqzr761f88vm","26","[""Black or African-American""]","Yes","Female","2093794","134552","","","{""price_1"":""250"",""price_2"":""450"",""price_3"":""260""}","rating","dct","repulsion_1","1","televisions","null","null","null","null","null","null","2","100","90","100","30","40","25","Screen size","Average lifespan","",""
"","","","","","rating_trial_setup","html-keyboard-response","41","706048","0.0-3.0-0.19","155","1","2025-04-14 14:15:47","bb671e3ae32f654b8954ea4c4635f915","","Mozilla/5.0 (Windows NT 10.0; Win64; x64) AppleWebKit/537.36 (KHTML, like Gecko) Chrome/131.0.0.0 Safari/537.36","WebKit","Chrome","131.0.0.0","Windows","10.0","https://hz8g1ckzuq.cognition.run/","en-US,en;q=0.9","q5hxqzr761f88vm","26","[""Black or African-American""]","Yes","Female","2093794","null","","<p></p>","null","rating","dtc","repulsion_1","2","microwave ovens","null","null","null","null","null","null","1","","","","","","","","","",""
"","","","","","rating_trial","survey-html-form","42","726022","0.0-3.0-1.19","155","1","2025-04-14 14:15:47","bb671e3ae32f654b8954ea4c4635f915","","Mozilla/5.0 (Windows NT 10.0; Win64; x64) AppleWebKit/537.36 (KHTML, like Gecko) Chrome/131.0.0.0 Safari/537.36","WebKit","Chrome","131.0.0.0","Windows","10.0","https://hz8g1ckzuq.cognition.run/","en-US,en;q=0.9","q5hxqzr761f88vm","26","[""Black or African-American""]","Yes","Female","2093794","19970","","","{""price_1"":""245"",""price_2"":""260"",""price_3"":""300""}","rating","dtc","repulsion_1","2","microwave ovens","null","null","null","null","null","null","1","30","40","25","100","90","100","Warranty","Cooking power","",""
"","","","","","rating_trial_setup","html-keyboard-response","43","726326","0.0-3.0-0.20","155","1","2025-04-14 14:15:47","bb671e3ae32f654b8954ea4c4635f915","","Mozilla/5.0 (Windows NT 10.0; Win64; x64) AppleWebKit/537.36 (KHTML, like Gecko) Chrome/131.0.0.0 Safari/537.36","WebKit","Chrome","131.0.0.0","Windows","10.0","https://hz8g1ckzuq.cognition.run/","en-US,en;q=0.9","q5hxqzr761f88vm","26","[""Black or African-American""]","Yes","Female","2093794","null","","<p></p>","null","rating","ctd","repulsion_2","2","televisions","null","null","null","null","null","null","2","","","","","","","","","",""
"","","","","","rating_trial","survey-html-form","44","844153","0.0-3.0-1.20","155","1","2025-04-14 14:15:47","bb671e3ae32f654b8954ea4c4635f915","","Mozilla/5.0 (Windows NT 10.0; Win64; x64) AppleWebKit/537.36 (KHTML, like Gecko) Chrome/131.0.0.0 Safari/537.36","WebKit","Chrome","131.0.0.0","Windows","10.0","https://hz8g1ckzuq.cognition.run/","en-US,en;q=0.9","q5hxqzr761f88vm","26","[""Black or African-American""]","Yes","Female","2093794","117824","","","{""price_1"":""200"",""price_2"":""190"",""price_3"":""180""}","rating","ctd","repulsion_2","2","televisions","null","null","null","null","null","null","2","30","40","20","100","90","100","Screen size","Average lifespan","",""
"","","","","","rating_trial_setup","html-keyboard-response","45","844458","0.0-3.0-0.21","155","1","2025-04-14 14:15:47","bb671e3ae32f654b8954ea4c4635f915","","Mozilla/5.0 (Windows NT 10.0; Win64; x64) AppleWebKit/537.36 (KHTML, like Gecko) Chrome/131.0.0.0 Safari/537.36","WebKit","Chrome","131.0.0.0","Windows","10.0","https://hz8g1ckzuq.cognition.run/","en-US,en;q=0.9","q5hxqzr761f88vm","26","[""Black or African-American""]","Yes","Female","2093794","null","","<p></p>","null","rating","tdc","repulsion_1","1","laptops","null","null","null","null","null","null","1","","","","","","","","","",""
"","","","","","rating_trial","survey-html-form","46","869316","0.0-3.0-1.21","155","1","2025-04-14 14:15:47","bb671e3ae32f654b8954ea4c4635f915","","Mozilla/5.0 (Windows NT 10.0; Win64; x64) AppleWebKit/537.36 (KHTML, like Gecko) Chrome/131.0.0.0 Safari/537.36","WebKit","Chrome","131.0.0.0","Windows","10.0","https://hz8g1ckzuq.cognition.run/","en-US,en;q=0.9","q5hxqzr761f88vm","26","[""Black or African-American""]","Yes","Female","2093794","24855","","","{""price_1"":""220"",""price_2"":""200"",""price_3"":""400""}","rating","tdc","repulsion_1","1","laptops","null","null","null","null","null","null","1","100","90","100","30","40","25","Processing speed","Memory (RAM)","",""
"","","","","","rating_trial_setup","html-keyboard-response","47","869622","0.0-3.0-0.22","155","1","2025-04-14 14:15:47","bb671e3ae32f654b8954ea4c4635f915","","Mozilla/5.0 (Windows NT 10.0; Win64; x64) AppleWebKit/537.36 (KHTML, like Gecko) Chrome/131.0.0.0 Safari/537.36","WebKit","Chrome","131.0.0.0","Windows","10.0","https://hz8g1ckzuq.cognition.run/","en-US,en;q=0.9","q5hxqzr761f88vm","26","[""Black or African-American""]","Yes","Female","2093794","null","","<p></p>","null","rating","dct","attraction_1","1","laptops","null","null","null","null","null","null","2","","","","","","","","","",""
"","","","","","rating_trial","survey-html-form","48","999806","0.0-3.0-1.22","155","1","2025-04-14 14:15:47","bb671e3ae32f654b8954ea4c4635f915","","Mozilla/5.0 (Windows NT 10.0; Win64; x64) AppleWebKit/537.36 (KHTML, like Gecko) Chrome/131.0.0.0 Safari/537.36","WebKit","Chrome","131.0.0.0","Windows","10.0","https://hz8g1ckzuq.cognition.run/","en-US,en;q=0.9","q5hxqzr761f88vm","26","[""Black or African-American""]","Yes","Female","2093794","130180","","","{""price_1"":""350"",""price_2"":""400"",""price_3"":""400""}","rating","dct","attraction_1","1","laptops","null","null","null","null","null","null","2","60","50","60","50","60","45","Processing speed","Memory (RAM)","",""
"","","","","","rating_trial_setup","html-keyboard-response","49","1000113","0.0-3.0-0.23","155","1","2025-04-14 14:15:47","bb671e3ae32f654b8954ea4c4635f915","","Mozilla/5.0 (Windows NT 10.0; Win64; x64) AppleWebKit/537.36 (KHTML, like Gecko) Chrome/131.0.0.0 Safari/537.36","WebKit","Chrome","131.0.0.0","Windows","10.0","https://hz8g1ckzuq.cognition.run/","en-US,en;q=0.9","q5hxqzr761f88vm","26","[""Black or African-American""]","Yes","Female","2093794","null","","<p></p>","null","rating","wwb","catch","null","washing machines","65","50","15","30","15","30","2","","","","","","","","","",""
"","","","","","rating_trial","survey-html-form","50","1012392","0.0-3.0-1.23","155","1","2025-04-14 14:15:47","bb671e3ae32f654b8954ea4c4635f915","","Mozilla/5.0 (Windows NT 10.0; Win64; x64) AppleWebKit/537.36 (KHTML, like Gecko) Chrome/131.0.0.0 Safari/537.36","WebKit","Chrome","131.0.0.0","Windows","10.0","https://hz8g1ckzuq.cognition.run/","en-US,en;q=0.9","q5hxqzr761f88vm","26","[""Black or African-American""]","Yes","Female","2093794","12275","","","{""price_1"":""100"",""price_2"":""100"",""price_3"":""400""}","rating","wwb","catch","null","washing machines","65","50","15","30","15","30","2","null","null","null","null","null","null","Average lifespan","Energy savings","",""
"","","","","","rating_trial_setup","html-keyboard-response","51","1012699","0.0-3.0-0.24","155","1","2025-04-14 14:15:47","bb671e3ae32f654b8954ea4c4635f915","","Mozilla/5.0 (Windows NT 10.0; Win64; x64) AppleWebKit/537.36 (KHTML, like Gecko) Chrome/131.0.0.0 Safari/537.36","WebKit","Chrome","131.0.0.0","Windows","10.0","https://hz8g1ckzuq.cognition.run/","en-US,en;q=0.9","q5hxqzr761f88vm","26","[""Black or African-American""]","Yes","Female","2093794","null","","<p></p>","null","rating","ctd","attraction_2","2","laptops","null","null","null","null","null","null","1","","","","","","","","","",""
"","","","","","rating_trial","survey-html-form","52","1022422","0.0-3.0-1.24","155","1","2025-04-14 14:15:47","bb671e3ae32f654b8954ea4c4635f915","","Mozilla/5.0 (Windows NT 10.0; Win64; x64) AppleWebKit/537.36 (KHTML, like Gecko) Chrome/131.0.0.0 Safari/537.36","WebKit","Chrome","131.0.0.0","Windows","10.0","https://hz8g1ckzuq.cognition.run/","en-US,en;q=0.9","q5hxqzr761f88vm","26","[""Black or African-American""]","Yes","Female","2093794","9719","","","{""price_1"":""400"",""price_2"":""400"",""price_3"":""400""}","rating","ctd","attraction_2","2","laptops","null","null","null","null","null","null","1","50","60","40","60","50","60","Processing speed","Memory (RAM)","",""
"","","","","","rating_trial_setup","html-keyboard-response","53","1022727","0.0-3.0-0.25","155","1","2025-04-14 14:15:47","bb671e3ae32f654b8954ea4c4635f915","","Mozilla/5.0 (Windows NT 10.0; Win64; x64) AppleWebKit/537.36 (KHTML, like Gecko) Chrome/131.0.0.0 Safari/537.36","WebKit","Chrome","131.0.0.0","Windows","10.0","https://hz8g1ckzuq.cognition.run/","en-US,en;q=0.9","q5hxqzr761f88vm","26","[""Black or African-American""]","Yes","Female","2093794","null","","<p></p>","null","rating","tdc","repulsion_1","2","laptops","null","null","null","null","null","null","2","","","","","","","","","",""
"","","","","","rating_trial","survey-html-form","54","1035717","0.0-3.0-1.25","155","1","2025-04-14 14:15:47","bb671e3ae32f654b8954ea4c4635f915","","Mozilla/5.0 (Windows NT 10.0; Win64; x64) AppleWebKit/537.36 (KHTML, like Gecko) Chrome/131.0.0.0 Safari/537.36","WebKit","Chrome","131.0.0.0","Windows","10.0","https://hz8g1ckzuq.cognition.run/","en-US,en;q=0.9","q5hxqzr761f88vm","26","[""Black or African-American""]","Yes","Female","2093794","12987","","","{""price_1"":""130"",""price_2"":""130"",""price_3"":""250""}","rating","tdc","repulsion_1","2","laptops","null","null","null","null","null","null","2","30","40","25","100","90","100","Processing speed","Memory (RAM)","",""
"","","","","","rating_trial_setup","html-keyboard-response","55","1036023","0.0-3.0-0.26","155","1","2025-04-14 14:15:47","bb671e3ae32f654b8954ea4c4635f915","","Mozilla/5.0 (Windows NT 10.0; Win64; x64) AppleWebKit/537.36 (KHTML, like Gecko) Chrome/131.0.0.0 Safari/537.36","WebKit","Chrome","131.0.0.0","Windows","10.0","https://hz8g1ckzuq.cognition.run/","en-US,en;q=0.9","q5hxqzr761f88vm","26","[""Black or African-American""]","Yes","Female","2093794","null","","<p></p>","null","rating","dtc","attraction_2","1","washing machines","null","null","null","null","null","null","2","","","","","","","","","",""
"","","","","","rating_trial","survey-html-form","56","1053754","0.0-3.0-1.26","155","1","2025-04-14 14:15:47","bb671e3ae32f654b8954ea4c4635f915","","Mozilla/5.0 (Windows NT 10.0; Win64; x64) AppleWebKit/537.36 (KHTML, like Gecko) Chrome/131.0.0.0 Safari/537.36","WebKit","Chrome","131.0.0.0","Windows","10.0","https://hz8g1ckzuq.cognition.run/","en-US,en;q=0.9","q5hxqzr761f88vm","26","[""Black or African-American""]","Yes","Female","2093794","17726","","","{""price_1"":""300"",""price_2"":""250"",""price_3"":""250""}","rating","dtc","attraction_2","1","washing machines","null","null","null","null","null","null","2","60","50","60","50","60","40","Average lifespan","Energy savings","",""
"","","","","","rating_trial_setup","html-keyboard-response","57","1054061","0.0-3.0-0.27","155","1","2025-04-14 14:15:47","bb671e3ae32f654b8954ea4c4635f915","","Mozilla/5.0 (Windows NT 10.0; Win64; x64) AppleWebKit/537.36 (KHTML, like Gecko) Chrome/131.0.0.0 Safari/537.36","WebKit","Chrome","131.0.0.0","Windows","10.0","https://hz8g1ckzuq.cognition.run/","en-US,en;q=0.9","q5hxqzr761f88vm","26","[""Black or African-American""]","Yes","Female","2093794","null","","<p></p>","null","rating","ctd","attraction_1","1","televisions","null","null","null","null","null","null","2","","","","","","","","","",""
"","","","","","rating_trial","survey-html-form","58","1065655","0.0-3.0-1.27","155","1","2025-04-14 14:15:47","bb671e3ae32f654b8954ea4c4635f915","","Mozilla/5.0 (Windows NT 10.0; Win64; x64) AppleWebKit/537.36 (KHTML, like Gecko) Chrome/131.0.0.0 Safari/537.36","WebKit","Chrome","131.0.0.0","Windows","10.0","https://hz8g1ckzuq.cognition.run/","en-US,en;q=0.9","q5hxqzr761f88vm","26","[""Black or African-American""]","Yes","Female","2093794","11590","","","{""price_1"":""400"",""price_2"":""400"",""price_3"":""400""}","rating","ctd","attraction_1","1","televisions","null","null","null","null","null","null","2","60","50","60","50","60","45","Screen size","Average lifespan","",""
"","","","","","rating_trial_setup","html-keyboard-response","59","1065959","0.0-3.0-0.28","155","1","2025-04-14 14:15:47","bb671e3ae32f654b8954ea4c4635f915","","Mozilla/5.0 (Windows NT 10.0; Win64; x64) AppleWebKit/537.36 (KHTML, like Gecko) Chrome/131.0.0.0 Safari/537.36","WebKit","Chrome","131.0.0.0","Windows","10.0","https://hz8g1ckzuq.cognition.run/","en-US,en;q=0.9","q5hxqzr761f88vm","26","[""Black or African-American""]","Yes","Female","2093794","null","","<p></p>","null","rating","tdc","repulsion_1","1","washing machines","null","null","null","null","null","null","1","","","","","","","","","",""
"","","","","","rating_trial","survey-html-form","60","1112693","0.0-3.0-1.28","155","1","2025-04-14 14:15:47","bb671e3ae32f654b8954ea4c4635f915","","Mozilla/5.0 (Windows NT 10.0; Win64; x64) AppleWebKit/537.36 (KHTML, like Gecko) Chrome/131.0.0.0 Safari/537.36","WebKit","Chrome","131.0.0.0","Windows","10.0","https://hz8g1ckzuq.cognition.run/","en-US,en;q=0.9","q5hxqzr761f88vm","26","[""Black or African-American""]","Yes","Female","2093794","46730","","","{""price_1"":""160"",""price_2"":""150"",""price_3"":""400""}","rating","tdc","repulsion_1","1","washing machines","null","null","null","null","null","null","1","100","90","100","30","40","25","Average lifespan","Energy savings","",""
"","","","","","rating_trial_setup","html-keyboard-response","61","1112999","0.0-3.0-0.29","155","1","2025-04-14 14:15:47","bb671e3ae32f654b8954ea4c4635f915","","Mozilla/5.0 (Windows NT 10.0; Win64; x64) AppleWebKit/537.36 (KHTML, like Gecko) Chrome/131.0.0.0 Safari/537.36","WebKit","Chrome","131.0.0.0","Windows","10.0","https://hz8g1ckzuq.cognition.run/","en-US,en;q=0.9","q5hxqzr761f88vm","26","[""Black or African-American""]","Yes","Female","2093794","null","","<p></p>","null","rating","tdc","attraction_2","2","washing machines","null","null","null","null","null","null","2","","","","","","","","","",""
"","","","","","rating_trial","survey-html-form","62","1182548","0.0-3.0-1.29","155","1","2025-04-14 14:15:47","bb671e3ae32f654b8954ea4c4635f915","","Mozilla/5.0 (Windows NT 10.0; Win64; x64) AppleWebKit/537.36 (KHTML, like Gecko) Chrome/131.0.0.0 Safari/537.36","WebKit","Chrome","131.0.0.0","Windows","10.0","https://hz8g1ckzuq.cognition.run/","en-US,en;q=0.9","q5hxqzr761f88vm","26","[""Black or African-American""]","Yes","Female","2093794","69544","","","{""price_1"":""250"",""price_2"":""250"",""price_3"":""280""}","rating","tdc","attraction_2","2","washing machines","null","null","null","null","null","null","2","50","60","40","60","50","60","Average lifespan","Energy savings","",""
"","","","","","rating_trial_setup","html-keyboard-response","63","1182853","0.0-3.0-0.30","155","1","2025-04-14 14:15:47","bb671e3ae32f654b8954ea4c4635f915","","Mozilla/5.0 (Windows NT 10.0; Win64; x64) AppleWebKit/537.36 (KHTML, like Gecko) Chrome/131.0.0.0 Safari/537.36","WebKit","Chrome","131.0.0.0","Windows","10.0","https://hz8g1ckzuq.cognition.run/","en-US,en;q=0.9","q5hxqzr761f88vm","26","[""Black or African-American""]","Yes","Female","2093794","null","","<p></p>","null","rating","tdc","repulsion_2","2","microwave ovens","null","null","null","null","null","null","1","","","","","","","","","",""
"","","","","","rating_trial","survey-html-form","64","1197448","0.0-3.0-1.30","155","1","2025-04-14 14:15:47","bb671e3ae32f654b8954ea4c4635f915","","Mozilla/5.0 (Windows NT 10.0; Win64; x64) AppleWebKit/537.36 (KHTML, like Gecko) Chrome/131.0.0.0 Safari/537.36","WebKit","Chrome","131.0.0.0","Windows","10.0","https://hz8g1ckzuq.cognition.run/","en-US,en;q=0.9","q5hxqzr761f88vm","26","[""Black or African-American""]","Yes","Female","2093794","14590","","","{""price_1"":""40"",""price_2"":""30"",""price_3"":""120""}","rating","tdc","repulsion_2","2","microwave ovens","null","null","null","null","null","null","1","30","40","20","100","90","100","Warranty","Cooking power","",""
"","","","","","rating_trial_setup","html-keyboard-response","65","1197754","0.0-3.0-0.31","155","1","2025-04-14 14:15:47","bb671e3ae32f654b8954ea4c4635f915","","Mozilla/5.0 (Windows NT 10.0; Win64; x64) AppleWebKit/537.36 (KHTML, like Gecko) Chrome/131.0.0.0 Safari/537.36","WebKit","Chrome","131.0.0.0","Windows","10.0","https://hz8g1ckzuq.cognition.run/","en-US,en;q=0.9","q5hxqzr761f88vm","26","[""Black or African-American""]","Yes","Female","2093794","null","","<p></p>","null","rating","dct","attraction_1","2","washing machines","null","null","null","null","null","null","2","","","","","","","","","",""
"","","","","","rating_trial","survey-html-form","66","1326574","0.0-3.0-1.31","155","1","2025-04-14 14:15:47","bb671e3ae32f654b8954ea4c4635f915","","Mozilla/5.0 (Windows NT 10.0; Win64; x64) AppleWebKit/537.36 (KHTML, like Gecko) Chrome/131.0.0.0 Safari/537.36","WebKit","Chrome","131.0.0.0","Windows","10.0","https://hz8g1ckzuq.cognition.run/","en-US,en;q=0.9","q5hxqzr761f88vm","26","[""Black or African-American""]","Yes","Female","2093794","128815","","","{""price_1"":""280"",""price_2"":""300"",""price_3"":""300""}","rating","dct","attraction_1","2","washing machines","null","null","null","null","null","null","2","50","60","45","60","50","60","Average lifespan","Energy savings","",""
"","","","","","rating_trial_setup","html-keyboard-response","67","1326879","0.0-3.0-0.32","155","1","2025-04-14 14:15:47","bb671e3ae32f654b8954ea4c4635f915","","Mozilla/5.0 (Windows NT 10.0; Win64; x64) AppleWebKit/537.36 (KHTML, like Gecko) Chrome/131.0.0.0 Safari/537.36","WebKit","Chrome","131.0.0.0","Windows","10.0","https://hz8g1ckzuq.cognition.run/","en-US,en;q=0.9","q5hxqzr761f88vm","26","[""Black or African-American""]","Yes","Female","2093794","null","","<p></p>","null","rating","tcd","repulsion_1","2","washing machines","null","null","null","null","null","null","1","","","","","","","","","",""
"","","","","","rating_trial","survey-html-form","68","1381563","0.0-3.0-1.32","155","1","2025-04-14 14:15:47","bb671e3ae32f654b8954ea4c4635f915","","Mozilla/5.0 (Windows NT 10.0; Win64; x64) AppleWebKit/537.36 (KHTML, like Gecko) Chrome/131.0.0.0 Safari/537.36","WebKit","Chrome","131.0.0.0","Windows","10.0","https://hz8g1ckzuq.cognition.run/","en-US,en;q=0.9","q5hxqzr761f88vm","26","[""Black or African-American""]","Yes","Female","2093794","54678","","","{""price_1"":""180"",""price_2"":""230"",""price_3"":""150""}","rating","tcd","repulsion_1","2","washing machines","null","null","null","null","null","null","1","30","40","25","100","90","100","Average lifespan","Energy savings","",""
"","","","","","rating_trial_setup","html-keyboard-response","69","1381868","0.0-3.0-0.33","155","1","2025-04-14 14:15:47","bb671e3ae32f654b8954ea4c4635f915","","Mozilla/5.0 (Windows NT 10.0; Win64; x64) AppleWebKit/537.36 (KHTML, like Gecko) Chrome/131.0.0.0 Safari/537.36","WebKit","Chrome","131.0.0.0","Windows","10.0","https://hz8g1ckzuq.cognition.run/","en-US,en;q=0.9","q5hxqzr761f88vm","26","[""Black or African-American""]","Yes","Female","2093794","null","","<p></p>","null","rating","dct","repulsion_1","1","microwave ovens","null","null","null","null","null","null","1","","","","","","","","","",""
"","","","","","rating_trial","survey-html-form","70","1405615","0.0-3.0-1.33","155","1","2025-04-14 14:15:47","bb671e3ae32f654b8954ea4c4635f915","","Mozilla/5.0 (Windows NT 10.0; Win64; x64) AppleWebKit/537.36 (KHTML, like Gecko) Chrome/131.0.0.0 Safari/537.36","WebKit","Chrome","131.0.0.0","Windows","10.0","https://hz8g1ckzuq.cognition.run/","en-US,en;q=0.9","q5hxqzr761f88vm","26","[""Black or African-American""]","Yes","Female","2093794","23742","","","{""price_1"":""60"",""price_2"":""150"",""price_3"":""65""}","rating","dct","repulsion_1","1","microwave ovens","null","null","null","null","null","null","1","100","90","100","30","40","25","Warranty","Cooking power","",""
"","","","","","rating_trial_setup","html-keyboard-response","71","1405921","0.0-3.0-0.34","155","1","2025-04-14 14:15:47","bb671e3ae32f654b8954ea4c4635f915","","Mozilla/5.0 (Windows NT 10.0; Win64; x64) AppleWebKit/537.36 (KHTML, like Gecko) Chrome/131.0.0.0 Safari/537.36","WebKit","Chrome","131.0.0.0","Windows","10.0","https://hz8g1ckzuq.cognition.run/","en-US,en;q=0.9","q5hxqzr761f88vm","26","[""Black or African-American""]","Yes","Female","2093794","null","","<p></p>","null","rating","ctd","repulsion_2","1","televisions","null","null","null","null","null","null","2","","","","","","","","","",""
"","","","","","rating_trial","survey-html-form","72","1590802","0.0-3.0-1.34","155","1","2025-04-14 14:15:47","bb671e3ae32f654b8954ea4c4635f915","","Mozilla/5.0 (Windows NT 10.0; Win64; x64) AppleWebKit/537.36 (KHTML, like Gecko) Chrome/131.0.0.0 Safari/537.36","WebKit","Chrome","131.0.0.0","Windows","10.0","https://hz8g1ckzuq.cognition.run/","en-US,en;q=0.9","q5hxqzr761f88vm","26","[""Black or African-American""]","Yes","Female","2093794","184877","","","{""price_1"":""240"",""price_2"":""230"",""price_3"":""190""}","rating","ctd","repulsion_2","1","televisions","null","null","null","null","null","null","2","100","90","100","30","40","20","Screen size","Average lifespan","",""
"","","","","","rating_trial_setup","html-keyboard-response","73","1591108","0.0-3.0-0.35","155","1","2025-04-14 14:15:47","bb671e3ae32f654b8954ea4c4635f915","","Mozilla/5.0 (Windows NT 10.0; Win64; x64) AppleWebKit/537.36 (KHTML, like Gecko) Chrome/131.0.0.0 Safari/537.36","WebKit","Chrome","131.0.0.0","Windows","10.0","https://hz8g1ckzuq.cognition.run/","en-US,en;q=0.9","q5hxqzr761f88vm","26","[""Black or African-American""]","Yes","Female","2093794","null","","<p></p>","null","rating","bww","catch","null","televisions","95","55","40","25","15","40","1","","","","","","","","","",""
"","","","","","rating_trial","survey-html-form","74","1648884","0.0-3.0-1.35","155","1","2025-04-14 14:15:47","bb671e3ae32f654b8954ea4c4635f915","","Mozilla/5.0 (Windows NT 10.0; Win64; x64) AppleWebKit/537.36 (KHTML, like Gecko) Chrome/131.0.0.0 Safari/537.36","WebKit","Chrome","131.0.0.0","Windows","10.0","https://hz8g1ckzuq.cognition.run/","en-US,en;q=0.9","q5hxqzr761f88vm","26","[""Black or African-American""]","Yes","Female","2093794","57770","","","{""price_1"":""330"",""price_2"":""100"",""price_3"":""78""}","rating","bww","catch","null","televisions","95","55","40","25","15","40","1","null","null","null","null","null","null","Screen size","Average lifespan","",""
"","","","","","rating_trial_setup","html-keyboard-response","75","1649189","0.0-3.0-0.36","155","1","2025-04-14 14:15:47","bb671e3ae32f654b8954ea4c4635f915","","Mozilla/5.0 (Windows NT 10.0; Win64; x64) AppleWebKit/537.36 (KHTML, like Gecko) Chrome/131.0.0.0 Safari/537.36","WebKit","Chrome","131.0.0.0","Windows","10.0","https://hz8g1ckzuq.cognition.run/","en-US,en;q=0.9","q5hxqzr761f88vm","26","[""Black or African-American""]","Yes","Female","2093794","null","","<p></p>","null","rating","dtc","repulsion_2","1","washing machines","null","null","null","null","null","null","1","","","","","","","","","",""
"","","","","","rating_trial","survey-html-form","76","1690406","0.0-3.0-1.36","155","1","2025-04-14 14:15:47","bb671e3ae32f654b8954ea4c4635f915","","Mozilla/5.0 (Windows NT 10.0; Win64; x64) AppleWebKit/537.36 (KHTML, like Gecko) Chrome/131.0.0.0 Safari/537.36","WebKit","Chrome","131.0.0.0","Windows","10.0","https://hz8g1ckzuq.cognition.run/","en-US,en;q=0.9","q5hxqzr761f88vm","26","[""Black or African-American""]","Yes","Female","2093794","41213","","","{""price_1"":""190"",""price_2"":""220"",""price_3"":""200""}","rating","dtc","repulsion_2","1","washing machines","null","null","null","null","null","null","1","100","90","100","30","40","20","Average lifespan","Energy savings","",""
"","","","","","rating_trial_setup","html-keyboard-response","77","1690711","0.0-3.0-0.37","155","1","2025-04-14 14:15:47","bb671e3ae32f654b8954ea4c4635f915","","Mozilla/5.0 (Windows NT 10.0; Win64; x64) AppleWebKit/537.36 (KHTML, like Gecko) Chrome/131.0.0.0 Safari/537.36","WebKit","Chrome","131.0.0.0","Windows","10.0","https://hz8g1ckzuq.cognition.run/","en-US,en;q=0.9","q5hxqzr761f88vm","26","[""Black or African-American""]","Yes","Female","2093794","null","","<p></p>","null","rating","ctd","attraction_1","2","televisions","null","null","null","null","null","null","1","","","","","","","","","",""
"","","","","","rating_trial","survey-html-form","78","1770233","0.0-3.0-1.37","155","1","2025-04-14 14:15:47","bb671e3ae32f654b8954ea4c4635f915","","Mozilla/5.0 (Windows NT 10.0; Win64; x64) AppleWebKit/537.36 (KHTML, like Gecko) Chrome/131.0.0.0 Safari/537.36","WebKit","Chrome","131.0.0.0","Windows","10.0","https://hz8g1ckzuq.cognition.run/","en-US,en;q=0.9","q5hxqzr761f88vm","26","[""Black or African-American""]","Yes","Female","2093794","79517","","","{""price_1"":""400"",""price_2"":""400"",""price_3"":""350""}","rating","ctd","attraction_1","2","televisions","null","null","null","null","null","null","1","50","60","45","60","50","60","Screen size","Average lifespan","",""
"","","","","","rating_trial_setup","html-keyboard-response","79","1770540","0.0-3.0-0.38","155","1","2025-04-14 14:15:47","bb671e3ae32f654b8954ea4c4635f915","","Mozilla/5.0 (Windows NT 10.0; Win64; x64) AppleWebKit/537.36 (KHTML, like Gecko) Chrome/131.0.0.0 Safari/537.36","WebKit","Chrome","131.0.0.0","Windows","10.0","https://hz8g1ckzuq.cognition.run/","en-US,en;q=0.9","q5hxqzr761f88vm","26","[""Black or African-American""]","Yes","Female","2093794","null","","<p></p>","null","rating","tdc","repulsion_2","1","microwave ovens","null","null","null","null","null","null","2","","","","","","","","","",""
"","","","","","rating_trial","survey-html-form","80","1786279","0.0-3.0-1.38","155","1","2025-04-14 14:15:47","bb671e3ae32f654b8954ea4c4635f915","","Mozilla/5.0 (Windows NT 10.0; Win64; x64) AppleWebKit/537.36 (KHTML, like Gecko) Chrome/131.0.0.0 Safari/537.36","WebKit","Chrome","131.0.0.0","Windows","10.0","https://hz8g1ckzuq.cognition.run/","en-US,en;q=0.9","q5hxqzr761f88vm","26","[""Black or African-American""]","Yes","Female","2093794","15735","","","{""price_1"":""150"",""price_2"":""140"",""price_3"":""120""}","rating","tdc","repulsion_2","1","microwave ovens","null","null","null","null","null","null","2","100","90","100","30","40","20","Warranty","Cooking power","",""
"","","","","","rating_trial_setup","html-keyboard-response","81","1786583","0.0-3.0-0.39","155","1","2025-04-14 14:15:47","bb671e3ae32f654b8954ea4c4635f915","","Mozilla/5.0 (Windows NT 10.0; Win64; x64) AppleWebKit/537.36 (KHTML, like Gecko) Chrome/131.0.0.0 Safari/537.36","WebKit","Chrome","131.0.0.0","Windows","10.0","https://hz8g1ckzuq.cognition.run/","en-US,en;q=0.9","q5hxqzr761f88vm","26","[""Black or African-American""]","Yes","Female","2093794","null","","<p></p>","null","rating","cdt","repulsion_1","2","televisions","null","null","null","null","null","null","2","","","","","","","","","",""
"","","","","","rating_trial","survey-html-form","82","1800768","0.0-3.0-1.39","155","1","2025-04-14 14:15:47","bb671e3ae32f654b8954ea4c4635f915","","Mozilla/5.0 (Windows NT 10.0; Win64; x64) AppleWebKit/537.36 (KHTML, like Gecko) Chrome/131.0.0.0 Safari/537.36","WebKit","Chrome","131.0.0.0","Windows","10.0","https://hz8g1ckzuq.cognition.run/","en-US,en;q=0.9","q5hxqzr761f88vm","26","[""Black or African-American""]","Yes","Female","2093794","14180","","","{""price_1"":""200"",""price_2"":""120"",""price_3"":""130""}","rating","cdt","repulsion_1","2","televisions","null","null","null","null","null","null","2","30","40","25","100","90","100","Screen size","Average lifespan","",""
"","","","","","","instructions","83","1839608","0.0-4.0","155","1","2025-04-14 14:15:47","bb671e3ae32f654b8954ea4c4635f915","","Mozilla/5.0 (Windows NT 10.0; Win64; x64) AppleWebKit/537.36 (KHTML, like Gecko) Chrome/131.0.0.0 Safari/537.36","WebKit","Chrome","131.0.0.0","Windows","10.0","https://hz8g1ckzuq.cognition.run/","en-US,en;q=0.9","q5hxqzr761f88vm","26","[""Black or African-American""]","Yes","Female","2093794","38834","[{""page_index"":0,""viewing_time"":5555},{""page_index"":1,""viewing_time"":1814},{""page_index"":2,""viewing_time"":3121},{""page_index"":3,""viewing_time"":3890},{""page_index"":4,""viewing_time"":114},{""page_index"":5,""viewing_time"":137},{""page_index"":6,""viewing_time"":17685},{""page_index"":7,""viewing_time"":6520}]","","","","","","","","","","","","","","","","","","","","","","","",""
"","","","","","choice_trial_setup","html-keyboard-response","84","1839916","0.0-5.0-0.0","155","1","2025-04-14 14:15:47","bb671e3ae32f654b8954ea4c4635f915","","Mozilla/5.0 (Windows NT 10.0; Win64; x64) AppleWebKit/537.36 (KHTML, like Gecko) Chrome/131.0.0.0 Safari/537.36","WebKit","Chrome","131.0.0.0","Windows","10.0","https://hz8g1ckzuq.cognition.run/","en-US,en;q=0.9","q5hxqzr761f88vm","26","[""Black or African-American""]","Yes","Female","2093794","null","","<p></p>","null","choice","dtc","attraction_2","1","microwave ovens","null","null","null","null","null","null","2","","","","","","","","","",""
"","","","","","choice_trial","survey-html-form","85","1859247","0.0-5.0-1.0","155","1","2025-04-14 14:15:47","bb671e3ae32f654b8954ea4c4635f915","","Mozilla/5.0 (Windows NT 10.0; Win64; x64) AppleWebKit/537.36 (KHTML, like Gecko) Chrome/131.0.0.0 Safari/537.36","WebKit","Chrome","131.0.0.0","Windows","10.0","https://hz8g1ckzuq.cognition.run/","en-US,en;q=0.9","q5hxqzr761f88vm","26","[""Black or African-American""]","Yes","Female","2093794","19327","","","{""product_choice"":""B""}","choice","dtc","attraction_2","1","microwave ovens","null","null","null","null","null","null","2","60","50","60","50","60","40","Warranty","Cooking power","",""
"","","","","","choice_trial_setup","html-keyboard-response","86","1859552","0.0-5.0-0.1","155","1","2025-04-14 14:15:47","bb671e3ae32f654b8954ea4c4635f915","","Mozilla/5.0 (Windows NT 10.0; Win64; x64) AppleWebKit/537.36 (KHTML, like Gecko) Chrome/131.0.0.0 Safari/537.36","WebKit","Chrome","131.0.0.0","Windows","10.0","https://hz8g1ckzuq.cognition.run/","en-US,en;q=0.9","q5hxqzr761f88vm","26","[""Black or African-American""]","Yes","Female","2093794","null","","<p></p>","null","choice","tdc","attraction_1","2","microwave ovens","null","null","null","null","null","null","2","","","","","","","","","",""
"","","","","","choice_trial","survey-html-form","87","1861328","0.0-5.0-1.1","155","1","2025-04-14 14:15:47","bb671e3ae32f654b8954ea4c4635f915","","Mozilla/5.0 (Windows NT 10.0; Win64; x64) AppleWebKit/537.36 (KHTML, like Gecko) Chrome/131.0.0.0 Safari/537.36","WebKit","Chrome","131.0.0.0","Windows","10.0","https://hz8g1ckzuq.cognition.run/","en-US,en;q=0.9","q5hxqzr761f88vm","26","[""Black or African-American""]","Yes","Female","2093794","1770","","","{""product_choice"":""B""}","choice","tdc","attraction_1","2","microwave ovens","null","null","null","null","null","null","2","50","60","45","60","50","60","Warranty","Cooking power","",""
"","","","","","choice_trial_setup","html-keyboard-response","88","1861633","0.0-5.0-0.2","155","1","2025-04-14 14:15:47","bb671e3ae32f654b8954ea4c4635f915","","Mozilla/5.0 (Windows NT 10.0; Win64; x64) AppleWebKit/537.36 (KHTML, like Gecko) Chrome/131.0.0.0 Safari/537.36","WebKit","Chrome","131.0.0.0","Windows","10.0","https://hz8g1ckzuq.cognition.run/","en-US,en;q=0.9","q5hxqzr761f88vm","26","[""Black or African-American""]","Yes","Female","2093794","null","","<p></p>","null","choice","cdt","repulsion_1","2","washing machines","null","null","null","null","null","null","2","","","","","","","","","",""
"","","","","","choice_trial","survey-html-form","89","1862743","0.0-5.0-1.2","155","1","2025-04-14 14:15:47","bb671e3ae32f654b8954ea4c4635f915","","Mozilla/5.0 (Windows NT 10.0; Win64; x64) AppleWebKit/537.36 (KHTML, like Gecko) Chrome/131.0.0.0 Safari/537.36","WebKit","Chrome","131.0.0.0","Windows","10.0","https://hz8g1ckzuq.cognition.run/","en-US,en;q=0.9","q5hxqzr761f88vm","26","[""Black or African-American""]","Yes","Female","2093794","1103","","","{""product_choice"":""A""}","choice","cdt","repulsion_1","2","washing machines","null","null","null","null","null","null","2","30","40","25","100","90","100","Average lifespan","Energy savings","",""
"","","","","","choice_trial_setup","html-keyboard-response","90","1863048","0.0-5.0-0.3","155","1","2025-04-14 14:15:47","bb671e3ae32f654b8954ea4c4635f915","","Mozilla/5.0 (Windows NT 10.0; Win64; x64) AppleWebKit/537.36 (KHTML, like Gecko) Chrome/131.0.0.0 Safari/537.36","WebKit","Chrome","131.0.0.0","Windows","10.0","https://hz8g1ckzuq.cognition.run/","en-US,en;q=0.9","q5hxqzr761f88vm","26","[""Black or African-American""]","Yes","Female","2093794","null","","<p></p>","null","choice","dct","repulsion_2","2","microwave ovens","null","null","null","null","null","null","1","","","","","","","","","",""
"","","","","","choice_trial","survey-html-form","91","1863943","0.0-5.0-1.3","155","1","2025-04-14 14:15:47","bb671e3ae32f654b8954ea4c4635f915","","Mozilla/5.0 (Windows NT 10.0; Win64; x64) AppleWebKit/537.36 (KHTML, like Gecko) Chrome/131.0.0.0 Safari/537.36","WebKit","Chrome","131.0.0.0","Windows","10.0","https://hz8g1ckzuq.cognition.run/","en-US,en;q=0.9","q5hxqzr761f88vm","26","[""Black or African-American""]","Yes","Female","2093794","890","","","{""product_choice"":""B""}","choice","dct","repulsion_2","2","microwave ovens","null","null","null","null","null","null","1","30","40","20","100","90","100","Warranty","Cooking power","",""
"","","","","","choice_trial_setup","html-keyboard-response","92","1864249","0.0-5.0-0.4","155","1","2025-04-14 14:15:47","bb671e3ae32f654b8954ea4c4635f915","","Mozilla/5.0 (Windows NT 10.0; Win64; x64) AppleWebKit/537.36 (KHTML, like Gecko) Chrome/131.0.0.0 Safari/537.36","WebKit","Chrome","131.0.0.0","Windows","10.0","https://hz8g1ckzuq.cognition.run/","en-US,en;q=0.9","q5hxqzr761f88vm","26","[""Black or African-American""]","Yes","Female","2093794","null","","<p></p>","null","choice","tdc","attraction_1","2","laptops","null","null","null","null","null","null","1","","","","","","","","","",""
"","","","","","choice_trial","survey-html-form","93","1865114","0.0-5.0-1.4","155","1","2025-04-14 14:15:47","bb671e3ae32f654b8954ea4c4635f915","","Mozilla/5.0 (Windows NT 10.0; Win64; x64) AppleWebKit/537.36 (KHTML, like Gecko) Chrome/131.0.0.0 Safari/537.36","WebKit","Chrome","131.0.0.0","Windows","10.0","https://hz8g1ckzuq.cognition.run/","en-US,en;q=0.9","q5hxqzr761f88vm","26","[""Black or African-American""]","Yes","Female","2093794","859","","","{""product_choice"":""C""}","choice","tdc","attraction_1","2","laptops","null","null","null","null","null","null","1","50","60","45","60","50","60","Processing speed","Memory (RAM)","",""
"","","","","","choice_trial_setup","html-keyboard-response","94","1865421","0.0-5.0-0.5","155","1","2025-04-14 14:15:47","bb671e3ae32f654b8954ea4c4635f915","","Mozilla/5.0 (Windows NT 10.0; Win64; x64) AppleWebKit/537.36 (KHTML, like Gecko) Chrome/131.0.0.0 Safari/537.36","WebKit","Chrome","131.0.0.0","Windows","10.0","https://hz8g1ckzuq.cognition.run/","en-US,en;q=0.9","q5hxqzr761f88vm","26","[""Black or African-American""]","Yes","Female","2093794","null","","<p></p>","null","choice","dtc","attraction_1","2","televisions","null","null","null","null","null","null","2","","","","","","","","","",""
"","","","","","choice_trial","survey-html-form","95","1866240","0.0-5.0-1.5","155","1","2025-04-14 14:15:47","bb671e3ae32f654b8954ea4c4635f915","","Mozilla/5.0 (Windows NT 10.0; Win64; x64) AppleWebKit/537.36 (KHTML, like Gecko) Chrome/131.0.0.0 Safari/537.36","WebKit","Chrome","131.0.0.0","Windows","10.0","https://hz8g1ckzuq.cognition.run/","en-US,en;q=0.9","q5hxqzr761f88vm","26","[""Black or African-American""]","Yes","Female","2093794","814","","","{""product_choice"":""B""}","choice","dtc","attraction_1","2","televisions","null","null","null","null","null","null","2","50","60","45","60","50","60","Screen size","Average lifespan","",""
"","","","","","choice_trial_setup","html-keyboard-response","96","1866545","0.0-5.0-0.6","155","1","2025-04-14 14:15:47","bb671e3ae32f654b8954ea4c4635f915","","Mozilla/5.0 (Windows NT 10.0; Win64; x64) AppleWebKit/537.36 (KHTML, like Gecko) Chrome/131.0.0.0 Safari/537.36","WebKit","Chrome","131.0.0.0","Windows","10.0","https://hz8g1ckzuq.cognition.run/","en-US,en;q=0.9","q5hxqzr761f88vm","26","[""Black or African-American""]","Yes","Female","2093794","null","","<p></p>","null","choice","bww","catch","null","washing machines","50","90","25","15","15","20","1","","","","","","","","","",""
"","","","","","choice_trial","survey-html-form","97","1867376","0.0-5.0-1.6","155","1","2025-04-14 14:15:47","bb671e3ae32f654b8954ea4c4635f915","","Mozilla/5.0 (Windows NT 10.0; Win64; x64) AppleWebKit/537.36 (KHTML, like Gecko) Chrome/131.0.0.0 Safari/537.36","WebKit","Chrome","131.0.0.0","Windows","10.0","https://hz8g1ckzuq.cognition.run/","en-US,en;q=0.9","q5hxqzr761f88vm","26","[""Black or African-American""]","Yes","Female","2093794","824","","","{""product_choice"":""C""}","choice","bww","catch","null","washing machines","50","90","25","15","15","20","1","null","null","null","null","null","null","Average lifespan","Energy savings","",""
"","","","","","choice_trial_setup","html-keyboard-response","98","1867683","0.0-5.0-0.7","155","1","2025-04-14 14:15:47","bb671e3ae32f654b8954ea4c4635f915","","Mozilla/5.0 (Windows NT 10.0; Win64; x64) AppleWebKit/537.36 (KHTML, like Gecko) Chrome/131.0.0.0 Safari/537.36","WebKit","Chrome","131.0.0.0","Windows","10.0","https://hz8g1ckzuq.cognition.run/","en-US,en;q=0.9","q5hxqzr761f88vm","26","[""Black or African-American""]","Yes","Female","2093794","null","","<p></p>","null","choice","cdt","repulsion_2","1","microwave ovens","null","null","null","null","null","null","1","","","","","","","","","",""
"","","","","","choice_trial","survey-html-form","99","1868543","0.0-5.0-1.7","155","1","2025-04-14 14:15:47","bb671e3ae32f654b8954ea4c4635f915","","Mozilla/5.0 (Windows NT 10.0; Win64; x64) AppleWebKit/537.36 (KHTML, like Gecko) Chrome/131.0.0.0 Safari/537.36","WebKit","Chrome","131.0.0.0","Windows","10.0","https://hz8g1ckzuq.cognition.run/","en-US,en;q=0.9","q5hxqzr761f88vm","26","[""Black or African-American""]","Yes","Female","2093794","853","","","{""product_choice"":""A""}","choice","cdt","repulsion_2","1","microwave ovens","null","null","null","null","null","null","1","100","90","100","30","40","20","Warranty","Cooking power","",""
"","","","","","choice_trial_setup","html-keyboard-response","100","1868849","0.0-5.0-0.8","155","1","2025-04-14 14:15:47","bb671e3ae32f654b8954ea4c4635f915","","Mozilla/5.0 (Windows NT 10.0; Win64; x64) AppleWebKit/537.36 (KHTML, like Gecko) Chrome/131.0.0.0 Safari/537.36","WebKit","Chrome","131.0.0.0","Windows","10.0","https://hz8g1ckzuq.cognition.run/","en-US,en;q=0.9","q5hxqzr761f88vm","26","[""Black or African-American""]","Yes","Female","2093794","null","","<p></p>","null","choice","wbw","catch","null","laptops","95","95","45","40","40","50","2","","","","","","","","","",""
"","","","","","choice_trial","survey-html-form","101","1869746","0.0-5.0-1.8","155","1","2025-04-14 14:15:47","bb671e3ae32f654b8954ea4c4635f915","","Mozilla/5.0 (Windows NT 10.0; Win64; x64) AppleWebKit/537.36 (KHTML, like Gecko) Chrome/131.0.0.0 Safari/537.36","WebKit","Chrome","131.0.0.0","Windows","10.0","https://hz8g1ckzuq.cognition.run/","en-US,en;q=0.9","q5hxqzr761f88vm","26","[""Black or African-American""]","Yes","Female","2093794","890","","","{""product_choice"":""B""}","choice","wbw","catch","null","laptops","95","95","45","40","40","50","2","null","null","null","null","null","null","Processing speed","Memory (RAM)","",""
"","","","","","choice_trial_setup","html-keyboard-response","102","1870053","0.0-5.0-0.9","155","1","2025-04-14 14:15:47","bb671e3ae32f654b8954ea4c4635f915","","Mozilla/5.0 (Windows NT 10.0; Win64; x64) AppleWebKit/537.36 (KHTML, like Gecko) Chrome/131.0.0.0 Safari/537.36","WebKit","Chrome","131.0.0.0","Windows","10.0","https://hz8g1ckzuq.cognition.run/","en-US,en;q=0.9","q5hxqzr761f88vm","26","[""Black or African-American""]","Yes","Female","2093794","null","","<p></p>","null","choice","wbw","catch","null","washing machines","55","95","40","45","40","35","1","","","","","","","","","",""
"","","","","","choice_trial","survey-html-form","103","1870803","0.0-5.0-1.9","155","1","2025-04-14 14:15:47","bb671e3ae32f654b8954ea4c4635f915","","Mozilla/5.0 (Windows NT 10.0; Win64; x64) AppleWebKit/537.36 (KHTML, like Gecko) Chrome/131.0.0.0 Safari/537.36","WebKit","Chrome","131.0.0.0","Windows","10.0","https://hz8g1ckzuq.cognition.run/","en-US,en;q=0.9","q5hxqzr761f88vm","26","[""Black or African-American""]","Yes","Female","2093794","743","","","{""product_choice"":""C""}","choice","wbw","catch","null","washing machines","55","95","40","45","40","35","1","null","null","null","null","null","null","Average lifespan","Energy savings","",""
"","","","","","choice_trial_setup","html-keyboard-response","104","1871107","0.0-5.0-0.10","155","1","2025-04-14 14:15:47","bb671e3ae32f654b8954ea4c4635f915","","Mozilla/5.0 (Windows NT 10.0; Win64; x64) AppleWebKit/537.36 (KHTML, like Gecko) Chrome/131.0.0.0 Safari/537.36","WebKit","Chrome","131.0.0.0","Windows","10.0","https://hz8g1ckzuq.cognition.run/","en-US,en;q=0.9","q5hxqzr761f88vm","26","[""Black or African-American""]","Yes","Female","2093794","null","","<p></p>","null","choice","cdt","attraction_2","2","televisions","null","null","null","null","null","null","1","","","","","","","","","",""
"","","","","","choice_trial","survey-html-form","105","1871928","0.0-5.0-1.10","155","1","2025-04-14 14:15:47","bb671e3ae32f654b8954ea4c4635f915","","Mozilla/5.0 (Windows NT 10.0; Win64; x64) AppleWebKit/537.36 (KHTML, like Gecko) Chrome/131.0.0.0 Safari/537.36","WebKit","Chrome","131.0.0.0","Windows","10.0","https://hz8g1ckzuq.cognition.run/","en-US,en;q=0.9","q5hxqzr761f88vm","26","[""Black or African-American""]","Yes","Female","2093794","816","","","{""product_choice"":""B""}","choice","cdt","attraction_2","2","televisions","null","null","null","null","null","null","1","50","60","40","60","50","60","Screen size","Average lifespan","",""
"","","","","","choice_trial_setup","html-keyboard-response","106","1872234","0.0-5.0-0.11","155","1","2025-04-14 14:15:47","bb671e3ae32f654b8954ea4c4635f915","","Mozilla/5.0 (Windows NT 10.0; Win64; x64) AppleWebKit/537.36 (KHTML, like Gecko) Chrome/131.0.0.0 Safari/537.36","WebKit","Chrome","131.0.0.0","Windows","10.0","https://hz8g1ckzuq.cognition.run/","en-US,en;q=0.9","q5hxqzr761f88vm","26","[""Black or African-American""]","Yes","Female","2093794","null","","<p></p>","null","choice","tdc","attraction_1","1","televisions","null","null","null","null","null","null","2","","","","","","","","","",""
"","","","","","choice_trial","survey-html-form","107","1874137","0.0-5.0-1.11","155","1","2025-04-14 14:15:47","bb671e3ae32f654b8954ea4c4635f915","","Mozilla/5.0 (Windows NT 10.0; Win64; x64) AppleWebKit/537.36 (KHTML, like Gecko) Chrome/131.0.0.0 Safari/537.36","WebKit","Chrome","131.0.0.0","Windows","10.0","https://hz8g1ckzuq.cognition.run/","en-US,en;q=0.9","q5hxqzr761f88vm","26","[""Black or African-American""]","Yes","Female","2093794","1897","","","{""product_choice"":""B""}","choice","tdc","attraction_1","1","televisions","null","null","null","null","null","null","2","60","50","60","50","60","45","Screen size","Average lifespan","",""
"","","","","","choice_trial_setup","html-keyboard-response","108","1874453","0.0-5.0-0.12","155","1","2025-04-14 14:15:47","bb671e3ae32f654b8954ea4c4635f915","","Mozilla/5.0 (Windows NT 10.0; Win64; x64) AppleWebKit/537.36 (KHTML, like Gecko) Chrome/131.0.0.0 Safari/537.36","WebKit","Chrome","131.0.0.0","Windows","10.0","https://hz8g1ckzuq.cognition.run/","en-US,en;q=0.9","q5hxqzr761f88vm","26","[""Black or African-American""]","Yes","Female","2093794","null","","<p></p>","null","choice","wbw","catch","null","microwave ovens","90","75","15","35","45","45","1","","","","","","","","","",""
"","","","","","choice_trial","survey-html-form","109","1875625","0.0-5.0-1.12","155","1","2025-04-14 14:15:47","bb671e3ae32f654b8954ea4c4635f915","","Mozilla/5.0 (Windows NT 10.0; Win64; x64) AppleWebKit/537.36 (KHTML, like Gecko) Chrome/131.0.0.0 Safari/537.36","WebKit","Chrome","131.0.0.0","Windows","10.0","https://hz8g1ckzuq.cognition.run/","en-US,en;q=0.9","q5hxqzr761f88vm","26","[""Black or African-American""]","Yes","Female","2093794","1165","","","{""product_choice"":""A""}","choice","wbw","catch","null","microwave ovens","90","75","15","35","45","45","1","null","null","null","null","null","null","Warranty","Cooking power","",""
"","","","","","choice_trial_setup","html-keyboard-response","110","1875930","0.0-5.0-0.13","155","1","2025-04-14 14:15:47","bb671e3ae32f654b8954ea4c4635f915","","Mozilla/5.0 (Windows NT 10.0; Win64; x64) AppleWebKit/537.36 (KHTML, like Gecko) Chrome/131.0.0.0 Safari/537.36","WebKit","Chrome","131.0.0.0","Windows","10.0","https://hz8g1ckzuq.cognition.run/","en-US,en;q=0.9","q5hxqzr761f88vm","26","[""Black or African-American""]","Yes","Female","2093794","null","","<p></p>","null","choice","bww","catch","null","televisions","90","85","10","45","35","10","2","","","","","","","","","",""
"","","","","","choice_trial","survey-html-form","111","1878721","0.0-5.0-1.13","155","1","2025-04-14 14:15:47","bb671e3ae32f654b8954ea4c4635f915","","Mozilla/5.0 (Windows NT 10.0; Win64; x64) AppleWebKit/537.36 (KHTML, like Gecko) Chrome/131.0.0.0 Safari/537.36","WebKit","Chrome","131.0.0.0","Windows","10.0","https://hz8g1ckzuq.cognition.run/","en-US,en;q=0.9","q5hxqzr761f88vm","26","[""Black or African-American""]","Yes","Female","2093794","2785","","","{""product_choice"":""A""}","choice","bww","catch","null","televisions","90","85","10","45","35","10","2","null","null","null","null","null","null","Screen size","Average lifespan","",""
"","","","","","choice_trial_setup","html-keyboard-response","112","1879026","0.0-5.0-0.14","155","1","2025-04-14 14:15:47","bb671e3ae32f654b8954ea4c4635f915","","Mozilla/5.0 (Windows NT 10.0; Win64; x64) AppleWebKit/537.36 (KHTML, like Gecko) Chrome/131.0.0.0 Safari/537.36","WebKit","Chrome","131.0.0.0","Windows","10.0","https://hz8g1ckzuq.cognition.run/","en-US,en;q=0.9","q5hxqzr761f88vm","26","[""Black or African-American""]","Yes","Female","2093794","null","","<p></p>","null","choice","tcd","repulsion_2","1","washing machines","null","null","null","null","null","null","2","","","","","","","","","",""
"","","","","","choice_trial","survey-html-form","113","1882252","0.0-5.0-1.14","155","1","2025-04-14 14:15:47","bb671e3ae32f654b8954ea4c4635f915","","Mozilla/5.0 (Windows NT 10.0; Win64; x64) AppleWebKit/537.36 (KHTML, like Gecko) Chrome/131.0.0.0 Safari/537.36","WebKit","Chrome","131.0.0.0","Windows","10.0","https://hz8g1ckzuq.cognition.run/","en-US,en;q=0.9","q5hxqzr761f88vm","26","[""Black or African-American""]","Yes","Female","2093794","3219","","","{""product_choice"":""B""}","choice","tcd","repulsion_2","1","washing machines","null","null","null","null","null","null","2","100","90","100","30","40","20","Average lifespan","Energy savings","",""
"","","","","","choice_trial_setup","html-keyboard-response","114","1882561","0.0-5.0-0.15","155","1","2025-04-14 14:15:47","bb671e3ae32f654b8954ea4c4635f915","","Mozilla/5.0 (Windows NT 10.0; Win64; x64) AppleWebKit/537.36 (KHTML, like Gecko) Chrome/131.0.0.0 Safari/537.36","WebKit","Chrome","131.0.0.0","Windows","10.0","https://hz8g1ckzuq.cognition.run/","en-US,en;q=0.9","q5hxqzr761f88vm","26","[""Black or African-American""]","Yes","Female","2093794","null","","<p></p>","null","choice","dtc","repulsion_1","1","televisions","null","null","null","null","null","null","1","","","","","","","","","",""
"","","","","","choice_trial","survey-html-form","115","1885197","0.0-5.0-1.15","155","1","2025-04-14 14:15:47","bb671e3ae32f654b8954ea4c4635f915","","Mozilla/5.0 (Windows NT 10.0; Win64; x64) AppleWebKit/537.36 (KHTML, like Gecko) Chrome/131.0.0.0 Safari/537.36","WebKit","Chrome","131.0.0.0","Windows","10.0","https://hz8g1ckzuq.cognition.run/","en-US,en;q=0.9","q5hxqzr761f88vm","26","[""Black or African-American""]","Yes","Female","2093794","2631","","","{""product_choice"":""C""}","choice","dtc","repulsion_1","1","televisions","null","null","null","null","null","null","1","100","90","100","30","40","25","Screen size","Average lifespan","",""
"","","","","","choice_trial_setup","html-keyboard-response","116","1885507","0.0-5.0-0.16","155","1","2025-04-14 14:15:47","bb671e3ae32f654b8954ea4c4635f915","","Mozilla/5.0 (Windows NT 10.0; Win64; x64) AppleWebKit/537.36 (KHTML, like Gecko) Chrome/131.0.0.0 Safari/537.36","WebKit","Chrome","131.0.0.0","Windows","10.0","https://hz8g1ckzuq.cognition.run/","en-US,en;q=0.9","q5hxqzr761f88vm","26","[""Black or African-American""]","Yes","Female","2093794","null","","<p></p>","null","choice","cdt","repulsion_1","1","microwave ovens","null","null","null","null","null","null","2","","","","","","","","","",""
"","","","","","choice_trial","survey-html-form","117","1888859","0.0-5.0-1.16","155","1","2025-04-14 14:15:47","bb671e3ae32f654b8954ea4c4635f915","","Mozilla/5.0 (Windows NT 10.0; Win64; x64) AppleWebKit/537.36 (KHTML, like Gecko) Chrome/131.0.0.0 Safari/537.36","WebKit","Chrome","131.0.0.0","Windows","10.0","https://hz8g1ckzuq.cognition.run/","en-US,en;q=0.9","q5hxqzr761f88vm","26","[""Black or African-American""]","Yes","Female","2093794","3347","","","{""product_choice"":""A""}","choice","cdt","repulsion_1","1","microwave ovens","null","null","null","null","null","null","2","100","90","100","30","40","25","Warranty","Cooking power","",""
"","","","","","choice_trial_setup","html-keyboard-response","118","1889166","0.0-5.0-0.17","155","1","2025-04-14 14:15:47","bb671e3ae32f654b8954ea4c4635f915","","Mozilla/5.0 (Windows NT 10.0; Win64; x64) AppleWebKit/537.36 (KHTML, like Gecko) Chrome/131.0.0.0 Safari/537.36","WebKit","Chrome","131.0.0.0","Windows","10.0","https://hz8g1ckzuq.cognition.run/","en-US,en;q=0.9","q5hxqzr761f88vm","26","[""Black or African-American""]","Yes","Female","2093794","null","","<p></p>","null","choice","cdt","attraction_2","1","laptops","null","null","null","null","null","null","1","","","","","","","","","",""
"","","","","","choice_trial","survey-html-form","119","1891228","0.0-5.0-1.17","155","1","2025-04-14 14:15:47","bb671e3ae32f654b8954ea4c4635f915","","Mozilla/5.0 (Windows NT 10.0; Win64; x64) AppleWebKit/537.36 (KHTML, like Gecko) Chrome/131.0.0.0 Safari/537.36","WebKit","Chrome","131.0.0.0","Windows","10.0","https://hz8g1ckzuq.cognition.run/","en-US,en;q=0.9","q5hxqzr761f88vm","26","[""Black or African-American""]","Yes","Female","2093794","2056","","","{""product_choice"":""B""}","choice","cdt","attraction_2","1","laptops","null","null","null","null","null","null","1","60","50","60","50","60","40","Processing speed","Memory (RAM)","",""
"","","","","","choice_trial_setup","html-keyboard-response","120","1891537","0.0-5.0-0.18","155","1","2025-04-14 14:15:47","bb671e3ae32f654b8954ea4c4635f915","","Mozilla/5.0 (Windows NT 10.0; Win64; x64) AppleWebKit/537.36 (KHTML, like Gecko) Chrome/131.0.0.0 Safari/537.36","WebKit","Chrome","131.0.0.0","Windows","10.0","https://hz8g1ckzuq.cognition.run/","en-US,en;q=0.9","q5hxqzr761f88vm","26","[""Black or African-American""]","Yes","Female","2093794","null","","<p></p>","null","choice","cdt","attraction_1","1","microwave ovens","null","null","null","null","null","null","2","","","","","","","","","",""
"","","","","","choice_trial","survey-html-form","121","1892717","0.0-5.0-1.18","155","1","2025-04-14 14:15:47","bb671e3ae32f654b8954ea4c4635f915","","Mozilla/5.0 (Windows NT 10.0; Win64; x64) AppleWebKit/537.36 (KHTML, like Gecko) Chrome/131.0.0.0 Safari/537.36","WebKit","Chrome","131.0.0.0","Windows","10.0","https://hz8g1ckzuq.cognition.run/","en-US,en;q=0.9","q5hxqzr761f88vm","26","[""Black or African-American""]","Yes","Female","2093794","1172","","","{""product_choice"":""B""}","choice","cdt","attraction_1","1","microwave ovens","null","null","null","null","null","null","2","60","50","60","50","60","45","Warranty","Cooking power","",""
"","","","","","choice_trial_setup","html-keyboard-response","122","1893022","0.0-5.0-0.19","155","1","2025-04-14 14:15:47","bb671e3ae32f654b8954ea4c4635f915","","Mozilla/5.0 (Windows NT 10.0; Win64; x64) AppleWebKit/537.36 (KHTML, like Gecko) Chrome/131.0.0.0 Safari/537.36","WebKit","Chrome","131.0.0.0","Windows","10.0","https://hz8g1ckzuq.cognition.run/","en-US,en;q=0.9","q5hxqzr761f88vm","26","[""Black or African-American""]","Yes","Female","2093794","null","","<p></p>","null","choice","tcd","repulsion_1","2","televisions","null","null","null","null","null","null","1","","","","","","","","","",""
"","","","","","choice_trial","survey-html-form","123","1894010","0.0-5.0-1.19","155","1","2025-04-14 14:15:47","bb671e3ae32f654b8954ea4c4635f915","","Mozilla/5.0 (Windows NT 10.0; Win64; x64) AppleWebKit/537.36 (KHTML, like Gecko) Chrome/131.0.0.0 Safari/537.36","WebKit","Chrome","131.0.0.0","Windows","10.0","https://hz8g1ckzuq.cognition.run/","en-US,en;q=0.9","q5hxqzr761f88vm","26","[""Black or African-American""]","Yes","Female","2093794","981","","","{""product_choice"":""C""}","choice","tcd","repulsion_1","2","televisions","null","null","null","null","null","null","1","30","40","25","100","90","100","Screen size","Average lifespan","",""
"","","","","","choice_trial_setup","html-keyboard-response","124","1894314","0.0-5.0-0.20","155","1","2025-04-14 14:15:47","bb671e3ae32f654b8954ea4c4635f915","","Mozilla/5.0 (Windows NT 10.0; Win64; x64) AppleWebKit/537.36 (KHTML, like Gecko) Chrome/131.0.0.0 Safari/537.36","WebKit","Chrome","131.0.0.0","Windows","10.0","https://hz8g1ckzuq.cognition.run/","en-US,en;q=0.9","q5hxqzr761f88vm","26","[""Black or African-American""]","Yes","Female","2093794","null","","<p></p>","null","choice","tcd","repulsion_2","1","televisions","null","null","null","null","null","null","1","","","","","","","","","",""
"","","","","","choice_trial","survey-html-form","125","1896664","0.0-5.0-1.20","155","1","2025-04-14 14:15:47","bb671e3ae32f654b8954ea4c4635f915","","Mozilla/5.0 (Windows NT 10.0; Win64; x64) AppleWebKit/537.36 (KHTML, like Gecko) Chrome/131.0.0.0 Safari/537.36","WebKit","Chrome","131.0.0.0","Windows","10.0","https://hz8g1ckzuq.cognition.run/","en-US,en;q=0.9","q5hxqzr761f88vm","26","[""Black or African-American""]","Yes","Female","2093794","2343","","","{""product_choice"":""B""}","choice","tcd","repulsion_2","1","televisions","null","null","null","null","null","null","1","100","90","100","30","40","20","Screen size","Average lifespan","",""
"","","","","","choice_trial_setup","html-keyboard-response","126","1896971","0.0-5.0-0.21","155","1","2025-04-14 14:15:47","bb671e3ae32f654b8954ea4c4635f915","","Mozilla/5.0 (Windows NT 10.0; Win64; x64) AppleWebKit/537.36 (KHTML, like Gecko) Chrome/131.0.0.0 Safari/537.36","WebKit","Chrome","131.0.0.0","Windows","10.0","https://hz8g1ckzuq.cognition.run/","en-US,en;q=0.9","q5hxqzr761f88vm","26","[""Black or African-American""]","Yes","Female","2093794","null","","<p></p>","null","choice","ctd","attraction_1","1","laptops","null","null","null","null","null","null","1","","","","","","","","","",""
"","","","","","choice_trial","survey-html-form","127","1897853","0.0-5.0-1.21","155","1","2025-04-14 14:15:47","bb671e3ae32f654b8954ea4c4635f915","","Mozilla/5.0 (Windows NT 10.0; Win64; x64) AppleWebKit/537.36 (KHTML, like Gecko) Chrome/131.0.0.0 Safari/537.36","WebKit","Chrome","131.0.0.0","Windows","10.0","https://hz8g1ckzuq.cognition.run/","en-US,en;q=0.9","q5hxqzr761f88vm","26","[""Black or African-American""]","Yes","Female","2093794","876","","","{""product_choice"":""C""}","choice","ctd","attraction_1","1","laptops","null","null","null","null","null","null","1","60","50","60","50","60","45","Processing speed","Memory (RAM)","",""
"","","","","","choice_trial_setup","html-keyboard-response","128","1898161","0.0-5.0-0.22","155","1","2025-04-14 14:15:47","bb671e3ae32f654b8954ea4c4635f915","","Mozilla/5.0 (Windows NT 10.0; Win64; x64) AppleWebKit/537.36 (KHTML, like Gecko) Chrome/131.0.0.0 Safari/537.36","WebKit","Chrome","131.0.0.0","Windows","10.0","https://hz8g1ckzuq.cognition.run/","en-US,en;q=0.9","q5hxqzr761f88vm","26","[""Black or African-American""]","Yes","Female","2093794","null","","<p></p>","null","choice","dtc","repulsion_1","2","microwave ovens","null","null","null","null","null","null","1","","","","","","","","","",""
"","","","","","choice_trial","survey-html-form","129","1901036","0.0-5.0-1.22","155","1","2025-04-14 14:15:47","bb671e3ae32f654b8954ea4c4635f915","","Mozilla/5.0 (Windows NT 10.0; Win64; x64) AppleWebKit/537.36 (KHTML, like Gecko) Chrome/131.0.0.0 Safari/537.36","WebKit","Chrome","131.0.0.0","Windows","10.0","https://hz8g1ckzuq.cognition.run/","en-US,en;q=0.9","q5hxqzr761f88vm","26","[""Black or African-American""]","Yes","Female","2093794","2868","","","{""product_choice"":""C""}","choice","dtc","repulsion_1","2","microwave ovens","null","null","null","null","null","null","1","30","40","25","100","90","100","Warranty","Cooking power","",""
"","","","","","choice_trial_setup","html-keyboard-response","130","1901343","0.0-5.0-0.23","155","1","2025-04-14 14:15:47","bb671e3ae32f654b8954ea4c4635f915","","Mozilla/5.0 (Windows NT 10.0; Win64; x64) AppleWebKit/537.36 (KHTML, like Gecko) Chrome/131.0.0.0 Safari/537.36","WebKit","Chrome","131.0.0.0","Windows","10.0","https://hz8g1ckzuq.cognition.run/","en-US,en;q=0.9","q5hxqzr761f88vm","26","[""Black or African-American""]","Yes","Female","2093794","null","","<p></p>","null","choice","tdc","repulsion_2","2","televisions","null","null","null","null","null","null","2","","","","","","","","","",""
"","","","","","choice_trial","survey-html-form","131","1904836","0.0-5.0-1.23","155","1","2025-04-14 14:15:47","bb671e3ae32f654b8954ea4c4635f915","","Mozilla/5.0 (Windows NT 10.0; Win64; x64) AppleWebKit/537.36 (KHTML, like Gecko) Chrome/131.0.0.0 Safari/537.36","WebKit","Chrome","131.0.0.0","Windows","10.0","https://hz8g1ckzuq.cognition.run/","en-US,en;q=0.9","q5hxqzr761f88vm","26","[""Black or African-American""]","Yes","Female","2093794","3486","","","{""product_choice"":""C""}","choice","tdc","repulsion_2","2","televisions","null","null","null","null","null","null","2","30","40","20","100","90","100","Screen size","Average lifespan","",""
"","","","","","choice_trial_setup","html-keyboard-response","132","1905142","0.0-5.0-0.24","155","1","2025-04-14 14:15:47","bb671e3ae32f654b8954ea4c4635f915","","Mozilla/5.0 (Windows NT 10.0; Win64; x64) AppleWebKit/537.36 (KHTML, like Gecko) Chrome/131.0.0.0 Safari/537.36","WebKit","Chrome","131.0.0.0","Windows","10.0","https://hz8g1ckzuq.cognition.run/","en-US,en;q=0.9","q5hxqzr761f88vm","26","[""Black or African-American""]","Yes","Female","2093794","null","","<p></p>","null","choice","wbw","catch","null","laptops","75","55","50","30","40","10","2","","","","","","","","","",""
"","","","","","choice_trial","survey-html-form","133","1908288","0.0-5.0-1.24","155","1","2025-04-14 14:15:47","bb671e3ae32f654b8954ea4c4635f915","","Mozilla/5.0 (Windows NT 10.0; Win64; x64) AppleWebKit/537.36 (KHTML, like Gecko) Chrome/131.0.0.0 Safari/537.36","WebKit","Chrome","131.0.0.0","Windows","10.0","https://hz8g1ckzuq.cognition.run/","en-US,en;q=0.9","q5hxqzr761f88vm","26","[""Black or African-American""]","Yes","Female","2093794","3138","","","{""product_choice"":""B""}","choice","wbw","catch","null","laptops","75","55","50","30","40","10","2","null","null","null","null","null","null","Processing speed","Memory (RAM)","",""
"","","","","","choice_trial_setup","html-keyboard-response","134","1908595","0.0-5.0-0.25","155","1","2025-04-14 14:15:47","bb671e3ae32f654b8954ea4c4635f915","","Mozilla/5.0 (Windows NT 10.0; Win64; x64) AppleWebKit/537.36 (KHTML, like Gecko) Chrome/131.0.0.0 Safari/537.36","WebKit","Chrome","131.0.0.0","Windows","10.0","https://hz8g1ckzuq.cognition.run/","en-US,en;q=0.9","q5hxqzr761f88vm","26","[""Black or African-American""]","Yes","Female","2093794","null","","<p></p>","null","choice","wwb","catch","null","televisions","70","55","15","5","25","25","1","","","","","","","","","",""
"","","","","","choice_trial","survey-html-form","135","1910370","0.0-5.0-1.25","155","1","2025-04-14 14:15:47","bb671e3ae32f654b8954ea4c4635f915","","Mozilla/5.0 (Windows NT 10.0; Win64; x64) AppleWebKit/537.36 (KHTML, like Gecko) Chrome/131.0.0.0 Safari/537.36","WebKit","Chrome","131.0.0.0","Windows","10.0","https://hz8g1ckzuq.cognition.run/","en-US,en;q=0.9","q5hxqzr761f88vm","26","[""Black or African-American""]","Yes","Female","2093794","1768","","","{""product_choice"":""C""}","choice","wwb","catch","null","televisions","70","55","15","5","25","25","1","null","null","null","null","null","null","Screen size","Average lifespan","",""
"","","","","","choice_trial_setup","html-keyboard-response","136","1910676","0.0-5.0-0.26","155","1","2025-04-14 14:15:47","bb671e3ae32f654b8954ea4c4635f915","","Mozilla/5.0 (Windows NT 10.0; Win64; x64) AppleWebKit/537.36 (KHTML, like Gecko) Chrome/131.0.0.0 Safari/537.36","WebKit","Chrome","131.0.0.0","Windows","10.0","https://hz8g1ckzuq.cognition.run/","en-US,en;q=0.9","q5hxqzr761f88vm","26","[""Black or African-American""]","Yes","Female","2093794","null","","<p></p>","null","choice","tdc","attraction_1","2","washing machines","null","null","null","null","null","null","2","","","","","","","","","",""
"","","","","","choice_trial","survey-html-form","137","1913431","0.0-5.0-1.26","155","1","2025-04-14 14:15:47","bb671e3ae32f654b8954ea4c4635f915","","Mozilla/5.0 (Windows NT 10.0; Win64; x64) AppleWebKit/537.36 (KHTML, like Gecko) Chrome/131.0.0.0 Safari/537.36","WebKit","Chrome","131.0.0.0","Windows","10.0","https://hz8g1ckzuq.cognition.run/","en-US,en;q=0.9","q5hxqzr761f88vm","26","[""Black or African-American""]","Yes","Female","2093794","2747","","","{""product_choice"":""C""}","choice","tdc","attraction_1","2","washing machines","null","null","null","null","null","null","2","50","60","45","60","50","60","Average lifespan","Energy savings","",""
"","","","","","choice_trial_setup","html-keyboard-response","138","1913739","0.0-5.0-0.27","155","1","2025-04-14 14:15:47","bb671e3ae32f654b8954ea4c4635f915","","Mozilla/5.0 (Windows NT 10.0; Win64; x64) AppleWebKit/537.36 (KHTML, like Gecko) Chrome/131.0.0.0 Safari/537.36","WebKit","Chrome","131.0.0.0","Windows","10.0","https://hz8g1ckzuq.cognition.run/","en-US,en;q=0.9","q5hxqzr761f88vm","26","[""Black or African-American""]","Yes","Female","2093794","null","","<p></p>","null","choice","tcd","repulsion_2","1","laptops","null","null","null","null","null","null","2","","","","","","","","","",""
"","","","","","choice_trial","survey-html-form","139","1916783","0.0-5.0-1.27","155","1","2025-04-14 14:15:47","bb671e3ae32f654b8954ea4c4635f915","","Mozilla/5.0 (Windows NT 10.0; Win64; x64) AppleWebKit/537.36 (KHTML, like Gecko) Chrome/131.0.0.0 Safari/537.36","WebKit","Chrome","131.0.0.0","Windows","10.0","https://hz8g1ckzuq.cognition.run/","en-US,en;q=0.9","q5hxqzr761f88vm","26","[""Black or African-American""]","Yes","Female","2093794","3037","","","{""product_choice"":""B""}","choice","tcd","repulsion_2","1","laptops","null","null","null","null","null","null","2","100","90","100","30","40","20","Processing speed","Memory (RAM)","",""
"","","","","","choice_trial_setup","html-keyboard-response","140","1917090","0.0-5.0-0.28","155","1","2025-04-14 14:15:47","bb671e3ae32f654b8954ea4c4635f915","","Mozilla/5.0 (Windows NT 10.0; Win64; x64) AppleWebKit/537.36 (KHTML, like Gecko) Chrome/131.0.0.0 Safari/537.36","WebKit","Chrome","131.0.0.0","Windows","10.0","https://hz8g1ckzuq.cognition.run/","en-US,en;q=0.9","q5hxqzr761f88vm","26","[""Black or African-American""]","Yes","Female","2093794","null","","<p></p>","null","choice","cdt","repulsion_2","2","washing machines","null","null","null","null","null","null","2","","","","","","","","","",""
"","","","","","choice_trial","survey-html-form","141","1919919","0.0-5.0-1.28","155","1","2025-04-14 14:15:47","bb671e3ae32f654b8954ea4c4635f915","","Mozilla/5.0 (Windows NT 10.0; Win64; x64) AppleWebKit/537.36 (KHTML, like Gecko) Chrome/131.0.0.0 Safari/537.36","WebKit","Chrome","131.0.0.0","Windows","10.0","https://hz8g1ckzuq.cognition.run/","en-US,en;q=0.9","q5hxqzr761f88vm","26","[""Black or African-American""]","Yes","Female","2093794","2823","","","{""product_choice"":""A""}","choice","cdt","repulsion_2","2","washing machines","null","null","null","null","null","null","2","30","40","20","100","90","100","Average lifespan","Energy savings","",""
"","","","","","choice_trial_setup","html-keyboard-response","142","1920227","0.0-5.0-0.29","155","1","2025-04-14 14:15:47","bb671e3ae32f654b8954ea4c4635f915","","Mozilla/5.0 (Windows NT 10.0; Win64; x64) AppleWebKit/537.36 (KHTML, like Gecko) Chrome/131.0.0.0 Safari/537.36","WebKit","Chrome","131.0.0.0","Windows","10.0","https://hz8g1ckzuq.cognition.run/","en-US,en;q=0.9","q5hxqzr761f88vm","26","[""Black or African-American""]","Yes","Female","2093794","null","","<p></p>","null","choice","tdc","attraction_2","2","microwave ovens","null","null","null","null","null","null","2","","","","","","","","","",""
"","","","","","choice_trial","survey-html-form","143","1922464","0.0-5.0-1.29","155","1","2025-04-14 14:15:47","bb671e3ae32f654b8954ea4c4635f915","","Mozilla/5.0 (Windows NT 10.0; Win64; x64) AppleWebKit/537.36 (KHTML, like Gecko) Chrome/131.0.0.0 Safari/537.36","WebKit","Chrome","131.0.0.0","Windows","10.0","https://hz8g1ckzuq.cognition.run/","en-US,en;q=0.9","q5hxqzr761f88vm","26","[""Black or African-American""]","Yes","Female","2093794","2230","","","{""product_choice"":""C""}","choice","tdc","attraction_2","2","microwave ovens","null","null","null","null","null","null","2","50","60","40","60","50","60","Warranty","Cooking power","",""
"","","","","","choice_trial_setup","html-keyboard-response","144","1922774","0.0-5.0-0.30","155","1","2025-04-14 14:15:47","bb671e3ae32f654b8954ea4c4635f915","","Mozilla/5.0 (Windows NT 10.0; Win64; x64) AppleWebKit/537.36 (KHTML, like Gecko) Chrome/131.0.0.0 Safari/537.36","WebKit","Chrome","131.0.0.0","Windows","10.0","https://hz8g1ckzuq.cognition.run/","en-US,en;q=0.9","q5hxqzr761f88vm","26","[""Black or African-American""]","Yes","Female","2093794","null","","<p></p>","null","choice","cdt","attraction_1","1","washing machines","null","null","null","null","null","null","2","","","","","","","","","",""
"","","","","","choice_trial","survey-html-form","145","1924475","0.0-5.0-1.30","155","1","2025-04-14 14:15:47","bb671e3ae32f654b8954ea4c4635f915","","Mozilla/5.0 (Windows NT 10.0; Win64; x64) AppleWebKit/537.36 (KHTML, like Gecko) Chrome/131.0.0.0 Safari/537.36","WebKit","Chrome","131.0.0.0","Windows","10.0","https://hz8g1ckzuq.cognition.run/","en-US,en;q=0.9","q5hxqzr761f88vm","26","[""Black or African-American""]","Yes","Female","2093794","1693","","","{""product_choice"":""C""}","choice","cdt","attraction_1","1","washing machines","null","null","null","null","null","null","2","60","50","60","50","60","45","Average lifespan","Energy savings","",""
"","","","","","choice_trial_setup","html-keyboard-response","146","1924782","0.0-5.0-0.31","155","1","2025-04-14 14:15:47","bb671e3ae32f654b8954ea4c4635f915","","Mozilla/5.0 (Windows NT 10.0; Win64; x64) AppleWebKit/537.36 (KHTML, like Gecko) Chrome/131.0.0.0 Safari/537.36","WebKit","Chrome","131.0.0.0","Windows","10.0","https://hz8g1ckzuq.cognition.run/","en-US,en;q=0.9","q5hxqzr761f88vm","26","[""Black or African-American""]","Yes","Female","2093794","null","","<p></p>","null","choice","dct","repulsion_1","1","laptops","null","null","null","null","null","null","1","","","","","","","","","",""
"","","","","","choice_trial","survey-html-form","147","1927155","0.0-5.0-1.31","155","1","2025-04-14 14:15:47","bb671e3ae32f654b8954ea4c4635f915","","Mozilla/5.0 (Windows NT 10.0; Win64; x64) AppleWebKit/537.36 (KHTML, like Gecko) Chrome/131.0.0.0 Safari/537.36","WebKit","Chrome","131.0.0.0","Windows","10.0","https://hz8g1ckzuq.cognition.run/","en-US,en;q=0.9","q5hxqzr761f88vm","26","[""Black or African-American""]","Yes","Female","2093794","2364","","","{""product_choice"":""B""}","choice","dct","repulsion_1","1","laptops","null","null","null","null","null","null","1","100","90","100","30","40","25","Processing speed","Memory (RAM)","",""
"","","","","","choice_trial_setup","html-keyboard-response","148","1927463","0.0-5.0-0.32","155","1","2025-04-14 14:15:47","bb671e3ae32f654b8954ea4c4635f915","","Mozilla/5.0 (Windows NT 10.0; Win64; x64) AppleWebKit/537.36 (KHTML, like Gecko) Chrome/131.0.0.0 Safari/537.36","WebKit","Chrome","131.0.0.0","Windows","10.0","https://hz8g1ckzuq.cognition.run/","en-US,en;q=0.9","q5hxqzr761f88vm","26","[""Black or African-American""]","Yes","Female","2093794","null","","<p></p>","null","choice","tdc","attraction_2","2","laptops","null","null","null","null","null","null","1","","","","","","","","","",""
"","","","","","choice_trial","survey-html-form","149","1929789","0.0-5.0-1.32","155","1","2025-04-14 14:15:47","bb671e3ae32f654b8954ea4c4635f915","","Mozilla/5.0 (Windows NT 10.0; Win64; x64) AppleWebKit/537.36 (KHTML, like Gecko) Chrome/131.0.0.0 Safari/537.36","WebKit","Chrome","131.0.0.0","Windows","10.0","https://hz8g1ckzuq.cognition.run/","en-US,en;q=0.9","q5hxqzr761f88vm","26","[""Black or African-American""]","Yes","Female","2093794","2319","","","{""product_choice"":""C""}","choice","tdc","attraction_2","2","laptops","null","null","null","null","null","null","1","50","60","40","60","50","60","Processing speed","Memory (RAM)","",""
"","","","","","choice_trial_setup","html-keyboard-response","150","1930096","0.0-5.0-0.33","155","1","2025-04-14 14:15:47","bb671e3ae32f654b8954ea4c4635f915","","Mozilla/5.0 (Windows NT 10.0; Win64; x64) AppleWebKit/537.36 (KHTML, like Gecko) Chrome/131.0.0.0 Safari/537.36","WebKit","Chrome","131.0.0.0","Windows","10.0","https://hz8g1ckzuq.cognition.run/","en-US,en;q=0.9","q5hxqzr761f88vm","26","[""Black or African-American""]","Yes","Female","2093794","null","","<p></p>","null","choice","tdc","attraction_2","2","washing machines","null","null","null","null","null","null","1","","","","","","","","","",""
"","","","","","choice_trial","survey-html-form","151","1931839","0.0-5.0-1.33","155","1","2025-04-14 14:15:47","bb671e3ae32f654b8954ea4c4635f915","","Mozilla/5.0 (Windows NT 10.0; Win64; x64) AppleWebKit/537.36 (KHTML, like Gecko) Chrome/131.0.0.0 Safari/537.36","WebKit","Chrome","131.0.0.0","Windows","10.0","https://hz8g1ckzuq.cognition.run/","en-US,en;q=0.9","q5hxqzr761f88vm","26","[""Black or African-American""]","Yes","Female","2093794","1735","","","{""product_choice"":""B""}","choice","tdc","attraction_2","2","washing machines","null","null","null","null","null","null","1","50","60","40","60","50","60","Average lifespan","Energy savings","",""
"","","","","","choice_trial_setup","html-keyboard-response","152","1932148","0.0-5.0-0.34","155","1","2025-04-14 14:15:47","bb671e3ae32f654b8954ea4c4635f915","","Mozilla/5.0 (Windows NT 10.0; Win64; x64) AppleWebKit/537.36 (KHTML, like Gecko) Chrome/131.0.0.0 Safari/537.36","WebKit","Chrome","131.0.0.0","Windows","10.0","https://hz8g1ckzuq.cognition.run/","en-US,en;q=0.9","q5hxqzr761f88vm","26","[""Black or African-American""]","Yes","Female","2093794","null","","<p></p>","null","choice","tdc","repulsion_1","1","washing machines","null","null","null","null","null","null","2","","","","","","","","","",""
"","","","","","choice_trial","survey-html-form","153","1934036","0.0-5.0-1.34","155","1","2025-04-14 14:15:47","bb671e3ae32f654b8954ea4c4635f915","","Mozilla/5.0 (Windows NT 10.0; Win64; x64) AppleWebKit/537.36 (KHTML, like Gecko) Chrome/131.0.0.0 Safari/537.36","WebKit","Chrome","131.0.0.0","Windows","10.0","https://hz8g1ckzuq.cognition.run/","en-US,en;q=0.9","q5hxqzr761f88vm","26","[""Black or African-American""]","Yes","Female","2093794","1881","","","{""product_choice"":""C""}","choice","tdc","repulsion_1","1","washing machines","null","null","null","null","null","null","2","100","90","100","30","40","25","Average lifespan","Energy savings","",""
"","","","","","choice_trial_setup","html-keyboard-response","154","1934351","0.0-5.0-0.35","155","1","2025-04-14 14:15:47","bb671e3ae32f654b8954ea4c4635f915","","Mozilla/5.0 (Windows NT 10.0; Win64; x64) AppleWebKit/537.36 (KHTML, like Gecko) Chrome/131.0.0.0 Safari/537.36","WebKit","Chrome","131.0.0.0","Windows","10.0","https://hz8g1ckzuq.cognition.run/","en-US,en;q=0.9","q5hxqzr761f88vm","26","[""Black or African-American""]","Yes","Female","2093794","null","","<p></p>","null","choice","dtc","repulsion_2","2","laptops","null","null","null","null","null","null","1","","","","","","","","","",""
